onset	duration	response_time_ms	trial_type	learning_stage	stimulus	response_port
0.0	1.621	1620.8	regulate	Run1	regulate/STIM_000.jpg	100
4.38	2.467	2467.1	regulate	Run1	regulate/STIM_000.jpg	100
9.484	1.846	1846.2	regulate	Run1	regulate/STIM_000.jpg	99
14.144	1.501	1501.4	regulate	Run1	regulate/STIM_000.jpg	100
17.982	1.585	1584.9	regulate	Run1	regulate/STIM_001.jpg	100
22.186	2.371	2371.1	regulate	Run1	regulate/STIM_001.jpg	100
28.094	1.748	1748.3	regulate	Run1	regulate/STIM_001.jpg	100
32.527	2.226	2225.8	regulate	Run1	regulate/STIM_001.jpg	99
36.78	2.982	2981.5	regulate	Run1	regulate/STIM_002.jpg	100
42.796	2.062	2061.6	regulate	Run1	regulate/STIM_002.jpg	100
48.951	2.25	2249.9	regulate	Run1	regulate/STIM_002.jpg	99
53.762	2.313	2313.2	regulate	Run1	regulate/STIM_002.jpg	99
58.754	2.064	2064.1	regulate	Run1	regulate/STIM_003.jpg	99
63.57	2.232	2232.1	regulate	Run1	regulate/STIM_003.jpg	99
68.905	2.89	2889.5	regulate	Run1	regulate/STIM_003.jpg	99
75.113	2.318	2318.2	regulate	Run1	regulate/STIM_003.jpg	99
80.835	2.964	2964.0	regulate	Run1	regulate/STIM_004.jpg	100
86.094	1.718	1718.5	regulate	Run1	regulate/STIM_004.jpg	99
90.907	1.97	1969.6	regulate	Run1	regulate/STIM_004.jpg	100
95.703	2.743	2742.8	regulate	Run1	regulate/STIM_004.jpg	99
102.308	2.089	2089.4	regulate	Run1	regulate/STIM_005.jpg	100
107.193	2.059	2059.2	regulate	Run1	regulate/STIM_005.jpg	100
112.565	2.459	2458.9	regulate	Run1	regulate/STIM_005.jpg	99
118.113	1.831	1830.8	regulate	Run1	regulate/STIM_005.jpg	99
123.559	2.278	2278.4	regulate	Run1	regulate/STIM_006.jpg	99
129.648	2.018	2018.5	regulate	Run1	regulate/STIM_006.jpg	100
134.437	2.067	2066.8	regulate	Run1	regulate/STIM_006.jpg	100
139.224	2.601	2601.3	regulate	Run1	regulate/STIM_006.jpg	100
145.14	2.676	2675.7	regulate	Run1	regulate/STIM_007.jpg	99
150.152	2.574	2573.6	regulate	Run1	regulate/STIM_007.jpg	100
154.971	2.584	2583.8	regulate	Run1	regulate/STIM_007.jpg	99
161.324	2.011	2011.2	regulate	Run1	regulate/STIM_007.jpg	100
167.316	3.052	3051.9	regulate	Run1	regulate/STIM_008.jpg	99
174.131	2.393	2392.9	regulate	Run1	regulate/STIM_008.jpg	100
179.089	2.516	2515.8	regulate	Run1	regulate/STIM_008.jpg	100
185.224	1.52	1519.9	regulate	Run1	regulate/STIM_008.jpg	100
190.257	3.21	3209.8	regulate	Run1	regulate/STIM_009.jpg	100
196.581	3.127	3126.8	regulate	Run1	regulate/STIM_009.jpg	99
202.482	2.781	2781.3	regulate	Run1	regulate/STIM_009.jpg	99
208.687	1.318	1317.5	regulate	Run1	regulate/STIM_009.jpg	99
213.311	2.235	2234.6	regulate	Run1	regulate/STIM_010.jpg	100
218.891	1.767	1766.6	regulate	Run1	regulate/STIM_010.jpg	99
224.454	2.752	2752.1	regulate	Run1	regulate/STIM_010.jpg	99
231.122	1.615	1615.3	regulate	Run1	regulate/STIM_010.jpg	100
236.6	3.183	3183.4	regulate	Run1	regulate/STIM_011.jpg	100
241.794	2.988	2988.4	regulate	Run1	regulate/STIM_011.jpg	100
248.491	2.752	2752.1	regulate	Run1	regulate/STIM_011.jpg	99
255.053	2.753	2752.8	regulate	Run1	regulate/STIM_011.jpg	99
260.927	2.65	2650.5	regulate	Run1	regulate/STIM_012.jpg	99
267.208	3.262	3261.5	regulate	Run1	regulate/STIM_012.jpg	100
274.02	2.549	2549.4	regulate	Run1	regulate/STIM_012.jpg	100
279.687	1.614	1613.7	regulate	Run1	regulate/STIM_012.jpg	100
284.951	2.381	2380.8	regulate	Run1	regulate/STIM_013.jpg	100
289.881	2.789	2789.0	regulate	Run1	regulate/STIM_013.jpg	100
295.31	1.654	1654.0	regulate	Run1	regulate/STIM_013.jpg	100
300.485	1.481	1481.3	regulate	Run1	regulate/STIM_013.jpg	100
304.748	3.346	3346.5	regulate	Run1	regulate/STIM_014.jpg	99
310.697	3.032	3032.3	regulate	Run1	regulate/STIM_014.jpg	99
316.313	1.82	1819.6	regulate	Run1	regulate/STIM_014.jpg	100
320.991	1.373	1373.1	regulate	Run1	regulate/STIM_014.jpg	100
325.103	2.034	2034.2	regulate	Run1	regulate/STIM_015.jpg	99
329.263	2.814	2813.6	regulate	Run1	regulate/STIM_015.jpg	100
334.641	2.047	2047.2	regulate	Run1	regulate/STIM_015.jpg	100
339.734	1.972	1971.5	regulate	Run1	regulate/STIM_015.jpg	99
345.403	2.562	2561.9	regulate	Run1	regulate/STIM_016.jpg	99
350.761	2.418	2418.1	regulate	Run1	regulate/STIM_016.jpg	100
355.842	2.055	2055.4	regulate	Run1	regulate/STIM_016.jpg	100
360.451	1.608	1607.7	regulate	Run1	regulate/STIM_016.jpg	99
364.961	1.867	1866.9	regulate	Run1	regulate/STIM_017.jpg	99
369.717	2.727	2727.1	regulate	Run1	regulate/STIM_017.jpg	100
374.54	2.722	2721.6	regulate	Run1	regulate/STIM_017.jpg	100
380.721	1.679	1678.9	regulate	Run1	regulate/STIM_017.jpg	100
385.884	3.31	3309.9	regulate	Run1	regulate/STIM_018.jpg	100
391.869	2.612	2611.8	regulate	Run1	regulate/STIM_018.jpg	100
398.279	2.379	2379.3	regulate	Run1	regulate/STIM_018.jpg	99
403.902	1.828	1828.2	regulate	Run1	regulate/STIM_018.jpg	100
409.562	3.396	3396.3	regulate	Run1	regulate/STIM_019.jpg	99
415.201	3.126	3126.5	regulate	Run1	regulate/STIM_019.jpg	100
422.079	2.035	2035.4	regulate	Run1	regulate/STIM_019.jpg	100
427.669	2.004	2004.2	regulate	Run1	regulate/STIM_019.jpg	99
432.688	2.896	2895.6	regulate	Run1	regulate/STIM_020.jpg	99
438.279	1.949	1949.3	regulate	Run1	regulate/STIM_020.jpg	100
443.028	2.097	2097.1	regulate	Run1	regulate/STIM_020.jpg	99
447.718	1.665	1665.1	regulate	Run1	regulate/STIM_020.jpg	100
451.596	1.678	1677.9	regulate	Run1	regulate/STIM_021.jpg	99
456.918	2.021	2020.8	regulate	Run1	regulate/STIM_021.jpg	100
461.598	1.35	1349.6	regulate	Run1	regulate/STIM_021.jpg	99
465.026	1.936	1936.1	regulate	Run1	regulate/STIM_021.jpg	99
469.241	1.488	1487.9	regulate	Run1	regulate/STIM_022.jpg	100
474.096	2.206	2206.3	regulate	Run1	regulate/STIM_022.jpg	100
479.148	2.303	2302.6	regulate	Run1	regulate/STIM_022.jpg	99
483.614	2.049	2048.8	regulate	Run1	regulate/STIM_022.jpg	99
489.587	2.425	2425.3	regulate	Run1	regulate/STIM_023.jpg	99
495.773	2.541	2541.0	regulate	Run1	regulate/STIM_023.jpg	99
500.618	1.845	1845.0	regulate	Run1	regulate/STIM_023.jpg	99
505.239	2.093	2093.1	regulate	Run1	regulate/STIM_023.jpg	100
510.421	1.744	1744.1	regulate	Run1	regulate/STIM_024.jpg	100
515.588	2.552	2552.4	regulate	Run1	regulate/STIM_024.jpg	99
520.725	1.479	1478.8	regulate	Run1	regulate/STIM_024.jpg	99
525.037	2.724	2724.3	regulate	Run1	regulate/STIM_024.jpg	100
531.564	2.417	2417.4	regulate	Run1	regulate/STIM_025.jpg	100
536.687	2.124	2124.2	regulate	Run1	regulate/STIM_025.jpg	100
541.814	2.192	2192.1	regulate	Run1	regulate/STIM_025.jpg	100
546.589	1.323	1323.1	regulate	Run1	regulate/STIM_025.jpg	100
551.848	3.197	3197.2	regulate	Run1	regulate/STIM_026.jpg	99
557.459	1.598	1598.0	regulate	Run1	regulate/STIM_026.jpg	100
562.194	2.068	2067.6	regulate	Run1	regulate/STIM_026.jpg	100
566.33	2.48	2479.6	regulate	Run1	regulate/STIM_026.jpg	99
571.619	2.922	2922.1	regulate	Run1	regulate/STIM_027.jpg	99
578.143	2.555	2555.3	regulate	Run1	regulate/STIM_027.jpg	99
584.481	2.702	2701.5	regulate	Run1	regulate/STIM_027.jpg	100
591.29	1.764	1763.5	regulate	Run1	regulate/STIM_027.jpg	99
595.265	2.223	2223.0	regulate	Run1	regulate/STIM_028.jpg	100
599.851	1.44	1439.5	regulate	Run1	regulate/STIM_028.jpg	99
604.736	2.203	2203.3	regulate	Run1	regulate/STIM_028.jpg	99
610.153	1.372	1371.6	regulate	Run1	regulate/STIM_028.jpg	100
615.274	1.479	1479.3	regulate	Run1	regulate/STIM_029.jpg	99
620.332	2.166	2165.8	regulate	Run1	regulate/STIM_029.jpg	100
625.605	2.938	2937.6	regulate	Run1	regulate/STIM_029.jpg	99
631.511	2.64	2640.0	regulate	Run1	regulate/STIM_029.jpg	100
636.712	1.459	1459.3	observe	Run1	observe/STIM_000.jpg	99
641.043	1.408	1407.8	observe	Run1	observe/STIM_000.jpg	99
646.15	0.86	860.1	observe	Run1	observe/STIM_000.jpg	100
650.335	1.258	1258.4	observe	Run1	observe/STIM_000.jpg	100
655.196	1.047	1047.0	observe	Run1	observe/STIM_001.jpg	99
660.107	1.55	1549.8	observe	Run1	observe/STIM_001.jpg	100
663.593	1.086	1086.3	observe	Run1	observe/STIM_001.jpg	99
668.064	1.2	1200.5	observe	Run1	observe/STIM_001.jpg	99
672.363	1.093	1092.7	observe	Run1	observe/STIM_002.jpg	100
676.856	1.08	1080.4	observe	Run1	observe/STIM_002.jpg	100
681.05	0.811	810.6	observe	Run1	observe/STIM_002.jpg	100
685.682	1.032	1032.4	observe	Run1	observe/STIM_002.jpg	100
689.107	0.796	795.7	observe	Run1	observe/STIM_003.jpg	99
692.538	1.39	1390.3	observe	Run1	observe/STIM_003.jpg	99
696.462	1.377	1377.1	observe	Run1	observe/STIM_003.jpg	99
701.022	1.487	1487.2	observe	Run1	observe/STIM_003.jpg	100
704.923	1.603	1603.1	observe	Run1	observe/STIM_004.jpg	100
709.683	0.954	953.9	observe	Run1	observe/STIM_004.jpg	100
714.4	0.832	832.1	observe	Run1	observe/STIM_004.jpg	99
718.683	1.351	1350.8	observe	Run1	observe/STIM_004.jpg	99
723.833	1.136	1136.4	observe	Run1	observe/STIM_005.jpg	100
727.907	0.84	840.0	observe	Run1	observe/STIM_005.jpg	100
732.045	0.976	975.7	observe	Run1	observe/STIM_005.jpg	99
736.279	0.88	879.8	observe	Run1	observe/STIM_005.jpg	99
739.585	1.08	1080.4	observe	Run1	observe/STIM_006.jpg	100
744.226	1.516	1515.9	observe	Run1	observe/STIM_006.jpg	100
748.331	1.237	1237.2	observe	Run1	observe/STIM_006.jpg	100
753.126	0.968	967.7	observe	Run1	observe/STIM_006.jpg	100
756.25	0.678	678.0	observe	Run1	observe/STIM_007.jpg	100
760.184	0.987	986.9	observe	Run1	observe/STIM_007.jpg	100
764.248	1.397	1397.1	observe	Run1	observe/STIM_007.jpg	100
768.296	1.073	1073.4	observe	Run1	observe/STIM_007.jpg	99
771.655	0.971	971.0	observe	Run1	observe/STIM_008.jpg	100
775.895	0.936	936.2	observe	Run1	observe/STIM_008.jpg	99
779.368	1.134	1134.2	observe	Run1	observe/STIM_008.jpg	99
784.093	1.299	1299.1	observe	Run1	observe/STIM_008.jpg	100
787.719	1.359	1359.4	observe	Run1	observe/STIM_009.jpg	99
792.979	1.317	1316.8	observe	Run1	observe/STIM_009.jpg	100
797.399	1.164	1163.8	observe	Run1	observe/STIM_009.jpg	100
801.716	1.049	1049.2	observe	Run1	observe/STIM_009.jpg	100
806.651	1.187	1187.0	observe	Run1	observe/STIM_010.jpg	100
810.146	1.003	1003.4	observe	Run1	observe/STIM_010.jpg	100
814.287	1.359	1358.8	observe	Run1	observe/STIM_010.jpg	99
819.673	1.156	1156.5	observe	Run1	observe/STIM_010.jpg	100
823.783	1.398	1398.5	observe	Run1	observe/STIM_011.jpg	99
828.958	0.965	965.2	observe	Run1	observe/STIM_011.jpg	100
833.718	1.478	1477.9	observe	Run1	observe/STIM_011.jpg	100
837.474	0.933	933.4	observe	Run1	observe/STIM_011.jpg	99
841.39	0.911	911.1	observe	Run1	observe/STIM_012.jpg	100
845.831	0.876	875.8	observe	Run1	observe/STIM_012.jpg	100
848.966	1.212	1211.8	observe	Run1	observe/STIM_012.jpg	99
853.101	1.487	1487.2	observe	Run1	observe/STIM_012.jpg	99
857.467	1.187	1186.7	observe	Run1	observe/STIM_013.jpg	99
861.11	1.425	1424.9	observe	Run1	observe/STIM_013.jpg	100
864.792	1.335	1335.2	observe	Run1	observe/STIM_013.jpg	99
869.273	1.318	1318.0	observe	Run1	observe/STIM_013.jpg	100
873.71	1.39	1390.3	observe	Run1	observe/STIM_014.jpg	100
877.914	1.338	1338.1	observe	Run1	observe/STIM_014.jpg	99
882.134	1.08	1080.0	observe	Run1	observe/STIM_014.jpg	99
885.803	1.218	1217.5	observe	Run1	observe/STIM_014.jpg	99
891.067	1.128	1127.8	observe	Run1	observe/STIM_015.jpg	100
895.906	1.17	1170.1	observe	Run1	observe/STIM_015.jpg	99
900.574	1.52	1520.2	observe	Run1	observe/STIM_015.jpg	99
904.175	1.41	1409.7	observe	Run1	observe/STIM_015.jpg	99
908.217	1.196	1196.0	observe	Run1	observe/STIM_016.jpg	99
911.452	1.341	1340.9	observe	Run1	observe/STIM_016.jpg	100
915.718	1.022	1021.6	observe	Run1	observe/STIM_016.jpg	100
919.83	1.322	1321.7	observe	Run1	observe/STIM_016.jpg	100
924.62	1.308	1307.7	observe	Run1	observe/STIM_017.jpg	100
929.949	1.262	1261.6	observe	Run1	observe/STIM_017.jpg	100
934.961	1.073	1072.8	observe	Run1	observe/STIM_017.jpg	99
939.645	1.359	1359.0	observe	Run1	observe/STIM_017.jpg	99
944.851	0.944	944.3	observe	Run1	observe/STIM_018.jpg	100
949.028	0.848	848.0	observe	Run1	observe/STIM_018.jpg	100
953.622	1.481	1480.6	observe	Run1	observe/STIM_018.jpg	99
958.366	0.917	916.8	observe	Run1	observe/STIM_018.jpg	100
963.034	0.882	882.2	observe	Run1	observe/STIM_019.jpg	100
967.485	1.309	1308.8	observe	Run1	observe/STIM_019.jpg	99
970.849	1.338	1338.0	observe	Run1	observe/STIM_019.jpg	100
975.691	0.816	816.0	observe	Run1	observe/STIM_019.jpg	99
979.502	2.184	2183.5	regulate	Run2	regulate/STIM_000.jpg	99
984.729	1.561	1560.8	regulate	Run2	regulate/STIM_000.jpg	99
988.888	1.38	1380.0	regulate	Run2	regulate/STIM_000.jpg	99
992.896	1.13	1130.4	regulate	Run2	regulate/STIM_000.jpg	100
996.458	2.812	2811.5	regulate	Run2	regulate/STIM_001.jpg	99
1003.011	1.805	1805.4	regulate	Run2	regulate/STIM_001.jpg	100
1008.787	2.229	2228.6	regulate	Run2	regulate/STIM_001.jpg	99
1014.369	1.38	1380.5	regulate	Run2	regulate/STIM_001.jpg	100
1019.159	2.026	2026.5	regulate	Run2	regulate/STIM_002.jpg	100
1023.934	2.796	2795.7	regulate	Run2	regulate/STIM_002.jpg	100
1030.084	2.374	2374.1	regulate	Run2	regulate/STIM_002.jpg	99
1035.242	1.422	1421.6	regulate	Run2	regulate/STIM_002.jpg	99
1039.457	2.14	2140.4	regulate	Run2	regulate/STIM_003.jpg	99
1043.966	1.927	1927.3	regulate	Run2	regulate/STIM_003.jpg	99
1049.003	1.816	1816.0	regulate	Run2	regulate/STIM_003.jpg	100
1054.264	2.23	2229.9	regulate	Run2	regulate/STIM_003.jpg	99
1060.152	1.768	1768.2	regulate	Run2	regulate/STIM_004.jpg	99
1065.907	2.618	2617.8	regulate	Run2	regulate/STIM_004.jpg	100
1071.846	1.552	1551.9	regulate	Run2	regulate/STIM_004.jpg	100
1076.397	1.495	1495.3	regulate	Run2	regulate/STIM_004.jpg	100
1080.027	1.278	1278.0	regulate	Run2	regulate/STIM_005.jpg	100
1083.728	1.515	1515.4	regulate	Run2	regulate/STIM_005.jpg	99
1088.619	1.248	1248.5	regulate	Run2	regulate/STIM_005.jpg	100
1092.38	2.14	2139.6	regulate	Run2	regulate/STIM_005.jpg	100
1096.995	1.369	1369.2	regulate	Run2	regulate/STIM_006.jpg	99
1101.641	1.638	1637.6	regulate	Run2	regulate/STIM_006.jpg	100
1106.518	1.497	1496.8	regulate	Run2	regulate/STIM_006.jpg	99
1110.439	1.886	1886.1	regulate	Run2	regulate/STIM_006.jpg	99
1115.332	2.063	2063.4	regulate	Run2	regulate/STIM_007.jpg	100
1120.669	2.114	2113.5	regulate	Run2	regulate/STIM_007.jpg	100
1125.878	1.987	1986.6	regulate	Run2	regulate/STIM_007.jpg	100
1131.076	1.542	1542.3	regulate	Run2	regulate/STIM_007.jpg	99
1135.809	1.549	1548.6	regulate	Run2	regulate/STIM_008.jpg	99
1140.718	2.323	2322.9	regulate	Run2	regulate/STIM_008.jpg	99
1146.533	1.466	1466.5	regulate	Run2	regulate/STIM_008.jpg	100
1150.391	1.886	1885.8	regulate	Run2	regulate/STIM_008.jpg	100
1155.5	1.327	1327.4	regulate	Run2	regulate/STIM_009.jpg	100
1159.249	1.334	1333.9	regulate	Run2	regulate/STIM_009.jpg	100
1162.889	2.164	2163.7	regulate	Run2	regulate/STIM_009.jpg	99
1168.211	1.029	1029.0	regulate	Run2	regulate/STIM_009.jpg	100
1171.398	2.328	2328.2	regulate	Run2	regulate/STIM_010.jpg	100
1175.86	1.792	1791.6	regulate	Run2	regulate/STIM_010.jpg	100
1180.162	2.192	2191.8	regulate	Run2	regulate/STIM_010.jpg	100
1185.036	1.63	1630.3	regulate	Run2	regulate/STIM_010.jpg	99
1189.883	2.635	2634.7	regulate	Run2	regulate/STIM_011.jpg	99
1195.367	2.079	2079.1	regulate	Run2	regulate/STIM_011.jpg	99
1199.601	1.684	1684.5	regulate	Run2	regulate/STIM_011.jpg	99
1204.797	1.428	1427.8	regulate	Run2	regulate/STIM_011.jpg	99
1208.328	2.917	2916.9	regulate	Run2	regulate/STIM_012.jpg	100
1214.388	1.606	1605.8	regulate	Run2	regulate/STIM_012.jpg	99
1219.451	2.136	2136.4	regulate	Run2	regulate/STIM_012.jpg	100
1223.874	1.219	1219.2	regulate	Run2	regulate/STIM_012.jpg	99
1228.424	1.792	1792.1	regulate	Run2	regulate/STIM_013.jpg	99
1232.409	2.73	2730.2	regulate	Run2	regulate/STIM_013.jpg	99
1238.48	1.508	1508.0	regulate	Run2	regulate/STIM_013.jpg	99
1243.058	1.066	1065.5	regulate	Run2	regulate/STIM_013.jpg	100
1246.687	1.644	1644.2	regulate	Run2	regulate/STIM_014.jpg	100
1251.072	1.195	1194.7	regulate	Run2	regulate/STIM_014.jpg	99
1256.284	1.823	1823.2	regulate	Run2	regulate/STIM_014.jpg	100
1261.644	1.151	1151.0	regulate	Run2	regulate/STIM_014.jpg	99
1265.875	2.438	2438.3	regulate	Run2	regulate/STIM_015.jpg	99
1271.45	1.988	1987.5	regulate	Run2	regulate/STIM_015.jpg	99
1275.704	1.522	1521.7	regulate	Run2	regulate/STIM_015.jpg	99
1279.605	2.446	2445.6	regulate	Run2	regulate/STIM_015.jpg	99
1284.917	2.286	2286.0	regulate	Run2	regulate/STIM_016.jpg	100
1290.816	1.842	1842.4	regulate	Run2	regulate/STIM_016.jpg	100
1295.784	1.148	1148.2	regulate	Run2	regulate/STIM_016.jpg	100
1300.064	1.547	1547.4	regulate	Run2	regulate/STIM_016.jpg	99
1304.139	2.317	2317.4	regulate	Run2	regulate/STIM_017.jpg	99
1310.5	2.046	2045.7	regulate	Run2	regulate/STIM_017.jpg	100
1316.185	2.624	2624.0	regulate	Run2	regulate/STIM_017.jpg	99
1321.157	2.049	2049.2	regulate	Run2	regulate/STIM_017.jpg	99
1326.631	1.926	1925.5	regulate	Run2	regulate/STIM_018.jpg	100
1331.932	1.751	1751.4	regulate	Run2	regulate/STIM_018.jpg	99
1336.334	1.914	1914.2	regulate	Run2	regulate/STIM_018.jpg	100
1342.042	1.169	1169.1	regulate	Run2	regulate/STIM_018.jpg	100
1345.803	1.706	1705.8	regulate	Run2	regulate/STIM_019.jpg	99
1349.625	1.476	1476.1	regulate	Run2	regulate/STIM_019.jpg	100
1354.252	1.439	1438.9	regulate	Run2	regulate/STIM_019.jpg	100
1358.641	1.07	1070.0	regulate	Run2	regulate/STIM_019.jpg	100
1362.851	1.33	1329.9	regulate	Run2	regulate/STIM_020.jpg	99
1367.761	2.687	2687.4	regulate	Run2	regulate/STIM_020.jpg	99
1373.753	2.257	2256.8	regulate	Run2	regulate/STIM_020.jpg	99
1379.01	1.451	1450.6	regulate	Run2	regulate/STIM_020.jpg	100
1383.373	1.411	1410.7	regulate	Run2	regulate/STIM_021.jpg	100
1388.222	1.632	1631.9	regulate	Run2	regulate/STIM_021.jpg	99
1393.617	1.567	1567.2	regulate	Run2	regulate/STIM_021.jpg	100
1398.682	2.366	2366.4	regulate	Run2	regulate/STIM_021.jpg	99
1404.501	2.625	2624.6	regulate	Run2	regulate/STIM_022.jpg	100
1409.42	2.005	2004.9	regulate	Run2	regulate/STIM_022.jpg	99
1414.524	1.214	1213.5	regulate	Run2	regulate/STIM_022.jpg	99
1419.632	1.386	1385.7	regulate	Run2	regulate/STIM_022.jpg	100
1424.361	2.234	2234.1	regulate	Run2	regulate/STIM_023.jpg	100
1428.799	2.112	2111.5	regulate	Run2	regulate/STIM_023.jpg	100
1433.714	2.289	2288.9	regulate	Run2	regulate/STIM_023.jpg	100
1439.415	1.603	1602.6	regulate	Run2	regulate/STIM_023.jpg	99
1443.209	2.721	2721.2	regulate	Run2	regulate/STIM_024.jpg	100
1448.164	2.195	2195.2	regulate	Run2	regulate/STIM_024.jpg	100
1453.98	2.414	2414.2	regulate	Run2	regulate/STIM_024.jpg	99
1458.739	1.532	1532.1	regulate	Run2	regulate/STIM_024.jpg	100
1463.625	1.791	1790.9	regulate	Run2	regulate/STIM_025.jpg	100
1468.246	1.159	1159.2	regulate	Run2	regulate/STIM_025.jpg	100
1473.052	2.5	2500.3	regulate	Run2	regulate/STIM_025.jpg	99
1477.793	2.136	2135.7	regulate	Run2	regulate/STIM_025.jpg	99
1483.722	2.646	2645.8	regulate	Run2	regulate/STIM_026.jpg	100
1489.209	1.784	1784.0	regulate	Run2	regulate/STIM_026.jpg	99
1493.142	1.085	1084.8	regulate	Run2	regulate/STIM_026.jpg	100
1496.398	1.278	1278.4	regulate	Run2	regulate/STIM_026.jpg	99
1499.724	2.581	2580.7	regulate	Run2	regulate/STIM_027.jpg	99
1505.756	1.472	1472.2	regulate	Run2	regulate/STIM_027.jpg	99
1510.115	2.432	2432.0	regulate	Run2	regulate/STIM_027.jpg	100
1515.702	1.31	1310.4	regulate	Run2	regulate/STIM_027.jpg	99
1519.596	1.644	1644.1	regulate	Run2	regulate/STIM_028.jpg	99
1525.085	1.79	1790.4	regulate	Run2	regulate/STIM_028.jpg	99
1529.357	2.062	2061.5	regulate	Run2	regulate/STIM_028.jpg	99
1534.727	2.19	2190.0	regulate	Run2	regulate/STIM_028.jpg	99
1539.644	2.368	2368.5	regulate	Run2	regulate/STIM_029.jpg	100
1545.601	2.605	2604.9	regulate	Run2	regulate/STIM_029.jpg	100
1552.254	2.423	2422.8	regulate	Run2	regulate/STIM_029.jpg	99
1557.082	1.924	1923.9	regulate	Run2	regulate/STIM_029.jpg	99
1562.93	1.59	1590.1	observe	Run2	observe/STIM_000.jpg	100
1568.08	1.186	1186.4	observe	Run2	observe/STIM_000.jpg	100
1571.999	1.104	1103.6	observe	Run2	observe/STIM_000.jpg	100
1576.879	0.757	757.3	observe	Run2	observe/STIM_000.jpg	99
1580.481	1.354	1353.6	observe	Run2	observe/STIM_001.jpg	100
1584.912	1.474	1473.9	observe	Run2	observe/STIM_001.jpg	100
1589.003	1.125	1125.0	observe	Run2	observe/STIM_001.jpg	99
1594.051	0.803	803.0	observe	Run2	observe/STIM_001.jpg	99
1597.65	1.321	1320.7	observe	Run2	observe/STIM_002.jpg	99
1601.098	0.828	828.0	observe	Run2	observe/STIM_002.jpg	99
1604.086	1.085	1085.1	observe	Run2	observe/STIM_002.jpg	99
1608.194	1.262	1262.4	observe	Run2	observe/STIM_002.jpg	100
1612.095	1.289	1289.4	observe	Run2	observe/STIM_003.jpg	100
1615.755	1.528	1528.4	observe	Run2	observe/STIM_003.jpg	99
1619.819	0.75	749.9	observe	Run2	observe/STIM_003.jpg	100
1623.425	0.851	850.9	observe	Run2	observe/STIM_003.jpg	100
1628.07	1.218	1218.0	observe	Run2	observe/STIM_004.jpg	99
1632.442	1.057	1056.7	observe	Run2	observe/STIM_004.jpg	99
1637.069	1.1	1100.4	observe	Run2	observe/STIM_004.jpg	100
1640.804	1.284	1284.4	observe	Run2	observe/STIM_004.jpg	100
1644.412	1.179	1179.4	observe	Run2	observe/STIM_005.jpg	100
1648.047	1.396	1396.2	observe	Run2	observe/STIM_005.jpg	99
1652.736	1.423	1423.2	observe	Run2	observe/STIM_005.jpg	99
1656.913	1.017	1016.7	observe	Run2	observe/STIM_005.jpg	100
1660.292	1.42	1420.1	observe	Run2	observe/STIM_006.jpg	100
1665.65	1.347	1347.1	observe	Run2	observe/STIM_006.jpg	100
1669.373	0.914	914.1	observe	Run2	observe/STIM_006.jpg	100
1672.937	1.397	1396.9	observe	Run2	observe/STIM_006.jpg	100
1676.935	1.022	1021.7	observe	Run2	observe/STIM_007.jpg	99
1681.449	0.945	945.3	observe	Run2	observe/STIM_007.jpg	100
1685.907	0.963	963.4	observe	Run2	observe/STIM_007.jpg	100
1689.078	0.77	770.1	observe	Run2	observe/STIM_007.jpg	100
1693.223	1.003	1002.9	observe	Run2	observe/STIM_008.jpg	99
1696.409	1.029	1028.9	observe	Run2	observe/STIM_008.jpg	99
1699.757	1.308	1308.4	observe	Run2	observe/STIM_008.jpg	99
1703.131	1.362	1362.3	observe	Run2	observe/STIM_008.jpg	100
1706.795	1.473	1472.9	observe	Run2	observe/STIM_009.jpg	99
1710.323	1.211	1211.4	observe	Run2	observe/STIM_009.jpg	99
1715.209	1.287	1287.2	observe	Run2	observe/STIM_009.jpg	100
1719.337	1.33	1330.5	observe	Run2	observe/STIM_009.jpg	99
1724.256	1.204	1204.3	observe	Run2	observe/STIM_010.jpg	99
1729.202	1.144	1143.7	observe	Run2	observe/STIM_010.jpg	99
1733.38	1.079	1079.0	observe	Run2	observe/STIM_010.jpg	99
1737.827	1.397	1397.4	observe	Run2	observe/STIM_010.jpg	99
1741.542	1.576	1576.5	observe	Run2	observe/STIM_011.jpg	100
1746.416	0.897	897.4	observe	Run2	observe/STIM_011.jpg	99
1750.841	1.242	1241.5	observe	Run2	observe/STIM_011.jpg	99
1754.471	1.126	1125.5	observe	Run2	observe/STIM_011.jpg	99
1758.719	1.184	1183.8	observe	Run2	observe/STIM_012.jpg	99
1762.285	1.455	1454.9	observe	Run2	observe/STIM_012.jpg	99
1766.141	1.157	1156.8	observe	Run2	observe/STIM_012.jpg	100
1770.924	1.556	1555.7	observe	Run2	observe/STIM_012.jpg	99
1776.08	0.95	949.8	observe	Run2	observe/STIM_013.jpg	100
1780.818	1.078	1078.3	observe	Run2	observe/STIM_013.jpg	100
1784.804	0.841	841.2	observe	Run2	observe/STIM_013.jpg	99
1788.235	1.004	1003.7	observe	Run2	observe/STIM_013.jpg	99
1793.172	1.342	1341.6	observe	Run2	observe/STIM_014.jpg	99
1797.087	1.03	1030.0	observe	Run2	observe/STIM_014.jpg	100
1802.098	0.889	889.2	observe	Run2	observe/STIM_014.jpg	100
1805.089	1.525	1524.7	observe	Run2	observe/STIM_014.jpg	100
1809.466	1.135	1135.2	observe	Run2	observe/STIM_015.jpg	100
1813.412	0.872	871.9	observe	Run2	observe/STIM_015.jpg	100
1817.776	1.522	1521.9	observe	Run2	observe/STIM_015.jpg	100
1821.914	0.851	850.8	observe	Run2	observe/STIM_015.jpg	99
1825.689	0.807	807.3	observe	Run2	observe/STIM_016.jpg	99
1830.3	1.495	1495.1	observe	Run2	observe/STIM_016.jpg	100
1834.661	1.394	1393.7	observe	Run2	observe/STIM_016.jpg	99
1838.03	1.508	1508.0	observe	Run2	observe/STIM_016.jpg	100
1842.191	0.977	977.4	observe	Run2	observe/STIM_017.jpg	100
1845.229	1.451	1450.8	observe	Run2	observe/STIM_017.jpg	99
1849.328	1.449	1449.1	observe	Run2	observe/STIM_017.jpg	99
1852.979	1.487	1486.8	observe	Run2	observe/STIM_017.jpg	100
1858.11	1.31	1309.9	observe	Run2	observe/STIM_018.jpg	100
1862.619	1.357	1356.6	observe	Run2	observe/STIM_018.jpg	99
1866.639	1.571	1570.6	observe	Run2	observe/STIM_018.jpg	99
1870.726	1.529	1528.7	observe	Run2	observe/STIM_018.jpg	99
1874.812	1.024	1024.1	observe	Run2	observe/STIM_019.jpg	100
1879.007	0.942	941.8	observe	Run2	observe/STIM_019.jpg	99
1881.955	1.141	1141.3	observe	Run2	observe/STIM_019.jpg	100
1886.361	1.52	1519.9	observe	Run2	observe/STIM_019.jpg	100
1890.194	2.251	2250.6	regulate	Run3	regulate/STIM_000.jpg	100
1895.427	1.47	1469.5	regulate	Run3	regulate/STIM_000.jpg	100
1900.247	1.108	1108.5	regulate	Run3	regulate/STIM_000.jpg	99
1903.893	1.036	1036.3	regulate	Run3	regulate/STIM_000.jpg	100
1907.626	1.13	1130.5	regulate	Run3	regulate/STIM_001.jpg	100
1912.609	1.423	1423.0	regulate	Run3	regulate/STIM_001.jpg	100
1916.886	2.239	2239.4	regulate	Run3	regulate/STIM_001.jpg	99
1921.818	1.108	1108.0	regulate	Run3	regulate/STIM_001.jpg	100
1925.134	2.405	2405.3	regulate	Run3	regulate/STIM_002.jpg	99
1929.798	1.135	1135.4	regulate	Run3	regulate/STIM_002.jpg	100
1934.67	1.312	1312.3	regulate	Run3	regulate/STIM_002.jpg	100
1938.937	1.69	1690.0	regulate	Run3	regulate/STIM_002.jpg	99
1944.297	1.079	1078.6	regulate	Run3	regulate/STIM_003.jpg	100
1949.078	2.222	2221.9	regulate	Run3	regulate/STIM_003.jpg	100
1954.25	2.006	2006.3	regulate	Run3	regulate/STIM_003.jpg	99
1959.555	1.921	1920.7	regulate	Run3	regulate/STIM_003.jpg	100
1963.53	1.679	1678.6	regulate	Run3	regulate/STIM_004.jpg	99
1967.373	1.627	1627.3	regulate	Run3	regulate/STIM_004.jpg	99
1971.265	2.248	2248.4	regulate	Run3	regulate/STIM_004.jpg	99
1976.581	2.005	2004.8	regulate	Run3	regulate/STIM_004.jpg	99
1982.3	1.668	1668.2	regulate	Run3	regulate/STIM_005.jpg	100
1986.839	1.626	1626.1	regulate	Run3	regulate/STIM_005.jpg	100
1990.656	1.707	1706.9	regulate	Run3	regulate/STIM_005.jpg	99
1994.635	2.209	2208.7	regulate	Run3	regulate/STIM_005.jpg	100
1999.416	1.921	1920.6	regulate	Run3	regulate/STIM_006.jpg	99
2004.015	2.274	2273.6	regulate	Run3	regulate/STIM_006.jpg	100
2008.914	1.73	1730.0	regulate	Run3	regulate/STIM_006.jpg	100
2014.263	1.029	1028.6	regulate	Run3	regulate/STIM_006.jpg	100
2017.53	1.788	1788.3	regulate	Run3	regulate/STIM_007.jpg	99
2022.914	1.542	1542.2	regulate	Run3	regulate/STIM_007.jpg	99
2026.721	2.289	2288.9	regulate	Run3	regulate/STIM_007.jpg	99
2031.962	1.398	1397.9	regulate	Run3	regulate/STIM_007.jpg	99
2036.053	1.076	1076.5	regulate	Run3	regulate/STIM_008.jpg	99
2041.041	1.918	1917.9	regulate	Run3	regulate/STIM_008.jpg	99
2046.661	1.593	1592.8	regulate	Run3	regulate/STIM_008.jpg	100
2050.438	1.716	1716.4	regulate	Run3	regulate/STIM_008.jpg	99
2054.87	2.281	2280.8	regulate	Run3	regulate/STIM_009.jpg	99
2060.38	1.294	1294.5	regulate	Run3	regulate/STIM_009.jpg	100
2064.13	1.752	1751.6	regulate	Run3	regulate/STIM_009.jpg	100
2068.419	2.083	2083.3	regulate	Run3	regulate/STIM_009.jpg	99
2073.09	1.29	1289.7	regulate	Run3	regulate/STIM_010.jpg	100
2077.177	1.116	1116.5	regulate	Run3	regulate/STIM_010.jpg	99
2080.983	1.414	1414.2	regulate	Run3	regulate/STIM_010.jpg	99
2086.348	1.77	1770.1	regulate	Run3	regulate/STIM_010.jpg	99
2090.556	1.405	1404.6	regulate	Run3	regulate/STIM_011.jpg	99
2095.689	1.872	1871.8	regulate	Run3	regulate/STIM_011.jpg	99
2101.657	1.888	1888.5	regulate	Run3	regulate/STIM_011.jpg	99
2105.783	1.725	1725.0	regulate	Run3	regulate/STIM_011.jpg	100
2110.618	1.081	1080.6	regulate	Run3	regulate/STIM_012.jpg	99
2115.668	1.335	1334.9	regulate	Run3	regulate/STIM_012.jpg	100
2119.324	1.255	1254.8	regulate	Run3	regulate/STIM_012.jpg	99
2123.735	1.278	1277.5	regulate	Run3	regulate/STIM_012.jpg	99
2127.078	1.558	1558.5	regulate	Run3	regulate/STIM_013.jpg	100
2131.459	2.126	2126.4	regulate	Run3	regulate/STIM_013.jpg	99
2136.743	1.402	1401.6	regulate	Run3	regulate/STIM_013.jpg	99
2141.984	1.479	1478.6	regulate	Run3	regulate/STIM_013.jpg	99
2146.188	2.218	2218.4	regulate	Run3	regulate/STIM_014.jpg	100
2150.548	1.491	1490.9	regulate	Run3	regulate/STIM_014.jpg	99
2155.818	2.121	2120.6	regulate	Run3	regulate/STIM_014.jpg	99
2160.21	2.216	2216.5	regulate	Run3	regulate/STIM_014.jpg	100
2165.853	1.773	1773.2	regulate	Run3	regulate/STIM_015.jpg	100
2170.835	1.772	1772.2	regulate	Run3	regulate/STIM_015.jpg	99
2175.268	2.274	2273.8	regulate	Run3	regulate/STIM_015.jpg	99
2179.68	2.134	2134.5	regulate	Run3	regulate/STIM_015.jpg	99
2184.463	1.034	1034.3	regulate	Run3	regulate/STIM_016.jpg	100
2187.9	2.106	2106.1	regulate	Run3	regulate/STIM_016.jpg	100
2193.562	2.236	2235.8	regulate	Run3	regulate/STIM_016.jpg	99
2198.665	1.485	1485.4	regulate	Run3	regulate/STIM_016.jpg	100
2202.321	1.803	1803.0	regulate	Run3	regulate/STIM_017.jpg	100
2207.774	2.323	2323.4	regulate	Run3	regulate/STIM_017.jpg	100
2213.911	1.029	1029.4	regulate	Run3	regulate/STIM_017.jpg	100
2217.081	1.01	1009.5	regulate	Run3	regulate/STIM_017.jpg	99
2220.764	2.073	2072.8	regulate	Run3	regulate/STIM_018.jpg	100
2225.489	1.392	1391.5	regulate	Run3	regulate/STIM_018.jpg	99
2229.93	1.752	1752.4	regulate	Run3	regulate/STIM_018.jpg	99
2233.936	2.247	2247.4	regulate	Run3	regulate/STIM_018.jpg	100
2240.054	1.509	1508.7	regulate	Run3	regulate/STIM_019.jpg	99
2244.212	1.859	1859.1	regulate	Run3	regulate/STIM_019.jpg	99
2248.821	2.258	2257.8	regulate	Run3	regulate/STIM_019.jpg	99
2253.505	1.356	1356.4	regulate	Run3	regulate/STIM_019.jpg	100
2258.564	1.336	1335.8	regulate	Run3	regulate/STIM_020.jpg	99
2262.711	1.282	1282.0	regulate	Run3	regulate/STIM_020.jpg	99
2267.069	1.376	1375.9	regulate	Run3	regulate/STIM_020.jpg	99
2271.642	2.23	2230.0	regulate	Run3	regulate/STIM_020.jpg	99
2277.364	1.292	1291.9	regulate	Run3	regulate/STIM_021.jpg	100
2281.176	1.241	1241.1	regulate	Run3	regulate/STIM_021.jpg	100
2285.52	1.877	1876.9	regulate	Run3	regulate/STIM_021.jpg	100
2290.662	1.188	1187.7	regulate	Run3	regulate/STIM_021.jpg	100
2295.724	1.44	1440.3	regulate	Run3	regulate/STIM_022.jpg	100
2299.667	1.11	1109.8	regulate	Run3	regulate/STIM_022.jpg	100
2304.284	1.829	1829.2	regulate	Run3	regulate/STIM_022.jpg	99
2308.834	1.222	1221.5	regulate	Run3	regulate/STIM_022.jpg	100
2313.274	1.443	1443.1	regulate	Run3	regulate/STIM_023.jpg	100
2317.204	2.354	2354.1	regulate	Run3	regulate/STIM_023.jpg	99
2323.306	1.492	1492.1	regulate	Run3	regulate/STIM_023.jpg	100
2326.924	1.06	1059.8	regulate	Run3	regulate/STIM_023.jpg	100
2331.346	1.542	1542.0	regulate	Run3	regulate/STIM_024.jpg	100
2335.518	1.356	1356.1	regulate	Run3	regulate/STIM_024.jpg	100
2339.594	1.128	1128.2	regulate	Run3	regulate/STIM_024.jpg	99
2344.453	1.297	1296.6	regulate	Run3	regulate/STIM_024.jpg	100
2349.451	1.105	1104.6	regulate	Run3	regulate/STIM_025.jpg	100
2353.305	1.976	1975.8	regulate	Run3	regulate/STIM_025.jpg	99
2359.332	2.066	2066.4	regulate	Run3	regulate/STIM_025.jpg	99
2364.065	1.336	1335.6	regulate	Run3	regulate/STIM_025.jpg	100
2369.164	2.201	2200.6	regulate	Run3	regulate/STIM_026.jpg	99
2373.294	1.872	1872.5	regulate	Run3	regulate/STIM_026.jpg	99
2378.181	2.254	2253.8	regulate	Run3	regulate/STIM_026.jpg	99
2383.976	1.661	1660.6	regulate	Run3	regulate/STIM_026.jpg	100
2388.502	1.196	1196.1	regulate	Run3	regulate/STIM_027.jpg	100
2392.795	2.308	2308.1	regulate	Run3	regulate/STIM_027.jpg	100
2398.618	2.23	2229.6	regulate	Run3	regulate/STIM_027.jpg	99
2404.756	1.646	1646.0	regulate	Run3	regulate/STIM_027.jpg	99
2409.563	2.151	2151.1	regulate	Run3	regulate/STIM_028.jpg	99
2415.402	1.833	1833.2	regulate	Run3	regulate/STIM_028.jpg	100
2420.977	2.122	2122.1	regulate	Run3	regulate/STIM_028.jpg	100
2425.295	2.226	2226.2	regulate	Run3	regulate/STIM_028.jpg	100
2430.372	1.283	1283.4	regulate	Run3	regulate/STIM_029.jpg	99
2433.897	2.349	2348.9	regulate	Run3	regulate/STIM_029.jpg	99
2439.325	1.516	1516.2	regulate	Run3	regulate/STIM_029.jpg	100
2444.086	1.368	1367.5	regulate	Run3	regulate/STIM_029.jpg	100
2448.86	1.2	1199.7	observe	Run3	observe/STIM_000.jpg	100
2452.374	1.172	1171.7	observe	Run3	observe/STIM_000.jpg	100
2456.631	0.804	803.8	observe	Run3	observe/STIM_000.jpg	99
2460.904	0.835	834.9	observe	Run3	observe/STIM_000.jpg	99
2465.602	0.95	950.1	observe	Run3	observe/STIM_001.jpg	99
2469.165	0.943	943.2	observe	Run3	observe/STIM_001.jpg	99
2472.864	1.142	1141.7	observe	Run3	observe/STIM_001.jpg	100
2476.692	1.475	1474.7	observe	Run3	observe/STIM_001.jpg	99
2481.869	1.319	1319.1	observe	Run3	observe/STIM_002.jpg	100
2485.85	1.297	1297.4	observe	Run3	observe/STIM_002.jpg	100
2491.071	1.175	1175.4	observe	Run3	observe/STIM_002.jpg	99
2494.968	1.152	1151.6	observe	Run3	observe/STIM_002.jpg	99
2499.769	0.899	899.4	observe	Run3	observe/STIM_003.jpg	99
2503.177	1.033	1032.9	observe	Run3	observe/STIM_003.jpg	99
2506.972	1.214	1213.8	observe	Run3	observe/STIM_003.jpg	100
2510.39	1.53	1529.5	observe	Run3	observe/STIM_003.jpg	100
2513.988	0.838	838.0	observe	Run3	observe/STIM_004.jpg	99
2517.942	1.152	1152.2	observe	Run3	observe/STIM_004.jpg	100
2522.526	1.074	1074.4	observe	Run3	observe/STIM_004.jpg	99
2527.38	1.022	1022.3	observe	Run3	observe/STIM_004.jpg	99
2531.014	0.862	861.6	observe	Run3	observe/STIM_005.jpg	99
2535.188	1.221	1221.2	observe	Run3	observe/STIM_005.jpg	99
2538.623	1.218	1217.9	observe	Run3	observe/STIM_005.jpg	99
2541.974	0.992	992.2	observe	Run3	observe/STIM_005.jpg	99
2545.553	1.277	1276.8	observe	Run3	observe/STIM_006.jpg	100
2550.122	0.93	929.6	observe	Run3	observe/STIM_006.jpg	99
2554.891	1.312	1312.2	observe	Run3	observe/STIM_006.jpg	99
2559.739	0.975	975.3	observe	Run3	observe/STIM_006.jpg	100
2564.57	1.583	1583.3	observe	Run3	observe/STIM_007.jpg	99
2568.637	1.376	1375.8	observe	Run3	observe/STIM_007.jpg	99
2572.629	1.014	1013.9	observe	Run3	observe/STIM_007.jpg	99
2576.595	1.115	1115.4	observe	Run3	observe/STIM_007.jpg	100
2580.213	1.221	1220.8	observe	Run3	observe/STIM_008.jpg	100
2583.501	1.1	1099.8	observe	Run3	observe/STIM_008.jpg	99
2587.904	0.92	919.9	observe	Run3	observe/STIM_008.jpg	100
2592.42	1.33	1329.8	observe	Run3	observe/STIM_008.jpg	99
2596.476	1.434	1434.4	observe	Run3	observe/STIM_009.jpg	100
2601.021	1.0	1000.0	observe	Run3	observe/STIM_009.jpg	99
2604.449	1.214	1214.1	observe	Run3	observe/STIM_009.jpg	100
2609.455	1.444	1443.9	observe	Run3	observe/STIM_009.jpg	99
2614.459	1.277	1276.9	observe	Run3	observe/STIM_010.jpg	99
2617.934	1.136	1136.5	observe	Run3	observe/STIM_010.jpg	100
2622.236	1.465	1465.3	observe	Run3	observe/STIM_010.jpg	100
2627.23	1.44	1439.9	observe	Run3	observe/STIM_010.jpg	100
2632.457	1.042	1041.9	observe	Run3	observe/STIM_011.jpg	99
2637.39	1.001	1000.8	observe	Run3	observe/STIM_011.jpg	99
2640.69	1.344	1343.7	observe	Run3	observe/STIM_011.jpg	100
2645.424	1.161	1161.0	observe	Run3	observe/STIM_011.jpg	99
2649.325	1.192	1191.8	observe	Run3	observe/STIM_012.jpg	100
2653.531	1.474	1473.7	observe	Run3	observe/STIM_012.jpg	100
2658.937	0.798	798.1	observe	Run3	observe/STIM_012.jpg	99
2663.225	1.463	1462.6	observe	Run3	observe/STIM_012.jpg	100
2667.106	0.792	792.2	observe	Run3	observe/STIM_013.jpg	99
2670.381	1.029	1028.7	observe	Run3	observe/STIM_013.jpg	100
2673.581	0.844	843.8	observe	Run3	observe/STIM_013.jpg	100
2676.713	1.527	1527.2	observe	Run3	observe/STIM_013.jpg	100
2681.695	1.029	1028.9	observe	Run3	observe/STIM_014.jpg	100
2686.348	1.531	1530.7	observe	Run3	observe/STIM_014.jpg	100
2691.138	0.876	876.0	observe	Run3	observe/STIM_014.jpg	99
2695.554	1.177	1177.3	observe	Run3	observe/STIM_014.jpg	99
2698.985	1.024	1023.5	observe	Run3	observe/STIM_015.jpg	100
2703.401	0.94	940.3	observe	Run3	observe/STIM_015.jpg	99
2707.432	1.449	1448.6	observe	Run3	observe/STIM_015.jpg	99
2711.463	1.457	1456.7	observe	Run3	observe/STIM_015.jpg	99
2716.016	1.363	1362.7	observe	Run3	observe/STIM_016.jpg	100
2720.864	1.177	1176.8	observe	Run3	observe/STIM_016.jpg	99
2725.975	1.152	1152.1	observe	Run3	observe/STIM_016.jpg	100
2730.91	1.482	1482.2	observe	Run3	observe/STIM_016.jpg	100
2736.347	1.354	1354.3	observe	Run3	observe/STIM_017.jpg	99
2740.412	1.452	1452.3	observe	Run3	observe/STIM_017.jpg	100
2745.511	1.319	1319.2	observe	Run3	observe/STIM_017.jpg	100
2748.985	1.6	1600.3	observe	Run3	observe/STIM_017.jpg	99
2754.064	1.209	1209.3	observe	Run3	observe/STIM_018.jpg	99
2758.731	1.042	1042.4	observe	Run3	observe/STIM_018.jpg	99
2762.701	0.967	966.9	observe	Run3	observe/STIM_018.jpg	100
2766.144	1.172	1171.6	observe	Run3	observe/STIM_018.jpg	99
2769.584	1.554	1554.0	observe	Run3	observe/STIM_019.jpg	99
2774.085	0.953	953.3	observe	Run3	observe/STIM_019.jpg	99
2777.682	1.265	1265.0	observe	Run3	observe/STIM_019.jpg	100
2782.15	1.086	1085.9	observe	Run3	observe/STIM_019.jpg	100
