onset	duration	response_time_ms	trial_type	learning_stage	stimulus	response_port
0.0	2.333	2333.4	regulate	Run1	regulate/STIM_000.jpg	100
5.925	1.461	1461.0	regulate	Run1	regulate/STIM_000.jpg	100
11.031	1.881	1880.9	regulate	Run1	regulate/STIM_000.jpg	99
15.959	1.678	1677.6	regulate	Run1	regulate/STIM_000.jpg	100
21.342	2.705	2704.7	regulate	Run1	regulate/STIM_001.jpg	100
27.635	3.079	3079.3	regulate	Run1	regulate/STIM_001.jpg	100
33.633	1.906	1906.2	regulate	Run1	regulate/STIM_001.jpg	100
39.527	2.197	2196.6	regulate	Run1	regulate/STIM_001.jpg	99
43.96	3.272	3272.4	regulate	Run1	regulate/STIM_002.jpg	100
50.622	3.22	3219.8	regulate	Run1	regulate/STIM_002.jpg	100
56.9	2.887	2886.7	regulate	Run1	regulate/STIM_002.jpg	99
62.571	2.535	2535.4	regulate	Run1	regulate/STIM_002.jpg	99
68.001	2.992	2992.4	regulate	Run1	regulate/STIM_003.jpg	99
73.999	3.262	3262.4	regulate	Run1	regulate/STIM_003.jpg	99
80.818	1.754	1754.2	regulate	Run1	regulate/STIM_003.jpg	99
85.485	1.464	1464.5	regulate	Run1	regulate/STIM_003.jpg	99
90.721	2.419	2419.4	regulate	Run1	regulate/STIM_004.jpg	100
96.295	2.584	2583.6	regulate	Run1	regulate/STIM_004.jpg	99
102.31	1.674	1673.5	regulate	Run1	regulate/STIM_004.jpg	100
107.232	2.911	2910.6	regulate	Run1	regulate/STIM_004.jpg	99
113.041	2.714	2713.7	regulate	Run1	regulate/STIM_005.jpg	100
119.633	2.816	2816.1	regulate	Run1	regulate/STIM_005.jpg	100
126.443	2.232	2231.9	regulate	Run1	regulate/STIM_005.jpg	99
131.15	1.343	1342.8	regulate	Run1	regulate/STIM_005.jpg	99
136.276	3.273	3273.4	regulate	Run1	regulate/STIM_006.jpg	99
143.227	3.188	3187.6	regulate	Run1	regulate/STIM_006.jpg	100
150.112	2.199	2199.4	regulate	Run1	regulate/STIM_006.jpg	100
155.54	1.446	1445.6	regulate	Run1	regulate/STIM_006.jpg	100
159.976	2.194	2193.5	regulate	Run1	regulate/STIM_007.jpg	99
165.528	3.276	3276.1	regulate	Run1	regulate/STIM_007.jpg	100
171.005	1.636	1636.2	regulate	Run1	regulate/STIM_007.jpg	99
176.375	2.339	2339.2	regulate	Run1	regulate/STIM_007.jpg	100
181.636	1.743	1742.9	regulate	Run1	regulate/STIM_008.jpg	99
187.249	1.738	1737.6	regulate	Run1	regulate/STIM_008.jpg	100
192.155	2.917	2917.1	regulate	Run1	regulate/STIM_008.jpg	100
198.072	2.561	2560.7	regulate	Run1	regulate/STIM_008.jpg	100
203.996	3.011	3011.4	regulate	Run1	regulate/STIM_009.jpg	100
209.652	2.229	2228.6	regulate	Run1	regulate/STIM_009.jpg	99
215.607	2.296	2295.6	regulate	Run1	regulate/STIM_009.jpg	99
220.675	1.813	1813.3	regulate	Run1	regulate/STIM_009.jpg	99
225.117	3.351	3351.2	regulate	Run1	regulate/STIM_010.jpg	100
230.81	1.506	1505.5	regulate	Run1	regulate/STIM_010.jpg	99
235.609	1.578	1578.0	regulate	Run1	regulate/STIM_010.jpg	99
240.592	2.17	2170.4	regulate	Run1	regulate/STIM_010.jpg	100
246.591	3.428	3427.7	regulate	Run1	regulate/STIM_011.jpg	100
252.711	3.216	3216.1	regulate	Run1	regulate/STIM_011.jpg	100
258.778	2.026	2026.4	regulate	Run1	regulate/STIM_011.jpg	99
263.205	1.312	1311.5	regulate	Run1	regulate/STIM_011.jpg	99
268.162	2.196	2196.1	regulate	Run1	regulate/STIM_012.jpg	99
274.322	2.217	2217.3	regulate	Run1	regulate/STIM_012.jpg	100
279.859	1.505	1505.2	regulate	Run1	regulate/STIM_012.jpg	100
283.733	2.362	2362.3	regulate	Run1	regulate/STIM_012.jpg	100
289.636	3.116	3116.2	regulate	Run1	regulate/STIM_013.jpg	100
295.665	1.482	1481.7	regulate	Run1	regulate/STIM_013.jpg	100
300.871	1.726	1725.6	regulate	Run1	regulate/STIM_013.jpg	100
306.306	2.484	2483.5	regulate	Run1	regulate/STIM_013.jpg	100
312.748	2.029	2028.5	regulate	Run1	regulate/STIM_014.jpg	99
317.093	1.742	1741.6	regulate	Run1	regulate/STIM_014.jpg	99
322.473	2.088	2087.5	regulate	Run1	regulate/STIM_014.jpg	100
327.154	1.797	1797.4	regulate	Run1	regulate/STIM_014.jpg	100
332.622	3.378	3378.3	regulate	Run1	regulate/STIM_015.jpg	99
338.944	2.046	2045.7	regulate	Run1	regulate/STIM_015.jpg	100
344.461	2.587	2586.9	regulate	Run1	regulate/STIM_015.jpg	100
350.22	2.805	2805.2	regulate	Run1	regulate/STIM_015.jpg	99
356.175	2.604	2604.1	regulate	Run1	regulate/STIM_016.jpg	99
360.82	1.63	1630.4	regulate	Run1	regulate/STIM_016.jpg	100
364.947	2.924	2924.0	regulate	Run1	regulate/STIM_016.jpg	100
371.378	2.379	2379.4	regulate	Run1	regulate/STIM_016.jpg	99
377.404	1.733	1733.2	regulate	Run1	regulate/STIM_017.jpg	99
382.811	3.017	3017.2	regulate	Run1	regulate/STIM_017.jpg	100
388.407	2.228	2228.5	regulate	Run1	regulate/STIM_017.jpg	100
392.922	1.4	1399.8	regulate	Run1	regulate/STIM_017.jpg	100
397.919	3.062	3062.0	regulate	Run1	regulate/STIM_018.jpg	100
403.26	2.177	2176.6	regulate	Run1	regulate/STIM_018.jpg	100
407.737	3.068	3067.9	regulate	Run1	regulate/STIM_018.jpg	99
414.09	2.53	2530.3	regulate	Run1	regulate/STIM_018.jpg	100
419.839	2.821	2820.9	regulate	Run1	regulate/STIM_019.jpg	99
424.979	2.315	2314.9	regulate	Run1	regulate/STIM_019.jpg	100
429.692	2.082	2081.8	regulate	Run1	regulate/STIM_019.jpg	100
435.759	2.924	2923.7	regulate	Run1	regulate/STIM_019.jpg	99
442.49	1.678	1677.6	regulate	Run1	regulate/STIM_020.jpg	99
446.548	2.837	2837.2	regulate	Run1	regulate/STIM_020.jpg	100
451.472	2.895	2894.6	regulate	Run1	regulate/STIM_020.jpg	99
457.403	2.218	2217.6	regulate	Run1	regulate/STIM_020.jpg	100
462.531	2.374	2374.1	regulate	Run1	regulate/STIM_021.jpg	99
468.429	2.409	2408.8	regulate	Run1	regulate/STIM_021.jpg	100
474.363	1.616	1616.2	regulate	Run1	regulate/STIM_021.jpg	99
478.286	2.916	2915.7	regulate	Run1	regulate/STIM_021.jpg	99
484.949	2.624	2623.9	regulate	Run1	regulate/STIM_022.jpg	100
490.372	2.705	2704.6	regulate	Run1	regulate/STIM_022.jpg	100
496.174	1.343	1343.0	regulate	Run1	regulate/STIM_022.jpg	99
499.529	1.957	1957.4	regulate	Run1	regulate/STIM_022.jpg	99
505.451	1.847	1847.0	regulate	Run1	regulate/STIM_023.jpg	99
509.488	2.448	2447.9	regulate	Run1	regulate/STIM_023.jpg	99
515.065	2.106	2106.0	regulate	Run1	regulate/STIM_023.jpg	99
520.926	1.647	1646.7	regulate	Run1	regulate/STIM_023.jpg	100
525.531	2.433	2432.9	regulate	Run1	regulate/STIM_024.jpg	100
530.098	2.816	2815.7	regulate	Run1	regulate/STIM_024.jpg	99
536.772	1.871	1870.7	regulate	Run1	regulate/STIM_024.jpg	99
540.992	2.944	2944.5	regulate	Run1	regulate/STIM_024.jpg	100
547.57	3.449	3449.2	regulate	Run1	regulate/STIM_025.jpg	100
554.163	1.869	1868.9	regulate	Run1	regulate/STIM_025.jpg	100
558.048	2.74	2739.8	regulate	Run1	regulate/STIM_025.jpg	100
564.404	1.533	1533.1	regulate	Run1	regulate/STIM_025.jpg	100
569.655	2.274	2274.1	regulate	Run1	regulate/STIM_026.jpg	99
575.161	1.765	1764.8	regulate	Run1	regulate/STIM_026.jpg	100
579.402	2.627	2627.1	regulate	Run1	regulate/STIM_026.jpg	100
584.369	2.206	2205.6	regulate	Run1	regulate/STIM_026.jpg	99
590.486	1.532	1531.7	regulate	Run1	regulate/STIM_027.jpg	99
595.347	2.972	2971.7	regulate	Run1	regulate/STIM_027.jpg	99
601.638	2.189	2189.2	regulate	Run1	regulate/STIM_027.jpg	100
605.956	1.39	1390.2	regulate	Run1	regulate/STIM_027.jpg	99
610.165	2.234	2233.6	regulate	Run1	regulate/STIM_028.jpg	100
615.579	2.038	2038.5	regulate	Run1	regulate/STIM_028.jpg	99
620.371	1.994	1993.9	regulate	Run1	regulate/STIM_028.jpg	99
626.258	2.879	2879.1	regulate	Run1	regulate/STIM_028.jpg	100
633.073	1.683	1682.7	regulate	Run1	regulate/STIM_029.jpg	99
638.655	3.242	3241.7	regulate	Run1	regulate/STIM_029.jpg	100
644.409	2.428	2427.5	regulate	Run1	regulate/STIM_029.jpg	99
650.117	1.988	1988.1	regulate	Run1	regulate/STIM_029.jpg	100
654.546	1.126	1125.9	observe	Run1	observe/STIM_000.jpg	99
659.442	1.181	1181.4	observe	Run1	observe/STIM_000.jpg	99
663.077	1.187	1187.2	observe	Run1	observe/STIM_000.jpg	100
667.021	1.455	1455.0	observe	Run1	observe/STIM_000.jpg	100
671.477	1.003	1003.2	observe	Run1	observe/STIM_001.jpg	99
676.004	1.522	1522.3	observe	Run1	observe/STIM_001.jpg	100
679.628	0.981	981.2	observe	Run1	observe/STIM_001.jpg	99
683.236	1.123	1122.9	observe	Run1	observe/STIM_001.jpg	99
687.705	1.249	1248.7	observe	Run1	observe/STIM_002.jpg	100
691.444	1.304	1304.3	observe	Run1	observe/STIM_002.jpg	100
696.138	0.92	920.0	observe	Run1	observe/STIM_002.jpg	100
700.344	1.549	1549.2	observe	Run1	observe/STIM_002.jpg	100
704.833	1.477	1476.8	observe	Run1	observe/STIM_003.jpg	99
708.732	1.128	1128.1	observe	Run1	observe/STIM_003.jpg	99
713.436	1.376	1376.0	observe	Run1	observe/STIM_003.jpg	99
718.485	1.355	1355.4	observe	Run1	observe/STIM_003.jpg	100
723.143	0.93	930.1	observe	Run1	observe/STIM_004.jpg	100
726.858	1.121	1120.6	observe	Run1	observe/STIM_004.jpg	100
731.885	1.199	1198.8	observe	Run1	observe/STIM_004.jpg	99
736.584	1.53	1530.2	observe	Run1	observe/STIM_004.jpg	99
740.174	0.981	981.4	observe	Run1	observe/STIM_005.jpg	100
744.703	0.87	870.5	observe	Run1	observe/STIM_005.jpg	100
748.908	1.171	1171.3	observe	Run1	observe/STIM_005.jpg	99
754.063	1.519	1519.4	observe	Run1	observe/STIM_005.jpg	99
759.085	1.094	1094.1	observe	Run1	observe/STIM_006.jpg	100
762.629	1.396	1395.5	observe	Run1	observe/STIM_006.jpg	100
767.123	1.384	1384.4	observe	Run1	observe/STIM_006.jpg	100
771.492	0.868	867.5	observe	Run1	observe/STIM_006.jpg	100
775.22	1.183	1183.0	observe	Run1	observe/STIM_007.jpg	100
779.673	0.978	978.4	observe	Run1	observe/STIM_007.jpg	100
784.068	1.53	1529.7	observe	Run1	observe/STIM_007.jpg	100
788.526	0.919	919.1	observe	Run1	observe/STIM_007.jpg	99
792.354	1.562	1562.0	observe	Run1	observe/STIM_008.jpg	100
796.962	1.522	1521.6	observe	Run1	observe/STIM_008.jpg	99
801.152	1.495	1495.0	observe	Run1	observe/STIM_008.jpg	99
805.385	0.895	895.0	observe	Run1	observe/STIM_008.jpg	100
808.702	1.049	1048.8	observe	Run1	observe/STIM_009.jpg	99
812.249	0.876	876.3	observe	Run1	observe/STIM_009.jpg	100
816.862	1.49	1489.7	observe	Run1	observe/STIM_009.jpg	100
821.872	0.809	808.6	observe	Run1	observe/STIM_009.jpg	100
825.919	1.564	1563.8	observe	Run1	observe/STIM_010.jpg	100
830.077	0.801	800.6	observe	Run1	observe/STIM_010.jpg	100
833.337	1.082	1081.6	observe	Run1	observe/STIM_010.jpg	99
836.599	0.797	797.2	observe	Run1	observe/STIM_010.jpg	100
840.775	1.308	1307.6	observe	Run1	observe/STIM_011.jpg	99
844.937	1.378	1377.6	observe	Run1	observe/STIM_011.jpg	100
849.958	1.039	1039.0	observe	Run1	observe/STIM_011.jpg	100
853.708	1.065	1065.0	observe	Run1	observe/STIM_011.jpg	99
857.063	1.452	1452.5	observe	Run1	observe/STIM_012.jpg	100
860.881	1.569	1569.4	observe	Run1	observe/STIM_012.jpg	100
864.983	0.966	966.5	observe	Run1	observe/STIM_012.jpg	99
869.86	0.82	820.0	observe	Run1	observe/STIM_012.jpg	99
873.067	0.865	865.2	observe	Run1	observe/STIM_013.jpg	99
877.17	0.922	921.6	observe	Run1	observe/STIM_013.jpg	100
880.521	1.248	1248.4	observe	Run1	observe/STIM_013.jpg	99
884.774	1.251	1250.9	observe	Run1	observe/STIM_013.jpg	100
888.817	0.965	964.9	observe	Run1	observe/STIM_014.jpg	100
893.035	1.431	1431.1	observe	Run1	observe/STIM_014.jpg	99
898.453	0.981	980.8	observe	Run1	observe/STIM_014.jpg	99
902.787	0.901	900.7	observe	Run1	observe/STIM_014.jpg	99
907.334	1.56	1560.5	observe	Run1	observe/STIM_015.jpg	100
911.278	1.534	1533.5	observe	Run1	observe/STIM_015.jpg	99
915.748	1.256	1255.9	observe	Run1	observe/STIM_015.jpg	99
920.052	0.978	977.7	observe	Run1	observe/STIM_015.jpg	99
924.767	1.25	1249.8	observe	Run1	observe/STIM_016.jpg	99
928.356	0.806	806.5	observe	Run1	observe/STIM_016.jpg	100
932.926	0.956	955.9	observe	Run1	observe/STIM_016.jpg	100
936.449	1.437	1437.2	observe	Run1	observe/STIM_016.jpg	100
940.023	1.435	1435.2	observe	Run1	observe/STIM_017.jpg	100
944.198	1.386	1386.4	observe	Run1	observe/STIM_017.jpg	100
948.431	1.286	1286.4	observe	Run1	observe/STIM_017.jpg	99
951.873	1.086	1085.8	observe	Run1	observe/STIM_017.jpg	99
955.515	1.364	1363.9	observe	Run1	observe/STIM_018.jpg	100
960.673	1.008	1007.5	observe	Run1	observe/STIM_018.jpg	100
965.203	0.848	847.5	observe	Run1	observe/STIM_018.jpg	99
968.063	0.889	889.3	observe	Run1	observe/STIM_018.jpg	100
972.624	0.856	856.2	observe	Run1	observe/STIM_019.jpg	100
976.94	1.356	1355.5	observe	Run1	observe/STIM_019.jpg	99
981.996	1.487	1486.7	observe	Run1	observe/STIM_019.jpg	100
987.241	1.52	1520.4	observe	Run1	observe/STIM_019.jpg	99
991.967	2.764	2763.9	regulate	Run2	regulate/STIM_000.jpg	99
997.967	1.803	1802.6	regulate	Run2	regulate/STIM_000.jpg	99
1002.454	1.188	1187.7	regulate	Run2	regulate/STIM_000.jpg	99
1007.006	1.942	1941.7	regulate	Run2	regulate/STIM_000.jpg	100
1012.837	1.608	1608.3	regulate	Run2	regulate/STIM_001.jpg	99
1017.761	1.612	1611.5	regulate	Run2	regulate/STIM_001.jpg	100
1022.589	2.05	2050.3	regulate	Run2	regulate/STIM_001.jpg	99
1028.332	1.45	1450.0	regulate	Run2	regulate/STIM_001.jpg	100
1033.39	2.813	2812.8	regulate	Run2	regulate/STIM_002.jpg	100
1040.187	2.248	2248.1	regulate	Run2	regulate/STIM_002.jpg	100
1046.318	2.294	2293.8	regulate	Run2	regulate/STIM_002.jpg	99
1052.278	2.115	2114.6	regulate	Run2	regulate/STIM_002.jpg	99
1057.046	1.973	1972.6	regulate	Run2	regulate/STIM_003.jpg	99
1061.679	2.423	2423.1	regulate	Run2	regulate/STIM_003.jpg	99
1066.963	1.609	1609.2	regulate	Run2	regulate/STIM_003.jpg	100
1071.151	2.19	2190.2	regulate	Run2	regulate/STIM_003.jpg	99
1076.386	1.785	1785.1	regulate	Run2	regulate/STIM_004.jpg	99
1080.542	1.848	1847.7	regulate	Run2	regulate/STIM_004.jpg	100
1084.677	1.513	1512.6	regulate	Run2	regulate/STIM_004.jpg	100
1089.438	2.141	2140.9	regulate	Run2	regulate/STIM_004.jpg	100
1094.272	2.899	2898.7	regulate	Run2	regulate/STIM_005.jpg	100
1100.358	1.776	1775.7	regulate	Run2	regulate/STIM_005.jpg	99
1105.674	1.541	1541.4	regulate	Run2	regulate/STIM_005.jpg	100
1110.989	2.195	2194.7	regulate	Run2	regulate/STIM_005.jpg	100
1116.152	1.278	1278.3	regulate	Run2	regulate/STIM_006.jpg	99
1120.356	1.552	1552.4	regulate	Run2	regulate/STIM_006.jpg	100
1125.478	2.113	2113.4	regulate	Run2	regulate/STIM_006.jpg	99
1130.688	1.341	1340.6	regulate	Run2	regulate/STIM_006.jpg	99
1134.461	1.884	1883.6	regulate	Run2	regulate/STIM_007.jpg	100
1138.911	2.136	2136.5	regulate	Run2	regulate/STIM_007.jpg	100
1144.03	1.66	1659.6	regulate	Run2	regulate/STIM_007.jpg	100
1149.297	1.257	1256.9	regulate	Run2	regulate/STIM_007.jpg	99
1152.773	1.931	1930.6	regulate	Run2	regulate/STIM_008.jpg	99
1157.186	1.327	1327.4	regulate	Run2	regulate/STIM_008.jpg	99
1161.957	2.308	2308.2	regulate	Run2	regulate/STIM_008.jpg	100
1167.057	1.378	1378.4	regulate	Run2	regulate/STIM_008.jpg	100
1171.68	2.136	2136.0	regulate	Run2	regulate/STIM_009.jpg	100
1176.132	1.599	1599.2	regulate	Run2	regulate/STIM_009.jpg	100
1180.753	1.901	1901.3	regulate	Run2	regulate/STIM_009.jpg	99
1186.54	1.25	1249.8	regulate	Run2	regulate/STIM_009.jpg	100
1190.557	1.986	1985.5	regulate	Run2	regulate/STIM_010.jpg	100
1195.345	2.116	2115.6	regulate	Run2	regulate/STIM_010.jpg	100
1200.621	1.715	1714.8	regulate	Run2	regulate/STIM_010.jpg	100
1204.402	1.598	1597.5	regulate	Run2	regulate/STIM_010.jpg	99
1208.871	2.336	2336.5	regulate	Run2	regulate/STIM_011.jpg	99
1214.392	2.247	2247.3	regulate	Run2	regulate/STIM_011.jpg	99
1219.584	2.385	2384.9	regulate	Run2	regulate/STIM_011.jpg	99
1224.166	1.641	1641.3	regulate	Run2	regulate/STIM_011.jpg	99
1228.802	2.882	2882.2	regulate	Run2	regulate/STIM_012.jpg	100
1235.367	2.219	2219.1	regulate	Run2	regulate/STIM_012.jpg	99
1239.692	1.194	1194.3	regulate	Run2	regulate/STIM_012.jpg	100
1243.481	2.035	2035.2	regulate	Run2	regulate/STIM_012.jpg	99
1249.145	2.227	2227.2	regulate	Run2	regulate/STIM_013.jpg	99
1253.704	1.581	1581.3	regulate	Run2	regulate/STIM_013.jpg	99
1258.995	1.325	1325.2	regulate	Run2	regulate/STIM_013.jpg	99
1263.506	2.099	2099.4	regulate	Run2	regulate/STIM_013.jpg	100
1269.28	2.48	2479.5	regulate	Run2	regulate/STIM_014.jpg	100
1275.065	1.968	1967.8	regulate	Run2	regulate/STIM_014.jpg	99
1280.641	1.996	1996.1	regulate	Run2	regulate/STIM_014.jpg	100
1286.256	1.309	1309.4	regulate	Run2	regulate/STIM_014.jpg	99
1290.584	2.189	2188.8	regulate	Run2	regulate/STIM_015.jpg	99
1295.904	2.263	2262.6	regulate	Run2	regulate/STIM_015.jpg	99
1300.577	1.97	1970.0	regulate	Run2	regulate/STIM_015.jpg	99
1304.88	2.371	2371.1	regulate	Run2	regulate/STIM_015.jpg	99
1310.888	2.789	2789.2	regulate	Run2	regulate/STIM_016.jpg	100
1317.608	1.589	1589.3	regulate	Run2	regulate/STIM_016.jpg	100
1322.918	1.693	1693.0	regulate	Run2	regulate/STIM_016.jpg	100
1327.934	2.007	2007.1	regulate	Run2	regulate/STIM_016.jpg	99
1332.523	2.1	2099.8	regulate	Run2	regulate/STIM_017.jpg	99
1337.962	1.538	1537.7	regulate	Run2	regulate/STIM_017.jpg	100
1343.444	2.104	2103.6	regulate	Run2	regulate/STIM_017.jpg	99
1348.945	1.537	1536.9	regulate	Run2	regulate/STIM_017.jpg	99
1353.951	1.379	1379.0	regulate	Run2	regulate/STIM_018.jpg	100
1358.033	1.736	1736.3	regulate	Run2	regulate/STIM_018.jpg	99
1363.482	1.852	1852.5	regulate	Run2	regulate/STIM_018.jpg	100
1367.339	1.324	1324.0	regulate	Run2	regulate/STIM_018.jpg	100
1370.799	2.938	2937.8	regulate	Run2	regulate/STIM_019.jpg	99
1376.859	2.711	2711.0	regulate	Run2	regulate/STIM_019.jpg	100
1381.914	1.212	1211.8	regulate	Run2	regulate/STIM_019.jpg	100
1385.972	1.5	1499.8	regulate	Run2	regulate/STIM_019.jpg	100
1390.641	2.313	2313.2	regulate	Run2	regulate/STIM_020.jpg	99
1396.003	1.767	1766.6	regulate	Run2	regulate/STIM_020.jpg	99
1401.218	2.113	2113.2	regulate	Run2	regulate/STIM_020.jpg	99
1406.537	1.605	1604.9	regulate	Run2	regulate/STIM_020.jpg	100
1410.267	2.868	2868.5	regulate	Run2	regulate/STIM_021.jpg	100
1416.737	1.906	1906.5	regulate	Run2	regulate/STIM_021.jpg	99
1420.672	2.311	2311.2	regulate	Run2	regulate/STIM_021.jpg	100
1425.649	2.392	2392.1	regulate	Run2	regulate/STIM_021.jpg	99
1430.681	2.648	2648.3	regulate	Run2	regulate/STIM_022.jpg	100
1436.211	1.539	1538.6	regulate	Run2	regulate/STIM_022.jpg	99
1440.669	1.432	1431.9	regulate	Run2	regulate/STIM_022.jpg	99
1445.734	1.522	1522.3	regulate	Run2	regulate/STIM_022.jpg	100
1449.663	2.763	2763.1	regulate	Run2	regulate/STIM_023.jpg	100
1455.87	2.735	2735.2	regulate	Run2	regulate/STIM_023.jpg	100
1460.673	2.527	2527.2	regulate	Run2	regulate/STIM_023.jpg	100
1466.201	1.756	1756.5	regulate	Run2	regulate/STIM_023.jpg	99
1470.296	1.316	1316.1	regulate	Run2	regulate/STIM_024.jpg	100
1474.299	2.361	2360.7	regulate	Run2	regulate/STIM_024.jpg	100
1479.973	1.776	1776.4	regulate	Run2	regulate/STIM_024.jpg	99
1485.347	1.055	1054.8	regulate	Run2	regulate/STIM_024.jpg	100
1489.914	2.823	2822.8	regulate	Run2	regulate/STIM_025.jpg	100
1496.603	2.428	2428.0	regulate	Run2	regulate/STIM_025.jpg	100
1502.73	2.052	2052.3	regulate	Run2	regulate/STIM_025.jpg	99
1507.9	1.208	1208.4	regulate	Run2	regulate/STIM_025.jpg	99
1512.142	2.659	2659.4	regulate	Run2	regulate/STIM_026.jpg	100
1517.403	1.99	1990.3	regulate	Run2	regulate/STIM_026.jpg	99
1521.885	2.276	2276.1	regulate	Run2	regulate/STIM_026.jpg	100
1527.013	1.893	1893.0	regulate	Run2	regulate/STIM_026.jpg	99
1531.402	2.946	2945.5	regulate	Run2	regulate/STIM_027.jpg	99
1536.606	1.298	1297.8	regulate	Run2	regulate/STIM_027.jpg	99
1541.873	1.689	1688.7	regulate	Run2	regulate/STIM_027.jpg	100
1547.074	2.064	2064.1	regulate	Run2	regulate/STIM_027.jpg	99
1551.143	2.534	2533.6	regulate	Run2	regulate/STIM_028.jpg	99
1557.287	2.019	2019.4	regulate	Run2	regulate/STIM_028.jpg	99
1561.76	1.528	1528.4	regulate	Run2	regulate/STIM_028.jpg	99
1566.5	2.07	2070.2	regulate	Run2	regulate/STIM_028.jpg	99
1570.812	2.876	2876.3	regulate	Run2	regulate/STIM_029.jpg	100
1577.147	1.904	1904.4	regulate	Run2	regulate/STIM_029.jpg	100
1581.138	2.458	2457.9	regulate	Run2	regulate/STIM_029.jpg	99
1585.651	2.13	2129.5	regulate	Run2	regulate/STIM_029.jpg	99
1590.894	1.126	1125.7	observe	Run2	observe/STIM_000.jpg	100
1595.719	1.272	1271.7	observe	Run2	observe/STIM_000.jpg	100
1600.101	1.071	1071.4	observe	Run2	observe/STIM_000.jpg	100
1604.174	1.47	1469.7	observe	Run2	observe/STIM_000.jpg	99
1608.574	0.866	865.6	observe	Run2	observe/STIM_001.jpg	100
1611.637	1.564	1564.4	observe	Run2	observe/STIM_001.jpg	100
1616.893	1.055	1055.4	observe	Run2	observe/STIM_001.jpg	99
1621.61	1.142	1142.2	observe	Run2	observe/STIM_001.jpg	99
1626.326	1.423	1422.6	observe	Run2	observe/STIM_002.jpg	99
1631.152	1.058	1058.1	observe	Run2	observe/STIM_002.jpg	99
1635.09	1.567	1567.0	observe	Run2	observe/STIM_002.jpg	99
1639.518	0.983	983.2	observe	Run2	observe/STIM_002.jpg	100
1644.39	1.443	1442.6	observe	Run2	observe/STIM_003.jpg	100
1649.261	1.388	1387.5	observe	Run2	observe/STIM_003.jpg	99
1653.606	0.932	932.1	observe	Run2	observe/STIM_003.jpg	100
1658.193	1.203	1203.0	observe	Run2	observe/STIM_003.jpg	100
1662.979	0.838	837.6	observe	Run2	observe/STIM_004.jpg	99
1667.058	1.44	1439.8	observe	Run2	observe/STIM_004.jpg	99
1670.685	1.12	1120.2	observe	Run2	observe/STIM_004.jpg	100
1675.13	1.231	1230.8	observe	Run2	observe/STIM_004.jpg	100
1679.273	1.398	1398.5	observe	Run2	observe/STIM_005.jpg	100
1683.019	1.073	1072.9	observe	Run2	observe/STIM_005.jpg	99
1687.958	1.04	1040.5	observe	Run2	observe/STIM_005.jpg	99
1692.012	1.255	1254.7	observe	Run2	observe/STIM_005.jpg	100
1696.938	1.403	1403.2	observe	Run2	observe/STIM_006.jpg	100
1701.565	1.522	1521.6	observe	Run2	observe/STIM_006.jpg	100
1706.92	1.586	1585.8	observe	Run2	observe/STIM_006.jpg	100
1712.348	0.968	967.9	observe	Run2	observe/STIM_006.jpg	100
1716.476	1.236	1235.7	observe	Run2	observe/STIM_007.jpg	99
1720.734	1.394	1394.1	observe	Run2	observe/STIM_007.jpg	100
1725.414	0.942	941.8	observe	Run2	observe/STIM_007.jpg	100
1729.389	1.223	1223.0	observe	Run2	observe/STIM_007.jpg	100
1733.54	1.18	1179.5	observe	Run2	observe/STIM_008.jpg	99
1738.301	1.487	1487.2	observe	Run2	observe/STIM_008.jpg	99
1742.306	1.094	1094.0	observe	Run2	observe/STIM_008.jpg	99
1746.893	1.459	1459.2	observe	Run2	observe/STIM_008.jpg	100
1751.872	1.27	1270.3	observe	Run2	observe/STIM_009.jpg	99
1757.034	1.19	1190.1	observe	Run2	observe/STIM_009.jpg	99
1760.647	1.543	1543.3	observe	Run2	observe/STIM_009.jpg	100
1765.349	1.169	1168.8	observe	Run2	observe/STIM_009.jpg	99
1770.056	1.345	1344.9	observe	Run2	observe/STIM_010.jpg	99
1774.546	1.458	1458.2	observe	Run2	observe/STIM_010.jpg	99
1779.886	1.483	1482.9	observe	Run2	observe/STIM_010.jpg	99
1784.866	0.805	804.7	observe	Run2	observe/STIM_010.jpg	99
1788.657	1.197	1197.1	observe	Run2	observe/STIM_011.jpg	100
1792.258	1.052	1052.4	observe	Run2	observe/STIM_011.jpg	99
1795.663	1.017	1017.3	observe	Run2	observe/STIM_011.jpg	99
1799.82	1.136	1136.4	observe	Run2	observe/STIM_011.jpg	99
1804.312	0.837	836.7	observe	Run2	observe/STIM_012.jpg	99
1807.563	1.425	1425.4	observe	Run2	observe/STIM_012.jpg	99
1811.515	1.194	1193.9	observe	Run2	observe/STIM_012.jpg	100
1816.643	1.339	1338.6	observe	Run2	observe/STIM_012.jpg	99
1820.875	0.841	840.9	observe	Run2	observe/STIM_013.jpg	100
1825.538	1.427	1427.3	observe	Run2	observe/STIM_013.jpg	100
1829.864	1.432	1432.5	observe	Run2	observe/STIM_013.jpg	99
1833.628	0.966	965.9	observe	Run2	observe/STIM_013.jpg	99
1837.844	1.172	1172.2	observe	Run2	observe/STIM_014.jpg	99
1841.422	0.905	904.8	observe	Run2	observe/STIM_014.jpg	100
1845.818	1.459	1458.9	observe	Run2	observe/STIM_014.jpg	100
1849.767	1.548	1548.2	observe	Run2	observe/STIM_014.jpg	100
1855.288	0.901	901.0	observe	Run2	observe/STIM_015.jpg	100
1859.161	1.308	1307.9	observe	Run2	observe/STIM_015.jpg	100
1863.636	0.881	881.4	observe	Run2	observe/STIM_015.jpg	100
1866.674	1.068	1067.8	observe	Run2	observe/STIM_015.jpg	99
1871.736	0.956	956.1	observe	Run2	observe/STIM_016.jpg	99
1875.718	1.284	1284.2	observe	Run2	observe/STIM_016.jpg	100
1880.628	1.211	1211.0	observe	Run2	observe/STIM_016.jpg	99
1883.864	1.344	1344.2	observe	Run2	observe/STIM_016.jpg	100
1887.588	1.138	1138.5	observe	Run2	observe/STIM_017.jpg	100
1891.267	1.146	1146.1	observe	Run2	observe/STIM_017.jpg	99
1896.164	1.553	1553.4	observe	Run2	observe/STIM_017.jpg	99
1901.349	0.924	924.2	observe	Run2	observe/STIM_017.jpg	100
1905.824	1.339	1339.4	observe	Run2	observe/STIM_018.jpg	100
1909.461	1.006	1005.7	observe	Run2	observe/STIM_018.jpg	99
1912.67	0.912	912.3	observe	Run2	observe/STIM_018.jpg	99
1915.692	0.862	862.5	observe	Run2	observe/STIM_018.jpg	99
1919.532	1.062	1062.0	observe	Run2	observe/STIM_019.jpg	100
1924.062	1.296	1295.9	observe	Run2	observe/STIM_019.jpg	99
1927.714	1.515	1515.2	observe	Run2	observe/STIM_019.jpg	100
1933.034	1.125	1125.1	observe	Run2	observe/STIM_019.jpg	100
1936.447	2.187	2186.9	regulate	Run3	regulate/STIM_000.jpg	100
1940.855	1.95	1950.4	regulate	Run3	regulate/STIM_000.jpg	100
1946.71	1.949	1949.0	regulate	Run3	regulate/STIM_000.jpg	99
1951.766	1.962	1961.8	regulate	Run3	regulate/STIM_000.jpg	100
1956.787	2.076	2076.3	regulate	Run3	regulate/STIM_001.jpg	100
1961.482	1.557	1557.3	regulate	Run3	regulate/STIM_001.jpg	100
1965.751	1.115	1115.4	regulate	Run3	regulate/STIM_001.jpg	99
1969.19	1.187	1187.2	regulate	Run3	regulate/STIM_001.jpg	100
1973.894	1.366	1365.7	regulate	Run3	regulate/STIM_002.jpg	99
1977.851	2.074	2073.9	regulate	Run3	regulate/STIM_002.jpg	100
1981.926	2.386	2386.0	regulate	Run3	regulate/STIM_002.jpg	100
1987.323	2.397	2397.1	regulate	Run3	regulate/STIM_002.jpg	99
1993.465	1.4	1399.5	regulate	Run3	regulate/STIM_003.jpg	100
1998.126	1.359	1359.4	regulate	Run3	regulate/STIM_003.jpg	100
2002.986	1.832	1831.9	regulate	Run3	regulate/STIM_003.jpg	99
2008.474	1.404	1404.1	regulate	Run3	regulate/STIM_003.jpg	100
2011.935	1.563	1563.1	regulate	Run3	regulate/STIM_004.jpg	99
2017.132	1.328	1328.5	regulate	Run3	regulate/STIM_004.jpg	99
2020.892	1.663	1662.6	regulate	Run3	regulate/STIM_004.jpg	99
2024.857	1.471	1471.1	regulate	Run3	regulate/STIM_004.jpg	99
2030.223	1.664	1663.7	regulate	Run3	regulate/STIM_005.jpg	100
2035.842	1.779	1779.4	regulate	Run3	regulate/STIM_005.jpg	100
2040.434	2.196	2196.3	regulate	Run3	regulate/STIM_005.jpg	99
2044.855	1.593	1593.4	regulate	Run3	regulate/STIM_005.jpg	100
2049.592	1.277	1276.6	regulate	Run3	regulate/STIM_006.jpg	99
2053.552	1.32	1320.0	regulate	Run3	regulate/STIM_006.jpg	100
2057.835	2.081	2080.8	regulate	Run3	regulate/STIM_006.jpg	100
2062.917	1.827	1826.6	regulate	Run3	regulate/STIM_006.jpg	100
2066.855	1.748	1748.4	regulate	Run3	regulate/STIM_007.jpg	99
2071.811	1.898	1897.7	regulate	Run3	regulate/STIM_007.jpg	99
2076.224	2.097	2097.2	regulate	Run3	regulate/STIM_007.jpg	99
2080.73	1.613	1612.9	regulate	Run3	regulate/STIM_007.jpg	99
2085.348	1.728	1728.4	regulate	Run3	regulate/STIM_008.jpg	99
2089.245	1.053	1052.9	regulate	Run3	regulate/STIM_008.jpg	99
2092.659	1.891	1891.0	regulate	Run3	regulate/STIM_008.jpg	100
2098.501	1.754	1753.9	regulate	Run3	regulate/STIM_008.jpg	99
2103.154	1.296	1295.6	regulate	Run3	regulate/STIM_009.jpg	99
2108.216	1.249	1249.4	regulate	Run3	regulate/STIM_009.jpg	100
2111.745	2.21	2210.1	regulate	Run3	regulate/STIM_009.jpg	100
2116.768	1.185	1185.0	regulate	Run3	regulate/STIM_009.jpg	99
2121.949	2.392	2392.2	regulate	Run3	regulate/STIM_010.jpg	100
2126.351	1.083	1082.7	regulate	Run3	regulate/STIM_010.jpg	99
2130.955	1.128	1128.1	regulate	Run3	regulate/STIM_010.jpg	99
2135.508	2.291	2290.9	regulate	Run3	regulate/STIM_010.jpg	99
2140.22	1.179	1178.6	regulate	Run3	regulate/STIM_011.jpg	99
2143.918	2.013	2013.3	regulate	Run3	regulate/STIM_011.jpg	99
2148.256	1.858	1857.6	regulate	Run3	regulate/STIM_011.jpg	99
2152.916	2.321	2321.0	regulate	Run3	regulate/STIM_011.jpg	100
2158.884	1.056	1056.0	regulate	Run3	regulate/STIM_012.jpg	99
2163.416	1.043	1042.9	regulate	Run3	regulate/STIM_012.jpg	100
2166.689	1.05	1050.4	regulate	Run3	regulate/STIM_012.jpg	99
2170.388	2.053	2053.0	regulate	Run3	regulate/STIM_012.jpg	99
2176.251	1.172	1172.4	regulate	Run3	regulate/STIM_013.jpg	100
2180.39	1.65	1649.9	regulate	Run3	regulate/STIM_013.jpg	99
2184.475	2.413	2413.1	regulate	Run3	regulate/STIM_013.jpg	99
2189.194	2.195	2195.2	regulate	Run3	regulate/STIM_013.jpg	99
2193.515	1.447	1446.8	regulate	Run3	regulate/STIM_014.jpg	100
2197.562	1.494	1493.7	regulate	Run3	regulate/STIM_014.jpg	99
2201.887	2.072	2072.1	regulate	Run3	regulate/STIM_014.jpg	99
2206.741	2.263	2262.9	regulate	Run3	regulate/STIM_014.jpg	100
2211.39	2.269	2268.9	regulate	Run3	regulate/STIM_015.jpg	100
2215.747	1.788	1787.9	regulate	Run3	regulate/STIM_015.jpg	99
2219.592	2.124	2124.2	regulate	Run3	regulate/STIM_015.jpg	99
2225.394	1.498	1497.6	regulate	Run3	regulate/STIM_015.jpg	99
2229.94	1.521	1521.4	regulate	Run3	regulate/STIM_016.jpg	100
2234.413	2.295	2294.6	regulate	Run3	regulate/STIM_016.jpg	100
2240.374	2.181	2180.8	regulate	Run3	regulate/STIM_016.jpg	99
2244.856	2.383	2383.0	regulate	Run3	regulate/STIM_016.jpg	100
2250.402	1.555	1554.9	regulate	Run3	regulate/STIM_017.jpg	100
2255.877	2.088	2087.8	regulate	Run3	regulate/STIM_017.jpg	100
2261.915	2.268	2267.9	regulate	Run3	regulate/STIM_017.jpg	100
2268.156	1.15	1149.5	regulate	Run3	regulate/STIM_017.jpg	99
2272.518	1.867	1866.7	regulate	Run3	regulate/STIM_018.jpg	100
2277.362	1.454	1454.4	regulate	Run3	regulate/STIM_018.jpg	99
2281.021	2.102	2102.1	regulate	Run3	regulate/STIM_018.jpg	99
2285.347	2.132	2131.7	regulate	Run3	regulate/STIM_018.jpg	100
2290.766	1.865	1864.6	regulate	Run3	regulate/STIM_019.jpg	99
2294.691	1.676	1676.4	regulate	Run3	regulate/STIM_019.jpg	99
2298.636	1.207	1206.6	regulate	Run3	regulate/STIM_019.jpg	99
2302.618	1.523	1522.8	regulate	Run3	regulate/STIM_019.jpg	100
2307.899	1.159	1158.7	regulate	Run3	regulate/STIM_020.jpg	99
2311.634	1.795	1795.3	regulate	Run3	regulate/STIM_020.jpg	99
2316.245	2.215	2214.9	regulate	Run3	regulate/STIM_020.jpg	99
2322.249	1.544	1543.5	regulate	Run3	regulate/STIM_020.jpg	99
2325.823	1.183	1182.9	regulate	Run3	regulate/STIM_021.jpg	100
2329.655	1.771	1770.7	regulate	Run3	regulate/STIM_021.jpg	100
2335.186	2.047	2046.8	regulate	Run3	regulate/STIM_021.jpg	100
2341.147	1.596	1596.1	regulate	Run3	regulate/STIM_021.jpg	100
2344.978	1.091	1091.2	regulate	Run3	regulate/STIM_022.jpg	100
2348.224	2.194	2193.9	regulate	Run3	regulate/STIM_022.jpg	100
2354.066	2.356	2355.6	regulate	Run3	regulate/STIM_022.jpg	99
2360.001	1.542	1542.0	regulate	Run3	regulate/STIM_022.jpg	100
2365.025	2.416	2415.7	regulate	Run3	regulate/STIM_023.jpg	100
2370.738	1.612	1611.6	regulate	Run3	regulate/STIM_023.jpg	99
2375.974	1.153	1153.4	regulate	Run3	regulate/STIM_023.jpg	100
2379.221	1.302	1301.9	regulate	Run3	regulate/STIM_023.jpg	100
2384.252	1.421	1421.0	regulate	Run3	regulate/STIM_024.jpg	100
2389.161	1.913	1913.0	regulate	Run3	regulate/STIM_024.jpg	100
2395.02	1.807	1806.9	regulate	Run3	regulate/STIM_024.jpg	99
2400.211	2.073	2072.7	regulate	Run3	regulate/STIM_024.jpg	100
2405.542	2.348	2347.7	regulate	Run3	regulate/STIM_025.jpg	100
2411.609	1.123	1123.0	regulate	Run3	regulate/STIM_025.jpg	99
2415.879	1.96	1960.0	regulate	Run3	regulate/STIM_025.jpg	99
2420.954	2.307	2306.7	regulate	Run3	regulate/STIM_025.jpg	100
2426.251	1.176	1176.5	regulate	Run3	regulate/STIM_026.jpg	99
2430.176	1.692	1691.5	regulate	Run3	regulate/STIM_026.jpg	99
2434.536	1.699	1699.4	regulate	Run3	regulate/STIM_026.jpg	99
2439.86	2.23	2230.4	regulate	Run3	regulate/STIM_026.jpg	100
2445.773	1.852	1851.8	regulate	Run3	regulate/STIM_027.jpg	100
2450.204	1.202	1202.2	regulate	Run3	regulate/STIM_027.jpg	100
2455.106	1.104	1104.4	regulate	Run3	regulate/STIM_027.jpg	99
2459.355	2.219	2218.9	regulate	Run3	regulate/STIM_027.jpg	99
2463.679	2.052	2052.3	regulate	Run3	regulate/STIM_028.jpg	99
2469.685	2.319	2319.1	regulate	Run3	regulate/STIM_028.jpg	100
2475.731	2.07	2070.4	regulate	Run3	regulate/STIM_028.jpg	100
2480.594	1.151	1151.0	regulate	Run3	regulate/STIM_028.jpg	100
2484.196	2.301	2301.0	regulate	Run3	regulate/STIM_029.jpg	99
2489.877	1.382	1382.4	regulate	Run3	regulate/STIM_029.jpg	99
2494.918	1.727	1726.7	regulate	Run3	regulate/STIM_029.jpg	100
2499.878	2.387	2387.1	regulate	Run3	regulate/STIM_029.jpg	100
2504.367	0.871	870.6	observe	Run3	observe/STIM_000.jpg	100
2507.736	1.131	1130.8	observe	Run3	observe/STIM_000.jpg	100
2511.78	1.386	1386.0	observe	Run3	observe/STIM_000.jpg	99
2515.304	0.912	912.1	observe	Run3	observe/STIM_000.jpg	99
2519.754	1.357	1357.0	observe	Run3	observe/STIM_001.jpg	99
2523.64	1.401	1401.3	observe	Run3	observe/STIM_001.jpg	99
2528.24	1.371	1371.0	observe	Run3	observe/STIM_001.jpg	100
2532.39	1.095	1094.6	observe	Run3	observe/STIM_001.jpg	99
2535.973	0.928	928.2	observe	Run3	observe/STIM_002.jpg	100
2539.676	1.051	1051.1	observe	Run3	observe/STIM_002.jpg	100
2544.174	1.586	1585.8	observe	Run3	observe/STIM_002.jpg	99
2547.869	0.985	984.7	observe	Run3	observe/STIM_002.jpg	99
2552.281	0.889	888.6	observe	Run3	observe/STIM_003.jpg	99
2556.208	1.522	1521.6	observe	Run3	observe/STIM_003.jpg	99
2561.706	1.276	1276.1	observe	Run3	observe/STIM_003.jpg	100
2565.667	1.101	1101.0	observe	Run3	observe/STIM_003.jpg	100
2569.329	1.153	1153.1	observe	Run3	observe/STIM_004.jpg	99
2573.763	0.853	852.8	observe	Run3	observe/STIM_004.jpg	100
2577.287	1.206	1205.6	observe	Run3	observe/STIM_004.jpg	99
2581.253	1.365	1365.1	observe	Run3	observe/STIM_004.jpg	99
2585.992	1.451	1451.3	observe	Run3	observe/STIM_005.jpg	99
2589.815	0.874	874.1	observe	Run3	observe/STIM_005.jpg	99
2594.04	1.128	1127.7	observe	Run3	observe/STIM_005.jpg	99
2598.566	1.298	1298.3	observe	Run3	observe/STIM_005.jpg	99
2603.571	1.099	1098.6	observe	Run3	observe/STIM_006.jpg	100
2608.528	0.992	992.1	observe	Run3	observe/STIM_006.jpg	99
2611.909	0.996	996.3	observe	Run3	observe/STIM_006.jpg	99
2615.13	0.855	855.0	observe	Run3	observe/STIM_006.jpg	100
2619.64	1.574	1573.6	observe	Run3	observe/STIM_007.jpg	99
2623.987	1.331	1331.2	observe	Run3	observe/STIM_007.jpg	99
2628.149	1.307	1307.4	observe	Run3	observe/STIM_007.jpg	99
2632.116	1.486	1486.4	observe	Run3	observe/STIM_007.jpg	100
2636.833	0.959	959.1	observe	Run3	observe/STIM_008.jpg	100
2641.687	1.421	1421.2	observe	Run3	observe/STIM_008.jpg	99
2646.432	1.133	1132.9	observe	Run3	observe/STIM_008.jpg	100
2650.375	1.153	1153.4	observe	Run3	observe/STIM_008.jpg	99
2655.428	0.972	971.5	observe	Run3	observe/STIM_009.jpg	100
2659.415	1.326	1325.5	observe	Run3	observe/STIM_009.jpg	99
2664.113	1.136	1135.6	observe	Run3	observe/STIM_009.jpg	100
2668.446	1.281	1281.0	observe	Run3	observe/STIM_009.jpg	99
2672.563	1.305	1305.4	observe	Run3	observe/STIM_010.jpg	99
2677.253	1.021	1020.8	observe	Run3	observe/STIM_010.jpg	100
2680.654	1.217	1217.0	observe	Run3	observe/STIM_010.jpg	100
2684.174	0.995	994.9	observe	Run3	observe/STIM_010.jpg	100
2689.053	1.351	1351.0	observe	Run3	observe/STIM_011.jpg	99
2693.741	1.08	1079.6	observe	Run3	observe/STIM_011.jpg	99
2697.791	0.935	935.2	observe	Run3	observe/STIM_011.jpg	100
2701.977	0.838	837.7	observe	Run3	observe/STIM_011.jpg	99
2706.74	1.337	1337.0	observe	Run3	observe/STIM_012.jpg	100
2711.072	0.946	945.7	observe	Run3	observe/STIM_012.jpg	100
2714.223	1.215	1214.6	observe	Run3	observe/STIM_012.jpg	99
2717.552	1.555	1554.8	observe	Run3	observe/STIM_012.jpg	100
2722.528	0.862	862.0	observe	Run3	observe/STIM_013.jpg	99
2726.041	0.872	872.0	observe	Run3	observe/STIM_013.jpg	100
2730.095	1.108	1108.0	observe	Run3	observe/STIM_013.jpg	100
2734.701	1.539	1539.3	observe	Run3	observe/STIM_013.jpg	100
2739.471	1.537	1537.2	observe	Run3	observe/STIM_014.jpg	100
2744.023	1.322	1322.0	observe	Run3	observe/STIM_014.jpg	100
2748.732	1.029	1029.0	observe	Run3	observe/STIM_014.jpg	99
2752.145	0.997	996.8	observe	Run3	observe/STIM_014.jpg	99
2755.608	1.559	1559.2	observe	Run3	observe/STIM_015.jpg	100
2759.874	1.576	1575.6	observe	Run3	observe/STIM_015.jpg	99
2764.397	1.465	1465.3	observe	Run3	observe/STIM_015.jpg	99
2767.867	1.106	1106.5	observe	Run3	observe/STIM_015.jpg	99
2771.304	1.154	1154.0	observe	Run3	observe/STIM_016.jpg	100
2775.137	1.33	1330.1	observe	Run3	observe/STIM_016.jpg	99
2779.262	1.181	1180.9	observe	Run3	observe/STIM_016.jpg	100
2783.93	1.185	1185.3	observe	Run3	observe/STIM_016.jpg	100
2787.936	1.089	1089.1	observe	Run3	observe/STIM_017.jpg	99
2791.107	0.932	932.0	observe	Run3	observe/STIM_017.jpg	100
2795.067	0.851	851.0	observe	Run3	observe/STIM_017.jpg	100
2799.708	0.813	813.1	observe	Run3	observe/STIM_017.jpg	99
2803.148	1.562	1562.3	observe	Run3	observe/STIM_018.jpg	99
2806.872	1.115	1114.7	observe	Run3	observe/STIM_018.jpg	99
2810.52	0.969	969.0	observe	Run3	observe/STIM_018.jpg	100
2814.953	1.489	1489.3	observe	Run3	observe/STIM_018.jpg	99
2818.813	1.508	1508.1	observe	Run3	observe/STIM_019.jpg	99
2822.428	1.52	1520.4	observe	Run3	observe/STIM_019.jpg	99
2826.754	0.928	927.6	observe	Run3	observe/STIM_019.jpg	100
2830.228	0.884	884.0	observe	Run3	observe/STIM_019.jpg	100
