onset	duration	accuracy_binary	trial_type	learning_stage	stimulus
0.0	2.333	1	regulate	Run1	regulate/STIM_000.jpg
5.925	1.461	0	regulate	Run1	regulate/STIM_000.jpg
11.031	1.881	1	regulate	Run1	regulate/STIM_000.jpg
15.959	1.678	1	regulate	Run1	regulate/STIM_000.jpg
21.342	2.705	0	regulate	Run1	regulate/STIM_001.jpg
27.635	3.079	0	regulate	Run1	regulate/STIM_001.jpg
33.633	1.906	1	regulate	Run1	regulate/STIM_001.jpg
39.527	2.197	1	regulate	Run1	regulate/STIM_001.jpg
43.96	3.272	0	regulate	Run1	regulate/STIM_002.jpg
50.622	3.22	1	regulate	Run1	regulate/STIM_002.jpg
56.9	2.887	1	regulate	Run1	regulate/STIM_002.jpg
62.571	2.535	0	regulate	Run1	regulate/STIM_002.jpg
68.001	2.992	1	regulate	Run1	regulate/STIM_003.jpg
73.999	3.262	1	regulate	Run1	regulate/STIM_003.jpg
80.818	1.754	1	regulate	Run1	regulate/STIM_003.jpg
85.485	1.464	1	regulate	Run1	regulate/STIM_003.jpg
90.721	2.419	1	regulate	Run1	regulate/STIM_004.jpg
96.295	2.584	0	regulate	Run1	regulate/STIM_004.jpg
102.31	1.674	1	regulate	Run1	regulate/STIM_004.jpg
107.232	2.911	1	regulate	Run1	regulate/STIM_004.jpg
113.041	2.714	1	regulate	Run1	regulate/STIM_005.jpg
119.633	2.816	1	regulate	Run1	regulate/STIM_005.jpg
126.443	2.232	1	regulate	Run1	regulate/STIM_005.jpg
131.15	1.343	0	regulate	Run1	regulate/STIM_005.jpg
136.276	3.273	1	regulate	Run1	regulate/STIM_006.jpg
143.227	3.188	0	regulate	Run1	regulate/STIM_006.jpg
150.112	2.199	0	regulate	Run1	regulate/STIM_006.jpg
155.54	1.446	0	regulate	Run1	regulate/STIM_006.jpg
159.976	2.194	0	regulate	Run1	regulate/STIM_007.jpg
165.528	3.276	1	regulate	Run1	regulate/STIM_007.jpg
171.005	1.636	1	regulate	Run1	regulate/STIM_007.jpg
176.375	2.339	1	regulate	Run1	regulate/STIM_007.jpg
181.636	1.743	1	regulate	Run1	regulate/STIM_008.jpg
187.249	1.738	1	regulate	Run1	regulate/STIM_008.jpg
192.155	2.917	1	regulate	Run1	regulate/STIM_008.jpg
198.072	2.561	1	regulate	Run1	regulate/STIM_008.jpg
203.996	3.011	1	regulate	Run1	regulate/STIM_009.jpg
209.652	2.229	1	regulate	Run1	regulate/STIM_009.jpg
215.607	2.296	1	regulate	Run1	regulate/STIM_009.jpg
220.675	1.813	0	regulate	Run1	regulate/STIM_009.jpg
225.117	3.351	0	regulate	Run1	regulate/STIM_010.jpg
230.81	1.506	1	regulate	Run1	regulate/STIM_010.jpg
235.609	1.578	1	regulate	Run1	regulate/STIM_010.jpg
240.592	2.17	1	regulate	Run1	regulate/STIM_010.jpg
246.591	3.428	1	regulate	Run1	regulate/STIM_011.jpg
252.711	3.216	1	regulate	Run1	regulate/STIM_011.jpg
258.778	2.026	1	regulate	Run1	regulate/STIM_011.jpg
263.205	1.312	1	regulate	Run1	regulate/STIM_011.jpg
268.162	2.196	1	regulate	Run1	regulate/STIM_012.jpg
274.322	2.217	1	regulate	Run1	regulate/STIM_012.jpg
279.859	1.505	1	regulate	Run1	regulate/STIM_012.jpg
283.733	2.362	1	regulate	Run1	regulate/STIM_012.jpg
289.636	3.116	0	regulate	Run1	regulate/STIM_013.jpg
295.665	1.482	0	regulate	Run1	regulate/STIM_013.jpg
300.871	1.726	1	regulate	Run1	regulate/STIM_013.jpg
306.306	2.484	1	regulate	Run1	regulate/STIM_013.jpg
312.748	2.029	0	regulate	Run1	regulate/STIM_014.jpg
317.093	1.742	1	regulate	Run1	regulate/STIM_014.jpg
322.473	2.088	1	regulate	Run1	regulate/STIM_014.jpg
327.154	1.797	1	regulate	Run1	regulate/STIM_014.jpg
332.622	3.378	1	regulate	Run1	regulate/STIM_015.jpg
338.944	2.046	1	regulate	Run1	regulate/STIM_015.jpg
344.461	2.587	1	regulate	Run1	regulate/STIM_015.jpg
350.22	2.805	1	regulate	Run1	regulate/STIM_015.jpg
356.175	2.604	1	regulate	Run1	regulate/STIM_016.jpg
360.82	1.63	0	regulate	Run1	regulate/STIM_016.jpg
364.947	2.924	0	regulate	Run1	regulate/STIM_016.jpg
371.378	2.379	0	regulate	Run1	regulate/STIM_016.jpg
377.404	1.733	0	regulate	Run1	regulate/STIM_017.jpg
382.811	3.017	0	regulate	Run1	regulate/STIM_017.jpg
388.407	2.228	0	regulate	Run1	regulate/STIM_017.jpg
392.922	1.4	0	regulate	Run1	regulate/STIM_017.jpg
397.919	3.062	0	regulate	Run1	regulate/STIM_018.jpg
403.26	2.177	1	regulate	Run1	regulate/STIM_018.jpg
407.737	3.068	1	regulate	Run1	regulate/STIM_018.jpg
414.09	2.53	1	regulate	Run1	regulate/STIM_018.jpg
419.839	2.821	1	regulate	Run1	regulate/STIM_019.jpg
424.979	2.315	1	regulate	Run1	regulate/STIM_019.jpg
429.692	2.082	0	regulate	Run1	regulate/STIM_019.jpg
435.759	2.924	1	regulate	Run1	regulate/STIM_019.jpg
442.49	1.678	1	regulate	Run1	regulate/STIM_020.jpg
446.548	2.837	0	regulate	Run1	regulate/STIM_020.jpg
451.472	2.895	1	regulate	Run1	regulate/STIM_020.jpg
457.403	2.218	1	regulate	Run1	regulate/STIM_020.jpg
462.531	2.374	1	regulate	Run1	regulate/STIM_021.jpg
468.429	2.409	0	regulate	Run1	regulate/STIM_021.jpg
474.363	1.616	1	regulate	Run1	regulate/STIM_021.jpg
478.286	2.916	0	regulate	Run1	regulate/STIM_021.jpg
484.949	2.624	1	regulate	Run1	regulate/STIM_022.jpg
490.372	2.705	1	regulate	Run1	regulate/STIM_022.jpg
496.174	1.343	1	regulate	Run1	regulate/STIM_022.jpg
499.529	1.957	1	regulate	Run1	regulate/STIM_022.jpg
505.451	1.847	1	regulate	Run1	regulate/STIM_023.jpg
509.488	2.448	1	regulate	Run1	regulate/STIM_023.jpg
515.065	2.106	1	regulate	Run1	regulate/STIM_023.jpg
520.926	1.647	1	regulate	Run1	regulate/STIM_023.jpg
525.531	2.433	1	regulate	Run1	regulate/STIM_024.jpg
530.098	2.816	1	regulate	Run1	regulate/STIM_024.jpg
536.772	1.871	1	regulate	Run1	regulate/STIM_024.jpg
540.992	2.944	1	regulate	Run1	regulate/STIM_024.jpg
547.57	3.449	0	regulate	Run1	regulate/STIM_025.jpg
554.163	1.869	1	regulate	Run1	regulate/STIM_025.jpg
558.048	2.74	0	regulate	Run1	regulate/STIM_025.jpg
564.404	1.533	0	regulate	Run1	regulate/STIM_025.jpg
569.655	2.274	0	regulate	Run1	regulate/STIM_026.jpg
575.161	1.765	0	regulate	Run1	regulate/STIM_026.jpg
579.402	2.627	0	regulate	Run1	regulate/STIM_026.jpg
584.369	2.206	1	regulate	Run1	regulate/STIM_026.jpg
590.486	1.532	0	regulate	Run1	regulate/STIM_027.jpg
595.347	2.972	1	regulate	Run1	regulate/STIM_027.jpg
601.638	2.189	1	regulate	Run1	regulate/STIM_027.jpg
605.956	1.39	1	regulate	Run1	regulate/STIM_027.jpg
610.165	2.234	0	regulate	Run1	regulate/STIM_028.jpg
615.579	2.038	0	regulate	Run1	regulate/STIM_028.jpg
620.371	1.994	1	regulate	Run1	regulate/STIM_028.jpg
626.258	2.879	1	regulate	Run1	regulate/STIM_028.jpg
633.073	1.683	0	regulate	Run1	regulate/STIM_029.jpg
638.655	3.242	0	regulate	Run1	regulate/STIM_029.jpg
644.409	2.428	1	regulate	Run1	regulate/STIM_029.jpg
650.117	1.988	0	regulate	Run1	regulate/STIM_029.jpg
654.546	1.126	1	observe	Run1	observe/STIM_000.jpg
659.442	1.181	1	observe	Run1	observe/STIM_000.jpg
663.077	1.187	1	observe	Run1	observe/STIM_000.jpg
667.021	1.455	0	observe	Run1	observe/STIM_000.jpg
671.477	1.003	1	observe	Run1	observe/STIM_001.jpg
676.004	1.522	1	observe	Run1	observe/STIM_001.jpg
679.628	0.981	1	observe	Run1	observe/STIM_001.jpg
683.236	1.123	1	observe	Run1	observe/STIM_001.jpg
687.705	1.249	1	observe	Run1	observe/STIM_002.jpg
691.444	1.304	1	observe	Run1	observe/STIM_002.jpg
696.138	0.92	0	observe	Run1	observe/STIM_002.jpg
700.344	1.549	1	observe	Run1	observe/STIM_002.jpg
704.833	1.477	1	observe	Run1	observe/STIM_003.jpg
708.732	1.128	1	observe	Run1	observe/STIM_003.jpg
713.436	1.376	1	observe	Run1	observe/STIM_003.jpg
718.485	1.355	1	observe	Run1	observe/STIM_003.jpg
723.143	0.93	1	observe	Run1	observe/STIM_004.jpg
726.858	1.121	1	observe	Run1	observe/STIM_004.jpg
731.885	1.199	1	observe	Run1	observe/STIM_004.jpg
736.584	1.53	1	observe	Run1	observe/STIM_004.jpg
740.174	0.981	1	observe	Run1	observe/STIM_005.jpg
744.703	0.87	1	observe	Run1	observe/STIM_005.jpg
748.908	1.171	1	observe	Run1	observe/STIM_005.jpg
754.063	1.519	1	observe	Run1	observe/STIM_005.jpg
759.085	1.094	1	observe	Run1	observe/STIM_006.jpg
762.629	1.396	1	observe	Run1	observe/STIM_006.jpg
767.123	1.384	0	observe	Run1	observe/STIM_006.jpg
771.492	0.868	0	observe	Run1	observe/STIM_006.jpg
775.22	1.183	0	observe	Run1	observe/STIM_007.jpg
779.673	0.978	1	observe	Run1	observe/STIM_007.jpg
784.068	1.53	1	observe	Run1	observe/STIM_007.jpg
788.526	0.919	1	observe	Run1	observe/STIM_007.jpg
792.354	1.562	1	observe	Run1	observe/STIM_008.jpg
796.962	1.522	1	observe	Run1	observe/STIM_008.jpg
801.152	1.495	1	observe	Run1	observe/STIM_008.jpg
805.385	0.895	1	observe	Run1	observe/STIM_008.jpg
808.702	1.049	0	observe	Run1	observe/STIM_009.jpg
812.249	0.876	1	observe	Run1	observe/STIM_009.jpg
816.862	1.49	1	observe	Run1	observe/STIM_009.jpg
821.872	0.809	1	observe	Run1	observe/STIM_009.jpg
825.919	1.564	1	observe	Run1	observe/STIM_010.jpg
830.077	0.801	0	observe	Run1	observe/STIM_010.jpg
833.337	1.082	1	observe	Run1	observe/STIM_010.jpg
836.599	0.797	1	observe	Run1	observe/STIM_010.jpg
840.775	1.308	1	observe	Run1	observe/STIM_011.jpg
844.937	1.378	1	observe	Run1	observe/STIM_011.jpg
849.958	1.039	1	observe	Run1	observe/STIM_011.jpg
853.708	1.065	1	observe	Run1	observe/STIM_011.jpg
857.063	1.452	1	observe	Run1	observe/STIM_012.jpg
860.881	1.569	1	observe	Run1	observe/STIM_012.jpg
864.983	0.966	1	observe	Run1	observe/STIM_012.jpg
869.86	0.82	0	observe	Run1	observe/STIM_012.jpg
873.067	0.865	1	observe	Run1	observe/STIM_013.jpg
877.17	0.922	1	observe	Run1	observe/STIM_013.jpg
880.521	1.248	1	observe	Run1	observe/STIM_013.jpg
884.774	1.251	1	observe	Run1	observe/STIM_013.jpg
888.817	0.965	1	observe	Run1	observe/STIM_014.jpg
893.035	1.431	1	observe	Run1	observe/STIM_014.jpg
898.453	0.981	1	observe	Run1	observe/STIM_014.jpg
902.787	0.901	0	observe	Run1	observe/STIM_014.jpg
907.334	1.56	1	observe	Run1	observe/STIM_015.jpg
911.278	1.534	1	observe	Run1	observe/STIM_015.jpg
915.748	1.256	1	observe	Run1	observe/STIM_015.jpg
920.052	0.978	0	observe	Run1	observe/STIM_015.jpg
924.767	1.25	1	observe	Run1	observe/STIM_016.jpg
928.356	0.806	0	observe	Run1	observe/STIM_016.jpg
932.926	0.956	1	observe	Run1	observe/STIM_016.jpg
936.449	1.437	1	observe	Run1	observe/STIM_016.jpg
940.023	1.435	1	observe	Run1	observe/STIM_017.jpg
944.198	1.386	1	observe	Run1	observe/STIM_017.jpg
948.431	1.286	1	observe	Run1	observe/STIM_017.jpg
951.873	1.086	0	observe	Run1	observe/STIM_017.jpg
955.515	1.364	1	observe	Run1	observe/STIM_018.jpg
960.673	1.008	1	observe	Run1	observe/STIM_018.jpg
965.203	0.848	1	observe	Run1	observe/STIM_018.jpg
968.063	0.889	0	observe	Run1	observe/STIM_018.jpg
972.624	0.856	1	observe	Run1	observe/STIM_019.jpg
976.94	1.356	0	observe	Run1	observe/STIM_019.jpg
981.996	1.487	1	observe	Run1	observe/STIM_019.jpg
987.241	1.52	0	observe	Run1	observe/STIM_019.jpg
991.967	2.764	0	regulate	Run2	regulate/STIM_000.jpg
997.967	1.803	1	regulate	Run2	regulate/STIM_000.jpg
1002.454	1.188	1	regulate	Run2	regulate/STIM_000.jpg
1007.006	1.942	1	regulate	Run2	regulate/STIM_000.jpg
1012.837	1.608	1	regulate	Run2	regulate/STIM_001.jpg
1017.761	1.612	0	regulate	Run2	regulate/STIM_001.jpg
1022.589	2.05	0	regulate	Run2	regulate/STIM_001.jpg
1028.332	1.45	1	regulate	Run2	regulate/STIM_001.jpg
1033.39	2.813	1	regulate	Run2	regulate/STIM_002.jpg
1040.187	2.248	1	regulate	Run2	regulate/STIM_002.jpg
1046.318	2.294	1	regulate	Run2	regulate/STIM_002.jpg
1052.278	2.115	1	regulate	Run2	regulate/STIM_002.jpg
1057.046	1.973	1	regulate	Run2	regulate/STIM_003.jpg
1061.679	2.423	1	regulate	Run2	regulate/STIM_003.jpg
1066.963	1.609	1	regulate	Run2	regulate/STIM_003.jpg
1071.151	2.19	1	regulate	Run2	regulate/STIM_003.jpg
1076.386	1.785	1	regulate	Run2	regulate/STIM_004.jpg
1080.542	1.848	1	regulate	Run2	regulate/STIM_004.jpg
1084.677	1.513	1	regulate	Run2	regulate/STIM_004.jpg
1089.438	2.141	1	regulate	Run2	regulate/STIM_004.jpg
1094.272	2.899	0	regulate	Run2	regulate/STIM_005.jpg
1100.358	1.776	1	regulate	Run2	regulate/STIM_005.jpg
1105.674	1.541	1	regulate	Run2	regulate/STIM_005.jpg
1110.989	2.195	1	regulate	Run2	regulate/STIM_005.jpg
1116.152	1.278	1	regulate	Run2	regulate/STIM_006.jpg
1120.356	1.552	1	regulate	Run2	regulate/STIM_006.jpg
1125.478	2.113	1	regulate	Run2	regulate/STIM_006.jpg
1130.688	1.341	0	regulate	Run2	regulate/STIM_006.jpg
1134.461	1.884	1	regulate	Run2	regulate/STIM_007.jpg
1138.911	2.136	1	regulate	Run2	regulate/STIM_007.jpg
1144.03	1.66	1	regulate	Run2	regulate/STIM_007.jpg
1149.297	1.257	1	regulate	Run2	regulate/STIM_007.jpg
1152.773	1.931	1	regulate	Run2	regulate/STIM_008.jpg
1157.186	1.327	1	regulate	Run2	regulate/STIM_008.jpg
1161.957	2.308	1	regulate	Run2	regulate/STIM_008.jpg
1167.057	1.378	1	regulate	Run2	regulate/STIM_008.jpg
1171.68	2.136	1	regulate	Run2	regulate/STIM_009.jpg
1176.132	1.599	1	regulate	Run2	regulate/STIM_009.jpg
1180.753	1.901	1	regulate	Run2	regulate/STIM_009.jpg
1186.54	1.25	1	regulate	Run2	regulate/STIM_009.jpg
1190.557	1.986	1	regulate	Run2	regulate/STIM_010.jpg
1195.345	2.116	1	regulate	Run2	regulate/STIM_010.jpg
1200.621	1.715	1	regulate	Run2	regulate/STIM_010.jpg
1204.402	1.598	1	regulate	Run2	regulate/STIM_010.jpg
1208.871	2.336	1	regulate	Run2	regulate/STIM_011.jpg
1214.392	2.247	1	regulate	Run2	regulate/STIM_011.jpg
1219.584	2.385	0	regulate	Run2	regulate/STIM_011.jpg
1224.166	1.641	1	regulate	Run2	regulate/STIM_011.jpg
1228.802	2.882	1	regulate	Run2	regulate/STIM_012.jpg
1235.367	2.219	0	regulate	Run2	regulate/STIM_012.jpg
1239.692	1.194	1	regulate	Run2	regulate/STIM_012.jpg
1243.481	2.035	1	regulate	Run2	regulate/STIM_012.jpg
1249.145	2.227	0	regulate	Run2	regulate/STIM_013.jpg
1253.704	1.581	1	regulate	Run2	regulate/STIM_013.jpg
1258.995	1.325	0	regulate	Run2	regulate/STIM_013.jpg
1263.506	2.099	1	regulate	Run2	regulate/STIM_013.jpg
1269.28	2.48	1	regulate	Run2	regulate/STIM_014.jpg
1275.065	1.968	1	regulate	Run2	regulate/STIM_014.jpg
1280.641	1.996	1	regulate	Run2	regulate/STIM_014.jpg
1286.256	1.309	1	regulate	Run2	regulate/STIM_014.jpg
1290.584	2.189	1	regulate	Run2	regulate/STIM_015.jpg
1295.904	2.263	0	regulate	Run2	regulate/STIM_015.jpg
1300.577	1.97	1	regulate	Run2	regulate/STIM_015.jpg
1304.88	2.371	1	regulate	Run2	regulate/STIM_015.jpg
1310.888	2.789	1	regulate	Run2	regulate/STIM_016.jpg
1317.608	1.589	1	regulate	Run2	regulate/STIM_016.jpg
1322.918	1.693	1	regulate	Run2	regulate/STIM_016.jpg
1327.934	2.007	1	regulate	Run2	regulate/STIM_016.jpg
1332.523	2.1	1	regulate	Run2	regulate/STIM_017.jpg
1337.962	1.538	1	regulate	Run2	regulate/STIM_017.jpg
1343.444	2.104	0	regulate	Run2	regulate/STIM_017.jpg
1348.945	1.537	1	regulate	Run2	regulate/STIM_017.jpg
1353.951	1.379	1	regulate	Run2	regulate/STIM_018.jpg
1358.033	1.736	1	regulate	Run2	regulate/STIM_018.jpg
1363.482	1.852	1	regulate	Run2	regulate/STIM_018.jpg
1367.339	1.324	1	regulate	Run2	regulate/STIM_018.jpg
1370.799	2.938	1	regulate	Run2	regulate/STIM_019.jpg
1376.859	2.711	1	regulate	Run2	regulate/STIM_019.jpg
1381.914	1.212	0	regulate	Run2	regulate/STIM_019.jpg
1385.972	1.5	1	regulate	Run2	regulate/STIM_019.jpg
1390.641	2.313	0	regulate	Run2	regulate/STIM_020.jpg
1396.003	1.767	0	regulate	Run2	regulate/STIM_020.jpg
1401.218	2.113	1	regulate	Run2	regulate/STIM_020.jpg
1406.537	1.605	1	regulate	Run2	regulate/STIM_020.jpg
1410.267	2.868	0	regulate	Run2	regulate/STIM_021.jpg
1416.737	1.906	1	regulate	Run2	regulate/STIM_021.jpg
1420.672	2.311	1	regulate	Run2	regulate/STIM_021.jpg
1425.649	2.392	1	regulate	Run2	regulate/STIM_021.jpg
1430.681	2.648	1	regulate	Run2	regulate/STIM_022.jpg
1436.211	1.539	1	regulate	Run2	regulate/STIM_022.jpg
1440.669	1.432	1	regulate	Run2	regulate/STIM_022.jpg
1445.734	1.522	1	regulate	Run2	regulate/STIM_022.jpg
1449.663	2.763	1	regulate	Run2	regulate/STIM_023.jpg
1455.87	2.735	1	regulate	Run2	regulate/STIM_023.jpg
1460.673	2.527	0	regulate	Run2	regulate/STIM_023.jpg
1466.201	1.756	1	regulate	Run2	regulate/STIM_023.jpg
1470.296	1.316	1	regulate	Run2	regulate/STIM_024.jpg
1474.299	2.361	0	regulate	Run2	regulate/STIM_024.jpg
1479.973	1.776	1	regulate	Run2	regulate/STIM_024.jpg
1485.347	1.055	0	regulate	Run2	regulate/STIM_024.jpg
1489.914	2.823	1	regulate	Run2	regulate/STIM_025.jpg
1496.603	2.428	1	regulate	Run2	regulate/STIM_025.jpg
1502.73	2.052	1	regulate	Run2	regulate/STIM_025.jpg
1507.9	1.208	1	regulate	Run2	regulate/STIM_025.jpg
1512.142	2.659	1	regulate	Run2	regulate/STIM_026.jpg
1517.403	1.99	1	regulate	Run2	regulate/STIM_026.jpg
1521.885	2.276	1	regulate	Run2	regulate/STIM_026.jpg
1527.013	1.893	1	regulate	Run2	regulate/STIM_026.jpg
1531.402	2.946	1	regulate	Run2	regulate/STIM_027.jpg
1536.606	1.298	0	regulate	Run2	regulate/STIM_027.jpg
1541.873	1.689	1	regulate	Run2	regulate/STIM_027.jpg
1547.074	2.064	0	regulate	Run2	regulate/STIM_027.jpg
1551.143	2.534	1	regulate	Run2	regulate/STIM_028.jpg
1557.287	2.019	1	regulate	Run2	regulate/STIM_028.jpg
1561.76	1.528	1	regulate	Run2	regulate/STIM_028.jpg
1566.5	2.07	1	regulate	Run2	regulate/STIM_028.jpg
1570.812	2.876	1	regulate	Run2	regulate/STIM_029.jpg
1577.147	1.904	1	regulate	Run2	regulate/STIM_029.jpg
1581.138	2.458	0	regulate	Run2	regulate/STIM_029.jpg
1585.651	2.13	1	regulate	Run2	regulate/STIM_029.jpg
1590.894	1.126	1	observe	Run2	observe/STIM_000.jpg
1595.719	1.272	1	observe	Run2	observe/STIM_000.jpg
1600.101	1.071	1	observe	Run2	observe/STIM_000.jpg
1604.174	1.47	1	observe	Run2	observe/STIM_000.jpg
1608.574	0.866	0	observe	Run2	observe/STIM_001.jpg
1611.637	1.564	1	observe	Run2	observe/STIM_001.jpg
1616.893	1.055	1	observe	Run2	observe/STIM_001.jpg
1621.61	1.142	1	observe	Run2	observe/STIM_001.jpg
1626.326	1.423	1	observe	Run2	observe/STIM_002.jpg
1631.152	1.058	1	observe	Run2	observe/STIM_002.jpg
1635.09	1.567	1	observe	Run2	observe/STIM_002.jpg
1639.518	0.983	1	observe	Run2	observe/STIM_002.jpg
1644.39	1.443	0	observe	Run2	observe/STIM_003.jpg
1649.261	1.388	1	observe	Run2	observe/STIM_003.jpg
1653.606	0.932	0	observe	Run2	observe/STIM_003.jpg
1658.193	1.203	1	observe	Run2	observe/STIM_003.jpg
1662.979	0.838	1	observe	Run2	observe/STIM_004.jpg
1667.058	1.44	1	observe	Run2	observe/STIM_004.jpg
1670.685	1.12	0	observe	Run2	observe/STIM_004.jpg
1675.13	1.231	1	observe	Run2	observe/STIM_004.jpg
1679.273	1.398	1	observe	Run2	observe/STIM_005.jpg
1683.019	1.073	1	observe	Run2	observe/STIM_005.jpg
1687.958	1.04	1	observe	Run2	observe/STIM_005.jpg
1692.012	1.255	1	observe	Run2	observe/STIM_005.jpg
1696.938	1.403	1	observe	Run2	observe/STIM_006.jpg
1701.565	1.522	1	observe	Run2	observe/STIM_006.jpg
1706.92	1.586	1	observe	Run2	observe/STIM_006.jpg
1712.348	0.968	0	observe	Run2	observe/STIM_006.jpg
1716.476	1.236	1	observe	Run2	observe/STIM_007.jpg
1720.734	1.394	1	observe	Run2	observe/STIM_007.jpg
1725.414	0.942	1	observe	Run2	observe/STIM_007.jpg
1729.389	1.223	1	observe	Run2	observe/STIM_007.jpg
1733.54	1.18	1	observe	Run2	observe/STIM_008.jpg
1738.301	1.487	1	observe	Run2	observe/STIM_008.jpg
1742.306	1.094	1	observe	Run2	observe/STIM_008.jpg
1746.893	1.459	1	observe	Run2	observe/STIM_008.jpg
1751.872	1.27	1	observe	Run2	observe/STIM_009.jpg
1757.034	1.19	1	observe	Run2	observe/STIM_009.jpg
1760.647	1.543	1	observe	Run2	observe/STIM_009.jpg
1765.349	1.169	1	observe	Run2	observe/STIM_009.jpg
1770.056	1.345	1	observe	Run2	observe/STIM_010.jpg
1774.546	1.458	1	observe	Run2	observe/STIM_010.jpg
1779.886	1.483	1	observe	Run2	observe/STIM_010.jpg
1784.866	0.805	0	observe	Run2	observe/STIM_010.jpg
1788.657	1.197	1	observe	Run2	observe/STIM_011.jpg
1792.258	1.052	1	observe	Run2	observe/STIM_011.jpg
1795.663	1.017	1	observe	Run2	observe/STIM_011.jpg
1799.82	1.136	0	observe	Run2	observe/STIM_011.jpg
1804.312	0.837	1	observe	Run2	observe/STIM_012.jpg
1807.563	1.425	0	observe	Run2	observe/STIM_012.jpg
1811.515	1.194	1	observe	Run2	observe/STIM_012.jpg
1816.643	1.339	0	observe	Run2	observe/STIM_012.jpg
1820.875	0.841	1	observe	Run2	observe/STIM_013.jpg
1825.538	1.427	1	observe	Run2	observe/STIM_013.jpg
1829.864	1.432	1	observe	Run2	observe/STIM_013.jpg
1833.628	0.966	1	observe	Run2	observe/STIM_013.jpg
1837.844	1.172	1	observe	Run2	observe/STIM_014.jpg
1841.422	0.905	1	observe	Run2	observe/STIM_014.jpg
1845.818	1.459	1	observe	Run2	observe/STIM_014.jpg
1849.767	1.548	1	observe	Run2	observe/STIM_014.jpg
1855.288	0.901	1	observe	Run2	observe/STIM_015.jpg
1859.161	1.308	1	observe	Run2	observe/STIM_015.jpg
1863.636	0.881	1	observe	Run2	observe/STIM_015.jpg
1866.674	1.068	1	observe	Run2	observe/STIM_015.jpg
1871.736	0.956	0	observe	Run2	observe/STIM_016.jpg
1875.718	1.284	1	observe	Run2	observe/STIM_016.jpg
1880.628	1.211	0	observe	Run2	observe/STIM_016.jpg
1883.864	1.344	1	observe	Run2	observe/STIM_016.jpg
1887.588	1.138	1	observe	Run2	observe/STIM_017.jpg
1891.267	1.146	1	observe	Run2	observe/STIM_017.jpg
1896.164	1.553	1	observe	Run2	observe/STIM_017.jpg
1901.349	0.924	1	observe	Run2	observe/STIM_017.jpg
1905.824	1.339	0	observe	Run2	observe/STIM_018.jpg
1909.461	1.006	1	observe	Run2	observe/STIM_018.jpg
1912.67	0.912	1	observe	Run2	observe/STIM_018.jpg
1915.692	0.862	1	observe	Run2	observe/STIM_018.jpg
1919.532	1.062	1	observe	Run2	observe/STIM_019.jpg
1924.062	1.296	1	observe	Run2	observe/STIM_019.jpg
1927.714	1.515	0	observe	Run2	observe/STIM_019.jpg
1933.034	1.125	1	observe	Run2	observe/STIM_019.jpg
1936.447	2.187	1	regulate	Run3	regulate/STIM_000.jpg
1940.855	1.95	1	regulate	Run3	regulate/STIM_000.jpg
1946.71	1.949	1	regulate	Run3	regulate/STIM_000.jpg
1951.766	1.962	1	regulate	Run3	regulate/STIM_000.jpg
1956.787	2.076	1	regulate	Run3	regulate/STIM_001.jpg
1961.482	1.557	1	regulate	Run3	regulate/STIM_001.jpg
1965.751	1.115	1	regulate	Run3	regulate/STIM_001.jpg
1969.19	1.187	1	regulate	Run3	regulate/STIM_001.jpg
1973.894	1.366	1	regulate	Run3	regulate/STIM_002.jpg
1977.851	2.074	1	regulate	Run3	regulate/STIM_002.jpg
1981.926	2.386	1	regulate	Run3	regulate/STIM_002.jpg
1987.323	2.397	1	regulate	Run3	regulate/STIM_002.jpg
1993.465	1.4	1	regulate	Run3	regulate/STIM_003.jpg
1998.126	1.359	1	regulate	Run3	regulate/STIM_003.jpg
2002.986	1.832	1	regulate	Run3	regulate/STIM_003.jpg
2008.474	1.404	1	regulate	Run3	regulate/STIM_003.jpg
2011.935	1.563	1	regulate	Run3	regulate/STIM_004.jpg
2017.132	1.328	0	regulate	Run3	regulate/STIM_004.jpg
2020.892	1.663	1	regulate	Run3	regulate/STIM_004.jpg
2024.857	1.471	1	regulate	Run3	regulate/STIM_004.jpg
2030.223	1.664	1	regulate	Run3	regulate/STIM_005.jpg
2035.842	1.779	1	regulate	Run3	regulate/STIM_005.jpg
2040.434	2.196	1	regulate	Run3	regulate/STIM_005.jpg
2044.855	1.593	1	regulate	Run3	regulate/STIM_005.jpg
2049.592	1.277	1	regulate	Run3	regulate/STIM_006.jpg
2053.552	1.32	1	regulate	Run3	regulate/STIM_006.jpg
2057.835	2.081	1	regulate	Run3	regulate/STIM_006.jpg
2062.917	1.827	1	regulate	Run3	regulate/STIM_006.jpg
2066.855	1.748	0	regulate	Run3	regulate/STIM_007.jpg
2071.811	1.898	1	regulate	Run3	regulate/STIM_007.jpg
2076.224	2.097	1	regulate	Run3	regulate/STIM_007.jpg
2080.73	1.613	1	regulate	Run3	regulate/STIM_007.jpg
2085.348	1.728	1	regulate	Run3	regulate/STIM_008.jpg
2089.245	1.053	1	regulate	Run3	regulate/STIM_008.jpg
2092.659	1.891	1	regulate	Run3	regulate/STIM_008.jpg
2098.501	1.754	1	regulate	Run3	regulate/STIM_008.jpg
2103.154	1.296	1	regulate	Run3	regulate/STIM_009.jpg
2108.216	1.249	0	regulate	Run3	regulate/STIM_009.jpg
2111.745	2.21	1	regulate	Run3	regulate/STIM_009.jpg
2116.768	1.185	1	regulate	Run3	regulate/STIM_009.jpg
2121.949	2.392	1	regulate	Run3	regulate/STIM_010.jpg
2126.351	1.083	0	regulate	Run3	regulate/STIM_010.jpg
2130.955	1.128	0	regulate	Run3	regulate/STIM_010.jpg
2135.508	2.291	1	regulate	Run3	regulate/STIM_010.jpg
2140.22	1.179	1	regulate	Run3	regulate/STIM_011.jpg
2143.918	2.013	1	regulate	Run3	regulate/STIM_011.jpg
2148.256	1.858	1	regulate	Run3	regulate/STIM_011.jpg
2152.916	2.321	1	regulate	Run3	regulate/STIM_011.jpg
2158.884	1.056	0	regulate	Run3	regulate/STIM_012.jpg
2163.416	1.043	1	regulate	Run3	regulate/STIM_012.jpg
2166.689	1.05	1	regulate	Run3	regulate/STIM_012.jpg
2170.388	2.053	1	regulate	Run3	regulate/STIM_012.jpg
2176.251	1.172	1	regulate	Run3	regulate/STIM_013.jpg
2180.39	1.65	0	regulate	Run3	regulate/STIM_013.jpg
2184.475	2.413	1	regulate	Run3	regulate/STIM_013.jpg
2189.194	2.195	0	regulate	Run3	regulate/STIM_013.jpg
2193.515	1.447	0	regulate	Run3	regulate/STIM_014.jpg
2197.562	1.494	1	regulate	Run3	regulate/STIM_014.jpg
2201.887	2.072	1	regulate	Run3	regulate/STIM_014.jpg
2206.741	2.263	1	regulate	Run3	regulate/STIM_014.jpg
2211.39	2.269	1	regulate	Run3	regulate/STIM_015.jpg
2215.747	1.788	1	regulate	Run3	regulate/STIM_015.jpg
2219.592	2.124	1	regulate	Run3	regulate/STIM_015.jpg
2225.394	1.498	0	regulate	Run3	regulate/STIM_015.jpg
2229.94	1.521	1	regulate	Run3	regulate/STIM_016.jpg
2234.413	2.295	1	regulate	Run3	regulate/STIM_016.jpg
2240.374	2.181	1	regulate	Run3	regulate/STIM_016.jpg
2244.856	2.383	0	regulate	Run3	regulate/STIM_016.jpg
2250.402	1.555	1	regulate	Run3	regulate/STIM_017.jpg
2255.877	2.088	1	regulate	Run3	regulate/STIM_017.jpg
2261.915	2.268	1	regulate	Run3	regulate/STIM_017.jpg
2268.156	1.15	1	regulate	Run3	regulate/STIM_017.jpg
2272.518	1.867	0	regulate	Run3	regulate/STIM_018.jpg
2277.362	1.454	1	regulate	Run3	regulate/STIM_018.jpg
2281.021	2.102	1	regulate	Run3	regulate/STIM_018.jpg
2285.347	2.132	1	regulate	Run3	regulate/STIM_018.jpg
2290.766	1.865	1	regulate	Run3	regulate/STIM_019.jpg
2294.691	1.676	1	regulate	Run3	regulate/STIM_019.jpg
2298.636	1.207	0	regulate	Run3	regulate/STIM_019.jpg
2302.618	1.523	1	regulate	Run3	regulate/STIM_019.jpg
2307.899	1.159	1	regulate	Run3	regulate/STIM_020.jpg
2311.634	1.795	1	regulate	Run3	regulate/STIM_020.jpg
2316.245	2.215	1	regulate	Run3	regulate/STIM_020.jpg
2322.249	1.544	1	regulate	Run3	regulate/STIM_020.jpg
2325.823	1.183	1	regulate	Run3	regulate/STIM_021.jpg
2329.655	1.771	1	regulate	Run3	regulate/STIM_021.jpg
2335.186	2.047	0	regulate	Run3	regulate/STIM_021.jpg
2341.147	1.596	1	regulate	Run3	regulate/STIM_021.jpg
2344.978	1.091	1	regulate	Run3	regulate/STIM_022.jpg
2348.224	2.194	0	regulate	Run3	regulate/STIM_022.jpg
2354.066	2.356	1	regulate	Run3	regulate/STIM_022.jpg
2360.001	1.542	1	regulate	Run3	regulate/STIM_022.jpg
2365.025	2.416	1	regulate	Run3	regulate/STIM_023.jpg
2370.738	1.612	1	regulate	Run3	regulate/STIM_023.jpg
2375.974	1.153	1	regulate	Run3	regulate/STIM_023.jpg
2379.221	1.302	1	regulate	Run3	regulate/STIM_023.jpg
2384.252	1.421	0	regulate	Run3	regulate/STIM_024.jpg
2389.161	1.913	1	regulate	Run3	regulate/STIM_024.jpg
2395.02	1.807	1	regulate	Run3	regulate/STIM_024.jpg
2400.211	2.073	1	regulate	Run3	regulate/STIM_024.jpg
2405.542	2.348	0	regulate	Run3	regulate/STIM_025.jpg
2411.609	1.123	1	regulate	Run3	regulate/STIM_025.jpg
2415.879	1.96	1	regulate	Run3	regulate/STIM_025.jpg
2420.954	2.307	1	regulate	Run3	regulate/STIM_025.jpg
2426.251	1.176	1	regulate	Run3	regulate/STIM_026.jpg
2430.176	1.692	1	regulate	Run3	regulate/STIM_026.jpg
2434.536	1.699	1	regulate	Run3	regulate/STIM_026.jpg
2439.86	2.23	1	regulate	Run3	regulate/STIM_026.jpg
2445.773	1.852	0	regulate	Run3	regulate/STIM_027.jpg
2450.204	1.202	1	regulate	Run3	regulate/STIM_027.jpg
2455.106	1.104	1	regulate	Run3	regulate/STIM_027.jpg
2459.355	2.219	1	regulate	Run3	regulate/STIM_027.jpg
2463.679	2.052	0	regulate	Run3	regulate/STIM_028.jpg
2469.685	2.319	1	regulate	Run3	regulate/STIM_028.jpg
2475.731	2.07	1	regulate	Run3	regulate/STIM_028.jpg
2480.594	1.151	0	regulate	Run3	regulate/STIM_028.jpg
2484.196	2.301	1	regulate	Run3	regulate/STIM_029.jpg
2489.877	1.382	1	regulate	Run3	regulate/STIM_029.jpg
2494.918	1.727	1	regulate	Run3	regulate/STIM_029.jpg
2499.878	2.387	1	regulate	Run3	regulate/STIM_029.jpg
2504.367	0.871	1	observe	Run3	observe/STIM_000.jpg
2507.736	1.131	0	observe	Run3	observe/STIM_000.jpg
2511.78	1.386	1	observe	Run3	observe/STIM_000.jpg
2515.304	0.912	1	observe	Run3	observe/STIM_000.jpg
2519.754	1.357	1	observe	Run3	observe/STIM_001.jpg
2523.64	1.401	1	observe	Run3	observe/STIM_001.jpg
2528.24	1.371	1	observe	Run3	observe/STIM_001.jpg
2532.39	1.095	0	observe	Run3	observe/STIM_001.jpg
2535.973	0.928	0	observe	Run3	observe/STIM_002.jpg
2539.676	1.051	1	observe	Run3	observe/STIM_002.jpg
2544.174	1.586	0	observe	Run3	observe/STIM_002.jpg
2547.869	0.985	1	observe	Run3	observe/STIM_002.jpg
2552.281	0.889	0	observe	Run3	observe/STIM_003.jpg
2556.208	1.522	1	observe	Run3	observe/STIM_003.jpg
2561.706	1.276	1	observe	Run3	observe/STIM_003.jpg
2565.667	1.101	1	observe	Run3	observe/STIM_003.jpg
2569.329	1.153	1	observe	Run3	observe/STIM_004.jpg
2573.763	0.853	0	observe	Run3	observe/STIM_004.jpg
2577.287	1.206	1	observe	Run3	observe/STIM_004.jpg
2581.253	1.365	1	observe	Run3	observe/STIM_004.jpg
2585.992	1.451	1	observe	Run3	observe/STIM_005.jpg
2589.815	0.874	1	observe	Run3	observe/STIM_005.jpg
2594.04	1.128	1	observe	Run3	observe/STIM_005.jpg
2598.566	1.298	1	observe	Run3	observe/STIM_005.jpg
2603.571	1.099	1	observe	Run3	observe/STIM_006.jpg
2608.528	0.992	1	observe	Run3	observe/STIM_006.jpg
2611.909	0.996	1	observe	Run3	observe/STIM_006.jpg
2615.13	0.855	0	observe	Run3	observe/STIM_006.jpg
2619.64	1.574	0	observe	Run3	observe/STIM_007.jpg
2623.987	1.331	1	observe	Run3	observe/STIM_007.jpg
2628.149	1.307	1	observe	Run3	observe/STIM_007.jpg
2632.116	1.486	1	observe	Run3	observe/STIM_007.jpg
2636.833	0.959	1	observe	Run3	observe/STIM_008.jpg
2641.687	1.421	1	observe	Run3	observe/STIM_008.jpg
2646.432	1.133	1	observe	Run3	observe/STIM_008.jpg
2650.375	1.153	1	observe	Run3	observe/STIM_008.jpg
2655.428	0.972	1	observe	Run3	observe/STIM_009.jpg
2659.415	1.326	1	observe	Run3	observe/STIM_009.jpg
2664.113	1.136	1	observe	Run3	observe/STIM_009.jpg
2668.446	1.281	1	observe	Run3	observe/STIM_009.jpg
2672.563	1.305	1	observe	Run3	observe/STIM_010.jpg
2677.253	1.021	1	observe	Run3	observe/STIM_010.jpg
2680.654	1.217	1	observe	Run3	observe/STIM_010.jpg
2684.174	0.995	1	observe	Run3	observe/STIM_010.jpg
2689.053	1.351	1	observe	Run3	observe/STIM_011.jpg
2693.741	1.08	0	observe	Run3	observe/STIM_011.jpg
2697.791	0.935	1	observe	Run3	observe/STIM_011.jpg
2701.977	0.838	0	observe	Run3	observe/STIM_011.jpg
2706.74	1.337	1	observe	Run3	observe/STIM_012.jpg
2711.072	0.946	1	observe	Run3	observe/STIM_012.jpg
2714.223	1.215	1	observe	Run3	observe/STIM_012.jpg
2717.552	1.555	1	observe	Run3	observe/STIM_012.jpg
2722.528	0.862	1	observe	Run3	observe/STIM_013.jpg
2726.041	0.872	1	observe	Run3	observe/STIM_013.jpg
2730.095	1.108	1	observe	Run3	observe/STIM_013.jpg
2734.701	1.539	1	observe	Run3	observe/STIM_013.jpg
2739.471	1.537	1	observe	Run3	observe/STIM_014.jpg
2744.023	1.322	0	observe	Run3	observe/STIM_014.jpg
2748.732	1.029	1	observe	Run3	observe/STIM_014.jpg
2752.145	0.997	0	observe	Run3	observe/STIM_014.jpg
2755.608	1.559	1	observe	Run3	observe/STIM_015.jpg
2759.874	1.576	1	observe	Run3	observe/STIM_015.jpg
2764.397	1.465	1	observe	Run3	observe/STIM_015.jpg
2767.867	1.106	1	observe	Run3	observe/STIM_015.jpg
2771.304	1.154	1	observe	Run3	observe/STIM_016.jpg
2775.137	1.33	0	observe	Run3	observe/STIM_016.jpg
2779.262	1.181	1	observe	Run3	observe/STIM_016.jpg
2783.93	1.185	1	observe	Run3	observe/STIM_016.jpg
2787.936	1.089	1	observe	Run3	observe/STIM_017.jpg
2791.107	0.932	0	observe	Run3	observe/STIM_017.jpg
2795.067	0.851	0	observe	Run3	observe/STIM_017.jpg
2799.708	0.813	0	observe	Run3	observe/STIM_017.jpg
2803.148	1.562	1	observe	Run3	observe/STIM_018.jpg
2806.872	1.115	1	observe	Run3	observe/STIM_018.jpg
2810.52	0.969	0	observe	Run3	observe/STIM_018.jpg
2814.953	1.489	0	observe	Run3	observe/STIM_018.jpg
2818.813	1.508	0	observe	Run3	observe/STIM_019.jpg
2822.428	1.52	0	observe	Run3	observe/STIM_019.jpg
2826.754	0.928	1	observe	Run3	observe/STIM_019.jpg
2830.228	0.884	0	observe	Run3	observe/STIM_019.jpg
