onset	duration	response_time_ms	trial_type	learning_stage	stimulus	response_port
0.0	1.047	1046.9	incongruent	Block1	incongruent/STIM_000.jpg	99
4.739	1.016	1015.6	incongruent	Block1	incongruent/STIM_000.jpg	100
7.955	0.918	918.2	incongruent	Block1	incongruent/STIM_000.jpg	100
11.945	0.615	615.4	incongruent	Block1	incongruent/STIM_000.jpg	99
14.871	0.742	742.3	incongruent	Block1	incongruent/STIM_000.jpg	99
18.988	0.714	714.2	incongruent	Block1	incongruent/STIM_001.jpg	99
22.676	0.664	663.8	incongruent	Block1	incongruent/STIM_001.jpg	100
26.548	0.622	622.0	incongruent	Block1	incongruent/STIM_001.jpg	99
30.02	1.016	1015.8	incongruent	Block1	incongruent/STIM_001.jpg	99
35.053	0.982	982.1	incongruent	Block1	incongruent/STIM_001.jpg	100
38.898	1.114	1114.0	incongruent	Block1	incongruent/STIM_002.jpg	100
43.761	0.959	959.4	incongruent	Block1	incongruent/STIM_002.jpg	99
48.299	0.7	700.1	incongruent	Block1	incongruent/STIM_002.jpg	99
53.071	0.951	951.0	incongruent	Block1	incongruent/STIM_002.jpg	99
57.05	1.039	1038.9	incongruent	Block1	incongruent/STIM_002.jpg	100
61.024	0.637	637.3	incongruent	Block1	incongruent/STIM_003.jpg	99
64.154	0.823	823.2	incongruent	Block1	incongruent/STIM_003.jpg	100
67.115	0.631	631.0	incongruent	Block1	incongruent/STIM_003.jpg	99
71.728	0.869	869.2	incongruent	Block1	incongruent/STIM_003.jpg	100
75.035	0.948	947.9	incongruent	Block1	incongruent/STIM_003.jpg	99
78.71	1.126	1126.0	incongruent	Block1	incongruent/STIM_004.jpg	100
82.362	1.235	1234.8	incongruent	Block1	incongruent/STIM_004.jpg	100
86.705	0.622	622.3	incongruent	Block1	incongruent/STIM_004.jpg	99
89.881	0.539	539.3	incongruent	Block1	incongruent/STIM_004.jpg	99
93.259	1.044	1043.7	incongruent	Block1	incongruent/STIM_004.jpg	99
96.512	0.973	972.6	incongruent	Block1	incongruent/STIM_005.jpg	100
100.574	1.106	1106.1	incongruent	Block1	incongruent/STIM_005.jpg	99
104.481	0.89	890.4	incongruent	Block1	incongruent/STIM_005.jpg	99
108.214	0.563	562.6	incongruent	Block1	incongruent/STIM_005.jpg	99
112.823	0.642	641.7	incongruent	Block1	incongruent/STIM_005.jpg	100
116.183	1.099	1098.7	incongruent	Block1	incongruent/STIM_006.jpg	100
121.444	0.609	608.9	incongruent	Block1	incongruent/STIM_006.jpg	99
125.044	1.105	1104.6	incongruent	Block1	incongruent/STIM_006.jpg	99
129.04	0.519	518.6	incongruent	Block1	incongruent/STIM_006.jpg	99
133.482	0.523	522.6	incongruent	Block1	incongruent/STIM_006.jpg	100
136.563	1.157	1157.1	incongruent	Block1	incongruent/STIM_007.jpg	100
140.59	1.194	1194.0	incongruent	Block1	incongruent/STIM_007.jpg	100
144.039	0.947	946.6	incongruent	Block1	incongruent/STIM_007.jpg	100
148.418	0.988	987.6	incongruent	Block1	incongruent/STIM_007.jpg	100
153.248	0.689	689.4	incongruent	Block1	incongruent/STIM_007.jpg	100
156.379	0.788	788.1	incongruent	Block1	incongruent/STIM_008.jpg	100
160.298	0.76	759.9	incongruent	Block1	incongruent/STIM_008.jpg	100
164.462	1.145	1145.1	incongruent	Block1	incongruent/STIM_008.jpg	99
167.988	1.065	1065.0	incongruent	Block1	incongruent/STIM_008.jpg	99
171.669	0.67	669.8	incongruent	Block1	incongruent/STIM_008.jpg	100
175.452	0.635	635.0	incongruent	Block1	incongruent/STIM_009.jpg	99
179.283	1.017	1017.2	incongruent	Block1	incongruent/STIM_009.jpg	100
184.234	0.94	940.2	incongruent	Block1	incongruent/STIM_009.jpg	100
188.605	0.704	704.1	incongruent	Block1	incongruent/STIM_009.jpg	99
191.935	1.036	1035.7	incongruent	Block1	incongruent/STIM_009.jpg	99
197.026	0.797	796.9	incongruent	Block1	incongruent/STIM_010.jpg	99
201.23	1.024	1023.7	incongruent	Block1	incongruent/STIM_010.jpg	99
205.944	0.726	725.7	incongruent	Block1	incongruent/STIM_010.jpg	99
210.603	0.913	913.0	incongruent	Block1	incongruent/STIM_010.jpg	99
215.353	0.999	999.0	incongruent	Block1	incongruent/STIM_010.jpg	99
219.892	0.923	922.6	incongruent	Block1	incongruent/STIM_011.jpg	100
223.496	1.063	1062.9	incongruent	Block1	incongruent/STIM_011.jpg	99
227.989	0.669	669.2	incongruent	Block1	incongruent/STIM_011.jpg	100
231.554	1.078	1077.5	incongruent	Block1	incongruent/STIM_011.jpg	100
236.542	0.584	584.2	incongruent	Block1	incongruent/STIM_011.jpg	99
240.359	0.619	619.1	incongruent	Block1	incongruent/STIM_012.jpg	100
244.716	1.153	1152.9	incongruent	Block1	incongruent/STIM_012.jpg	99
249.504	0.623	622.6	incongruent	Block1	incongruent/STIM_012.jpg	99
252.375	0.943	942.6	incongruent	Block1	incongruent/STIM_012.jpg	100
256.82	0.537	537.3	incongruent	Block1	incongruent/STIM_012.jpg	100
260.154	0.988	987.9	incongruent	Block1	incongruent/STIM_013.jpg	99
264.661	0.928	927.7	incongruent	Block1	incongruent/STIM_013.jpg	100
268.8	0.764	764.1	incongruent	Block1	incongruent/STIM_013.jpg	99
272.346	0.548	548.3	incongruent	Block1	incongruent/STIM_013.jpg	99
276.193	0.743	743.0	incongruent	Block1	incongruent/STIM_013.jpg	99
280.673	0.859	859.1	incongruent	Block1	incongruent/STIM_014.jpg	99
284.74	0.984	984.0	incongruent	Block1	incongruent/STIM_014.jpg	100
288.78	0.979	978.7	incongruent	Block1	incongruent/STIM_014.jpg	99
292.224	0.548	547.7	incongruent	Block1	incongruent/STIM_014.jpg	99
295.15	0.942	941.7	incongruent	Block1	incongruent/STIM_014.jpg	99
299.451	1.048	1047.7	incongruent	Block1	incongruent/STIM_015.jpg	99
304.187	0.987	987.4	incongruent	Block1	incongruent/STIM_015.jpg	100
307.65	0.99	989.9	incongruent	Block1	incongruent/STIM_015.jpg	100
311.326	0.944	943.8	incongruent	Block1	incongruent/STIM_015.jpg	100
315.488	0.978	978.0	incongruent	Block1	incongruent/STIM_015.jpg	100
320.073	0.67	670.0	incongruent	Block1	incongruent/STIM_016.jpg	100
323.583	0.751	750.6	incongruent	Block1	incongruent/STIM_016.jpg	100
327.374	0.967	967.1	incongruent	Block1	incongruent/STIM_016.jpg	100
332.133	0.674	674.0	incongruent	Block1	incongruent/STIM_016.jpg	99
336.252	0.541	541.4	incongruent	Block1	incongruent/STIM_016.jpg	99
339.997	1.295	1295.4	incongruent	Block1	incongruent/STIM_017.jpg	100
343.615	0.622	622.4	incongruent	Block1	incongruent/STIM_017.jpg	100
347.317	0.59	590.1	incongruent	Block1	incongruent/STIM_017.jpg	100
351.432	0.755	754.6	incongruent	Block1	incongruent/STIM_017.jpg	100
355.752	0.966	966.5	incongruent	Block1	incongruent/STIM_017.jpg	99
360.559	0.639	639.0	incongruent	Block1	incongruent/STIM_018.jpg	99
363.459	0.976	976.1	incongruent	Block1	incongruent/STIM_018.jpg	99
367.365	0.548	548.5	incongruent	Block1	incongruent/STIM_018.jpg	99
371.089	0.925	924.6	incongruent	Block1	incongruent/STIM_018.jpg	99
374.728	0.624	624.2	incongruent	Block1	incongruent/STIM_018.jpg	100
379.122	0.624	623.6	incongruent	Block1	incongruent/STIM_019.jpg	99
382.603	1.194	1193.6	incongruent	Block1	incongruent/STIM_019.jpg	100
387.524	0.568	567.5	incongruent	Block1	incongruent/STIM_019.jpg	99
391.467	0.847	847.2	incongruent	Block1	incongruent/STIM_019.jpg	99
396.283	0.85	850.2	incongruent	Block1	incongruent/STIM_019.jpg	99
399.297	0.675	674.6	incongruent	Block1	incongruent/STIM_020.jpg	99
403.465	0.753	753.0	incongruent	Block1	incongruent/STIM_020.jpg	100
406.69	1.123	1122.6	incongruent	Block1	incongruent/STIM_020.jpg	100
410.095	1.012	1012.1	incongruent	Block1	incongruent/STIM_020.jpg	100
414.318	0.654	654.5	incongruent	Block1	incongruent/STIM_020.jpg	100
418.773	1.08	1079.6	incongruent	Block1	incongruent/STIM_021.jpg	99
422.876	0.879	879.4	incongruent	Block1	incongruent/STIM_021.jpg	100
426.391	0.631	630.7	incongruent	Block1	incongruent/STIM_021.jpg	99
430.946	0.618	617.9	incongruent	Block1	incongruent/STIM_021.jpg	100
434.151	0.771	771.0	incongruent	Block1	incongruent/STIM_021.jpg	100
438.24	0.929	928.9	incongruent	Block1	incongruent/STIM_022.jpg	99
442.688	0.847	846.8	incongruent	Block1	incongruent/STIM_022.jpg	100
447.465	0.832	831.6	incongruent	Block1	incongruent/STIM_022.jpg	100
452.281	1.024	1024.4	incongruent	Block1	incongruent/STIM_022.jpg	100
456.828	0.776	775.9	incongruent	Block1	incongruent/STIM_022.jpg	100
460.258	1.258	1258.4	incongruent	Block1	incongruent/STIM_023.jpg	100
465.531	0.981	980.7	incongruent	Block1	incongruent/STIM_023.jpg	99
468.714	0.977	976.8	incongruent	Block1	incongruent/STIM_023.jpg	100
472.314	1.051	1050.8	incongruent	Block1	incongruent/STIM_023.jpg	99
477.117	0.704	704.1	incongruent	Block1	incongruent/STIM_023.jpg	100
480.855	0.951	951.3	incongruent	Block1	incongruent/STIM_024.jpg	100
484.147	1.048	1047.6	incongruent	Block1	incongruent/STIM_024.jpg	99
489.025	1.002	1002.5	incongruent	Block1	incongruent/STIM_024.jpg	99
493.748	0.839	838.8	incongruent	Block1	incongruent/STIM_024.jpg	100
498.396	0.72	719.6	incongruent	Block1	incongruent/STIM_024.jpg	99
502.179	0.744	744.4	incongruent	Block1	incongruent/STIM_025.jpg	100
506.292	1.175	1175.1	incongruent	Block1	incongruent/STIM_025.jpg	99
511.159	1.124	1124.2	incongruent	Block1	incongruent/STIM_025.jpg	100
516.039	0.994	994.3	incongruent	Block1	incongruent/STIM_025.jpg	99
519.706	0.947	947.0	incongruent	Block1	incongruent/STIM_025.jpg	99
523.204	0.8	799.9	incongruent	Block1	incongruent/STIM_026.jpg	100
526.163	0.732	731.8	incongruent	Block1	incongruent/STIM_026.jpg	100
529.394	0.553	553.4	incongruent	Block1	incongruent/STIM_026.jpg	99
533.714	1.106	1105.9	incongruent	Block1	incongruent/STIM_026.jpg	100
538.325	1.023	1023.1	incongruent	Block1	incongruent/STIM_026.jpg	99
541.953	1.019	1019.0	incongruent	Block1	incongruent/STIM_027.jpg	100
546.275	0.808	807.6	incongruent	Block1	incongruent/STIM_027.jpg	100
549.933	0.753	752.6	incongruent	Block1	incongruent/STIM_027.jpg	99
552.813	0.853	853.1	incongruent	Block1	incongruent/STIM_027.jpg	100
557.766	0.636	636.5	incongruent	Block1	incongruent/STIM_027.jpg	99
560.992	0.858	858.5	incongruent	Block1	incongruent/STIM_028.jpg	99
565.734	0.702	701.9	incongruent	Block1	incongruent/STIM_028.jpg	100
569.987	0.615	614.7	incongruent	Block1	incongruent/STIM_028.jpg	100
573.466	0.734	734.1	incongruent	Block1	incongruent/STIM_028.jpg	100
576.954	0.748	747.7	incongruent	Block1	incongruent/STIM_028.jpg	99
581.456	0.748	747.6	incongruent	Block1	incongruent/STIM_029.jpg	100
585.275	0.929	928.7	incongruent	Block1	incongruent/STIM_029.jpg	99
589.605	1.05	1050.4	incongruent	Block1	incongruent/STIM_029.jpg	99
593.397	0.562	561.8	incongruent	Block1	incongruent/STIM_029.jpg	100
597.099	1.036	1035.9	incongruent	Block1	incongruent/STIM_029.jpg	100
600.721	0.532	532.5	congruent	Block1	congruent/STIM_000.jpg	100
604.918	0.479	479.4	congruent	Block1	congruent/STIM_000.jpg	99
609.2	0.484	484.3	congruent	Block1	congruent/STIM_000.jpg	100
613.277	0.531	531.0	congruent	Block1	congruent/STIM_000.jpg	99
617.738	0.522	521.6	congruent	Block1	congruent/STIM_000.jpg	100
620.922	0.626	626.1	congruent	Block1	congruent/STIM_001.jpg	100
625.083	0.461	460.9	congruent	Block1	congruent/STIM_001.jpg	99
627.636	0.617	617.0	congruent	Block1	congruent/STIM_001.jpg	100
630.427	0.597	597.0	congruent	Block1	congruent/STIM_001.jpg	99
634.162	0.721	720.6	congruent	Block1	congruent/STIM_001.jpg	100
637.346	0.702	702.1	congruent	Block1	congruent/STIM_002.jpg	100
641.124	0.523	523.2	congruent	Block1	congruent/STIM_002.jpg	99
644.819	0.609	608.9	congruent	Block1	congruent/STIM_002.jpg	100
648.914	0.583	582.6	congruent	Block1	congruent/STIM_002.jpg	99
652.872	0.669	668.6	congruent	Block1	congruent/STIM_002.jpg	99
656.636	0.444	444.5	congruent	Block1	congruent/STIM_003.jpg	100
660.565	0.565	564.9	congruent	Block1	congruent/STIM_003.jpg	100
663.523	0.59	590.1	congruent	Block1	congruent/STIM_003.jpg	100
666.595	0.609	608.8	congruent	Block1	congruent/STIM_003.jpg	99
670.167	0.491	490.8	congruent	Block1	congruent/STIM_003.jpg	99
673.987	0.717	717.0	congruent	Block1	congruent/STIM_004.jpg	100
677.564	0.571	570.8	congruent	Block1	congruent/STIM_004.jpg	99
681.409	0.718	717.9	congruent	Block1	congruent/STIM_004.jpg	100
686.134	0.443	443.1	congruent	Block1	congruent/STIM_004.jpg	100
689.665	0.648	648.4	congruent	Block1	congruent/STIM_004.jpg	100
694.185	0.506	506.1	congruent	Block1	congruent/STIM_005.jpg	100
698.744	0.706	705.8	congruent	Block1	congruent/STIM_005.jpg	100
701.654	0.771	771.4	congruent	Block1	congruent/STIM_005.jpg	100
705.646	0.783	782.7	congruent	Block1	congruent/STIM_005.jpg	99
709.226	0.669	669.4	congruent	Block1	congruent/STIM_005.jpg	100
713.654	0.755	755.3	congruent	Block1	congruent/STIM_006.jpg	100
717.357	0.661	661.2	congruent	Block1	congruent/STIM_006.jpg	99
720.423	0.629	629.3	congruent	Block1	congruent/STIM_006.jpg	99
723.844	0.611	610.7	congruent	Block1	congruent/STIM_006.jpg	99
728.225	0.666	665.5	congruent	Block1	congruent/STIM_006.jpg	99
731.153	0.76	759.8	congruent	Block1	congruent/STIM_007.jpg	100
734.241	0.595	594.9	congruent	Block1	congruent/STIM_007.jpg	99
738.749	0.487	486.7	congruent	Block1	congruent/STIM_007.jpg	99
742.572	0.522	522.3	congruent	Block1	congruent/STIM_007.jpg	99
745.475	0.761	760.9	congruent	Block1	congruent/STIM_007.jpg	100
748.881	0.614	614.0	congruent	Block1	congruent/STIM_008.jpg	99
751.654	0.522	522.4	congruent	Block1	congruent/STIM_008.jpg	100
755.864	0.627	627.4	congruent	Block1	congruent/STIM_008.jpg	100
759.711	0.681	681.0	congruent	Block1	congruent/STIM_008.jpg	100
764.061	0.708	708.5	congruent	Block1	congruent/STIM_008.jpg	100
767.61	0.759	758.9	congruent	Block1	congruent/STIM_009.jpg	100
771.88	0.524	523.8	congruent	Block1	congruent/STIM_009.jpg	99
774.54	0.534	534.1	congruent	Block1	congruent/STIM_009.jpg	100
778.91	0.522	522.3	congruent	Block1	congruent/STIM_009.jpg	99
781.687	0.587	587.1	congruent	Block1	congruent/STIM_009.jpg	99
784.976	0.543	542.8	congruent	Block1	congruent/STIM_010.jpg	99
787.824	0.488	487.6	congruent	Block1	congruent/STIM_010.jpg	99
791.975	0.656	656.2	congruent	Block1	congruent/STIM_010.jpg	100
795.226	0.624	624.0	congruent	Block1	congruent/STIM_010.jpg	100
799.211	0.617	616.6	congruent	Block1	congruent/STIM_010.jpg	99
802.741	0.65	650.3	congruent	Block1	congruent/STIM_011.jpg	99
807.398	0.69	689.9	congruent	Block1	congruent/STIM_011.jpg	100
811.77	0.688	687.9	congruent	Block1	congruent/STIM_011.jpg	99
815.095	0.748	747.6	congruent	Block1	congruent/STIM_011.jpg	100
818.681	0.554	553.6	congruent	Block1	congruent/STIM_011.jpg	100
821.356	0.622	622.1	congruent	Block1	congruent/STIM_012.jpg	100
825.251	0.564	563.6	congruent	Block1	congruent/STIM_012.jpg	99
829.229	0.671	671.4	congruent	Block1	congruent/STIM_012.jpg	99
832.974	0.598	598.2	congruent	Block1	congruent/STIM_012.jpg	100
837.479	0.6	599.7	congruent	Block1	congruent/STIM_012.jpg	100
841.044	0.751	751.4	congruent	Block1	congruent/STIM_013.jpg	99
845.616	0.448	448.2	congruent	Block1	congruent/STIM_013.jpg	99
849.489	0.492	492.3	congruent	Block1	congruent/STIM_013.jpg	100
853.055	0.492	491.8	congruent	Block1	congruent/STIM_013.jpg	100
856.176	0.49	489.5	congruent	Block1	congruent/STIM_013.jpg	100
860.254	0.572	572.5	congruent	Block1	congruent/STIM_014.jpg	99
864.015	0.773	773.1	congruent	Block1	congruent/STIM_014.jpg	99
867.343	0.611	610.8	congruent	Block1	congruent/STIM_014.jpg	99
870.29	0.623	623.3	congruent	Block1	congruent/STIM_014.jpg	99
873.934	0.632	631.8	congruent	Block1	congruent/STIM_014.jpg	99
877.903	0.695	695.4	congruent	Block1	congruent/STIM_015.jpg	99
882.11	0.481	481.4	congruent	Block1	congruent/STIM_015.jpg	100
885.006	0.64	640.3	congruent	Block1	congruent/STIM_015.jpg	100
889.204	0.519	519.0	congruent	Block1	congruent/STIM_015.jpg	100
893.791	0.708	707.6	congruent	Block1	congruent/STIM_015.jpg	99
898.597	0.703	702.8	congruent	Block1	congruent/STIM_016.jpg	100
901.686	0.46	460.5	congruent	Block1	congruent/STIM_016.jpg	100
904.554	0.641	641.2	congruent	Block1	congruent/STIM_016.jpg	99
908.076	0.501	501.1	congruent	Block1	congruent/STIM_016.jpg	100
910.925	0.615	614.8	congruent	Block1	congruent/STIM_016.jpg	100
915.21	0.599	599.0	congruent	Block1	congruent/STIM_017.jpg	100
918.532	0.731	730.9	congruent	Block1	congruent/STIM_017.jpg	100
921.63	0.63	629.7	congruent	Block1	congruent/STIM_017.jpg	100
924.712	0.634	634.3	congruent	Block1	congruent/STIM_017.jpg	100
928.5	0.482	481.8	congruent	Block1	congruent/STIM_017.jpg	100
931.477	0.514	514.3	congruent	Block1	congruent/STIM_018.jpg	99
935.21	0.607	606.9	congruent	Block1	congruent/STIM_018.jpg	99
938.327	0.63	629.9	congruent	Block1	congruent/STIM_018.jpg	100
942.246	0.688	688.1	congruent	Block1	congruent/STIM_018.jpg	100
946.738	0.549	549.0	congruent	Block1	congruent/STIM_018.jpg	100
951.173	0.468	467.8	congruent	Block1	congruent/STIM_019.jpg	99
954.844	0.454	454.2	congruent	Block1	congruent/STIM_019.jpg	99
958.541	0.5	500.2	congruent	Block1	congruent/STIM_019.jpg	99
962.919	0.644	644.5	congruent	Block1	congruent/STIM_019.jpg	100
966.991	0.684	683.6	congruent	Block1	congruent/STIM_019.jpg	99
970.993	0.557	557.1	congruent	Block1	congruent/STIM_020.jpg	99
973.825	0.699	699.3	congruent	Block1	congruent/STIM_020.jpg	100
977.089	0.701	700.9	congruent	Block1	congruent/STIM_020.jpg	100
980.609	0.506	506.4	congruent	Block1	congruent/STIM_020.jpg	99
985.179	0.527	527.0	congruent	Block1	congruent/STIM_020.jpg	99
988.348	0.476	475.5	congruent	Block1	congruent/STIM_021.jpg	99
992.199	0.464	463.5	congruent	Block1	congruent/STIM_021.jpg	100
994.959	0.755	754.6	congruent	Block1	congruent/STIM_021.jpg	100
999.084	0.683	683.0	congruent	Block1	congruent/STIM_021.jpg	100
1002.355	0.546	545.7	congruent	Block1	congruent/STIM_021.jpg	99
1006.958	0.606	605.8	congruent	Block1	congruent/STIM_022.jpg	99
1010.513	0.582	582.4	congruent	Block1	congruent/STIM_022.jpg	99
1015.175	0.543	542.8	congruent	Block1	congruent/STIM_022.jpg	99
1019.58	0.554	554.1	congruent	Block1	congruent/STIM_022.jpg	100
1022.974	0.776	775.9	congruent	Block1	congruent/STIM_022.jpg	99
1026.902	0.726	726.2	congruent	Block1	congruent/STIM_023.jpg	99
1030.854	0.776	776.1	congruent	Block1	congruent/STIM_023.jpg	100
1035.472	0.724	724.2	congruent	Block1	congruent/STIM_023.jpg	99
1039.972	0.636	635.6	congruent	Block1	congruent/STIM_023.jpg	99
1042.912	0.652	651.7	congruent	Block1	congruent/STIM_023.jpg	99
1046.168	0.752	751.8	congruent	Block1	congruent/STIM_024.jpg	100
1050.84	0.732	732.3	congruent	Block1	congruent/STIM_024.jpg	99
1054.989	0.565	565.2	congruent	Block1	congruent/STIM_024.jpg	100
1059.59	0.757	756.7	congruent	Block1	congruent/STIM_024.jpg	100
1063.993	0.482	482.1	congruent	Block1	congruent/STIM_024.jpg	99
1068.186	0.729	729.3	congruent	Block1	congruent/STIM_025.jpg	100
1071.733	0.608	608.5	congruent	Block1	congruent/STIM_025.jpg	100
1075.327	0.623	623.0	congruent	Block1	congruent/STIM_025.jpg	100
1078.518	0.492	492.0	congruent	Block1	congruent/STIM_025.jpg	100
1082.818	0.474	474.1	congruent	Block1	congruent/STIM_025.jpg	99
1087.273	0.685	684.7	congruent	Block1	congruent/STIM_026.jpg	100
1091.664	0.78	779.7	congruent	Block1	congruent/STIM_026.jpg	100
1094.908	0.656	655.6	congruent	Block1	congruent/STIM_026.jpg	99
1098.594	0.509	509.0	congruent	Block1	congruent/STIM_026.jpg	100
1101.524	0.632	631.7	congruent	Block1	congruent/STIM_026.jpg	100
1105.975	0.55	549.6	congruent	Block1	congruent/STIM_027.jpg	100
1108.648	0.774	774.5	congruent	Block1	congruent/STIM_027.jpg	100
1111.576	0.452	452.1	congruent	Block1	congruent/STIM_027.jpg	100
1115.11	0.489	488.8	congruent	Block1	congruent/STIM_027.jpg	100
1117.802	0.446	446.0	congruent	Block1	congruent/STIM_027.jpg	100
1121.674	0.453	453.2	congruent	Block1	congruent/STIM_028.jpg	100
1126.039	0.62	620.3	congruent	Block1	congruent/STIM_028.jpg	100
1130.59	0.603	602.8	congruent	Block1	congruent/STIM_028.jpg	100
1134.441	0.503	503.3	congruent	Block1	congruent/STIM_028.jpg	100
1137.111	0.634	634.3	congruent	Block1	congruent/STIM_028.jpg	100
1140.386	0.563	562.9	congruent	Block1	congruent/STIM_029.jpg	99
1143.082	0.638	637.5	congruent	Block1	congruent/STIM_029.jpg	100
1147.703	0.53	529.7	congruent	Block1	congruent/STIM_029.jpg	99
1152.292	0.527	526.6	congruent	Block1	congruent/STIM_029.jpg	99
1156.211	0.516	516.1	congruent	Block1	congruent/STIM_029.jpg	99
1160.694	0.583	583.4	incongruent	Block2	incongruent/STIM_000.jpg	99
1164.116	0.962	961.8	incongruent	Block2	incongruent/STIM_000.jpg	100
1167.237	0.593	593.4	incongruent	Block2	incongruent/STIM_000.jpg	100
1170.52	0.768	767.9	incongruent	Block2	incongruent/STIM_000.jpg	100
1173.573	0.773	773.4	incongruent	Block2	incongruent/STIM_000.jpg	100
1177.442	0.968	968.1	incongruent	Block2	incongruent/STIM_001.jpg	99
1181.559	0.703	703.3	incongruent	Block2	incongruent/STIM_001.jpg	99
1184.719	0.949	949.0	incongruent	Block2	incongruent/STIM_001.jpg	99
1187.998	0.746	745.7	incongruent	Block2	incongruent/STIM_001.jpg	100
1192.027	0.584	583.7	incongruent	Block2	incongruent/STIM_001.jpg	99
1195.149	0.809	808.6	incongruent	Block2	incongruent/STIM_002.jpg	100
1199.804	0.601	601.4	incongruent	Block2	incongruent/STIM_002.jpg	99
1203.129	0.563	563.1	incongruent	Block2	incongruent/STIM_002.jpg	99
1205.896	0.583	582.9	incongruent	Block2	incongruent/STIM_002.jpg	100
1209.797	0.487	486.8	incongruent	Block2	incongruent/STIM_002.jpg	99
1212.848	0.525	524.8	incongruent	Block2	incongruent/STIM_003.jpg	100
1216.705	0.89	889.5	incongruent	Block2	incongruent/STIM_003.jpg	99
1220.731	0.864	864.5	incongruent	Block2	incongruent/STIM_003.jpg	99
1225.651	0.755	754.6	incongruent	Block2	incongruent/STIM_003.jpg	100
1228.641	0.739	739.3	incongruent	Block2	incongruent/STIM_003.jpg	100
1231.736	0.575	574.6	incongruent	Block2	incongruent/STIM_004.jpg	100
1234.433	1.043	1043.0	incongruent	Block2	incongruent/STIM_004.jpg	99
1238.214	0.602	602.2	incongruent	Block2	incongruent/STIM_004.jpg	100
1241.14	0.734	734.0	incongruent	Block2	incongruent/STIM_004.jpg	99
1244.541	0.7	699.6	incongruent	Block2	incongruent/STIM_004.jpg	100
1248.184	0.69	689.8	incongruent	Block2	incongruent/STIM_005.jpg	100
1252.086	0.508	508.2	incongruent	Block2	incongruent/STIM_005.jpg	100
1255.784	0.529	529.1	incongruent	Block2	incongruent/STIM_005.jpg	100
1258.872	0.873	873.0	incongruent	Block2	incongruent/STIM_005.jpg	100
1262.346	0.571	570.6	incongruent	Block2	incongruent/STIM_005.jpg	100
1266.988	0.905	904.6	incongruent	Block2	incongruent/STIM_006.jpg	99
1271.529	0.812	812.5	incongruent	Block2	incongruent/STIM_006.jpg	99
1275.739	0.778	778.0	incongruent	Block2	incongruent/STIM_006.jpg	99
1280.293	0.55	549.9	incongruent	Block2	incongruent/STIM_006.jpg	100
1283.093	0.798	797.8	incongruent	Block2	incongruent/STIM_006.jpg	99
1286.277	0.734	734.3	incongruent	Block2	incongruent/STIM_007.jpg	100
1290.966	0.647	647.2	incongruent	Block2	incongruent/STIM_007.jpg	100
1293.818	0.832	831.8	incongruent	Block2	incongruent/STIM_007.jpg	99
1298.515	0.71	710.5	incongruent	Block2	incongruent/STIM_007.jpg	99
1301.723	0.678	677.9	incongruent	Block2	incongruent/STIM_007.jpg	100
1305.606	0.558	558.5	incongruent	Block2	incongruent/STIM_008.jpg	99
1309.24	0.557	556.8	incongruent	Block2	incongruent/STIM_008.jpg	99
1313.165	0.591	591.4	incongruent	Block2	incongruent/STIM_008.jpg	100
1316.545	0.499	498.8	incongruent	Block2	incongruent/STIM_008.jpg	99
1319.835	0.584	584.1	incongruent	Block2	incongruent/STIM_008.jpg	99
1323.591	1.096	1095.9	incongruent	Block2	incongruent/STIM_009.jpg	99
1328.806	0.609	609.4	incongruent	Block2	incongruent/STIM_009.jpg	100
1333.077	0.809	808.8	incongruent	Block2	incongruent/STIM_009.jpg	100
1337.473	0.768	767.6	incongruent	Block2	incongruent/STIM_009.jpg	100
1341.556	0.615	614.9	incongruent	Block2	incongruent/STIM_009.jpg	99
1345.532	0.766	765.8	incongruent	Block2	incongruent/STIM_010.jpg	99
1349.684	0.786	786.3	incongruent	Block2	incongruent/STIM_010.jpg	100
1352.607	0.952	952.1	incongruent	Block2	incongruent/STIM_010.jpg	100
1356.048	0.561	561.2	incongruent	Block2	incongruent/STIM_010.jpg	100
1359.178	0.85	849.9	incongruent	Block2	incongruent/STIM_010.jpg	100
1363.657	0.841	841.0	incongruent	Block2	incongruent/STIM_011.jpg	100
1367.552	0.743	742.9	incongruent	Block2	incongruent/STIM_011.jpg	100
1370.893	0.595	595.3	incongruent	Block2	incongruent/STIM_011.jpg	99
1375.03	0.578	578.0	incongruent	Block2	incongruent/STIM_011.jpg	100
1379.359	0.677	676.9	incongruent	Block2	incongruent/STIM_011.jpg	100
1383.971	0.529	528.7	incongruent	Block2	incongruent/STIM_012.jpg	99
1387.054	0.603	602.6	incongruent	Block2	incongruent/STIM_012.jpg	99
1390.203	0.63	629.6	incongruent	Block2	incongruent/STIM_012.jpg	99
1394.796	0.659	659.2	incongruent	Block2	incongruent/STIM_012.jpg	100
1398.157	0.674	674.2	incongruent	Block2	incongruent/STIM_012.jpg	100
1402.123	0.982	982.0	incongruent	Block2	incongruent/STIM_013.jpg	100
1405.485	0.852	852.2	incongruent	Block2	incongruent/STIM_013.jpg	100
1410.366	0.624	623.6	incongruent	Block2	incongruent/STIM_013.jpg	100
1413.901	0.907	906.7	incongruent	Block2	incongruent/STIM_013.jpg	99
1418.184	0.704	704.1	incongruent	Block2	incongruent/STIM_013.jpg	99
1421.132	0.786	785.6	incongruent	Block2	incongruent/STIM_014.jpg	100
1424.108	0.99	989.9	incongruent	Block2	incongruent/STIM_014.jpg	100
1427.958	0.838	838.4	incongruent	Block2	incongruent/STIM_014.jpg	99
1432.375	0.858	857.8	incongruent	Block2	incongruent/STIM_014.jpg	100
1436.586	0.606	606.5	incongruent	Block2	incongruent/STIM_014.jpg	100
1440.43	0.936	935.6	incongruent	Block2	incongruent/STIM_015.jpg	100
1444.046	0.532	532.0	incongruent	Block2	incongruent/STIM_015.jpg	100
1446.667	0.56	560.0	incongruent	Block2	incongruent/STIM_015.jpg	100
1450.51	0.666	666.0	incongruent	Block2	incongruent/STIM_015.jpg	99
1455.094	0.855	855.4	incongruent	Block2	incongruent/STIM_015.jpg	99
1459.731	0.717	716.7	incongruent	Block2	incongruent/STIM_016.jpg	99
1463.353	0.876	875.8	incongruent	Block2	incongruent/STIM_016.jpg	99
1466.496	0.553	553.0	incongruent	Block2	incongruent/STIM_016.jpg	99
1469.442	0.489	489.3	incongruent	Block2	incongruent/STIM_016.jpg	99
1472.878	0.789	788.8	incongruent	Block2	incongruent/STIM_016.jpg	100
1477.014	1.024	1024.2	incongruent	Block2	incongruent/STIM_017.jpg	99
1481.479	0.621	620.8	incongruent	Block2	incongruent/STIM_017.jpg	100
1485.805	0.646	646.0	incongruent	Block2	incongruent/STIM_017.jpg	99
1489.067	0.489	488.6	incongruent	Block2	incongruent/STIM_017.jpg	100
1493.35	0.51	510.5	incongruent	Block2	incongruent/STIM_017.jpg	99
1496.707	0.756	755.8	incongruent	Block2	incongruent/STIM_018.jpg	100
1499.619	0.556	555.8	incongruent	Block2	incongruent/STIM_018.jpg	99
1503.985	0.523	523.0	incongruent	Block2	incongruent/STIM_018.jpg	99
1508.167	0.852	852.4	incongruent	Block2	incongruent/STIM_018.jpg	99
1511.591	0.764	763.7	incongruent	Block2	incongruent/STIM_018.jpg	100
1516.34	0.59	590.3	incongruent	Block2	incongruent/STIM_019.jpg	99
1520.74	0.685	684.8	incongruent	Block2	incongruent/STIM_019.jpg	99
1524.383	0.559	558.7	incongruent	Block2	incongruent/STIM_019.jpg	100
1528.296	0.735	735.3	incongruent	Block2	incongruent/STIM_019.jpg	100
1531.432	0.887	886.6	incongruent	Block2	incongruent/STIM_019.jpg	100
1536.392	0.55	550.1	incongruent	Block2	incongruent/STIM_020.jpg	99
1539.374	0.968	967.6	incongruent	Block2	incongruent/STIM_020.jpg	99
1543.582	0.539	538.8	incongruent	Block2	incongruent/STIM_020.jpg	99
1546.658	0.474	473.6	incongruent	Block2	incongruent/STIM_020.jpg	99
1550.667	0.538	537.5	incongruent	Block2	incongruent/STIM_020.jpg	99
1554.303	0.839	839.2	incongruent	Block2	incongruent/STIM_021.jpg	99
1559.15	0.794	794.1	incongruent	Block2	incongruent/STIM_021.jpg	99
1563.121	0.54	539.7	incongruent	Block2	incongruent/STIM_021.jpg	100
1567.665	0.654	653.8	incongruent	Block2	incongruent/STIM_021.jpg	99
1571.112	0.911	910.9	incongruent	Block2	incongruent/STIM_021.jpg	99
1574.964	1.061	1061.1	incongruent	Block2	incongruent/STIM_022.jpg	100
1578.803	0.537	536.7	incongruent	Block2	incongruent/STIM_022.jpg	99
1581.797	0.749	748.7	incongruent	Block2	incongruent/STIM_022.jpg	99
1586.565	0.522	522.5	incongruent	Block2	incongruent/STIM_022.jpg	100
1589.836	0.573	573.0	incongruent	Block2	incongruent/STIM_022.jpg	100
1594.099	1.097	1097.1	incongruent	Block2	incongruent/STIM_023.jpg	100
1597.691	0.556	555.5	incongruent	Block2	incongruent/STIM_023.jpg	100
1602.09	0.72	719.6	incongruent	Block2	incongruent/STIM_023.jpg	100
1605.141	0.682	682.1	incongruent	Block2	incongruent/STIM_023.jpg	100
1608.704	0.829	828.6	incongruent	Block2	incongruent/STIM_023.jpg	100
1613.061	0.986	985.5	incongruent	Block2	incongruent/STIM_024.jpg	99
1616.228	0.892	891.6	incongruent	Block2	incongruent/STIM_024.jpg	99
1619.908	0.473	473.0	incongruent	Block2	incongruent/STIM_024.jpg	99
1624.138	0.886	885.9	incongruent	Block2	incongruent/STIM_024.jpg	100
1629.123	0.519	518.8	incongruent	Block2	incongruent/STIM_024.jpg	100
1632.36	0.805	805.1	incongruent	Block2	incongruent/STIM_025.jpg	99
1636.583	0.761	760.6	incongruent	Block2	incongruent/STIM_025.jpg	100
1640.328	0.756	756.1	incongruent	Block2	incongruent/STIM_025.jpg	100
1643.702	0.44	440.2	incongruent	Block2	incongruent/STIM_025.jpg	100
1646.826	0.836	836.5	incongruent	Block2	incongruent/STIM_025.jpg	100
1650.125	1.021	1021.1	incongruent	Block2	incongruent/STIM_026.jpg	100
1653.539	0.92	920.4	incongruent	Block2	incongruent/STIM_026.jpg	99
1657.829	0.612	612.1	incongruent	Block2	incongruent/STIM_026.jpg	99
1662.236	0.869	868.6	incongruent	Block2	incongruent/STIM_026.jpg	99
1665.254	0.854	854.2	incongruent	Block2	incongruent/STIM_026.jpg	100
1668.431	1.05	1049.8	incongruent	Block2	incongruent/STIM_027.jpg	100
1672.421	0.977	976.6	incongruent	Block2	incongruent/STIM_027.jpg	99
1676.322	0.928	927.7	incongruent	Block2	incongruent/STIM_027.jpg	99
1681.007	0.755	755.3	incongruent	Block2	incongruent/STIM_027.jpg	99
1685.552	0.748	748.0	incongruent	Block2	incongruent/STIM_027.jpg	100
1689.952	1.021	1021.4	incongruent	Block2	incongruent/STIM_028.jpg	99
1694.765	0.83	829.6	incongruent	Block2	incongruent/STIM_028.jpg	99
1699.623	0.56	559.5	incongruent	Block2	incongruent/STIM_028.jpg	100
1702.714	0.444	444.3	incongruent	Block2	incongruent/STIM_028.jpg	99
1706.394	0.785	785.3	incongruent	Block2	incongruent/STIM_028.jpg	100
1709.544	0.772	772.3	incongruent	Block2	incongruent/STIM_029.jpg	99
1714.075	0.809	809.1	incongruent	Block2	incongruent/STIM_029.jpg	99
1718.909	0.931	930.8	incongruent	Block2	incongruent/STIM_029.jpg	100
1723.492	0.818	817.7	incongruent	Block2	incongruent/STIM_029.jpg	99
1728.14	0.638	638.4	incongruent	Block2	incongruent/STIM_029.jpg	100
1732.532	0.77	769.8	congruent	Block2	congruent/STIM_000.jpg	99
1736.781	0.698	698.2	congruent	Block2	congruent/STIM_000.jpg	100
1740.037	0.59	589.7	congruent	Block2	congruent/STIM_000.jpg	100
1744.535	0.506	506.4	congruent	Block2	congruent/STIM_000.jpg	99
1748.128	0.519	519.4	congruent	Block2	congruent/STIM_000.jpg	99
1750.783	0.721	721.4	congruent	Block2	congruent/STIM_001.jpg	100
1753.668	0.553	553.4	congruent	Block2	congruent/STIM_001.jpg	100
1756.538	0.775	775.2	congruent	Block2	congruent/STIM_001.jpg	100
1759.858	0.513	513.2	congruent	Block2	congruent/STIM_001.jpg	99
1762.84	0.6	599.5	congruent	Block2	congruent/STIM_001.jpg	100
1767.374	0.47	470.3	congruent	Block2	congruent/STIM_002.jpg	100
1771.225	0.535	535.2	congruent	Block2	congruent/STIM_002.jpg	99
1774.124	0.758	757.6	congruent	Block2	congruent/STIM_002.jpg	99
1778.105	0.69	690.5	congruent	Block2	congruent/STIM_002.jpg	100
1782.895	0.437	437.2	congruent	Block2	congruent/STIM_002.jpg	100
1786.414	0.436	435.7	congruent	Block2	congruent/STIM_003.jpg	100
1789.507	0.567	567.2	congruent	Block2	congruent/STIM_003.jpg	99
1793.392	0.479	479.3	congruent	Block2	congruent/STIM_003.jpg	100
1797.681	0.762	762.1	congruent	Block2	congruent/STIM_003.jpg	99
1802.051	0.676	675.7	congruent	Block2	congruent/STIM_003.jpg	100
1805.307	0.622	622.0	congruent	Block2	congruent/STIM_004.jpg	100
1808.127	0.733	733.2	congruent	Block2	congruent/STIM_004.jpg	99
1812.711	0.507	507.0	congruent	Block2	congruent/STIM_004.jpg	100
1815.37	0.524	524.0	congruent	Block2	congruent/STIM_004.jpg	100
1819.272	0.717	716.9	congruent	Block2	congruent/STIM_004.jpg	99
1823.646	0.767	767.2	congruent	Block2	congruent/STIM_005.jpg	99
1826.595	0.485	484.8	congruent	Block2	congruent/STIM_005.jpg	100
1829.152	0.699	698.9	congruent	Block2	congruent/STIM_005.jpg	99
1832.188	0.469	468.6	congruent	Block2	congruent/STIM_005.jpg	100
1835.639	0.689	689.1	congruent	Block2	congruent/STIM_005.jpg	99
1838.439	0.491	490.6	congruent	Block2	congruent/STIM_006.jpg	99
1842.895	0.485	485.4	congruent	Block2	congruent/STIM_006.jpg	99
1847.095	0.628	628.0	congruent	Block2	congruent/STIM_006.jpg	99
1850.443	0.524	524.0	congruent	Block2	congruent/STIM_006.jpg	100
1854.78	0.772	771.7	congruent	Block2	congruent/STIM_006.jpg	100
1857.785	0.555	555.3	congruent	Block2	congruent/STIM_007.jpg	100
1861.493	0.613	612.7	congruent	Block2	congruent/STIM_007.jpg	99
1864.682	0.596	596.5	congruent	Block2	congruent/STIM_007.jpg	99
1868.577	0.727	727.2	congruent	Block2	congruent/STIM_007.jpg	99
1872.891	0.56	559.9	congruent	Block2	congruent/STIM_007.jpg	100
1876.916	0.688	687.8	congruent	Block2	congruent/STIM_008.jpg	100
1880.047	0.525	524.9	congruent	Block2	congruent/STIM_008.jpg	99
1883.769	0.512	511.6	congruent	Block2	congruent/STIM_008.jpg	99
1888.229	0.524	523.6	congruent	Block2	congruent/STIM_008.jpg	99
1891.062	0.748	747.7	congruent	Block2	congruent/STIM_008.jpg	100
1894.686	0.709	709.3	congruent	Block2	congruent/STIM_009.jpg	100
1898.064	0.732	732.1	congruent	Block2	congruent/STIM_009.jpg	99
1901.836	0.6	599.5	congruent	Block2	congruent/STIM_009.jpg	100
1904.991	0.518	517.8	congruent	Block2	congruent/STIM_009.jpg	100
1909.109	0.536	535.7	congruent	Block2	congruent/STIM_009.jpg	99
1913.616	0.493	493.0	congruent	Block2	congruent/STIM_010.jpg	99
1918.113	0.613	612.8	congruent	Block2	congruent/STIM_010.jpg	100
1921.891	0.768	768.2	congruent	Block2	congruent/STIM_010.jpg	100
1926.682	0.636	636.1	congruent	Block2	congruent/STIM_010.jpg	99
1930.962	0.561	560.8	congruent	Block2	congruent/STIM_010.jpg	99
1934.27	0.674	673.5	congruent	Block2	congruent/STIM_011.jpg	100
1938.034	0.652	652.4	congruent	Block2	congruent/STIM_011.jpg	100
1941.575	0.693	693.0	congruent	Block2	congruent/STIM_011.jpg	99
1945.531	0.535	534.9	congruent	Block2	congruent/STIM_011.jpg	99
1948.953	0.5	500.2	congruent	Block2	congruent/STIM_011.jpg	99
1952.825	0.655	655.1	congruent	Block2	congruent/STIM_012.jpg	99
1956.215	0.64	640.1	congruent	Block2	congruent/STIM_012.jpg	99
1960.278	0.711	710.6	congruent	Block2	congruent/STIM_012.jpg	99
1963.67	0.576	575.9	congruent	Block2	congruent/STIM_012.jpg	100
1966.61	0.59	590.1	congruent	Block2	congruent/STIM_012.jpg	99
1970.68	0.683	683.2	congruent	Block2	congruent/STIM_013.jpg	100
1973.729	0.769	769.3	congruent	Block2	congruent/STIM_013.jpg	99
1976.65	0.627	627.2	congruent	Block2	congruent/STIM_013.jpg	100
1979.517	0.744	744.5	congruent	Block2	congruent/STIM_013.jpg	100
1983.467	0.545	544.8	congruent	Block2	congruent/STIM_013.jpg	100
1987.856	0.608	607.8	congruent	Block2	congruent/STIM_014.jpg	100
1991.641	0.74	739.7	congruent	Block2	congruent/STIM_014.jpg	99
1995.508	0.598	598.3	congruent	Block2	congruent/STIM_014.jpg	100
1999.992	0.615	615.4	congruent	Block2	congruent/STIM_014.jpg	99
2003.019	0.448	448.5	congruent	Block2	congruent/STIM_014.jpg	100
2007.008	0.672	672.4	congruent	Block2	congruent/STIM_015.jpg	100
2011.699	0.504	503.6	congruent	Block2	congruent/STIM_015.jpg	99
2015.805	0.742	741.8	congruent	Block2	congruent/STIM_015.jpg	100
2020.098	0.754	753.7	congruent	Block2	congruent/STIM_015.jpg	100
2023.45	0.502	502.4	congruent	Block2	congruent/STIM_015.jpg	100
2026.171	0.487	486.8	congruent	Block2	congruent/STIM_016.jpg	100
2028.898	0.554	554.4	congruent	Block2	congruent/STIM_016.jpg	99
2032.48	0.729	728.9	congruent	Block2	congruent/STIM_016.jpg	99
2035.773	0.772	772.5	congruent	Block2	congruent/STIM_016.jpg	99
2039.614	0.599	599.4	congruent	Block2	congruent/STIM_016.jpg	100
2043.463	0.554	554.5	congruent	Block2	congruent/STIM_017.jpg	100
2046.414	0.621	621.1	congruent	Block2	congruent/STIM_017.jpg	100
2050.359	0.759	759.4	congruent	Block2	congruent/STIM_017.jpg	100
2054.989	0.468	467.5	congruent	Block2	congruent/STIM_017.jpg	99
2059.221	0.597	597.0	congruent	Block2	congruent/STIM_017.jpg	100
2063.479	0.761	760.7	congruent	Block2	congruent/STIM_018.jpg	100
2067.578	0.732	732.3	congruent	Block2	congruent/STIM_018.jpg	99
2072.145	0.644	643.6	congruent	Block2	congruent/STIM_018.jpg	99
2076.142	0.712	712.1	congruent	Block2	congruent/STIM_018.jpg	99
2080.693	0.525	525.3	congruent	Block2	congruent/STIM_018.jpg	100
2084.605	0.672	671.6	congruent	Block2	congruent/STIM_019.jpg	100
2088.556	0.718	717.5	congruent	Block2	congruent/STIM_019.jpg	99
2092.653	0.6	600.1	congruent	Block2	congruent/STIM_019.jpg	99
2095.835	0.534	534.4	congruent	Block2	congruent/STIM_019.jpg	100
2098.473	0.616	615.6	congruent	Block2	congruent/STIM_019.jpg	99
2101.724	0.601	600.9	congruent	Block2	congruent/STIM_020.jpg	100
2106.374	0.715	715.3	congruent	Block2	congruent/STIM_020.jpg	99
2109.834	0.624	624.2	congruent	Block2	congruent/STIM_020.jpg	99
2112.879	0.443	443.1	congruent	Block2	congruent/STIM_020.jpg	100
2117.207	0.672	671.8	congruent	Block2	congruent/STIM_020.jpg	99
2121.915	0.75	750.0	congruent	Block2	congruent/STIM_021.jpg	99
2125.78	0.557	557.2	congruent	Block2	congruent/STIM_021.jpg	99
2128.626	0.773	773.1	congruent	Block2	congruent/STIM_021.jpg	99
2132.424	0.726	725.7	congruent	Block2	congruent/STIM_021.jpg	100
2136.391	0.652	651.8	congruent	Block2	congruent/STIM_021.jpg	100
2139.561	0.483	482.8	congruent	Block2	congruent/STIM_022.jpg	99
2143.44	0.601	600.9	congruent	Block2	congruent/STIM_022.jpg	100
2147.71	0.578	578.1	congruent	Block2	congruent/STIM_022.jpg	99
2150.642	0.769	769.1	congruent	Block2	congruent/STIM_022.jpg	100
2154.352	0.753	753.3	congruent	Block2	congruent/STIM_022.jpg	100
2159.057	0.617	617.3	congruent	Block2	congruent/STIM_023.jpg	100
2162.105	0.56	559.9	congruent	Block2	congruent/STIM_023.jpg	100
2165.426	0.629	629.0	congruent	Block2	congruent/STIM_023.jpg	99
2169.78	0.655	654.9	congruent	Block2	congruent/STIM_023.jpg	99
2173.381	0.615	614.6	congruent	Block2	congruent/STIM_023.jpg	100
2177.619	0.604	603.5	congruent	Block2	congruent/STIM_024.jpg	100
2181.837	0.547	546.8	congruent	Block2	congruent/STIM_024.jpg	99
2184.568	0.497	497.4	congruent	Block2	congruent/STIM_024.jpg	100
2187.558	0.446	446.3	congruent	Block2	congruent/STIM_024.jpg	100
2191.269	0.665	665.2	congruent	Block2	congruent/STIM_024.jpg	99
2194.199	0.471	471.4	congruent	Block2	congruent/STIM_025.jpg	99
2198.047	0.601	601.3	congruent	Block2	congruent/STIM_025.jpg	100
2200.966	0.438	437.5	congruent	Block2	congruent/STIM_025.jpg	99
2203.777	0.548	547.7	congruent	Block2	congruent/STIM_025.jpg	99
2207.543	0.535	535.4	congruent	Block2	congruent/STIM_025.jpg	100
2210.859	0.607	606.7	congruent	Block2	congruent/STIM_026.jpg	99
2215.257	0.554	554.0	congruent	Block2	congruent/STIM_026.jpg	100
2218.818	0.595	594.8	congruent	Block2	congruent/STIM_026.jpg	99
2223.085	0.651	651.1	congruent	Block2	congruent/STIM_026.jpg	99
2226.633	0.675	675.3	congruent	Block2	congruent/STIM_026.jpg	99
2229.59	0.534	534.4	congruent	Block2	congruent/STIM_027.jpg	99
2233.699	0.632	631.8	congruent	Block2	congruent/STIM_027.jpg	99
2236.583	0.638	637.5	congruent	Block2	congruent/STIM_027.jpg	100
2239.39	0.524	524.5	congruent	Block2	congruent/STIM_027.jpg	100
2243.354	0.665	664.9	congruent	Block2	congruent/STIM_027.jpg	99
2247.68	0.538	538.4	congruent	Block2	congruent/STIM_028.jpg	100
2250.647	0.505	505.4	congruent	Block2	congruent/STIM_028.jpg	100
2254.196	0.749	748.8	congruent	Block2	congruent/STIM_028.jpg	100
2257.985	0.631	631.4	congruent	Block2	congruent/STIM_028.jpg	100
2262.091	0.762	761.6	congruent	Block2	congruent/STIM_028.jpg	99
2266.502	0.756	755.5	congruent	Block2	congruent/STIM_029.jpg	99
2271.263	0.602	602.5	congruent	Block2	congruent/STIM_029.jpg	99
2274.239	0.732	731.9	congruent	Block2	congruent/STIM_029.jpg	99
2277.119	0.637	636.7	congruent	Block2	congruent/STIM_029.jpg	99
2280.867	0.762	762.0	congruent	Block2	congruent/STIM_029.jpg	99
2284.961	0.883	882.6	incongruent	Block3	incongruent/STIM_000.jpg	99
2289.611	0.53	530.2	incongruent	Block3	incongruent/STIM_000.jpg	100
2293.815	0.715	714.8	incongruent	Block3	incongruent/STIM_000.jpg	99
2298.054	0.45	450.5	incongruent	Block3	incongruent/STIM_000.jpg	100
2301.461	0.652	651.7	incongruent	Block3	incongruent/STIM_000.jpg	100
2305.482	0.48	479.7	incongruent	Block3	incongruent/STIM_001.jpg	99
2308.077	0.598	597.7	incongruent	Block3	incongruent/STIM_001.jpg	100
2311.224	0.533	533.2	incongruent	Block3	incongruent/STIM_001.jpg	99
2315.663	0.575	575.2	incongruent	Block3	incongruent/STIM_001.jpg	100
2320.263	0.645	645.1	incongruent	Block3	incongruent/STIM_001.jpg	99
2323.403	0.694	694.5	incongruent	Block3	incongruent/STIM_002.jpg	99
2326.716	0.646	646.4	incongruent	Block3	incongruent/STIM_002.jpg	100
2331.053	0.698	697.9	incongruent	Block3	incongruent/STIM_002.jpg	99
2334.254	0.72	720.3	incongruent	Block3	incongruent/STIM_002.jpg	100
2337.229	0.534	534.2	incongruent	Block3	incongruent/STIM_002.jpg	99
2340.723	0.805	804.6	incongruent	Block3	incongruent/STIM_003.jpg	99
2345.159	0.782	781.8	incongruent	Block3	incongruent/STIM_003.jpg	100
2349.773	0.72	719.9	incongruent	Block3	incongruent/STIM_003.jpg	100
2353.412	0.578	577.9	incongruent	Block3	incongruent/STIM_003.jpg	99
2357.743	0.835	835.1	incongruent	Block3	incongruent/STIM_003.jpg	99
2360.934	0.767	767.0	incongruent	Block3	incongruent/STIM_004.jpg	100
2364.374	0.474	474.3	incongruent	Block3	incongruent/STIM_004.jpg	100
2366.945	0.54	540.4	incongruent	Block3	incongruent/STIM_004.jpg	100
2371.561	0.71	709.9	incongruent	Block3	incongruent/STIM_004.jpg	99
2375.58	0.444	444.0	incongruent	Block3	incongruent/STIM_004.jpg	100
2378.891	0.714	713.5	incongruent	Block3	incongruent/STIM_005.jpg	100
2382.199	0.896	896.1	incongruent	Block3	incongruent/STIM_005.jpg	99
2385.737	0.841	841.0	incongruent	Block3	incongruent/STIM_005.jpg	100
2389.397	0.468	467.7	incongruent	Block3	incongruent/STIM_005.jpg	100
2392.061	0.459	458.9	incongruent	Block3	incongruent/STIM_005.jpg	100
2396.504	0.621	621.4	incongruent	Block3	incongruent/STIM_006.jpg	99
2400.816	0.71	710.2	incongruent	Block3	incongruent/STIM_006.jpg	99
2405.585	0.617	616.8	incongruent	Block3	incongruent/STIM_006.jpg	99
2409.9	0.763	763.0	incongruent	Block3	incongruent/STIM_006.jpg	99
2413.954	0.723	723.1	incongruent	Block3	incongruent/STIM_006.jpg	99
2417.738	0.843	842.9	incongruent	Block3	incongruent/STIM_007.jpg	99
2421.195	0.605	605.0	incongruent	Block3	incongruent/STIM_007.jpg	99
2424.58	0.837	836.7	incongruent	Block3	incongruent/STIM_007.jpg	100
2428.914	0.792	791.7	incongruent	Block3	incongruent/STIM_007.jpg	99
2432.266	0.452	452.0	incongruent	Block3	incongruent/STIM_007.jpg	100
2436.123	0.866	865.5	incongruent	Block3	incongruent/STIM_008.jpg	100
2440.345	0.474	473.8	incongruent	Block3	incongruent/STIM_008.jpg	100
2443.351	0.661	661.4	incongruent	Block3	incongruent/STIM_008.jpg	100
2446.983	0.885	885.4	incongruent	Block3	incongruent/STIM_008.jpg	99
2451.178	0.773	773.3	incongruent	Block3	incongruent/STIM_008.jpg	100
2454.806	0.839	839.1	incongruent	Block3	incongruent/STIM_009.jpg	100
2458.157	0.746	746.5	incongruent	Block3	incongruent/STIM_009.jpg	100
2461.294	0.57	569.8	incongruent	Block3	incongruent/STIM_009.jpg	99
2464.926	0.578	577.9	incongruent	Block3	incongruent/STIM_009.jpg	100
2469.078	0.862	861.6	incongruent	Block3	incongruent/STIM_009.jpg	100
2473.744	0.588	587.5	incongruent	Block3	incongruent/STIM_010.jpg	99
2476.655	0.88	879.9	incongruent	Block3	incongruent/STIM_010.jpg	99
2481.297	0.866	866.0	incongruent	Block3	incongruent/STIM_010.jpg	100
2485.784	0.556	555.9	incongruent	Block3	incongruent/STIM_010.jpg	99
2488.862	0.475	475.0	incongruent	Block3	incongruent/STIM_010.jpg	99
2492.395	0.495	495.0	incongruent	Block3	incongruent/STIM_011.jpg	99
2496.59	0.545	545.3	incongruent	Block3	incongruent/STIM_011.jpg	100
2500.626	0.624	624.3	incongruent	Block3	incongruent/STIM_011.jpg	99
2503.442	0.844	844.0	incongruent	Block3	incongruent/STIM_011.jpg	99
2508.399	0.713	713.4	incongruent	Block3	incongruent/STIM_011.jpg	100
2511.679	0.845	845.1	incongruent	Block3	incongruent/STIM_012.jpg	100
2515.814	0.488	488.1	incongruent	Block3	incongruent/STIM_012.jpg	99
2519.163	0.707	707.4	incongruent	Block3	incongruent/STIM_012.jpg	100
2523.014	0.618	617.6	incongruent	Block3	incongruent/STIM_012.jpg	100
2526.321	0.461	460.8	incongruent	Block3	incongruent/STIM_012.jpg	100
2530.65	0.902	901.5	incongruent	Block3	incongruent/STIM_013.jpg	99
2535.01	0.893	892.7	incongruent	Block3	incongruent/STIM_013.jpg	99
2539.145	0.73	730.3	incongruent	Block3	incongruent/STIM_013.jpg	99
2543.623	0.802	801.7	incongruent	Block3	incongruent/STIM_013.jpg	99
2548.073	0.44	439.9	incongruent	Block3	incongruent/STIM_013.jpg	100
2551.197	0.759	758.9	incongruent	Block3	incongruent/STIM_014.jpg	100
2554.848	0.878	878.5	incongruent	Block3	incongruent/STIM_014.jpg	99
2559.484	0.715	714.9	incongruent	Block3	incongruent/STIM_014.jpg	100
2563.94	0.653	652.6	incongruent	Block3	incongruent/STIM_014.jpg	100
2567.501	0.628	627.8	incongruent	Block3	incongruent/STIM_014.jpg	99
2571.701	0.784	783.6	incongruent	Block3	incongruent/STIM_015.jpg	100
2574.635	0.506	505.9	incongruent	Block3	incongruent/STIM_015.jpg	99
2578.652	0.907	906.8	incongruent	Block3	incongruent/STIM_015.jpg	99
2582.281	0.53	530.3	incongruent	Block3	incongruent/STIM_015.jpg	99
2586.783	0.684	683.7	incongruent	Block3	incongruent/STIM_015.jpg	99
2590.672	0.659	659.2	incongruent	Block3	incongruent/STIM_016.jpg	100
2594.582	0.469	468.9	incongruent	Block3	incongruent/STIM_016.jpg	99
2598.896	0.872	871.7	incongruent	Block3	incongruent/STIM_016.jpg	99
2603.862	0.592	591.8	incongruent	Block3	incongruent/STIM_016.jpg	99
2608.133	0.71	709.5	incongruent	Block3	incongruent/STIM_016.jpg	100
2611.062	0.427	427.1	incongruent	Block3	incongruent/STIM_017.jpg	99
2614.438	0.618	618.0	incongruent	Block3	incongruent/STIM_017.jpg	99
2617.27	0.689	689.4	incongruent	Block3	incongruent/STIM_017.jpg	100
2620.437	0.798	797.8	incongruent	Block3	incongruent/STIM_017.jpg	100
2624.068	0.824	824.2	incongruent	Block3	incongruent/STIM_017.jpg	99
2627.284	0.72	719.5	incongruent	Block3	incongruent/STIM_018.jpg	99
2631.066	0.502	502.5	incongruent	Block3	incongruent/STIM_018.jpg	99
2633.757	0.797	797.4	incongruent	Block3	incongruent/STIM_018.jpg	99
2637.229	0.595	594.7	incongruent	Block3	incongruent/STIM_018.jpg	100
2640.66	0.533	533.0	incongruent	Block3	incongruent/STIM_018.jpg	100
2644.079	0.785	785.2	incongruent	Block3	incongruent/STIM_019.jpg	100
2647.403	0.573	573.3	incongruent	Block3	incongruent/STIM_019.jpg	99
2651.146	0.788	787.7	incongruent	Block3	incongruent/STIM_019.jpg	100
2655.79	0.635	635.3	incongruent	Block3	incongruent/STIM_019.jpg	100
2658.866	0.505	504.9	incongruent	Block3	incongruent/STIM_019.jpg	99
2662.035	0.519	519.0	incongruent	Block3	incongruent/STIM_020.jpg	99
2665.229	0.77	769.6	incongruent	Block3	incongruent/STIM_020.jpg	99
2668.678	0.739	739.0	incongruent	Block3	incongruent/STIM_020.jpg	100
2673.428	0.583	583.3	incongruent	Block3	incongruent/STIM_020.jpg	100
2677.14	0.68	679.6	incongruent	Block3	incongruent/STIM_020.jpg	100
2681.455	0.737	736.9	incongruent	Block3	incongruent/STIM_021.jpg	99
2685.809	0.911	910.8	incongruent	Block3	incongruent/STIM_021.jpg	99
2689.797	0.711	711.1	incongruent	Block3	incongruent/STIM_021.jpg	100
2693.216	0.58	580.3	incongruent	Block3	incongruent/STIM_021.jpg	100
2697.873	0.879	878.8	incongruent	Block3	incongruent/STIM_021.jpg	99
2701.137	0.806	806.3	incongruent	Block3	incongruent/STIM_022.jpg	99
2705.199	0.614	613.6	incongruent	Block3	incongruent/STIM_022.jpg	99
2707.974	0.576	576.4	incongruent	Block3	incongruent/STIM_022.jpg	100
2712.612	0.831	831.4	incongruent	Block3	incongruent/STIM_022.jpg	99
2716.174	0.604	604.3	incongruent	Block3	incongruent/STIM_022.jpg	100
2719.228	0.662	662.5	incongruent	Block3	incongruent/STIM_023.jpg	100
2723.554	0.481	480.7	incongruent	Block3	incongruent/STIM_023.jpg	100
2727.267	0.838	837.5	incongruent	Block3	incongruent/STIM_023.jpg	100
2732.086	0.454	453.9	incongruent	Block3	incongruent/STIM_023.jpg	99
2734.682	0.766	765.6	incongruent	Block3	incongruent/STIM_023.jpg	99
2738.356	0.629	629.4	incongruent	Block3	incongruent/STIM_024.jpg	99
2742.149	0.644	644.2	incongruent	Block3	incongruent/STIM_024.jpg	99
2745.654	0.809	809.1	incongruent	Block3	incongruent/STIM_024.jpg	99
2750.275	0.465	464.6	incongruent	Block3	incongruent/STIM_024.jpg	100
2754.683	0.458	457.7	incongruent	Block3	incongruent/STIM_024.jpg	99
2758.513	0.57	569.7	incongruent	Block3	incongruent/STIM_025.jpg	99
2762.954	0.858	858.5	incongruent	Block3	incongruent/STIM_025.jpg	100
2766.595	0.745	744.9	incongruent	Block3	incongruent/STIM_025.jpg	100
2769.757	0.871	871.0	incongruent	Block3	incongruent/STIM_025.jpg	99
2773.011	0.902	902.4	incongruent	Block3	incongruent/STIM_025.jpg	100
2777.85	0.428	428.3	incongruent	Block3	incongruent/STIM_026.jpg	100
2782.274	0.462	462.1	incongruent	Block3	incongruent/STIM_026.jpg	99
2785.518	0.912	912.2	incongruent	Block3	incongruent/STIM_026.jpg	99
2789.798	0.442	441.6	incongruent	Block3	incongruent/STIM_026.jpg	99
2793.58	0.634	634.5	incongruent	Block3	incongruent/STIM_026.jpg	100
2797.684	0.888	887.9	incongruent	Block3	incongruent/STIM_027.jpg	99
2802.527	0.796	796.2	incongruent	Block3	incongruent/STIM_027.jpg	99
2806.302	0.523	523.2	incongruent	Block3	incongruent/STIM_027.jpg	99
2809.879	0.635	635.1	incongruent	Block3	incongruent/STIM_027.jpg	100
2813.604	0.826	826.1	incongruent	Block3	incongruent/STIM_027.jpg	100
2818.244	0.505	504.6	incongruent	Block3	incongruent/STIM_028.jpg	100
2821.304	0.486	486.1	incongruent	Block3	incongruent/STIM_028.jpg	100
2824.326	0.899	899.4	incongruent	Block3	incongruent/STIM_028.jpg	99
2828.125	0.807	806.8	incongruent	Block3	incongruent/STIM_028.jpg	100
2831.807	0.449	449.1	incongruent	Block3	incongruent/STIM_028.jpg	100
2834.482	0.84	840.0	incongruent	Block3	incongruent/STIM_029.jpg	99
2838.448	0.462	462.2	incongruent	Block3	incongruent/STIM_029.jpg	99
2841.961	0.77	770.2	incongruent	Block3	incongruent/STIM_029.jpg	99
2846.579	0.832	832.2	incongruent	Block3	incongruent/STIM_029.jpg	100
2849.681	0.651	650.8	incongruent	Block3	incongruent/STIM_029.jpg	99
2853.446	0.532	532.0	congruent	Block3	congruent/STIM_000.jpg	99
2857.889	0.686	686.0	congruent	Block3	congruent/STIM_000.jpg	100
2861.121	0.538	538.5	congruent	Block3	congruent/STIM_000.jpg	100
2865.153	0.465	465.1	congruent	Block3	congruent/STIM_000.jpg	100
2868.604	0.466	466.3	congruent	Block3	congruent/STIM_000.jpg	99
2872.218	0.582	581.8	congruent	Block3	congruent/STIM_001.jpg	99
2876.768	0.544	543.5	congruent	Block3	congruent/STIM_001.jpg	100
2880.06	0.742	742.2	congruent	Block3	congruent/STIM_001.jpg	100
2884.536	0.449	449.0	congruent	Block3	congruent/STIM_001.jpg	100
2888.737	0.746	745.9	congruent	Block3	congruent/STIM_001.jpg	99
2893.562	0.531	530.7	congruent	Block3	congruent/STIM_002.jpg	99
2896.627	0.632	631.7	congruent	Block3	congruent/STIM_002.jpg	99
2900.905	0.684	684.0	congruent	Block3	congruent/STIM_002.jpg	100
2904.608	0.45	449.9	congruent	Block3	congruent/STIM_002.jpg	100
2907.895	0.696	696.1	congruent	Block3	congruent/STIM_002.jpg	100
2911.721	0.494	493.7	congruent	Block3	congruent/STIM_003.jpg	100
2914.698	0.45	450.4	congruent	Block3	congruent/STIM_003.jpg	100
2917.562	0.56	560.0	congruent	Block3	congruent/STIM_003.jpg	100
2921.066	0.736	736.4	congruent	Block3	congruent/STIM_003.jpg	99
2925.426	0.641	640.6	congruent	Block3	congruent/STIM_003.jpg	100
2929.19	0.463	463.2	congruent	Block3	congruent/STIM_004.jpg	99
2932.598	0.614	613.9	congruent	Block3	congruent/STIM_004.jpg	99
2935.448	0.552	551.8	congruent	Block3	congruent/STIM_004.jpg	99
2939.589	0.55	550.4	congruent	Block3	congruent/STIM_004.jpg	100
2943.559	0.488	488.5	congruent	Block3	congruent/STIM_004.jpg	99
2947.197	0.512	512.4	congruent	Block3	congruent/STIM_005.jpg	100
2950.431	0.752	751.6	congruent	Block3	congruent/STIM_005.jpg	100
2954.156	0.67	669.6	congruent	Block3	congruent/STIM_005.jpg	99
2958.127	0.552	551.8	congruent	Block3	congruent/STIM_005.jpg	100
2962.559	0.482	482.2	congruent	Block3	congruent/STIM_005.jpg	100
2966.336	0.492	491.5	congruent	Block3	congruent/STIM_006.jpg	100
2968.977	0.542	542.0	congruent	Block3	congruent/STIM_006.jpg	100
2973.333	0.59	590.1	congruent	Block3	congruent/STIM_006.jpg	100
2977.903	0.437	437.2	congruent	Block3	congruent/STIM_006.jpg	100
2981.838	0.456	455.9	congruent	Block3	congruent/STIM_006.jpg	99
2984.583	0.678	677.9	congruent	Block3	congruent/STIM_007.jpg	99
2988.12	0.438	438.4	congruent	Block3	congruent/STIM_007.jpg	100
2990.66	0.667	666.6	congruent	Block3	congruent/STIM_007.jpg	99
2993.658	0.442	442.4	congruent	Block3	congruent/STIM_007.jpg	99
2996.427	0.772	772.2	congruent	Block3	congruent/STIM_007.jpg	100
3000.844	0.553	552.6	congruent	Block3	congruent/STIM_008.jpg	100
3003.981	0.762	761.8	congruent	Block3	congruent/STIM_008.jpg	99
3008.123	0.708	708.3	congruent	Block3	congruent/STIM_008.jpg	99
3011.26	0.738	737.9	congruent	Block3	congruent/STIM_008.jpg	99
3015.658	0.782	782.5	congruent	Block3	congruent/STIM_008.jpg	100
3020.161	0.463	462.7	congruent	Block3	congruent/STIM_009.jpg	99
3024.572	0.605	604.8	congruent	Block3	congruent/STIM_009.jpg	99
3027.339	0.59	590.5	congruent	Block3	congruent/STIM_009.jpg	100
3031.362	0.71	710.2	congruent	Block3	congruent/STIM_009.jpg	99
3035.715	0.532	531.6	congruent	Block3	congruent/STIM_009.jpg	100
3038.643	0.536	536.4	congruent	Block3	congruent/STIM_010.jpg	99
3041.569	0.519	518.7	congruent	Block3	congruent/STIM_010.jpg	100
3045.912	0.5	499.5	congruent	Block3	congruent/STIM_010.jpg	99
3048.785	0.495	494.9	congruent	Block3	congruent/STIM_010.jpg	99
3051.482	0.501	500.9	congruent	Block3	congruent/STIM_010.jpg	100
3054.877	0.5	500.4	congruent	Block3	congruent/STIM_011.jpg	100
3059.263	0.753	752.6	congruent	Block3	congruent/STIM_011.jpg	99
3063.356	0.766	766.1	congruent	Block3	congruent/STIM_011.jpg	99
3066.368	0.548	547.6	congruent	Block3	congruent/STIM_011.jpg	99
3069.007	0.664	663.5	congruent	Block3	congruent/STIM_011.jpg	99
3072.325	0.659	658.9	congruent	Block3	congruent/STIM_012.jpg	100
3076.603	0.74	739.7	congruent	Block3	congruent/STIM_012.jpg	100
3079.951	0.5	500.2	congruent	Block3	congruent/STIM_012.jpg	99
3082.958	0.694	694.5	congruent	Block3	congruent/STIM_012.jpg	100
3086.133	0.485	485.0	congruent	Block3	congruent/STIM_012.jpg	100
3088.909	0.651	650.7	congruent	Block3	congruent/STIM_013.jpg	99
3093.542	0.487	486.7	congruent	Block3	congruent/STIM_013.jpg	99
3096.603	0.693	692.7	congruent	Block3	congruent/STIM_013.jpg	99
3099.541	0.701	700.8	congruent	Block3	congruent/STIM_013.jpg	100
3102.49	0.739	738.7	congruent	Block3	congruent/STIM_013.jpg	100
3106.277	0.64	639.7	congruent	Block3	congruent/STIM_014.jpg	100
3110.052	0.604	604.2	congruent	Block3	congruent/STIM_014.jpg	100
3113.726	0.539	539.0	congruent	Block3	congruent/STIM_014.jpg	100
3116.501	0.513	513.2	congruent	Block3	congruent/STIM_014.jpg	99
3119.355	0.738	738.3	congruent	Block3	congruent/STIM_014.jpg	99
3122.512	0.47	470.4	congruent	Block3	congruent/STIM_015.jpg	100
3126.634	0.694	693.5	congruent	Block3	congruent/STIM_015.jpg	100
3130.719	0.699	699.3	congruent	Block3	congruent/STIM_015.jpg	100
3135.303	0.778	777.9	congruent	Block3	congruent/STIM_015.jpg	99
3139.375	0.634	633.9	congruent	Block3	congruent/STIM_015.jpg	99
3142.29	0.567	566.6	congruent	Block3	congruent/STIM_016.jpg	100
3146.029	0.75	750.2	congruent	Block3	congruent/STIM_016.jpg	99
3149.084	0.695	694.7	congruent	Block3	congruent/STIM_016.jpg	100
3153.156	0.64	640.3	congruent	Block3	congruent/STIM_016.jpg	99
3157.651	0.543	543.1	congruent	Block3	congruent/STIM_016.jpg	100
3162.244	0.478	478.0	congruent	Block3	congruent/STIM_017.jpg	100
3165.626	0.5	499.9	congruent	Block3	congruent/STIM_017.jpg	99
3168.907	0.485	485.3	congruent	Block3	congruent/STIM_017.jpg	99
3173.41	0.576	575.7	congruent	Block3	congruent/STIM_017.jpg	99
3177.793	0.55	550.5	congruent	Block3	congruent/STIM_017.jpg	99
3182.341	0.485	485.0	congruent	Block3	congruent/STIM_018.jpg	99
3186.184	0.501	501.3	congruent	Block3	congruent/STIM_018.jpg	100
3189.892	0.5	499.9	congruent	Block3	congruent/STIM_018.jpg	99
3193.244	0.455	455.2	congruent	Block3	congruent/STIM_018.jpg	100
3197.173	0.508	507.8	congruent	Block3	congruent/STIM_018.jpg	99
3200.716	0.602	601.5	congruent	Block3	congruent/STIM_019.jpg	100
3205.038	0.498	498.2	congruent	Block3	congruent/STIM_019.jpg	100
3208.66	0.669	668.6	congruent	Block3	congruent/STIM_019.jpg	100
3213.112	0.759	758.7	congruent	Block3	congruent/STIM_019.jpg	99
3217.668	0.518	517.9	congruent	Block3	congruent/STIM_019.jpg	99
3221.64	0.467	466.8	congruent	Block3	congruent/STIM_020.jpg	100
3225.695	0.593	593.4	congruent	Block3	congruent/STIM_020.jpg	100
3228.833	0.618	617.9	congruent	Block3	congruent/STIM_020.jpg	99
3232.643	0.705	705.4	congruent	Block3	congruent/STIM_020.jpg	100
3235.488	0.78	779.5	congruent	Block3	congruent/STIM_020.jpg	99
3239.542	0.617	617.0	congruent	Block3	congruent/STIM_021.jpg	99
3244.006	0.681	681.2	congruent	Block3	congruent/STIM_021.jpg	100
3247.059	0.513	513.2	congruent	Block3	congruent/STIM_021.jpg	100
3250.126	0.759	759.2	congruent	Block3	congruent/STIM_021.jpg	100
3253.919	0.511	511.1	congruent	Block3	congruent/STIM_021.jpg	100
3257.073	0.487	486.8	congruent	Block3	congruent/STIM_022.jpg	100
3260.513	0.441	440.6	congruent	Block3	congruent/STIM_022.jpg	100
3264.172	0.7	700.2	congruent	Block3	congruent/STIM_022.jpg	100
3267.064	0.726	726.5	congruent	Block3	congruent/STIM_022.jpg	100
3270.314	0.597	597.3	congruent	Block3	congruent/STIM_022.jpg	99
3273.187	0.437	436.8	congruent	Block3	congruent/STIM_023.jpg	99
3276.054	0.717	717.3	congruent	Block3	congruent/STIM_023.jpg	99
3279.284	0.654	653.6	congruent	Block3	congruent/STIM_023.jpg	100
3282.188	0.756	755.8	congruent	Block3	congruent/STIM_023.jpg	99
3286.248	0.632	631.7	congruent	Block3	congruent/STIM_023.jpg	100
3290.133	0.514	513.6	congruent	Block3	congruent/STIM_024.jpg	100
3294.178	0.594	594.5	congruent	Block3	congruent/STIM_024.jpg	99
3298.524	0.752	752.4	congruent	Block3	congruent/STIM_024.jpg	99
3301.488	0.592	592.4	congruent	Block3	congruent/STIM_024.jpg	100
3305.41	0.778	778.2	congruent	Block3	congruent/STIM_024.jpg	100
3308.961	0.489	489.4	congruent	Block3	congruent/STIM_025.jpg	99
3311.853	0.782	782.0	congruent	Block3	congruent/STIM_025.jpg	100
3316.671	0.629	629.3	congruent	Block3	congruent/STIM_025.jpg	99
3320.536	0.492	492.4	congruent	Block3	congruent/STIM_025.jpg	100
3323.12	0.685	684.7	congruent	Block3	congruent/STIM_025.jpg	99
3326.2	0.45	450.5	congruent	Block3	congruent/STIM_026.jpg	100
3328.926	0.691	691.1	congruent	Block3	congruent/STIM_026.jpg	100
3333.056	0.721	720.7	congruent	Block3	congruent/STIM_026.jpg	99
3336.143	0.524	524.5	congruent	Block3	congruent/STIM_026.jpg	100
3339.397	0.452	452.0	congruent	Block3	congruent/STIM_026.jpg	100
3343.159	0.752	751.8	congruent	Block3	congruent/STIM_027.jpg	100
3346.375	0.463	462.8	congruent	Block3	congruent/STIM_027.jpg	99
3350.409	0.457	457.2	congruent	Block3	congruent/STIM_027.jpg	100
3353.534	0.567	567.2	congruent	Block3	congruent/STIM_027.jpg	100
3357.914	0.723	722.7	congruent	Block3	congruent/STIM_027.jpg	100
3360.843	0.69	690.2	congruent	Block3	congruent/STIM_028.jpg	100
3364.175	0.78	779.9	congruent	Block3	congruent/STIM_028.jpg	99
3368.512	0.589	588.7	congruent	Block3	congruent/STIM_028.jpg	100
3371.329	0.599	598.8	congruent	Block3	congruent/STIM_028.jpg	100
3375.917	0.544	544.2	congruent	Block3	congruent/STIM_028.jpg	99
3379.111	0.443	443.1	congruent	Block3	congruent/STIM_029.jpg	100
3383.552	0.777	776.6	congruent	Block3	congruent/STIM_029.jpg	100
3386.532	0.698	698.3	congruent	Block3	congruent/STIM_029.jpg	100
3389.407	0.565	564.9	congruent	Block3	congruent/STIM_029.jpg	99
3392.431	0.518	518.1	congruent	Block3	congruent/STIM_029.jpg	99
