onset	duration	accuracy	trial_type	learning_stage	stimulus
0.0	1.047	correct	incongruent	Block1	incongruent/STIM_000.jpg
4.739	1.016	correct	incongruent	Block1	incongruent/STIM_000.jpg
7.955	0.918	correct	incongruent	Block1	incongruent/STIM_000.jpg
11.945	0.615	correct	incongruent	Block1	incongruent/STIM_000.jpg
14.871	0.742	incorrect	incongruent	Block1	incongruent/STIM_000.jpg
18.988	0.714	correct	incongruent	Block1	incongruent/STIM_001.jpg
22.676	0.664	correct	incongruent	Block1	incongruent/STIM_001.jpg
26.548	0.622	correct	incongruent	Block1	incongruent/STIM_001.jpg
30.02	1.016	correct	incongruent	Block1	incongruent/STIM_001.jpg
35.053	0.982	correct	incongruent	Block1	incongruent/STIM_001.jpg
38.898	1.114	correct	incongruent	Block1	incongruent/STIM_002.jpg
43.761	0.959	incorrect	incongruent	Block1	incongruent/STIM_002.jpg
48.299	0.7	correct	incongruent	Block1	incongruent/STIM_002.jpg
53.071	0.951	correct	incongruent	Block1	incongruent/STIM_002.jpg
57.05	1.039	correct	incongruent	Block1	incongruent/STIM_002.jpg
61.024	0.637	incorrect	incongruent	Block1	incongruent/STIM_003.jpg
64.154	0.823	correct	incongruent	Block1	incongruent/STIM_003.jpg
67.115	0.631	correct	incongruent	Block1	incongruent/STIM_003.jpg
71.728	0.869	correct	incongruent	Block1	incongruent/STIM_003.jpg
75.035	0.948	correct	incongruent	Block1	incongruent/STIM_003.jpg
78.71	1.126	correct	incongruent	Block1	incongruent/STIM_004.jpg
82.362	1.235	correct	incongruent	Block1	incongruent/STIM_004.jpg
86.705	0.622	correct	incongruent	Block1	incongruent/STIM_004.jpg
89.881	0.539	incorrect	incongruent	Block1	incongruent/STIM_004.jpg
93.259	1.044	incorrect	incongruent	Block1	incongruent/STIM_004.jpg
96.512	0.973	correct	incongruent	Block1	incongruent/STIM_005.jpg
100.574	1.106	correct	incongruent	Block1	incongruent/STIM_005.jpg
104.481	0.89	correct	incongruent	Block1	incongruent/STIM_005.jpg
108.214	0.563	correct	incongruent	Block1	incongruent/STIM_005.jpg
112.823	0.642	correct	incongruent	Block1	incongruent/STIM_005.jpg
116.183	1.099	correct	incongruent	Block1	incongruent/STIM_006.jpg
121.444	0.609	correct	incongruent	Block1	incongruent/STIM_006.jpg
125.044	1.105	correct	incongruent	Block1	incongruent/STIM_006.jpg
129.04	0.519	correct	incongruent	Block1	incongruent/STIM_006.jpg
133.482	0.523	correct	incongruent	Block1	incongruent/STIM_006.jpg
136.563	1.157	incorrect	incongruent	Block1	incongruent/STIM_007.jpg
140.59	1.194	correct	incongruent	Block1	incongruent/STIM_007.jpg
144.039	0.947	correct	incongruent	Block1	incongruent/STIM_007.jpg
148.418	0.988	correct	incongruent	Block1	incongruent/STIM_007.jpg
153.248	0.689	correct	incongruent	Block1	incongruent/STIM_007.jpg
156.379	0.788	correct	incongruent	Block1	incongruent/STIM_008.jpg
160.298	0.76	correct	incongruent	Block1	incongruent/STIM_008.jpg
164.462	1.145	incorrect	incongruent	Block1	incongruent/STIM_008.jpg
167.988	1.065	correct	incongruent	Block1	incongruent/STIM_008.jpg
171.669	0.67	correct	incongruent	Block1	incongruent/STIM_008.jpg
175.452	0.635	correct	incongruent	Block1	incongruent/STIM_009.jpg
179.283	1.017	correct	incongruent	Block1	incongruent/STIM_009.jpg
184.234	0.94	correct	incongruent	Block1	incongruent/STIM_009.jpg
188.605	0.704	correct	incongruent	Block1	incongruent/STIM_009.jpg
191.935	1.036	correct	incongruent	Block1	incongruent/STIM_009.jpg
197.026	0.797	correct	incongruent	Block1	incongruent/STIM_010.jpg
201.23	1.024	correct	incongruent	Block1	incongruent/STIM_010.jpg
205.944	0.726	correct	incongruent	Block1	incongruent/STIM_010.jpg
210.603	0.913	correct	incongruent	Block1	incongruent/STIM_010.jpg
215.353	0.999	incorrect	incongruent	Block1	incongruent/STIM_010.jpg
219.892	0.923	correct	incongruent	Block1	incongruent/STIM_011.jpg
223.496	1.063	correct	incongruent	Block1	incongruent/STIM_011.jpg
227.989	0.669	correct	incongruent	Block1	incongruent/STIM_011.jpg
231.554	1.078	correct	incongruent	Block1	incongruent/STIM_011.jpg
236.542	0.584	correct	incongruent	Block1	incongruent/STIM_011.jpg
240.359	0.619	correct	incongruent	Block1	incongruent/STIM_012.jpg
244.716	1.153	correct	incongruent	Block1	incongruent/STIM_012.jpg
249.504	0.623	correct	incongruent	Block1	incongruent/STIM_012.jpg
252.375	0.943	correct	incongruent	Block1	incongruent/STIM_012.jpg
256.82	0.537	correct	incongruent	Block1	incongruent/STIM_012.jpg
260.154	0.988	correct	incongruent	Block1	incongruent/STIM_013.jpg
264.661	0.928	incorrect	incongruent	Block1	incongruent/STIM_013.jpg
268.8	0.764	correct	incongruent	Block1	incongruent/STIM_013.jpg
272.346	0.548	correct	incongruent	Block1	incongruent/STIM_013.jpg
276.193	0.743	correct	incongruent	Block1	incongruent/STIM_013.jpg
280.673	0.859	correct	incongruent	Block1	incongruent/STIM_014.jpg
284.74	0.984	correct	incongruent	Block1	incongruent/STIM_014.jpg
288.78	0.979	correct	incongruent	Block1	incongruent/STIM_014.jpg
292.224	0.548	correct	incongruent	Block1	incongruent/STIM_014.jpg
295.15	0.942	correct	incongruent	Block1	incongruent/STIM_014.jpg
299.451	1.048	correct	incongruent	Block1	incongruent/STIM_015.jpg
304.187	0.987	correct	incongruent	Block1	incongruent/STIM_015.jpg
307.65	0.99	correct	incongruent	Block1	incongruent/STIM_015.jpg
311.326	0.944	correct	incongruent	Block1	incongruent/STIM_015.jpg
315.488	0.978	incorrect	incongruent	Block1	incongruent/STIM_015.jpg
320.073	0.67	correct	incongruent	Block1	incongruent/STIM_016.jpg
323.583	0.751	correct	incongruent	Block1	incongruent/STIM_016.jpg
327.374	0.967	incorrect	incongruent	Block1	incongruent/STIM_016.jpg
332.133	0.674	correct	incongruent	Block1	incongruent/STIM_016.jpg
336.252	0.541	correct	incongruent	Block1	incongruent/STIM_016.jpg
339.997	1.295	correct	incongruent	Block1	incongruent/STIM_017.jpg
343.615	0.622	correct	incongruent	Block1	incongruent/STIM_017.jpg
347.317	0.59	correct	incongruent	Block1	incongruent/STIM_017.jpg
351.432	0.755	correct	incongruent	Block1	incongruent/STIM_017.jpg
355.752	0.966	correct	incongruent	Block1	incongruent/STIM_017.jpg
360.559	0.639	incorrect	incongruent	Block1	incongruent/STIM_018.jpg
363.459	0.976	incorrect	incongruent	Block1	incongruent/STIM_018.jpg
367.365	0.548	correct	incongruent	Block1	incongruent/STIM_018.jpg
371.089	0.925	correct	incongruent	Block1	incongruent/STIM_018.jpg
374.728	0.624	correct	incongruent	Block1	incongruent/STIM_018.jpg
379.122	0.624	incorrect	incongruent	Block1	incongruent/STIM_019.jpg
382.603	1.194	correct	incongruent	Block1	incongruent/STIM_019.jpg
387.524	0.568	correct	incongruent	Block1	incongruent/STIM_019.jpg
391.467	0.847	correct	incongruent	Block1	incongruent/STIM_019.jpg
396.283	0.85	correct	incongruent	Block1	incongruent/STIM_019.jpg
399.297	0.675	correct	incongruent	Block1	incongruent/STIM_020.jpg
403.465	0.753	correct	incongruent	Block1	incongruent/STIM_020.jpg
406.69	1.123	correct	incongruent	Block1	incongruent/STIM_020.jpg
410.095	1.012	correct	incongruent	Block1	incongruent/STIM_020.jpg
414.318	0.654	correct	incongruent	Block1	incongruent/STIM_020.jpg
418.773	1.08	correct	incongruent	Block1	incongruent/STIM_021.jpg
422.876	0.879	correct	incongruent	Block1	incongruent/STIM_021.jpg
426.391	0.631	correct	incongruent	Block1	incongruent/STIM_021.jpg
430.946	0.618	correct	incongruent	Block1	incongruent/STIM_021.jpg
434.151	0.771	correct	incongruent	Block1	incongruent/STIM_021.jpg
438.24	0.929	incorrect	incongruent	Block1	incongruent/STIM_022.jpg
442.688	0.847	correct	incongruent	Block1	incongruent/STIM_022.jpg
447.465	0.832	correct	incongruent	Block1	incongruent/STIM_022.jpg
452.281	1.024	correct	incongruent	Block1	incongruent/STIM_022.jpg
456.828	0.776	correct	incongruent	Block1	incongruent/STIM_022.jpg
460.258	1.258	correct	incongruent	Block1	incongruent/STIM_023.jpg
465.531	0.981	correct	incongruent	Block1	incongruent/STIM_023.jpg
468.714	0.977	correct	incongruent	Block1	incongruent/STIM_023.jpg
472.314	1.051	correct	incongruent	Block1	incongruent/STIM_023.jpg
477.117	0.704	correct	incongruent	Block1	incongruent/STIM_023.jpg
480.855	0.951	correct	incongruent	Block1	incongruent/STIM_024.jpg
484.147	1.048	correct	incongruent	Block1	incongruent/STIM_024.jpg
489.025	1.002	correct	incongruent	Block1	incongruent/STIM_024.jpg
493.748	0.839	correct	incongruent	Block1	incongruent/STIM_024.jpg
498.396	0.72	correct	incongruent	Block1	incongruent/STIM_024.jpg
502.179	0.744	correct	incongruent	Block1	incongruent/STIM_025.jpg
506.292	1.175	correct	incongruent	Block1	incongruent/STIM_025.jpg
511.159	1.124	incorrect	incongruent	Block1	incongruent/STIM_025.jpg
516.039	0.994	correct	incongruent	Block1	incongruent/STIM_025.jpg
519.706	0.947	correct	incongruent	Block1	incongruent/STIM_025.jpg
523.204	0.8	correct	incongruent	Block1	incongruent/STIM_026.jpg
526.163	0.732	correct	incongruent	Block1	incongruent/STIM_026.jpg
529.394	0.553	correct	incongruent	Block1	incongruent/STIM_026.jpg
533.714	1.106	correct	incongruent	Block1	incongruent/STIM_026.jpg
538.325	1.023	correct	incongruent	Block1	incongruent/STIM_026.jpg
541.953	1.019	correct	incongruent	Block1	incongruent/STIM_027.jpg
546.275	0.808	correct	incongruent	Block1	incongruent/STIM_027.jpg
549.933	0.753	incorrect	incongruent	Block1	incongruent/STIM_027.jpg
552.813	0.853	correct	incongruent	Block1	incongruent/STIM_027.jpg
557.766	0.636	incorrect	incongruent	Block1	incongruent/STIM_027.jpg
560.992	0.858	correct	incongruent	Block1	incongruent/STIM_028.jpg
565.734	0.702	correct	incongruent	Block1	incongruent/STIM_028.jpg
569.987	0.615	correct	incongruent	Block1	incongruent/STIM_028.jpg
573.466	0.734	correct	incongruent	Block1	incongruent/STIM_028.jpg
576.954	0.748	correct	incongruent	Block1	incongruent/STIM_028.jpg
581.456	0.748	correct	incongruent	Block1	incongruent/STIM_029.jpg
585.275	0.929	incorrect	incongruent	Block1	incongruent/STIM_029.jpg
589.605	1.05	correct	incongruent	Block1	incongruent/STIM_029.jpg
593.397	0.562	correct	incongruent	Block1	incongruent/STIM_029.jpg
597.099	1.036	correct	incongruent	Block1	incongruent/STIM_029.jpg
600.721	0.532	correct	congruent	Block1	congruent/STIM_000.jpg
604.918	0.479	correct	congruent	Block1	congruent/STIM_000.jpg
609.2	0.484	correct	congruent	Block1	congruent/STIM_000.jpg
613.277	0.531	correct	congruent	Block1	congruent/STIM_000.jpg
617.738	0.522	correct	congruent	Block1	congruent/STIM_000.jpg
620.922	0.626	correct	congruent	Block1	congruent/STIM_001.jpg
625.083	0.461	correct	congruent	Block1	congruent/STIM_001.jpg
627.636	0.617	correct	congruent	Block1	congruent/STIM_001.jpg
630.427	0.597	correct	congruent	Block1	congruent/STIM_001.jpg
634.162	0.721	correct	congruent	Block1	congruent/STIM_001.jpg
637.346	0.702	correct	congruent	Block1	congruent/STIM_002.jpg
641.124	0.523	correct	congruent	Block1	congruent/STIM_002.jpg
644.819	0.609	correct	congruent	Block1	congruent/STIM_002.jpg
648.914	0.583	correct	congruent	Block1	congruent/STIM_002.jpg
652.872	0.669	correct	congruent	Block1	congruent/STIM_002.jpg
656.636	0.444	correct	congruent	Block1	congruent/STIM_003.jpg
660.565	0.565	correct	congruent	Block1	congruent/STIM_003.jpg
663.523	0.59	correct	congruent	Block1	congruent/STIM_003.jpg
666.595	0.609	correct	congruent	Block1	congruent/STIM_003.jpg
670.167	0.491	correct	congruent	Block1	congruent/STIM_003.jpg
673.987	0.717	correct	congruent	Block1	congruent/STIM_004.jpg
677.564	0.571	correct	congruent	Block1	congruent/STIM_004.jpg
681.409	0.718	correct	congruent	Block1	congruent/STIM_004.jpg
686.134	0.443	correct	congruent	Block1	congruent/STIM_004.jpg
689.665	0.648	correct	congruent	Block1	congruent/STIM_004.jpg
694.185	0.506	correct	congruent	Block1	congruent/STIM_005.jpg
698.744	0.706	incorrect	congruent	Block1	congruent/STIM_005.jpg
701.654	0.771	correct	congruent	Block1	congruent/STIM_005.jpg
705.646	0.783	correct	congruent	Block1	congruent/STIM_005.jpg
709.226	0.669	correct	congruent	Block1	congruent/STIM_005.jpg
713.654	0.755	correct	congruent	Block1	congruent/STIM_006.jpg
717.357	0.661	correct	congruent	Block1	congruent/STIM_006.jpg
720.423	0.629	correct	congruent	Block1	congruent/STIM_006.jpg
723.844	0.611	correct	congruent	Block1	congruent/STIM_006.jpg
728.225	0.666	correct	congruent	Block1	congruent/STIM_006.jpg
731.153	0.76	correct	congruent	Block1	congruent/STIM_007.jpg
734.241	0.595	correct	congruent	Block1	congruent/STIM_007.jpg
738.749	0.487	correct	congruent	Block1	congruent/STIM_007.jpg
742.572	0.522	correct	congruent	Block1	congruent/STIM_007.jpg
745.475	0.761	correct	congruent	Block1	congruent/STIM_007.jpg
748.881	0.614	correct	congruent	Block1	congruent/STIM_008.jpg
751.654	0.522	correct	congruent	Block1	congruent/STIM_008.jpg
755.864	0.627	correct	congruent	Block1	congruent/STIM_008.jpg
759.711	0.681	correct	congruent	Block1	congruent/STIM_008.jpg
764.061	0.708	correct	congruent	Block1	congruent/STIM_008.jpg
767.61	0.759	correct	congruent	Block1	congruent/STIM_009.jpg
771.88	0.524	correct	congruent	Block1	congruent/STIM_009.jpg
774.54	0.534	correct	congruent	Block1	congruent/STIM_009.jpg
778.91	0.522	correct	congruent	Block1	congruent/STIM_009.jpg
781.687	0.587	correct	congruent	Block1	congruent/STIM_009.jpg
784.976	0.543	correct	congruent	Block1	congruent/STIM_010.jpg
787.824	0.488	correct	congruent	Block1	congruent/STIM_010.jpg
791.975	0.656	correct	congruent	Block1	congruent/STIM_010.jpg
795.226	0.624	correct	congruent	Block1	congruent/STIM_010.jpg
799.211	0.617	incorrect	congruent	Block1	congruent/STIM_010.jpg
802.741	0.65	correct	congruent	Block1	congruent/STIM_011.jpg
807.398	0.69	correct	congruent	Block1	congruent/STIM_011.jpg
811.77	0.688	correct	congruent	Block1	congruent/STIM_011.jpg
815.095	0.748	correct	congruent	Block1	congruent/STIM_011.jpg
818.681	0.554	correct	congruent	Block1	congruent/STIM_011.jpg
821.356	0.622	correct	congruent	Block1	congruent/STIM_012.jpg
825.251	0.564	correct	congruent	Block1	congruent/STIM_012.jpg
829.229	0.671	correct	congruent	Block1	congruent/STIM_012.jpg
832.974	0.598	correct	congruent	Block1	congruent/STIM_012.jpg
837.479	0.6	correct	congruent	Block1	congruent/STIM_012.jpg
841.044	0.751	correct	congruent	Block1	congruent/STIM_013.jpg
845.616	0.448	correct	congruent	Block1	congruent/STIM_013.jpg
849.489	0.492	correct	congruent	Block1	congruent/STIM_013.jpg
853.055	0.492	correct	congruent	Block1	congruent/STIM_013.jpg
856.176	0.49	correct	congruent	Block1	congruent/STIM_013.jpg
860.254	0.572	correct	congruent	Block1	congruent/STIM_014.jpg
864.015	0.773	correct	congruent	Block1	congruent/STIM_014.jpg
867.343	0.611	correct	congruent	Block1	congruent/STIM_014.jpg
870.29	0.623	correct	congruent	Block1	congruent/STIM_014.jpg
873.934	0.632	correct	congruent	Block1	congruent/STIM_014.jpg
877.903	0.695	correct	congruent	Block1	congruent/STIM_015.jpg
882.11	0.481	correct	congruent	Block1	congruent/STIM_015.jpg
885.006	0.64	correct	congruent	Block1	congruent/STIM_015.jpg
889.204	0.519	correct	congruent	Block1	congruent/STIM_015.jpg
893.791	0.708	correct	congruent	Block1	congruent/STIM_015.jpg
898.597	0.703	correct	congruent	Block1	congruent/STIM_016.jpg
901.686	0.46	correct	congruent	Block1	congruent/STIM_016.jpg
904.554	0.641	correct	congruent	Block1	congruent/STIM_016.jpg
908.076	0.501	correct	congruent	Block1	congruent/STIM_016.jpg
910.925	0.615	correct	congruent	Block1	congruent/STIM_016.jpg
915.21	0.599	correct	congruent	Block1	congruent/STIM_017.jpg
918.532	0.731	correct	congruent	Block1	congruent/STIM_017.jpg
921.63	0.63	correct	congruent	Block1	congruent/STIM_017.jpg
924.712	0.634	correct	congruent	Block1	congruent/STIM_017.jpg
928.5	0.482	correct	congruent	Block1	congruent/STIM_017.jpg
931.477	0.514	correct	congruent	Block1	congruent/STIM_018.jpg
935.21	0.607	correct	congruent	Block1	congruent/STIM_018.jpg
938.327	0.63	correct	congruent	Block1	congruent/STIM_018.jpg
942.246	0.688	correct	congruent	Block1	congruent/STIM_018.jpg
946.738	0.549	correct	congruent	Block1	congruent/STIM_018.jpg
951.173	0.468	correct	congruent	Block1	congruent/STIM_019.jpg
954.844	0.454	correct	congruent	Block1	congruent/STIM_019.jpg
958.541	0.5	correct	congruent	Block1	congruent/STIM_019.jpg
962.919	0.644	correct	congruent	Block1	congruent/STIM_019.jpg
966.991	0.684	correct	congruent	Block1	congruent/STIM_019.jpg
970.993	0.557	correct	congruent	Block1	congruent/STIM_020.jpg
973.825	0.699	correct	congruent	Block1	congruent/STIM_020.jpg
977.089	0.701	correct	congruent	Block1	congruent/STIM_020.jpg
980.609	0.506	correct	congruent	Block1	congruent/STIM_020.jpg
985.179	0.527	correct	congruent	Block1	congruent/STIM_020.jpg
988.348	0.476	correct	congruent	Block1	congruent/STIM_021.jpg
992.199	0.464	correct	congruent	Block1	congruent/STIM_021.jpg
994.959	0.755	correct	congruent	Block1	congruent/STIM_021.jpg
999.084	0.683	correct	congruent	Block1	congruent/STIM_021.jpg
1002.355	0.546	correct	congruent	Block1	congruent/STIM_021.jpg
1006.958	0.606	correct	congruent	Block1	congruent/STIM_022.jpg
1010.513	0.582	correct	congruent	Block1	congruent/STIM_022.jpg
1015.175	0.543	correct	congruent	Block1	congruent/STIM_022.jpg
1019.58	0.554	incorrect	congruent	Block1	congruent/STIM_022.jpg
1022.974	0.776	correct	congruent	Block1	congruent/STIM_022.jpg
1026.902	0.726	correct	congruent	Block1	congruent/STIM_023.jpg
1030.854	0.776	correct	congruent	Block1	congruent/STIM_023.jpg
1035.472	0.724	correct	congruent	Block1	congruent/STIM_023.jpg
1039.972	0.636	correct	congruent	Block1	congruent/STIM_023.jpg
1042.912	0.652	correct	congruent	Block1	congruent/STIM_023.jpg
1046.168	0.752	incorrect	congruent	Block1	congruent/STIM_024.jpg
1050.84	0.732	correct	congruent	Block1	congruent/STIM_024.jpg
1054.989	0.565	correct	congruent	Block1	congruent/STIM_024.jpg
1059.59	0.757	correct	congruent	Block1	congruent/STIM_024.jpg
1063.993	0.482	correct	congruent	Block1	congruent/STIM_024.jpg
1068.186	0.729	correct	congruent	Block1	congruent/STIM_025.jpg
1071.733	0.608	correct	congruent	Block1	congruent/STIM_025.jpg
1075.327	0.623	correct	congruent	Block1	congruent/STIM_025.jpg
1078.518	0.492	correct	congruent	Block1	congruent/STIM_025.jpg
1082.818	0.474	correct	congruent	Block1	congruent/STIM_025.jpg
1087.273	0.685	correct	congruent	Block1	congruent/STIM_026.jpg
1091.664	0.78	correct	congruent	Block1	congruent/STIM_026.jpg
1094.908	0.656	correct	congruent	Block1	congruent/STIM_026.jpg
1098.594	0.509	correct	congruent	Block1	congruent/STIM_026.jpg
1101.524	0.632	correct	congruent	Block1	congruent/STIM_026.jpg
1105.975	0.55	correct	congruent	Block1	congruent/STIM_027.jpg
1108.648	0.774	correct	congruent	Block1	congruent/STIM_027.jpg
1111.576	0.452	correct	congruent	Block1	congruent/STIM_027.jpg
1115.11	0.489	correct	congruent	Block1	congruent/STIM_027.jpg
1117.802	0.446	correct	congruent	Block1	congruent/STIM_027.jpg
1121.674	0.453	correct	congruent	Block1	congruent/STIM_028.jpg
1126.039	0.62	correct	congruent	Block1	congruent/STIM_028.jpg
1130.59	0.603	correct	congruent	Block1	congruent/STIM_028.jpg
1134.441	0.503	correct	congruent	Block1	congruent/STIM_028.jpg
1137.111	0.634	correct	congruent	Block1	congruent/STIM_028.jpg
1140.386	0.563	correct	congruent	Block1	congruent/STIM_029.jpg
1143.082	0.638	correct	congruent	Block1	congruent/STIM_029.jpg
1147.703	0.53	correct	congruent	Block1	congruent/STIM_029.jpg
1152.292	0.527	correct	congruent	Block1	congruent/STIM_029.jpg
1156.211	0.516	correct	congruent	Block1	congruent/STIM_029.jpg
1160.694	0.583	correct	incongruent	Block2	incongruent/STIM_000.jpg
1164.116	0.962	correct	incongruent	Block2	incongruent/STIM_000.jpg
1167.237	0.593	correct	incongruent	Block2	incongruent/STIM_000.jpg
1170.52	0.768	correct	incongruent	Block2	incongruent/STIM_000.jpg
1173.573	0.773	correct	incongruent	Block2	incongruent/STIM_000.jpg
1177.442	0.968	correct	incongruent	Block2	incongruent/STIM_001.jpg
1181.559	0.703	correct	incongruent	Block2	incongruent/STIM_001.jpg
1184.719	0.949	correct	incongruent	Block2	incongruent/STIM_001.jpg
1187.998	0.746	correct	incongruent	Block2	incongruent/STIM_001.jpg
1192.027	0.584	correct	incongruent	Block2	incongruent/STIM_001.jpg
1195.149	0.809	correct	incongruent	Block2	incongruent/STIM_002.jpg
1199.804	0.601	correct	incongruent	Block2	incongruent/STIM_002.jpg
1203.129	0.563	correct	incongruent	Block2	incongruent/STIM_002.jpg
1205.896	0.583	correct	incongruent	Block2	incongruent/STIM_002.jpg
1209.797	0.487	correct	incongruent	Block2	incongruent/STIM_002.jpg
1212.848	0.525	incorrect	incongruent	Block2	incongruent/STIM_003.jpg
1216.705	0.89	correct	incongruent	Block2	incongruent/STIM_003.jpg
1220.731	0.864	correct	incongruent	Block2	incongruent/STIM_003.jpg
1225.651	0.755	correct	incongruent	Block2	incongruent/STIM_003.jpg
1228.641	0.739	correct	incongruent	Block2	incongruent/STIM_003.jpg
1231.736	0.575	correct	incongruent	Block2	incongruent/STIM_004.jpg
1234.433	1.043	incorrect	incongruent	Block2	incongruent/STIM_004.jpg
1238.214	0.602	correct	incongruent	Block2	incongruent/STIM_004.jpg
1241.14	0.734	correct	incongruent	Block2	incongruent/STIM_004.jpg
1244.541	0.7	correct	incongruent	Block2	incongruent/STIM_004.jpg
1248.184	0.69	correct	incongruent	Block2	incongruent/STIM_005.jpg
1252.086	0.508	correct	incongruent	Block2	incongruent/STIM_005.jpg
1255.784	0.529	correct	incongruent	Block2	incongruent/STIM_005.jpg
1258.872	0.873	correct	incongruent	Block2	incongruent/STIM_005.jpg
1262.346	0.571	correct	incongruent	Block2	incongruent/STIM_005.jpg
1266.988	0.905	correct	incongruent	Block2	incongruent/STIM_006.jpg
1271.529	0.812	correct	incongruent	Block2	incongruent/STIM_006.jpg
1275.739	0.778	correct	incongruent	Block2	incongruent/STIM_006.jpg
1280.293	0.55	correct	incongruent	Block2	incongruent/STIM_006.jpg
1283.093	0.798	correct	incongruent	Block2	incongruent/STIM_006.jpg
1286.277	0.734	incorrect	incongruent	Block2	incongruent/STIM_007.jpg
1290.966	0.647	correct	incongruent	Block2	incongruent/STIM_007.jpg
1293.818	0.832	correct	incongruent	Block2	incongruent/STIM_007.jpg
1298.515	0.71	correct	incongruent	Block2	incongruent/STIM_007.jpg
1301.723	0.678	correct	incongruent	Block2	incongruent/STIM_007.jpg
1305.606	0.558	correct	incongruent	Block2	incongruent/STIM_008.jpg
1309.24	0.557	correct	incongruent	Block2	incongruent/STIM_008.jpg
1313.165	0.591	correct	incongruent	Block2	incongruent/STIM_008.jpg
1316.545	0.499	correct	incongruent	Block2	incongruent/STIM_008.jpg
1319.835	0.584	incorrect	incongruent	Block2	incongruent/STIM_008.jpg
1323.591	1.096	correct	incongruent	Block2	incongruent/STIM_009.jpg
1328.806	0.609	correct	incongruent	Block2	incongruent/STIM_009.jpg
1333.077	0.809	correct	incongruent	Block2	incongruent/STIM_009.jpg
1337.473	0.768	correct	incongruent	Block2	incongruent/STIM_009.jpg
1341.556	0.615	correct	incongruent	Block2	incongruent/STIM_009.jpg
1345.532	0.766	correct	incongruent	Block2	incongruent/STIM_010.jpg
1349.684	0.786	correct	incongruent	Block2	incongruent/STIM_010.jpg
1352.607	0.952	correct	incongruent	Block2	incongruent/STIM_010.jpg
1356.048	0.561	correct	incongruent	Block2	incongruent/STIM_010.jpg
1359.178	0.85	correct	incongruent	Block2	incongruent/STIM_010.jpg
1363.657	0.841	correct	incongruent	Block2	incongruent/STIM_011.jpg
1367.552	0.743	correct	incongruent	Block2	incongruent/STIM_011.jpg
1370.893	0.595	correct	incongruent	Block2	incongruent/STIM_011.jpg
1375.03	0.578	correct	incongruent	Block2	incongruent/STIM_011.jpg
1379.359	0.677	correct	incongruent	Block2	incongruent/STIM_011.jpg
1383.971	0.529	correct	incongruent	Block2	incongruent/STIM_012.jpg
1387.054	0.603	correct	incongruent	Block2	incongruent/STIM_012.jpg
1390.203	0.63	correct	incongruent	Block2	incongruent/STIM_012.jpg
1394.796	0.659	correct	incongruent	Block2	incongruent/STIM_012.jpg
1398.157	0.674	correct	incongruent	Block2	incongruent/STIM_012.jpg
1402.123	0.982	correct	incongruent	Block2	incongruent/STIM_013.jpg
1405.485	0.852	correct	incongruent	Block2	incongruent/STIM_013.jpg
1410.366	0.624	correct	incongruent	Block2	incongruent/STIM_013.jpg
1413.901	0.907	correct	incongruent	Block2	incongruent/STIM_013.jpg
1418.184	0.704	correct	incongruent	Block2	incongruent/STIM_013.jpg
1421.132	0.786	correct	incongruent	Block2	incongruent/STIM_014.jpg
1424.108	0.99	correct	incongruent	Block2	incongruent/STIM_014.jpg
1427.958	0.838	correct	incongruent	Block2	incongruent/STIM_014.jpg
1432.375	0.858	correct	incongruent	Block2	incongruent/STIM_014.jpg
1436.586	0.606	correct	incongruent	Block2	incongruent/STIM_014.jpg
1440.43	0.936	correct	incongruent	Block2	incongruent/STIM_015.jpg
1444.046	0.532	correct	incongruent	Block2	incongruent/STIM_015.jpg
1446.667	0.56	correct	incongruent	Block2	incongruent/STIM_015.jpg
1450.51	0.666	correct	incongruent	Block2	incongruent/STIM_015.jpg
1455.094	0.855	correct	incongruent	Block2	incongruent/STIM_015.jpg
1459.731	0.717	correct	incongruent	Block2	incongruent/STIM_016.jpg
1463.353	0.876	correct	incongruent	Block2	incongruent/STIM_016.jpg
1466.496	0.553	correct	incongruent	Block2	incongruent/STIM_016.jpg
1469.442	0.489	correct	incongruent	Block2	incongruent/STIM_016.jpg
1472.878	0.789	correct	incongruent	Block2	incongruent/STIM_016.jpg
1477.014	1.024	correct	incongruent	Block2	incongruent/STIM_017.jpg
1481.479	0.621	correct	incongruent	Block2	incongruent/STIM_017.jpg
1485.805	0.646	correct	incongruent	Block2	incongruent/STIM_017.jpg
1489.067	0.489	correct	incongruent	Block2	incongruent/STIM_017.jpg
1493.35	0.51	correct	incongruent	Block2	incongruent/STIM_017.jpg
1496.707	0.756	correct	incongruent	Block2	incongruent/STIM_018.jpg
1499.619	0.556	correct	incongruent	Block2	incongruent/STIM_018.jpg
1503.985	0.523	correct	incongruent	Block2	incongruent/STIM_018.jpg
1508.167	0.852	correct	incongruent	Block2	incongruent/STIM_018.jpg
1511.591	0.764	correct	incongruent	Block2	incongruent/STIM_018.jpg
1516.34	0.59	correct	incongruent	Block2	incongruent/STIM_019.jpg
1520.74	0.685	correct	incongruent	Block2	incongruent/STIM_019.jpg
1524.383	0.559	correct	incongruent	Block2	incongruent/STIM_019.jpg
1528.296	0.735	correct	incongruent	Block2	incongruent/STIM_019.jpg
1531.432	0.887	correct	incongruent	Block2	incongruent/STIM_019.jpg
1536.392	0.55	correct	incongruent	Block2	incongruent/STIM_020.jpg
1539.374	0.968	correct	incongruent	Block2	incongruent/STIM_020.jpg
1543.582	0.539	correct	incongruent	Block2	incongruent/STIM_020.jpg
1546.658	0.474	correct	incongruent	Block2	incongruent/STIM_020.jpg
1550.667	0.538	correct	incongruent	Block2	incongruent/STIM_020.jpg
1554.303	0.839	correct	incongruent	Block2	incongruent/STIM_021.jpg
1559.15	0.794	correct	incongruent	Block2	incongruent/STIM_021.jpg
1563.121	0.54	correct	incongruent	Block2	incongruent/STIM_021.jpg
1567.665	0.654	correct	incongruent	Block2	incongruent/STIM_021.jpg
1571.112	0.911	correct	incongruent	Block2	incongruent/STIM_021.jpg
1574.964	1.061	correct	incongruent	Block2	incongruent/STIM_022.jpg
1578.803	0.537	correct	incongruent	Block2	incongruent/STIM_022.jpg
1581.797	0.749	correct	incongruent	Block2	incongruent/STIM_022.jpg
1586.565	0.522	incorrect	incongruent	Block2	incongruent/STIM_022.jpg
1589.836	0.573	correct	incongruent	Block2	incongruent/STIM_022.jpg
1594.099	1.097	correct	incongruent	Block2	incongruent/STIM_023.jpg
1597.691	0.556	correct	incongruent	Block2	incongruent/STIM_023.jpg
1602.09	0.72	correct	incongruent	Block2	incongruent/STIM_023.jpg
1605.141	0.682	correct	incongruent	Block2	incongruent/STIM_023.jpg
1608.704	0.829	incorrect	incongruent	Block2	incongruent/STIM_023.jpg
1613.061	0.986	correct	incongruent	Block2	incongruent/STIM_024.jpg
1616.228	0.892	correct	incongruent	Block2	incongruent/STIM_024.jpg
1619.908	0.473	correct	incongruent	Block2	incongruent/STIM_024.jpg
1624.138	0.886	correct	incongruent	Block2	incongruent/STIM_024.jpg
1629.123	0.519	correct	incongruent	Block2	incongruent/STIM_024.jpg
1632.36	0.805	correct	incongruent	Block2	incongruent/STIM_025.jpg
1636.583	0.761	correct	incongruent	Block2	incongruent/STIM_025.jpg
1640.328	0.756	correct	incongruent	Block2	incongruent/STIM_025.jpg
1643.702	0.44	correct	incongruent	Block2	incongruent/STIM_025.jpg
1646.826	0.836	correct	incongruent	Block2	incongruent/STIM_025.jpg
1650.125	1.021	correct	incongruent	Block2	incongruent/STIM_026.jpg
1653.539	0.92	correct	incongruent	Block2	incongruent/STIM_026.jpg
1657.829	0.612	correct	incongruent	Block2	incongruent/STIM_026.jpg
1662.236	0.869	correct	incongruent	Block2	incongruent/STIM_026.jpg
1665.254	0.854	correct	incongruent	Block2	incongruent/STIM_026.jpg
1668.431	1.05	correct	incongruent	Block2	incongruent/STIM_027.jpg
1672.421	0.977	correct	incongruent	Block2	incongruent/STIM_027.jpg
1676.322	0.928	correct	incongruent	Block2	incongruent/STIM_027.jpg
1681.007	0.755	correct	incongruent	Block2	incongruent/STIM_027.jpg
1685.552	0.748	correct	incongruent	Block2	incongruent/STIM_027.jpg
1689.952	1.021	correct	incongruent	Block2	incongruent/STIM_028.jpg
1694.765	0.83	correct	incongruent	Block2	incongruent/STIM_028.jpg
1699.623	0.56	correct	incongruent	Block2	incongruent/STIM_028.jpg
1702.714	0.444	correct	incongruent	Block2	incongruent/STIM_028.jpg
1706.394	0.785	correct	incongruent	Block2	incongruent/STIM_028.jpg
1709.544	0.772	correct	incongruent	Block2	incongruent/STIM_029.jpg
1714.075	0.809	correct	incongruent	Block2	incongruent/STIM_029.jpg
1718.909	0.931	incorrect	incongruent	Block2	incongruent/STIM_029.jpg
1723.492	0.818	correct	incongruent	Block2	incongruent/STIM_029.jpg
1728.14	0.638	correct	incongruent	Block2	incongruent/STIM_029.jpg
1732.532	0.77	correct	congruent	Block2	congruent/STIM_000.jpg
1736.781	0.698	correct	congruent	Block2	congruent/STIM_000.jpg
1740.037	0.59	correct	congruent	Block2	congruent/STIM_000.jpg
1744.535	0.506	correct	congruent	Block2	congruent/STIM_000.jpg
1748.128	0.519	correct	congruent	Block2	congruent/STIM_000.jpg
1750.783	0.721	correct	congruent	Block2	congruent/STIM_001.jpg
1753.668	0.553	correct	congruent	Block2	congruent/STIM_001.jpg
1756.538	0.775	correct	congruent	Block2	congruent/STIM_001.jpg
1759.858	0.513	correct	congruent	Block2	congruent/STIM_001.jpg
1762.84	0.6	correct	congruent	Block2	congruent/STIM_001.jpg
1767.374	0.47	correct	congruent	Block2	congruent/STIM_002.jpg
1771.225	0.535	correct	congruent	Block2	congruent/STIM_002.jpg
1774.124	0.758	correct	congruent	Block2	congruent/STIM_002.jpg
1778.105	0.69	correct	congruent	Block2	congruent/STIM_002.jpg
1782.895	0.437	correct	congruent	Block2	congruent/STIM_002.jpg
1786.414	0.436	correct	congruent	Block2	congruent/STIM_003.jpg
1789.507	0.567	correct	congruent	Block2	congruent/STIM_003.jpg
1793.392	0.479	correct	congruent	Block2	congruent/STIM_003.jpg
1797.681	0.762	correct	congruent	Block2	congruent/STIM_003.jpg
1802.051	0.676	correct	congruent	Block2	congruent/STIM_003.jpg
1805.307	0.622	correct	congruent	Block2	congruent/STIM_004.jpg
1808.127	0.733	correct	congruent	Block2	congruent/STIM_004.jpg
1812.711	0.507	correct	congruent	Block2	congruent/STIM_004.jpg
1815.37	0.524	correct	congruent	Block2	congruent/STIM_004.jpg
1819.272	0.717	correct	congruent	Block2	congruent/STIM_004.jpg
1823.646	0.767	correct	congruent	Block2	congruent/STIM_005.jpg
1826.595	0.485	correct	congruent	Block2	congruent/STIM_005.jpg
1829.152	0.699	correct	congruent	Block2	congruent/STIM_005.jpg
1832.188	0.469	correct	congruent	Block2	congruent/STIM_005.jpg
1835.639	0.689	correct	congruent	Block2	congruent/STIM_005.jpg
1838.439	0.491	correct	congruent	Block2	congruent/STIM_006.jpg
1842.895	0.485	correct	congruent	Block2	congruent/STIM_006.jpg
1847.095	0.628	correct	congruent	Block2	congruent/STIM_006.jpg
1850.443	0.524	correct	congruent	Block2	congruent/STIM_006.jpg
1854.78	0.772	correct	congruent	Block2	congruent/STIM_006.jpg
1857.785	0.555	correct	congruent	Block2	congruent/STIM_007.jpg
1861.493	0.613	correct	congruent	Block2	congruent/STIM_007.jpg
1864.682	0.596	correct	congruent	Block2	congruent/STIM_007.jpg
1868.577	0.727	correct	congruent	Block2	congruent/STIM_007.jpg
1872.891	0.56	correct	congruent	Block2	congruent/STIM_007.jpg
1876.916	0.688	correct	congruent	Block2	congruent/STIM_008.jpg
1880.047	0.525	correct	congruent	Block2	congruent/STIM_008.jpg
1883.769	0.512	correct	congruent	Block2	congruent/STIM_008.jpg
1888.229	0.524	correct	congruent	Block2	congruent/STIM_008.jpg
1891.062	0.748	correct	congruent	Block2	congruent/STIM_008.jpg
1894.686	0.709	correct	congruent	Block2	congruent/STIM_009.jpg
1898.064	0.732	correct	congruent	Block2	congruent/STIM_009.jpg
1901.836	0.6	correct	congruent	Block2	congruent/STIM_009.jpg
1904.991	0.518	correct	congruent	Block2	congruent/STIM_009.jpg
1909.109	0.536	correct	congruent	Block2	congruent/STIM_009.jpg
1913.616	0.493	correct	congruent	Block2	congruent/STIM_010.jpg
1918.113	0.613	incorrect	congruent	Block2	congruent/STIM_010.jpg
1921.891	0.768	correct	congruent	Block2	congruent/STIM_010.jpg
1926.682	0.636	correct	congruent	Block2	congruent/STIM_010.jpg
1930.962	0.561	correct	congruent	Block2	congruent/STIM_010.jpg
1934.27	0.674	correct	congruent	Block2	congruent/STIM_011.jpg
1938.034	0.652	correct	congruent	Block2	congruent/STIM_011.jpg
1941.575	0.693	correct	congruent	Block2	congruent/STIM_011.jpg
1945.531	0.535	correct	congruent	Block2	congruent/STIM_011.jpg
1948.953	0.5	correct	congruent	Block2	congruent/STIM_011.jpg
1952.825	0.655	correct	congruent	Block2	congruent/STIM_012.jpg
1956.215	0.64	correct	congruent	Block2	congruent/STIM_012.jpg
1960.278	0.711	incorrect	congruent	Block2	congruent/STIM_012.jpg
1963.67	0.576	correct	congruent	Block2	congruent/STIM_012.jpg
1966.61	0.59	correct	congruent	Block2	congruent/STIM_012.jpg
1970.68	0.683	correct	congruent	Block2	congruent/STIM_013.jpg
1973.729	0.769	correct	congruent	Block2	congruent/STIM_013.jpg
1976.65	0.627	correct	congruent	Block2	congruent/STIM_013.jpg
1979.517	0.744	correct	congruent	Block2	congruent/STIM_013.jpg
1983.467	0.545	correct	congruent	Block2	congruent/STIM_013.jpg
1987.856	0.608	correct	congruent	Block2	congruent/STIM_014.jpg
1991.641	0.74	correct	congruent	Block2	congruent/STIM_014.jpg
1995.508	0.598	correct	congruent	Block2	congruent/STIM_014.jpg
1999.992	0.615	correct	congruent	Block2	congruent/STIM_014.jpg
2003.019	0.448	correct	congruent	Block2	congruent/STIM_014.jpg
2007.008	0.672	correct	congruent	Block2	congruent/STIM_015.jpg
2011.699	0.504	correct	congruent	Block2	congruent/STIM_015.jpg
2015.805	0.742	correct	congruent	Block2	congruent/STIM_015.jpg
2020.098	0.754	correct	congruent	Block2	congruent/STIM_015.jpg
2023.45	0.502	correct	congruent	Block2	congruent/STIM_015.jpg
2026.171	0.487	correct	congruent	Block2	congruent/STIM_016.jpg
2028.898	0.554	correct	congruent	Block2	congruent/STIM_016.jpg
2032.48	0.729	correct	congruent	Block2	congruent/STIM_016.jpg
2035.773	0.772	correct	congruent	Block2	congruent/STIM_016.jpg
2039.614	0.599	correct	congruent	Block2	congruent/STIM_016.jpg
2043.463	0.554	correct	congruent	Block2	congruent/STIM_017.jpg
2046.414	0.621	correct	congruent	Block2	congruent/STIM_017.jpg
2050.359	0.759	correct	congruent	Block2	congruent/STIM_017.jpg
2054.989	0.468	correct	congruent	Block2	congruent/STIM_017.jpg
2059.221	0.597	correct	congruent	Block2	congruent/STIM_017.jpg
2063.479	0.761	correct	congruent	Block2	congruent/STIM_018.jpg
2067.578	0.732	correct	congruent	Block2	congruent/STIM_018.jpg
2072.145	0.644	correct	congruent	Block2	congruent/STIM_018.jpg
2076.142	0.712	incorrect	congruent	Block2	congruent/STIM_018.jpg
2080.693	0.525	correct	congruent	Block2	congruent/STIM_018.jpg
2084.605	0.672	correct	congruent	Block2	congruent/STIM_019.jpg
2088.556	0.718	correct	congruent	Block2	congruent/STIM_019.jpg
2092.653	0.6	incorrect	congruent	Block2	congruent/STIM_019.jpg
2095.835	0.534	correct	congruent	Block2	congruent/STIM_019.jpg
2098.473	0.616	correct	congruent	Block2	congruent/STIM_019.jpg
2101.724	0.601	correct	congruent	Block2	congruent/STIM_020.jpg
2106.374	0.715	correct	congruent	Block2	congruent/STIM_020.jpg
2109.834	0.624	correct	congruent	Block2	congruent/STIM_020.jpg
2112.879	0.443	correct	congruent	Block2	congruent/STIM_020.jpg
2117.207	0.672	correct	congruent	Block2	congruent/STIM_020.jpg
2121.915	0.75	correct	congruent	Block2	congruent/STIM_021.jpg
2125.78	0.557	correct	congruent	Block2	congruent/STIM_021.jpg
2128.626	0.773	correct	congruent	Block2	congruent/STIM_021.jpg
2132.424	0.726	correct	congruent	Block2	congruent/STIM_021.jpg
2136.391	0.652	correct	congruent	Block2	congruent/STIM_021.jpg
2139.561	0.483	correct	congruent	Block2	congruent/STIM_022.jpg
2143.44	0.601	correct	congruent	Block2	congruent/STIM_022.jpg
2147.71	0.578	correct	congruent	Block2	congruent/STIM_022.jpg
2150.642	0.769	correct	congruent	Block2	congruent/STIM_022.jpg
2154.352	0.753	correct	congruent	Block2	congruent/STIM_022.jpg
2159.057	0.617	incorrect	congruent	Block2	congruent/STIM_023.jpg
2162.105	0.56	correct	congruent	Block2	congruent/STIM_023.jpg
2165.426	0.629	correct	congruent	Block2	congruent/STIM_023.jpg
2169.78	0.655	correct	congruent	Block2	congruent/STIM_023.jpg
2173.381	0.615	correct	congruent	Block2	congruent/STIM_023.jpg
2177.619	0.604	correct	congruent	Block2	congruent/STIM_024.jpg
2181.837	0.547	correct	congruent	Block2	congruent/STIM_024.jpg
2184.568	0.497	correct	congruent	Block2	congruent/STIM_024.jpg
2187.558	0.446	correct	congruent	Block2	congruent/STIM_024.jpg
2191.269	0.665	correct	congruent	Block2	congruent/STIM_024.jpg
2194.199	0.471	correct	congruent	Block2	congruent/STIM_025.jpg
2198.047	0.601	correct	congruent	Block2	congruent/STIM_025.jpg
2200.966	0.438	correct	congruent	Block2	congruent/STIM_025.jpg
2203.777	0.548	correct	congruent	Block2	congruent/STIM_025.jpg
2207.543	0.535	correct	congruent	Block2	congruent/STIM_025.jpg
2210.859	0.607	correct	congruent	Block2	congruent/STIM_026.jpg
2215.257	0.554	correct	congruent	Block2	congruent/STIM_026.jpg
2218.818	0.595	correct	congruent	Block2	congruent/STIM_026.jpg
2223.085	0.651	correct	congruent	Block2	congruent/STIM_026.jpg
2226.633	0.675	correct	congruent	Block2	congruent/STIM_026.jpg
2229.59	0.534	incorrect	congruent	Block2	congruent/STIM_027.jpg
2233.699	0.632	correct	congruent	Block2	congruent/STIM_027.jpg
2236.583	0.638	correct	congruent	Block2	congruent/STIM_027.jpg
2239.39	0.524	correct	congruent	Block2	congruent/STIM_027.jpg
2243.354	0.665	correct	congruent	Block2	congruent/STIM_027.jpg
2247.68	0.538	correct	congruent	Block2	congruent/STIM_028.jpg
2250.647	0.505	correct	congruent	Block2	congruent/STIM_028.jpg
2254.196	0.749	correct	congruent	Block2	congruent/STIM_028.jpg
2257.985	0.631	correct	congruent	Block2	congruent/STIM_028.jpg
2262.091	0.762	correct	congruent	Block2	congruent/STIM_028.jpg
2266.502	0.756	correct	congruent	Block2	congruent/STIM_029.jpg
2271.263	0.602	correct	congruent	Block2	congruent/STIM_029.jpg
2274.239	0.732	correct	congruent	Block2	congruent/STIM_029.jpg
2277.119	0.637	correct	congruent	Block2	congruent/STIM_029.jpg
2280.867	0.762	correct	congruent	Block2	congruent/STIM_029.jpg
2284.961	0.883	correct	incongruent	Block3	incongruent/STIM_000.jpg
2289.611	0.53	correct	incongruent	Block3	incongruent/STIM_000.jpg
2293.815	0.715	correct	incongruent	Block3	incongruent/STIM_000.jpg
2298.054	0.45	correct	incongruent	Block3	incongruent/STIM_000.jpg
2301.461	0.652	correct	incongruent	Block3	incongruent/STIM_000.jpg
2305.482	0.48	correct	incongruent	Block3	incongruent/STIM_001.jpg
2308.077	0.598	correct	incongruent	Block3	incongruent/STIM_001.jpg
2311.224	0.533	correct	incongruent	Block3	incongruent/STIM_001.jpg
2315.663	0.575	correct	incongruent	Block3	incongruent/STIM_001.jpg
2320.263	0.645	correct	incongruent	Block3	incongruent/STIM_001.jpg
2323.403	0.694	correct	incongruent	Block3	incongruent/STIM_002.jpg
2326.716	0.646	correct	incongruent	Block3	incongruent/STIM_002.jpg
2331.053	0.698	correct	incongruent	Block3	incongruent/STIM_002.jpg
2334.254	0.72	correct	incongruent	Block3	incongruent/STIM_002.jpg
2337.229	0.534	correct	incongruent	Block3	incongruent/STIM_002.jpg
2340.723	0.805	correct	incongruent	Block3	incongruent/STIM_003.jpg
2345.159	0.782	correct	incongruent	Block3	incongruent/STIM_003.jpg
2349.773	0.72	correct	incongruent	Block3	incongruent/STIM_003.jpg
2353.412	0.578	correct	incongruent	Block3	incongruent/STIM_003.jpg
2357.743	0.835	correct	incongruent	Block3	incongruent/STIM_003.jpg
2360.934	0.767	correct	incongruent	Block3	incongruent/STIM_004.jpg
2364.374	0.474	correct	incongruent	Block3	incongruent/STIM_004.jpg
2366.945	0.54	correct	incongruent	Block3	incongruent/STIM_004.jpg
2371.561	0.71	correct	incongruent	Block3	incongruent/STIM_004.jpg
2375.58	0.444	correct	incongruent	Block3	incongruent/STIM_004.jpg
2378.891	0.714	correct	incongruent	Block3	incongruent/STIM_005.jpg
2382.199	0.896	correct	incongruent	Block3	incongruent/STIM_005.jpg
2385.737	0.841	correct	incongruent	Block3	incongruent/STIM_005.jpg
2389.397	0.468	correct	incongruent	Block3	incongruent/STIM_005.jpg
2392.061	0.459	correct	incongruent	Block3	incongruent/STIM_005.jpg
2396.504	0.621	correct	incongruent	Block3	incongruent/STIM_006.jpg
2400.816	0.71	correct	incongruent	Block3	incongruent/STIM_006.jpg
2405.585	0.617	correct	incongruent	Block3	incongruent/STIM_006.jpg
2409.9	0.763	correct	incongruent	Block3	incongruent/STIM_006.jpg
2413.954	0.723	correct	incongruent	Block3	incongruent/STIM_006.jpg
2417.738	0.843	correct	incongruent	Block3	incongruent/STIM_007.jpg
2421.195	0.605	correct	incongruent	Block3	incongruent/STIM_007.jpg
2424.58	0.837	correct	incongruent	Block3	incongruent/STIM_007.jpg
2428.914	0.792	correct	incongruent	Block3	incongruent/STIM_007.jpg
2432.266	0.452	correct	incongruent	Block3	incongruent/STIM_007.jpg
2436.123	0.866	correct	incongruent	Block3	incongruent/STIM_008.jpg
2440.345	0.474	correct	incongruent	Block3	incongruent/STIM_008.jpg
2443.351	0.661	correct	incongruent	Block3	incongruent/STIM_008.jpg
2446.983	0.885	correct	incongruent	Block3	incongruent/STIM_008.jpg
2451.178	0.773	correct	incongruent	Block3	incongruent/STIM_008.jpg
2454.806	0.839	correct	incongruent	Block3	incongruent/STIM_009.jpg
2458.157	0.746	correct	incongruent	Block3	incongruent/STIM_009.jpg
2461.294	0.57	correct	incongruent	Block3	incongruent/STIM_009.jpg
2464.926	0.578	correct	incongruent	Block3	incongruent/STIM_009.jpg
2469.078	0.862	correct	incongruent	Block3	incongruent/STIM_009.jpg
2473.744	0.588	correct	incongruent	Block3	incongruent/STIM_010.jpg
2476.655	0.88	correct	incongruent	Block3	incongruent/STIM_010.jpg
2481.297	0.866	correct	incongruent	Block3	incongruent/STIM_010.jpg
2485.784	0.556	incorrect	incongruent	Block3	incongruent/STIM_010.jpg
2488.862	0.475	incorrect	incongruent	Block3	incongruent/STIM_010.jpg
2492.395	0.495	correct	incongruent	Block3	incongruent/STIM_011.jpg
2496.59	0.545	correct	incongruent	Block3	incongruent/STIM_011.jpg
2500.626	0.624	correct	incongruent	Block3	incongruent/STIM_011.jpg
2503.442	0.844	correct	incongruent	Block3	incongruent/STIM_011.jpg
2508.399	0.713	correct	incongruent	Block3	incongruent/STIM_011.jpg
2511.679	0.845	incorrect	incongruent	Block3	incongruent/STIM_012.jpg
2515.814	0.488	correct	incongruent	Block3	incongruent/STIM_012.jpg
2519.163	0.707	correct	incongruent	Block3	incongruent/STIM_012.jpg
2523.014	0.618	correct	incongruent	Block3	incongruent/STIM_012.jpg
2526.321	0.461	correct	incongruent	Block3	incongruent/STIM_012.jpg
2530.65	0.902	correct	incongruent	Block3	incongruent/STIM_013.jpg
2535.01	0.893	correct	incongruent	Block3	incongruent/STIM_013.jpg
2539.145	0.73	correct	incongruent	Block3	incongruent/STIM_013.jpg
2543.623	0.802	correct	incongruent	Block3	incongruent/STIM_013.jpg
2548.073	0.44	correct	incongruent	Block3	incongruent/STIM_013.jpg
2551.197	0.759	correct	incongruent	Block3	incongruent/STIM_014.jpg
2554.848	0.878	correct	incongruent	Block3	incongruent/STIM_014.jpg
2559.484	0.715	correct	incongruent	Block3	incongruent/STIM_014.jpg
2563.94	0.653	correct	incongruent	Block3	incongruent/STIM_014.jpg
2567.501	0.628	correct	incongruent	Block3	incongruent/STIM_014.jpg
2571.701	0.784	correct	incongruent	Block3	incongruent/STIM_015.jpg
2574.635	0.506	correct	incongruent	Block3	incongruent/STIM_015.jpg
2578.652	0.907	correct	incongruent	Block3	incongruent/STIM_015.jpg
2582.281	0.53	incorrect	incongruent	Block3	incongruent/STIM_015.jpg
2586.783	0.684	correct	incongruent	Block3	incongruent/STIM_015.jpg
2590.672	0.659	correct	incongruent	Block3	incongruent/STIM_016.jpg
2594.582	0.469	correct	incongruent	Block3	incongruent/STIM_016.jpg
2598.896	0.872	correct	incongruent	Block3	incongruent/STIM_016.jpg
2603.862	0.592	correct	incongruent	Block3	incongruent/STIM_016.jpg
2608.133	0.71	correct	incongruent	Block3	incongruent/STIM_016.jpg
2611.062	0.427	correct	incongruent	Block3	incongruent/STIM_017.jpg
2614.438	0.618	correct	incongruent	Block3	incongruent/STIM_017.jpg
2617.27	0.689	correct	incongruent	Block3	incongruent/STIM_017.jpg
2620.437	0.798	correct	incongruent	Block3	incongruent/STIM_017.jpg
2624.068	0.824	correct	incongruent	Block3	incongruent/STIM_017.jpg
2627.284	0.72	correct	incongruent	Block3	incongruent/STIM_018.jpg
2631.066	0.502	correct	incongruent	Block3	incongruent/STIM_018.jpg
2633.757	0.797	correct	incongruent	Block3	incongruent/STIM_018.jpg
2637.229	0.595	correct	incongruent	Block3	incongruent/STIM_018.jpg
2640.66	0.533	correct	incongruent	Block3	incongruent/STIM_018.jpg
2644.079	0.785	correct	incongruent	Block3	incongruent/STIM_019.jpg
2647.403	0.573	correct	incongruent	Block3	incongruent/STIM_019.jpg
2651.146	0.788	correct	incongruent	Block3	incongruent/STIM_019.jpg
2655.79	0.635	correct	incongruent	Block3	incongruent/STIM_019.jpg
2658.866	0.505	correct	incongruent	Block3	incongruent/STIM_019.jpg
2662.035	0.519	correct	incongruent	Block3	incongruent/STIM_020.jpg
2665.229	0.77	correct	incongruent	Block3	incongruent/STIM_020.jpg
2668.678	0.739	correct	incongruent	Block3	incongruent/STIM_020.jpg
2673.428	0.583	correct	incongruent	Block3	incongruent/STIM_020.jpg
2677.14	0.68	correct	incongruent	Block3	incongruent/STIM_020.jpg
2681.455	0.737	correct	incongruent	Block3	incongruent/STIM_021.jpg
2685.809	0.911	correct	incongruent	Block3	incongruent/STIM_021.jpg
2689.797	0.711	correct	incongruent	Block3	incongruent/STIM_021.jpg
2693.216	0.58	incorrect	incongruent	Block3	incongruent/STIM_021.jpg
2697.873	0.879	correct	incongruent	Block3	incongruent/STIM_021.jpg
2701.137	0.806	correct	incongruent	Block3	incongruent/STIM_022.jpg
2705.199	0.614	correct	incongruent	Block3	incongruent/STIM_022.jpg
2707.974	0.576	correct	incongruent	Block3	incongruent/STIM_022.jpg
2712.612	0.831	correct	incongruent	Block3	incongruent/STIM_022.jpg
2716.174	0.604	correct	incongruent	Block3	incongruent/STIM_022.jpg
2719.228	0.662	correct	incongruent	Block3	incongruent/STIM_023.jpg
2723.554	0.481	correct	incongruent	Block3	incongruent/STIM_023.jpg
2727.267	0.838	correct	incongruent	Block3	incongruent/STIM_023.jpg
2732.086	0.454	correct	incongruent	Block3	incongruent/STIM_023.jpg
2734.682	0.766	correct	incongruent	Block3	incongruent/STIM_023.jpg
2738.356	0.629	correct	incongruent	Block3	incongruent/STIM_024.jpg
2742.149	0.644	correct	incongruent	Block3	incongruent/STIM_024.jpg
2745.654	0.809	correct	incongruent	Block3	incongruent/STIM_024.jpg
2750.275	0.465	correct	incongruent	Block3	incongruent/STIM_024.jpg
2754.683	0.458	correct	incongruent	Block3	incongruent/STIM_024.jpg
2758.513	0.57	correct	incongruent	Block3	incongruent/STIM_025.jpg
2762.954	0.858	correct	incongruent	Block3	incongruent/STIM_025.jpg
2766.595	0.745	correct	incongruent	Block3	incongruent/STIM_025.jpg
2769.757	0.871	correct	incongruent	Block3	incongruent/STIM_025.jpg
2773.011	0.902	correct	incongruent	Block3	incongruent/STIM_025.jpg
2777.85	0.428	correct	incongruent	Block3	incongruent/STIM_026.jpg
2782.274	0.462	correct	incongruent	Block3	incongruent/STIM_026.jpg
2785.518	0.912	correct	incongruent	Block3	incongruent/STIM_026.jpg
2789.798	0.442	correct	incongruent	Block3	incongruent/STIM_026.jpg
2793.58	0.634	correct	incongruent	Block3	incongruent/STIM_026.jpg
2797.684	0.888	correct	incongruent	Block3	incongruent/STIM_027.jpg
2802.527	0.796	correct	incongruent	Block3	incongruent/STIM_027.jpg
2806.302	0.523	correct	incongruent	Block3	incongruent/STIM_027.jpg
2809.879	0.635	correct	incongruent	Block3	incongruent/STIM_027.jpg
2813.604	0.826	correct	incongruent	Block3	incongruent/STIM_027.jpg
2818.244	0.505	correct	incongruent	Block3	incongruent/STIM_028.jpg
2821.304	0.486	correct	incongruent	Block3	incongruent/STIM_028.jpg
2824.326	0.899	correct	incongruent	Block3	incongruent/STIM_028.jpg
2828.125	0.807	correct	incongruent	Block3	incongruent/STIM_028.jpg
2831.807	0.449	correct	incongruent	Block3	incongruent/STIM_028.jpg
2834.482	0.84	correct	incongruent	Block3	incongruent/STIM_029.jpg
2838.448	0.462	correct	incongruent	Block3	incongruent/STIM_029.jpg
2841.961	0.77	correct	incongruent	Block3	incongruent/STIM_029.jpg
2846.579	0.832	correct	incongruent	Block3	incongruent/STIM_029.jpg
2849.681	0.651	correct	incongruent	Block3	incongruent/STIM_029.jpg
2853.446	0.532	correct	congruent	Block3	congruent/STIM_000.jpg
2857.889	0.686	correct	congruent	Block3	congruent/STIM_000.jpg
2861.121	0.538	correct	congruent	Block3	congruent/STIM_000.jpg
2865.153	0.465	correct	congruent	Block3	congruent/STIM_000.jpg
2868.604	0.466	correct	congruent	Block3	congruent/STIM_000.jpg
2872.218	0.582	correct	congruent	Block3	congruent/STIM_001.jpg
2876.768	0.544	correct	congruent	Block3	congruent/STIM_001.jpg
2880.06	0.742	correct	congruent	Block3	congruent/STIM_001.jpg
2884.536	0.449	correct	congruent	Block3	congruent/STIM_001.jpg
2888.737	0.746	correct	congruent	Block3	congruent/STIM_001.jpg
2893.562	0.531	correct	congruent	Block3	congruent/STIM_002.jpg
2896.627	0.632	incorrect	congruent	Block3	congruent/STIM_002.jpg
2900.905	0.684	correct	congruent	Block3	congruent/STIM_002.jpg
2904.608	0.45	correct	congruent	Block3	congruent/STIM_002.jpg
2907.895	0.696	correct	congruent	Block3	congruent/STIM_002.jpg
2911.721	0.494	incorrect	congruent	Block3	congruent/STIM_003.jpg
2914.698	0.45	correct	congruent	Block3	congruent/STIM_003.jpg
2917.562	0.56	correct	congruent	Block3	congruent/STIM_003.jpg
2921.066	0.736	correct	congruent	Block3	congruent/STIM_003.jpg
2925.426	0.641	incorrect	congruent	Block3	congruent/STIM_003.jpg
2929.19	0.463	correct	congruent	Block3	congruent/STIM_004.jpg
2932.598	0.614	correct	congruent	Block3	congruent/STIM_004.jpg
2935.448	0.552	correct	congruent	Block3	congruent/STIM_004.jpg
2939.589	0.55	correct	congruent	Block3	congruent/STIM_004.jpg
2943.559	0.488	correct	congruent	Block3	congruent/STIM_004.jpg
2947.197	0.512	correct	congruent	Block3	congruent/STIM_005.jpg
2950.431	0.752	correct	congruent	Block3	congruent/STIM_005.jpg
2954.156	0.67	correct	congruent	Block3	congruent/STIM_005.jpg
2958.127	0.552	correct	congruent	Block3	congruent/STIM_005.jpg
2962.559	0.482	correct	congruent	Block3	congruent/STIM_005.jpg
2966.336	0.492	correct	congruent	Block3	congruent/STIM_006.jpg
2968.977	0.542	correct	congruent	Block3	congruent/STIM_006.jpg
2973.333	0.59	correct	congruent	Block3	congruent/STIM_006.jpg
2977.903	0.437	incorrect	congruent	Block3	congruent/STIM_006.jpg
2981.838	0.456	correct	congruent	Block3	congruent/STIM_006.jpg
2984.583	0.678	incorrect	congruent	Block3	congruent/STIM_007.jpg
2988.12	0.438	incorrect	congruent	Block3	congruent/STIM_007.jpg
2990.66	0.667	correct	congruent	Block3	congruent/STIM_007.jpg
2993.658	0.442	correct	congruent	Block3	congruent/STIM_007.jpg
2996.427	0.772	correct	congruent	Block3	congruent/STIM_007.jpg
3000.844	0.553	correct	congruent	Block3	congruent/STIM_008.jpg
3003.981	0.762	correct	congruent	Block3	congruent/STIM_008.jpg
3008.123	0.708	correct	congruent	Block3	congruent/STIM_008.jpg
3011.26	0.738	correct	congruent	Block3	congruent/STIM_008.jpg
3015.658	0.782	correct	congruent	Block3	congruent/STIM_008.jpg
3020.161	0.463	correct	congruent	Block3	congruent/STIM_009.jpg
3024.572	0.605	correct	congruent	Block3	congruent/STIM_009.jpg
3027.339	0.59	correct	congruent	Block3	congruent/STIM_009.jpg
3031.362	0.71	correct	congruent	Block3	congruent/STIM_009.jpg
3035.715	0.532	correct	congruent	Block3	congruent/STIM_009.jpg
3038.643	0.536	correct	congruent	Block3	congruent/STIM_010.jpg
3041.569	0.519	correct	congruent	Block3	congruent/STIM_010.jpg
3045.912	0.5	correct	congruent	Block3	congruent/STIM_010.jpg
3048.785	0.495	correct	congruent	Block3	congruent/STIM_010.jpg
3051.482	0.501	correct	congruent	Block3	congruent/STIM_010.jpg
3054.877	0.5	correct	congruent	Block3	congruent/STIM_011.jpg
3059.263	0.753	correct	congruent	Block3	congruent/STIM_011.jpg
3063.356	0.766	correct	congruent	Block3	congruent/STIM_011.jpg
3066.368	0.548	correct	congruent	Block3	congruent/STIM_011.jpg
3069.007	0.664	correct	congruent	Block3	congruent/STIM_011.jpg
3072.325	0.659	correct	congruent	Block3	congruent/STIM_012.jpg
3076.603	0.74	correct	congruent	Block3	congruent/STIM_012.jpg
3079.951	0.5	correct	congruent	Block3	congruent/STIM_012.jpg
3082.958	0.694	correct	congruent	Block3	congruent/STIM_012.jpg
3086.133	0.485	correct	congruent	Block3	congruent/STIM_012.jpg
3088.909	0.651	correct	congruent	Block3	congruent/STIM_013.jpg
3093.542	0.487	correct	congruent	Block3	congruent/STIM_013.jpg
3096.603	0.693	correct	congruent	Block3	congruent/STIM_013.jpg
3099.541	0.701	correct	congruent	Block3	congruent/STIM_013.jpg
3102.49	0.739	correct	congruent	Block3	congruent/STIM_013.jpg
3106.277	0.64	correct	congruent	Block3	congruent/STIM_014.jpg
3110.052	0.604	correct	congruent	Block3	congruent/STIM_014.jpg
3113.726	0.539	correct	congruent	Block3	congruent/STIM_014.jpg
3116.501	0.513	correct	congruent	Block3	congruent/STIM_014.jpg
3119.355	0.738	correct	congruent	Block3	congruent/STIM_014.jpg
3122.512	0.47	correct	congruent	Block3	congruent/STIM_015.jpg
3126.634	0.694	correct	congruent	Block3	congruent/STIM_015.jpg
3130.719	0.699	correct	congruent	Block3	congruent/STIM_015.jpg
3135.303	0.778	correct	congruent	Block3	congruent/STIM_015.jpg
3139.375	0.634	correct	congruent	Block3	congruent/STIM_015.jpg
3142.29	0.567	correct	congruent	Block3	congruent/STIM_016.jpg
3146.029	0.75	correct	congruent	Block3	congruent/STIM_016.jpg
3149.084	0.695	incorrect	congruent	Block3	congruent/STIM_016.jpg
3153.156	0.64	correct	congruent	Block3	congruent/STIM_016.jpg
3157.651	0.543	correct	congruent	Block3	congruent/STIM_016.jpg
3162.244	0.478	correct	congruent	Block3	congruent/STIM_017.jpg
3165.626	0.5	correct	congruent	Block3	congruent/STIM_017.jpg
3168.907	0.485	correct	congruent	Block3	congruent/STIM_017.jpg
3173.41	0.576	correct	congruent	Block3	congruent/STIM_017.jpg
3177.793	0.55	correct	congruent	Block3	congruent/STIM_017.jpg
3182.341	0.485	correct	congruent	Block3	congruent/STIM_018.jpg
3186.184	0.501	correct	congruent	Block3	congruent/STIM_018.jpg
3189.892	0.5	correct	congruent	Block3	congruent/STIM_018.jpg
3193.244	0.455	correct	congruent	Block3	congruent/STIM_018.jpg
3197.173	0.508	correct	congruent	Block3	congruent/STIM_018.jpg
3200.716	0.602	correct	congruent	Block3	congruent/STIM_019.jpg
3205.038	0.498	correct	congruent	Block3	congruent/STIM_019.jpg
3208.66	0.669	correct	congruent	Block3	congruent/STIM_019.jpg
3213.112	0.759	correct	congruent	Block3	congruent/STIM_019.jpg
3217.668	0.518	correct	congruent	Block3	congruent/STIM_019.jpg
3221.64	0.467	correct	congruent	Block3	congruent/STIM_020.jpg
3225.695	0.593	correct	congruent	Block3	congruent/STIM_020.jpg
3228.833	0.618	correct	congruent	Block3	congruent/STIM_020.jpg
3232.643	0.705	correct	congruent	Block3	congruent/STIM_020.jpg
3235.488	0.78	correct	congruent	Block3	congruent/STIM_020.jpg
3239.542	0.617	correct	congruent	Block3	congruent/STIM_021.jpg
3244.006	0.681	correct	congruent	Block3	congruent/STIM_021.jpg
3247.059	0.513	correct	congruent	Block3	congruent/STIM_021.jpg
3250.126	0.759	correct	congruent	Block3	congruent/STIM_021.jpg
3253.919	0.511	correct	congruent	Block3	congruent/STIM_021.jpg
3257.073	0.487	correct	congruent	Block3	congruent/STIM_022.jpg
3260.513	0.441	correct	congruent	Block3	congruent/STIM_022.jpg
3264.172	0.7	correct	congruent	Block3	congruent/STIM_022.jpg
3267.064	0.726	correct	congruent	Block3	congruent/STIM_022.jpg
3270.314	0.597	correct	congruent	Block3	congruent/STIM_022.jpg
3273.187	0.437	correct	congruent	Block3	congruent/STIM_023.jpg
3276.054	0.717	correct	congruent	Block3	congruent/STIM_023.jpg
3279.284	0.654	correct	congruent	Block3	congruent/STIM_023.jpg
3282.188	0.756	correct	congruent	Block3	congruent/STIM_023.jpg
3286.248	0.632	correct	congruent	Block3	congruent/STIM_023.jpg
3290.133	0.514	correct	congruent	Block3	congruent/STIM_024.jpg
3294.178	0.594	correct	congruent	Block3	congruent/STIM_024.jpg
3298.524	0.752	correct	congruent	Block3	congruent/STIM_024.jpg
3301.488	0.592	correct	congruent	Block3	congruent/STIM_024.jpg
3305.41	0.778	correct	congruent	Block3	congruent/STIM_024.jpg
3308.961	0.489	correct	congruent	Block3	congruent/STIM_025.jpg
3311.853	0.782	correct	congruent	Block3	congruent/STIM_025.jpg
3316.671	0.629	correct	congruent	Block3	congruent/STIM_025.jpg
3320.536	0.492	correct	congruent	Block3	congruent/STIM_025.jpg
3323.12	0.685	correct	congruent	Block3	congruent/STIM_025.jpg
3326.2	0.45	correct	congruent	Block3	congruent/STIM_026.jpg
3328.926	0.691	correct	congruent	Block3	congruent/STIM_026.jpg
3333.056	0.721	correct	congruent	Block3	congruent/STIM_026.jpg
3336.143	0.524	correct	congruent	Block3	congruent/STIM_026.jpg
3339.397	0.452	correct	congruent	Block3	congruent/STIM_026.jpg
3343.159	0.752	correct	congruent	Block3	congruent/STIM_027.jpg
3346.375	0.463	correct	congruent	Block3	congruent/STIM_027.jpg
3350.409	0.457	correct	congruent	Block3	congruent/STIM_027.jpg
3353.534	0.567	correct	congruent	Block3	congruent/STIM_027.jpg
3357.914	0.723	correct	congruent	Block3	congruent/STIM_027.jpg
3360.843	0.69	correct	congruent	Block3	congruent/STIM_028.jpg
3364.175	0.78	correct	congruent	Block3	congruent/STIM_028.jpg
3368.512	0.589	correct	congruent	Block3	congruent/STIM_028.jpg
3371.329	0.599	correct	congruent	Block3	congruent/STIM_028.jpg
3375.917	0.544	correct	congruent	Block3	congruent/STIM_028.jpg
3379.111	0.443	correct	congruent	Block3	congruent/STIM_029.jpg
3383.552	0.777	correct	congruent	Block3	congruent/STIM_029.jpg
3386.532	0.698	correct	congruent	Block3	congruent/STIM_029.jpg
3389.407	0.565	correct	congruent	Block3	congruent/STIM_029.jpg
3392.431	0.518	correct	congruent	Block3	congruent/STIM_029.jpg
