onset	duration	accuracy	trial_type	learning_stage	stimulus
0.0	0.859	incorrect	incongruent	Block1	incongruent/STIM_000.jpg
3.822	1.415	correct	incongruent	Block1	incongruent/STIM_000.jpg
7.274	1.406	correct	incongruent	Block1	incongruent/STIM_000.jpg
12.208	1.3	correct	incongruent	Block1	incongruent/STIM_000.jpg
17.187	1.013	incorrect	incongruent	Block1	incongruent/STIM_000.jpg
21.471	1.211	correct	incongruent	Block1	incongruent/STIM_001.jpg
25.386	0.907	correct	incongruent	Block1	incongruent/STIM_001.jpg
29.847	0.944	correct	incongruent	Block1	incongruent/STIM_001.jpg
34.79	0.735	correct	incongruent	Block1	incongruent/STIM_001.jpg
38.528	0.675	correct	incongruent	Block1	incongruent/STIM_001.jpg
43.13	0.769	correct	incongruent	Block1	incongruent/STIM_002.jpg
46.068	0.737	incorrect	incongruent	Block1	incongruent/STIM_002.jpg
49.959	1.219	incorrect	incongruent	Block1	incongruent/STIM_002.jpg
54.372	0.663	correct	incongruent	Block1	incongruent/STIM_002.jpg
57.761	1.166	correct	incongruent	Block1	incongruent/STIM_002.jpg
61.83	1.289	incorrect	incongruent	Block1	incongruent/STIM_003.jpg
65.978	1.486	correct	incongruent	Block1	incongruent/STIM_003.jpg
70.688	0.913	correct	incongruent	Block1	incongruent/STIM_003.jpg
73.7	0.776	correct	incongruent	Block1	incongruent/STIM_003.jpg
78.267	0.596	correct	incongruent	Block1	incongruent/STIM_003.jpg
81.778	1.38	correct	incongruent	Block1	incongruent/STIM_004.jpg
85.232	0.76	correct	incongruent	Block1	incongruent/STIM_004.jpg
88.685	0.936	incorrect	incongruent	Block1	incongruent/STIM_004.jpg
91.951	1.304	incorrect	incongruent	Block1	incongruent/STIM_004.jpg
96.792	0.815	correct	incongruent	Block1	incongruent/STIM_004.jpg
101.072	1.447	correct	incongruent	Block1	incongruent/STIM_005.jpg
106.349	0.896	correct	incongruent	Block1	incongruent/STIM_005.jpg
110.705	0.812	correct	incongruent	Block1	incongruent/STIM_005.jpg
114.488	1.185	correct	incongruent	Block1	incongruent/STIM_005.jpg
119.296	0.716	correct	incongruent	Block1	incongruent/STIM_005.jpg
122.098	1.132	correct	incongruent	Block1	incongruent/STIM_006.jpg
125.685	1.179	correct	incongruent	Block1	incongruent/STIM_006.jpg
130.318	1.0	correct	incongruent	Block1	incongruent/STIM_006.jpg
133.522	0.951	correct	incongruent	Block1	incongruent/STIM_006.jpg
137.205	0.866	correct	incongruent	Block1	incongruent/STIM_006.jpg
141.816	1.362	incorrect	incongruent	Block1	incongruent/STIM_007.jpg
145.931	1.419	correct	incongruent	Block1	incongruent/STIM_007.jpg
150.037	1.275	correct	incongruent	Block1	incongruent/STIM_007.jpg
153.863	1.076	correct	incongruent	Block1	incongruent/STIM_007.jpg
157.272	0.634	correct	incongruent	Block1	incongruent/STIM_007.jpg
160.853	1.278	correct	incongruent	Block1	incongruent/STIM_008.jpg
164.624	0.784	correct	incongruent	Block1	incongruent/STIM_008.jpg
168.937	0.862	incorrect	incongruent	Block1	incongruent/STIM_008.jpg
172.565	1.218	correct	incongruent	Block1	incongruent/STIM_008.jpg
176.54	0.862	correct	incongruent	Block1	incongruent/STIM_008.jpg
179.488	1.049	correct	incongruent	Block1	incongruent/STIM_009.jpg
184.3	1.478	correct	incongruent	Block1	incongruent/STIM_009.jpg
189.283	0.689	correct	incongruent	Block1	incongruent/STIM_009.jpg
191.997	0.796	correct	incongruent	Block1	incongruent/STIM_009.jpg
195.805	0.882	correct	incongruent	Block1	incongruent/STIM_009.jpg
198.981	1.299	correct	incongruent	Block1	incongruent/STIM_010.jpg
203.461	0.768	incorrect	incongruent	Block1	incongruent/STIM_010.jpg
208.095	0.925	correct	incongruent	Block1	incongruent/STIM_010.jpg
212.129	1.106	correct	incongruent	Block1	incongruent/STIM_010.jpg
216.439	0.858	incorrect	incongruent	Block1	incongruent/STIM_010.jpg
219.613	0.784	correct	incongruent	Block1	incongruent/STIM_011.jpg
222.78	1.005	correct	incongruent	Block1	incongruent/STIM_011.jpg
227.177	1.0	correct	incongruent	Block1	incongruent/STIM_011.jpg
231.982	0.823	correct	incongruent	Block1	incongruent/STIM_011.jpg
236.217	0.683	correct	incongruent	Block1	incongruent/STIM_011.jpg
240.08	1.557	correct	incongruent	Block1	incongruent/STIM_012.jpg
245.148	0.7	correct	incongruent	Block1	incongruent/STIM_012.jpg
248.097	1.293	correct	incongruent	Block1	incongruent/STIM_012.jpg
251.57	1.029	correct	incongruent	Block1	incongruent/STIM_012.jpg
255.584	0.895	incorrect	incongruent	Block1	incongruent/STIM_012.jpg
259.266	1.017	correct	incongruent	Block1	incongruent/STIM_013.jpg
264.024	0.783	incorrect	incongruent	Block1	incongruent/STIM_013.jpg
267.1	1.26	incorrect	incongruent	Block1	incongruent/STIM_013.jpg
271.884	0.66	correct	incongruent	Block1	incongruent/STIM_013.jpg
275.58	0.71	correct	incongruent	Block1	incongruent/STIM_013.jpg
279.979	1.42	correct	incongruent	Block1	incongruent/STIM_014.jpg
284.022	0.731	correct	incongruent	Block1	incongruent/STIM_014.jpg
287.726	1.093	correct	incongruent	Block1	incongruent/STIM_014.jpg
292.706	1.111	incorrect	incongruent	Block1	incongruent/STIM_014.jpg
296.704	0.993	correct	incongruent	Block1	incongruent/STIM_014.jpg
300.178	1.294	correct	incongruent	Block1	incongruent/STIM_015.jpg
303.763	1.402	correct	incongruent	Block1	incongruent/STIM_015.jpg
308.694	1.06	correct	incongruent	Block1	incongruent/STIM_015.jpg
312.883	0.764	correct	incongruent	Block1	incongruent/STIM_015.jpg
316.989	0.788	incorrect	incongruent	Block1	incongruent/STIM_015.jpg
320.218	0.927	correct	incongruent	Block1	incongruent/STIM_016.jpg
324.756	1.323	correct	incongruent	Block1	incongruent/STIM_016.jpg
329.654	0.848	incorrect	incongruent	Block1	incongruent/STIM_016.jpg
333.17	0.936	correct	incongruent	Block1	incongruent/STIM_016.jpg
338.056	0.673	correct	incongruent	Block1	incongruent/STIM_016.jpg
341.011	1.181	correct	incongruent	Block1	incongruent/STIM_017.jpg
344.948	1.092	correct	incongruent	Block1	incongruent/STIM_017.jpg
348.44	1.141	correct	incongruent	Block1	incongruent/STIM_017.jpg
353.043	1.004	correct	incongruent	Block1	incongruent/STIM_017.jpg
357.117	0.673	correct	incongruent	Block1	incongruent/STIM_017.jpg
360.212	1.441	incorrect	incongruent	Block1	incongruent/STIM_018.jpg
364.661	0.869	incorrect	incongruent	Block1	incongruent/STIM_018.jpg
369.47	0.833	incorrect	incongruent	Block1	incongruent/STIM_018.jpg
373.961	0.72	correct	incongruent	Block1	incongruent/STIM_018.jpg
377.184	0.772	correct	incongruent	Block1	incongruent/STIM_018.jpg
380.51	0.976	incorrect	incongruent	Block1	incongruent/STIM_019.jpg
384.591	1.196	correct	incongruent	Block1	incongruent/STIM_019.jpg
388.883	0.778	correct	incongruent	Block1	incongruent/STIM_019.jpg
391.89	0.814	correct	incongruent	Block1	incongruent/STIM_019.jpg
395.764	0.642	correct	incongruent	Block1	incongruent/STIM_019.jpg
400.297	1.419	correct	incongruent	Block1	incongruent/STIM_020.jpg
405.51	1.069	correct	incongruent	Block1	incongruent/STIM_020.jpg
410.42	1.057	correct	incongruent	Block1	incongruent/STIM_020.jpg
414.381	0.709	correct	incongruent	Block1	incongruent/STIM_020.jpg
417.301	0.685	correct	incongruent	Block1	incongruent/STIM_020.jpg
421.539	1.33	correct	incongruent	Block1	incongruent/STIM_021.jpg
425.94	1.139	correct	incongruent	Block1	incongruent/STIM_021.jpg
429.491	1.278	correct	incongruent	Block1	incongruent/STIM_021.jpg
433.42	1.218	correct	incongruent	Block1	incongruent/STIM_021.jpg
437.107	0.914	correct	incongruent	Block1	incongruent/STIM_021.jpg
440.999	1.205	incorrect	incongruent	Block1	incongruent/STIM_022.jpg
445.365	0.957	correct	incongruent	Block1	incongruent/STIM_022.jpg
449.797	1.31	correct	incongruent	Block1	incongruent/STIM_022.jpg
454.111	0.626	correct	incongruent	Block1	incongruent/STIM_022.jpg
456.765	1.114	correct	incongruent	Block1	incongruent/STIM_022.jpg
461.811	1.211	incorrect	incongruent	Block1	incongruent/STIM_023.jpg
466.004	1.42	correct	incongruent	Block1	incongruent/STIM_023.jpg
470.932	0.995	incorrect	incongruent	Block1	incongruent/STIM_023.jpg
475.026	1.184	correct	incongruent	Block1	incongruent/STIM_023.jpg
479.093	0.841	correct	incongruent	Block1	incongruent/STIM_023.jpg
483.303	0.872	correct	incongruent	Block1	incongruent/STIM_024.jpg
487.213	0.816	correct	incongruent	Block1	incongruent/STIM_024.jpg
490.086	1.121	correct	incongruent	Block1	incongruent/STIM_024.jpg
494.26	1.047	correct	incongruent	Block1	incongruent/STIM_024.jpg
497.779	1.091	correct	incongruent	Block1	incongruent/STIM_024.jpg
502.129	1.152	correct	incongruent	Block1	incongruent/STIM_025.jpg
505.484	1.422	correct	incongruent	Block1	incongruent/STIM_025.jpg
509.208	0.749	incorrect	incongruent	Block1	incongruent/STIM_025.jpg
512.387	0.93	correct	incongruent	Block1	incongruent/STIM_025.jpg
517.127	0.856	correct	incongruent	Block1	incongruent/STIM_025.jpg
520.42	0.894	correct	incongruent	Block1	incongruent/STIM_026.jpg
523.315	1.034	correct	incongruent	Block1	incongruent/STIM_026.jpg
527.801	1.037	correct	incongruent	Block1	incongruent/STIM_026.jpg
532.274	1.068	correct	incongruent	Block1	incongruent/STIM_026.jpg
536.952	1.058	correct	incongruent	Block1	incongruent/STIM_026.jpg
540.078	1.349	correct	incongruent	Block1	incongruent/STIM_027.jpg
545.379	0.807	correct	incongruent	Block1	incongruent/STIM_027.jpg
549.629	0.912	incorrect	incongruent	Block1	incongruent/STIM_027.jpg
553.455	1.103	correct	incongruent	Block1	incongruent/STIM_027.jpg
556.863	1.017	correct	incongruent	Block1	incongruent/STIM_027.jpg
559.922	1.51	correct	incongruent	Block1	incongruent/STIM_028.jpg
563.661	0.889	correct	incongruent	Block1	incongruent/STIM_028.jpg
568.515	1.144	correct	incongruent	Block1	incongruent/STIM_028.jpg
571.822	0.997	correct	incongruent	Block1	incongruent/STIM_028.jpg
575.616	0.659	correct	incongruent	Block1	incongruent/STIM_028.jpg
578.768	0.795	correct	incongruent	Block1	incongruent/STIM_029.jpg
581.829	1.252	incorrect	incongruent	Block1	incongruent/STIM_029.jpg
586.069	0.939	incorrect	incongruent	Block1	incongruent/STIM_029.jpg
590.544	0.858	correct	incongruent	Block1	incongruent/STIM_029.jpg
594.652	0.725	correct	incongruent	Block1	incongruent/STIM_029.jpg
598.323	0.638	correct	congruent	Block1	congruent/STIM_000.jpg
602.317	0.605	correct	congruent	Block1	congruent/STIM_000.jpg
605.108	0.595	correct	congruent	Block1	congruent/STIM_000.jpg
607.783	0.706	correct	congruent	Block1	congruent/STIM_000.jpg
612.435	0.878	correct	congruent	Block1	congruent/STIM_000.jpg
615.484	0.595	incorrect	congruent	Block1	congruent/STIM_001.jpg
619.162	0.672	incorrect	congruent	Block1	congruent/STIM_001.jpg
622.357	0.558	correct	congruent	Block1	congruent/STIM_001.jpg
625.979	0.578	correct	congruent	Block1	congruent/STIM_001.jpg
629.882	0.771	correct	congruent	Block1	congruent/STIM_001.jpg
634.308	0.859	correct	congruent	Block1	congruent/STIM_002.jpg
638.262	0.7	correct	congruent	Block1	congruent/STIM_002.jpg
641.415	0.55	incorrect	congruent	Block1	congruent/STIM_002.jpg
644.291	0.862	correct	congruent	Block1	congruent/STIM_002.jpg
648.347	0.698	correct	congruent	Block1	congruent/STIM_002.jpg
652.972	0.869	correct	congruent	Block1	congruent/STIM_003.jpg
656.821	0.843	correct	congruent	Block1	congruent/STIM_003.jpg
661.475	0.862	correct	congruent	Block1	congruent/STIM_003.jpg
665.381	0.63	incorrect	congruent	Block1	congruent/STIM_003.jpg
669.838	0.587	correct	congruent	Block1	congruent/STIM_003.jpg
672.997	0.578	correct	congruent	Block1	congruent/STIM_004.jpg
677.133	0.928	correct	congruent	Block1	congruent/STIM_004.jpg
680.558	0.653	correct	congruent	Block1	congruent/STIM_004.jpg
684.526	0.79	correct	congruent	Block1	congruent/STIM_004.jpg
687.442	0.569	correct	congruent	Block1	congruent/STIM_004.jpg
690.386	0.698	correct	congruent	Block1	congruent/STIM_005.jpg
694.0	0.78	incorrect	congruent	Block1	congruent/STIM_005.jpg
697.143	0.714	correct	congruent	Block1	congruent/STIM_005.jpg
699.998	0.739	correct	congruent	Block1	congruent/STIM_005.jpg
703.765	0.586	correct	congruent	Block1	congruent/STIM_005.jpg
707.937	0.727	correct	congruent	Block1	congruent/STIM_006.jpg
711.971	0.922	incorrect	congruent	Block1	congruent/STIM_006.jpg
716.683	0.65	correct	congruent	Block1	congruent/STIM_006.jpg
720.966	0.801	correct	congruent	Block1	congruent/STIM_006.jpg
724.372	0.861	correct	congruent	Block1	congruent/STIM_006.jpg
728.321	0.703	correct	congruent	Block1	congruent/STIM_007.jpg
732.206	0.615	correct	congruent	Block1	congruent/STIM_007.jpg
735.004	0.734	correct	congruent	Block1	congruent/STIM_007.jpg
738.314	0.653	correct	congruent	Block1	congruent/STIM_007.jpg
741.612	0.538	correct	congruent	Block1	congruent/STIM_007.jpg
744.802	0.922	correct	congruent	Block1	congruent/STIM_008.jpg
749.546	0.818	correct	congruent	Block1	congruent/STIM_008.jpg
753.046	0.868	correct	congruent	Block1	congruent/STIM_008.jpg
756.618	0.663	correct	congruent	Block1	congruent/STIM_008.jpg
760.849	0.524	correct	congruent	Block1	congruent/STIM_008.jpg
765.369	0.538	correct	congruent	Block1	congruent/STIM_009.jpg
768.324	0.804	correct	congruent	Block1	congruent/STIM_009.jpg
771.536	0.83	incorrect	congruent	Block1	congruent/STIM_009.jpg
775.273	0.786	correct	congruent	Block1	congruent/STIM_009.jpg
778.348	0.762	correct	congruent	Block1	congruent/STIM_009.jpg
782.767	0.655	correct	congruent	Block1	congruent/STIM_010.jpg
785.586	0.906	incorrect	congruent	Block1	congruent/STIM_010.jpg
790.201	0.913	correct	congruent	Block1	congruent/STIM_010.jpg
794.265	0.707	correct	congruent	Block1	congruent/STIM_010.jpg
797.411	0.816	incorrect	congruent	Block1	congruent/STIM_010.jpg
802.169	0.755	correct	congruent	Block1	congruent/STIM_011.jpg
805.624	0.881	correct	congruent	Block1	congruent/STIM_011.jpg
809.589	0.872	correct	congruent	Block1	congruent/STIM_011.jpg
812.632	0.606	correct	congruent	Block1	congruent/STIM_011.jpg
815.554	0.667	correct	congruent	Block1	congruent/STIM_011.jpg
819.688	0.886	correct	congruent	Block1	congruent/STIM_012.jpg
822.66	0.8	correct	congruent	Block1	congruent/STIM_012.jpg
825.842	0.567	incorrect	congruent	Block1	congruent/STIM_012.jpg
830.162	0.753	correct	congruent	Block1	congruent/STIM_012.jpg
834.067	0.894	correct	congruent	Block1	congruent/STIM_012.jpg
837.79	0.584	correct	congruent	Block1	congruent/STIM_013.jpg
841.072	0.839	correct	congruent	Block1	congruent/STIM_013.jpg
844.432	0.938	correct	congruent	Block1	congruent/STIM_013.jpg
847.594	0.673	correct	congruent	Block1	congruent/STIM_013.jpg
851.988	0.659	correct	congruent	Block1	congruent/STIM_013.jpg
856.134	0.889	correct	congruent	Block1	congruent/STIM_014.jpg
859.83	0.583	correct	congruent	Block1	congruent/STIM_014.jpg
863.99	0.697	incorrect	congruent	Block1	congruent/STIM_014.jpg
868.328	0.599	correct	congruent	Block1	congruent/STIM_014.jpg
871.839	0.533	correct	congruent	Block1	congruent/STIM_014.jpg
875.062	0.576	correct	congruent	Block1	congruent/STIM_015.jpg
877.77	0.909	correct	congruent	Block1	congruent/STIM_015.jpg
881.998	0.778	incorrect	congruent	Block1	congruent/STIM_015.jpg
885.54	0.871	correct	congruent	Block1	congruent/STIM_015.jpg
890.177	0.768	correct	congruent	Block1	congruent/STIM_015.jpg
893.755	0.849	correct	congruent	Block1	congruent/STIM_016.jpg
897.635	0.791	correct	congruent	Block1	congruent/STIM_016.jpg
901.587	0.57	correct	congruent	Block1	congruent/STIM_016.jpg
905.132	0.781	correct	congruent	Block1	congruent/STIM_016.jpg
908.131	0.559	correct	congruent	Block1	congruent/STIM_016.jpg
912.02	0.587	correct	congruent	Block1	congruent/STIM_017.jpg
914.978	0.68	correct	congruent	Block1	congruent/STIM_017.jpg
919.296	0.62	correct	congruent	Block1	congruent/STIM_017.jpg
923.611	0.547	correct	congruent	Block1	congruent/STIM_017.jpg
926.795	0.598	correct	congruent	Block1	congruent/STIM_017.jpg
930.339	0.698	correct	congruent	Block1	congruent/STIM_018.jpg
934.625	0.57	correct	congruent	Block1	congruent/STIM_018.jpg
937.24	0.558	correct	congruent	Block1	congruent/STIM_018.jpg
941.335	0.867	correct	congruent	Block1	congruent/STIM_018.jpg
944.758	0.93	correct	congruent	Block1	congruent/STIM_018.jpg
949.314	0.761	correct	congruent	Block1	congruent/STIM_019.jpg
953.337	0.625	correct	congruent	Block1	congruent/STIM_019.jpg
957.022	0.827	correct	congruent	Block1	congruent/STIM_019.jpg
960.752	0.753	correct	congruent	Block1	congruent/STIM_019.jpg
964.908	0.595	correct	congruent	Block1	congruent/STIM_019.jpg
968.423	0.685	correct	congruent	Block1	congruent/STIM_020.jpg
971.604	0.606	correct	congruent	Block1	congruent/STIM_020.jpg
975.846	0.934	correct	congruent	Block1	congruent/STIM_020.jpg
979.29	0.789	correct	congruent	Block1	congruent/STIM_020.jpg
982.956	0.704	correct	congruent	Block1	congruent/STIM_020.jpg
986.822	0.793	correct	congruent	Block1	congruent/STIM_021.jpg
990.032	0.566	correct	congruent	Block1	congruent/STIM_021.jpg
994.032	0.729	correct	congruent	Block1	congruent/STIM_021.jpg
996.966	0.795	correct	congruent	Block1	congruent/STIM_021.jpg
1001.405	0.93	correct	congruent	Block1	congruent/STIM_021.jpg
1006.159	0.636	correct	congruent	Block1	congruent/STIM_022.jpg
1009.97	0.776	correct	congruent	Block1	congruent/STIM_022.jpg
1014.27	0.713	correct	congruent	Block1	congruent/STIM_022.jpg
1018.175	0.839	incorrect	congruent	Block1	congruent/STIM_022.jpg
1022.443	0.59	correct	congruent	Block1	congruent/STIM_022.jpg
1025.086	0.834	correct	congruent	Block1	congruent/STIM_023.jpg
1029.598	0.732	correct	congruent	Block1	congruent/STIM_023.jpg
1032.881	0.539	correct	congruent	Block1	congruent/STIM_023.jpg
1035.566	0.914	correct	congruent	Block1	congruent/STIM_023.jpg
1038.829	0.807	correct	congruent	Block1	congruent/STIM_023.jpg
1043.25	0.857	incorrect	congruent	Block1	congruent/STIM_024.jpg
1047.059	0.751	correct	congruent	Block1	congruent/STIM_024.jpg
1050.104	0.793	correct	congruent	Block1	congruent/STIM_024.jpg
1054.273	0.69	incorrect	congruent	Block1	congruent/STIM_024.jpg
1058.722	0.668	correct	congruent	Block1	congruent/STIM_024.jpg
1062.542	0.723	correct	congruent	Block1	congruent/STIM_025.jpg
1066.265	0.864	correct	congruent	Block1	congruent/STIM_025.jpg
1069.217	0.761	incorrect	congruent	Block1	congruent/STIM_025.jpg
1072.048	0.832	correct	congruent	Block1	congruent/STIM_025.jpg
1075.908	0.926	correct	congruent	Block1	congruent/STIM_025.jpg
1079.608	0.668	correct	congruent	Block1	congruent/STIM_026.jpg
1084.066	0.868	correct	congruent	Block1	congruent/STIM_026.jpg
1088.789	0.721	incorrect	congruent	Block1	congruent/STIM_026.jpg
1093.476	0.875	correct	congruent	Block1	congruent/STIM_026.jpg
1096.87	0.892	correct	congruent	Block1	congruent/STIM_026.jpg
1100.346	0.836	correct	congruent	Block1	congruent/STIM_027.jpg
1103.695	0.607	correct	congruent	Block1	congruent/STIM_027.jpg
1106.825	0.804	incorrect	congruent	Block1	congruent/STIM_027.jpg
1110.621	0.714	correct	congruent	Block1	congruent/STIM_027.jpg
1115.187	0.699	correct	congruent	Block1	congruent/STIM_027.jpg
1119.015	0.652	correct	congruent	Block1	congruent/STIM_028.jpg
1122.421	0.55	correct	congruent	Block1	congruent/STIM_028.jpg
1126.331	0.857	correct	congruent	Block1	congruent/STIM_028.jpg
1129.79	0.767	correct	congruent	Block1	congruent/STIM_028.jpg
1133.202	0.768	correct	congruent	Block1	congruent/STIM_028.jpg
1136.171	0.607	correct	congruent	Block1	congruent/STIM_029.jpg
1140.654	0.742	correct	congruent	Block1	congruent/STIM_029.jpg
1144.277	0.871	correct	congruent	Block1	congruent/STIM_029.jpg
1147.54	0.878	correct	congruent	Block1	congruent/STIM_029.jpg
1150.525	0.736	correct	congruent	Block1	congruent/STIM_029.jpg
1155.008	1.136	correct	incongruent	Block2	incongruent/STIM_000.jpg
1159.758	0.951	correct	incongruent	Block2	incongruent/STIM_000.jpg
1162.931	1.066	correct	incongruent	Block2	incongruent/STIM_000.jpg
1167.389	0.649	correct	incongruent	Block2	incongruent/STIM_000.jpg
1170.229	0.572	correct	incongruent	Block2	incongruent/STIM_000.jpg
1172.976	1.108	correct	incongruent	Block2	incongruent/STIM_001.jpg
1177.17	1.207	correct	incongruent	Block2	incongruent/STIM_001.jpg
1181.336	0.832	correct	incongruent	Block2	incongruent/STIM_001.jpg
1185.495	0.643	correct	incongruent	Block2	incongruent/STIM_001.jpg
1188.227	0.799	correct	incongruent	Block2	incongruent/STIM_001.jpg
1191.433	0.867	correct	incongruent	Block2	incongruent/STIM_002.jpg
1194.443	1.134	correct	incongruent	Block2	incongruent/STIM_002.jpg
1197.608	0.867	correct	incongruent	Block2	incongruent/STIM_002.jpg
1200.928	0.752	correct	incongruent	Block2	incongruent/STIM_002.jpg
1204.545	0.888	correct	incongruent	Block2	incongruent/STIM_002.jpg
1208.469	0.636	incorrect	incongruent	Block2	incongruent/STIM_003.jpg
1212.648	0.722	correct	incongruent	Block2	incongruent/STIM_003.jpg
1215.804	0.876	correct	incongruent	Block2	incongruent/STIM_003.jpg
1219.242	0.744	correct	incongruent	Block2	incongruent/STIM_003.jpg
1222.854	0.896	correct	incongruent	Block2	incongruent/STIM_003.jpg
1227.661	0.908	correct	incongruent	Block2	incongruent/STIM_004.jpg
1232.438	0.817	incorrect	incongruent	Block2	incongruent/STIM_004.jpg
1237.024	0.99	correct	incongruent	Block2	incongruent/STIM_004.jpg
1241.563	0.927	incorrect	incongruent	Block2	incongruent/STIM_004.jpg
1246.385	0.531	correct	incongruent	Block2	incongruent/STIM_004.jpg
1249.36	1.267	correct	incongruent	Block2	incongruent/STIM_005.jpg
1253.939	0.814	correct	incongruent	Block2	incongruent/STIM_005.jpg
1257.527	1.15	correct	incongruent	Block2	incongruent/STIM_005.jpg
1261.26	0.62	correct	incongruent	Block2	incongruent/STIM_005.jpg
1265.405	0.83	correct	incongruent	Block2	incongruent/STIM_005.jpg
1270.212	1.302	correct	incongruent	Block2	incongruent/STIM_006.jpg
1273.598	0.622	correct	incongruent	Block2	incongruent/STIM_006.jpg
1276.702	0.724	correct	incongruent	Block2	incongruent/STIM_006.jpg
1279.479	0.767	correct	incongruent	Block2	incongruent/STIM_006.jpg
1283.948	0.932	correct	incongruent	Block2	incongruent/STIM_006.jpg
1287.161	0.686	incorrect	incongruent	Block2	incongruent/STIM_007.jpg
1291.497	0.847	correct	incongruent	Block2	incongruent/STIM_007.jpg
1294.603	0.689	correct	incongruent	Block2	incongruent/STIM_007.jpg
1297.466	1.053	incorrect	incongruent	Block2	incongruent/STIM_007.jpg
1301.086	0.708	correct	incongruent	Block2	incongruent/STIM_007.jpg
1304.575	1.32	correct	incongruent	Block2	incongruent/STIM_008.jpg
1308.745	1.005	correct	incongruent	Block2	incongruent/STIM_008.jpg
1313.325	1.063	correct	incongruent	Block2	incongruent/STIM_008.jpg
1318.343	0.654	correct	incongruent	Block2	incongruent/STIM_008.jpg
1322.639	0.865	incorrect	incongruent	Block2	incongruent/STIM_008.jpg
1327.346	1.124	correct	incongruent	Block2	incongruent/STIM_009.jpg
1331.449	1.044	incorrect	incongruent	Block2	incongruent/STIM_009.jpg
1336.222	1.013	correct	incongruent	Block2	incongruent/STIM_009.jpg
1340.144	0.647	correct	incongruent	Block2	incongruent/STIM_009.jpg
1342.986	1.083	correct	incongruent	Block2	incongruent/STIM_009.jpg
1346.25	1.259	correct	incongruent	Block2	incongruent/STIM_010.jpg
1351.425	0.941	correct	incongruent	Block2	incongruent/STIM_010.jpg
1354.82	0.82	correct	incongruent	Block2	incongruent/STIM_010.jpg
1358.684	0.963	correct	incongruent	Block2	incongruent/STIM_010.jpg
1362.287	0.984	correct	incongruent	Block2	incongruent/STIM_010.jpg
1366.934	1.055	correct	incongruent	Block2	incongruent/STIM_011.jpg
1370.666	1.059	correct	incongruent	Block2	incongruent/STIM_011.jpg
1375.472	1.08	correct	incongruent	Block2	incongruent/STIM_011.jpg
1378.672	0.96	correct	incongruent	Block2	incongruent/STIM_011.jpg
1383.137	0.79	correct	incongruent	Block2	incongruent/STIM_011.jpg
1387.684	1.005	correct	incongruent	Block2	incongruent/STIM_012.jpg
1391.77	1.154	correct	incongruent	Block2	incongruent/STIM_012.jpg
1395.704	1.005	correct	incongruent	Block2	incongruent/STIM_012.jpg
1400.537	0.943	correct	incongruent	Block2	incongruent/STIM_012.jpg
1404.875	0.707	correct	incongruent	Block2	incongruent/STIM_012.jpg
1409.561	1.324	correct	incongruent	Block2	incongruent/STIM_013.jpg
1413.441	1.042	correct	incongruent	Block2	incongruent/STIM_013.jpg
1417.948	1.093	correct	incongruent	Block2	incongruent/STIM_013.jpg
1422.888	1.088	correct	incongruent	Block2	incongruent/STIM_013.jpg
1427.51	0.723	correct	incongruent	Block2	incongruent/STIM_013.jpg
1430.712	0.84	correct	incongruent	Block2	incongruent/STIM_014.jpg
1434.368	0.862	correct	incongruent	Block2	incongruent/STIM_014.jpg
1437.343	0.82	correct	incongruent	Block2	incongruent/STIM_014.jpg
1441.001	0.527	incorrect	incongruent	Block2	incongruent/STIM_014.jpg
1445.243	0.994	correct	incongruent	Block2	incongruent/STIM_014.jpg
1450.124	1.032	correct	incongruent	Block2	incongruent/STIM_015.jpg
1453.835	1.077	correct	incongruent	Block2	incongruent/STIM_015.jpg
1457.364	1.173	correct	incongruent	Block2	incongruent/STIM_015.jpg
1461.382	1.019	correct	incongruent	Block2	incongruent/STIM_015.jpg
1466.063	0.778	correct	incongruent	Block2	incongruent/STIM_015.jpg
1470.383	1.097	correct	incongruent	Block2	incongruent/STIM_016.jpg
1474.835	0.811	correct	incongruent	Block2	incongruent/STIM_016.jpg
1478.788	0.635	correct	incongruent	Block2	incongruent/STIM_016.jpg
1481.956	0.726	correct	incongruent	Block2	incongruent/STIM_016.jpg
1485.912	0.756	correct	incongruent	Block2	incongruent/STIM_016.jpg
1489.654	1.047	correct	incongruent	Block2	incongruent/STIM_017.jpg
1493.093	1.23	correct	incongruent	Block2	incongruent/STIM_017.jpg
1496.725	0.635	correct	incongruent	Block2	incongruent/STIM_017.jpg
1501.091	0.615	correct	incongruent	Block2	incongruent/STIM_017.jpg
1504.007	0.759	correct	incongruent	Block2	incongruent/STIM_017.jpg
1508.036	1.127	correct	incongruent	Block2	incongruent/STIM_018.jpg
1511.448	0.855	correct	incongruent	Block2	incongruent/STIM_018.jpg
1515.92	1.078	correct	incongruent	Block2	incongruent/STIM_018.jpg
1520.883	0.971	correct	incongruent	Block2	incongruent/STIM_018.jpg
1525.317	0.86	correct	incongruent	Block2	incongruent/STIM_018.jpg
1528.81	0.814	correct	incongruent	Block2	incongruent/STIM_019.jpg
1531.971	1.027	correct	incongruent	Block2	incongruent/STIM_019.jpg
1536.892	0.893	correct	incongruent	Block2	incongruent/STIM_019.jpg
1541.371	0.877	correct	incongruent	Block2	incongruent/STIM_019.jpg
1545.953	0.946	correct	incongruent	Block2	incongruent/STIM_019.jpg
1550.282	0.915	correct	incongruent	Block2	incongruent/STIM_020.jpg
1553.287	0.81	correct	incongruent	Block2	incongruent/STIM_020.jpg
1558.008	0.962	correct	incongruent	Block2	incongruent/STIM_020.jpg
1561.32	0.884	correct	incongruent	Block2	incongruent/STIM_020.jpg
1566.122	1.052	correct	incongruent	Block2	incongruent/STIM_020.jpg
1570.793	1.206	correct	incongruent	Block2	incongruent/STIM_021.jpg
1575.194	1.001	correct	incongruent	Block2	incongruent/STIM_021.jpg
1579.895	0.86	correct	incongruent	Block2	incongruent/STIM_021.jpg
1584.267	0.928	correct	incongruent	Block2	incongruent/STIM_021.jpg
1587.734	0.514	correct	incongruent	Block2	incongruent/STIM_021.jpg
1591.381	0.68	correct	incongruent	Block2	incongruent/STIM_022.jpg
1595.748	0.614	correct	incongruent	Block2	incongruent/STIM_022.jpg
1600.126	0.942	correct	incongruent	Block2	incongruent/STIM_022.jpg
1603.897	0.595	incorrect	incongruent	Block2	incongruent/STIM_022.jpg
1606.65	0.546	correct	incongruent	Block2	incongruent/STIM_022.jpg
1610.085	0.969	correct	incongruent	Block2	incongruent/STIM_023.jpg
1614.869	0.666	correct	incongruent	Block2	incongruent/STIM_023.jpg
1618.771	0.688	correct	incongruent	Block2	incongruent/STIM_023.jpg
1622.674	0.523	correct	incongruent	Block2	incongruent/STIM_023.jpg
1625.977	0.917	incorrect	incongruent	Block2	incongruent/STIM_023.jpg
1629.188	0.911	correct	incongruent	Block2	incongruent/STIM_024.jpg
1632.536	0.59	correct	incongruent	Block2	incongruent/STIM_024.jpg
1635.916	0.637	correct	incongruent	Block2	incongruent/STIM_024.jpg
1639.565	0.597	correct	incongruent	Block2	incongruent/STIM_024.jpg
1642.268	0.709	correct	incongruent	Block2	incongruent/STIM_024.jpg
1645.885	0.679	correct	incongruent	Block2	incongruent/STIM_025.jpg
1650.477	0.761	correct	incongruent	Block2	incongruent/STIM_025.jpg
1654.381	1.136	correct	incongruent	Block2	incongruent/STIM_025.jpg
1659.233	0.673	correct	incongruent	Block2	incongruent/STIM_025.jpg
1662.357	0.533	correct	incongruent	Block2	incongruent/STIM_025.jpg
1665.752	0.824	correct	incongruent	Block2	incongruent/STIM_026.jpg
1669.209	0.744	correct	incongruent	Block2	incongruent/STIM_026.jpg
1672.713	1.095	correct	incongruent	Block2	incongruent/STIM_026.jpg
1677.007	0.749	correct	incongruent	Block2	incongruent/STIM_026.jpg
1681.102	0.885	correct	incongruent	Block2	incongruent/STIM_026.jpg
1685.326	0.882	correct	incongruent	Block2	incongruent/STIM_027.jpg
1689.553	1.066	correct	incongruent	Block2	incongruent/STIM_027.jpg
1692.797	1.17	correct	incongruent	Block2	incongruent/STIM_027.jpg
1696.484	0.574	correct	incongruent	Block2	incongruent/STIM_027.jpg
1699.683	0.544	correct	incongruent	Block2	incongruent/STIM_027.jpg
1703.838	1.063	correct	incongruent	Block2	incongruent/STIM_028.jpg
1707.299	0.873	correct	incongruent	Block2	incongruent/STIM_028.jpg
1711.172	0.659	correct	incongruent	Block2	incongruent/STIM_028.jpg
1714.464	0.668	incorrect	incongruent	Block2	incongruent/STIM_028.jpg
1718.119	0.91	correct	incongruent	Block2	incongruent/STIM_028.jpg
1722.856	0.995	correct	incongruent	Block2	incongruent/STIM_029.jpg
1727.534	0.879	correct	incongruent	Block2	incongruent/STIM_029.jpg
1731.765	0.552	incorrect	incongruent	Block2	incongruent/STIM_029.jpg
1735.165	0.838	correct	incongruent	Block2	incongruent/STIM_029.jpg
1739.849	1.011	correct	incongruent	Block2	incongruent/STIM_029.jpg
1743.753	0.674	correct	congruent	Block2	congruent/STIM_000.jpg
1748.362	0.584	correct	congruent	Block2	congruent/STIM_000.jpg
1751.142	0.663	correct	congruent	Block2	congruent/STIM_000.jpg
1754.091	0.755	correct	congruent	Block2	congruent/STIM_000.jpg
1758.312	0.667	correct	congruent	Block2	congruent/STIM_000.jpg
1762.728	0.814	correct	congruent	Block2	congruent/STIM_001.jpg
1767.333	0.584	correct	congruent	Block2	congruent/STIM_001.jpg
1771.304	0.575	incorrect	congruent	Block2	congruent/STIM_001.jpg
1773.97	0.604	correct	congruent	Block2	congruent/STIM_001.jpg
1778.416	0.583	correct	congruent	Block2	congruent/STIM_001.jpg
1782.095	0.727	correct	congruent	Block2	congruent/STIM_002.jpg
1786.504	0.656	correct	congruent	Block2	congruent/STIM_002.jpg
1789.187	0.556	correct	congruent	Block2	congruent/STIM_002.jpg
1792.0	0.644	correct	congruent	Block2	congruent/STIM_002.jpg
1795.341	0.643	correct	congruent	Block2	congruent/STIM_002.jpg
1798.268	0.626	correct	congruent	Block2	congruent/STIM_003.jpg
1800.954	0.704	correct	congruent	Block2	congruent/STIM_003.jpg
1804.343	0.7	correct	congruent	Block2	congruent/STIM_003.jpg
1808.707	0.588	correct	congruent	Block2	congruent/STIM_003.jpg
1812.953	0.914	correct	congruent	Block2	congruent/STIM_003.jpg
1816.531	0.601	correct	congruent	Block2	congruent/STIM_004.jpg
1820.125	0.888	correct	congruent	Block2	congruent/STIM_004.jpg
1823.965	0.616	correct	congruent	Block2	congruent/STIM_004.jpg
1828.225	0.677	correct	congruent	Block2	congruent/STIM_004.jpg
1830.94	0.69	correct	congruent	Block2	congruent/STIM_004.jpg
1835.289	0.646	correct	congruent	Block2	congruent/STIM_005.jpg
1838.76	0.796	correct	congruent	Block2	congruent/STIM_005.jpg
1843.349	0.68	correct	congruent	Block2	congruent/STIM_005.jpg
1846.235	0.83	correct	congruent	Block2	congruent/STIM_005.jpg
1850.289	0.712	correct	congruent	Block2	congruent/STIM_005.jpg
1854.097	0.614	correct	congruent	Block2	congruent/STIM_006.jpg
1857.056	0.577	correct	congruent	Block2	congruent/STIM_006.jpg
1859.706	0.647	correct	congruent	Block2	congruent/STIM_006.jpg
1863.286	0.702	correct	congruent	Block2	congruent/STIM_006.jpg
1867.932	0.688	correct	congruent	Block2	congruent/STIM_006.jpg
1871.489	0.789	correct	congruent	Block2	congruent/STIM_007.jpg
1875.136	0.675	correct	congruent	Block2	congruent/STIM_007.jpg
1879.811	0.853	correct	congruent	Block2	congruent/STIM_007.jpg
1883.654	0.835	correct	congruent	Block2	congruent/STIM_007.jpg
1888.043	0.817	correct	congruent	Block2	congruent/STIM_007.jpg
1891.904	0.681	incorrect	congruent	Block2	congruent/STIM_008.jpg
1895.118	0.691	correct	congruent	Block2	congruent/STIM_008.jpg
1899.309	0.896	correct	congruent	Block2	congruent/STIM_008.jpg
1902.285	0.874	incorrect	congruent	Block2	congruent/STIM_008.jpg
1905.303	0.525	correct	congruent	Block2	congruent/STIM_008.jpg
1908.289	0.824	correct	congruent	Block2	congruent/STIM_009.jpg
1911.773	0.922	correct	congruent	Block2	congruent/STIM_009.jpg
1915.317	0.644	incorrect	congruent	Block2	congruent/STIM_009.jpg
1919.842	0.924	correct	congruent	Block2	congruent/STIM_009.jpg
1923.854	0.522	correct	congruent	Block2	congruent/STIM_009.jpg
1926.827	0.598	correct	congruent	Block2	congruent/STIM_010.jpg
1930.213	0.925	incorrect	congruent	Block2	congruent/STIM_010.jpg
1934.323	0.557	correct	congruent	Block2	congruent/STIM_010.jpg
1937.939	0.754	correct	congruent	Block2	congruent/STIM_010.jpg
1941.785	0.686	correct	congruent	Block2	congruent/STIM_010.jpg
1945.354	0.611	correct	congruent	Block2	congruent/STIM_011.jpg
1949.611	0.841	correct	congruent	Block2	congruent/STIM_011.jpg
1954.294	0.788	correct	congruent	Block2	congruent/STIM_011.jpg
1958.719	0.547	correct	congruent	Block2	congruent/STIM_011.jpg
1961.495	0.752	correct	congruent	Block2	congruent/STIM_011.jpg
1966.212	0.699	correct	congruent	Block2	congruent/STIM_012.jpg
1970.351	0.803	incorrect	congruent	Block2	congruent/STIM_012.jpg
1973.646	0.873	incorrect	congruent	Block2	congruent/STIM_012.jpg
1978.246	0.759	correct	congruent	Block2	congruent/STIM_012.jpg
1981.776	0.78	correct	congruent	Block2	congruent/STIM_012.jpg
1986.326	0.888	correct	congruent	Block2	congruent/STIM_013.jpg
1991.1	0.758	correct	congruent	Block2	congruent/STIM_013.jpg
1994.186	0.599	correct	congruent	Block2	congruent/STIM_013.jpg
1996.968	0.775	correct	congruent	Block2	congruent/STIM_013.jpg
2000.866	0.924	correct	congruent	Block2	congruent/STIM_013.jpg
2005.626	0.697	correct	congruent	Block2	congruent/STIM_014.jpg
2009.427	0.883	correct	congruent	Block2	congruent/STIM_014.jpg
2014.077	0.687	correct	congruent	Block2	congruent/STIM_014.jpg
2017.137	0.881	correct	congruent	Block2	congruent/STIM_014.jpg
2021.115	0.627	correct	congruent	Block2	congruent/STIM_014.jpg
2024.745	0.584	incorrect	congruent	Block2	congruent/STIM_015.jpg
2028.732	0.622	correct	congruent	Block2	congruent/STIM_015.jpg
2032.994	0.931	incorrect	congruent	Block2	congruent/STIM_015.jpg
2036.455	0.901	correct	congruent	Block2	congruent/STIM_015.jpg
2040.501	0.879	correct	congruent	Block2	congruent/STIM_015.jpg
2043.549	0.935	correct	congruent	Block2	congruent/STIM_016.jpg
2047.777	0.751	incorrect	congruent	Block2	congruent/STIM_016.jpg
2052.015	0.524	correct	congruent	Block2	congruent/STIM_016.jpg
2055.409	0.865	correct	congruent	Block2	congruent/STIM_016.jpg
2059.234	0.534	correct	congruent	Block2	congruent/STIM_016.jpg
2063.663	0.848	correct	congruent	Block2	congruent/STIM_017.jpg
2068.185	0.717	correct	congruent	Block2	congruent/STIM_017.jpg
2071.67	0.552	correct	congruent	Block2	congruent/STIM_017.jpg
2074.934	0.863	correct	congruent	Block2	congruent/STIM_017.jpg
2078.514	0.631	correct	congruent	Block2	congruent/STIM_017.jpg
2082.139	0.76	correct	congruent	Block2	congruent/STIM_018.jpg
2086.231	0.753	correct	congruent	Block2	congruent/STIM_018.jpg
2089.775	0.624	correct	congruent	Block2	congruent/STIM_018.jpg
2093.711	0.846	incorrect	congruent	Block2	congruent/STIM_018.jpg
2097.219	0.9	correct	congruent	Block2	congruent/STIM_018.jpg
2100.374	0.717	correct	congruent	Block2	congruent/STIM_019.jpg
2104.175	0.901	correct	congruent	Block2	congruent/STIM_019.jpg
2108.039	0.617	incorrect	congruent	Block2	congruent/STIM_019.jpg
2111.767	0.869	correct	congruent	Block2	congruent/STIM_019.jpg
2116.543	0.643	correct	congruent	Block2	congruent/STIM_019.jpg
2120.157	0.789	correct	congruent	Block2	congruent/STIM_020.jpg
2123.046	0.529	correct	congruent	Block2	congruent/STIM_020.jpg
2126.066	0.719	correct	congruent	Block2	congruent/STIM_020.jpg
2129.534	0.937	correct	congruent	Block2	congruent/STIM_020.jpg
2132.906	0.828	correct	congruent	Block2	congruent/STIM_020.jpg
2136.339	0.746	correct	congruent	Block2	congruent/STIM_021.jpg
2139.61	0.765	incorrect	congruent	Block2	congruent/STIM_021.jpg
2144.176	0.588	correct	congruent	Block2	congruent/STIM_021.jpg
2147.687	0.909	correct	congruent	Block2	congruent/STIM_021.jpg
2152.538	0.758	correct	congruent	Block2	congruent/STIM_021.jpg
2156.358	0.69	correct	congruent	Block2	congruent/STIM_022.jpg
2160.208	0.713	correct	congruent	Block2	congruent/STIM_022.jpg
2163.557	0.921	correct	congruent	Block2	congruent/STIM_022.jpg
2166.984	0.894	incorrect	congruent	Block2	congruent/STIM_022.jpg
2170.465	0.809	correct	congruent	Block2	congruent/STIM_022.jpg
2174.902	0.601	incorrect	congruent	Block2	congruent/STIM_023.jpg
2178.008	0.845	correct	congruent	Block2	congruent/STIM_023.jpg
2181.639	0.867	correct	congruent	Block2	congruent/STIM_023.jpg
2186.326	0.641	correct	congruent	Block2	congruent/STIM_023.jpg
2190.317	0.916	correct	congruent	Block2	congruent/STIM_023.jpg
2193.337	0.54	correct	congruent	Block2	congruent/STIM_024.jpg
2197.177	0.653	correct	congruent	Block2	congruent/STIM_024.jpg
2201.729	0.575	correct	congruent	Block2	congruent/STIM_024.jpg
2205.904	0.751	correct	congruent	Block2	congruent/STIM_024.jpg
2209.519	0.896	correct	congruent	Block2	congruent/STIM_024.jpg
2213.549	0.537	correct	congruent	Block2	congruent/STIM_025.jpg
2216.642	0.79	correct	congruent	Block2	congruent/STIM_025.jpg
2220.812	0.812	correct	congruent	Block2	congruent/STIM_025.jpg
2224.178	0.616	correct	congruent	Block2	congruent/STIM_025.jpg
2228.058	0.669	incorrect	congruent	Block2	congruent/STIM_025.jpg
2231.974	0.548	correct	congruent	Block2	congruent/STIM_026.jpg
2236.452	0.886	correct	congruent	Block2	congruent/STIM_026.jpg
2240.787	0.629	correct	congruent	Block2	congruent/STIM_026.jpg
2244.98	0.661	correct	congruent	Block2	congruent/STIM_026.jpg
2249.333	0.737	correct	congruent	Block2	congruent/STIM_026.jpg
2252.686	0.758	incorrect	congruent	Block2	congruent/STIM_027.jpg
2256.799	0.735	correct	congruent	Block2	congruent/STIM_027.jpg
2261.366	0.637	incorrect	congruent	Block2	congruent/STIM_027.jpg
2265.666	0.777	correct	congruent	Block2	congruent/STIM_027.jpg
2269.01	0.683	correct	congruent	Block2	congruent/STIM_027.jpg
2272.001	0.937	correct	congruent	Block2	congruent/STIM_028.jpg
2275.399	0.617	correct	congruent	Block2	congruent/STIM_028.jpg
2279.505	0.922	correct	congruent	Block2	congruent/STIM_028.jpg
2283.573	0.888	correct	congruent	Block2	congruent/STIM_028.jpg
2286.92	0.936	correct	congruent	Block2	congruent/STIM_028.jpg
2291.15	0.929	correct	congruent	Block2	congruent/STIM_029.jpg
2294.919	0.818	correct	congruent	Block2	congruent/STIM_029.jpg
2298.104	0.66	correct	congruent	Block2	congruent/STIM_029.jpg
2302.267	0.797	correct	congruent	Block2	congruent/STIM_029.jpg
2305.489	0.772	incorrect	congruent	Block2	congruent/STIM_029.jpg
2309.252	0.624	correct	incongruent	Block3	incongruent/STIM_000.jpg
2312.252	0.52	correct	incongruent	Block3	incongruent/STIM_000.jpg
2315.396	0.722	correct	incongruent	Block3	incongruent/STIM_000.jpg
2319.648	0.809	correct	incongruent	Block3	incongruent/STIM_000.jpg
2324.07	1.012	correct	incongruent	Block3	incongruent/STIM_000.jpg
2327.768	1.059	correct	incongruent	Block3	incongruent/STIM_001.jpg
2332.164	0.964	correct	incongruent	Block3	incongruent/STIM_001.jpg
2337.083	0.813	correct	incongruent	Block3	incongruent/STIM_001.jpg
2341.366	0.68	correct	incongruent	Block3	incongruent/STIM_001.jpg
2344.397	1.062	correct	incongruent	Block3	incongruent/STIM_001.jpg
2349.318	1.083	correct	incongruent	Block3	incongruent/STIM_002.jpg
2352.559	0.574	incorrect	incongruent	Block3	incongruent/STIM_002.jpg
2355.881	0.967	correct	incongruent	Block3	incongruent/STIM_002.jpg
2359.024	0.787	correct	incongruent	Block3	incongruent/STIM_002.jpg
2361.868	0.527	correct	incongruent	Block3	incongruent/STIM_002.jpg
2364.569	0.752	correct	incongruent	Block3	incongruent/STIM_003.jpg
2368.935	0.818	correct	incongruent	Block3	incongruent/STIM_003.jpg
2372.213	0.778	correct	incongruent	Block3	incongruent/STIM_003.jpg
2376.828	0.917	correct	incongruent	Block3	incongruent/STIM_003.jpg
2381.024	1.036	correct	incongruent	Block3	incongruent/STIM_003.jpg
2385.391	0.955	correct	incongruent	Block3	incongruent/STIM_004.jpg
2388.631	0.909	correct	incongruent	Block3	incongruent/STIM_004.jpg
2393.492	1.06	correct	incongruent	Block3	incongruent/STIM_004.jpg
2397.475	0.614	correct	incongruent	Block3	incongruent/STIM_004.jpg
2400.597	0.934	correct	incongruent	Block3	incongruent/STIM_004.jpg
2405.381	0.962	correct	incongruent	Block3	incongruent/STIM_005.jpg
2408.592	1.055	correct	incongruent	Block3	incongruent/STIM_005.jpg
2412.673	1.095	correct	incongruent	Block3	incongruent/STIM_005.jpg
2416.491	0.534	correct	incongruent	Block3	incongruent/STIM_005.jpg
2419.756	0.585	correct	incongruent	Block3	incongruent/STIM_005.jpg
2423.178	0.905	correct	incongruent	Block3	incongruent/STIM_006.jpg
2428.079	0.958	correct	incongruent	Block3	incongruent/STIM_006.jpg
2431.61	0.759	correct	incongruent	Block3	incongruent/STIM_006.jpg
2435.501	0.767	correct	incongruent	Block3	incongruent/STIM_006.jpg
2439.023	0.577	correct	incongruent	Block3	incongruent/STIM_006.jpg
2441.917	1.025	correct	incongruent	Block3	incongruent/STIM_007.jpg
2446.754	0.648	correct	incongruent	Block3	incongruent/STIM_007.jpg
2450.967	0.858	correct	incongruent	Block3	incongruent/STIM_007.jpg
2454.482	0.889	correct	incongruent	Block3	incongruent/STIM_007.jpg
2458.562	0.603	correct	incongruent	Block3	incongruent/STIM_007.jpg
2462.524	0.857	correct	incongruent	Block3	incongruent/STIM_008.jpg
2465.537	1.05	correct	incongruent	Block3	incongruent/STIM_008.jpg
2469.584	0.521	correct	incongruent	Block3	incongruent/STIM_008.jpg
2473.051	0.811	correct	incongruent	Block3	incongruent/STIM_008.jpg
2476.073	0.94	correct	incongruent	Block3	incongruent/STIM_008.jpg
2480.11	0.992	correct	incongruent	Block3	incongruent/STIM_009.jpg
2484.375	0.878	correct	incongruent	Block3	incongruent/STIM_009.jpg
2488.445	0.589	correct	incongruent	Block3	incongruent/STIM_009.jpg
2491.866	0.747	correct	incongruent	Block3	incongruent/STIM_009.jpg
2495.219	1.006	correct	incongruent	Block3	incongruent/STIM_009.jpg
2498.426	0.951	correct	incongruent	Block3	incongruent/STIM_010.jpg
2503.005	0.679	correct	incongruent	Block3	incongruent/STIM_010.jpg
2506.677	0.769	correct	incongruent	Block3	incongruent/STIM_010.jpg
2510.52	0.617	incorrect	incongruent	Block3	incongruent/STIM_010.jpg
2514.667	0.577	incorrect	incongruent	Block3	incongruent/STIM_010.jpg
2518.726	0.911	correct	incongruent	Block3	incongruent/STIM_011.jpg
2521.956	1.076	correct	incongruent	Block3	incongruent/STIM_011.jpg
2525.419	1.007	incorrect	incongruent	Block3	incongruent/STIM_011.jpg
2530.348	0.514	correct	incongruent	Block3	incongruent/STIM_011.jpg
2534.329	0.771	correct	incongruent	Block3	incongruent/STIM_011.jpg
2537.638	0.86	incorrect	incongruent	Block3	incongruent/STIM_012.jpg
2541.943	1.077	correct	incongruent	Block3	incongruent/STIM_012.jpg
2545.604	1.028	correct	incongruent	Block3	incongruent/STIM_012.jpg
2549.851	0.574	correct	incongruent	Block3	incongruent/STIM_012.jpg
2553.884	0.514	correct	incongruent	Block3	incongruent/STIM_012.jpg
2558.32	0.834	correct	incongruent	Block3	incongruent/STIM_013.jpg
2561.237	1.068	correct	incongruent	Block3	incongruent/STIM_013.jpg
2564.709	0.842	correct	incongruent	Block3	incongruent/STIM_013.jpg
2569.012	0.848	correct	incongruent	Block3	incongruent/STIM_013.jpg
2573.827	1.094	correct	incongruent	Block3	incongruent/STIM_013.jpg
2577.123	0.64	correct	incongruent	Block3	incongruent/STIM_014.jpg
2581.173	0.778	correct	incongruent	Block3	incongruent/STIM_014.jpg
2584.861	0.778	correct	incongruent	Block3	incongruent/STIM_014.jpg
2588.11	0.743	correct	incongruent	Block3	incongruent/STIM_014.jpg
2591.472	0.933	correct	incongruent	Block3	incongruent/STIM_014.jpg
2594.566	1.006	correct	incongruent	Block3	incongruent/STIM_015.jpg
2597.605	0.579	correct	incongruent	Block3	incongruent/STIM_015.jpg
2601.368	1.07	correct	incongruent	Block3	incongruent/STIM_015.jpg
2605.018	0.689	incorrect	incongruent	Block3	incongruent/STIM_015.jpg
2607.826	0.516	correct	incongruent	Block3	incongruent/STIM_015.jpg
2611.39	0.815	correct	incongruent	Block3	incongruent/STIM_016.jpg
2615.331	0.567	correct	incongruent	Block3	incongruent/STIM_016.jpg
2618.199	0.678	correct	incongruent	Block3	incongruent/STIM_016.jpg
2621.276	0.679	correct	incongruent	Block3	incongruent/STIM_016.jpg
2624.363	0.815	correct	incongruent	Block3	incongruent/STIM_016.jpg
2628.647	0.718	correct	incongruent	Block3	incongruent/STIM_017.jpg
2632.071	0.561	correct	incongruent	Block3	incongruent/STIM_017.jpg
2634.681	0.669	correct	incongruent	Block3	incongruent/STIM_017.jpg
2639.155	0.637	correct	incongruent	Block3	incongruent/STIM_017.jpg
2643.124	0.515	correct	incongruent	Block3	incongruent/STIM_017.jpg
2645.797	1.014	correct	incongruent	Block3	incongruent/STIM_018.jpg
2650.81	0.791	correct	incongruent	Block3	incongruent/STIM_018.jpg
2654.269	0.87	correct	incongruent	Block3	incongruent/STIM_018.jpg
2659.039	1.092	correct	incongruent	Block3	incongruent/STIM_018.jpg
2663.391	0.55	correct	incongruent	Block3	incongruent/STIM_018.jpg
2666.051	0.795	correct	incongruent	Block3	incongruent/STIM_019.jpg
2670.236	0.516	correct	incongruent	Block3	incongruent/STIM_019.jpg
2673.951	0.63	correct	incongruent	Block3	incongruent/STIM_019.jpg
2677.027	0.65	correct	incongruent	Block3	incongruent/STIM_019.jpg
2680.29	0.878	correct	incongruent	Block3	incongruent/STIM_019.jpg
2685.041	0.762	correct	incongruent	Block3	incongruent/STIM_020.jpg
2688.459	0.592	correct	incongruent	Block3	incongruent/STIM_020.jpg
2692.83	0.564	correct	incongruent	Block3	incongruent/STIM_020.jpg
2696.145	0.665	correct	incongruent	Block3	incongruent/STIM_020.jpg
2698.913	0.852	correct	incongruent	Block3	incongruent/STIM_020.jpg
2702.567	0.643	correct	incongruent	Block3	incongruent/STIM_021.jpg
2706.582	0.568	correct	incongruent	Block3	incongruent/STIM_021.jpg
2709.995	1.077	incorrect	incongruent	Block3	incongruent/STIM_021.jpg
2713.275	1.082	incorrect	incongruent	Block3	incongruent/STIM_021.jpg
2716.724	0.797	correct	incongruent	Block3	incongruent/STIM_021.jpg
2721.451	1.084	correct	incongruent	Block3	incongruent/STIM_022.jpg
2726.058	0.642	correct	incongruent	Block3	incongruent/STIM_022.jpg
2729.951	0.532	correct	incongruent	Block3	incongruent/STIM_022.jpg
2733.609	0.757	correct	incongruent	Block3	incongruent/STIM_022.jpg
2737.091	0.738	correct	incongruent	Block3	incongruent/STIM_022.jpg
2740.706	0.957	correct	incongruent	Block3	incongruent/STIM_023.jpg
2744.571	1.055	correct	incongruent	Block3	incongruent/STIM_023.jpg
2748.799	0.935	correct	incongruent	Block3	incongruent/STIM_023.jpg
2752.147	1.073	correct	incongruent	Block3	incongruent/STIM_023.jpg
2756.272	0.904	correct	incongruent	Block3	incongruent/STIM_023.jpg
2759.656	1.013	correct	incongruent	Block3	incongruent/STIM_024.jpg
2763.229	0.808	correct	incongruent	Block3	incongruent/STIM_024.jpg
2767.176	0.55	correct	incongruent	Block3	incongruent/STIM_024.jpg
2770.326	1.046	correct	incongruent	Block3	incongruent/STIM_024.jpg
2773.857	0.715	correct	incongruent	Block3	incongruent/STIM_024.jpg
2777.335	0.578	correct	incongruent	Block3	incongruent/STIM_025.jpg
2780.196	0.585	correct	incongruent	Block3	incongruent/STIM_025.jpg
2784.174	0.891	correct	incongruent	Block3	incongruent/STIM_025.jpg
2789.015	1.023	correct	incongruent	Block3	incongruent/STIM_025.jpg
2793.112	0.7	correct	incongruent	Block3	incongruent/STIM_025.jpg
2796.697	0.65	correct	incongruent	Block3	incongruent/STIM_026.jpg
2799.687	0.981	correct	incongruent	Block3	incongruent/STIM_026.jpg
2803.691	0.827	correct	incongruent	Block3	incongruent/STIM_026.jpg
2806.87	0.91	correct	incongruent	Block3	incongruent/STIM_026.jpg
2811.165	0.777	correct	incongruent	Block3	incongruent/STIM_026.jpg
2815.067	1.063	correct	incongruent	Block3	incongruent/STIM_027.jpg
2819.259	1.016	correct	incongruent	Block3	incongruent/STIM_027.jpg
2822.539	0.934	correct	incongruent	Block3	incongruent/STIM_027.jpg
2827.06	0.884	correct	incongruent	Block3	incongruent/STIM_027.jpg
2830.41	0.864	correct	incongruent	Block3	incongruent/STIM_027.jpg
2834.49	0.647	correct	incongruent	Block3	incongruent/STIM_028.jpg
2837.936	0.684	correct	incongruent	Block3	incongruent/STIM_028.jpg
2841.087	0.847	correct	incongruent	Block3	incongruent/STIM_028.jpg
2844.113	0.675	correct	incongruent	Block3	incongruent/STIM_028.jpg
2848.512	0.575	correct	incongruent	Block3	incongruent/STIM_028.jpg
2851.417	0.711	correct	incongruent	Block3	incongruent/STIM_029.jpg
2855.58	0.601	correct	incongruent	Block3	incongruent/STIM_029.jpg
2858.714	0.726	correct	incongruent	Block3	incongruent/STIM_029.jpg
2862.563	0.984	correct	incongruent	Block3	incongruent/STIM_029.jpg
2866.537	0.924	correct	incongruent	Block3	incongruent/STIM_029.jpg
2871.026	0.636	correct	congruent	Block3	congruent/STIM_000.jpg
2874.937	0.899	incorrect	congruent	Block3	congruent/STIM_000.jpg
2878.832	0.738	incorrect	congruent	Block3	congruent/STIM_000.jpg
2883.148	0.736	correct	congruent	Block3	congruent/STIM_000.jpg
2886.94	0.636	correct	congruent	Block3	congruent/STIM_000.jpg
2891.133	0.6	correct	congruent	Block3	congruent/STIM_001.jpg
2894.021	0.618	incorrect	congruent	Block3	congruent/STIM_001.jpg
2898.197	0.625	correct	congruent	Block3	congruent/STIM_001.jpg
2902.53	0.68	correct	congruent	Block3	congruent/STIM_001.jpg
2906.85	0.598	correct	congruent	Block3	congruent/STIM_001.jpg
2910.844	0.788	correct	congruent	Block3	congruent/STIM_002.jpg
2915.236	0.62	incorrect	congruent	Block3	congruent/STIM_002.jpg
2918.022	0.684	correct	congruent	Block3	congruent/STIM_002.jpg
2920.717	0.842	correct	congruent	Block3	congruent/STIM_002.jpg
2925.179	0.904	correct	congruent	Block3	congruent/STIM_002.jpg
2929.48	0.666	incorrect	congruent	Block3	congruent/STIM_003.jpg
2932.493	0.556	incorrect	congruent	Block3	congruent/STIM_003.jpg
2936.695	0.604	correct	congruent	Block3	congruent/STIM_003.jpg
2940.787	0.679	correct	congruent	Block3	congruent/STIM_003.jpg
2944.497	0.619	incorrect	congruent	Block3	congruent/STIM_003.jpg
2947.284	0.9	correct	congruent	Block3	congruent/STIM_004.jpg
2950.36	0.559	correct	congruent	Block3	congruent/STIM_004.jpg
2954.33	0.808	correct	congruent	Block3	congruent/STIM_004.jpg
2957.517	0.696	correct	congruent	Block3	congruent/STIM_004.jpg
2961.433	0.728	correct	congruent	Block3	congruent/STIM_004.jpg
2964.554	0.527	correct	congruent	Block3	congruent/STIM_005.jpg
2967.547	0.819	correct	congruent	Block3	congruent/STIM_005.jpg
2971.067	0.718	correct	congruent	Block3	congruent/STIM_005.jpg
2974.173	0.741	correct	congruent	Block3	congruent/STIM_005.jpg
2978.44	0.565	correct	congruent	Block3	congruent/STIM_005.jpg
2981.25	0.658	correct	congruent	Block3	congruent/STIM_006.jpg
2984.617	0.871	correct	congruent	Block3	congruent/STIM_006.jpg
2989.362	0.648	correct	congruent	Block3	congruent/STIM_006.jpg
2993.483	0.632	incorrect	congruent	Block3	congruent/STIM_006.jpg
2997.91	0.726	incorrect	congruent	Block3	congruent/STIM_006.jpg
3001.806	0.793	incorrect	congruent	Block3	congruent/STIM_007.jpg
3004.624	0.69	incorrect	congruent	Block3	congruent/STIM_007.jpg
3007.99	0.673	incorrect	congruent	Block3	congruent/STIM_007.jpg
3011.287	0.557	correct	congruent	Block3	congruent/STIM_007.jpg
3014.196	0.577	correct	congruent	Block3	congruent/STIM_007.jpg
3018.654	0.644	correct	congruent	Block3	congruent/STIM_008.jpg
3023.148	0.881	correct	congruent	Block3	congruent/STIM_008.jpg
3026.461	0.65	correct	congruent	Block3	congruent/STIM_008.jpg
3031.093	0.867	incorrect	congruent	Block3	congruent/STIM_008.jpg
3034.1	0.621	correct	congruent	Block3	congruent/STIM_008.jpg
3037.831	0.639	correct	congruent	Block3	congruent/STIM_009.jpg
3040.537	0.64	correct	congruent	Block3	congruent/STIM_009.jpg
3043.972	0.832	correct	congruent	Block3	congruent/STIM_009.jpg
3048.513	0.678	correct	congruent	Block3	congruent/STIM_009.jpg
3051.261	0.71	correct	congruent	Block3	congruent/STIM_009.jpg
3054.057	0.749	correct	congruent	Block3	congruent/STIM_010.jpg
3058.425	0.722	correct	congruent	Block3	congruent/STIM_010.jpg
3061.217	0.558	correct	congruent	Block3	congruent/STIM_010.jpg
3064.353	0.911	correct	congruent	Block3	congruent/STIM_010.jpg
3068.063	0.878	correct	congruent	Block3	congruent/STIM_010.jpg
3072.537	0.593	correct	congruent	Block3	congruent/STIM_011.jpg
3075.651	0.756	correct	congruent	Block3	congruent/STIM_011.jpg
3079.496	0.694	correct	congruent	Block3	congruent/STIM_011.jpg
3083.754	0.849	correct	congruent	Block3	congruent/STIM_011.jpg
3087.289	0.866	correct	congruent	Block3	congruent/STIM_011.jpg
3091.392	0.775	correct	congruent	Block3	congruent/STIM_012.jpg
3094.66	0.601	correct	congruent	Block3	congruent/STIM_012.jpg
3098.783	0.603	correct	congruent	Block3	congruent/STIM_012.jpg
3101.796	0.787	correct	congruent	Block3	congruent/STIM_012.jpg
3106.141	0.759	correct	congruent	Block3	congruent/STIM_012.jpg
3109.584	0.821	correct	congruent	Block3	congruent/STIM_013.jpg
3113.146	0.617	correct	congruent	Block3	congruent/STIM_013.jpg
3117.638	0.89	correct	congruent	Block3	congruent/STIM_013.jpg
3121.115	0.812	correct	congruent	Block3	congruent/STIM_013.jpg
3125.04	0.778	correct	congruent	Block3	congruent/STIM_013.jpg
3128.832	0.722	correct	congruent	Block3	congruent/STIM_014.jpg
3133.205	0.606	incorrect	congruent	Block3	congruent/STIM_014.jpg
3136.496	0.813	correct	congruent	Block3	congruent/STIM_014.jpg
3141.198	0.704	correct	congruent	Block3	congruent/STIM_014.jpg
3145.005	0.813	correct	congruent	Block3	congruent/STIM_014.jpg
3149.52	0.759	correct	congruent	Block3	congruent/STIM_015.jpg
3152.335	0.642	correct	congruent	Block3	congruent/STIM_015.jpg
3156.415	0.906	correct	congruent	Block3	congruent/STIM_015.jpg
3160.004	0.93	correct	congruent	Block3	congruent/STIM_015.jpg
3163.435	0.707	incorrect	congruent	Block3	congruent/STIM_015.jpg
3166.391	0.87	correct	congruent	Block3	congruent/STIM_016.jpg
3171.04	0.919	correct	congruent	Block3	congruent/STIM_016.jpg
3174.427	0.898	incorrect	congruent	Block3	congruent/STIM_016.jpg
3179.002	0.539	correct	congruent	Block3	congruent/STIM_016.jpg
3181.603	0.904	correct	congruent	Block3	congruent/STIM_016.jpg
3186.146	0.591	correct	congruent	Block3	congruent/STIM_017.jpg
3189.064	0.82	correct	congruent	Block3	congruent/STIM_017.jpg
3193.087	0.818	correct	congruent	Block3	congruent/STIM_017.jpg
3197.113	0.602	correct	congruent	Block3	congruent/STIM_017.jpg
3201.619	0.695	correct	congruent	Block3	congruent/STIM_017.jpg
3205.749	0.807	correct	congruent	Block3	congruent/STIM_018.jpg
3210.084	0.702	correct	congruent	Block3	congruent/STIM_018.jpg
3212.951	0.853	incorrect	congruent	Block3	congruent/STIM_018.jpg
3215.836	0.806	incorrect	congruent	Block3	congruent/STIM_018.jpg
3220.031	0.82	correct	congruent	Block3	congruent/STIM_018.jpg
3223.247	0.593	correct	congruent	Block3	congruent/STIM_019.jpg
3226.544	0.547	correct	congruent	Block3	congruent/STIM_019.jpg
3229.467	0.635	incorrect	congruent	Block3	congruent/STIM_019.jpg
3232.577	0.682	correct	congruent	Block3	congruent/STIM_019.jpg
3235.877	0.614	incorrect	congruent	Block3	congruent/STIM_019.jpg
3239.224	0.557	correct	congruent	Block3	congruent/STIM_020.jpg
3243.429	0.788	correct	congruent	Block3	congruent/STIM_020.jpg
3247.473	0.724	incorrect	congruent	Block3	congruent/STIM_020.jpg
3251.854	0.704	correct	congruent	Block3	congruent/STIM_020.jpg
3255.92	0.62	correct	congruent	Block3	congruent/STIM_020.jpg
3258.963	0.572	correct	congruent	Block3	congruent/STIM_021.jpg
3262.109	0.8	correct	congruent	Block3	congruent/STIM_021.jpg
3265.854	0.685	correct	congruent	Block3	congruent/STIM_021.jpg
3269.308	0.587	correct	congruent	Block3	congruent/STIM_021.jpg
3273.292	0.538	incorrect	congruent	Block3	congruent/STIM_021.jpg
3277.405	0.781	incorrect	congruent	Block3	congruent/STIM_022.jpg
3281.786	0.559	correct	congruent	Block3	congruent/STIM_022.jpg
3284.566	0.793	correct	congruent	Block3	congruent/STIM_022.jpg
3287.596	0.699	correct	congruent	Block3	congruent/STIM_022.jpg
3292.138	0.631	correct	congruent	Block3	congruent/STIM_022.jpg
3294.989	0.826	correct	congruent	Block3	congruent/STIM_023.jpg
3297.979	0.842	correct	congruent	Block3	congruent/STIM_023.jpg
3302.071	0.581	correct	congruent	Block3	congruent/STIM_023.jpg
3305.547	0.881	correct	congruent	Block3	congruent/STIM_023.jpg
3310.105	0.818	correct	congruent	Block3	congruent/STIM_023.jpg
3313.323	0.69	correct	congruent	Block3	congruent/STIM_024.jpg
3317.741	0.794	correct	congruent	Block3	congruent/STIM_024.jpg
3321.568	0.568	correct	congruent	Block3	congruent/STIM_024.jpg
3324.647	0.766	correct	congruent	Block3	congruent/STIM_024.jpg
3329.337	0.669	correct	congruent	Block3	congruent/STIM_024.jpg
3332.982	0.651	correct	congruent	Block3	congruent/STIM_025.jpg
3336.748	0.738	correct	congruent	Block3	congruent/STIM_025.jpg
3339.667	0.533	correct	congruent	Block3	congruent/STIM_025.jpg
3343.267	0.58	correct	congruent	Block3	congruent/STIM_025.jpg
3347.225	0.777	correct	congruent	Block3	congruent/STIM_025.jpg
3351.544	0.921	correct	congruent	Block3	congruent/STIM_026.jpg
3356.118	0.848	correct	congruent	Block3	congruent/STIM_026.jpg
3359.617	0.635	correct	congruent	Block3	congruent/STIM_026.jpg
3362.999	0.866	correct	congruent	Block3	congruent/STIM_026.jpg
3367.82	0.917	correct	congruent	Block3	congruent/STIM_026.jpg
3372.5	0.628	correct	congruent	Block3	congruent/STIM_027.jpg
3376.103	0.852	correct	congruent	Block3	congruent/STIM_027.jpg
3379.931	0.826	correct	congruent	Block3	congruent/STIM_027.jpg
3382.97	0.571	correct	congruent	Block3	congruent/STIM_027.jpg
3387.009	0.656	correct	congruent	Block3	congruent/STIM_027.jpg
3390.221	0.896	correct	congruent	Block3	congruent/STIM_028.jpg
3394.6	0.555	correct	congruent	Block3	congruent/STIM_028.jpg
3397.177	0.775	correct	congruent	Block3	congruent/STIM_028.jpg
3401.689	0.748	correct	congruent	Block3	congruent/STIM_028.jpg
3406.128	0.763	correct	congruent	Block3	congruent/STIM_028.jpg
3409.279	0.66	incorrect	congruent	Block3	congruent/STIM_029.jpg
3412.911	0.849	correct	congruent	Block3	congruent/STIM_029.jpg
3417.1	0.886	correct	congruent	Block3	congruent/STIM_029.jpg
3420.262	0.881	correct	congruent	Block3	congruent/STIM_029.jpg
3423.998	0.844	correct	congruent	Block3	congruent/STIM_029.jpg
