onset	duration	accuracy	trial_type	learning_stage	stimulus
0.0	1.218	correct	2back	Block1	2back/STIM_000.jpg
4.412	0.862	correct	2back	Block1	2back/STIM_000.jpg
7.857	1.098	correct	2back	Block1	2back/STIM_000.jpg
12.617	0.986	correct	2back	Block1	2back/STIM_001.jpg
17.216	1.35	incorrect	2back	Block1	2back/STIM_001.jpg
21.585	0.966	correct	2back	Block1	2back/STIM_001.jpg
25.91	1.377	correct	2back	Block1	2back/STIM_002.jpg
30.332	1.256	correct	2back	Block1	2back/STIM_002.jpg
34.992	0.875	correct	2back	Block1	2back/STIM_002.jpg
39.736	0.683	correct	2back	Block1	2back/STIM_003.jpg
43.863	0.914	correct	2back	Block1	2back/STIM_003.jpg
48.521	1.26	correct	2back	Block1	2back/STIM_003.jpg
52.85	1.142	correct	2back	Block1	2back/STIM_004.jpg
57.512	1.382	incorrect	2back	Block1	2back/STIM_004.jpg
62.073	0.608	correct	2back	Block1	2back/STIM_004.jpg
65.32	1.293	correct	2back	Block1	2back/STIM_005.jpg
69.343	1.284	correct	2back	Block1	2back/STIM_005.jpg
72.738	0.649	correct	2back	Block1	2back/STIM_005.jpg
75.943	0.769	correct	2back	Block1	2back/STIM_006.jpg
80.476	0.602	correct	2back	Block1	2back/STIM_006.jpg
84.023	1.306	correct	2back	Block1	2back/STIM_006.jpg
87.397	0.793	correct	2back	Block1	2back/STIM_007.jpg
91.785	0.901	incorrect	2back	Block1	2back/STIM_007.jpg
96.485	1.253	correct	2back	Block1	2back/STIM_007.jpg
100.187	0.699	correct	2back	Block1	2back/STIM_008.jpg
103.62	0.605	correct	2back	Block1	2back/STIM_008.jpg
107.993	0.664	correct	2back	Block1	2back/STIM_008.jpg
111.246	0.745	correct	2back	Block1	2back/STIM_009.jpg
115.242	1.271	correct	2back	Block1	2back/STIM_009.jpg
118.623	0.997	correct	2back	Block1	2back/STIM_009.jpg
122.647	1.249	incorrect	2back	Block1	2back/STIM_010.jpg
127.184	1.058	correct	2back	Block1	2back/STIM_010.jpg
131.806	1.292	correct	2back	Block1	2back/STIM_010.jpg
135.954	1.071	correct	2back	Block1	2back/STIM_011.jpg
139.468	0.944	correct	2back	Block1	2back/STIM_011.jpg
143.001	1.222	correct	2back	Block1	2back/STIM_011.jpg
146.815	1.0	correct	2back	Block1	2back/STIM_012.jpg
151.342	0.749	incorrect	2back	Block1	2back/STIM_012.jpg
155.638	0.954	correct	2back	Block1	2back/STIM_012.jpg
160.007	0.654	correct	2back	Block1	2back/STIM_013.jpg
163.853	1.046	correct	2back	Block1	2back/STIM_013.jpg
167.3	1.141	correct	2back	Block1	2back/STIM_013.jpg
171.58	1.264	correct	2back	Block1	2back/STIM_014.jpg
174.891	1.178	correct	2back	Block1	2back/STIM_014.jpg
179.927	0.611	correct	2back	Block1	2back/STIM_014.jpg
184.072	1.189	correct	2back	Block1	2back/STIM_015.jpg
188.22	1.283	correct	2back	Block1	2back/STIM_015.jpg
192.628	1.09	correct	2back	Block1	2back/STIM_015.jpg
196.475	1.196	correct	2back	Block1	2back/STIM_016.jpg
200.056	1.016	incorrect	2back	Block1	2back/STIM_016.jpg
204.087	1.035	correct	2back	Block1	2back/STIM_016.jpg
207.781	1.244	correct	2back	Block1	2back/STIM_017.jpg
212.488	1.015	incorrect	2back	Block1	2back/STIM_017.jpg
216.067	0.648	correct	2back	Block1	2back/STIM_017.jpg
219.321	0.95	correct	2back	Block1	2back/STIM_018.jpg
222.711	1.295	incorrect	2back	Block1	2back/STIM_018.jpg
227.148	1.084	correct	2back	Block1	2back/STIM_018.jpg
230.852	1.076	correct	2back	Block1	2back/STIM_019.jpg
235.311	0.77	correct	2back	Block1	2back/STIM_019.jpg
238.521	1.177	correct	2back	Block1	2back/STIM_019.jpg
243.602	1.392	correct	2back	Block1	2back/STIM_020.jpg
248.567	0.73	correct	2back	Block1	2back/STIM_020.jpg
252.081	1.065	correct	2back	Block1	2back/STIM_020.jpg
255.783	0.962	correct	2back	Block1	2back/STIM_021.jpg
260.606	1.0	correct	2back	Block1	2back/STIM_021.jpg
265.003	0.77	correct	2back	Block1	2back/STIM_021.jpg
268.972	0.714	correct	2back	Block1	2back/STIM_022.jpg
272.316	0.694	incorrect	2back	Block1	2back/STIM_022.jpg
276.167	0.729	correct	2back	Block1	2back/STIM_022.jpg
279.815	1.433	correct	2back	Block1	2back/STIM_023.jpg
284.906	1.212	incorrect	2back	Block1	2back/STIM_023.jpg
288.333	0.813	correct	2back	Block1	2back/STIM_023.jpg
292.555	0.727	correct	2back	Block1	2back/STIM_024.jpg
297.109	0.783	correct	2back	Block1	2back/STIM_024.jpg
301.532	1.188	correct	2back	Block1	2back/STIM_024.jpg
305.195	1.173	incorrect	2back	Block1	2back/STIM_025.jpg
310.013	0.981	correct	2back	Block1	2back/STIM_025.jpg
312.96	1.01	correct	2back	Block1	2back/STIM_025.jpg
317.183	0.728	incorrect	2back	Block1	2back/STIM_026.jpg
320.196	1.013	incorrect	2back	Block1	2back/STIM_026.jpg
324.725	1.133	correct	2back	Block1	2back/STIM_026.jpg
329.126	0.639	correct	2back	Block1	2back/STIM_027.jpg
333.181	0.602	correct	2back	Block1	2back/STIM_027.jpg
337.117	1.259	correct	2back	Block1	2back/STIM_027.jpg
340.539	1.217	correct	2back	Block1	2back/STIM_028.jpg
343.911	0.891	incorrect	2back	Block1	2back/STIM_028.jpg
346.844	1.081	incorrect	2back	Block1	2back/STIM_028.jpg
350.289	0.952	correct	2back	Block1	2back/STIM_029.jpg
354.402	0.875	correct	2back	Block1	2back/STIM_029.jpg
358.413	1.269	correct	2back	Block1	2back/STIM_029.jpg
362.96	1.047	correct	2back	Block1	2back/STIM_030.jpg
367.05	1.374	correct	2back	Block1	2back/STIM_030.jpg
372.089	1.054	correct	2back	Block1	2back/STIM_030.jpg
376.628	1.239	correct	2back	Block1	2back/STIM_031.jpg
380.741	0.736	correct	2back	Block1	2back/STIM_031.jpg
385.414	1.312	correct	2back	Block1	2back/STIM_031.jpg
390.634	0.884	correct	2back	Block1	2back/STIM_032.jpg
393.718	1.036	correct	2back	Block1	2back/STIM_032.jpg
397.491	1.032	correct	2back	Block1	2back/STIM_032.jpg
402.274	0.823	correct	2back	Block1	2back/STIM_033.jpg
406.343	1.152	correct	2back	Block1	2back/STIM_033.jpg
410.88	1.211	correct	2back	Block1	2back/STIM_033.jpg
414.554	0.749	correct	2back	Block1	2back/STIM_034.jpg
418.825	1.152	correct	2back	Block1	2back/STIM_034.jpg
422.126	0.836	correct	2back	Block1	2back/STIM_034.jpg
425.465	1.362	correct	2back	Block1	2back/STIM_035.jpg
429.763	1.183	correct	2back	Block1	2back/STIM_035.jpg
434.005	0.61	correct	2back	Block1	2back/STIM_035.jpg
437.827	1.36	correct	2back	Block1	2back/STIM_036.jpg
442.18	1.285	correct	2back	Block1	2back/STIM_036.jpg
445.6	0.673	correct	2back	Block1	2back/STIM_036.jpg
449.266	0.738	correct	2back	Block1	2back/STIM_037.jpg
452.218	1.201	correct	2back	Block1	2back/STIM_037.jpg
456.698	0.574	correct	2back	Block1	2back/STIM_037.jpg
459.583	0.719	correct	2back	Block1	2back/STIM_038.jpg
462.718	0.626	correct	2back	Block1	2back/STIM_038.jpg
466.93	0.75	correct	2back	Block1	2back/STIM_038.jpg
469.769	1.315	correct	2back	Block1	2back/STIM_039.jpg
473.579	1.211	correct	2back	Block1	2back/STIM_039.jpg
477.007	1.274	correct	2back	Block1	2back/STIM_039.jpg
481.207	0.682	correct	0back	Block1	0back/STIM_000.jpg
484.35	0.575	correct	0back	Block1	0back/STIM_000.jpg
487.321	0.462	correct	0back	Block1	0back/STIM_000.jpg
490.554	0.498	correct	0back	Block1	0back/STIM_001.jpg
494.944	0.822	correct	0back	Block1	0back/STIM_001.jpg
498.786	0.568	correct	0back	Block1	0back/STIM_001.jpg
502.93	0.461	correct	0back	Block1	0back/STIM_002.jpg
505.646	0.599	correct	0back	Block1	0back/STIM_002.jpg
508.57	0.761	correct	0back	Block1	0back/STIM_002.jpg
512.923	0.485	correct	0back	Block1	0back/STIM_003.jpg
516.21	0.64	correct	0back	Block1	0back/STIM_003.jpg
520.426	0.616	correct	0back	Block1	0back/STIM_003.jpg
525.011	0.639	correct	0back	Block1	0back/STIM_004.jpg
528.631	0.486	correct	0back	Block1	0back/STIM_004.jpg
531.678	0.431	correct	0back	Block1	0back/STIM_004.jpg
535.938	0.751	correct	0back	Block1	0back/STIM_005.jpg
538.826	0.623	correct	0back	Block1	0back/STIM_005.jpg
542.875	0.745	correct	0back	Block1	0back/STIM_005.jpg
545.78	0.772	correct	0back	Block1	0back/STIM_006.jpg
550.236	0.777	correct	0back	Block1	0back/STIM_006.jpg
553.481	0.504	correct	0back	Block1	0back/STIM_006.jpg
557.159	0.43	correct	0back	Block1	0back/STIM_007.jpg
559.619	0.514	correct	0back	Block1	0back/STIM_007.jpg
563.554	0.536	correct	0back	Block1	0back/STIM_007.jpg
567.001	0.726	correct	0back	Block1	0back/STIM_008.jpg
570.234	0.777	correct	0back	Block1	0back/STIM_008.jpg
574.245	0.48	correct	0back	Block1	0back/STIM_008.jpg
577.998	0.66	correct	0back	Block1	0back/STIM_009.jpg
580.687	0.749	correct	0back	Block1	0back/STIM_009.jpg
585.153	0.725	correct	0back	Block1	0back/STIM_009.jpg
589.181	0.549	correct	0back	Block1	0back/STIM_010.jpg
591.773	0.743	correct	0back	Block1	0back/STIM_010.jpg
594.799	0.651	correct	0back	Block1	0back/STIM_010.jpg
597.643	0.613	correct	0back	Block1	0back/STIM_011.jpg
601.223	0.599	correct	0back	Block1	0back/STIM_011.jpg
605.364	0.635	correct	0back	Block1	0back/STIM_011.jpg
608.909	0.732	correct	0back	Block1	0back/STIM_012.jpg
612.986	0.71	correct	0back	Block1	0back/STIM_012.jpg
616.437	0.67	correct	0back	Block1	0back/STIM_012.jpg
619.368	0.644	correct	0back	Block1	0back/STIM_013.jpg
622.309	0.633	correct	0back	Block1	0back/STIM_013.jpg
625.091	0.765	correct	0back	Block1	0back/STIM_013.jpg
628.47	0.764	correct	0back	Block1	0back/STIM_014.jpg
631.375	0.821	correct	0back	Block1	0back/STIM_014.jpg
634.894	0.813	correct	0back	Block1	0back/STIM_014.jpg
638.702	0.471	correct	0back	Block1	0back/STIM_015.jpg
642.388	0.521	correct	0back	Block1	0back/STIM_015.jpg
645.332	0.835	correct	0back	Block1	0back/STIM_015.jpg
649.77	0.661	correct	0back	Block1	0back/STIM_016.jpg
653.8	0.565	correct	0back	Block1	0back/STIM_016.jpg
657.802	0.819	correct	0back	Block1	0back/STIM_016.jpg
661.212	0.79	correct	0back	Block1	0back/STIM_017.jpg
664.569	0.693	correct	0back	Block1	0back/STIM_017.jpg
667.891	0.552	correct	0back	Block1	0back/STIM_017.jpg
671.245	0.739	correct	0back	Block1	0back/STIM_018.jpg
675.664	0.637	correct	0back	Block1	0back/STIM_018.jpg
679.231	0.79	correct	0back	Block1	0back/STIM_018.jpg
683.167	0.805	correct	0back	Block1	0back/STIM_019.jpg
686.58	0.67	correct	0back	Block1	0back/STIM_019.jpg
689.333	0.808	incorrect	0back	Block1	0back/STIM_019.jpg
693.98	0.762	correct	2back	Block2	2back/STIM_000.jpg
697.126	0.829	correct	2back	Block2	2back/STIM_000.jpg
701.035	0.768	correct	2back	Block2	2back/STIM_000.jpg
704.821	1.152	incorrect	2back	Block2	2back/STIM_001.jpg
709.384	0.547	correct	2back	Block2	2back/STIM_001.jpg
712.176	0.93	correct	2back	Block2	2back/STIM_001.jpg
715.625	0.622	correct	2back	Block2	2back/STIM_002.jpg
719.135	0.746	correct	2back	Block2	2back/STIM_002.jpg
722.963	1.079	correct	2back	Block2	2back/STIM_002.jpg
727.306	0.919	correct	2back	Block2	2back/STIM_003.jpg
731.911	0.666	correct	2back	Block2	2back/STIM_003.jpg
736.016	0.919	correct	2back	Block2	2back/STIM_003.jpg
739.632	0.588	correct	2back	Block2	2back/STIM_004.jpg
743.005	0.563	correct	2back	Block2	2back/STIM_004.jpg
746.082	0.728	correct	2back	Block2	2back/STIM_004.jpg
749.249	0.878	incorrect	2back	Block2	2back/STIM_005.jpg
752.977	0.843	correct	2back	Block2	2back/STIM_005.jpg
756.392	0.778	correct	2back	Block2	2back/STIM_005.jpg
759.547	0.726	correct	2back	Block2	2back/STIM_006.jpg
763.189	1.046	correct	2back	Block2	2back/STIM_006.jpg
766.285	0.553	correct	2back	Block2	2back/STIM_006.jpg
770.492	0.948	correct	2back	Block2	2back/STIM_007.jpg
775.358	0.8	correct	2back	Block2	2back/STIM_007.jpg
778.878	1.064	correct	2back	Block2	2back/STIM_007.jpg
782.832	0.781	correct	2back	Block2	2back/STIM_008.jpg
786.341	1.16	correct	2back	Block2	2back/STIM_008.jpg
789.745	0.512	correct	2back	Block2	2back/STIM_008.jpg
794.065	1.107	correct	2back	Block2	2back/STIM_009.jpg
798.888	0.932	correct	2back	Block2	2back/STIM_009.jpg
803.292	0.823	correct	2back	Block2	2back/STIM_009.jpg
807.097	0.947	correct	2back	Block2	2back/STIM_010.jpg
810.453	0.952	correct	2back	Block2	2back/STIM_010.jpg
813.417	0.768	correct	2back	Block2	2back/STIM_010.jpg
817.859	1.197	correct	2back	Block2	2back/STIM_011.jpg
821.858	0.807	correct	2back	Block2	2back/STIM_011.jpg
826.565	0.614	correct	2back	Block2	2back/STIM_011.jpg
829.472	0.571	correct	2back	Block2	2back/STIM_012.jpg
832.554	0.582	correct	2back	Block2	2back/STIM_012.jpg
836.033	0.838	correct	2back	Block2	2back/STIM_012.jpg
840.435	0.808	correct	2back	Block2	2back/STIM_013.jpg
843.945	0.975	correct	2back	Block2	2back/STIM_013.jpg
848.272	0.886	incorrect	2back	Block2	2back/STIM_013.jpg
851.887	0.663	correct	2back	Block2	2back/STIM_014.jpg
855.773	0.782	correct	2back	Block2	2back/STIM_014.jpg
860.323	1.058	correct	2back	Block2	2back/STIM_014.jpg
864.58	0.688	correct	2back	Block2	2back/STIM_015.jpg
867.765	0.706	correct	2back	Block2	2back/STIM_015.jpg
872.385	0.916	correct	2back	Block2	2back/STIM_015.jpg
875.389	0.72	correct	2back	Block2	2back/STIM_016.jpg
878.122	0.636	correct	2back	Block2	2back/STIM_016.jpg
880.752	0.618	correct	2back	Block2	2back/STIM_016.jpg
884.725	1.217	correct	2back	Block2	2back/STIM_017.jpg
888.365	1.061	correct	2back	Block2	2back/STIM_017.jpg
892.719	0.803	correct	2back	Block2	2back/STIM_017.jpg
896.825	0.563	correct	2back	Block2	2back/STIM_018.jpg
900.348	1.076	correct	2back	Block2	2back/STIM_018.jpg
905.359	0.93	correct	2back	Block2	2back/STIM_018.jpg
908.977	0.891	incorrect	2back	Block2	2back/STIM_019.jpg
913.62	0.613	correct	2back	Block2	2back/STIM_019.jpg
916.56	0.737	correct	2back	Block2	2back/STIM_019.jpg
921.216	0.728	correct	2back	Block2	2back/STIM_020.jpg
924.6	1.154	correct	2back	Block2	2back/STIM_020.jpg
929.035	0.584	correct	2back	Block2	2back/STIM_020.jpg
932.855	1.059	correct	2back	Block2	2back/STIM_021.jpg
937.774	1.132	correct	2back	Block2	2back/STIM_021.jpg
941.668	0.757	correct	2back	Block2	2back/STIM_021.jpg
944.765	0.818	incorrect	2back	Block2	2back/STIM_022.jpg
948.194	1.123	correct	2back	Block2	2back/STIM_022.jpg
952.114	0.617	correct	2back	Block2	2back/STIM_022.jpg
956.295	1.222	correct	2back	Block2	2back/STIM_023.jpg
961.028	0.681	correct	2back	Block2	2back/STIM_023.jpg
964.819	1.039	correct	2back	Block2	2back/STIM_023.jpg
968.021	0.749	correct	2back	Block2	2back/STIM_024.jpg
971.679	1.152	correct	2back	Block2	2back/STIM_024.jpg
975.059	0.942	correct	2back	Block2	2back/STIM_024.jpg
978.201	1.075	correct	2back	Block2	2back/STIM_025.jpg
982.574	0.627	correct	2back	Block2	2back/STIM_025.jpg
986.354	0.979	correct	2back	Block2	2back/STIM_025.jpg
990.109	0.908	correct	2back	Block2	2back/STIM_026.jpg
994.749	0.812	correct	2back	Block2	2back/STIM_026.jpg
998.692	0.978	correct	2back	Block2	2back/STIM_026.jpg
1002.756	0.887	correct	2back	Block2	2back/STIM_027.jpg
1005.955	1.151	correct	2back	Block2	2back/STIM_027.jpg
1009.497	0.718	correct	2back	Block2	2back/STIM_027.jpg
1012.215	1.01	correct	2back	Block2	2back/STIM_028.jpg
1015.691	1.1	correct	2back	Block2	2back/STIM_028.jpg
1019.081	0.77	correct	2back	Block2	2back/STIM_028.jpg
1023.16	0.989	correct	2back	Block2	2back/STIM_029.jpg
1027.152	0.622	correct	2back	Block2	2back/STIM_029.jpg
1030.286	0.702	correct	2back	Block2	2back/STIM_029.jpg
1033.71	0.827	correct	2back	Block2	2back/STIM_030.jpg
1037.012	1.157	incorrect	2back	Block2	2back/STIM_030.jpg
1040.403	0.476	correct	2back	Block2	2back/STIM_030.jpg
1044.724	0.989	correct	2back	Block2	2back/STIM_031.jpg
1049.058	1.048	correct	2back	Block2	2back/STIM_031.jpg
1053.763	0.79	correct	2back	Block2	2back/STIM_031.jpg
1057.168	0.55	correct	2back	Block2	2back/STIM_032.jpg
1060.966	1.02	correct	2back	Block2	2back/STIM_032.jpg
1064.898	0.79	correct	2back	Block2	2back/STIM_032.jpg
1068.468	0.59	correct	2back	Block2	2back/STIM_033.jpg
1071.282	0.852	correct	2back	Block2	2back/STIM_033.jpg
1074.413	0.67	correct	2back	Block2	2back/STIM_033.jpg
1078.075	0.642	correct	2back	Block2	2back/STIM_034.jpg
1082.448	1.144	correct	2back	Block2	2back/STIM_034.jpg
1087.186	1.085	correct	2back	Block2	2back/STIM_034.jpg
1091.592	0.924	correct	2back	Block2	2back/STIM_035.jpg
1094.658	0.703	correct	2back	Block2	2back/STIM_035.jpg
1098.02	0.781	correct	2back	Block2	2back/STIM_035.jpg
1101.241	1.026	correct	2back	Block2	2back/STIM_036.jpg
1105.071	1.113	correct	2back	Block2	2back/STIM_036.jpg
1109.214	0.769	correct	2back	Block2	2back/STIM_036.jpg
1112.219	0.941	correct	2back	Block2	2back/STIM_037.jpg
1116.911	0.686	correct	2back	Block2	2back/STIM_037.jpg
1120.447	0.527	correct	2back	Block2	2back/STIM_037.jpg
1123.508	0.664	incorrect	2back	Block2	2back/STIM_038.jpg
1127.974	0.841	incorrect	2back	Block2	2back/STIM_038.jpg
1131.923	0.673	correct	2back	Block2	2back/STIM_038.jpg
1136.079	0.961	correct	2back	Block2	2back/STIM_039.jpg
1140.056	1.087	correct	2back	Block2	2back/STIM_039.jpg
1144.972	0.548	incorrect	2back	Block2	2back/STIM_039.jpg
1148.592	0.436	correct	0back	Block2	0back/STIM_000.jpg
1152.947	0.775	correct	0back	Block2	0back/STIM_000.jpg
1157.048	0.593	correct	0back	Block2	0back/STIM_000.jpg
1160.867	0.835	correct	0back	Block2	0back/STIM_001.jpg
1164.492	0.567	correct	0back	Block2	0back/STIM_001.jpg
1168.049	0.603	correct	0back	Block2	0back/STIM_001.jpg
1171.866	0.76	correct	0back	Block2	0back/STIM_002.jpg
1174.944	0.43	correct	0back	Block2	0back/STIM_002.jpg
1177.934	0.629	correct	0back	Block2	0back/STIM_002.jpg
1182.459	0.52	correct	0back	Block2	0back/STIM_003.jpg
1185.686	0.702	incorrect	0back	Block2	0back/STIM_003.jpg
1189.922	0.436	correct	0back	Block2	0back/STIM_003.jpg
1192.919	0.7	correct	0back	Block2	0back/STIM_004.jpg
1197.207	0.604	correct	0back	Block2	0back/STIM_004.jpg
1199.822	0.606	correct	0back	Block2	0back/STIM_004.jpg
1202.588	0.722	correct	0back	Block2	0back/STIM_005.jpg
1207.271	0.657	correct	0back	Block2	0back/STIM_005.jpg
1210.708	0.634	correct	0back	Block2	0back/STIM_005.jpg
1214.48	0.826	correct	0back	Block2	0back/STIM_006.jpg
1217.985	0.82	correct	0back	Block2	0back/STIM_006.jpg
1220.88	0.564	correct	0back	Block2	0back/STIM_006.jpg
1223.486	0.627	incorrect	0back	Block2	0back/STIM_007.jpg
1226.58	0.463	correct	0back	Block2	0back/STIM_007.jpg
1229.296	0.521	correct	0back	Block2	0back/STIM_007.jpg
1232.514	0.476	correct	0back	Block2	0back/STIM_008.jpg
1235.739	0.739	correct	0back	Block2	0back/STIM_008.jpg
1240.433	0.732	correct	0back	Block2	0back/STIM_008.jpg
1243.44	0.56	correct	0back	Block2	0back/STIM_009.jpg
1247.697	0.438	correct	0back	Block2	0back/STIM_009.jpg
1250.169	0.501	correct	0back	Block2	0back/STIM_009.jpg
1254.299	0.517	correct	0back	Block2	0back/STIM_010.jpg
1257.655	0.703	correct	0back	Block2	0back/STIM_010.jpg
1260.569	0.599	correct	0back	Block2	0back/STIM_010.jpg
1263.874	0.815	correct	0back	Block2	0back/STIM_011.jpg
1266.854	0.822	correct	0back	Block2	0back/STIM_011.jpg
1271.384	0.643	correct	0back	Block2	0back/STIM_011.jpg
1275.298	0.646	correct	0back	Block2	0back/STIM_012.jpg
1278.82	0.795	correct	0back	Block2	0back/STIM_012.jpg
1281.997	0.488	correct	0back	Block2	0back/STIM_012.jpg
1285.918	0.616	correct	0back	Block2	0back/STIM_013.jpg
1290.264	0.511	correct	0back	Block2	0back/STIM_013.jpg
1293.821	0.622	correct	0back	Block2	0back/STIM_013.jpg
1298.361	0.8	correct	0back	Block2	0back/STIM_014.jpg
1301.949	0.56	correct	0back	Block2	0back/STIM_014.jpg
1304.9	0.575	correct	0back	Block2	0back/STIM_014.jpg
1308.103	0.768	correct	0back	Block2	0back/STIM_015.jpg
1312.282	0.474	correct	0back	Block2	0back/STIM_015.jpg
1316.613	0.667	correct	0back	Block2	0back/STIM_015.jpg
1320.731	0.471	correct	0back	Block2	0back/STIM_016.jpg
1323.598	0.716	correct	0back	Block2	0back/STIM_016.jpg
1327.127	0.571	correct	0back	Block2	0back/STIM_016.jpg
1330.835	0.724	correct	0back	Block2	0back/STIM_017.jpg
1335.446	0.622	correct	0back	Block2	0back/STIM_017.jpg
1338.711	0.81	correct	0back	Block2	0back/STIM_017.jpg
1341.925	0.712	correct	0back	Block2	0back/STIM_018.jpg
1344.955	0.449	incorrect	0back	Block2	0back/STIM_018.jpg
1348.285	0.517	correct	0back	Block2	0back/STIM_018.jpg
1351.04	0.736	correct	0back	Block2	0back/STIM_019.jpg
1354.038	0.544	correct	0back	Block2	0back/STIM_019.jpg
1358.008	0.514	correct	0back	Block2	0back/STIM_019.jpg
1361.722	0.616	correct	2back	Block3	2back/STIM_000.jpg
1364.365	0.983	correct	2back	Block3	2back/STIM_000.jpg
1367.378	0.874	correct	2back	Block3	2back/STIM_000.jpg
1371.186	0.496	correct	2back	Block3	2back/STIM_001.jpg
1373.838	0.754	correct	2back	Block3	2back/STIM_001.jpg
1377.211	0.608	correct	2back	Block3	2back/STIM_001.jpg
1381.097	1.014	correct	2back	Block3	2back/STIM_002.jpg
1384.089	0.979	correct	2back	Block3	2back/STIM_002.jpg
1387.454	0.579	correct	2back	Block3	2back/STIM_002.jpg
1391.885	0.688	correct	2back	Block3	2back/STIM_003.jpg
1394.854	0.99	correct	2back	Block3	2back/STIM_003.jpg
1399.008	0.685	incorrect	2back	Block3	2back/STIM_003.jpg
1403.141	0.823	correct	2back	Block3	2back/STIM_004.jpg
1406.934	0.813	correct	2back	Block3	2back/STIM_004.jpg
1410.434	0.738	correct	2back	Block3	2back/STIM_004.jpg
1413.698	0.898	correct	2back	Block3	2back/STIM_005.jpg
1418.24	0.487	correct	2back	Block3	2back/STIM_005.jpg
1421.25	0.711	correct	2back	Block3	2back/STIM_005.jpg
1425.398	0.6	correct	2back	Block3	2back/STIM_006.jpg
1428.005	0.557	correct	2back	Block3	2back/STIM_006.jpg
1431.746	1.016	correct	2back	Block3	2back/STIM_006.jpg
1435.699	0.516	correct	2back	Block3	2back/STIM_007.jpg
1439.747	0.606	correct	2back	Block3	2back/STIM_007.jpg
1442.7	0.715	correct	2back	Block3	2back/STIM_007.jpg
1447.106	0.957	correct	2back	Block3	2back/STIM_008.jpg
1450.998	0.827	correct	2back	Block3	2back/STIM_008.jpg
1453.864	0.577	correct	2back	Block3	2back/STIM_008.jpg
1457.64	0.807	correct	2back	Block3	2back/STIM_009.jpg
1461.953	0.892	correct	2back	Block3	2back/STIM_009.jpg
1466.793	0.841	correct	2back	Block3	2back/STIM_009.jpg
1471.411	0.875	correct	2back	Block3	2back/STIM_010.jpg
1475.703	0.737	correct	2back	Block3	2back/STIM_010.jpg
1478.922	0.587	correct	2back	Block3	2back/STIM_010.jpg
1482.407	0.524	correct	2back	Block3	2back/STIM_011.jpg
1486.416	0.881	correct	2back	Block3	2back/STIM_011.jpg
1489.388	0.82	incorrect	2back	Block3	2back/STIM_011.jpg
1492.718	0.634	correct	2back	Block3	2back/STIM_012.jpg
1497.037	0.661	correct	2back	Block3	2back/STIM_012.jpg
1500.721	0.651	correct	2back	Block3	2back/STIM_012.jpg
1505.278	0.796	correct	2back	Block3	2back/STIM_013.jpg
1509.772	0.983	correct	2back	Block3	2back/STIM_013.jpg
1514.547	0.846	correct	2back	Block3	2back/STIM_013.jpg
1517.788	1.011	correct	2back	Block3	2back/STIM_014.jpg
1522.239	0.862	correct	2back	Block3	2back/STIM_014.jpg
1525.22	0.989	correct	2back	Block3	2back/STIM_014.jpg
1528.228	0.482	correct	2back	Block3	2back/STIM_015.jpg
1531.497	0.968	correct	2back	Block3	2back/STIM_015.jpg
1534.675	0.498	correct	2back	Block3	2back/STIM_015.jpg
1537.203	0.613	correct	2back	Block3	2back/STIM_016.jpg
1541.19	0.844	correct	2back	Block3	2back/STIM_016.jpg
1545.728	0.948	incorrect	2back	Block3	2back/STIM_016.jpg
1548.96	0.755	correct	2back	Block3	2back/STIM_017.jpg
1553.612	0.774	correct	2back	Block3	2back/STIM_017.jpg
1557.543	0.607	incorrect	2back	Block3	2back/STIM_017.jpg
1560.485	0.476	correct	2back	Block3	2back/STIM_018.jpg
1563.101	0.632	correct	2back	Block3	2back/STIM_018.jpg
1566.974	0.949	correct	2back	Block3	2back/STIM_018.jpg
1571.467	0.502	correct	2back	Block3	2back/STIM_019.jpg
1574.171	0.741	correct	2back	Block3	2back/STIM_019.jpg
1577.731	0.88	correct	2back	Block3	2back/STIM_019.jpg
1581.025	0.962	incorrect	2back	Block3	2back/STIM_020.jpg
1584.335	0.523	correct	2back	Block3	2back/STIM_020.jpg
1588.197	0.703	correct	2back	Block3	2back/STIM_020.jpg
1591.095	0.631	correct	2back	Block3	2back/STIM_021.jpg
1593.918	0.897	correct	2back	Block3	2back/STIM_021.jpg
1597.231	0.63	correct	2back	Block3	2back/STIM_021.jpg
1600.234	0.843	correct	2back	Block3	2back/STIM_022.jpg
1604.031	0.942	correct	2back	Block3	2back/STIM_022.jpg
1608.524	0.545	correct	2back	Block3	2back/STIM_022.jpg
1611.441	0.766	correct	2back	Block3	2back/STIM_023.jpg
1615.187	0.991	correct	2back	Block3	2back/STIM_023.jpg
1619.928	0.48	correct	2back	Block3	2back/STIM_023.jpg
1623.706	0.812	correct	2back	Block3	2back/STIM_024.jpg
1627.527	0.927	correct	2back	Block3	2back/STIM_024.jpg
1632.317	0.602	correct	2back	Block3	2back/STIM_024.jpg
1636.865	1.019	correct	2back	Block3	2back/STIM_025.jpg
1640.292	0.607	incorrect	2back	Block3	2back/STIM_025.jpg
1643.622	0.844	correct	2back	Block3	2back/STIM_025.jpg
1647.807	0.611	correct	2back	Block3	2back/STIM_026.jpg
1651.116	1.019	correct	2back	Block3	2back/STIM_026.jpg
1655.337	0.904	correct	2back	Block3	2back/STIM_026.jpg
1659.454	0.87	correct	2back	Block3	2back/STIM_027.jpg
1663.09	0.626	correct	2back	Block3	2back/STIM_027.jpg
1665.98	0.969	correct	2back	Block3	2back/STIM_027.jpg
1670.417	0.794	correct	2back	Block3	2back/STIM_028.jpg
1674.754	1.006	correct	2back	Block3	2back/STIM_028.jpg
1677.995	0.453	correct	2back	Block3	2back/STIM_028.jpg
1681.519	0.895	correct	2back	Block3	2back/STIM_029.jpg
1686.029	0.893	correct	2back	Block3	2back/STIM_029.jpg
1690.182	0.836	correct	2back	Block3	2back/STIM_029.jpg
1694.425	0.449	correct	2back	Block3	2back/STIM_030.jpg
1698.357	0.918	correct	2back	Block3	2back/STIM_030.jpg
1702.828	1.009	correct	2back	Block3	2back/STIM_030.jpg
1707.308	0.826	correct	2back	Block3	2back/STIM_031.jpg
1711.141	0.546	correct	2back	Block3	2back/STIM_031.jpg
1715.615	0.557	correct	2back	Block3	2back/STIM_031.jpg
1718.721	0.511	correct	2back	Block3	2back/STIM_032.jpg
1723.002	0.898	correct	2back	Block3	2back/STIM_032.jpg
1727.089	0.733	correct	2back	Block3	2back/STIM_032.jpg
1730.419	0.901	incorrect	2back	Block3	2back/STIM_033.jpg
1734.487	0.895	correct	2back	Block3	2back/STIM_033.jpg
1737.897	0.478	correct	2back	Block3	2back/STIM_033.jpg
1741.626	0.91	incorrect	2back	Block3	2back/STIM_034.jpg
1745.608	0.457	correct	2back	Block3	2back/STIM_034.jpg
1748.771	0.894	correct	2back	Block3	2back/STIM_034.jpg
1752.436	0.637	correct	2back	Block3	2back/STIM_035.jpg
1756.194	0.446	correct	2back	Block3	2back/STIM_035.jpg
1760.048	0.582	correct	2back	Block3	2back/STIM_035.jpg
1764.335	0.579	correct	2back	Block3	2back/STIM_036.jpg
1767.459	0.441	correct	2back	Block3	2back/STIM_036.jpg
1770.349	0.461	correct	2back	Block3	2back/STIM_036.jpg
1772.834	0.848	correct	2back	Block3	2back/STIM_037.jpg
1775.713	0.895	correct	2back	Block3	2back/STIM_037.jpg
1779.469	0.602	correct	2back	Block3	2back/STIM_037.jpg
1783.227	0.718	correct	2back	Block3	2back/STIM_038.jpg
1787.044	0.921	correct	2back	Block3	2back/STIM_038.jpg
1791.294	0.575	correct	2back	Block3	2back/STIM_038.jpg
1794.493	0.754	correct	2back	Block3	2back/STIM_039.jpg
1799.16	0.545	correct	2back	Block3	2back/STIM_039.jpg
1802.573	0.903	correct	2back	Block3	2back/STIM_039.jpg
1805.53	0.46	correct	0back	Block3	0back/STIM_000.jpg
1809.422	0.429	correct	0back	Block3	0back/STIM_000.jpg
1813.653	0.466	correct	0back	Block3	0back/STIM_000.jpg
1816.624	0.637	correct	0back	Block3	0back/STIM_001.jpg
1820.499	0.452	correct	0back	Block3	0back/STIM_001.jpg
1824.331	0.482	correct	0back	Block3	0back/STIM_001.jpg
1828.026	0.548	correct	0back	Block3	0back/STIM_002.jpg
1831.817	0.636	correct	0back	Block3	0back/STIM_002.jpg
1834.664	0.59	correct	0back	Block3	0back/STIM_002.jpg
1837.231	0.503	correct	0back	Block3	0back/STIM_003.jpg
1841.515	0.793	correct	0back	Block3	0back/STIM_003.jpg
1844.933	0.513	correct	0back	Block3	0back/STIM_003.jpg
1848.192	0.786	correct	0back	Block3	0back/STIM_004.jpg
1851.785	0.827	correct	0back	Block3	0back/STIM_004.jpg
1855.959	0.5	correct	0back	Block3	0back/STIM_004.jpg
1860.376	0.749	correct	0back	Block3	0back/STIM_005.jpg
1864.215	0.553	correct	0back	Block3	0back/STIM_005.jpg
1866.799	0.61	correct	0back	Block3	0back/STIM_005.jpg
1871.203	0.465	correct	0back	Block3	0back/STIM_006.jpg
1874.344	0.604	correct	0back	Block3	0back/STIM_006.jpg
1877.232	0.514	correct	0back	Block3	0back/STIM_006.jpg
1880.139	0.602	correct	0back	Block3	0back/STIM_007.jpg
1884.148	0.428	correct	0back	Block3	0back/STIM_007.jpg
1887.443	0.436	correct	0back	Block3	0back/STIM_007.jpg
1890.86	0.767	correct	0back	Block3	0back/STIM_008.jpg
1894.374	0.531	correct	0back	Block3	0back/STIM_008.jpg
1897.573	0.742	correct	0back	Block3	0back/STIM_008.jpg
1900.925	0.719	correct	0back	Block3	0back/STIM_009.jpg
1904.437	0.501	correct	0back	Block3	0back/STIM_009.jpg
1908.622	0.805	correct	0back	Block3	0back/STIM_009.jpg
1912.284	0.772	correct	0back	Block3	0back/STIM_010.jpg
1916.224	0.532	correct	0back	Block3	0back/STIM_010.jpg
1919.407	0.463	correct	0back	Block3	0back/STIM_010.jpg
1922.349	0.75	correct	0back	Block3	0back/STIM_011.jpg
1926.689	0.441	correct	0back	Block3	0back/STIM_011.jpg
1930.9	0.566	correct	0back	Block3	0back/STIM_011.jpg
1935.217	0.692	correct	0back	Block3	0back/STIM_012.jpg
1938.419	0.462	correct	0back	Block3	0back/STIM_012.jpg
1941.291	0.619	correct	0back	Block3	0back/STIM_012.jpg
1944.243	0.579	correct	0back	Block3	0back/STIM_013.jpg
1947.534	0.529	correct	0back	Block3	0back/STIM_013.jpg
1951.892	0.675	correct	0back	Block3	0back/STIM_013.jpg
1955.249	0.586	correct	0back	Block3	0back/STIM_014.jpg
1959.804	0.761	correct	0back	Block3	0back/STIM_014.jpg
1962.758	0.444	correct	0back	Block3	0back/STIM_014.jpg
1965.256	0.518	correct	0back	Block3	0back/STIM_015.jpg
1968.546	0.758	correct	0back	Block3	0back/STIM_015.jpg
1972.877	0.803	correct	0back	Block3	0back/STIM_015.jpg
1976.514	0.613	correct	0back	Block3	0back/STIM_016.jpg
1980.69	0.749	correct	0back	Block3	0back/STIM_016.jpg
1984.313	0.565	correct	0back	Block3	0back/STIM_016.jpg
1987.918	0.608	correct	0back	Block3	0back/STIM_017.jpg
1991.074	0.697	correct	0back	Block3	0back/STIM_017.jpg
1994.799	0.659	correct	0back	Block3	0back/STIM_017.jpg
1998.927	0.481	correct	0back	Block3	0back/STIM_018.jpg
2003.374	0.514	correct	0back	Block3	0back/STIM_018.jpg
2006.937	0.616	correct	0back	Block3	0back/STIM_018.jpg
2011.053	0.684	correct	0back	Block3	0back/STIM_019.jpg
2014.112	0.634	correct	0back	Block3	0back/STIM_019.jpg
2018.018	0.722	correct	0back	Block3	0back/STIM_019.jpg
2022.587	0.858	correct	2back	Block4	2back/STIM_000.jpg
2025.425	0.556	correct	2back	Block4	2back/STIM_000.jpg
2028.324	0.967	correct	2back	Block4	2back/STIM_000.jpg
2031.801	0.996	correct	2back	Block4	2back/STIM_001.jpg
2034.837	0.804	correct	2back	Block4	2back/STIM_001.jpg
2037.905	0.649	correct	2back	Block4	2back/STIM_001.jpg
2041.97	0.729	correct	2back	Block4	2back/STIM_002.jpg
2045.555	0.918	correct	2back	Block4	2back/STIM_002.jpg
2049.617	0.613	correct	2back	Block4	2back/STIM_002.jpg
2052.921	1.006	correct	2back	Block4	2back/STIM_003.jpg
2056.905	0.793	correct	2back	Block4	2back/STIM_003.jpg
2061.329	0.833	correct	2back	Block4	2back/STIM_003.jpg
2064.248	0.486	correct	2back	Block4	2back/STIM_004.jpg
2067.874	0.791	correct	2back	Block4	2back/STIM_004.jpg
2071.597	0.495	correct	2back	Block4	2back/STIM_004.jpg
2074.497	0.492	correct	2back	Block4	2back/STIM_005.jpg
2077.599	0.674	correct	2back	Block4	2back/STIM_005.jpg
2081.0	0.775	correct	2back	Block4	2back/STIM_005.jpg
2084.132	0.953	correct	2back	Block4	2back/STIM_006.jpg
2087.775	0.528	correct	2back	Block4	2back/STIM_006.jpg
2090.493	0.52	correct	2back	Block4	2back/STIM_006.jpg
2093.341	0.479	correct	2back	Block4	2back/STIM_007.jpg
2097.563	0.618	correct	2back	Block4	2back/STIM_007.jpg
2100.919	0.48	correct	2back	Block4	2back/STIM_007.jpg
2103.925	0.585	correct	2back	Block4	2back/STIM_008.jpg
2108.465	0.504	correct	2back	Block4	2back/STIM_008.jpg
2111.775	0.975	correct	2back	Block4	2back/STIM_008.jpg
2115.3	0.828	correct	2back	Block4	2back/STIM_009.jpg
2119.693	0.518	correct	2back	Block4	2back/STIM_009.jpg
2123.339	0.538	correct	2back	Block4	2back/STIM_009.jpg
2125.881	0.638	correct	2back	Block4	2back/STIM_010.jpg
2129.554	0.796	correct	2back	Block4	2back/STIM_010.jpg
2132.33	0.943	correct	2back	Block4	2back/STIM_010.jpg
2135.764	0.912	correct	2back	Block4	2back/STIM_011.jpg
2140.529	0.439	correct	2back	Block4	2back/STIM_011.jpg
2144.523	0.868	correct	2back	Block4	2back/STIM_011.jpg
2148.143	0.612	correct	2back	Block4	2back/STIM_012.jpg
2152.23	0.716	correct	2back	Block4	2back/STIM_012.jpg
2156.593	0.752	correct	2back	Block4	2back/STIM_012.jpg
2160.133	0.65	correct	2back	Block4	2back/STIM_013.jpg
2164.212	0.463	correct	2back	Block4	2back/STIM_013.jpg
2166.832	0.738	correct	2back	Block4	2back/STIM_013.jpg
2169.693	1.002	correct	2back	Block4	2back/STIM_014.jpg
2174.277	0.951	correct	2back	Block4	2back/STIM_014.jpg
2178.597	0.484	correct	2back	Block4	2back/STIM_014.jpg
2182.997	0.645	correct	2back	Block4	2back/STIM_015.jpg
2185.688	0.78	correct	2back	Block4	2back/STIM_015.jpg
2188.794	0.744	correct	2back	Block4	2back/STIM_015.jpg
2191.837	0.689	correct	2back	Block4	2back/STIM_016.jpg
2194.732	0.523	correct	2back	Block4	2back/STIM_016.jpg
2198.068	0.737	correct	2back	Block4	2back/STIM_016.jpg
2201.528	0.803	correct	2back	Block4	2back/STIM_017.jpg
2204.694	0.838	correct	2back	Block4	2back/STIM_017.jpg
2208.581	0.588	correct	2back	Block4	2back/STIM_017.jpg
2211.469	0.792	correct	2back	Block4	2back/STIM_018.jpg
2214.964	0.588	correct	2back	Block4	2back/STIM_018.jpg
2217.692	0.49	correct	2back	Block4	2back/STIM_018.jpg
2220.724	0.777	correct	2back	Block4	2back/STIM_019.jpg
2224.659	0.844	correct	2back	Block4	2back/STIM_019.jpg
2228.767	0.934	correct	2back	Block4	2back/STIM_019.jpg
2233.221	1.018	correct	2back	Block4	2back/STIM_020.jpg
2236.728	0.766	correct	2back	Block4	2back/STIM_020.jpg
2239.938	0.547	correct	2back	Block4	2back/STIM_020.jpg
2244.351	0.895	correct	2back	Block4	2back/STIM_021.jpg
2248.657	0.704	correct	2back	Block4	2back/STIM_021.jpg
2251.874	0.639	correct	2back	Block4	2back/STIM_021.jpg
2254.641	0.862	correct	2back	Block4	2back/STIM_022.jpg
2258.727	0.539	correct	2back	Block4	2back/STIM_022.jpg
2262.34	0.743	correct	2back	Block4	2back/STIM_022.jpg
2266.859	0.888	correct	2back	Block4	2back/STIM_023.jpg
2270.247	0.545	correct	2back	Block4	2back/STIM_023.jpg
2274.079	0.859	correct	2back	Block4	2back/STIM_023.jpg
2277.011	0.447	correct	2back	Block4	2back/STIM_024.jpg
2281.284	0.833	correct	2back	Block4	2back/STIM_024.jpg
2284.197	0.46	correct	2back	Block4	2back/STIM_024.jpg
2288.357	0.528	correct	2back	Block4	2back/STIM_025.jpg
2292.444	0.905	correct	2back	Block4	2back/STIM_025.jpg
2295.407	0.66	correct	2back	Block4	2back/STIM_025.jpg
2299.291	0.608	correct	2back	Block4	2back/STIM_026.jpg
2302.771	0.814	correct	2back	Block4	2back/STIM_026.jpg
2307.081	0.954	correct	2back	Block4	2back/STIM_026.jpg
2310.371	0.696	correct	2back	Block4	2back/STIM_027.jpg
2314.678	0.94	correct	2back	Block4	2back/STIM_027.jpg
2319.551	0.67	correct	2back	Block4	2back/STIM_027.jpg
2324.126	0.712	correct	2back	Block4	2back/STIM_028.jpg
2327.01	0.547	correct	2back	Block4	2back/STIM_028.jpg
2330.831	0.751	correct	2back	Block4	2back/STIM_028.jpg
2333.895	0.995	correct	2back	Block4	2back/STIM_029.jpg
2337.829	0.808	correct	2back	Block4	2back/STIM_029.jpg
2341.614	0.78	correct	2back	Block4	2back/STIM_029.jpg
2345.304	0.817	correct	2back	Block4	2back/STIM_030.jpg
2349.129	0.942	correct	2back	Block4	2back/STIM_030.jpg
2352.447	0.782	correct	2back	Block4	2back/STIM_030.jpg
2356.009	0.99	correct	2back	Block4	2back/STIM_031.jpg
2360.149	0.637	correct	2back	Block4	2back/STIM_031.jpg
2364.271	0.761	correct	2back	Block4	2back/STIM_031.jpg
2367.812	0.772	correct	2back	Block4	2back/STIM_032.jpg
2371.798	0.622	correct	2back	Block4	2back/STIM_032.jpg
2374.607	0.774	correct	2back	Block4	2back/STIM_032.jpg
2378.557	0.556	correct	2back	Block4	2back/STIM_033.jpg
2381.385	0.96	correct	2back	Block4	2back/STIM_033.jpg
2384.478	0.669	correct	2back	Block4	2back/STIM_033.jpg
2387.946	0.892	correct	2back	Block4	2back/STIM_034.jpg
2392.743	0.748	correct	2back	Block4	2back/STIM_034.jpg
2395.876	0.625	correct	2back	Block4	2back/STIM_034.jpg
2400.302	0.771	correct	2back	Block4	2back/STIM_035.jpg
2404.278	0.628	correct	2back	Block4	2back/STIM_035.jpg
2407.036	0.477	correct	2back	Block4	2back/STIM_035.jpg
2409.653	0.736	incorrect	2back	Block4	2back/STIM_036.jpg
2412.757	0.803	correct	2back	Block4	2back/STIM_036.jpg
2415.79	0.929	correct	2back	Block4	2back/STIM_036.jpg
2418.902	0.644	correct	2back	Block4	2back/STIM_037.jpg
2421.732	0.968	correct	2back	Block4	2back/STIM_037.jpg
2425.768	0.683	correct	2back	Block4	2back/STIM_037.jpg
2428.47	0.822	correct	2back	Block4	2back/STIM_038.jpg
2432.305	1.0	correct	2back	Block4	2back/STIM_038.jpg
2437.207	0.65	correct	2back	Block4	2back/STIM_038.jpg
2441.238	0.795	correct	2back	Block4	2back/STIM_039.jpg
2444.255	0.845	correct	2back	Block4	2back/STIM_039.jpg
2448.272	0.913	correct	2back	Block4	2back/STIM_039.jpg
2452.701	0.637	correct	0back	Block4	0back/STIM_000.jpg
2456.914	0.446	correct	0back	Block4	0back/STIM_000.jpg
2460.429	0.715	correct	0back	Block4	0back/STIM_000.jpg
2464.304	0.728	correct	0back	Block4	0back/STIM_001.jpg
2468.483	0.496	correct	0back	Block4	0back/STIM_001.jpg
2471.002	0.56	correct	0back	Block4	0back/STIM_001.jpg
2475.477	0.565	correct	0back	Block4	0back/STIM_002.jpg
2478.4	0.704	correct	0back	Block4	0back/STIM_002.jpg
2481.156	0.596	correct	0back	Block4	0back/STIM_002.jpg
2485.343	0.796	correct	0back	Block4	0back/STIM_003.jpg
2489.175	0.474	correct	0back	Block4	0back/STIM_003.jpg
2492.989	0.773	correct	0back	Block4	0back/STIM_003.jpg
2496.502	0.67	correct	0back	Block4	0back/STIM_004.jpg
2500.38	0.429	correct	0back	Block4	0back/STIM_004.jpg
2504.001	0.644	correct	0back	Block4	0back/STIM_004.jpg
2508.572	0.492	correct	0back	Block4	0back/STIM_005.jpg
2511.555	0.763	correct	0back	Block4	0back/STIM_005.jpg
2514.871	0.759	correct	0back	Block4	0back/STIM_005.jpg
2518.07	0.553	correct	0back	Block4	0back/STIM_006.jpg
2522.545	0.448	correct	0back	Block4	0back/STIM_006.jpg
2525.478	0.744	correct	0back	Block4	0back/STIM_006.jpg
2529.881	0.642	correct	0back	Block4	0back/STIM_007.jpg
2533.952	0.695	correct	0back	Block4	0back/STIM_007.jpg
2538.029	0.522	correct	0back	Block4	0back/STIM_007.jpg
2541.658	0.501	correct	0back	Block4	0back/STIM_008.jpg
2545.39	0.744	correct	0back	Block4	0back/STIM_008.jpg
2549.324	0.628	correct	0back	Block4	0back/STIM_008.jpg
2552.087	0.77	correct	0back	Block4	0back/STIM_009.jpg
2555.733	0.747	correct	0back	Block4	0back/STIM_009.jpg
2559.987	0.709	correct	0back	Block4	0back/STIM_009.jpg
2563.249	0.441	correct	0back	Block4	0back/STIM_010.jpg
2566.131	0.592	correct	0back	Block4	0back/STIM_010.jpg
2568.99	0.44	correct	0back	Block4	0back/STIM_010.jpg
2571.937	0.75	correct	0back	Block4	0back/STIM_011.jpg
2575.086	0.559	correct	0back	Block4	0back/STIM_011.jpg
2579.126	0.694	correct	0back	Block4	0back/STIM_011.jpg
2583.601	0.804	correct	0back	Block4	0back/STIM_012.jpg
2587.587	0.526	correct	0back	Block4	0back/STIM_012.jpg
2591.613	0.425	correct	0back	Block4	0back/STIM_012.jpg
2594.549	0.734	correct	0back	Block4	0back/STIM_013.jpg
2598.633	0.627	correct	0back	Block4	0back/STIM_013.jpg
2602.351	0.677	correct	0back	Block4	0back/STIM_013.jpg
2605.605	0.774	correct	0back	Block4	0back/STIM_014.jpg
2610.226	0.5	correct	0back	Block4	0back/STIM_014.jpg
2613.053	0.666	correct	0back	Block4	0back/STIM_014.jpg
2616.467	0.48	correct	0back	Block4	0back/STIM_015.jpg
2619.405	0.642	incorrect	0back	Block4	0back/STIM_015.jpg
2623.902	0.656	correct	0back	Block4	0back/STIM_015.jpg
2627.091	0.465	correct	0back	Block4	0back/STIM_016.jpg
2630.723	0.654	correct	0back	Block4	0back/STIM_016.jpg
2635.247	0.506	correct	0back	Block4	0back/STIM_016.jpg
2639.484	0.79	correct	0back	Block4	0back/STIM_017.jpg
2643.77	0.603	correct	0back	Block4	0back/STIM_017.jpg
2647.279	0.557	correct	0back	Block4	0back/STIM_017.jpg
2651.582	0.776	correct	0back	Block4	0back/STIM_018.jpg
2655.425	0.619	correct	0back	Block4	0back/STIM_018.jpg
2659.218	0.644	correct	0back	Block4	0back/STIM_018.jpg
2663.63	0.698	correct	0back	Block4	0back/STIM_019.jpg
2666.945	0.718	correct	0back	Block4	0back/STIM_019.jpg
2670.785	0.746	correct	0back	Block4	0back/STIM_019.jpg
