onset	duration	response_time_ms	trial_type	learning_stage	stimulus	response_port
0.0	0.724	723.5	2back	Block1	2back/STIM_000.jpg	99
4.559	1.166	1165.6	2back	Block1	2back/STIM_000.jpg	99
8.768	0.565	565.4	2back	Block1	2back/STIM_000.jpg	100
11.844	0.583	582.8	2back	Block1	2back/STIM_001.jpg	100
14.52	0.925	924.9	2back	Block1	2back/STIM_001.jpg	100
18.738	0.591	591.2	2back	Block1	2back/STIM_001.jpg	100
21.593	0.65	649.5	2back	Block1	2back/STIM_002.jpg	100
25.108	0.998	997.7	2back	Block1	2back/STIM_002.jpg	99
28.432	0.844	843.7	2back	Block1	2back/STIM_002.jpg	99
31.343	1.202	1202.2	2back	Block1	2back/STIM_003.jpg	99
35.722	0.974	974.4	2back	Block1	2back/STIM_003.jpg	100
40.016	0.562	561.6	2back	Block1	2back/STIM_003.jpg	100
44.256	0.727	727.0	2back	Block1	2back/STIM_004.jpg	100
48.496	0.576	576.1	2back	Block1	2back/STIM_004.jpg	99
52.389	0.519	518.8	2back	Block1	2back/STIM_004.jpg	99
54.943	0.621	620.7	2back	Block1	2back/STIM_005.jpg	100
58.011	0.694	693.7	2back	Block1	2back/STIM_005.jpg	100
61.48	0.99	990.0	2back	Block1	2back/STIM_005.jpg	100
66.145	0.624	623.7	2back	Block1	2back/STIM_006.jpg	100
68.898	0.535	534.7	2back	Block1	2back/STIM_006.jpg	100
72.067	0.81	810.3	2back	Block1	2back/STIM_006.jpg	100
76.268	1.198	1198.1	2back	Block1	2back/STIM_007.jpg	100
79.753	0.699	699.0	2back	Block1	2back/STIM_007.jpg	100
83.397	0.891	891.1	2back	Block1	2back/STIM_007.jpg	99
87.579	0.632	632.4	2back	Block1	2back/STIM_008.jpg	100
91.966	0.543	543.4	2back	Block1	2back/STIM_008.jpg	99
95.851	0.607	607.0	2back	Block1	2back/STIM_008.jpg	99
98.527	0.578	577.5	2back	Block1	2back/STIM_009.jpg	99
102.53	0.915	915.1	2back	Block1	2back/STIM_009.jpg	100
106.227	0.857	856.9	2back	Block1	2back/STIM_009.jpg	100
110.302	1.194	1194.0	2back	Block1	2back/STIM_010.jpg	99
113.594	0.73	730.1	2back	Block1	2back/STIM_010.jpg	99
118.108	0.876	875.7	2back	Block1	2back/STIM_010.jpg	99
121.894	1.035	1035.2	2back	Block1	2back/STIM_011.jpg	99
126.463	1.16	1160.0	2back	Block1	2back/STIM_011.jpg	100
129.795	1.027	1026.8	2back	Block1	2back/STIM_011.jpg	99
133.336	0.743	743.3	2back	Block1	2back/STIM_012.jpg	99
136.164	0.776	775.8	2back	Block1	2back/STIM_012.jpg	99
139.964	0.809	809.1	2back	Block1	2back/STIM_012.jpg	100
142.853	1.148	1147.6	2back	Block1	2back/STIM_013.jpg	99
146.067	1.166	1166.5	2back	Block1	2back/STIM_013.jpg	99
149.706	0.497	497.0	2back	Block1	2back/STIM_013.jpg	100
152.751	0.776	776.2	2back	Block1	2back/STIM_014.jpg	100
157.136	0.888	888.0	2back	Block1	2back/STIM_014.jpg	100
161.681	0.803	802.7	2back	Block1	2back/STIM_014.jpg	100
165.176	1.104	1104.2	2back	Block1	2back/STIM_015.jpg	99
170.19	0.557	557.4	2back	Block1	2back/STIM_015.jpg	100
174.229	0.533	532.9	2back	Block1	2back/STIM_015.jpg	100
177.836	0.938	937.9	2back	Block1	2back/STIM_016.jpg	100
181.637	1.045	1045.0	2back	Block1	2back/STIM_016.jpg	99
186.394	1.012	1011.9	2back	Block1	2back/STIM_016.jpg	100
190.614	0.75	750.5	2back	Block1	2back/STIM_017.jpg	100
193.703	0.894	894.5	2back	Block1	2back/STIM_017.jpg	99
197.207	0.697	697.1	2back	Block1	2back/STIM_017.jpg	100
201.221	0.69	690.1	2back	Block1	2back/STIM_018.jpg	100
204.052	1.116	1115.5	2back	Block1	2back/STIM_018.jpg	100
207.411	0.691	690.9	2back	Block1	2back/STIM_018.jpg	100
211.013	0.649	649.0	2back	Block1	2back/STIM_019.jpg	100
214.387	0.685	684.6	2back	Block1	2back/STIM_019.jpg	99
218.047	0.714	714.3	2back	Block1	2back/STIM_019.jpg	99
222.63	0.926	926.1	2back	Block1	2back/STIM_020.jpg	100
225.819	0.512	512.2	2back	Block1	2back/STIM_020.jpg	100
228.956	0.572	572.5	2back	Block1	2back/STIM_020.jpg	99
232.539	0.929	929.4	2back	Block1	2back/STIM_021.jpg	100
237.037	0.902	902.1	2back	Block1	2back/STIM_021.jpg	99
240.229	0.71	710.3	2back	Block1	2back/STIM_021.jpg	99
243.021	1.043	1042.8	2back	Block1	2back/STIM_022.jpg	99
247.551	0.936	935.9	2back	Block1	2back/STIM_022.jpg	99
250.975	0.799	799.2	2back	Block1	2back/STIM_022.jpg	99
255.418	1.184	1184.5	2back	Block1	2back/STIM_023.jpg	99
260.35	0.824	824.4	2back	Block1	2back/STIM_023.jpg	100
264.641	0.633	632.7	2back	Block1	2back/STIM_023.jpg	99
268.514	1.103	1102.9	2back	Block1	2back/STIM_024.jpg	100
272.332	0.514	513.9	2back	Block1	2back/STIM_024.jpg	100
275.369	0.674	674.0	2back	Block1	2back/STIM_024.jpg	99
278.413	0.927	926.9	2back	Block1	2back/STIM_025.jpg	100
282.682	0.636	636.1	2back	Block1	2back/STIM_025.jpg	99
287.122	0.511	510.9	2back	Block1	2back/STIM_025.jpg	100
290.302	0.578	578.2	2back	Block1	2back/STIM_026.jpg	100
293.609	0.713	712.6	2back	Block1	2back/STIM_026.jpg	99
298.105	0.703	703.3	2back	Block1	2back/STIM_026.jpg	99
301.46	0.69	689.6	2back	Block1	2back/STIM_027.jpg	99
305.883	1.074	1073.9	2back	Block1	2back/STIM_027.jpg	100
310.695	0.568	567.6	2back	Block1	2back/STIM_027.jpg	100
314.466	0.943	943.1	2back	Block1	2back/STIM_028.jpg	100
317.757	0.62	619.9	2back	Block1	2back/STIM_028.jpg	100
321.939	0.586	586.2	2back	Block1	2back/STIM_028.jpg	100
325.065	1.073	1072.7	2back	Block1	2back/STIM_029.jpg	100
328.752	1.001	1001.2	2back	Block1	2back/STIM_029.jpg	99
332.934	0.8	799.8	2back	Block1	2back/STIM_029.jpg	100
337.244	0.541	541.1	2back	Block1	2back/STIM_030.jpg	100
341.615	1.004	1003.7	2back	Block1	2back/STIM_030.jpg	100
344.623	0.747	746.6	2back	Block1	2back/STIM_030.jpg	100
347.4	0.876	876.5	2back	Block1	2back/STIM_031.jpg	100
351.49	0.878	877.5	2back	Block1	2back/STIM_031.jpg	100
354.607	0.834	834.1	2back	Block1	2back/STIM_031.jpg	100
357.757	0.956	955.5	2back	Block1	2back/STIM_032.jpg	100
362.076	0.909	909.3	2back	Block1	2back/STIM_032.jpg	99
365.427	0.823	822.9	2back	Block1	2back/STIM_032.jpg	99
368.601	0.878	877.8	2back	Block1	2back/STIM_033.jpg	99
372.905	0.655	655.4	2back	Block1	2back/STIM_033.jpg	99
377.189	0.81	810.1	2back	Block1	2back/STIM_033.jpg	99
380.777	0.846	845.6	2back	Block1	2back/STIM_034.jpg	100
383.827	1.039	1039.0	2back	Block1	2back/STIM_034.jpg	100
387.78	0.936	936.0	2back	Block1	2back/STIM_034.jpg	99
391.393	0.76	759.9	2back	Block1	2back/STIM_035.jpg	99
395.523	0.738	737.9	2back	Block1	2back/STIM_035.jpg	99
398.318	0.943	942.7	2back	Block1	2back/STIM_035.jpg	100
401.735	0.606	605.9	2back	Block1	2back/STIM_036.jpg	100
405.883	0.737	737.3	2back	Block1	2back/STIM_036.jpg	99
409.605	0.6	599.9	2back	Block1	2back/STIM_036.jpg	100
412.802	1.144	1144.1	2back	Block1	2back/STIM_037.jpg	100
417.865	0.618	617.7	2back	Block1	2back/STIM_037.jpg	100
421.496	0.68	679.8	2back	Block1	2back/STIM_037.jpg	100
424.833	1.016	1015.8	2back	Block1	2back/STIM_038.jpg	100
429.813	1.07	1069.5	2back	Block1	2back/STIM_038.jpg	99
434.156	0.775	775.4	2back	Block1	2back/STIM_038.jpg	100
437.615	0.792	791.8	2back	Block1	2back/STIM_039.jpg	99
441.826	0.623	623.3	2back	Block1	2back/STIM_039.jpg	100
444.85	0.714	714.1	2back	Block1	2back/STIM_039.jpg	99
449.318	0.607	607.2	0back	Block1	0back/STIM_000.jpg	99
453.577	0.701	700.9	0back	Block1	0back/STIM_000.jpg	100
456.516	0.385	385.2	0back	Block1	0back/STIM_000.jpg	100
459.721	0.698	697.9	0back	Block1	0back/STIM_001.jpg	100
463.98	0.452	452.3	0back	Block1	0back/STIM_001.jpg	99
466.776	0.453	453.4	0back	Block1	0back/STIM_001.jpg	99
469.73	0.477	476.8	0back	Block1	0back/STIM_002.jpg	99
472.34	0.44	440.5	0back	Block1	0back/STIM_002.jpg	100
475.053	0.406	405.6	0back	Block1	0back/STIM_002.jpg	99
478.322	0.502	502.3	0back	Block1	0back/STIM_003.jpg	99
481.801	0.415	415.1	0back	Block1	0back/STIM_003.jpg	99
484.876	0.551	551.1	0back	Block1	0back/STIM_003.jpg	100
489.036	0.374	373.8	0back	Block1	0back/STIM_004.jpg	99
492.343	0.626	625.5	0back	Block1	0back/STIM_004.jpg	100
496.929	0.67	669.8	0back	Block1	0back/STIM_004.jpg	99
499.816	0.424	424.1	0back	Block1	0back/STIM_005.jpg	99
503.931	0.376	375.5	0back	Block1	0back/STIM_005.jpg	99
507.191	0.469	469.1	0back	Block1	0back/STIM_005.jpg	100
510.126	0.4	400.4	0back	Block1	0back/STIM_006.jpg	100
514.297	0.546	546.1	0back	Block1	0back/STIM_006.jpg	100
518.14	0.611	611.0	0back	Block1	0back/STIM_006.jpg	100
521.103	0.497	497.1	0back	Block1	0back/STIM_007.jpg	99
524.032	0.614	614.4	0back	Block1	0back/STIM_007.jpg	100
527.962	0.549	549.4	0back	Block1	0back/STIM_007.jpg	99
530.733	0.704	703.5	0back	Block1	0back/STIM_008.jpg	99
534.355	0.542	541.8	0back	Block1	0back/STIM_008.jpg	99
537.528	0.496	496.0	0back	Block1	0back/STIM_008.jpg	99
541.298	0.494	494.0	0back	Block1	0back/STIM_009.jpg	99
545.089	0.58	580.4	0back	Block1	0back/STIM_009.jpg	99
549.456	0.538	538.0	0back	Block1	0back/STIM_009.jpg	99
552.249	0.429	428.8	0back	Block1	0back/STIM_010.jpg	99
554.983	0.371	371.3	0back	Block1	0back/STIM_010.jpg	100
557.816	0.624	623.9	0back	Block1	0back/STIM_010.jpg	99
562.358	0.689	688.7	0back	Block1	0back/STIM_011.jpg	99
565.463	0.552	551.5	0back	Block1	0back/STIM_011.jpg	99
568.121	0.369	368.9	0back	Block1	0back/STIM_011.jpg	100
571.549	0.707	706.7	0back	Block1	0back/STIM_012.jpg	99
574.93	0.504	503.6	0back	Block1	0back/STIM_012.jpg	99
577.845	0.59	590.4	0back	Block1	0back/STIM_012.jpg	99
580.877	0.482	482.3	0back	Block1	0back/STIM_013.jpg	100
584.049	0.45	449.7	0back	Block1	0back/STIM_013.jpg	99
588.041	0.691	690.7	0back	Block1	0back/STIM_013.jpg	100
591.391	0.696	696.3	0back	Block1	0back/STIM_014.jpg	100
594.826	0.585	584.8	0back	Block1	0back/STIM_014.jpg	99
597.543	0.508	508.5	0back	Block1	0back/STIM_014.jpg	100
600.089	0.646	646.5	0back	Block1	0back/STIM_015.jpg	100
602.743	0.493	493.2	0back	Block1	0back/STIM_015.jpg	99
606.523	0.479	479.3	0back	Block1	0back/STIM_015.jpg	99
609.229	0.434	434.4	0back	Block1	0back/STIM_016.jpg	99
612.759	0.613	613.0	0back	Block1	0back/STIM_016.jpg	100
616.187	0.387	387.1	0back	Block1	0back/STIM_016.jpg	100
620.445	0.453	452.9	0back	Block1	0back/STIM_017.jpg	99
623.85	0.509	509.0	0back	Block1	0back/STIM_017.jpg	100
627.447	0.473	472.7	0back	Block1	0back/STIM_017.jpg	100
631.759	0.582	581.8	0back	Block1	0back/STIM_018.jpg	100
635.151	0.598	598.5	0back	Block1	0back/STIM_018.jpg	100
639.529	0.687	686.7	0back	Block1	0back/STIM_018.jpg	100
643.26	0.567	566.8	0back	Block1	0back/STIM_019.jpg	100
646.981	0.636	636.4	0back	Block1	0back/STIM_019.jpg	100
651.457	0.538	537.5	0back	Block1	0back/STIM_019.jpg	100
655.676	0.968	968.1	2back	Block2	2back/STIM_000.jpg	99
660.069	0.451	450.9	2back	Block2	2back/STIM_000.jpg	99
663.942	0.828	827.9	2back	Block2	2back/STIM_000.jpg	99
668.256	0.52	520.0	2back	Block2	2back/STIM_001.jpg	100
672.164	0.734	733.6	2back	Block2	2back/STIM_001.jpg	99
675.163	0.429	428.8	2back	Block2	2back/STIM_001.jpg	99
679.016	0.569	568.7	2back	Block2	2back/STIM_002.jpg	99
681.601	0.534	533.8	2back	Block2	2back/STIM_002.jpg	100
684.97	0.58	580.3	2back	Block2	2back/STIM_002.jpg	100
688.615	0.911	911.3	2back	Block2	2back/STIM_003.jpg	99
692.059	0.875	875.3	2back	Block2	2back/STIM_003.jpg	99
696.565	0.569	569.4	2back	Block2	2back/STIM_003.jpg	100
700.806	0.974	973.9	2back	Block2	2back/STIM_004.jpg	99
704.892	0.843	843.3	2back	Block2	2back/STIM_004.jpg	99
709.34	0.6	600.0	2back	Block2	2back/STIM_004.jpg	99
712.271	0.54	539.5	2back	Block2	2back/STIM_005.jpg	99
714.98	0.564	563.7	2back	Block2	2back/STIM_005.jpg	100
718.566	0.428	427.9	2back	Block2	2back/STIM_005.jpg	100
721.305	1.0	1000.2	2back	Block2	2back/STIM_006.jpg	100
725.604	0.68	679.5	2back	Block2	2back/STIM_006.jpg	100
729.357	0.641	640.7	2back	Block2	2back/STIM_006.jpg	100
733.215	0.573	573.3	2back	Block2	2back/STIM_007.jpg	99
737.346	0.758	758.0	2back	Block2	2back/STIM_007.jpg	100
741.162	0.77	770.2	2back	Block2	2back/STIM_007.jpg	100
745.628	0.512	511.9	2back	Block2	2back/STIM_008.jpg	99
749.716	0.79	790.4	2back	Block2	2back/STIM_008.jpg	99
753.554	0.5	500.5	2back	Block2	2back/STIM_008.jpg	100
757.692	0.5	499.6	2back	Block2	2back/STIM_009.jpg	100
760.61	0.476	475.7	2back	Block2	2back/STIM_009.jpg	100
763.203	0.688	688.2	2back	Block2	2back/STIM_009.jpg	100
767.414	0.969	969.3	2back	Block2	2back/STIM_010.jpg	99
770.407	0.615	615.3	2back	Block2	2back/STIM_010.jpg	99
773.74	0.412	412.2	2back	Block2	2back/STIM_010.jpg	100
776.442	0.75	750.1	2back	Block2	2back/STIM_011.jpg	99
780.645	0.504	504.3	2back	Block2	2back/STIM_011.jpg	100
783.516	0.472	471.6	2back	Block2	2back/STIM_011.jpg	100
787.606	0.991	991.4	2back	Block2	2back/STIM_012.jpg	99
791.597	0.963	963.2	2back	Block2	2back/STIM_012.jpg	99
795.98	0.734	734.3	2back	Block2	2back/STIM_012.jpg	100
798.926	0.959	959.3	2back	Block2	2back/STIM_013.jpg	99
802.76	0.876	875.8	2back	Block2	2back/STIM_013.jpg	100
806.734	0.627	627.4	2back	Block2	2back/STIM_013.jpg	99
809.566	0.507	507.4	2back	Block2	2back/STIM_014.jpg	100
814.057	0.785	785.4	2back	Block2	2back/STIM_014.jpg	99
816.987	0.496	495.7	2back	Block2	2back/STIM_014.jpg	100
819.976	0.91	909.7	2back	Block2	2back/STIM_015.jpg	99
824.581	0.638	637.9	2back	Block2	2back/STIM_015.jpg	99
827.525	0.611	610.7	2back	Block2	2back/STIM_015.jpg	100
831.556	0.479	478.9	2back	Block2	2back/STIM_016.jpg	99
834.057	0.718	717.7	2back	Block2	2back/STIM_016.jpg	99
836.978	0.417	416.8	2back	Block2	2back/STIM_016.jpg	100
840.705	0.966	966.1	2back	Block2	2back/STIM_017.jpg	100
844.64	0.718	718.3	2back	Block2	2back/STIM_017.jpg	99
848.46	0.431	431.0	2back	Block2	2back/STIM_017.jpg	99
852.5	0.739	739.2	2back	Block2	2back/STIM_018.jpg	99
856.824	0.499	499.3	2back	Block2	2back/STIM_018.jpg	99
860.286	0.873	873.0	2back	Block2	2back/STIM_018.jpg	100
864.828	0.974	974.0	2back	Block2	2back/STIM_019.jpg	99
869.42	0.822	821.8	2back	Block2	2back/STIM_019.jpg	99
873.461	0.7	700.0	2back	Block2	2back/STIM_019.jpg	99
876.874	0.697	696.6	2back	Block2	2back/STIM_020.jpg	100
881.279	0.697	696.9	2back	Block2	2back/STIM_020.jpg	100
884.73	0.488	488.0	2back	Block2	2back/STIM_020.jpg	99
887.601	0.636	636.2	2back	Block2	2back/STIM_021.jpg	100
892.044	0.608	607.7	2back	Block2	2back/STIM_021.jpg	99
894.693	0.718	718.1	2back	Block2	2back/STIM_021.jpg	100
898.397	0.887	887.3	2back	Block2	2back/STIM_022.jpg	100
902.015	0.734	734.1	2back	Block2	2back/STIM_022.jpg	100
904.889	0.478	478.2	2back	Block2	2back/STIM_022.jpg	99
907.52	0.811	811.2	2back	Block2	2back/STIM_023.jpg	99
911.271	0.867	867.1	2back	Block2	2back/STIM_023.jpg	100
914.39	0.694	694.5	2back	Block2	2back/STIM_023.jpg	99
918.761	0.602	602.4	2back	Block2	2back/STIM_024.jpg	100
922.547	0.949	949.0	2back	Block2	2back/STIM_024.jpg	99
927.491	0.619	618.9	2back	Block2	2back/STIM_024.jpg	99
930.75	0.676	675.9	2back	Block2	2back/STIM_025.jpg	100
933.691	0.654	653.5	2back	Block2	2back/STIM_025.jpg	99
936.705	0.464	464.5	2back	Block2	2back/STIM_025.jpg	99
940.733	0.786	785.5	2back	Block2	2back/STIM_026.jpg	99
945.022	0.761	760.6	2back	Block2	2back/STIM_026.jpg	99
948.287	0.508	507.6	2back	Block2	2back/STIM_026.jpg	100
952.359	0.914	914.3	2back	Block2	2back/STIM_027.jpg	99
955.857	0.666	666.2	2back	Block2	2back/STIM_027.jpg	100
960.492	0.636	635.5	2back	Block2	2back/STIM_027.jpg	99
963.3	0.588	587.7	2back	Block2	2back/STIM_028.jpg	100
967.066	0.87	869.7	2back	Block2	2back/STIM_028.jpg	100
971.51	0.506	506.4	2back	Block2	2back/STIM_028.jpg	99
974.782	0.602	602.5	2back	Block2	2back/STIM_029.jpg	100
978.744	0.458	458.5	2back	Block2	2back/STIM_029.jpg	100
982.291	0.703	703.0	2back	Block2	2back/STIM_029.jpg	99
985.631	0.737	736.9	2back	Block2	2back/STIM_030.jpg	99
990.144	0.726	726.3	2back	Block2	2back/STIM_030.jpg	99
993.321	0.61	610.3	2back	Block2	2back/STIM_030.jpg	100
996.775	0.982	982.3	2back	Block2	2back/STIM_031.jpg	100
1000.847	0.562	561.8	2back	Block2	2back/STIM_031.jpg	99
1005.39	0.6	600.5	2back	Block2	2back/STIM_031.jpg	99
1008.807	0.626	626.3	2back	Block2	2back/STIM_032.jpg	99
1013.424	0.774	774.3	2back	Block2	2back/STIM_032.jpg	100
1016.793	0.532	532.1	2back	Block2	2back/STIM_032.jpg	100
1020.042	0.922	921.5	2back	Block2	2back/STIM_033.jpg	100
1024.68	0.96	960.0	2back	Block2	2back/STIM_033.jpg	99
1028.785	0.545	545.3	2back	Block2	2back/STIM_033.jpg	100
1033.291	0.746	745.7	2back	Block2	2back/STIM_034.jpg	99
1037.153	0.683	682.8	2back	Block2	2back/STIM_034.jpg	100
1040.347	0.713	712.8	2back	Block2	2back/STIM_034.jpg	99
1044.238	0.472	472.5	2back	Block2	2back/STIM_035.jpg	100
1047.277	0.781	781.1	2back	Block2	2back/STIM_035.jpg	99
1050.678	0.694	694.1	2back	Block2	2back/STIM_035.jpg	99
1054.788	0.936	935.6	2back	Block2	2back/STIM_036.jpg	100
1059.174	0.714	713.5	2back	Block2	2back/STIM_036.jpg	99
1063.365	0.772	771.7	2back	Block2	2back/STIM_036.jpg	100
1068.098	1.019	1018.9	2back	Block2	2back/STIM_037.jpg	99
1072.362	0.619	619.1	2back	Block2	2back/STIM_037.jpg	100
1075.786	0.519	518.7	2back	Block2	2back/STIM_037.jpg	100
1079.417	1.044	1044.1	2back	Block2	2back/STIM_038.jpg	100
1082.634	0.571	571.2	2back	Block2	2back/STIM_038.jpg	100
1087.107	0.404	404.2	2back	Block2	2back/STIM_038.jpg	100
1090.464	0.6	600.3	2back	Block2	2back/STIM_039.jpg	99
1095.047	0.784	784.4	2back	Block2	2back/STIM_039.jpg	99
1099.272	0.661	660.8	2back	Block2	2back/STIM_039.jpg	99
1103.592	0.443	443.0	0back	Block2	0back/STIM_000.jpg	99
1106.16	0.7	700.4	0back	Block2	0back/STIM_000.jpg	99
1109.577	0.59	590.3	0back	Block2	0back/STIM_000.jpg	99
1113.877	0.382	381.7	0back	Block2	0back/STIM_001.jpg	99
1117.481	0.644	643.7	0back	Block2	0back/STIM_001.jpg	100
1121.223	0.447	447.0	0back	Block2	0back/STIM_001.jpg	100
1124.877	0.544	544.0	0back	Block2	0back/STIM_002.jpg	99
1129.372	0.645	644.7	0back	Block2	0back/STIM_002.jpg	100
1133.348	0.444	444.3	0back	Block2	0back/STIM_002.jpg	100
1135.876	0.586	586.3	0back	Block2	0back/STIM_003.jpg	99
1139.914	0.698	697.5	0back	Block2	0back/STIM_003.jpg	99
1143.606	0.585	585.3	0back	Block2	0back/STIM_003.jpg	100
1147.807	0.5	499.5	0back	Block2	0back/STIM_004.jpg	100
1151.451	0.527	526.6	0back	Block2	0back/STIM_004.jpg	100
1154.918	0.445	445.4	0back	Block2	0back/STIM_004.jpg	99
1159.078	0.642	641.5	0back	Block2	0back/STIM_005.jpg	99
1163.458	0.56	560.0	0back	Block2	0back/STIM_005.jpg	99
1166.161	0.668	668.3	0back	Block2	0back/STIM_005.jpg	100
1168.856	0.689	689.1	0back	Block2	0back/STIM_006.jpg	99
1173.453	0.424	424.5	0back	Block2	0back/STIM_006.jpg	99
1177.003	0.558	557.5	0back	Block2	0back/STIM_006.jpg	99
1181.018	0.494	493.6	0back	Block2	0back/STIM_007.jpg	100
1184.489	0.658	658.3	0back	Block2	0back/STIM_007.jpg	99
1187.678	0.534	533.9	0back	Block2	0back/STIM_007.jpg	100
1191.968	0.55	550.0	0back	Block2	0back/STIM_008.jpg	99
1195.187	0.426	426.5	0back	Block2	0back/STIM_008.jpg	99
1198.927	0.364	363.9	0back	Block2	0back/STIM_008.jpg	99
1202.752	0.364	363.8	0back	Block2	0back/STIM_009.jpg	100
1205.142	0.488	487.5	0back	Block2	0back/STIM_009.jpg	99
1209.602	0.362	361.8	0back	Block2	0back/STIM_009.jpg	100
1213.298	0.598	598.4	0back	Block2	0back/STIM_010.jpg	99
1215.933	0.622	622.4	0back	Block2	0back/STIM_010.jpg	99
1220.159	0.356	356.3	0back	Block2	0back/STIM_010.jpg	100
1223.157	0.549	549.3	0back	Block2	0back/STIM_011.jpg	99
1227.351	0.519	518.8	0back	Block2	0back/STIM_011.jpg	100
1230.051	0.422	422.1	0back	Block2	0back/STIM_011.jpg	100
1234.055	0.361	361.3	0back	Block2	0back/STIM_012.jpg	100
1238.285	0.706	706.0	0back	Block2	0back/STIM_012.jpg	100
1241.855	0.5	499.7	0back	Block2	0back/STIM_012.jpg	99
1245.789	0.424	423.6	0back	Block2	0back/STIM_013.jpg	99
1248.397	0.445	445.3	0back	Block2	0back/STIM_013.jpg	100
1251.747	0.514	514.1	0back	Block2	0back/STIM_013.jpg	99
1255.982	0.415	414.6	0back	Block2	0back/STIM_014.jpg	99
1259.797	0.586	586.1	0back	Block2	0back/STIM_014.jpg	100
1262.553	0.443	442.8	0back	Block2	0back/STIM_014.jpg	100
1266.925	0.704	704.3	0back	Block2	0back/STIM_015.jpg	100
1270.74	0.439	438.9	0back	Block2	0back/STIM_015.jpg	100
1273.308	0.61	609.7	0back	Block2	0back/STIM_015.jpg	100
1277.342	0.582	582.5	0back	Block2	0back/STIM_016.jpg	99
1280.598	0.636	635.9	0back	Block2	0back/STIM_016.jpg	100
1283.941	0.707	706.8	0back	Block2	0back/STIM_016.jpg	99
1288.459	0.684	683.7	0back	Block2	0back/STIM_017.jpg	100
1291.894	0.691	690.7	0back	Block2	0back/STIM_017.jpg	100
1295.148	0.546	545.9	0back	Block2	0back/STIM_017.jpg	100
1298.421	0.48	480.1	0back	Block2	0back/STIM_018.jpg	100
1301.126	0.384	384.0	0back	Block2	0back/STIM_018.jpg	100
1303.588	0.358	358.1	0back	Block2	0back/STIM_018.jpg	100
1307.602	0.701	701.3	0back	Block2	0back/STIM_019.jpg	99
1310.815	0.556	555.9	0back	Block2	0back/STIM_019.jpg	99
1313.83	0.674	674.0	0back	Block2	0back/STIM_019.jpg	100
1317.658	0.833	833.0	2back	Block3	2back/STIM_000.jpg	100
1320.936	0.809	808.8	2back	Block3	2back/STIM_000.jpg	99
1323.842	0.397	396.6	2back	Block3	2back/STIM_000.jpg	100
1327.027	0.738	738.0	2back	Block3	2back/STIM_001.jpg	100
1330.998	0.744	743.5	2back	Block3	2back/STIM_001.jpg	99
1335.138	0.687	687.3	2back	Block3	2back/STIM_001.jpg	100
1339.398	0.866	865.5	2back	Block3	2back/STIM_002.jpg	99
1343.158	0.517	517.4	2back	Block3	2back/STIM_002.jpg	100
1346.301	0.732	731.8	2back	Block3	2back/STIM_002.jpg	99
1350.998	0.416	415.8	2back	Block3	2back/STIM_003.jpg	100
1355.363	0.772	772.2	2back	Block3	2back/STIM_003.jpg	99
1359.07	0.491	490.9	2back	Block3	2back/STIM_003.jpg	99
1362.771	0.616	615.9	2back	Block3	2back/STIM_004.jpg	100
1367.008	0.543	543.1	2back	Block3	2back/STIM_004.jpg	99
1370.862	0.855	855.2	2back	Block3	2back/STIM_004.jpg	99
1374.57	0.512	511.9	2back	Block3	2back/STIM_005.jpg	100
1378.499	0.588	587.9	2back	Block3	2back/STIM_005.jpg	99
1381.995	0.66	660.3	2back	Block3	2back/STIM_005.jpg	99
1385.346	0.718	718.5	2back	Block3	2back/STIM_006.jpg	100
1388.672	0.595	595.4	2back	Block3	2back/STIM_006.jpg	100
1392.898	0.811	811.3	2back	Block3	2back/STIM_006.jpg	99
1396.859	0.486	485.5	2back	Block3	2back/STIM_007.jpg	99
1400.785	0.828	827.5	2back	Block3	2back/STIM_007.jpg	99
1404.332	0.596	596.3	2back	Block3	2back/STIM_007.jpg	100
1407.397	0.562	561.7	2back	Block3	2back/STIM_008.jpg	100
1411.707	0.561	561.3	2back	Block3	2back/STIM_008.jpg	100
1414.728	0.499	498.8	2back	Block3	2back/STIM_008.jpg	100
1418.719	0.628	628.0	2back	Block3	2back/STIM_009.jpg	99
1422.028	0.745	744.6	2back	Block3	2back/STIM_009.jpg	100
1425.256	0.408	407.5	2back	Block3	2back/STIM_009.jpg	99
1427.921	0.545	544.9	2back	Block3	2back/STIM_010.jpg	99
1431.384	0.618	617.6	2back	Block3	2back/STIM_010.jpg	100
1434.961	0.555	554.7	2back	Block3	2back/STIM_010.jpg	100
1438.442	0.508	508.1	2back	Block3	2back/STIM_011.jpg	100
1442.428	0.736	736.2	2back	Block3	2back/STIM_011.jpg	100
1445.295	0.681	681.3	2back	Block3	2back/STIM_011.jpg	100
1448.984	0.458	458.5	2back	Block3	2back/STIM_012.jpg	100
1452.777	0.463	463.1	2back	Block3	2back/STIM_012.jpg	99
1456.606	0.603	602.9	2back	Block3	2back/STIM_012.jpg	99
1460.548	0.443	442.7	2back	Block3	2back/STIM_013.jpg	100
1463.484	0.625	625.3	2back	Block3	2back/STIM_013.jpg	100
1467.463	0.372	371.9	2back	Block3	2back/STIM_013.jpg	99
1470.979	0.573	572.6	2back	Block3	2back/STIM_014.jpg	100
1474.116	0.727	727.3	2back	Block3	2back/STIM_014.jpg	100
1476.847	0.432	431.6	2back	Block3	2back/STIM_014.jpg	100
1480.349	0.65	650.3	2back	Block3	2back/STIM_015.jpg	100
1483.08	0.632	632.0	2back	Block3	2back/STIM_015.jpg	100
1486.512	0.776	775.6	2back	Block3	2back/STIM_015.jpg	99
1491.049	0.432	432.1	2back	Block3	2back/STIM_016.jpg	100
1493.84	0.551	550.7	2back	Block3	2back/STIM_016.jpg	100
1497.617	0.644	644.3	2back	Block3	2back/STIM_016.jpg	100
1502.135	0.752	752.4	2back	Block3	2back/STIM_017.jpg	100
1506.682	0.459	459.1	2back	Block3	2back/STIM_017.jpg	100
1509.564	0.784	784.4	2back	Block3	2back/STIM_017.jpg	99
1512.963	0.482	482.0	2back	Block3	2back/STIM_018.jpg	99
1515.815	0.452	452.2	2back	Block3	2back/STIM_018.jpg	99
1519.082	0.622	622.0	2back	Block3	2back/STIM_018.jpg	100
1521.987	0.693	692.9	2back	Block3	2back/STIM_019.jpg	99
1524.806	0.765	764.6	2back	Block3	2back/STIM_019.jpg	99
1527.697	0.621	621.2	2back	Block3	2back/STIM_019.jpg	99
1531.474	0.667	667.4	2back	Block3	2back/STIM_020.jpg	99
1535.076	0.582	581.9	2back	Block3	2back/STIM_020.jpg	99
1538.35	0.508	508.0	2back	Block3	2back/STIM_020.jpg	99
1541.93	0.737	737.0	2back	Block3	2back/STIM_021.jpg	100
1544.679	0.555	554.8	2back	Block3	2back/STIM_021.jpg	99
1547.369	0.572	572.0	2back	Block3	2back/STIM_021.jpg	99
1551.444	0.852	851.6	2back	Block3	2back/STIM_022.jpg	100
1556.176	0.516	515.6	2back	Block3	2back/STIM_022.jpg	100
1560.131	0.467	466.8	2back	Block3	2back/STIM_022.jpg	100
1564.526	0.765	765.2	2back	Block3	2back/STIM_023.jpg	100
1568.8	0.753	753.1	2back	Block3	2back/STIM_023.jpg	99
1571.903	0.458	457.5	2back	Block3	2back/STIM_023.jpg	100
1574.465	0.525	525.0	2back	Block3	2back/STIM_024.jpg	99
1577.701	0.698	698.5	2back	Block3	2back/STIM_024.jpg	100
1582.025	0.804	804.3	2back	Block3	2back/STIM_024.jpg	100
1585.263	0.682	682.5	2back	Block3	2back/STIM_025.jpg	99
1589.059	0.538	538.3	2back	Block3	2back/STIM_025.jpg	99
1592.78	0.46	459.5	2back	Block3	2back/STIM_025.jpg	100
1596.521	0.42	420.3	2back	Block3	2back/STIM_026.jpg	99
1600.762	0.616	616.5	2back	Block3	2back/STIM_026.jpg	99
1604.376	0.477	477.2	2back	Block3	2back/STIM_026.jpg	100
1607.91	0.386	386.5	2back	Block3	2back/STIM_027.jpg	100
1610.35	0.685	685.4	2back	Block3	2back/STIM_027.jpg	99
1613.09	0.594	594.5	2back	Block3	2back/STIM_027.jpg	99
1616.988	0.695	694.9	2back	Block3	2back/STIM_028.jpg	100
1620.596	0.582	582.1	2back	Block3	2back/STIM_028.jpg	99
1624.165	0.385	385.2	2back	Block3	2back/STIM_028.jpg	100
1627.18	0.723	723.0	2back	Block3	2back/STIM_029.jpg	100
1631.857	0.532	532.2	2back	Block3	2back/STIM_029.jpg	100
1635.075	0.696	696.2	2back	Block3	2back/STIM_029.jpg	99
1638.544	0.596	596.4	2back	Block3	2back/STIM_030.jpg	100
1642.991	0.791	790.8	2back	Block3	2back/STIM_030.jpg	99
1646.207	0.84	840.0	2back	Block3	2back/STIM_030.jpg	99
1650.794	0.395	395.4	2back	Block3	2back/STIM_031.jpg	100
1653.882	0.792	791.9	2back	Block3	2back/STIM_031.jpg	99
1657.819	0.44	440.3	2back	Block3	2back/STIM_031.jpg	100
1661.947	0.801	800.9	2back	Block3	2back/STIM_032.jpg	99
1665.166	0.425	424.6	2back	Block3	2back/STIM_032.jpg	100
1669.419	0.508	508.0	2back	Block3	2back/STIM_032.jpg	100
1673.142	0.5	500.4	2back	Block3	2back/STIM_033.jpg	100
1676.208	0.508	507.8	2back	Block3	2back/STIM_033.jpg	100
1680.586	0.785	784.7	2back	Block3	2back/STIM_033.jpg	99
1684.956	0.731	731.0	2back	Block3	2back/STIM_034.jpg	99
1688.673	0.426	426.4	2back	Block3	2back/STIM_034.jpg	99
1691.125	0.523	523.4	2back	Block3	2back/STIM_034.jpg	99
1694.547	0.618	617.6	2back	Block3	2back/STIM_035.jpg	100
1698.146	0.58	580.5	2back	Block3	2back/STIM_035.jpg	99
1701.312	0.518	518.5	2back	Block3	2back/STIM_035.jpg	99
1705.063	0.47	470.1	2back	Block3	2back/STIM_036.jpg	100
1707.889	0.672	672.3	2back	Block3	2back/STIM_036.jpg	99
1710.774	0.81	810.0	2back	Block3	2back/STIM_036.jpg	99
1715.362	0.712	711.8	2back	Block3	2back/STIM_037.jpg	99
1719.482	0.648	648.3	2back	Block3	2back/STIM_037.jpg	100
1723.748	0.82	820.2	2back	Block3	2back/STIM_037.jpg	99
1728.149	0.822	822.5	2back	Block3	2back/STIM_038.jpg	99
1732.479	0.429	429.2	2back	Block3	2back/STIM_038.jpg	99
1736.637	0.788	787.7	2back	Block3	2back/STIM_038.jpg	99
1741.396	0.864	864.5	2back	Block3	2back/STIM_039.jpg	99
1745.311	0.654	654.1	2back	Block3	2back/STIM_039.jpg	99
1749.953	0.608	608.5	2back	Block3	2back/STIM_039.jpg	100
1753.048	0.482	482.5	0back	Block3	0back/STIM_000.jpg	99
1756.538	0.454	453.5	0back	Block3	0back/STIM_000.jpg	99
1759.623	0.432	431.6	0back	Block3	0back/STIM_000.jpg	100
1763.799	0.68	679.8	0back	Block3	0back/STIM_001.jpg	99
1768.409	0.438	437.6	0back	Block3	0back/STIM_001.jpg	100
1771.691	0.375	374.6	0back	Block3	0back/STIM_001.jpg	99
1775.51	0.44	440.1	0back	Block3	0back/STIM_002.jpg	100
1778.289	0.646	646.1	0back	Block3	0back/STIM_002.jpg	99
1781.088	0.522	521.5	0back	Block3	0back/STIM_002.jpg	99
1785.296	0.569	569.4	0back	Block3	0back/STIM_003.jpg	100
1789.358	0.386	386.0	0back	Block3	0back/STIM_003.jpg	100
1792.653	0.613	613.4	0back	Block3	0back/STIM_003.jpg	100
1795.661	0.686	686.1	0back	Block3	0back/STIM_004.jpg	100
1800.214	0.606	606.0	0back	Block3	0back/STIM_004.jpg	99
1804.213	0.554	554.3	0back	Block3	0back/STIM_004.jpg	99
1807.265	0.486	485.5	0back	Block3	0back/STIM_005.jpg	100
1810.029	0.615	614.8	0back	Block3	0back/STIM_005.jpg	99
1813.569	0.513	513.3	0back	Block3	0back/STIM_005.jpg	99
1816.233	0.439	439.2	0back	Block3	0back/STIM_006.jpg	99
1818.807	0.537	537.0	0back	Block3	0back/STIM_006.jpg	99
1822.947	0.706	705.5	0back	Block3	0back/STIM_006.jpg	99
1826.965	0.62	620.0	0back	Block3	0back/STIM_007.jpg	100
1831.122	0.424	424.5	0back	Block3	0back/STIM_007.jpg	99
1835.471	0.412	411.6	0back	Block3	0back/STIM_007.jpg	99
1839.556	0.614	614.0	0back	Block3	0back/STIM_008.jpg	99
1843.645	0.483	483.0	0back	Block3	0back/STIM_008.jpg	100
1847.924	0.464	464.0	0back	Block3	0back/STIM_008.jpg	100
1851.987	0.37	370.1	0back	Block3	0back/STIM_009.jpg	100
1856.125	0.695	695.0	0back	Block3	0back/STIM_009.jpg	100
1860.724	0.695	695.2	0back	Block3	0back/STIM_009.jpg	99
1863.637	0.629	629.4	0back	Block3	0back/STIM_010.jpg	99
1867.665	0.548	548.4	0back	Block3	0back/STIM_010.jpg	99
1871.96	0.694	693.7	0back	Block3	0back/STIM_010.jpg	99
1874.772	0.584	583.8	0back	Block3	0back/STIM_011.jpg	100
1878.506	0.529	528.6	0back	Block3	0back/STIM_011.jpg	100
1881.274	0.612	612.3	0back	Block3	0back/STIM_011.jpg	100
1885.64	0.366	366.3	0back	Block3	0back/STIM_012.jpg	99
1888.945	0.451	450.9	0back	Block3	0back/STIM_012.jpg	99
1891.874	0.607	607.4	0back	Block3	0back/STIM_012.jpg	99
1896.193	0.43	429.7	0back	Block3	0back/STIM_013.jpg	100
1900.128	0.526	526.3	0back	Block3	0back/STIM_013.jpg	100
1904.12	0.647	647.2	0back	Block3	0back/STIM_013.jpg	99
1908.356	0.533	533.2	0back	Block3	0back/STIM_014.jpg	100
1911.974	0.431	430.8	0back	Block3	0back/STIM_014.jpg	99
1916.011	0.437	436.9	0back	Block3	0back/STIM_014.jpg	99
1918.744	0.446	445.9	0back	Block3	0back/STIM_015.jpg	99
1922.89	0.436	436.2	0back	Block3	0back/STIM_015.jpg	100
1927.158	0.385	385.1	0back	Block3	0back/STIM_015.jpg	99
1930.594	0.557	557.0	0back	Block3	0back/STIM_016.jpg	99
1934.638	0.433	433.2	0back	Block3	0back/STIM_016.jpg	99
1938.144	0.437	437.1	0back	Block3	0back/STIM_016.jpg	100
1940.87	0.477	476.6	0back	Block3	0back/STIM_017.jpg	99
1944.731	0.413	412.7	0back	Block3	0back/STIM_017.jpg	100
1947.295	0.406	406.0	0back	Block3	0back/STIM_017.jpg	99
1951.638	0.496	496.0	0back	Block3	0back/STIM_018.jpg	100
1955.011	0.694	694.0	0back	Block3	0back/STIM_018.jpg	100
1959.349	0.62	620.1	0back	Block3	0back/STIM_018.jpg	99
1963.294	0.528	528.5	0back	Block3	0back/STIM_019.jpg	99
1966.604	0.389	388.6	0back	Block3	0back/STIM_019.jpg	99
1970.692	0.599	598.6	0back	Block3	0back/STIM_019.jpg	100
1975.226	0.64	640.1	2back	Block4	2back/STIM_000.jpg	99
1979.467	0.584	584.4	2back	Block4	2back/STIM_000.jpg	99
1982.109	0.54	540.2	2back	Block4	2back/STIM_000.jpg	100
1986.44	0.468	467.5	2back	Block4	2back/STIM_001.jpg	99
1989.191	0.419	419.0	2back	Block4	2back/STIM_001.jpg	100
1993.377	0.815	815.4	2back	Block4	2back/STIM_001.jpg	100
1996.852	0.831	831.3	2back	Block4	2back/STIM_002.jpg	99
2000.278	0.618	618.0	2back	Block4	2back/STIM_002.jpg	99
2004.365	0.563	562.9	2back	Block4	2back/STIM_002.jpg	99
2007.527	0.826	826.5	2back	Block4	2back/STIM_003.jpg	99
2010.386	0.782	782.3	2back	Block4	2back/STIM_003.jpg	100
2014.807	0.855	855.3	2back	Block4	2back/STIM_003.jpg	100
2019.416	0.78	779.5	2back	Block4	2back/STIM_004.jpg	100
2024.058	0.857	857.3	2back	Block4	2back/STIM_004.jpg	99
2028.398	0.44	440.3	2back	Block4	2back/STIM_004.jpg	100
2032.571	0.55	549.5	2back	Block4	2back/STIM_005.jpg	100
2036.215	0.469	469.4	2back	Block4	2back/STIM_005.jpg	99
2039.568	0.803	802.6	2back	Block4	2back/STIM_005.jpg	99
2043.56	0.478	477.7	2back	Block4	2back/STIM_006.jpg	99
2046.806	0.472	472.5	2back	Block4	2back/STIM_006.jpg	100
2050.563	0.613	613.1	2back	Block4	2back/STIM_006.jpg	100
2054.826	0.431	431.4	2back	Block4	2back/STIM_007.jpg	100
2058.378	0.525	525.1	2back	Block4	2back/STIM_007.jpg	100
2061.19	0.642	642.3	2back	Block4	2back/STIM_007.jpg	99
2065.031	0.5	500.3	2back	Block4	2back/STIM_008.jpg	99
2068.092	0.816	816.4	2back	Block4	2back/STIM_008.jpg	100
2071.615	0.58	579.7	2back	Block4	2back/STIM_008.jpg	100
2074.422	0.666	666.1	2back	Block4	2back/STIM_009.jpg	100
2078.022	0.477	476.8	2back	Block4	2back/STIM_009.jpg	100
2081.188	0.549	548.6	2back	Block4	2back/STIM_009.jpg	100
2084.636	0.431	431.4	2back	Block4	2back/STIM_010.jpg	99
2088.754	0.809	808.8	2back	Block4	2back/STIM_010.jpg	100
2093.329	0.748	748.4	2back	Block4	2back/STIM_010.jpg	99
2097.528	0.722	721.5	2back	Block4	2back/STIM_011.jpg	99
2100.956	0.667	666.7	2back	Block4	2back/STIM_011.jpg	100
2104.421	0.478	478.1	2back	Block4	2back/STIM_011.jpg	99
2107.877	0.422	421.5	2back	Block4	2back/STIM_012.jpg	100
2111.84	0.476	476.2	2back	Block4	2back/STIM_012.jpg	99
2115.185	0.65	649.5	2back	Block4	2back/STIM_012.jpg	99
2119.382	0.517	516.7	2back	Block4	2back/STIM_013.jpg	99
2123.085	0.407	406.6	2back	Block4	2back/STIM_013.jpg	99
2126.119	0.765	764.7	2back	Block4	2back/STIM_013.jpg	99
2129.199	0.697	697.3	2back	Block4	2back/STIM_014.jpg	99
2132.225	0.6	600.0	2back	Block4	2back/STIM_014.jpg	99
2136.276	0.859	859.4	2back	Block4	2back/STIM_014.jpg	100
2139.943	0.432	432.4	2back	Block4	2back/STIM_015.jpg	100
2143.677	0.593	593.2	2back	Block4	2back/STIM_015.jpg	99
2146.565	0.748	747.8	2back	Block4	2back/STIM_015.jpg	99
2150.402	0.527	527.0	2back	Block4	2back/STIM_016.jpg	99
2152.987	0.418	417.6	2back	Block4	2back/STIM_016.jpg	100
2156.79	0.588	587.9	2back	Block4	2back/STIM_016.jpg	100
2160.29	0.57	570.4	2back	Block4	2back/STIM_017.jpg	100
2163.24	0.533	533.2	2back	Block4	2back/STIM_017.jpg	99
2166.03	0.766	766.5	2back	Block4	2back/STIM_017.jpg	100
2169.152	0.561	561.0	2back	Block4	2back/STIM_018.jpg	99
2173.382	0.429	428.9	2back	Block4	2back/STIM_018.jpg	99
2177.269	0.744	743.8	2back	Block4	2back/STIM_018.jpg	100
2180.201	0.707	706.6	2back	Block4	2back/STIM_019.jpg	99
2184.308	0.792	792.5	2back	Block4	2back/STIM_019.jpg	100
2188.224	0.827	827.2	2back	Block4	2back/STIM_019.jpg	99
2191.656	0.587	587.3	2back	Block4	2back/STIM_020.jpg	99
2195.443	0.54	540.4	2back	Block4	2back/STIM_020.jpg	100
2198.49	0.842	842.4	2back	Block4	2back/STIM_020.jpg	100
2202.048	0.551	550.6	2back	Block4	2back/STIM_021.jpg	99
2204.97	0.417	416.7	2back	Block4	2back/STIM_021.jpg	99
2208.529	0.656	655.5	2back	Block4	2back/STIM_021.jpg	99
2212.31	0.655	654.8	2back	Block4	2back/STIM_022.jpg	100
2215.488	0.64	640.4	2back	Block4	2back/STIM_022.jpg	100
2218.417	0.544	543.9	2back	Block4	2back/STIM_022.jpg	100
2222.357	0.685	684.6	2back	Block4	2back/STIM_023.jpg	100
2225.61	0.602	601.8	2back	Block4	2back/STIM_023.jpg	100
2229.203	0.504	504.2	2back	Block4	2back/STIM_023.jpg	100
2233.697	0.774	773.7	2back	Block4	2back/STIM_024.jpg	99
2237.737	0.651	651.2	2back	Block4	2back/STIM_024.jpg	99
2242.109	0.842	841.9	2back	Block4	2back/STIM_024.jpg	99
2246.225	0.679	679.3	2back	Block4	2back/STIM_025.jpg	100
2250.351	0.803	803.0	2back	Block4	2back/STIM_025.jpg	99
2255.085	0.864	864.2	2back	Block4	2back/STIM_025.jpg	99
2259.102	0.388	388.3	2back	Block4	2back/STIM_026.jpg	99
2263.316	0.565	564.9	2back	Block4	2back/STIM_026.jpg	100
2266.35	0.56	560.0	2back	Block4	2back/STIM_026.jpg	100
2270.353	0.515	515.1	2back	Block4	2back/STIM_027.jpg	99
2274.372	0.638	638.2	2back	Block4	2back/STIM_027.jpg	100
2278.896	0.382	382.3	2back	Block4	2back/STIM_027.jpg	100
2281.449	0.479	478.9	2back	Block4	2back/STIM_028.jpg	100
2285.711	0.806	805.8	2back	Block4	2back/STIM_028.jpg	100
2288.584	0.848	847.6	2back	Block4	2back/STIM_028.jpg	99
2292.767	0.532	531.6	2back	Block4	2back/STIM_029.jpg	100
2295.575	0.763	762.7	2back	Block4	2back/STIM_029.jpg	99
2298.43	0.709	708.6	2back	Block4	2back/STIM_029.jpg	100
2302.594	0.705	705.2	2back	Block4	2back/STIM_030.jpg	99
2306.179	0.59	589.5	2back	Block4	2back/STIM_030.jpg	100
2309.578	0.82	820.3	2back	Block4	2back/STIM_030.jpg	100
2313.701	0.84	840.3	2back	Block4	2back/STIM_031.jpg	100
2316.563	0.657	656.9	2back	Block4	2back/STIM_031.jpg	100
2319.798	0.497	497.3	2back	Block4	2back/STIM_031.jpg	100
2323.243	0.545	544.8	2back	Block4	2back/STIM_032.jpg	99
2327.46	0.542	542.5	2back	Block4	2back/STIM_032.jpg	100
2330.827	0.486	485.5	2back	Block4	2back/STIM_032.jpg	100
2334.032	0.466	466.1	2back	Block4	2back/STIM_033.jpg	100
2337.282	0.72	720.0	2back	Block4	2back/STIM_033.jpg	99
2341.578	0.708	707.6	2back	Block4	2back/STIM_033.jpg	100
2345.48	0.59	589.9	2back	Block4	2back/STIM_034.jpg	100
2349.604	0.378	377.7	2back	Block4	2back/STIM_034.jpg	100
2352.605	0.508	508.3	2back	Block4	2back/STIM_034.jpg	99
2356.109	0.629	629.4	2back	Block4	2back/STIM_035.jpg	100
2359.384	0.806	806.0	2back	Block4	2back/STIM_035.jpg	99
2363.697	0.61	610.0	2back	Block4	2back/STIM_035.jpg	100
2366.966	0.79	790.0	2back	Block4	2back/STIM_036.jpg	100
2371.712	0.726	725.5	2back	Block4	2back/STIM_036.jpg	100
2376.107	0.499	499.0	2back	Block4	2back/STIM_036.jpg	99
2379.539	0.505	504.7	2back	Block4	2back/STIM_037.jpg	99
2382.889	0.57	569.9	2back	Block4	2back/STIM_037.jpg	100
2386.009	0.721	720.6	2back	Block4	2back/STIM_037.jpg	100
2389.486	0.809	808.9	2back	Block4	2back/STIM_038.jpg	100
2393.73	0.501	501.0	2back	Block4	2back/STIM_038.jpg	99
2397.5	0.627	627.2	2back	Block4	2back/STIM_038.jpg	100
2401.613	0.495	494.6	2back	Block4	2back/STIM_039.jpg	100
2405.42	0.388	388.1	2back	Block4	2back/STIM_039.jpg	100
2409.678	0.846	846.0	2back	Block4	2back/STIM_039.jpg	99
2414.185	0.596	595.6	0back	Block4	0back/STIM_000.jpg	100
2418.067	0.575	574.9	0back	Block4	0back/STIM_000.jpg	99
2422.476	0.648	647.9	0back	Block4	0back/STIM_000.jpg	99
2427.116	0.403	402.8	0back	Block4	0back/STIM_001.jpg	100
2430.254	0.552	552.5	0back	Block4	0back/STIM_001.jpg	99
2434.247	0.595	595.4	0back	Block4	0back/STIM_001.jpg	99
2438.333	0.585	585.1	0back	Block4	0back/STIM_002.jpg	100
2441.643	0.551	551.3	0back	Block4	0back/STIM_002.jpg	100
2444.731	0.519	518.9	0back	Block4	0back/STIM_002.jpg	99
2448.665	0.549	549.4	0back	Block4	0back/STIM_003.jpg	100
2453.023	0.673	672.7	0back	Block4	0back/STIM_003.jpg	99
2456.385	0.648	648.5	0back	Block4	0back/STIM_003.jpg	100
2460.882	0.491	490.7	0back	Block4	0back/STIM_004.jpg	99
2464.304	0.371	371.1	0back	Block4	0back/STIM_004.jpg	100
2468.669	0.522	522.1	0back	Block4	0back/STIM_004.jpg	99
2471.985	0.443	442.9	0back	Block4	0back/STIM_005.jpg	100
2475.155	0.462	461.6	0back	Block4	0back/STIM_005.jpg	100
2477.826	0.696	695.5	0back	Block4	0back/STIM_005.jpg	99
2480.905	0.49	489.5	0back	Block4	0back/STIM_006.jpg	100
2484.354	0.661	661.4	0back	Block4	0back/STIM_006.jpg	99
2487.363	0.546	546.3	0back	Block4	0back/STIM_006.jpg	99
2491.323	0.412	412.1	0back	Block4	0back/STIM_007.jpg	100
2494.014	0.624	624.2	0back	Block4	0back/STIM_007.jpg	100
2497.416	0.676	676.4	0back	Block4	0back/STIM_007.jpg	100
2500.488	0.575	574.8	0back	Block4	0back/STIM_008.jpg	100
2505.032	0.659	658.8	0back	Block4	0back/STIM_008.jpg	99
2508.307	0.41	409.6	0back	Block4	0back/STIM_008.jpg	99
2511.973	0.489	489.0	0back	Block4	0back/STIM_009.jpg	100
2516.232	0.667	666.8	0back	Block4	0back/STIM_009.jpg	99
2520.169	0.691	690.6	0back	Block4	0back/STIM_009.jpg	99
2523.739	0.456	456.3	0back	Block4	0back/STIM_010.jpg	100
2527.748	0.696	695.5	0back	Block4	0back/STIM_010.jpg	100
2530.982	0.556	556.3	0back	Block4	0back/STIM_010.jpg	100
2535.31	0.363	363.3	0back	Block4	0back/STIM_011.jpg	99
2538.24	0.647	647.1	0back	Block4	0back/STIM_011.jpg	100
2542.252	0.469	469.4	0back	Block4	0back/STIM_011.jpg	99
2545.084	0.649	649.3	0back	Block4	0back/STIM_012.jpg	99
2549.695	0.657	657.4	0back	Block4	0back/STIM_012.jpg	100
2552.53	0.36	360.3	0back	Block4	0back/STIM_012.jpg	99
2556.105	0.487	487.4	0back	Block4	0back/STIM_013.jpg	100
2559.438	0.607	607.2	0back	Block4	0back/STIM_013.jpg	99
2563.665	0.542	541.9	0back	Block4	0back/STIM_013.jpg	100
2566.825	0.494	494.1	0back	Block4	0back/STIM_014.jpg	100
2570.957	0.61	610.5	0back	Block4	0back/STIM_014.jpg	100
2575.12	0.612	611.7	0back	Block4	0back/STIM_014.jpg	100
2579.485	0.584	584.5	0back	Block4	0back/STIM_015.jpg	100
2583.03	0.583	582.6	0back	Block4	0back/STIM_015.jpg	100
2585.656	0.498	497.5	0back	Block4	0back/STIM_015.jpg	100
2589.535	0.492	492.1	0back	Block4	0back/STIM_016.jpg	99
2593.067	0.57	569.8	0back	Block4	0back/STIM_016.jpg	99
2596.322	0.462	462.2	0back	Block4	0back/STIM_016.jpg	100
2599.559	0.462	462.3	0back	Block4	0back/STIM_017.jpg	99
2603.897	0.527	526.6	0back	Block4	0back/STIM_017.jpg	99
2607.428	0.496	496.4	0back	Block4	0back/STIM_017.jpg	99
2610.665	0.434	433.9	0back	Block4	0back/STIM_018.jpg	100
2614.447	0.563	563.0	0back	Block4	0back/STIM_018.jpg	99
2618.028	0.464	463.6	0back	Block4	0back/STIM_018.jpg	99
2622.272	0.572	572.2	0back	Block4	0back/STIM_019.jpg	99
2625.426	0.424	423.8	0back	Block4	0back/STIM_019.jpg	99
2628.071	0.631	631.4	0back	Block4	0back/STIM_019.jpg	99
