onset	duration	accuracy	trial_type	learning_stage	stimulus
0.0	2.464	incorrect	generate	Run1	generate/STIM_000.jpg
5.649	2.361	correct	generate	Run1	generate/STIM_000.jpg
11.236	1.222	incorrect	generate	Run1	generate/STIM_000.jpg
14.927	1.132	correct	generate	Run1	generate/STIM_000.jpg
18.319	1.181	incorrect	generate	Run1	generate/STIM_000.jpg
23.046	1.929	correct	generate	Run1	generate/STIM_001.jpg
28.664	2.33	correct	generate	Run1	generate/STIM_001.jpg
33.572	1.109	correct	generate	Run1	generate/STIM_001.jpg
38.226	2.203	correct	generate	Run1	generate/STIM_001.jpg
42.797	1.722	correct	generate	Run1	generate/STIM_001.jpg
47.229	1.764	correct	generate	Run1	generate/STIM_002.jpg
52.887	2.521	correct	generate	Run1	generate/STIM_002.jpg
58.38	2.543	correct	generate	Run1	generate/STIM_002.jpg
63.621	1.259	incorrect	generate	Run1	generate/STIM_002.jpg
68.498	1.676	correct	generate	Run1	generate/STIM_002.jpg
72.6	1.154	correct	generate	Run1	generate/STIM_003.jpg
77.503	2.182	correct	generate	Run1	generate/STIM_003.jpg
83.331	1.065	correct	generate	Run1	generate/STIM_003.jpg
88.055	1.683	correct	generate	Run1	generate/STIM_003.jpg
93.038	1.622	correct	generate	Run1	generate/STIM_003.jpg
97.152	2.619	correct	generate	Run1	generate/STIM_004.jpg
102.355	2.464	correct	generate	Run1	generate/STIM_004.jpg
108.48	2.112	correct	generate	Run1	generate/STIM_004.jpg
112.726	1.891	correct	generate	Run1	generate/STIM_004.jpg
116.862	2.026	correct	generate	Run1	generate/STIM_004.jpg
122.22	1.251	correct	generate	Run1	generate/STIM_005.jpg
127.115	2.273	correct	generate	Run1	generate/STIM_005.jpg
132.689	1.964	correct	generate	Run1	generate/STIM_005.jpg
137.463	1.026	incorrect	generate	Run1	generate/STIM_005.jpg
142.345	1.47	correct	generate	Run1	generate/STIM_005.jpg
147.622	1.493	correct	generate	Run1	generate/STIM_006.jpg
152.525	1.739	correct	generate	Run1	generate/STIM_006.jpg
157.035	2.307	correct	generate	Run1	generate/STIM_006.jpg
161.763	2.126	correct	generate	Run1	generate/STIM_006.jpg
167.212	2.038	incorrect	generate	Run1	generate/STIM_006.jpg
172.618	2.843	correct	generate	Run1	generate/STIM_007.jpg
179.521	2.504	incorrect	generate	Run1	generate/STIM_007.jpg
185.323	1.45	correct	generate	Run1	generate/STIM_007.jpg
189.858	2.283	incorrect	generate	Run1	generate/STIM_007.jpg
195.273	1.82	correct	generate	Run1	generate/STIM_007.jpg
199.788	2.679	correct	generate	Run1	generate/STIM_008.jpg
205.516	1.881	incorrect	generate	Run1	generate/STIM_008.jpg
211.395	1.828	correct	generate	Run1	generate/STIM_008.jpg
215.392	2.093	correct	generate	Run1	generate/STIM_008.jpg
219.926	2.09	correct	generate	Run1	generate/STIM_008.jpg
224.944	2.818	correct	generate	Run1	generate/STIM_009.jpg
230.265	1.845	correct	generate	Run1	generate/STIM_009.jpg
235.283	2.137	correct	generate	Run1	generate/STIM_009.jpg
240.044	1.401	correct	generate	Run1	generate/STIM_009.jpg
243.734	1.014	incorrect	generate	Run1	generate/STIM_009.jpg
248.65	2.426	correct	generate	Run1	generate/STIM_010.jpg
254.619	1.635	incorrect	generate	Run1	generate/STIM_010.jpg
259.234	1.795	correct	generate	Run1	generate/STIM_010.jpg
263.863	2.161	correct	generate	Run1	generate/STIM_010.jpg
268.475	1.51	correct	generate	Run1	generate/STIM_010.jpg
273.571	1.309	incorrect	generate	Run1	generate/STIM_011.jpg
277.944	2.489	correct	generate	Run1	generate/STIM_011.jpg
284.223	1.238	correct	generate	Run1	generate/STIM_011.jpg
288.921	0.99	correct	generate	Run1	generate/STIM_011.jpg
292.745	1.756	correct	generate	Run1	generate/STIM_011.jpg
297.042	2.468	correct	generate	Run1	generate/STIM_012.jpg
302.036	2.63	correct	generate	Run1	generate/STIM_012.jpg
308.184	1.109	correct	generate	Run1	generate/STIM_012.jpg
312.883	1.315	correct	generate	Run1	generate/STIM_012.jpg
317.554	1.364	correct	generate	Run1	generate/STIM_012.jpg
321.384	2.646	correct	generate	Run1	generate/STIM_013.jpg
326.294	1.167	correct	generate	Run1	generate/STIM_013.jpg
330.788	2.168	correct	generate	Run1	generate/STIM_013.jpg
335.777	1.545	correct	generate	Run1	generate/STIM_013.jpg
341.06	1.941	correct	generate	Run1	generate/STIM_013.jpg
345.148	1.807	incorrect	generate	Run1	generate/STIM_014.jpg
349.14	2.39	correct	generate	Run1	generate/STIM_014.jpg
355.563	1.413	correct	generate	Run1	generate/STIM_014.jpg
359.255	1.147	correct	generate	Run1	generate/STIM_014.jpg
363.863	1.799	correct	generate	Run1	generate/STIM_014.jpg
369.023	2.862	correct	generate	Run1	generate/STIM_015.jpg
374.18	2.407	correct	generate	Run1	generate/STIM_015.jpg
378.95	2.268	correct	generate	Run1	generate/STIM_015.jpg
383.432	1.963	correct	generate	Run1	generate/STIM_015.jpg
388.013	1.716	correct	generate	Run1	generate/STIM_015.jpg
393.542	1.749	correct	generate	Run1	generate/STIM_016.jpg
398.075	2.186	correct	generate	Run1	generate/STIM_016.jpg
402.674	2.434	correct	generate	Run1	generate/STIM_016.jpg
407.784	2.471	correct	generate	Run1	generate/STIM_016.jpg
413.073	0.888	correct	generate	Run1	generate/STIM_016.jpg
417.961	2.758	correct	generate	Run1	generate/STIM_017.jpg
424.837	2.09	incorrect	generate	Run1	generate/STIM_017.jpg
430.518	1.072	incorrect	generate	Run1	generate/STIM_017.jpg
435.209	2.017	correct	generate	Run1	generate/STIM_017.jpg
439.525	1.484	correct	generate	Run1	generate/STIM_017.jpg
444.329	1.281	correct	generate	Run1	generate/STIM_018.jpg
449.241	1.965	correct	generate	Run1	generate/STIM_018.jpg
454.691	1.063	correct	generate	Run1	generate/STIM_018.jpg
458.729	1.704	correct	generate	Run1	generate/STIM_018.jpg
464.282	1.921	correct	generate	Run1	generate/STIM_018.jpg
469.687	2.682	correct	generate	Run1	generate/STIM_019.jpg
475.505	1.33	incorrect	generate	Run1	generate/STIM_019.jpg
479.069	1.24	correct	generate	Run1	generate/STIM_019.jpg
482.59	1.071	correct	generate	Run1	generate/STIM_019.jpg
486.696	1.695	correct	generate	Run1	generate/STIM_019.jpg
492.389	2.099	incorrect	generate	Run1	generate/STIM_020.jpg
498.365	2.413	correct	generate	Run1	generate/STIM_020.jpg
503.774	2.089	correct	generate	Run1	generate/STIM_020.jpg
509.915	1.865	correct	generate	Run1	generate/STIM_020.jpg
515.917	2.211	correct	generate	Run1	generate/STIM_020.jpg
522.084	1.342	correct	generate	Run1	generate/STIM_021.jpg
527.186	2.165	correct	generate	Run1	generate/STIM_021.jpg
533.291	1.77	correct	generate	Run1	generate/STIM_021.jpg
538.735	1.436	correct	generate	Run1	generate/STIM_021.jpg
543.295	1.724	correct	generate	Run1	generate/STIM_021.jpg
547.426	2.551	correct	generate	Run1	generate/STIM_022.jpg
553.932	2.465	correct	generate	Run1	generate/STIM_022.jpg
559.187	1.964	correct	generate	Run1	generate/STIM_022.jpg
563.703	1.773	correct	generate	Run1	generate/STIM_022.jpg
568.229	1.085	correct	generate	Run1	generate/STIM_022.jpg
572.901	2.537	correct	generate	Run1	generate/STIM_023.jpg
578.257	1.583	incorrect	generate	Run1	generate/STIM_023.jpg
582.009	2.22	correct	generate	Run1	generate/STIM_023.jpg
588.004	2.187	correct	generate	Run1	generate/STIM_023.jpg
593.065	2.328	correct	generate	Run1	generate/STIM_023.jpg
597.775	1.498	correct	generate	Run1	generate/STIM_024.jpg
601.906	1.939	correct	generate	Run1	generate/STIM_024.jpg
606.377	1.628	correct	generate	Run1	generate/STIM_024.jpg
610.514	1.154	incorrect	generate	Run1	generate/STIM_024.jpg
613.891	1.888	correct	generate	Run1	generate/STIM_024.jpg
618.504	0.826	correct	repeat	Run1	repeat/STIM_000.jpg
621.512	0.551	correct	repeat	Run1	repeat/STIM_000.jpg
625.466	0.596	correct	repeat	Run1	repeat/STIM_000.jpg
629.761	0.55	correct	repeat	Run1	repeat/STIM_000.jpg
634.225	0.806	correct	repeat	Run1	repeat/STIM_000.jpg
637.606	0.96	correct	repeat	Run1	repeat/STIM_001.jpg
640.677	0.577	correct	repeat	Run1	repeat/STIM_001.jpg
644.983	0.68	correct	repeat	Run1	repeat/STIM_001.jpg
648.941	0.734	correct	repeat	Run1	repeat/STIM_001.jpg
652.243	0.695	correct	repeat	Run1	repeat/STIM_001.jpg
655.331	0.564	correct	repeat	Run1	repeat/STIM_002.jpg
659.734	0.972	correct	repeat	Run1	repeat/STIM_002.jpg
663.351	0.838	correct	repeat	Run1	repeat/STIM_002.jpg
667.901	0.875	correct	repeat	Run1	repeat/STIM_002.jpg
671.825	0.872	correct	repeat	Run1	repeat/STIM_002.jpg
676.035	0.503	correct	repeat	Run1	repeat/STIM_003.jpg
679.612	0.617	correct	repeat	Run1	repeat/STIM_003.jpg
683.266	0.918	correct	repeat	Run1	repeat/STIM_003.jpg
687.264	0.783	correct	repeat	Run1	repeat/STIM_003.jpg
691.029	0.532	correct	repeat	Run1	repeat/STIM_003.jpg
695.257	0.711	correct	repeat	Run1	repeat/STIM_004.jpg
698.166	0.632	correct	repeat	Run1	repeat/STIM_004.jpg
701.008	0.541	correct	repeat	Run1	repeat/STIM_004.jpg
704.325	0.592	correct	repeat	Run1	repeat/STIM_004.jpg
707.224	0.884	correct	repeat	Run1	repeat/STIM_004.jpg
710.946	0.87	correct	repeat	Run1	repeat/STIM_005.jpg
715.063	0.492	correct	repeat	Run1	repeat/STIM_005.jpg
718.49	0.593	correct	repeat	Run1	repeat/STIM_005.jpg
722.354	0.632	correct	repeat	Run1	repeat/STIM_005.jpg
726.25	0.534	correct	repeat	Run1	repeat/STIM_005.jpg
729.481	0.555	correct	repeat	Run1	repeat/STIM_006.jpg
732.924	0.586	correct	repeat	Run1	repeat/STIM_006.jpg
736.091	0.876	correct	repeat	Run1	repeat/STIM_006.jpg
740.319	0.639	correct	repeat	Run1	repeat/STIM_006.jpg
744.586	0.78	correct	repeat	Run1	repeat/STIM_006.jpg
748.054	0.745	correct	repeat	Run1	repeat/STIM_007.jpg
752.207	0.742	incorrect	repeat	Run1	repeat/STIM_007.jpg
756.275	0.538	correct	repeat	Run1	repeat/STIM_007.jpg
759.833	0.872	correct	repeat	Run1	repeat/STIM_007.jpg
764.406	0.866	correct	repeat	Run1	repeat/STIM_007.jpg
768.597	0.814	correct	repeat	Run1	repeat/STIM_008.jpg
771.673	0.829	correct	repeat	Run1	repeat/STIM_008.jpg
776.205	0.85	correct	repeat	Run1	repeat/STIM_008.jpg
780.17	0.82	correct	repeat	Run1	repeat/STIM_008.jpg
783.155	0.885	correct	repeat	Run1	repeat/STIM_008.jpg
787.414	0.495	correct	repeat	Run1	repeat/STIM_009.jpg
790.086	0.499	correct	repeat	Run1	repeat/STIM_009.jpg
794.491	0.466	correct	repeat	Run1	repeat/STIM_009.jpg
797.153	0.714	correct	repeat	Run1	repeat/STIM_009.jpg
801.228	0.665	correct	repeat	Run1	repeat/STIM_009.jpg
803.986	0.758	correct	repeat	Run1	repeat/STIM_010.jpg
808.308	0.671	correct	repeat	Run1	repeat/STIM_010.jpg
811.587	0.94	correct	repeat	Run1	repeat/STIM_010.jpg
816.062	0.556	correct	repeat	Run1	repeat/STIM_010.jpg
818.675	0.515	correct	repeat	Run1	repeat/STIM_010.jpg
823.047	0.78	correct	repeat	Run1	repeat/STIM_011.jpg
826.118	0.828	correct	repeat	Run1	repeat/STIM_011.jpg
829.385	0.505	correct	repeat	Run1	repeat/STIM_011.jpg
832.991	0.838	correct	repeat	Run1	repeat/STIM_011.jpg
837.159	0.617	incorrect	repeat	Run1	repeat/STIM_011.jpg
841.128	0.534	correct	repeat	Run1	repeat/STIM_012.jpg
844.921	0.731	correct	repeat	Run1	repeat/STIM_012.jpg
848.099	0.757	correct	repeat	Run1	repeat/STIM_012.jpg
851.606	0.617	correct	repeat	Run1	repeat/STIM_012.jpg
854.323	0.88	correct	repeat	Run1	repeat/STIM_012.jpg
857.876	0.863	correct	repeat	Run1	repeat/STIM_013.jpg
862.13	0.903	correct	repeat	Run1	repeat/STIM_013.jpg
865.159	0.688	correct	repeat	Run1	repeat/STIM_013.jpg
869.419	0.917	correct	repeat	Run1	repeat/STIM_013.jpg
873.749	0.617	correct	repeat	Run1	repeat/STIM_013.jpg
878.163	0.451	correct	repeat	Run1	repeat/STIM_014.jpg
881.605	0.618	correct	repeat	Run1	repeat/STIM_014.jpg
884.678	0.582	incorrect	repeat	Run1	repeat/STIM_014.jpg
888.375	0.866	correct	repeat	Run1	repeat/STIM_014.jpg
891.73	0.802	correct	repeat	Run1	repeat/STIM_014.jpg
894.7	2.113	correct	generate	Run2	generate/STIM_000.jpg
899.735	2.074	correct	generate	Run2	generate/STIM_000.jpg
905.195	2.219	correct	generate	Run2	generate/STIM_000.jpg
910.597	1.703	correct	generate	Run2	generate/STIM_000.jpg
915.781	1.037	correct	generate	Run2	generate/STIM_000.jpg
919.957	2.147	correct	generate	Run2	generate/STIM_001.jpg
926.065	1.341	correct	generate	Run2	generate/STIM_001.jpg
929.544	1.311	correct	generate	Run2	generate/STIM_001.jpg
934.204	1.196	correct	generate	Run2	generate/STIM_001.jpg
938.424	1.247	correct	generate	Run2	generate/STIM_001.jpg
941.846	1.588	incorrect	generate	Run2	generate/STIM_002.jpg
946.039	1.459	correct	generate	Run2	generate/STIM_002.jpg
950.245	1.128	incorrect	generate	Run2	generate/STIM_002.jpg
953.877	1.36	correct	generate	Run2	generate/STIM_002.jpg
958.746	1.725	incorrect	generate	Run2	generate/STIM_002.jpg
963.377	2.521	correct	generate	Run2	generate/STIM_003.jpg
968.867	1.391	correct	generate	Run2	generate/STIM_003.jpg
972.923	1.68	correct	generate	Run2	generate/STIM_003.jpg
976.824	1.864	correct	generate	Run2	generate/STIM_003.jpg
981.855	1.034	correct	generate	Run2	generate/STIM_003.jpg
986.861	1.602	correct	generate	Run2	generate/STIM_004.jpg
991.86	1.784	incorrect	generate	Run2	generate/STIM_004.jpg
996.73	1.872	correct	generate	Run2	generate/STIM_004.jpg
1002.031	1.353	incorrect	generate	Run2	generate/STIM_004.jpg
1006.501	0.896	incorrect	generate	Run2	generate/STIM_004.jpg
1011.201	1.782	correct	generate	Run2	generate/STIM_005.jpg
1015.61	1.611	incorrect	generate	Run2	generate/STIM_005.jpg
1019.319	1.267	correct	generate	Run2	generate/STIM_005.jpg
1023.8	1.789	correct	generate	Run2	generate/STIM_005.jpg
1027.765	1.14	incorrect	generate	Run2	generate/STIM_005.jpg
1032.726	1.425	correct	generate	Run2	generate/STIM_006.jpg
1037.295	1.736	correct	generate	Run2	generate/STIM_006.jpg
1041.211	1.415	correct	generate	Run2	generate/STIM_006.jpg
1045.247	0.984	correct	generate	Run2	generate/STIM_006.jpg
1048.354	1.925	correct	generate	Run2	generate/STIM_006.jpg
1053.52	2.091	correct	generate	Run2	generate/STIM_007.jpg
1059.215	1.497	correct	generate	Run2	generate/STIM_007.jpg
1063.314	1.478	incorrect	generate	Run2	generate/STIM_007.jpg
1067.469	1.572	correct	generate	Run2	generate/STIM_007.jpg
1072.404	1.671	correct	generate	Run2	generate/STIM_007.jpg
1077.284	1.362	incorrect	generate	Run2	generate/STIM_008.jpg
1080.849	1.513	correct	generate	Run2	generate/STIM_008.jpg
1084.964	1.211	correct	generate	Run2	generate/STIM_008.jpg
1088.87	1.718	incorrect	generate	Run2	generate/STIM_008.jpg
1093.104	1.874	incorrect	generate	Run2	generate/STIM_008.jpg
1097.562	1.625	correct	generate	Run2	generate/STIM_009.jpg
1102.86	0.967	correct	generate	Run2	generate/STIM_009.jpg
1107.659	1.591	correct	generate	Run2	generate/STIM_009.jpg
1112.307	1.656	correct	generate	Run2	generate/STIM_009.jpg
1117.96	1.557	correct	generate	Run2	generate/STIM_009.jpg
1123.658	1.796	correct	generate	Run2	generate/STIM_010.jpg
1128.909	1.896	correct	generate	Run2	generate/STIM_010.jpg
1134.146	2.014	correct	generate	Run2	generate/STIM_010.jpg
1139.433	1.044	incorrect	generate	Run2	generate/STIM_010.jpg
1142.561	1.75	correct	generate	Run2	generate/STIM_010.jpg
1146.887	0.985	correct	generate	Run2	generate/STIM_011.jpg
1150.221	2.182	correct	generate	Run2	generate/STIM_011.jpg
1155.091	2.036	incorrect	generate	Run2	generate/STIM_011.jpg
1161.171	1.832	correct	generate	Run2	generate/STIM_011.jpg
1165.072	1.677	correct	generate	Run2	generate/STIM_011.jpg
1169.585	1.818	correct	generate	Run2	generate/STIM_012.jpg
1174.036	1.492	correct	generate	Run2	generate/STIM_012.jpg
1177.709	0.924	correct	generate	Run2	generate/STIM_012.jpg
1182.652	1.727	correct	generate	Run2	generate/STIM_012.jpg
1187.202	1.9	correct	generate	Run2	generate/STIM_012.jpg
1192.949	2.019	correct	generate	Run2	generate/STIM_013.jpg
1197.64	1.877	correct	generate	Run2	generate/STIM_013.jpg
1201.802	1.161	correct	generate	Run2	generate/STIM_013.jpg
1205.357	1.194	correct	generate	Run2	generate/STIM_013.jpg
1209.704	0.804	correct	generate	Run2	generate/STIM_013.jpg
1214.319	2.143	incorrect	generate	Run2	generate/STIM_014.jpg
1220.287	1.428	correct	generate	Run2	generate/STIM_014.jpg
1224.189	1.798	incorrect	generate	Run2	generate/STIM_014.jpg
1229.675	0.86	correct	generate	Run2	generate/STIM_014.jpg
1233.691	0.989	correct	generate	Run2	generate/STIM_014.jpg
1237.055	1.229	correct	generate	Run2	generate/STIM_015.jpg
1241.052	1.729	correct	generate	Run2	generate/STIM_015.jpg
1246.248	1.754	incorrect	generate	Run2	generate/STIM_015.jpg
1250.854	1.33	correct	generate	Run2	generate/STIM_015.jpg
1254.312	1.518	correct	generate	Run2	generate/STIM_015.jpg
1258.046	1.82	correct	generate	Run2	generate/STIM_016.jpg
1262.401	2.151	incorrect	generate	Run2	generate/STIM_016.jpg
1266.793	1.068	correct	generate	Run2	generate/STIM_016.jpg
1270.157	1.269	correct	generate	Run2	generate/STIM_016.jpg
1275.155	1.493	correct	generate	Run2	generate/STIM_016.jpg
1279.033	1.77	correct	generate	Run2	generate/STIM_017.jpg
1284.396	1.835	correct	generate	Run2	generate/STIM_017.jpg
1290.188	0.937	correct	generate	Run2	generate/STIM_017.jpg
1293.638	0.99	correct	generate	Run2	generate/STIM_017.jpg
1297.095	1.496	correct	generate	Run2	generate/STIM_017.jpg
1302.691	1.164	correct	generate	Run2	generate/STIM_018.jpg
1306.721	1.383	correct	generate	Run2	generate/STIM_018.jpg
1311.847	0.975	correct	generate	Run2	generate/STIM_018.jpg
1314.988	1.174	correct	generate	Run2	generate/STIM_018.jpg
1318.48	1.791	correct	generate	Run2	generate/STIM_018.jpg
1322.984	1.148	correct	generate	Run2	generate/STIM_019.jpg
1327.011	1.481	correct	generate	Run2	generate/STIM_019.jpg
1330.501	1.204	correct	generate	Run2	generate/STIM_019.jpg
1334.321	1.632	correct	generate	Run2	generate/STIM_019.jpg
1339.473	1.198	incorrect	generate	Run2	generate/STIM_019.jpg
1344.347	1.414	correct	generate	Run2	generate/STIM_020.jpg
1349.312	2.223	correct	generate	Run2	generate/STIM_020.jpg
1354.858	1.287	correct	generate	Run2	generate/STIM_020.jpg
1359.46	1.318	correct	generate	Run2	generate/STIM_020.jpg
1363.883	1.892	correct	generate	Run2	generate/STIM_020.jpg
1369.648	1.496	incorrect	generate	Run2	generate/STIM_021.jpg
1373.775	1.468	correct	generate	Run2	generate/STIM_021.jpg
1378.028	1.173	correct	generate	Run2	generate/STIM_021.jpg
1381.425	1.052	correct	generate	Run2	generate/STIM_021.jpg
1384.794	1.557	correct	generate	Run2	generate/STIM_021.jpg
1389.549	1.567	correct	generate	Run2	generate/STIM_022.jpg
1393.842	1.703	correct	generate	Run2	generate/STIM_022.jpg
1398.056	1.474	correct	generate	Run2	generate/STIM_022.jpg
1401.946	1.493	correct	generate	Run2	generate/STIM_022.jpg
1406.671	1.547	incorrect	generate	Run2	generate/STIM_022.jpg
1410.945	1.873	correct	generate	Run2	generate/STIM_023.jpg
1415.786	0.945	correct	generate	Run2	generate/STIM_023.jpg
1420.573	0.962	incorrect	generate	Run2	generate/STIM_023.jpg
1424.666	1.082	incorrect	generate	Run2	generate/STIM_023.jpg
1428.31	1.149	correct	generate	Run2	generate/STIM_023.jpg
1433.403	1.781	correct	generate	Run2	generate/STIM_024.jpg
1437.856	1.556	incorrect	generate	Run2	generate/STIM_024.jpg
1441.751	1.914	correct	generate	Run2	generate/STIM_024.jpg
1446.76	1.408	incorrect	generate	Run2	generate/STIM_024.jpg
1451.386	1.244	correct	generate	Run2	generate/STIM_024.jpg
1456.156	0.549	correct	repeat	Run2	repeat/STIM_000.jpg
1459.933	0.784	correct	repeat	Run2	repeat/STIM_000.jpg
1463.951	0.664	correct	repeat	Run2	repeat/STIM_000.jpg
1468.214	0.5	correct	repeat	Run2	repeat/STIM_000.jpg
1472.054	0.495	correct	repeat	Run2	repeat/STIM_000.jpg
1474.95	0.772	correct	repeat	Run2	repeat/STIM_001.jpg
1478.503	0.863	correct	repeat	Run2	repeat/STIM_001.jpg
1482.99	0.835	correct	repeat	Run2	repeat/STIM_001.jpg
1487.38	0.616	correct	repeat	Run2	repeat/STIM_001.jpg
1490.871	0.92	correct	repeat	Run2	repeat/STIM_001.jpg
1495.42	0.887	correct	repeat	Run2	repeat/STIM_002.jpg
1498.574	0.587	correct	repeat	Run2	repeat/STIM_002.jpg
1502.944	0.541	correct	repeat	Run2	repeat/STIM_002.jpg
1505.504	0.828	correct	repeat	Run2	repeat/STIM_002.jpg
1510.307	0.659	correct	repeat	Run2	repeat/STIM_002.jpg
1514.23	0.489	correct	repeat	Run2	repeat/STIM_003.jpg
1518.213	0.642	correct	repeat	Run2	repeat/STIM_003.jpg
1522.375	0.835	correct	repeat	Run2	repeat/STIM_003.jpg
1525.285	0.966	correct	repeat	Run2	repeat/STIM_003.jpg
1528.318	0.776	correct	repeat	Run2	repeat/STIM_003.jpg
1531.579	0.708	correct	repeat	Run2	repeat/STIM_004.jpg
1535.263	0.719	correct	repeat	Run2	repeat/STIM_004.jpg
1539.378	0.84	correct	repeat	Run2	repeat/STIM_004.jpg
1542.618	0.67	correct	repeat	Run2	repeat/STIM_004.jpg
1546.749	0.884	correct	repeat	Run2	repeat/STIM_004.jpg
1551.226	0.513	correct	repeat	Run2	repeat/STIM_005.jpg
1554.004	0.903	correct	repeat	Run2	repeat/STIM_005.jpg
1557.074	0.63	incorrect	repeat	Run2	repeat/STIM_005.jpg
1560.983	0.862	correct	repeat	Run2	repeat/STIM_005.jpg
1565.747	0.922	correct	repeat	Run2	repeat/STIM_005.jpg
1570.59	0.835	correct	repeat	Run2	repeat/STIM_006.jpg
1575.032	0.551	correct	repeat	Run2	repeat/STIM_006.jpg
1578.158	0.781	correct	repeat	Run2	repeat/STIM_006.jpg
1582.884	0.733	correct	repeat	Run2	repeat/STIM_006.jpg
1586.948	0.89	correct	repeat	Run2	repeat/STIM_006.jpg
1590.73	0.618	correct	repeat	Run2	repeat/STIM_007.jpg
1594.672	0.528	correct	repeat	Run2	repeat/STIM_007.jpg
1598.889	0.518	correct	repeat	Run2	repeat/STIM_007.jpg
1601.922	0.668	correct	repeat	Run2	repeat/STIM_007.jpg
1605.95	0.547	correct	repeat	Run2	repeat/STIM_007.jpg
1608.856	0.798	correct	repeat	Run2	repeat/STIM_008.jpg
1612.775	0.786	correct	repeat	Run2	repeat/STIM_008.jpg
1616.144	0.976	correct	repeat	Run2	repeat/STIM_008.jpg
1619.257	0.543	correct	repeat	Run2	repeat/STIM_008.jpg
1622.418	0.759	correct	repeat	Run2	repeat/STIM_008.jpg
1626.205	0.681	correct	repeat	Run2	repeat/STIM_009.jpg
1629.105	0.403	correct	repeat	Run2	repeat/STIM_009.jpg
1631.982	1.012	correct	repeat	Run2	repeat/STIM_009.jpg
1636.794	0.516	correct	repeat	Run2	repeat/STIM_009.jpg
1640.471	0.663	correct	repeat	Run2	repeat/STIM_009.jpg
1643.964	0.839	correct	repeat	Run2	repeat/STIM_010.jpg
1646.888	0.85	correct	repeat	Run2	repeat/STIM_010.jpg
1649.742	0.728	correct	repeat	Run2	repeat/STIM_010.jpg
1654.43	0.65	correct	repeat	Run2	repeat/STIM_010.jpg
1658.821	0.735	correct	repeat	Run2	repeat/STIM_010.jpg
1663.182	0.946	correct	repeat	Run2	repeat/STIM_011.jpg
1667.944	0.625	correct	repeat	Run2	repeat/STIM_011.jpg
1671.635	0.868	correct	repeat	Run2	repeat/STIM_011.jpg
1674.791	0.837	correct	repeat	Run2	repeat/STIM_011.jpg
1678.973	0.513	correct	repeat	Run2	repeat/STIM_011.jpg
1682.312	0.594	incorrect	repeat	Run2	repeat/STIM_012.jpg
1685.931	0.525	correct	repeat	Run2	repeat/STIM_012.jpg
1689.622	0.673	correct	repeat	Run2	repeat/STIM_012.jpg
1693.549	0.733	correct	repeat	Run2	repeat/STIM_012.jpg
1697.718	0.688	correct	repeat	Run2	repeat/STIM_012.jpg
1702.077	0.626	correct	repeat	Run2	repeat/STIM_013.jpg
1705.907	0.918	correct	repeat	Run2	repeat/STIM_013.jpg
1710.657	0.772	correct	repeat	Run2	repeat/STIM_013.jpg
1714.029	0.621	correct	repeat	Run2	repeat/STIM_013.jpg
1717.983	0.756	correct	repeat	Run2	repeat/STIM_013.jpg
1722.088	0.943	correct	repeat	Run2	repeat/STIM_014.jpg
1725.731	0.886	correct	repeat	Run2	repeat/STIM_014.jpg
1730.273	0.979	correct	repeat	Run2	repeat/STIM_014.jpg
1734.706	0.497	correct	repeat	Run2	repeat/STIM_014.jpg
1738.306	0.899	correct	repeat	Run2	repeat/STIM_014.jpg
1743.076	1.085	correct	generate	Run3	generate/STIM_000.jpg
1747.255	0.952	correct	generate	Run3	generate/STIM_000.jpg
1751.493	1.415	correct	generate	Run3	generate/STIM_000.jpg
1755.196	0.845	incorrect	generate	Run3	generate/STIM_000.jpg
1759.984	0.975	correct	generate	Run3	generate/STIM_000.jpg
1763.444	1.258	correct	generate	Run3	generate/STIM_001.jpg
1767.136	1.112	correct	generate	Run3	generate/STIM_001.jpg
1771.81	0.916	correct	generate	Run3	generate/STIM_001.jpg
1776.226	1.604	correct	generate	Run3	generate/STIM_001.jpg
1781.78	0.751	correct	generate	Run3	generate/STIM_001.jpg
1785.696	1.176	correct	generate	Run3	generate/STIM_002.jpg
1790.446	1.694	correct	generate	Run3	generate/STIM_002.jpg
1795.772	1.561	correct	generate	Run3	generate/STIM_002.jpg
1799.944	1.684	correct	generate	Run3	generate/STIM_002.jpg
1804.04	1.972	correct	generate	Run3	generate/STIM_002.jpg
1809.249	1.01	correct	generate	Run3	generate/STIM_003.jpg
1812.986	1.932	correct	generate	Run3	generate/STIM_003.jpg
1817.908	0.877	correct	generate	Run3	generate/STIM_003.jpg
1822.346	1.709	correct	generate	Run3	generate/STIM_003.jpg
1826.419	1.137	correct	generate	Run3	generate/STIM_003.jpg
1830.78	1.755	incorrect	generate	Run3	generate/STIM_004.jpg
1835.612	1.518	incorrect	generate	Run3	generate/STIM_004.jpg
1841.068	1.997	correct	generate	Run3	generate/STIM_004.jpg
1846.663	1.911	correct	generate	Run3	generate/STIM_004.jpg
1852.627	1.605	correct	generate	Run3	generate/STIM_004.jpg
1858.13	1.234	correct	generate	Run3	generate/STIM_005.jpg
1863.119	1.519	correct	generate	Run3	generate/STIM_005.jpg
1866.895	1.368	correct	generate	Run3	generate/STIM_005.jpg
1870.459	1.102	correct	generate	Run3	generate/STIM_005.jpg
1874.247	1.69	correct	generate	Run3	generate/STIM_005.jpg
1878.798	1.489	incorrect	generate	Run3	generate/STIM_006.jpg
1883.905	1.277	correct	generate	Run3	generate/STIM_006.jpg
1887.659	1.155	correct	generate	Run3	generate/STIM_006.jpg
1891.508	1.606	correct	generate	Run3	generate/STIM_006.jpg
1896.061	1.586	correct	generate	Run3	generate/STIM_006.jpg
1900.055	1.802	correct	generate	Run3	generate/STIM_007.jpg
1903.86	1.014	correct	generate	Run3	generate/STIM_007.jpg
1907.923	1.257	correct	generate	Run3	generate/STIM_007.jpg
1911.638	0.888	correct	generate	Run3	generate/STIM_007.jpg
1915.365	1.524	correct	generate	Run3	generate/STIM_007.jpg
1920.253	1.496	correct	generate	Run3	generate/STIM_008.jpg
1924.878	1.525	correct	generate	Run3	generate/STIM_008.jpg
1928.695	1.606	correct	generate	Run3	generate/STIM_008.jpg
1933.437	1.902	correct	generate	Run3	generate/STIM_008.jpg
1939.15	1.79	correct	generate	Run3	generate/STIM_008.jpg
1944.675	1.931	correct	generate	Run3	generate/STIM_009.jpg
1949.694	1.015	correct	generate	Run3	generate/STIM_009.jpg
1954.451	1.096	correct	generate	Run3	generate/STIM_009.jpg
1957.907	1.888	correct	generate	Run3	generate/STIM_009.jpg
1963.28	0.933	correct	generate	Run3	generate/STIM_009.jpg
1967.403	1.146	incorrect	generate	Run3	generate/STIM_010.jpg
1970.635	1.565	correct	generate	Run3	generate/STIM_010.jpg
1975.738	1.42	incorrect	generate	Run3	generate/STIM_010.jpg
1980.382	1.812	correct	generate	Run3	generate/STIM_010.jpg
1984.758	1.413	correct	generate	Run3	generate/STIM_010.jpg
1988.279	1.447	incorrect	generate	Run3	generate/STIM_011.jpg
1993.526	1.385	correct	generate	Run3	generate/STIM_011.jpg
1997.479	1.176	correct	generate	Run3	generate/STIM_011.jpg
2000.722	1.653	correct	generate	Run3	generate/STIM_011.jpg
2005.51	1.032	correct	generate	Run3	generate/STIM_011.jpg
2010.218	1.99	correct	generate	Run3	generate/STIM_012.jpg
2016.144	1.627	correct	generate	Run3	generate/STIM_012.jpg
2019.996	1.563	correct	generate	Run3	generate/STIM_012.jpg
2024.62	0.987	incorrect	generate	Run3	generate/STIM_012.jpg
2029.486	1.963	correct	generate	Run3	generate/STIM_012.jpg
2033.732	1.229	incorrect	generate	Run3	generate/STIM_013.jpg
2038.548	0.96	correct	generate	Run3	generate/STIM_013.jpg
2042.201	1.661	correct	generate	Run3	generate/STIM_013.jpg
2046.988	0.819	correct	generate	Run3	generate/STIM_013.jpg
2049.952	1.216	correct	generate	Run3	generate/STIM_013.jpg
2054.65	1.775	correct	generate	Run3	generate/STIM_014.jpg
2060.427	1.703	incorrect	generate	Run3	generate/STIM_014.jpg
2064.933	1.736	correct	generate	Run3	generate/STIM_014.jpg
2069.429	0.842	correct	generate	Run3	generate/STIM_014.jpg
2072.417	1.215	correct	generate	Run3	generate/STIM_014.jpg
2076.765	1.776	correct	generate	Run3	generate/STIM_015.jpg
2081.682	1.577	correct	generate	Run3	generate/STIM_015.jpg
2086.836	1.616	correct	generate	Run3	generate/STIM_015.jpg
2091.653	1.89	correct	generate	Run3	generate/STIM_015.jpg
2096.076	1.606	correct	generate	Run3	generate/STIM_015.jpg
2099.954	1.482	correct	generate	Run3	generate/STIM_016.jpg
2104.075	1.754	correct	generate	Run3	generate/STIM_016.jpg
2109.006	1.345	correct	generate	Run3	generate/STIM_016.jpg
2112.929	1.644	correct	generate	Run3	generate/STIM_016.jpg
2118.357	1.552	incorrect	generate	Run3	generate/STIM_016.jpg
2122.695	1.092	correct	generate	Run3	generate/STIM_017.jpg
2127.436	1.612	correct	generate	Run3	generate/STIM_017.jpg
2131.499	1.268	correct	generate	Run3	generate/STIM_017.jpg
2135.122	1.875	correct	generate	Run3	generate/STIM_017.jpg
2139.454	0.878	correct	generate	Run3	generate/STIM_017.jpg
2144.348	0.963	correct	generate	Run3	generate/STIM_018.jpg
2148.2	1.298	correct	generate	Run3	generate/STIM_018.jpg
2153.499	1.444	correct	generate	Run3	generate/STIM_018.jpg
2158.275	1.197	correct	generate	Run3	generate/STIM_018.jpg
2161.956	1.385	correct	generate	Run3	generate/STIM_018.jpg
2166.405	0.917	correct	generate	Run3	generate/STIM_019.jpg
2171.306	1.874	correct	generate	Run3	generate/STIM_019.jpg
2176.564	1.421	correct	generate	Run3	generate/STIM_019.jpg
2181.25	1.786	correct	generate	Run3	generate/STIM_019.jpg
2185.394	1.792	correct	generate	Run3	generate/STIM_019.jpg
2189.285	1.8	correct	generate	Run3	generate/STIM_020.jpg
2194.544	1.272	correct	generate	Run3	generate/STIM_020.jpg
2197.869	1.308	correct	generate	Run3	generate/STIM_020.jpg
2201.973	1.481	correct	generate	Run3	generate/STIM_020.jpg
2207.477	1.975	correct	generate	Run3	generate/STIM_020.jpg
2211.697	0.856	correct	generate	Run3	generate/STIM_021.jpg
2215.53	1.371	correct	generate	Run3	generate/STIM_021.jpg
2220.726	1.236	correct	generate	Run3	generate/STIM_021.jpg
2224.32	1.21	correct	generate	Run3	generate/STIM_021.jpg
2228.677	0.964	correct	generate	Run3	generate/STIM_021.jpg
2232.719	1.826	correct	generate	Run3	generate/STIM_022.jpg
2237.381	0.895	correct	generate	Run3	generate/STIM_022.jpg
2241.133	1.396	correct	generate	Run3	generate/STIM_022.jpg
2245.416	1.074	incorrect	generate	Run3	generate/STIM_022.jpg
2249.894	1.425	correct	generate	Run3	generate/STIM_022.jpg
2254.967	1.29	correct	generate	Run3	generate/STIM_023.jpg
2260.053	1.118	correct	generate	Run3	generate/STIM_023.jpg
2263.635	1.671	correct	generate	Run3	generate/STIM_023.jpg
2268.445	1.435	correct	generate	Run3	generate/STIM_023.jpg
2272.097	1.413	correct	generate	Run3	generate/STIM_023.jpg
2276.326	1.037	correct	generate	Run3	generate/STIM_024.jpg
2281.185	0.928	incorrect	generate	Run3	generate/STIM_024.jpg
2284.402	1.863	correct	generate	Run3	generate/STIM_024.jpg
2290.014	0.985	correct	generate	Run3	generate/STIM_024.jpg
2293.728	1.256	correct	generate	Run3	generate/STIM_024.jpg
2298.068	0.576	correct	repeat	Run3	repeat/STIM_000.jpg
2301.002	0.662	correct	repeat	Run3	repeat/STIM_000.jpg
2304.373	0.693	correct	repeat	Run3	repeat/STIM_000.jpg
2307.898	0.92	correct	repeat	Run3	repeat/STIM_000.jpg
2312.6	0.581	correct	repeat	Run3	repeat/STIM_000.jpg
2315.929	0.798	correct	repeat	Run3	repeat/STIM_001.jpg
2319.221	0.614	correct	repeat	Run3	repeat/STIM_001.jpg
2323.847	0.869	correct	repeat	Run3	repeat/STIM_001.jpg
2328.341	0.755	incorrect	repeat	Run3	repeat/STIM_001.jpg
2332.49	0.916	correct	repeat	Run3	repeat/STIM_001.jpg
2336.356	0.633	correct	repeat	Run3	repeat/STIM_002.jpg
2339.266	0.73	correct	repeat	Run3	repeat/STIM_002.jpg
2342.52	0.861	correct	repeat	Run3	repeat/STIM_002.jpg
2346.734	0.742	correct	repeat	Run3	repeat/STIM_002.jpg
2350.426	0.459	correct	repeat	Run3	repeat/STIM_002.jpg
2354.18	0.838	correct	repeat	Run3	repeat/STIM_003.jpg
2357.17	0.605	correct	repeat	Run3	repeat/STIM_003.jpg
2361.178	0.769	correct	repeat	Run3	repeat/STIM_003.jpg
2364.277	0.941	correct	repeat	Run3	repeat/STIM_003.jpg
2367.955	0.745	correct	repeat	Run3	repeat/STIM_003.jpg
2372.247	0.593	correct	repeat	Run3	repeat/STIM_004.jpg
2375.005	0.561	correct	repeat	Run3	repeat/STIM_004.jpg
2378.445	0.908	correct	repeat	Run3	repeat/STIM_004.jpg
2382.566	0.682	correct	repeat	Run3	repeat/STIM_004.jpg
2386.736	0.843	correct	repeat	Run3	repeat/STIM_004.jpg
2391.308	0.814	correct	repeat	Run3	repeat/STIM_005.jpg
2394.329	0.659	correct	repeat	Run3	repeat/STIM_005.jpg
2397.608	0.554	correct	repeat	Run3	repeat/STIM_005.jpg
2400.306	0.607	correct	repeat	Run3	repeat/STIM_005.jpg
2403.773	0.963	correct	repeat	Run3	repeat/STIM_005.jpg
2408.096	0.65	correct	repeat	Run3	repeat/STIM_006.jpg
2411.527	0.797	correct	repeat	Run3	repeat/STIM_006.jpg
2415.588	0.57	correct	repeat	Run3	repeat/STIM_006.jpg
2418.938	0.846	correct	repeat	Run3	repeat/STIM_006.jpg
2422.305	0.524	correct	repeat	Run3	repeat/STIM_006.jpg
2426.206	0.498	correct	repeat	Run3	repeat/STIM_007.jpg
2429.234	0.872	correct	repeat	Run3	repeat/STIM_007.jpg
2432.744	0.665	correct	repeat	Run3	repeat/STIM_007.jpg
2436.541	0.647	correct	repeat	Run3	repeat/STIM_007.jpg
2440.019	0.65	correct	repeat	Run3	repeat/STIM_007.jpg
2443.762	0.584	correct	repeat	Run3	repeat/STIM_008.jpg
2446.422	0.556	correct	repeat	Run3	repeat/STIM_008.jpg
2449.636	0.784	correct	repeat	Run3	repeat/STIM_008.jpg
2452.777	0.685	correct	repeat	Run3	repeat/STIM_008.jpg
2455.796	0.696	correct	repeat	Run3	repeat/STIM_008.jpg
2458.607	0.654	correct	repeat	Run3	repeat/STIM_009.jpg
2462.188	0.78	correct	repeat	Run3	repeat/STIM_009.jpg
2465.932	0.855	incorrect	repeat	Run3	repeat/STIM_009.jpg
2469.469	0.953	correct	repeat	Run3	repeat/STIM_009.jpg
2473.941	0.685	correct	repeat	Run3	repeat/STIM_009.jpg
2478.347	0.474	correct	repeat	Run3	repeat/STIM_010.jpg
2482.101	0.518	correct	repeat	Run3	repeat/STIM_010.jpg
2484.752	0.877	incorrect	repeat	Run3	repeat/STIM_010.jpg
2488.354	0.76	correct	repeat	Run3	repeat/STIM_010.jpg
2492.003	0.761	correct	repeat	Run3	repeat/STIM_010.jpg
2495.212	0.565	correct	repeat	Run3	repeat/STIM_011.jpg
2498.56	0.636	correct	repeat	Run3	repeat/STIM_011.jpg
2501.986	0.781	correct	repeat	Run3	repeat/STIM_011.jpg
2506.287	0.513	correct	repeat	Run3	repeat/STIM_011.jpg
2509.116	0.904	correct	repeat	Run3	repeat/STIM_011.jpg
2513.577	0.531	correct	repeat	Run3	repeat/STIM_012.jpg
2516.356	0.782	correct	repeat	Run3	repeat/STIM_012.jpg
2520.813	0.892	correct	repeat	Run3	repeat/STIM_012.jpg
2525.241	1.03	correct	repeat	Run3	repeat/STIM_012.jpg
2528.937	0.763	correct	repeat	Run3	repeat/STIM_012.jpg
2532.61	0.85	correct	repeat	Run3	repeat/STIM_013.jpg
2536.72	0.731	correct	repeat	Run3	repeat/STIM_013.jpg
2539.794	0.582	correct	repeat	Run3	repeat/STIM_013.jpg
2544.419	1.007	correct	repeat	Run3	repeat/STIM_013.jpg
2547.587	0.747	correct	repeat	Run3	repeat/STIM_013.jpg
2551.047	0.479	correct	repeat	Run3	repeat/STIM_014.jpg
2554.703	0.653	correct	repeat	Run3	repeat/STIM_014.jpg
2558.172	0.656	correct	repeat	Run3	repeat/STIM_014.jpg
2561.747	0.691	correct	repeat	Run3	repeat/STIM_014.jpg
2565.873	0.752	correct	repeat	Run3	repeat/STIM_014.jpg
2569.627	1.761	correct	generate	Run4	generate/STIM_000.jpg
2574.331	1.39	correct	generate	Run4	generate/STIM_000.jpg
2579.304	1.707	correct	generate	Run4	generate/STIM_000.jpg
2584.162	1.333	correct	generate	Run4	generate/STIM_000.jpg
2589.344	1.447	correct	generate	Run4	generate/STIM_000.jpg
2593.016	0.874	correct	generate	Run4	generate/STIM_001.jpg
2596.304	0.887	correct	generate	Run4	generate/STIM_001.jpg
2599.639	1.791	correct	generate	Run4	generate/STIM_001.jpg
2604.142	2.024	correct	generate	Run4	generate/STIM_001.jpg
2610.132	1.274	correct	generate	Run4	generate/STIM_001.jpg
2613.736	2.023	correct	generate	Run4	generate/STIM_002.jpg
2618.096	1.597	correct	generate	Run4	generate/STIM_002.jpg
2623.098	1.646	correct	generate	Run4	generate/STIM_002.jpg
2628.128	1.181	correct	generate	Run4	generate/STIM_002.jpg
2633.299	1.997	correct	generate	Run4	generate/STIM_002.jpg
2639.06	1.594	correct	generate	Run4	generate/STIM_003.jpg
2643.734	1.174	correct	generate	Run4	generate/STIM_003.jpg
2648.032	1.214	correct	generate	Run4	generate/STIM_003.jpg
2652.83	1.332	correct	generate	Run4	generate/STIM_003.jpg
2657.504	1.59	correct	generate	Run4	generate/STIM_003.jpg
2662.033	1.567	correct	generate	Run4	generate/STIM_004.jpg
2665.763	0.965	correct	generate	Run4	generate/STIM_004.jpg
2668.821	1.766	correct	generate	Run4	generate/STIM_004.jpg
2674.006	1.193	correct	generate	Run4	generate/STIM_004.jpg
2678.19	1.617	correct	generate	Run4	generate/STIM_004.jpg
2683.464	1.16	correct	generate	Run4	generate/STIM_005.jpg
2688.285	1.959	correct	generate	Run4	generate/STIM_005.jpg
2694.289	2.013	correct	generate	Run4	generate/STIM_005.jpg
2698.951	1.468	correct	generate	Run4	generate/STIM_005.jpg
2702.979	1.708	correct	generate	Run4	generate/STIM_005.jpg
2707.271	1.532	correct	generate	Run4	generate/STIM_006.jpg
2711.334	1.098	correct	generate	Run4	generate/STIM_006.jpg
2716.508	1.617	correct	generate	Run4	generate/STIM_006.jpg
2722.163	1.085	correct	generate	Run4	generate/STIM_006.jpg
2726.896	1.073	correct	generate	Run4	generate/STIM_006.jpg
2731.505	1.743	correct	generate	Run4	generate/STIM_007.jpg
2736.125	1.721	correct	generate	Run4	generate/STIM_007.jpg
2740.074	0.903	correct	generate	Run4	generate/STIM_007.jpg
2743.633	1.986	correct	generate	Run4	generate/STIM_007.jpg
2747.939	1.121	correct	generate	Run4	generate/STIM_007.jpg
2751.985	1.172	correct	generate	Run4	generate/STIM_008.jpg
2755.497	1.032	correct	generate	Run4	generate/STIM_008.jpg
2759.436	0.836	correct	generate	Run4	generate/STIM_008.jpg
2762.992	1.199	correct	generate	Run4	generate/STIM_008.jpg
2767.793	1.911	incorrect	generate	Run4	generate/STIM_008.jpg
2772.003	1.163	correct	generate	Run4	generate/STIM_009.jpg
2776.973	1.268	correct	generate	Run4	generate/STIM_009.jpg
2780.922	1.422	correct	generate	Run4	generate/STIM_009.jpg
2785.433	1.545	correct	generate	Run4	generate/STIM_009.jpg
2789.315	0.93	correct	generate	Run4	generate/STIM_009.jpg
2793.48	1.602	correct	generate	Run4	generate/STIM_010.jpg
2797.978	2.042	correct	generate	Run4	generate/STIM_010.jpg
2803.199	1.046	correct	generate	Run4	generate/STIM_010.jpg
2807.281	1.104	correct	generate	Run4	generate/STIM_010.jpg
2812.093	2.047	correct	generate	Run4	generate/STIM_010.jpg
2817.409	1.018	correct	generate	Run4	generate/STIM_011.jpg
2821.087	0.893	correct	generate	Run4	generate/STIM_011.jpg
2824.138	1.826	correct	generate	Run4	generate/STIM_011.jpg
2828.98	1.039	correct	generate	Run4	generate/STIM_011.jpg
2833.149	1.064	correct	generate	Run4	generate/STIM_011.jpg
2836.289	0.82	correct	generate	Run4	generate/STIM_012.jpg
2840.53	1.789	correct	generate	Run4	generate/STIM_012.jpg
2845.062	0.839	correct	generate	Run4	generate/STIM_012.jpg
2848.445	1.462	correct	generate	Run4	generate/STIM_012.jpg
2852.468	1.49	correct	generate	Run4	generate/STIM_012.jpg
2857.39	1.629	correct	generate	Run4	generate/STIM_013.jpg
2861.64	1.21	correct	generate	Run4	generate/STIM_013.jpg
2865.447	1.885	correct	generate	Run4	generate/STIM_013.jpg
2870.479	1.87	correct	generate	Run4	generate/STIM_013.jpg
2874.824	1.117	correct	generate	Run4	generate/STIM_013.jpg
2878.703	1.826	correct	generate	Run4	generate/STIM_014.jpg
2883.765	0.925	correct	generate	Run4	generate/STIM_014.jpg
2888.089	1.728	correct	generate	Run4	generate/STIM_014.jpg
2891.994	1.73	correct	generate	Run4	generate/STIM_014.jpg
2896.926	1.821	correct	generate	Run4	generate/STIM_014.jpg
2901.918	1.371	correct	generate	Run4	generate/STIM_015.jpg
2907.357	1.365	correct	generate	Run4	generate/STIM_015.jpg
2911.825	1.033	correct	generate	Run4	generate/STIM_015.jpg
2915.691	1.396	correct	generate	Run4	generate/STIM_015.jpg
2919.716	1.352	correct	generate	Run4	generate/STIM_015.jpg
2924.94	1.14	correct	generate	Run4	generate/STIM_016.jpg
2929.586	0.841	correct	generate	Run4	generate/STIM_016.jpg
2933.71	0.894	correct	generate	Run4	generate/STIM_016.jpg
2936.705	1.275	correct	generate	Run4	generate/STIM_016.jpg
2941.856	1.383	correct	generate	Run4	generate/STIM_016.jpg
2946.677	0.919	correct	generate	Run4	generate/STIM_017.jpg
2949.678	0.927	correct	generate	Run4	generate/STIM_017.jpg
2954.642	1.08	correct	generate	Run4	generate/STIM_017.jpg
2959.443	0.963	correct	generate	Run4	generate/STIM_017.jpg
2963.736	0.844	correct	generate	Run4	generate/STIM_017.jpg
2967.279	1.917	correct	generate	Run4	generate/STIM_018.jpg
2972.39	1.267	correct	generate	Run4	generate/STIM_018.jpg
2977.152	1.588	correct	generate	Run4	generate/STIM_018.jpg
2981.976	1.857	correct	generate	Run4	generate/STIM_018.jpg
2985.925	1.586	correct	generate	Run4	generate/STIM_018.jpg
2990.963	1.385	correct	generate	Run4	generate/STIM_019.jpg
2995.379	1.441	correct	generate	Run4	generate/STIM_019.jpg
2999.425	1.182	correct	generate	Run4	generate/STIM_019.jpg
3004.002	0.989	correct	generate	Run4	generate/STIM_019.jpg
3007.629	1.424	correct	generate	Run4	generate/STIM_019.jpg
3012.266	1.925	correct	generate	Run4	generate/STIM_020.jpg
3017.533	1.911	correct	generate	Run4	generate/STIM_020.jpg
3022.521	1.68	correct	generate	Run4	generate/STIM_020.jpg
3028.114	1.816	correct	generate	Run4	generate/STIM_020.jpg
3033.228	1.523	correct	generate	Run4	generate/STIM_020.jpg
3037.733	1.698	correct	generate	Run4	generate/STIM_021.jpg
3042.728	1.787	correct	generate	Run4	generate/STIM_021.jpg
3047.234	1.408	incorrect	generate	Run4	generate/STIM_021.jpg
3051.394	1.241	correct	generate	Run4	generate/STIM_021.jpg
3056.509	1.375	correct	generate	Run4	generate/STIM_021.jpg
3061.32	1.038	correct	generate	Run4	generate/STIM_022.jpg
3065.824	0.955	correct	generate	Run4	generate/STIM_022.jpg
3070.667	1.68	correct	generate	Run4	generate/STIM_022.jpg
3074.975	1.993	correct	generate	Run4	generate/STIM_022.jpg
3080.3	1.991	incorrect	generate	Run4	generate/STIM_022.jpg
3084.754	1.118	incorrect	generate	Run4	generate/STIM_023.jpg
3089.193	0.797	incorrect	generate	Run4	generate/STIM_023.jpg
3093.95	0.892	correct	generate	Run4	generate/STIM_023.jpg
3098.387	1.547	correct	generate	Run4	generate/STIM_023.jpg
3102.925	1.499	correct	generate	Run4	generate/STIM_023.jpg
3108.271	1.119	correct	generate	Run4	generate/STIM_024.jpg
3112.697	1.172	correct	generate	Run4	generate/STIM_024.jpg
3116.476	1.789	correct	generate	Run4	generate/STIM_024.jpg
3122.101	1.438	correct	generate	Run4	generate/STIM_024.jpg
3127.433	1.78	correct	generate	Run4	generate/STIM_024.jpg
3133.039	0.989	correct	repeat	Run4	repeat/STIM_000.jpg
3136.256	0.657	correct	repeat	Run4	repeat/STIM_000.jpg
3139.998	0.797	correct	repeat	Run4	repeat/STIM_000.jpg
3143.195	0.808	correct	repeat	Run4	repeat/STIM_000.jpg
3146.166	0.682	correct	repeat	Run4	repeat/STIM_000.jpg
3150.749	0.878	incorrect	repeat	Run4	repeat/STIM_001.jpg
3154.424	0.958	correct	repeat	Run4	repeat/STIM_001.jpg
3158.602	0.84	correct	repeat	Run4	repeat/STIM_001.jpg
3163.164	0.47	correct	repeat	Run4	repeat/STIM_001.jpg
3166.689	0.976	correct	repeat	Run4	repeat/STIM_001.jpg
3170.334	0.772	correct	repeat	Run4	repeat/STIM_002.jpg
3173.96	0.747	correct	repeat	Run4	repeat/STIM_002.jpg
3177.312	0.532	incorrect	repeat	Run4	repeat/STIM_002.jpg
3181.396	0.817	correct	repeat	Run4	repeat/STIM_002.jpg
3185.114	0.692	correct	repeat	Run4	repeat/STIM_002.jpg
3189.626	0.655	correct	repeat	Run4	repeat/STIM_003.jpg
3192.361	0.739	correct	repeat	Run4	repeat/STIM_003.jpg
3195.291	0.64	correct	repeat	Run4	repeat/STIM_003.jpg
3199.611	0.604	correct	repeat	Run4	repeat/STIM_003.jpg
3203.989	0.585	correct	repeat	Run4	repeat/STIM_003.jpg
3207.417	0.546	correct	repeat	Run4	repeat/STIM_004.jpg
3211.484	0.684	correct	repeat	Run4	repeat/STIM_004.jpg
3216.129	0.908	incorrect	repeat	Run4	repeat/STIM_004.jpg
3219.074	0.838	incorrect	repeat	Run4	repeat/STIM_004.jpg
3223.886	0.732	correct	repeat	Run4	repeat/STIM_004.jpg
3228.315	0.659	correct	repeat	Run4	repeat/STIM_005.jpg
3231.261	0.873	correct	repeat	Run4	repeat/STIM_005.jpg
3235.914	0.857	correct	repeat	Run4	repeat/STIM_005.jpg
3239.128	0.61	correct	repeat	Run4	repeat/STIM_005.jpg
3242.383	0.651	correct	repeat	Run4	repeat/STIM_005.jpg
3246.766	0.515	correct	repeat	Run4	repeat/STIM_006.jpg
3249.708	0.743	correct	repeat	Run4	repeat/STIM_006.jpg
3252.439	0.697	correct	repeat	Run4	repeat/STIM_006.jpg
3255.815	0.755	correct	repeat	Run4	repeat/STIM_006.jpg
3260.385	0.763	correct	repeat	Run4	repeat/STIM_006.jpg
3263.828	0.644	incorrect	repeat	Run4	repeat/STIM_007.jpg
3266.836	0.663	correct	repeat	Run4	repeat/STIM_007.jpg
3270.487	0.683	correct	repeat	Run4	repeat/STIM_007.jpg
3273.521	0.71	correct	repeat	Run4	repeat/STIM_007.jpg
3277.735	0.744	correct	repeat	Run4	repeat/STIM_007.jpg
3282.165	0.471	correct	repeat	Run4	repeat/STIM_008.jpg
3286.196	0.803	correct	repeat	Run4	repeat/STIM_008.jpg
3289.518	0.487	correct	repeat	Run4	repeat/STIM_008.jpg
3293.235	0.507	incorrect	repeat	Run4	repeat/STIM_008.jpg
3296.448	0.499	correct	repeat	Run4	repeat/STIM_008.jpg
3300.992	0.787	correct	repeat	Run4	repeat/STIM_009.jpg
3305.191	0.705	correct	repeat	Run4	repeat/STIM_009.jpg
3308.33	0.949	correct	repeat	Run4	repeat/STIM_009.jpg
3311.803	0.47	correct	repeat	Run4	repeat/STIM_009.jpg
3314.614	0.738	correct	repeat	Run4	repeat/STIM_009.jpg
3318.764	0.414	correct	repeat	Run4	repeat/STIM_010.jpg
3321.359	0.919	correct	repeat	Run4	repeat/STIM_010.jpg
3326.133	0.897	correct	repeat	Run4	repeat/STIM_010.jpg
3329.632	0.906	correct	repeat	Run4	repeat/STIM_010.jpg
3333.117	0.755	correct	repeat	Run4	repeat/STIM_010.jpg
3336.898	0.743	correct	repeat	Run4	repeat/STIM_011.jpg
3340.632	0.585	correct	repeat	Run4	repeat/STIM_011.jpg
3343.79	0.966	correct	repeat	Run4	repeat/STIM_011.jpg
3347.876	0.463	correct	repeat	Run4	repeat/STIM_011.jpg
3350.997	0.844	correct	repeat	Run4	repeat/STIM_011.jpg
3355.648	0.842	correct	repeat	Run4	repeat/STIM_012.jpg
3360.437	0.869	correct	repeat	Run4	repeat/STIM_012.jpg
3363.936	0.695	correct	repeat	Run4	repeat/STIM_012.jpg
3367.143	0.698	correct	repeat	Run4	repeat/STIM_012.jpg
3370.215	0.903	correct	repeat	Run4	repeat/STIM_012.jpg
3375.037	0.722	correct	repeat	Run4	repeat/STIM_013.jpg
3379.228	0.561	correct	repeat	Run4	repeat/STIM_013.jpg
3382.84	0.724	correct	repeat	Run4	repeat/STIM_013.jpg
3387.092	0.822	correct	repeat	Run4	repeat/STIM_013.jpg
3391.608	0.642	correct	repeat	Run4	repeat/STIM_013.jpg
3395.558	0.674	correct	repeat	Run4	repeat/STIM_014.jpg
3399.116	0.695	correct	repeat	Run4	repeat/STIM_014.jpg
3402.494	0.998	correct	repeat	Run4	repeat/STIM_014.jpg
3407.014	0.883	correct	repeat	Run4	repeat/STIM_014.jpg
3410.676	0.778	correct	repeat	Run4	repeat/STIM_014.jpg
