onset	duration	accuracy_binary	trial_type	learning_stage	stimulus
0.0	3.057	0	generate	Run1	generate/STIM_000.jpg
6.173	2.5	1	generate	Run1	generate/STIM_000.jpg
12.076	2.112	0	generate	Run1	generate/STIM_000.jpg
16.427	1.077	1	generate	Run1	generate/STIM_000.jpg
19.693	2.525	0	generate	Run1	generate/STIM_000.jpg
26.091	1.966	1	generate	Run1	generate/STIM_001.jpg
30.24	2.525	0	generate	Run1	generate/STIM_001.jpg
36.0	1.775	0	generate	Run1	generate/STIM_001.jpg
41.045	1.343	1	generate	Run1	generate/STIM_001.jpg
44.719	2.307	0	generate	Run1	generate/STIM_001.jpg
50.902	1.82	1	generate	Run1	generate/STIM_002.jpg
55.999	1.376	1	generate	Run1	generate/STIM_002.jpg
59.812	1.524	1	generate	Run1	generate/STIM_002.jpg
64.59	1.941	0	generate	Run1	generate/STIM_002.jpg
70.116	1.46	1	generate	Run1	generate/STIM_002.jpg
74.405	1.959	1	generate	Run1	generate/STIM_003.jpg
80.25	2.315	1	generate	Run1	generate/STIM_003.jpg
85.858	1.934	0	generate	Run1	generate/STIM_003.jpg
91.518	1.109	0	generate	Run1	generate/STIM_003.jpg
95.241	1.8	0	generate	Run1	generate/STIM_003.jpg
99.741	2.567	1	generate	Run1	generate/STIM_004.jpg
105.938	1.256	1	generate	Run1	generate/STIM_004.jpg
109.826	2.052	1	generate	Run1	generate/STIM_004.jpg
115.075	1.41	0	generate	Run1	generate/STIM_004.jpg
119.487	2.052	1	generate	Run1	generate/STIM_004.jpg
124.319	1.542	0	generate	Run1	generate/STIM_005.jpg
129.732	1.295	1	generate	Run1	generate/STIM_005.jpg
134.222	2.781	1	generate	Run1	generate/STIM_005.jpg
140.916	1.109	0	generate	Run1	generate/STIM_005.jpg
144.271	1.981	1	generate	Run1	generate/STIM_005.jpg
149.003	1.796	0	generate	Run1	generate/STIM_006.jpg
154.555	2.128	1	generate	Run1	generate/STIM_006.jpg
159.678	2.8	1	generate	Run1	generate/STIM_006.jpg
164.914	2.219	1	generate	Run1	generate/STIM_006.jpg
170.216	1.393	0	generate	Run1	generate/STIM_006.jpg
173.619	2.528	0	generate	Run1	generate/STIM_007.jpg
179.253	2.865	0	generate	Run1	generate/STIM_007.jpg
184.879	2.423	1	generate	Run1	generate/STIM_007.jpg
190.597	1.988	0	generate	Run1	generate/STIM_007.jpg
195.145	2.254	1	generate	Run1	generate/STIM_007.jpg
199.946	1.272	1	generate	Run1	generate/STIM_008.jpg
205.106	1.483	0	generate	Run1	generate/STIM_008.jpg
208.941	2.504	0	generate	Run1	generate/STIM_008.jpg
214.914	1.99	1	generate	Run1	generate/STIM_008.jpg
219.426	1.171	1	generate	Run1	generate/STIM_008.jpg
223.74	2.734	1	generate	Run1	generate/STIM_009.jpg
228.882	1.73	0	generate	Run1	generate/STIM_009.jpg
232.926	2.408	1	generate	Run1	generate/STIM_009.jpg
237.972	2.596	1	generate	Run1	generate/STIM_009.jpg
243.372	1.926	0	generate	Run1	generate/STIM_009.jpg
249.287	1.707	1	generate	Run1	generate/STIM_010.jpg
254.918	1.819	0	generate	Run1	generate/STIM_010.jpg
259.476	2.702	1	generate	Run1	generate/STIM_010.jpg
266.104	1.437	1	generate	Run1	generate/STIM_010.jpg
269.596	1.673	1	generate	Run1	generate/STIM_010.jpg
274.8	3.064	0	generate	Run1	generate/STIM_011.jpg
279.885	1.516	1	generate	Run1	generate/STIM_011.jpg
284.086	2.104	1	generate	Run1	generate/STIM_011.jpg
290.045	1.611	1	generate	Run1	generate/STIM_011.jpg
294.272	1.974	1	generate	Run1	generate/STIM_011.jpg
299.554	2.69	1	generate	Run1	generate/STIM_012.jpg
305.589	1.902	0	generate	Run1	generate/STIM_012.jpg
310.709	1.41	1	generate	Run1	generate/STIM_012.jpg
315.631	1.332	1	generate	Run1	generate/STIM_012.jpg
320.242	2.472	0	generate	Run1	generate/STIM_012.jpg
325.186	3.119	1	generate	Run1	generate/STIM_013.jpg
331.476	2.786	0	generate	Run1	generate/STIM_013.jpg
336.481	1.803	1	generate	Run1	generate/STIM_013.jpg
340.311	2.668	1	generate	Run1	generate/STIM_013.jpg
346.579	1.815	1	generate	Run1	generate/STIM_013.jpg
352.145	2.695	0	generate	Run1	generate/STIM_014.jpg
357.058	2.298	0	generate	Run1	generate/STIM_014.jpg
362.664	1.328	0	generate	Run1	generate/STIM_014.jpg
367.054	2.452	1	generate	Run1	generate/STIM_014.jpg
372.109	1.544	1	generate	Run1	generate/STIM_014.jpg
377.453	1.632	1	generate	Run1	generate/STIM_015.jpg
382.981	1.915	1	generate	Run1	generate/STIM_015.jpg
387.199	1.75	1	generate	Run1	generate/STIM_015.jpg
392.638	1.59	1	generate	Run1	generate/STIM_015.jpg
397.715	2.218	1	generate	Run1	generate/STIM_015.jpg
402.482	2.57	1	generate	Run1	generate/STIM_016.jpg
407.692	2.188	1	generate	Run1	generate/STIM_016.jpg
412.144	2.349	1	generate	Run1	generate/STIM_016.jpg
417.638	2.604	1	generate	Run1	generate/STIM_016.jpg
422.642	2.06	0	generate	Run1	generate/STIM_016.jpg
426.931	2.613	1	generate	Run1	generate/STIM_017.jpg
432.853	1.247	0	generate	Run1	generate/STIM_017.jpg
436.962	1.191	0	generate	Run1	generate/STIM_017.jpg
441.605	1.198	1	generate	Run1	generate/STIM_017.jpg
446.465	1.894	1	generate	Run1	generate/STIM_017.jpg
451.378	1.462	0	generate	Run1	generate/STIM_018.jpg
456.042	2.898	0	generate	Run1	generate/STIM_018.jpg
462.844	2.368	0	generate	Run1	generate/STIM_018.jpg
468.054	2.002	1	generate	Run1	generate/STIM_018.jpg
473.3	1.816	0	generate	Run1	generate/STIM_018.jpg
477.741	1.656	1	generate	Run1	generate/STIM_019.jpg
482.786	2.795	0	generate	Run1	generate/STIM_019.jpg
487.916	2.469	0	generate	Run1	generate/STIM_019.jpg
493.535	1.846	0	generate	Run1	generate/STIM_019.jpg
499.257	1.567	1	generate	Run1	generate/STIM_019.jpg
503.319	1.845	0	generate	Run1	generate/STIM_020.jpg
507.674	2.633	1	generate	Run1	generate/STIM_020.jpg
513.135	1.746	1	generate	Run1	generate/STIM_020.jpg
518.202	2.34	1	generate	Run1	generate/STIM_020.jpg
522.907	1.026	0	generate	Run1	generate/STIM_020.jpg
526.754	1.477	1	generate	Run1	generate/STIM_021.jpg
530.35	2.839	0	generate	Run1	generate/STIM_021.jpg
536.028	2.676	1	generate	Run1	generate/STIM_021.jpg
541.243	1.489	1	generate	Run1	generate/STIM_021.jpg
545.819	2.091	0	generate	Run1	generate/STIM_021.jpg
551.769	2.264	1	generate	Run1	generate/STIM_022.jpg
557.899	2.112	0	generate	Run1	generate/STIM_022.jpg
562.798	2.523	0	generate	Run1	generate/STIM_022.jpg
568.852	2.438	1	generate	Run1	generate/STIM_022.jpg
574.293	1.632	0	generate	Run1	generate/STIM_022.jpg
577.96	2.121	0	generate	Run1	generate/STIM_023.jpg
582.176	2.33	0	generate	Run1	generate/STIM_023.jpg
588.2	1.191	0	generate	Run1	generate/STIM_023.jpg
592.611	2.042	1	generate	Run1	generate/STIM_023.jpg
598.047	2.49	1	generate	Run1	generate/STIM_023.jpg
603.677	2.26	1	generate	Run1	generate/STIM_024.jpg
608.635	1.663	0	generate	Run1	generate/STIM_024.jpg
612.777	2.587	1	generate	Run1	generate/STIM_024.jpg
619.125	2.139	0	generate	Run1	generate/STIM_024.jpg
623.855	1.803	1	generate	Run1	generate/STIM_024.jpg
628.59	0.628	0	repeat	Run1	repeat/STIM_000.jpg
632.665	0.629	1	repeat	Run1	repeat/STIM_000.jpg
636.429	0.968	1	repeat	Run1	repeat/STIM_000.jpg
639.819	0.587	1	repeat	Run1	repeat/STIM_000.jpg
642.603	0.816	1	repeat	Run1	repeat/STIM_000.jpg
646.008	0.988	1	repeat	Run1	repeat/STIM_001.jpg
649.394	0.889	1	repeat	Run1	repeat/STIM_001.jpg
653.08	0.873	1	repeat	Run1	repeat/STIM_001.jpg
656.695	0.761	0	repeat	Run1	repeat/STIM_001.jpg
661.115	0.844	1	repeat	Run1	repeat/STIM_001.jpg
665.115	1.014	1	repeat	Run1	repeat/STIM_002.jpg
668.932	0.744	1	repeat	Run1	repeat/STIM_002.jpg
672.424	0.953	0	repeat	Run1	repeat/STIM_002.jpg
676.148	0.645	1	repeat	Run1	repeat/STIM_002.jpg
680.736	0.72	0	repeat	Run1	repeat/STIM_002.jpg
683.538	0.739	1	repeat	Run1	repeat/STIM_003.jpg
686.965	0.641	1	repeat	Run1	repeat/STIM_003.jpg
691.017	0.787	1	repeat	Run1	repeat/STIM_003.jpg
694.133	0.747	1	repeat	Run1	repeat/STIM_003.jpg
697.452	0.887	1	repeat	Run1	repeat/STIM_003.jpg
701.737	0.963	1	repeat	Run1	repeat/STIM_004.jpg
705.676	0.688	1	repeat	Run1	repeat/STIM_004.jpg
709.386	1.029	1	repeat	Run1	repeat/STIM_004.jpg
713.361	0.824	1	repeat	Run1	repeat/STIM_004.jpg
718.007	0.996	1	repeat	Run1	repeat/STIM_004.jpg
722.999	0.538	1	repeat	Run1	repeat/STIM_005.jpg
727.428	0.807	1	repeat	Run1	repeat/STIM_005.jpg
732.115	1.053	0	repeat	Run1	repeat/STIM_005.jpg
735.511	0.698	0	repeat	Run1	repeat/STIM_005.jpg
738.6	1.001	1	repeat	Run1	repeat/STIM_005.jpg
743.186	0.728	1	repeat	Run1	repeat/STIM_006.jpg
745.941	0.798	0	repeat	Run1	repeat/STIM_006.jpg
749.79	0.59	1	repeat	Run1	repeat/STIM_006.jpg
753.835	0.818	0	repeat	Run1	repeat/STIM_006.jpg
757.379	0.752	1	repeat	Run1	repeat/STIM_006.jpg
761.672	0.94	1	repeat	Run1	repeat/STIM_007.jpg
766.405	0.816	0	repeat	Run1	repeat/STIM_007.jpg
770.755	0.755	1	repeat	Run1	repeat/STIM_007.jpg
774.779	0.922	1	repeat	Run1	repeat/STIM_007.jpg
779.26	0.707	1	repeat	Run1	repeat/STIM_007.jpg
783.1	0.8	0	repeat	Run1	repeat/STIM_008.jpg
786.65	0.702	1	repeat	Run1	repeat/STIM_008.jpg
789.768	0.955	1	repeat	Run1	repeat/STIM_008.jpg
793.456	1.016	1	repeat	Run1	repeat/STIM_008.jpg
798.317	0.654	1	repeat	Run1	repeat/STIM_008.jpg
801.884	0.957	1	repeat	Run1	repeat/STIM_009.jpg
806.165	0.569	1	repeat	Run1	repeat/STIM_009.jpg
809.003	1.046	1	repeat	Run1	repeat/STIM_009.jpg
813.968	0.65	1	repeat	Run1	repeat/STIM_009.jpg
816.661	0.881	1	repeat	Run1	repeat/STIM_009.jpg
821.178	1.051	1	repeat	Run1	repeat/STIM_010.jpg
825.53	0.545	1	repeat	Run1	repeat/STIM_010.jpg
829.226	0.567	1	repeat	Run1	repeat/STIM_010.jpg
832.761	0.995	1	repeat	Run1	repeat/STIM_010.jpg
837.397	1.042	1	repeat	Run1	repeat/STIM_010.jpg
841.789	0.584	1	repeat	Run1	repeat/STIM_011.jpg
845.196	0.853	1	repeat	Run1	repeat/STIM_011.jpg
848.458	0.972	0	repeat	Run1	repeat/STIM_011.jpg
852.615	0.714	1	repeat	Run1	repeat/STIM_011.jpg
857.273	0.562	0	repeat	Run1	repeat/STIM_011.jpg
860.055	0.889	1	repeat	Run1	repeat/STIM_012.jpg
864.12	0.742	1	repeat	Run1	repeat/STIM_012.jpg
868.83	0.596	1	repeat	Run1	repeat/STIM_012.jpg
872.227	0.709	1	repeat	Run1	repeat/STIM_012.jpg
876.758	0.636	1	repeat	Run1	repeat/STIM_012.jpg
880.187	1.034	1	repeat	Run1	repeat/STIM_013.jpg
884.941	0.89	1	repeat	Run1	repeat/STIM_013.jpg
889.186	0.584	1	repeat	Run1	repeat/STIM_013.jpg
891.788	0.693	1	repeat	Run1	repeat/STIM_013.jpg
895.685	0.69	1	repeat	Run1	repeat/STIM_013.jpg
898.936	0.593	1	repeat	Run1	repeat/STIM_014.jpg
903.379	0.912	1	repeat	Run1	repeat/STIM_014.jpg
906.855	0.567	0	repeat	Run1	repeat/STIM_014.jpg
910.199	0.97	1	repeat	Run1	repeat/STIM_014.jpg
913.209	0.987	1	repeat	Run1	repeat/STIM_014.jpg
917.792	1.999	1	generate	Run2	generate/STIM_000.jpg
922.713	2.14	0	generate	Run2	generate/STIM_000.jpg
927.97	1.386	0	generate	Run2	generate/STIM_000.jpg
932.403	1.195	1	generate	Run2	generate/STIM_000.jpg
937.038	2.188	0	generate	Run2	generate/STIM_000.jpg
943.195	2.008	1	generate	Run2	generate/STIM_001.jpg
949.19	1.73	1	generate	Run2	generate/STIM_001.jpg
953.27	1.818	0	generate	Run2	generate/STIM_001.jpg
957.904	1.021	1	generate	Run2	generate/STIM_001.jpg
961.495	1.819	0	generate	Run2	generate/STIM_001.jpg
965.545	2.505	0	generate	Run2	generate/STIM_002.jpg
970.345	2.526	1	generate	Run2	generate/STIM_002.jpg
975.556	1.438	0	generate	Run2	generate/STIM_002.jpg
980.165	1.473	1	generate	Run2	generate/STIM_002.jpg
985.144	1.946	0	generate	Run2	generate/STIM_002.jpg
990.204	1.748	1	generate	Run2	generate/STIM_003.jpg
995.18	2.33	1	generate	Run2	generate/STIM_003.jpg
1000.109	2.257	1	generate	Run2	generate/STIM_003.jpg
1005.067	1.862	1	generate	Run2	generate/STIM_003.jpg
1010.401	1.57	1	generate	Run2	generate/STIM_003.jpg
1014.502	2.626	0	generate	Run2	generate/STIM_004.jpg
1019.764	1.596	0	generate	Run2	generate/STIM_004.jpg
1023.534	1.652	1	generate	Run2	generate/STIM_004.jpg
1027.827	1.036	0	generate	Run2	generate/STIM_004.jpg
1032.685	1.314	0	generate	Run2	generate/STIM_004.jpg
1037.509	2.378	0	generate	Run2	generate/STIM_005.jpg
1042.399	2.17	0	generate	Run2	generate/STIM_005.jpg
1047.351	2.152	0	generate	Run2	generate/STIM_005.jpg
1051.911	1.79	0	generate	Run2	generate/STIM_005.jpg
1056.079	2.004	0	generate	Run2	generate/STIM_005.jpg
1061.654	1.75	1	generate	Run2	generate/STIM_006.jpg
1066.51	1.694	1	generate	Run2	generate/STIM_006.jpg
1071.914	1.277	1	generate	Run2	generate/STIM_006.jpg
1076.236	1.903	1	generate	Run2	generate/STIM_006.jpg
1080.955	1.906	1	generate	Run2	generate/STIM_006.jpg
1086.155	1.852	1	generate	Run2	generate/STIM_007.jpg
1090.518	1.414	1	generate	Run2	generate/STIM_007.jpg
1094.625	1.018	0	generate	Run2	generate/STIM_007.jpg
1098.019	2.026	1	generate	Run2	generate/STIM_007.jpg
1103.649	1.43	0	generate	Run2	generate/STIM_007.jpg
1108.291	2.285	0	generate	Run2	generate/STIM_008.jpg
1112.877	1.893	1	generate	Run2	generate/STIM_008.jpg
1117.469	1.062	1	generate	Run2	generate/STIM_008.jpg
1121.129	0.887	0	generate	Run2	generate/STIM_008.jpg
1124.225	2.066	0	generate	Run2	generate/STIM_008.jpg
1129.206	2.639	0	generate	Run2	generate/STIM_009.jpg
1135.29	2.461	0	generate	Run2	generate/STIM_009.jpg
1141.225	2.146	1	generate	Run2	generate/STIM_009.jpg
1145.709	1.806	1	generate	Run2	generate/STIM_009.jpg
1150.509	2.085	1	generate	Run2	generate/STIM_009.jpg
1156.215	1.3	1	generate	Run2	generate/STIM_010.jpg
1160.667	2.055	0	generate	Run2	generate/STIM_010.jpg
1165.95	1.84	0	generate	Run2	generate/STIM_010.jpg
1171.395	1.42	0	generate	Run2	generate/STIM_010.jpg
1176.471	1.12	1	generate	Run2	generate/STIM_010.jpg
1180.983	1.804	1	generate	Run2	generate/STIM_011.jpg
1185.486	2.015	0	generate	Run2	generate/STIM_011.jpg
1190.869	1.034	0	generate	Run2	generate/STIM_011.jpg
1194.548	1.72	1	generate	Run2	generate/STIM_011.jpg
1200.029	2.046	1	generate	Run2	generate/STIM_011.jpg
1204.835	1.63	1	generate	Run2	generate/STIM_012.jpg
1209.855	2.362	1	generate	Run2	generate/STIM_012.jpg
1215.394	1.638	1	generate	Run2	generate/STIM_012.jpg
1220.758	1.972	1	generate	Run2	generate/STIM_012.jpg
1225.462	1.872	1	generate	Run2	generate/STIM_012.jpg
1229.848	1.652	1	generate	Run2	generate/STIM_013.jpg
1234.182	1.454	1	generate	Run2	generate/STIM_013.jpg
1239.554	1.132	0	generate	Run2	generate/STIM_013.jpg
1244.067	1.233	0	generate	Run2	generate/STIM_013.jpg
1248.016	2.117	0	generate	Run2	generate/STIM_013.jpg
1252.618	2.209	0	generate	Run2	generate/STIM_014.jpg
1258.417	1.062	1	generate	Run2	generate/STIM_014.jpg
1261.806	1.273	0	generate	Run2	generate/STIM_014.jpg
1266.467	2.049	1	generate	Run2	generate/STIM_014.jpg
1271.416	1.875	1	generate	Run2	generate/STIM_014.jpg
1275.875	1.539	1	generate	Run2	generate/STIM_015.jpg
1279.875	2.1	1	generate	Run2	generate/STIM_015.jpg
1285.636	1.806	0	generate	Run2	generate/STIM_015.jpg
1290.302	1.37	1	generate	Run2	generate/STIM_015.jpg
1294.871	1.759	0	generate	Run2	generate/STIM_015.jpg
1299.457	1.444	1	generate	Run2	generate/STIM_016.jpg
1304.359	2.462	0	generate	Run2	generate/STIM_016.jpg
1309.348	1.127	1	generate	Run2	generate/STIM_016.jpg
1312.755	1.844	1	generate	Run2	generate/STIM_016.jpg
1318.048	1.064	1	generate	Run2	generate/STIM_016.jpg
1321.432	1.798	1	generate	Run2	generate/STIM_017.jpg
1325.975	1.965	0	generate	Run2	generate/STIM_017.jpg
1330.791	2.126	0	generate	Run2	generate/STIM_017.jpg
1336.417	1.987	0	generate	Run2	generate/STIM_017.jpg
1342.243	1.883	1	generate	Run2	generate/STIM_017.jpg
1347.026	1.845	1	generate	Run2	generate/STIM_018.jpg
1351.495	1.322	1	generate	Run2	generate/STIM_018.jpg
1355.559	1.158	1	generate	Run2	generate/STIM_018.jpg
1360.584	1.797	1	generate	Run2	generate/STIM_018.jpg
1365.846	1.83	1	generate	Run2	generate/STIM_018.jpg
1371.486	1.666	1	generate	Run2	generate/STIM_019.jpg
1375.944	1.149	1	generate	Run2	generate/STIM_019.jpg
1379.438	1.152	1	generate	Run2	generate/STIM_019.jpg
1384.001	1.711	1	generate	Run2	generate/STIM_019.jpg
1388.483	1.875	0	generate	Run2	generate/STIM_019.jpg
1393.567	1.654	0	generate	Run2	generate/STIM_020.jpg
1398.719	2.062	1	generate	Run2	generate/STIM_020.jpg
1403.282	1.81	1	generate	Run2	generate/STIM_020.jpg
1407.391	2.143	1	generate	Run2	generate/STIM_020.jpg
1412.147	1.848	1	generate	Run2	generate/STIM_020.jpg
1417.743	2.552	0	generate	Run2	generate/STIM_021.jpg
1423.393	2.139	1	generate	Run2	generate/STIM_021.jpg
1429.246	2.306	0	generate	Run2	generate/STIM_021.jpg
1434.695	2.2	1	generate	Run2	generate/STIM_021.jpg
1440.17	1.713	1	generate	Run2	generate/STIM_021.jpg
1444.028	1.986	1	generate	Run2	generate/STIM_022.jpg
1448.367	1.401	1	generate	Run2	generate/STIM_022.jpg
1453.436	2.155	1	generate	Run2	generate/STIM_022.jpg
1458.097	2.114	1	generate	Run2	generate/STIM_022.jpg
1462.218	1.744	0	generate	Run2	generate/STIM_022.jpg
1467.787	2.649	0	generate	Run2	generate/STIM_023.jpg
1474.367	2.109	1	generate	Run2	generate/STIM_023.jpg
1479.154	2.218	0	generate	Run2	generate/STIM_023.jpg
1484.198	0.907	0	generate	Run2	generate/STIM_023.jpg
1488.378	1.286	1	generate	Run2	generate/STIM_023.jpg
1492.693	1.576	1	generate	Run2	generate/STIM_024.jpg
1497.575	1.54	0	generate	Run2	generate/STIM_024.jpg
1502.57	1.674	1	generate	Run2	generate/STIM_024.jpg
1507.111	1.348	0	generate	Run2	generate/STIM_024.jpg
1510.556	1.418	1	generate	Run2	generate/STIM_024.jpg
1514.284	0.727	1	repeat	Run2	repeat/STIM_000.jpg
1518.382	1.015	0	repeat	Run2	repeat/STIM_000.jpg
1522.383	0.65	1	repeat	Run2	repeat/STIM_000.jpg
1525.142	0.779	1	repeat	Run2	repeat/STIM_000.jpg
1529.663	0.896	1	repeat	Run2	repeat/STIM_000.jpg
1533.608	0.661	1	repeat	Run2	repeat/STIM_001.jpg
1537.73	0.988	1	repeat	Run2	repeat/STIM_001.jpg
1542.082	0.898	0	repeat	Run2	repeat/STIM_001.jpg
1545.155	0.958	1	repeat	Run2	repeat/STIM_001.jpg
1549.216	0.883	1	repeat	Run2	repeat/STIM_001.jpg
1553.229	0.735	0	repeat	Run2	repeat/STIM_002.jpg
1556.281	0.88	1	repeat	Run2	repeat/STIM_002.jpg
1559.65	0.616	0	repeat	Run2	repeat/STIM_002.jpg
1563.215	0.559	1	repeat	Run2	repeat/STIM_002.jpg
1565.856	1.042	1	repeat	Run2	repeat/STIM_002.jpg
1570.47	1.004	1	repeat	Run2	repeat/STIM_003.jpg
1573.799	0.866	1	repeat	Run2	repeat/STIM_003.jpg
1576.772	0.777	0	repeat	Run2	repeat/STIM_003.jpg
1581.224	0.574	1	repeat	Run2	repeat/STIM_003.jpg
1584.389	0.675	1	repeat	Run2	repeat/STIM_003.jpg
1587.694	0.883	1	repeat	Run2	repeat/STIM_004.jpg
1591.277	0.997	1	repeat	Run2	repeat/STIM_004.jpg
1595.772	0.731	1	repeat	Run2	repeat/STIM_004.jpg
1599.991	0.739	1	repeat	Run2	repeat/STIM_004.jpg
1604.126	0.872	1	repeat	Run2	repeat/STIM_004.jpg
1607.61	0.77	0	repeat	Run2	repeat/STIM_005.jpg
1611.06	0.575	1	repeat	Run2	repeat/STIM_005.jpg
1613.709	0.72	0	repeat	Run2	repeat/STIM_005.jpg
1618.296	0.543	1	repeat	Run2	repeat/STIM_005.jpg
1622.485	0.724	1	repeat	Run2	repeat/STIM_005.jpg
1626.567	0.968	1	repeat	Run2	repeat/STIM_006.jpg
1629.715	0.957	1	repeat	Run2	repeat/STIM_006.jpg
1634.653	0.785	0	repeat	Run2	repeat/STIM_006.jpg
1638.334	1.01	1	repeat	Run2	repeat/STIM_006.jpg
1641.606	0.868	1	repeat	Run2	repeat/STIM_006.jpg
1645.79	0.706	1	repeat	Run2	repeat/STIM_007.jpg
1650.34	0.625	1	repeat	Run2	repeat/STIM_007.jpg
1654.788	0.769	1	repeat	Run2	repeat/STIM_007.jpg
1658.859	0.903	0	repeat	Run2	repeat/STIM_007.jpg
1662.415	0.717	1	repeat	Run2	repeat/STIM_007.jpg
1666.044	0.593	1	repeat	Run2	repeat/STIM_008.jpg
1670.367	1.015	1	repeat	Run2	repeat/STIM_008.jpg
1673.79	1.039	1	repeat	Run2	repeat/STIM_008.jpg
1678.476	0.654	1	repeat	Run2	repeat/STIM_008.jpg
1681.628	0.839	1	repeat	Run2	repeat/STIM_008.jpg
1685.071	0.589	0	repeat	Run2	repeat/STIM_009.jpg
1689.084	0.667	1	repeat	Run2	repeat/STIM_009.jpg
1693.356	1.051	1	repeat	Run2	repeat/STIM_009.jpg
1696.671	0.528	0	repeat	Run2	repeat/STIM_009.jpg
1699.819	0.846	1	repeat	Run2	repeat/STIM_009.jpg
1702.863	1.007	1	repeat	Run2	repeat/STIM_010.jpg
1705.984	0.684	1	repeat	Run2	repeat/STIM_010.jpg
1710.155	0.622	1	repeat	Run2	repeat/STIM_010.jpg
1714.522	0.987	1	repeat	Run2	repeat/STIM_010.jpg
1718.266	1.012	1	repeat	Run2	repeat/STIM_010.jpg
1721.759	0.976	1	repeat	Run2	repeat/STIM_011.jpg
1726.072	0.775	1	repeat	Run2	repeat/STIM_011.jpg
1729.369	0.569	0	repeat	Run2	repeat/STIM_011.jpg
1732.455	0.608	0	repeat	Run2	repeat/STIM_011.jpg
1735.519	0.681	0	repeat	Run2	repeat/STIM_011.jpg
1740.169	0.53	0	repeat	Run2	repeat/STIM_012.jpg
1742.856	0.894	1	repeat	Run2	repeat/STIM_012.jpg
1746.112	1.043	1	repeat	Run2	repeat/STIM_012.jpg
1750.591	0.645	1	repeat	Run2	repeat/STIM_012.jpg
1754.637	0.808	1	repeat	Run2	repeat/STIM_012.jpg
1758.733	0.545	1	repeat	Run2	repeat/STIM_013.jpg
1762.032	1.032	0	repeat	Run2	repeat/STIM_013.jpg
1767.017	0.626	1	repeat	Run2	repeat/STIM_013.jpg
1771.189	0.768	1	repeat	Run2	repeat/STIM_013.jpg
1774.105	0.586	0	repeat	Run2	repeat/STIM_013.jpg
1777.111	0.945	1	repeat	Run2	repeat/STIM_014.jpg
1781.48	0.64	1	repeat	Run2	repeat/STIM_014.jpg
1784.269	0.79	1	repeat	Run2	repeat/STIM_014.jpg
1787.987	0.726	1	repeat	Run2	repeat/STIM_014.jpg
1792.539	0.69	0	repeat	Run2	repeat/STIM_014.jpg
1795.887	1.049	1	generate	Run3	generate/STIM_000.jpg
1799.679	2.123	1	generate	Run3	generate/STIM_000.jpg
1804.104	1.158	1	generate	Run3	generate/STIM_000.jpg
1808.036	1.185	0	generate	Run3	generate/STIM_000.jpg
1812.727	2.171	1	generate	Run3	generate/STIM_000.jpg
1818.702	1.909	1	generate	Run3	generate/STIM_001.jpg
1823.771	1.161	1	generate	Run3	generate/STIM_001.jpg
1828.924	1.878	1	generate	Run3	generate/STIM_001.jpg
1832.923	1.264	0	generate	Run3	generate/STIM_001.jpg
1838.097	0.985	0	generate	Run3	generate/STIM_001.jpg
1841.119	1.251	1	generate	Run3	generate/STIM_002.jpg
1846.265	1.276	1	generate	Run3	generate/STIM_002.jpg
1849.909	1.561	1	generate	Run3	generate/STIM_002.jpg
1855.415	1.317	0	generate	Run3	generate/STIM_002.jpg
1858.975	1.823	0	generate	Run3	generate/STIM_002.jpg
1862.899	1.62	1	generate	Run3	generate/STIM_003.jpg
1866.795	1.079	0	generate	Run3	generate/STIM_003.jpg
1871.254	2.121	1	generate	Run3	generate/STIM_003.jpg
1876.707	1.836	1	generate	Run3	generate/STIM_003.jpg
1880.635	1.115	0	generate	Run3	generate/STIM_003.jpg
1885.501	1.951	0	generate	Run3	generate/STIM_004.jpg
1890.879	1.831	0	generate	Run3	generate/STIM_004.jpg
1896.43	1.062	1	generate	Run3	generate/STIM_004.jpg
1900.406	1.398	1	generate	Run3	generate/STIM_004.jpg
1905.591	1.506	1	generate	Run3	generate/STIM_004.jpg
1909.59	1.004	1	generate	Run3	generate/STIM_005.jpg
1913.518	1.12	1	generate	Run3	generate/STIM_005.jpg
1917.013	2.092	1	generate	Run3	generate/STIM_005.jpg
1921.156	2.082	1	generate	Run3	generate/STIM_005.jpg
1925.48	1.8	1	generate	Run3	generate/STIM_005.jpg
1930.235	1.582	0	generate	Run3	generate/STIM_006.jpg
1934.405	1.99	0	generate	Run3	generate/STIM_006.jpg
1939.743	1.22	1	generate	Run3	generate/STIM_006.jpg
1944.535	1.304	1	generate	Run3	generate/STIM_006.jpg
1948.777	1.34	0	generate	Run3	generate/STIM_006.jpg
1952.631	1.882	1	generate	Run3	generate/STIM_007.jpg
1958.29	1.492	1	generate	Run3	generate/STIM_007.jpg
1961.825	1.786	1	generate	Run3	generate/STIM_007.jpg
1966.23	2.16	0	generate	Run3	generate/STIM_007.jpg
1970.825	1.858	1	generate	Run3	generate/STIM_007.jpg
1976.504	1.861	1	generate	Run3	generate/STIM_008.jpg
1982.359	0.921	1	generate	Run3	generate/STIM_008.jpg
1986.544	2.204	1	generate	Run3	generate/STIM_008.jpg
1992.138	1.237	1	generate	Run3	generate/STIM_008.jpg
1996.015	1.068	1	generate	Run3	generate/STIM_008.jpg
2000.057	1.489	0	generate	Run3	generate/STIM_009.jpg
2004.001	1.37	1	generate	Run3	generate/STIM_009.jpg
2007.602	1.985	1	generate	Run3	generate/STIM_009.jpg
2013.433	1.885	1	generate	Run3	generate/STIM_009.jpg
2018.034	2.011	1	generate	Run3	generate/STIM_009.jpg
2022.342	1.64	1	generate	Run3	generate/STIM_010.jpg
2026.529	1.607	1	generate	Run3	generate/STIM_010.jpg
2031.27	0.971	0	generate	Run3	generate/STIM_010.jpg
2035.242	1.533	1	generate	Run3	generate/STIM_010.jpg
2040.304	1.816	1	generate	Run3	generate/STIM_010.jpg
2045.996	1.796	0	generate	Run3	generate/STIM_011.jpg
2051.008	2.054	1	generate	Run3	generate/STIM_011.jpg
2057.048	2.064	1	generate	Run3	generate/STIM_011.jpg
2062.391	2.139	1	generate	Run3	generate/STIM_011.jpg
2066.82	1.353	1	generate	Run3	generate/STIM_011.jpg
2070.844	1.574	1	generate	Run3	generate/STIM_012.jpg
2075.236	2.046	1	generate	Run3	generate/STIM_012.jpg
2079.679	1.063	0	generate	Run3	generate/STIM_012.jpg
2084.384	1.389	0	generate	Run3	generate/STIM_012.jpg
2088.688	1.015	1	generate	Run3	generate/STIM_012.jpg
2092.761	2.023	0	generate	Run3	generate/STIM_013.jpg
2097.588	1.212	1	generate	Run3	generate/STIM_013.jpg
2101.189	1.772	0	generate	Run3	generate/STIM_013.jpg
2106.573	1.368	1	generate	Run3	generate/STIM_013.jpg
2111.294	2.013	0	generate	Run3	generate/STIM_013.jpg
2115.618	2.071	1	generate	Run3	generate/STIM_014.jpg
2120.677	1.228	0	generate	Run3	generate/STIM_014.jpg
2125.225	1.087	1	generate	Run3	generate/STIM_014.jpg
2129.113	1.586	1	generate	Run3	generate/STIM_014.jpg
2134.49	1.312	1	generate	Run3	generate/STIM_014.jpg
2138.267	1.681	1	generate	Run3	generate/STIM_015.jpg
2143.357	1.991	0	generate	Run3	generate/STIM_015.jpg
2147.93	1.079	1	generate	Run3	generate/STIM_015.jpg
2152.644	1.187	1	generate	Run3	generate/STIM_015.jpg
2157.532	1.322	1	generate	Run3	generate/STIM_015.jpg
2161.825	1.886	0	generate	Run3	generate/STIM_016.jpg
2166.844	1.62	1	generate	Run3	generate/STIM_016.jpg
2172.325	1.309	1	generate	Run3	generate/STIM_016.jpg
2175.855	1.676	1	generate	Run3	generate/STIM_016.jpg
2179.965	1.369	0	generate	Run3	generate/STIM_016.jpg
2184.022	1.844	0	generate	Run3	generate/STIM_017.jpg
2189.448	1.042	1	generate	Run3	generate/STIM_017.jpg
2193.581	1.887	1	generate	Run3	generate/STIM_017.jpg
2198.573	1.906	1	generate	Run3	generate/STIM_017.jpg
2204.425	1.075	1	generate	Run3	generate/STIM_017.jpg
2207.709	1.984	0	generate	Run3	generate/STIM_018.jpg
2213.141	2.063	1	generate	Run3	generate/STIM_018.jpg
2218.807	0.93	1	generate	Run3	generate/STIM_018.jpg
2222.783	1.612	1	generate	Run3	generate/STIM_018.jpg
2227.695	1.975	1	generate	Run3	generate/STIM_018.jpg
2231.675	1.323	1	generate	Run3	generate/STIM_019.jpg
2236.377	1.305	1	generate	Run3	generate/STIM_019.jpg
2239.931	1.805	1	generate	Run3	generate/STIM_019.jpg
2244.037	1.545	1	generate	Run3	generate/STIM_019.jpg
2248.226	1.721	1	generate	Run3	generate/STIM_019.jpg
2251.963	1.512	1	generate	Run3	generate/STIM_020.jpg
2256.134	1.557	1	generate	Run3	generate/STIM_020.jpg
2260.363	1.774	1	generate	Run3	generate/STIM_020.jpg
2265.849	1.237	1	generate	Run3	generate/STIM_020.jpg
2271.055	1.7	1	generate	Run3	generate/STIM_020.jpg
2274.905	2.205	0	generate	Run3	generate/STIM_021.jpg
2280.462	1.901	1	generate	Run3	generate/STIM_021.jpg
2286.307	1.282	1	generate	Run3	generate/STIM_021.jpg
2289.841	1.822	1	generate	Run3	generate/STIM_021.jpg
2294.221	1.073	1	generate	Run3	generate/STIM_021.jpg
2297.767	1.878	0	generate	Run3	generate/STIM_022.jpg
2302.799	1.373	1	generate	Run3	generate/STIM_022.jpg
2307.886	1.302	0	generate	Run3	generate/STIM_022.jpg
2311.323	2.144	0	generate	Run3	generate/STIM_022.jpg
2315.826	1.254	1	generate	Run3	generate/STIM_022.jpg
2319.419	1.718	1	generate	Run3	generate/STIM_023.jpg
2323.767	1.646	1	generate	Run3	generate/STIM_023.jpg
2328.625	2.026	1	generate	Run3	generate/STIM_023.jpg
2333.937	1.176	1	generate	Run3	generate/STIM_023.jpg
2337.686	1.766	1	generate	Run3	generate/STIM_023.jpg
2342.329	1.763	1	generate	Run3	generate/STIM_024.jpg
2347.164	1.378	0	generate	Run3	generate/STIM_024.jpg
2352.326	1.615	1	generate	Run3	generate/STIM_024.jpg
2356.448	2.157	1	generate	Run3	generate/STIM_024.jpg
2362.302	1.499	1	generate	Run3	generate/STIM_024.jpg
2367.009	0.742	1	repeat	Run3	repeat/STIM_000.jpg
2371.54	1.021	0	repeat	Run3	repeat/STIM_000.jpg
2375.952	0.599	1	repeat	Run3	repeat/STIM_000.jpg
2378.608	0.698	1	repeat	Run3	repeat/STIM_000.jpg
2382.559	0.685	1	repeat	Run3	repeat/STIM_000.jpg
2386.359	0.597	1	repeat	Run3	repeat/STIM_001.jpg
2389.231	1.03	0	repeat	Run3	repeat/STIM_001.jpg
2392.673	0.854	1	repeat	Run3	repeat/STIM_001.jpg
2395.982	1.034	0	repeat	Run3	repeat/STIM_001.jpg
2400.382	0.85	1	repeat	Run3	repeat/STIM_001.jpg
2404.78	0.985	1	repeat	Run3	repeat/STIM_002.jpg
2408.249	0.724	1	repeat	Run3	repeat/STIM_002.jpg
2412.678	0.565	0	repeat	Run3	repeat/STIM_002.jpg
2416.601	0.692	1	repeat	Run3	repeat/STIM_002.jpg
2420.333	0.92	1	repeat	Run3	repeat/STIM_002.jpg
2423.745	0.68	0	repeat	Run3	repeat/STIM_003.jpg
2427.475	0.754	1	repeat	Run3	repeat/STIM_003.jpg
2431.701	0.815	0	repeat	Run3	repeat/STIM_003.jpg
2435.892	0.555	1	repeat	Run3	repeat/STIM_003.jpg
2439.858	0.664	1	repeat	Run3	repeat/STIM_003.jpg
2444.236	0.691	0	repeat	Run3	repeat/STIM_004.jpg
2447.134	0.86	1	repeat	Run3	repeat/STIM_004.jpg
2450.718	0.896	1	repeat	Run3	repeat/STIM_004.jpg
2454.506	0.6	1	repeat	Run3	repeat/STIM_004.jpg
2457.927	0.652	0	repeat	Run3	repeat/STIM_004.jpg
2461.789	0.807	1	repeat	Run3	repeat/STIM_005.jpg
2465.165	1.054	1	repeat	Run3	repeat/STIM_005.jpg
2468.857	0.974	1	repeat	Run3	repeat/STIM_005.jpg
2471.946	0.68	1	repeat	Run3	repeat/STIM_005.jpg
2475.895	0.69	1	repeat	Run3	repeat/STIM_005.jpg
2480.11	0.616	1	repeat	Run3	repeat/STIM_006.jpg
2483.584	1.023	1	repeat	Run3	repeat/STIM_006.jpg
2486.766	0.911	1	repeat	Run3	repeat/STIM_006.jpg
2490.552	0.778	1	repeat	Run3	repeat/STIM_006.jpg
2494.512	0.846	0	repeat	Run3	repeat/STIM_006.jpg
2499.014	0.579	1	repeat	Run3	repeat/STIM_007.jpg
2503.467	1.033	0	repeat	Run3	repeat/STIM_007.jpg
2507.098	0.822	1	repeat	Run3	repeat/STIM_007.jpg
2511.207	0.562	1	repeat	Run3	repeat/STIM_007.jpg
2515.62	0.794	1	repeat	Run3	repeat/STIM_007.jpg
2519.208	1.054	0	repeat	Run3	repeat/STIM_008.jpg
2523.094	0.612	1	repeat	Run3	repeat/STIM_008.jpg
2527.49	0.825	1	repeat	Run3	repeat/STIM_008.jpg
2532.077	0.809	1	repeat	Run3	repeat/STIM_008.jpg
2536.008	0.862	0	repeat	Run3	repeat/STIM_008.jpg
2539.276	0.75	1	repeat	Run3	repeat/STIM_009.jpg
2542.07	0.653	1	repeat	Run3	repeat/STIM_009.jpg
2544.858	0.973	0	repeat	Run3	repeat/STIM_009.jpg
2548.799	0.714	1	repeat	Run3	repeat/STIM_009.jpg
2552.976	0.662	1	repeat	Run3	repeat/STIM_009.jpg
2557.048	0.591	1	repeat	Run3	repeat/STIM_010.jpg
2561.053	1.043	1	repeat	Run3	repeat/STIM_010.jpg
2565.647	0.76	0	repeat	Run3	repeat/STIM_010.jpg
2570.06	0.593	1	repeat	Run3	repeat/STIM_010.jpg
2573.997	0.869	1	repeat	Run3	repeat/STIM_010.jpg
2578.613	0.878	1	repeat	Run3	repeat/STIM_011.jpg
2583.299	0.62	1	repeat	Run3	repeat/STIM_011.jpg
2587.674	0.682	1	repeat	Run3	repeat/STIM_011.jpg
2590.502	0.988	1	repeat	Run3	repeat/STIM_011.jpg
2595.306	0.848	1	repeat	Run3	repeat/STIM_011.jpg
2599.422	0.53	1	repeat	Run3	repeat/STIM_012.jpg
2602.215	0.864	1	repeat	Run3	repeat/STIM_012.jpg
2606.905	0.895	0	repeat	Run3	repeat/STIM_012.jpg
2611.155	0.866	1	repeat	Run3	repeat/STIM_012.jpg
2616.0	0.904	0	repeat	Run3	repeat/STIM_012.jpg
2619.743	1.012	1	repeat	Run3	repeat/STIM_013.jpg
2624.09	0.659	1	repeat	Run3	repeat/STIM_013.jpg
2627.117	0.675	1	repeat	Run3	repeat/STIM_013.jpg
2630.181	0.58	1	repeat	Run3	repeat/STIM_013.jpg
2634.152	0.599	1	repeat	Run3	repeat/STIM_013.jpg
2637.819	0.752	1	repeat	Run3	repeat/STIM_014.jpg
2642.096	0.823	0	repeat	Run3	repeat/STIM_014.jpg
2645.537	0.757	1	repeat	Run3	repeat/STIM_014.jpg
2649.546	0.976	1	repeat	Run3	repeat/STIM_014.jpg
2652.691	1.031	1	repeat	Run3	repeat/STIM_014.jpg
2657.268	1.889	1	generate	Run4	generate/STIM_000.jpg
2661.764	1.069	0	generate	Run4	generate/STIM_000.jpg
2665.867	1.83	1	generate	Run4	generate/STIM_000.jpg
2670.737	1.452	1	generate	Run4	generate/STIM_000.jpg
2675.92	1.411	1	generate	Run4	generate/STIM_000.jpg
2680.487	1.213	1	generate	Run4	generate/STIM_001.jpg
2685.296	2.098	1	generate	Run4	generate/STIM_001.jpg
2689.427	1.257	1	generate	Run4	generate/STIM_001.jpg
2693.773	0.911	1	generate	Run4	generate/STIM_001.jpg
2698.031	1.934	1	generate	Run4	generate/STIM_001.jpg
2703.837	1.995	1	generate	Run4	generate/STIM_002.jpg
2707.952	2.032	1	generate	Run4	generate/STIM_002.jpg
2712.869	2.038	1	generate	Run4	generate/STIM_002.jpg
2717.888	1.185	0	generate	Run4	generate/STIM_002.jpg
2721.975	1.176	0	generate	Run4	generate/STIM_002.jpg
2726.658	1.223	1	generate	Run4	generate/STIM_003.jpg
2731.857	1.463	1	generate	Run4	generate/STIM_003.jpg
2737.01	1.219	1	generate	Run4	generate/STIM_003.jpg
2741.197	0.939	1	generate	Run4	generate/STIM_003.jpg
2744.299	1.591	1	generate	Run4	generate/STIM_003.jpg
2748.012	1.208	0	generate	Run4	generate/STIM_004.jpg
2751.287	0.961	1	generate	Run4	generate/STIM_004.jpg
2754.596	1.229	1	generate	Run4	generate/STIM_004.jpg
2758.88	1.818	1	generate	Run4	generate/STIM_004.jpg
2764.475	1.176	1	generate	Run4	generate/STIM_004.jpg
2767.993	2.192	1	generate	Run4	generate/STIM_005.jpg
2772.9	1.727	1	generate	Run4	generate/STIM_005.jpg
2777.536	1.571	1	generate	Run4	generate/STIM_005.jpg
2782.089	2.178	0	generate	Run4	generate/STIM_005.jpg
2788.021	1.436	1	generate	Run4	generate/STIM_005.jpg
2792.773	1.271	1	generate	Run4	generate/STIM_006.jpg
2796.32	1.951	1	generate	Run4	generate/STIM_006.jpg
2801.822	1.7	1	generate	Run4	generate/STIM_006.jpg
2807.18	2.047	0	generate	Run4	generate/STIM_006.jpg
2813.156	1.442	1	generate	Run4	generate/STIM_006.jpg
2818.44	1.306	1	generate	Run4	generate/STIM_007.jpg
2821.906	1.568	1	generate	Run4	generate/STIM_007.jpg
2826.221	1.37	1	generate	Run4	generate/STIM_007.jpg
2830.56	1.876	1	generate	Run4	generate/STIM_007.jpg
2835.11	1.187	1	generate	Run4	generate/STIM_007.jpg
2840.058	1.7	1	generate	Run4	generate/STIM_008.jpg
2845.315	2.07	1	generate	Run4	generate/STIM_008.jpg
2850.204	2.167	1	generate	Run4	generate/STIM_008.jpg
2855.327	1.521	1	generate	Run4	generate/STIM_008.jpg
2858.87	0.933	0	generate	Run4	generate/STIM_008.jpg
2862.443	1.961	1	generate	Run4	generate/STIM_009.jpg
2867.564	0.993	1	generate	Run4	generate/STIM_009.jpg
2870.642	1.197	1	generate	Run4	generate/STIM_009.jpg
2873.935	1.595	1	generate	Run4	generate/STIM_009.jpg
2879.484	0.938	1	generate	Run4	generate/STIM_009.jpg
2883.808	1.27	1	generate	Run4	generate/STIM_010.jpg
2887.752	1.278	1	generate	Run4	generate/STIM_010.jpg
2893.023	0.915	0	generate	Run4	generate/STIM_010.jpg
2896.122	2.035	0	generate	Run4	generate/STIM_010.jpg
2901.981	1.026	1	generate	Run4	generate/STIM_010.jpg
2905.995	1.733	0	generate	Run4	generate/STIM_011.jpg
2911.441	1.485	1	generate	Run4	generate/STIM_011.jpg
2915.038	1.584	1	generate	Run4	generate/STIM_011.jpg
2919.509	1.876	1	generate	Run4	generate/STIM_011.jpg
2923.604	1.553	1	generate	Run4	generate/STIM_011.jpg
2927.322	1.396	1	generate	Run4	generate/STIM_012.jpg
2930.982	1.493	1	generate	Run4	generate/STIM_012.jpg
2934.628	1.561	1	generate	Run4	generate/STIM_012.jpg
2938.692	1.24	1	generate	Run4	generate/STIM_012.jpg
2942.78	1.731	0	generate	Run4	generate/STIM_012.jpg
2947.091	1.202	1	generate	Run4	generate/STIM_013.jpg
2950.382	1.031	1	generate	Run4	generate/STIM_013.jpg
2953.697	1.948	1	generate	Run4	generate/STIM_013.jpg
2958.103	1.208	0	generate	Run4	generate/STIM_013.jpg
2962.345	1.08	1	generate	Run4	generate/STIM_013.jpg
2967.102	1.693	1	generate	Run4	generate/STIM_014.jpg
2971.748	0.989	1	generate	Run4	generate/STIM_014.jpg
2976.523	1.843	1	generate	Run4	generate/STIM_014.jpg
2980.575	1.191	1	generate	Run4	generate/STIM_014.jpg
2984.499	1.39	1	generate	Run4	generate/STIM_014.jpg
2988.07	1.501	1	generate	Run4	generate/STIM_015.jpg
2993.012	1.826	1	generate	Run4	generate/STIM_015.jpg
2997.92	2.041	1	generate	Run4	generate/STIM_015.jpg
3002.947	1.157	0	generate	Run4	generate/STIM_015.jpg
3006.577	1.637	0	generate	Run4	generate/STIM_015.jpg
3011.261	1.579	1	generate	Run4	generate/STIM_016.jpg
3014.926	1.32	0	generate	Run4	generate/STIM_016.jpg
3019.793	2.034	0	generate	Run4	generate/STIM_016.jpg
3023.989	2.167	1	generate	Run4	generate/STIM_016.jpg
3028.848	1.207	1	generate	Run4	generate/STIM_016.jpg
3033.282	1.545	1	generate	Run4	generate/STIM_017.jpg
3037.613	1.989	1	generate	Run4	generate/STIM_017.jpg
3042.64	1.565	1	generate	Run4	generate/STIM_017.jpg
3047.692	0.99	1	generate	Run4	generate/STIM_017.jpg
3052.286	1.1	1	generate	Run4	generate/STIM_017.jpg
3056.191	1.232	1	generate	Run4	generate/STIM_018.jpg
3059.655	1.546	1	generate	Run4	generate/STIM_018.jpg
3063.321	1.628	1	generate	Run4	generate/STIM_018.jpg
3068.351	2.191	1	generate	Run4	generate/STIM_018.jpg
3073.546	1.013	1	generate	Run4	generate/STIM_018.jpg
3077.628	1.311	1	generate	Run4	generate/STIM_019.jpg
3082.11	1.214	1	generate	Run4	generate/STIM_019.jpg
3086.366	1.359	1	generate	Run4	generate/STIM_019.jpg
3089.852	1.664	1	generate	Run4	generate/STIM_019.jpg
3093.917	1.858	0	generate	Run4	generate/STIM_019.jpg
3098.055	1.38	1	generate	Run4	generate/STIM_020.jpg
3102.092	1.527	1	generate	Run4	generate/STIM_020.jpg
3106.783	1.975	0	generate	Run4	generate/STIM_020.jpg
3111.18	2.18	0	generate	Run4	generate/STIM_020.jpg
3116.848	1.116	1	generate	Run4	generate/STIM_020.jpg
3120.066	1.57	1	generate	Run4	generate/STIM_021.jpg
3124.084	1.328	1	generate	Run4	generate/STIM_021.jpg
3127.479	1.241	0	generate	Run4	generate/STIM_021.jpg
3131.925	1.766	1	generate	Run4	generate/STIM_021.jpg
3135.933	1.237	1	generate	Run4	generate/STIM_021.jpg
3139.974	1.354	1	generate	Run4	generate/STIM_022.jpg
3143.83	2.0	1	generate	Run4	generate/STIM_022.jpg
3148.165	1.644	1	generate	Run4	generate/STIM_022.jpg
3152.195	2.002	0	generate	Run4	generate/STIM_022.jpg
3157.013	1.648	0	generate	Run4	generate/STIM_022.jpg
3161.647	1.244	0	generate	Run4	generate/STIM_023.jpg
3165.392	1.28	0	generate	Run4	generate/STIM_023.jpg
3169.838	0.905	0	generate	Run4	generate/STIM_023.jpg
3174.74	1.022	1	generate	Run4	generate/STIM_023.jpg
3178.321	0.998	1	generate	Run4	generate/STIM_023.jpg
3182.681	1.356	0	generate	Run4	generate/STIM_024.jpg
3187.657	1.534	1	generate	Run4	generate/STIM_024.jpg
3192.649	2.1	1	generate	Run4	generate/STIM_024.jpg
3197.533	1.568	0	generate	Run4	generate/STIM_024.jpg
3202.481	1.614	1	generate	Run4	generate/STIM_024.jpg
3206.291	0.863	1	repeat	Run4	repeat/STIM_000.jpg
3209.36	0.974	1	repeat	Run4	repeat/STIM_000.jpg
3213.676	0.841	0	repeat	Run4	repeat/STIM_000.jpg
3218.193	0.627	1	repeat	Run4	repeat/STIM_000.jpg
3221.136	0.565	1	repeat	Run4	repeat/STIM_000.jpg
3224.128	0.936	0	repeat	Run4	repeat/STIM_001.jpg
3228.016	0.81	1	repeat	Run4	repeat/STIM_001.jpg
3231.68	0.681	1	repeat	Run4	repeat/STIM_001.jpg
3235.937	0.687	1	repeat	Run4	repeat/STIM_001.jpg
3238.688	0.952	1	repeat	Run4	repeat/STIM_001.jpg
3243.287	0.944	1	repeat	Run4	repeat/STIM_002.jpg
3248.034	0.843	0	repeat	Run4	repeat/STIM_002.jpg
3251.814	0.973	0	repeat	Run4	repeat/STIM_002.jpg
3256.337	0.798	0	repeat	Run4	repeat/STIM_002.jpg
3260.195	0.77	1	repeat	Run4	repeat/STIM_002.jpg
3264.225	0.889	1	repeat	Run4	repeat/STIM_003.jpg
3268.03	0.904	1	repeat	Run4	repeat/STIM_003.jpg
3272.311	0.93	0	repeat	Run4	repeat/STIM_003.jpg
3275.778	0.591	1	repeat	Run4	repeat/STIM_003.jpg
3279.471	0.936	1	repeat	Run4	repeat/STIM_003.jpg
3282.861	0.915	1	repeat	Run4	repeat/STIM_004.jpg
3286.568	0.827	0	repeat	Run4	repeat/STIM_004.jpg
3291.282	0.669	0	repeat	Run4	repeat/STIM_004.jpg
3295.198	0.636	0	repeat	Run4	repeat/STIM_004.jpg
3299.733	0.627	1	repeat	Run4	repeat/STIM_004.jpg
3303.082	0.559	1	repeat	Run4	repeat/STIM_005.jpg
3305.738	0.771	0	repeat	Run4	repeat/STIM_005.jpg
3309.718	0.617	1	repeat	Run4	repeat/STIM_005.jpg
3312.458	0.884	1	repeat	Run4	repeat/STIM_005.jpg
3315.781	0.918	0	repeat	Run4	repeat/STIM_005.jpg
3320.161	0.904	1	repeat	Run4	repeat/STIM_006.jpg
3323.306	0.934	1	repeat	Run4	repeat/STIM_006.jpg
3328.099	0.609	1	repeat	Run4	repeat/STIM_006.jpg
3331.851	0.762	1	repeat	Run4	repeat/STIM_006.jpg
3335.711	1.009	1	repeat	Run4	repeat/STIM_006.jpg
3339.027	0.962	0	repeat	Run4	repeat/STIM_007.jpg
3342.48	0.658	1	repeat	Run4	repeat/STIM_007.jpg
3346.611	0.591	1	repeat	Run4	repeat/STIM_007.jpg
3351.085	0.836	1	repeat	Run4	repeat/STIM_007.jpg
3354.224	0.569	1	repeat	Run4	repeat/STIM_007.jpg
3358.463	0.904	1	repeat	Run4	repeat/STIM_008.jpg
3362.849	0.904	1	repeat	Run4	repeat/STIM_008.jpg
3366.03	0.894	1	repeat	Run4	repeat/STIM_008.jpg
3368.945	0.884	0	repeat	Run4	repeat/STIM_008.jpg
3373.731	0.888	1	repeat	Run4	repeat/STIM_008.jpg
3377.039	0.719	1	repeat	Run4	repeat/STIM_009.jpg
3380.657	0.581	1	repeat	Run4	repeat/STIM_009.jpg
3383.365	0.656	0	repeat	Run4	repeat/STIM_009.jpg
3386.814	0.798	1	repeat	Run4	repeat/STIM_009.jpg
3389.725	0.979	1	repeat	Run4	repeat/STIM_009.jpg
3394.051	0.879	0	repeat	Run4	repeat/STIM_010.jpg
3397.955	0.836	1	repeat	Run4	repeat/STIM_010.jpg
3401.477	0.967	1	repeat	Run4	repeat/STIM_010.jpg
3405.404	0.687	1	repeat	Run4	repeat/STIM_010.jpg
3408.802	0.675	1	repeat	Run4	repeat/STIM_010.jpg
3412.052	0.798	1	repeat	Run4	repeat/STIM_011.jpg
3416.075	0.982	0	repeat	Run4	repeat/STIM_011.jpg
3419.549	0.968	1	repeat	Run4	repeat/STIM_011.jpg
3424.145	0.533	1	repeat	Run4	repeat/STIM_011.jpg
3428.667	0.962	1	repeat	Run4	repeat/STIM_011.jpg
3432.483	0.888	1	repeat	Run4	repeat/STIM_012.jpg
3436.898	0.635	1	repeat	Run4	repeat/STIM_012.jpg
3441.197	0.812	1	repeat	Run4	repeat/STIM_012.jpg
3445.682	0.608	1	repeat	Run4	repeat/STIM_012.jpg
3448.914	0.99	1	repeat	Run4	repeat/STIM_012.jpg
3453.526	0.566	1	repeat	Run4	repeat/STIM_013.jpg
3456.291	0.933	0	repeat	Run4	repeat/STIM_013.jpg
3460.601	0.662	1	repeat	Run4	repeat/STIM_013.jpg
3463.421	0.678	1	repeat	Run4	repeat/STIM_013.jpg
3466.744	0.877	1	repeat	Run4	repeat/STIM_013.jpg
3470.133	0.564	0	repeat	Run4	repeat/STIM_014.jpg
3472.774	0.575	1	repeat	Run4	repeat/STIM_014.jpg
3475.426	1.018	1	repeat	Run4	repeat/STIM_014.jpg
3479.126	0.836	1	repeat	Run4	repeat/STIM_014.jpg
3482.327	0.881	0	repeat	Run4	repeat/STIM_014.jpg
