onset	duration	accuracy	trial_type	learning_stage	stimulus
0.0	3.057	incorrect	generate	Run1	generate/STIM_000.jpg
6.173	2.5	correct	generate	Run1	generate/STIM_000.jpg
12.076	2.112	incorrect	generate	Run1	generate/STIM_000.jpg
16.427	1.077	correct	generate	Run1	generate/STIM_000.jpg
19.693	2.525	incorrect	generate	Run1	generate/STIM_000.jpg
26.091	1.966	correct	generate	Run1	generate/STIM_001.jpg
30.24	2.525	incorrect	generate	Run1	generate/STIM_001.jpg
36.0	1.775	incorrect	generate	Run1	generate/STIM_001.jpg
41.045	1.343	correct	generate	Run1	generate/STIM_001.jpg
44.719	2.307	incorrect	generate	Run1	generate/STIM_001.jpg
50.902	1.82	correct	generate	Run1	generate/STIM_002.jpg
55.999	1.376	correct	generate	Run1	generate/STIM_002.jpg
59.812	1.524	correct	generate	Run1	generate/STIM_002.jpg
64.59	1.941	incorrect	generate	Run1	generate/STIM_002.jpg
70.116	1.46	correct	generate	Run1	generate/STIM_002.jpg
74.405	1.959	correct	generate	Run1	generate/STIM_003.jpg
80.25	2.315	correct	generate	Run1	generate/STIM_003.jpg
85.858	1.934	incorrect	generate	Run1	generate/STIM_003.jpg
91.518	1.109	incorrect	generate	Run1	generate/STIM_003.jpg
95.241	1.8	incorrect	generate	Run1	generate/STIM_003.jpg
99.741	2.567	correct	generate	Run1	generate/STIM_004.jpg
105.938	1.256	correct	generate	Run1	generate/STIM_004.jpg
109.826	2.052	correct	generate	Run1	generate/STIM_004.jpg
115.075	1.41	incorrect	generate	Run1	generate/STIM_004.jpg
119.487	2.052	correct	generate	Run1	generate/STIM_004.jpg
124.319	1.542	incorrect	generate	Run1	generate/STIM_005.jpg
129.732	1.295	correct	generate	Run1	generate/STIM_005.jpg
134.222	2.781	correct	generate	Run1	generate/STIM_005.jpg
140.916	1.109	incorrect	generate	Run1	generate/STIM_005.jpg
144.271	1.981	correct	generate	Run1	generate/STIM_005.jpg
149.003	1.796	incorrect	generate	Run1	generate/STIM_006.jpg
154.555	2.128	correct	generate	Run1	generate/STIM_006.jpg
159.678	2.8	correct	generate	Run1	generate/STIM_006.jpg
164.914	2.219	correct	generate	Run1	generate/STIM_006.jpg
170.216	1.393	incorrect	generate	Run1	generate/STIM_006.jpg
173.619	2.528	incorrect	generate	Run1	generate/STIM_007.jpg
179.253	2.865	incorrect	generate	Run1	generate/STIM_007.jpg
184.879	2.423	correct	generate	Run1	generate/STIM_007.jpg
190.597	1.988	incorrect	generate	Run1	generate/STIM_007.jpg
195.145	2.254	correct	generate	Run1	generate/STIM_007.jpg
199.946	1.272	correct	generate	Run1	generate/STIM_008.jpg
205.106	1.483	incorrect	generate	Run1	generate/STIM_008.jpg
208.941	2.504	incorrect	generate	Run1	generate/STIM_008.jpg
214.914	1.99	correct	generate	Run1	generate/STIM_008.jpg
219.426	1.171	correct	generate	Run1	generate/STIM_008.jpg
223.74	2.734	correct	generate	Run1	generate/STIM_009.jpg
228.882	1.73	incorrect	generate	Run1	generate/STIM_009.jpg
232.926	2.408	correct	generate	Run1	generate/STIM_009.jpg
237.972	2.596	correct	generate	Run1	generate/STIM_009.jpg
243.372	1.926	incorrect	generate	Run1	generate/STIM_009.jpg
249.287	1.707	correct	generate	Run1	generate/STIM_010.jpg
254.918	1.819	incorrect	generate	Run1	generate/STIM_010.jpg
259.476	2.702	correct	generate	Run1	generate/STIM_010.jpg
266.104	1.437	correct	generate	Run1	generate/STIM_010.jpg
269.596	1.673	correct	generate	Run1	generate/STIM_010.jpg
274.8	3.064	incorrect	generate	Run1	generate/STIM_011.jpg
279.885	1.516	correct	generate	Run1	generate/STIM_011.jpg
284.086	2.104	correct	generate	Run1	generate/STIM_011.jpg
290.045	1.611	correct	generate	Run1	generate/STIM_011.jpg
294.272	1.974	correct	generate	Run1	generate/STIM_011.jpg
299.554	2.69	correct	generate	Run1	generate/STIM_012.jpg
305.589	1.902	incorrect	generate	Run1	generate/STIM_012.jpg
310.709	1.41	correct	generate	Run1	generate/STIM_012.jpg
315.631	1.332	correct	generate	Run1	generate/STIM_012.jpg
320.242	2.472	incorrect	generate	Run1	generate/STIM_012.jpg
325.186	3.119	correct	generate	Run1	generate/STIM_013.jpg
331.476	2.786	incorrect	generate	Run1	generate/STIM_013.jpg
336.481	1.803	correct	generate	Run1	generate/STIM_013.jpg
340.311	2.668	correct	generate	Run1	generate/STIM_013.jpg
346.579	1.815	correct	generate	Run1	generate/STIM_013.jpg
352.145	2.695	incorrect	generate	Run1	generate/STIM_014.jpg
357.058	2.298	incorrect	generate	Run1	generate/STIM_014.jpg
362.664	1.328	incorrect	generate	Run1	generate/STIM_014.jpg
367.054	2.452	correct	generate	Run1	generate/STIM_014.jpg
372.109	1.544	correct	generate	Run1	generate/STIM_014.jpg
377.453	1.632	correct	generate	Run1	generate/STIM_015.jpg
382.981	1.915	correct	generate	Run1	generate/STIM_015.jpg
387.199	1.75	correct	generate	Run1	generate/STIM_015.jpg
392.638	1.59	correct	generate	Run1	generate/STIM_015.jpg
397.715	2.218	correct	generate	Run1	generate/STIM_015.jpg
402.482	2.57	correct	generate	Run1	generate/STIM_016.jpg
407.692	2.188	correct	generate	Run1	generate/STIM_016.jpg
412.144	2.349	correct	generate	Run1	generate/STIM_016.jpg
417.638	2.604	correct	generate	Run1	generate/STIM_016.jpg
422.642	2.06	incorrect	generate	Run1	generate/STIM_016.jpg
426.931	2.613	correct	generate	Run1	generate/STIM_017.jpg
432.853	1.247	incorrect	generate	Run1	generate/STIM_017.jpg
436.962	1.191	incorrect	generate	Run1	generate/STIM_017.jpg
441.605	1.198	correct	generate	Run1	generate/STIM_017.jpg
446.465	1.894	correct	generate	Run1	generate/STIM_017.jpg
451.378	1.462	incorrect	generate	Run1	generate/STIM_018.jpg
456.042	2.898	incorrect	generate	Run1	generate/STIM_018.jpg
462.844	2.368	incorrect	generate	Run1	generate/STIM_018.jpg
468.054	2.002	correct	generate	Run1	generate/STIM_018.jpg
473.3	1.816	incorrect	generate	Run1	generate/STIM_018.jpg
477.741	1.656	correct	generate	Run1	generate/STIM_019.jpg
482.786	2.795	incorrect	generate	Run1	generate/STIM_019.jpg
487.916	2.469	incorrect	generate	Run1	generate/STIM_019.jpg
493.535	1.846	incorrect	generate	Run1	generate/STIM_019.jpg
499.257	1.567	correct	generate	Run1	generate/STIM_019.jpg
503.319	1.845	incorrect	generate	Run1	generate/STIM_020.jpg
507.674	2.633	correct	generate	Run1	generate/STIM_020.jpg
513.135	1.746	correct	generate	Run1	generate/STIM_020.jpg
518.202	2.34	correct	generate	Run1	generate/STIM_020.jpg
522.907	1.026	incorrect	generate	Run1	generate/STIM_020.jpg
526.754	1.477	correct	generate	Run1	generate/STIM_021.jpg
530.35	2.839	incorrect	generate	Run1	generate/STIM_021.jpg
536.028	2.676	correct	generate	Run1	generate/STIM_021.jpg
541.243	1.489	correct	generate	Run1	generate/STIM_021.jpg
545.819	2.091	incorrect	generate	Run1	generate/STIM_021.jpg
551.769	2.264	correct	generate	Run1	generate/STIM_022.jpg
557.899	2.112	incorrect	generate	Run1	generate/STIM_022.jpg
562.798	2.523	incorrect	generate	Run1	generate/STIM_022.jpg
568.852	2.438	correct	generate	Run1	generate/STIM_022.jpg
574.293	1.632	incorrect	generate	Run1	generate/STIM_022.jpg
577.96	2.121	incorrect	generate	Run1	generate/STIM_023.jpg
582.176	2.33	incorrect	generate	Run1	generate/STIM_023.jpg
588.2	1.191	incorrect	generate	Run1	generate/STIM_023.jpg
592.611	2.042	correct	generate	Run1	generate/STIM_023.jpg
598.047	2.49	correct	generate	Run1	generate/STIM_023.jpg
603.677	2.26	correct	generate	Run1	generate/STIM_024.jpg
608.635	1.663	incorrect	generate	Run1	generate/STIM_024.jpg
612.777	2.587	correct	generate	Run1	generate/STIM_024.jpg
619.125	2.139	incorrect	generate	Run1	generate/STIM_024.jpg
623.855	1.803	correct	generate	Run1	generate/STIM_024.jpg
628.59	0.628	incorrect	repeat	Run1	repeat/STIM_000.jpg
632.665	0.629	correct	repeat	Run1	repeat/STIM_000.jpg
636.429	0.968	correct	repeat	Run1	repeat/STIM_000.jpg
639.819	0.587	correct	repeat	Run1	repeat/STIM_000.jpg
642.603	0.816	correct	repeat	Run1	repeat/STIM_000.jpg
646.008	0.988	correct	repeat	Run1	repeat/STIM_001.jpg
649.394	0.889	correct	repeat	Run1	repeat/STIM_001.jpg
653.08	0.873	correct	repeat	Run1	repeat/STIM_001.jpg
656.695	0.761	incorrect	repeat	Run1	repeat/STIM_001.jpg
661.115	0.844	correct	repeat	Run1	repeat/STIM_001.jpg
665.115	1.014	correct	repeat	Run1	repeat/STIM_002.jpg
668.932	0.744	correct	repeat	Run1	repeat/STIM_002.jpg
672.424	0.953	incorrect	repeat	Run1	repeat/STIM_002.jpg
676.148	0.645	correct	repeat	Run1	repeat/STIM_002.jpg
680.736	0.72	incorrect	repeat	Run1	repeat/STIM_002.jpg
683.538	0.739	correct	repeat	Run1	repeat/STIM_003.jpg
686.965	0.641	correct	repeat	Run1	repeat/STIM_003.jpg
691.017	0.787	correct	repeat	Run1	repeat/STIM_003.jpg
694.133	0.747	correct	repeat	Run1	repeat/STIM_003.jpg
697.452	0.887	correct	repeat	Run1	repeat/STIM_003.jpg
701.737	0.963	correct	repeat	Run1	repeat/STIM_004.jpg
705.676	0.688	correct	repeat	Run1	repeat/STIM_004.jpg
709.386	1.029	correct	repeat	Run1	repeat/STIM_004.jpg
713.361	0.824	correct	repeat	Run1	repeat/STIM_004.jpg
718.007	0.996	correct	repeat	Run1	repeat/STIM_004.jpg
722.999	0.538	correct	repeat	Run1	repeat/STIM_005.jpg
727.428	0.807	correct	repeat	Run1	repeat/STIM_005.jpg
732.115	1.053	incorrect	repeat	Run1	repeat/STIM_005.jpg
735.511	0.698	incorrect	repeat	Run1	repeat/STIM_005.jpg
738.6	1.001	correct	repeat	Run1	repeat/STIM_005.jpg
743.186	0.728	correct	repeat	Run1	repeat/STIM_006.jpg
745.941	0.798	incorrect	repeat	Run1	repeat/STIM_006.jpg
749.79	0.59	correct	repeat	Run1	repeat/STIM_006.jpg
753.835	0.818	incorrect	repeat	Run1	repeat/STIM_006.jpg
757.379	0.752	correct	repeat	Run1	repeat/STIM_006.jpg
761.672	0.94	correct	repeat	Run1	repeat/STIM_007.jpg
766.405	0.816	incorrect	repeat	Run1	repeat/STIM_007.jpg
770.755	0.755	correct	repeat	Run1	repeat/STIM_007.jpg
774.779	0.922	correct	repeat	Run1	repeat/STIM_007.jpg
779.26	0.707	correct	repeat	Run1	repeat/STIM_007.jpg
783.1	0.8	incorrect	repeat	Run1	repeat/STIM_008.jpg
786.65	0.702	correct	repeat	Run1	repeat/STIM_008.jpg
789.768	0.955	correct	repeat	Run1	repeat/STIM_008.jpg
793.456	1.016	correct	repeat	Run1	repeat/STIM_008.jpg
798.317	0.654	correct	repeat	Run1	repeat/STIM_008.jpg
801.884	0.957	correct	repeat	Run1	repeat/STIM_009.jpg
806.165	0.569	correct	repeat	Run1	repeat/STIM_009.jpg
809.003	1.046	correct	repeat	Run1	repeat/STIM_009.jpg
813.968	0.65	correct	repeat	Run1	repeat/STIM_009.jpg
816.661	0.881	correct	repeat	Run1	repeat/STIM_009.jpg
821.178	1.051	correct	repeat	Run1	repeat/STIM_010.jpg
825.53	0.545	correct	repeat	Run1	repeat/STIM_010.jpg
829.226	0.567	correct	repeat	Run1	repeat/STIM_010.jpg
832.761	0.995	correct	repeat	Run1	repeat/STIM_010.jpg
837.397	1.042	correct	repeat	Run1	repeat/STIM_010.jpg
841.789	0.584	correct	repeat	Run1	repeat/STIM_011.jpg
845.196	0.853	correct	repeat	Run1	repeat/STIM_011.jpg
848.458	0.972	incorrect	repeat	Run1	repeat/STIM_011.jpg
852.615	0.714	correct	repeat	Run1	repeat/STIM_011.jpg
857.273	0.562	incorrect	repeat	Run1	repeat/STIM_011.jpg
860.055	0.889	correct	repeat	Run1	repeat/STIM_012.jpg
864.12	0.742	correct	repeat	Run1	repeat/STIM_012.jpg
868.83	0.596	correct	repeat	Run1	repeat/STIM_012.jpg
872.227	0.709	correct	repeat	Run1	repeat/STIM_012.jpg
876.758	0.636	correct	repeat	Run1	repeat/STIM_012.jpg
880.187	1.034	correct	repeat	Run1	repeat/STIM_013.jpg
884.941	0.89	correct	repeat	Run1	repeat/STIM_013.jpg
889.186	0.584	correct	repeat	Run1	repeat/STIM_013.jpg
891.788	0.693	correct	repeat	Run1	repeat/STIM_013.jpg
895.685	0.69	correct	repeat	Run1	repeat/STIM_013.jpg
898.936	0.593	correct	repeat	Run1	repeat/STIM_014.jpg
903.379	0.912	correct	repeat	Run1	repeat/STIM_014.jpg
906.855	0.567	incorrect	repeat	Run1	repeat/STIM_014.jpg
910.199	0.97	correct	repeat	Run1	repeat/STIM_014.jpg
913.209	0.987	correct	repeat	Run1	repeat/STIM_014.jpg
917.792	1.999	correct	generate	Run2	generate/STIM_000.jpg
922.713	2.14	incorrect	generate	Run2	generate/STIM_000.jpg
927.97	1.386	incorrect	generate	Run2	generate/STIM_000.jpg
932.403	1.195	correct	generate	Run2	generate/STIM_000.jpg
937.038	2.188	incorrect	generate	Run2	generate/STIM_000.jpg
943.195	2.008	correct	generate	Run2	generate/STIM_001.jpg
949.19	1.73	correct	generate	Run2	generate/STIM_001.jpg
953.27	1.818	incorrect	generate	Run2	generate/STIM_001.jpg
957.904	1.021	correct	generate	Run2	generate/STIM_001.jpg
961.495	1.819	incorrect	generate	Run2	generate/STIM_001.jpg
965.545	2.505	incorrect	generate	Run2	generate/STIM_002.jpg
970.345	2.526	correct	generate	Run2	generate/STIM_002.jpg
975.556	1.438	incorrect	generate	Run2	generate/STIM_002.jpg
980.165	1.473	correct	generate	Run2	generate/STIM_002.jpg
985.144	1.946	incorrect	generate	Run2	generate/STIM_002.jpg
990.204	1.748	correct	generate	Run2	generate/STIM_003.jpg
995.18	2.33	correct	generate	Run2	generate/STIM_003.jpg
1000.109	2.257	correct	generate	Run2	generate/STIM_003.jpg
1005.067	1.862	correct	generate	Run2	generate/STIM_003.jpg
1010.401	1.57	correct	generate	Run2	generate/STIM_003.jpg
1014.502	2.626	incorrect	generate	Run2	generate/STIM_004.jpg
1019.764	1.596	incorrect	generate	Run2	generate/STIM_004.jpg
1023.534	1.652	correct	generate	Run2	generate/STIM_004.jpg
1027.827	1.036	incorrect	generate	Run2	generate/STIM_004.jpg
1032.685	1.314	incorrect	generate	Run2	generate/STIM_004.jpg
1037.509	2.378	incorrect	generate	Run2	generate/STIM_005.jpg
1042.399	2.17	incorrect	generate	Run2	generate/STIM_005.jpg
1047.351	2.152	incorrect	generate	Run2	generate/STIM_005.jpg
1051.911	1.79	incorrect	generate	Run2	generate/STIM_005.jpg
1056.079	2.004	incorrect	generate	Run2	generate/STIM_005.jpg
1061.654	1.75	correct	generate	Run2	generate/STIM_006.jpg
1066.51	1.694	correct	generate	Run2	generate/STIM_006.jpg
1071.914	1.277	correct	generate	Run2	generate/STIM_006.jpg
1076.236	1.903	correct	generate	Run2	generate/STIM_006.jpg
1080.955	1.906	correct	generate	Run2	generate/STIM_006.jpg
1086.155	1.852	correct	generate	Run2	generate/STIM_007.jpg
1090.518	1.414	correct	generate	Run2	generate/STIM_007.jpg
1094.625	1.018	incorrect	generate	Run2	generate/STIM_007.jpg
1098.019	2.026	correct	generate	Run2	generate/STIM_007.jpg
1103.649	1.43	incorrect	generate	Run2	generate/STIM_007.jpg
1108.291	2.285	incorrect	generate	Run2	generate/STIM_008.jpg
1112.877	1.893	correct	generate	Run2	generate/STIM_008.jpg
1117.469	1.062	correct	generate	Run2	generate/STIM_008.jpg
1121.129	0.887	incorrect	generate	Run2	generate/STIM_008.jpg
1124.225	2.066	incorrect	generate	Run2	generate/STIM_008.jpg
1129.206	2.639	incorrect	generate	Run2	generate/STIM_009.jpg
1135.29	2.461	incorrect	generate	Run2	generate/STIM_009.jpg
1141.225	2.146	correct	generate	Run2	generate/STIM_009.jpg
1145.709	1.806	correct	generate	Run2	generate/STIM_009.jpg
1150.509	2.085	correct	generate	Run2	generate/STIM_009.jpg
1156.215	1.3	correct	generate	Run2	generate/STIM_010.jpg
1160.667	2.055	incorrect	generate	Run2	generate/STIM_010.jpg
1165.95	1.84	incorrect	generate	Run2	generate/STIM_010.jpg
1171.395	1.42	incorrect	generate	Run2	generate/STIM_010.jpg
1176.471	1.12	correct	generate	Run2	generate/STIM_010.jpg
1180.983	1.804	correct	generate	Run2	generate/STIM_011.jpg
1185.486	2.015	incorrect	generate	Run2	generate/STIM_011.jpg
1190.869	1.034	incorrect	generate	Run2	generate/STIM_011.jpg
1194.548	1.72	correct	generate	Run2	generate/STIM_011.jpg
1200.029	2.046	correct	generate	Run2	generate/STIM_011.jpg
1204.835	1.63	correct	generate	Run2	generate/STIM_012.jpg
1209.855	2.362	correct	generate	Run2	generate/STIM_012.jpg
1215.394	1.638	correct	generate	Run2	generate/STIM_012.jpg
1220.758	1.972	correct	generate	Run2	generate/STIM_012.jpg
1225.462	1.872	correct	generate	Run2	generate/STIM_012.jpg
1229.848	1.652	correct	generate	Run2	generate/STIM_013.jpg
1234.182	1.454	correct	generate	Run2	generate/STIM_013.jpg
1239.554	1.132	incorrect	generate	Run2	generate/STIM_013.jpg
1244.067	1.233	incorrect	generate	Run2	generate/STIM_013.jpg
1248.016	2.117	incorrect	generate	Run2	generate/STIM_013.jpg
1252.618	2.209	incorrect	generate	Run2	generate/STIM_014.jpg
1258.417	1.062	correct	generate	Run2	generate/STIM_014.jpg
1261.806	1.273	incorrect	generate	Run2	generate/STIM_014.jpg
1266.467	2.049	correct	generate	Run2	generate/STIM_014.jpg
1271.416	1.875	correct	generate	Run2	generate/STIM_014.jpg
1275.875	1.539	correct	generate	Run2	generate/STIM_015.jpg
1279.875	2.1	correct	generate	Run2	generate/STIM_015.jpg
1285.636	1.806	incorrect	generate	Run2	generate/STIM_015.jpg
1290.302	1.37	correct	generate	Run2	generate/STIM_015.jpg
1294.871	1.759	incorrect	generate	Run2	generate/STIM_015.jpg
1299.457	1.444	correct	generate	Run2	generate/STIM_016.jpg
1304.359	2.462	incorrect	generate	Run2	generate/STIM_016.jpg
1309.348	1.127	correct	generate	Run2	generate/STIM_016.jpg
1312.755	1.844	correct	generate	Run2	generate/STIM_016.jpg
1318.048	1.064	correct	generate	Run2	generate/STIM_016.jpg
1321.432	1.798	correct	generate	Run2	generate/STIM_017.jpg
1325.975	1.965	incorrect	generate	Run2	generate/STIM_017.jpg
1330.791	2.126	incorrect	generate	Run2	generate/STIM_017.jpg
1336.417	1.987	incorrect	generate	Run2	generate/STIM_017.jpg
1342.243	1.883	correct	generate	Run2	generate/STIM_017.jpg
1347.026	1.845	correct	generate	Run2	generate/STIM_018.jpg
1351.495	1.322	correct	generate	Run2	generate/STIM_018.jpg
1355.559	1.158	correct	generate	Run2	generate/STIM_018.jpg
1360.584	1.797	correct	generate	Run2	generate/STIM_018.jpg
1365.846	1.83	correct	generate	Run2	generate/STIM_018.jpg
1371.486	1.666	correct	generate	Run2	generate/STIM_019.jpg
1375.944	1.149	correct	generate	Run2	generate/STIM_019.jpg
1379.438	1.152	correct	generate	Run2	generate/STIM_019.jpg
1384.001	1.711	correct	generate	Run2	generate/STIM_019.jpg
1388.483	1.875	incorrect	generate	Run2	generate/STIM_019.jpg
1393.567	1.654	incorrect	generate	Run2	generate/STIM_020.jpg
1398.719	2.062	correct	generate	Run2	generate/STIM_020.jpg
1403.282	1.81	correct	generate	Run2	generate/STIM_020.jpg
1407.391	2.143	correct	generate	Run2	generate/STIM_020.jpg
1412.147	1.848	correct	generate	Run2	generate/STIM_020.jpg
1417.743	2.552	incorrect	generate	Run2	generate/STIM_021.jpg
1423.393	2.139	correct	generate	Run2	generate/STIM_021.jpg
1429.246	2.306	incorrect	generate	Run2	generate/STIM_021.jpg
1434.695	2.2	correct	generate	Run2	generate/STIM_021.jpg
1440.17	1.713	correct	generate	Run2	generate/STIM_021.jpg
1444.028	1.986	correct	generate	Run2	generate/STIM_022.jpg
1448.367	1.401	correct	generate	Run2	generate/STIM_022.jpg
1453.436	2.155	correct	generate	Run2	generate/STIM_022.jpg
1458.097	2.114	correct	generate	Run2	generate/STIM_022.jpg
1462.218	1.744	incorrect	generate	Run2	generate/STIM_022.jpg
1467.787	2.649	incorrect	generate	Run2	generate/STIM_023.jpg
1474.367	2.109	correct	generate	Run2	generate/STIM_023.jpg
1479.154	2.218	incorrect	generate	Run2	generate/STIM_023.jpg
1484.198	0.907	incorrect	generate	Run2	generate/STIM_023.jpg
1488.378	1.286	correct	generate	Run2	generate/STIM_023.jpg
1492.693	1.576	correct	generate	Run2	generate/STIM_024.jpg
1497.575	1.54	incorrect	generate	Run2	generate/STIM_024.jpg
1502.57	1.674	correct	generate	Run2	generate/STIM_024.jpg
1507.111	1.348	incorrect	generate	Run2	generate/STIM_024.jpg
1510.556	1.418	correct	generate	Run2	generate/STIM_024.jpg
1514.284	0.727	correct	repeat	Run2	repeat/STIM_000.jpg
1518.382	1.015	incorrect	repeat	Run2	repeat/STIM_000.jpg
1522.383	0.65	correct	repeat	Run2	repeat/STIM_000.jpg
1525.142	0.779	correct	repeat	Run2	repeat/STIM_000.jpg
1529.663	0.896	correct	repeat	Run2	repeat/STIM_000.jpg
1533.608	0.661	correct	repeat	Run2	repeat/STIM_001.jpg
1537.73	0.988	correct	repeat	Run2	repeat/STIM_001.jpg
1542.082	0.898	incorrect	repeat	Run2	repeat/STIM_001.jpg
1545.155	0.958	correct	repeat	Run2	repeat/STIM_001.jpg
1549.216	0.883	correct	repeat	Run2	repeat/STIM_001.jpg
1553.229	0.735	incorrect	repeat	Run2	repeat/STIM_002.jpg
1556.281	0.88	correct	repeat	Run2	repeat/STIM_002.jpg
1559.65	0.616	incorrect	repeat	Run2	repeat/STIM_002.jpg
1563.215	0.559	correct	repeat	Run2	repeat/STIM_002.jpg
1565.856	1.042	correct	repeat	Run2	repeat/STIM_002.jpg
1570.47	1.004	correct	repeat	Run2	repeat/STIM_003.jpg
1573.799	0.866	correct	repeat	Run2	repeat/STIM_003.jpg
1576.772	0.777	incorrect	repeat	Run2	repeat/STIM_003.jpg
1581.224	0.574	correct	repeat	Run2	repeat/STIM_003.jpg
1584.389	0.675	correct	repeat	Run2	repeat/STIM_003.jpg
1587.694	0.883	correct	repeat	Run2	repeat/STIM_004.jpg
1591.277	0.997	correct	repeat	Run2	repeat/STIM_004.jpg
1595.772	0.731	correct	repeat	Run2	repeat/STIM_004.jpg
1599.991	0.739	correct	repeat	Run2	repeat/STIM_004.jpg
1604.126	0.872	correct	repeat	Run2	repeat/STIM_004.jpg
1607.61	0.77	incorrect	repeat	Run2	repeat/STIM_005.jpg
1611.06	0.575	correct	repeat	Run2	repeat/STIM_005.jpg
1613.709	0.72	incorrect	repeat	Run2	repeat/STIM_005.jpg
1618.296	0.543	correct	repeat	Run2	repeat/STIM_005.jpg
1622.485	0.724	correct	repeat	Run2	repeat/STIM_005.jpg
1626.567	0.968	correct	repeat	Run2	repeat/STIM_006.jpg
1629.715	0.957	correct	repeat	Run2	repeat/STIM_006.jpg
1634.653	0.785	incorrect	repeat	Run2	repeat/STIM_006.jpg
1638.334	1.01	correct	repeat	Run2	repeat/STIM_006.jpg
1641.606	0.868	correct	repeat	Run2	repeat/STIM_006.jpg
1645.79	0.706	correct	repeat	Run2	repeat/STIM_007.jpg
1650.34	0.625	correct	repeat	Run2	repeat/STIM_007.jpg
1654.788	0.769	correct	repeat	Run2	repeat/STIM_007.jpg
1658.859	0.903	incorrect	repeat	Run2	repeat/STIM_007.jpg
1662.415	0.717	correct	repeat	Run2	repeat/STIM_007.jpg
1666.044	0.593	correct	repeat	Run2	repeat/STIM_008.jpg
1670.367	1.015	correct	repeat	Run2	repeat/STIM_008.jpg
1673.79	1.039	correct	repeat	Run2	repeat/STIM_008.jpg
1678.476	0.654	correct	repeat	Run2	repeat/STIM_008.jpg
1681.628	0.839	correct	repeat	Run2	repeat/STIM_008.jpg
1685.071	0.589	incorrect	repeat	Run2	repeat/STIM_009.jpg
1689.084	0.667	correct	repeat	Run2	repeat/STIM_009.jpg
1693.356	1.051	correct	repeat	Run2	repeat/STIM_009.jpg
1696.671	0.528	incorrect	repeat	Run2	repeat/STIM_009.jpg
1699.819	0.846	correct	repeat	Run2	repeat/STIM_009.jpg
1702.863	1.007	correct	repeat	Run2	repeat/STIM_010.jpg
1705.984	0.684	correct	repeat	Run2	repeat/STIM_010.jpg
1710.155	0.622	correct	repeat	Run2	repeat/STIM_010.jpg
1714.522	0.987	correct	repeat	Run2	repeat/STIM_010.jpg
1718.266	1.012	correct	repeat	Run2	repeat/STIM_010.jpg
1721.759	0.976	correct	repeat	Run2	repeat/STIM_011.jpg
1726.072	0.775	correct	repeat	Run2	repeat/STIM_011.jpg
1729.369	0.569	incorrect	repeat	Run2	repeat/STIM_011.jpg
1732.455	0.608	incorrect	repeat	Run2	repeat/STIM_011.jpg
1735.519	0.681	incorrect	repeat	Run2	repeat/STIM_011.jpg
1740.169	0.53	incorrect	repeat	Run2	repeat/STIM_012.jpg
1742.856	0.894	correct	repeat	Run2	repeat/STIM_012.jpg
1746.112	1.043	correct	repeat	Run2	repeat/STIM_012.jpg
1750.591	0.645	correct	repeat	Run2	repeat/STIM_012.jpg
1754.637	0.808	correct	repeat	Run2	repeat/STIM_012.jpg
1758.733	0.545	correct	repeat	Run2	repeat/STIM_013.jpg
1762.032	1.032	incorrect	repeat	Run2	repeat/STIM_013.jpg
1767.017	0.626	correct	repeat	Run2	repeat/STIM_013.jpg
1771.189	0.768	correct	repeat	Run2	repeat/STIM_013.jpg
1774.105	0.586	incorrect	repeat	Run2	repeat/STIM_013.jpg
1777.111	0.945	correct	repeat	Run2	repeat/STIM_014.jpg
1781.48	0.64	correct	repeat	Run2	repeat/STIM_014.jpg
1784.269	0.79	correct	repeat	Run2	repeat/STIM_014.jpg
1787.987	0.726	correct	repeat	Run2	repeat/STIM_014.jpg
1792.539	0.69	incorrect	repeat	Run2	repeat/STIM_014.jpg
1795.887	1.049	correct	generate	Run3	generate/STIM_000.jpg
1799.679	2.123	correct	generate	Run3	generate/STIM_000.jpg
1804.104	1.158	correct	generate	Run3	generate/STIM_000.jpg
1808.036	1.185	incorrect	generate	Run3	generate/STIM_000.jpg
1812.727	2.171	correct	generate	Run3	generate/STIM_000.jpg
1818.702	1.909	correct	generate	Run3	generate/STIM_001.jpg
1823.771	1.161	correct	generate	Run3	generate/STIM_001.jpg
1828.924	1.878	correct	generate	Run3	generate/STIM_001.jpg
1832.923	1.264	incorrect	generate	Run3	generate/STIM_001.jpg
1838.097	0.985	incorrect	generate	Run3	generate/STIM_001.jpg
1841.119	1.251	correct	generate	Run3	generate/STIM_002.jpg
1846.265	1.276	correct	generate	Run3	generate/STIM_002.jpg
1849.909	1.561	correct	generate	Run3	generate/STIM_002.jpg
1855.415	1.317	incorrect	generate	Run3	generate/STIM_002.jpg
1858.975	1.823	incorrect	generate	Run3	generate/STIM_002.jpg
1862.899	1.62	correct	generate	Run3	generate/STIM_003.jpg
1866.795	1.079	incorrect	generate	Run3	generate/STIM_003.jpg
1871.254	2.121	correct	generate	Run3	generate/STIM_003.jpg
1876.707	1.836	correct	generate	Run3	generate/STIM_003.jpg
1880.635	1.115	incorrect	generate	Run3	generate/STIM_003.jpg
1885.501	1.951	incorrect	generate	Run3	generate/STIM_004.jpg
1890.879	1.831	incorrect	generate	Run3	generate/STIM_004.jpg
1896.43	1.062	correct	generate	Run3	generate/STIM_004.jpg
1900.406	1.398	correct	generate	Run3	generate/STIM_004.jpg
1905.591	1.506	correct	generate	Run3	generate/STIM_004.jpg
1909.59	1.004	correct	generate	Run3	generate/STIM_005.jpg
1913.518	1.12	correct	generate	Run3	generate/STIM_005.jpg
1917.013	2.092	correct	generate	Run3	generate/STIM_005.jpg
1921.156	2.082	correct	generate	Run3	generate/STIM_005.jpg
1925.48	1.8	correct	generate	Run3	generate/STIM_005.jpg
1930.235	1.582	incorrect	generate	Run3	generate/STIM_006.jpg
1934.405	1.99	incorrect	generate	Run3	generate/STIM_006.jpg
1939.743	1.22	correct	generate	Run3	generate/STIM_006.jpg
1944.535	1.304	correct	generate	Run3	generate/STIM_006.jpg
1948.777	1.34	incorrect	generate	Run3	generate/STIM_006.jpg
1952.631	1.882	correct	generate	Run3	generate/STIM_007.jpg
1958.29	1.492	correct	generate	Run3	generate/STIM_007.jpg
1961.825	1.786	correct	generate	Run3	generate/STIM_007.jpg
1966.23	2.16	incorrect	generate	Run3	generate/STIM_007.jpg
1970.825	1.858	correct	generate	Run3	generate/STIM_007.jpg
1976.504	1.861	correct	generate	Run3	generate/STIM_008.jpg
1982.359	0.921	correct	generate	Run3	generate/STIM_008.jpg
1986.544	2.204	correct	generate	Run3	generate/STIM_008.jpg
1992.138	1.237	correct	generate	Run3	generate/STIM_008.jpg
1996.015	1.068	correct	generate	Run3	generate/STIM_008.jpg
2000.057	1.489	incorrect	generate	Run3	generate/STIM_009.jpg
2004.001	1.37	correct	generate	Run3	generate/STIM_009.jpg
2007.602	1.985	correct	generate	Run3	generate/STIM_009.jpg
2013.433	1.885	correct	generate	Run3	generate/STIM_009.jpg
2018.034	2.011	correct	generate	Run3	generate/STIM_009.jpg
2022.342	1.64	correct	generate	Run3	generate/STIM_010.jpg
2026.529	1.607	correct	generate	Run3	generate/STIM_010.jpg
2031.27	0.971	incorrect	generate	Run3	generate/STIM_010.jpg
2035.242	1.533	correct	generate	Run3	generate/STIM_010.jpg
2040.304	1.816	correct	generate	Run3	generate/STIM_010.jpg
2045.996	1.796	incorrect	generate	Run3	generate/STIM_011.jpg
2051.008	2.054	correct	generate	Run3	generate/STIM_011.jpg
2057.048	2.064	correct	generate	Run3	generate/STIM_011.jpg
2062.391	2.139	correct	generate	Run3	generate/STIM_011.jpg
2066.82	1.353	correct	generate	Run3	generate/STIM_011.jpg
2070.844	1.574	correct	generate	Run3	generate/STIM_012.jpg
2075.236	2.046	correct	generate	Run3	generate/STIM_012.jpg
2079.679	1.063	incorrect	generate	Run3	generate/STIM_012.jpg
2084.384	1.389	incorrect	generate	Run3	generate/STIM_012.jpg
2088.688	1.015	correct	generate	Run3	generate/STIM_012.jpg
2092.761	2.023	incorrect	generate	Run3	generate/STIM_013.jpg
2097.588	1.212	correct	generate	Run3	generate/STIM_013.jpg
2101.189	1.772	incorrect	generate	Run3	generate/STIM_013.jpg
2106.573	1.368	correct	generate	Run3	generate/STIM_013.jpg
2111.294	2.013	incorrect	generate	Run3	generate/STIM_013.jpg
2115.618	2.071	correct	generate	Run3	generate/STIM_014.jpg
2120.677	1.228	incorrect	generate	Run3	generate/STIM_014.jpg
2125.225	1.087	correct	generate	Run3	generate/STIM_014.jpg
2129.113	1.586	correct	generate	Run3	generate/STIM_014.jpg
2134.49	1.312	correct	generate	Run3	generate/STIM_014.jpg
2138.267	1.681	correct	generate	Run3	generate/STIM_015.jpg
2143.357	1.991	incorrect	generate	Run3	generate/STIM_015.jpg
2147.93	1.079	correct	generate	Run3	generate/STIM_015.jpg
2152.644	1.187	correct	generate	Run3	generate/STIM_015.jpg
2157.532	1.322	correct	generate	Run3	generate/STIM_015.jpg
2161.825	1.886	incorrect	generate	Run3	generate/STIM_016.jpg
2166.844	1.62	correct	generate	Run3	generate/STIM_016.jpg
2172.325	1.309	correct	generate	Run3	generate/STIM_016.jpg
2175.855	1.676	correct	generate	Run3	generate/STIM_016.jpg
2179.965	1.369	incorrect	generate	Run3	generate/STIM_016.jpg
2184.022	1.844	incorrect	generate	Run3	generate/STIM_017.jpg
2189.448	1.042	correct	generate	Run3	generate/STIM_017.jpg
2193.581	1.887	correct	generate	Run3	generate/STIM_017.jpg
2198.573	1.906	correct	generate	Run3	generate/STIM_017.jpg
2204.425	1.075	correct	generate	Run3	generate/STIM_017.jpg
2207.709	1.984	incorrect	generate	Run3	generate/STIM_018.jpg
2213.141	2.063	correct	generate	Run3	generate/STIM_018.jpg
2218.807	0.93	correct	generate	Run3	generate/STIM_018.jpg
2222.783	1.612	correct	generate	Run3	generate/STIM_018.jpg
2227.695	1.975	correct	generate	Run3	generate/STIM_018.jpg
2231.675	1.323	correct	generate	Run3	generate/STIM_019.jpg
2236.377	1.305	correct	generate	Run3	generate/STIM_019.jpg
2239.931	1.805	correct	generate	Run3	generate/STIM_019.jpg
2244.037	1.545	correct	generate	Run3	generate/STIM_019.jpg
2248.226	1.721	correct	generate	Run3	generate/STIM_019.jpg
2251.963	1.512	correct	generate	Run3	generate/STIM_020.jpg
2256.134	1.557	correct	generate	Run3	generate/STIM_020.jpg
2260.363	1.774	correct	generate	Run3	generate/STIM_020.jpg
2265.849	1.237	correct	generate	Run3	generate/STIM_020.jpg
2271.055	1.7	correct	generate	Run3	generate/STIM_020.jpg
2274.905	2.205	incorrect	generate	Run3	generate/STIM_021.jpg
2280.462	1.901	correct	generate	Run3	generate/STIM_021.jpg
2286.307	1.282	correct	generate	Run3	generate/STIM_021.jpg
2289.841	1.822	correct	generate	Run3	generate/STIM_021.jpg
2294.221	1.073	correct	generate	Run3	generate/STIM_021.jpg
2297.767	1.878	incorrect	generate	Run3	generate/STIM_022.jpg
2302.799	1.373	correct	generate	Run3	generate/STIM_022.jpg
2307.886	1.302	incorrect	generate	Run3	generate/STIM_022.jpg
2311.323	2.144	incorrect	generate	Run3	generate/STIM_022.jpg
2315.826	1.254	correct	generate	Run3	generate/STIM_022.jpg
2319.419	1.718	correct	generate	Run3	generate/STIM_023.jpg
2323.767	1.646	correct	generate	Run3	generate/STIM_023.jpg
2328.625	2.026	correct	generate	Run3	generate/STIM_023.jpg
2333.937	1.176	correct	generate	Run3	generate/STIM_023.jpg
2337.686	1.766	correct	generate	Run3	generate/STIM_023.jpg
2342.329	1.763	correct	generate	Run3	generate/STIM_024.jpg
2347.164	1.378	incorrect	generate	Run3	generate/STIM_024.jpg
2352.326	1.615	correct	generate	Run3	generate/STIM_024.jpg
2356.448	2.157	correct	generate	Run3	generate/STIM_024.jpg
2362.302	1.499	correct	generate	Run3	generate/STIM_024.jpg
2367.009	0.742	correct	repeat	Run3	repeat/STIM_000.jpg
2371.54	1.021	incorrect	repeat	Run3	repeat/STIM_000.jpg
2375.952	0.599	correct	repeat	Run3	repeat/STIM_000.jpg
2378.608	0.698	correct	repeat	Run3	repeat/STIM_000.jpg
2382.559	0.685	correct	repeat	Run3	repeat/STIM_000.jpg
2386.359	0.597	correct	repeat	Run3	repeat/STIM_001.jpg
2389.231	1.03	incorrect	repeat	Run3	repeat/STIM_001.jpg
2392.673	0.854	correct	repeat	Run3	repeat/STIM_001.jpg
2395.982	1.034	incorrect	repeat	Run3	repeat/STIM_001.jpg
2400.382	0.85	correct	repeat	Run3	repeat/STIM_001.jpg
2404.78	0.985	correct	repeat	Run3	repeat/STIM_002.jpg
2408.249	0.724	correct	repeat	Run3	repeat/STIM_002.jpg
2412.678	0.565	incorrect	repeat	Run3	repeat/STIM_002.jpg
2416.601	0.692	correct	repeat	Run3	repeat/STIM_002.jpg
2420.333	0.92	correct	repeat	Run3	repeat/STIM_002.jpg
2423.745	0.68	incorrect	repeat	Run3	repeat/STIM_003.jpg
2427.475	0.754	correct	repeat	Run3	repeat/STIM_003.jpg
2431.701	0.815	incorrect	repeat	Run3	repeat/STIM_003.jpg
2435.892	0.555	correct	repeat	Run3	repeat/STIM_003.jpg
2439.858	0.664	correct	repeat	Run3	repeat/STIM_003.jpg
2444.236	0.691	incorrect	repeat	Run3	repeat/STIM_004.jpg
2447.134	0.86	correct	repeat	Run3	repeat/STIM_004.jpg
2450.718	0.896	correct	repeat	Run3	repeat/STIM_004.jpg
2454.506	0.6	correct	repeat	Run3	repeat/STIM_004.jpg
2457.927	0.652	incorrect	repeat	Run3	repeat/STIM_004.jpg
2461.789	0.807	correct	repeat	Run3	repeat/STIM_005.jpg
2465.165	1.054	correct	repeat	Run3	repeat/STIM_005.jpg
2468.857	0.974	correct	repeat	Run3	repeat/STIM_005.jpg
2471.946	0.68	correct	repeat	Run3	repeat/STIM_005.jpg
2475.895	0.69	correct	repeat	Run3	repeat/STIM_005.jpg
2480.11	0.616	correct	repeat	Run3	repeat/STIM_006.jpg
2483.584	1.023	correct	repeat	Run3	repeat/STIM_006.jpg
2486.766	0.911	correct	repeat	Run3	repeat/STIM_006.jpg
2490.552	0.778	correct	repeat	Run3	repeat/STIM_006.jpg
2494.512	0.846	incorrect	repeat	Run3	repeat/STIM_006.jpg
2499.014	0.579	correct	repeat	Run3	repeat/STIM_007.jpg
2503.467	1.033	incorrect	repeat	Run3	repeat/STIM_007.jpg
2507.098	0.822	correct	repeat	Run3	repeat/STIM_007.jpg
2511.207	0.562	correct	repeat	Run3	repeat/STIM_007.jpg
2515.62	0.794	correct	repeat	Run3	repeat/STIM_007.jpg
2519.208	1.054	incorrect	repeat	Run3	repeat/STIM_008.jpg
2523.094	0.612	correct	repeat	Run3	repeat/STIM_008.jpg
2527.49	0.825	correct	repeat	Run3	repeat/STIM_008.jpg
2532.077	0.809	correct	repeat	Run3	repeat/STIM_008.jpg
2536.008	0.862	incorrect	repeat	Run3	repeat/STIM_008.jpg
2539.276	0.75	correct	repeat	Run3	repeat/STIM_009.jpg
2542.07	0.653	correct	repeat	Run3	repeat/STIM_009.jpg
2544.858	0.973	incorrect	repeat	Run3	repeat/STIM_009.jpg
2548.799	0.714	correct	repeat	Run3	repeat/STIM_009.jpg
2552.976	0.662	correct	repeat	Run3	repeat/STIM_009.jpg
2557.048	0.591	correct	repeat	Run3	repeat/STIM_010.jpg
2561.053	1.043	correct	repeat	Run3	repeat/STIM_010.jpg
2565.647	0.76	incorrect	repeat	Run3	repeat/STIM_010.jpg
2570.06	0.593	correct	repeat	Run3	repeat/STIM_010.jpg
2573.997	0.869	correct	repeat	Run3	repeat/STIM_010.jpg
2578.613	0.878	correct	repeat	Run3	repeat/STIM_011.jpg
2583.299	0.62	correct	repeat	Run3	repeat/STIM_011.jpg
2587.674	0.682	correct	repeat	Run3	repeat/STIM_011.jpg
2590.502	0.988	correct	repeat	Run3	repeat/STIM_011.jpg
2595.306	0.848	correct	repeat	Run3	repeat/STIM_011.jpg
2599.422	0.53	correct	repeat	Run3	repeat/STIM_012.jpg
2602.215	0.864	correct	repeat	Run3	repeat/STIM_012.jpg
2606.905	0.895	incorrect	repeat	Run3	repeat/STIM_012.jpg
2611.155	0.866	correct	repeat	Run3	repeat/STIM_012.jpg
2616.0	0.904	incorrect	repeat	Run3	repeat/STIM_012.jpg
2619.743	1.012	correct	repeat	Run3	repeat/STIM_013.jpg
2624.09	0.659	correct	repeat	Run3	repeat/STIM_013.jpg
2627.117	0.675	correct	repeat	Run3	repeat/STIM_013.jpg
2630.181	0.58	correct	repeat	Run3	repeat/STIM_013.jpg
2634.152	0.599	correct	repeat	Run3	repeat/STIM_013.jpg
2637.819	0.752	correct	repeat	Run3	repeat/STIM_014.jpg
2642.096	0.823	incorrect	repeat	Run3	repeat/STIM_014.jpg
2645.537	0.757	correct	repeat	Run3	repeat/STIM_014.jpg
2649.546	0.976	correct	repeat	Run3	repeat/STIM_014.jpg
2652.691	1.031	correct	repeat	Run3	repeat/STIM_014.jpg
2657.268	1.889	correct	generate	Run4	generate/STIM_000.jpg
2661.764	1.069	incorrect	generate	Run4	generate/STIM_000.jpg
2665.867	1.83	correct	generate	Run4	generate/STIM_000.jpg
2670.737	1.452	correct	generate	Run4	generate/STIM_000.jpg
2675.92	1.411	correct	generate	Run4	generate/STIM_000.jpg
2680.487	1.213	correct	generate	Run4	generate/STIM_001.jpg
2685.296	2.098	correct	generate	Run4	generate/STIM_001.jpg
2689.427	1.257	correct	generate	Run4	generate/STIM_001.jpg
2693.773	0.911	correct	generate	Run4	generate/STIM_001.jpg
2698.031	1.934	correct	generate	Run4	generate/STIM_001.jpg
2703.837	1.995	correct	generate	Run4	generate/STIM_002.jpg
2707.952	2.032	correct	generate	Run4	generate/STIM_002.jpg
2712.869	2.038	correct	generate	Run4	generate/STIM_002.jpg
2717.888	1.185	incorrect	generate	Run4	generate/STIM_002.jpg
2721.975	1.176	incorrect	generate	Run4	generate/STIM_002.jpg
2726.658	1.223	correct	generate	Run4	generate/STIM_003.jpg
2731.857	1.463	correct	generate	Run4	generate/STIM_003.jpg
2737.01	1.219	correct	generate	Run4	generate/STIM_003.jpg
2741.197	0.939	correct	generate	Run4	generate/STIM_003.jpg
2744.299	1.591	correct	generate	Run4	generate/STIM_003.jpg
2748.012	1.208	incorrect	generate	Run4	generate/STIM_004.jpg
2751.287	0.961	correct	generate	Run4	generate/STIM_004.jpg
2754.596	1.229	correct	generate	Run4	generate/STIM_004.jpg
2758.88	1.818	correct	generate	Run4	generate/STIM_004.jpg
2764.475	1.176	correct	generate	Run4	generate/STIM_004.jpg
2767.993	2.192	correct	generate	Run4	generate/STIM_005.jpg
2772.9	1.727	correct	generate	Run4	generate/STIM_005.jpg
2777.536	1.571	correct	generate	Run4	generate/STIM_005.jpg
2782.089	2.178	incorrect	generate	Run4	generate/STIM_005.jpg
2788.021	1.436	correct	generate	Run4	generate/STIM_005.jpg
2792.773	1.271	correct	generate	Run4	generate/STIM_006.jpg
2796.32	1.951	correct	generate	Run4	generate/STIM_006.jpg
2801.822	1.7	correct	generate	Run4	generate/STIM_006.jpg
2807.18	2.047	incorrect	generate	Run4	generate/STIM_006.jpg
2813.156	1.442	correct	generate	Run4	generate/STIM_006.jpg
2818.44	1.306	correct	generate	Run4	generate/STIM_007.jpg
2821.906	1.568	correct	generate	Run4	generate/STIM_007.jpg
2826.221	1.37	correct	generate	Run4	generate/STIM_007.jpg
2830.56	1.876	correct	generate	Run4	generate/STIM_007.jpg
2835.11	1.187	correct	generate	Run4	generate/STIM_007.jpg
2840.058	1.7	correct	generate	Run4	generate/STIM_008.jpg
2845.315	2.07	correct	generate	Run4	generate/STIM_008.jpg
2850.204	2.167	correct	generate	Run4	generate/STIM_008.jpg
2855.327	1.521	correct	generate	Run4	generate/STIM_008.jpg
2858.87	0.933	incorrect	generate	Run4	generate/STIM_008.jpg
2862.443	1.961	correct	generate	Run4	generate/STIM_009.jpg
2867.564	0.993	correct	generate	Run4	generate/STIM_009.jpg
2870.642	1.197	correct	generate	Run4	generate/STIM_009.jpg
2873.935	1.595	correct	generate	Run4	generate/STIM_009.jpg
2879.484	0.938	correct	generate	Run4	generate/STIM_009.jpg
2883.808	1.27	correct	generate	Run4	generate/STIM_010.jpg
2887.752	1.278	correct	generate	Run4	generate/STIM_010.jpg
2893.023	0.915	incorrect	generate	Run4	generate/STIM_010.jpg
2896.122	2.035	incorrect	generate	Run4	generate/STIM_010.jpg
2901.981	1.026	correct	generate	Run4	generate/STIM_010.jpg
2905.995	1.733	incorrect	generate	Run4	generate/STIM_011.jpg
2911.441	1.485	correct	generate	Run4	generate/STIM_011.jpg
2915.038	1.584	correct	generate	Run4	generate/STIM_011.jpg
2919.509	1.876	correct	generate	Run4	generate/STIM_011.jpg
2923.604	1.553	correct	generate	Run4	generate/STIM_011.jpg
2927.322	1.396	correct	generate	Run4	generate/STIM_012.jpg
2930.982	1.493	correct	generate	Run4	generate/STIM_012.jpg
2934.628	1.561	correct	generate	Run4	generate/STIM_012.jpg
2938.692	1.24	correct	generate	Run4	generate/STIM_012.jpg
2942.78	1.731	incorrect	generate	Run4	generate/STIM_012.jpg
2947.091	1.202	correct	generate	Run4	generate/STIM_013.jpg
2950.382	1.031	correct	generate	Run4	generate/STIM_013.jpg
2953.697	1.948	correct	generate	Run4	generate/STIM_013.jpg
2958.103	1.208	incorrect	generate	Run4	generate/STIM_013.jpg
2962.345	1.08	correct	generate	Run4	generate/STIM_013.jpg
2967.102	1.693	correct	generate	Run4	generate/STIM_014.jpg
2971.748	0.989	correct	generate	Run4	generate/STIM_014.jpg
2976.523	1.843	correct	generate	Run4	generate/STIM_014.jpg
2980.575	1.191	correct	generate	Run4	generate/STIM_014.jpg
2984.499	1.39	correct	generate	Run4	generate/STIM_014.jpg
2988.07	1.501	correct	generate	Run4	generate/STIM_015.jpg
2993.012	1.826	correct	generate	Run4	generate/STIM_015.jpg
2997.92	2.041	correct	generate	Run4	generate/STIM_015.jpg
3002.947	1.157	incorrect	generate	Run4	generate/STIM_015.jpg
3006.577	1.637	incorrect	generate	Run4	generate/STIM_015.jpg
3011.261	1.579	correct	generate	Run4	generate/STIM_016.jpg
3014.926	1.32	incorrect	generate	Run4	generate/STIM_016.jpg
3019.793	2.034	incorrect	generate	Run4	generate/STIM_016.jpg
3023.989	2.167	correct	generate	Run4	generate/STIM_016.jpg
3028.848	1.207	correct	generate	Run4	generate/STIM_016.jpg
3033.282	1.545	correct	generate	Run4	generate/STIM_017.jpg
3037.613	1.989	correct	generate	Run4	generate/STIM_017.jpg
3042.64	1.565	correct	generate	Run4	generate/STIM_017.jpg
3047.692	0.99	correct	generate	Run4	generate/STIM_017.jpg
3052.286	1.1	correct	generate	Run4	generate/STIM_017.jpg
3056.191	1.232	correct	generate	Run4	generate/STIM_018.jpg
3059.655	1.546	correct	generate	Run4	generate/STIM_018.jpg
3063.321	1.628	correct	generate	Run4	generate/STIM_018.jpg
3068.351	2.191	correct	generate	Run4	generate/STIM_018.jpg
3073.546	1.013	correct	generate	Run4	generate/STIM_018.jpg
3077.628	1.311	correct	generate	Run4	generate/STIM_019.jpg
3082.11	1.214	correct	generate	Run4	generate/STIM_019.jpg
3086.366	1.359	correct	generate	Run4	generate/STIM_019.jpg
3089.852	1.664	correct	generate	Run4	generate/STIM_019.jpg
3093.917	1.858	incorrect	generate	Run4	generate/STIM_019.jpg
3098.055	1.38	correct	generate	Run4	generate/STIM_020.jpg
3102.092	1.527	correct	generate	Run4	generate/STIM_020.jpg
3106.783	1.975	incorrect	generate	Run4	generate/STIM_020.jpg
3111.18	2.18	incorrect	generate	Run4	generate/STIM_020.jpg
3116.848	1.116	correct	generate	Run4	generate/STIM_020.jpg
3120.066	1.57	correct	generate	Run4	generate/STIM_021.jpg
3124.084	1.328	correct	generate	Run4	generate/STIM_021.jpg
3127.479	1.241	incorrect	generate	Run4	generate/STIM_021.jpg
3131.925	1.766	correct	generate	Run4	generate/STIM_021.jpg
3135.933	1.237	correct	generate	Run4	generate/STIM_021.jpg
3139.974	1.354	correct	generate	Run4	generate/STIM_022.jpg
3143.83	2.0	correct	generate	Run4	generate/STIM_022.jpg
3148.165	1.644	correct	generate	Run4	generate/STIM_022.jpg
3152.195	2.002	incorrect	generate	Run4	generate/STIM_022.jpg
3157.013	1.648	incorrect	generate	Run4	generate/STIM_022.jpg
3161.647	1.244	incorrect	generate	Run4	generate/STIM_023.jpg
3165.392	1.28	incorrect	generate	Run4	generate/STIM_023.jpg
3169.838	0.905	incorrect	generate	Run4	generate/STIM_023.jpg
3174.74	1.022	correct	generate	Run4	generate/STIM_023.jpg
3178.321	0.998	correct	generate	Run4	generate/STIM_023.jpg
3182.681	1.356	incorrect	generate	Run4	generate/STIM_024.jpg
3187.657	1.534	correct	generate	Run4	generate/STIM_024.jpg
3192.649	2.1	correct	generate	Run4	generate/STIM_024.jpg
3197.533	1.568	incorrect	generate	Run4	generate/STIM_024.jpg
3202.481	1.614	correct	generate	Run4	generate/STIM_024.jpg
3206.291	0.863	correct	repeat	Run4	repeat/STIM_000.jpg
3209.36	0.974	correct	repeat	Run4	repeat/STIM_000.jpg
3213.676	0.841	incorrect	repeat	Run4	repeat/STIM_000.jpg
3218.193	0.627	correct	repeat	Run4	repeat/STIM_000.jpg
3221.136	0.565	correct	repeat	Run4	repeat/STIM_000.jpg
3224.128	0.936	incorrect	repeat	Run4	repeat/STIM_001.jpg
3228.016	0.81	correct	repeat	Run4	repeat/STIM_001.jpg
3231.68	0.681	correct	repeat	Run4	repeat/STIM_001.jpg
3235.937	0.687	correct	repeat	Run4	repeat/STIM_001.jpg
3238.688	0.952	correct	repeat	Run4	repeat/STIM_001.jpg
3243.287	0.944	correct	repeat	Run4	repeat/STIM_002.jpg
3248.034	0.843	incorrect	repeat	Run4	repeat/STIM_002.jpg
3251.814	0.973	incorrect	repeat	Run4	repeat/STIM_002.jpg
3256.337	0.798	incorrect	repeat	Run4	repeat/STIM_002.jpg
3260.195	0.77	correct	repeat	Run4	repeat/STIM_002.jpg
3264.225	0.889	correct	repeat	Run4	repeat/STIM_003.jpg
3268.03	0.904	correct	repeat	Run4	repeat/STIM_003.jpg
3272.311	0.93	incorrect	repeat	Run4	repeat/STIM_003.jpg
3275.778	0.591	correct	repeat	Run4	repeat/STIM_003.jpg
3279.471	0.936	correct	repeat	Run4	repeat/STIM_003.jpg
3282.861	0.915	correct	repeat	Run4	repeat/STIM_004.jpg
3286.568	0.827	incorrect	repeat	Run4	repeat/STIM_004.jpg
3291.282	0.669	incorrect	repeat	Run4	repeat/STIM_004.jpg
3295.198	0.636	incorrect	repeat	Run4	repeat/STIM_004.jpg
3299.733	0.627	correct	repeat	Run4	repeat/STIM_004.jpg
3303.082	0.559	correct	repeat	Run4	repeat/STIM_005.jpg
3305.738	0.771	incorrect	repeat	Run4	repeat/STIM_005.jpg
3309.718	0.617	correct	repeat	Run4	repeat/STIM_005.jpg
3312.458	0.884	correct	repeat	Run4	repeat/STIM_005.jpg
3315.781	0.918	incorrect	repeat	Run4	repeat/STIM_005.jpg
3320.161	0.904	correct	repeat	Run4	repeat/STIM_006.jpg
3323.306	0.934	correct	repeat	Run4	repeat/STIM_006.jpg
3328.099	0.609	correct	repeat	Run4	repeat/STIM_006.jpg
3331.851	0.762	correct	repeat	Run4	repeat/STIM_006.jpg
3335.711	1.009	correct	repeat	Run4	repeat/STIM_006.jpg
3339.027	0.962	incorrect	repeat	Run4	repeat/STIM_007.jpg
3342.48	0.658	correct	repeat	Run4	repeat/STIM_007.jpg
3346.611	0.591	correct	repeat	Run4	repeat/STIM_007.jpg
3351.085	0.836	correct	repeat	Run4	repeat/STIM_007.jpg
3354.224	0.569	correct	repeat	Run4	repeat/STIM_007.jpg
3358.463	0.904	correct	repeat	Run4	repeat/STIM_008.jpg
3362.849	0.904	correct	repeat	Run4	repeat/STIM_008.jpg
3366.03	0.894	correct	repeat	Run4	repeat/STIM_008.jpg
3368.945	0.884	incorrect	repeat	Run4	repeat/STIM_008.jpg
3373.731	0.888	correct	repeat	Run4	repeat/STIM_008.jpg
3377.039	0.719	correct	repeat	Run4	repeat/STIM_009.jpg
3380.657	0.581	correct	repeat	Run4	repeat/STIM_009.jpg
3383.365	0.656	incorrect	repeat	Run4	repeat/STIM_009.jpg
3386.814	0.798	correct	repeat	Run4	repeat/STIM_009.jpg
3389.725	0.979	correct	repeat	Run4	repeat/STIM_009.jpg
3394.051	0.879	incorrect	repeat	Run4	repeat/STIM_010.jpg
3397.955	0.836	correct	repeat	Run4	repeat/STIM_010.jpg
3401.477	0.967	correct	repeat	Run4	repeat/STIM_010.jpg
3405.404	0.687	correct	repeat	Run4	repeat/STIM_010.jpg
3408.802	0.675	correct	repeat	Run4	repeat/STIM_010.jpg
3412.052	0.798	correct	repeat	Run4	repeat/STIM_011.jpg
3416.075	0.982	incorrect	repeat	Run4	repeat/STIM_011.jpg
3419.549	0.968	correct	repeat	Run4	repeat/STIM_011.jpg
3424.145	0.533	correct	repeat	Run4	repeat/STIM_011.jpg
3428.667	0.962	correct	repeat	Run4	repeat/STIM_011.jpg
3432.483	0.888	correct	repeat	Run4	repeat/STIM_012.jpg
3436.898	0.635	correct	repeat	Run4	repeat/STIM_012.jpg
3441.197	0.812	correct	repeat	Run4	repeat/STIM_012.jpg
3445.682	0.608	correct	repeat	Run4	repeat/STIM_012.jpg
3448.914	0.99	correct	repeat	Run4	repeat/STIM_012.jpg
3453.526	0.566	correct	repeat	Run4	repeat/STIM_013.jpg
3456.291	0.933	incorrect	repeat	Run4	repeat/STIM_013.jpg
3460.601	0.662	correct	repeat	Run4	repeat/STIM_013.jpg
3463.421	0.678	correct	repeat	Run4	repeat/STIM_013.jpg
3466.744	0.877	correct	repeat	Run4	repeat/STIM_013.jpg
3470.133	0.564	incorrect	repeat	Run4	repeat/STIM_014.jpg
3472.774	0.575	correct	repeat	Run4	repeat/STIM_014.jpg
3475.426	1.018	correct	repeat	Run4	repeat/STIM_014.jpg
3479.126	0.836	correct	repeat	Run4	repeat/STIM_014.jpg
3482.327	0.881	incorrect	repeat	Run4	repeat/STIM_014.jpg
