onset	duration	accuracy_binary	trial_type	learning_stage	stimulus
0.0	1.206	0	study	Phase1	study/STIM_000.jpg
4.289	1.009	1	study	Phase1	study/STIM_000.jpg
8.256	0.884	0	study	Phase1	study/STIM_000.jpg
11.469	1.686	1	study	Phase1	study/STIM_001.jpg
16.787	1.691	1	study	Phase1	study/STIM_001.jpg
21.754	1.942	1	study	Phase1	study/STIM_001.jpg
26.389	1.633	1	study	Phase1	study/STIM_002.jpg
30.164	1.607	1	study	Phase1	study/STIM_002.jpg
35.267	1.592	1	study	Phase1	study/STIM_002.jpg
39.578	1.885	1	study	Phase1	study/STIM_003.jpg
44.097	0.953	0	study	Phase1	study/STIM_003.jpg
48.429	1.862	1	study	Phase1	study/STIM_003.jpg
54.047	1.63	1	study	Phase1	study/STIM_004.jpg
58.719	0.935	0	study	Phase1	study/STIM_004.jpg
63.177	1.911	1	study	Phase1	study/STIM_004.jpg
68.5	2.048	1	study	Phase1	study/STIM_005.jpg
74.219	1.734	1	study	Phase1	study/STIM_005.jpg
79.368	1.013	1	study	Phase1	study/STIM_005.jpg
83.162	1.116	1	study	Phase1	study/STIM_006.jpg
88.087	1.806	1	study	Phase1	study/STIM_006.jpg
93.752	0.939	1	study	Phase1	study/STIM_006.jpg
97.016	1.361	0	study	Phase1	study/STIM_007.jpg
101.23	1.695	1	study	Phase1	study/STIM_007.jpg
105.992	1.154	0	study	Phase1	study/STIM_007.jpg
109.528	1.037	0	study	Phase1	study/STIM_008.jpg
113.702	1.51	1	study	Phase1	study/STIM_008.jpg
117.759	1.365	1	study	Phase1	study/STIM_008.jpg
121.826	1.485	1	study	Phase1	study/STIM_009.jpg
125.593	1.644	1	study	Phase1	study/STIM_009.jpg
131.102	1.467	1	study	Phase1	study/STIM_009.jpg
136.51	1.626	1	study	Phase1	study/STIM_010.jpg
141.783	1.502	1	study	Phase1	study/STIM_010.jpg
146.307	1.655	1	study	Phase1	study/STIM_010.jpg
151.657	1.522	1	study	Phase1	study/STIM_011.jpg
155.243	1.395	1	study	Phase1	study/STIM_011.jpg
159.864	0.901	1	study	Phase1	study/STIM_011.jpg
164.106	1.79	1	study	Phase1	study/STIM_012.jpg
168.658	1.589	0	study	Phase1	study/STIM_012.jpg
173.957	1.008	1	study	Phase1	study/STIM_012.jpg
178.786	1.323	1	study	Phase1	study/STIM_013.jpg
183.929	1.45	1	study	Phase1	study/STIM_013.jpg
188.137	1.415	1	study	Phase1	study/STIM_013.jpg
193.319	1.536	1	study	Phase1	study/STIM_014.jpg
197.504	1.288	1	study	Phase1	study/STIM_014.jpg
202.376	1.796	1	study	Phase1	study/STIM_014.jpg
207.823	1.297	1	study	Phase1	study/STIM_015.jpg
212.249	0.99	1	study	Phase1	study/STIM_015.jpg
216.195	1.863	1	study	Phase1	study/STIM_015.jpg
221.484	1.177	1	study	Phase1	study/STIM_016.jpg
226.604	1.584	0	study	Phase1	study/STIM_016.jpg
230.353	1.703	1	study	Phase1	study/STIM_016.jpg
234.372	1.926	1	study	Phase1	study/STIM_017.jpg
238.677	1.559	0	study	Phase1	study/STIM_017.jpg
243.487	1.43	1	study	Phase1	study/STIM_017.jpg
246.926	1.43	1	study	Phase1	study/STIM_018.jpg
251.453	2.038	1	study	Phase1	study/STIM_018.jpg
257.41	1.922	1	study	Phase1	study/STIM_018.jpg
262.339	1.578	1	study	Phase1	study/STIM_019.jpg
266.348	1.123	1	study	Phase1	study/STIM_019.jpg
269.965	1.931	1	study	Phase1	study/STIM_019.jpg
274.852	1.961	1	study	Phase1	study/STIM_020.jpg
279.427	1.431	1	study	Phase1	study/STIM_020.jpg
283.404	1.817	1	study	Phase1	study/STIM_020.jpg
287.984	1.432	1	study	Phase1	study/STIM_021.jpg
291.659	1.22	1	study	Phase1	study/STIM_021.jpg
295.158	1.34	1	study	Phase1	study/STIM_021.jpg
299.688	1.852	1	study	Phase1	study/STIM_022.jpg
305.126	1.93	1	study	Phase1	study/STIM_022.jpg
310.985	1.137	1	study	Phase1	study/STIM_022.jpg
315.482	1.675	1	study	Phase1	study/STIM_023.jpg
319.933	1.63	1	study	Phase1	study/STIM_023.jpg
323.6	1.098	1	study	Phase1	study/STIM_023.jpg
326.765	1.112	1	study	Phase1	study/STIM_024.jpg
331.044	2.013	1	study	Phase1	study/STIM_024.jpg
336.459	1.007	1	study	Phase1	study/STIM_024.jpg
340.229	1.189	1	study	Phase1	study/STIM_025.jpg
344.118	1.413	1	study	Phase1	study/STIM_025.jpg
349.49	1.415	1	study	Phase1	study/STIM_025.jpg
352.922	1.064	1	study	Phase1	study/STIM_026.jpg
356.43	1.53	0	study	Phase1	study/STIM_026.jpg
361.728	1.265	1	study	Phase1	study/STIM_026.jpg
365.328	1.303	1	study	Phase1	study/STIM_027.jpg
370.112	1.388	0	study	Phase1	study/STIM_027.jpg
373.744	1.263	1	study	Phase1	study/STIM_027.jpg
377.323	1.609	1	study	Phase1	study/STIM_028.jpg
381.427	1.705	1	study	Phase1	study/STIM_028.jpg
385.482	1.775	1	study	Phase1	study/STIM_028.jpg
391.253	1.889	1	study	Phase1	study/STIM_029.jpg
395.906	1.589	0	study	Phase1	study/STIM_029.jpg
400.634	1.07	1	study	Phase1	study/STIM_029.jpg
405.34	1.041	1	test	Phase1	test/STIM_000.jpg
410.127	1.457	1	test	Phase1	test/STIM_000.jpg
413.66	0.902	1	test	Phase1	test/STIM_000.jpg
417.543	1.12	1	test	Phase1	test/STIM_001.jpg
420.805	1.285	1	test	Phase1	test/STIM_001.jpg
425.587	0.858	1	test	Phase1	test/STIM_001.jpg
430.126	0.887	1	test	Phase1	test/STIM_002.jpg
433.521	1.275	1	test	Phase1	test/STIM_002.jpg
437.411	1.411	0	test	Phase1	test/STIM_002.jpg
442.221	0.914	0	test	Phase1	test/STIM_003.jpg
445.763	1.32	1	test	Phase1	test/STIM_003.jpg
449.411	1.428	1	test	Phase1	test/STIM_003.jpg
453.445	0.87	1	test	Phase1	test/STIM_004.jpg
457.356	1.033	1	test	Phase1	test/STIM_004.jpg
461.17	1.295	0	test	Phase1	test/STIM_004.jpg
465.077	1.525	1	test	Phase1	test/STIM_005.jpg
468.863	1.141	1	test	Phase1	test/STIM_005.jpg
472.726	1.175	1	test	Phase1	test/STIM_005.jpg
477.013	1.272	1	test	Phase1	test/STIM_006.jpg
481.893	1.417	0	test	Phase1	test/STIM_006.jpg
485.493	1.538	1	test	Phase1	test/STIM_006.jpg
489.919	1.455	0	test	Phase1	test/STIM_007.jpg
494.658	0.908	1	test	Phase1	test/STIM_007.jpg
498.624	0.918	1	test	Phase1	test/STIM_007.jpg
503.34	0.886	1	test	Phase1	test/STIM_008.jpg
506.511	1.107	1	test	Phase1	test/STIM_008.jpg
510.111	1.554	1	test	Phase1	test/STIM_008.jpg
514.807	1.454	1	test	Phase1	test/STIM_009.jpg
519.216	1.12	1	test	Phase1	test/STIM_009.jpg
523.034	1.149	1	test	Phase1	test/STIM_009.jpg
527.97	0.892	1	test	Phase1	test/STIM_010.jpg
531.503	1.184	1	test	Phase1	test/STIM_010.jpg
535.614	1.099	0	test	Phase1	test/STIM_010.jpg
539.535	0.839	1	test	Phase1	test/STIM_011.jpg
544.328	1.108	1	test	Phase1	test/STIM_011.jpg
548.242	0.903	1	test	Phase1	test/STIM_011.jpg
551.191	1.193	1	test	Phase1	test/STIM_012.jpg
554.569	1.13	1	test	Phase1	test/STIM_012.jpg
558.01	1.337	1	test	Phase1	test/STIM_012.jpg
563.159	0.958	0	test	Phase1	test/STIM_013.jpg
567.133	1.533	0	test	Phase1	test/STIM_013.jpg
572.531	0.846	1	test	Phase1	test/STIM_013.jpg
575.932	1.298	1	test	Phase1	test/STIM_014.jpg
580.752	0.786	0	test	Phase1	test/STIM_014.jpg
585.346	1.388	1	test	Phase1	test/STIM_014.jpg
590.119	0.768	1	test	Phase1	test/STIM_015.jpg
594.694	0.999	1	test	Phase1	test/STIM_015.jpg
597.856	0.813	1	test	Phase1	test/STIM_015.jpg
601.849	0.917	1	test	Phase1	test/STIM_016.jpg
606.587	1.292	1	test	Phase1	test/STIM_016.jpg
610.861	1.458	0	test	Phase1	test/STIM_016.jpg
615.814	1.01	1	test	Phase1	test/STIM_017.jpg
620.699	1.151	1	test	Phase1	test/STIM_017.jpg
624.723	1.482	0	test	Phase1	test/STIM_017.jpg
628.62	1.307	1	test	Phase1	test/STIM_018.jpg
632.918	1.271	1	test	Phase1	test/STIM_018.jpg
636.702	1.445	1	test	Phase1	test/STIM_018.jpg
640.938	0.733	1	test	Phase1	test/STIM_019.jpg
643.688	1.537	1	test	Phase1	test/STIM_019.jpg
648.797	1.403	0	test	Phase1	test/STIM_019.jpg
652.382	1.25	1	test	Phase1	test/STIM_020.jpg
656.606	1.554	0	test	Phase1	test/STIM_020.jpg
660.955	0.902	1	test	Phase1	test/STIM_020.jpg
665.06	0.92	1	test	Phase1	test/STIM_021.jpg
668.493	1.504	1	test	Phase1	test/STIM_021.jpg
672.239	1.487	1	test	Phase1	test/STIM_021.jpg
676.76	0.769	1	test	Phase1	test/STIM_022.jpg
680.728	1.392	1	test	Phase1	test/STIM_022.jpg
685.096	1.279	1	test	Phase1	test/STIM_022.jpg
689.15	1.286	1	test	Phase1	test/STIM_023.jpg
692.52	0.841	1	test	Phase1	test/STIM_023.jpg
696.019	1.042	1	test	Phase1	test/STIM_023.jpg
701.042	1.335	0	test	Phase1	test/STIM_024.jpg
705.238	1.271	1	test	Phase1	test/STIM_024.jpg
709.445	1.156	1	test	Phase1	test/STIM_024.jpg
713.407	0.862	1	test	Phase1	test/STIM_025.jpg
716.982	1.134	1	test	Phase1	test/STIM_025.jpg
720.564	1.215	1	test	Phase1	test/STIM_025.jpg
724.548	1.264	1	test	Phase1	test/STIM_026.jpg
728.224	1.091	1	test	Phase1	test/STIM_026.jpg
732.436	1.422	0	test	Phase1	test/STIM_026.jpg
737.506	1.506	0	test	Phase1	test/STIM_027.jpg
742.865	1.461	0	test	Phase1	test/STIM_027.jpg
747.719	1.4	1	test	Phase1	test/STIM_027.jpg
751.813	1.453	1	test	Phase1	test/STIM_028.jpg
756.622	1.12	1	test	Phase1	test/STIM_028.jpg
761.396	1.131	1	test	Phase1	test/STIM_028.jpg
766.466	0.844	1	test	Phase1	test/STIM_029.jpg
771.113	1.478	0	test	Phase1	test/STIM_029.jpg
774.893	1.351	1	test	Phase1	test/STIM_029.jpg
778.363	1.14	1	study	Phase2	study/STIM_000.jpg
782.158	1.456	1	study	Phase2	study/STIM_000.jpg
786.78	0.752	1	study	Phase2	study/STIM_000.jpg
789.853	1.5	1	study	Phase2	study/STIM_001.jpg
794.095	1.106	1	study	Phase2	study/STIM_001.jpg
798.438	1.245	1	study	Phase2	study/STIM_001.jpg
803.657	1.673	1	study	Phase2	study/STIM_002.jpg
808.072	1.646	0	study	Phase2	study/STIM_002.jpg
811.845	1.177	1	study	Phase2	study/STIM_002.jpg
815.991	1.51	1	study	Phase2	study/STIM_003.jpg
820.003	1.651	1	study	Phase2	study/STIM_003.jpg
824.057	1.032	1	study	Phase2	study/STIM_003.jpg
827.83	1.041	1	study	Phase2	study/STIM_004.jpg
832.28	0.784	1	study	Phase2	study/STIM_004.jpg
836.865	1.609	1	study	Phase2	study/STIM_004.jpg
841.964	0.986	1	study	Phase2	study/STIM_005.jpg
846.271	1.553	1	study	Phase2	study/STIM_005.jpg
850.593	1.5	1	study	Phase2	study/STIM_005.jpg
854.195	1.231	1	study	Phase2	study/STIM_006.jpg
858.738	0.856	1	study	Phase2	study/STIM_006.jpg
863.406	0.792	1	study	Phase2	study/STIM_006.jpg
867.392	1.188	1	study	Phase2	study/STIM_007.jpg
871.072	1.306	1	study	Phase2	study/STIM_007.jpg
875.673	0.725	1	study	Phase2	study/STIM_007.jpg
878.686	1.282	1	study	Phase2	study/STIM_008.jpg
883.082	0.956	1	study	Phase2	study/STIM_008.jpg
886.872	1.041	1	study	Phase2	study/STIM_008.jpg
891.306	0.918	1	study	Phase2	study/STIM_009.jpg
895.562	1.09	1	study	Phase2	study/STIM_009.jpg
899.024	0.86	1	study	Phase2	study/STIM_009.jpg
903.028	1.495	1	study	Phase2	study/STIM_010.jpg
908.125	0.876	1	study	Phase2	study/STIM_010.jpg
911.679	1.126	1	study	Phase2	study/STIM_010.jpg
915.76	1.12	1	study	Phase2	study/STIM_011.jpg
920.629	1.489	1	study	Phase2	study/STIM_011.jpg
924.708	0.953	1	study	Phase2	study/STIM_011.jpg
928.376	1.308	1	study	Phase2	study/STIM_012.jpg
932.752	0.793	1	study	Phase2	study/STIM_012.jpg
937.181	0.904	1	study	Phase2	study/STIM_012.jpg
941.002	1.805	1	study	Phase2	study/STIM_013.jpg
945.841	0.962	1	study	Phase2	study/STIM_013.jpg
949.995	1.143	0	study	Phase2	study/STIM_013.jpg
954.757	1.162	1	study	Phase2	study/STIM_014.jpg
958.589	1.639	1	study	Phase2	study/STIM_014.jpg
962.355	0.931	1	study	Phase2	study/STIM_014.jpg
966.267	1.352	1	study	Phase2	study/STIM_015.jpg
971.303	1.486	1	study	Phase2	study/STIM_015.jpg
975.49	1.25	0	study	Phase2	study/STIM_015.jpg
979.664	0.912	0	study	Phase2	study/STIM_016.jpg
983.097	1.133	1	study	Phase2	study/STIM_016.jpg
986.697	0.991	1	study	Phase2	study/STIM_016.jpg
991.353	1.017	1	study	Phase2	study/STIM_017.jpg
995.303	1.411	1	study	Phase2	study/STIM_017.jpg
1000.567	1.203	1	study	Phase2	study/STIM_017.jpg
1005.494	1.687	1	study	Phase2	study/STIM_018.jpg
1009.825	1.398	1	study	Phase2	study/STIM_018.jpg
1013.685	1.555	1	study	Phase2	study/STIM_018.jpg
1017.556	0.92	1	study	Phase2	study/STIM_019.jpg
1021.564	1.507	1	study	Phase2	study/STIM_019.jpg
1025.627	0.923	1	study	Phase2	study/STIM_019.jpg
1028.964	1.464	1	study	Phase2	study/STIM_020.jpg
1033.062	0.961	1	study	Phase2	study/STIM_020.jpg
1037.081	1.597	1	study	Phase2	study/STIM_020.jpg
1042.081	1.339	1	study	Phase2	study/STIM_021.jpg
1046.085	1.43	1	study	Phase2	study/STIM_021.jpg
1051.146	0.99	1	study	Phase2	study/STIM_021.jpg
1055.991	1.731	1	study	Phase2	study/STIM_022.jpg
1060.204	1.068	1	study	Phase2	study/STIM_022.jpg
1063.56	1.04	1	study	Phase2	study/STIM_022.jpg
1067.903	0.908	1	study	Phase2	study/STIM_023.jpg
1070.86	1.701	1	study	Phase2	study/STIM_023.jpg
1075.218	1.215	1	study	Phase2	study/STIM_023.jpg
1079.078	1.475	1	study	Phase2	study/STIM_024.jpg
1082.615	0.984	1	study	Phase2	study/STIM_024.jpg
1087.146	1.386	1	study	Phase2	study/STIM_024.jpg
1090.835	1.614	0	study	Phase2	study/STIM_025.jpg
1096.24	0.822	1	study	Phase2	study/STIM_025.jpg
1099.771	1.233	1	study	Phase2	study/STIM_025.jpg
1103.119	1.713	1	study	Phase2	study/STIM_026.jpg
1108.438	1.293	1	study	Phase2	study/STIM_026.jpg
1113.615	0.882	1	study	Phase2	study/STIM_026.jpg
1118.411	1.372	0	study	Phase2	study/STIM_027.jpg
1122.666	1.325	1	study	Phase2	study/STIM_027.jpg
1127.82	1.221	1	study	Phase2	study/STIM_027.jpg
1131.68	1.475	1	study	Phase2	study/STIM_028.jpg
1135.854	0.812	1	study	Phase2	study/STIM_028.jpg
1138.668	1.406	1	study	Phase2	study/STIM_028.jpg
1143.599	1.751	1	study	Phase2	study/STIM_029.jpg
1148.969	1.142	1	study	Phase2	study/STIM_029.jpg
1153.637	1.136	1	study	Phase2	study/STIM_029.jpg
1156.791	0.728	1	test	Phase2	test/STIM_000.jpg
1161.233	1.136	0	test	Phase2	test/STIM_000.jpg
1164.648	0.996	1	test	Phase2	test/STIM_000.jpg
1168.613	0.824	1	test	Phase2	test/STIM_001.jpg
1173.429	1.17	1	test	Phase2	test/STIM_001.jpg
1177.299	0.754	1	test	Phase2	test/STIM_001.jpg
1181.672	0.75	1	test	Phase2	test/STIM_002.jpg
1184.451	1.28	1	test	Phase2	test/STIM_002.jpg
1188.259	0.973	1	test	Phase2	test/STIM_002.jpg
1191.738	0.84	1	test	Phase2	test/STIM_003.jpg
1194.852	0.773	1	test	Phase2	test/STIM_003.jpg
1198.044	1.338	1	test	Phase2	test/STIM_003.jpg
1201.801	0.877	1	test	Phase2	test/STIM_004.jpg
1206.174	1.316	1	test	Phase2	test/STIM_004.jpg
1210.78	1.183	1	test	Phase2	test/STIM_004.jpg
1214.811	1.334	1	test	Phase2	test/STIM_005.jpg
1219.738	1.322	1	test	Phase2	test/STIM_005.jpg
1224.983	1.457	1	test	Phase2	test/STIM_005.jpg
1229.451	1.19	1	test	Phase2	test/STIM_006.jpg
1233.867	1.144	1	test	Phase2	test/STIM_006.jpg
1238.021	0.729	1	test	Phase2	test/STIM_006.jpg
1242.063	1.326	1	test	Phase2	test/STIM_007.jpg
1247.325	1.317	1	test	Phase2	test/STIM_007.jpg
1252.622	1.141	1	test	Phase2	test/STIM_007.jpg
1256.795	0.899	1	test	Phase2	test/STIM_008.jpg
1260.409	1.317	0	test	Phase2	test/STIM_008.jpg
1264.905	1.066	1	test	Phase2	test/STIM_008.jpg
1269.711	1.163	1	test	Phase2	test/STIM_009.jpg
1273.044	1.328	1	test	Phase2	test/STIM_009.jpg
1277.423	0.84	1	test	Phase2	test/STIM_009.jpg
1281.306	1.397	0	test	Phase2	test/STIM_010.jpg
1285.157	1.287	1	test	Phase2	test/STIM_010.jpg
1288.669	1.21	1	test	Phase2	test/STIM_010.jpg
1292.237	1.151	1	test	Phase2	test/STIM_011.jpg
1296.437	1.424	1	test	Phase2	test/STIM_011.jpg
1300.123	0.964	1	test	Phase2	test/STIM_011.jpg
1303.227	0.863	1	test	Phase2	test/STIM_012.jpg
1306.996	1.506	1	test	Phase2	test/STIM_012.jpg
1312.426	1.205	1	test	Phase2	test/STIM_012.jpg
1315.666	1.526	1	test	Phase2	test/STIM_013.jpg
1320.437	0.973	1	test	Phase2	test/STIM_013.jpg
1323.422	1.176	1	test	Phase2	test/STIM_013.jpg
1327.856	0.739	1	test	Phase2	test/STIM_014.jpg
1332.162	1.539	0	test	Phase2	test/STIM_014.jpg
1336.262	0.957	0	test	Phase2	test/STIM_014.jpg
1340.73	0.964	1	test	Phase2	test/STIM_015.jpg
1344.77	1.261	1	test	Phase2	test/STIM_015.jpg
1348.242	1.19	1	test	Phase2	test/STIM_015.jpg
1351.922	1.371	1	test	Phase2	test/STIM_016.jpg
1356.936	0.993	1	test	Phase2	test/STIM_016.jpg
1360.633	1.206	1	test	Phase2	test/STIM_016.jpg
1365.54	1.3	1	test	Phase2	test/STIM_017.jpg
1370.368	0.855	1	test	Phase2	test/STIM_017.jpg
1373.616	1.299	1	test	Phase2	test/STIM_017.jpg
1378.499	0.923	1	test	Phase2	test/STIM_018.jpg
1382.584	1.196	1	test	Phase2	test/STIM_018.jpg
1386.19	0.921	1	test	Phase2	test/STIM_018.jpg
1390.463	1.272	1	test	Phase2	test/STIM_019.jpg
1395.604	1.214	1	test	Phase2	test/STIM_019.jpg
1399.354	1.456	0	test	Phase2	test/STIM_019.jpg
1403.646	0.854	1	test	Phase2	test/STIM_020.jpg
1407.831	1.474	1	test	Phase2	test/STIM_020.jpg
1411.765	1.026	1	test	Phase2	test/STIM_020.jpg
1414.983	0.79	1	test	Phase2	test/STIM_021.jpg
1417.946	1.528	1	test	Phase2	test/STIM_021.jpg
1422.439	0.772	0	test	Phase2	test/STIM_021.jpg
1427.006	1.253	1	test	Phase2	test/STIM_022.jpg
1431.232	1.231	0	test	Phase2	test/STIM_022.jpg
1435.964	1.275	1	test	Phase2	test/STIM_022.jpg
1440.77	1.338	1	test	Phase2	test/STIM_023.jpg
1445.831	1.134	1	test	Phase2	test/STIM_023.jpg
1449.537	0.822	1	test	Phase2	test/STIM_023.jpg
1452.425	1.398	1	test	Phase2	test/STIM_024.jpg
1457.074	0.931	0	test	Phase2	test/STIM_024.jpg
1460.152	1.477	1	test	Phase2	test/STIM_024.jpg
1464.391	1.553	1	test	Phase2	test/STIM_025.jpg
1469.511	1.445	0	test	Phase2	test/STIM_025.jpg
1474.695	0.977	1	test	Phase2	test/STIM_025.jpg
1479.432	1.266	1	test	Phase2	test/STIM_026.jpg
1484.357	1.407	1	test	Phase2	test/STIM_026.jpg
1488.816	1.008	1	test	Phase2	test/STIM_026.jpg
1493.063	1.271	1	test	Phase2	test/STIM_027.jpg
1497.509	1.402	1	test	Phase2	test/STIM_027.jpg
1501.499	1.558	0	test	Phase2	test/STIM_027.jpg
1506.589	1.546	1	test	Phase2	test/STIM_028.jpg
1511.673	1.433	1	test	Phase2	test/STIM_028.jpg
1516.263	0.979	0	test	Phase2	test/STIM_028.jpg
1520.986	0.988	0	test	Phase2	test/STIM_029.jpg
1524.092	0.984	1	test	Phase2	test/STIM_029.jpg
1527.105	1.007	1	test	Phase2	test/STIM_029.jpg
1531.014	0.697	1	study	Phase3	study/STIM_000.jpg
1534.474	1.356	1	study	Phase3	study/STIM_000.jpg
1538.963	1.071	1	study	Phase3	study/STIM_000.jpg
1543.582	1.301	1	study	Phase3	study/STIM_001.jpg
1546.924	1.152	1	study	Phase3	study/STIM_001.jpg
1552.063	0.899	1	study	Phase3	study/STIM_001.jpg
1555.032	1.217	0	study	Phase3	study/STIM_002.jpg
1558.322	0.9	1	study	Phase3	study/STIM_002.jpg
1562.511	0.952	1	study	Phase3	study/STIM_002.jpg
1567.226	1.034	1	study	Phase3	study/STIM_003.jpg
1570.905	0.96	1	study	Phase3	study/STIM_003.jpg
1575.131	1.096	0	study	Phase3	study/STIM_003.jpg
1579.632	0.73	1	study	Phase3	study/STIM_004.jpg
1583.181	0.834	1	study	Phase3	study/STIM_004.jpg
1586.75	1.082	1	study	Phase3	study/STIM_004.jpg
1591.492	0.812	1	study	Phase3	study/STIM_005.jpg
1594.461	0.727	1	study	Phase3	study/STIM_005.jpg
1598.376	0.809	1	study	Phase3	study/STIM_005.jpg
1602.501	1.373	1	study	Phase3	study/STIM_006.jpg
1606.441	1.439	1	study	Phase3	study/STIM_006.jpg
1609.936	0.917	1	study	Phase3	study/STIM_006.jpg
1613.533	1.432	1	study	Phase3	study/STIM_007.jpg
1617.649	1.007	1	study	Phase3	study/STIM_007.jpg
1620.973	0.777	0	study	Phase3	study/STIM_007.jpg
1624.803	0.826	1	study	Phase3	study/STIM_008.jpg
1628.462	1.19	1	study	Phase3	study/STIM_008.jpg
1633.548	0.764	1	study	Phase3	study/STIM_008.jpg
1637.85	1.372	1	study	Phase3	study/STIM_009.jpg
1642.795	1.096	1	study	Phase3	study/STIM_009.jpg
1647.43	1.142	1	study	Phase3	study/STIM_009.jpg
1650.924	0.776	1	study	Phase3	study/STIM_010.jpg
1654.514	0.778	1	study	Phase3	study/STIM_010.jpg
1659.131	1.016	1	study	Phase3	study/STIM_010.jpg
1662.318	1.43	1	study	Phase3	study/STIM_011.jpg
1666.652	1.111	1	study	Phase3	study/STIM_011.jpg
1670.611	0.774	1	study	Phase3	study/STIM_011.jpg
1674.047	0.959	1	study	Phase3	study/STIM_012.jpg
1678.343	1.274	1	study	Phase3	study/STIM_012.jpg
1682.869	1.479	1	study	Phase3	study/STIM_012.jpg
1687.271	1.24	1	study	Phase3	study/STIM_013.jpg
1691.005	0.929	1	study	Phase3	study/STIM_013.jpg
1694.619	0.718	1	study	Phase3	study/STIM_013.jpg
1697.704	0.748	1	study	Phase3	study/STIM_014.jpg
1700.915	0.789	1	study	Phase3	study/STIM_014.jpg
1705.143	1.508	1	study	Phase3	study/STIM_014.jpg
1709.659	0.809	1	study	Phase3	study/STIM_015.jpg
1712.774	1.232	1	study	Phase3	study/STIM_015.jpg
1717.155	0.862	1	study	Phase3	study/STIM_015.jpg
1721.017	1.358	1	study	Phase3	study/STIM_016.jpg
1725.016	0.682	1	study	Phase3	study/STIM_016.jpg
1728.047	1.035	1	study	Phase3	study/STIM_016.jpg
1731.361	1.073	1	study	Phase3	study/STIM_017.jpg
1735.24	0.77	1	study	Phase3	study/STIM_017.jpg
1739.896	0.738	1	study	Phase3	study/STIM_017.jpg
1744.505	1.178	1	study	Phase3	study/STIM_018.jpg
1748.316	1.16	1	study	Phase3	study/STIM_018.jpg
1752.637	0.851	1	study	Phase3	study/STIM_018.jpg
1755.664	1.037	1	study	Phase3	study/STIM_019.jpg
1759.124	1.127	1	study	Phase3	study/STIM_019.jpg
1763.2	1.272	1	study	Phase3	study/STIM_019.jpg
1766.472	1.344	1	study	Phase3	study/STIM_020.jpg
1770.437	1.5	0	study	Phase3	study/STIM_020.jpg
1774.313	1.248	1	study	Phase3	study/STIM_020.jpg
1779.431	1.352	1	study	Phase3	study/STIM_021.jpg
1783.282	0.758	1	study	Phase3	study/STIM_021.jpg
1787.065	0.877	1	study	Phase3	study/STIM_021.jpg
1791.767	0.835	1	study	Phase3	study/STIM_022.jpg
1796.485	0.949	1	study	Phase3	study/STIM_022.jpg
1800.88	1.376	0	study	Phase3	study/STIM_022.jpg
1805.541	1.325	1	study	Phase3	study/STIM_023.jpg
1810.537	1.213	1	study	Phase3	study/STIM_023.jpg
1814.076	1.474	1	study	Phase3	study/STIM_023.jpg
1818.926	0.705	0	study	Phase3	study/STIM_024.jpg
1823.027	1.045	1	study	Phase3	study/STIM_024.jpg
1827.046	0.936	1	study	Phase3	study/STIM_024.jpg
1830.316	0.937	1	study	Phase3	study/STIM_025.jpg
1834.988	1.195	0	study	Phase3	study/STIM_025.jpg
1839.234	1.227	1	study	Phase3	study/STIM_025.jpg
1844.33	0.883	1	study	Phase3	study/STIM_026.jpg
1847.998	0.796	1	study	Phase3	study/STIM_026.jpg
1850.917	0.719	1	study	Phase3	study/STIM_026.jpg
1853.888	0.675	1	study	Phase3	study/STIM_027.jpg
1857.799	1.45	1	study	Phase3	study/STIM_027.jpg
1861.403	1.014	1	study	Phase3	study/STIM_027.jpg
1865.491	0.873	1	study	Phase3	study/STIM_028.jpg
1870.11	1.147	1	study	Phase3	study/STIM_028.jpg
1874.554	1.385	0	study	Phase3	study/STIM_028.jpg
1878.21	1.424	1	study	Phase3	study/STIM_029.jpg
1881.914	0.778	1	study	Phase3	study/STIM_029.jpg
1886.629	1.114	1	study	Phase3	study/STIM_029.jpg
1890.1	0.747	1	test	Phase3	test/STIM_000.jpg
1894.755	1.288	1	test	Phase3	test/STIM_000.jpg
1898.144	1.345	0	test	Phase3	test/STIM_000.jpg
1903.449	1.127	1	test	Phase3	test/STIM_001.jpg
1907.046	1.348	1	test	Phase3	test/STIM_001.jpg
1911.827	1.22	1	test	Phase3	test/STIM_001.jpg
1915.086	1.252	1	test	Phase3	test/STIM_002.jpg
1919.907	1.298	1	test	Phase3	test/STIM_002.jpg
1923.946	0.744	1	test	Phase3	test/STIM_002.jpg
1928.187	0.846	0	test	Phase3	test/STIM_003.jpg
1932.881	0.842	1	test	Phase3	test/STIM_003.jpg
1937.163	0.992	1	test	Phase3	test/STIM_003.jpg
1941.414	1.084	1	test	Phase3	test/STIM_004.jpg
1946.173	1.555	1	test	Phase3	test/STIM_004.jpg
1949.905	0.833	1	test	Phase3	test/STIM_004.jpg
1954.618	0.811	1	test	Phase3	test/STIM_005.jpg
1959.233	1.138	1	test	Phase3	test/STIM_005.jpg
1963.161	0.876	1	test	Phase3	test/STIM_005.jpg
1967.104	1.23	0	test	Phase3	test/STIM_006.jpg
1971.545	1.331	1	test	Phase3	test/STIM_006.jpg
1976.389	1.213	1	test	Phase3	test/STIM_006.jpg
1980.947	1.365	1	test	Phase3	test/STIM_007.jpg
1984.766	1.131	1	test	Phase3	test/STIM_007.jpg
1988.088	1.294	1	test	Phase3	test/STIM_007.jpg
1992.984	1.529	1	test	Phase3	test/STIM_008.jpg
1996.577	1.344	1	test	Phase3	test/STIM_008.jpg
2000.448	1.25	1	test	Phase3	test/STIM_008.jpg
2005.546	0.807	1	test	Phase3	test/STIM_009.jpg
2009.98	1.172	1	test	Phase3	test/STIM_009.jpg
2014.476	1.554	1	test	Phase3	test/STIM_009.jpg
2019.646	0.868	0	test	Phase3	test/STIM_010.jpg
2023.654	1.302	1	test	Phase3	test/STIM_010.jpg
2027.559	1.211	0	test	Phase3	test/STIM_010.jpg
2032.592	0.895	0	test	Phase3	test/STIM_011.jpg
2036.483	0.797	1	test	Phase3	test/STIM_011.jpg
2039.445	1.401	1	test	Phase3	test/STIM_011.jpg
2044.193	1.222	1	test	Phase3	test/STIM_012.jpg
2048.056	1.541	0	test	Phase3	test/STIM_012.jpg
2053.358	0.949	1	test	Phase3	test/STIM_012.jpg
2056.94	0.817	1	test	Phase3	test/STIM_013.jpg
2060.502	0.82	1	test	Phase3	test/STIM_013.jpg
2064.147	0.947	1	test	Phase3	test/STIM_013.jpg
2068.312	0.827	1	test	Phase3	test/STIM_014.jpg
2071.174	1.43	1	test	Phase3	test/STIM_014.jpg
2075.832	1.227	1	test	Phase3	test/STIM_014.jpg
2080.263	1.114	1	test	Phase3	test/STIM_015.jpg
2084.037	1.057	1	test	Phase3	test/STIM_015.jpg
2087.215	1.522	0	test	Phase3	test/STIM_015.jpg
2092.603	0.984	1	test	Phase3	test/STIM_016.jpg
2095.873	1.351	1	test	Phase3	test/STIM_016.jpg
2100.453	1.419	1	test	Phase3	test/STIM_016.jpg
2105.289	0.798	1	test	Phase3	test/STIM_017.jpg
2109.109	1.417	1	test	Phase3	test/STIM_017.jpg
2112.809	1.268	1	test	Phase3	test/STIM_017.jpg
2117.601	1.381	1	test	Phase3	test/STIM_018.jpg
2122.192	1.24	1	test	Phase3	test/STIM_018.jpg
2127.24	1.266	1	test	Phase3	test/STIM_018.jpg
2130.83	1.266	1	test	Phase3	test/STIM_019.jpg
2134.973	1.095	1	test	Phase3	test/STIM_019.jpg
2139.732	0.806	0	test	Phase3	test/STIM_019.jpg
2143.195	1.37	1	test	Phase3	test/STIM_020.jpg
2147.464	1.374	1	test	Phase3	test/STIM_020.jpg
2151.456	1.306	1	test	Phase3	test/STIM_020.jpg
2155.913	1.007	1	test	Phase3	test/STIM_021.jpg
2160.251	1.09	1	test	Phase3	test/STIM_021.jpg
2163.9	1.0	1	test	Phase3	test/STIM_021.jpg
2168.764	0.741	0	test	Phase3	test/STIM_022.jpg
2171.529	1.248	1	test	Phase3	test/STIM_022.jpg
2176.765	0.885	1	test	Phase3	test/STIM_022.jpg
2180.265	0.942	1	test	Phase3	test/STIM_023.jpg
2184.966	0.726	1	test	Phase3	test/STIM_023.jpg
2189.008	1.118	1	test	Phase3	test/STIM_023.jpg
2193.558	1.231	1	test	Phase3	test/STIM_024.jpg
2197.128	1.316	1	test	Phase3	test/STIM_024.jpg
2202.3	1.042	1	test	Phase3	test/STIM_024.jpg
2206.152	1.026	1	test	Phase3	test/STIM_025.jpg
2210.304	1.46	1	test	Phase3	test/STIM_025.jpg
2214.847	1.128	0	test	Phase3	test/STIM_025.jpg
2218.957	0.923	1	test	Phase3	test/STIM_026.jpg
2223.095	0.82	1	test	Phase3	test/STIM_026.jpg
2227.801	1.509	1	test	Phase3	test/STIM_026.jpg
2231.753	1.394	1	test	Phase3	test/STIM_027.jpg
2236.69	1.264	1	test	Phase3	test/STIM_027.jpg
2240.14	1.13	1	test	Phase3	test/STIM_027.jpg
2244.096	1.206	1	test	Phase3	test/STIM_028.jpg
2248.756	1.12	1	test	Phase3	test/STIM_028.jpg
2253.041	1.356	1	test	Phase3	test/STIM_028.jpg
2257.45	1.445	1	test	Phase3	test/STIM_029.jpg
2261.293	1.111	1	test	Phase3	test/STIM_029.jpg
2264.686	0.942	1	test	Phase3	test/STIM_029.jpg
