onset	duration	accuracy	trial_type	learning_stage	stimulus
0.0	2.783	correct	generate	Run1	generate/STIM_000.jpg
6.212	2.347	correct	generate	Run1	generate/STIM_000.jpg
10.986	1.838	incorrect	generate	Run1	generate/STIM_000.jpg
16.371	1.525	correct	generate	Run1	generate/STIM_000.jpg
21.285	1.321	correct	generate	Run1	generate/STIM_000.jpg
25.687	1.941	incorrect	generate	Run1	generate/STIM_001.jpg
30.581	1.321	correct	generate	Run1	generate/STIM_001.jpg
34.068	1.329	correct	generate	Run1	generate/STIM_001.jpg
38.307	1.038	correct	generate	Run1	generate/STIM_001.jpg
41.561	1.559	correct	generate	Run1	generate/STIM_001.jpg
46.212	1.314	incorrect	generate	Run1	generate/STIM_002.jpg
49.535	1.897	correct	generate	Run1	generate/STIM_002.jpg
55.159	1.972	correct	generate	Run1	generate/STIM_002.jpg
59.936	1.876	correct	generate	Run1	generate/STIM_002.jpg
64.841	1.758	correct	generate	Run1	generate/STIM_002.jpg
69.211	1.674	correct	generate	Run1	generate/STIM_003.jpg
72.986	2.806	correct	generate	Run1	generate/STIM_003.jpg
79.247	1.455	correct	generate	Run1	generate/STIM_003.jpg
82.997	2.084	correct	generate	Run1	generate/STIM_003.jpg
87.277	2.083	correct	generate	Run1	generate/STIM_003.jpg
92.939	1.893	correct	generate	Run1	generate/STIM_004.jpg
97.102	1.352	incorrect	generate	Run1	generate/STIM_004.jpg
101.913	2.269	correct	generate	Run1	generate/STIM_004.jpg
107.025	2.177	correct	generate	Run1	generate/STIM_004.jpg
112.428	1.865	correct	generate	Run1	generate/STIM_004.jpg
117.561	2.098	correct	generate	Run1	generate/STIM_005.jpg
121.759	1.941	incorrect	generate	Run1	generate/STIM_005.jpg
127.471	1.98	correct	generate	Run1	generate/STIM_005.jpg
133.18	1.546	correct	generate	Run1	generate/STIM_005.jpg
138.268	1.903	correct	generate	Run1	generate/STIM_005.jpg
143.604	1.733	correct	generate	Run1	generate/STIM_006.jpg
148.123	2.503	incorrect	generate	Run1	generate/STIM_006.jpg
153.311	2.594	correct	generate	Run1	generate/STIM_006.jpg
159.43	2.419	incorrect	generate	Run1	generate/STIM_006.jpg
164.758	1.033	incorrect	generate	Run1	generate/STIM_006.jpg
168.767	1.82	correct	generate	Run1	generate/STIM_007.jpg
173.047	1.63	correct	generate	Run1	generate/STIM_007.jpg
177.122	2.424	correct	generate	Run1	generate/STIM_007.jpg
182.456	1.468	correct	generate	Run1	generate/STIM_007.jpg
186.272	1.068	incorrect	generate	Run1	generate/STIM_007.jpg
189.521	2.982	incorrect	generate	Run1	generate/STIM_008.jpg
195.832	1.99	correct	generate	Run1	generate/STIM_008.jpg
200.25	1.265	correct	generate	Run1	generate/STIM_008.jpg
203.728	1.228	correct	generate	Run1	generate/STIM_008.jpg
208.504	2.233	correct	generate	Run1	generate/STIM_008.jpg
212.84	2.711	correct	generate	Run1	generate/STIM_009.jpg
217.666	1.942	correct	generate	Run1	generate/STIM_009.jpg
221.87	1.718	correct	generate	Run1	generate/STIM_009.jpg
226.824	1.815	correct	generate	Run1	generate/STIM_009.jpg
231.399	1.087	correct	generate	Run1	generate/STIM_009.jpg
235.15	1.859	correct	generate	Run1	generate/STIM_010.jpg
240.605	1.302	correct	generate	Run1	generate/STIM_010.jpg
244.779	1.096	correct	generate	Run1	generate/STIM_010.jpg
248.896	1.238	incorrect	generate	Run1	generate/STIM_010.jpg
252.628	1.403	correct	generate	Run1	generate/STIM_010.jpg
256.326	1.926	correct	generate	Run1	generate/STIM_011.jpg
260.886	2.594	incorrect	generate	Run1	generate/STIM_011.jpg
265.891	1.547	correct	generate	Run1	generate/STIM_011.jpg
269.978	2.214	correct	generate	Run1	generate/STIM_011.jpg
274.616	1.294	correct	generate	Run1	generate/STIM_011.jpg
279.798	1.656	correct	generate	Run1	generate/STIM_012.jpg
284.816	2.296	correct	generate	Run1	generate/STIM_012.jpg
289.265	2.62	correct	generate	Run1	generate/STIM_012.jpg
295.461	1.579	correct	generate	Run1	generate/STIM_012.jpg
299.141	1.521	correct	generate	Run1	generate/STIM_012.jpg
304.423	2.084	correct	generate	Run1	generate/STIM_013.jpg
309.025	1.914	correct	generate	Run1	generate/STIM_013.jpg
313.134	2.675	correct	generate	Run1	generate/STIM_013.jpg
318.586	1.132	incorrect	generate	Run1	generate/STIM_013.jpg
322.185	2.345	correct	generate	Run1	generate/STIM_013.jpg
327.951	1.573	correct	generate	Run1	generate/STIM_014.jpg
331.755	2.029	correct	generate	Run1	generate/STIM_014.jpg
336.513	1.249	incorrect	generate	Run1	generate/STIM_014.jpg
341.017	1.366	correct	generate	Run1	generate/STIM_014.jpg
345.359	2.365	incorrect	generate	Run1	generate/STIM_014.jpg
351.258	2.326	incorrect	generate	Run1	generate/STIM_015.jpg
355.87	2.2	correct	generate	Run1	generate/STIM_015.jpg
361.356	2.084	correct	generate	Run1	generate/STIM_015.jpg
367.126	1.11	correct	generate	Run1	generate/STIM_015.jpg
371.651	2.186	incorrect	generate	Run1	generate/STIM_015.jpg
377.082	1.461	correct	generate	Run1	generate/STIM_016.jpg
381.992	1.539	correct	generate	Run1	generate/STIM_016.jpg
387.278	2.594	correct	generate	Run1	generate/STIM_016.jpg
392.65	1.185	correct	generate	Run1	generate/STIM_016.jpg
396.929	1.468	correct	generate	Run1	generate/STIM_016.jpg
401.165	2.697	incorrect	generate	Run1	generate/STIM_017.jpg
406.553	2.446	correct	generate	Run1	generate/STIM_017.jpg
412.247	1.117	correct	generate	Run1	generate/STIM_017.jpg
416.095	1.948	correct	generate	Run1	generate/STIM_017.jpg
420.768	1.082	correct	generate	Run1	generate/STIM_017.jpg
424.113	2.384	correct	generate	Run1	generate/STIM_018.jpg
429.246	1.166	correct	generate	Run1	generate/STIM_018.jpg
433.418	1.26	correct	generate	Run1	generate/STIM_018.jpg
437.732	2.437	correct	generate	Run1	generate/STIM_018.jpg
443.529	1.413	incorrect	generate	Run1	generate/STIM_018.jpg
448.66	1.498	incorrect	generate	Run1	generate/STIM_019.jpg
454.131	2.65	correct	generate	Run1	generate/STIM_019.jpg
458.988	1.31	correct	generate	Run1	generate/STIM_019.jpg
463.698	1.734	incorrect	generate	Run1	generate/STIM_019.jpg
468.353	2.229	correct	generate	Run1	generate/STIM_019.jpg
472.707	1.815	correct	generate	Run1	generate/STIM_020.jpg
476.635	1.335	correct	generate	Run1	generate/STIM_020.jpg
481.583	1.334	correct	generate	Run1	generate/STIM_020.jpg
485.002	2.274	correct	generate	Run1	generate/STIM_020.jpg
489.905	2.275	correct	generate	Run1	generate/STIM_020.jpg
495.555	2.252	correct	generate	Run1	generate/STIM_021.jpg
500.185	2.768	incorrect	generate	Run1	generate/STIM_021.jpg
505.894	2.515	correct	generate	Run1	generate/STIM_021.jpg
512.002	1.661	correct	generate	Run1	generate/STIM_021.jpg
516.413	1.215	incorrect	generate	Run1	generate/STIM_021.jpg
520.489	2.351	correct	generate	Run1	generate/STIM_022.jpg
525.985	2.847	correct	generate	Run1	generate/STIM_022.jpg
532.522	2.144	correct	generate	Run1	generate/STIM_022.jpg
538.116	1.437	correct	generate	Run1	generate/STIM_022.jpg
541.882	1.32	correct	generate	Run1	generate/STIM_022.jpg
547.101	2.662	incorrect	generate	Run1	generate/STIM_023.jpg
552.759	1.444	incorrect	generate	Run1	generate/STIM_023.jpg
557.644	1.628	incorrect	generate	Run1	generate/STIM_023.jpg
561.687	1.79	incorrect	generate	Run1	generate/STIM_023.jpg
566.815	1.477	correct	generate	Run1	generate/STIM_023.jpg
571.022	1.725	correct	generate	Run1	generate/STIM_024.jpg
576.505	1.798	correct	generate	Run1	generate/STIM_024.jpg
581.066	2.027	incorrect	generate	Run1	generate/STIM_024.jpg
586.795	2.199	correct	generate	Run1	generate/STIM_024.jpg
591.295	1.844	incorrect	generate	Run1	generate/STIM_024.jpg
596.057	0.72	correct	repeat	Run1	repeat/STIM_000.jpg
599.269	0.831	correct	repeat	Run1	repeat/STIM_000.jpg
603.314	0.711	correct	repeat	Run1	repeat/STIM_000.jpg
606.146	0.853	correct	repeat	Run1	repeat/STIM_000.jpg
609.602	0.738	correct	repeat	Run1	repeat/STIM_000.jpg
612.587	0.741	correct	repeat	Run1	repeat/STIM_001.jpg
616.554	0.978	incorrect	repeat	Run1	repeat/STIM_001.jpg
620.145	0.592	correct	repeat	Run1	repeat/STIM_001.jpg
624.303	0.529	correct	repeat	Run1	repeat/STIM_001.jpg
627.692	0.523	correct	repeat	Run1	repeat/STIM_001.jpg
631.035	0.672	correct	repeat	Run1	repeat/STIM_002.jpg
633.862	0.942	correct	repeat	Run1	repeat/STIM_002.jpg
637.715	0.727	correct	repeat	Run1	repeat/STIM_002.jpg
641.322	0.744	correct	repeat	Run1	repeat/STIM_002.jpg
645.437	0.952	correct	repeat	Run1	repeat/STIM_002.jpg
650.183	0.704	correct	repeat	Run1	repeat/STIM_003.jpg
653.936	0.747	correct	repeat	Run1	repeat/STIM_003.jpg
657.405	0.657	correct	repeat	Run1	repeat/STIM_003.jpg
660.877	0.964	correct	repeat	Run1	repeat/STIM_003.jpg
664.054	0.657	correct	repeat	Run1	repeat/STIM_003.jpg
667.92	0.766	correct	repeat	Run1	repeat/STIM_004.jpg
671.388	0.566	correct	repeat	Run1	repeat/STIM_004.jpg
674.931	0.943	correct	repeat	Run1	repeat/STIM_004.jpg
678.347	0.896	correct	repeat	Run1	repeat/STIM_004.jpg
682.665	0.644	correct	repeat	Run1	repeat/STIM_004.jpg
685.742	0.964	correct	repeat	Run1	repeat/STIM_005.jpg
689.199	0.67	correct	repeat	Run1	repeat/STIM_005.jpg
693.127	0.633	correct	repeat	Run1	repeat/STIM_005.jpg
696.53	0.556	correct	repeat	Run1	repeat/STIM_005.jpg
700.371	0.539	correct	repeat	Run1	repeat/STIM_005.jpg
704.725	0.508	correct	repeat	Run1	repeat/STIM_006.jpg
707.442	0.702	correct	repeat	Run1	repeat/STIM_006.jpg
711.546	0.821	correct	repeat	Run1	repeat/STIM_006.jpg
715.683	0.954	correct	repeat	Run1	repeat/STIM_006.jpg
719.199	0.884	correct	repeat	Run1	repeat/STIM_006.jpg
722.637	0.813	correct	repeat	Run1	repeat/STIM_007.jpg
727.413	0.664	correct	repeat	Run1	repeat/STIM_007.jpg
731.472	0.521	correct	repeat	Run1	repeat/STIM_007.jpg
734.9	0.564	correct	repeat	Run1	repeat/STIM_007.jpg
738.16	0.743	correct	repeat	Run1	repeat/STIM_007.jpg
741.175	0.804	correct	repeat	Run1	repeat/STIM_008.jpg
744.57	0.702	correct	repeat	Run1	repeat/STIM_008.jpg
749.059	0.888	correct	repeat	Run1	repeat/STIM_008.jpg
752.384	0.94	correct	repeat	Run1	repeat/STIM_008.jpg
755.976	0.888	correct	repeat	Run1	repeat/STIM_008.jpg
760.674	0.501	correct	repeat	Run1	repeat/STIM_009.jpg
765.087	0.66	incorrect	repeat	Run1	repeat/STIM_009.jpg
768.151	0.97	correct	repeat	Run1	repeat/STIM_009.jpg
771.951	0.74	correct	repeat	Run1	repeat/STIM_009.jpg
775.743	0.788	correct	repeat	Run1	repeat/STIM_009.jpg
778.782	0.629	correct	repeat	Run1	repeat/STIM_010.jpg
783.262	0.793	correct	repeat	Run1	repeat/STIM_010.jpg
787.122	0.947	correct	repeat	Run1	repeat/STIM_010.jpg
790.454	0.585	correct	repeat	Run1	repeat/STIM_010.jpg
793.931	0.815	correct	repeat	Run1	repeat/STIM_010.jpg
797.98	0.913	correct	repeat	Run1	repeat/STIM_011.jpg
802.485	0.635	incorrect	repeat	Run1	repeat/STIM_011.jpg
805.731	0.895	correct	repeat	Run1	repeat/STIM_011.jpg
810.428	0.594	correct	repeat	Run1	repeat/STIM_011.jpg
814.598	0.544	correct	repeat	Run1	repeat/STIM_011.jpg
818.867	0.926	correct	repeat	Run1	repeat/STIM_012.jpg
822.005	0.58	correct	repeat	Run1	repeat/STIM_012.jpg
825.792	0.6	incorrect	repeat	Run1	repeat/STIM_012.jpg
829.449	0.962	correct	repeat	Run1	repeat/STIM_012.jpg
832.976	0.572	correct	repeat	Run1	repeat/STIM_012.jpg
836.676	0.53	correct	repeat	Run1	repeat/STIM_013.jpg
840.527	0.855	correct	repeat	Run1	repeat/STIM_013.jpg
844.643	0.619	correct	repeat	Run1	repeat/STIM_013.jpg
849.145	0.986	correct	repeat	Run1	repeat/STIM_013.jpg
852.47	0.639	correct	repeat	Run1	repeat/STIM_013.jpg
855.587	0.577	correct	repeat	Run1	repeat/STIM_014.jpg
858.639	0.783	correct	repeat	Run1	repeat/STIM_014.jpg
862.457	0.818	correct	repeat	Run1	repeat/STIM_014.jpg
865.885	0.829	correct	repeat	Run1	repeat/STIM_014.jpg
870.264	0.857	correct	repeat	Run1	repeat/STIM_014.jpg
874.458	1.07	correct	generate	Run2	generate/STIM_000.jpg
877.778	1.705	correct	generate	Run2	generate/STIM_000.jpg
883.09	1.94	correct	generate	Run2	generate/STIM_000.jpg
887.382	1.861	correct	generate	Run2	generate/STIM_000.jpg
891.808	1.347	correct	generate	Run2	generate/STIM_000.jpg
895.929	1.092	correct	generate	Run2	generate/STIM_001.jpg
900.169	2.358	correct	generate	Run2	generate/STIM_001.jpg
905.596	1.942	correct	generate	Run2	generate/STIM_001.jpg
911.395	1.054	correct	generate	Run2	generate/STIM_001.jpg
914.455	1.214	correct	generate	Run2	generate/STIM_001.jpg
918.081	1.222	incorrect	generate	Run2	generate/STIM_002.jpg
922.836	1.327	incorrect	generate	Run2	generate/STIM_002.jpg
927.393	2.112	correct	generate	Run2	generate/STIM_002.jpg
932.222	1.896	correct	generate	Run2	generate/STIM_002.jpg
937.708	1.285	correct	generate	Run2	generate/STIM_002.jpg
941.829	2.554	incorrect	generate	Run2	generate/STIM_003.jpg
947.691	2.231	incorrect	generate	Run2	generate/STIM_003.jpg
953.489	1.048	correct	generate	Run2	generate/STIM_003.jpg
958.457	1.674	incorrect	generate	Run2	generate/STIM_003.jpg
962.452	1.453	correct	generate	Run2	generate/STIM_003.jpg
967.53	2.176	correct	generate	Run2	generate/STIM_004.jpg
973.471	1.539	incorrect	generate	Run2	generate/STIM_004.jpg
978.167	1.511	correct	generate	Run2	generate/STIM_004.jpg
981.833	1.705	correct	generate	Run2	generate/STIM_004.jpg
987.465	1.637	correct	generate	Run2	generate/STIM_004.jpg
991.835	1.253	correct	generate	Run2	generate/STIM_005.jpg
995.531	1.978	incorrect	generate	Run2	generate/STIM_005.jpg
999.883	2.242	correct	generate	Run2	generate/STIM_005.jpg
1005.125	0.994	correct	generate	Run2	generate/STIM_005.jpg
1009.101	1.796	correct	generate	Run2	generate/STIM_005.jpg
1014.481	2.426	correct	generate	Run2	generate/STIM_006.jpg
1020.193	1.272	correct	generate	Run2	generate/STIM_006.jpg
1024.694	1.47	correct	generate	Run2	generate/STIM_006.jpg
1028.865	2.068	correct	generate	Run2	generate/STIM_006.jpg
1034.78	1.029	correct	generate	Run2	generate/STIM_006.jpg
1039.13	1.253	incorrect	generate	Run2	generate/STIM_007.jpg
1044.184	1.392	correct	generate	Run2	generate/STIM_007.jpg
1047.933	1.668	correct	generate	Run2	generate/STIM_007.jpg
1052.946	1.174	correct	generate	Run2	generate/STIM_007.jpg
1056.996	1.76	correct	generate	Run2	generate/STIM_007.jpg
1060.761	2.241	incorrect	generate	Run2	generate/STIM_008.jpg
1065.792	1.663	correct	generate	Run2	generate/STIM_008.jpg
1070.532	1.737	correct	generate	Run2	generate/STIM_008.jpg
1075.779	2.047	correct	generate	Run2	generate/STIM_008.jpg
1081.163	1.474	correct	generate	Run2	generate/STIM_008.jpg
1084.936	2.072	correct	generate	Run2	generate/STIM_009.jpg
1090.136	1.611	correct	generate	Run2	generate/STIM_009.jpg
1094.375	1.078	incorrect	generate	Run2	generate/STIM_009.jpg
1098.108	1.658	correct	generate	Run2	generate/STIM_009.jpg
1102.395	1.13	correct	generate	Run2	generate/STIM_009.jpg
1107.434	2.24	correct	generate	Run2	generate/STIM_010.jpg
1112.454	1.284	incorrect	generate	Run2	generate/STIM_010.jpg
1116.205	0.954	incorrect	generate	Run2	generate/STIM_010.jpg
1119.55	1.082	correct	generate	Run2	generate/STIM_010.jpg
1122.804	1.962	correct	generate	Run2	generate/STIM_010.jpg
1126.911	2.315	correct	generate	Run2	generate/STIM_011.jpg
1132.279	1.571	correct	generate	Run2	generate/STIM_011.jpg
1135.95	1.141	correct	generate	Run2	generate/STIM_011.jpg
1139.254	0.904	correct	generate	Run2	generate/STIM_011.jpg
1142.303	1.463	correct	generate	Run2	generate/STIM_011.jpg
1147.584	1.378	correct	generate	Run2	generate/STIM_012.jpg
1151.805	1.952	correct	generate	Run2	generate/STIM_012.jpg
1156.606	1.258	correct	generate	Run2	generate/STIM_012.jpg
1160.647	1.602	correct	generate	Run2	generate/STIM_012.jpg
1165.422	1.017	incorrect	generate	Run2	generate/STIM_012.jpg
1170.13	2.441	incorrect	generate	Run2	generate/STIM_013.jpg
1175.775	1.449	correct	generate	Run2	generate/STIM_013.jpg
1180.44	1.832	correct	generate	Run2	generate/STIM_013.jpg
1184.999	1.594	correct	generate	Run2	generate/STIM_013.jpg
1189.684	1.474	correct	generate	Run2	generate/STIM_013.jpg
1194.002	1.97	correct	generate	Run2	generate/STIM_014.jpg
1198.138	2.118	correct	generate	Run2	generate/STIM_014.jpg
1202.829	0.93	correct	generate	Run2	generate/STIM_014.jpg
1205.79	1.696	correct	generate	Run2	generate/STIM_014.jpg
1210.685	1.969	correct	generate	Run2	generate/STIM_014.jpg
1214.664	1.788	correct	generate	Run2	generate/STIM_015.jpg
1219.565	2.308	correct	generate	Run2	generate/STIM_015.jpg
1224.965	1.31	correct	generate	Run2	generate/STIM_015.jpg
1228.658	1.037	correct	generate	Run2	generate/STIM_015.jpg
1232.364	1.289	correct	generate	Run2	generate/STIM_015.jpg
1236.077	1.556	correct	generate	Run2	generate/STIM_016.jpg
1239.713	2.094	incorrect	generate	Run2	generate/STIM_016.jpg
1243.988	1.154	correct	generate	Run2	generate/STIM_016.jpg
1247.343	0.866	correct	generate	Run2	generate/STIM_016.jpg
1251.002	1.222	correct	generate	Run2	generate/STIM_016.jpg
1255.754	2.322	correct	generate	Run2	generate/STIM_017.jpg
1260.913	2.346	correct	generate	Run2	generate/STIM_017.jpg
1266.448	1.539	correct	generate	Run2	generate/STIM_017.jpg
1270.256	0.952	incorrect	generate	Run2	generate/STIM_017.jpg
1274.015	1.408	correct	generate	Run2	generate/STIM_017.jpg
1278.758	1.706	incorrect	generate	Run2	generate/STIM_018.jpg
1282.792	1.601	correct	generate	Run2	generate/STIM_018.jpg
1286.621	1.923	correct	generate	Run2	generate/STIM_018.jpg
1291.131	1.027	correct	generate	Run2	generate/STIM_018.jpg
1295.626	1.259	incorrect	generate	Run2	generate/STIM_018.jpg
1300.463	2.033	correct	generate	Run2	generate/STIM_019.jpg
1304.784	1.397	correct	generate	Run2	generate/STIM_019.jpg
1308.894	1.493	correct	generate	Run2	generate/STIM_019.jpg
1312.678	1.018	correct	generate	Run2	generate/STIM_019.jpg
1316.151	1.182	correct	generate	Run2	generate/STIM_019.jpg
1320.592	2.391	correct	generate	Run2	generate/STIM_020.jpg
1325.773	1.447	incorrect	generate	Run2	generate/STIM_020.jpg
1331.085	1.228	correct	generate	Run2	generate/STIM_020.jpg
1335.323	1.023	correct	generate	Run2	generate/STIM_020.jpg
1339.192	1.288	correct	generate	Run2	generate/STIM_020.jpg
1344.408	1.796	incorrect	generate	Run2	generate/STIM_021.jpg
1348.589	1.416	correct	generate	Run2	generate/STIM_021.jpg
1353.238	1.418	correct	generate	Run2	generate/STIM_021.jpg
1357.978	0.966	correct	generate	Run2	generate/STIM_021.jpg
1362.333	1.338	correct	generate	Run2	generate/STIM_021.jpg
1366.797	1.95	correct	generate	Run2	generate/STIM_022.jpg
1372.543	1.741	correct	generate	Run2	generate/STIM_022.jpg
1377.842	1.915	correct	generate	Run2	generate/STIM_022.jpg
1383.074	0.874	correct	generate	Run2	generate/STIM_022.jpg
1386.433	1.831	correct	generate	Run2	generate/STIM_022.jpg
1392.134	1.981	incorrect	generate	Run2	generate/STIM_023.jpg
1396.249	1.317	incorrect	generate	Run2	generate/STIM_023.jpg
1400.228	1.74	correct	generate	Run2	generate/STIM_023.jpg
1405.365	1.46	correct	generate	Run2	generate/STIM_023.jpg
1410.22	1.52	correct	generate	Run2	generate/STIM_023.jpg
1414.621	2.31	correct	generate	Run2	generate/STIM_024.jpg
1420.533	1.997	correct	generate	Run2	generate/STIM_024.jpg
1425.106	2.207	correct	generate	Run2	generate/STIM_024.jpg
1429.371	2.058	correct	generate	Run2	generate/STIM_024.jpg
1433.56	1.416	correct	generate	Run2	generate/STIM_024.jpg
1437.618	0.993	correct	repeat	Run2	repeat/STIM_000.jpg
1440.955	0.669	correct	repeat	Run2	repeat/STIM_000.jpg
1445.082	0.954	correct	repeat	Run2	repeat/STIM_000.jpg
1449.955	0.896	correct	repeat	Run2	repeat/STIM_000.jpg
1453.57	0.901	correct	repeat	Run2	repeat/STIM_000.jpg
1458.275	0.644	correct	repeat	Run2	repeat/STIM_001.jpg
1462.595	0.9	correct	repeat	Run2	repeat/STIM_001.jpg
1465.863	0.7	correct	repeat	Run2	repeat/STIM_001.jpg
1469.022	0.972	correct	repeat	Run2	repeat/STIM_001.jpg
1472.565	0.916	correct	repeat	Run2	repeat/STIM_001.jpg
1476.114	0.965	correct	repeat	Run2	repeat/STIM_002.jpg
1479.848	0.944	correct	repeat	Run2	repeat/STIM_002.jpg
1483.562	0.616	incorrect	repeat	Run2	repeat/STIM_002.jpg
1487.734	0.61	correct	repeat	Run2	repeat/STIM_002.jpg
1490.746	0.632	correct	repeat	Run2	repeat/STIM_002.jpg
1494.924	0.786	correct	repeat	Run2	repeat/STIM_003.jpg
1498.986	0.726	correct	repeat	Run2	repeat/STIM_003.jpg
1502.754	0.931	correct	repeat	Run2	repeat/STIM_003.jpg
1507.442	0.634	correct	repeat	Run2	repeat/STIM_003.jpg
1511.252	0.546	correct	repeat	Run2	repeat/STIM_003.jpg
1515.244	0.869	correct	repeat	Run2	repeat/STIM_004.jpg
1518.42	0.807	correct	repeat	Run2	repeat/STIM_004.jpg
1521.644	0.963	incorrect	repeat	Run2	repeat/STIM_004.jpg
1525.844	0.931	correct	repeat	Run2	repeat/STIM_004.jpg
1529.892	0.894	incorrect	repeat	Run2	repeat/STIM_004.jpg
1534.184	0.774	correct	repeat	Run2	repeat/STIM_005.jpg
1538.454	0.526	correct	repeat	Run2	repeat/STIM_005.jpg
1541.229	0.651	correct	repeat	Run2	repeat/STIM_005.jpg
1544.489	0.846	correct	repeat	Run2	repeat/STIM_005.jpg
1548.99	0.803	correct	repeat	Run2	repeat/STIM_005.jpg
1553.472	0.825	correct	repeat	Run2	repeat/STIM_006.jpg
1557.206	0.642	correct	repeat	Run2	repeat/STIM_006.jpg
1561.507	0.905	correct	repeat	Run2	repeat/STIM_006.jpg
1565.99	0.727	correct	repeat	Run2	repeat/STIM_006.jpg
1569.862	0.876	correct	repeat	Run2	repeat/STIM_006.jpg
1573.054	0.818	correct	repeat	Run2	repeat/STIM_007.jpg
1577.749	0.568	correct	repeat	Run2	repeat/STIM_007.jpg
1581.341	0.652	correct	repeat	Run2	repeat/STIM_007.jpg
1585.064	0.511	correct	repeat	Run2	repeat/STIM_007.jpg
1589.42	0.626	correct	repeat	Run2	repeat/STIM_007.jpg
1592.081	0.636	correct	repeat	Run2	repeat/STIM_008.jpg
1596.606	0.936	correct	repeat	Run2	repeat/STIM_008.jpg
1600.996	0.693	correct	repeat	Run2	repeat/STIM_008.jpg
1604.24	0.731	correct	repeat	Run2	repeat/STIM_008.jpg
1607.518	0.989	correct	repeat	Run2	repeat/STIM_008.jpg
1610.629	0.646	correct	repeat	Run2	repeat/STIM_009.jpg
1613.389	0.639	correct	repeat	Run2	repeat/STIM_009.jpg
1617.903	0.634	correct	repeat	Run2	repeat/STIM_009.jpg
1621.672	0.734	correct	repeat	Run2	repeat/STIM_009.jpg
1626.092	0.819	correct	repeat	Run2	repeat/STIM_009.jpg
1629.346	0.673	incorrect	repeat	Run2	repeat/STIM_010.jpg
1633.872	0.783	correct	repeat	Run2	repeat/STIM_010.jpg
1637.824	0.954	correct	repeat	Run2	repeat/STIM_010.jpg
1642.573	0.822	correct	repeat	Run2	repeat/STIM_010.jpg
1645.822	0.738	correct	repeat	Run2	repeat/STIM_010.jpg
1650.029	0.748	correct	repeat	Run2	repeat/STIM_011.jpg
1654.493	0.519	correct	repeat	Run2	repeat/STIM_011.jpg
1658.529	0.647	correct	repeat	Run2	repeat/STIM_011.jpg
1662.185	0.649	correct	repeat	Run2	repeat/STIM_011.jpg
1666.335	0.643	correct	repeat	Run2	repeat/STIM_011.jpg
1670.699	0.673	correct	repeat	Run2	repeat/STIM_012.jpg
1674.354	0.606	correct	repeat	Run2	repeat/STIM_012.jpg
1677.363	0.511	correct	repeat	Run2	repeat/STIM_012.jpg
1680.106	0.505	correct	repeat	Run2	repeat/STIM_012.jpg
1683.342	0.596	correct	repeat	Run2	repeat/STIM_012.jpg
1686.727	0.916	correct	repeat	Run2	repeat/STIM_013.jpg
1689.744	0.721	correct	repeat	Run2	repeat/STIM_013.jpg
1693.129	0.519	correct	repeat	Run2	repeat/STIM_013.jpg
1697.041	0.678	correct	repeat	Run2	repeat/STIM_013.jpg
1700.534	0.602	correct	repeat	Run2	repeat/STIM_013.jpg
1704.949	0.695	correct	repeat	Run2	repeat/STIM_014.jpg
1707.839	0.882	correct	repeat	Run2	repeat/STIM_014.jpg
1711.431	0.745	correct	repeat	Run2	repeat/STIM_014.jpg
1715.973	0.658	correct	repeat	Run2	repeat/STIM_014.jpg
1720.347	0.511	correct	repeat	Run2	repeat/STIM_014.jpg
1724.832	1.441	correct	generate	Run3	generate/STIM_000.jpg
1730.052	0.947	correct	generate	Run3	generate/STIM_000.jpg
1734.888	1.053	correct	generate	Run3	generate/STIM_000.jpg
1738.034	1.014	correct	generate	Run3	generate/STIM_000.jpg
1741.245	1.199	correct	generate	Run3	generate/STIM_000.jpg
1744.498	1.896	correct	generate	Run3	generate/STIM_001.jpg
1750.32	1.485	correct	generate	Run3	generate/STIM_001.jpg
1754.774	1.587	correct	generate	Run3	generate/STIM_001.jpg
1758.765	2.051	correct	generate	Run3	generate/STIM_001.jpg
1763.025	1.736	correct	generate	Run3	generate/STIM_001.jpg
1768.664	1.11	correct	generate	Run3	generate/STIM_002.jpg
1773.241	1.326	correct	generate	Run3	generate/STIM_002.jpg
1777.027	1.252	correct	generate	Run3	generate/STIM_002.jpg
1782.006	1.23	correct	generate	Run3	generate/STIM_002.jpg
1786.277	1.378	incorrect	generate	Run3	generate/STIM_002.jpg
1791.542	1.112	correct	generate	Run3	generate/STIM_003.jpg
1794.762	1.388	correct	generate	Run3	generate/STIM_003.jpg
1798.608	1.445	correct	generate	Run3	generate/STIM_003.jpg
1803.259	1.101	correct	generate	Run3	generate/STIM_003.jpg
1806.942	1.403	correct	generate	Run3	generate/STIM_003.jpg
1810.909	1.508	correct	generate	Run3	generate/STIM_004.jpg
1814.726	0.958	correct	generate	Run3	generate/STIM_004.jpg
1819.662	0.989	correct	generate	Run3	generate/STIM_004.jpg
1822.893	1.374	correct	generate	Run3	generate/STIM_004.jpg
1827.712	1.281	correct	generate	Run3	generate/STIM_004.jpg
1832.631	2.017	correct	generate	Run3	generate/STIM_005.jpg
1838.317	2.02	correct	generate	Run3	generate/STIM_005.jpg
1842.862	1.003	correct	generate	Run3	generate/STIM_005.jpg
1846.602	1.7	correct	generate	Run3	generate/STIM_005.jpg
1851.998	0.89	correct	generate	Run3	generate/STIM_005.jpg
1854.906	1.992	correct	generate	Run3	generate/STIM_006.jpg
1860.6	1.146	correct	generate	Run3	generate/STIM_006.jpg
1865.482	1.101	correct	generate	Run3	generate/STIM_006.jpg
1870.398	0.885	correct	generate	Run3	generate/STIM_006.jpg
1873.814	1.165	correct	generate	Run3	generate/STIM_006.jpg
1878.435	1.778	correct	generate	Run3	generate/STIM_007.jpg
1883.254	1.122	correct	generate	Run3	generate/STIM_007.jpg
1887.611	1.597	correct	generate	Run3	generate/STIM_007.jpg
1893.179	1.236	correct	generate	Run3	generate/STIM_007.jpg
1896.448	1.176	correct	generate	Run3	generate/STIM_007.jpg
1900.887	1.585	correct	generate	Run3	generate/STIM_008.jpg
1906.24	1.718	incorrect	generate	Run3	generate/STIM_008.jpg
1911.238	1.12	correct	generate	Run3	generate/STIM_008.jpg
1915.885	1.509	correct	generate	Run3	generate/STIM_008.jpg
1920.75	1.886	correct	generate	Run3	generate/STIM_008.jpg
1924.738	1.978	incorrect	generate	Run3	generate/STIM_009.jpg
1928.727	1.885	correct	generate	Run3	generate/STIM_009.jpg
1934.154	0.969	correct	generate	Run3	generate/STIM_009.jpg
1938.324	1.099	correct	generate	Run3	generate/STIM_009.jpg
1941.616	1.07	correct	generate	Run3	generate/STIM_009.jpg
1944.999	1.716	correct	generate	Run3	generate/STIM_010.jpg
1950.191	1.908	incorrect	generate	Run3	generate/STIM_010.jpg
1954.637	0.86	correct	generate	Run3	generate/STIM_010.jpg
1958.95	1.869	correct	generate	Run3	generate/STIM_010.jpg
1962.934	1.114	correct	generate	Run3	generate/STIM_010.jpg
1966.968	1.49	correct	generate	Run3	generate/STIM_011.jpg
1970.967	1.82	correct	generate	Run3	generate/STIM_011.jpg
1976.287	1.177	correct	generate	Run3	generate/STIM_011.jpg
1980.669	1.684	correct	generate	Run3	generate/STIM_011.jpg
1985.469	1.476	correct	generate	Run3	generate/STIM_011.jpg
1989.464	1.723	correct	generate	Run3	generate/STIM_012.jpg
1993.7	1.905	correct	generate	Run3	generate/STIM_012.jpg
1998.883	1.581	correct	generate	Run3	generate/STIM_012.jpg
2003.139	1.838	correct	generate	Run3	generate/STIM_012.jpg
2008.277	2.031	incorrect	generate	Run3	generate/STIM_012.jpg
2014.228	1.304	correct	generate	Run3	generate/STIM_013.jpg
2019.496	1.019	correct	generate	Run3	generate/STIM_013.jpg
2023.111	1.007	correct	generate	Run3	generate/STIM_013.jpg
2026.361	1.83	correct	generate	Run3	generate/STIM_013.jpg
2031.44	1.775	correct	generate	Run3	generate/STIM_013.jpg
2036.413	1.003	correct	generate	Run3	generate/STIM_014.jpg
2040.099	1.894	correct	generate	Run3	generate/STIM_014.jpg
2045.219	1.262	correct	generate	Run3	generate/STIM_014.jpg
2048.624	2.045	correct	generate	Run3	generate/STIM_014.jpg
2052.692	1.567	correct	generate	Run3	generate/STIM_014.jpg
2057.332	1.011	correct	generate	Run3	generate/STIM_015.jpg
2062.317	0.929	correct	generate	Run3	generate/STIM_015.jpg
2066.768	1.608	correct	generate	Run3	generate/STIM_015.jpg
2070.929	1.215	correct	generate	Run3	generate/STIM_015.jpg
2074.647	1.188	correct	generate	Run3	generate/STIM_015.jpg
2078.914	1.778	incorrect	generate	Run3	generate/STIM_016.jpg
2084.038	1.734	correct	generate	Run3	generate/STIM_016.jpg
2088.141	1.518	correct	generate	Run3	generate/STIM_016.jpg
2091.736	1.187	correct	generate	Run3	generate/STIM_016.jpg
2096.322	1.743	incorrect	generate	Run3	generate/STIM_016.jpg
2102.037	1.379	correct	generate	Run3	generate/STIM_017.jpg
2105.428	1.351	incorrect	generate	Run3	generate/STIM_017.jpg
2109.18	0.906	correct	generate	Run3	generate/STIM_017.jpg
2113.142	0.926	correct	generate	Run3	generate/STIM_017.jpg
2117.751	1.031	correct	generate	Run3	generate/STIM_017.jpg
2122.123	1.745	correct	generate	Run3	generate/STIM_018.jpg
2126.678	1.791	correct	generate	Run3	generate/STIM_018.jpg
2131.343	1.196	correct	generate	Run3	generate/STIM_018.jpg
2135.179	2.097	correct	generate	Run3	generate/STIM_018.jpg
2140.95	1.242	correct	generate	Run3	generate/STIM_018.jpg
2144.311	1.935	correct	generate	Run3	generate/STIM_019.jpg
2149.038	1.774	correct	generate	Run3	generate/STIM_019.jpg
2153.623	0.951	incorrect	generate	Run3	generate/STIM_019.jpg
2157.99	2.085	correct	generate	Run3	generate/STIM_019.jpg
2163.515	1.965	correct	generate	Run3	generate/STIM_019.jpg
2168.662	1.132	correct	generate	Run3	generate/STIM_020.jpg
2173.467	1.1	correct	generate	Run3	generate/STIM_020.jpg
2177.272	1.768	correct	generate	Run3	generate/STIM_020.jpg
2181.672	1.104	correct	generate	Run3	generate/STIM_020.jpg
2185.621	1.255	correct	generate	Run3	generate/STIM_020.jpg
2190.006	1.451	incorrect	generate	Run3	generate/STIM_021.jpg
2194.933	0.923	correct	generate	Run3	generate/STIM_021.jpg
2198.312	1.661	correct	generate	Run3	generate/STIM_021.jpg
2203.688	0.902	correct	generate	Run3	generate/STIM_021.jpg
2207.483	1.125	correct	generate	Run3	generate/STIM_021.jpg
2212.42	1.526	correct	generate	Run3	generate/STIM_022.jpg
2216.267	1.247	correct	generate	Run3	generate/STIM_022.jpg
2220.561	1.496	correct	generate	Run3	generate/STIM_022.jpg
2225.573	1.68	correct	generate	Run3	generate/STIM_022.jpg
2229.896	1.334	correct	generate	Run3	generate/STIM_022.jpg
2234.093	0.966	correct	generate	Run3	generate/STIM_023.jpg
2237.339	1.195	correct	generate	Run3	generate/STIM_023.jpg
2241.629	1.709	correct	generate	Run3	generate/STIM_023.jpg
2246.468	1.894	correct	generate	Run3	generate/STIM_023.jpg
2251.956	1.277	correct	generate	Run3	generate/STIM_023.jpg
2256.247	1.522	correct	generate	Run3	generate/STIM_024.jpg
2261.575	0.961	correct	generate	Run3	generate/STIM_024.jpg
2264.549	2.019	correct	generate	Run3	generate/STIM_024.jpg
2269.311	2.043	correct	generate	Run3	generate/STIM_024.jpg
2273.393	1.422	correct	generate	Run3	generate/STIM_024.jpg
2278.027	0.944	correct	repeat	Run3	repeat/STIM_000.jpg
2282.864	0.73	correct	repeat	Run3	repeat/STIM_000.jpg
2286.724	0.543	correct	repeat	Run3	repeat/STIM_000.jpg
2290.328	0.75	correct	repeat	Run3	repeat/STIM_000.jpg
2293.381	0.913	correct	repeat	Run3	repeat/STIM_000.jpg
2296.586	0.862	correct	repeat	Run3	repeat/STIM_001.jpg
2300.818	0.566	correct	repeat	Run3	repeat/STIM_001.jpg
2303.886	0.891	correct	repeat	Run3	repeat/STIM_001.jpg
2308.502	0.783	correct	repeat	Run3	repeat/STIM_001.jpg
2311.907	0.733	correct	repeat	Run3	repeat/STIM_001.jpg
2315.218	0.881	correct	repeat	Run3	repeat/STIM_002.jpg
2318.92	0.699	correct	repeat	Run3	repeat/STIM_002.jpg
2322.123	0.855	correct	repeat	Run3	repeat/STIM_002.jpg
2325.901	0.834	correct	repeat	Run3	repeat/STIM_002.jpg
2330.61	0.891	correct	repeat	Run3	repeat/STIM_002.jpg
2334.862	0.558	correct	repeat	Run3	repeat/STIM_003.jpg
2338.692	0.719	correct	repeat	Run3	repeat/STIM_003.jpg
2342.743	0.768	correct	repeat	Run3	repeat/STIM_003.jpg
2345.803	0.93	correct	repeat	Run3	repeat/STIM_003.jpg
2349.303	0.922	correct	repeat	Run3	repeat/STIM_003.jpg
2353.616	0.591	correct	repeat	Run3	repeat/STIM_004.jpg
2356.472	0.916	correct	repeat	Run3	repeat/STIM_004.jpg
2360.643	0.686	correct	repeat	Run3	repeat/STIM_004.jpg
2365.178	0.888	correct	repeat	Run3	repeat/STIM_004.jpg
2368.844	0.77	correct	repeat	Run3	repeat/STIM_004.jpg
2372.605	0.98	correct	repeat	Run3	repeat/STIM_005.jpg
2376.983	0.847	correct	repeat	Run3	repeat/STIM_005.jpg
2380.029	0.89	correct	repeat	Run3	repeat/STIM_005.jpg
2384.299	0.53	correct	repeat	Run3	repeat/STIM_005.jpg
2388.815	0.825	correct	repeat	Run3	repeat/STIM_005.jpg
2392.549	0.682	correct	repeat	Run3	repeat/STIM_006.jpg
2397.071	0.915	correct	repeat	Run3	repeat/STIM_006.jpg
2400.673	0.774	correct	repeat	Run3	repeat/STIM_006.jpg
2403.456	0.577	correct	repeat	Run3	repeat/STIM_006.jpg
2406.994	0.624	correct	repeat	Run3	repeat/STIM_006.jpg
2410.515	0.994	correct	repeat	Run3	repeat/STIM_007.jpg
2414.923	0.81	correct	repeat	Run3	repeat/STIM_007.jpg
2417.764	0.991	correct	repeat	Run3	repeat/STIM_007.jpg
2422.011	0.559	correct	repeat	Run3	repeat/STIM_007.jpg
2424.716	0.621	correct	repeat	Run3	repeat/STIM_007.jpg
2428.829	0.51	correct	repeat	Run3	repeat/STIM_008.jpg
2432.665	0.717	correct	repeat	Run3	repeat/STIM_008.jpg
2435.746	0.891	correct	repeat	Run3	repeat/STIM_008.jpg
2439.506	0.89	correct	repeat	Run3	repeat/STIM_008.jpg
2442.766	0.578	correct	repeat	Run3	repeat/STIM_008.jpg
2446.507	0.521	correct	repeat	Run3	repeat/STIM_009.jpg
2450.173	0.97	correct	repeat	Run3	repeat/STIM_009.jpg
2454.633	0.887	correct	repeat	Run3	repeat/STIM_009.jpg
2458.033	0.672	correct	repeat	Run3	repeat/STIM_009.jpg
2461.343	0.713	correct	repeat	Run3	repeat/STIM_009.jpg
2464.774	0.68	correct	repeat	Run3	repeat/STIM_010.jpg
2468.554	0.65	correct	repeat	Run3	repeat/STIM_010.jpg
2471.835	0.86	correct	repeat	Run3	repeat/STIM_010.jpg
2476.561	0.734	incorrect	repeat	Run3	repeat/STIM_010.jpg
2479.552	0.93	correct	repeat	Run3	repeat/STIM_010.jpg
2483.574	0.634	correct	repeat	Run3	repeat/STIM_011.jpg
2486.702	0.654	correct	repeat	Run3	repeat/STIM_011.jpg
2491.111	0.895	correct	repeat	Run3	repeat/STIM_011.jpg
2494.302	0.95	correct	repeat	Run3	repeat/STIM_011.jpg
2499.23	0.855	correct	repeat	Run3	repeat/STIM_011.jpg
2503.708	0.997	correct	repeat	Run3	repeat/STIM_012.jpg
2506.744	0.71	correct	repeat	Run3	repeat/STIM_012.jpg
2509.71	0.638	correct	repeat	Run3	repeat/STIM_012.jpg
2513.648	0.806	correct	repeat	Run3	repeat/STIM_012.jpg
2517.872	0.929	correct	repeat	Run3	repeat/STIM_012.jpg
2522.757	0.762	correct	repeat	Run3	repeat/STIM_013.jpg
2527.255	0.774	correct	repeat	Run3	repeat/STIM_013.jpg
2531.907	0.627	correct	repeat	Run3	repeat/STIM_013.jpg
2534.758	0.868	correct	repeat	Run3	repeat/STIM_013.jpg
2537.714	0.751	correct	repeat	Run3	repeat/STIM_013.jpg
2541.527	0.733	correct	repeat	Run3	repeat/STIM_014.jpg
2545.912	0.523	correct	repeat	Run3	repeat/STIM_014.jpg
2549.991	0.542	correct	repeat	Run3	repeat/STIM_014.jpg
2554.021	0.773	correct	repeat	Run3	repeat/STIM_014.jpg
2557.926	0.85	correct	repeat	Run3	repeat/STIM_014.jpg
2562.666	1.352	correct	generate	Run4	generate/STIM_000.jpg
2567.31	1.264	correct	generate	Run4	generate/STIM_000.jpg
2571.74	1.748	correct	generate	Run4	generate/STIM_000.jpg
2576.629	2.064	correct	generate	Run4	generate/STIM_000.jpg
2581.337	1.853	correct	generate	Run4	generate/STIM_000.jpg
2586.844	1.619	correct	generate	Run4	generate/STIM_001.jpg
2591.683	0.843	correct	generate	Run4	generate/STIM_001.jpg
2595.485	1.278	correct	generate	Run4	generate/STIM_001.jpg
2600.569	1.502	correct	generate	Run4	generate/STIM_001.jpg
2605.189	1.541	correct	generate	Run4	generate/STIM_001.jpg
2608.901	2.042	correct	generate	Run4	generate/STIM_002.jpg
2613.813	1.284	correct	generate	Run4	generate/STIM_002.jpg
2617.156	1.901	correct	generate	Run4	generate/STIM_002.jpg
2621.763	1.045	correct	generate	Run4	generate/STIM_002.jpg
2625.217	1.974	correct	generate	Run4	generate/STIM_002.jpg
2629.417	2.055	correct	generate	Run4	generate/STIM_003.jpg
2635.34	1.173	correct	generate	Run4	generate/STIM_003.jpg
2640.164	0.876	correct	generate	Run4	generate/STIM_003.jpg
2643.193	1.958	correct	generate	Run4	generate/STIM_003.jpg
2648.485	1.903	correct	generate	Run4	generate/STIM_003.jpg
2653.331	1.53	correct	generate	Run4	generate/STIM_004.jpg
2658.158	1.589	correct	generate	Run4	generate/STIM_004.jpg
2662.722	1.906	correct	generate	Run4	generate/STIM_004.jpg
2667.331	1.448	correct	generate	Run4	generate/STIM_004.jpg
2672.691	1.51	correct	generate	Run4	generate/STIM_004.jpg
2677.751	1.686	correct	generate	Run4	generate/STIM_005.jpg
2683.294	1.991	correct	generate	Run4	generate/STIM_005.jpg
2688.599	0.995	incorrect	generate	Run4	generate/STIM_005.jpg
2692.521	1.885	correct	generate	Run4	generate/STIM_005.jpg
2697.145	1.766	correct	generate	Run4	generate/STIM_005.jpg
2701.598	2.046	correct	generate	Run4	generate/STIM_006.jpg
2706.501	1.605	correct	generate	Run4	generate/STIM_006.jpg
2710.688	0.968	correct	generate	Run4	generate/STIM_006.jpg
2714.708	1.989	correct	generate	Run4	generate/STIM_006.jpg
2719.823	2.07	correct	generate	Run4	generate/STIM_006.jpg
2724.852	1.575	correct	generate	Run4	generate/STIM_007.jpg
2729.771	1.943	correct	generate	Run4	generate/STIM_007.jpg
2735.446	1.292	correct	generate	Run4	generate/STIM_007.jpg
2739.032	1.16	correct	generate	Run4	generate/STIM_007.jpg
2742.268	1.206	correct	generate	Run4	generate/STIM_007.jpg
2747.169	1.245	incorrect	generate	Run4	generate/STIM_008.jpg
2752.005	1.565	correct	generate	Run4	generate/STIM_008.jpg
2755.591	1.69	correct	generate	Run4	generate/STIM_008.jpg
2761.02	1.964	correct	generate	Run4	generate/STIM_008.jpg
2765.33	1.608	correct	generate	Run4	generate/STIM_008.jpg
2770.582	1.431	correct	generate	Run4	generate/STIM_009.jpg
2775.135	1.236	incorrect	generate	Run4	generate/STIM_009.jpg
2780.154	1.609	correct	generate	Run4	generate/STIM_009.jpg
2785.541	1.508	correct	generate	Run4	generate/STIM_009.jpg
2789.316	2.073	correct	generate	Run4	generate/STIM_009.jpg
2794.342	2.013	correct	generate	Run4	generate/STIM_010.jpg
2798.881	0.859	correct	generate	Run4	generate/STIM_010.jpg
2802.1	1.026	correct	generate	Run4	generate/STIM_010.jpg
2805.542	1.136	correct	generate	Run4	generate/STIM_010.jpg
2809.321	1.132	correct	generate	Run4	generate/STIM_010.jpg
2814.116	2.058	correct	generate	Run4	generate/STIM_011.jpg
2818.35	0.856	correct	generate	Run4	generate/STIM_011.jpg
2822.977	1.851	correct	generate	Run4	generate/STIM_011.jpg
2827.893	1.599	correct	generate	Run4	generate/STIM_011.jpg
2832.418	1.023	incorrect	generate	Run4	generate/STIM_011.jpg
2836.54	1.525	correct	generate	Run4	generate/STIM_012.jpg
2840.169	1.032	correct	generate	Run4	generate/STIM_012.jpg
2843.817	1.473	correct	generate	Run4	generate/STIM_012.jpg
2847.846	1.597	correct	generate	Run4	generate/STIM_012.jpg
2851.775	2.023	correct	generate	Run4	generate/STIM_012.jpg
2856.198	0.853	correct	generate	Run4	generate/STIM_013.jpg
2860.67	1.984	correct	generate	Run4	generate/STIM_013.jpg
2866.204	1.118	correct	generate	Run4	generate/STIM_013.jpg
2870.802	1.002	correct	generate	Run4	generate/STIM_013.jpg
2875.169	1.59	correct	generate	Run4	generate/STIM_013.jpg
2880.418	0.928	correct	generate	Run4	generate/STIM_014.jpg
2883.807	1.272	correct	generate	Run4	generate/STIM_014.jpg
2888.807	1.247	correct	generate	Run4	generate/STIM_014.jpg
2893.361	2.02	correct	generate	Run4	generate/STIM_014.jpg
2897.843	1.576	correct	generate	Run4	generate/STIM_014.jpg
2902.306	1.166	correct	generate	Run4	generate/STIM_015.jpg
2905.691	1.55	correct	generate	Run4	generate/STIM_015.jpg
2909.279	1.938	correct	generate	Run4	generate/STIM_015.jpg
2914.314	1.187	correct	generate	Run4	generate/STIM_015.jpg
2917.868	0.844	correct	generate	Run4	generate/STIM_015.jpg
2922.627	1.325	correct	generate	Run4	generate/STIM_016.jpg
2927.48	0.911	correct	generate	Run4	generate/STIM_016.jpg
2930.717	0.947	correct	generate	Run4	generate/STIM_016.jpg
2935.208	2.069	correct	generate	Run4	generate/STIM_016.jpg
2940.647	0.899	correct	generate	Run4	generate/STIM_016.jpg
2944.039	0.892	correct	generate	Run4	generate/STIM_017.jpg
2947.244	1.438	correct	generate	Run4	generate/STIM_017.jpg
2951.129	1.376	correct	generate	Run4	generate/STIM_017.jpg
2956.29	0.848	correct	generate	Run4	generate/STIM_017.jpg
2959.51	1.607	correct	generate	Run4	generate/STIM_017.jpg
2963.218	1.397	correct	generate	Run4	generate/STIM_018.jpg
2968.445	1.712	correct	generate	Run4	generate/STIM_018.jpg
2973.567	1.038	correct	generate	Run4	generate/STIM_018.jpg
2978.216	1.159	correct	generate	Run4	generate/STIM_018.jpg
2982.943	2.069	correct	generate	Run4	generate/STIM_018.jpg
2988.688	1.608	correct	generate	Run4	generate/STIM_019.jpg
2993.818	1.42	correct	generate	Run4	generate/STIM_019.jpg
2997.39	2.009	correct	generate	Run4	generate/STIM_019.jpg
3003.253	1.209	incorrect	generate	Run4	generate/STIM_019.jpg
3006.793	1.83	correct	generate	Run4	generate/STIM_019.jpg
3011.019	0.921	correct	generate	Run4	generate/STIM_020.jpg
3015.63	0.925	correct	generate	Run4	generate/STIM_020.jpg
3019.529	1.798	correct	generate	Run4	generate/STIM_020.jpg
3023.544	1.463	correct	generate	Run4	generate/STIM_020.jpg
3028.563	1.458	correct	generate	Run4	generate/STIM_020.jpg
3033.264	1.112	correct	generate	Run4	generate/STIM_021.jpg
3036.505	1.79	correct	generate	Run4	generate/STIM_021.jpg
3040.472	1.053	correct	generate	Run4	generate/STIM_021.jpg
3044.566	1.45	correct	generate	Run4	generate/STIM_021.jpg
3048.801	1.675	correct	generate	Run4	generate/STIM_021.jpg
3054.212	1.389	correct	generate	Run4	generate/STIM_022.jpg
3058.619	1.92	correct	generate	Run4	generate/STIM_022.jpg
3062.981	1.292	correct	generate	Run4	generate/STIM_022.jpg
3067.455	0.947	correct	generate	Run4	generate/STIM_022.jpg
3071.657	1.41	correct	generate	Run4	generate/STIM_022.jpg
3076.107	1.053	correct	generate	Run4	generate/STIM_023.jpg
3080.482	1.134	correct	generate	Run4	generate/STIM_023.jpg
3085.323	1.42	correct	generate	Run4	generate/STIM_023.jpg
3089.644	1.363	correct	generate	Run4	generate/STIM_023.jpg
3093.487	1.937	correct	generate	Run4	generate/STIM_023.jpg
3097.44	1.239	correct	generate	Run4	generate/STIM_024.jpg
3102.345	1.759	correct	generate	Run4	generate/STIM_024.jpg
3106.109	1.694	correct	generate	Run4	generate/STIM_024.jpg
3110.811	0.981	correct	generate	Run4	generate/STIM_024.jpg
3114.25	1.867	correct	generate	Run4	generate/STIM_024.jpg
3119.352	0.643	correct	repeat	Run4	repeat/STIM_000.jpg
3122.864	0.937	correct	repeat	Run4	repeat/STIM_000.jpg
3125.931	0.88	correct	repeat	Run4	repeat/STIM_000.jpg
3130.549	0.626	incorrect	repeat	Run4	repeat/STIM_000.jpg
3133.34	0.737	correct	repeat	Run4	repeat/STIM_000.jpg
3136.634	0.655	correct	repeat	Run4	repeat/STIM_001.jpg
3140.375	0.982	correct	repeat	Run4	repeat/STIM_001.jpg
3145.2	0.728	correct	repeat	Run4	repeat/STIM_001.jpg
3149.584	0.811	correct	repeat	Run4	repeat/STIM_001.jpg
3152.575	0.712	correct	repeat	Run4	repeat/STIM_001.jpg
3156.575	0.662	correct	repeat	Run4	repeat/STIM_002.jpg
3160.989	0.712	correct	repeat	Run4	repeat/STIM_002.jpg
3165.257	0.75	correct	repeat	Run4	repeat/STIM_002.jpg
3168.783	0.674	correct	repeat	Run4	repeat/STIM_002.jpg
3172.807	0.539	correct	repeat	Run4	repeat/STIM_002.jpg
3175.439	0.784	incorrect	repeat	Run4	repeat/STIM_003.jpg
3178.96	0.946	correct	repeat	Run4	repeat/STIM_003.jpg
3183.114	0.76	correct	repeat	Run4	repeat/STIM_003.jpg
3186.399	0.656	correct	repeat	Run4	repeat/STIM_003.jpg
3190.305	0.555	incorrect	repeat	Run4	repeat/STIM_003.jpg
3193.308	0.631	correct	repeat	Run4	repeat/STIM_004.jpg
3197.282	0.698	correct	repeat	Run4	repeat/STIM_004.jpg
3200.663	0.838	incorrect	repeat	Run4	repeat/STIM_004.jpg
3205.327	0.836	correct	repeat	Run4	repeat/STIM_004.jpg
3209.594	0.98	correct	repeat	Run4	repeat/STIM_004.jpg
3212.766	0.649	correct	repeat	Run4	repeat/STIM_005.jpg
3215.77	0.669	correct	repeat	Run4	repeat/STIM_005.jpg
3218.721	0.521	correct	repeat	Run4	repeat/STIM_005.jpg
3221.527	0.984	correct	repeat	Run4	repeat/STIM_005.jpg
3225.703	0.973	correct	repeat	Run4	repeat/STIM_005.jpg
3229.068	0.904	correct	repeat	Run4	repeat/STIM_006.jpg
3232.106	0.782	correct	repeat	Run4	repeat/STIM_006.jpg
3235.566	0.724	correct	repeat	Run4	repeat/STIM_006.jpg
3239.644	0.56	correct	repeat	Run4	repeat/STIM_006.jpg
3243.36	0.562	correct	repeat	Run4	repeat/STIM_006.jpg
3246.835	0.577	correct	repeat	Run4	repeat/STIM_007.jpg
3249.755	0.761	correct	repeat	Run4	repeat/STIM_007.jpg
3254.008	0.646	correct	repeat	Run4	repeat/STIM_007.jpg
3258.28	0.588	correct	repeat	Run4	repeat/STIM_007.jpg
3262.277	0.55	correct	repeat	Run4	repeat/STIM_007.jpg
3265.809	0.974	correct	repeat	Run4	repeat/STIM_008.jpg
3269.095	0.982	correct	repeat	Run4	repeat/STIM_008.jpg
3273.257	0.978	correct	repeat	Run4	repeat/STIM_008.jpg
3278.226	0.746	correct	repeat	Run4	repeat/STIM_008.jpg
3282.03	0.87	correct	repeat	Run4	repeat/STIM_008.jpg
3285.384	0.862	correct	repeat	Run4	repeat/STIM_009.jpg
3290.083	0.615	correct	repeat	Run4	repeat/STIM_009.jpg
3294.253	0.881	correct	repeat	Run4	repeat/STIM_009.jpg
3297.675	0.843	correct	repeat	Run4	repeat/STIM_009.jpg
3301.829	0.937	correct	repeat	Run4	repeat/STIM_009.jpg
3306.042	0.975	correct	repeat	Run4	repeat/STIM_010.jpg
3309.459	0.733	correct	repeat	Run4	repeat/STIM_010.jpg
3314.003	0.677	correct	repeat	Run4	repeat/STIM_010.jpg
3318.436	0.594	correct	repeat	Run4	repeat/STIM_010.jpg
3322.8	0.899	correct	repeat	Run4	repeat/STIM_010.jpg
3326.759	0.995	correct	repeat	Run4	repeat/STIM_011.jpg
3331.543	0.524	correct	repeat	Run4	repeat/STIM_011.jpg
3334.662	0.671	correct	repeat	Run4	repeat/STIM_011.jpg
3338.639	0.754	correct	repeat	Run4	repeat/STIM_011.jpg
3342.583	0.854	correct	repeat	Run4	repeat/STIM_011.jpg
3345.439	0.826	correct	repeat	Run4	repeat/STIM_012.jpg
3349.472	0.85	correct	repeat	Run4	repeat/STIM_012.jpg
3354.171	0.906	correct	repeat	Run4	repeat/STIM_012.jpg
3358.742	0.536	correct	repeat	Run4	repeat/STIM_012.jpg
3362.534	0.763	correct	repeat	Run4	repeat/STIM_012.jpg
3365.752	0.733	correct	repeat	Run4	repeat/STIM_013.jpg
3369.58	1.0	correct	repeat	Run4	repeat/STIM_013.jpg
3374.063	0.706	correct	repeat	Run4	repeat/STIM_013.jpg
3377.19	0.657	correct	repeat	Run4	repeat/STIM_013.jpg
3379.947	0.932	correct	repeat	Run4	repeat/STIM_013.jpg
3384.743	0.51	correct	repeat	Run4	repeat/STIM_014.jpg
3389.143	0.557	correct	repeat	Run4	repeat/STIM_014.jpg
3392.544	0.748	correct	repeat	Run4	repeat/STIM_014.jpg
3395.792	0.61	correct	repeat	Run4	repeat/STIM_014.jpg
3400.396	0.554	correct	repeat	Run4	repeat/STIM_014.jpg
