onset	duration	response_time_ms	trial_type	learning_stage	stimulus	response_port
0.0	2.478	2477.8	generate	Run1	generate/STIM_000.jpg	99
4.645	2.541	2541.3	generate	Run1	generate/STIM_000.jpg	100
9.951	1.049	1048.9	generate	Run1	generate/STIM_000.jpg	100
14.557	1.856	1856.3	generate	Run1	generate/STIM_000.jpg	99
18.669	1.309	1309.1	generate	Run1	generate/STIM_000.jpg	100
22.946	1.996	1996.2	generate	Run1	generate/STIM_001.jpg	100
28.357	2.043	2043.0	generate	Run1	generate/STIM_001.jpg	99
32.829	2.306	2306.5	generate	Run1	generate/STIM_001.jpg	100
39.042	1.244	1243.8	generate	Run1	generate/STIM_001.jpg	100
44.066	1.648	1648.1	generate	Run1	generate/STIM_001.jpg	100
48.318	2.529	2529.1	generate	Run1	generate/STIM_002.jpg	100
53.394	1.718	1718.2	generate	Run1	generate/STIM_002.jpg	99
59.005	1.09	1089.8	generate	Run1	generate/STIM_002.jpg	99
62.25	1.853	1853.4	generate	Run1	generate/STIM_002.jpg	99
66.374	1.842	1841.6	generate	Run1	generate/STIM_002.jpg	99
70.564	1.346	1346.4	generate	Run1	generate/STIM_003.jpg	100
74.566	1.918	1917.9	generate	Run1	generate/STIM_003.jpg	99
78.91	1.072	1072.5	generate	Run1	generate/STIM_003.jpg	100
82.129	1.243	1243.4	generate	Run1	generate/STIM_003.jpg	100
85.722	1.072	1071.5	generate	Run1	generate/STIM_003.jpg	99
89.876	1.884	1884.2	generate	Run1	generate/STIM_004.jpg	100
95.408	2.467	2466.6	generate	Run1	generate/STIM_004.jpg	100
101.542	1.979	1978.9	generate	Run1	generate/STIM_004.jpg	100
106.948	1.703	1703.2	generate	Run1	generate/STIM_004.jpg	100
111.739	1.036	1036.1	generate	Run1	generate/STIM_004.jpg	100
116.649	2.179	2179.0	generate	Run1	generate/STIM_005.jpg	100
122.004	1.792	1791.7	generate	Run1	generate/STIM_005.jpg	99
127.635	1.5	1499.9	generate	Run1	generate/STIM_005.jpg	99
131.507	2.226	2225.6	generate	Run1	generate/STIM_005.jpg	99
136.976	1.401	1400.6	generate	Run1	generate/STIM_005.jpg	99
140.621	2.259	2258.9	generate	Run1	generate/STIM_006.jpg	99
145.36	1.353	1352.6	generate	Run1	generate/STIM_006.jpg	99
150.148	1.165	1164.9	generate	Run1	generate/STIM_006.jpg	100
154.826	1.298	1298.3	generate	Run1	generate/STIM_006.jpg	100
158.357	1.872	1871.7	generate	Run1	generate/STIM_006.jpg	100
163.538	1.403	1402.6	generate	Run1	generate/STIM_007.jpg	100
168.457	1.272	1271.9	generate	Run1	generate/STIM_007.jpg	100
173.613	1.028	1028.3	generate	Run1	generate/STIM_007.jpg	100
177.43	1.061	1061.4	generate	Run1	generate/STIM_007.jpg	99
181.699	1.598	1598.5	generate	Run1	generate/STIM_007.jpg	99
185.58	1.635	1635.0	generate	Run1	generate/STIM_008.jpg	100
190.427	2.183	2183.4	generate	Run1	generate/STIM_008.jpg	100
194.704	1.064	1064.1	generate	Run1	generate/STIM_008.jpg	100
198.562	1.161	1161.4	generate	Run1	generate/STIM_008.jpg	99
203.029	1.87	1869.7	generate	Run1	generate/STIM_008.jpg	99
207.314	1.831	1831.1	generate	Run1	generate/STIM_009.jpg	99
211.894	1.399	1399.4	generate	Run1	generate/STIM_009.jpg	99
216.562	1.621	1621.3	generate	Run1	generate/STIM_009.jpg	100
221.829	1.548	1548.4	generate	Run1	generate/STIM_009.jpg	100
225.859	1.115	1115.2	generate	Run1	generate/STIM_009.jpg	99
229.497	1.694	1693.5	generate	Run1	generate/STIM_010.jpg	99
234.73	1.958	1957.7	generate	Run1	generate/STIM_010.jpg	99
239.764	2.368	2367.8	generate	Run1	generate/STIM_010.jpg	99
245.341	1.979	1979.2	generate	Run1	generate/STIM_010.jpg	99
250.379	1.121	1120.7	generate	Run1	generate/STIM_010.jpg	100
254.975	1.75	1749.6	generate	Run1	generate/STIM_011.jpg	99
258.835	1.314	1314.5	generate	Run1	generate/STIM_011.jpg	99
263.324	2.06	2059.9	generate	Run1	generate/STIM_011.jpg	99
268.034	1.433	1433.4	generate	Run1	generate/STIM_011.jpg	100
272.253	1.735	1735.2	generate	Run1	generate/STIM_011.jpg	100
277.91	1.894	1894.1	generate	Run1	generate/STIM_012.jpg	100
282.97	2.348	2347.8	generate	Run1	generate/STIM_012.jpg	100
289.247	1.316	1316.5	generate	Run1	generate/STIM_012.jpg	100
293.714	1.091	1091.2	generate	Run1	generate/STIM_012.jpg	99
298.038	1.492	1492.1	generate	Run1	generate/STIM_012.jpg	99
301.621	2.473	2472.6	generate	Run1	generate/STIM_013.jpg	99
307.543	1.274	1273.7	generate	Run1	generate/STIM_013.jpg	99
311.599	1.906	1906.1	generate	Run1	generate/STIM_013.jpg	100
316.931	1.478	1478.2	generate	Run1	generate/STIM_013.jpg	100
321.328	0.89	889.6	generate	Run1	generate/STIM_013.jpg	100
325.317	1.374	1373.5	generate	Run1	generate/STIM_014.jpg	100
329.432	2.209	2208.9	generate	Run1	generate/STIM_014.jpg	99
334.951	2.286	2285.9	generate	Run1	generate/STIM_014.jpg	99
339.668	1.838	1838.5	generate	Run1	generate/STIM_014.jpg	100
343.986	1.181	1180.7	generate	Run1	generate/STIM_014.jpg	99
348.191	2.566	2565.7	generate	Run1	generate/STIM_015.jpg	99
353.647	1.845	1844.8	generate	Run1	generate/STIM_015.jpg	99
358.298	1.63	1629.6	generate	Run1	generate/STIM_015.jpg	99
363.374	1.996	1996.4	generate	Run1	generate/STIM_015.jpg	99
368.466	1.465	1464.8	generate	Run1	generate/STIM_015.jpg	100
372.466	2.38	2379.9	generate	Run1	generate/STIM_016.jpg	99
378.603	2.157	2157.3	generate	Run1	generate/STIM_016.jpg	100
383.214	1.402	1402.2	generate	Run1	generate/STIM_016.jpg	100
387.807	1.434	1434.0	generate	Run1	generate/STIM_016.jpg	99
391.377	1.468	1467.7	generate	Run1	generate/STIM_016.jpg	99
395.533	1.443	1443.3	generate	Run1	generate/STIM_017.jpg	99
399.371	2.105	2104.8	generate	Run1	generate/STIM_017.jpg	99
404.762	1.048	1047.6	generate	Run1	generate/STIM_017.jpg	99
408.082	1.732	1732.2	generate	Run1	generate/STIM_017.jpg	99
412.776	1.322	1322.2	generate	Run1	generate/STIM_017.jpg	100
417.264	1.483	1483.0	generate	Run1	generate/STIM_018.jpg	100
421.606	1.758	1758.0	generate	Run1	generate/STIM_018.jpg	100
425.827	1.084	1084.2	generate	Run1	generate/STIM_018.jpg	100
429.467	1.484	1483.5	generate	Run1	generate/STIM_018.jpg	100
434.705	1.296	1295.6	generate	Run1	generate/STIM_018.jpg	100
438.988	2.516	2516.4	generate	Run1	generate/STIM_019.jpg	99
443.91	2.337	2337.4	generate	Run1	generate/STIM_019.jpg	99
449.582	2.052	2051.9	generate	Run1	generate/STIM_019.jpg	99
453.914	1.728	1728.1	generate	Run1	generate/STIM_019.jpg	100
458.003	1.104	1104.4	generate	Run1	generate/STIM_019.jpg	100
461.993	1.986	1986.0	generate	Run1	generate/STIM_020.jpg	99
467.258	1.355	1354.6	generate	Run1	generate/STIM_020.jpg	100
471.002	1.827	1827.0	generate	Run1	generate/STIM_020.jpg	100
476.701	1.969	1969.4	generate	Run1	generate/STIM_020.jpg	99
480.674	1.529	1529.4	generate	Run1	generate/STIM_020.jpg	99
484.211	2.134	2134.0	generate	Run1	generate/STIM_021.jpg	100
488.581	1.563	1562.9	generate	Run1	generate/STIM_021.jpg	100
493.025	2.184	2183.8	generate	Run1	generate/STIM_021.jpg	99
497.447	2.21	2210.5	generate	Run1	generate/STIM_021.jpg	99
502.513	1.204	1204.1	generate	Run1	generate/STIM_021.jpg	99
507.05	2.461	2461.1	generate	Run1	generate/STIM_022.jpg	100
512.346	1.345	1344.7	generate	Run1	generate/STIM_022.jpg	100
516.991	2.295	2295.4	generate	Run1	generate/STIM_022.jpg	100
522.051	2.055	2055.3	generate	Run1	generate/STIM_022.jpg	100
527.351	1.014	1014.2	generate	Run1	generate/STIM_022.jpg	99
532.195	1.843	1843.2	generate	Run1	generate/STIM_023.jpg	99
536.141	1.446	1446.4	generate	Run1	generate/STIM_023.jpg	99
540.171	2.339	2338.6	generate	Run1	generate/STIM_023.jpg	99
546.231	1.595	1595.0	generate	Run1	generate/STIM_023.jpg	99
550.923	1.651	1650.7	generate	Run1	generate/STIM_023.jpg	99
556.033	1.468	1467.6	generate	Run1	generate/STIM_024.jpg	100
560.326	2.208	2207.8	generate	Run1	generate/STIM_024.jpg	100
565.354	1.93	1930.3	generate	Run1	generate/STIM_024.jpg	100
570.005	1.389	1389.3	generate	Run1	generate/STIM_024.jpg	99
573.636	1.616	1616.0	generate	Run1	generate/STIM_024.jpg	99
577.851	0.616	616.0	repeat	Run1	repeat/STIM_000.jpg	100
581.689	0.791	791.3	repeat	Run1	repeat/STIM_000.jpg	100
584.881	0.691	691.1	repeat	Run1	repeat/STIM_000.jpg	100
588.74	0.894	893.9	repeat	Run1	repeat/STIM_000.jpg	99
592.008	0.809	809.3	repeat	Run1	repeat/STIM_000.jpg	100
596.568	0.89	889.7	repeat	Run1	repeat/STIM_001.jpg	99
599.575	0.65	650.3	repeat	Run1	repeat/STIM_001.jpg	99
603.354	0.489	489.4	repeat	Run1	repeat/STIM_001.jpg	99
606.949	0.769	768.8	repeat	Run1	repeat/STIM_001.jpg	99
610.472	0.512	511.6	repeat	Run1	repeat/STIM_001.jpg	99
614.243	0.719	718.9	repeat	Run1	repeat/STIM_002.jpg	100
617.796	0.875	875.2	repeat	Run1	repeat/STIM_002.jpg	100
621.639	0.783	783.0	repeat	Run1	repeat/STIM_002.jpg	100
625.0	0.514	513.9	repeat	Run1	repeat/STIM_002.jpg	100
627.75	0.729	728.7	repeat	Run1	repeat/STIM_002.jpg	100
632.328	0.744	744.1	repeat	Run1	repeat/STIM_003.jpg	99
636.82	0.492	492.5	repeat	Run1	repeat/STIM_003.jpg	100
639.769	0.752	752.1	repeat	Run1	repeat/STIM_003.jpg	99
644.211	0.594	593.8	repeat	Run1	repeat/STIM_003.jpg	100
648.277	0.501	501.2	repeat	Run1	repeat/STIM_003.jpg	100
651.173	0.895	895.3	repeat	Run1	repeat/STIM_004.jpg	100
655.381	0.79	789.8	repeat	Run1	repeat/STIM_004.jpg	99
659.372	0.54	539.6	repeat	Run1	repeat/STIM_004.jpg	100
663.733	0.748	747.9	repeat	Run1	repeat/STIM_004.jpg	100
667.782	0.826	826.5	repeat	Run1	repeat/STIM_004.jpg	100
670.804	0.85	849.8	repeat	Run1	repeat/STIM_005.jpg	100
674.064	0.704	704.2	repeat	Run1	repeat/STIM_005.jpg	99
677.595	0.575	575.3	repeat	Run1	repeat/STIM_005.jpg	100
681.46	0.616	615.7	repeat	Run1	repeat/STIM_005.jpg	100
686.036	0.621	621.3	repeat	Run1	repeat/STIM_005.jpg	100
689.549	0.825	824.7	repeat	Run1	repeat/STIM_006.jpg	100
692.671	0.828	828.3	repeat	Run1	repeat/STIM_006.jpg	99
696.47	0.781	781.3	repeat	Run1	repeat/STIM_006.jpg	100
699.702	0.657	656.8	repeat	Run1	repeat/STIM_006.jpg	99
704.032	0.761	760.9	repeat	Run1	repeat/STIM_006.jpg	99
707.881	0.797	797.0	repeat	Run1	repeat/STIM_007.jpg	99
711.935	0.821	821.3	repeat	Run1	repeat/STIM_007.jpg	99
715.666	0.559	558.7	repeat	Run1	repeat/STIM_007.jpg	99
719.707	0.658	657.9	repeat	Run1	repeat/STIM_007.jpg	99
724.134	0.879	878.9	repeat	Run1	repeat/STIM_007.jpg	99
728.572	0.551	551.4	repeat	Run1	repeat/STIM_008.jpg	100
732.242	0.538	537.9	repeat	Run1	repeat/STIM_008.jpg	100
736.658	0.679	678.9	repeat	Run1	repeat/STIM_008.jpg	100
740.312	0.462	461.9	repeat	Run1	repeat/STIM_008.jpg	100
743.546	0.832	832.1	repeat	Run1	repeat/STIM_008.jpg	100
748.285	0.776	776.0	repeat	Run1	repeat/STIM_009.jpg	99
751.236	0.792	792.3	repeat	Run1	repeat/STIM_009.jpg	100
754.346	0.587	587.3	repeat	Run1	repeat/STIM_009.jpg	99
757.264	0.877	876.9	repeat	Run1	repeat/STIM_009.jpg	100
761.451	0.545	545.4	repeat	Run1	repeat/STIM_009.jpg	99
764.304	0.787	786.7	repeat	Run1	repeat/STIM_010.jpg	99
769.061	0.636	635.8	repeat	Run1	repeat/STIM_010.jpg	100
772.341	0.722	722.4	repeat	Run1	repeat/STIM_010.jpg	99
777.042	0.714	714.5	repeat	Run1	repeat/STIM_010.jpg	100
779.871	0.666	665.6	repeat	Run1	repeat/STIM_010.jpg	99
783.473	0.481	480.9	repeat	Run1	repeat/STIM_011.jpg	99
786.502	0.529	528.7	repeat	Run1	repeat/STIM_011.jpg	99
789.032	0.763	763.0	repeat	Run1	repeat/STIM_011.jpg	99
792.649	0.587	586.8	repeat	Run1	repeat/STIM_011.jpg	100
796.811	0.762	761.5	repeat	Run1	repeat/STIM_011.jpg	100
800.235	0.557	557.1	repeat	Run1	repeat/STIM_012.jpg	100
804.098	0.732	731.7	repeat	Run1	repeat/STIM_012.jpg	100
807.341	0.632	631.8	repeat	Run1	repeat/STIM_012.jpg	99
810.699	0.727	726.8	repeat	Run1	repeat/STIM_012.jpg	100
814.929	0.784	784.4	repeat	Run1	repeat/STIM_012.jpg	99
818.331	0.726	725.5	repeat	Run1	repeat/STIM_013.jpg	100
822.341	0.457	456.7	repeat	Run1	repeat/STIM_013.jpg	99
826.297	0.897	897.0	repeat	Run1	repeat/STIM_013.jpg	100
829.704	0.777	777.3	repeat	Run1	repeat/STIM_013.jpg	100
833.328	0.501	501.1	repeat	Run1	repeat/STIM_013.jpg	100
836.248	0.884	884.3	repeat	Run1	repeat/STIM_014.jpg	100
839.699	0.61	609.7	repeat	Run1	repeat/STIM_014.jpg	100
842.824	0.611	610.9	repeat	Run1	repeat/STIM_014.jpg	99
846.695	0.667	666.8	repeat	Run1	repeat/STIM_014.jpg	100
851.026	0.783	782.6	repeat	Run1	repeat/STIM_014.jpg	100
855.026	2.1	2100.0	generate	Run2	generate/STIM_000.jpg	100
859.923	2.045	2044.9	generate	Run2	generate/STIM_000.jpg	99
865.093	1.895	1895.3	generate	Run2	generate/STIM_000.jpg	100
869.38	1.656	1656.3	generate	Run2	generate/STIM_000.jpg	99
874.474	1.188	1187.5	generate	Run2	generate/STIM_000.jpg	100
878.487	1.28	1279.9	generate	Run2	generate/STIM_001.jpg	99
882.394	1.036	1036.2	generate	Run2	generate/STIM_001.jpg	100
886.875	1.324	1324.4	generate	Run2	generate/STIM_001.jpg	99
890.591	1.327	1326.6	generate	Run2	generate/STIM_001.jpg	99
895.883	1.87	1870.5	generate	Run2	generate/STIM_001.jpg	100
899.835	2.276	2276.4	generate	Run2	generate/STIM_002.jpg	99
904.163	1.838	1837.7	generate	Run2	generate/STIM_002.jpg	100
909.383	1.298	1297.5	generate	Run2	generate/STIM_002.jpg	100
912.878	1.9	1900.0	generate	Run2	generate/STIM_002.jpg	100
918.36	1.127	1127.3	generate	Run2	generate/STIM_002.jpg	100
922.872	2.174	2174.0	generate	Run2	generate/STIM_003.jpg	100
927.393	1.672	1671.5	generate	Run2	generate/STIM_003.jpg	100
932.432	1.881	1880.8	generate	Run2	generate/STIM_003.jpg	100
936.755	1.503	1503.2	generate	Run2	generate/STIM_003.jpg	99
941.76	1.195	1194.8	generate	Run2	generate/STIM_003.jpg	99
945.813	1.348	1347.8	generate	Run2	generate/STIM_004.jpg	100
950.749	1.31	1310.0	generate	Run2	generate/STIM_004.jpg	99
954.544	1.41	1410.3	generate	Run2	generate/STIM_004.jpg	99
959.202	1.423	1423.2	generate	Run2	generate/STIM_004.jpg	99
962.825	0.779	779.2	generate	Run2	generate/STIM_004.jpg	100
967.545	2.293	2293.0	generate	Run2	generate/STIM_005.jpg	99
972.899	1.54	1539.8	generate	Run2	generate/STIM_005.jpg	99
978.27	1.381	1381.0	generate	Run2	generate/STIM_005.jpg	99
983.1	1.336	1335.9	generate	Run2	generate/STIM_005.jpg	99
988.218	1.095	1094.7	generate	Run2	generate/STIM_005.jpg	99
993.171	1.6	1600.0	generate	Run2	generate/STIM_006.jpg	100
998.69	1.173	1172.6	generate	Run2	generate/STIM_006.jpg	100
1003.065	1.987	1986.9	generate	Run2	generate/STIM_006.jpg	99
1008.917	1.163	1163.1	generate	Run2	generate/STIM_006.jpg	99
1012.383	1.778	1777.9	generate	Run2	generate/STIM_006.jpg	100
1017.106	1.021	1021.3	generate	Run2	generate/STIM_007.jpg	99
1021.953	1.828	1828.0	generate	Run2	generate/STIM_007.jpg	100
1027.054	0.949	949.3	generate	Run2	generate/STIM_007.jpg	99
1031.05	1.408	1408.1	generate	Run2	generate/STIM_007.jpg	99
1036.412	1.651	1651.3	generate	Run2	generate/STIM_007.jpg	100
1040.48	1.272	1271.8	generate	Run2	generate/STIM_008.jpg	99
1045.133	1.028	1028.2	generate	Run2	generate/STIM_008.jpg	99
1048.704	0.93	929.6	generate	Run2	generate/STIM_008.jpg	99
1053.211	0.888	887.8	generate	Run2	generate/STIM_008.jpg	100
1056.362	1.808	1808.2	generate	Run2	generate/STIM_008.jpg	100
1061.091	1.095	1094.9	generate	Run2	generate/STIM_009.jpg	99
1065.308	1.906	1905.7	generate	Run2	generate/STIM_009.jpg	99
1070.591	1.241	1240.8	generate	Run2	generate/STIM_009.jpg	99
1075.107	0.871	871.4	generate	Run2	generate/STIM_009.jpg	100
1079.126	1.887	1887.0	generate	Run2	generate/STIM_009.jpg	100
1084.31	2.142	2142.4	generate	Run2	generate/STIM_010.jpg	100
1089.983	1.009	1008.8	generate	Run2	generate/STIM_010.jpg	99
1094.912	1.133	1132.9	generate	Run2	generate/STIM_010.jpg	99
1099.417	1.187	1187.3	generate	Run2	generate/STIM_010.jpg	100
1104.546	1.078	1077.7	generate	Run2	generate/STIM_010.jpg	99
1109.119	1.652	1651.8	generate	Run2	generate/STIM_011.jpg	100
1112.992	1.404	1404.0	generate	Run2	generate/STIM_011.jpg	100
1117.96	1.938	1938.4	generate	Run2	generate/STIM_011.jpg	100
1123.795	0.999	998.6	generate	Run2	generate/STIM_011.jpg	100
1128.4	1.683	1683.0	generate	Run2	generate/STIM_011.jpg	100
1132.698	1.957	1956.8	generate	Run2	generate/STIM_012.jpg	100
1136.73	1.512	1511.6	generate	Run2	generate/STIM_012.jpg	99
1140.246	1.366	1366.3	generate	Run2	generate/STIM_012.jpg	100
1144.882	1.262	1261.7	generate	Run2	generate/STIM_012.jpg	99
1148.705	1.279	1278.6	generate	Run2	generate/STIM_012.jpg	99
1153.613	2.257	2256.9	generate	Run2	generate/STIM_013.jpg	100
1158.582	1.728	1728.1	generate	Run2	generate/STIM_013.jpg	99
1163.655	1.44	1440.2	generate	Run2	generate/STIM_013.jpg	99
1169.005	1.069	1068.9	generate	Run2	generate/STIM_013.jpg	100
1173.58	0.98	979.5	generate	Run2	generate/STIM_013.jpg	99
1176.681	1.165	1165.1	generate	Run2	generate/STIM_014.jpg	99
1180.46	1.299	1298.8	generate	Run2	generate/STIM_014.jpg	100
1185.142	1.154	1154.5	generate	Run2	generate/STIM_014.jpg	99
1189.881	1.04	1040.3	generate	Run2	generate/STIM_014.jpg	100
1193.666	1.445	1445.4	generate	Run2	generate/STIM_014.jpg	99
1198.805	1.501	1500.8	generate	Run2	generate/STIM_015.jpg	100
1202.715	1.406	1406.0	generate	Run2	generate/STIM_015.jpg	100
1207.865	1.081	1081.0	generate	Run2	generate/STIM_015.jpg	99
1212.475	1.453	1453.4	generate	Run2	generate/STIM_015.jpg	100
1216.993	1.301	1300.9	generate	Run2	generate/STIM_015.jpg	99
1221.987	2.03	2030.5	generate	Run2	generate/STIM_016.jpg	100
1227.076	1.039	1039.3	generate	Run2	generate/STIM_016.jpg	100
1231.255	1.584	1583.5	generate	Run2	generate/STIM_016.jpg	100
1236.385	1.751	1750.9	generate	Run2	generate/STIM_016.jpg	99
1240.845	1.255	1255.0	generate	Run2	generate/STIM_016.jpg	100
1244.172	1.476	1475.9	generate	Run2	generate/STIM_017.jpg	100
1248.128	1.172	1171.9	generate	Run2	generate/STIM_017.jpg	99
1251.721	1.945	1945.4	generate	Run2	generate/STIM_017.jpg	99
1257.002	1.485	1485.1	generate	Run2	generate/STIM_017.jpg	100
1261.718	1.623	1623.0	generate	Run2	generate/STIM_017.jpg	100
1265.76	1.178	1178.0	generate	Run2	generate/STIM_018.jpg	100
1270.154	0.966	965.7	generate	Run2	generate/STIM_018.jpg	99
1274.982	1.536	1535.9	generate	Run2	generate/STIM_018.jpg	99
1280.06	1.142	1142.3	generate	Run2	generate/STIM_018.jpg	99
1283.741	1.755	1755.0	generate	Run2	generate/STIM_018.jpg	99
1288.505	1.725	1724.7	generate	Run2	generate/STIM_019.jpg	100
1292.793	1.68	1680.5	generate	Run2	generate/STIM_019.jpg	100
1297.813	1.209	1208.7	generate	Run2	generate/STIM_019.jpg	100
1301.53	0.812	812.5	generate	Run2	generate/STIM_019.jpg	99
1305.598	1.032	1031.9	generate	Run2	generate/STIM_019.jpg	100
1310.256	1.681	1681.2	generate	Run2	generate/STIM_020.jpg	99
1314.023	1.635	1634.6	generate	Run2	generate/STIM_020.jpg	100
1317.667	1.047	1046.9	generate	Run2	generate/STIM_020.jpg	99
1321.034	1.369	1368.9	generate	Run2	generate/STIM_020.jpg	100
1326.194	1.859	1858.8	generate	Run2	generate/STIM_020.jpg	100
1330.874	1.999	1999.0	generate	Run2	generate/STIM_021.jpg	100
1336.453	1.911	1911.3	generate	Run2	generate/STIM_021.jpg	100
1342.154	0.892	891.8	generate	Run2	generate/STIM_021.jpg	99
1346.578	1.486	1485.5	generate	Run2	generate/STIM_021.jpg	99
1351.066	1.595	1595.2	generate	Run2	generate/STIM_021.jpg	99
1355.875	2.142	2141.6	generate	Run2	generate/STIM_022.jpg	100
1361.49	1.672	1672.1	generate	Run2	generate/STIM_022.jpg	99
1367.119	1.026	1026.0	generate	Run2	generate/STIM_022.jpg	99
1371.513	1.393	1392.6	generate	Run2	generate/STIM_022.jpg	99
1376.226	1.34	1340.3	generate	Run2	generate/STIM_022.jpg	99
1381.086	1.186	1186.0	generate	Run2	generate/STIM_023.jpg	99
1385.194	1.804	1804.0	generate	Run2	generate/STIM_023.jpg	99
1389.478	1.957	1957.2	generate	Run2	generate/STIM_023.jpg	100
1394.869	0.916	915.8	generate	Run2	generate/STIM_023.jpg	99
1398.865	1.072	1072.0	generate	Run2	generate/STIM_023.jpg	100
1402.015	1.321	1320.8	generate	Run2	generate/STIM_024.jpg	100
1407.305	1.567	1567.3	generate	Run2	generate/STIM_024.jpg	99
1412.614	1.107	1107.4	generate	Run2	generate/STIM_024.jpg	99
1415.773	1.278	1278.1	generate	Run2	generate/STIM_024.jpg	99
1420.191	0.965	965.1	generate	Run2	generate/STIM_024.jpg	100
1425.017	0.71	709.6	repeat	Run2	repeat/STIM_000.jpg	99
1428.665	0.784	783.8	repeat	Run2	repeat/STIM_000.jpg	99
1432.932	0.6	600.5	repeat	Run2	repeat/STIM_000.jpg	100
1436.767	0.85	850.2	repeat	Run2	repeat/STIM_000.jpg	99
1440.944	0.705	705.1	repeat	Run2	repeat/STIM_000.jpg	99
1444.367	0.732	731.7	repeat	Run2	repeat/STIM_001.jpg	99
1447.615	0.838	838.1	repeat	Run2	repeat/STIM_001.jpg	99
1450.76	0.838	837.9	repeat	Run2	repeat/STIM_001.jpg	99
1454.952	0.757	756.9	repeat	Run2	repeat/STIM_001.jpg	100
1458.409	0.81	809.9	repeat	Run2	repeat/STIM_001.jpg	100
1462.78	0.677	677.2	repeat	Run2	repeat/STIM_002.jpg	99
1466.226	0.895	894.9	repeat	Run2	repeat/STIM_002.jpg	100
1469.332	0.79	790.0	repeat	Run2	repeat/STIM_002.jpg	99
1473.701	0.697	696.7	repeat	Run2	repeat/STIM_002.jpg	100
1476.857	0.548	548.3	repeat	Run2	repeat/STIM_002.jpg	99
1480.918	0.833	833.1	repeat	Run2	repeat/STIM_003.jpg	100
1483.843	0.495	495.3	repeat	Run2	repeat/STIM_003.jpg	100
1488.286	0.466	465.9	repeat	Run2	repeat/STIM_003.jpg	100
1492.14	0.475	475.1	repeat	Run2	repeat/STIM_003.jpg	100
1496.34	0.61	610.0	repeat	Run2	repeat/STIM_003.jpg	99
1499.534	0.651	651.1	repeat	Run2	repeat/STIM_004.jpg	99
1502.563	0.46	459.9	repeat	Run2	repeat/STIM_004.jpg	100
1505.105	0.798	797.5	repeat	Run2	repeat/STIM_004.jpg	99
1508.571	0.593	593.3	repeat	Run2	repeat/STIM_004.jpg	99
1513.106	0.758	758.0	repeat	Run2	repeat/STIM_004.jpg	100
1517.091	0.902	901.5	repeat	Run2	repeat/STIM_005.jpg	99
1521.85	0.592	592.3	repeat	Run2	repeat/STIM_005.jpg	99
1525.962	0.654	654.0	repeat	Run2	repeat/STIM_005.jpg	100
1528.934	0.74	740.4	repeat	Run2	repeat/STIM_005.jpg	99
1533.544	0.706	706.2	repeat	Run2	repeat/STIM_005.jpg	99
1538.032	0.697	697.4	repeat	Run2	repeat/STIM_006.jpg	100
1541.131	0.667	667.4	repeat	Run2	repeat/STIM_006.jpg	100
1544.518	0.504	503.7	repeat	Run2	repeat/STIM_006.jpg	99
1548.85	0.605	604.6	repeat	Run2	repeat/STIM_006.jpg	100
1553.356	0.572	571.8	repeat	Run2	repeat/STIM_006.jpg	99
1556.027	0.791	791.0	repeat	Run2	repeat/STIM_007.jpg	100
1560.64	0.867	867.0	repeat	Run2	repeat/STIM_007.jpg	99
1564.622	0.788	787.7	repeat	Run2	repeat/STIM_007.jpg	99
1569.276	0.694	693.6	repeat	Run2	repeat/STIM_007.jpg	100
1573.136	0.828	827.5	repeat	Run2	repeat/STIM_007.jpg	99
1576.464	0.793	792.8	repeat	Run2	repeat/STIM_008.jpg	99
1581.13	0.768	768.4	repeat	Run2	repeat/STIM_008.jpg	100
1585.436	0.62	619.6	repeat	Run2	repeat/STIM_008.jpg	99
1588.572	0.79	789.5	repeat	Run2	repeat/STIM_008.jpg	99
1591.932	0.746	745.7	repeat	Run2	repeat/STIM_008.jpg	99
1594.716	0.514	514.3	repeat	Run2	repeat/STIM_009.jpg	100
1597.423	0.86	859.9	repeat	Run2	repeat/STIM_009.jpg	100
1601.405	0.854	854.0	repeat	Run2	repeat/STIM_009.jpg	99
1605.991	0.854	854.5	repeat	Run2	repeat/STIM_009.jpg	99
1610.758	0.698	697.7	repeat	Run2	repeat/STIM_009.jpg	99
1615.025	0.487	486.8	repeat	Run2	repeat/STIM_010.jpg	100
1619.037	0.904	903.9	repeat	Run2	repeat/STIM_010.jpg	99
1623.743	0.531	530.6	repeat	Run2	repeat/STIM_010.jpg	99
1628.236	0.761	761.1	repeat	Run2	repeat/STIM_010.jpg	100
1632.553	0.491	490.6	repeat	Run2	repeat/STIM_010.jpg	100
1635.443	0.51	509.7	repeat	Run2	repeat/STIM_011.jpg	99
1638.801	0.572	572.4	repeat	Run2	repeat/STIM_011.jpg	100
1642.829	0.555	554.8	repeat	Run2	repeat/STIM_011.jpg	99
1645.654	0.638	638.2	repeat	Run2	repeat/STIM_011.jpg	100
1649.054	0.873	873.3	repeat	Run2	repeat/STIM_011.jpg	100
1653.904	0.774	774.3	repeat	Run2	repeat/STIM_012.jpg	100
1658.147	0.568	567.5	repeat	Run2	repeat/STIM_012.jpg	100
1661.41	0.631	630.6	repeat	Run2	repeat/STIM_012.jpg	99
1664.243	0.528	527.9	repeat	Run2	repeat/STIM_012.jpg	99
1667.658	0.751	751.4	repeat	Run2	repeat/STIM_012.jpg	99
1670.815	0.87	870.4	repeat	Run2	repeat/STIM_013.jpg	100
1675.001	0.6	599.5	repeat	Run2	repeat/STIM_013.jpg	99
1678.62	0.525	525.3	repeat	Run2	repeat/STIM_013.jpg	99
1682.363	0.483	482.7	repeat	Run2	repeat/STIM_013.jpg	100
1686.627	0.772	772.5	repeat	Run2	repeat/STIM_013.jpg	99
1691.178	0.522	522.4	repeat	Run2	repeat/STIM_014.jpg	99
1694.637	0.63	630.5	repeat	Run2	repeat/STIM_014.jpg	99
1698.355	0.46	459.6	repeat	Run2	repeat/STIM_014.jpg	100
1701.121	0.515	515.1	repeat	Run2	repeat/STIM_014.jpg	100
1705.298	0.672	672.3	repeat	Run2	repeat/STIM_014.jpg	100
1709.463	1.266	1265.9	generate	Run3	generate/STIM_000.jpg	100
1714.675	1.281	1280.6	generate	Run3	generate/STIM_000.jpg	99
1719.531	1.126	1125.5	generate	Run3	generate/STIM_000.jpg	100
1724.227	0.87	870.3	generate	Run3	generate/STIM_000.jpg	99
1727.288	1.899	1899.4	generate	Run3	generate/STIM_000.jpg	99
1731.864	1.349	1349.0	generate	Run3	generate/STIM_001.jpg	99
1736.325	1.748	1748.2	generate	Run3	generate/STIM_001.jpg	99
1740.499	1.032	1031.9	generate	Run3	generate/STIM_001.jpg	99
1744.531	1.062	1061.6	generate	Run3	generate/STIM_001.jpg	100
1748.259	1.648	1648.3	generate	Run3	generate/STIM_001.jpg	100
1752.141	1.362	1362.2	generate	Run3	generate/STIM_002.jpg	100
1756.753	1.283	1283.3	generate	Run3	generate/STIM_002.jpg	99
1760.46	1.561	1561.0	generate	Run3	generate/STIM_002.jpg	99
1765.814	1.256	1255.9	generate	Run3	generate/STIM_002.jpg	99
1770.245	1.654	1654.5	generate	Run3	generate/STIM_002.jpg	99
1774.237	1.655	1655.0	generate	Run3	generate/STIM_003.jpg	99
1778.509	1.279	1279.3	generate	Run3	generate/STIM_003.jpg	99
1782.766	1.775	1775.1	generate	Run3	generate/STIM_003.jpg	99
1788.237	0.826	826.5	generate	Run3	generate/STIM_003.jpg	99
1792.218	0.96	960.1	generate	Run3	generate/STIM_003.jpg	99
1795.256	1.086	1086.2	generate	Run3	generate/STIM_004.jpg	99
1799.305	1.428	1427.7	generate	Run3	generate/STIM_004.jpg	100
1804.286	1.826	1825.5	generate	Run3	generate/STIM_004.jpg	100
1810.0	1.718	1718.3	generate	Run3	generate/STIM_004.jpg	99
1814.005	1.454	1454.0	generate	Run3	generate/STIM_004.jpg	99
1818.36	1.341	1341.4	generate	Run3	generate/STIM_005.jpg	100
1822.628	1.249	1249.0	generate	Run3	generate/STIM_005.jpg	100
1826.252	1.548	1547.9	generate	Run3	generate/STIM_005.jpg	99
1830.323	1.647	1646.9	generate	Run3	generate/STIM_005.jpg	100
1834.802	1.896	1895.5	generate	Run3	generate/STIM_005.jpg	99
1840.342	1.074	1073.6	generate	Run3	generate/STIM_006.jpg	100
1844.579	1.76	1760.1	generate	Run3	generate/STIM_006.jpg	100
1850.333	1.231	1230.8	generate	Run3	generate/STIM_006.jpg	100
1855.088	1.711	1710.6	generate	Run3	generate/STIM_006.jpg	99
1859.089	1.024	1023.6	generate	Run3	generate/STIM_006.jpg	99
1863.559	1.352	1352.2	generate	Run3	generate/STIM_007.jpg	99
1868.308	1.802	1802.2	generate	Run3	generate/STIM_007.jpg	100
1873.396	1.539	1539.4	generate	Run3	generate/STIM_007.jpg	99
1877.25	1.375	1375.3	generate	Run3	generate/STIM_007.jpg	99
1881.617	1.08	1079.7	generate	Run3	generate/STIM_007.jpg	100
1884.926	1.834	1833.9	generate	Run3	generate/STIM_008.jpg	99
1890.577	1.022	1022.1	generate	Run3	generate/STIM_008.jpg	99
1895.337	0.871	871.1	generate	Run3	generate/STIM_008.jpg	99
1898.33	1.249	1249.4	generate	Run3	generate/STIM_008.jpg	100
1902.569	1.568	1568.4	generate	Run3	generate/STIM_008.jpg	99
1907.454	1.665	1665.3	generate	Run3	generate/STIM_009.jpg	100
1912.002	1.406	1406.3	generate	Run3	generate/STIM_009.jpg	100
1916.939	0.878	877.6	generate	Run3	generate/STIM_009.jpg	99
1921.782	0.858	857.6	generate	Run3	generate/STIM_009.jpg	99
1925.044	0.966	966.3	generate	Run3	generate/STIM_009.jpg	100
1929.852	1.5	1500.5	generate	Run3	generate/STIM_010.jpg	100
1933.885	1.29	1289.6	generate	Run3	generate/STIM_010.jpg	100
1937.724	1.828	1828.3	generate	Run3	generate/STIM_010.jpg	100
1941.85	1.611	1610.9	generate	Run3	generate/STIM_010.jpg	99
1946.376	1.704	1704.5	generate	Run3	generate/STIM_010.jpg	100
1950.927	1.272	1272.1	generate	Run3	generate/STIM_011.jpg	100
1955.634	1.633	1633.3	generate	Run3	generate/STIM_011.jpg	99
1959.84	0.771	770.8	generate	Run3	generate/STIM_011.jpg	100
1963.554	0.866	865.5	generate	Run3	generate/STIM_011.jpg	99
1966.589	0.917	917.3	generate	Run3	generate/STIM_011.jpg	99
1970.749	1.052	1052.2	generate	Run3	generate/STIM_012.jpg	99
1974.279	1.324	1323.9	generate	Run3	generate/STIM_012.jpg	100
1977.918	0.797	796.6	generate	Run3	generate/STIM_012.jpg	100
1981.731	1.029	1029.1	generate	Run3	generate/STIM_012.jpg	99
1984.995	1.819	1818.6	generate	Run3	generate/STIM_012.jpg	100
1990.791	0.817	817.0	generate	Run3	generate/STIM_013.jpg	100
1994.116	1.582	1582.0	generate	Run3	generate/STIM_013.jpg	99
1999.182	1.705	1704.6	generate	Run3	generate/STIM_013.jpg	99
2003.34	1.305	1305.0	generate	Run3	generate/STIM_013.jpg	99
2007.122	0.874	873.6	generate	Run3	generate/STIM_013.jpg	99
2010.655	1.018	1017.6	generate	Run3	generate/STIM_014.jpg	99
2015.556	1.139	1138.8	generate	Run3	generate/STIM_014.jpg	100
2018.911	0.944	943.7	generate	Run3	generate/STIM_014.jpg	99
2023.644	1.196	1196.3	generate	Run3	generate/STIM_014.jpg	100
2027.917	1.883	1883.3	generate	Run3	generate/STIM_014.jpg	100
2031.93	1.656	1656.0	generate	Run3	generate/STIM_015.jpg	99
2036.887	1.773	1772.6	generate	Run3	generate/STIM_015.jpg	99
2041.847	1.232	1232.3	generate	Run3	generate/STIM_015.jpg	99
2045.742	1.819	1819.3	generate	Run3	generate/STIM_015.jpg	100
2050.739	1.44	1440.5	generate	Run3	generate/STIM_015.jpg	100
2054.504	0.92	919.8	generate	Run3	generate/STIM_016.jpg	99
2059.155	1.097	1096.8	generate	Run3	generate/STIM_016.jpg	99
2063.317	1.222	1221.9	generate	Run3	generate/STIM_016.jpg	100
2067.012	1.808	1807.9	generate	Run3	generate/STIM_016.jpg	99
2072.785	1.122	1121.5	generate	Run3	generate/STIM_016.jpg	100
2077.376	1.902	1902.1	generate	Run3	generate/STIM_017.jpg	99
2082.095	1.793	1793.0	generate	Run3	generate/STIM_017.jpg	99
2086.122	0.829	828.6	generate	Run3	generate/STIM_017.jpg	99
2089.427	1.43	1430.4	generate	Run3	generate/STIM_017.jpg	100
2093.134	1.494	1494.4	generate	Run3	generate/STIM_017.jpg	100
2096.717	0.991	991.0	generate	Run3	generate/STIM_018.jpg	100
2100.33	1.296	1295.8	generate	Run3	generate/STIM_018.jpg	99
2104.267	1.388	1388.2	generate	Run3	generate/STIM_018.jpg	99
2108.99	0.92	920.4	generate	Run3	generate/STIM_018.jpg	100
2113.89	1.33	1329.5	generate	Run3	generate/STIM_018.jpg	100
2119.164	1.836	1836.3	generate	Run3	generate/STIM_019.jpg	99
2123.433	1.556	1556.3	generate	Run3	generate/STIM_019.jpg	99
2128.344	1.661	1660.7	generate	Run3	generate/STIM_019.jpg	99
2132.528	1.33	1330.5	generate	Run3	generate/STIM_019.jpg	100
2136.652	1.872	1871.5	generate	Run3	generate/STIM_019.jpg	99
2140.893	1.647	1647.2	generate	Run3	generate/STIM_020.jpg	99
2144.703	1.602	1601.6	generate	Run3	generate/STIM_020.jpg	100
2148.753	1.765	1765.2	generate	Run3	generate/STIM_020.jpg	100
2154.163	0.917	916.9	generate	Run3	generate/STIM_020.jpg	99
2158.193	1.018	1017.7	generate	Run3	generate/STIM_020.jpg	100
2162.802	1.095	1094.8	generate	Run3	generate/STIM_021.jpg	100
2167.001	1.539	1539.0	generate	Run3	generate/STIM_021.jpg	100
2172.536	1.656	1656.5	generate	Run3	generate/STIM_021.jpg	99
2177.987	1.552	1551.7	generate	Run3	generate/STIM_021.jpg	99
2182.744	1.1	1099.6	generate	Run3	generate/STIM_021.jpg	100
2186.998	1.272	1272.4	generate	Run3	generate/STIM_022.jpg	99
2192.209	1.835	1835.0	generate	Run3	generate/STIM_022.jpg	100
2196.137	1.058	1057.9	generate	Run3	generate/STIM_022.jpg	99
2199.507	1.144	1144.5	generate	Run3	generate/STIM_022.jpg	100
2204.537	1.871	1871.3	generate	Run3	generate/STIM_022.jpg	99
2208.942	1.12	1119.9	generate	Run3	generate/STIM_023.jpg	100
2212.463	1.01	1010.4	generate	Run3	generate/STIM_023.jpg	99
2216.029	1.222	1221.5	generate	Run3	generate/STIM_023.jpg	99
2220.655	0.799	799.0	generate	Run3	generate/STIM_023.jpg	99
2223.56	0.804	804.0	generate	Run3	generate/STIM_023.jpg	99
2228.107	1.465	1464.9	generate	Run3	generate/STIM_024.jpg	99
2233.482	1.577	1577.2	generate	Run3	generate/STIM_024.jpg	100
2238.162	1.386	1386.2	generate	Run3	generate/STIM_024.jpg	99
2243.007	1.099	1098.6	generate	Run3	generate/STIM_024.jpg	99
2247.202	0.871	871.2	generate	Run3	generate/STIM_024.jpg	100
2250.844	0.857	857.4	repeat	Run3	repeat/STIM_000.jpg	100
2254.75	0.596	595.6	repeat	Run3	repeat/STIM_000.jpg	99
2258.074	0.889	889.1	repeat	Run3	repeat/STIM_000.jpg	100
2261.87	0.813	813.4	repeat	Run3	repeat/STIM_000.jpg	99
2265.673	0.891	890.8	repeat	Run3	repeat/STIM_000.jpg	99
2268.589	0.684	683.9	repeat	Run3	repeat/STIM_001.jpg	100
2271.393	0.813	813.0	repeat	Run3	repeat/STIM_001.jpg	100
2275.018	0.735	735.1	repeat	Run3	repeat/STIM_001.jpg	99
2279.622	0.668	667.5	repeat	Run3	repeat/STIM_001.jpg	99
2283.901	0.833	833.0	repeat	Run3	repeat/STIM_001.jpg	100
2288.483	0.728	728.4	repeat	Run3	repeat/STIM_002.jpg	99
2292.161	0.568	568.4	repeat	Run3	repeat/STIM_002.jpg	100
2295.216	0.467	467.0	repeat	Run3	repeat/STIM_002.jpg	99
2298.65	0.695	695.2	repeat	Run3	repeat/STIM_002.jpg	99
2303.152	0.521	520.6	repeat	Run3	repeat/STIM_002.jpg	99
2307.605	0.735	735.1	repeat	Run3	repeat/STIM_003.jpg	100
2311.389	0.781	781.3	repeat	Run3	repeat/STIM_003.jpg	99
2315.798	0.497	497.0	repeat	Run3	repeat/STIM_003.jpg	99
2319.734	0.513	512.9	repeat	Run3	repeat/STIM_003.jpg	99
2323.838	0.681	681.3	repeat	Run3	repeat/STIM_003.jpg	100
2327.604	0.519	519.4	repeat	Run3	repeat/STIM_004.jpg	100
2331.933	0.51	509.7	repeat	Run3	repeat/STIM_004.jpg	99
2334.739	0.699	698.9	repeat	Run3	repeat/STIM_004.jpg	99
2337.739	0.658	658.3	repeat	Run3	repeat/STIM_004.jpg	100
2341.413	0.687	687.4	repeat	Run3	repeat/STIM_004.jpg	100
2344.659	0.888	887.9	repeat	Run3	repeat/STIM_005.jpg	99
2349.453	0.772	772.0	repeat	Run3	repeat/STIM_005.jpg	99
2354.152	0.828	827.5	repeat	Run3	repeat/STIM_005.jpg	100
2358.817	0.46	459.5	repeat	Run3	repeat/STIM_005.jpg	100
2363.225	0.748	748.1	repeat	Run3	repeat/STIM_005.jpg	100
2367.541	0.713	712.9	repeat	Run3	repeat/STIM_006.jpg	100
2370.336	0.621	621.4	repeat	Run3	repeat/STIM_006.jpg	100
2374.275	0.638	637.8	repeat	Run3	repeat/STIM_006.jpg	99
2378.467	0.456	456.3	repeat	Run3	repeat/STIM_006.jpg	100
2382.669	0.833	833.0	repeat	Run3	repeat/STIM_006.jpg	100
2385.943	0.627	626.7	repeat	Run3	repeat/STIM_007.jpg	99
2390.01	0.703	702.6	repeat	Run3	repeat/STIM_007.jpg	100
2393.831	0.755	755.1	repeat	Run3	repeat/STIM_007.jpg	100
2396.976	0.517	517.0	repeat	Run3	repeat/STIM_007.jpg	100
2401.004	0.748	747.7	repeat	Run3	repeat/STIM_007.jpg	99
2404.027	0.828	828.1	repeat	Run3	repeat/STIM_008.jpg	99
2407.587	0.905	905.4	repeat	Run3	repeat/STIM_008.jpg	99
2411.65	0.808	808.1	repeat	Run3	repeat/STIM_008.jpg	99
2416.241	0.61	609.9	repeat	Run3	repeat/STIM_008.jpg	99
2419.823	0.705	704.8	repeat	Run3	repeat/STIM_008.jpg	100
2422.962	0.902	902.0	repeat	Run3	repeat/STIM_009.jpg	100
2426.207	0.794	793.5	repeat	Run3	repeat/STIM_009.jpg	100
2430.472	0.486	486.3	repeat	Run3	repeat/STIM_009.jpg	100
2434.268	0.56	560.1	repeat	Run3	repeat/STIM_009.jpg	99
2437.858	0.586	585.5	repeat	Run3	repeat/STIM_009.jpg	99
2441.131	0.53	529.8	repeat	Run3	repeat/STIM_010.jpg	99
2444.003	0.634	633.5	repeat	Run3	repeat/STIM_010.jpg	100
2446.703	0.674	673.7	repeat	Run3	repeat/STIM_010.jpg	99
2451.129	0.658	658.1	repeat	Run3	repeat/STIM_010.jpg	100
2454.259	0.523	523.0	repeat	Run3	repeat/STIM_010.jpg	100
2457.829	0.766	765.7	repeat	Run3	repeat/STIM_011.jpg	99
2462.528	0.807	807.4	repeat	Run3	repeat/STIM_011.jpg	99
2466.414	0.596	595.7	repeat	Run3	repeat/STIM_011.jpg	99
2469.577	0.797	796.8	repeat	Run3	repeat/STIM_011.jpg	99
2473.804	0.57	569.8	repeat	Run3	repeat/STIM_011.jpg	100
2476.411	0.482	482.0	repeat	Run3	repeat/STIM_012.jpg	100
2480.579	0.526	526.3	repeat	Run3	repeat/STIM_012.jpg	99
2485.101	0.822	822.3	repeat	Run3	repeat/STIM_012.jpg	99
2488.726	0.823	823.4	repeat	Run3	repeat/STIM_012.jpg	100
2492.528	0.789	788.8	repeat	Run3	repeat/STIM_012.jpg	100
2496.246	0.756	755.9	repeat	Run3	repeat/STIM_013.jpg	100
2499.986	0.893	892.6	repeat	Run3	repeat/STIM_013.jpg	99
2503.318	0.898	898.1	repeat	Run3	repeat/STIM_013.jpg	100
2506.602	0.491	490.6	repeat	Run3	repeat/STIM_013.jpg	100
2509.848	0.646	645.8	repeat	Run3	repeat/STIM_013.jpg	99
2512.512	0.603	602.8	repeat	Run3	repeat/STIM_014.jpg	100
2516.609	0.844	844.5	repeat	Run3	repeat/STIM_014.jpg	100
2520.925	0.72	720.4	repeat	Run3	repeat/STIM_014.jpg	100
2524.003	0.528	527.6	repeat	Run3	repeat/STIM_014.jpg	100
2528.35	0.464	464.2	repeat	Run3	repeat/STIM_014.jpg	100
2531.374	1.34	1339.8	generate	Run4	generate/STIM_000.jpg	99
2536.44	1.577	1577.4	generate	Run4	generate/STIM_000.jpg	99
2541.49	1.143	1142.6	generate	Run4	generate/STIM_000.jpg	99
2546.147	0.782	781.8	generate	Run4	generate/STIM_000.jpg	100
2549.022	1.576	1576.4	generate	Run4	generate/STIM_000.jpg	99
2553.082	0.787	786.8	generate	Run4	generate/STIM_001.jpg	100
2556.386	1.553	1553.2	generate	Run4	generate/STIM_001.jpg	100
2561.897	1.286	1286.3	generate	Run4	generate/STIM_001.jpg	99
2566.534	1.23	1230.5	generate	Run4	generate/STIM_001.jpg	100
2570.942	1.142	1142.0	generate	Run4	generate/STIM_001.jpg	99
2575.43	1.405	1404.7	generate	Run4	generate/STIM_002.jpg	100
2579.927	1.567	1566.6	generate	Run4	generate/STIM_002.jpg	99
2583.52	1.449	1448.7	generate	Run4	generate/STIM_002.jpg	99
2588.226	1.767	1767.3	generate	Run4	generate/STIM_002.jpg	100
2592.131	1.161	1161.0	generate	Run4	generate/STIM_002.jpg	99
2597.222	1.593	1593.4	generate	Run4	generate/STIM_003.jpg	100
2602.022	1.726	1725.8	generate	Run4	generate/STIM_003.jpg	100
2607.219	0.774	773.6	generate	Run4	generate/STIM_003.jpg	99
2611.791	1.081	1080.8	generate	Run4	generate/STIM_003.jpg	100
2616.357	1.29	1289.6	generate	Run4	generate/STIM_003.jpg	99
2621.266	1.0	999.9	generate	Run4	generate/STIM_004.jpg	99
2626.148	0.982	981.5	generate	Run4	generate/STIM_004.jpg	100
2629.699	1.513	1513.4	generate	Run4	generate/STIM_004.jpg	99
2634.848	1.373	1373.2	generate	Run4	generate/STIM_004.jpg	100
2638.512	1.617	1617.2	generate	Run4	generate/STIM_004.jpg	100
2643.954	0.924	923.8	generate	Run4	generate/STIM_005.jpg	100
2647.013	0.871	870.7	generate	Run4	generate/STIM_005.jpg	100
2651.683	0.926	925.7	generate	Run4	generate/STIM_005.jpg	100
2656.37	1.321	1321.0	generate	Run4	generate/STIM_005.jpg	99
2659.748	0.776	775.9	generate	Run4	generate/STIM_005.jpg	99
2664.151	1.148	1148.0	generate	Run4	generate/STIM_006.jpg	99
2668.236	1.061	1061.0	generate	Run4	generate/STIM_006.jpg	99
2671.991	0.892	892.2	generate	Run4	generate/STIM_006.jpg	100
2676.217	1.034	1034.1	generate	Run4	generate/STIM_006.jpg	99
2680.261	1.384	1384.0	generate	Run4	generate/STIM_006.jpg	99
2683.886	0.958	958.1	generate	Run4	generate/STIM_007.jpg	99
2688.267	1.477	1477.0	generate	Run4	generate/STIM_007.jpg	100
2691.976	0.953	953.4	generate	Run4	generate/STIM_007.jpg	100
2695.233	1.184	1183.9	generate	Run4	generate/STIM_007.jpg	100
2699.426	1.312	1312.0	generate	Run4	generate/STIM_007.jpg	100
2704.045	0.77	770.4	generate	Run4	generate/STIM_008.jpg	100
2707.621	1.426	1425.9	generate	Run4	generate/STIM_008.jpg	99
2711.883	1.458	1458.5	generate	Run4	generate/STIM_008.jpg	99
2715.753	0.813	813.3	generate	Run4	generate/STIM_008.jpg	100
2720.072	0.803	802.8	generate	Run4	generate/STIM_008.jpg	100
2723.625	1.361	1361.2	generate	Run4	generate/STIM_009.jpg	100
2727.858	1.717	1717.3	generate	Run4	generate/STIM_009.jpg	100
2733.454	1.155	1154.8	generate	Run4	generate/STIM_009.jpg	100
2736.861	1.831	1831.0	generate	Run4	generate/STIM_009.jpg	100
2741.543	0.937	937.3	generate	Run4	generate/STIM_009.jpg	100
2746.06	1.469	1468.7	generate	Run4	generate/STIM_010.jpg	99
2751.119	1.302	1301.9	generate	Run4	generate/STIM_010.jpg	99
2754.829	0.856	855.9	generate	Run4	generate/STIM_010.jpg	99
2757.804	1.255	1254.9	generate	Run4	generate/STIM_010.jpg	99
2762.63	1.452	1452.4	generate	Run4	generate/STIM_010.jpg	100
2767.853	1.883	1883.2	generate	Run4	generate/STIM_011.jpg	100
2773.307	0.982	981.7	generate	Run4	generate/STIM_011.jpg	99
2776.502	1.49	1490.4	generate	Run4	generate/STIM_011.jpg	100
2781.873	1.116	1116.3	generate	Run4	generate/STIM_011.jpg	99
2786.482	1.364	1364.1	generate	Run4	generate/STIM_011.jpg	99
2791.664	0.998	997.8	generate	Run4	generate/STIM_012.jpg	99
2795.262	1.877	1877.2	generate	Run4	generate/STIM_012.jpg	99
2799.373	1.293	1293.3	generate	Run4	generate/STIM_012.jpg	100
2804.092	1.645	1644.8	generate	Run4	generate/STIM_012.jpg	99
2808.109	1.117	1116.8	generate	Run4	generate/STIM_012.jpg	100
2811.932	1.622	1622.5	generate	Run4	generate/STIM_013.jpg	99
2816.894	1.52	1519.5	generate	Run4	generate/STIM_013.jpg	100
2822.136	1.574	1574.3	generate	Run4	generate/STIM_013.jpg	99
2827.397	1.536	1536.3	generate	Run4	generate/STIM_013.jpg	99
2831.252	1.208	1208.5	generate	Run4	generate/STIM_013.jpg	99
2836.219	0.885	884.9	generate	Run4	generate/STIM_014.jpg	100
2840.705	1.476	1476.1	generate	Run4	generate/STIM_014.jpg	100
2845.942	0.917	916.9	generate	Run4	generate/STIM_014.jpg	99
2849.267	1.611	1610.7	generate	Run4	generate/STIM_014.jpg	99
2854.527	1.537	1537.0	generate	Run4	generate/STIM_014.jpg	99
2859.858	1.85	1850.2	generate	Run4	generate/STIM_015.jpg	100
2864.402	1.51	1509.8	generate	Run4	generate/STIM_015.jpg	100
2869.863	1.246	1246.0	generate	Run4	generate/STIM_015.jpg	100
2873.884	1.789	1789.2	generate	Run4	generate/STIM_015.jpg	99
2879.66	1.196	1195.5	generate	Run4	generate/STIM_015.jpg	99
2883.14	1.622	1621.5	generate	Run4	generate/STIM_016.jpg	99
2888.157	1.461	1460.6	generate	Run4	generate/STIM_016.jpg	100
2892.794	1.236	1235.9	generate	Run4	generate/STIM_016.jpg	99
2896.094	1.018	1018.5	generate	Run4	generate/STIM_016.jpg	99
2900.981	1.45	1449.6	generate	Run4	generate/STIM_016.jpg	100
2904.776	1.475	1474.8	generate	Run4	generate/STIM_017.jpg	99
2909.871	1.585	1584.6	generate	Run4	generate/STIM_017.jpg	99
2913.656	1.16	1159.9	generate	Run4	generate/STIM_017.jpg	100
2918.58	1.381	1380.7	generate	Run4	generate/STIM_017.jpg	100
2923.636	1.738	1738.2	generate	Run4	generate/STIM_017.jpg	100
2928.099	1.181	1180.9	generate	Run4	generate/STIM_018.jpg	100
2931.807	1.518	1517.6	generate	Run4	generate/STIM_018.jpg	100
2936.272	1.119	1118.8	generate	Run4	generate/STIM_018.jpg	99
2940.199	1.087	1087.4	generate	Run4	generate/STIM_018.jpg	99
2943.708	1.057	1057.3	generate	Run4	generate/STIM_018.jpg	99
2947.732	0.896	896.2	generate	Run4	generate/STIM_019.jpg	100
2951.442	1.108	1108.5	generate	Run4	generate/STIM_019.jpg	99
2954.906	0.892	892.4	generate	Run4	generate/STIM_019.jpg	100
2959.412	1.322	1321.8	generate	Run4	generate/STIM_019.jpg	100
2964.216	0.904	903.5	generate	Run4	generate/STIM_019.jpg	100
2967.152	1.644	1643.9	generate	Run4	generate/STIM_020.jpg	99
2971.81	1.396	1396.4	generate	Run4	generate/STIM_020.jpg	100
2975.843	1.288	1288.5	generate	Run4	generate/STIM_020.jpg	100
2980.111	1.115	1114.9	generate	Run4	generate/STIM_020.jpg	100
2984.477	0.994	993.8	generate	Run4	generate/STIM_020.jpg	99
2987.865	1.122	1122.0	generate	Run4	generate/STIM_021.jpg	99
2991.231	0.79	789.6	generate	Run4	generate/STIM_021.jpg	99
2995.156	1.056	1055.6	generate	Run4	generate/STIM_021.jpg	100
2999.841	1.132	1132.5	generate	Run4	generate/STIM_021.jpg	100
3003.774	1.144	1144.2	generate	Run4	generate/STIM_021.jpg	100
3007.785	0.822	822.2	generate	Run4	generate/STIM_022.jpg	100
3011.226	0.998	998.2	generate	Run4	generate/STIM_022.jpg	100
3016.001	0.795	795.4	generate	Run4	generate/STIM_022.jpg	100
3018.86	1.38	1380.3	generate	Run4	generate/STIM_022.jpg	100
3024.227	1.177	1176.6	generate	Run4	generate/STIM_022.jpg	99
3029.058	1.798	1798.0	generate	Run4	generate/STIM_023.jpg	100
3034.16	1.463	1462.7	generate	Run4	generate/STIM_023.jpg	100
3038.127	1.886	1885.8	generate	Run4	generate/STIM_023.jpg	99
3043.736	0.882	882.4	generate	Run4	generate/STIM_023.jpg	99
3046.823	1.065	1064.6	generate	Run4	generate/STIM_023.jpg	100
3051.239	0.912	911.9	generate	Run4	generate/STIM_024.jpg	100
3054.41	1.293	1292.7	generate	Run4	generate/STIM_024.jpg	100
3058.027	1.033	1032.7	generate	Run4	generate/STIM_024.jpg	100
3061.65	1.542	1541.5	generate	Run4	generate/STIM_024.jpg	99
3067.062	1.561	1560.9	generate	Run4	generate/STIM_024.jpg	99
3071.651	0.852	851.9	repeat	Run4	repeat/STIM_000.jpg	99
3074.601	0.67	669.9	repeat	Run4	repeat/STIM_000.jpg	100
3077.557	0.741	740.8	repeat	Run4	repeat/STIM_000.jpg	99
3080.657	0.559	559.2	repeat	Run4	repeat/STIM_000.jpg	100
3083.311	0.82	820.4	repeat	Run4	repeat/STIM_000.jpg	99
3087.796	0.819	818.7	repeat	Run4	repeat/STIM_001.jpg	99
3092.352	0.49	489.6	repeat	Run4	repeat/STIM_001.jpg	99
3096.347	0.904	903.8	repeat	Run4	repeat/STIM_001.jpg	99
3099.919	0.667	666.6	repeat	Run4	repeat/STIM_001.jpg	100
3103.352	0.619	619.4	repeat	Run4	repeat/STIM_001.jpg	100
3106.965	0.681	681.0	repeat	Run4	repeat/STIM_002.jpg	99
3110.069	0.78	779.9	repeat	Run4	repeat/STIM_002.jpg	100
3114.479	0.88	879.5	repeat	Run4	repeat/STIM_002.jpg	99
3119.022	0.875	874.9	repeat	Run4	repeat/STIM_002.jpg	100
3122.382	0.554	554.1	repeat	Run4	repeat/STIM_002.jpg	100
3126.402	0.74	739.9	repeat	Run4	repeat/STIM_003.jpg	99
3130.389	0.657	657.0	repeat	Run4	repeat/STIM_003.jpg	100
3133.816	0.566	566.0	repeat	Run4	repeat/STIM_003.jpg	100
3137.336	0.801	800.8	repeat	Run4	repeat/STIM_003.jpg	100
3141.494	0.528	527.6	repeat	Run4	repeat/STIM_003.jpg	100
3145.482	0.605	604.7	repeat	Run4	repeat/STIM_004.jpg	100
3149.717	0.48	479.9	repeat	Run4	repeat/STIM_004.jpg	99
3153.655	0.454	454.3	repeat	Run4	repeat/STIM_004.jpg	100
3156.692	0.865	864.6	repeat	Run4	repeat/STIM_004.jpg	99
3160.708	0.794	793.6	repeat	Run4	repeat/STIM_004.jpg	100
3164.497	0.79	790.5	repeat	Run4	repeat/STIM_005.jpg	99
3168.343	0.602	601.6	repeat	Run4	repeat/STIM_005.jpg	99
3172.353	0.567	566.7	repeat	Run4	repeat/STIM_005.jpg	99
3176.101	0.766	766.4	repeat	Run4	repeat/STIM_005.jpg	100
3180.56	0.904	904.1	repeat	Run4	repeat/STIM_005.jpg	99
3184.102	0.559	559.4	repeat	Run4	repeat/STIM_006.jpg	100
3187.463	0.692	691.7	repeat	Run4	repeat/STIM_006.jpg	99
3191.592	0.622	622.0	repeat	Run4	repeat/STIM_006.jpg	99
3195.642	0.66	659.9	repeat	Run4	repeat/STIM_006.jpg	100
3199.02	0.602	601.9	repeat	Run4	repeat/STIM_006.jpg	100
3201.636	0.463	463.4	repeat	Run4	repeat/STIM_007.jpg	99
3205.641	0.767	766.9	repeat	Run4	repeat/STIM_007.jpg	100
3208.84	0.577	576.8	repeat	Run4	repeat/STIM_007.jpg	100
3212.517	0.77	769.8	repeat	Run4	repeat/STIM_007.jpg	99
3216.249	0.779	779.2	repeat	Run4	repeat/STIM_007.jpg	100
3220.507	0.871	871.2	repeat	Run4	repeat/STIM_008.jpg	99
3223.678	0.814	813.6	repeat	Run4	repeat/STIM_008.jpg	100
3226.808	0.822	821.8	repeat	Run4	repeat/STIM_008.jpg	100
3230.927	0.872	871.7	repeat	Run4	repeat/STIM_008.jpg	99
3233.955	0.857	857.2	repeat	Run4	repeat/STIM_008.jpg	100
3236.911	0.541	541.3	repeat	Run4	repeat/STIM_009.jpg	100
3240.665	0.9	900.3	repeat	Run4	repeat/STIM_009.jpg	99
3244.94	0.56	559.8	repeat	Run4	repeat/STIM_009.jpg	100
3249.167	0.836	836.2	repeat	Run4	repeat/STIM_009.jpg	99
3253.108	0.471	470.9	repeat	Run4	repeat/STIM_009.jpg	100
3256.339	0.736	736.0	repeat	Run4	repeat/STIM_010.jpg	99
3259.23	0.627	627.0	repeat	Run4	repeat/STIM_010.jpg	100
3263.345	0.733	733.0	repeat	Run4	repeat/STIM_010.jpg	99
3267.369	0.692	692.0	repeat	Run4	repeat/STIM_010.jpg	100
3270.265	0.637	637.1	repeat	Run4	repeat/STIM_010.jpg	99
3273.255	0.593	593.1	repeat	Run4	repeat/STIM_011.jpg	99
3276.641	0.735	734.9	repeat	Run4	repeat/STIM_011.jpg	99
3280.734	0.887	886.8	repeat	Run4	repeat/STIM_011.jpg	99
3284.161	0.751	750.6	repeat	Run4	repeat/STIM_011.jpg	100
3287.028	0.618	617.9	repeat	Run4	repeat/STIM_011.jpg	100
3289.683	0.709	708.7	repeat	Run4	repeat/STIM_012.jpg	99
3293.633	0.703	702.9	repeat	Run4	repeat/STIM_012.jpg	99
3298.143	0.569	569.1	repeat	Run4	repeat/STIM_012.jpg	99
3302.316	0.731	731.4	repeat	Run4	repeat/STIM_012.jpg	99
3305.064	0.906	905.7	repeat	Run4	repeat/STIM_012.jpg	99
3308.379	0.584	584.3	repeat	Run4	repeat/STIM_013.jpg	100
3312.358	0.655	655.1	repeat	Run4	repeat/STIM_013.jpg	100
3316.977	0.565	564.8	repeat	Run4	repeat/STIM_013.jpg	99
3320.537	0.531	530.8	repeat	Run4	repeat/STIM_013.jpg	100
3324.381	0.577	576.7	repeat	Run4	repeat/STIM_013.jpg	100
3328.812	0.725	724.7	repeat	Run4	repeat/STIM_014.jpg	99
3331.657	0.721	721.3	repeat	Run4	repeat/STIM_014.jpg	99
3336.242	0.807	807.2	repeat	Run4	repeat/STIM_014.jpg	100
3339.892	0.796	796.4	repeat	Run4	repeat/STIM_014.jpg	99
3343.228	0.715	714.9	repeat	Run4	repeat/STIM_014.jpg	100
