onset	duration	response_time_ms	trial_type	learning_stage	stimulus	response_port
0.0	2.783	2783.2	generate	Run1	generate/STIM_000.jpg	99
6.212	2.347	2347.1	generate	Run1	generate/STIM_000.jpg	100
10.986	1.838	1837.9	generate	Run1	generate/STIM_000.jpg	100
16.371	1.525	1524.6	generate	Run1	generate/STIM_000.jpg	99
21.285	1.321	1321.3	generate	Run1	generate/STIM_000.jpg	100
25.687	1.941	1941.4	generate	Run1	generate/STIM_001.jpg	100
30.581	1.321	1321.3	generate	Run1	generate/STIM_001.jpg	99
34.068	1.329	1328.9	generate	Run1	generate/STIM_001.jpg	100
38.307	1.038	1038.1	generate	Run1	generate/STIM_001.jpg	100
41.561	1.559	1558.7	generate	Run1	generate/STIM_001.jpg	100
46.212	1.314	1313.5	generate	Run1	generate/STIM_002.jpg	100
49.535	1.897	1897.1	generate	Run1	generate/STIM_002.jpg	99
55.159	1.972	1972.3	generate	Run1	generate/STIM_002.jpg	99
59.936	1.876	1875.7	generate	Run1	generate/STIM_002.jpg	99
64.841	1.758	1757.5	generate	Run1	generate/STIM_002.jpg	99
69.211	1.674	1674.4	generate	Run1	generate/STIM_003.jpg	100
72.986	2.806	2805.6	generate	Run1	generate/STIM_003.jpg	99
79.247	1.455	1455.4	generate	Run1	generate/STIM_003.jpg	100
82.997	2.084	2084.5	generate	Run1	generate/STIM_003.jpg	100
87.277	2.083	2083.2	generate	Run1	generate/STIM_003.jpg	99
92.939	1.893	1892.9	generate	Run1	generate/STIM_004.jpg	100
97.102	1.352	1352.5	generate	Run1	generate/STIM_004.jpg	100
101.913	2.269	2268.8	generate	Run1	generate/STIM_004.jpg	100
107.025	2.177	2177.1	generate	Run1	generate/STIM_004.jpg	100
112.428	1.865	1864.9	generate	Run1	generate/STIM_004.jpg	100
117.561	2.098	2097.7	generate	Run1	generate/STIM_005.jpg	100
121.759	1.941	1940.6	generate	Run1	generate/STIM_005.jpg	99
127.471	1.98	1979.9	generate	Run1	generate/STIM_005.jpg	99
133.18	1.546	1545.7	generate	Run1	generate/STIM_005.jpg	99
138.268	1.903	1903.3	generate	Run1	generate/STIM_005.jpg	99
143.604	1.733	1733.1	generate	Run1	generate/STIM_006.jpg	99
148.123	2.503	2502.9	generate	Run1	generate/STIM_006.jpg	99
153.311	2.594	2593.6	generate	Run1	generate/STIM_006.jpg	100
159.43	2.419	2419.1	generate	Run1	generate/STIM_006.jpg	100
164.758	1.033	1032.7	generate	Run1	generate/STIM_006.jpg	100
168.767	1.82	1820.2	generate	Run1	generate/STIM_007.jpg	100
173.047	1.63	1629.6	generate	Run1	generate/STIM_007.jpg	100
177.122	2.424	2423.9	generate	Run1	generate/STIM_007.jpg	100
182.456	1.468	1468.3	generate	Run1	generate/STIM_007.jpg	99
186.272	1.068	1068.1	generate	Run1	generate/STIM_007.jpg	99
189.521	2.982	2981.7	generate	Run1	generate/STIM_008.jpg	100
195.832	1.99	1989.8	generate	Run1	generate/STIM_008.jpg	100
200.25	1.265	1264.8	generate	Run1	generate/STIM_008.jpg	100
203.728	1.228	1228.1	generate	Run1	generate/STIM_008.jpg	99
208.504	2.233	2233.2	generate	Run1	generate/STIM_008.jpg	99
212.84	2.711	2710.8	generate	Run1	generate/STIM_009.jpg	99
217.666	1.942	1941.7	generate	Run1	generate/STIM_009.jpg	99
221.87	1.718	1717.6	generate	Run1	generate/STIM_009.jpg	100
226.824	1.815	1815.1	generate	Run1	generate/STIM_009.jpg	100
231.399	1.087	1086.9	generate	Run1	generate/STIM_009.jpg	99
235.15	1.859	1858.9	generate	Run1	generate/STIM_010.jpg	99
240.605	1.302	1302.5	generate	Run1	generate/STIM_010.jpg	99
244.779	1.096	1095.8	generate	Run1	generate/STIM_010.jpg	99
248.896	1.238	1238.2	generate	Run1	generate/STIM_010.jpg	99
252.628	1.403	1402.6	generate	Run1	generate/STIM_010.jpg	100
256.326	1.926	1926.3	generate	Run1	generate/STIM_011.jpg	99
260.886	2.594	2593.9	generate	Run1	generate/STIM_011.jpg	99
265.891	1.547	1547.1	generate	Run1	generate/STIM_011.jpg	99
269.978	2.214	2214.4	generate	Run1	generate/STIM_011.jpg	100
274.616	1.294	1293.8	generate	Run1	generate/STIM_011.jpg	100
279.798	1.656	1655.7	generate	Run1	generate/STIM_012.jpg	100
284.816	2.296	2296.0	generate	Run1	generate/STIM_012.jpg	100
289.265	2.62	2619.5	generate	Run1	generate/STIM_012.jpg	100
295.461	1.579	1578.9	generate	Run1	generate/STIM_012.jpg	99
299.141	1.521	1520.8	generate	Run1	generate/STIM_012.jpg	99
304.423	2.084	2083.8	generate	Run1	generate/STIM_013.jpg	99
309.025	1.914	1914.4	generate	Run1	generate/STIM_013.jpg	99
313.134	2.675	2675.4	generate	Run1	generate/STIM_013.jpg	100
318.586	1.132	1131.9	generate	Run1	generate/STIM_013.jpg	100
322.185	2.345	2345.1	generate	Run1	generate/STIM_013.jpg	100
327.951	1.573	1572.9	generate	Run1	generate/STIM_014.jpg	100
331.755	2.029	2028.8	generate	Run1	generate/STIM_014.jpg	99
336.513	1.249	1248.6	generate	Run1	generate/STIM_014.jpg	99
341.017	1.366	1366.4	generate	Run1	generate/STIM_014.jpg	100
345.359	2.365	2365.0	generate	Run1	generate/STIM_014.jpg	99
351.258	2.326	2325.6	generate	Run1	generate/STIM_015.jpg	99
355.87	2.2	2200.3	generate	Run1	generate/STIM_015.jpg	99
361.356	2.084	2084.1	generate	Run1	generate/STIM_015.jpg	99
367.126	1.11	1110.4	generate	Run1	generate/STIM_015.jpg	99
371.651	2.186	2185.5	generate	Run1	generate/STIM_015.jpg	100
377.082	1.461	1460.7	generate	Run1	generate/STIM_016.jpg	99
381.992	1.539	1538.6	generate	Run1	generate/STIM_016.jpg	100
387.278	2.594	2594.3	generate	Run1	generate/STIM_016.jpg	100
392.65	1.185	1185.4	generate	Run1	generate/STIM_016.jpg	99
396.929	1.468	1467.7	generate	Run1	generate/STIM_016.jpg	99
401.165	2.697	2696.7	generate	Run1	generate/STIM_017.jpg	99
406.553	2.446	2446.3	generate	Run1	generate/STIM_017.jpg	99
412.247	1.117	1117.4	generate	Run1	generate/STIM_017.jpg	99
416.095	1.948	1948.1	generate	Run1	generate/STIM_017.jpg	99
420.768	1.082	1082.4	generate	Run1	generate/STIM_017.jpg	100
424.113	2.384	2383.5	generate	Run1	generate/STIM_018.jpg	100
429.246	1.166	1165.5	generate	Run1	generate/STIM_018.jpg	100
433.418	1.26	1260.0	generate	Run1	generate/STIM_018.jpg	100
437.732	2.437	2437.0	generate	Run1	generate/STIM_018.jpg	100
443.529	1.413	1412.6	generate	Run1	generate/STIM_018.jpg	100
448.66	1.498	1498.0	generate	Run1	generate/STIM_019.jpg	99
454.131	2.65	2650.2	generate	Run1	generate/STIM_019.jpg	99
458.988	1.31	1310.4	generate	Run1	generate/STIM_019.jpg	99
463.698	1.734	1734.2	generate	Run1	generate/STIM_019.jpg	100
468.353	2.229	2229.4	generate	Run1	generate/STIM_019.jpg	100
472.707	1.815	1815.2	generate	Run1	generate/STIM_020.jpg	99
476.635	1.335	1334.8	generate	Run1	generate/STIM_020.jpg	100
481.583	1.334	1333.6	generate	Run1	generate/STIM_020.jpg	100
485.002	2.274	2273.5	generate	Run1	generate/STIM_020.jpg	99
489.905	2.275	2275.4	generate	Run1	generate/STIM_020.jpg	99
495.555	2.252	2252.0	generate	Run1	generate/STIM_021.jpg	100
500.185	2.768	2767.9	generate	Run1	generate/STIM_021.jpg	100
505.894	2.515	2515.3	generate	Run1	generate/STIM_021.jpg	99
512.002	1.661	1661.1	generate	Run1	generate/STIM_021.jpg	99
516.413	1.215	1214.8	generate	Run1	generate/STIM_021.jpg	99
520.489	2.351	2351.2	generate	Run1	generate/STIM_022.jpg	100
525.985	2.847	2846.8	generate	Run1	generate/STIM_022.jpg	100
532.522	2.144	2143.8	generate	Run1	generate/STIM_022.jpg	100
538.116	1.437	1437.1	generate	Run1	generate/STIM_022.jpg	100
541.882	1.32	1319.7	generate	Run1	generate/STIM_022.jpg	99
547.101	2.662	2661.7	generate	Run1	generate/STIM_023.jpg	99
552.759	1.444	1443.6	generate	Run1	generate/STIM_023.jpg	99
557.644	1.628	1628.2	generate	Run1	generate/STIM_023.jpg	99
561.687	1.79	1790.3	generate	Run1	generate/STIM_023.jpg	99
566.815	1.477	1476.9	generate	Run1	generate/STIM_023.jpg	99
571.022	1.725	1725.4	generate	Run1	generate/STIM_024.jpg	100
576.505	1.798	1798.0	generate	Run1	generate/STIM_024.jpg	100
581.066	2.027	2027.3	generate	Run1	generate/STIM_024.jpg	100
586.795	2.199	2198.7	generate	Run1	generate/STIM_024.jpg	99
591.295	1.844	1844.2	generate	Run1	generate/STIM_024.jpg	99
596.057	0.72	720.4	repeat	Run1	repeat/STIM_000.jpg	100
599.269	0.831	831.1	repeat	Run1	repeat/STIM_000.jpg	100
603.314	0.711	710.9	repeat	Run1	repeat/STIM_000.jpg	100
606.146	0.853	853.1	repeat	Run1	repeat/STIM_000.jpg	99
609.602	0.738	738.4	repeat	Run1	repeat/STIM_000.jpg	100
612.587	0.741	741.2	repeat	Run1	repeat/STIM_001.jpg	99
616.554	0.978	978.3	repeat	Run1	repeat/STIM_001.jpg	99
620.145	0.592	591.9	repeat	Run1	repeat/STIM_001.jpg	99
624.303	0.529	528.6	repeat	Run1	repeat/STIM_001.jpg	99
627.692	0.523	522.8	repeat	Run1	repeat/STIM_001.jpg	99
631.035	0.672	672.5	repeat	Run1	repeat/STIM_002.jpg	100
633.862	0.942	941.8	repeat	Run1	repeat/STIM_002.jpg	100
637.715	0.727	726.6	repeat	Run1	repeat/STIM_002.jpg	100
641.322	0.744	744.1	repeat	Run1	repeat/STIM_002.jpg	100
645.437	0.952	951.6	repeat	Run1	repeat/STIM_002.jpg	100
650.183	0.704	703.7	repeat	Run1	repeat/STIM_003.jpg	99
653.936	0.747	747.3	repeat	Run1	repeat/STIM_003.jpg	100
657.405	0.657	657.0	repeat	Run1	repeat/STIM_003.jpg	99
660.877	0.964	964.3	repeat	Run1	repeat/STIM_003.jpg	100
664.054	0.657	656.7	repeat	Run1	repeat/STIM_003.jpg	100
667.92	0.766	765.8	repeat	Run1	repeat/STIM_004.jpg	100
671.388	0.566	565.9	repeat	Run1	repeat/STIM_004.jpg	99
674.931	0.943	942.8	repeat	Run1	repeat/STIM_004.jpg	100
678.347	0.896	895.9	repeat	Run1	repeat/STIM_004.jpg	100
682.665	0.644	643.9	repeat	Run1	repeat/STIM_004.jpg	100
685.742	0.964	964.1	repeat	Run1	repeat/STIM_005.jpg	100
689.199	0.67	670.5	repeat	Run1	repeat/STIM_005.jpg	99
693.127	0.633	632.9	repeat	Run1	repeat/STIM_005.jpg	100
696.53	0.556	555.7	repeat	Run1	repeat/STIM_005.jpg	100
700.371	0.539	538.8	repeat	Run1	repeat/STIM_005.jpg	100
704.725	0.508	508.2	repeat	Run1	repeat/STIM_006.jpg	100
707.442	0.702	702.1	repeat	Run1	repeat/STIM_006.jpg	99
711.546	0.821	821.3	repeat	Run1	repeat/STIM_006.jpg	100
715.683	0.954	954.5	repeat	Run1	repeat/STIM_006.jpg	99
719.199	0.884	883.5	repeat	Run1	repeat/STIM_006.jpg	99
722.637	0.813	813.2	repeat	Run1	repeat/STIM_007.jpg	99
727.413	0.664	664.0	repeat	Run1	repeat/STIM_007.jpg	99
731.472	0.521	521.2	repeat	Run1	repeat/STIM_007.jpg	99
734.9	0.564	564.5	repeat	Run1	repeat/STIM_007.jpg	99
738.16	0.743	742.8	repeat	Run1	repeat/STIM_007.jpg	99
741.175	0.804	804.5	repeat	Run1	repeat/STIM_008.jpg	100
744.57	0.702	702.2	repeat	Run1	repeat/STIM_008.jpg	100
749.059	0.888	888.3	repeat	Run1	repeat/STIM_008.jpg	100
752.384	0.94	940.1	repeat	Run1	repeat/STIM_008.jpg	100
755.976	0.888	888.0	repeat	Run1	repeat/STIM_008.jpg	100
760.674	0.501	501.5	repeat	Run1	repeat/STIM_009.jpg	99
765.087	0.66	660.2	repeat	Run1	repeat/STIM_009.jpg	100
768.151	0.97	970.2	repeat	Run1	repeat/STIM_009.jpg	99
771.951	0.74	739.5	repeat	Run1	repeat/STIM_009.jpg	100
775.743	0.788	788.5	repeat	Run1	repeat/STIM_009.jpg	99
778.782	0.629	629.4	repeat	Run1	repeat/STIM_010.jpg	99
783.262	0.793	792.9	repeat	Run1	repeat/STIM_010.jpg	100
787.122	0.947	946.7	repeat	Run1	repeat/STIM_010.jpg	99
790.454	0.585	585.2	repeat	Run1	repeat/STIM_010.jpg	100
793.931	0.815	815.3	repeat	Run1	repeat/STIM_010.jpg	99
797.98	0.913	912.9	repeat	Run1	repeat/STIM_011.jpg	99
802.485	0.635	635.1	repeat	Run1	repeat/STIM_011.jpg	99
805.731	0.895	895.4	repeat	Run1	repeat/STIM_011.jpg	99
810.428	0.594	594.1	repeat	Run1	repeat/STIM_011.jpg	100
814.598	0.544	544.1	repeat	Run1	repeat/STIM_011.jpg	100
818.867	0.926	926.0	repeat	Run1	repeat/STIM_012.jpg	100
822.005	0.58	579.5	repeat	Run1	repeat/STIM_012.jpg	100
825.792	0.6	600.5	repeat	Run1	repeat/STIM_012.jpg	99
829.449	0.962	962.0	repeat	Run1	repeat/STIM_012.jpg	100
832.976	0.572	572.2	repeat	Run1	repeat/STIM_012.jpg	99
836.676	0.53	530.2	repeat	Run1	repeat/STIM_013.jpg	100
840.527	0.855	855.2	repeat	Run1	repeat/STIM_013.jpg	99
844.643	0.619	619.3	repeat	Run1	repeat/STIM_013.jpg	100
849.145	0.986	985.7	repeat	Run1	repeat/STIM_013.jpg	100
852.47	0.639	638.9	repeat	Run1	repeat/STIM_013.jpg	100
855.587	0.577	576.8	repeat	Run1	repeat/STIM_014.jpg	100
858.639	0.783	782.6	repeat	Run1	repeat/STIM_014.jpg	100
862.457	0.818	817.7	repeat	Run1	repeat/STIM_014.jpg	99
865.885	0.829	828.7	repeat	Run1	repeat/STIM_014.jpg	100
870.264	0.857	856.6	repeat	Run1	repeat/STIM_014.jpg	100
874.458	1.07	1070.2	generate	Run2	generate/STIM_000.jpg	100
877.778	1.705	1704.6	generate	Run2	generate/STIM_000.jpg	99
883.09	1.94	1939.8	generate	Run2	generate/STIM_000.jpg	100
887.382	1.861	1861.2	generate	Run2	generate/STIM_000.jpg	99
891.808	1.347	1347.3	generate	Run2	generate/STIM_000.jpg	100
895.929	1.092	1091.5	generate	Run2	generate/STIM_001.jpg	99
900.169	2.358	2357.7	generate	Run2	generate/STIM_001.jpg	100
905.596	1.942	1941.8	generate	Run2	generate/STIM_001.jpg	99
911.395	1.054	1053.8	generate	Run2	generate/STIM_001.jpg	99
914.455	1.214	1213.5	generate	Run2	generate/STIM_001.jpg	100
918.081	1.222	1222.2	generate	Run2	generate/STIM_002.jpg	99
922.836	1.327	1326.6	generate	Run2	generate/STIM_002.jpg	100
927.393	2.112	2111.5	generate	Run2	generate/STIM_002.jpg	100
932.222	1.896	1895.8	generate	Run2	generate/STIM_002.jpg	100
937.708	1.285	1284.9	generate	Run2	generate/STIM_002.jpg	100
941.829	2.554	2554.0	generate	Run2	generate/STIM_003.jpg	100
947.691	2.231	2230.8	generate	Run2	generate/STIM_003.jpg	100
953.489	1.048	1048.2	generate	Run2	generate/STIM_003.jpg	100
958.457	1.674	1674.1	generate	Run2	generate/STIM_003.jpg	99
962.452	1.453	1453.0	generate	Run2	generate/STIM_003.jpg	99
967.53	2.176	2176.3	generate	Run2	generate/STIM_004.jpg	100
973.471	1.539	1539.3	generate	Run2	generate/STIM_004.jpg	99
978.167	1.511	1511.3	generate	Run2	generate/STIM_004.jpg	99
981.833	1.705	1704.7	generate	Run2	generate/STIM_004.jpg	99
987.465	1.637	1637.3	generate	Run2	generate/STIM_004.jpg	100
991.835	1.253	1252.9	generate	Run2	generate/STIM_005.jpg	99
995.531	1.978	1977.6	generate	Run2	generate/STIM_005.jpg	99
999.883	2.242	2242.5	generate	Run2	generate/STIM_005.jpg	99
1005.125	0.994	994.3	generate	Run2	generate/STIM_005.jpg	99
1009.101	1.796	1796.0	generate	Run2	generate/STIM_005.jpg	99
1014.481	2.426	2425.6	generate	Run2	generate/STIM_006.jpg	100
1020.193	1.272	1272.4	generate	Run2	generate/STIM_006.jpg	100
1024.694	1.47	1470.4	generate	Run2	generate/STIM_006.jpg	99
1028.865	2.068	2067.7	generate	Run2	generate/STIM_006.jpg	99
1034.78	1.029	1029.4	generate	Run2	generate/STIM_006.jpg	100
1039.13	1.253	1252.8	generate	Run2	generate/STIM_007.jpg	99
1044.184	1.392	1392.5	generate	Run2	generate/STIM_007.jpg	100
1047.933	1.668	1667.8	generate	Run2	generate/STIM_007.jpg	99
1052.946	1.174	1174.2	generate	Run2	generate/STIM_007.jpg	99
1056.996	1.76	1759.6	generate	Run2	generate/STIM_007.jpg	100
1060.761	2.241	2241.3	generate	Run2	generate/STIM_008.jpg	99
1065.792	1.663	1663.2	generate	Run2	generate/STIM_008.jpg	99
1070.532	1.737	1737.0	generate	Run2	generate/STIM_008.jpg	99
1075.779	2.047	2047.2	generate	Run2	generate/STIM_008.jpg	100
1081.163	1.474	1474.4	generate	Run2	generate/STIM_008.jpg	100
1084.936	2.072	2072.5	generate	Run2	generate/STIM_009.jpg	99
1090.136	1.611	1610.7	generate	Run2	generate/STIM_009.jpg	99
1094.375	1.078	1077.7	generate	Run2	generate/STIM_009.jpg	99
1098.108	1.658	1658.1	generate	Run2	generate/STIM_009.jpg	100
1102.395	1.13	1129.8	generate	Run2	generate/STIM_009.jpg	100
1107.434	2.24	2240.1	generate	Run2	generate/STIM_010.jpg	100
1112.454	1.284	1283.7	generate	Run2	generate/STIM_010.jpg	99
1116.205	0.954	953.8	generate	Run2	generate/STIM_010.jpg	99
1119.55	1.082	1082.1	generate	Run2	generate/STIM_010.jpg	100
1122.804	1.962	1962.5	generate	Run2	generate/STIM_010.jpg	99
1126.911	2.315	2314.9	generate	Run2	generate/STIM_011.jpg	100
1132.279	1.571	1570.7	generate	Run2	generate/STIM_011.jpg	100
1135.95	1.141	1140.7	generate	Run2	generate/STIM_011.jpg	100
1139.254	0.904	904.4	generate	Run2	generate/STIM_011.jpg	100
1142.303	1.463	1462.7	generate	Run2	generate/STIM_011.jpg	100
1147.584	1.378	1378.3	generate	Run2	generate/STIM_012.jpg	100
1151.805	1.952	1952.2	generate	Run2	generate/STIM_012.jpg	99
1156.606	1.258	1257.9	generate	Run2	generate/STIM_012.jpg	100
1160.647	1.602	1602.1	generate	Run2	generate/STIM_012.jpg	99
1165.422	1.017	1016.8	generate	Run2	generate/STIM_012.jpg	99
1170.13	2.441	2440.6	generate	Run2	generate/STIM_013.jpg	100
1175.775	1.449	1449.4	generate	Run2	generate/STIM_013.jpg	99
1180.44	1.832	1831.7	generate	Run2	generate/STIM_013.jpg	99
1184.999	1.594	1594.1	generate	Run2	generate/STIM_013.jpg	100
1189.684	1.474	1474.0	generate	Run2	generate/STIM_013.jpg	99
1194.002	1.97	1969.9	generate	Run2	generate/STIM_014.jpg	99
1198.138	2.118	2118.3	generate	Run2	generate/STIM_014.jpg	100
1202.829	0.93	930.3	generate	Run2	generate/STIM_014.jpg	99
1205.79	1.696	1696.4	generate	Run2	generate/STIM_014.jpg	100
1210.685	1.969	1968.9	generate	Run2	generate/STIM_014.jpg	99
1214.664	1.788	1787.6	generate	Run2	generate/STIM_015.jpg	100
1219.565	2.308	2308.2	generate	Run2	generate/STIM_015.jpg	100
1224.965	1.31	1309.7	generate	Run2	generate/STIM_015.jpg	99
1228.658	1.037	1037.1	generate	Run2	generate/STIM_015.jpg	100
1232.364	1.289	1288.8	generate	Run2	generate/STIM_015.jpg	99
1236.077	1.556	1555.8	generate	Run2	generate/STIM_016.jpg	100
1239.713	2.094	2093.6	generate	Run2	generate/STIM_016.jpg	100
1243.988	1.154	1154.0	generate	Run2	generate/STIM_016.jpg	100
1247.343	0.866	866.5	generate	Run2	generate/STIM_016.jpg	99
1251.002	1.222	1221.5	generate	Run2	generate/STIM_016.jpg	100
1255.754	2.322	2322.4	generate	Run2	generate/STIM_017.jpg	100
1260.913	2.346	2345.7	generate	Run2	generate/STIM_017.jpg	99
1266.448	1.539	1538.6	generate	Run2	generate/STIM_017.jpg	99
1270.256	0.952	952.1	generate	Run2	generate/STIM_017.jpg	100
1274.015	1.408	1408.0	generate	Run2	generate/STIM_017.jpg	100
1278.758	1.706	1705.9	generate	Run2	generate/STIM_018.jpg	100
1282.792	1.601	1600.7	generate	Run2	generate/STIM_018.jpg	99
1286.621	1.923	1922.9	generate	Run2	generate/STIM_018.jpg	99
1291.131	1.027	1026.6	generate	Run2	generate/STIM_018.jpg	99
1295.626	1.259	1259.2	generate	Run2	generate/STIM_018.jpg	99
1300.463	2.033	2033.0	generate	Run2	generate/STIM_019.jpg	100
1304.784	1.397	1397.4	generate	Run2	generate/STIM_019.jpg	100
1308.894	1.493	1492.8	generate	Run2	generate/STIM_019.jpg	100
1312.678	1.018	1017.5	generate	Run2	generate/STIM_019.jpg	99
1316.151	1.182	1182.2	generate	Run2	generate/STIM_019.jpg	100
1320.592	2.391	2391.0	generate	Run2	generate/STIM_020.jpg	99
1325.773	1.447	1447.4	generate	Run2	generate/STIM_020.jpg	100
1331.085	1.228	1227.9	generate	Run2	generate/STIM_020.jpg	99
1335.323	1.023	1022.9	generate	Run2	generate/STIM_020.jpg	100
1339.192	1.288	1287.7	generate	Run2	generate/STIM_020.jpg	100
1344.408	1.796	1796.4	generate	Run2	generate/STIM_021.jpg	100
1348.589	1.416	1415.8	generate	Run2	generate/STIM_021.jpg	100
1353.238	1.418	1418.4	generate	Run2	generate/STIM_021.jpg	99
1357.978	0.966	966.5	generate	Run2	generate/STIM_021.jpg	99
1362.333	1.338	1337.8	generate	Run2	generate/STIM_021.jpg	99
1366.797	1.95	1950.3	generate	Run2	generate/STIM_022.jpg	100
1372.543	1.741	1741.2	generate	Run2	generate/STIM_022.jpg	99
1377.842	1.915	1915.3	generate	Run2	generate/STIM_022.jpg	99
1383.074	0.874	873.6	generate	Run2	generate/STIM_022.jpg	99
1386.433	1.831	1830.8	generate	Run2	generate/STIM_022.jpg	99
1392.134	1.981	1981.0	generate	Run2	generate/STIM_023.jpg	99
1396.249	1.317	1317.3	generate	Run2	generate/STIM_023.jpg	99
1400.228	1.74	1739.8	generate	Run2	generate/STIM_023.jpg	100
1405.365	1.46	1460.2	generate	Run2	generate/STIM_023.jpg	99
1410.22	1.52	1519.7	generate	Run2	generate/STIM_023.jpg	100
1414.621	2.31	2310.5	generate	Run2	generate/STIM_024.jpg	100
1420.533	1.997	1996.6	generate	Run2	generate/STIM_024.jpg	99
1425.106	2.207	2207.3	generate	Run2	generate/STIM_024.jpg	99
1429.371	2.058	2058.4	generate	Run2	generate/STIM_024.jpg	99
1433.56	1.416	1415.5	generate	Run2	generate/STIM_024.jpg	100
1437.618	0.993	992.6	repeat	Run2	repeat/STIM_000.jpg	99
1440.955	0.669	669.3	repeat	Run2	repeat/STIM_000.jpg	99
1445.082	0.954	953.8	repeat	Run2	repeat/STIM_000.jpg	100
1449.955	0.896	895.9	repeat	Run2	repeat/STIM_000.jpg	99
1453.57	0.901	901.1	repeat	Run2	repeat/STIM_000.jpg	99
1458.275	0.644	644.1	repeat	Run2	repeat/STIM_001.jpg	99
1462.595	0.9	900.4	repeat	Run2	repeat/STIM_001.jpg	99
1465.863	0.7	699.9	repeat	Run2	repeat/STIM_001.jpg	99
1469.022	0.972	971.6	repeat	Run2	repeat/STIM_001.jpg	100
1472.565	0.916	916.3	repeat	Run2	repeat/STIM_001.jpg	100
1476.114	0.965	965.0	repeat	Run2	repeat/STIM_002.jpg	99
1479.848	0.944	944.1	repeat	Run2	repeat/STIM_002.jpg	100
1483.562	0.616	616.5	repeat	Run2	repeat/STIM_002.jpg	99
1487.734	0.61	610.2	repeat	Run2	repeat/STIM_002.jpg	100
1490.746	0.632	631.9	repeat	Run2	repeat/STIM_002.jpg	99
1494.924	0.786	785.5	repeat	Run2	repeat/STIM_003.jpg	100
1498.986	0.726	726.0	repeat	Run2	repeat/STIM_003.jpg	100
1502.754	0.931	931.3	repeat	Run2	repeat/STIM_003.jpg	100
1507.442	0.634	633.7	repeat	Run2	repeat/STIM_003.jpg	100
1511.252	0.546	546.3	repeat	Run2	repeat/STIM_003.jpg	99
1515.244	0.869	869.1	repeat	Run2	repeat/STIM_004.jpg	99
1518.42	0.807	807.2	repeat	Run2	repeat/STIM_004.jpg	100
1521.644	0.963	962.9	repeat	Run2	repeat/STIM_004.jpg	99
1525.844	0.931	930.8	repeat	Run2	repeat/STIM_004.jpg	99
1529.892	0.894	894.3	repeat	Run2	repeat/STIM_004.jpg	100
1534.184	0.774	773.7	repeat	Run2	repeat/STIM_005.jpg	99
1538.454	0.526	526.2	repeat	Run2	repeat/STIM_005.jpg	99
1541.229	0.651	650.8	repeat	Run2	repeat/STIM_005.jpg	100
1544.489	0.846	845.5	repeat	Run2	repeat/STIM_005.jpg	99
1548.99	0.803	803.2	repeat	Run2	repeat/STIM_005.jpg	99
1553.472	0.825	825.3	repeat	Run2	repeat/STIM_006.jpg	100
1557.206	0.642	642.0	repeat	Run2	repeat/STIM_006.jpg	100
1561.507	0.905	905.1	repeat	Run2	repeat/STIM_006.jpg	99
1565.99	0.727	726.6	repeat	Run2	repeat/STIM_006.jpg	100
1569.862	0.876	875.9	repeat	Run2	repeat/STIM_006.jpg	99
1573.054	0.818	817.6	repeat	Run2	repeat/STIM_007.jpg	100
1577.749	0.568	567.9	repeat	Run2	repeat/STIM_007.jpg	99
1581.341	0.652	652.5	repeat	Run2	repeat/STIM_007.jpg	99
1585.064	0.511	510.7	repeat	Run2	repeat/STIM_007.jpg	100
1589.42	0.626	625.5	repeat	Run2	repeat/STIM_007.jpg	99
1592.081	0.636	636.4	repeat	Run2	repeat/STIM_008.jpg	99
1596.606	0.936	936.1	repeat	Run2	repeat/STIM_008.jpg	100
1600.996	0.693	692.8	repeat	Run2	repeat/STIM_008.jpg	99
1604.24	0.731	731.3	repeat	Run2	repeat/STIM_008.jpg	99
1607.518	0.989	989.1	repeat	Run2	repeat/STIM_008.jpg	99
1610.629	0.646	645.8	repeat	Run2	repeat/STIM_009.jpg	100
1613.389	0.639	638.8	repeat	Run2	repeat/STIM_009.jpg	100
1617.903	0.634	634.2	repeat	Run2	repeat/STIM_009.jpg	99
1621.672	0.734	733.9	repeat	Run2	repeat/STIM_009.jpg	99
1626.092	0.819	819.1	repeat	Run2	repeat/STIM_009.jpg	99
1629.346	0.673	672.7	repeat	Run2	repeat/STIM_010.jpg	100
1633.872	0.783	783.2	repeat	Run2	repeat/STIM_010.jpg	99
1637.824	0.954	953.6	repeat	Run2	repeat/STIM_010.jpg	99
1642.573	0.822	821.8	repeat	Run2	repeat/STIM_010.jpg	100
1645.822	0.738	738.4	repeat	Run2	repeat/STIM_010.jpg	100
1650.029	0.748	748.4	repeat	Run2	repeat/STIM_011.jpg	99
1654.493	0.519	518.8	repeat	Run2	repeat/STIM_011.jpg	100
1658.529	0.647	646.9	repeat	Run2	repeat/STIM_011.jpg	99
1662.185	0.649	648.9	repeat	Run2	repeat/STIM_011.jpg	100
1666.335	0.643	643.1	repeat	Run2	repeat/STIM_011.jpg	100
1670.699	0.673	673.2	repeat	Run2	repeat/STIM_012.jpg	100
1674.354	0.606	606.0	repeat	Run2	repeat/STIM_012.jpg	100
1677.363	0.511	511.4	repeat	Run2	repeat/STIM_012.jpg	99
1680.106	0.505	505.1	repeat	Run2	repeat/STIM_012.jpg	99
1683.342	0.596	595.6	repeat	Run2	repeat/STIM_012.jpg	99
1686.727	0.916	915.6	repeat	Run2	repeat/STIM_013.jpg	100
1689.744	0.721	720.8	repeat	Run2	repeat/STIM_013.jpg	99
1693.129	0.519	518.6	repeat	Run2	repeat/STIM_013.jpg	99
1697.041	0.678	678.4	repeat	Run2	repeat/STIM_013.jpg	100
1700.534	0.602	601.9	repeat	Run2	repeat/STIM_013.jpg	99
1704.949	0.695	695.1	repeat	Run2	repeat/STIM_014.jpg	99
1707.839	0.882	881.6	repeat	Run2	repeat/STIM_014.jpg	99
1711.431	0.745	745.4	repeat	Run2	repeat/STIM_014.jpg	100
1715.973	0.658	658.1	repeat	Run2	repeat/STIM_014.jpg	100
1720.347	0.511	510.7	repeat	Run2	repeat/STIM_014.jpg	100
1724.832	1.441	1441.3	generate	Run3	generate/STIM_000.jpg	100
1730.052	0.947	947.0	generate	Run3	generate/STIM_000.jpg	99
1734.888	1.053	1052.9	generate	Run3	generate/STIM_000.jpg	100
1738.034	1.014	1014.5	generate	Run3	generate/STIM_000.jpg	99
1741.245	1.199	1199.1	generate	Run3	generate/STIM_000.jpg	99
1744.498	1.896	1895.9	generate	Run3	generate/STIM_001.jpg	99
1750.32	1.485	1484.6	generate	Run3	generate/STIM_001.jpg	99
1754.774	1.587	1586.8	generate	Run3	generate/STIM_001.jpg	99
1758.765	2.051	2051.2	generate	Run3	generate/STIM_001.jpg	100
1763.025	1.736	1735.8	generate	Run3	generate/STIM_001.jpg	100
1768.664	1.11	1110.1	generate	Run3	generate/STIM_002.jpg	100
1773.241	1.326	1325.8	generate	Run3	generate/STIM_002.jpg	99
1777.027	1.252	1251.8	generate	Run3	generate/STIM_002.jpg	99
1782.006	1.23	1229.8	generate	Run3	generate/STIM_002.jpg	99
1786.277	1.378	1377.6	generate	Run3	generate/STIM_002.jpg	99
1791.542	1.112	1111.5	generate	Run3	generate/STIM_003.jpg	99
1794.762	1.388	1387.5	generate	Run3	generate/STIM_003.jpg	99
1798.608	1.445	1445.1	generate	Run3	generate/STIM_003.jpg	99
1803.259	1.101	1101.0	generate	Run3	generate/STIM_003.jpg	99
1806.942	1.403	1403.4	generate	Run3	generate/STIM_003.jpg	99
1810.909	1.508	1507.6	generate	Run3	generate/STIM_004.jpg	99
1814.726	0.958	957.7	generate	Run3	generate/STIM_004.jpg	100
1819.662	0.989	989.4	generate	Run3	generate/STIM_004.jpg	100
1822.893	1.374	1373.8	generate	Run3	generate/STIM_004.jpg	99
1827.712	1.281	1280.7	generate	Run3	generate/STIM_004.jpg	99
1832.631	2.017	2017.0	generate	Run3	generate/STIM_005.jpg	100
1838.317	2.02	2019.8	generate	Run3	generate/STIM_005.jpg	100
1842.862	1.003	1002.7	generate	Run3	generate/STIM_005.jpg	99
1846.602	1.7	1699.6	generate	Run3	generate/STIM_005.jpg	100
1851.998	0.89	889.8	generate	Run3	generate/STIM_005.jpg	99
1854.906	1.992	1992.2	generate	Run3	generate/STIM_006.jpg	100
1860.6	1.146	1146.1	generate	Run3	generate/STIM_006.jpg	100
1865.482	1.101	1100.9	generate	Run3	generate/STIM_006.jpg	100
1870.398	0.885	885.3	generate	Run3	generate/STIM_006.jpg	99
1873.814	1.165	1165.3	generate	Run3	generate/STIM_006.jpg	99
1878.435	1.778	1778.0	generate	Run3	generate/STIM_007.jpg	99
1883.254	1.122	1122.4	generate	Run3	generate/STIM_007.jpg	100
1887.611	1.597	1597.3	generate	Run3	generate/STIM_007.jpg	99
1893.179	1.236	1235.8	generate	Run3	generate/STIM_007.jpg	99
1896.448	1.176	1175.5	generate	Run3	generate/STIM_007.jpg	100
1900.887	1.585	1585.2	generate	Run3	generate/STIM_008.jpg	99
1906.24	1.718	1717.7	generate	Run3	generate/STIM_008.jpg	99
1911.238	1.12	1120.4	generate	Run3	generate/STIM_008.jpg	99
1915.885	1.509	1509.4	generate	Run3	generate/STIM_008.jpg	100
1920.75	1.886	1886.4	generate	Run3	generate/STIM_008.jpg	99
1924.738	1.978	1978.1	generate	Run3	generate/STIM_009.jpg	100
1928.727	1.885	1884.7	generate	Run3	generate/STIM_009.jpg	100
1934.154	0.969	968.7	generate	Run3	generate/STIM_009.jpg	99
1938.324	1.099	1099.0	generate	Run3	generate/STIM_009.jpg	99
1941.616	1.07	1070.0	generate	Run3	generate/STIM_009.jpg	100
1944.999	1.716	1716.5	generate	Run3	generate/STIM_010.jpg	100
1950.191	1.908	1908.1	generate	Run3	generate/STIM_010.jpg	100
1954.637	0.86	859.7	generate	Run3	generate/STIM_010.jpg	100
1958.95	1.869	1869.4	generate	Run3	generate/STIM_010.jpg	99
1962.934	1.114	1114.2	generate	Run3	generate/STIM_010.jpg	100
1966.968	1.49	1490.1	generate	Run3	generate/STIM_011.jpg	100
1970.967	1.82	1819.5	generate	Run3	generate/STIM_011.jpg	99
1976.287	1.177	1176.8	generate	Run3	generate/STIM_011.jpg	100
1980.669	1.684	1683.7	generate	Run3	generate/STIM_011.jpg	99
1985.469	1.476	1476.3	generate	Run3	generate/STIM_011.jpg	99
1989.464	1.723	1723.1	generate	Run3	generate/STIM_012.jpg	99
1993.7	1.905	1905.3	generate	Run3	generate/STIM_012.jpg	100
1998.883	1.581	1580.8	generate	Run3	generate/STIM_012.jpg	100
2003.139	1.838	1838.1	generate	Run3	generate/STIM_012.jpg	99
2008.277	2.031	2031.0	generate	Run3	generate/STIM_012.jpg	100
2014.228	1.304	1303.9	generate	Run3	generate/STIM_013.jpg	100
2019.496	1.019	1018.7	generate	Run3	generate/STIM_013.jpg	99
2023.111	1.007	1006.7	generate	Run3	generate/STIM_013.jpg	99
2026.361	1.83	1830.5	generate	Run3	generate/STIM_013.jpg	99
2031.44	1.775	1774.6	generate	Run3	generate/STIM_013.jpg	99
2036.413	1.003	1003.3	generate	Run3	generate/STIM_014.jpg	99
2040.099	1.894	1894.5	generate	Run3	generate/STIM_014.jpg	100
2045.219	1.262	1261.6	generate	Run3	generate/STIM_014.jpg	99
2048.624	2.045	2045.3	generate	Run3	generate/STIM_014.jpg	100
2052.692	1.567	1566.8	generate	Run3	generate/STIM_014.jpg	100
2057.332	1.011	1010.9	generate	Run3	generate/STIM_015.jpg	99
2062.317	0.929	929.1	generate	Run3	generate/STIM_015.jpg	99
2066.768	1.608	1608.3	generate	Run3	generate/STIM_015.jpg	99
2070.929	1.215	1215.0	generate	Run3	generate/STIM_015.jpg	100
2074.647	1.188	1188.3	generate	Run3	generate/STIM_015.jpg	100
2078.914	1.778	1777.9	generate	Run3	generate/STIM_016.jpg	99
2084.038	1.734	1733.6	generate	Run3	generate/STIM_016.jpg	99
2088.141	1.518	1517.5	generate	Run3	generate/STIM_016.jpg	100
2091.736	1.187	1187.4	generate	Run3	generate/STIM_016.jpg	99
2096.322	1.743	1742.8	generate	Run3	generate/STIM_016.jpg	100
2102.037	1.379	1378.9	generate	Run3	generate/STIM_017.jpg	99
2105.428	1.351	1351.3	generate	Run3	generate/STIM_017.jpg	99
2109.18	0.906	905.9	generate	Run3	generate/STIM_017.jpg	99
2113.142	0.926	926.5	generate	Run3	generate/STIM_017.jpg	100
2117.751	1.031	1030.9	generate	Run3	generate/STIM_017.jpg	100
2122.123	1.745	1744.6	generate	Run3	generate/STIM_018.jpg	100
2126.678	1.791	1790.6	generate	Run3	generate/STIM_018.jpg	99
2131.343	1.196	1195.9	generate	Run3	generate/STIM_018.jpg	99
2135.179	2.097	2096.9	generate	Run3	generate/STIM_018.jpg	100
2140.95	1.242	1242.4	generate	Run3	generate/STIM_018.jpg	100
2144.311	1.935	1934.6	generate	Run3	generate/STIM_019.jpg	99
2149.038	1.774	1773.5	generate	Run3	generate/STIM_019.jpg	99
2153.623	0.951	950.7	generate	Run3	generate/STIM_019.jpg	99
2157.99	2.085	2085.0	generate	Run3	generate/STIM_019.jpg	100
2163.515	1.965	1965.3	generate	Run3	generate/STIM_019.jpg	99
2168.662	1.132	1131.6	generate	Run3	generate/STIM_020.jpg	99
2173.467	1.1	1100.0	generate	Run3	generate/STIM_020.jpg	100
2177.272	1.768	1768.5	generate	Run3	generate/STIM_020.jpg	100
2181.672	1.104	1104.4	generate	Run3	generate/STIM_020.jpg	99
2185.621	1.255	1255.2	generate	Run3	generate/STIM_020.jpg	100
2190.006	1.451	1451.0	generate	Run3	generate/STIM_021.jpg	100
2194.933	0.923	922.8	generate	Run3	generate/STIM_021.jpg	100
2198.312	1.661	1660.8	generate	Run3	generate/STIM_021.jpg	99
2203.688	0.902	901.5	generate	Run3	generate/STIM_021.jpg	99
2207.483	1.125	1125.1	generate	Run3	generate/STIM_021.jpg	100
2212.42	1.526	1525.9	generate	Run3	generate/STIM_022.jpg	99
2216.267	1.247	1246.6	generate	Run3	generate/STIM_022.jpg	100
2220.561	1.496	1496.5	generate	Run3	generate/STIM_022.jpg	99
2225.573	1.68	1679.5	generate	Run3	generate/STIM_022.jpg	100
2229.896	1.334	1333.5	generate	Run3	generate/STIM_022.jpg	99
2234.093	0.966	965.9	generate	Run3	generate/STIM_023.jpg	100
2237.339	1.195	1195.1	generate	Run3	generate/STIM_023.jpg	99
2241.629	1.709	1709.2	generate	Run3	generate/STIM_023.jpg	99
2246.468	1.894	1894.5	generate	Run3	generate/STIM_023.jpg	99
2251.956	1.277	1277.3	generate	Run3	generate/STIM_023.jpg	99
2256.247	1.522	1521.7	generate	Run3	generate/STIM_024.jpg	99
2261.575	0.961	960.6	generate	Run3	generate/STIM_024.jpg	100
2264.549	2.019	2019.0	generate	Run3	generate/STIM_024.jpg	99
2269.311	2.043	2042.6	generate	Run3	generate/STIM_024.jpg	99
2273.393	1.422	1422.3	generate	Run3	generate/STIM_024.jpg	100
2278.027	0.944	944.2	repeat	Run3	repeat/STIM_000.jpg	100
2282.864	0.73	730.1	repeat	Run3	repeat/STIM_000.jpg	99
2286.724	0.543	543.3	repeat	Run3	repeat/STIM_000.jpg	100
2290.328	0.75	749.9	repeat	Run3	repeat/STIM_000.jpg	99
2293.381	0.913	913.3	repeat	Run3	repeat/STIM_000.jpg	99
2296.586	0.862	861.6	repeat	Run3	repeat/STIM_001.jpg	100
2300.818	0.566	565.5	repeat	Run3	repeat/STIM_001.jpg	100
2303.886	0.891	890.6	repeat	Run3	repeat/STIM_001.jpg	99
2308.502	0.783	783.4	repeat	Run3	repeat/STIM_001.jpg	99
2311.907	0.733	733.0	repeat	Run3	repeat/STIM_001.jpg	100
2315.218	0.881	881.1	repeat	Run3	repeat/STIM_002.jpg	99
2318.92	0.699	698.7	repeat	Run3	repeat/STIM_002.jpg	100
2322.123	0.855	854.8	repeat	Run3	repeat/STIM_002.jpg	99
2325.901	0.834	834.3	repeat	Run3	repeat/STIM_002.jpg	99
2330.61	0.891	890.6	repeat	Run3	repeat/STIM_002.jpg	99
2334.862	0.558	558.3	repeat	Run3	repeat/STIM_003.jpg	100
2338.692	0.719	718.6	repeat	Run3	repeat/STIM_003.jpg	99
2342.743	0.768	768.1	repeat	Run3	repeat/STIM_003.jpg	99
2345.803	0.93	930.0	repeat	Run3	repeat/STIM_003.jpg	99
2349.303	0.922	921.9	repeat	Run3	repeat/STIM_003.jpg	100
2353.616	0.591	590.6	repeat	Run3	repeat/STIM_004.jpg	100
2356.472	0.916	915.6	repeat	Run3	repeat/STIM_004.jpg	99
2360.643	0.686	685.5	repeat	Run3	repeat/STIM_004.jpg	99
2365.178	0.888	887.5	repeat	Run3	repeat/STIM_004.jpg	100
2368.844	0.77	769.8	repeat	Run3	repeat/STIM_004.jpg	100
2372.605	0.98	980.3	repeat	Run3	repeat/STIM_005.jpg	99
2376.983	0.847	846.8	repeat	Run3	repeat/STIM_005.jpg	99
2380.029	0.89	890.0	repeat	Run3	repeat/STIM_005.jpg	100
2384.299	0.53	530.4	repeat	Run3	repeat/STIM_005.jpg	100
2388.815	0.825	825.2	repeat	Run3	repeat/STIM_005.jpg	100
2392.549	0.682	681.9	repeat	Run3	repeat/STIM_006.jpg	100
2397.071	0.915	914.8	repeat	Run3	repeat/STIM_006.jpg	100
2400.673	0.774	774.1	repeat	Run3	repeat/STIM_006.jpg	99
2403.456	0.577	577.3	repeat	Run3	repeat/STIM_006.jpg	100
2406.994	0.624	624.2	repeat	Run3	repeat/STIM_006.jpg	100
2410.515	0.994	994.2	repeat	Run3	repeat/STIM_007.jpg	99
2414.923	0.81	810.2	repeat	Run3	repeat/STIM_007.jpg	100
2417.764	0.991	991.4	repeat	Run3	repeat/STIM_007.jpg	100
2422.011	0.559	559.0	repeat	Run3	repeat/STIM_007.jpg	100
2424.716	0.621	621.2	repeat	Run3	repeat/STIM_007.jpg	99
2428.829	0.51	510.3	repeat	Run3	repeat/STIM_008.jpg	99
2432.665	0.717	717.0	repeat	Run3	repeat/STIM_008.jpg	99
2435.746	0.891	890.9	repeat	Run3	repeat/STIM_008.jpg	99
2439.506	0.89	889.7	repeat	Run3	repeat/STIM_008.jpg	99
2442.766	0.578	578.2	repeat	Run3	repeat/STIM_008.jpg	100
2446.507	0.521	521.3	repeat	Run3	repeat/STIM_009.jpg	100
2450.173	0.97	970.1	repeat	Run3	repeat/STIM_009.jpg	100
2454.633	0.887	887.1	repeat	Run3	repeat/STIM_009.jpg	100
2458.033	0.672	671.9	repeat	Run3	repeat/STIM_009.jpg	99
2461.343	0.713	713.3	repeat	Run3	repeat/STIM_009.jpg	99
2464.774	0.68	680.1	repeat	Run3	repeat/STIM_010.jpg	99
2468.554	0.65	649.5	repeat	Run3	repeat/STIM_010.jpg	100
2471.835	0.86	860.5	repeat	Run3	repeat/STIM_010.jpg	99
2476.561	0.734	733.5	repeat	Run3	repeat/STIM_010.jpg	100
2479.552	0.93	930.4	repeat	Run3	repeat/STIM_010.jpg	100
2483.574	0.634	634.5	repeat	Run3	repeat/STIM_011.jpg	99
2486.702	0.654	653.5	repeat	Run3	repeat/STIM_011.jpg	99
2491.111	0.895	895.0	repeat	Run3	repeat/STIM_011.jpg	99
2494.302	0.95	950.4	repeat	Run3	repeat/STIM_011.jpg	99
2499.23	0.855	855.3	repeat	Run3	repeat/STIM_011.jpg	100
2503.708	0.997	997.3	repeat	Run3	repeat/STIM_012.jpg	100
2506.744	0.71	709.5	repeat	Run3	repeat/STIM_012.jpg	99
2509.71	0.638	637.5	repeat	Run3	repeat/STIM_012.jpg	99
2513.648	0.806	805.8	repeat	Run3	repeat/STIM_012.jpg	100
2517.872	0.929	929.4	repeat	Run3	repeat/STIM_012.jpg	100
2522.757	0.762	762.4	repeat	Run3	repeat/STIM_013.jpg	100
2527.255	0.774	774.4	repeat	Run3	repeat/STIM_013.jpg	99
2531.907	0.627	627.4	repeat	Run3	repeat/STIM_013.jpg	100
2534.758	0.868	868.1	repeat	Run3	repeat/STIM_013.jpg	100
2537.714	0.751	750.6	repeat	Run3	repeat/STIM_013.jpg	99
2541.527	0.733	733.3	repeat	Run3	repeat/STIM_014.jpg	100
2545.912	0.523	522.6	repeat	Run3	repeat/STIM_014.jpg	100
2549.991	0.542	541.7	repeat	Run3	repeat/STIM_014.jpg	100
2554.021	0.773	773.2	repeat	Run3	repeat/STIM_014.jpg	100
2557.926	0.85	850.3	repeat	Run3	repeat/STIM_014.jpg	100
2562.666	1.352	1351.8	generate	Run4	generate/STIM_000.jpg	99
2567.31	1.264	1264.2	generate	Run4	generate/STIM_000.jpg	99
2571.74	1.748	1748.5	generate	Run4	generate/STIM_000.jpg	99
2576.629	2.064	2063.6	generate	Run4	generate/STIM_000.jpg	100
2581.337	1.853	1852.8	generate	Run4	generate/STIM_000.jpg	99
2586.844	1.619	1619.4	generate	Run4	generate/STIM_001.jpg	100
2591.683	0.843	843.1	generate	Run4	generate/STIM_001.jpg	100
2595.485	1.278	1277.8	generate	Run4	generate/STIM_001.jpg	99
2600.569	1.502	1502.5	generate	Run4	generate/STIM_001.jpg	100
2605.189	1.541	1540.7	generate	Run4	generate/STIM_001.jpg	99
2608.901	2.042	2042.2	generate	Run4	generate/STIM_002.jpg	100
2613.813	1.284	1284.2	generate	Run4	generate/STIM_002.jpg	99
2617.156	1.901	1901.1	generate	Run4	generate/STIM_002.jpg	99
2621.763	1.045	1045.0	generate	Run4	generate/STIM_002.jpg	100
2625.217	1.974	1974.3	generate	Run4	generate/STIM_002.jpg	99
2629.417	2.055	2055.2	generate	Run4	generate/STIM_003.jpg	100
2635.34	1.173	1173.4	generate	Run4	generate/STIM_003.jpg	100
2640.164	0.876	875.8	generate	Run4	generate/STIM_003.jpg	99
2643.193	1.958	1958.5	generate	Run4	generate/STIM_003.jpg	100
2648.485	1.903	1902.9	generate	Run4	generate/STIM_003.jpg	99
2653.331	1.53	1530.3	generate	Run4	generate/STIM_004.jpg	99
2658.158	1.589	1589.3	generate	Run4	generate/STIM_004.jpg	100
2662.722	1.906	1905.5	generate	Run4	generate/STIM_004.jpg	99
2667.331	1.448	1448.3	generate	Run4	generate/STIM_004.jpg	100
2672.691	1.51	1509.7	generate	Run4	generate/STIM_004.jpg	100
2677.751	1.686	1686.3	generate	Run4	generate/STIM_005.jpg	100
2683.294	1.991	1991.3	generate	Run4	generate/STIM_005.jpg	100
2688.599	0.995	995.3	generate	Run4	generate/STIM_005.jpg	100
2692.521	1.885	1885.1	generate	Run4	generate/STIM_005.jpg	99
2697.145	1.766	1766.2	generate	Run4	generate/STIM_005.jpg	99
2701.598	2.046	2046.2	generate	Run4	generate/STIM_006.jpg	99
2706.501	1.605	1604.9	generate	Run4	generate/STIM_006.jpg	99
2710.688	0.968	968.3	generate	Run4	generate/STIM_006.jpg	100
2714.708	1.989	1989.0	generate	Run4	generate/STIM_006.jpg	99
2719.823	2.07	2070.2	generate	Run4	generate/STIM_006.jpg	99
2724.852	1.575	1575.0	generate	Run4	generate/STIM_007.jpg	99
2729.771	1.943	1942.6	generate	Run4	generate/STIM_007.jpg	100
2735.446	1.292	1292.2	generate	Run4	generate/STIM_007.jpg	100
2739.032	1.16	1160.1	generate	Run4	generate/STIM_007.jpg	100
2742.268	1.206	1206.5	generate	Run4	generate/STIM_007.jpg	100
2747.169	1.245	1245.1	generate	Run4	generate/STIM_008.jpg	100
2752.005	1.565	1565.1	generate	Run4	generate/STIM_008.jpg	99
2755.591	1.69	1690.3	generate	Run4	generate/STIM_008.jpg	99
2761.02	1.964	1964.2	generate	Run4	generate/STIM_008.jpg	100
2765.33	1.608	1607.8	generate	Run4	generate/STIM_008.jpg	100
2770.582	1.431	1431.3	generate	Run4	generate/STIM_009.jpg	100
2775.135	1.236	1235.7	generate	Run4	generate/STIM_009.jpg	100
2780.154	1.609	1608.9	generate	Run4	generate/STIM_009.jpg	100
2785.541	1.508	1507.7	generate	Run4	generate/STIM_009.jpg	100
2789.316	2.073	2072.9	generate	Run4	generate/STIM_009.jpg	100
2794.342	2.013	2012.5	generate	Run4	generate/STIM_010.jpg	99
2798.881	0.859	859.1	generate	Run4	generate/STIM_010.jpg	99
2802.1	1.026	1025.5	generate	Run4	generate/STIM_010.jpg	99
2805.542	1.136	1136.3	generate	Run4	generate/STIM_010.jpg	99
2809.321	1.132	1131.5	generate	Run4	generate/STIM_010.jpg	100
2814.116	2.058	2058.1	generate	Run4	generate/STIM_011.jpg	100
2818.35	0.856	856.1	generate	Run4	generate/STIM_011.jpg	99
2822.977	1.851	1850.7	generate	Run4	generate/STIM_011.jpg	100
2827.893	1.599	1599.1	generate	Run4	generate/STIM_011.jpg	99
2832.418	1.023	1023.0	generate	Run4	generate/STIM_011.jpg	99
2836.54	1.525	1524.9	generate	Run4	generate/STIM_012.jpg	99
2840.169	1.032	1031.9	generate	Run4	generate/STIM_012.jpg	99
2843.817	1.473	1473.2	generate	Run4	generate/STIM_012.jpg	100
2847.846	1.597	1596.8	generate	Run4	generate/STIM_012.jpg	99
2851.775	2.023	2023.3	generate	Run4	generate/STIM_012.jpg	100
2856.198	0.853	852.9	generate	Run4	generate/STIM_013.jpg	99
2860.67	1.984	1983.6	generate	Run4	generate/STIM_013.jpg	100
2866.204	1.118	1118.2	generate	Run4	generate/STIM_013.jpg	99
2870.802	1.002	1002.2	generate	Run4	generate/STIM_013.jpg	99
2875.169	1.59	1590.3	generate	Run4	generate/STIM_013.jpg	99
2880.418	0.928	927.9	generate	Run4	generate/STIM_014.jpg	100
2883.807	1.272	1271.6	generate	Run4	generate/STIM_014.jpg	100
2888.807	1.247	1246.9	generate	Run4	generate/STIM_014.jpg	99
2893.361	2.02	2020.4	generate	Run4	generate/STIM_014.jpg	99
2897.843	1.576	1576.1	generate	Run4	generate/STIM_014.jpg	99
2902.306	1.166	1166.3	generate	Run4	generate/STIM_015.jpg	100
2905.691	1.55	1549.5	generate	Run4	generate/STIM_015.jpg	100
2909.279	1.938	1938.5	generate	Run4	generate/STIM_015.jpg	100
2914.314	1.187	1186.8	generate	Run4	generate/STIM_015.jpg	99
2917.868	0.844	843.9	generate	Run4	generate/STIM_015.jpg	99
2922.627	1.325	1325.2	generate	Run4	generate/STIM_016.jpg	99
2927.48	0.911	910.9	generate	Run4	generate/STIM_016.jpg	100
2930.717	0.947	946.7	generate	Run4	generate/STIM_016.jpg	99
2935.208	2.069	2068.8	generate	Run4	generate/STIM_016.jpg	99
2940.647	0.899	898.9	generate	Run4	generate/STIM_016.jpg	100
2944.039	0.892	891.5	generate	Run4	generate/STIM_017.jpg	99
2947.244	1.438	1438.3	generate	Run4	generate/STIM_017.jpg	99
2951.129	1.376	1376.3	generate	Run4	generate/STIM_017.jpg	100
2956.29	0.848	847.9	generate	Run4	generate/STIM_017.jpg	100
2959.51	1.607	1606.7	generate	Run4	generate/STIM_017.jpg	100
2963.218	1.397	1396.9	generate	Run4	generate/STIM_018.jpg	100
2968.445	1.712	1712.0	generate	Run4	generate/STIM_018.jpg	100
2973.567	1.038	1038.5	generate	Run4	generate/STIM_018.jpg	99
2978.216	1.159	1158.6	generate	Run4	generate/STIM_018.jpg	99
2982.943	2.069	2069.3	generate	Run4	generate/STIM_018.jpg	99
2988.688	1.608	1608.4	generate	Run4	generate/STIM_019.jpg	100
2993.818	1.42	1420.0	generate	Run4	generate/STIM_019.jpg	99
2997.39	2.009	2009.0	generate	Run4	generate/STIM_019.jpg	100
3003.253	1.209	1209.3	generate	Run4	generate/STIM_019.jpg	100
3006.793	1.83	1830.2	generate	Run4	generate/STIM_019.jpg	100
3011.019	0.921	920.8	generate	Run4	generate/STIM_020.jpg	99
3015.63	0.925	925.1	generate	Run4	generate/STIM_020.jpg	100
3019.529	1.798	1798.5	generate	Run4	generate/STIM_020.jpg	100
3023.544	1.463	1463.0	generate	Run4	generate/STIM_020.jpg	100
3028.563	1.458	1457.9	generate	Run4	generate/STIM_020.jpg	99
3033.264	1.112	1112.5	generate	Run4	generate/STIM_021.jpg	99
3036.505	1.79	1789.5	generate	Run4	generate/STIM_021.jpg	99
3040.472	1.053	1052.9	generate	Run4	generate/STIM_021.jpg	100
3044.566	1.45	1450.2	generate	Run4	generate/STIM_021.jpg	100
3048.801	1.675	1675.1	generate	Run4	generate/STIM_021.jpg	100
3054.212	1.389	1389.0	generate	Run4	generate/STIM_022.jpg	100
3058.619	1.92	1920.4	generate	Run4	generate/STIM_022.jpg	100
3062.981	1.292	1291.9	generate	Run4	generate/STIM_022.jpg	100
3067.455	0.947	947.3	generate	Run4	generate/STIM_022.jpg	100
3071.657	1.41	1409.8	generate	Run4	generate/STIM_022.jpg	99
3076.107	1.053	1053.1	generate	Run4	generate/STIM_023.jpg	100
3080.482	1.134	1133.5	generate	Run4	generate/STIM_023.jpg	100
3085.323	1.42	1419.6	generate	Run4	generate/STIM_023.jpg	99
3089.644	1.363	1363.1	generate	Run4	generate/STIM_023.jpg	99
3093.487	1.937	1937.4	generate	Run4	generate/STIM_023.jpg	100
3097.44	1.239	1239.2	generate	Run4	generate/STIM_024.jpg	100
3102.345	1.759	1759.4	generate	Run4	generate/STIM_024.jpg	100
3106.109	1.694	1693.7	generate	Run4	generate/STIM_024.jpg	100
3110.811	0.981	981.3	generate	Run4	generate/STIM_024.jpg	99
3114.25	1.867	1866.9	generate	Run4	generate/STIM_024.jpg	99
3119.352	0.643	643.0	repeat	Run4	repeat/STIM_000.jpg	99
3122.864	0.937	936.9	repeat	Run4	repeat/STIM_000.jpg	100
3125.931	0.88	879.5	repeat	Run4	repeat/STIM_000.jpg	99
3130.549	0.626	626.1	repeat	Run4	repeat/STIM_000.jpg	100
3133.34	0.737	736.7	repeat	Run4	repeat/STIM_000.jpg	99
3136.634	0.655	655.1	repeat	Run4	repeat/STIM_001.jpg	99
3140.375	0.982	981.7	repeat	Run4	repeat/STIM_001.jpg	99
3145.2	0.728	728.1	repeat	Run4	repeat/STIM_001.jpg	99
3149.584	0.811	810.9	repeat	Run4	repeat/STIM_001.jpg	100
3152.575	0.712	712.5	repeat	Run4	repeat/STIM_001.jpg	100
3156.575	0.662	662.0	repeat	Run4	repeat/STIM_002.jpg	99
3160.989	0.712	711.6	repeat	Run4	repeat/STIM_002.jpg	100
3165.257	0.75	750.1	repeat	Run4	repeat/STIM_002.jpg	99
3168.783	0.674	674.2	repeat	Run4	repeat/STIM_002.jpg	100
3172.807	0.539	538.6	repeat	Run4	repeat/STIM_002.jpg	100
3175.439	0.784	784.3	repeat	Run4	repeat/STIM_003.jpg	99
3178.96	0.946	946.1	repeat	Run4	repeat/STIM_003.jpg	100
3183.114	0.76	760.1	repeat	Run4	repeat/STIM_003.jpg	100
3186.399	0.656	656.3	repeat	Run4	repeat/STIM_003.jpg	100
3190.305	0.555	555.3	repeat	Run4	repeat/STIM_003.jpg	100
3193.308	0.631	630.8	repeat	Run4	repeat/STIM_004.jpg	100
3197.282	0.698	698.0	repeat	Run4	repeat/STIM_004.jpg	99
3200.663	0.838	837.8	repeat	Run4	repeat/STIM_004.jpg	100
3205.327	0.836	835.9	repeat	Run4	repeat/STIM_004.jpg	99
3209.594	0.98	979.9	repeat	Run4	repeat/STIM_004.jpg	100
3212.766	0.649	648.9	repeat	Run4	repeat/STIM_005.jpg	99
3215.77	0.669	669.0	repeat	Run4	repeat/STIM_005.jpg	99
3218.721	0.521	521.3	repeat	Run4	repeat/STIM_005.jpg	99
3221.527	0.984	984.4	repeat	Run4	repeat/STIM_005.jpg	100
3225.703	0.973	972.6	repeat	Run4	repeat/STIM_005.jpg	99
3229.068	0.904	903.7	repeat	Run4	repeat/STIM_006.jpg	100
3232.106	0.782	782.4	repeat	Run4	repeat/STIM_006.jpg	99
3235.566	0.724	724.4	repeat	Run4	repeat/STIM_006.jpg	99
3239.644	0.56	559.8	repeat	Run4	repeat/STIM_006.jpg	100
3243.36	0.562	562.4	repeat	Run4	repeat/STIM_006.jpg	100
3246.835	0.577	577.2	repeat	Run4	repeat/STIM_007.jpg	99
3249.755	0.761	760.6	repeat	Run4	repeat/STIM_007.jpg	100
3254.008	0.646	646.3	repeat	Run4	repeat/STIM_007.jpg	100
3258.28	0.588	588.5	repeat	Run4	repeat/STIM_007.jpg	99
3262.277	0.55	550.4	repeat	Run4	repeat/STIM_007.jpg	100
3265.809	0.974	973.7	repeat	Run4	repeat/STIM_008.jpg	99
3269.095	0.982	981.7	repeat	Run4	repeat/STIM_008.jpg	100
3273.257	0.978	978.0	repeat	Run4	repeat/STIM_008.jpg	100
3278.226	0.746	746.2	repeat	Run4	repeat/STIM_008.jpg	99
3282.03	0.87	870.2	repeat	Run4	repeat/STIM_008.jpg	100
3285.384	0.862	862.0	repeat	Run4	repeat/STIM_009.jpg	100
3290.083	0.615	614.8	repeat	Run4	repeat/STIM_009.jpg	99
3294.253	0.881	881.0	repeat	Run4	repeat/STIM_009.jpg	100
3297.675	0.843	843.1	repeat	Run4	repeat/STIM_009.jpg	99
3301.829	0.937	936.8	repeat	Run4	repeat/STIM_009.jpg	100
3306.042	0.975	975.3	repeat	Run4	repeat/STIM_010.jpg	99
3309.459	0.733	732.8	repeat	Run4	repeat/STIM_010.jpg	100
3314.003	0.677	676.8	repeat	Run4	repeat/STIM_010.jpg	99
3318.436	0.594	593.8	repeat	Run4	repeat/STIM_010.jpg	100
3322.8	0.899	898.7	repeat	Run4	repeat/STIM_010.jpg	99
3326.759	0.995	995.4	repeat	Run4	repeat/STIM_011.jpg	99
3331.543	0.524	524.3	repeat	Run4	repeat/STIM_011.jpg	99
3334.662	0.671	671.1	repeat	Run4	repeat/STIM_011.jpg	99
3338.639	0.754	753.9	repeat	Run4	repeat/STIM_011.jpg	100
3342.583	0.854	853.5	repeat	Run4	repeat/STIM_011.jpg	100
3345.439	0.826	825.6	repeat	Run4	repeat/STIM_012.jpg	99
3349.472	0.85	849.6	repeat	Run4	repeat/STIM_012.jpg	99
3354.171	0.906	905.7	repeat	Run4	repeat/STIM_012.jpg	99
3358.742	0.536	535.7	repeat	Run4	repeat/STIM_012.jpg	99
3362.534	0.763	763.4	repeat	Run4	repeat/STIM_012.jpg	99
3365.752	0.733	732.9	repeat	Run4	repeat/STIM_013.jpg	100
3369.58	1.0	1000.5	repeat	Run4	repeat/STIM_013.jpg	100
3374.063	0.706	705.7	repeat	Run4	repeat/STIM_013.jpg	99
3377.19	0.657	656.6	repeat	Run4	repeat/STIM_013.jpg	100
3379.947	0.932	932.5	repeat	Run4	repeat/STIM_013.jpg	100
3384.743	0.51	510.3	repeat	Run4	repeat/STIM_014.jpg	99
3389.143	0.557	557.0	repeat	Run4	repeat/STIM_014.jpg	99
3392.544	0.748	747.7	repeat	Run4	repeat/STIM_014.jpg	100
3395.792	0.61	609.6	repeat	Run4	repeat/STIM_014.jpg	99
3400.396	0.554	554.4	repeat	Run4	repeat/STIM_014.jpg	100
