onset	duration	accuracy	trial_type	learning_stage	stimulus
0.0	2.442	correct	regulate	Run1	regulate/STIM_000.jpg
5.754	2.027	correct	regulate	Run1	regulate/STIM_000.jpg
11.445	1.182	correct	regulate	Run1	regulate/STIM_000.jpg
15.77	1.817	correct	regulate	Run1	regulate/STIM_000.jpg
21.474	1.76	correct	regulate	Run1	regulate/STIM_001.jpg
26.535	1.638	incorrect	regulate	Run1	regulate/STIM_001.jpg
30.996	1.595	correct	regulate	Run1	regulate/STIM_001.jpg
36.423	1.688	incorrect	regulate	Run1	regulate/STIM_001.jpg
41.23	2.462	incorrect	regulate	Run1	regulate/STIM_002.jpg
47.625	1.43	correct	regulate	Run1	regulate/STIM_002.jpg
51.083	1.805	incorrect	regulate	Run1	regulate/STIM_002.jpg
55.709	1.766	incorrect	regulate	Run1	regulate/STIM_002.jpg
61.236	2.593	correct	regulate	Run1	regulate/STIM_003.jpg
66.872	2.078	incorrect	regulate	Run1	regulate/STIM_003.jpg
72.866	2.274	incorrect	regulate	Run1	regulate/STIM_003.jpg
77.597	1.889	incorrect	regulate	Run1	regulate/STIM_003.jpg
82.146	1.907	correct	regulate	Run1	regulate/STIM_004.jpg
87.892	2.741	incorrect	regulate	Run1	regulate/STIM_004.jpg
93.149	1.598	correct	regulate	Run1	regulate/STIM_004.jpg
96.833	1.307	incorrect	regulate	Run1	regulate/STIM_004.jpg
101.684	1.799	incorrect	regulate	Run1	regulate/STIM_005.jpg
106.236	1.789	incorrect	regulate	Run1	regulate/STIM_005.jpg
111.006	2.309	correct	regulate	Run1	regulate/STIM_005.jpg
115.501	1.703	correct	regulate	Run1	regulate/STIM_005.jpg
120.838	1.495	correct	regulate	Run1	regulate/STIM_006.jpg
124.436	2.481	correct	regulate	Run1	regulate/STIM_006.jpg
129.685	2.125	correct	regulate	Run1	regulate/STIM_006.jpg
134.423	2.476	incorrect	regulate	Run1	regulate/STIM_006.jpg
139.198	2.609	correct	regulate	Run1	regulate/STIM_007.jpg
144.531	2.672	correct	regulate	Run1	regulate/STIM_007.jpg
151.2	1.14	correct	regulate	Run1	regulate/STIM_007.jpg
155.04	2.192	correct	regulate	Run1	regulate/STIM_007.jpg
160.595	1.647	correct	regulate	Run1	regulate/STIM_008.jpg
164.347	1.96	correct	regulate	Run1	regulate/STIM_008.jpg
168.808	2.185	correct	regulate	Run1	regulate/STIM_008.jpg
174.808	1.872	correct	regulate	Run1	regulate/STIM_008.jpg
179.971	1.727	correct	regulate	Run1	regulate/STIM_009.jpg
184.329	2.192	incorrect	regulate	Run1	regulate/STIM_009.jpg
189.723	2.408	correct	regulate	Run1	regulate/STIM_009.jpg
195.395	1.701	correct	regulate	Run1	regulate/STIM_009.jpg
199.544	2.803	correct	regulate	Run1	regulate/STIM_010.jpg
206.25	2.342	incorrect	regulate	Run1	regulate/STIM_010.jpg
212.114	1.147	correct	regulate	Run1	regulate/STIM_010.jpg
215.613	1.209	correct	regulate	Run1	regulate/STIM_010.jpg
219.782	2.423	incorrect	regulate	Run1	regulate/STIM_011.jpg
224.358	1.772	correct	regulate	Run1	regulate/STIM_011.jpg
228.733	1.57	correct	regulate	Run1	regulate/STIM_011.jpg
232.989	2.089	correct	regulate	Run1	regulate/STIM_011.jpg
238.664	1.548	correct	regulate	Run1	regulate/STIM_012.jpg
244.157	1.4	incorrect	regulate	Run1	regulate/STIM_012.jpg
248.125	2.226	correct	regulate	Run1	regulate/STIM_012.jpg
252.978	1.42	incorrect	regulate	Run1	regulate/STIM_012.jpg
258.162	1.616	correct	regulate	Run1	regulate/STIM_013.jpg
262.565	2.624	incorrect	regulate	Run1	regulate/STIM_013.jpg
268.921	1.616	correct	regulate	Run1	regulate/STIM_013.jpg
272.769	1.184	correct	regulate	Run1	regulate/STIM_013.jpg
276.899	1.983	incorrect	regulate	Run1	regulate/STIM_014.jpg
281.553	1.962	incorrect	regulate	Run1	regulate/STIM_014.jpg
286.333	2.13	incorrect	regulate	Run1	regulate/STIM_014.jpg
290.514	1.534	correct	regulate	Run1	regulate/STIM_014.jpg
295.679	2.703	correct	regulate	Run1	regulate/STIM_015.jpg
301.306	1.238	incorrect	regulate	Run1	regulate/STIM_015.jpg
306.506	1.979	correct	regulate	Run1	regulate/STIM_015.jpg
312.107	1.776	correct	regulate	Run1	regulate/STIM_015.jpg
317.593	2.806	correct	regulate	Run1	regulate/STIM_016.jpg
323.794	1.195	correct	regulate	Run1	regulate/STIM_016.jpg
327.618	2.551	incorrect	regulate	Run1	regulate/STIM_016.jpg
333.363	2.089	incorrect	regulate	Run1	regulate/STIM_016.jpg
337.815	2.672	incorrect	regulate	Run1	regulate/STIM_017.jpg
343.459	1.232	incorrect	regulate	Run1	regulate/STIM_017.jpg
347.823	2.432	correct	regulate	Run1	regulate/STIM_017.jpg
352.411	1.376	incorrect	regulate	Run1	regulate/STIM_017.jpg
356.297	1.72	correct	regulate	Run1	regulate/STIM_018.jpg
360.48	1.359	correct	regulate	Run1	regulate/STIM_018.jpg
363.964	2.109	correct	regulate	Run1	regulate/STIM_018.jpg
369.609	1.666	incorrect	regulate	Run1	regulate/STIM_018.jpg
375.088	2.352	correct	regulate	Run1	regulate/STIM_019.jpg
381.017	2.266	incorrect	regulate	Run1	regulate/STIM_019.jpg
386.495	2.081	incorrect	regulate	Run1	regulate/STIM_019.jpg
391.477	1.296	correct	regulate	Run1	regulate/STIM_019.jpg
395.18	2.43	incorrect	regulate	Run1	regulate/STIM_020.jpg
399.692	2.444	incorrect	regulate	Run1	regulate/STIM_020.jpg
405.249	1.307	correct	regulate	Run1	regulate/STIM_020.jpg
409.021	2.219	correct	regulate	Run1	regulate/STIM_020.jpg
415.088	2.317	incorrect	regulate	Run1	regulate/STIM_021.jpg
420.894	2.098	correct	regulate	Run1	regulate/STIM_021.jpg
425.68	2.492	incorrect	regulate	Run1	regulate/STIM_021.jpg
430.635	2.006	correct	regulate	Run1	regulate/STIM_021.jpg
435.172	2.479	correct	regulate	Run1	regulate/STIM_022.jpg
440.709	2.748	incorrect	regulate	Run1	regulate/STIM_022.jpg
445.483	2.068	correct	regulate	Run1	regulate/STIM_022.jpg
451.493	1.415	correct	regulate	Run1	regulate/STIM_022.jpg
455.274	2.007	correct	regulate	Run1	regulate/STIM_023.jpg
460.497	2.291	incorrect	regulate	Run1	regulate/STIM_023.jpg
465.128	1.566	correct	regulate	Run1	regulate/STIM_023.jpg
468.827	2.023	correct	regulate	Run1	regulate/STIM_023.jpg
473.852	1.975	correct	regulate	Run1	regulate/STIM_024.jpg
478.457	2.575	incorrect	regulate	Run1	regulate/STIM_024.jpg
483.977	2.096	correct	regulate	Run1	regulate/STIM_024.jpg
489.669	1.27	correct	regulate	Run1	regulate/STIM_024.jpg
494.585	2.73	correct	regulate	Run1	regulate/STIM_025.jpg
500.397	2.776	correct	regulate	Run1	regulate/STIM_025.jpg
506.46	1.763	incorrect	regulate	Run1	regulate/STIM_025.jpg
510.516	2.412	correct	regulate	Run1	regulate/STIM_025.jpg
515.448	2.636	incorrect	regulate	Run1	regulate/STIM_026.jpg
521.434	1.428	incorrect	regulate	Run1	regulate/STIM_026.jpg
526.784	1.455	incorrect	regulate	Run1	regulate/STIM_026.jpg
531.242	1.624	incorrect	regulate	Run1	regulate/STIM_026.jpg
535.351	1.531	incorrect	regulate	Run1	regulate/STIM_027.jpg
540.672	1.959	correct	regulate	Run1	regulate/STIM_027.jpg
545.858	1.364	correct	regulate	Run1	regulate/STIM_027.jpg
550.151	1.365	correct	regulate	Run1	regulate/STIM_027.jpg
554.876	1.565	incorrect	regulate	Run1	regulate/STIM_028.jpg
559.39	1.254	correct	regulate	Run1	regulate/STIM_028.jpg
564.601	1.859	correct	regulate	Run1	regulate/STIM_028.jpg
570.358	1.2	correct	regulate	Run1	regulate/STIM_028.jpg
573.599	1.521	correct	regulate	Run1	regulate/STIM_029.jpg
578.266	1.614	incorrect	regulate	Run1	regulate/STIM_029.jpg
582.85	2.342	correct	regulate	Run1	regulate/STIM_029.jpg
587.754	2.301	correct	regulate	Run1	regulate/STIM_029.jpg
592.926	1.068	incorrect	observe	Run1	observe/STIM_000.jpg
597.641	1.079	correct	observe	Run1	observe/STIM_000.jpg
601.152	1.297	incorrect	observe	Run1	observe/STIM_000.jpg
605.061	1.3	correct	observe	Run1	observe/STIM_000.jpg
608.497	1.127	incorrect	observe	Run1	observe/STIM_001.jpg
611.725	0.779	correct	observe	Run1	observe/STIM_001.jpg
615.249	0.779	incorrect	observe	Run1	observe/STIM_001.jpg
618.329	0.823	correct	observe	Run1	observe/STIM_001.jpg
621.538	0.973	correct	observe	Run1	observe/STIM_002.jpg
624.876	0.679	correct	observe	Run1	observe/STIM_002.jpg
628.254	1.167	incorrect	observe	Run1	observe/STIM_002.jpg
632.145	1.004	correct	observe	Run1	observe/STIM_002.jpg
635.289	0.91	correct	observe	Run1	observe/STIM_003.jpg
638.831	0.721	correct	observe	Run1	observe/STIM_003.jpg
643.457	1.107	incorrect	observe	Run1	observe/STIM_003.jpg
648.18	0.84	correct	observe	Run1	observe/STIM_003.jpg
652.639	1.256	incorrect	observe	Run1	observe/STIM_004.jpg
656.899	0.766	incorrect	observe	Run1	observe/STIM_004.jpg
660.631	1.134	correct	observe	Run1	observe/STIM_004.jpg
664.538	1.124	correct	observe	Run1	observe/STIM_004.jpg
667.729	1.158	incorrect	observe	Run1	observe/STIM_005.jpg
672.467	0.893	correct	observe	Run1	observe/STIM_005.jpg
677.294	1.291	correct	observe	Run1	observe/STIM_005.jpg
682.574	1.303	correct	observe	Run1	observe/STIM_005.jpg
687.197	1.168	incorrect	observe	Run1	observe/STIM_006.jpg
691.979	0.733	correct	observe	Run1	observe/STIM_006.jpg
695.784	0.937	correct	observe	Run1	observe/STIM_006.jpg
700.057	1.268	correct	observe	Run1	observe/STIM_006.jpg
703.539	0.989	correct	observe	Run1	observe/STIM_007.jpg
706.677	0.776	correct	observe	Run1	observe/STIM_007.jpg
710.317	1.106	correct	observe	Run1	observe/STIM_007.jpg
713.535	0.982	incorrect	observe	Run1	observe/STIM_007.jpg
717.88	1.044	correct	observe	Run1	observe/STIM_008.jpg
722.728	1.076	correct	observe	Run1	observe/STIM_008.jpg
727.221	1.335	correct	observe	Run1	observe/STIM_008.jpg
732.296	0.938	correct	observe	Run1	observe/STIM_008.jpg
735.891	1.153	correct	observe	Run1	observe/STIM_009.jpg
740.056	1.053	correct	observe	Run1	observe/STIM_009.jpg
743.994	0.938	correct	observe	Run1	observe/STIM_009.jpg
747.54	1.272	correct	observe	Run1	observe/STIM_009.jpg
751.612	1.079	correct	observe	Run1	observe/STIM_010.jpg
755.147	0.706	correct	observe	Run1	observe/STIM_010.jpg
758.31	1.024	correct	observe	Run1	observe/STIM_010.jpg
762.417	1.014	correct	observe	Run1	observe/STIM_010.jpg
766.271	0.802	correct	observe	Run1	observe/STIM_011.jpg
770.389	1.265	incorrect	observe	Run1	observe/STIM_011.jpg
774.992	1.289	correct	observe	Run1	observe/STIM_011.jpg
779.746	1.178	correct	observe	Run1	observe/STIM_011.jpg
784.568	0.769	correct	observe	Run1	observe/STIM_012.jpg
787.581	1.33	correct	observe	Run1	observe/STIM_012.jpg
792.384	0.682	incorrect	observe	Run1	observe/STIM_012.jpg
795.938	0.964	correct	observe	Run1	observe/STIM_012.jpg
800.364	0.838	correct	observe	Run1	observe/STIM_013.jpg
804.242	0.747	correct	observe	Run1	observe/STIM_013.jpg
808.068	1.311	correct	observe	Run1	observe/STIM_013.jpg
811.687	1.031	correct	observe	Run1	observe/STIM_013.jpg
814.721	1.072	correct	observe	Run1	observe/STIM_014.jpg
818.041	0.849	correct	observe	Run1	observe/STIM_014.jpg
821.489	0.811	correct	observe	Run1	observe/STIM_014.jpg
825.719	1.053	correct	observe	Run1	observe/STIM_014.jpg
829.178	0.962	correct	observe	Run1	observe/STIM_015.jpg
834.115	1.13	correct	observe	Run1	observe/STIM_015.jpg
839.106	1.17	correct	observe	Run1	observe/STIM_015.jpg
843.392	1.074	correct	observe	Run1	observe/STIM_015.jpg
848.246	0.939	correct	observe	Run1	observe/STIM_016.jpg
852.957	0.718	incorrect	observe	Run1	observe/STIM_016.jpg
857.002	0.719	incorrect	observe	Run1	observe/STIM_016.jpg
861.292	1.331	incorrect	observe	Run1	observe/STIM_016.jpg
865.365	1.291	correct	observe	Run1	observe/STIM_017.jpg
870.039	1.023	correct	observe	Run1	observe/STIM_017.jpg
874.054	0.686	correct	observe	Run1	observe/STIM_017.jpg
877.835	0.816	correct	observe	Run1	observe/STIM_017.jpg
882.44	1.234	incorrect	observe	Run1	observe/STIM_018.jpg
885.743	1.011	correct	observe	Run1	observe/STIM_018.jpg
888.775	0.757	correct	observe	Run1	observe/STIM_018.jpg
892.286	0.716	correct	observe	Run1	observe/STIM_018.jpg
896.954	0.765	correct	observe	Run1	observe/STIM_019.jpg
901.036	0.899	correct	observe	Run1	observe/STIM_019.jpg
904.795	1.179	incorrect	observe	Run1	observe/STIM_019.jpg
908.146	0.746	correct	observe	Run1	observe/STIM_019.jpg
911.194	1.32	incorrect	regulate	Run2	regulate/STIM_000.jpg
916.484	2.131	correct	regulate	Run2	regulate/STIM_000.jpg
921.813	1.515	correct	regulate	Run2	regulate/STIM_000.jpg
927.118	1.696	correct	regulate	Run2	regulate/STIM_000.jpg
932.538	1.143	correct	regulate	Run2	regulate/STIM_001.jpg
935.999	1.708	correct	regulate	Run2	regulate/STIM_001.jpg
940.913	2.163	correct	regulate	Run2	regulate/STIM_001.jpg
945.634	1.664	correct	regulate	Run2	regulate/STIM_001.jpg
950.495	1.774	correct	regulate	Run2	regulate/STIM_002.jpg
956.24	1.754	incorrect	regulate	Run2	regulate/STIM_002.jpg
960.772	1.209	correct	regulate	Run2	regulate/STIM_002.jpg
964.637	1.125	correct	regulate	Run2	regulate/STIM_002.jpg
968.831	2.329	correct	regulate	Run2	regulate/STIM_003.jpg
974.14	1.568	correct	regulate	Run2	regulate/STIM_003.jpg
977.809	1.852	correct	regulate	Run2	regulate/STIM_003.jpg
982.559	1.171	correct	regulate	Run2	regulate/STIM_003.jpg
987.283	2.187	correct	regulate	Run2	regulate/STIM_004.jpg
993.205	1.676	incorrect	regulate	Run2	regulate/STIM_004.jpg
997.547	2.015	correct	regulate	Run2	regulate/STIM_004.jpg
1003.454	0.947	correct	regulate	Run2	regulate/STIM_004.jpg
1007.863	1.824	correct	regulate	Run2	regulate/STIM_005.jpg
1012.65	1.39	correct	regulate	Run2	regulate/STIM_005.jpg
1017.037	1.313	incorrect	regulate	Run2	regulate/STIM_005.jpg
1022.322	0.951	correct	regulate	Run2	regulate/STIM_005.jpg
1026.986	2.001	correct	regulate	Run2	regulate/STIM_006.jpg
1031.131	1.868	incorrect	regulate	Run2	regulate/STIM_006.jpg
1036.834	1.834	correct	regulate	Run2	regulate/STIM_006.jpg
1040.687	1.284	correct	regulate	Run2	regulate/STIM_006.jpg
1045.498	2.42	correct	regulate	Run2	regulate/STIM_007.jpg
1051.36	1.314	incorrect	regulate	Run2	regulate/STIM_007.jpg
1056.146	1.529	correct	regulate	Run2	regulate/STIM_007.jpg
1061.401	2.008	correct	regulate	Run2	regulate/STIM_007.jpg
1065.708	1.378	correct	regulate	Run2	regulate/STIM_008.jpg
1069.136	2.187	correct	regulate	Run2	regulate/STIM_008.jpg
1075.161	2.119	correct	regulate	Run2	regulate/STIM_008.jpg
1080.82	1.91	correct	regulate	Run2	regulate/STIM_008.jpg
1085.452	2.05	correct	regulate	Run2	regulate/STIM_009.jpg
1091.283	1.619	incorrect	regulate	Run2	regulate/STIM_009.jpg
1096.873	1.102	correct	regulate	Run2	regulate/STIM_009.jpg
1100.948	1.458	correct	regulate	Run2	regulate/STIM_009.jpg
1104.44	1.469	correct	regulate	Run2	regulate/STIM_010.jpg
1108.691	1.285	correct	regulate	Run2	regulate/STIM_010.jpg
1112.443	1.405	correct	regulate	Run2	regulate/STIM_010.jpg
1116.29	1.151	correct	regulate	Run2	regulate/STIM_010.jpg
1120.923	2.378	correct	regulate	Run2	regulate/STIM_011.jpg
1127.265	2.029	correct	regulate	Run2	regulate/STIM_011.jpg
1131.376	1.5	incorrect	regulate	Run2	regulate/STIM_011.jpg
1135.892	1.286	correct	regulate	Run2	regulate/STIM_011.jpg
1139.628	1.296	correct	regulate	Run2	regulate/STIM_012.jpg
1144.821	1.861	incorrect	regulate	Run2	regulate/STIM_012.jpg
1148.839	1.887	incorrect	regulate	Run2	regulate/STIM_012.jpg
1153.637	1.147	correct	regulate	Run2	regulate/STIM_012.jpg
1158.046	1.687	correct	regulate	Run2	regulate/STIM_013.jpg
1163.024	1.43	incorrect	regulate	Run2	regulate/STIM_013.jpg
1167.787	1.347	correct	regulate	Run2	regulate/STIM_013.jpg
1171.259	1.779	correct	regulate	Run2	regulate/STIM_013.jpg
1175.181	2.482	incorrect	regulate	Run2	regulate/STIM_014.jpg
1181.545	1.3	correct	regulate	Run2	regulate/STIM_014.jpg
1186.401	1.521	correct	regulate	Run2	regulate/STIM_014.jpg
1191.498	1.26	correct	regulate	Run2	regulate/STIM_014.jpg
1194.799	2.306	correct	regulate	Run2	regulate/STIM_015.jpg
1199.267	1.136	incorrect	regulate	Run2	regulate/STIM_015.jpg
1203.785	1.446	incorrect	regulate	Run2	regulate/STIM_015.jpg
1207.562	1.553	correct	regulate	Run2	regulate/STIM_015.jpg
1212.713	1.332	correct	regulate	Run2	regulate/STIM_016.jpg
1216.206	1.512	correct	regulate	Run2	regulate/STIM_016.jpg
1219.774	1.749	correct	regulate	Run2	regulate/STIM_016.jpg
1224.845	1.664	correct	regulate	Run2	regulate/STIM_016.jpg
1230.146	1.679	correct	regulate	Run2	regulate/STIM_017.jpg
1234.14	2.237	correct	regulate	Run2	regulate/STIM_017.jpg
1238.892	1.87	correct	regulate	Run2	regulate/STIM_017.jpg
1243.729	1.569	incorrect	regulate	Run2	regulate/STIM_017.jpg
1249.086	2.388	correct	regulate	Run2	regulate/STIM_018.jpg
1253.937	2.297	correct	regulate	Run2	regulate/STIM_018.jpg
1258.731	1.167	correct	regulate	Run2	regulate/STIM_018.jpg
1263.393	1.799	correct	regulate	Run2	regulate/STIM_018.jpg
1268.159	1.383	incorrect	regulate	Run2	regulate/STIM_019.jpg
1273.079	1.355	correct	regulate	Run2	regulate/STIM_019.jpg
1278.05	1.116	correct	regulate	Run2	regulate/STIM_019.jpg
1281.571	0.926	correct	regulate	Run2	regulate/STIM_019.jpg
1284.808	1.351	correct	regulate	Run2	regulate/STIM_020.jpg
1288.697	1.057	incorrect	regulate	Run2	regulate/STIM_020.jpg
1292.282	1.835	correct	regulate	Run2	regulate/STIM_020.jpg
1297.826	1.969	correct	regulate	Run2	regulate/STIM_020.jpg
1302.799	1.066	incorrect	regulate	Run2	regulate/STIM_021.jpg
1307.774	1.061	correct	regulate	Run2	regulate/STIM_021.jpg
1311.14	1.706	incorrect	regulate	Run2	regulate/STIM_021.jpg
1316.457	1.02	correct	regulate	Run2	regulate/STIM_021.jpg
1320.224	1.106	correct	regulate	Run2	regulate/STIM_022.jpg
1324.239	1.515	correct	regulate	Run2	regulate/STIM_022.jpg
1329.233	1.586	correct	regulate	Run2	regulate/STIM_022.jpg
1333.43	0.897	incorrect	regulate	Run2	regulate/STIM_022.jpg
1337.875	1.112	correct	regulate	Run2	regulate/STIM_023.jpg
1342.404	1.069	correct	regulate	Run2	regulate/STIM_023.jpg
1345.818	1.789	incorrect	regulate	Run2	regulate/STIM_023.jpg
1349.801	1.528	correct	regulate	Run2	regulate/STIM_023.jpg
1353.354	1.447	incorrect	regulate	Run2	regulate/STIM_024.jpg
1358.155	1.515	correct	regulate	Run2	regulate/STIM_024.jpg
1361.987	1.058	correct	regulate	Run2	regulate/STIM_024.jpg
1366.333	1.888	correct	regulate	Run2	regulate/STIM_024.jpg
1370.926	1.101	correct	regulate	Run2	regulate/STIM_025.jpg
1375.491	1.947	correct	regulate	Run2	regulate/STIM_025.jpg
1379.924	1.709	correct	regulate	Run2	regulate/STIM_025.jpg
1384.51	1.663	correct	regulate	Run2	regulate/STIM_025.jpg
1388.779	1.188	correct	regulate	Run2	regulate/STIM_026.jpg
1393.466	1.994	incorrect	regulate	Run2	regulate/STIM_026.jpg
1397.734	2.015	correct	regulate	Run2	regulate/STIM_026.jpg
1403.314	1.75	incorrect	regulate	Run2	regulate/STIM_026.jpg
1408.582	1.35	correct	regulate	Run2	regulate/STIM_027.jpg
1412.306	2.3	correct	regulate	Run2	regulate/STIM_027.jpg
1418.166	1.319	incorrect	regulate	Run2	regulate/STIM_027.jpg
1421.567	1.25	incorrect	regulate	Run2	regulate/STIM_027.jpg
1425.525	1.614	incorrect	regulate	Run2	regulate/STIM_028.jpg
1429.213	1.927	correct	regulate	Run2	regulate/STIM_028.jpg
1435.099	1.662	correct	regulate	Run2	regulate/STIM_028.jpg
1438.938	1.06	incorrect	regulate	Run2	regulate/STIM_028.jpg
1442.803	1.441	correct	regulate	Run2	regulate/STIM_029.jpg
1447.2	1.82	correct	regulate	Run2	regulate/STIM_029.jpg
1451.679	0.975	correct	regulate	Run2	regulate/STIM_029.jpg
1454.666	1.317	incorrect	regulate	Run2	regulate/STIM_029.jpg
1458.59	0.919	incorrect	observe	Run2	observe/STIM_000.jpg
1462.816	0.76	incorrect	observe	Run2	observe/STIM_000.jpg
1466.785	1.041	correct	observe	Run2	observe/STIM_000.jpg
1470.732	0.855	correct	observe	Run2	observe/STIM_000.jpg
1473.949	1.08	incorrect	observe	Run2	observe/STIM_001.jpg
1477.081	1.044	incorrect	observe	Run2	observe/STIM_001.jpg
1481.844	0.92	correct	observe	Run2	observe/STIM_001.jpg
1484.846	1.073	incorrect	observe	Run2	observe/STIM_001.jpg
1489.414	1.155	incorrect	observe	Run2	observe/STIM_002.jpg
1494.181	0.874	incorrect	observe	Run2	observe/STIM_002.jpg
1498.57	0.919	correct	observe	Run2	observe/STIM_002.jpg
1503.052	1.03	correct	observe	Run2	observe/STIM_002.jpg
1506.725	0.729	incorrect	observe	Run2	observe/STIM_003.jpg
1510.091	0.794	correct	observe	Run2	observe/STIM_003.jpg
1513.348	0.797	correct	observe	Run2	observe/STIM_003.jpg
1517.691	1.278	correct	observe	Run2	observe/STIM_003.jpg
1521.773	1.02	correct	observe	Run2	observe/STIM_004.jpg
1525.49	1.199	incorrect	observe	Run2	observe/STIM_004.jpg
1528.702	1.276	incorrect	observe	Run2	observe/STIM_004.jpg
1532.026	0.752	correct	observe	Run2	observe/STIM_004.jpg
1535.424	1.317	correct	observe	Run2	observe/STIM_005.jpg
1539.409	0.888	correct	observe	Run2	observe/STIM_005.jpg
1543.53	0.863	correct	observe	Run2	observe/STIM_005.jpg
1546.627	0.874	correct	observe	Run2	observe/STIM_005.jpg
1550.313	1.008	correct	observe	Run2	observe/STIM_006.jpg
1554.782	0.927	incorrect	observe	Run2	observe/STIM_006.jpg
1558.592	1.324	correct	observe	Run2	observe/STIM_006.jpg
1563.15	1.01	correct	observe	Run2	observe/STIM_006.jpg
1567.34	0.852	correct	observe	Run2	observe/STIM_007.jpg
1571.398	0.78	incorrect	observe	Run2	observe/STIM_007.jpg
1574.486	0.992	correct	observe	Run2	observe/STIM_007.jpg
1579.175	1.217	incorrect	observe	Run2	observe/STIM_007.jpg
1583.598	0.984	correct	observe	Run2	observe/STIM_008.jpg
1588.068	1.076	correct	observe	Run2	observe/STIM_008.jpg
1592.789	1.145	correct	observe	Run2	observe/STIM_008.jpg
1597.903	0.673	incorrect	observe	Run2	observe/STIM_008.jpg
1601.222	0.84	correct	observe	Run2	observe/STIM_009.jpg
1604.52	1.059	correct	observe	Run2	observe/STIM_009.jpg
1608.35	1.052	correct	observe	Run2	observe/STIM_009.jpg
1611.885	1.077	correct	observe	Run2	observe/STIM_009.jpg
1616.853	0.774	correct	observe	Run2	observe/STIM_010.jpg
1621.624	1.291	incorrect	observe	Run2	observe/STIM_010.jpg
1626.481	1.159	correct	observe	Run2	observe/STIM_010.jpg
1630.027	1.038	correct	observe	Run2	observe/STIM_010.jpg
1633.904	1.221	correct	observe	Run2	observe/STIM_011.jpg
1638.467	1.26	correct	observe	Run2	observe/STIM_011.jpg
1641.905	0.678	correct	observe	Run2	observe/STIM_011.jpg
1645.622	0.903	correct	observe	Run2	observe/STIM_011.jpg
1648.99	0.766	correct	observe	Run2	observe/STIM_012.jpg
1652.437	1.172	correct	observe	Run2	observe/STIM_012.jpg
1655.954	0.931	incorrect	observe	Run2	observe/STIM_012.jpg
1659.022	1.074	correct	observe	Run2	observe/STIM_012.jpg
1663.737	0.802	incorrect	observe	Run2	observe/STIM_013.jpg
1667.263	1.053	correct	observe	Run2	observe/STIM_013.jpg
1671.546	1.2	correct	observe	Run2	observe/STIM_013.jpg
1676.541	0.724	incorrect	observe	Run2	observe/STIM_013.jpg
1681.043	1.191	incorrect	observe	Run2	observe/STIM_014.jpg
1685.155	0.805	correct	observe	Run2	observe/STIM_014.jpg
1688.01	1.095	correct	observe	Run2	observe/STIM_014.jpg
1692.94	0.953	incorrect	observe	Run2	observe/STIM_014.jpg
1696.786	0.89	correct	observe	Run2	observe/STIM_015.jpg
1699.995	1.062	incorrect	observe	Run2	observe/STIM_015.jpg
1704.908	0.867	correct	observe	Run2	observe/STIM_015.jpg
1708.171	1.128	incorrect	observe	Run2	observe/STIM_015.jpg
1712.619	0.812	correct	observe	Run2	observe/STIM_016.jpg
1717.284	1.3	correct	observe	Run2	observe/STIM_016.jpg
1722.544	1.133	incorrect	observe	Run2	observe/STIM_016.jpg
1727.015	0.793	correct	observe	Run2	observe/STIM_016.jpg
1730.015	1.123	correct	observe	Run2	observe/STIM_017.jpg
1735.036	1.184	correct	observe	Run2	observe/STIM_017.jpg
1739.844	0.759	correct	observe	Run2	observe/STIM_017.jpg
1743.688	0.725	correct	observe	Run2	observe/STIM_017.jpg
1748.25	1.185	correct	observe	Run2	observe/STIM_018.jpg
1753.36	0.856	correct	observe	Run2	observe/STIM_018.jpg
1757.781	1.027	correct	observe	Run2	observe/STIM_018.jpg
1762.434	0.697	correct	observe	Run2	observe/STIM_018.jpg
1767.089	0.746	correct	observe	Run2	observe/STIM_019.jpg
1770.695	1.019	correct	observe	Run2	observe/STIM_019.jpg
1775.018	1.119	correct	observe	Run2	observe/STIM_019.jpg
1779.034	0.817	incorrect	observe	Run2	observe/STIM_019.jpg
1782.711	1.482	correct	regulate	Run3	regulate/STIM_000.jpg
1787.595	1.461	correct	regulate	Run3	regulate/STIM_000.jpg
1792.667	1.307	incorrect	regulate	Run3	regulate/STIM_000.jpg
1796.033	0.902	correct	regulate	Run3	regulate/STIM_000.jpg
1800.507	1.887	correct	regulate	Run3	regulate/STIM_001.jpg
1804.436	1.356	correct	regulate	Run3	regulate/STIM_001.jpg
1808.813	0.888	correct	regulate	Run3	regulate/STIM_001.jpg
1813.089	1.54	correct	regulate	Run3	regulate/STIM_001.jpg
1817.331	0.947	correct	regulate	Run3	regulate/STIM_002.jpg
1820.409	1.308	incorrect	regulate	Run3	regulate/STIM_002.jpg
1825.285	1.997	incorrect	regulate	Run3	regulate/STIM_002.jpg
1829.654	1.504	correct	regulate	Run3	regulate/STIM_002.jpg
1834.652	1.843	correct	regulate	Run3	regulate/STIM_003.jpg
1839.821	0.893	incorrect	regulate	Run3	regulate/STIM_003.jpg
1842.824	1.285	correct	regulate	Run3	regulate/STIM_003.jpg
1847.269	1.306	correct	regulate	Run3	regulate/STIM_003.jpg
1850.899	1.001	correct	regulate	Run3	regulate/STIM_004.jpg
1854.05	1.607	correct	regulate	Run3	regulate/STIM_004.jpg
1858.823	1.9	correct	regulate	Run3	regulate/STIM_004.jpg
1863.219	1.594	correct	regulate	Run3	regulate/STIM_004.jpg
1868.369	1.236	correct	regulate	Run3	regulate/STIM_005.jpg
1871.829	1.547	correct	regulate	Run3	regulate/STIM_005.jpg
1876.901	2.044	correct	regulate	Run3	regulate/STIM_005.jpg
1881.256	1.163	correct	regulate	Run3	regulate/STIM_005.jpg
1885.071	0.978	correct	regulate	Run3	regulate/STIM_006.jpg
1888.817	1.406	correct	regulate	Run3	regulate/STIM_006.jpg
1893.076	1.329	correct	regulate	Run3	regulate/STIM_006.jpg
1898.214	1.838	incorrect	regulate	Run3	regulate/STIM_006.jpg
1902.779	0.995	correct	regulate	Run3	regulate/STIM_007.jpg
1905.899	1.2	incorrect	regulate	Run3	regulate/STIM_007.jpg
1909.14	1.636	correct	regulate	Run3	regulate/STIM_007.jpg
1913.812	1.924	correct	regulate	Run3	regulate/STIM_007.jpg
1918.701	1.438	correct	regulate	Run3	regulate/STIM_008.jpg
1922.347	1.483	correct	regulate	Run3	regulate/STIM_008.jpg
1927.33	1.837	correct	regulate	Run3	regulate/STIM_008.jpg
1932.902	1.401	correct	regulate	Run3	regulate/STIM_008.jpg
1938.264	1.171	incorrect	regulate	Run3	regulate/STIM_009.jpg
1941.545	1.161	correct	regulate	Run3	regulate/STIM_009.jpg
1945.234	1.484	incorrect	regulate	Run3	regulate/STIM_009.jpg
1949.496	2.023	correct	regulate	Run3	regulate/STIM_009.jpg
1954.344	1.474	correct	regulate	Run3	regulate/STIM_010.jpg
1958.001	1.763	correct	regulate	Run3	regulate/STIM_010.jpg
1962.928	1.889	correct	regulate	Run3	regulate/STIM_010.jpg
1967.698	2.04	correct	regulate	Run3	regulate/STIM_010.jpg
1972.26	1.804	correct	regulate	Run3	regulate/STIM_011.jpg
1976.141	1.608	correct	regulate	Run3	regulate/STIM_011.jpg
1981.131	1.321	correct	regulate	Run3	regulate/STIM_011.jpg
1985.714	0.918	correct	regulate	Run3	regulate/STIM_011.jpg
1988.702	1.006	correct	regulate	Run3	regulate/STIM_012.jpg
1992.748	1.457	correct	regulate	Run3	regulate/STIM_012.jpg
1997.504	1.809	correct	regulate	Run3	regulate/STIM_012.jpg
2002.294	0.941	correct	regulate	Run3	regulate/STIM_012.jpg
2006.16	1.999	correct	regulate	Run3	regulate/STIM_013.jpg
2011.781	1.544	incorrect	regulate	Run3	regulate/STIM_013.jpg
2016.953	1.885	correct	regulate	Run3	regulate/STIM_013.jpg
2021.372	1.904	correct	regulate	Run3	regulate/STIM_013.jpg
2026.947	1.121	correct	regulate	Run3	regulate/STIM_014.jpg
2031.143	1.382	incorrect	regulate	Run3	regulate/STIM_014.jpg
2035.283	1.878	correct	regulate	Run3	regulate/STIM_014.jpg
2039.26	1.975	correct	regulate	Run3	regulate/STIM_014.jpg
2043.607	1.06	correct	regulate	Run3	regulate/STIM_015.jpg
2048.604	0.933	incorrect	regulate	Run3	regulate/STIM_015.jpg
2052.166	1.223	correct	regulate	Run3	regulate/STIM_015.jpg
2057.133	1.993	incorrect	regulate	Run3	regulate/STIM_015.jpg
2061.273	1.507	correct	regulate	Run3	regulate/STIM_016.jpg
2065.72	1.749	correct	regulate	Run3	regulate/STIM_016.jpg
2071.095	1.521	correct	regulate	Run3	regulate/STIM_016.jpg
2076.348	1.15	incorrect	regulate	Run3	regulate/STIM_016.jpg
2080.075	1.725	correct	regulate	Run3	regulate/STIM_017.jpg
2084.917	2.034	correct	regulate	Run3	regulate/STIM_017.jpg
2090.857	1.018	incorrect	regulate	Run3	regulate/STIM_017.jpg
2094.101	1.631	correct	regulate	Run3	regulate/STIM_017.jpg
2099.586	1.744	incorrect	regulate	Run3	regulate/STIM_018.jpg
2105.227	1.416	correct	regulate	Run3	regulate/STIM_018.jpg
2109.72	1.855	correct	regulate	Run3	regulate/STIM_018.jpg
2114.321	1.784	correct	regulate	Run3	regulate/STIM_018.jpg
2119.583	1.319	correct	regulate	Run3	regulate/STIM_019.jpg
2124.111	2.01	correct	regulate	Run3	regulate/STIM_019.jpg
2128.489	1.81	correct	regulate	Run3	regulate/STIM_019.jpg
2133.67	1.135	correct	regulate	Run3	regulate/STIM_019.jpg
2137.761	1.333	correct	regulate	Run3	regulate/STIM_020.jpg
2143.057	1.126	correct	regulate	Run3	regulate/STIM_020.jpg
2146.782	0.97	incorrect	regulate	Run3	regulate/STIM_020.jpg
2151.333	0.963	correct	regulate	Run3	regulate/STIM_020.jpg
2155.248	1.186	incorrect	regulate	Run3	regulate/STIM_021.jpg
2158.565	1.441	correct	regulate	Run3	regulate/STIM_021.jpg
2163.496	2.027	correct	regulate	Run3	regulate/STIM_021.jpg
2169.285	1.096	correct	regulate	Run3	regulate/STIM_021.jpg
2173.976	2.025	correct	regulate	Run3	regulate/STIM_022.jpg
2179.597	1.163	correct	regulate	Run3	regulate/STIM_022.jpg
2183.507	1.405	correct	regulate	Run3	regulate/STIM_022.jpg
2188.614	1.398	correct	regulate	Run3	regulate/STIM_022.jpg
2192.559	1.724	incorrect	regulate	Run3	regulate/STIM_023.jpg
2196.46	1.879	correct	regulate	Run3	regulate/STIM_023.jpg
2201.77	1.243	correct	regulate	Run3	regulate/STIM_023.jpg
2205.921	1.606	correct	regulate	Run3	regulate/STIM_023.jpg
2209.842	1.125	correct	regulate	Run3	regulate/STIM_024.jpg
2213.881	1.875	correct	regulate	Run3	regulate/STIM_024.jpg
2218.143	1.289	correct	regulate	Run3	regulate/STIM_024.jpg
2223.014	1.755	correct	regulate	Run3	regulate/STIM_024.jpg
2226.834	1.547	correct	regulate	Run3	regulate/STIM_025.jpg
2231.205	1.688	correct	regulate	Run3	regulate/STIM_025.jpg
2235.53	1.881	correct	regulate	Run3	regulate/STIM_025.jpg
2240.598	1.225	correct	regulate	Run3	regulate/STIM_025.jpg
2245.283	1.301	correct	regulate	Run3	regulate/STIM_026.jpg
2249.386	0.914	correct	regulate	Run3	regulate/STIM_026.jpg
2252.634	1.434	correct	regulate	Run3	regulate/STIM_026.jpg
2256.113	1.402	correct	regulate	Run3	regulate/STIM_026.jpg
2259.854	1.72	correct	regulate	Run3	regulate/STIM_027.jpg
2265.369	2.037	correct	regulate	Run3	regulate/STIM_027.jpg
2271.178	1.244	correct	regulate	Run3	regulate/STIM_027.jpg
2275.563	1.455	incorrect	regulate	Run3	regulate/STIM_027.jpg
2279.459	0.966	correct	regulate	Run3	regulate/STIM_028.jpg
2282.939	1.692	correct	regulate	Run3	regulate/STIM_028.jpg
2287.274	0.908	correct	regulate	Run3	regulate/STIM_028.jpg
2291.264	1.788	correct	regulate	Run3	regulate/STIM_028.jpg
2296.763	1.353	correct	regulate	Run3	regulate/STIM_029.jpg
2300.759	1.891	correct	regulate	Run3	regulate/STIM_029.jpg
2306.251	1.19	correct	regulate	Run3	regulate/STIM_029.jpg
2309.564	2.041	correct	regulate	Run3	regulate/STIM_029.jpg
2313.962	0.949	correct	observe	Run3	observe/STIM_000.jpg
2317.54	0.794	correct	observe	Run3	observe/STIM_000.jpg
2321.491	1.099	correct	observe	Run3	observe/STIM_000.jpg
2325.285	1.238	incorrect	observe	Run3	observe/STIM_000.jpg
2330.448	0.877	incorrect	observe	Run3	observe/STIM_001.jpg
2334.348	0.774	correct	observe	Run3	observe/STIM_001.jpg
2337.971	0.685	correct	observe	Run3	observe/STIM_001.jpg
2340.779	0.774	correct	observe	Run3	observe/STIM_001.jpg
2344.84	1.071	correct	observe	Run3	observe/STIM_002.jpg
2349.168	0.794	correct	observe	Run3	observe/STIM_002.jpg
2352.519	0.934	incorrect	observe	Run3	observe/STIM_002.jpg
2357.434	0.674	correct	observe	Run3	observe/STIM_002.jpg
2361.826	1.235	incorrect	observe	Run3	observe/STIM_003.jpg
2365.262	1.27	correct	observe	Run3	observe/STIM_003.jpg
2368.605	0.898	incorrect	observe	Run3	observe/STIM_003.jpg
2373.072	1.102	correct	observe	Run3	observe/STIM_003.jpg
2378.023	0.78	correct	observe	Run3	observe/STIM_004.jpg
2382.691	1.009	correct	observe	Run3	observe/STIM_004.jpg
2387.522	1.15	correct	observe	Run3	observe/STIM_004.jpg
2392.017	1.196	incorrect	observe	Run3	observe/STIM_004.jpg
2395.246	0.795	correct	observe	Run3	observe/STIM_005.jpg
2398.131	0.806	incorrect	observe	Run3	observe/STIM_005.jpg
2402.154	1.319	correct	observe	Run3	observe/STIM_005.jpg
2405.901	1.282	correct	observe	Run3	observe/STIM_005.jpg
2410.204	0.842	correct	observe	Run3	observe/STIM_006.jpg
2413.361	1.092	correct	observe	Run3	observe/STIM_006.jpg
2416.606	1.078	correct	observe	Run3	observe/STIM_006.jpg
2420.134	0.704	correct	observe	Run3	observe/STIM_006.jpg
2423.118	1.041	incorrect	observe	Run3	observe/STIM_007.jpg
2427.982	0.79	correct	observe	Run3	observe/STIM_007.jpg
2431.219	1.177	correct	observe	Run3	observe/STIM_007.jpg
2435.397	1.201	correct	observe	Run3	observe/STIM_007.jpg
2439.959	0.843	correct	observe	Run3	observe/STIM_008.jpg
2443.953	1.055	correct	observe	Run3	observe/STIM_008.jpg
2448.351	0.788	incorrect	observe	Run3	observe/STIM_008.jpg
2453.065	1.079	correct	observe	Run3	observe/STIM_008.jpg
2457.307	0.883	correct	observe	Run3	observe/STIM_009.jpg
2461.568	0.932	correct	observe	Run3	observe/STIM_009.jpg
2465.054	1.149	correct	observe	Run3	observe/STIM_009.jpg
2469.929	1.085	incorrect	observe	Run3	observe/STIM_009.jpg
2474.006	1.121	incorrect	observe	Run3	observe/STIM_010.jpg
2478.321	0.856	incorrect	observe	Run3	observe/STIM_010.jpg
2482.193	1.154	correct	observe	Run3	observe/STIM_010.jpg
2486.606	0.894	correct	observe	Run3	observe/STIM_010.jpg
2489.588	1.005	correct	observe	Run3	observe/STIM_011.jpg
2493.237	0.872	correct	observe	Run3	observe/STIM_011.jpg
2497.44	1.092	correct	observe	Run3	observe/STIM_011.jpg
2502.035	0.983	correct	observe	Run3	observe/STIM_011.jpg
2506.929	0.809	correct	observe	Run3	observe/STIM_012.jpg
2510.923	1.256	correct	observe	Run3	observe/STIM_012.jpg
2515.871	1.057	correct	observe	Run3	observe/STIM_012.jpg
2519.583	0.749	correct	observe	Run3	observe/STIM_012.jpg
2522.666	0.812	correct	observe	Run3	observe/STIM_013.jpg
2526.929	0.884	incorrect	observe	Run3	observe/STIM_013.jpg
2530.423	0.728	correct	observe	Run3	observe/STIM_013.jpg
2534.727	0.862	incorrect	observe	Run3	observe/STIM_013.jpg
2537.757	1.147	correct	observe	Run3	observe/STIM_014.jpg
2541.154	1.096	incorrect	observe	Run3	observe/STIM_014.jpg
2545.136	0.832	correct	observe	Run3	observe/STIM_014.jpg
2548.428	1.134	correct	observe	Run3	observe/STIM_014.jpg
2553.032	0.766	incorrect	observe	Run3	observe/STIM_015.jpg
2555.997	1.229	correct	observe	Run3	observe/STIM_015.jpg
2560.336	0.997	correct	observe	Run3	observe/STIM_015.jpg
2564.41	1.087	incorrect	observe	Run3	observe/STIM_015.jpg
2568.619	0.699	correct	observe	Run3	observe/STIM_016.jpg
2571.515	0.836	correct	observe	Run3	observe/STIM_016.jpg
2574.622	1.102	correct	observe	Run3	observe/STIM_016.jpg
2577.74	1.229	incorrect	observe	Run3	observe/STIM_016.jpg
2582.385	0.902	correct	observe	Run3	observe/STIM_017.jpg
2587.15	1.089	correct	observe	Run3	observe/STIM_017.jpg
2591.198	1.25	correct	observe	Run3	observe/STIM_017.jpg
2595.281	1.137	correct	observe	Run3	observe/STIM_017.jpg
2599.145	0.695	correct	observe	Run3	observe/STIM_018.jpg
2603.382	1.159	correct	observe	Run3	observe/STIM_018.jpg
2607.884	1.251	incorrect	observe	Run3	observe/STIM_018.jpg
2612.653	0.811	correct	observe	Run3	observe/STIM_018.jpg
2616.126	1.033	correct	observe	Run3	observe/STIM_019.jpg
2620.573	1.072	correct	observe	Run3	observe/STIM_019.jpg
2624.109	0.724	correct	observe	Run3	observe/STIM_019.jpg
2627.816	1.185	incorrect	observe	Run3	observe/STIM_019.jpg
