onset	duration	accuracy_binary	trial_type	learning_stage	stimulus
0.0	3.174	1	regulate	Run1	regulate/STIM_000.jpg
5.663	1.879	1	regulate	Run1	regulate/STIM_000.jpg
10.411	2.224	1	regulate	Run1	regulate/STIM_000.jpg
16.038	1.495	1	regulate	Run1	regulate/STIM_000.jpg
20.454	3.243	1	regulate	Run1	regulate/STIM_001.jpg
27.602	2.473	1	regulate	Run1	regulate/STIM_001.jpg
33.142	2.486	1	regulate	Run1	regulate/STIM_001.jpg
38.912	2.225	0	regulate	Run1	regulate/STIM_001.jpg
43.377	2.228	0	regulate	Run1	regulate/STIM_002.jpg
49.576	2.293	1	regulate	Run1	regulate/STIM_002.jpg
54.261	1.772	0	regulate	Run1	regulate/STIM_002.jpg
59.846	2.3	1	regulate	Run1	regulate/STIM_002.jpg
64.469	2.166	1	regulate	Run1	regulate/STIM_003.jpg
69.487	2.411	1	regulate	Run1	regulate/STIM_003.jpg
74.185	1.346	1	regulate	Run1	regulate/STIM_003.jpg
78.4	2.264	1	regulate	Run1	regulate/STIM_003.jpg
82.888	3.479	1	regulate	Run1	regulate/STIM_004.jpg
89.171	1.622	0	regulate	Run1	regulate/STIM_004.jpg
93.629	2.833	1	regulate	Run1	regulate/STIM_004.jpg
99.042	1.717	0	regulate	Run1	regulate/STIM_004.jpg
103.566	3.07	1	regulate	Run1	regulate/STIM_005.jpg
110.558	2.598	1	regulate	Run1	regulate/STIM_005.jpg
116.447	2.954	1	regulate	Run1	regulate/STIM_005.jpg
122.667	2.722	1	regulate	Run1	regulate/STIM_005.jpg
128.595	2.335	1	regulate	Run1	regulate/STIM_006.jpg
134.28	3.036	1	regulate	Run1	regulate/STIM_006.jpg
139.857	2.613	1	regulate	Run1	regulate/STIM_006.jpg
146.415	2.541	0	regulate	Run1	regulate/STIM_006.jpg
150.999	3.481	1	regulate	Run1	regulate/STIM_007.jpg
157.219	3.119	1	regulate	Run1	regulate/STIM_007.jpg
163.256	3.045	1	regulate	Run1	regulate/STIM_007.jpg
168.323	2.19	1	regulate	Run1	regulate/STIM_007.jpg
172.868	2.509	1	regulate	Run1	regulate/STIM_008.jpg
178.995	3.115	1	regulate	Run1	regulate/STIM_008.jpg
185.917	2.782	1	regulate	Run1	regulate/STIM_008.jpg
190.859	1.429	1	regulate	Run1	regulate/STIM_008.jpg
196.238	2.615	1	regulate	Run1	regulate/STIM_009.jpg
201.335	1.822	1	regulate	Run1	regulate/STIM_009.jpg
206.92	1.414	1	regulate	Run1	regulate/STIM_009.jpg
211.869	2.531	1	regulate	Run1	regulate/STIM_009.jpg
218.021	3.029	1	regulate	Run1	regulate/STIM_010.jpg
223.904	2.438	1	regulate	Run1	regulate/STIM_010.jpg
228.545	1.953	1	regulate	Run1	regulate/STIM_010.jpg
232.796	2.256	1	regulate	Run1	regulate/STIM_010.jpg
238.88	1.563	1	regulate	Run1	regulate/STIM_011.jpg
243.98	2.767	1	regulate	Run1	regulate/STIM_011.jpg
249.743	2.885	1	regulate	Run1	regulate/STIM_011.jpg
255.305	1.964	1	regulate	Run1	regulate/STIM_011.jpg
260.191	1.882	1	regulate	Run1	regulate/STIM_012.jpg
264.533	2.418	1	regulate	Run1	regulate/STIM_012.jpg
270.106	1.692	1	regulate	Run1	regulate/STIM_012.jpg
275.729	1.32	0	regulate	Run1	regulate/STIM_012.jpg
279.845	2.656	1	regulate	Run1	regulate/STIM_013.jpg
284.607	3.185	0	regulate	Run1	regulate/STIM_013.jpg
290.063	1.6	1	regulate	Run1	regulate/STIM_013.jpg
295.147	2.119	1	regulate	Run1	regulate/STIM_013.jpg
300.224	2.215	0	regulate	Run1	regulate/STIM_014.jpg
306.01	2.346	1	regulate	Run1	regulate/STIM_014.jpg
310.662	1.587	0	regulate	Run1	regulate/STIM_014.jpg
315.42	2.376	1	regulate	Run1	regulate/STIM_014.jpg
320.507	2.478	1	regulate	Run1	regulate/STIM_015.jpg
326.246	3.13	0	regulate	Run1	regulate/STIM_015.jpg
331.645	2.112	1	regulate	Run1	regulate/STIM_015.jpg
336.446	2.06	1	regulate	Run1	regulate/STIM_015.jpg
341.043	2.566	1	regulate	Run1	regulate/STIM_016.jpg
346.192	1.73	1	regulate	Run1	regulate/STIM_016.jpg
351.132	1.698	0	regulate	Run1	regulate/STIM_016.jpg
355.952	2.551	0	regulate	Run1	regulate/STIM_016.jpg
361.127	2.879	1	regulate	Run1	regulate/STIM_017.jpg
367.602	1.956	0	regulate	Run1	regulate/STIM_017.jpg
371.978	1.623	1	regulate	Run1	regulate/STIM_017.jpg
375.77	1.382	1	regulate	Run1	regulate/STIM_017.jpg
380.716	2.529	1	regulate	Run1	regulate/STIM_018.jpg
385.619	2.062	1	regulate	Run1	regulate/STIM_018.jpg
390.225	2.461	1	regulate	Run1	regulate/STIM_018.jpg
396.375	2.711	1	regulate	Run1	regulate/STIM_018.jpg
401.679	2.854	1	regulate	Run1	regulate/STIM_019.jpg
406.963	2.74	0	regulate	Run1	regulate/STIM_019.jpg
412.78	2.914	0	regulate	Run1	regulate/STIM_019.jpg
419.354	2.145	1	regulate	Run1	regulate/STIM_019.jpg
424.441	3.461	1	regulate	Run1	regulate/STIM_020.jpg
431.513	3.055	1	regulate	Run1	regulate/STIM_020.jpg
437.789	1.991	1	regulate	Run1	regulate/STIM_020.jpg
441.898	1.613	1	regulate	Run1	regulate/STIM_020.jpg
445.891	3.386	1	regulate	Run1	regulate/STIM_021.jpg
452.549	1.586	1	regulate	Run1	regulate/STIM_021.jpg
457.587	3.0	0	regulate	Run1	regulate/STIM_021.jpg
462.812	2.477	1	regulate	Run1	regulate/STIM_021.jpg
469.057	1.764	1	regulate	Run1	regulate/STIM_022.jpg
473.38	2.105	1	regulate	Run1	regulate/STIM_022.jpg
478.552	2.262	1	regulate	Run1	regulate/STIM_022.jpg
483.782	2.518	1	regulate	Run1	regulate/STIM_022.jpg
489.425	1.963	1	regulate	Run1	regulate/STIM_023.jpg
493.672	3.061	0	regulate	Run1	regulate/STIM_023.jpg
500.586	3.028	1	regulate	Run1	regulate/STIM_023.jpg
507.551	1.574	1	regulate	Run1	regulate/STIM_023.jpg
512.142	2.122	1	regulate	Run1	regulate/STIM_024.jpg
516.534	2.162	0	regulate	Run1	regulate/STIM_024.jpg
522.263	1.686	1	regulate	Run1	regulate/STIM_024.jpg
526.78	1.978	1	regulate	Run1	regulate/STIM_024.jpg
531.963	2.002	1	regulate	Run1	regulate/STIM_025.jpg
537.621	1.956	1	regulate	Run1	regulate/STIM_025.jpg
543.132	2.422	1	regulate	Run1	regulate/STIM_025.jpg
548.992	2.132	1	regulate	Run1	regulate/STIM_025.jpg
554.442	1.502	1	regulate	Run1	regulate/STIM_026.jpg
558.297	2.55	1	regulate	Run1	regulate/STIM_026.jpg
564.712	1.476	1	regulate	Run1	regulate/STIM_026.jpg
569.368	1.425	0	regulate	Run1	regulate/STIM_026.jpg
573.803	3.402	0	regulate	Run1	regulate/STIM_027.jpg
581.183	2.884	1	regulate	Run1	regulate/STIM_027.jpg
587.119	2.097	1	regulate	Run1	regulate/STIM_027.jpg
592.527	2.102	1	regulate	Run1	regulate/STIM_027.jpg
597.439	2.282	0	regulate	Run1	regulate/STIM_028.jpg
602.021	1.647	1	regulate	Run1	regulate/STIM_028.jpg
607.127	2.309	1	regulate	Run1	regulate/STIM_028.jpg
613.309	2.399	1	regulate	Run1	regulate/STIM_028.jpg
619.364	2.233	1	regulate	Run1	regulate/STIM_029.jpg
624.876	2.926	0	regulate	Run1	regulate/STIM_029.jpg
630.83	2.961	1	regulate	Run1	regulate/STIM_029.jpg
637.773	1.602	1	regulate	Run1	regulate/STIM_029.jpg
643.077	1.436	0	observe	Run1	observe/STIM_000.jpg
647.163	1.169	1	observe	Run1	observe/STIM_000.jpg
651.535	0.998	1	observe	Run1	observe/STIM_000.jpg
655.358	1.438	1	observe	Run1	observe/STIM_000.jpg
659.395	1.466	0	observe	Run1	observe/STIM_001.jpg
663.705	1.301	1	observe	Run1	observe/STIM_001.jpg
668.226	1.427	1	observe	Run1	observe/STIM_001.jpg
672.917	1.158	1	observe	Run1	observe/STIM_001.jpg
677.848	0.92	1	observe	Run1	observe/STIM_002.jpg
682.386	1.31	1	observe	Run1	observe/STIM_002.jpg
687.143	1.22	0	observe	Run1	observe/STIM_002.jpg
691.926	0.931	1	observe	Run1	observe/STIM_002.jpg
695.85	0.94	1	observe	Run1	observe/STIM_003.jpg
699.472	0.812	1	observe	Run1	observe/STIM_003.jpg
703.557	1.324	0	observe	Run1	observe/STIM_003.jpg
707.011	1.335	1	observe	Run1	observe/STIM_003.jpg
712.148	1.304	1	observe	Run1	observe/STIM_004.jpg
717.234	0.997	0	observe	Run1	observe/STIM_004.jpg
720.283	1.103	1	observe	Run1	observe/STIM_004.jpg
725.292	1.088	1	observe	Run1	observe/STIM_004.jpg
728.972	1.193	1	observe	Run1	observe/STIM_005.jpg
733.731	1.077	1	observe	Run1	observe/STIM_005.jpg
737.49	0.975	1	observe	Run1	observe/STIM_005.jpg
741.549	1.224	1	observe	Run1	observe/STIM_005.jpg
745.254	1.575	1	observe	Run1	observe/STIM_006.jpg
749.047	1.562	1	observe	Run1	observe/STIM_006.jpg
754.556	1.274	1	observe	Run1	observe/STIM_006.jpg
759.343	0.808	1	observe	Run1	observe/STIM_006.jpg
763.557	1.119	1	observe	Run1	observe/STIM_007.jpg
768.111	1.054	1	observe	Run1	observe/STIM_007.jpg
771.239	1.109	1	observe	Run1	observe/STIM_007.jpg
775.798	1.125	0	observe	Run1	observe/STIM_007.jpg
778.93	1.38	1	observe	Run1	observe/STIM_008.jpg
784.197	1.117	1	observe	Run1	observe/STIM_008.jpg
788.786	1.111	1	observe	Run1	observe/STIM_008.jpg
791.979	0.925	1	observe	Run1	observe/STIM_008.jpg
795.124	0.964	1	observe	Run1	observe/STIM_009.jpg
800.029	1.481	1	observe	Run1	observe/STIM_009.jpg
805.22	1.32	1	observe	Run1	observe/STIM_009.jpg
808.946	1.405	1	observe	Run1	observe/STIM_009.jpg
814.004	1.199	1	observe	Run1	observe/STIM_010.jpg
818.206	1.227	1	observe	Run1	observe/STIM_010.jpg
822.383	1.582	1	observe	Run1	observe/STIM_010.jpg
827.433	0.827	1	observe	Run1	observe/STIM_010.jpg
830.413	1.074	1	observe	Run1	observe/STIM_011.jpg
834.917	1.368	1	observe	Run1	observe/STIM_011.jpg
838.948	1.289	1	observe	Run1	observe/STIM_011.jpg
843.674	1.571	1	observe	Run1	observe/STIM_011.jpg
847.732	1.227	1	observe	Run1	observe/STIM_012.jpg
851.128	1.049	1	observe	Run1	observe/STIM_012.jpg
856.117	0.942	0	observe	Run1	observe/STIM_012.jpg
859.962	1.242	1	observe	Run1	observe/STIM_012.jpg
864.642	1.075	1	observe	Run1	observe/STIM_013.jpg
868.137	1.357	1	observe	Run1	observe/STIM_013.jpg
873.284	1.004	1	observe	Run1	observe/STIM_013.jpg
876.449	1.58	1	observe	Run1	observe/STIM_013.jpg
881.856	1.057	1	observe	Run1	observe/STIM_014.jpg
886.227	1.35	1	observe	Run1	observe/STIM_014.jpg
891.204	0.854	1	observe	Run1	observe/STIM_014.jpg
895.407	1.307	1	observe	Run1	observe/STIM_014.jpg
900.173	0.936	1	observe	Run1	observe/STIM_015.jpg
904.023	0.868	1	observe	Run1	observe/STIM_015.jpg
908.774	0.909	1	observe	Run1	observe/STIM_015.jpg
912.994	1.411	1	observe	Run1	observe/STIM_015.jpg
918.226	1.116	1	observe	Run1	observe/STIM_016.jpg
922.402	1.427	1	observe	Run1	observe/STIM_016.jpg
927.264	1.585	0	observe	Run1	observe/STIM_016.jpg
931.594	1.347	1	observe	Run1	observe/STIM_016.jpg
935.883	1.51	1	observe	Run1	observe/STIM_017.jpg
939.685	0.816	1	observe	Run1	observe/STIM_017.jpg
944.227	1.584	1	observe	Run1	observe/STIM_017.jpg
949.707	0.818	1	observe	Run1	observe/STIM_017.jpg
953.641	0.819	0	observe	Run1	observe/STIM_018.jpg
957.652	1.232	1	observe	Run1	observe/STIM_018.jpg
961.981	1.418	1	observe	Run1	observe/STIM_018.jpg
966.553	1.435	1	observe	Run1	observe/STIM_018.jpg
970.688	0.904	1	observe	Run1	observe/STIM_019.jpg
974.82	1.071	1	observe	Run1	observe/STIM_019.jpg
979.556	1.324	0	observe	Run1	observe/STIM_019.jpg
983.731	1.27	1	observe	Run1	observe/STIM_019.jpg
988.294	2.218	0	regulate	Run2	regulate/STIM_000.jpg
992.626	2.27	1	regulate	Run2	regulate/STIM_000.jpg
998.066	1.427	1	regulate	Run2	regulate/STIM_000.jpg
1002.311	1.107	1	regulate	Run2	regulate/STIM_000.jpg
1006.543	1.292	1	regulate	Run2	regulate/STIM_001.jpg
1010.192	2.717	0	regulate	Run2	regulate/STIM_001.jpg
1016.305	2.081	1	regulate	Run2	regulate/STIM_001.jpg
1020.714	1.51	1	regulate	Run2	regulate/STIM_001.jpg
1024.401	2.402	1	regulate	Run2	regulate/STIM_002.jpg
1030.21	1.762	1	regulate	Run2	regulate/STIM_002.jpg
1035.117	1.169	1	regulate	Run2	regulate/STIM_002.jpg
1039.274	2.127	1	regulate	Run2	regulate/STIM_002.jpg
1045.312	2.359	1	regulate	Run2	regulate/STIM_003.jpg
1050.453	2.664	1	regulate	Run2	regulate/STIM_003.jpg
1056.449	2.084	1	regulate	Run2	regulate/STIM_003.jpg
1061.928	1.067	1	regulate	Run2	regulate/STIM_003.jpg
1066.609	1.896	1	regulate	Run2	regulate/STIM_004.jpg
1071.97	1.676	1	regulate	Run2	regulate/STIM_004.jpg
1077.516	2.346	1	regulate	Run2	regulate/STIM_004.jpg
1083.029	1.879	1	regulate	Run2	regulate/STIM_004.jpg
1087.33	2.156	1	regulate	Run2	regulate/STIM_005.jpg
1092.699	2.753	1	regulate	Run2	regulate/STIM_005.jpg
1098.187	2.291	0	regulate	Run2	regulate/STIM_005.jpg
1104.443	1.562	1	regulate	Run2	regulate/STIM_005.jpg
1109.09	2.325	1	regulate	Run2	regulate/STIM_006.jpg
1115.151	1.209	0	regulate	Run2	regulate/STIM_006.jpg
1119.985	1.705	1	regulate	Run2	regulate/STIM_006.jpg
1123.877	2.178	1	regulate	Run2	regulate/STIM_006.jpg
1129.402	2.506	1	regulate	Run2	regulate/STIM_007.jpg
1134.832	2.105	1	regulate	Run2	regulate/STIM_007.jpg
1139.416	2.413	1	regulate	Run2	regulate/STIM_007.jpg
1144.991	1.745	1	regulate	Run2	regulate/STIM_007.jpg
1150.081	1.475	1	regulate	Run2	regulate/STIM_008.jpg
1154.377	2.458	1	regulate	Run2	regulate/STIM_008.jpg
1159.287	2.383	1	regulate	Run2	regulate/STIM_008.jpg
1164.742	1.074	1	regulate	Run2	regulate/STIM_008.jpg
1168.882	1.938	1	regulate	Run2	regulate/STIM_009.jpg
1172.894	2.284	0	regulate	Run2	regulate/STIM_009.jpg
1178.997	1.322	1	regulate	Run2	regulate/STIM_009.jpg
1184.032	1.116	1	regulate	Run2	regulate/STIM_009.jpg
1187.302	2.511	1	regulate	Run2	regulate/STIM_010.jpg
1192.461	2.25	1	regulate	Run2	regulate/STIM_010.jpg
1198.08	2.334	1	regulate	Run2	regulate/STIM_010.jpg
1203.305	1.768	1	regulate	Run2	regulate/STIM_010.jpg
1208.35	2.038	1	regulate	Run2	regulate/STIM_011.jpg
1213.694	2.236	1	regulate	Run2	regulate/STIM_011.jpg
1219.498	2.443	1	regulate	Run2	regulate/STIM_011.jpg
1225.096	1.98	1	regulate	Run2	regulate/STIM_011.jpg
1229.386	2.514	1	regulate	Run2	regulate/STIM_012.jpg
1234.627	2.675	1	regulate	Run2	regulate/STIM_012.jpg
1239.981	2.448	0	regulate	Run2	regulate/STIM_012.jpg
1246.39	2.402	1	regulate	Run2	regulate/STIM_012.jpg
1251.852	1.939	1	regulate	Run2	regulate/STIM_013.jpg
1255.966	2.288	0	regulate	Run2	regulate/STIM_013.jpg
1260.476	1.466	1	regulate	Run2	regulate/STIM_013.jpg
1265.194	2.243	1	regulate	Run2	regulate/STIM_013.jpg
1270.295	2.279	1	regulate	Run2	regulate/STIM_014.jpg
1276.538	2.511	1	regulate	Run2	regulate/STIM_014.jpg
1282.346	1.666	1	regulate	Run2	regulate/STIM_014.jpg
1287.76	1.698	1	regulate	Run2	regulate/STIM_014.jpg
1291.729	2.482	1	regulate	Run2	regulate/STIM_015.jpg
1297.668	2.214	0	regulate	Run2	regulate/STIM_015.jpg
1302.34	2.384	0	regulate	Run2	regulate/STIM_015.jpg
1306.847	2.023	1	regulate	Run2	regulate/STIM_015.jpg
1311.863	2.343	1	regulate	Run2	regulate/STIM_016.jpg
1316.832	2.143	1	regulate	Run2	regulate/STIM_016.jpg
1322.278	1.885	1	regulate	Run2	regulate/STIM_016.jpg
1326.55	1.243	1	regulate	Run2	regulate/STIM_016.jpg
1331.75	1.447	1	regulate	Run2	regulate/STIM_017.jpg
1336.481	1.282	1	regulate	Run2	regulate/STIM_017.jpg
1340.051	1.553	1	regulate	Run2	regulate/STIM_017.jpg
1344.708	1.324	1	regulate	Run2	regulate/STIM_017.jpg
1349.754	1.977	1	regulate	Run2	regulate/STIM_018.jpg
1355.005	1.24	1	regulate	Run2	regulate/STIM_018.jpg
1360.21	2.216	1	regulate	Run2	regulate/STIM_018.jpg
1365.806	1.969	1	regulate	Run2	regulate/STIM_018.jpg
1371.028	2.256	1	regulate	Run2	regulate/STIM_019.jpg
1376.215	2.25	1	regulate	Run2	regulate/STIM_019.jpg
1382.103	1.718	1	regulate	Run2	regulate/STIM_019.jpg
1386.951	1.796	1	regulate	Run2	regulate/STIM_019.jpg
1391.245	1.459	1	regulate	Run2	regulate/STIM_020.jpg
1395.135	1.593	1	regulate	Run2	regulate/STIM_020.jpg
1400.474	1.208	1	regulate	Run2	regulate/STIM_020.jpg
1403.971	1.5	1	regulate	Run2	regulate/STIM_020.jpg
1408.242	1.694	1	regulate	Run2	regulate/STIM_021.jpg
1412.968	1.454	1	regulate	Run2	regulate/STIM_021.jpg
1417.833	1.948	1	regulate	Run2	regulate/STIM_021.jpg
1422.215	1.892	1	regulate	Run2	regulate/STIM_021.jpg
1427.444	2.432	1	regulate	Run2	regulate/STIM_022.jpg
1433.683	2.779	1	regulate	Run2	regulate/STIM_022.jpg
1440.073	2.448	1	regulate	Run2	regulate/STIM_022.jpg
1444.537	1.622	1	regulate	Run2	regulate/STIM_022.jpg
1449.052	2.752	1	regulate	Run2	regulate/STIM_023.jpg
1455.404	1.349	1	regulate	Run2	regulate/STIM_023.jpg
1460.696	1.688	0	regulate	Run2	regulate/STIM_023.jpg
1464.667	2.09	1	regulate	Run2	regulate/STIM_023.jpg
1469.651	1.725	1	regulate	Run2	regulate/STIM_024.jpg
1474.077	1.283	1	regulate	Run2	regulate/STIM_024.jpg
1478.392	1.832	1	regulate	Run2	regulate/STIM_024.jpg
1482.276	1.52	1	regulate	Run2	regulate/STIM_024.jpg
1485.937	2.884	1	regulate	Run2	regulate/STIM_025.jpg
1491.521	1.992	1	regulate	Run2	regulate/STIM_025.jpg
1495.905	1.58	1	regulate	Run2	regulate/STIM_025.jpg
1500.317	1.727	1	regulate	Run2	regulate/STIM_025.jpg
1506.019	1.57	1	regulate	Run2	regulate/STIM_026.jpg
1510.348	2.331	0	regulate	Run2	regulate/STIM_026.jpg
1514.969	2.253	1	regulate	Run2	regulate/STIM_026.jpg
1519.917	1.424	1	regulate	Run2	regulate/STIM_026.jpg
1524.099	2.414	1	regulate	Run2	regulate/STIM_027.jpg
1530.083	1.631	1	regulate	Run2	regulate/STIM_027.jpg
1535.421	2.584	1	regulate	Run2	regulate/STIM_027.jpg
1541.853	2.252	1	regulate	Run2	regulate/STIM_027.jpg
1547.95	2.718	1	regulate	Run2	regulate/STIM_028.jpg
1553.381	2.49	1	regulate	Run2	regulate/STIM_028.jpg
1559.421	1.699	1	regulate	Run2	regulate/STIM_028.jpg
1563.219	2.035	1	regulate	Run2	regulate/STIM_028.jpg
1567.479	1.45	1	regulate	Run2	regulate/STIM_029.jpg
1571.113	2.306	1	regulate	Run2	regulate/STIM_029.jpg
1576.883	2.414	1	regulate	Run2	regulate/STIM_029.jpg
1581.807	1.137	1	regulate	Run2	regulate/STIM_029.jpg
1585.172	1.576	0	observe	Run2	observe/STIM_000.jpg
1588.875	1.509	1	observe	Run2	observe/STIM_000.jpg
1593.876	1.365	1	observe	Run2	observe/STIM_000.jpg
1598.776	1.439	1	observe	Run2	observe/STIM_000.jpg
1603.34	1.558	1	observe	Run2	observe/STIM_001.jpg
1607.802	1.57	0	observe	Run2	observe/STIM_001.jpg
1611.598	1.267	1	observe	Run2	observe/STIM_001.jpg
1615.521	1.078	0	observe	Run2	observe/STIM_001.jpg
1619.528	1.226	1	observe	Run2	observe/STIM_002.jpg
1623.494	1.13	1	observe	Run2	observe/STIM_002.jpg
1628.361	0.917	1	observe	Run2	observe/STIM_002.jpg
1632.055	1.395	1	observe	Run2	observe/STIM_002.jpg
1635.75	1.457	1	observe	Run2	observe/STIM_003.jpg
1640.1	1.389	1	observe	Run2	observe/STIM_003.jpg
1645.443	0.935	1	observe	Run2	observe/STIM_003.jpg
1649.637	0.82	1	observe	Run2	observe/STIM_003.jpg
1653.833	0.805	1	observe	Run2	observe/STIM_004.jpg
1658.27	0.916	1	observe	Run2	observe/STIM_004.jpg
1662.925	1.356	1	observe	Run2	observe/STIM_004.jpg
1667.746	0.929	1	observe	Run2	observe/STIM_004.jpg
1672.126	1.198	1	observe	Run2	observe/STIM_005.jpg
1676.559	1.503	1	observe	Run2	observe/STIM_005.jpg
1682.047	1.202	1	observe	Run2	observe/STIM_005.jpg
1685.435	0.953	1	observe	Run2	observe/STIM_005.jpg
1690.29	1.579	1	observe	Run2	observe/STIM_006.jpg
1695.233	1.589	0	observe	Run2	observe/STIM_006.jpg
1699.282	1.57	1	observe	Run2	observe/STIM_006.jpg
1704.679	1.455	1	observe	Run2	observe/STIM_006.jpg
1708.438	1.3	1	observe	Run2	observe/STIM_007.jpg
1712.911	1.089	1	observe	Run2	observe/STIM_007.jpg
1716.337	0.91	1	observe	Run2	observe/STIM_007.jpg
1720.511	1.081	0	observe	Run2	observe/STIM_007.jpg
1725.04	1.342	1	observe	Run2	observe/STIM_008.jpg
1728.521	1.077	1	observe	Run2	observe/STIM_008.jpg
1731.726	0.987	1	observe	Run2	observe/STIM_008.jpg
1735.683	1.421	1	observe	Run2	observe/STIM_008.jpg
1740.758	1.026	1	observe	Run2	observe/STIM_009.jpg
1745.251	1.178	1	observe	Run2	observe/STIM_009.jpg
1750.375	0.95	1	observe	Run2	observe/STIM_009.jpg
1753.715	0.969	1	observe	Run2	observe/STIM_009.jpg
1757.603	1.301	1	observe	Run2	observe/STIM_010.jpg
1762.848	0.966	0	observe	Run2	observe/STIM_010.jpg
1766.075	0.922	1	observe	Run2	observe/STIM_010.jpg
1770.965	1.287	1	observe	Run2	observe/STIM_010.jpg
1774.877	0.897	1	observe	Run2	observe/STIM_011.jpg
1778.757	0.905	1	observe	Run2	observe/STIM_011.jpg
1782.544	1.056	1	observe	Run2	observe/STIM_011.jpg
1787.3	1.198	1	observe	Run2	observe/STIM_011.jpg
1791.11	1.082	1	observe	Run2	observe/STIM_012.jpg
1795.314	1.586	1	observe	Run2	observe/STIM_012.jpg
1799.942	0.856	0	observe	Run2	observe/STIM_012.jpg
1803.491	1.286	1	observe	Run2	observe/STIM_012.jpg
1807.858	1.57	0	observe	Run2	observe/STIM_013.jpg
1812.59	1.185	1	observe	Run2	observe/STIM_013.jpg
1816.823	1.398	1	observe	Run2	observe/STIM_013.jpg
1821.851	1.084	0	observe	Run2	observe/STIM_013.jpg
1826.133	0.957	0	observe	Run2	observe/STIM_014.jpg
1830.943	1.585	1	observe	Run2	observe/STIM_014.jpg
1834.59	1.483	1	observe	Run2	observe/STIM_014.jpg
1839.656	0.838	1	observe	Run2	observe/STIM_014.jpg
1843.534	0.961	1	observe	Run2	observe/STIM_015.jpg
1846.937	1.225	1	observe	Run2	observe/STIM_015.jpg
1851.123	1.112	1	observe	Run2	observe/STIM_015.jpg
1854.409	1.195	1	observe	Run2	observe/STIM_015.jpg
1859.45	0.858	1	observe	Run2	observe/STIM_016.jpg
1864.037	1.294	1	observe	Run2	observe/STIM_016.jpg
1867.892	1.579	1	observe	Run2	observe/STIM_016.jpg
1873.14	1.096	1	observe	Run2	observe/STIM_016.jpg
1876.917	0.974	1	observe	Run2	observe/STIM_017.jpg
1880.101	1.551	1	observe	Run2	observe/STIM_017.jpg
1884.965	1.072	1	observe	Run2	observe/STIM_017.jpg
1889.291	1.102	1	observe	Run2	observe/STIM_017.jpg
1892.512	1.309	1	observe	Run2	observe/STIM_018.jpg
1897.428	1.316	1	observe	Run2	observe/STIM_018.jpg
1901.114	1.114	1	observe	Run2	observe/STIM_018.jpg
1905.424	1.232	1	observe	Run2	observe/STIM_018.jpg
1909.074	1.339	1	observe	Run2	observe/STIM_019.jpg
1913.448	1.059	1	observe	Run2	observe/STIM_019.jpg
1917.377	0.984	1	observe	Run2	observe/STIM_019.jpg
1921.265	1.017	1	observe	Run2	observe/STIM_019.jpg
1925.304	2.156	1	regulate	Run3	regulate/STIM_000.jpg
1930.87	1.153	1	regulate	Run3	regulate/STIM_000.jpg
1934.041	1.561	1	regulate	Run3	regulate/STIM_000.jpg
1938.509	1.317	1	regulate	Run3	regulate/STIM_000.jpg
1942.577	1.341	1	regulate	Run3	regulate/STIM_001.jpg
1946.005	1.939	1	regulate	Run3	regulate/STIM_001.jpg
1951.779	1.132	1	regulate	Run3	regulate/STIM_001.jpg
1956.515	1.197	1	regulate	Run3	regulate/STIM_001.jpg
1960.847	1.309	1	regulate	Run3	regulate/STIM_002.jpg
1965.217	1.16	1	regulate	Run3	regulate/STIM_002.jpg
1969.505	1.094	1	regulate	Run3	regulate/STIM_002.jpg
1973.983	1.871	1	regulate	Run3	regulate/STIM_002.jpg
1978.01	1.828	1	regulate	Run3	regulate/STIM_003.jpg
1982.257	1.735	0	regulate	Run3	regulate/STIM_003.jpg
1986.888	2.239	1	regulate	Run3	regulate/STIM_003.jpg
1992.795	2.223	1	regulate	Run3	regulate/STIM_003.jpg
1997.707	1.646	1	regulate	Run3	regulate/STIM_004.jpg
2003.202	2.077	1	regulate	Run3	regulate/STIM_004.jpg
2008.076	1.864	1	regulate	Run3	regulate/STIM_004.jpg
2012.151	2.051	1	regulate	Run3	regulate/STIM_004.jpg
2016.731	2.015	1	regulate	Run3	regulate/STIM_005.jpg
2021.701	2.028	1	regulate	Run3	regulate/STIM_005.jpg
2027.681	1.775	1	regulate	Run3	regulate/STIM_005.jpg
2032.974	1.172	1	regulate	Run3	regulate/STIM_005.jpg
2036.928	1.169	1	regulate	Run3	regulate/STIM_006.jpg
2040.464	1.237	1	regulate	Run3	regulate/STIM_006.jpg
2045.186	1.451	1	regulate	Run3	regulate/STIM_006.jpg
2049.609	1.626	1	regulate	Run3	regulate/STIM_006.jpg
2054.778	1.584	1	regulate	Run3	regulate/STIM_007.jpg
2059.906	1.471	0	regulate	Run3	regulate/STIM_007.jpg
2064.069	2.008	1	regulate	Run3	regulate/STIM_007.jpg
2068.651	1.837	1	regulate	Run3	regulate/STIM_007.jpg
2072.695	2.044	1	regulate	Run3	regulate/STIM_008.jpg
2078.361	2.0	1	regulate	Run3	regulate/STIM_008.jpg
2083.965	1.481	1	regulate	Run3	regulate/STIM_008.jpg
2088.514	2.277	1	regulate	Run3	regulate/STIM_008.jpg
2094.633	1.236	0	regulate	Run3	regulate/STIM_009.jpg
2098.322	1.208	1	regulate	Run3	regulate/STIM_009.jpg
2102.265	1.687	1	regulate	Run3	regulate/STIM_009.jpg
2105.993	1.752	1	regulate	Run3	regulate/STIM_009.jpg
2110.124	1.97	1	regulate	Run3	regulate/STIM_010.jpg
2114.984	2.256	1	regulate	Run3	regulate/STIM_010.jpg
2120.717	1.122	1	regulate	Run3	regulate/STIM_010.jpg
2124.672	2.022	1	regulate	Run3	regulate/STIM_010.jpg
2129.285	1.123	1	regulate	Run3	regulate/STIM_011.jpg
2133.317	1.82	1	regulate	Run3	regulate/STIM_011.jpg
2139.127	1.877	1	regulate	Run3	regulate/STIM_011.jpg
2143.035	1.067	1	regulate	Run3	regulate/STIM_011.jpg
2147.891	1.515	1	regulate	Run3	regulate/STIM_012.jpg
2152.577	2.152	1	regulate	Run3	regulate/STIM_012.jpg
2158.539	2.155	1	regulate	Run3	regulate/STIM_012.jpg
2163.473	1.149	1	regulate	Run3	regulate/STIM_012.jpg
2167.532	2.317	1	regulate	Run3	regulate/STIM_013.jpg
2173.464	1.214	1	regulate	Run3	regulate/STIM_013.jpg
2177.902	1.539	1	regulate	Run3	regulate/STIM_013.jpg
2181.708	2.341	1	regulate	Run3	regulate/STIM_013.jpg
2188.007	1.802	1	regulate	Run3	regulate/STIM_014.jpg
2193.099	1.514	1	regulate	Run3	regulate/STIM_014.jpg
2197.956	1.859	1	regulate	Run3	regulate/STIM_014.jpg
2203.564	1.468	1	regulate	Run3	regulate/STIM_014.jpg
2208.049	1.629	1	regulate	Run3	regulate/STIM_015.jpg
2212.876	1.538	1	regulate	Run3	regulate/STIM_015.jpg
2216.807	2.196	1	regulate	Run3	regulate/STIM_015.jpg
2222.958	1.792	1	regulate	Run3	regulate/STIM_015.jpg
2227.508	1.059	1	regulate	Run3	regulate/STIM_016.jpg
2231.064	2.229	1	regulate	Run3	regulate/STIM_016.jpg
2235.633	1.513	1	regulate	Run3	regulate/STIM_016.jpg
2240.579	1.182	0	regulate	Run3	regulate/STIM_016.jpg
2244.303	1.95	1	regulate	Run3	regulate/STIM_017.jpg
2248.854	2.233	1	regulate	Run3	regulate/STIM_017.jpg
2253.89	2.404	0	regulate	Run3	regulate/STIM_017.jpg
2259.59	1.492	1	regulate	Run3	regulate/STIM_017.jpg
2264.56	1.759	1	regulate	Run3	regulate/STIM_018.jpg
2269.733	1.739	1	regulate	Run3	regulate/STIM_018.jpg
2275.251	1.469	1	regulate	Run3	regulate/STIM_018.jpg
2279.235	2.291	1	regulate	Run3	regulate/STIM_018.jpg
2283.804	1.977	1	regulate	Run3	regulate/STIM_019.jpg
2289.436	2.291	1	regulate	Run3	regulate/STIM_019.jpg
2295.467	2.272	1	regulate	Run3	regulate/STIM_019.jpg
2300.948	1.939	1	regulate	Run3	regulate/STIM_019.jpg
2305.956	2.213	1	regulate	Run3	regulate/STIM_020.jpg
2311.426	2.214	1	regulate	Run3	regulate/STIM_020.jpg
2316.618	2.258	1	regulate	Run3	regulate/STIM_020.jpg
2322.055	2.068	1	regulate	Run3	regulate/STIM_020.jpg
2327.717	1.423	1	regulate	Run3	regulate/STIM_021.jpg
2331.502	1.497	1	regulate	Run3	regulate/STIM_021.jpg
2335.385	1.766	1	regulate	Run3	regulate/STIM_021.jpg
2340.194	1.899	1	regulate	Run3	regulate/STIM_021.jpg
2345.56	1.555	1	regulate	Run3	regulate/STIM_022.jpg
2350.331	1.352	1	regulate	Run3	regulate/STIM_022.jpg
2355.04	1.402	1	regulate	Run3	regulate/STIM_022.jpg
2359.882	1.42	1	regulate	Run3	regulate/STIM_022.jpg
2363.983	2.079	1	regulate	Run3	regulate/STIM_023.jpg
2368.955	2.271	1	regulate	Run3	regulate/STIM_023.jpg
2375.055	2.264	1	regulate	Run3	regulate/STIM_023.jpg
2379.425	2.313	1	regulate	Run3	regulate/STIM_023.jpg
2384.019	1.384	1	regulate	Run3	regulate/STIM_024.jpg
2387.525	1.642	1	regulate	Run3	regulate/STIM_024.jpg
2391.55	1.291	1	regulate	Run3	regulate/STIM_024.jpg
2396.067	1.094	1	regulate	Run3	regulate/STIM_024.jpg
2400.331	1.504	1	regulate	Run3	regulate/STIM_025.jpg
2405.674	1.383	1	regulate	Run3	regulate/STIM_025.jpg
2409.535	1.96	1	regulate	Run3	regulate/STIM_025.jpg
2414.874	1.288	1	regulate	Run3	regulate/STIM_025.jpg
2420.088	1.25	1	regulate	Run3	regulate/STIM_026.jpg
2424.413	1.217	1	regulate	Run3	regulate/STIM_026.jpg
2428.815	2.4	1	regulate	Run3	regulate/STIM_026.jpg
2433.483	1.481	1	regulate	Run3	regulate/STIM_026.jpg
2438.639	1.657	1	regulate	Run3	regulate/STIM_027.jpg
2443.868	1.259	1	regulate	Run3	regulate/STIM_027.jpg
2449.124	1.889	1	regulate	Run3	regulate/STIM_027.jpg
2454.055	1.188	1	regulate	Run3	regulate/STIM_027.jpg
2457.698	1.116	1	regulate	Run3	regulate/STIM_028.jpg
2461.642	1.19	1	regulate	Run3	regulate/STIM_028.jpg
2465.667	1.728	1	regulate	Run3	regulate/STIM_028.jpg
2470.158	1.506	1	regulate	Run3	regulate/STIM_028.jpg
2473.712	1.524	1	regulate	Run3	regulate/STIM_029.jpg
2479.107	2.147	1	regulate	Run3	regulate/STIM_029.jpg
2484.175	1.126	1	regulate	Run3	regulate/STIM_029.jpg
2488.262	1.741	1	regulate	Run3	regulate/STIM_029.jpg
2493.848	1.155	1	observe	Run3	observe/STIM_000.jpg
2497.021	1.59	1	observe	Run3	observe/STIM_000.jpg
2501.322	1.437	1	observe	Run3	observe/STIM_000.jpg
2506.726	1.319	0	observe	Run3	observe/STIM_000.jpg
2511.935	0.845	1	observe	Run3	observe/STIM_001.jpg
2515.442	1.419	1	observe	Run3	observe/STIM_001.jpg
2519.762	0.859	1	observe	Run3	observe/STIM_001.jpg
2524.236	0.883	1	observe	Run3	observe/STIM_001.jpg
2527.289	1.054	1	observe	Run3	observe/STIM_002.jpg
2530.818	1.024	1	observe	Run3	observe/STIM_002.jpg
2534.074	1.127	0	observe	Run3	observe/STIM_002.jpg
2538.336	1.454	1	observe	Run3	observe/STIM_002.jpg
2543.609	1.469	1	observe	Run3	observe/STIM_003.jpg
2547.503	1.232	1	observe	Run3	observe/STIM_003.jpg
2552.103	0.868	0	observe	Run3	observe/STIM_003.jpg
2556.134	0.83	1	observe	Run3	observe/STIM_003.jpg
2560.956	1.48	1	observe	Run3	observe/STIM_004.jpg
2564.977	1.58	1	observe	Run3	observe/STIM_004.jpg
2568.976	1.421	1	observe	Run3	observe/STIM_004.jpg
2573.457	1.1	1	observe	Run3	observe/STIM_004.jpg
2578.078	0.849	1	observe	Run3	observe/STIM_005.jpg
2581.738	1.007	1	observe	Run3	observe/STIM_005.jpg
2585.673	0.916	1	observe	Run3	observe/STIM_005.jpg
2589.622	1.396	1	observe	Run3	observe/STIM_005.jpg
2593.895	1.556	1	observe	Run3	observe/STIM_006.jpg
2599.293	1.107	1	observe	Run3	observe/STIM_006.jpg
2603.725	1.292	1	observe	Run3	observe/STIM_006.jpg
2607.731	1.182	1	observe	Run3	observe/STIM_006.jpg
2611.993	1.172	1	observe	Run3	observe/STIM_007.jpg
2615.423	1.37	1	observe	Run3	observe/STIM_007.jpg
2619.342	1.09	1	observe	Run3	observe/STIM_007.jpg
2623.752	1.528	1	observe	Run3	observe/STIM_007.jpg
2627.387	1.241	1	observe	Run3	observe/STIM_008.jpg
2631.32	0.87	1	observe	Run3	observe/STIM_008.jpg
2634.806	1.3	1	observe	Run3	observe/STIM_008.jpg
2638.219	1.472	1	observe	Run3	observe/STIM_008.jpg
2642.942	1.455	1	observe	Run3	observe/STIM_009.jpg
2648.252	1.468	1	observe	Run3	observe/STIM_009.jpg
2653.107	0.837	1	observe	Run3	observe/STIM_009.jpg
2657.737	1.003	1	observe	Run3	observe/STIM_009.jpg
2661.746	1.013	1	observe	Run3	observe/STIM_010.jpg
2665.771	1.07	0	observe	Run3	observe/STIM_010.jpg
2670.23	0.942	1	observe	Run3	observe/STIM_010.jpg
2675.026	1.243	1	observe	Run3	observe/STIM_010.jpg
2679.972	1.327	1	observe	Run3	observe/STIM_011.jpg
2683.842	1.174	1	observe	Run3	observe/STIM_011.jpg
2688.011	1.427	1	observe	Run3	observe/STIM_011.jpg
2692.915	1.018	1	observe	Run3	observe/STIM_011.jpg
2697.34	1.474	1	observe	Run3	observe/STIM_012.jpg
2702.292	0.949	1	observe	Run3	observe/STIM_012.jpg
2706.298	1.055	1	observe	Run3	observe/STIM_012.jpg
2711.256	1.311	1	observe	Run3	observe/STIM_012.jpg
2715.53	1.392	1	observe	Run3	observe/STIM_013.jpg
2719.283	0.88	0	observe	Run3	observe/STIM_013.jpg
2723.166	1.469	1	observe	Run3	observe/STIM_013.jpg
2726.889	1.428	1	observe	Run3	observe/STIM_013.jpg
2731.639	1.365	1	observe	Run3	observe/STIM_014.jpg
2736.483	1.018	0	observe	Run3	observe/STIM_014.jpg
2740.162	0.868	1	observe	Run3	observe/STIM_014.jpg
2744.506	1.354	1	observe	Run3	observe/STIM_014.jpg
2748.989	1.45	0	observe	Run3	observe/STIM_015.jpg
2753.694	0.857	1	observe	Run3	observe/STIM_015.jpg
2756.821	1.412	1	observe	Run3	observe/STIM_015.jpg
2760.728	1.505	1	observe	Run3	observe/STIM_015.jpg
2764.625	0.958	1	observe	Run3	observe/STIM_016.jpg
2768.515	1.095	1	observe	Run3	observe/STIM_016.jpg
2772.518	1.31	1	observe	Run3	observe/STIM_016.jpg
2776.281	1.12	0	observe	Run3	observe/STIM_016.jpg
2781.162	0.886	1	observe	Run3	observe/STIM_017.jpg
2784.485	1.556	1	observe	Run3	observe/STIM_017.jpg
2788.435	1.306	1	observe	Run3	observe/STIM_017.jpg
2793.113	1.431	1	observe	Run3	observe/STIM_017.jpg
2797.403	1.588	1	observe	Run3	observe/STIM_018.jpg
2802.488	1.478	1	observe	Run3	observe/STIM_018.jpg
2806.814	1.21	0	observe	Run3	observe/STIM_018.jpg
2810.304	1.214	1	observe	Run3	observe/STIM_018.jpg
2813.928	1.413	1	observe	Run3	observe/STIM_019.jpg
2817.736	1.061	1	observe	Run3	observe/STIM_019.jpg
2821.441	1.528	1	observe	Run3	observe/STIM_019.jpg
2826.802	1.18	1	observe	Run3	observe/STIM_019.jpg
