onset	duration	accuracy_binary	trial_type	learning_stage	stimulus
0.0	0.976	1	incongruent	Block1	incongruent/STIM_000.jpg
3.835	1.556	1	incongruent	Block1	incongruent/STIM_000.jpg
7.255	1.142	1	incongruent	Block1	incongruent/STIM_000.jpg
10.402	0.966	1	incongruent	Block1	incongruent/STIM_000.jpg
14.037	0.664	1	incongruent	Block1	incongruent/STIM_000.jpg
17.761	1.4	1	incongruent	Block1	incongruent/STIM_001.jpg
22.218	1.553	1	incongruent	Block1	incongruent/STIM_001.jpg
25.761	1.179	1	incongruent	Block1	incongruent/STIM_001.jpg
30.232	0.759	1	incongruent	Block1	incongruent/STIM_001.jpg
32.932	0.918	1	incongruent	Block1	incongruent/STIM_001.jpg
36.86	1.079	0	incongruent	Block1	incongruent/STIM_002.jpg
40.88	1.558	1	incongruent	Block1	incongruent/STIM_002.jpg
45.182	1.063	1	incongruent	Block1	incongruent/STIM_002.jpg
48.649	0.76	1	incongruent	Block1	incongruent/STIM_002.jpg
52.078	0.675	1	incongruent	Block1	incongruent/STIM_002.jpg
56.64	1.096	1	incongruent	Block1	incongruent/STIM_003.jpg
59.863	0.808	1	incongruent	Block1	incongruent/STIM_003.jpg
63.213	0.853	1	incongruent	Block1	incongruent/STIM_003.jpg
67.556	0.905	1	incongruent	Block1	incongruent/STIM_003.jpg
71.613	0.796	1	incongruent	Block1	incongruent/STIM_003.jpg
75.405	0.832	1	incongruent	Block1	incongruent/STIM_004.jpg
79.088	1.518	0	incongruent	Block1	incongruent/STIM_004.jpg
84.38	0.924	1	incongruent	Block1	incongruent/STIM_004.jpg
88.47	0.717	1	incongruent	Block1	incongruent/STIM_004.jpg
91.32	0.958	1	incongruent	Block1	incongruent/STIM_004.jpg
96.026	1.165	1	incongruent	Block1	incongruent/STIM_005.jpg
100.719	1.452	1	incongruent	Block1	incongruent/STIM_005.jpg
105.733	1.017	1	incongruent	Block1	incongruent/STIM_005.jpg
110.484	0.87	1	incongruent	Block1	incongruent/STIM_005.jpg
113.606	1.153	0	incongruent	Block1	incongruent/STIM_005.jpg
117.833	1.133	0	incongruent	Block1	incongruent/STIM_006.jpg
121.895	1.096	1	incongruent	Block1	incongruent/STIM_006.jpg
124.879	0.875	1	incongruent	Block1	incongruent/STIM_006.jpg
129.475	1.436	1	incongruent	Block1	incongruent/STIM_006.jpg
133.666	1.065	1	incongruent	Block1	incongruent/STIM_006.jpg
138.243	1.431	1	incongruent	Block1	incongruent/STIM_007.jpg
141.559	0.929	1	incongruent	Block1	incongruent/STIM_007.jpg
146.22	1.415	1	incongruent	Block1	incongruent/STIM_007.jpg
150.728	0.712	1	incongruent	Block1	incongruent/STIM_007.jpg
153.478	0.693	1	incongruent	Block1	incongruent/STIM_007.jpg
157.308	0.715	0	incongruent	Block1	incongruent/STIM_008.jpg
161.59	1.512	1	incongruent	Block1	incongruent/STIM_008.jpg
165.498	1.276	1	incongruent	Block1	incongruent/STIM_008.jpg
169.898	1.342	1	incongruent	Block1	incongruent/STIM_008.jpg
174.632	0.977	1	incongruent	Block1	incongruent/STIM_008.jpg
178.775	1.288	1	incongruent	Block1	incongruent/STIM_009.jpg
182.549	0.936	1	incongruent	Block1	incongruent/STIM_009.jpg
185.606	1.491	0	incongruent	Block1	incongruent/STIM_009.jpg
189.29	1.04	1	incongruent	Block1	incongruent/STIM_009.jpg
193.43	0.818	1	incongruent	Block1	incongruent/STIM_009.jpg
198.093	1.092	1	incongruent	Block1	incongruent/STIM_010.jpg
202.643	1.242	0	incongruent	Block1	incongruent/STIM_010.jpg
207.455	0.81	1	incongruent	Block1	incongruent/STIM_010.jpg
211.812	0.957	1	incongruent	Block1	incongruent/STIM_010.jpg
216.236	1.028	1	incongruent	Block1	incongruent/STIM_010.jpg
219.285	0.781	1	incongruent	Block1	incongruent/STIM_011.jpg
223.556	0.929	1	incongruent	Block1	incongruent/STIM_011.jpg
226.538	0.804	0	incongruent	Block1	incongruent/STIM_011.jpg
229.785	1.318	1	incongruent	Block1	incongruent/STIM_011.jpg
234.755	1.352	1	incongruent	Block1	incongruent/STIM_011.jpg
238.269	1.395	1	incongruent	Block1	incongruent/STIM_012.jpg
242.278	1.063	1	incongruent	Block1	incongruent/STIM_012.jpg
245.29	1.312	1	incongruent	Block1	incongruent/STIM_012.jpg
248.793	0.681	1	incongruent	Block1	incongruent/STIM_012.jpg
251.447	0.979	1	incongruent	Block1	incongruent/STIM_012.jpg
255.85	1.3	1	incongruent	Block1	incongruent/STIM_013.jpg
259.499	1.338	1	incongruent	Block1	incongruent/STIM_013.jpg
264.087	0.997	1	incongruent	Block1	incongruent/STIM_013.jpg
267.732	0.925	1	incongruent	Block1	incongruent/STIM_013.jpg
270.651	0.587	1	incongruent	Block1	incongruent/STIM_013.jpg
273.706	0.93	1	incongruent	Block1	incongruent/STIM_014.jpg
277.46	0.928	1	incongruent	Block1	incongruent/STIM_014.jpg
280.311	1.389	1	incongruent	Block1	incongruent/STIM_014.jpg
284.089	1.023	1	incongruent	Block1	incongruent/STIM_014.jpg
287.504	0.636	0	incongruent	Block1	incongruent/STIM_014.jpg
291.798	1.564	0	incongruent	Block1	incongruent/STIM_015.jpg
296.884	1.538	1	incongruent	Block1	incongruent/STIM_015.jpg
301.052	1.175	0	incongruent	Block1	incongruent/STIM_015.jpg
304.719	1.364	0	incongruent	Block1	incongruent/STIM_015.jpg
309.321	0.76	1	incongruent	Block1	incongruent/STIM_015.jpg
312.215	1.502	1	incongruent	Block1	incongruent/STIM_016.jpg
316.2	1.113	1	incongruent	Block1	incongruent/STIM_016.jpg
319.921	0.986	1	incongruent	Block1	incongruent/STIM_016.jpg
323.962	1.037	1	incongruent	Block1	incongruent/STIM_016.jpg
327.982	0.798	1	incongruent	Block1	incongruent/STIM_016.jpg
332.027	0.957	1	incongruent	Block1	incongruent/STIM_017.jpg
335.756	1.316	1	incongruent	Block1	incongruent/STIM_017.jpg
339.954	1.196	1	incongruent	Block1	incongruent/STIM_017.jpg
343.188	0.716	1	incongruent	Block1	incongruent/STIM_017.jpg
346.489	0.843	1	incongruent	Block1	incongruent/STIM_017.jpg
349.535	1.231	1	incongruent	Block1	incongruent/STIM_018.jpg
354.473	1.57	1	incongruent	Block1	incongruent/STIM_018.jpg
359.723	0.829	1	incongruent	Block1	incongruent/STIM_018.jpg
363.654	0.898	1	incongruent	Block1	incongruent/STIM_018.jpg
368.344	1.045	1	incongruent	Block1	incongruent/STIM_018.jpg
373.076	1.534	1	incongruent	Block1	incongruent/STIM_019.jpg
378.222	0.958	1	incongruent	Block1	incongruent/STIM_019.jpg
382.754	1.314	1	incongruent	Block1	incongruent/STIM_019.jpg
385.943	1.061	1	incongruent	Block1	incongruent/STIM_019.jpg
389.633	1.256	1	incongruent	Block1	incongruent/STIM_019.jpg
393.394	0.866	1	incongruent	Block1	incongruent/STIM_020.jpg
397.384	1.362	1	incongruent	Block1	incongruent/STIM_020.jpg
401.571	1.461	1	incongruent	Block1	incongruent/STIM_020.jpg
405.775	1.368	1	incongruent	Block1	incongruent/STIM_020.jpg
409.563	0.967	1	incongruent	Block1	incongruent/STIM_020.jpg
412.882	0.824	1	incongruent	Block1	incongruent/STIM_021.jpg
416.957	1.098	1	incongruent	Block1	incongruent/STIM_021.jpg
421.121	1.329	1	incongruent	Block1	incongruent/STIM_021.jpg
424.964	1.352	1	incongruent	Block1	incongruent/STIM_021.jpg
428.683	1.183	1	incongruent	Block1	incongruent/STIM_021.jpg
431.859	1.073	1	incongruent	Block1	incongruent/STIM_022.jpg
435.182	0.787	1	incongruent	Block1	incongruent/STIM_022.jpg
438.07	0.769	1	incongruent	Block1	incongruent/STIM_022.jpg
440.76	0.976	1	incongruent	Block1	incongruent/STIM_022.jpg
444.493	1.124	1	incongruent	Block1	incongruent/STIM_022.jpg
448.854	1.47	1	incongruent	Block1	incongruent/STIM_023.jpg
453.373	1.512	1	incongruent	Block1	incongruent/STIM_023.jpg
456.93	1.222	1	incongruent	Block1	incongruent/STIM_023.jpg
461.316	0.75	1	incongruent	Block1	incongruent/STIM_023.jpg
464.438	1.319	1	incongruent	Block1	incongruent/STIM_023.jpg
468.68	0.9	1	incongruent	Block1	incongruent/STIM_024.jpg
471.655	1.551	1	incongruent	Block1	incongruent/STIM_024.jpg
476.844	1.183	1	incongruent	Block1	incongruent/STIM_024.jpg
480.964	0.926	1	incongruent	Block1	incongruent/STIM_024.jpg
485.568	0.86	1	incongruent	Block1	incongruent/STIM_024.jpg
489.276	1.287	0	incongruent	Block1	incongruent/STIM_025.jpg
493.518	1.115	1	incongruent	Block1	incongruent/STIM_025.jpg
498.312	1.073	1	incongruent	Block1	incongruent/STIM_025.jpg
501.513	1.303	1	incongruent	Block1	incongruent/STIM_025.jpg
506.233	0.917	1	incongruent	Block1	incongruent/STIM_025.jpg
509.727	1.647	0	incongruent	Block1	incongruent/STIM_026.jpg
514.42	1.022	1	incongruent	Block1	incongruent/STIM_026.jpg
517.834	0.935	1	incongruent	Block1	incongruent/STIM_026.jpg
520.833	1.367	1	incongruent	Block1	incongruent/STIM_026.jpg
524.142	0.743	1	incongruent	Block1	incongruent/STIM_026.jpg
527.426	1.573	1	incongruent	Block1	incongruent/STIM_027.jpg
532.542	1.026	1	incongruent	Block1	incongruent/STIM_027.jpg
537.452	1.315	1	incongruent	Block1	incongruent/STIM_027.jpg
542.519	1.013	1	incongruent	Block1	incongruent/STIM_027.jpg
547.269	1.013	1	incongruent	Block1	incongruent/STIM_027.jpg
550.36	0.882	1	incongruent	Block1	incongruent/STIM_028.jpg
554.753	1.16	0	incongruent	Block1	incongruent/STIM_028.jpg
559.79	1.414	1	incongruent	Block1	incongruent/STIM_028.jpg
563.48	0.829	1	incongruent	Block1	incongruent/STIM_028.jpg
566.968	1.239	1	incongruent	Block1	incongruent/STIM_028.jpg
571.041	0.853	1	incongruent	Block1	incongruent/STIM_029.jpg
574.412	0.856	1	incongruent	Block1	incongruent/STIM_029.jpg
578.563	0.771	1	incongruent	Block1	incongruent/STIM_029.jpg
582.246	0.675	1	incongruent	Block1	incongruent/STIM_029.jpg
586.412	0.999	1	incongruent	Block1	incongruent/STIM_029.jpg
590.806	1.042	1	congruent	Block1	congruent/STIM_000.jpg
594.6	0.695	1	congruent	Block1	congruent/STIM_000.jpg
597.269	0.762	1	congruent	Block1	congruent/STIM_000.jpg
599.945	0.755	1	congruent	Block1	congruent/STIM_000.jpg
603.121	0.829	1	congruent	Block1	congruent/STIM_000.jpg
606.129	0.638	1	congruent	Block1	congruent/STIM_001.jpg
609.729	0.976	1	congruent	Block1	congruent/STIM_001.jpg
614.188	1.005	1	congruent	Block1	congruent/STIM_001.jpg
618.134	0.621	1	congruent	Block1	congruent/STIM_001.jpg
622.335	0.619	1	congruent	Block1	congruent/STIM_001.jpg
626.726	0.733	1	congruent	Block1	congruent/STIM_002.jpg
631.157	0.654	1	congruent	Block1	congruent/STIM_002.jpg
635.441	0.815	1	congruent	Block1	congruent/STIM_002.jpg
639.208	0.838	1	congruent	Block1	congruent/STIM_002.jpg
642.432	0.76	1	congruent	Block1	congruent/STIM_002.jpg
647.077	0.802	1	congruent	Block1	congruent/STIM_003.jpg
651.291	0.91	1	congruent	Block1	congruent/STIM_003.jpg
655.99	0.626	1	congruent	Block1	congruent/STIM_003.jpg
659.295	0.965	0	congruent	Block1	congruent/STIM_003.jpg
663.238	0.696	1	congruent	Block1	congruent/STIM_003.jpg
666.346	0.922	1	congruent	Block1	congruent/STIM_004.jpg
670.256	0.97	1	congruent	Block1	congruent/STIM_004.jpg
674.983	0.749	1	congruent	Block1	congruent/STIM_004.jpg
679.531	0.98	1	congruent	Block1	congruent/STIM_004.jpg
684.267	0.924	1	congruent	Block1	congruent/STIM_004.jpg
688.516	0.888	1	congruent	Block1	congruent/STIM_005.jpg
693.007	0.702	1	congruent	Block1	congruent/STIM_005.jpg
697.435	0.818	1	congruent	Block1	congruent/STIM_005.jpg
700.453	0.654	1	congruent	Block1	congruent/STIM_005.jpg
704.423	0.821	0	congruent	Block1	congruent/STIM_005.jpg
708.727	0.872	1	congruent	Block1	congruent/STIM_006.jpg
712.652	0.688	1	congruent	Block1	congruent/STIM_006.jpg
716.223	0.617	1	congruent	Block1	congruent/STIM_006.jpg
719.062	0.982	1	congruent	Block1	congruent/STIM_006.jpg
722.23	0.921	1	congruent	Block1	congruent/STIM_006.jpg
725.183	0.838	1	congruent	Block1	congruent/STIM_007.jpg
729.52	0.729	1	congruent	Block1	congruent/STIM_007.jpg
732.322	0.64	1	congruent	Block1	congruent/STIM_007.jpg
736.487	0.93	1	congruent	Block1	congruent/STIM_007.jpg
740.0	0.79	1	congruent	Block1	congruent/STIM_007.jpg
744.278	0.698	1	congruent	Block1	congruent/STIM_008.jpg
747.201	0.783	1	congruent	Block1	congruent/STIM_008.jpg
749.994	0.915	1	congruent	Block1	congruent/STIM_008.jpg
753.429	0.897	1	congruent	Block1	congruent/STIM_008.jpg
757.53	0.878	1	congruent	Block1	congruent/STIM_008.jpg
762.146	0.619	1	congruent	Block1	congruent/STIM_009.jpg
765.993	0.935	1	congruent	Block1	congruent/STIM_009.jpg
770.679	0.94	1	congruent	Block1	congruent/STIM_009.jpg
774.031	0.805	0	congruent	Block1	congruent/STIM_009.jpg
777.748	0.543	1	congruent	Block1	congruent/STIM_009.jpg
781.665	0.717	1	congruent	Block1	congruent/STIM_010.jpg
785.029	0.816	1	congruent	Block1	congruent/STIM_010.jpg
789.091	0.874	1	congruent	Block1	congruent/STIM_010.jpg
792.295	0.859	1	congruent	Block1	congruent/STIM_010.jpg
796.689	0.504	1	congruent	Block1	congruent/STIM_010.jpg
800.891	0.863	1	congruent	Block1	congruent/STIM_011.jpg
804.559	0.804	1	congruent	Block1	congruent/STIM_011.jpg
808.461	0.878	1	congruent	Block1	congruent/STIM_011.jpg
811.788	0.744	1	congruent	Block1	congruent/STIM_011.jpg
814.787	0.837	1	congruent	Block1	congruent/STIM_011.jpg
819.183	0.684	1	congruent	Block1	congruent/STIM_012.jpg
822.71	0.551	1	congruent	Block1	congruent/STIM_012.jpg
825.696	0.546	1	congruent	Block1	congruent/STIM_012.jpg
828.65	0.775	1	congruent	Block1	congruent/STIM_012.jpg
831.806	0.796	1	congruent	Block1	congruent/STIM_012.jpg
836.445	0.603	1	congruent	Block1	congruent/STIM_013.jpg
839.432	0.755	1	congruent	Block1	congruent/STIM_013.jpg
843.392	0.814	1	congruent	Block1	congruent/STIM_013.jpg
847.386	0.744	1	congruent	Block1	congruent/STIM_013.jpg
850.718	0.639	1	congruent	Block1	congruent/STIM_013.jpg
854.882	0.899	1	congruent	Block1	congruent/STIM_014.jpg
858.515	0.678	1	congruent	Block1	congruent/STIM_014.jpg
862.585	0.913	1	congruent	Block1	congruent/STIM_014.jpg
867.375	0.614	1	congruent	Block1	congruent/STIM_014.jpg
870.572	0.791	1	congruent	Block1	congruent/STIM_014.jpg
874.81	0.624	1	congruent	Block1	congruent/STIM_015.jpg
879.244	0.883	1	congruent	Block1	congruent/STIM_015.jpg
882.946	0.952	1	congruent	Block1	congruent/STIM_015.jpg
885.894	0.924	1	congruent	Block1	congruent/STIM_015.jpg
889.155	0.767	1	congruent	Block1	congruent/STIM_015.jpg
892.515	0.825	1	congruent	Block1	congruent/STIM_016.jpg
896.009	0.784	1	congruent	Block1	congruent/STIM_016.jpg
900.566	0.815	1	congruent	Block1	congruent/STIM_016.jpg
904.607	0.813	1	congruent	Block1	congruent/STIM_016.jpg
907.962	0.948	1	congruent	Block1	congruent/STIM_016.jpg
911.247	0.895	1	congruent	Block1	congruent/STIM_017.jpg
914.021	0.914	1	congruent	Block1	congruent/STIM_017.jpg
917.384	0.759	1	congruent	Block1	congruent/STIM_017.jpg
921.109	0.644	1	congruent	Block1	congruent/STIM_017.jpg
924.093	0.859	1	congruent	Block1	congruent/STIM_017.jpg
928.079	0.556	1	congruent	Block1	congruent/STIM_018.jpg
931.045	0.819	0	congruent	Block1	congruent/STIM_018.jpg
935.155	0.722	1	congruent	Block1	congruent/STIM_018.jpg
939.414	0.858	1	congruent	Block1	congruent/STIM_018.jpg
943.538	0.809	1	congruent	Block1	congruent/STIM_018.jpg
946.461	0.562	1	congruent	Block1	congruent/STIM_019.jpg
949.881	1.013	1	congruent	Block1	congruent/STIM_019.jpg
952.936	0.531	1	congruent	Block1	congruent/STIM_019.jpg
955.564	1.0	1	congruent	Block1	congruent/STIM_019.jpg
960.426	0.705	1	congruent	Block1	congruent/STIM_019.jpg
964.956	0.712	1	congruent	Block1	congruent/STIM_020.jpg
968.331	0.758	1	congruent	Block1	congruent/STIM_020.jpg
971.435	0.584	1	congruent	Block1	congruent/STIM_020.jpg
975.728	0.658	1	congruent	Block1	congruent/STIM_020.jpg
978.555	0.992	1	congruent	Block1	congruent/STIM_020.jpg
981.476	0.554	1	congruent	Block1	congruent/STIM_021.jpg
984.995	0.526	0	congruent	Block1	congruent/STIM_021.jpg
988.315	0.731	1	congruent	Block1	congruent/STIM_021.jpg
992.715	0.538	1	congruent	Block1	congruent/STIM_021.jpg
996.089	0.705	1	congruent	Block1	congruent/STIM_021.jpg
999.967	0.656	1	congruent	Block1	congruent/STIM_022.jpg
1002.755	0.967	1	congruent	Block1	congruent/STIM_022.jpg
1005.961	0.589	1	congruent	Block1	congruent/STIM_022.jpg
1009.784	0.867	1	congruent	Block1	congruent/STIM_022.jpg
1013.811	0.911	1	congruent	Block1	congruent/STIM_022.jpg
1017.812	0.61	0	congruent	Block1	congruent/STIM_023.jpg
1022.008	1.1	1	congruent	Block1	congruent/STIM_023.jpg
1025.41	0.658	1	congruent	Block1	congruent/STIM_023.jpg
1029.394	0.619	1	congruent	Block1	congruent/STIM_023.jpg
1033.752	0.593	1	congruent	Block1	congruent/STIM_023.jpg
1038.139	0.906	1	congruent	Block1	congruent/STIM_024.jpg
1041.924	0.978	1	congruent	Block1	congruent/STIM_024.jpg
1046.085	1.006	1	congruent	Block1	congruent/STIM_024.jpg
1048.977	1.058	1	congruent	Block1	congruent/STIM_024.jpg
1053.438	0.563	1	congruent	Block1	congruent/STIM_024.jpg
1056.537	0.799	1	congruent	Block1	congruent/STIM_025.jpg
1059.425	0.958	1	congruent	Block1	congruent/STIM_025.jpg
1062.615	0.576	1	congruent	Block1	congruent/STIM_025.jpg
1066.563	0.926	1	congruent	Block1	congruent/STIM_025.jpg
1070.953	0.651	1	congruent	Block1	congruent/STIM_025.jpg
1074.388	0.649	1	congruent	Block1	congruent/STIM_026.jpg
1078.038	0.725	1	congruent	Block1	congruent/STIM_026.jpg
1080.892	0.655	1	congruent	Block1	congruent/STIM_026.jpg
1084.572	0.566	1	congruent	Block1	congruent/STIM_026.jpg
1087.131	0.822	1	congruent	Block1	congruent/STIM_026.jpg
1090.793	0.904	1	congruent	Block1	congruent/STIM_027.jpg
1095.534	0.612	1	congruent	Block1	congruent/STIM_027.jpg
1099.387	0.888	1	congruent	Block1	congruent/STIM_027.jpg
1103.08	0.769	1	congruent	Block1	congruent/STIM_027.jpg
1106.345	0.924	1	congruent	Block1	congruent/STIM_027.jpg
1109.761	0.837	1	congruent	Block1	congruent/STIM_028.jpg
1113.414	0.809	1	congruent	Block1	congruent/STIM_028.jpg
1117.413	0.71	1	congruent	Block1	congruent/STIM_028.jpg
1121.663	0.842	1	congruent	Block1	congruent/STIM_028.jpg
1124.825	0.556	1	congruent	Block1	congruent/STIM_028.jpg
1128.38	0.842	1	congruent	Block1	congruent/STIM_029.jpg
1131.959	0.65	1	congruent	Block1	congruent/STIM_029.jpg
1136.022	0.615	1	congruent	Block1	congruent/STIM_029.jpg
1139.283	0.938	1	congruent	Block1	congruent/STIM_029.jpg
1142.608	0.949	1	congruent	Block1	congruent/STIM_029.jpg
1145.814	0.79	1	incongruent	Block2	incongruent/STIM_000.jpg
1150.225	1.308	1	incongruent	Block2	incongruent/STIM_000.jpg
1154.331	1.279	1	incongruent	Block2	incongruent/STIM_000.jpg
1158.412	0.973	1	incongruent	Block2	incongruent/STIM_000.jpg
1161.577	0.688	1	incongruent	Block2	incongruent/STIM_000.jpg
1165.215	1.134	0	incongruent	Block2	incongruent/STIM_001.jpg
1169.141	0.935	0	incongruent	Block2	incongruent/STIM_001.jpg
1172.221	0.793	1	incongruent	Block2	incongruent/STIM_001.jpg
1176.546	0.714	1	incongruent	Block2	incongruent/STIM_001.jpg
1179.878	0.5	1	incongruent	Block2	incongruent/STIM_001.jpg
1183.43	0.838	0	incongruent	Block2	incongruent/STIM_002.jpg
1186.526	1.095	1	incongruent	Block2	incongruent/STIM_002.jpg
1191.347	0.836	1	incongruent	Block2	incongruent/STIM_002.jpg
1196.06	0.59	1	incongruent	Block2	incongruent/STIM_002.jpg
1199.479	0.767	1	incongruent	Block2	incongruent/STIM_002.jpg
1202.402	0.942	1	incongruent	Block2	incongruent/STIM_003.jpg
1206.104	1.012	1	incongruent	Block2	incongruent/STIM_003.jpg
1209.763	1.209	0	incongruent	Block2	incongruent/STIM_003.jpg
1213.04	0.833	1	incongruent	Block2	incongruent/STIM_003.jpg
1216.671	0.693	1	incongruent	Block2	incongruent/STIM_003.jpg
1220.672	0.901	1	incongruent	Block2	incongruent/STIM_004.jpg
1224.505	1.205	1	incongruent	Block2	incongruent/STIM_004.jpg
1229.284	0.806	1	incongruent	Block2	incongruent/STIM_004.jpg
1232.753	0.908	1	incongruent	Block2	incongruent/STIM_004.jpg
1237.087	0.749	1	incongruent	Block2	incongruent/STIM_004.jpg
1241.099	1.114	1	incongruent	Block2	incongruent/STIM_005.jpg
1245.084	1.378	1	incongruent	Block2	incongruent/STIM_005.jpg
1249.713	0.895	0	incongruent	Block2	incongruent/STIM_005.jpg
1253.571	0.686	1	incongruent	Block2	incongruent/STIM_005.jpg
1257.375	0.619	1	incongruent	Block2	incongruent/STIM_005.jpg
1260.069	1.254	1	incongruent	Block2	incongruent/STIM_006.jpg
1263.333	1.027	0	incongruent	Block2	incongruent/STIM_006.jpg
1266.809	1.145	0	incongruent	Block2	incongruent/STIM_006.jpg
1270.51	0.766	1	incongruent	Block2	incongruent/STIM_006.jpg
1274.081	1.1	1	incongruent	Block2	incongruent/STIM_006.jpg
1277.479	0.677	1	incongruent	Block2	incongruent/STIM_007.jpg
1282.077	1.164	1	incongruent	Block2	incongruent/STIM_007.jpg
1286.182	0.634	0	incongruent	Block2	incongruent/STIM_007.jpg
1290.392	0.814	1	incongruent	Block2	incongruent/STIM_007.jpg
1294.535	1.085	1	incongruent	Block2	incongruent/STIM_007.jpg
1298.793	0.751	1	incongruent	Block2	incongruent/STIM_008.jpg
1301.712	0.636	1	incongruent	Block2	incongruent/STIM_008.jpg
1305.433	0.756	1	incongruent	Block2	incongruent/STIM_008.jpg
1309.751	0.889	1	incongruent	Block2	incongruent/STIM_008.jpg
1313.16	1.075	1	incongruent	Block2	incongruent/STIM_008.jpg
1317.06	1.001	1	incongruent	Block2	incongruent/STIM_009.jpg
1320.359	0.998	0	incongruent	Block2	incongruent/STIM_009.jpg
1325.002	1.015	1	incongruent	Block2	incongruent/STIM_009.jpg
1328.542	0.678	1	incongruent	Block2	incongruent/STIM_009.jpg
1332.436	0.806	1	incongruent	Block2	incongruent/STIM_009.jpg
1336.617	0.793	0	incongruent	Block2	incongruent/STIM_010.jpg
1340.314	0.74	1	incongruent	Block2	incongruent/STIM_010.jpg
1343.753	0.615	1	incongruent	Block2	incongruent/STIM_010.jpg
1347.277	0.948	1	incongruent	Block2	incongruent/STIM_010.jpg
1351.781	1.177	1	incongruent	Block2	incongruent/STIM_010.jpg
1356.668	0.807	1	incongruent	Block2	incongruent/STIM_011.jpg
1360.859	0.679	1	incongruent	Block2	incongruent/STIM_011.jpg
1365.289	0.852	1	incongruent	Block2	incongruent/STIM_011.jpg
1367.941	1.017	1	incongruent	Block2	incongruent/STIM_011.jpg
1372.488	0.749	1	incongruent	Block2	incongruent/STIM_011.jpg
1376.195	1.424	0	incongruent	Block2	incongruent/STIM_012.jpg
1381.146	1.146	1	incongruent	Block2	incongruent/STIM_012.jpg
1385.119	1.232	1	incongruent	Block2	incongruent/STIM_012.jpg
1388.796	0.942	1	incongruent	Block2	incongruent/STIM_012.jpg
1391.721	0.79	1	incongruent	Block2	incongruent/STIM_012.jpg
1395.422	1.163	1	incongruent	Block2	incongruent/STIM_013.jpg
1399.946	0.962	1	incongruent	Block2	incongruent/STIM_013.jpg
1403.982	0.765	1	incongruent	Block2	incongruent/STIM_013.jpg
1407.699	0.966	1	incongruent	Block2	incongruent/STIM_013.jpg
1412.311	0.791	1	incongruent	Block2	incongruent/STIM_013.jpg
1416.414	1.224	1	incongruent	Block2	incongruent/STIM_014.jpg
1419.876	0.968	1	incongruent	Block2	incongruent/STIM_014.jpg
1424.149	1.21	1	incongruent	Block2	incongruent/STIM_014.jpg
1428.347	1.196	1	incongruent	Block2	incongruent/STIM_014.jpg
1432.399	1.122	1	incongruent	Block2	incongruent/STIM_014.jpg
1436.753	0.944	1	incongruent	Block2	incongruent/STIM_015.jpg
1441.305	1.3	1	incongruent	Block2	incongruent/STIM_015.jpg
1445.969	0.802	1	incongruent	Block2	incongruent/STIM_015.jpg
1449.714	0.768	1	incongruent	Block2	incongruent/STIM_015.jpg
1453.54	1.067	1	incongruent	Block2	incongruent/STIM_015.jpg
1458.048	1.019	1	incongruent	Block2	incongruent/STIM_016.jpg
1462.456	0.785	1	incongruent	Block2	incongruent/STIM_016.jpg
1466.512	1.058	1	incongruent	Block2	incongruent/STIM_016.jpg
1470.998	0.757	1	incongruent	Block2	incongruent/STIM_016.jpg
1473.648	0.648	1	incongruent	Block2	incongruent/STIM_016.jpg
1477.211	0.847	1	incongruent	Block2	incongruent/STIM_017.jpg
1480.085	1.004	1	incongruent	Block2	incongruent/STIM_017.jpg
1484.479	0.91	1	incongruent	Block2	incongruent/STIM_017.jpg
1488.376	1.236	1	incongruent	Block2	incongruent/STIM_017.jpg
1491.557	1.099	1	incongruent	Block2	incongruent/STIM_017.jpg
1495.572	0.924	1	incongruent	Block2	incongruent/STIM_018.jpg
1500.325	1.283	1	incongruent	Block2	incongruent/STIM_018.jpg
1504.413	0.946	1	incongruent	Block2	incongruent/STIM_018.jpg
1507.47	0.969	1	incongruent	Block2	incongruent/STIM_018.jpg
1510.411	0.892	1	incongruent	Block2	incongruent/STIM_018.jpg
1514.278	0.755	1	incongruent	Block2	incongruent/STIM_019.jpg
1517.358	1.312	1	incongruent	Block2	incongruent/STIM_019.jpg
1521.539	0.674	1	incongruent	Block2	incongruent/STIM_019.jpg
1525.487	0.985	1	incongruent	Block2	incongruent/STIM_019.jpg
1528.853	0.994	1	incongruent	Block2	incongruent/STIM_019.jpg
1532.327	0.685	0	incongruent	Block2	incongruent/STIM_020.jpg
1536.81	1.151	0	incongruent	Block2	incongruent/STIM_020.jpg
1540.931	0.666	1	incongruent	Block2	incongruent/STIM_020.jpg
1543.927	0.959	1	incongruent	Block2	incongruent/STIM_020.jpg
1547.599	0.532	1	incongruent	Block2	incongruent/STIM_020.jpg
1551.077	1.1	1	incongruent	Block2	incongruent/STIM_021.jpg
1555.877	0.93	1	incongruent	Block2	incongruent/STIM_021.jpg
1559.308	0.906	1	incongruent	Block2	incongruent/STIM_021.jpg
1563.815	0.796	0	incongruent	Block2	incongruent/STIM_021.jpg
1567.572	0.797	1	incongruent	Block2	incongruent/STIM_021.jpg
1571.705	1.294	1	incongruent	Block2	incongruent/STIM_022.jpg
1575.16	0.941	1	incongruent	Block2	incongruent/STIM_022.jpg
1579.68	1.195	1	incongruent	Block2	incongruent/STIM_022.jpg
1583.723	0.698	1	incongruent	Block2	incongruent/STIM_022.jpg
1587.542	1.147	1	incongruent	Block2	incongruent/STIM_022.jpg
1592.453	0.933	1	incongruent	Block2	incongruent/STIM_023.jpg
1595.896	1.214	1	incongruent	Block2	incongruent/STIM_023.jpg
1600.297	1.143	1	incongruent	Block2	incongruent/STIM_023.jpg
1604.614	0.971	1	incongruent	Block2	incongruent/STIM_023.jpg
1608.194	0.689	1	incongruent	Block2	incongruent/STIM_023.jpg
1612.095	1.052	0	incongruent	Block2	incongruent/STIM_024.jpg
1615.406	0.644	1	incongruent	Block2	incongruent/STIM_024.jpg
1618.418	0.902	1	incongruent	Block2	incongruent/STIM_024.jpg
1622.36	0.868	1	incongruent	Block2	incongruent/STIM_024.jpg
1626.195	1.065	1	incongruent	Block2	incongruent/STIM_024.jpg
1630.712	1.084	1	incongruent	Block2	incongruent/STIM_025.jpg
1634.216	0.778	1	incongruent	Block2	incongruent/STIM_025.jpg
1637.834	1.155	1	incongruent	Block2	incongruent/STIM_025.jpg
1641.1	0.757	1	incongruent	Block2	incongruent/STIM_025.jpg
1644.924	1.184	1	incongruent	Block2	incongruent/STIM_025.jpg
1648.642	1.079	1	incongruent	Block2	incongruent/STIM_026.jpg
1652.293	1.007	1	incongruent	Block2	incongruent/STIM_026.jpg
1656.235	1.155	1	incongruent	Block2	incongruent/STIM_026.jpg
1659.884	0.695	1	incongruent	Block2	incongruent/STIM_026.jpg
1663.537	0.974	1	incongruent	Block2	incongruent/STIM_026.jpg
1668.366	1.324	1	incongruent	Block2	incongruent/STIM_027.jpg
1672.151	1.007	1	incongruent	Block2	incongruent/STIM_027.jpg
1675.749	1.212	1	incongruent	Block2	incongruent/STIM_027.jpg
1680.304	0.738	1	incongruent	Block2	incongruent/STIM_027.jpg
1684.306	0.674	1	incongruent	Block2	incongruent/STIM_027.jpg
1688.043	1.133	1	incongruent	Block2	incongruent/STIM_028.jpg
1691.725	1.069	1	incongruent	Block2	incongruent/STIM_028.jpg
1694.722	0.932	1	incongruent	Block2	incongruent/STIM_028.jpg
1699.068	0.62	1	incongruent	Block2	incongruent/STIM_028.jpg
1701.656	1.186	1	incongruent	Block2	incongruent/STIM_028.jpg
1705.571	0.833	1	incongruent	Block2	incongruent/STIM_029.jpg
1708.816	0.942	1	incongruent	Block2	incongruent/STIM_029.jpg
1712.234	1.214	1	incongruent	Block2	incongruent/STIM_029.jpg
1717.08	0.779	1	incongruent	Block2	incongruent/STIM_029.jpg
1720.939	0.516	1	incongruent	Block2	incongruent/STIM_029.jpg
1724.072	0.724	1	congruent	Block2	congruent/STIM_000.jpg
1727.615	0.773	1	congruent	Block2	congruent/STIM_000.jpg
1730.352	0.864	1	congruent	Block2	congruent/STIM_000.jpg
1734.531	0.909	1	congruent	Block2	congruent/STIM_000.jpg
1737.656	0.614	1	congruent	Block2	congruent/STIM_000.jpg
1741.581	0.701	1	congruent	Block2	congruent/STIM_001.jpg
1745.735	0.857	1	congruent	Block2	congruent/STIM_001.jpg
1748.995	0.924	1	congruent	Block2	congruent/STIM_001.jpg
1751.923	1.021	1	congruent	Block2	congruent/STIM_001.jpg
1755.199	0.958	1	congruent	Block2	congruent/STIM_001.jpg
1759.081	0.782	1	congruent	Block2	congruent/STIM_002.jpg
1761.834	0.719	0	congruent	Block2	congruent/STIM_002.jpg
1765.358	0.922	1	congruent	Block2	congruent/STIM_002.jpg
1769.003	1.027	1	congruent	Block2	congruent/STIM_002.jpg
1773.556	0.787	1	congruent	Block2	congruent/STIM_002.jpg
1777.962	0.892	1	congruent	Block2	congruent/STIM_003.jpg
1782.211	0.723	1	congruent	Block2	congruent/STIM_003.jpg
1785.036	0.693	1	congruent	Block2	congruent/STIM_003.jpg
1788.127	0.624	1	congruent	Block2	congruent/STIM_003.jpg
1791.825	0.695	1	congruent	Block2	congruent/STIM_003.jpg
1796.283	1.022	1	congruent	Block2	congruent/STIM_004.jpg
1799.484	0.687	1	congruent	Block2	congruent/STIM_004.jpg
1803.007	0.856	1	congruent	Block2	congruent/STIM_004.jpg
1807.023	0.935	1	congruent	Block2	congruent/STIM_004.jpg
1811.435	0.901	1	congruent	Block2	congruent/STIM_004.jpg
1815.449	1.09	1	congruent	Block2	congruent/STIM_005.jpg
1820.216	0.726	1	congruent	Block2	congruent/STIM_005.jpg
1824.29	0.842	1	congruent	Block2	congruent/STIM_005.jpg
1828.665	0.555	1	congruent	Block2	congruent/STIM_005.jpg
1832.724	0.689	1	congruent	Block2	congruent/STIM_005.jpg
1836.802	0.739	1	congruent	Block2	congruent/STIM_006.jpg
1840.088	0.81	1	congruent	Block2	congruent/STIM_006.jpg
1843.924	1.035	1	congruent	Block2	congruent/STIM_006.jpg
1847.216	1.004	1	congruent	Block2	congruent/STIM_006.jpg
1851.747	0.849	1	congruent	Block2	congruent/STIM_006.jpg
1856.046	0.734	1	congruent	Block2	congruent/STIM_007.jpg
1859.917	0.72	0	congruent	Block2	congruent/STIM_007.jpg
1863.192	0.917	1	congruent	Block2	congruent/STIM_007.jpg
1866.562	0.81	1	congruent	Block2	congruent/STIM_007.jpg
1871.229	0.625	1	congruent	Block2	congruent/STIM_007.jpg
1874.275	0.953	1	congruent	Block2	congruent/STIM_008.jpg
1878.503	0.765	1	congruent	Block2	congruent/STIM_008.jpg
1881.532	0.927	1	congruent	Block2	congruent/STIM_008.jpg
1884.997	0.821	1	congruent	Block2	congruent/STIM_008.jpg
1889.453	0.706	1	congruent	Block2	congruent/STIM_008.jpg
1893.852	0.836	1	congruent	Block2	congruent/STIM_009.jpg
1897.013	0.653	1	congruent	Block2	congruent/STIM_009.jpg
1900.362	0.747	1	congruent	Block2	congruent/STIM_009.jpg
1903.118	1.022	1	congruent	Block2	congruent/STIM_009.jpg
1907.793	0.963	1	congruent	Block2	congruent/STIM_009.jpg
1910.792	0.865	1	congruent	Block2	congruent/STIM_010.jpg
1913.777	0.845	1	congruent	Block2	congruent/STIM_010.jpg
1918.381	0.637	1	congruent	Block2	congruent/STIM_010.jpg
1922.276	0.595	1	congruent	Block2	congruent/STIM_010.jpg
1925.48	0.785	1	congruent	Block2	congruent/STIM_010.jpg
1929.479	0.83	1	congruent	Block2	congruent/STIM_011.jpg
1933.683	0.758	1	congruent	Block2	congruent/STIM_011.jpg
1937.765	0.97	1	congruent	Block2	congruent/STIM_011.jpg
1941.577	0.79	1	congruent	Block2	congruent/STIM_011.jpg
1945.551	0.634	1	congruent	Block2	congruent/STIM_011.jpg
1948.62	0.818	1	congruent	Block2	congruent/STIM_012.jpg
1952.934	0.591	1	congruent	Block2	congruent/STIM_012.jpg
1956.223	0.896	1	congruent	Block2	congruent/STIM_012.jpg
1959.911	0.802	1	congruent	Block2	congruent/STIM_012.jpg
1963.632	0.746	1	congruent	Block2	congruent/STIM_012.jpg
1966.593	0.816	1	congruent	Block2	congruent/STIM_013.jpg
1971.034	0.99	1	congruent	Block2	congruent/STIM_013.jpg
1974.224	0.755	1	congruent	Block2	congruent/STIM_013.jpg
1978.535	0.965	1	congruent	Block2	congruent/STIM_013.jpg
1982.126	0.747	1	congruent	Block2	congruent/STIM_013.jpg
1985.952	0.987	1	congruent	Block2	congruent/STIM_014.jpg
1989.296	0.607	1	congruent	Block2	congruent/STIM_014.jpg
1993.086	0.619	1	congruent	Block2	congruent/STIM_014.jpg
1997.506	0.874	1	congruent	Block2	congruent/STIM_014.jpg
2001.956	0.841	1	congruent	Block2	congruent/STIM_014.jpg
2006.166	0.803	1	congruent	Block2	congruent/STIM_015.jpg
2008.988	1.034	1	congruent	Block2	congruent/STIM_015.jpg
2013.345	0.834	1	congruent	Block2	congruent/STIM_015.jpg
2017.645	0.655	1	congruent	Block2	congruent/STIM_015.jpg
2021.869	0.879	1	congruent	Block2	congruent/STIM_015.jpg
2025.188	0.695	1	congruent	Block2	congruent/STIM_016.jpg
2028.233	0.808	1	congruent	Block2	congruent/STIM_016.jpg
2032.806	0.835	1	congruent	Block2	congruent/STIM_016.jpg
2036.48	0.905	1	congruent	Block2	congruent/STIM_016.jpg
2040.27	0.864	1	congruent	Block2	congruent/STIM_016.jpg
2044.072	0.525	1	congruent	Block2	congruent/STIM_017.jpg
2047.852	0.637	1	congruent	Block2	congruent/STIM_017.jpg
2051.122	0.934	1	congruent	Block2	congruent/STIM_017.jpg
2054.638	0.995	1	congruent	Block2	congruent/STIM_017.jpg
2058.372	0.804	1	congruent	Block2	congruent/STIM_017.jpg
2061.202	0.842	1	congruent	Block2	congruent/STIM_018.jpg
2065.406	0.899	1	congruent	Block2	congruent/STIM_018.jpg
2069.575	0.601	0	congruent	Block2	congruent/STIM_018.jpg
2073.687	0.751	1	congruent	Block2	congruent/STIM_018.jpg
2077.365	0.809	1	congruent	Block2	congruent/STIM_018.jpg
2081.823	0.657	1	congruent	Block2	congruent/STIM_019.jpg
2084.561	0.825	1	congruent	Block2	congruent/STIM_019.jpg
2088.917	0.606	1	congruent	Block2	congruent/STIM_019.jpg
2093.195	1.079	1	congruent	Block2	congruent/STIM_019.jpg
2096.181	0.944	1	congruent	Block2	congruent/STIM_019.jpg
2099.137	0.659	1	congruent	Block2	congruent/STIM_020.jpg
2103.125	0.601	1	congruent	Block2	congruent/STIM_020.jpg
2107.522	0.945	1	congruent	Block2	congruent/STIM_020.jpg
2110.489	0.654	1	congruent	Block2	congruent/STIM_020.jpg
2113.904	0.599	1	congruent	Block2	congruent/STIM_020.jpg
2117.567	0.951	1	congruent	Block2	congruent/STIM_021.jpg
2122.227	0.847	1	congruent	Block2	congruent/STIM_021.jpg
2126.741	0.817	1	congruent	Block2	congruent/STIM_021.jpg
2131.251	0.724	1	congruent	Block2	congruent/STIM_021.jpg
2135.034	0.734	1	congruent	Block2	congruent/STIM_021.jpg
2137.906	1.003	1	congruent	Block2	congruent/STIM_022.jpg
2142.106	0.795	1	congruent	Block2	congruent/STIM_022.jpg
2146.226	0.604	1	congruent	Block2	congruent/STIM_022.jpg
2148.901	0.853	1	congruent	Block2	congruent/STIM_022.jpg
2152.862	0.748	1	congruent	Block2	congruent/STIM_022.jpg
2155.862	0.916	1	congruent	Block2	congruent/STIM_023.jpg
2159.205	0.957	1	congruent	Block2	congruent/STIM_023.jpg
2163.892	0.829	1	congruent	Block2	congruent/STIM_023.jpg
2167.683	0.97	1	congruent	Block2	congruent/STIM_023.jpg
2171.249	0.564	1	congruent	Block2	congruent/STIM_023.jpg
2175.001	0.877	1	congruent	Block2	congruent/STIM_024.jpg
2178.556	0.679	1	congruent	Block2	congruent/STIM_024.jpg
2182.074	0.803	1	congruent	Block2	congruent/STIM_024.jpg
2186.739	0.964	1	congruent	Block2	congruent/STIM_024.jpg
2191.463	0.945	1	congruent	Block2	congruent/STIM_024.jpg
2196.122	0.849	1	congruent	Block2	congruent/STIM_025.jpg
2199.586	0.625	1	congruent	Block2	congruent/STIM_025.jpg
2203.207	1.046	1	congruent	Block2	congruent/STIM_025.jpg
2206.206	0.915	1	congruent	Block2	congruent/STIM_025.jpg
2210.429	0.893	1	congruent	Block2	congruent/STIM_025.jpg
2213.909	0.762	1	congruent	Block2	congruent/STIM_026.jpg
2217.178	0.883	0	congruent	Block2	congruent/STIM_026.jpg
2221.016	0.825	1	congruent	Block2	congruent/STIM_026.jpg
2225.434	0.921	1	congruent	Block2	congruent/STIM_026.jpg
2228.411	0.909	1	congruent	Block2	congruent/STIM_026.jpg
2231.231	0.667	1	congruent	Block2	congruent/STIM_027.jpg
2235.84	0.986	1	congruent	Block2	congruent/STIM_027.jpg
2240.566	0.811	1	congruent	Block2	congruent/STIM_027.jpg
2243.691	0.741	1	congruent	Block2	congruent/STIM_027.jpg
2248.303	0.894	1	congruent	Block2	congruent/STIM_027.jpg
2251.037	0.908	1	congruent	Block2	congruent/STIM_028.jpg
2255.527	0.592	1	congruent	Block2	congruent/STIM_028.jpg
2258.747	0.893	1	congruent	Block2	congruent/STIM_028.jpg
2262.317	0.971	1	congruent	Block2	congruent/STIM_028.jpg
2265.397	0.98	1	congruent	Block2	congruent/STIM_028.jpg
2269.338	0.809	1	congruent	Block2	congruent/STIM_029.jpg
2272.516	0.943	1	congruent	Block2	congruent/STIM_029.jpg
2275.647	0.917	1	congruent	Block2	congruent/STIM_029.jpg
2278.763	0.813	1	congruent	Block2	congruent/STIM_029.jpg
2282.311	0.618	1	congruent	Block2	congruent/STIM_029.jpg
2285.012	0.876	1	incongruent	Block3	incongruent/STIM_000.jpg
2288.699	1.082	1	incongruent	Block3	incongruent/STIM_000.jpg
2292.113	1.015	1	incongruent	Block3	incongruent/STIM_000.jpg
2296.488	0.566	1	incongruent	Block3	incongruent/STIM_000.jpg
2300.958	0.88	1	incongruent	Block3	incongruent/STIM_000.jpg
2305.387	0.947	1	incongruent	Block3	incongruent/STIM_001.jpg
2308.565	0.569	1	incongruent	Block3	incongruent/STIM_001.jpg
2311.829	1.141	0	incongruent	Block3	incongruent/STIM_001.jpg
2315.006	0.588	1	incongruent	Block3	incongruent/STIM_001.jpg
2318.918	1.011	1	incongruent	Block3	incongruent/STIM_001.jpg
2322.408	0.637	1	incongruent	Block3	incongruent/STIM_002.jpg
2325.781	1.236	1	incongruent	Block3	incongruent/STIM_002.jpg
2330.758	0.706	1	incongruent	Block3	incongruent/STIM_002.jpg
2334.574	0.684	1	incongruent	Block3	incongruent/STIM_002.jpg
2337.72	0.595	1	incongruent	Block3	incongruent/STIM_002.jpg
2342.069	0.695	1	incongruent	Block3	incongruent/STIM_003.jpg
2345.438	1.174	1	incongruent	Block3	incongruent/STIM_003.jpg
2348.706	0.713	1	incongruent	Block3	incongruent/STIM_003.jpg
2351.957	1.055	1	incongruent	Block3	incongruent/STIM_003.jpg
2355.156	0.943	1	incongruent	Block3	incongruent/STIM_003.jpg
2359.267	0.993	1	incongruent	Block3	incongruent/STIM_004.jpg
2362.973	0.918	1	incongruent	Block3	incongruent/STIM_004.jpg
2365.966	0.707	1	incongruent	Block3	incongruent/STIM_004.jpg
2370.208	0.569	1	incongruent	Block3	incongruent/STIM_004.jpg
2374.025	0.562	1	incongruent	Block3	incongruent/STIM_004.jpg
2377.913	0.824	1	incongruent	Block3	incongruent/STIM_005.jpg
2381.892	0.736	1	incongruent	Block3	incongruent/STIM_005.jpg
2385.927	0.682	1	incongruent	Block3	incongruent/STIM_005.jpg
2389.645	0.957	1	incongruent	Block3	incongruent/STIM_005.jpg
2393.211	0.819	1	incongruent	Block3	incongruent/STIM_005.jpg
2397.7	0.732	1	incongruent	Block3	incongruent/STIM_006.jpg
2400.321	0.903	1	incongruent	Block3	incongruent/STIM_006.jpg
2403.606	0.815	1	incongruent	Block3	incongruent/STIM_006.jpg
2407.909	1.117	1	incongruent	Block3	incongruent/STIM_006.jpg
2411.5	0.711	1	incongruent	Block3	incongruent/STIM_006.jpg
2416.114	0.628	1	incongruent	Block3	incongruent/STIM_007.jpg
2419.377	0.834	1	incongruent	Block3	incongruent/STIM_007.jpg
2423.028	0.65	1	incongruent	Block3	incongruent/STIM_007.jpg
2426.915	1.145	1	incongruent	Block3	incongruent/STIM_007.jpg
2431.46	1.138	1	incongruent	Block3	incongruent/STIM_007.jpg
2435.053	0.672	1	incongruent	Block3	incongruent/STIM_008.jpg
2438.401	1.146	1	incongruent	Block3	incongruent/STIM_008.jpg
2443.179	0.612	1	incongruent	Block3	incongruent/STIM_008.jpg
2447.094	0.863	1	incongruent	Block3	incongruent/STIM_008.jpg
2451.768	1.122	1	incongruent	Block3	incongruent/STIM_008.jpg
2456.056	0.767	1	incongruent	Block3	incongruent/STIM_009.jpg
2458.891	0.71	1	incongruent	Block3	incongruent/STIM_009.jpg
2462.39	1.031	1	incongruent	Block3	incongruent/STIM_009.jpg
2465.736	0.63	1	incongruent	Block3	incongruent/STIM_009.jpg
2468.828	0.598	1	incongruent	Block3	incongruent/STIM_009.jpg
2472.777	0.909	1	incongruent	Block3	incongruent/STIM_010.jpg
2476.567	1.088	1	incongruent	Block3	incongruent/STIM_010.jpg
2480.94	1.032	0	incongruent	Block3	incongruent/STIM_010.jpg
2484.82	0.707	1	incongruent	Block3	incongruent/STIM_010.jpg
2488.172	0.98	1	incongruent	Block3	incongruent/STIM_010.jpg
2492.01	1.086	1	incongruent	Block3	incongruent/STIM_011.jpg
2496.958	1.173	1	incongruent	Block3	incongruent/STIM_011.jpg
2501.543	1.08	1	incongruent	Block3	incongruent/STIM_011.jpg
2504.762	0.672	1	incongruent	Block3	incongruent/STIM_011.jpg
2507.893	1.07	1	incongruent	Block3	incongruent/STIM_011.jpg
2511.508	1.048	1	incongruent	Block3	incongruent/STIM_012.jpg
2515.625	0.695	1	incongruent	Block3	incongruent/STIM_012.jpg
2519.635	0.81	1	incongruent	Block3	incongruent/STIM_012.jpg
2522.329	0.623	1	incongruent	Block3	incongruent/STIM_012.jpg
2526.826	0.785	1	incongruent	Block3	incongruent/STIM_012.jpg
2531.149	0.913	1	incongruent	Block3	incongruent/STIM_013.jpg
2534.835	0.768	1	incongruent	Block3	incongruent/STIM_013.jpg
2537.802	0.717	1	incongruent	Block3	incongruent/STIM_013.jpg
2541.383	0.803	1	incongruent	Block3	incongruent/STIM_013.jpg
2544.467	0.942	1	incongruent	Block3	incongruent/STIM_013.jpg
2547.77	0.739	1	incongruent	Block3	incongruent/STIM_014.jpg
2552.322	0.908	1	incongruent	Block3	incongruent/STIM_014.jpg
2555.822	0.904	1	incongruent	Block3	incongruent/STIM_014.jpg
2559.562	1.045	1	incongruent	Block3	incongruent/STIM_014.jpg
2564.026	1.008	1	incongruent	Block3	incongruent/STIM_014.jpg
2567.677	0.881	1	incongruent	Block3	incongruent/STIM_015.jpg
2570.998	0.551	1	incongruent	Block3	incongruent/STIM_015.jpg
2575.282	1.096	1	incongruent	Block3	incongruent/STIM_015.jpg
2580.306	0.818	1	incongruent	Block3	incongruent/STIM_015.jpg
2584.049	0.778	1	incongruent	Block3	incongruent/STIM_015.jpg
2587.244	0.934	1	incongruent	Block3	incongruent/STIM_016.jpg
2590.572	0.83	1	incongruent	Block3	incongruent/STIM_016.jpg
2593.923	0.883	1	incongruent	Block3	incongruent/STIM_016.jpg
2597.836	0.764	1	incongruent	Block3	incongruent/STIM_016.jpg
2600.941	1.137	1	incongruent	Block3	incongruent/STIM_016.jpg
2604.215	1.048	1	incongruent	Block3	incongruent/STIM_017.jpg
2608.455	1.019	1	incongruent	Block3	incongruent/STIM_017.jpg
2611.913	0.711	1	incongruent	Block3	incongruent/STIM_017.jpg
2614.726	0.719	1	incongruent	Block3	incongruent/STIM_017.jpg
2619.155	1.04	1	incongruent	Block3	incongruent/STIM_017.jpg
2622.458	0.773	1	incongruent	Block3	incongruent/STIM_018.jpg
2625.552	0.948	1	incongruent	Block3	incongruent/STIM_018.jpg
2630.005	0.693	1	incongruent	Block3	incongruent/STIM_018.jpg
2633.57	0.787	1	incongruent	Block3	incongruent/STIM_018.jpg
2636.761	1.011	1	incongruent	Block3	incongruent/STIM_018.jpg
2640.961	1.212	1	incongruent	Block3	incongruent/STIM_019.jpg
2644.483	1.189	1	incongruent	Block3	incongruent/STIM_019.jpg
2648.502	1.151	1	incongruent	Block3	incongruent/STIM_019.jpg
2651.874	1.227	1	incongruent	Block3	incongruent/STIM_019.jpg
2656.183	0.606	1	incongruent	Block3	incongruent/STIM_019.jpg
2659.093	0.86	1	incongruent	Block3	incongruent/STIM_020.jpg
2661.84	0.764	1	incongruent	Block3	incongruent/STIM_020.jpg
2665.325	0.959	1	incongruent	Block3	incongruent/STIM_020.jpg
2668.244	0.676	1	incongruent	Block3	incongruent/STIM_020.jpg
2671.435	0.913	1	incongruent	Block3	incongruent/STIM_020.jpg
2675.308	1.13	1	incongruent	Block3	incongruent/STIM_021.jpg
2679.506	1.152	1	incongruent	Block3	incongruent/STIM_021.jpg
2684.125	0.981	1	incongruent	Block3	incongruent/STIM_021.jpg
2689.048	0.789	1	incongruent	Block3	incongruent/STIM_021.jpg
2692.999	0.756	1	incongruent	Block3	incongruent/STIM_021.jpg
2696.758	0.995	1	incongruent	Block3	incongruent/STIM_022.jpg
2700.882	0.699	1	incongruent	Block3	incongruent/STIM_022.jpg
2704.083	0.793	1	incongruent	Block3	incongruent/STIM_022.jpg
2707.096	0.611	1	incongruent	Block3	incongruent/STIM_022.jpg
2711.517	0.975	1	incongruent	Block3	incongruent/STIM_022.jpg
2716.341	1.156	1	incongruent	Block3	incongruent/STIM_023.jpg
2721.348	0.596	1	incongruent	Block3	incongruent/STIM_023.jpg
2724.935	0.702	1	incongruent	Block3	incongruent/STIM_023.jpg
2727.915	1.098	1	incongruent	Block3	incongruent/STIM_023.jpg
2732.351	1.134	1	incongruent	Block3	incongruent/STIM_023.jpg
2735.693	0.6	1	incongruent	Block3	incongruent/STIM_024.jpg
2739.134	0.601	1	incongruent	Block3	incongruent/STIM_024.jpg
2742.354	0.562	1	incongruent	Block3	incongruent/STIM_024.jpg
2745.362	0.736	1	incongruent	Block3	incongruent/STIM_024.jpg
2749.393	1.142	1	incongruent	Block3	incongruent/STIM_024.jpg
2754.215	1.062	1	incongruent	Block3	incongruent/STIM_025.jpg
2758.035	0.717	1	incongruent	Block3	incongruent/STIM_025.jpg
2762.451	1.076	1	incongruent	Block3	incongruent/STIM_025.jpg
2766.29	1.249	1	incongruent	Block3	incongruent/STIM_025.jpg
2769.411	0.976	1	incongruent	Block3	incongruent/STIM_025.jpg
2772.667	0.563	1	incongruent	Block3	incongruent/STIM_026.jpg
2775.523	0.733	1	incongruent	Block3	incongruent/STIM_026.jpg
2779.769	1.124	1	incongruent	Block3	incongruent/STIM_026.jpg
2783.505	0.813	1	incongruent	Block3	incongruent/STIM_026.jpg
2786.6	0.699	1	incongruent	Block3	incongruent/STIM_026.jpg
2789.396	0.582	0	incongruent	Block3	incongruent/STIM_027.jpg
2793.211	0.896	1	incongruent	Block3	incongruent/STIM_027.jpg
2797.067	0.688	1	incongruent	Block3	incongruent/STIM_027.jpg
2800.127	1.194	1	incongruent	Block3	incongruent/STIM_027.jpg
2804.139	1.135	1	incongruent	Block3	incongruent/STIM_027.jpg
2808.608	0.998	1	incongruent	Block3	incongruent/STIM_028.jpg
2811.548	0.897	1	incongruent	Block3	incongruent/STIM_028.jpg
2816.107	1.035	1	incongruent	Block3	incongruent/STIM_028.jpg
2819.811	0.612	1	incongruent	Block3	incongruent/STIM_028.jpg
2822.645	1.128	1	incongruent	Block3	incongruent/STIM_028.jpg
2826.106	1.192	1	incongruent	Block3	incongruent/STIM_029.jpg
2830.21	0.92	1	incongruent	Block3	incongruent/STIM_029.jpg
2835.038	1.259	1	incongruent	Block3	incongruent/STIM_029.jpg
2839.42	0.748	1	incongruent	Block3	incongruent/STIM_029.jpg
2842.574	1.025	1	incongruent	Block3	incongruent/STIM_029.jpg
2846.37	0.946	0	congruent	Block3	congruent/STIM_000.jpg
2850.49	0.788	1	congruent	Block3	congruent/STIM_000.jpg
2853.597	1.076	1	congruent	Block3	congruent/STIM_000.jpg
2858.078	0.648	1	congruent	Block3	congruent/STIM_000.jpg
2860.885	1.026	0	congruent	Block3	congruent/STIM_000.jpg
2864.388	0.717	1	congruent	Block3	congruent/STIM_001.jpg
2867.264	0.731	1	congruent	Block3	congruent/STIM_001.jpg
2870.7	0.632	1	congruent	Block3	congruent/STIM_001.jpg
2874.639	0.968	0	congruent	Block3	congruent/STIM_001.jpg
2878.995	1.106	1	congruent	Block3	congruent/STIM_001.jpg
2883.187	0.666	1	congruent	Block3	congruent/STIM_002.jpg
2887.764	0.972	1	congruent	Block3	congruent/STIM_002.jpg
2891.49	0.705	1	congruent	Block3	congruent/STIM_002.jpg
2894.46	0.947	1	congruent	Block3	congruent/STIM_002.jpg
2898.279	0.849	1	congruent	Block3	congruent/STIM_002.jpg
2901.731	0.728	1	congruent	Block3	congruent/STIM_003.jpg
2905.218	0.764	0	congruent	Block3	congruent/STIM_003.jpg
2909.049	0.588	1	congruent	Block3	congruent/STIM_003.jpg
2912.14	0.919	1	congruent	Block3	congruent/STIM_003.jpg
2915.752	0.8	1	congruent	Block3	congruent/STIM_003.jpg
2918.487	0.929	1	congruent	Block3	congruent/STIM_004.jpg
2922.154	0.721	1	congruent	Block3	congruent/STIM_004.jpg
2924.838	0.785	1	congruent	Block3	congruent/STIM_004.jpg
2927.692	0.937	1	congruent	Block3	congruent/STIM_004.jpg
2932.062	0.984	1	congruent	Block3	congruent/STIM_004.jpg
2935.298	0.679	1	congruent	Block3	congruent/STIM_005.jpg
2938.732	0.838	1	congruent	Block3	congruent/STIM_005.jpg
2942.134	0.749	1	congruent	Block3	congruent/STIM_005.jpg
2946.379	0.987	1	congruent	Block3	congruent/STIM_005.jpg
2949.963	0.907	1	congruent	Block3	congruent/STIM_005.jpg
2954.092	0.932	1	congruent	Block3	congruent/STIM_006.jpg
2957.498	0.605	1	congruent	Block3	congruent/STIM_006.jpg
2960.722	0.908	1	congruent	Block3	congruent/STIM_006.jpg
2963.819	0.797	1	congruent	Block3	congruent/STIM_006.jpg
2966.825	0.663	1	congruent	Block3	congruent/STIM_006.jpg
2969.897	0.866	1	congruent	Block3	congruent/STIM_007.jpg
2973.978	0.699	1	congruent	Block3	congruent/STIM_007.jpg
2977.249	0.85	1	congruent	Block3	congruent/STIM_007.jpg
2980.178	0.781	1	congruent	Block3	congruent/STIM_007.jpg
2983.245	0.609	1	congruent	Block3	congruent/STIM_007.jpg
2986.747	0.635	1	congruent	Block3	congruent/STIM_008.jpg
2990.653	0.861	1	congruent	Block3	congruent/STIM_008.jpg
2994.349	1.026	1	congruent	Block3	congruent/STIM_008.jpg
2997.797	0.478	1	congruent	Block3	congruent/STIM_008.jpg
3000.708	0.732	1	congruent	Block3	congruent/STIM_008.jpg
3004.605	0.712	1	congruent	Block3	congruent/STIM_009.jpg
3008.457	0.724	1	congruent	Block3	congruent/STIM_009.jpg
3013.096	0.733	1	congruent	Block3	congruent/STIM_009.jpg
3017.002	0.938	1	congruent	Block3	congruent/STIM_009.jpg
3021.677	0.824	1	congruent	Block3	congruent/STIM_009.jpg
3025.063	0.855	1	congruent	Block3	congruent/STIM_010.jpg
3029.405	0.79	1	congruent	Block3	congruent/STIM_010.jpg
3033.793	0.476	1	congruent	Block3	congruent/STIM_010.jpg
3036.5	0.613	1	congruent	Block3	congruent/STIM_010.jpg
3040.155	0.962	1	congruent	Block3	congruent/STIM_010.jpg
3043.415	0.652	0	congruent	Block3	congruent/STIM_011.jpg
3046.541	0.957	0	congruent	Block3	congruent/STIM_011.jpg
3050.145	0.546	1	congruent	Block3	congruent/STIM_011.jpg
3054.182	1.018	0	congruent	Block3	congruent/STIM_011.jpg
3057.914	0.867	1	congruent	Block3	congruent/STIM_011.jpg
3062.228	0.785	0	congruent	Block3	congruent/STIM_012.jpg
3066.492	0.93	1	congruent	Block3	congruent/STIM_012.jpg
3069.613	0.864	1	congruent	Block3	congruent/STIM_012.jpg
3073.771	0.629	1	congruent	Block3	congruent/STIM_012.jpg
3077.69	0.908	1	congruent	Block3	congruent/STIM_012.jpg
3080.688	0.629	1	congruent	Block3	congruent/STIM_013.jpg
3083.516	0.624	1	congruent	Block3	congruent/STIM_013.jpg
3086.746	0.945	1	congruent	Block3	congruent/STIM_013.jpg
3090.766	0.854	1	congruent	Block3	congruent/STIM_013.jpg
3095.072	0.882	1	congruent	Block3	congruent/STIM_013.jpg
3098.917	0.78	1	congruent	Block3	congruent/STIM_014.jpg
3102.54	0.947	1	congruent	Block3	congruent/STIM_014.jpg
3105.673	0.54	1	congruent	Block3	congruent/STIM_014.jpg
3108.312	0.735	0	congruent	Block3	congruent/STIM_014.jpg
3112.26	0.684	1	congruent	Block3	congruent/STIM_014.jpg
3116.191	0.561	1	congruent	Block3	congruent/STIM_015.jpg
3119.347	0.613	0	congruent	Block3	congruent/STIM_015.jpg
3123.682	0.757	1	congruent	Block3	congruent/STIM_015.jpg
3127.222	0.859	1	congruent	Block3	congruent/STIM_015.jpg
3130.262	0.852	1	congruent	Block3	congruent/STIM_015.jpg
3134.025	0.602	1	congruent	Block3	congruent/STIM_016.jpg
3138.312	0.861	1	congruent	Block3	congruent/STIM_016.jpg
3141.476	0.852	1	congruent	Block3	congruent/STIM_016.jpg
3144.547	0.752	1	congruent	Block3	congruent/STIM_016.jpg
3148.682	0.83	1	congruent	Block3	congruent/STIM_016.jpg
3151.759	0.786	1	congruent	Block3	congruent/STIM_017.jpg
3155.658	0.99	1	congruent	Block3	congruent/STIM_017.jpg
3158.851	0.681	1	congruent	Block3	congruent/STIM_017.jpg
3163.369	0.649	1	congruent	Block3	congruent/STIM_017.jpg
3167.565	0.857	1	congruent	Block3	congruent/STIM_017.jpg
3170.447	0.945	1	congruent	Block3	congruent/STIM_018.jpg
3173.38	0.636	1	congruent	Block3	congruent/STIM_018.jpg
3177.068	0.841	1	congruent	Block3	congruent/STIM_018.jpg
3180.612	0.847	1	congruent	Block3	congruent/STIM_018.jpg
3183.656	0.647	1	congruent	Block3	congruent/STIM_018.jpg
3186.567	0.511	1	congruent	Block3	congruent/STIM_019.jpg
3190.115	0.674	1	congruent	Block3	congruent/STIM_019.jpg
3193.838	0.896	0	congruent	Block3	congruent/STIM_019.jpg
3197.336	0.714	1	congruent	Block3	congruent/STIM_019.jpg
3201.241	0.674	1	congruent	Block3	congruent/STIM_019.jpg
3204.406	0.994	1	congruent	Block3	congruent/STIM_020.jpg
3209.209	0.46	1	congruent	Block3	congruent/STIM_020.jpg
3213.554	0.754	1	congruent	Block3	congruent/STIM_020.jpg
3217.889	0.888	1	congruent	Block3	congruent/STIM_020.jpg
3222.205	0.821	1	congruent	Block3	congruent/STIM_020.jpg
3225.408	0.855	1	congruent	Block3	congruent/STIM_021.jpg
3229.588	1.051	1	congruent	Block3	congruent/STIM_021.jpg
3232.719	0.69	1	congruent	Block3	congruent/STIM_021.jpg
3235.916	0.688	1	congruent	Block3	congruent/STIM_021.jpg
3239.915	0.753	1	congruent	Block3	congruent/STIM_021.jpg
3242.823	0.929	0	congruent	Block3	congruent/STIM_022.jpg
3246.734	0.805	1	congruent	Block3	congruent/STIM_022.jpg
3249.81	0.925	1	congruent	Block3	congruent/STIM_022.jpg
3253.586	0.655	1	congruent	Block3	congruent/STIM_022.jpg
3256.555	0.668	1	congruent	Block3	congruent/STIM_022.jpg
3259.777	0.766	1	congruent	Block3	congruent/STIM_023.jpg
3263.041	0.598	1	congruent	Block3	congruent/STIM_023.jpg
3267.536	0.522	1	congruent	Block3	congruent/STIM_023.jpg
3271.163	0.476	0	congruent	Block3	congruent/STIM_023.jpg
3274.738	1.031	1	congruent	Block3	congruent/STIM_023.jpg
3277.848	0.82	1	congruent	Block3	congruent/STIM_024.jpg
3282.35	0.96	1	congruent	Block3	congruent/STIM_024.jpg
3285.932	0.869	1	congruent	Block3	congruent/STIM_024.jpg
3290.462	0.784	1	congruent	Block3	congruent/STIM_024.jpg
3294.773	0.849	1	congruent	Block3	congruent/STIM_024.jpg
3299.079	0.681	1	congruent	Block3	congruent/STIM_025.jpg
3301.885	0.806	1	congruent	Block3	congruent/STIM_025.jpg
3305.954	0.874	1	congruent	Block3	congruent/STIM_025.jpg
3310.056	0.982	1	congruent	Block3	congruent/STIM_025.jpg
3314.862	0.596	1	congruent	Block3	congruent/STIM_025.jpg
3317.85	0.774	1	congruent	Block3	congruent/STIM_026.jpg
3320.968	0.702	1	congruent	Block3	congruent/STIM_026.jpg
3325.48	0.656	1	congruent	Block3	congruent/STIM_026.jpg
3329.645	0.536	1	congruent	Block3	congruent/STIM_026.jpg
3333.746	0.688	1	congruent	Block3	congruent/STIM_026.jpg
3336.564	0.792	1	congruent	Block3	congruent/STIM_027.jpg
3341.282	0.602	1	congruent	Block3	congruent/STIM_027.jpg
3345.681	0.712	1	congruent	Block3	congruent/STIM_027.jpg
3348.795	0.57	1	congruent	Block3	congruent/STIM_027.jpg
3352.556	0.675	1	congruent	Block3	congruent/STIM_027.jpg
3357.041	0.73	1	congruent	Block3	congruent/STIM_028.jpg
3359.781	0.96	1	congruent	Block3	congruent/STIM_028.jpg
3362.707	0.761	1	congruent	Block3	congruent/STIM_028.jpg
3366.916	0.99	1	congruent	Block3	congruent/STIM_028.jpg
3370.381	0.697	1	congruent	Block3	congruent/STIM_028.jpg
3374.335	0.861	1	congruent	Block3	congruent/STIM_029.jpg
3378.058	0.737	1	congruent	Block3	congruent/STIM_029.jpg
3382.356	0.587	1	congruent	Block3	congruent/STIM_029.jpg
3386.917	0.826	1	congruent	Block3	congruent/STIM_029.jpg
3391.329	0.724	1	congruent	Block3	congruent/STIM_029.jpg
