onset	duration	accuracy	trial_type	learning_stage	stimulus
0.0	1.067	correct	incongruent	Block1	incongruent/STIM_000.jpg
4.37	1.03	correct	incongruent	Block1	incongruent/STIM_000.jpg
9.384	0.838	correct	incongruent	Block1	incongruent/STIM_000.jpg
14.148	0.606	correct	incongruent	Block1	incongruent/STIM_000.jpg
17.177	0.68	correct	incongruent	Block1	incongruent/STIM_000.jpg
21.318	0.919	correct	incongruent	Block1	incongruent/STIM_001.jpg
25.7	1.181	correct	incongruent	Block1	incongruent/STIM_001.jpg
29.073	0.653	correct	incongruent	Block1	incongruent/STIM_001.jpg
31.842	0.603	correct	incongruent	Block1	incongruent/STIM_001.jpg
34.483	1.038	correct	incongruent	Block1	incongruent/STIM_001.jpg
38.416	1.046	correct	incongruent	Block1	incongruent/STIM_002.jpg
42.518	0.612	correct	incongruent	Block1	incongruent/STIM_002.jpg
46.187	0.98	correct	incongruent	Block1	incongruent/STIM_002.jpg
49.829	0.931	correct	incongruent	Block1	incongruent/STIM_002.jpg
52.875	0.503	correct	incongruent	Block1	incongruent/STIM_002.jpg
56.555	1.225	correct	incongruent	Block1	incongruent/STIM_003.jpg
60.156	0.774	correct	incongruent	Block1	incongruent/STIM_003.jpg
64.487	0.702	correct	incongruent	Block1	incongruent/STIM_003.jpg
67.671	0.854	correct	incongruent	Block1	incongruent/STIM_003.jpg
72.045	0.639	correct	incongruent	Block1	incongruent/STIM_003.jpg
76.162	0.748	correct	incongruent	Block1	incongruent/STIM_004.jpg
79.511	1.184	correct	incongruent	Block1	incongruent/STIM_004.jpg
83.998	0.847	correct	incongruent	Block1	incongruent/STIM_004.jpg
87.886	0.695	correct	incongruent	Block1	incongruent/STIM_004.jpg
90.856	0.626	correct	incongruent	Block1	incongruent/STIM_004.jpg
94.166	1.306	correct	incongruent	Block1	incongruent/STIM_005.jpg
99.273	0.585	correct	incongruent	Block1	incongruent/STIM_005.jpg
103.254	0.838	correct	incongruent	Block1	incongruent/STIM_005.jpg
106.549	0.833	correct	incongruent	Block1	incongruent/STIM_005.jpg
111.371	0.492	correct	incongruent	Block1	incongruent/STIM_005.jpg
114.779	1.12	incorrect	incongruent	Block1	incongruent/STIM_006.jpg
119.259	0.676	correct	incongruent	Block1	incongruent/STIM_006.jpg
122.388	0.839	correct	incongruent	Block1	incongruent/STIM_006.jpg
125.6	0.856	correct	incongruent	Block1	incongruent/STIM_006.jpg
128.886	0.961	correct	incongruent	Block1	incongruent/STIM_006.jpg
133.193	0.777	correct	incongruent	Block1	incongruent/STIM_007.jpg
136.258	1.197	correct	incongruent	Block1	incongruent/STIM_007.jpg
140.492	1.058	correct	incongruent	Block1	incongruent/STIM_007.jpg
144.621	0.717	correct	incongruent	Block1	incongruent/STIM_007.jpg
147.733	0.823	correct	incongruent	Block1	incongruent/STIM_007.jpg
152.546	1.036	correct	incongruent	Block1	incongruent/STIM_008.jpg
156.363	0.66	correct	incongruent	Block1	incongruent/STIM_008.jpg
160.184	0.728	correct	incongruent	Block1	incongruent/STIM_008.jpg
164.884	0.902	correct	incongruent	Block1	incongruent/STIM_008.jpg
168.085	0.538	correct	incongruent	Block1	incongruent/STIM_008.jpg
172.244	1.091	correct	incongruent	Block1	incongruent/STIM_009.jpg
176.205	0.764	correct	incongruent	Block1	incongruent/STIM_009.jpg
179.507	0.919	correct	incongruent	Block1	incongruent/STIM_009.jpg
183.8	0.788	correct	incongruent	Block1	incongruent/STIM_009.jpg
188.574	0.787	correct	incongruent	Block1	incongruent/STIM_009.jpg
192.169	1.129	correct	incongruent	Block1	incongruent/STIM_010.jpg
196.843	1.12	incorrect	incongruent	Block1	incongruent/STIM_010.jpg
200.499	1.099	correct	incongruent	Block1	incongruent/STIM_010.jpg
203.907	0.531	correct	incongruent	Block1	incongruent/STIM_010.jpg
207.485	0.869	correct	incongruent	Block1	incongruent/STIM_010.jpg
211.256	0.751	correct	incongruent	Block1	incongruent/STIM_011.jpg
214.594	0.98	correct	incongruent	Block1	incongruent/STIM_011.jpg
218.026	0.865	correct	incongruent	Block1	incongruent/STIM_011.jpg
221.122	0.779	correct	incongruent	Block1	incongruent/STIM_011.jpg
225.121	1.02	correct	incongruent	Block1	incongruent/STIM_011.jpg
229.153	0.933	correct	incongruent	Block1	incongruent/STIM_012.jpg
232.536	0.85	correct	incongruent	Block1	incongruent/STIM_012.jpg
235.705	0.813	correct	incongruent	Block1	incongruent/STIM_012.jpg
239.203	0.574	correct	incongruent	Block1	incongruent/STIM_012.jpg
243.241	0.877	correct	incongruent	Block1	incongruent/STIM_012.jpg
246.365	0.7	correct	incongruent	Block1	incongruent/STIM_013.jpg
249.879	0.601	correct	incongruent	Block1	incongruent/STIM_013.jpg
253.666	0.728	correct	incongruent	Block1	incongruent/STIM_013.jpg
257.255	0.774	correct	incongruent	Block1	incongruent/STIM_013.jpg
261.091	0.926	correct	incongruent	Block1	incongruent/STIM_013.jpg
264.439	0.625	correct	incongruent	Block1	incongruent/STIM_014.jpg
267.598	1.212	correct	incongruent	Block1	incongruent/STIM_014.jpg
271.781	0.679	correct	incongruent	Block1	incongruent/STIM_014.jpg
275.223	0.862	correct	incongruent	Block1	incongruent/STIM_014.jpg
278.718	0.728	correct	incongruent	Block1	incongruent/STIM_014.jpg
282.101	1.224	incorrect	incongruent	Block1	incongruent/STIM_015.jpg
286.009	0.864	correct	incongruent	Block1	incongruent/STIM_015.jpg
289.093	1.034	correct	incongruent	Block1	incongruent/STIM_015.jpg
293.884	1.001	correct	incongruent	Block1	incongruent/STIM_015.jpg
297.508	0.869	correct	incongruent	Block1	incongruent/STIM_015.jpg
302.365	1.077	correct	incongruent	Block1	incongruent/STIM_016.jpg
306.465	0.935	correct	incongruent	Block1	incongruent/STIM_016.jpg
310.319	0.671	correct	incongruent	Block1	incongruent/STIM_016.jpg
313.173	0.596	correct	incongruent	Block1	incongruent/STIM_016.jpg
317.032	0.805	correct	incongruent	Block1	incongruent/STIM_016.jpg
321.063	1.305	correct	incongruent	Block1	incongruent/STIM_017.jpg
324.769	0.926	correct	incongruent	Block1	incongruent/STIM_017.jpg
328.801	0.716	correct	incongruent	Block1	incongruent/STIM_017.jpg
332.74	1.016	correct	incongruent	Block1	incongruent/STIM_017.jpg
337.327	0.982	correct	incongruent	Block1	incongruent/STIM_017.jpg
341.443	0.852	correct	incongruent	Block1	incongruent/STIM_018.jpg
344.682	0.908	correct	incongruent	Block1	incongruent/STIM_018.jpg
348.005	0.556	correct	incongruent	Block1	incongruent/STIM_018.jpg
352.299	0.569	correct	incongruent	Block1	incongruent/STIM_018.jpg
356.856	0.581	correct	incongruent	Block1	incongruent/STIM_018.jpg
360.564	0.714	correct	incongruent	Block1	incongruent/STIM_019.jpg
363.822	0.872	correct	incongruent	Block1	incongruent/STIM_019.jpg
367.189	0.915	correct	incongruent	Block1	incongruent/STIM_019.jpg
372.026	0.863	correct	incongruent	Block1	incongruent/STIM_019.jpg
374.938	1.009	correct	incongruent	Block1	incongruent/STIM_019.jpg
378.092	1.247	correct	incongruent	Block1	incongruent/STIM_020.jpg
382.57	0.818	correct	incongruent	Block1	incongruent/STIM_020.jpg
386.389	0.808	correct	incongruent	Block1	incongruent/STIM_020.jpg
389.409	0.556	correct	incongruent	Block1	incongruent/STIM_020.jpg
393.585	1.002	correct	incongruent	Block1	incongruent/STIM_020.jpg
398.151	0.936	correct	incongruent	Block1	incongruent/STIM_021.jpg
402.086	1.04	correct	incongruent	Block1	incongruent/STIM_021.jpg
405.683	0.607	correct	incongruent	Block1	incongruent/STIM_021.jpg
409.906	0.933	correct	incongruent	Block1	incongruent/STIM_021.jpg
414.671	0.906	correct	incongruent	Block1	incongruent/STIM_021.jpg
419.196	0.622	correct	incongruent	Block1	incongruent/STIM_022.jpg
422.468	0.697	correct	incongruent	Block1	incongruent/STIM_022.jpg
426.626	0.778	correct	incongruent	Block1	incongruent/STIM_022.jpg
430.107	0.794	correct	incongruent	Block1	incongruent/STIM_022.jpg
434.12	0.554	correct	incongruent	Block1	incongruent/STIM_022.jpg
437.255	0.948	correct	incongruent	Block1	incongruent/STIM_023.jpg
441.108	0.87	correct	incongruent	Block1	incongruent/STIM_023.jpg
445.71	0.984	correct	incongruent	Block1	incongruent/STIM_023.jpg
449.239	0.992	correct	incongruent	Block1	incongruent/STIM_023.jpg
454.181	0.903	correct	incongruent	Block1	incongruent/STIM_023.jpg
457.389	1.181	correct	incongruent	Block1	incongruent/STIM_024.jpg
460.816	0.638	correct	incongruent	Block1	incongruent/STIM_024.jpg
463.725	1.148	correct	incongruent	Block1	incongruent/STIM_024.jpg
467.077	1.063	correct	incongruent	Block1	incongruent/STIM_024.jpg
471.436	0.713	correct	incongruent	Block1	incongruent/STIM_024.jpg
474.181	0.805	correct	incongruent	Block1	incongruent/STIM_025.jpg
477.945	1.136	correct	incongruent	Block1	incongruent/STIM_025.jpg
482.365	1.058	correct	incongruent	Block1	incongruent/STIM_025.jpg
487.332	0.767	correct	incongruent	Block1	incongruent/STIM_025.jpg
491.445	0.755	correct	incongruent	Block1	incongruent/STIM_025.jpg
496.135	0.974	correct	incongruent	Block1	incongruent/STIM_026.jpg
499.476	0.815	correct	incongruent	Block1	incongruent/STIM_026.jpg
503.123	0.59	correct	incongruent	Block1	incongruent/STIM_026.jpg
507.523	0.912	correct	incongruent	Block1	incongruent/STIM_026.jpg
512.202	0.723	correct	incongruent	Block1	incongruent/STIM_026.jpg
516.52	1.06	correct	incongruent	Block1	incongruent/STIM_027.jpg
520.985	0.657	correct	incongruent	Block1	incongruent/STIM_027.jpg
523.925	1.171	correct	incongruent	Block1	incongruent/STIM_027.jpg
528.704	0.594	correct	incongruent	Block1	incongruent/STIM_027.jpg
532.827	0.496	correct	incongruent	Block1	incongruent/STIM_027.jpg
536.19	0.697	correct	incongruent	Block1	incongruent/STIM_028.jpg
539.534	0.748	correct	incongruent	Block1	incongruent/STIM_028.jpg
543.914	0.803	correct	incongruent	Block1	incongruent/STIM_028.jpg
547.685	0.702	correct	incongruent	Block1	incongruent/STIM_028.jpg
551.512	0.519	correct	incongruent	Block1	incongruent/STIM_028.jpg
555.901	0.749	correct	incongruent	Block1	incongruent/STIM_029.jpg
560.421	0.938	correct	incongruent	Block1	incongruent/STIM_029.jpg
564.791	0.793	correct	incongruent	Block1	incongruent/STIM_029.jpg
567.908	0.626	correct	incongruent	Block1	incongruent/STIM_029.jpg
571.642	0.774	correct	incongruent	Block1	incongruent/STIM_029.jpg
575.05	0.733	correct	congruent	Block1	congruent/STIM_000.jpg
579.53	0.69	correct	congruent	Block1	congruent/STIM_000.jpg
583.756	0.595	correct	congruent	Block1	congruent/STIM_000.jpg
588.09	0.621	correct	congruent	Block1	congruent/STIM_000.jpg
591.748	0.558	correct	congruent	Block1	congruent/STIM_000.jpg
595.859	0.714	correct	congruent	Block1	congruent/STIM_001.jpg
600.161	0.779	correct	congruent	Block1	congruent/STIM_001.jpg
602.986	0.56	correct	congruent	Block1	congruent/STIM_001.jpg
606.197	0.542	correct	congruent	Block1	congruent/STIM_001.jpg
609.287	0.597	correct	congruent	Block1	congruent/STIM_001.jpg
612.695	0.747	correct	congruent	Block1	congruent/STIM_002.jpg
616.57	0.781	correct	congruent	Block1	congruent/STIM_002.jpg
619.893	0.702	correct	congruent	Block1	congruent/STIM_002.jpg
623.144	0.569	correct	congruent	Block1	congruent/STIM_002.jpg
626.019	0.5	correct	congruent	Block1	congruent/STIM_002.jpg
628.623	0.71	correct	congruent	Block1	congruent/STIM_003.jpg
632.566	0.508	correct	congruent	Block1	congruent/STIM_003.jpg
637.043	0.59	correct	congruent	Block1	congruent/STIM_003.jpg
641.467	0.484	incorrect	congruent	Block1	congruent/STIM_003.jpg
644.587	0.574	correct	congruent	Block1	congruent/STIM_003.jpg
648.45	0.628	correct	congruent	Block1	congruent/STIM_004.jpg
652.607	0.442	correct	congruent	Block1	congruent/STIM_004.jpg
655.16	0.728	correct	congruent	Block1	congruent/STIM_004.jpg
659.735	0.557	correct	congruent	Block1	congruent/STIM_004.jpg
664.022	0.562	correct	congruent	Block1	congruent/STIM_004.jpg
666.896	0.441	correct	congruent	Block1	congruent/STIM_005.jpg
670.845	0.612	correct	congruent	Block1	congruent/STIM_005.jpg
673.536	0.646	correct	congruent	Block1	congruent/STIM_005.jpg
677.42	0.522	correct	congruent	Block1	congruent/STIM_005.jpg
680.812	0.711	correct	congruent	Block1	congruent/STIM_005.jpg
685.247	0.752	correct	congruent	Block1	congruent/STIM_006.jpg
689.069	0.778	correct	congruent	Block1	congruent/STIM_006.jpg
693.563	0.747	correct	congruent	Block1	congruent/STIM_006.jpg
696.421	0.609	correct	congruent	Block1	congruent/STIM_006.jpg
701.02	0.463	correct	congruent	Block1	congruent/STIM_006.jpg
703.86	0.472	correct	congruent	Block1	congruent/STIM_007.jpg
706.881	0.75	correct	congruent	Block1	congruent/STIM_007.jpg
711.3	0.465	correct	congruent	Block1	congruent/STIM_007.jpg
714.19	0.624	correct	congruent	Block1	congruent/STIM_007.jpg
717.314	0.606	correct	congruent	Block1	congruent/STIM_007.jpg
721.084	0.716	correct	congruent	Block1	congruent/STIM_008.jpg
724.844	0.741	correct	congruent	Block1	congruent/STIM_008.jpg
729.459	0.701	correct	congruent	Block1	congruent/STIM_008.jpg
733.654	0.515	correct	congruent	Block1	congruent/STIM_008.jpg
736.779	0.442	correct	congruent	Block1	congruent/STIM_008.jpg
740.41	0.529	correct	congruent	Block1	congruent/STIM_009.jpg
743.108	0.444	correct	congruent	Block1	congruent/STIM_009.jpg
746.319	0.752	correct	congruent	Block1	congruent/STIM_009.jpg
749.556	0.586	incorrect	congruent	Block1	congruent/STIM_009.jpg
752.218	0.756	correct	congruent	Block1	congruent/STIM_009.jpg
755.218	0.756	correct	congruent	Block1	congruent/STIM_010.jpg
758.879	0.74	correct	congruent	Block1	congruent/STIM_010.jpg
762.11	0.504	correct	congruent	Block1	congruent/STIM_010.jpg
766.172	0.478	correct	congruent	Block1	congruent/STIM_010.jpg
769.097	0.475	correct	congruent	Block1	congruent/STIM_010.jpg
772.709	0.669	correct	congruent	Block1	congruent/STIM_011.jpg
775.795	0.51	correct	congruent	Block1	congruent/STIM_011.jpg
779.148	0.6	correct	congruent	Block1	congruent/STIM_011.jpg
783.746	0.665	correct	congruent	Block1	congruent/STIM_011.jpg
786.6	0.49	correct	congruent	Block1	congruent/STIM_011.jpg
790.511	0.492	correct	congruent	Block1	congruent/STIM_012.jpg
793.545	0.541	correct	congruent	Block1	congruent/STIM_012.jpg
796.847	0.509	correct	congruent	Block1	congruent/STIM_012.jpg
800.002	0.695	correct	congruent	Block1	congruent/STIM_012.jpg
803.059	0.548	correct	congruent	Block1	congruent/STIM_012.jpg
805.619	0.743	correct	congruent	Block1	congruent/STIM_013.jpg
810.066	0.5	correct	congruent	Block1	congruent/STIM_013.jpg
812.88	0.607	correct	congruent	Block1	congruent/STIM_013.jpg
816.409	0.767	correct	congruent	Block1	congruent/STIM_013.jpg
820.59	0.729	correct	congruent	Block1	congruent/STIM_013.jpg
823.814	0.708	correct	congruent	Block1	congruent/STIM_014.jpg
827.267	0.534	correct	congruent	Block1	congruent/STIM_014.jpg
830.456	0.607	correct	congruent	Block1	congruent/STIM_014.jpg
833.806	0.724	correct	congruent	Block1	congruent/STIM_014.jpg
837.932	0.718	correct	congruent	Block1	congruent/STIM_014.jpg
841.349	0.575	correct	congruent	Block1	congruent/STIM_015.jpg
845.92	0.697	correct	congruent	Block1	congruent/STIM_015.jpg
848.917	0.577	correct	congruent	Block1	congruent/STIM_015.jpg
853.169	0.638	correct	congruent	Block1	congruent/STIM_015.jpg
855.953	0.622	correct	congruent	Block1	congruent/STIM_015.jpg
859.102	0.781	correct	congruent	Block1	congruent/STIM_016.jpg
862.163	0.565	correct	congruent	Block1	congruent/STIM_016.jpg
866.448	0.656	correct	congruent	Block1	congruent/STIM_016.jpg
870.448	0.518	correct	congruent	Block1	congruent/STIM_016.jpg
874.567	0.763	correct	congruent	Block1	congruent/STIM_016.jpg
878.18	0.539	correct	congruent	Block1	congruent/STIM_017.jpg
881.97	0.613	correct	congruent	Block1	congruent/STIM_017.jpg
885.55	0.721	correct	congruent	Block1	congruent/STIM_017.jpg
890.194	0.696	correct	congruent	Block1	congruent/STIM_017.jpg
894.298	0.702	correct	congruent	Block1	congruent/STIM_017.jpg
898.471	0.509	correct	congruent	Block1	congruent/STIM_018.jpg
901.941	0.583	correct	congruent	Block1	congruent/STIM_018.jpg
906.231	0.717	correct	congruent	Block1	congruent/STIM_018.jpg
909.6	0.66	correct	congruent	Block1	congruent/STIM_018.jpg
913.15	0.563	correct	congruent	Block1	congruent/STIM_018.jpg
916.841	0.64	correct	congruent	Block1	congruent/STIM_019.jpg
920.421	0.676	correct	congruent	Block1	congruent/STIM_019.jpg
924.016	0.607	correct	congruent	Block1	congruent/STIM_019.jpg
927.088	0.779	correct	congruent	Block1	congruent/STIM_019.jpg
931.657	0.497	correct	congruent	Block1	congruent/STIM_019.jpg
935.787	0.559	correct	congruent	Block1	congruent/STIM_020.jpg
938.479	0.494	correct	congruent	Block1	congruent/STIM_020.jpg
942.222	0.772	correct	congruent	Block1	congruent/STIM_020.jpg
946.957	0.74	correct	congruent	Block1	congruent/STIM_020.jpg
950.286	0.526	correct	congruent	Block1	congruent/STIM_020.jpg
954.305	0.6	correct	congruent	Block1	congruent/STIM_021.jpg
958.821	0.601	correct	congruent	Block1	congruent/STIM_021.jpg
963.385	0.571	correct	congruent	Block1	congruent/STIM_021.jpg
967.179	0.448	correct	congruent	Block1	congruent/STIM_021.jpg
971.555	0.635	correct	congruent	Block1	congruent/STIM_021.jpg
975.446	0.498	correct	congruent	Block1	congruent/STIM_022.jpg
978.648	0.638	correct	congruent	Block1	congruent/STIM_022.jpg
981.841	0.439	correct	congruent	Block1	congruent/STIM_022.jpg
986.27	0.703	correct	congruent	Block1	congruent/STIM_022.jpg
990.055	0.78	correct	congruent	Block1	congruent/STIM_022.jpg
993.544	0.536	incorrect	congruent	Block1	congruent/STIM_023.jpg
997.797	0.461	correct	congruent	Block1	congruent/STIM_023.jpg
1001.219	0.747	correct	congruent	Block1	congruent/STIM_023.jpg
1003.979	0.488	correct	congruent	Block1	congruent/STIM_023.jpg
1008.178	0.459	correct	congruent	Block1	congruent/STIM_023.jpg
1011.884	0.663	correct	congruent	Block1	congruent/STIM_024.jpg
1016.228	0.782	correct	congruent	Block1	congruent/STIM_024.jpg
1019.227	0.712	correct	congruent	Block1	congruent/STIM_024.jpg
1022.161	0.656	correct	congruent	Block1	congruent/STIM_024.jpg
1025.224	0.678	correct	congruent	Block1	congruent/STIM_024.jpg
1029.892	0.57	correct	congruent	Block1	congruent/STIM_025.jpg
1032.638	0.543	correct	congruent	Block1	congruent/STIM_025.jpg
1036.199	0.695	correct	congruent	Block1	congruent/STIM_025.jpg
1039.54	0.783	correct	congruent	Block1	congruent/STIM_025.jpg
1043.487	0.487	correct	congruent	Block1	congruent/STIM_025.jpg
1046.661	0.754	correct	congruent	Block1	congruent/STIM_026.jpg
1051.347	0.722	correct	congruent	Block1	congruent/STIM_026.jpg
1055.224	0.525	correct	congruent	Block1	congruent/STIM_026.jpg
1058.119	0.574	correct	congruent	Block1	congruent/STIM_026.jpg
1061.67	0.566	correct	congruent	Block1	congruent/STIM_026.jpg
1065.764	0.554	correct	congruent	Block1	congruent/STIM_027.jpg
1070.242	0.654	correct	congruent	Block1	congruent/STIM_027.jpg
1073.153	0.756	correct	congruent	Block1	congruent/STIM_027.jpg
1077.109	0.458	correct	congruent	Block1	congruent/STIM_027.jpg
1079.62	0.491	correct	congruent	Block1	congruent/STIM_027.jpg
1082.573	0.701	correct	congruent	Block1	congruent/STIM_028.jpg
1085.75	0.611	correct	congruent	Block1	congruent/STIM_028.jpg
1089.754	0.618	correct	congruent	Block1	congruent/STIM_028.jpg
1093.028	0.531	correct	congruent	Block1	congruent/STIM_028.jpg
1096.162	0.61	correct	congruent	Block1	congruent/STIM_028.jpg
1100.542	0.761	correct	congruent	Block1	congruent/STIM_029.jpg
1104.776	0.619	correct	congruent	Block1	congruent/STIM_029.jpg
1108.159	0.666	correct	congruent	Block1	congruent/STIM_029.jpg
1112.641	0.757	correct	congruent	Block1	congruent/STIM_029.jpg
1115.554	0.523	correct	congruent	Block1	congruent/STIM_029.jpg
1118.769	0.801	correct	incongruent	Block2	incongruent/STIM_000.jpg
1121.894	0.588	correct	incongruent	Block2	incongruent/STIM_000.jpg
1125.766	0.964	correct	incongruent	Block2	incongruent/STIM_000.jpg
1129.581	0.542	correct	incongruent	Block2	incongruent/STIM_000.jpg
1132.454	0.768	correct	incongruent	Block2	incongruent/STIM_000.jpg
1136.582	0.911	correct	incongruent	Block2	incongruent/STIM_001.jpg
1139.649	0.661	incorrect	incongruent	Block2	incongruent/STIM_001.jpg
1142.325	0.732	correct	incongruent	Block2	incongruent/STIM_001.jpg
1146.553	0.495	correct	incongruent	Block2	incongruent/STIM_001.jpg
1149.915	0.674	correct	incongruent	Block2	incongruent/STIM_001.jpg
1153.092	1.008	correct	incongruent	Block2	incongruent/STIM_002.jpg
1157.01	0.786	correct	incongruent	Block2	incongruent/STIM_002.jpg
1159.814	0.903	correct	incongruent	Block2	incongruent/STIM_002.jpg
1163.716	0.629	correct	incongruent	Block2	incongruent/STIM_002.jpg
1166.621	0.711	correct	incongruent	Block2	incongruent/STIM_002.jpg
1170.72	0.592	correct	incongruent	Block2	incongruent/STIM_003.jpg
1173.571	0.954	correct	incongruent	Block2	incongruent/STIM_003.jpg
1176.833	0.483	correct	incongruent	Block2	incongruent/STIM_003.jpg
1179.57	0.682	correct	incongruent	Block2	incongruent/STIM_003.jpg
1184.235	0.73	correct	incongruent	Block2	incongruent/STIM_003.jpg
1187.898	0.527	correct	incongruent	Block2	incongruent/STIM_004.jpg
1192.312	0.512	correct	incongruent	Block2	incongruent/STIM_004.jpg
1194.975	0.901	correct	incongruent	Block2	incongruent/STIM_004.jpg
1199.826	0.656	correct	incongruent	Block2	incongruent/STIM_004.jpg
1203.616	0.858	correct	incongruent	Block2	incongruent/STIM_004.jpg
1207.77	0.992	correct	incongruent	Block2	incongruent/STIM_005.jpg
1211.574	0.763	correct	incongruent	Block2	incongruent/STIM_005.jpg
1214.634	0.745	correct	incongruent	Block2	incongruent/STIM_005.jpg
1217.682	0.815	correct	incongruent	Block2	incongruent/STIM_005.jpg
1221.75	0.533	correct	incongruent	Block2	incongruent/STIM_005.jpg
1224.831	0.654	correct	incongruent	Block2	incongruent/STIM_006.jpg
1228.74	0.757	correct	incongruent	Block2	incongruent/STIM_006.jpg
1233.376	0.719	incorrect	incongruent	Block2	incongruent/STIM_006.jpg
1236.293	0.649	correct	incongruent	Block2	incongruent/STIM_006.jpg
1239.825	0.86	correct	incongruent	Block2	incongruent/STIM_006.jpg
1243.584	0.895	correct	incongruent	Block2	incongruent/STIM_007.jpg
1246.901	0.977	correct	incongruent	Block2	incongruent/STIM_007.jpg
1250.554	0.978	correct	incongruent	Block2	incongruent/STIM_007.jpg
1253.757	0.684	correct	incongruent	Block2	incongruent/STIM_007.jpg
1257.224	0.526	correct	incongruent	Block2	incongruent/STIM_007.jpg
1261.625	0.975	correct	incongruent	Block2	incongruent/STIM_008.jpg
1265.971	0.61	correct	incongruent	Block2	incongruent/STIM_008.jpg
1269.196	0.803	correct	incongruent	Block2	incongruent/STIM_008.jpg
1272.37	0.841	correct	incongruent	Block2	incongruent/STIM_008.jpg
1276.152	0.592	correct	incongruent	Block2	incongruent/STIM_008.jpg
1278.997	0.953	correct	incongruent	Block2	incongruent/STIM_009.jpg
1282.195	0.638	correct	incongruent	Block2	incongruent/STIM_009.jpg
1285.816	0.861	correct	incongruent	Block2	incongruent/STIM_009.jpg
1289.999	0.586	correct	incongruent	Block2	incongruent/STIM_009.jpg
1294.06	0.9	correct	incongruent	Block2	incongruent/STIM_009.jpg
1297.755	0.926	correct	incongruent	Block2	incongruent/STIM_010.jpg
1301.679	0.928	correct	incongruent	Block2	incongruent/STIM_010.jpg
1305.046	0.608	correct	incongruent	Block2	incongruent/STIM_010.jpg
1307.726	0.73	correct	incongruent	Block2	incongruent/STIM_010.jpg
1311.413	0.736	correct	incongruent	Block2	incongruent/STIM_010.jpg
1314.972	0.87	correct	incongruent	Block2	incongruent/STIM_011.jpg
1318.838	0.628	correct	incongruent	Block2	incongruent/STIM_011.jpg
1322.456	0.533	correct	incongruent	Block2	incongruent/STIM_011.jpg
1325.889	0.819	correct	incongruent	Block2	incongruent/STIM_011.jpg
1329.56	0.88	correct	incongruent	Block2	incongruent/STIM_011.jpg
1334.288	0.82	correct	incongruent	Block2	incongruent/STIM_012.jpg
1339.013	0.948	correct	incongruent	Block2	incongruent/STIM_012.jpg
1342.377	0.778	correct	incongruent	Block2	incongruent/STIM_012.jpg
1346.634	0.913	correct	incongruent	Block2	incongruent/STIM_012.jpg
1350.673	0.655	correct	incongruent	Block2	incongruent/STIM_012.jpg
1354.144	0.832	correct	incongruent	Block2	incongruent/STIM_013.jpg
1358.837	0.902	correct	incongruent	Block2	incongruent/STIM_013.jpg
1362.149	0.835	correct	incongruent	Block2	incongruent/STIM_013.jpg
1365.574	0.547	correct	incongruent	Block2	incongruent/STIM_013.jpg
1368.984	0.912	correct	incongruent	Block2	incongruent/STIM_013.jpg
1372.394	0.903	correct	incongruent	Block2	incongruent/STIM_014.jpg
1375.473	0.62	correct	incongruent	Block2	incongruent/STIM_014.jpg
1378.162	0.872	correct	incongruent	Block2	incongruent/STIM_014.jpg
1381.749	0.903	correct	incongruent	Block2	incongruent/STIM_014.jpg
1384.991	0.655	correct	incongruent	Block2	incongruent/STIM_014.jpg
1387.837	0.704	correct	incongruent	Block2	incongruent/STIM_015.jpg
1390.937	0.886	correct	incongruent	Block2	incongruent/STIM_015.jpg
1394.961	0.689	correct	incongruent	Block2	incongruent/STIM_015.jpg
1399.617	0.906	correct	incongruent	Block2	incongruent/STIM_015.jpg
1403.13	0.882	correct	incongruent	Block2	incongruent/STIM_015.jpg
1407.983	1.094	correct	incongruent	Block2	incongruent/STIM_016.jpg
1411.436	1.022	correct	incongruent	Block2	incongruent/STIM_016.jpg
1415.812	0.781	correct	incongruent	Block2	incongruent/STIM_016.jpg
1418.821	0.701	correct	incongruent	Block2	incongruent/STIM_016.jpg
1421.533	0.516	correct	incongruent	Block2	incongruent/STIM_016.jpg
1425.128	0.756	correct	incongruent	Block2	incongruent/STIM_017.jpg
1428.951	0.854	correct	incongruent	Block2	incongruent/STIM_017.jpg
1432.643	0.555	correct	incongruent	Block2	incongruent/STIM_017.jpg
1436.095	0.446	correct	incongruent	Block2	incongruent/STIM_017.jpg
1439.271	0.692	correct	incongruent	Block2	incongruent/STIM_017.jpg
1443.681	0.722	correct	incongruent	Block2	incongruent/STIM_018.jpg
1446.878	0.669	correct	incongruent	Block2	incongruent/STIM_018.jpg
1450.576	0.775	correct	incongruent	Block2	incongruent/STIM_018.jpg
1455.234	0.826	correct	incongruent	Block2	incongruent/STIM_018.jpg
1459.246	0.817	correct	incongruent	Block2	incongruent/STIM_018.jpg
1462.747	0.706	correct	incongruent	Block2	incongruent/STIM_019.jpg
1466.332	1.005	correct	incongruent	Block2	incongruent/STIM_019.jpg
1470.124	0.507	correct	incongruent	Block2	incongruent/STIM_019.jpg
1472.913	0.557	correct	incongruent	Block2	incongruent/STIM_019.jpg
1475.702	0.766	correct	incongruent	Block2	incongruent/STIM_019.jpg
1479.286	1.008	correct	incongruent	Block2	incongruent/STIM_020.jpg
1483.945	0.578	correct	incongruent	Block2	incongruent/STIM_020.jpg
1488.233	0.93	correct	incongruent	Block2	incongruent/STIM_020.jpg
1491.46	0.758	correct	incongruent	Block2	incongruent/STIM_020.jpg
1494.62	0.676	correct	incongruent	Block2	incongruent/STIM_020.jpg
1498.812	0.852	correct	incongruent	Block2	incongruent/STIM_021.jpg
1502.128	0.696	correct	incongruent	Block2	incongruent/STIM_021.jpg
1505.731	0.901	correct	incongruent	Block2	incongruent/STIM_021.jpg
1508.978	0.828	incorrect	incongruent	Block2	incongruent/STIM_021.jpg
1513.059	0.84	correct	incongruent	Block2	incongruent/STIM_021.jpg
1517.171	0.776	correct	incongruent	Block2	incongruent/STIM_022.jpg
1520.512	0.654	correct	incongruent	Block2	incongruent/STIM_022.jpg
1523.545	0.584	correct	incongruent	Block2	incongruent/STIM_022.jpg
1526.47	0.621	correct	incongruent	Block2	incongruent/STIM_022.jpg
1530.263	0.572	correct	incongruent	Block2	incongruent/STIM_022.jpg
1533.246	1.059	correct	incongruent	Block2	incongruent/STIM_023.jpg
1536.426	0.78	correct	incongruent	Block2	incongruent/STIM_023.jpg
1540.829	0.48	correct	incongruent	Block2	incongruent/STIM_023.jpg
1543.7	0.671	correct	incongruent	Block2	incongruent/STIM_023.jpg
1546.966	0.618	correct	incongruent	Block2	incongruent/STIM_023.jpg
1549.953	0.54	correct	incongruent	Block2	incongruent/STIM_024.jpg
1552.945	0.738	correct	incongruent	Block2	incongruent/STIM_024.jpg
1557.536	0.508	correct	incongruent	Block2	incongruent/STIM_024.jpg
1560.244	0.661	correct	incongruent	Block2	incongruent/STIM_024.jpg
1564.133	0.549	correct	incongruent	Block2	incongruent/STIM_024.jpg
1567.841	0.885	correct	incongruent	Block2	incongruent/STIM_025.jpg
1570.889	0.788	correct	incongruent	Block2	incongruent/STIM_025.jpg
1574.337	0.561	correct	incongruent	Block2	incongruent/STIM_025.jpg
1578.872	0.604	correct	incongruent	Block2	incongruent/STIM_025.jpg
1582.743	0.885	correct	incongruent	Block2	incongruent/STIM_025.jpg
1586.779	0.945	correct	incongruent	Block2	incongruent/STIM_026.jpg
1590.476	0.92	correct	incongruent	Block2	incongruent/STIM_026.jpg
1594.579	0.555	correct	incongruent	Block2	incongruent/STIM_026.jpg
1598.336	0.874	correct	incongruent	Block2	incongruent/STIM_026.jpg
1602.701	0.475	correct	incongruent	Block2	incongruent/STIM_026.jpg
1605.258	0.576	correct	incongruent	Block2	incongruent/STIM_027.jpg
1608.198	0.739	correct	incongruent	Block2	incongruent/STIM_027.jpg
1611.827	0.515	correct	incongruent	Block2	incongruent/STIM_027.jpg
1615.765	0.503	correct	incongruent	Block2	incongruent/STIM_027.jpg
1618.707	0.819	correct	incongruent	Block2	incongruent/STIM_027.jpg
1623.417	1.04	correct	incongruent	Block2	incongruent/STIM_028.jpg
1628.331	0.651	correct	incongruent	Block2	incongruent/STIM_028.jpg
1632.265	0.714	correct	incongruent	Block2	incongruent/STIM_028.jpg
1636.531	0.782	correct	incongruent	Block2	incongruent/STIM_028.jpg
1639.402	0.844	correct	incongruent	Block2	incongruent/STIM_028.jpg
1643.269	0.931	correct	incongruent	Block2	incongruent/STIM_029.jpg
1648.138	0.552	correct	incongruent	Block2	incongruent/STIM_029.jpg
1652.525	0.645	correct	incongruent	Block2	incongruent/STIM_029.jpg
1655.984	0.884	correct	incongruent	Block2	incongruent/STIM_029.jpg
1660.692	0.762	correct	incongruent	Block2	incongruent/STIM_029.jpg
1665.299	0.648	correct	congruent	Block2	congruent/STIM_000.jpg
1668.033	0.486	correct	congruent	Block2	congruent/STIM_000.jpg
1672.431	0.599	correct	congruent	Block2	congruent/STIM_000.jpg
1676.436	0.481	correct	congruent	Block2	congruent/STIM_000.jpg
1679.741	0.482	correct	congruent	Block2	congruent/STIM_000.jpg
1682.553	0.497	correct	congruent	Block2	congruent/STIM_001.jpg
1685.304	0.565	correct	congruent	Block2	congruent/STIM_001.jpg
1689.431	0.654	correct	congruent	Block2	congruent/STIM_001.jpg
1693.252	0.478	correct	congruent	Block2	congruent/STIM_001.jpg
1696.402	0.752	correct	congruent	Block2	congruent/STIM_001.jpg
1701.144	0.445	correct	congruent	Block2	congruent/STIM_002.jpg
1705.161	0.694	correct	congruent	Block2	congruent/STIM_002.jpg
1709.583	0.578	correct	congruent	Block2	congruent/STIM_002.jpg
1712.297	0.444	correct	congruent	Block2	congruent/STIM_002.jpg
1715.101	0.774	correct	congruent	Block2	congruent/STIM_002.jpg
1719.586	0.487	correct	congruent	Block2	congruent/STIM_003.jpg
1723.319	0.441	correct	congruent	Block2	congruent/STIM_003.jpg
1726.473	0.476	correct	congruent	Block2	congruent/STIM_003.jpg
1729.918	0.772	correct	congruent	Block2	congruent/STIM_003.jpg
1733.724	0.474	correct	congruent	Block2	congruent/STIM_003.jpg
1737.911	0.591	correct	congruent	Block2	congruent/STIM_004.jpg
1741.924	0.62	correct	congruent	Block2	congruent/STIM_004.jpg
1745.284	0.754	correct	congruent	Block2	congruent/STIM_004.jpg
1748.692	0.487	correct	congruent	Block2	congruent/STIM_004.jpg
1751.699	0.656	correct	congruent	Block2	congruent/STIM_004.jpg
1756.206	0.652	correct	congruent	Block2	congruent/STIM_005.jpg
1759.622	0.511	correct	congruent	Block2	congruent/STIM_005.jpg
1763.93	0.709	correct	congruent	Block2	congruent/STIM_005.jpg
1767.141	0.641	correct	congruent	Block2	congruent/STIM_005.jpg
1770.515	0.675	correct	congruent	Block2	congruent/STIM_005.jpg
1773.835	0.608	correct	congruent	Block2	congruent/STIM_006.jpg
1776.541	0.456	correct	congruent	Block2	congruent/STIM_006.jpg
1780.907	0.585	correct	congruent	Block2	congruent/STIM_006.jpg
1783.534	0.638	correct	congruent	Block2	congruent/STIM_006.jpg
1787.261	0.447	correct	congruent	Block2	congruent/STIM_006.jpg
1790.234	0.689	correct	congruent	Block2	congruent/STIM_007.jpg
1794.711	0.452	correct	congruent	Block2	congruent/STIM_007.jpg
1798.081	0.649	correct	congruent	Block2	congruent/STIM_007.jpg
1801.349	0.462	correct	congruent	Block2	congruent/STIM_007.jpg
1805.013	0.641	correct	congruent	Block2	congruent/STIM_007.jpg
1808.339	0.726	correct	congruent	Block2	congruent/STIM_008.jpg
1812.535	0.656	correct	congruent	Block2	congruent/STIM_008.jpg
1815.527	0.771	correct	congruent	Block2	congruent/STIM_008.jpg
1818.906	0.47	correct	congruent	Block2	congruent/STIM_008.jpg
1823.095	0.758	correct	congruent	Block2	congruent/STIM_008.jpg
1826.093	0.733	correct	congruent	Block2	congruent/STIM_009.jpg
1830.362	0.739	correct	congruent	Block2	congruent/STIM_009.jpg
1833.227	0.667	correct	congruent	Block2	congruent/STIM_009.jpg
1837.387	0.662	correct	congruent	Block2	congruent/STIM_009.jpg
1842.02	0.615	correct	congruent	Block2	congruent/STIM_009.jpg
1845.635	0.644	correct	congruent	Block2	congruent/STIM_010.jpg
1850.065	0.602	correct	congruent	Block2	congruent/STIM_010.jpg
1853.194	0.608	correct	congruent	Block2	congruent/STIM_010.jpg
1856.842	0.647	correct	congruent	Block2	congruent/STIM_010.jpg
1859.576	0.546	correct	congruent	Block2	congruent/STIM_010.jpg
1863.56	0.687	correct	congruent	Block2	congruent/STIM_011.jpg
1866.533	0.6	correct	congruent	Block2	congruent/STIM_011.jpg
1869.95	0.561	correct	congruent	Block2	congruent/STIM_011.jpg
1874.116	0.471	correct	congruent	Block2	congruent/STIM_011.jpg
1876.73	0.462	correct	congruent	Block2	congruent/STIM_011.jpg
1880.674	0.514	correct	congruent	Block2	congruent/STIM_012.jpg
1883.946	0.442	correct	congruent	Block2	congruent/STIM_012.jpg
1888.381	0.665	correct	congruent	Block2	congruent/STIM_012.jpg
1891.639	0.681	correct	congruent	Block2	congruent/STIM_012.jpg
1895.447	0.64	correct	congruent	Block2	congruent/STIM_012.jpg
1898.458	0.62	correct	congruent	Block2	congruent/STIM_013.jpg
1902.07	0.583	correct	congruent	Block2	congruent/STIM_013.jpg
1905.915	0.448	correct	congruent	Block2	congruent/STIM_013.jpg
1909.102	0.571	correct	congruent	Block2	congruent/STIM_013.jpg
1912.043	0.658	correct	congruent	Block2	congruent/STIM_013.jpg
1916.363	0.553	correct	congruent	Block2	congruent/STIM_014.jpg
1919.827	0.658	correct	congruent	Block2	congruent/STIM_014.jpg
1922.957	0.599	correct	congruent	Block2	congruent/STIM_014.jpg
1925.659	0.551	correct	congruent	Block2	congruent/STIM_014.jpg
1928.954	0.592	correct	congruent	Block2	congruent/STIM_014.jpg
1931.946	0.634	correct	congruent	Block2	congruent/STIM_015.jpg
1935.341	0.574	correct	congruent	Block2	congruent/STIM_015.jpg
1938.17	0.444	correct	congruent	Block2	congruent/STIM_015.jpg
1942.095	0.61	correct	congruent	Block2	congruent/STIM_015.jpg
1945.112	0.606	correct	congruent	Block2	congruent/STIM_015.jpg
1948.636	0.458	correct	congruent	Block2	congruent/STIM_016.jpg
1952.607	0.482	correct	congruent	Block2	congruent/STIM_016.jpg
1955.558	0.634	correct	congruent	Block2	congruent/STIM_016.jpg
1959.86	0.52	correct	congruent	Block2	congruent/STIM_016.jpg
1963.725	0.572	correct	congruent	Block2	congruent/STIM_016.jpg
1968.042	0.618	correct	congruent	Block2	congruent/STIM_017.jpg
1972.318	0.549	correct	congruent	Block2	congruent/STIM_017.jpg
1975.806	0.481	correct	congruent	Block2	congruent/STIM_017.jpg
1979.73	0.707	correct	congruent	Block2	congruent/STIM_017.jpg
1983.782	0.687	correct	congruent	Block2	congruent/STIM_017.jpg
1988.426	0.464	correct	congruent	Block2	congruent/STIM_018.jpg
1992.507	0.64	correct	congruent	Block2	congruent/STIM_018.jpg
1995.545	0.556	incorrect	congruent	Block2	congruent/STIM_018.jpg
2000.092	0.643	correct	congruent	Block2	congruent/STIM_018.jpg
2003.691	0.748	correct	congruent	Block2	congruent/STIM_018.jpg
2008.318	0.455	correct	congruent	Block2	congruent/STIM_019.jpg
2011.369	0.629	correct	congruent	Block2	congruent/STIM_019.jpg
2015.744	0.462	correct	congruent	Block2	congruent/STIM_019.jpg
2018.248	0.449	correct	congruent	Block2	congruent/STIM_019.jpg
2021.742	0.774	correct	congruent	Block2	congruent/STIM_019.jpg
2025.97	0.566	correct	congruent	Block2	congruent/STIM_020.jpg
2029.177	0.456	correct	congruent	Block2	congruent/STIM_020.jpg
2033.373	0.569	correct	congruent	Block2	congruent/STIM_020.jpg
2037.387	0.593	correct	congruent	Block2	congruent/STIM_020.jpg
2041.867	0.444	correct	congruent	Block2	congruent/STIM_020.jpg
2046.173	0.688	correct	congruent	Block2	congruent/STIM_021.jpg
2050.357	0.681	correct	congruent	Block2	congruent/STIM_021.jpg
2054.926	0.625	correct	congruent	Block2	congruent/STIM_021.jpg
2059.101	0.587	correct	congruent	Block2	congruent/STIM_021.jpg
2061.702	0.645	correct	congruent	Block2	congruent/STIM_021.jpg
2064.432	0.721	correct	congruent	Block2	congruent/STIM_022.jpg
2067.886	0.756	correct	congruent	Block2	congruent/STIM_022.jpg
2070.941	0.666	correct	congruent	Block2	congruent/STIM_022.jpg
2075.353	0.449	correct	congruent	Block2	congruent/STIM_022.jpg
2079.757	0.441	correct	congruent	Block2	congruent/STIM_022.jpg
2083.646	0.578	correct	congruent	Block2	congruent/STIM_023.jpg
2087.384	0.615	correct	congruent	Block2	congruent/STIM_023.jpg
2091.488	0.61	correct	congruent	Block2	congruent/STIM_023.jpg
2096.087	0.514	correct	congruent	Block2	congruent/STIM_023.jpg
2099.44	0.45	correct	congruent	Block2	congruent/STIM_023.jpg
2103.77	0.676	correct	congruent	Block2	congruent/STIM_024.jpg
2107.952	0.457	correct	congruent	Block2	congruent/STIM_024.jpg
2111.085	0.628	correct	congruent	Block2	congruent/STIM_024.jpg
2115.17	0.695	correct	congruent	Block2	congruent/STIM_024.jpg
2118.079	0.687	correct	congruent	Block2	congruent/STIM_024.jpg
2121.628	0.693	correct	congruent	Block2	congruent/STIM_025.jpg
2124.744	0.593	correct	congruent	Block2	congruent/STIM_025.jpg
2129.188	0.625	correct	congruent	Block2	congruent/STIM_025.jpg
2132.741	0.499	correct	congruent	Block2	congruent/STIM_025.jpg
2136.759	0.768	correct	congruent	Block2	congruent/STIM_025.jpg
2139.534	0.637	correct	congruent	Block2	congruent/STIM_026.jpg
2142.448	0.659	correct	congruent	Block2	congruent/STIM_026.jpg
2145.513	0.497	correct	congruent	Block2	congruent/STIM_026.jpg
2148.104	0.596	correct	congruent	Block2	congruent/STIM_026.jpg
2152.52	0.591	correct	congruent	Block2	congruent/STIM_026.jpg
2156.283	0.516	correct	congruent	Block2	congruent/STIM_027.jpg
2160.356	0.672	correct	congruent	Block2	congruent/STIM_027.jpg
2163.769	0.498	correct	congruent	Block2	congruent/STIM_027.jpg
2167.647	0.597	correct	congruent	Block2	congruent/STIM_027.jpg
2171.416	0.765	correct	congruent	Block2	congruent/STIM_027.jpg
2175.456	0.52	correct	congruent	Block2	congruent/STIM_028.jpg
2178.607	0.511	correct	congruent	Block2	congruent/STIM_028.jpg
2181.454	0.682	correct	congruent	Block2	congruent/STIM_028.jpg
2185.31	0.716	correct	congruent	Block2	congruent/STIM_028.jpg
2188.87	0.515	correct	congruent	Block2	congruent/STIM_028.jpg
2191.869	0.685	correct	congruent	Block2	congruent/STIM_029.jpg
2194.905	0.75	correct	congruent	Block2	congruent/STIM_029.jpg
2199.088	0.707	correct	congruent	Block2	congruent/STIM_029.jpg
2203.78	0.717	correct	congruent	Block2	congruent/STIM_029.jpg
2207.832	0.691	correct	congruent	Block2	congruent/STIM_029.jpg
2211.834	0.723	correct	incongruent	Block3	incongruent/STIM_000.jpg
2214.731	0.523	correct	incongruent	Block3	incongruent/STIM_000.jpg
2218.408	0.82	correct	incongruent	Block3	incongruent/STIM_000.jpg
2221.268	0.529	correct	incongruent	Block3	incongruent/STIM_000.jpg
2224.218	0.482	correct	incongruent	Block3	incongruent/STIM_000.jpg
2226.707	0.483	correct	incongruent	Block3	incongruent/STIM_001.jpg
2229.604	0.542	correct	incongruent	Block3	incongruent/STIM_001.jpg
2232.415	0.806	correct	incongruent	Block3	incongruent/STIM_001.jpg
2236.86	0.446	correct	incongruent	Block3	incongruent/STIM_001.jpg
2240.018	0.726	correct	incongruent	Block3	incongruent/STIM_001.jpg
2244.343	0.451	correct	incongruent	Block3	incongruent/STIM_002.jpg
2247.791	0.501	correct	incongruent	Block3	incongruent/STIM_002.jpg
2252.183	0.902	correct	incongruent	Block3	incongruent/STIM_002.jpg
2256.151	0.532	correct	incongruent	Block3	incongruent/STIM_002.jpg
2260.119	0.744	correct	incongruent	Block3	incongruent/STIM_002.jpg
2263.737	0.702	correct	incongruent	Block3	incongruent/STIM_003.jpg
2268.316	0.703	correct	incongruent	Block3	incongruent/STIM_003.jpg
2271.722	0.464	correct	incongruent	Block3	incongruent/STIM_003.jpg
2274.228	0.794	correct	incongruent	Block3	incongruent/STIM_003.jpg
2278.18	0.874	correct	incongruent	Block3	incongruent/STIM_003.jpg
2281.067	0.747	correct	incongruent	Block3	incongruent/STIM_004.jpg
2285.093	0.432	correct	incongruent	Block3	incongruent/STIM_004.jpg
2289.172	0.731	correct	incongruent	Block3	incongruent/STIM_004.jpg
2292.902	0.651	correct	incongruent	Block3	incongruent/STIM_004.jpg
2295.778	0.645	correct	incongruent	Block3	incongruent/STIM_004.jpg
2299.888	0.519	correct	incongruent	Block3	incongruent/STIM_005.jpg
2302.903	0.542	correct	incongruent	Block3	incongruent/STIM_005.jpg
2306.653	0.54	correct	incongruent	Block3	incongruent/STIM_005.jpg
2310.847	0.916	correct	incongruent	Block3	incongruent/STIM_005.jpg
2314.047	0.482	correct	incongruent	Block3	incongruent/STIM_005.jpg
2316.544	0.657	correct	incongruent	Block3	incongruent/STIM_006.jpg
2320.473	0.772	correct	incongruent	Block3	incongruent/STIM_006.jpg
2324.557	0.49	correct	incongruent	Block3	incongruent/STIM_006.jpg
2327.508	0.499	correct	incongruent	Block3	incongruent/STIM_006.jpg
2331.705	0.512	correct	incongruent	Block3	incongruent/STIM_006.jpg
2334.849	0.824	correct	incongruent	Block3	incongruent/STIM_007.jpg
2337.85	0.786	correct	incongruent	Block3	incongruent/STIM_007.jpg
2340.783	0.442	correct	incongruent	Block3	incongruent/STIM_007.jpg
2343.326	0.43	correct	incongruent	Block3	incongruent/STIM_007.jpg
2346.372	0.712	correct	incongruent	Block3	incongruent/STIM_007.jpg
2349.881	0.76	correct	incongruent	Block3	incongruent/STIM_008.jpg
2354.573	0.841	correct	incongruent	Block3	incongruent/STIM_008.jpg
2359.384	0.459	correct	incongruent	Block3	incongruent/STIM_008.jpg
2363.355	0.864	correct	incongruent	Block3	incongruent/STIM_008.jpg
2367.88	0.534	correct	incongruent	Block3	incongruent/STIM_008.jpg
2370.855	0.514	correct	incongruent	Block3	incongruent/STIM_009.jpg
2374.428	0.472	correct	incongruent	Block3	incongruent/STIM_009.jpg
2378.506	0.655	correct	incongruent	Block3	incongruent/STIM_009.jpg
2381.935	0.531	correct	incongruent	Block3	incongruent/STIM_009.jpg
2384.466	0.641	correct	incongruent	Block3	incongruent/STIM_009.jpg
2387.589	0.805	correct	incongruent	Block3	incongruent/STIM_010.jpg
2390.922	0.462	correct	incongruent	Block3	incongruent/STIM_010.jpg
2394.231	0.56	correct	incongruent	Block3	incongruent/STIM_010.jpg
2398.691	0.708	correct	incongruent	Block3	incongruent/STIM_010.jpg
2402.553	0.765	correct	incongruent	Block3	incongruent/STIM_010.jpg
2406.764	0.522	correct	incongruent	Block3	incongruent/STIM_011.jpg
2410.646	0.572	correct	incongruent	Block3	incongruent/STIM_011.jpg
2415.163	0.704	correct	incongruent	Block3	incongruent/STIM_011.jpg
2419.625	0.913	correct	incongruent	Block3	incongruent/STIM_011.jpg
2423.559	0.602	correct	incongruent	Block3	incongruent/STIM_011.jpg
2427.872	0.435	correct	incongruent	Block3	incongruent/STIM_012.jpg
2431.198	0.67	correct	incongruent	Block3	incongruent/STIM_012.jpg
2434.746	0.714	correct	incongruent	Block3	incongruent/STIM_012.jpg
2437.841	0.556	correct	incongruent	Block3	incongruent/STIM_012.jpg
2442.223	0.436	correct	incongruent	Block3	incongruent/STIM_012.jpg
2446.476	0.777	correct	incongruent	Block3	incongruent/STIM_013.jpg
2449.752	0.565	correct	incongruent	Block3	incongruent/STIM_013.jpg
2453.25	0.879	correct	incongruent	Block3	incongruent/STIM_013.jpg
2457.955	0.664	correct	incongruent	Block3	incongruent/STIM_013.jpg
2462.053	0.714	correct	incongruent	Block3	incongruent/STIM_013.jpg
2465.495	0.918	correct	incongruent	Block3	incongruent/STIM_014.jpg
2468.974	0.82	correct	incongruent	Block3	incongruent/STIM_014.jpg
2472.431	0.742	correct	incongruent	Block3	incongruent/STIM_014.jpg
2476.989	0.736	correct	incongruent	Block3	incongruent/STIM_014.jpg
2481.646	0.709	correct	incongruent	Block3	incongruent/STIM_014.jpg
2485.289	0.849	correct	incongruent	Block3	incongruent/STIM_015.jpg
2489.773	0.478	correct	incongruent	Block3	incongruent/STIM_015.jpg
2492.968	0.811	correct	incongruent	Block3	incongruent/STIM_015.jpg
2497.491	0.805	correct	incongruent	Block3	incongruent/STIM_015.jpg
2501.178	0.464	correct	incongruent	Block3	incongruent/STIM_015.jpg
2504.878	0.701	correct	incongruent	Block3	incongruent/STIM_016.jpg
2508.066	0.715	correct	incongruent	Block3	incongruent/STIM_016.jpg
2510.883	0.85	correct	incongruent	Block3	incongruent/STIM_016.jpg
2514.776	0.659	correct	incongruent	Block3	incongruent/STIM_016.jpg
2519.362	0.844	correct	incongruent	Block3	incongruent/STIM_016.jpg
2522.383	0.436	correct	incongruent	Block3	incongruent/STIM_017.jpg
2526.261	0.792	correct	incongruent	Block3	incongruent/STIM_017.jpg
2530.355	0.673	correct	incongruent	Block3	incongruent/STIM_017.jpg
2534.713	0.728	correct	incongruent	Block3	incongruent/STIM_017.jpg
2539.063	0.611	correct	incongruent	Block3	incongruent/STIM_017.jpg
2542.877	0.787	correct	incongruent	Block3	incongruent/STIM_018.jpg
2545.747	0.664	correct	incongruent	Block3	incongruent/STIM_018.jpg
2549.977	0.903	correct	incongruent	Block3	incongruent/STIM_018.jpg
2554.61	0.853	correct	incongruent	Block3	incongruent/STIM_018.jpg
2558.02	0.837	correct	incongruent	Block3	incongruent/STIM_018.jpg
2562.226	0.662	correct	incongruent	Block3	incongruent/STIM_019.jpg
2566.27	0.824	correct	incongruent	Block3	incongruent/STIM_019.jpg
2570.622	0.736	correct	incongruent	Block3	incongruent/STIM_019.jpg
2574.521	0.558	correct	incongruent	Block3	incongruent/STIM_019.jpg
2578.024	0.503	correct	incongruent	Block3	incongruent/STIM_019.jpg
2581.007	0.673	correct	incongruent	Block3	incongruent/STIM_020.jpg
2584.371	0.433	correct	incongruent	Block3	incongruent/STIM_020.jpg
2587.983	0.722	correct	incongruent	Block3	incongruent/STIM_020.jpg
2590.824	0.845	correct	incongruent	Block3	incongruent/STIM_020.jpg
2595.223	0.862	correct	incongruent	Block3	incongruent/STIM_020.jpg
2598.64	0.479	correct	incongruent	Block3	incongruent/STIM_021.jpg
2602.514	0.833	correct	incongruent	Block3	incongruent/STIM_021.jpg
2605.802	0.764	correct	incongruent	Block3	incongruent/STIM_021.jpg
2609.125	0.761	correct	incongruent	Block3	incongruent/STIM_021.jpg
2613.565	0.843	correct	incongruent	Block3	incongruent/STIM_021.jpg
2617.536	0.526	correct	incongruent	Block3	incongruent/STIM_022.jpg
2621.149	0.758	correct	incongruent	Block3	incongruent/STIM_022.jpg
2624.251	0.834	correct	incongruent	Block3	incongruent/STIM_022.jpg
2628.967	0.883	correct	incongruent	Block3	incongruent/STIM_022.jpg
2632.403	0.713	correct	incongruent	Block3	incongruent/STIM_022.jpg
2636.609	0.866	correct	incongruent	Block3	incongruent/STIM_023.jpg
2640.272	0.786	correct	incongruent	Block3	incongruent/STIM_023.jpg
2643.718	0.45	correct	incongruent	Block3	incongruent/STIM_023.jpg
2647.777	0.792	correct	incongruent	Block3	incongruent/STIM_023.jpg
2651.926	0.615	correct	incongruent	Block3	incongruent/STIM_023.jpg
2656.133	0.451	correct	incongruent	Block3	incongruent/STIM_024.jpg
2660.058	0.688	correct	incongruent	Block3	incongruent/STIM_024.jpg
2663.825	0.479	correct	incongruent	Block3	incongruent/STIM_024.jpg
2668.122	0.454	correct	incongruent	Block3	incongruent/STIM_024.jpg
2671.255	0.49	correct	incongruent	Block3	incongruent/STIM_024.jpg
2675.287	0.718	correct	incongruent	Block3	incongruent/STIM_025.jpg
2679.57	0.557	correct	incongruent	Block3	incongruent/STIM_025.jpg
2683.556	0.757	correct	incongruent	Block3	incongruent/STIM_025.jpg
2687.238	0.563	correct	incongruent	Block3	incongruent/STIM_025.jpg
2691.358	0.608	correct	incongruent	Block3	incongruent/STIM_025.jpg
2695.647	0.882	correct	incongruent	Block3	incongruent/STIM_026.jpg
2700.158	0.736	correct	incongruent	Block3	incongruent/STIM_026.jpg
2703.056	0.454	correct	incongruent	Block3	incongruent/STIM_026.jpg
2707.483	0.662	correct	incongruent	Block3	incongruent/STIM_026.jpg
2711.507	0.903	correct	incongruent	Block3	incongruent/STIM_026.jpg
2715.923	0.694	incorrect	incongruent	Block3	incongruent/STIM_027.jpg
2719.245	0.546	correct	incongruent	Block3	incongruent/STIM_027.jpg
2723.067	0.611	correct	incongruent	Block3	incongruent/STIM_027.jpg
2727.484	0.806	correct	incongruent	Block3	incongruent/STIM_027.jpg
2731.991	0.681	correct	incongruent	Block3	incongruent/STIM_027.jpg
2735.745	0.601	correct	incongruent	Block3	incongruent/STIM_028.jpg
2738.353	0.578	correct	incongruent	Block3	incongruent/STIM_028.jpg
2742.529	0.721	correct	incongruent	Block3	incongruent/STIM_028.jpg
2747.239	0.85	correct	incongruent	Block3	incongruent/STIM_028.jpg
2751.635	0.788	correct	incongruent	Block3	incongruent/STIM_028.jpg
2755.763	0.766	correct	incongruent	Block3	incongruent/STIM_029.jpg
2760.142	0.876	correct	incongruent	Block3	incongruent/STIM_029.jpg
2763.595	0.488	correct	incongruent	Block3	incongruent/STIM_029.jpg
2767.3	0.71	correct	incongruent	Block3	incongruent/STIM_029.jpg
2771.295	0.633	correct	incongruent	Block3	incongruent/STIM_029.jpg
2773.941	0.474	correct	congruent	Block3	congruent/STIM_000.jpg
2776.965	0.666	correct	congruent	Block3	congruent/STIM_000.jpg
2780.532	0.499	correct	congruent	Block3	congruent/STIM_000.jpg
2783.538	0.511	correct	congruent	Block3	congruent/STIM_000.jpg
2786.797	0.709	correct	congruent	Block3	congruent/STIM_000.jpg
2791.192	0.672	correct	congruent	Block3	congruent/STIM_001.jpg
2795.126	0.698	correct	congruent	Block3	congruent/STIM_001.jpg
2799.614	0.482	correct	congruent	Block3	congruent/STIM_001.jpg
2802.738	0.625	correct	congruent	Block3	congruent/STIM_001.jpg
2806.946	0.748	correct	congruent	Block3	congruent/STIM_001.jpg
2810.853	0.638	correct	congruent	Block3	congruent/STIM_002.jpg
2814.222	0.481	correct	congruent	Block3	congruent/STIM_002.jpg
2816.836	0.553	correct	congruent	Block3	congruent/STIM_002.jpg
2821.068	0.659	correct	congruent	Block3	congruent/STIM_002.jpg
2824.968	0.689	correct	congruent	Block3	congruent/STIM_002.jpg
2829.202	0.609	correct	congruent	Block3	congruent/STIM_003.jpg
2832.351	0.637	incorrect	congruent	Block3	congruent/STIM_003.jpg
2835.435	0.755	correct	congruent	Block3	congruent/STIM_003.jpg
2838.72	0.62	correct	congruent	Block3	congruent/STIM_003.jpg
2842.797	0.771	correct	congruent	Block3	congruent/STIM_003.jpg
2846.388	0.72	correct	congruent	Block3	congruent/STIM_004.jpg
2850.488	0.464	correct	congruent	Block3	congruent/STIM_004.jpg
2853.918	0.783	correct	congruent	Block3	congruent/STIM_004.jpg
2857.86	0.55	correct	congruent	Block3	congruent/STIM_004.jpg
2861.95	0.46	correct	congruent	Block3	congruent/STIM_004.jpg
2864.572	0.778	correct	congruent	Block3	congruent/STIM_005.jpg
2869.298	0.487	correct	congruent	Block3	congruent/STIM_005.jpg
2872.042	0.45	correct	congruent	Block3	congruent/STIM_005.jpg
2876.311	0.701	correct	congruent	Block3	congruent/STIM_005.jpg
2880.216	0.744	correct	congruent	Block3	congruent/STIM_005.jpg
2883.877	0.488	correct	congruent	Block3	congruent/STIM_006.jpg
2887.837	0.675	correct	congruent	Block3	congruent/STIM_006.jpg
2891.299	0.611	correct	congruent	Block3	congruent/STIM_006.jpg
2895.02	0.592	correct	congruent	Block3	congruent/STIM_006.jpg
2897.894	0.659	correct	congruent	Block3	congruent/STIM_006.jpg
2901.993	0.621	correct	congruent	Block3	congruent/STIM_007.jpg
2905.281	0.479	correct	congruent	Block3	congruent/STIM_007.jpg
2908.852	0.595	correct	congruent	Block3	congruent/STIM_007.jpg
2912.912	0.574	correct	congruent	Block3	congruent/STIM_007.jpg
2917.022	0.571	correct	congruent	Block3	congruent/STIM_007.jpg
2920.046	0.602	correct	congruent	Block3	congruent/STIM_008.jpg
2923.986	0.472	correct	congruent	Block3	congruent/STIM_008.jpg
2927.349	0.492	correct	congruent	Block3	congruent/STIM_008.jpg
2930.975	0.764	correct	congruent	Block3	congruent/STIM_008.jpg
2935.236	0.74	correct	congruent	Block3	congruent/STIM_008.jpg
2939.207	0.551	correct	congruent	Block3	congruent/STIM_009.jpg
2943.157	0.754	correct	congruent	Block3	congruent/STIM_009.jpg
2946.093	0.714	correct	congruent	Block3	congruent/STIM_009.jpg
2949.931	0.644	correct	congruent	Block3	congruent/STIM_009.jpg
2953.72	0.786	correct	congruent	Block3	congruent/STIM_009.jpg
2956.895	0.666	correct	congruent	Block3	congruent/STIM_010.jpg
2960.263	0.606	correct	congruent	Block3	congruent/STIM_010.jpg
2964.696	0.455	correct	congruent	Block3	congruent/STIM_010.jpg
2967.366	0.583	correct	congruent	Block3	congruent/STIM_010.jpg
2971.126	0.736	correct	congruent	Block3	congruent/STIM_010.jpg
2975.375	0.724	incorrect	congruent	Block3	congruent/STIM_011.jpg
2979.9	0.609	correct	congruent	Block3	congruent/STIM_011.jpg
2983.652	0.492	correct	congruent	Block3	congruent/STIM_011.jpg
2988.108	0.662	correct	congruent	Block3	congruent/STIM_011.jpg
2991.121	0.615	correct	congruent	Block3	congruent/STIM_011.jpg
2994.012	0.443	correct	congruent	Block3	congruent/STIM_012.jpg
2997.425	0.53	correct	congruent	Block3	congruent/STIM_012.jpg
3000.191	0.443	correct	congruent	Block3	congruent/STIM_012.jpg
3003.742	0.696	correct	congruent	Block3	congruent/STIM_012.jpg
3007.141	0.461	correct	congruent	Block3	congruent/STIM_012.jpg
3010.685	0.769	correct	congruent	Block3	congruent/STIM_013.jpg
3014.557	0.466	correct	congruent	Block3	congruent/STIM_013.jpg
3017.446	0.46	correct	congruent	Block3	congruent/STIM_013.jpg
3020.942	0.538	correct	congruent	Block3	congruent/STIM_013.jpg
3024.593	0.649	correct	congruent	Block3	congruent/STIM_013.jpg
3028.331	0.559	correct	congruent	Block3	congruent/STIM_014.jpg
3032.324	0.509	correct	congruent	Block3	congruent/STIM_014.jpg
3034.954	0.591	correct	congruent	Block3	congruent/STIM_014.jpg
3038.232	0.719	incorrect	congruent	Block3	congruent/STIM_014.jpg
3042.869	0.719	correct	congruent	Block3	congruent/STIM_014.jpg
3045.699	0.708	correct	congruent	Block3	congruent/STIM_015.jpg
3050.045	0.438	incorrect	congruent	Block3	congruent/STIM_015.jpg
3053.638	0.465	correct	congruent	Block3	congruent/STIM_015.jpg
3057.52	0.534	correct	congruent	Block3	congruent/STIM_015.jpg
3060.3	0.747	correct	congruent	Block3	congruent/STIM_015.jpg
3064.733	0.487	correct	congruent	Block3	congruent/STIM_016.jpg
3067.796	0.564	correct	congruent	Block3	congruent/STIM_016.jpg
3071.881	0.64	correct	congruent	Block3	congruent/STIM_016.jpg
3075.377	0.467	correct	congruent	Block3	congruent/STIM_016.jpg
3078.27	0.748	correct	congruent	Block3	congruent/STIM_016.jpg
3081.332	0.474	correct	congruent	Block3	congruent/STIM_017.jpg
3084.037	0.606	correct	congruent	Block3	congruent/STIM_017.jpg
3087.134	0.565	correct	congruent	Block3	congruent/STIM_017.jpg
3089.749	0.73	correct	congruent	Block3	congruent/STIM_017.jpg
3092.653	0.624	correct	congruent	Block3	congruent/STIM_017.jpg
3096.2	0.763	correct	congruent	Block3	congruent/STIM_018.jpg
3100.86	0.446	correct	congruent	Block3	congruent/STIM_018.jpg
3104.748	0.617	correct	congruent	Block3	congruent/STIM_018.jpg
3109.009	0.707	correct	congruent	Block3	congruent/STIM_018.jpg
3113.104	0.546	correct	congruent	Block3	congruent/STIM_018.jpg
3117.115	0.572	correct	congruent	Block3	congruent/STIM_019.jpg
3120.683	0.686	correct	congruent	Block3	congruent/STIM_019.jpg
3124.021	0.66	correct	congruent	Block3	congruent/STIM_019.jpg
3128.323	0.653	correct	congruent	Block3	congruent/STIM_019.jpg
3132.104	0.65	correct	congruent	Block3	congruent/STIM_019.jpg
3135.646	0.65	correct	congruent	Block3	congruent/STIM_020.jpg
3139.631	0.574	correct	congruent	Block3	congruent/STIM_020.jpg
3143.293	0.552	correct	congruent	Block3	congruent/STIM_020.jpg
3146.58	0.543	correct	congruent	Block3	congruent/STIM_020.jpg
3151.023	0.633	correct	congruent	Block3	congruent/STIM_020.jpg
3155.175	0.695	correct	congruent	Block3	congruent/STIM_021.jpg
3159.304	0.775	correct	congruent	Block3	congruent/STIM_021.jpg
3162.612	0.506	correct	congruent	Block3	congruent/STIM_021.jpg
3166.658	0.497	correct	congruent	Block3	congruent/STIM_021.jpg
3171.121	0.618	correct	congruent	Block3	congruent/STIM_021.jpg
3174.441	0.562	correct	congruent	Block3	congruent/STIM_022.jpg
3178.537	0.745	correct	congruent	Block3	congruent/STIM_022.jpg
3182.069	0.588	correct	congruent	Block3	congruent/STIM_022.jpg
3185.467	0.446	correct	congruent	Block3	congruent/STIM_022.jpg
3188.633	0.581	correct	congruent	Block3	congruent/STIM_022.jpg
3191.8	0.727	correct	congruent	Block3	congruent/STIM_023.jpg
3194.958	0.469	correct	congruent	Block3	congruent/STIM_023.jpg
3197.735	0.644	correct	congruent	Block3	congruent/STIM_023.jpg
3200.435	0.662	correct	congruent	Block3	congruent/STIM_023.jpg
3203.14	0.447	correct	congruent	Block3	congruent/STIM_023.jpg
3206.826	0.461	correct	congruent	Block3	congruent/STIM_024.jpg
3210.565	0.732	correct	congruent	Block3	congruent/STIM_024.jpg
3214.666	0.718	correct	congruent	Block3	congruent/STIM_024.jpg
3217.849	0.636	correct	congruent	Block3	congruent/STIM_024.jpg
3220.743	0.652	correct	congruent	Block3	congruent/STIM_024.jpg
3223.462	0.61	correct	congruent	Block3	congruent/STIM_025.jpg
3226.245	0.786	correct	congruent	Block3	congruent/STIM_025.jpg
3229.898	0.483	correct	congruent	Block3	congruent/STIM_025.jpg
3232.463	0.47	correct	congruent	Block3	congruent/STIM_025.jpg
3235.843	0.75	correct	congruent	Block3	congruent/STIM_025.jpg
3239.557	0.534	correct	congruent	Block3	congruent/STIM_026.jpg
3243.851	0.596	correct	congruent	Block3	congruent/STIM_026.jpg
3247.29	0.493	correct	congruent	Block3	congruent/STIM_026.jpg
3251.39	0.593	correct	congruent	Block3	congruent/STIM_026.jpg
3255.294	0.507	correct	congruent	Block3	congruent/STIM_026.jpg
3258.098	0.516	correct	congruent	Block3	congruent/STIM_027.jpg
3262.548	0.578	correct	congruent	Block3	congruent/STIM_027.jpg
3265.323	0.644	correct	congruent	Block3	congruent/STIM_027.jpg
3268.765	0.643	correct	congruent	Block3	congruent/STIM_027.jpg
3273.351	0.738	correct	congruent	Block3	congruent/STIM_027.jpg
3278.056	0.457	correct	congruent	Block3	congruent/STIM_028.jpg
3281.167	0.672	correct	congruent	Block3	congruent/STIM_028.jpg
3284.495	0.71	correct	congruent	Block3	congruent/STIM_028.jpg
3288.437	0.72	correct	congruent	Block3	congruent/STIM_028.jpg
3292.201	0.441	correct	congruent	Block3	congruent/STIM_028.jpg
3295.297	0.438	correct	congruent	Block3	congruent/STIM_029.jpg
3298.408	0.619	correct	congruent	Block3	congruent/STIM_029.jpg
3301.277	0.49	correct	congruent	Block3	congruent/STIM_029.jpg
3304.456	0.469	correct	congruent	Block3	congruent/STIM_029.jpg
3308.439	0.465	correct	congruent	Block3	congruent/STIM_029.jpg
