onset	duration	response_time_ms	trial_type	learning_stage	stimulus	response_port
0.0	1.839	1839.4	2back	Block1	2back/STIM_000.jpg	99
4.919	0.876	876.2	2back	Block1	2back/STIM_000.jpg	99
8.656	0.849	848.9	2back	Block1	2back/STIM_000.jpg	100
13.366	1.736	1736.5	2back	Block1	2back/STIM_001.jpg	100
18.883	0.94	939.5	2back	Block1	2back/STIM_001.jpg	100
23.105	1.089	1089.4	2back	Block1	2back/STIM_001.jpg	100
27.364	1.342	1342.3	2back	Block1	2back/STIM_002.jpg	100
32.687	1.14	1139.8	2back	Block1	2back/STIM_002.jpg	100
37.239	1.223	1223.3	2back	Block1	2back/STIM_002.jpg	100
40.62	1.368	1367.6	2back	Block1	2back/STIM_003.jpg	99
44.474	0.813	813.3	2back	Block1	2back/STIM_003.jpg	99
48.943	1.1	1100.0	2back	Block1	2back/STIM_003.jpg	100
52.584	0.835	834.6	2back	Block1	2back/STIM_004.jpg	100
57.295	1.499	1499.2	2back	Block1	2back/STIM_004.jpg	100
62.515	1.468	1467.9	2back	Block1	2back/STIM_004.jpg	99
67.018	1.609	1609.4	2back	Block1	2back/STIM_005.jpg	99
71.862	1.555	1555.3	2back	Block1	2back/STIM_005.jpg	99
76.443	1.186	1185.8	2back	Block1	2back/STIM_005.jpg	100
81.349	1.19	1190.0	2back	Block1	2back/STIM_006.jpg	99
85.324	1.779	1779.1	2back	Block1	2back/STIM_006.jpg	100
89.713	1.524	1523.5	2back	Block1	2back/STIM_006.jpg	99
94.051	1.016	1016.2	2back	Block1	2back/STIM_007.jpg	99
97.355	1.508	1508.2	2back	Block1	2back/STIM_007.jpg	99
101.853	0.755	755.3	2back	Block1	2back/STIM_007.jpg	99
106.277	1.496	1495.6	2back	Block1	2back/STIM_008.jpg	99
110.578	1.064	1063.6	2back	Block1	2back/STIM_008.jpg	100
114.009	1.4	1399.7	2back	Block1	2back/STIM_008.jpg	99
118.687	1.631	1631.2	2back	Block1	2back/STIM_009.jpg	100
123.267	1.338	1337.8	2back	Block1	2back/STIM_009.jpg	100
127.003	1.336	1336.0	2back	Block1	2back/STIM_009.jpg	100
131.744	1.467	1467.2	2back	Block1	2back/STIM_010.jpg	99
135.751	1.369	1369.1	2back	Block1	2back/STIM_010.jpg	99
140.756	1.396	1396.4	2back	Block1	2back/STIM_010.jpg	99
145.014	1.001	1000.6	2back	Block1	2back/STIM_011.jpg	99
148.695	1.093	1093.4	2back	Block1	2back/STIM_011.jpg	100
152.611	1.655	1655.1	2back	Block1	2back/STIM_011.jpg	99
156.977	1.141	1141.1	2back	Block1	2back/STIM_012.jpg	99
160.561	1.307	1306.7	2back	Block1	2back/STIM_012.jpg	100
165.723	0.826	826.1	2back	Block1	2back/STIM_012.jpg	100
169.248	0.952	951.9	2back	Block1	2back/STIM_013.jpg	99
174.15	0.972	971.5	2back	Block1	2back/STIM_013.jpg	100
177.844	1.648	1648.0	2back	Block1	2back/STIM_013.jpg	99
181.72	1.633	1633.2	2back	Block1	2back/STIM_014.jpg	99
187.145	1.518	1517.6	2back	Block1	2back/STIM_014.jpg	100
191.753	1.493	1493.4	2back	Block1	2back/STIM_014.jpg	100
195.553	1.222	1221.5	2back	Block1	2back/STIM_015.jpg	100
200.375	1.535	1535.3	2back	Block1	2back/STIM_015.jpg	99
203.955	0.96	959.9	2back	Block1	2back/STIM_015.jpg	99
207.419	0.857	857.4	2back	Block1	2back/STIM_016.jpg	99
211.082	1.326	1326.0	2back	Block1	2back/STIM_016.jpg	100
216.379	1.066	1066.1	2back	Block1	2back/STIM_016.jpg	99
220.427	1.394	1393.8	2back	Block1	2back/STIM_017.jpg	100
225.542	1.081	1080.6	2back	Block1	2back/STIM_017.jpg	100
230.282	1.551	1551.0	2back	Block1	2back/STIM_017.jpg	99
235.659	1.339	1338.9	2back	Block1	2back/STIM_018.jpg	100
239.714	1.355	1355.3	2back	Block1	2back/STIM_018.jpg	99
244.363	1.058	1058.4	2back	Block1	2back/STIM_018.jpg	100
248.329	1.284	1284.3	2back	Block1	2back/STIM_019.jpg	100
253.46	1.396	1395.6	2back	Block1	2back/STIM_019.jpg	100
258.776	1.676	1676.4	2back	Block1	2back/STIM_019.jpg	100
263.207	1.127	1127.0	2back	Block1	2back/STIM_020.jpg	99
268.078	1.805	1804.7	2back	Block1	2back/STIM_020.jpg	99
272.386	1.519	1519.3	2back	Block1	2back/STIM_020.jpg	100
277.759	1.58	1580.5	2back	Block1	2back/STIM_021.jpg	100
282.094	0.929	928.7	2back	Block1	2back/STIM_021.jpg	100
286.929	0.836	835.7	2back	Block1	2back/STIM_021.jpg	100
290.556	1.563	1563.0	2back	Block1	2back/STIM_022.jpg	100
295.49	1.077	1076.7	2back	Block1	2back/STIM_022.jpg	99
298.692	1.103	1102.6	2back	Block1	2back/STIM_022.jpg	99
302.638	1.338	1338.5	2back	Block1	2back/STIM_023.jpg	100
307.775	1.312	1312.5	2back	Block1	2back/STIM_023.jpg	100
311.883	1.035	1034.7	2back	Block1	2back/STIM_023.jpg	100
314.996	0.873	872.6	2back	Block1	2back/STIM_024.jpg	100
319.297	0.927	927.1	2back	Block1	2back/STIM_024.jpg	100
323.969	1.11	1109.7	2back	Block1	2back/STIM_024.jpg	99
329.054	1.25	1250.1	2back	Block1	2back/STIM_025.jpg	99
332.603	1.766	1766.4	2back	Block1	2back/STIM_025.jpg	99
336.511	1.374	1374.2	2back	Block1	2back/STIM_025.jpg	99
340.399	0.848	847.9	2back	Block1	2back/STIM_026.jpg	99
343.637	1.524	1523.6	2back	Block1	2back/STIM_026.jpg	100
348.974	1.435	1435.4	2back	Block1	2back/STIM_026.jpg	99
353.998	1.476	1476.0	2back	Block1	2back/STIM_027.jpg	100
357.5	1.376	1375.8	2back	Block1	2back/STIM_027.jpg	100
362.532	1.531	1530.9	2back	Block1	2back/STIM_027.jpg	100
367.415	1.032	1032.3	2back	Block1	2back/STIM_028.jpg	100
371.335	1.798	1798.0	2back	Block1	2back/STIM_028.jpg	99
376.329	0.994	994.5	2back	Block1	2back/STIM_028.jpg	100
380.418	1.655	1654.7	2back	Block1	2back/STIM_029.jpg	99
384.835	1.31	1310.5	2back	Block1	2back/STIM_029.jpg	99
390.139	0.846	846.5	2back	Block1	2back/STIM_029.jpg	99
393.547	1.5	1499.7	2back	Block1	2back/STIM_030.jpg	99
398.447	0.914	913.8	2back	Block1	2back/STIM_030.jpg	100
402.926	1.02	1020.5	2back	Block1	2back/STIM_030.jpg	100
406.676	1.432	1431.6	2back	Block1	2back/STIM_031.jpg	100
411.892	1.366	1365.9	2back	Block1	2back/STIM_031.jpg	99
415.95	1.281	1280.9	2back	Block1	2back/STIM_031.jpg	100
420.673	1.778	1777.7	2back	Block1	2back/STIM_032.jpg	99
424.51	1.158	1157.6	2back	Block1	2back/STIM_032.jpg	99
428.508	0.82	819.6	2back	Block1	2back/STIM_032.jpg	100
432.146	1.201	1200.6	2back	Block1	2back/STIM_033.jpg	99
436.262	1.552	1552.0	2back	Block1	2back/STIM_033.jpg	100
441.373	1.171	1170.8	2back	Block1	2back/STIM_033.jpg	99
446.134	1.213	1212.6	2back	Block1	2back/STIM_034.jpg	100
450.088	1.18	1180.5	2back	Block1	2back/STIM_034.jpg	99
454.347	0.956	956.5	2back	Block1	2back/STIM_034.jpg	100
457.773	1.474	1474.3	2back	Block1	2back/STIM_035.jpg	100
461.932	1.4	1400.0	2back	Block1	2back/STIM_035.jpg	99
465.834	1.668	1667.8	2back	Block1	2back/STIM_035.jpg	99
470.25	1.007	1007.3	2back	Block1	2back/STIM_036.jpg	99
473.599	0.853	852.6	2back	Block1	2back/STIM_036.jpg	99
476.707	1.363	1363.0	2back	Block1	2back/STIM_036.jpg	100
480.402	1.895	1894.6	2back	Block1	2back/STIM_037.jpg	99
485.999	1.764	1764.1	2back	Block1	2back/STIM_037.jpg	100
489.942	0.802	802.5	2back	Block1	2back/STIM_037.jpg	100
493.375	1.639	1639.0	2back	Block1	2back/STIM_038.jpg	99
497.929	1.538	1537.7	2back	Block1	2back/STIM_038.jpg	100
501.726	1.033	1032.6	2back	Block1	2back/STIM_038.jpg	100
506.039	1.059	1059.3	2back	Block1	2back/STIM_039.jpg	100
509.724	1.596	1596.2	2back	Block1	2back/STIM_039.jpg	99
515.254	0.736	736.1	2back	Block1	2back/STIM_039.jpg	100
518.484	0.611	611.4	0back	Block1	0back/STIM_000.jpg	99
522.691	0.908	907.8	0back	Block1	0back/STIM_000.jpg	99
526.209	1.076	1076.3	0back	Block1	0back/STIM_000.jpg	100
529.373	1.084	1083.7	0back	Block1	0back/STIM_001.jpg	99
533.903	0.847	847.0	0back	Block1	0back/STIM_001.jpg	100
536.897	0.806	806.1	0back	Block1	0back/STIM_001.jpg	100
539.896	0.854	854.2	0back	Block1	0back/STIM_002.jpg	99
543.999	0.694	694.2	0back	Block1	0back/STIM_002.jpg	99
548.413	1.064	1064.2	0back	Block1	0back/STIM_002.jpg	99
553.067	0.751	751.1	0back	Block1	0back/STIM_003.jpg	99
556.877	0.728	727.5	0back	Block1	0back/STIM_003.jpg	100
560.319	0.774	774.3	0back	Block1	0back/STIM_003.jpg	99
563.191	0.697	696.9	0back	Block1	0back/STIM_004.jpg	99
566.464	0.883	882.6	0back	Block1	0back/STIM_004.jpg	100
569.728	0.786	786.4	0back	Block1	0back/STIM_004.jpg	99
574.048	1.019	1018.6	0back	Block1	0back/STIM_005.jpg	99
578.447	0.665	665.4	0back	Block1	0back/STIM_005.jpg	100
581.673	0.741	741.1	0back	Block1	0back/STIM_005.jpg	100
585.049	1.087	1086.8	0back	Block1	0back/STIM_006.jpg	100
588.811	0.852	852.3	0back	Block1	0back/STIM_006.jpg	99
593.571	0.808	807.9	0back	Block1	0back/STIM_006.jpg	99
596.94	0.697	697.0	0back	Block1	0back/STIM_007.jpg	99
600.041	1.065	1065.4	0back	Block1	0back/STIM_007.jpg	100
604.307	0.804	804.0	0back	Block1	0back/STIM_007.jpg	99
607.988	0.88	880.2	0back	Block1	0back/STIM_008.jpg	99
612.347	0.666	665.8	0back	Block1	0back/STIM_008.jpg	99
616.611	0.65	650.1	0back	Block1	0back/STIM_008.jpg	100
620.962	0.856	855.8	0back	Block1	0back/STIM_009.jpg	99
623.826	0.988	988.4	0back	Block1	0back/STIM_009.jpg	100
628.371	0.692	692.4	0back	Block1	0back/STIM_009.jpg	100
631.636	0.685	685.4	0back	Block1	0back/STIM_010.jpg	100
635.821	1.036	1035.6	0back	Block1	0back/STIM_010.jpg	99
640.258	0.557	557.3	0back	Block1	0back/STIM_010.jpg	100
644.757	0.938	938.3	0back	Block1	0back/STIM_011.jpg	100
648.324	0.554	554.3	0back	Block1	0back/STIM_011.jpg	100
650.931	0.584	584.5	0back	Block1	0back/STIM_011.jpg	100
653.595	0.961	961.0	0back	Block1	0back/STIM_012.jpg	100
657.49	1.002	1002.3	0back	Block1	0back/STIM_012.jpg	100
661.746	0.966	965.6	0back	Block1	0back/STIM_012.jpg	100
665.498	0.611	610.6	0back	Block1	0back/STIM_013.jpg	99
669.146	0.776	776.5	0back	Block1	0back/STIM_013.jpg	99
673.827	0.781	780.6	0back	Block1	0back/STIM_013.jpg	99
677.153	0.889	889.4	0back	Block1	0back/STIM_014.jpg	100
681.913	0.728	727.8	0back	Block1	0back/STIM_014.jpg	99
685.917	0.653	653.2	0back	Block1	0back/STIM_014.jpg	100
689.757	0.773	772.6	0back	Block1	0back/STIM_015.jpg	100
694.46	0.94	940.5	0back	Block1	0back/STIM_015.jpg	99
697.485	0.802	802.4	0back	Block1	0back/STIM_015.jpg	100
700.721	0.615	614.9	0back	Block1	0back/STIM_016.jpg	100
704.99	0.989	989.3	0back	Block1	0back/STIM_016.jpg	100
708.679	0.713	712.9	0back	Block1	0back/STIM_016.jpg	99
713.248	0.591	591.4	0back	Block1	0back/STIM_017.jpg	100
717.513	0.554	553.7	0back	Block1	0back/STIM_017.jpg	99
721.69	0.732	731.6	0back	Block1	0back/STIM_017.jpg	99
725.569	0.852	851.9	0back	Block1	0back/STIM_018.jpg	100
729.192	0.995	995.4	0back	Block1	0back/STIM_018.jpg	100
732.668	0.616	616.4	0back	Block1	0back/STIM_018.jpg	99
735.406	1.008	1007.8	0back	Block1	0back/STIM_019.jpg	99
739.835	0.558	558.0	0back	Block1	0back/STIM_019.jpg	100
744.323	1.047	1047.4	0back	Block1	0back/STIM_019.jpg	99
749.152	1.05	1050.0	2back	Block2	2back/STIM_000.jpg	100
752.422	0.913	912.9	2back	Block2	2back/STIM_000.jpg	100
757.126	0.836	836.4	2back	Block2	2back/STIM_000.jpg	100
760.946	1.032	1031.8	2back	Block2	2back/STIM_001.jpg	99
765.002	1.375	1374.7	2back	Block2	2back/STIM_001.jpg	100
769.904	0.7	700.3	2back	Block2	2back/STIM_001.jpg	100
773.261	1.016	1015.9	2back	Block2	2back/STIM_002.jpg	100
776.606	1.016	1016.2	2back	Block2	2back/STIM_002.jpg	99
780.964	0.881	880.9	2back	Block2	2back/STIM_002.jpg	99
785.45	1.325	1325.0	2back	Block2	2back/STIM_003.jpg	99
788.833	1.13	1130.5	2back	Block2	2back/STIM_003.jpg	99
792.813	1.152	1152.5	2back	Block2	2back/STIM_003.jpg	99
796.632	1.498	1498.3	2back	Block2	2back/STIM_004.jpg	99
801.097	0.947	946.7	2back	Block2	2back/STIM_004.jpg	100
805.629	1.344	1343.8	2back	Block2	2back/STIM_004.jpg	100
810.521	1.246	1245.5	2back	Block2	2back/STIM_005.jpg	100
814.359	1.322	1322.1	2back	Block2	2back/STIM_005.jpg	99
819.617	1.235	1234.6	2back	Block2	2back/STIM_005.jpg	99
824.492	0.795	795.2	2back	Block2	2back/STIM_006.jpg	99
827.531	0.832	831.5	2back	Block2	2back/STIM_006.jpg	99
832.079	0.995	994.6	2back	Block2	2back/STIM_006.jpg	99
836.358	1.252	1251.7	2back	Block2	2back/STIM_007.jpg	100
840.777	1.094	1093.9	2back	Block2	2back/STIM_007.jpg	99
844.196	0.782	782.1	2back	Block2	2back/STIM_007.jpg	99
847.734	1.547	1547.4	2back	Block2	2back/STIM_008.jpg	99
852.209	1.176	1176.1	2back	Block2	2back/STIM_008.jpg	99
856.088	1.017	1017.4	2back	Block2	2back/STIM_008.jpg	100
859.283	1.083	1083.1	2back	Block2	2back/STIM_009.jpg	100
864.178	1.104	1103.9	2back	Block2	2back/STIM_009.jpg	100
867.971	0.873	873.0	2back	Block2	2back/STIM_009.jpg	99
871.676	1.596	1596.0	2back	Block2	2back/STIM_010.jpg	99
875.89	1.356	1356.2	2back	Block2	2back/STIM_010.jpg	99
879.512	1.123	1123.2	2back	Block2	2back/STIM_010.jpg	100
882.794	1.486	1486.4	2back	Block2	2back/STIM_011.jpg	99
887.318	1.401	1400.9	2back	Block2	2back/STIM_011.jpg	100
892.421	0.702	701.7	2back	Block2	2back/STIM_011.jpg	100
896.43	1.28	1280.4	2back	Block2	2back/STIM_012.jpg	99
900.988	1.283	1283.2	2back	Block2	2back/STIM_012.jpg	99
905.613	1.055	1054.9	2back	Block2	2back/STIM_012.jpg	100
909.572	1.165	1165.4	2back	Block2	2back/STIM_013.jpg	99
913.903	1.332	1331.8	2back	Block2	2back/STIM_013.jpg	99
917.486	1.299	1298.6	2back	Block2	2back/STIM_013.jpg	99
921.295	0.861	861.4	2back	Block2	2back/STIM_014.jpg	99
924.88	1.348	1347.5	2back	Block2	2back/STIM_014.jpg	100
929.795	0.927	927.3	2back	Block2	2back/STIM_014.jpg	99
932.916	1.382	1381.7	2back	Block2	2back/STIM_015.jpg	99
937.708	1.439	1439.3	2back	Block2	2back/STIM_015.jpg	100
942.616	0.721	720.9	2back	Block2	2back/STIM_015.jpg	99
945.431	0.767	767.1	2back	Block2	2back/STIM_016.jpg	100
949.51	1.245	1245.3	2back	Block2	2back/STIM_016.jpg	99
952.907	1.13	1129.7	2back	Block2	2back/STIM_016.jpg	100
956.349	1.116	1115.8	2back	Block2	2back/STIM_017.jpg	100
961.254	1.333	1332.6	2back	Block2	2back/STIM_017.jpg	99
964.649	1.134	1133.7	2back	Block2	2back/STIM_017.jpg	99
968.617	0.906	905.9	2back	Block2	2back/STIM_018.jpg	99
972.023	1.12	1120.5	2back	Block2	2back/STIM_018.jpg	99
975.622	1.032	1031.9	2back	Block2	2back/STIM_018.jpg	99
980.463	1.218	1218.4	2back	Block2	2back/STIM_019.jpg	99
983.791	0.964	964.1	2back	Block2	2back/STIM_019.jpg	99
987.283	1.41	1410.4	2back	Block2	2back/STIM_019.jpg	100
991.991	1.326	1326.3	2back	Block2	2back/STIM_020.jpg	99
996.329	1.419	1419.1	2back	Block2	2back/STIM_020.jpg	100
1000.377	0.929	928.9	2back	Block2	2back/STIM_020.jpg	99
1003.334	0.714	714.1	2back	Block2	2back/STIM_021.jpg	99
1006.178	1.19	1189.8	2back	Block2	2back/STIM_021.jpg	99
1010.549	1.097	1097.2	2back	Block2	2back/STIM_021.jpg	100
1013.932	1.226	1225.6	2back	Block2	2back/STIM_022.jpg	100
1017.672	0.731	730.9	2back	Block2	2back/STIM_022.jpg	100
1021.977	1.117	1116.6	2back	Block2	2back/STIM_022.jpg	100
1026.298	0.695	694.8	2back	Block2	2back/STIM_023.jpg	99
1030.055	1.088	1088.5	2back	Block2	2back/STIM_023.jpg	99
1033.607	0.638	638.2	2back	Block2	2back/STIM_023.jpg	100
1037.142	1.118	1117.6	2back	Block2	2back/STIM_024.jpg	99
1040.648	0.796	796.0	2back	Block2	2back/STIM_024.jpg	99
1044.388	1.034	1034.0	2back	Block2	2back/STIM_024.jpg	99
1048.18	1.508	1508.3	2back	Block2	2back/STIM_025.jpg	100
1051.798	1.517	1516.9	2back	Block2	2back/STIM_025.jpg	99
1056.316	0.874	873.8	2back	Block2	2back/STIM_025.jpg	99
1060.259	1.37	1369.7	2back	Block2	2back/STIM_026.jpg	100
1064.034	0.926	925.8	2back	Block2	2back/STIM_026.jpg	99
1067.634	0.707	707.2	2back	Block2	2back/STIM_026.jpg	99
1072.066	1.337	1337.3	2back	Block2	2back/STIM_027.jpg	99
1076.465	0.699	699.4	2back	Block2	2back/STIM_027.jpg	99
1079.726	0.639	639.1	2back	Block2	2back/STIM_027.jpg	99
1083.61	0.867	866.9	2back	Block2	2back/STIM_028.jpg	100
1087.446	1.164	1163.7	2back	Block2	2back/STIM_028.jpg	100
1092.378	1.378	1378.2	2back	Block2	2back/STIM_028.jpg	100
1096.212	1.614	1613.7	2back	Block2	2back/STIM_029.jpg	99
1101.574	1.496	1496.1	2back	Block2	2back/STIM_029.jpg	99
1105.936	1.367	1367.4	2back	Block2	2back/STIM_029.jpg	99
1110.434	0.849	849.0	2back	Block2	2back/STIM_030.jpg	99
1114.614	1.189	1188.8	2back	Block2	2back/STIM_030.jpg	99
1117.969	0.967	966.9	2back	Block2	2back/STIM_030.jpg	99
1121.906	1.112	1111.8	2back	Block2	2back/STIM_031.jpg	100
1126.04	1.383	1382.7	2back	Block2	2back/STIM_031.jpg	99
1129.687	0.767	767.0	2back	Block2	2back/STIM_031.jpg	100
1133.063	1.518	1517.6	2back	Block2	2back/STIM_032.jpg	100
1137.284	1.204	1203.5	2back	Block2	2back/STIM_032.jpg	99
1141.477	0.843	843.0	2back	Block2	2back/STIM_032.jpg	100
1144.388	0.73	730.0	2back	Block2	2back/STIM_033.jpg	100
1148.634	1.105	1104.8	2back	Block2	2back/STIM_033.jpg	99
1153.557	0.951	950.8	2back	Block2	2back/STIM_033.jpg	99
1157.71	1.444	1443.8	2back	Block2	2back/STIM_034.jpg	99
1161.209	1.146	1146.5	2back	Block2	2back/STIM_034.jpg	99
1166.004	0.854	854.0	2back	Block2	2back/STIM_034.jpg	99
1169.419	1.561	1560.6	2back	Block2	2back/STIM_035.jpg	100
1174.722	1.42	1420.1	2back	Block2	2back/STIM_035.jpg	99
1178.869	0.743	743.4	2back	Block2	2back/STIM_035.jpg	100
1182.545	1.388	1387.9	2back	Block2	2back/STIM_036.jpg	99
1186.252	1.307	1307.3	2back	Block2	2back/STIM_036.jpg	99
1189.797	0.815	815.3	2back	Block2	2back/STIM_036.jpg	99
1193.078	0.722	722.4	2back	Block2	2back/STIM_037.jpg	100
1196.467	1.21	1210.1	2back	Block2	2back/STIM_037.jpg	99
1201.285	0.831	831.0	2back	Block2	2back/STIM_037.jpg	99
1204.324	0.869	869.2	2back	Block2	2back/STIM_038.jpg	99
1207.209	1.499	1499.0	2back	Block2	2back/STIM_038.jpg	99
1211.256	0.866	865.5	2back	Block2	2back/STIM_038.jpg	99
1215.537	0.868	868.5	2back	Block2	2back/STIM_039.jpg	99
1218.973	1.412	1411.6	2back	Block2	2back/STIM_039.jpg	100
1223.39	0.998	997.8	2back	Block2	2back/STIM_039.jpg	100
1227.715	0.741	741.2	0back	Block2	0back/STIM_000.jpg	100
1230.935	0.564	563.6	0back	Block2	0back/STIM_000.jpg	100
1235.065	0.617	616.8	0back	Block2	0back/STIM_000.jpg	100
1239.165	0.881	880.9	0back	Block2	0back/STIM_001.jpg	99
1243.235	1.011	1011.4	0back	Block2	0back/STIM_001.jpg	99
1246.706	0.776	776.1	0back	Block2	0back/STIM_001.jpg	99
1249.707	0.872	872.0	0back	Block2	0back/STIM_002.jpg	99
1253.656	0.858	858.0	0back	Block2	0back/STIM_002.jpg	99
1256.863	0.672	672.3	0back	Block2	0back/STIM_002.jpg	100
1260.325	0.855	855.2	0back	Block2	0back/STIM_003.jpg	99
1264.21	1.048	1048.1	0back	Block2	0back/STIM_003.jpg	99
1268.525	0.732	731.6	0back	Block2	0back/STIM_003.jpg	99
1272.812	0.628	628.3	0back	Block2	0back/STIM_004.jpg	100
1276.561	0.675	674.7	0back	Block2	0back/STIM_004.jpg	100
1280.403	0.941	941.1	0back	Block2	0back/STIM_004.jpg	100
1283.989	0.826	826.1	0back	Block2	0back/STIM_005.jpg	100
1288.648	0.752	752.0	0back	Block2	0back/STIM_005.jpg	99
1292.73	0.944	944.3	0back	Block2	0back/STIM_005.jpg	99
1296.983	0.793	793.2	0back	Block2	0back/STIM_006.jpg	100
1301.316	0.713	712.7	0back	Block2	0back/STIM_006.jpg	100
1304.314	0.575	574.8	0back	Block2	0back/STIM_006.jpg	100
1307.186	0.658	658.2	0back	Block2	0back/STIM_007.jpg	100
1310.939	0.597	596.6	0back	Block2	0back/STIM_007.jpg	99
1313.843	0.859	858.8	0back	Block2	0back/STIM_007.jpg	100
1317.689	0.662	662.3	0back	Block2	0back/STIM_008.jpg	99
1321.228	0.858	858.4	0back	Block2	0back/STIM_008.jpg	100
1325.177	1.033	1032.6	0back	Block2	0back/STIM_008.jpg	100
1328.676	0.964	964.2	0back	Block2	0back/STIM_009.jpg	99
1331.8	0.89	890.4	0back	Block2	0back/STIM_009.jpg	99
1334.76	0.948	948.1	0back	Block2	0back/STIM_009.jpg	100
1338.269	0.959	959.3	0back	Block2	0back/STIM_010.jpg	100
1342.536	0.673	673.1	0back	Block2	0back/STIM_010.jpg	100
1346.172	0.874	874.3	0back	Block2	0back/STIM_010.jpg	100
1349.832	0.769	768.7	0back	Block2	0back/STIM_011.jpg	100
1353.71	0.745	745.4	0back	Block2	0back/STIM_011.jpg	99
1358.383	0.756	755.8	0back	Block2	0back/STIM_011.jpg	99
1362.137	0.57	570.0	0back	Block2	0back/STIM_012.jpg	99
1365.346	0.601	601.1	0back	Block2	0back/STIM_012.jpg	99
1369.001	0.615	615.3	0back	Block2	0back/STIM_012.jpg	100
1372.943	0.887	886.7	0back	Block2	0back/STIM_013.jpg	99
1377.567	1.064	1063.9	0back	Block2	0back/STIM_013.jpg	99
1382.137	0.898	897.8	0back	Block2	0back/STIM_013.jpg	100
1385.876	0.644	644.1	0back	Block2	0back/STIM_014.jpg	99
1390.355	0.558	558.3	0back	Block2	0back/STIM_014.jpg	100
1393.716	0.548	548.2	0back	Block2	0back/STIM_014.jpg	99
1396.91	0.929	928.8	0back	Block2	0back/STIM_015.jpg	100
1399.999	0.589	588.8	0back	Block2	0back/STIM_015.jpg	99
1402.742	0.621	621.3	0back	Block2	0back/STIM_015.jpg	100
1405.494	0.705	705.4	0back	Block2	0back/STIM_016.jpg	100
1410.181	1.012	1011.5	0back	Block2	0back/STIM_016.jpg	100
1414.057	0.639	639.1	0back	Block2	0back/STIM_016.jpg	100
1417.839	0.69	690.0	0back	Block2	0back/STIM_017.jpg	100
1420.562	0.86	860.3	0back	Block2	0back/STIM_017.jpg	100
1425.117	0.867	866.6	0back	Block2	0back/STIM_017.jpg	99
1429.032	0.597	596.8	0back	Block2	0back/STIM_018.jpg	100
1432.758	0.898	897.5	0back	Block2	0back/STIM_018.jpg	100
1437.417	0.811	810.7	0back	Block2	0back/STIM_018.jpg	100
1440.605	0.808	807.6	0back	Block2	0back/STIM_019.jpg	99
1444.982	0.872	872.0	0back	Block2	0back/STIM_019.jpg	99
1449.267	0.566	566.2	0back	Block2	0back/STIM_019.jpg	100
1452.56	0.869	869.1	2back	Block3	2back/STIM_000.jpg	99
1455.882	1.3	1299.9	2back	Block3	2back/STIM_000.jpg	100
1459.546	0.987	986.7	2back	Block3	2back/STIM_000.jpg	99
1464.257	0.837	836.6	2back	Block3	2back/STIM_001.jpg	100
1468.446	0.826	826.2	2back	Block3	2back/STIM_001.jpg	99
1472.657	0.757	757.2	2back	Block3	2back/STIM_001.jpg	100
1475.469	0.865	864.7	2back	Block3	2back/STIM_002.jpg	99
1478.793	0.668	667.9	2back	Block3	2back/STIM_002.jpg	100
1482.735	0.74	740.1	2back	Block3	2back/STIM_002.jpg	100
1486.602	1.309	1309.3	2back	Block3	2back/STIM_003.jpg	99
1489.964	1.099	1099.1	2back	Block3	2back/STIM_003.jpg	100
1494.008	1.074	1074.0	2back	Block3	2back/STIM_003.jpg	100
1498.359	0.602	602.2	2back	Block3	2back/STIM_004.jpg	99
1501.44	1.238	1237.9	2back	Block3	2back/STIM_004.jpg	100
1506.156	1.149	1148.7	2back	Block3	2back/STIM_004.jpg	100
1510.638	0.623	623.2	2back	Block3	2back/STIM_005.jpg	100
1514.139	0.984	984.2	2back	Block3	2back/STIM_005.jpg	100
1518.575	0.861	861.4	2back	Block3	2back/STIM_005.jpg	99
1523.43	0.82	819.9	2back	Block3	2back/STIM_006.jpg	100
1526.636	0.952	951.8	2back	Block3	2back/STIM_006.jpg	100
1530.377	1.058	1057.8	2back	Block3	2back/STIM_006.jpg	99
1534.752	0.973	972.6	2back	Block3	2back/STIM_007.jpg	99
1538.3	0.848	847.9	2back	Block3	2back/STIM_007.jpg	99
1543.117	0.909	909.3	2back	Block3	2back/STIM_007.jpg	99
1547.239	1.313	1313.1	2back	Block3	2back/STIM_008.jpg	100
1551.121	0.816	816.5	2back	Block3	2back/STIM_008.jpg	100
1555.365	1.088	1087.6	2back	Block3	2back/STIM_008.jpg	99
1559.17	0.746	745.9	2back	Block3	2back/STIM_009.jpg	100
1563.59	0.964	964.1	2back	Block3	2back/STIM_009.jpg	100
1567.056	0.605	604.9	2back	Block3	2back/STIM_009.jpg	99
1570.701	0.961	961.2	2back	Block3	2back/STIM_010.jpg	100
1574.569	0.666	666.1	2back	Block3	2back/STIM_010.jpg	99
1578.335	1.214	1214.2	2back	Block3	2back/STIM_010.jpg	99
1582.996	0.872	872.4	2back	Block3	2back/STIM_011.jpg	100
1585.996	0.645	644.7	2back	Block3	2back/STIM_011.jpg	99
1588.789	0.673	673.4	2back	Block3	2back/STIM_011.jpg	99
1591.688	0.906	906.3	2back	Block3	2back/STIM_012.jpg	99
1594.648	0.624	624.1	2back	Block3	2back/STIM_012.jpg	100
1597.801	1.047	1046.8	2back	Block3	2back/STIM_012.jpg	100
1601.384	1.263	1262.8	2back	Block3	2back/STIM_013.jpg	100
1606.515	0.644	643.7	2back	Block3	2back/STIM_013.jpg	100
1609.608	0.791	790.6	2back	Block3	2back/STIM_013.jpg	100
1612.769	0.857	856.9	2back	Block3	2back/STIM_014.jpg	100
1617.112	1.047	1046.6	2back	Block3	2back/STIM_014.jpg	99
1620.87	0.894	894.0	2back	Block3	2back/STIM_014.jpg	100
1624.673	1.144	1143.6	2back	Block3	2back/STIM_015.jpg	100
1628.646	0.676	676.3	2back	Block3	2back/STIM_015.jpg	100
1632.913	0.664	663.6	2back	Block3	2back/STIM_015.jpg	100
1636.071	1.157	1156.7	2back	Block3	2back/STIM_016.jpg	99
1639.667	1.068	1067.9	2back	Block3	2back/STIM_016.jpg	99
1643.999	0.596	596.4	2back	Block3	2back/STIM_016.jpg	100
1647.313	1.2	1200.2	2back	Block3	2back/STIM_017.jpg	100
1650.808	0.76	759.8	2back	Block3	2back/STIM_017.jpg	99
1654.927	0.572	572.2	2back	Block3	2back/STIM_017.jpg	100
1658.706	0.661	660.7	2back	Block3	2back/STIM_018.jpg	99
1662.017	0.863	863.4	2back	Block3	2back/STIM_018.jpg	99
1666.055	0.853	853.1	2back	Block3	2back/STIM_018.jpg	100
1670.291	1.135	1134.6	2back	Block3	2back/STIM_019.jpg	99
1674.182	0.575	574.8	2back	Block3	2back/STIM_019.jpg	100
1676.898	1.272	1272.4	2back	Block3	2back/STIM_019.jpg	100
1681.632	0.6	600.3	2back	Block3	2back/STIM_020.jpg	99
1685.532	0.84	840.0	2back	Block3	2back/STIM_020.jpg	100
1688.85	0.941	940.9	2back	Block3	2back/STIM_020.jpg	100
1693.419	0.845	844.7	2back	Block3	2back/STIM_021.jpg	100
1697.263	0.628	627.7	2back	Block3	2back/STIM_021.jpg	100
1700.523	1.13	1129.7	2back	Block3	2back/STIM_021.jpg	99
1704.12	0.906	906.5	2back	Block3	2back/STIM_022.jpg	99
1708.158	0.642	641.6	2back	Block3	2back/STIM_022.jpg	99
1712.661	0.674	674.2	2back	Block3	2back/STIM_022.jpg	99
1716.226	0.612	612.0	2back	Block3	2back/STIM_023.jpg	100
1720.08	0.915	915.4	2back	Block3	2back/STIM_023.jpg	100
1724.419	1.192	1192.0	2back	Block3	2back/STIM_023.jpg	99
1729.272	0.845	845.4	2back	Block3	2back/STIM_024.jpg	99
1733.257	1.202	1202.0	2back	Block3	2back/STIM_024.jpg	100
1737.543	1.138	1138.1	2back	Block3	2back/STIM_024.jpg	100
1740.975	1.039	1038.6	2back	Block3	2back/STIM_025.jpg	100
1745.643	1.012	1012.0	2back	Block3	2back/STIM_025.jpg	99
1750.385	0.968	967.5	2back	Block3	2back/STIM_025.jpg	99
1753.993	1.119	1118.6	2back	Block3	2back/STIM_026.jpg	99
1757.656	0.9	899.5	2back	Block3	2back/STIM_026.jpg	100
1760.634	1.165	1164.6	2back	Block3	2back/STIM_026.jpg	100
1764.001	0.674	674.0	2back	Block3	2back/STIM_027.jpg	99
1766.798	0.668	668.5	2back	Block3	2back/STIM_027.jpg	100
1771.219	1.026	1026.5	2back	Block3	2back/STIM_027.jpg	100
1774.4	1.3	1300.1	2back	Block3	2back/STIM_028.jpg	99
1777.855	1.235	1234.9	2back	Block3	2back/STIM_028.jpg	99
1781.237	1.3	1299.7	2back	Block3	2back/STIM_028.jpg	100
1785.011	1.002	1001.7	2back	Block3	2back/STIM_029.jpg	100
1788.505	1.09	1089.7	2back	Block3	2back/STIM_029.jpg	100
1793.001	0.603	602.8	2back	Block3	2back/STIM_029.jpg	100
1795.944	1.278	1278.4	2back	Block3	2back/STIM_030.jpg	100
1801.075	0.955	955.3	2back	Block3	2back/STIM_030.jpg	99
1804.123	0.868	868.2	2back	Block3	2back/STIM_030.jpg	100
1808.044	0.74	740.5	2back	Block3	2back/STIM_031.jpg	100
1812.104	1.013	1012.8	2back	Block3	2back/STIM_031.jpg	99
1815.246	0.578	578.0	2back	Block3	2back/STIM_031.jpg	99
1818.851	0.74	740.2	2back	Block3	2back/STIM_032.jpg	100
1821.808	1.272	1272.2	2back	Block3	2back/STIM_032.jpg	100
1825.246	1.322	1321.9	2back	Block3	2back/STIM_032.jpg	99
1829.713	0.657	656.9	2back	Block3	2back/STIM_033.jpg	100
1833.895	0.792	791.6	2back	Block3	2back/STIM_033.jpg	100
1837.524	1.051	1051.4	2back	Block3	2back/STIM_033.jpg	99
1841.078	1.286	1286.2	2back	Block3	2back/STIM_034.jpg	99
1845.508	0.577	577.3	2back	Block3	2back/STIM_034.jpg	99
1848.32	1.277	1276.8	2back	Block3	2back/STIM_034.jpg	100
1852.105	0.644	644.3	2back	Block3	2back/STIM_035.jpg	100
1855.58	1.259	1259.3	2back	Block3	2back/STIM_035.jpg	99
1859.993	1.271	1270.9	2back	Block3	2back/STIM_035.jpg	100
1865.142	0.854	853.7	2back	Block3	2back/STIM_036.jpg	100
1868.792	0.758	758.1	2back	Block3	2back/STIM_036.jpg	99
1873.227	1.084	1083.8	2back	Block3	2back/STIM_036.jpg	99
1877.968	0.615	615.0	2back	Block3	2back/STIM_037.jpg	99
1881.597	1.129	1128.7	2back	Block3	2back/STIM_037.jpg	100
1886.114	0.698	697.8	2back	Block3	2back/STIM_037.jpg	100
1890.56	0.681	680.6	2back	Block3	2back/STIM_038.jpg	99
1894.113	1.186	1185.5	2back	Block3	2back/STIM_038.jpg	100
1898.805	0.798	797.6	2back	Block3	2back/STIM_038.jpg	100
1902.874	0.978	977.9	2back	Block3	2back/STIM_039.jpg	99
1906.938	1.235	1235.1	2back	Block3	2back/STIM_039.jpg	100
1911.673	0.757	756.9	2back	Block3	2back/STIM_039.jpg	100
1915.53	0.627	626.8	0back	Block3	0back/STIM_000.jpg	100
1918.772	0.734	734.2	0back	Block3	0back/STIM_000.jpg	100
1921.761	0.59	590.0	0back	Block3	0back/STIM_000.jpg	100
1925.596	0.914	914.3	0back	Block3	0back/STIM_001.jpg	99
1930.507	1.044	1043.9	0back	Block3	0back/STIM_001.jpg	100
1934.814	1.083	1082.7	0back	Block3	0back/STIM_001.jpg	99
1939.012	1.047	1047.1	0back	Block3	0back/STIM_002.jpg	99
1943.901	0.85	850.0	0back	Block3	0back/STIM_002.jpg	100
1947.71	0.718	717.9	0back	Block3	0back/STIM_002.jpg	100
1951.555	0.669	669.3	0back	Block3	0back/STIM_003.jpg	99
1955.747	0.702	702.1	0back	Block3	0back/STIM_003.jpg	99
1959.793	0.895	894.8	0back	Block3	0back/STIM_003.jpg	100
1963.132	1.019	1019.1	0back	Block3	0back/STIM_004.jpg	99
1966.344	0.589	589.1	0back	Block3	0back/STIM_004.jpg	99
1970.404	0.635	635.3	0back	Block3	0back/STIM_004.jpg	99
1973.045	0.844	843.6	0back	Block3	0back/STIM_005.jpg	100
1976.887	0.911	911.1	0back	Block3	0back/STIM_005.jpg	100
1979.823	0.667	666.7	0back	Block3	0back/STIM_005.jpg	100
1984.371	0.693	692.6	0back	Block3	0back/STIM_006.jpg	100
1987.188	0.808	808.4	0back	Block3	0back/STIM_006.jpg	100
1991.538	0.941	941.3	0back	Block3	0back/STIM_006.jpg	100
1995.418	1.021	1021.0	0back	Block3	0back/STIM_007.jpg	100
1999.483	0.692	692.1	0back	Block3	0back/STIM_007.jpg	99
2003.368	0.698	698.2	0back	Block3	0back/STIM_007.jpg	99
2007.035	0.544	544.0	0back	Block3	0back/STIM_008.jpg	99
2010.798	0.709	708.9	0back	Block3	0back/STIM_008.jpg	100
2015.241	0.754	754.3	0back	Block3	0back/STIM_008.jpg	100
2018.414	0.662	662.1	0back	Block3	0back/STIM_009.jpg	99
2021.947	0.86	859.8	0back	Block3	0back/STIM_009.jpg	100
2026.318	0.593	593.4	0back	Block3	0back/STIM_009.jpg	99
2029.704	0.698	698.3	0back	Block3	0back/STIM_010.jpg	100
2032.843	0.77	769.6	0back	Block3	0back/STIM_010.jpg	99
2035.752	1.064	1063.9	0back	Block3	0back/STIM_010.jpg	100
2039.375	0.798	797.5	0back	Block3	0back/STIM_011.jpg	100
2043.162	0.957	957.2	0back	Block3	0back/STIM_011.jpg	100
2048.092	1.041	1040.9	0back	Block3	0back/STIM_011.jpg	99
2052.152	0.67	669.5	0back	Block3	0back/STIM_012.jpg	100
2055.786	0.925	925.1	0back	Block3	0back/STIM_012.jpg	99
2059.349	0.806	806.1	0back	Block3	0back/STIM_012.jpg	99
2063.37	0.592	591.5	0back	Block3	0back/STIM_013.jpg	99
2067.515	0.813	813.2	0back	Block3	0back/STIM_013.jpg	100
2072.297	0.549	549.4	0back	Block3	0back/STIM_013.jpg	100
2076.313	0.615	615.3	0back	Block3	0back/STIM_014.jpg	99
2080.48	0.739	739.2	0back	Block3	0back/STIM_014.jpg	100
2084.371	0.571	571.1	0back	Block3	0back/STIM_014.jpg	100
2088.614	0.953	953.1	0back	Block3	0back/STIM_015.jpg	100
2092.382	0.922	921.5	0back	Block3	0back/STIM_015.jpg	100
2096.704	1.0	999.6	0back	Block3	0back/STIM_015.jpg	99
2101.061	0.688	688.3	0back	Block3	0back/STIM_016.jpg	100
2104.024	0.995	994.6	0back	Block3	0back/STIM_016.jpg	99
2108.794	0.715	714.7	0back	Block3	0back/STIM_016.jpg	100
2113.143	0.71	709.6	0back	Block3	0back/STIM_017.jpg	100
2116.554	0.679	679.1	0back	Block3	0back/STIM_017.jpg	99
2120.403	0.58	579.8	0back	Block3	0back/STIM_017.jpg	100
2124.45	0.708	707.6	0back	Block3	0back/STIM_018.jpg	100
2128.833	0.853	853.1	0back	Block3	0back/STIM_018.jpg	99
2132.111	1.073	1073.1	0back	Block3	0back/STIM_018.jpg	99
2135.222	0.57	570.2	0back	Block3	0back/STIM_019.jpg	100
2138.862	0.951	951.4	0back	Block3	0back/STIM_019.jpg	100
2142.93	0.866	865.5	0back	Block3	0back/STIM_019.jpg	100
2147.269	1.153	1152.7	2back	Block4	2back/STIM_000.jpg	100
2151.33	0.882	881.7	2back	Block4	2back/STIM_000.jpg	99
2155.743	0.992	991.6	2back	Block4	2back/STIM_000.jpg	100
2158.877	0.65	650.1	2back	Block4	2back/STIM_001.jpg	100
2162.934	1.15	1149.5	2back	Block4	2back/STIM_001.jpg	100
2166.712	1.16	1160.1	2back	Block4	2back/STIM_001.jpg	100
2170.423	0.827	827.4	2back	Block4	2back/STIM_002.jpg	100
2174.921	0.984	983.5	2back	Block4	2back/STIM_002.jpg	100
2179.238	0.79	790.1	2back	Block4	2back/STIM_002.jpg	99
2182.379	0.781	780.8	2back	Block4	2back/STIM_003.jpg	100
2185.38	0.866	866.5	2back	Block4	2back/STIM_003.jpg	100
2188.66	0.7	700.2	2back	Block4	2back/STIM_003.jpg	100
2192.744	1.048	1047.6	2back	Block4	2back/STIM_004.jpg	100
2195.842	0.865	865.1	2back	Block4	2back/STIM_004.jpg	99
2199.478	0.695	694.8	2back	Block4	2back/STIM_004.jpg	100
2202.795	0.752	752.2	2back	Block4	2back/STIM_005.jpg	100
2207.002	1.086	1085.8	2back	Block4	2back/STIM_005.jpg	100
2211.6	0.771	771.0	2back	Block4	2back/STIM_005.jpg	100
2215.24	0.908	908.1	2back	Block4	2back/STIM_006.jpg	100
2219.596	0.883	882.9	2back	Block4	2back/STIM_006.jpg	100
2224.078	1.097	1097.3	2back	Block4	2back/STIM_006.jpg	99
2228.008	0.962	962.1	2back	Block4	2back/STIM_007.jpg	99
2231.625	1.039	1039.0	2back	Block4	2back/STIM_007.jpg	99
2235.188	0.628	627.6	2back	Block4	2back/STIM_007.jpg	100
2238.81	1.298	1298.1	2back	Block4	2back/STIM_008.jpg	100
2243.877	0.604	604.4	2back	Block4	2back/STIM_008.jpg	99
2246.927	1.001	1001.2	2back	Block4	2back/STIM_008.jpg	100
2250.501	1.077	1077.2	2back	Block4	2back/STIM_009.jpg	99
2255.363	0.663	662.7	2back	Block4	2back/STIM_009.jpg	100
2259.387	1.302	1301.6	2back	Block4	2back/STIM_009.jpg	99
2263.758	0.606	606.1	2back	Block4	2back/STIM_010.jpg	99
2267.081	1.036	1036.1	2back	Block4	2back/STIM_010.jpg	99
2271.867	1.132	1131.7	2back	Block4	2back/STIM_010.jpg	99
2275.876	0.757	757.2	2back	Block4	2back/STIM_011.jpg	99
2279.375	1.171	1170.8	2back	Block4	2back/STIM_011.jpg	99
2284.296	1.302	1302.3	2back	Block4	2back/STIM_011.jpg	100
2288.363	1.315	1315.4	2back	Block4	2back/STIM_012.jpg	99
2291.684	1.22	1219.7	2back	Block4	2back/STIM_012.jpg	99
2296.249	1.269	1269.4	2back	Block4	2back/STIM_012.jpg	99
2301.103	0.804	803.6	2back	Block4	2back/STIM_013.jpg	100
2305.76	0.675	674.6	2back	Block4	2back/STIM_013.jpg	100
2308.949	1.136	1135.8	2back	Block4	2back/STIM_013.jpg	99
2313.563	0.761	760.6	2back	Block4	2back/STIM_014.jpg	99
2317.787	0.958	957.8	2back	Block4	2back/STIM_014.jpg	99
2321.95	0.838	838.3	2back	Block4	2back/STIM_014.jpg	100
2326.703	0.742	742.0	2back	Block4	2back/STIM_015.jpg	99
2330.491	1.246	1246.0	2back	Block4	2back/STIM_015.jpg	99
2333.767	1.233	1233.3	2back	Block4	2back/STIM_015.jpg	99
2338.359	0.652	652.0	2back	Block4	2back/STIM_016.jpg	99
2341.749	0.684	684.3	2back	Block4	2back/STIM_016.jpg	99
2345.776	1.107	1107.2	2back	Block4	2back/STIM_016.jpg	100
2349.667	1.27	1269.8	2back	Block4	2back/STIM_017.jpg	99
2354.402	0.797	797.1	2back	Block4	2back/STIM_017.jpg	100
2357.486	1.257	1256.6	2back	Block4	2back/STIM_017.jpg	100
2360.798	0.642	641.8	2back	Block4	2back/STIM_018.jpg	99
2365.377	0.968	968.5	2back	Block4	2back/STIM_018.jpg	99
2369.313	0.658	658.3	2back	Block4	2back/STIM_018.jpg	100
2373.103	1.169	1168.9	2back	Block4	2back/STIM_019.jpg	99
2376.462	0.984	983.5	2back	Block4	2back/STIM_019.jpg	100
2381.408	0.981	981.2	2back	Block4	2back/STIM_019.jpg	100
2385.812	1.15	1149.5	2back	Block4	2back/STIM_020.jpg	99
2389.668	0.845	844.7	2back	Block4	2back/STIM_020.jpg	100
2393.118	0.845	845.0	2back	Block4	2back/STIM_020.jpg	100
2396.768	0.642	641.7	2back	Block4	2back/STIM_021.jpg	100
2401.188	1.03	1029.6	2back	Block4	2back/STIM_021.jpg	99
2404.539	1.261	1261.0	2back	Block4	2back/STIM_021.jpg	100
2408.365	0.887	887.3	2back	Block4	2back/STIM_022.jpg	99
2412.504	0.65	649.6	2back	Block4	2back/STIM_022.jpg	99
2415.298	0.723	723.4	2back	Block4	2back/STIM_022.jpg	99
2419.849	1.122	1121.9	2back	Block4	2back/STIM_023.jpg	100
2423.69	0.628	627.9	2back	Block4	2back/STIM_023.jpg	100
2427.805	0.673	672.7	2back	Block4	2back/STIM_023.jpg	99
2431.13	1.071	1071.2	2back	Block4	2back/STIM_024.jpg	100
2434.467	0.899	898.9	2back	Block4	2back/STIM_024.jpg	99
2438.162	0.764	763.6	2back	Block4	2back/STIM_024.jpg	99
2442.29	1.02	1019.6	2back	Block4	2back/STIM_025.jpg	99
2445.444	1.051	1050.9	2back	Block4	2back/STIM_025.jpg	99
2449.787	0.698	697.9	2back	Block4	2back/STIM_025.jpg	99
2453.188	0.696	696.3	2back	Block4	2back/STIM_026.jpg	99
2456.32	0.797	797.3	2back	Block4	2back/STIM_026.jpg	100
2461.03	0.919	919.1	2back	Block4	2back/STIM_026.jpg	99
2465.147	1.107	1106.6	2back	Block4	2back/STIM_027.jpg	100
2469.602	0.904	903.7	2back	Block4	2back/STIM_027.jpg	100
2473.354	1.082	1082.2	2back	Block4	2back/STIM_027.jpg	99
2477.128	0.812	812.1	2back	Block4	2back/STIM_028.jpg	99
2480.925	1.263	1263.3	2back	Block4	2back/STIM_028.jpg	99
2484.398	0.936	935.6	2back	Block4	2back/STIM_028.jpg	100
2489.146	0.7	700.4	2back	Block4	2back/STIM_029.jpg	100
2493.806	1.077	1077.2	2back	Block4	2back/STIM_029.jpg	100
2497.892	1.325	1325.0	2back	Block4	2back/STIM_029.jpg	99
2502.733	0.612	612.5	2back	Block4	2back/STIM_030.jpg	100
2507.104	0.742	741.6	2back	Block4	2back/STIM_030.jpg	100
2510.458	0.799	799.0	2back	Block4	2back/STIM_030.jpg	99
2513.686	1.258	1257.7	2back	Block4	2back/STIM_031.jpg	99
2517.403	1.298	1298.3	2back	Block4	2back/STIM_031.jpg	99
2522.353	1.053	1052.6	2back	Block4	2back/STIM_031.jpg	99
2525.541	1.231	1230.8	2back	Block4	2back/STIM_032.jpg	100
2529.573	0.8	799.9	2back	Block4	2back/STIM_032.jpg	99
2532.825	0.91	910.5	2back	Block4	2back/STIM_032.jpg	99
2537.037	0.753	752.8	2back	Block4	2back/STIM_033.jpg	99
2541.334	0.692	692.5	2back	Block4	2back/STIM_033.jpg	100
2544.733	0.876	876.1	2back	Block4	2back/STIM_033.jpg	100
2549.156	0.995	994.6	2back	Block4	2back/STIM_034.jpg	100
2552.894	0.851	851.2	2back	Block4	2back/STIM_034.jpg	100
2557.04	0.647	646.7	2back	Block4	2back/STIM_034.jpg	99
2559.841	1.283	1283.4	2back	Block4	2back/STIM_035.jpg	100
2564.802	0.898	898.4	2back	Block4	2back/STIM_035.jpg	99
2567.899	1.221	1220.6	2back	Block4	2back/STIM_035.jpg	100
2572.24	1.216	1216.0	2back	Block4	2back/STIM_036.jpg	100
2577.064	1.139	1139.0	2back	Block4	2back/STIM_036.jpg	99
2580.56	0.878	877.5	2back	Block4	2back/STIM_036.jpg	100
2585.43	1.155	1154.8	2back	Block4	2back/STIM_037.jpg	100
2589.597	0.901	900.7	2back	Block4	2back/STIM_037.jpg	100
2594.387	1.216	1216.4	2back	Block4	2back/STIM_037.jpg	100
2598.985	0.954	953.9	2back	Block4	2back/STIM_038.jpg	99
2603.33	1.136	1136.5	2back	Block4	2back/STIM_038.jpg	99
2607.872	0.607	606.7	2back	Block4	2back/STIM_038.jpg	99
2611.498	0.696	696.4	2back	Block4	2back/STIM_039.jpg	99
2614.231	1.294	1294.0	2back	Block4	2back/STIM_039.jpg	100
2619.151	0.791	790.7	2back	Block4	2back/STIM_039.jpg	100
2622.636	1.053	1053.1	0back	Block4	0back/STIM_000.jpg	100
2626.375	0.76	759.7	0back	Block4	0back/STIM_000.jpg	100
2631.004	1.01	1010.3	0back	Block4	0back/STIM_000.jpg	99
2635.983	1.03	1029.9	0back	Block4	0back/STIM_001.jpg	100
2640.33	0.746	746.5	0back	Block4	0back/STIM_001.jpg	99
2644.665	0.832	832.3	0back	Block4	0back/STIM_001.jpg	99
2648.957	0.58	579.8	0back	Block4	0back/STIM_002.jpg	99
2653.166	0.846	846.2	0back	Block4	0back/STIM_002.jpg	100
2657.854	0.952	952.5	0back	Block4	0back/STIM_002.jpg	100
2662.608	1.086	1085.7	0back	Block4	0back/STIM_003.jpg	99
2667.323	1.037	1036.7	0back	Block4	0back/STIM_003.jpg	100
2671.56	0.972	972.2	0back	Block4	0back/STIM_003.jpg	100
2676.229	0.722	721.6	0back	Block4	0back/STIM_004.jpg	100
2679.909	0.828	828.5	0back	Block4	0back/STIM_004.jpg	100
2683.903	0.596	596.0	0back	Block4	0back/STIM_004.jpg	100
2686.535	0.806	806.3	0back	Block4	0back/STIM_005.jpg	99
2689.726	1.033	1033.4	0back	Block4	0back/STIM_005.jpg	99
2693.18	1.08	1079.9	0back	Block4	0back/STIM_005.jpg	99
2697.371	0.994	993.6	0back	Block4	0back/STIM_006.jpg	99
2700.667	0.636	635.9	0back	Block4	0back/STIM_006.jpg	100
2703.537	1.078	1078.5	0back	Block4	0back/STIM_006.jpg	99
2707.042	0.756	755.9	0back	Block4	0back/STIM_007.jpg	99
2710.536	0.837	836.7	0back	Block4	0back/STIM_007.jpg	99
2713.692	0.643	642.6	0back	Block4	0back/STIM_007.jpg	99
2717.86	0.912	912.0	0back	Block4	0back/STIM_008.jpg	99
2722.144	1.054	1053.7	0back	Block4	0back/STIM_008.jpg	100
2726.054	0.552	552.3	0back	Block4	0back/STIM_008.jpg	100
2728.95	0.597	596.9	0back	Block4	0back/STIM_009.jpg	100
2732.508	0.64	640.0	0back	Block4	0back/STIM_009.jpg	99
2736.397	1.066	1066.5	0back	Block4	0back/STIM_009.jpg	99
2740.983	0.627	626.8	0back	Block4	0back/STIM_010.jpg	99
2744.059	1.06	1060.2	0back	Block4	0back/STIM_010.jpg	100
2747.327	0.892	891.6	0back	Block4	0back/STIM_010.jpg	99
2751.098	0.943	943.4	0back	Block4	0back/STIM_011.jpg	99
2754.523	0.627	626.7	0back	Block4	0back/STIM_011.jpg	100
2758.548	0.763	762.7	0back	Block4	0back/STIM_011.jpg	100
2762.265	0.809	809.4	0back	Block4	0back/STIM_012.jpg	100
2766.693	0.567	567.1	0back	Block4	0back/STIM_012.jpg	99
2771.155	0.95	950.3	0back	Block4	0back/STIM_012.jpg	99
2776.036	1.025	1025.0	0back	Block4	0back/STIM_013.jpg	100
2780.461	1.033	1032.9	0back	Block4	0back/STIM_013.jpg	99
2783.8	0.669	669.1	0back	Block4	0back/STIM_013.jpg	100
2787.414	0.731	731.2	0back	Block4	0back/STIM_014.jpg	100
2790.588	0.812	811.6	0back	Block4	0back/STIM_014.jpg	99
2794.601	0.673	672.8	0back	Block4	0back/STIM_014.jpg	99
2797.333	0.941	940.7	0back	Block4	0back/STIM_015.jpg	99
2801.256	0.948	948.1	0back	Block4	0back/STIM_015.jpg	100
2804.498	0.957	956.8	0back	Block4	0back/STIM_015.jpg	99
2807.486	1.008	1008.1	0back	Block4	0back/STIM_016.jpg	100
2812.434	0.792	791.5	0back	Block4	0back/STIM_016.jpg	99
2816.049	0.983	983.4	0back	Block4	0back/STIM_016.jpg	100
2820.832	1.036	1035.8	0back	Block4	0back/STIM_017.jpg	100
2825.586	0.669	668.6	0back	Block4	0back/STIM_017.jpg	100
2830.089	0.905	904.7	0back	Block4	0back/STIM_017.jpg	99
2833.494	0.545	544.8	0back	Block4	0back/STIM_018.jpg	100
2837.564	0.917	917.4	0back	Block4	0back/STIM_018.jpg	99
2841.496	0.814	814.3	0back	Block4	0back/STIM_018.jpg	100
2846.128	0.674	674.3	0back	Block4	0back/STIM_019.jpg	99
2848.811	1.082	1082.2	0back	Block4	0back/STIM_019.jpg	99
2852.653	0.774	774.1	0back	Block4	0back/STIM_019.jpg	100
