onset	duration	accuracy	trial_type	learning_stage	stimulus
0.0	1.251	correct	generate	Run1	generate/STIM_000.jpg
4.423	1.892	correct	generate	Run1	generate/STIM_000.jpg
9.267	1.099	incorrect	generate	Run1	generate/STIM_000.jpg
12.753	1.527	correct	generate	Run1	generate/STIM_000.jpg
18.224	1.821	correct	generate	Run1	generate/STIM_000.jpg
22.997	1.429	incorrect	generate	Run1	generate/STIM_001.jpg
26.906	1.414	correct	generate	Run1	generate/STIM_001.jpg
32.376	1.615	correct	generate	Run1	generate/STIM_001.jpg
38.13	1.732	incorrect	generate	Run1	generate/STIM_001.jpg
42.805	1.016	correct	generate	Run1	generate/STIM_001.jpg
46.849	2.261	incorrect	generate	Run1	generate/STIM_002.jpg
52.573	1.488	correct	generate	Run1	generate/STIM_002.jpg
58.022	1.809	correct	generate	Run1	generate/STIM_002.jpg
63.802	2.025	correct	generate	Run1	generate/STIM_002.jpg
68.157	1.932	correct	generate	Run1	generate/STIM_002.jpg
73.986	1.102	correct	generate	Run1	generate/STIM_003.jpg
77.554	1.179	correct	generate	Run1	generate/STIM_003.jpg
81.506	1.693	correct	generate	Run1	generate/STIM_003.jpg
85.954	1.919	correct	generate	Run1	generate/STIM_003.jpg
90.816	0.929	correct	generate	Run1	generate/STIM_003.jpg
94.333	1.204	correct	generate	Run1	generate/STIM_004.jpg
98.933	2.479	incorrect	generate	Run1	generate/STIM_004.jpg
104.919	2.324	correct	generate	Run1	generate/STIM_004.jpg
110.309	1.273	correct	generate	Run1	generate/STIM_004.jpg
113.813	1.368	correct	generate	Run1	generate/STIM_004.jpg
118.814	1.846	correct	generate	Run1	generate/STIM_005.jpg
122.941	2.322	correct	generate	Run1	generate/STIM_005.jpg
127.899	1.293	correct	generate	Run1	generate/STIM_005.jpg
131.421	1.824	correct	generate	Run1	generate/STIM_005.jpg
135.999	1.049	correct	generate	Run1	generate/STIM_005.jpg
140.493	1.865	correct	generate	Run1	generate/STIM_006.jpg
146.28	2.131	correct	generate	Run1	generate/STIM_006.jpg
150.893	1.267	correct	generate	Run1	generate/STIM_006.jpg
155.34	1.364	correct	generate	Run1	generate/STIM_006.jpg
159.932	0.905	correct	generate	Run1	generate/STIM_006.jpg
163.006	2.551	correct	generate	Run1	generate/STIM_007.jpg
169.048	1.298	incorrect	generate	Run1	generate/STIM_007.jpg
173.643	1.307	incorrect	generate	Run1	generate/STIM_007.jpg
177.979	2.135	correct	generate	Run1	generate/STIM_007.jpg
183.827	2.052	correct	generate	Run1	generate/STIM_007.jpg
189.32	2.374	correct	generate	Run1	generate/STIM_008.jpg
195.646	1.922	incorrect	generate	Run1	generate/STIM_008.jpg
201.572	2.189	correct	generate	Run1	generate/STIM_008.jpg
206.973	1.614	correct	generate	Run1	generate/STIM_008.jpg
212.556	1.29	correct	generate	Run1	generate/STIM_008.jpg
216.364	1.175	correct	generate	Run1	generate/STIM_009.jpg
220.182	1.795	correct	generate	Run1	generate/STIM_009.jpg
226.088	1.998	correct	generate	Run1	generate/STIM_009.jpg
231.258	0.974	correct	generate	Run1	generate/STIM_009.jpg
235.306	1.891	correct	generate	Run1	generate/STIM_009.jpg
239.641	2.012	correct	generate	Run1	generate/STIM_010.jpg
245.093	1.025	correct	generate	Run1	generate/STIM_010.jpg
248.67	2.08	incorrect	generate	Run1	generate/STIM_010.jpg
253.824	1.183	correct	generate	Run1	generate/STIM_010.jpg
257.973	1.75	correct	generate	Run1	generate/STIM_010.jpg
262.993	1.776	correct	generate	Run1	generate/STIM_011.jpg
268.684	1.346	correct	generate	Run1	generate/STIM_011.jpg
273.723	1.797	correct	generate	Run1	generate/STIM_011.jpg
279.501	2.049	incorrect	generate	Run1	generate/STIM_011.jpg
284.024	1.932	correct	generate	Run1	generate/STIM_011.jpg
289.268	1.901	incorrect	generate	Run1	generate/STIM_012.jpg
294.911	1.077	correct	generate	Run1	generate/STIM_012.jpg
298.15	1.863	incorrect	generate	Run1	generate/STIM_012.jpg
303.413	1.816	correct	generate	Run1	generate/STIM_012.jpg
308.735	1.399	correct	generate	Run1	generate/STIM_012.jpg
313.041	1.687	correct	generate	Run1	generate/STIM_013.jpg
317.667	1.969	correct	generate	Run1	generate/STIM_013.jpg
322.975	1.002	incorrect	generate	Run1	generate/STIM_013.jpg
326.699	1.091	correct	generate	Run1	generate/STIM_013.jpg
330.736	1.491	correct	generate	Run1	generate/STIM_013.jpg
335.386	1.202	correct	generate	Run1	generate/STIM_014.jpg
339.711	1.591	correct	generate	Run1	generate/STIM_014.jpg
344.554	1.561	incorrect	generate	Run1	generate/STIM_014.jpg
348.338	1.967	incorrect	generate	Run1	generate/STIM_014.jpg
354.215	1.232	incorrect	generate	Run1	generate/STIM_014.jpg
358.014	1.278	correct	generate	Run1	generate/STIM_015.jpg
362.264	1.392	correct	generate	Run1	generate/STIM_015.jpg
366.391	1.511	correct	generate	Run1	generate/STIM_015.jpg
370.949	1.632	correct	generate	Run1	generate/STIM_015.jpg
376.418	1.466	correct	generate	Run1	generate/STIM_015.jpg
381.741	1.917	correct	generate	Run1	generate/STIM_016.jpg
386.791	2.319	correct	generate	Run1	generate/STIM_016.jpg
391.848	1.709	correct	generate	Run1	generate/STIM_016.jpg
396.457	1.076	incorrect	generate	Run1	generate/STIM_016.jpg
400.005	1.834	incorrect	generate	Run1	generate/STIM_016.jpg
404.509	2.119	correct	generate	Run1	generate/STIM_017.jpg
409.881	1.821	correct	generate	Run1	generate/STIM_017.jpg
415.932	1.036	correct	generate	Run1	generate/STIM_017.jpg
419.867	0.909	correct	generate	Run1	generate/STIM_017.jpg
423.077	1.752	correct	generate	Run1	generate/STIM_017.jpg
428.494	1.632	incorrect	generate	Run1	generate/STIM_018.jpg
433.285	2.241	correct	generate	Run1	generate/STIM_018.jpg
438.106	2.323	incorrect	generate	Run1	generate/STIM_018.jpg
443.365	1.557	correct	generate	Run1	generate/STIM_018.jpg
448.833	1.376	incorrect	generate	Run1	generate/STIM_018.jpg
453.289	2.34	incorrect	generate	Run1	generate/STIM_019.jpg
458.556	2.201	correct	generate	Run1	generate/STIM_019.jpg
464.311	1.296	correct	generate	Run1	generate/STIM_019.jpg
469.005	1.201	correct	generate	Run1	generate/STIM_019.jpg
472.731	0.922	correct	generate	Run1	generate/STIM_019.jpg
477.629	1.526	incorrect	generate	Run1	generate/STIM_020.jpg
481.73	1.852	correct	generate	Run1	generate/STIM_020.jpg
487.285	1.238	correct	generate	Run1	generate/STIM_020.jpg
492.15	1.74	correct	generate	Run1	generate/STIM_020.jpg
497.711	1.857	incorrect	generate	Run1	generate/STIM_020.jpg
503.747	2.344	incorrect	generate	Run1	generate/STIM_021.jpg
509.935	1.626	correct	generate	Run1	generate/STIM_021.jpg
515.331	2.102	correct	generate	Run1	generate/STIM_021.jpg
520.49	2.01	incorrect	generate	Run1	generate/STIM_021.jpg
525.002	1.274	correct	generate	Run1	generate/STIM_021.jpg
530.444	1.834	correct	generate	Run1	generate/STIM_022.jpg
534.987	1.751	incorrect	generate	Run1	generate/STIM_022.jpg
540.023	1.606	correct	generate	Run1	generate/STIM_022.jpg
544.28	1.169	correct	generate	Run1	generate/STIM_022.jpg
549.199	1.922	correct	generate	Run1	generate/STIM_022.jpg
553.833	1.281	correct	generate	Run1	generate/STIM_023.jpg
558.396	1.991	correct	generate	Run1	generate/STIM_023.jpg
563.109	2.184	correct	generate	Run1	generate/STIM_023.jpg
568.878	2.018	correct	generate	Run1	generate/STIM_023.jpg
573.612	1.302	correct	generate	Run1	generate/STIM_023.jpg
578.886	2.441	correct	generate	Run1	generate/STIM_024.jpg
585.129	1.738	correct	generate	Run1	generate/STIM_024.jpg
590.652	1.632	correct	generate	Run1	generate/STIM_024.jpg
594.583	1.411	correct	generate	Run1	generate/STIM_024.jpg
598.397	0.852	correct	generate	Run1	generate/STIM_024.jpg
602.733	0.734	correct	repeat	Run1	repeat/STIM_000.jpg
607.5	0.725	correct	repeat	Run1	repeat/STIM_000.jpg
610.34	0.851	correct	repeat	Run1	repeat/STIM_000.jpg
613.356	0.714	correct	repeat	Run1	repeat/STIM_000.jpg
616.326	0.782	correct	repeat	Run1	repeat/STIM_000.jpg
620.062	0.686	correct	repeat	Run1	repeat/STIM_001.jpg
623.919	0.45	correct	repeat	Run1	repeat/STIM_001.jpg
627.188	0.792	correct	repeat	Run1	repeat/STIM_001.jpg
630.564	0.466	correct	repeat	Run1	repeat/STIM_001.jpg
633.127	0.583	correct	repeat	Run1	repeat/STIM_001.jpg
637.149	0.694	correct	repeat	Run1	repeat/STIM_002.jpg
641.405	0.492	correct	repeat	Run1	repeat/STIM_002.jpg
645.352	0.79	correct	repeat	Run1	repeat/STIM_002.jpg
649.938	0.857	incorrect	repeat	Run1	repeat/STIM_002.jpg
654.821	0.755	correct	repeat	Run1	repeat/STIM_002.jpg
659.31	0.691	correct	repeat	Run1	repeat/STIM_003.jpg
663.009	0.572	correct	repeat	Run1	repeat/STIM_003.jpg
667.328	0.648	correct	repeat	Run1	repeat/STIM_003.jpg
671.742	0.538	correct	repeat	Run1	repeat/STIM_003.jpg
675.081	0.486	correct	repeat	Run1	repeat/STIM_003.jpg
679.111	0.725	correct	repeat	Run1	repeat/STIM_004.jpg
683.119	0.448	correct	repeat	Run1	repeat/STIM_004.jpg
686.499	0.497	correct	repeat	Run1	repeat/STIM_004.jpg
690.999	0.675	correct	repeat	Run1	repeat/STIM_004.jpg
694.504	0.784	correct	repeat	Run1	repeat/STIM_004.jpg
698.231	0.734	correct	repeat	Run1	repeat/STIM_005.jpg
701.986	0.855	incorrect	repeat	Run1	repeat/STIM_005.jpg
706.673	0.788	correct	repeat	Run1	repeat/STIM_005.jpg
710.222	0.615	correct	repeat	Run1	repeat/STIM_005.jpg
713.615	0.791	correct	repeat	Run1	repeat/STIM_005.jpg
717.439	0.863	correct	repeat	Run1	repeat/STIM_006.jpg
721.418	0.49	correct	repeat	Run1	repeat/STIM_006.jpg
725.796	0.723	correct	repeat	Run1	repeat/STIM_006.jpg
730.409	0.688	correct	repeat	Run1	repeat/STIM_006.jpg
733.359	0.718	incorrect	repeat	Run1	repeat/STIM_006.jpg
737.962	0.71	correct	repeat	Run1	repeat/STIM_007.jpg
740.981	0.551	correct	repeat	Run1	repeat/STIM_007.jpg
744.215	0.494	correct	repeat	Run1	repeat/STIM_007.jpg
748.425	0.812	incorrect	repeat	Run1	repeat/STIM_007.jpg
753.216	0.721	correct	repeat	Run1	repeat/STIM_007.jpg
757.905	0.561	incorrect	repeat	Run1	repeat/STIM_008.jpg
761.495	0.526	correct	repeat	Run1	repeat/STIM_008.jpg
765.355	0.641	correct	repeat	Run1	repeat/STIM_008.jpg
768.154	0.46	correct	repeat	Run1	repeat/STIM_008.jpg
770.992	0.783	incorrect	repeat	Run1	repeat/STIM_008.jpg
775.692	0.549	correct	repeat	Run1	repeat/STIM_009.jpg
780.022	0.568	correct	repeat	Run1	repeat/STIM_009.jpg
783.089	0.818	correct	repeat	Run1	repeat/STIM_009.jpg
786.302	0.647	correct	repeat	Run1	repeat/STIM_009.jpg
790.172	0.584	correct	repeat	Run1	repeat/STIM_009.jpg
794.053	0.742	correct	repeat	Run1	repeat/STIM_010.jpg
797.344	0.451	correct	repeat	Run1	repeat/STIM_010.jpg
800.632	0.714	correct	repeat	Run1	repeat/STIM_010.jpg
803.974	0.626	correct	repeat	Run1	repeat/STIM_010.jpg
808.232	0.74	correct	repeat	Run1	repeat/STIM_010.jpg
811.427	0.769	correct	repeat	Run1	repeat/STIM_011.jpg
816.001	0.52	correct	repeat	Run1	repeat/STIM_011.jpg
820.284	0.515	correct	repeat	Run1	repeat/STIM_011.jpg
823.387	0.786	correct	repeat	Run1	repeat/STIM_011.jpg
826.443	0.525	correct	repeat	Run1	repeat/STIM_011.jpg
830.07	0.745	correct	repeat	Run1	repeat/STIM_012.jpg
834.225	0.807	incorrect	repeat	Run1	repeat/STIM_012.jpg
838.064	0.527	correct	repeat	Run1	repeat/STIM_012.jpg
842.27	0.544	correct	repeat	Run1	repeat/STIM_012.jpg
846.26	0.576	correct	repeat	Run1	repeat/STIM_012.jpg
849.745	0.722	correct	repeat	Run1	repeat/STIM_013.jpg
853.952	0.818	correct	repeat	Run1	repeat/STIM_013.jpg
858.554	0.572	correct	repeat	Run1	repeat/STIM_013.jpg
862.321	0.535	correct	repeat	Run1	repeat/STIM_013.jpg
866.781	0.613	correct	repeat	Run1	repeat/STIM_013.jpg
869.54	0.44	correct	repeat	Run1	repeat/STIM_014.jpg
872.058	0.538	incorrect	repeat	Run1	repeat/STIM_014.jpg
875.081	0.477	correct	repeat	Run1	repeat/STIM_014.jpg
878.233	0.787	correct	repeat	Run1	repeat/STIM_014.jpg
881.246	0.458	correct	repeat	Run1	repeat/STIM_014.jpg
884.064	2.067	correct	generate	Run2	generate/STIM_000.jpg
889.338	1.113	correct	generate	Run2	generate/STIM_000.jpg
894.271	1.48	correct	generate	Run2	generate/STIM_000.jpg
897.968	0.978	incorrect	generate	Run2	generate/STIM_000.jpg
902.026	1.373	correct	generate	Run2	generate/STIM_000.jpg
905.753	2.179	correct	generate	Run2	generate/STIM_001.jpg
911.145	0.961	correct	generate	Run2	generate/STIM_001.jpg
915.7	1.335	correct	generate	Run2	generate/STIM_001.jpg
919.779	1.574	correct	generate	Run2	generate/STIM_001.jpg
924.347	1.732	correct	generate	Run2	generate/STIM_001.jpg
928.683	2.171	incorrect	generate	Run2	generate/STIM_002.jpg
933.779	1.582	correct	generate	Run2	generate/STIM_002.jpg
937.866	0.957	correct	generate	Run2	generate/STIM_002.jpg
942.824	1.058	incorrect	generate	Run2	generate/STIM_002.jpg
947.785	1.257	correct	generate	Run2	generate/STIM_002.jpg
951.484	1.846	correct	generate	Run2	generate/STIM_003.jpg
956.704	1.374	correct	generate	Run2	generate/STIM_003.jpg
962.186	0.991	correct	generate	Run2	generate/STIM_003.jpg
966.695	1.153	correct	generate	Run2	generate/STIM_003.jpg
971.331	1.773	correct	generate	Run2	generate/STIM_003.jpg
975.746	0.99	correct	generate	Run2	generate/STIM_004.jpg
979.806	1.13	correct	generate	Run2	generate/STIM_004.jpg
983.636	1.32	correct	generate	Run2	generate/STIM_004.jpg
988.18	1.46	correct	generate	Run2	generate/STIM_004.jpg
992.066	1.462	correct	generate	Run2	generate/STIM_004.jpg
996.732	1.964	correct	generate	Run2	generate/STIM_005.jpg
1002.851	1.52	correct	generate	Run2	generate/STIM_005.jpg
1007.284	0.893	correct	generate	Run2	generate/STIM_005.jpg
1011.638	0.783	correct	generate	Run2	generate/STIM_005.jpg
1016.276	1.263	correct	generate	Run2	generate/STIM_005.jpg
1020.298	1.596	correct	generate	Run2	generate/STIM_006.jpg
1025.981	1.176	correct	generate	Run2	generate/STIM_006.jpg
1030.261	1.235	correct	generate	Run2	generate/STIM_006.jpg
1034.704	1.761	correct	generate	Run2	generate/STIM_006.jpg
1040.569	1.504	correct	generate	Run2	generate/STIM_006.jpg
1044.838	1.735	correct	generate	Run2	generate/STIM_007.jpg
1048.957	1.724	correct	generate	Run2	generate/STIM_007.jpg
1053.359	1.2	incorrect	generate	Run2	generate/STIM_007.jpg
1057.255	1.278	correct	generate	Run2	generate/STIM_007.jpg
1061.07	0.889	correct	generate	Run2	generate/STIM_007.jpg
1065.974	1.811	correct	generate	Run2	generate/STIM_008.jpg
1070.867	1.607	correct	generate	Run2	generate/STIM_008.jpg
1076.234	0.986	incorrect	generate	Run2	generate/STIM_008.jpg
1079.484	1.342	incorrect	generate	Run2	generate/STIM_008.jpg
1084.574	1.277	correct	generate	Run2	generate/STIM_008.jpg
1089.566	2.19	incorrect	generate	Run2	generate/STIM_009.jpg
1094.146	1.106	correct	generate	Run2	generate/STIM_009.jpg
1098.381	1.908	incorrect	generate	Run2	generate/STIM_009.jpg
1103.658	1.144	correct	generate	Run2	generate/STIM_009.jpg
1106.98	1.446	correct	generate	Run2	generate/STIM_009.jpg
1112.362	2.211	correct	generate	Run2	generate/STIM_010.jpg
1117.168	1.008	correct	generate	Run2	generate/STIM_010.jpg
1121.692	1.49	correct	generate	Run2	generate/STIM_010.jpg
1126.643	0.96	correct	generate	Run2	generate/STIM_010.jpg
1129.986	1.403	correct	generate	Run2	generate/STIM_010.jpg
1134.21	1.999	correct	generate	Run2	generate/STIM_011.jpg
1139.966	1.447	correct	generate	Run2	generate/STIM_011.jpg
1143.623	1.767	incorrect	generate	Run2	generate/STIM_011.jpg
1148.151	0.795	incorrect	generate	Run2	generate/STIM_011.jpg
1151.214	1.602	correct	generate	Run2	generate/STIM_011.jpg
1156.527	1.697	correct	generate	Run2	generate/STIM_012.jpg
1161.498	1.764	correct	generate	Run2	generate/STIM_012.jpg
1165.545	0.866	correct	generate	Run2	generate/STIM_012.jpg
1170.47	0.958	correct	generate	Run2	generate/STIM_012.jpg
1175.325	1.029	correct	generate	Run2	generate/STIM_012.jpg
1178.648	0.985	correct	generate	Run2	generate/STIM_013.jpg
1183.398	0.869	correct	generate	Run2	generate/STIM_013.jpg
1188.165	1.19	correct	generate	Run2	generate/STIM_013.jpg
1192.724	1.601	correct	generate	Run2	generate/STIM_013.jpg
1197.045	1.799	correct	generate	Run2	generate/STIM_013.jpg
1202.032	1.702	correct	generate	Run2	generate/STIM_014.jpg
1206.67	1.135	correct	generate	Run2	generate/STIM_014.jpg
1211.692	1.268	incorrect	generate	Run2	generate/STIM_014.jpg
1216.212	1.018	correct	generate	Run2	generate/STIM_014.jpg
1220.786	1.727	correct	generate	Run2	generate/STIM_014.jpg
1226.382	1.967	incorrect	generate	Run2	generate/STIM_015.jpg
1231.008	1.177	correct	generate	Run2	generate/STIM_015.jpg
1234.406	1.217	correct	generate	Run2	generate/STIM_015.jpg
1239.191	1.038	incorrect	generate	Run2	generate/STIM_015.jpg
1243.403	0.985	correct	generate	Run2	generate/STIM_015.jpg
1246.526	1.972	correct	generate	Run2	generate/STIM_016.jpg
1250.788	0.914	correct	generate	Run2	generate/STIM_016.jpg
1255.78	1.392	correct	generate	Run2	generate/STIM_016.jpg
1260.868	0.893	correct	generate	Run2	generate/STIM_016.jpg
1264.601	1.426	correct	generate	Run2	generate/STIM_016.jpg
1269.678	1.387	incorrect	generate	Run2	generate/STIM_017.jpg
1274.398	2.034	incorrect	generate	Run2	generate/STIM_017.jpg
1279.993	1.9	correct	generate	Run2	generate/STIM_017.jpg
1284.362	1.647	correct	generate	Run2	generate/STIM_017.jpg
1288.826	1.046	correct	generate	Run2	generate/STIM_017.jpg
1293.122	1.207	incorrect	generate	Run2	generate/STIM_018.jpg
1297.199	2.102	correct	generate	Run2	generate/STIM_018.jpg
1302.989	1.035	correct	generate	Run2	generate/STIM_018.jpg
1307.267	1.287	correct	generate	Run2	generate/STIM_018.jpg
1312.549	1.008	correct	generate	Run2	generate/STIM_018.jpg
1315.845	1.855	correct	generate	Run2	generate/STIM_019.jpg
1320.305	1.168	correct	generate	Run2	generate/STIM_019.jpg
1323.856	1.246	correct	generate	Run2	generate/STIM_019.jpg
1327.637	0.781	correct	generate	Run2	generate/STIM_019.jpg
1332.002	1.092	correct	generate	Run2	generate/STIM_019.jpg
1336.106	1.528	incorrect	generate	Run2	generate/STIM_020.jpg
1341.206	1.131	correct	generate	Run2	generate/STIM_020.jpg
1345.245	1.612	incorrect	generate	Run2	generate/STIM_020.jpg
1350.726	1.139	correct	generate	Run2	generate/STIM_020.jpg
1354.641	1.137	correct	generate	Run2	generate/STIM_020.jpg
1359.81	1.494	correct	generate	Run2	generate/STIM_021.jpg
1365.037	1.292	correct	generate	Run2	generate/STIM_021.jpg
1369.165	1.704	correct	generate	Run2	generate/STIM_021.jpg
1373.441	1.654	correct	generate	Run2	generate/STIM_021.jpg
1377.468	1.401	incorrect	generate	Run2	generate/STIM_021.jpg
1381.893	1.674	correct	generate	Run2	generate/STIM_022.jpg
1386.138	1.304	correct	generate	Run2	generate/STIM_022.jpg
1391.305	1.599	correct	generate	Run2	generate/STIM_022.jpg
1396.889	1.794	correct	generate	Run2	generate/STIM_022.jpg
1401.853	1.668	correct	generate	Run2	generate/STIM_022.jpg
1406.565	1.633	correct	generate	Run2	generate/STIM_023.jpg
1411.719	2.089	correct	generate	Run2	generate/STIM_023.jpg
1417.192	0.856	correct	generate	Run2	generate/STIM_023.jpg
1421.808	1.812	incorrect	generate	Run2	generate/STIM_023.jpg
1427.406	0.922	correct	generate	Run2	generate/STIM_023.jpg
1431.159	1.28	correct	generate	Run2	generate/STIM_024.jpg
1436.584	1.656	correct	generate	Run2	generate/STIM_024.jpg
1442.12	1.347	correct	generate	Run2	generate/STIM_024.jpg
1447.079	1.124	correct	generate	Run2	generate/STIM_024.jpg
1452.243	1.593	correct	generate	Run2	generate/STIM_024.jpg
1456.707	0.464	correct	repeat	Run2	repeat/STIM_000.jpg
1460.103	0.831	correct	repeat	Run2	repeat/STIM_000.jpg
1463.936	0.682	correct	repeat	Run2	repeat/STIM_000.jpg
1468.24	0.851	incorrect	repeat	Run2	repeat/STIM_000.jpg
1472.791	0.636	correct	repeat	Run2	repeat/STIM_000.jpg
1476.466	0.638	correct	repeat	Run2	repeat/STIM_001.jpg
1480.377	0.824	correct	repeat	Run2	repeat/STIM_001.jpg
1484.494	0.661	incorrect	repeat	Run2	repeat/STIM_001.jpg
1487.81	0.439	correct	repeat	Run2	repeat/STIM_001.jpg
1491.05	0.526	correct	repeat	Run2	repeat/STIM_001.jpg
1495.517	0.523	correct	repeat	Run2	repeat/STIM_002.jpg
1500.111	0.648	correct	repeat	Run2	repeat/STIM_002.jpg
1503.418	0.595	correct	repeat	Run2	repeat/STIM_002.jpg
1506.341	0.746	correct	repeat	Run2	repeat/STIM_002.jpg
1510.745	0.761	correct	repeat	Run2	repeat/STIM_002.jpg
1514.954	0.863	correct	repeat	Run2	repeat/STIM_003.jpg
1518.335	0.729	correct	repeat	Run2	repeat/STIM_003.jpg
1521.544	0.513	correct	repeat	Run2	repeat/STIM_003.jpg
1524.936	0.726	correct	repeat	Run2	repeat/STIM_003.jpg
1528.92	0.441	correct	repeat	Run2	repeat/STIM_003.jpg
1531.751	0.835	correct	repeat	Run2	repeat/STIM_004.jpg
1535.901	0.723	correct	repeat	Run2	repeat/STIM_004.jpg
1539.833	0.442	correct	repeat	Run2	repeat/STIM_004.jpg
1542.721	0.747	correct	repeat	Run2	repeat/STIM_004.jpg
1546.569	0.785	correct	repeat	Run2	repeat/STIM_004.jpg
1551.264	0.816	correct	repeat	Run2	repeat/STIM_005.jpg
1554.958	0.71	correct	repeat	Run2	repeat/STIM_005.jpg
1559.665	0.486	correct	repeat	Run2	repeat/STIM_005.jpg
1564.075	0.518	correct	repeat	Run2	repeat/STIM_005.jpg
1566.976	0.628	correct	repeat	Run2	repeat/STIM_005.jpg
1571.424	0.505	correct	repeat	Run2	repeat/STIM_006.jpg
1575.552	0.622	correct	repeat	Run2	repeat/STIM_006.jpg
1579.082	0.442	correct	repeat	Run2	repeat/STIM_006.jpg
1581.981	0.739	correct	repeat	Run2	repeat/STIM_006.jpg
1585.985	0.874	correct	repeat	Run2	repeat/STIM_006.jpg
1589.815	0.67	correct	repeat	Run2	repeat/STIM_007.jpg
1594.33	0.722	correct	repeat	Run2	repeat/STIM_007.jpg
1597.298	0.544	correct	repeat	Run2	repeat/STIM_007.jpg
1601.702	0.546	correct	repeat	Run2	repeat/STIM_007.jpg
1605.905	0.635	correct	repeat	Run2	repeat/STIM_007.jpg
1609.421	0.451	correct	repeat	Run2	repeat/STIM_008.jpg
1613.091	0.566	correct	repeat	Run2	repeat/STIM_008.jpg
1615.989	0.577	correct	repeat	Run2	repeat/STIM_008.jpg
1619.757	0.479	correct	repeat	Run2	repeat/STIM_008.jpg
1622.48	0.519	correct	repeat	Run2	repeat/STIM_008.jpg
1626.416	0.698	correct	repeat	Run2	repeat/STIM_009.jpg
1629.605	0.588	correct	repeat	Run2	repeat/STIM_009.jpg
1633.689	0.863	correct	repeat	Run2	repeat/STIM_009.jpg
1637.712	0.584	correct	repeat	Run2	repeat/STIM_009.jpg
1641.725	0.652	correct	repeat	Run2	repeat/STIM_009.jpg
1646.293	0.659	correct	repeat	Run2	repeat/STIM_010.jpg
1649.795	0.556	correct	repeat	Run2	repeat/STIM_010.jpg
1653.516	0.825	correct	repeat	Run2	repeat/STIM_010.jpg
1658.202	0.719	correct	repeat	Run2	repeat/STIM_010.jpg
1661.905	0.801	correct	repeat	Run2	repeat/STIM_010.jpg
1665.592	0.477	correct	repeat	Run2	repeat/STIM_011.jpg
1670.017	0.527	correct	repeat	Run2	repeat/STIM_011.jpg
1673.697	0.484	correct	repeat	Run2	repeat/STIM_011.jpg
1677.306	0.651	correct	repeat	Run2	repeat/STIM_011.jpg
1681.367	0.668	correct	repeat	Run2	repeat/STIM_011.jpg
1685.298	0.842	correct	repeat	Run2	repeat/STIM_012.jpg
1689.732	0.543	correct	repeat	Run2	repeat/STIM_012.jpg
1694.081	0.833	correct	repeat	Run2	repeat/STIM_012.jpg
1698.115	0.625	correct	repeat	Run2	repeat/STIM_012.jpg
1702.466	0.451	correct	repeat	Run2	repeat/STIM_012.jpg
1706.668	0.84	correct	repeat	Run2	repeat/STIM_013.jpg
1709.67	0.584	correct	repeat	Run2	repeat/STIM_013.jpg
1712.397	0.476	correct	repeat	Run2	repeat/STIM_013.jpg
1715.477	0.525	correct	repeat	Run2	repeat/STIM_013.jpg
1719.108	0.848	correct	repeat	Run2	repeat/STIM_013.jpg
1722.349	0.653	correct	repeat	Run2	repeat/STIM_014.jpg
1726.876	0.744	correct	repeat	Run2	repeat/STIM_014.jpg
1731.517	0.642	correct	repeat	Run2	repeat/STIM_014.jpg
1736.16	0.482	correct	repeat	Run2	repeat/STIM_014.jpg
1739.105	0.842	correct	repeat	Run2	repeat/STIM_014.jpg
1742.802	0.884	correct	generate	Run3	generate/STIM_000.jpg
1746.73	1.087	correct	generate	Run3	generate/STIM_000.jpg
1751.421	1.829	correct	generate	Run3	generate/STIM_000.jpg
1757.06	1.023	correct	generate	Run3	generate/STIM_000.jpg
1761.461	0.764	correct	generate	Run3	generate/STIM_000.jpg
1766.038	1.022	correct	generate	Run3	generate/STIM_001.jpg
1769.416	0.828	correct	generate	Run3	generate/STIM_001.jpg
1772.381	0.966	correct	generate	Run3	generate/STIM_001.jpg
1776.934	1.78	correct	generate	Run3	generate/STIM_001.jpg
1781.296	0.936	correct	generate	Run3	generate/STIM_001.jpg
1785.078	1.2	correct	generate	Run3	generate/STIM_002.jpg
1790.083	1.053	correct	generate	Run3	generate/STIM_002.jpg
1794.899	0.968	incorrect	generate	Run3	generate/STIM_002.jpg
1798.585	1.283	correct	generate	Run3	generate/STIM_002.jpg
1803.921	1.574	correct	generate	Run3	generate/STIM_002.jpg
1808.632	1.505	correct	generate	Run3	generate/STIM_003.jpg
1813.967	0.776	correct	generate	Run3	generate/STIM_003.jpg
1817.434	1.549	correct	generate	Run3	generate/STIM_003.jpg
1822.085	1.045	correct	generate	Run3	generate/STIM_003.jpg
1825.886	1.735	correct	generate	Run3	generate/STIM_003.jpg
1831.737	1.476	correct	generate	Run3	generate/STIM_004.jpg
1836.789	1.072	correct	generate	Run3	generate/STIM_004.jpg
1841.903	1.654	correct	generate	Run3	generate/STIM_004.jpg
1846.691	1.543	correct	generate	Run3	generate/STIM_004.jpg
1851.235	1.763	correct	generate	Run3	generate/STIM_004.jpg
1856.247	1.15	incorrect	generate	Run3	generate/STIM_005.jpg
1860.767	1.163	correct	generate	Run3	generate/STIM_005.jpg
1865.995	1.793	incorrect	generate	Run3	generate/STIM_005.jpg
1871.437	1.091	correct	generate	Run3	generate/STIM_005.jpg
1875.707	1.415	correct	generate	Run3	generate/STIM_005.jpg
1881.069	0.811	correct	generate	Run3	generate/STIM_006.jpg
1885.362	1.617	correct	generate	Run3	generate/STIM_006.jpg
1890.984	1.47	correct	generate	Run3	generate/STIM_006.jpg
1895.219	1.75	correct	generate	Run3	generate/STIM_006.jpg
1900.607	1.787	correct	generate	Run3	generate/STIM_006.jpg
1905.814	1.046	incorrect	generate	Run3	generate/STIM_007.jpg
1910.988	0.773	incorrect	generate	Run3	generate/STIM_007.jpg
1914.936	0.886	correct	generate	Run3	generate/STIM_007.jpg
1919.924	1.149	correct	generate	Run3	generate/STIM_007.jpg
1923.723	1.263	correct	generate	Run3	generate/STIM_007.jpg
1928.373	0.781	correct	generate	Run3	generate/STIM_008.jpg
1932.264	0.913	correct	generate	Run3	generate/STIM_008.jpg
1936.482	1.497	correct	generate	Run3	generate/STIM_008.jpg
1940.209	1.309	correct	generate	Run3	generate/STIM_008.jpg
1945.34	1.128	correct	generate	Run3	generate/STIM_008.jpg
1949.62	1.612	correct	generate	Run3	generate/STIM_009.jpg
1953.529	0.919	correct	generate	Run3	generate/STIM_009.jpg
1957.023	1.571	correct	generate	Run3	generate/STIM_009.jpg
1960.874	1.38	correct	generate	Run3	generate/STIM_009.jpg
1965.178	1.179	correct	generate	Run3	generate/STIM_009.jpg
1970.147	1.094	correct	generate	Run3	generate/STIM_010.jpg
1975.075	1.262	correct	generate	Run3	generate/STIM_010.jpg
1979.584	1.507	correct	generate	Run3	generate/STIM_010.jpg
1984.35	0.84	correct	generate	Run3	generate/STIM_010.jpg
1989.164	1.792	correct	generate	Run3	generate/STIM_010.jpg
1994.901	1.341	correct	generate	Run3	generate/STIM_011.jpg
1998.538	1.455	correct	generate	Run3	generate/STIM_011.jpg
2003.056	0.747	correct	generate	Run3	generate/STIM_011.jpg
2006.219	1.67	correct	generate	Run3	generate/STIM_011.jpg
2010.578	0.739	correct	generate	Run3	generate/STIM_011.jpg
2014.974	1.838	correct	generate	Run3	generate/STIM_012.jpg
2020.522	0.968	correct	generate	Run3	generate/STIM_012.jpg
2025.502	1.224	correct	generate	Run3	generate/STIM_012.jpg
2030.477	1.228	correct	generate	Run3	generate/STIM_012.jpg
2034.923	0.98	correct	generate	Run3	generate/STIM_012.jpg
2038.286	1.684	correct	generate	Run3	generate/STIM_013.jpg
2042.344	1.481	correct	generate	Run3	generate/STIM_013.jpg
2047.878	1.463	correct	generate	Run3	generate/STIM_013.jpg
2051.917	1.304	correct	generate	Run3	generate/STIM_013.jpg
2056.836	1.572	correct	generate	Run3	generate/STIM_013.jpg
2061.474	1.544	correct	generate	Run3	generate/STIM_014.jpg
2066.209	0.753	correct	generate	Run3	generate/STIM_014.jpg
2069.953	1.735	correct	generate	Run3	generate/STIM_014.jpg
2075.614	1.333	correct	generate	Run3	generate/STIM_014.jpg
2079.976	1.374	correct	generate	Run3	generate/STIM_014.jpg
2084.63	0.92	correct	generate	Run3	generate/STIM_015.jpg
2087.923	1.143	correct	generate	Run3	generate/STIM_015.jpg
2091.42	1.138	correct	generate	Run3	generate/STIM_015.jpg
2096.104	1.046	correct	generate	Run3	generate/STIM_015.jpg
2100.225	0.907	correct	generate	Run3	generate/STIM_015.jpg
2104.749	1.551	correct	generate	Run3	generate/STIM_016.jpg
2110.163	1.02	correct	generate	Run3	generate/STIM_016.jpg
2113.995	0.887	correct	generate	Run3	generate/STIM_016.jpg
2117.67	1.569	correct	generate	Run3	generate/STIM_016.jpg
2122.985	1.76	correct	generate	Run3	generate/STIM_016.jpg
2127.92	1.137	correct	generate	Run3	generate/STIM_017.jpg
2132.603	1.517	correct	generate	Run3	generate/STIM_017.jpg
2136.45	1.657	correct	generate	Run3	generate/STIM_017.jpg
2141.261	1.136	correct	generate	Run3	generate/STIM_017.jpg
2146.028	1.199	correct	generate	Run3	generate/STIM_017.jpg
2150.216	1.793	correct	generate	Run3	generate/STIM_018.jpg
2155.051	0.947	correct	generate	Run3	generate/STIM_018.jpg
2158.749	1.2	correct	generate	Run3	generate/STIM_018.jpg
2162.52	1.263	correct	generate	Run3	generate/STIM_018.jpg
2166.998	0.898	correct	generate	Run3	generate/STIM_018.jpg
2171.702	0.756	correct	generate	Run3	generate/STIM_019.jpg
2175.007	0.742	incorrect	generate	Run3	generate/STIM_019.jpg
2178.126	1.215	correct	generate	Run3	generate/STIM_019.jpg
2181.821	1.296	correct	generate	Run3	generate/STIM_019.jpg
2186.259	1.745	correct	generate	Run3	generate/STIM_019.jpg
2190.539	0.919	correct	generate	Run3	generate/STIM_020.jpg
2194.007	1.799	correct	generate	Run3	generate/STIM_020.jpg
2198.17	0.859	correct	generate	Run3	generate/STIM_020.jpg
2201.194	1.828	correct	generate	Run3	generate/STIM_020.jpg
2207.182	1.247	incorrect	generate	Run3	generate/STIM_020.jpg
2210.861	1.315	correct	generate	Run3	generate/STIM_021.jpg
2215.001	1.312	correct	generate	Run3	generate/STIM_021.jpg
2218.914	1.839	correct	generate	Run3	generate/STIM_021.jpg
2223.227	1.449	correct	generate	Run3	generate/STIM_021.jpg
2226.962	1.182	correct	generate	Run3	generate/STIM_021.jpg
2231.288	0.812	correct	generate	Run3	generate/STIM_022.jpg
2234.593	1.598	correct	generate	Run3	generate/STIM_022.jpg
2239.427	1.121	incorrect	generate	Run3	generate/STIM_022.jpg
2242.987	1.586	correct	generate	Run3	generate/STIM_022.jpg
2248.336	1.788	correct	generate	Run3	generate/STIM_022.jpg
2252.821	1.445	correct	generate	Run3	generate/STIM_023.jpg
2257.495	1.008	correct	generate	Run3	generate/STIM_023.jpg
2261.021	1.432	correct	generate	Run3	generate/STIM_023.jpg
2264.986	1.379	correct	generate	Run3	generate/STIM_023.jpg
2268.571	0.786	incorrect	generate	Run3	generate/STIM_023.jpg
2272.824	1.76	correct	generate	Run3	generate/STIM_024.jpg
2278.37	0.857	correct	generate	Run3	generate/STIM_024.jpg
2282.049	1.496	correct	generate	Run3	generate/STIM_024.jpg
2286.673	1.261	correct	generate	Run3	generate/STIM_024.jpg
2290.633	1.32	correct	generate	Run3	generate/STIM_024.jpg
2295.834	0.821	correct	repeat	Run3	repeat/STIM_000.jpg
2299.281	0.717	correct	repeat	Run3	repeat/STIM_000.jpg
2303.653	0.61	correct	repeat	Run3	repeat/STIM_000.jpg
2307.693	0.833	incorrect	repeat	Run3	repeat/STIM_000.jpg
2310.882	0.543	correct	repeat	Run3	repeat/STIM_000.jpg
2314.105	0.708	correct	repeat	Run3	repeat/STIM_001.jpg
2317.858	0.592	correct	repeat	Run3	repeat/STIM_001.jpg
2321.434	0.584	correct	repeat	Run3	repeat/STIM_001.jpg
2324.381	0.605	correct	repeat	Run3	repeat/STIM_001.jpg
2328.132	0.866	correct	repeat	Run3	repeat/STIM_001.jpg
2332.64	0.785	correct	repeat	Run3	repeat/STIM_002.jpg
2337.08	0.548	correct	repeat	Run3	repeat/STIM_002.jpg
2340.747	0.45	correct	repeat	Run3	repeat/STIM_002.jpg
2344.065	0.511	correct	repeat	Run3	repeat/STIM_002.jpg
2347.523	0.716	correct	repeat	Run3	repeat/STIM_002.jpg
2352.283	0.566	correct	repeat	Run3	repeat/STIM_003.jpg
2355.517	0.559	correct	repeat	Run3	repeat/STIM_003.jpg
2359.287	0.585	incorrect	repeat	Run3	repeat/STIM_003.jpg
2363.185	0.444	correct	repeat	Run3	repeat/STIM_003.jpg
2367.669	0.717	correct	repeat	Run3	repeat/STIM_003.jpg
2371.324	0.84	correct	repeat	Run3	repeat/STIM_004.jpg
2374.957	0.535	correct	repeat	Run3	repeat/STIM_004.jpg
2377.719	0.791	correct	repeat	Run3	repeat/STIM_004.jpg
2381.969	0.692	correct	repeat	Run3	repeat/STIM_004.jpg
2385.114	0.627	correct	repeat	Run3	repeat/STIM_004.jpg
2389.658	0.824	correct	repeat	Run3	repeat/STIM_005.jpg
2392.947	0.721	correct	repeat	Run3	repeat/STIM_005.jpg
2396.538	0.584	correct	repeat	Run3	repeat/STIM_005.jpg
2399.412	0.757	correct	repeat	Run3	repeat/STIM_005.jpg
2402.426	0.821	correct	repeat	Run3	repeat/STIM_005.jpg
2405.618	0.869	correct	repeat	Run3	repeat/STIM_006.jpg
2409.478	0.609	correct	repeat	Run3	repeat/STIM_006.jpg
2412.284	0.624	correct	repeat	Run3	repeat/STIM_006.jpg
2416.121	0.764	correct	repeat	Run3	repeat/STIM_006.jpg
2420.788	0.809	correct	repeat	Run3	repeat/STIM_006.jpg
2424.279	0.609	correct	repeat	Run3	repeat/STIM_007.jpg
2427.563	0.539	correct	repeat	Run3	repeat/STIM_007.jpg
2430.486	0.661	correct	repeat	Run3	repeat/STIM_007.jpg
2434.758	0.626	correct	repeat	Run3	repeat/STIM_007.jpg
2438.086	0.516	correct	repeat	Run3	repeat/STIM_007.jpg
2441.988	0.632	correct	repeat	Run3	repeat/STIM_008.jpg
2445.037	0.713	correct	repeat	Run3	repeat/STIM_008.jpg
2448.137	0.844	correct	repeat	Run3	repeat/STIM_008.jpg
2452.25	0.556	incorrect	repeat	Run3	repeat/STIM_008.jpg
2455.862	0.716	correct	repeat	Run3	repeat/STIM_008.jpg
2460.286	0.598	correct	repeat	Run3	repeat/STIM_009.jpg
2463.71	0.774	correct	repeat	Run3	repeat/STIM_009.jpg
2468.131	0.492	correct	repeat	Run3	repeat/STIM_009.jpg
2471.715	0.58	correct	repeat	Run3	repeat/STIM_009.jpg
2475.54	0.454	incorrect	repeat	Run3	repeat/STIM_009.jpg
2479.645	0.784	correct	repeat	Run3	repeat/STIM_010.jpg
2484.298	0.576	correct	repeat	Run3	repeat/STIM_010.jpg
2488.875	0.566	correct	repeat	Run3	repeat/STIM_010.jpg
2492.086	0.83	correct	repeat	Run3	repeat/STIM_010.jpg
2495.076	0.441	correct	repeat	Run3	repeat/STIM_010.jpg
2499.372	0.752	correct	repeat	Run3	repeat/STIM_011.jpg
2502.361	0.852	correct	repeat	Run3	repeat/STIM_011.jpg
2506.107	0.458	correct	repeat	Run3	repeat/STIM_011.jpg
2510.007	0.622	correct	repeat	Run3	repeat/STIM_011.jpg
2513.982	0.514	correct	repeat	Run3	repeat/STIM_011.jpg
2517.393	0.63	correct	repeat	Run3	repeat/STIM_012.jpg
2520.116	0.721	correct	repeat	Run3	repeat/STIM_012.jpg
2524.072	0.7	correct	repeat	Run3	repeat/STIM_012.jpg
2528.016	0.777	correct	repeat	Run3	repeat/STIM_012.jpg
2532.181	0.691	correct	repeat	Run3	repeat/STIM_012.jpg
2536.362	0.548	incorrect	repeat	Run3	repeat/STIM_013.jpg
2539.2	0.653	correct	repeat	Run3	repeat/STIM_013.jpg
2543.781	0.837	correct	repeat	Run3	repeat/STIM_013.jpg
2546.902	0.663	correct	repeat	Run3	repeat/STIM_013.jpg
2550.764	0.573	correct	repeat	Run3	repeat/STIM_013.jpg
2555.415	0.629	correct	repeat	Run3	repeat/STIM_014.jpg
2558.398	0.5	incorrect	repeat	Run3	repeat/STIM_014.jpg
2562.838	0.493	correct	repeat	Run3	repeat/STIM_014.jpg
2566.654	0.746	correct	repeat	Run3	repeat/STIM_014.jpg
2570.349	0.764	correct	repeat	Run3	repeat/STIM_014.jpg
2574.105	0.963	correct	generate	Run4	generate/STIM_000.jpg
2577.594	1.652	correct	generate	Run4	generate/STIM_000.jpg
2581.737	1.332	correct	generate	Run4	generate/STIM_000.jpg
2586.398	1.713	correct	generate	Run4	generate/STIM_000.jpg
2590.758	1.095	correct	generate	Run4	generate/STIM_000.jpg
2595.022	1.281	correct	generate	Run4	generate/STIM_001.jpg
2600.281	1.644	correct	generate	Run4	generate/STIM_001.jpg
2605.923	1.155	correct	generate	Run4	generate/STIM_001.jpg
2609.566	0.76	correct	generate	Run4	generate/STIM_001.jpg
2613.218	1.375	correct	generate	Run4	generate/STIM_001.jpg
2617.288	1.714	correct	generate	Run4	generate/STIM_002.jpg
2622.234	0.917	correct	generate	Run4	generate/STIM_002.jpg
2626.017	1.346	correct	generate	Run4	generate/STIM_002.jpg
2630.319	1.414	correct	generate	Run4	generate/STIM_002.jpg
2634.355	1.811	correct	generate	Run4	generate/STIM_002.jpg
2640.036	1.392	correct	generate	Run4	generate/STIM_003.jpg
2644.26	0.744	correct	generate	Run4	generate/STIM_003.jpg
2647.821	1.294	correct	generate	Run4	generate/STIM_003.jpg
2652.283	1.629	correct	generate	Run4	generate/STIM_003.jpg
2657.655	0.893	correct	generate	Run4	generate/STIM_003.jpg
2662.601	1.636	correct	generate	Run4	generate/STIM_004.jpg
2667.71	1.644	correct	generate	Run4	generate/STIM_004.jpg
2672.966	1.637	correct	generate	Run4	generate/STIM_004.jpg
2678.831	1.484	correct	generate	Run4	generate/STIM_004.jpg
2682.665	1.18	correct	generate	Run4	generate/STIM_004.jpg
2687.723	1.571	correct	generate	Run4	generate/STIM_005.jpg
2692.106	1.524	correct	generate	Run4	generate/STIM_005.jpg
2696.792	1.216	correct	generate	Run4	generate/STIM_005.jpg
2701.88	1.717	correct	generate	Run4	generate/STIM_005.jpg
2707.806	1.058	correct	generate	Run4	generate/STIM_005.jpg
2712.461	1.115	correct	generate	Run4	generate/STIM_006.jpg
2716.5	0.846	correct	generate	Run4	generate/STIM_006.jpg
2721.254	1.695	correct	generate	Run4	generate/STIM_006.jpg
2725.475	1.57	correct	generate	Run4	generate/STIM_006.jpg
2730.066	1.686	correct	generate	Run4	generate/STIM_006.jpg
2735.374	1.231	correct	generate	Run4	generate/STIM_007.jpg
2740.516	1.376	correct	generate	Run4	generate/STIM_007.jpg
2744.275	1.166	correct	generate	Run4	generate/STIM_007.jpg
2748.037	1.794	correct	generate	Run4	generate/STIM_007.jpg
2752.859	1.502	correct	generate	Run4	generate/STIM_007.jpg
2758.181	1.686	correct	generate	Run4	generate/STIM_008.jpg
2762.511	1.243	correct	generate	Run4	generate/STIM_008.jpg
2767.825	1.538	correct	generate	Run4	generate/STIM_008.jpg
2773.568	1.776	correct	generate	Run4	generate/STIM_008.jpg
2777.804	1.644	correct	generate	Run4	generate/STIM_008.jpg
2783.608	1.147	correct	generate	Run4	generate/STIM_009.jpg
2786.967	0.783	correct	generate	Run4	generate/STIM_009.jpg
2789.903	1.398	correct	generate	Run4	generate/STIM_009.jpg
2794.868	1.572	correct	generate	Run4	generate/STIM_009.jpg
2799.563	1.679	correct	generate	Run4	generate/STIM_009.jpg
2804.131	1.247	incorrect	generate	Run4	generate/STIM_010.jpg
2808.408	1.186	correct	generate	Run4	generate/STIM_010.jpg
2812.13	1.469	correct	generate	Run4	generate/STIM_010.jpg
2815.995	1.018	correct	generate	Run4	generate/STIM_010.jpg
2819.821	1.061	correct	generate	Run4	generate/STIM_010.jpg
2823.409	1.497	correct	generate	Run4	generate/STIM_011.jpg
2828.3	1.399	correct	generate	Run4	generate/STIM_011.jpg
2832.512	1.068	correct	generate	Run4	generate/STIM_011.jpg
2836.634	0.937	correct	generate	Run4	generate/STIM_011.jpg
2841.217	0.835	correct	generate	Run4	generate/STIM_011.jpg
2845.191	1.771	correct	generate	Run4	generate/STIM_012.jpg
2850.765	1.753	correct	generate	Run4	generate/STIM_012.jpg
2856.583	1.814	correct	generate	Run4	generate/STIM_012.jpg
2861.42	0.766	correct	generate	Run4	generate/STIM_012.jpg
2866.046	0.919	correct	generate	Run4	generate/STIM_012.jpg
2869.719	0.778	correct	generate	Run4	generate/STIM_013.jpg
2873.862	1.746	correct	generate	Run4	generate/STIM_013.jpg
2879.359	0.858	correct	generate	Run4	generate/STIM_013.jpg
2882.665	1.007	correct	generate	Run4	generate/STIM_013.jpg
2886.16	1.04	correct	generate	Run4	generate/STIM_013.jpg
2889.936	1.635	correct	generate	Run4	generate/STIM_014.jpg
2894.019	0.908	correct	generate	Run4	generate/STIM_014.jpg
2897.164	1.487	correct	generate	Run4	generate/STIM_014.jpg
2902.654	1.578	correct	generate	Run4	generate/STIM_014.jpg
2907.013	1.074	correct	generate	Run4	generate/STIM_014.jpg
2910.521	0.796	correct	generate	Run4	generate/STIM_015.jpg
2914.111	1.111	correct	generate	Run4	generate/STIM_015.jpg
2917.897	1.656	correct	generate	Run4	generate/STIM_015.jpg
2923.356	1.38	correct	generate	Run4	generate/STIM_015.jpg
2927.108	1.715	incorrect	generate	Run4	generate/STIM_015.jpg
2931.757	0.885	correct	generate	Run4	generate/STIM_016.jpg
2935.006	1.219	correct	generate	Run4	generate/STIM_016.jpg
2939.661	1.036	correct	generate	Run4	generate/STIM_016.jpg
2943.892	1.166	correct	generate	Run4	generate/STIM_016.jpg
2947.409	1.36	correct	generate	Run4	generate/STIM_016.jpg
2951.717	1.536	incorrect	generate	Run4	generate/STIM_017.jpg
2957.427	1.27	correct	generate	Run4	generate/STIM_017.jpg
2962.406	1.64	correct	generate	Run4	generate/STIM_017.jpg
2966.803	1.136	correct	generate	Run4	generate/STIM_017.jpg
2971.879	1.0	correct	generate	Run4	generate/STIM_017.jpg
2976.2	0.848	correct	generate	Run4	generate/STIM_018.jpg
2980.931	1.393	correct	generate	Run4	generate/STIM_018.jpg
2986.206	0.923	correct	generate	Run4	generate/STIM_018.jpg
2990.852	1.501	correct	generate	Run4	generate/STIM_018.jpg
2994.979	1.006	correct	generate	Run4	generate/STIM_018.jpg
2998.678	1.57	correct	generate	Run4	generate/STIM_019.jpg
3003.025	1.536	correct	generate	Run4	generate/STIM_019.jpg
3006.986	0.781	correct	generate	Run4	generate/STIM_019.jpg
3011.673	1.272	correct	generate	Run4	generate/STIM_019.jpg
3015.472	0.898	correct	generate	Run4	generate/STIM_019.jpg
3018.944	0.896	correct	generate	Run4	generate/STIM_020.jpg
3023.325	1.703	correct	generate	Run4	generate/STIM_020.jpg
3028.534	1.338	correct	generate	Run4	generate/STIM_020.jpg
3032.417	1.831	correct	generate	Run4	generate/STIM_020.jpg
3038.385	1.781	correct	generate	Run4	generate/STIM_020.jpg
3042.706	0.75	incorrect	generate	Run4	generate/STIM_021.jpg
3046.602	1.034	correct	generate	Run4	generate/STIM_021.jpg
3050.945	0.857	correct	generate	Run4	generate/STIM_021.jpg
3055.775	0.911	correct	generate	Run4	generate/STIM_021.jpg
3060.346	1.257	correct	generate	Run4	generate/STIM_021.jpg
3064.552	0.856	correct	generate	Run4	generate/STIM_022.jpg
3068.652	1.668	correct	generate	Run4	generate/STIM_022.jpg
3072.663	0.858	correct	generate	Run4	generate/STIM_022.jpg
3075.764	0.834	correct	generate	Run4	generate/STIM_022.jpg
3079.532	0.852	correct	generate	Run4	generate/STIM_022.jpg
3084.253	1.07	correct	generate	Run4	generate/STIM_023.jpg
3088.22	1.147	correct	generate	Run4	generate/STIM_023.jpg
3092.941	1.189	correct	generate	Run4	generate/STIM_023.jpg
3097.518	1.775	correct	generate	Run4	generate/STIM_023.jpg
3102.613	1.36	correct	generate	Run4	generate/STIM_023.jpg
3106.425	1.661	correct	generate	Run4	generate/STIM_024.jpg
3111.581	1.121	correct	generate	Run4	generate/STIM_024.jpg
3116.597	0.974	incorrect	generate	Run4	generate/STIM_024.jpg
3120.661	1.297	correct	generate	Run4	generate/STIM_024.jpg
3124.616	0.963	correct	generate	Run4	generate/STIM_024.jpg
3129.167	0.583	correct	repeat	Run4	repeat/STIM_000.jpg
3133.06	0.8	incorrect	repeat	Run4	repeat/STIM_000.jpg
3137.622	0.533	correct	repeat	Run4	repeat/STIM_000.jpg
3140.99	0.523	correct	repeat	Run4	repeat/STIM_000.jpg
3144.647	0.625	correct	repeat	Run4	repeat/STIM_000.jpg
3148.933	0.597	correct	repeat	Run4	repeat/STIM_001.jpg
3153.298	0.693	correct	repeat	Run4	repeat/STIM_001.jpg
3157.491	0.576	incorrect	repeat	Run4	repeat/STIM_001.jpg
3161.525	0.846	correct	repeat	Run4	repeat/STIM_001.jpg
3165.499	0.544	correct	repeat	Run4	repeat/STIM_001.jpg
3170.074	0.778	correct	repeat	Run4	repeat/STIM_002.jpg
3172.992	0.564	correct	repeat	Run4	repeat/STIM_002.jpg
3176.188	0.853	correct	repeat	Run4	repeat/STIM_002.jpg
3180.944	0.494	correct	repeat	Run4	repeat/STIM_002.jpg
3183.836	0.491	correct	repeat	Run4	repeat/STIM_002.jpg
3186.775	0.616	correct	repeat	Run4	repeat/STIM_003.jpg
3191.331	0.55	incorrect	repeat	Run4	repeat/STIM_003.jpg
3195.405	0.807	correct	repeat	Run4	repeat/STIM_003.jpg
3199.166	0.566	correct	repeat	Run4	repeat/STIM_003.jpg
3201.868	0.734	correct	repeat	Run4	repeat/STIM_003.jpg
3205.217	0.526	correct	repeat	Run4	repeat/STIM_004.jpg
3209.591	0.594	correct	repeat	Run4	repeat/STIM_004.jpg
3212.521	0.562	correct	repeat	Run4	repeat/STIM_004.jpg
3215.877	0.47	correct	repeat	Run4	repeat/STIM_004.jpg
3219.404	0.859	correct	repeat	Run4	repeat/STIM_004.jpg
3224.315	0.621	correct	repeat	Run4	repeat/STIM_005.jpg
3228.446	0.602	correct	repeat	Run4	repeat/STIM_005.jpg
3232.331	0.534	correct	repeat	Run4	repeat/STIM_005.jpg
3235.509	0.781	correct	repeat	Run4	repeat/STIM_005.jpg
3239.609	0.876	correct	repeat	Run4	repeat/STIM_005.jpg
3243.042	0.873	correct	repeat	Run4	repeat/STIM_006.jpg
3247.404	0.609	correct	repeat	Run4	repeat/STIM_006.jpg
3251.103	0.837	correct	repeat	Run4	repeat/STIM_006.jpg
3254.701	0.679	correct	repeat	Run4	repeat/STIM_006.jpg
3257.82	0.809	correct	repeat	Run4	repeat/STIM_006.jpg
3261.733	0.471	correct	repeat	Run4	repeat/STIM_007.jpg
3264.311	0.706	correct	repeat	Run4	repeat/STIM_007.jpg
3268.751	0.498	correct	repeat	Run4	repeat/STIM_007.jpg
3272.64	0.638	correct	repeat	Run4	repeat/STIM_007.jpg
3276.953	0.483	correct	repeat	Run4	repeat/STIM_007.jpg
3280.628	0.704	correct	repeat	Run4	repeat/STIM_008.jpg
3284.282	0.512	correct	repeat	Run4	repeat/STIM_008.jpg
3287.719	0.726	correct	repeat	Run4	repeat/STIM_008.jpg
3291.07	0.514	correct	repeat	Run4	repeat/STIM_008.jpg
3295.197	0.804	correct	repeat	Run4	repeat/STIM_008.jpg
3299.541	0.552	correct	repeat	Run4	repeat/STIM_009.jpg
3302.288	0.543	correct	repeat	Run4	repeat/STIM_009.jpg
3306.221	0.526	correct	repeat	Run4	repeat/STIM_009.jpg
3309.585	0.773	correct	repeat	Run4	repeat/STIM_009.jpg
3312.799	0.676	correct	repeat	Run4	repeat/STIM_009.jpg
3316.541	0.517	correct	repeat	Run4	repeat/STIM_010.jpg
3319.688	0.536	correct	repeat	Run4	repeat/STIM_010.jpg
3322.719	0.561	correct	repeat	Run4	repeat/STIM_010.jpg
3326.68	0.542	correct	repeat	Run4	repeat/STIM_010.jpg
3329.471	0.664	correct	repeat	Run4	repeat/STIM_010.jpg
3332.984	0.526	correct	repeat	Run4	repeat/STIM_011.jpg
3337.122	0.643	correct	repeat	Run4	repeat/STIM_011.jpg
3341.193	0.807	correct	repeat	Run4	repeat/STIM_011.jpg
3344.675	0.81	correct	repeat	Run4	repeat/STIM_011.jpg
3347.913	0.624	correct	repeat	Run4	repeat/STIM_011.jpg
3352.51	0.847	correct	repeat	Run4	repeat/STIM_012.jpg
3355.629	0.622	correct	repeat	Run4	repeat/STIM_012.jpg
3358.911	0.686	correct	repeat	Run4	repeat/STIM_012.jpg
3362.457	0.699	correct	repeat	Run4	repeat/STIM_012.jpg
3367.072	0.827	correct	repeat	Run4	repeat/STIM_012.jpg
3371.714	0.494	correct	repeat	Run4	repeat/STIM_013.jpg
3376.069	0.518	correct	repeat	Run4	repeat/STIM_013.jpg
3379.762	0.462	correct	repeat	Run4	repeat/STIM_013.jpg
3382.47	0.769	correct	repeat	Run4	repeat/STIM_013.jpg
3386.771	0.665	correct	repeat	Run4	repeat/STIM_013.jpg
3389.706	0.788	correct	repeat	Run4	repeat/STIM_014.jpg
3394.487	0.658	correct	repeat	Run4	repeat/STIM_014.jpg
3398.746	0.595	correct	repeat	Run4	repeat/STIM_014.jpg
3401.617	0.675	correct	repeat	Run4	repeat/STIM_014.jpg
3405.655	0.793	correct	repeat	Run4	repeat/STIM_014.jpg
