onset	duration	accuracy	trial_type	learning_stage	stimulus
0.0	2.59	correct	generate	Run1	generate/STIM_000.jpg
6.073	2.788	correct	generate	Run1	generate/STIM_000.jpg
12.682	2.459	correct	generate	Run1	generate/STIM_000.jpg
18.459	1.531	correct	generate	Run1	generate/STIM_000.jpg
23.734	1.616	correct	generate	Run1	generate/STIM_000.jpg
28.663	2.507	incorrect	generate	Run1	generate/STIM_001.jpg
34.306	2.39	correct	generate	Run1	generate/STIM_001.jpg
39.413	2.192	correct	generate	Run1	generate/STIM_001.jpg
44.958	1.74	correct	generate	Run1	generate/STIM_001.jpg
49.115	1.602	correct	generate	Run1	generate/STIM_001.jpg
54.64	1.27	correct	generate	Run1	generate/STIM_002.jpg
58.538	2.616	correct	generate	Run1	generate/STIM_002.jpg
64.763	2.098	correct	generate	Run1	generate/STIM_002.jpg
69.389	1.895	correct	generate	Run1	generate/STIM_002.jpg
73.72	1.244	correct	generate	Run1	generate/STIM_002.jpg
77.033	2.838	correct	generate	Run1	generate/STIM_003.jpg
83.014	1.53	correct	generate	Run1	generate/STIM_003.jpg
87.838	1.128	correct	generate	Run1	generate/STIM_003.jpg
91.217	2.166	correct	generate	Run1	generate/STIM_003.jpg
96.497	1.588	correct	generate	Run1	generate/STIM_003.jpg
101.945	2.362	correct	generate	Run1	generate/STIM_004.jpg
107.359	1.436	incorrect	generate	Run1	generate/STIM_004.jpg
112.785	2.004	correct	generate	Run1	generate/STIM_004.jpg
118.453	1.19	correct	generate	Run1	generate/STIM_004.jpg
122.426	1.993	correct	generate	Run1	generate/STIM_004.jpg
126.964	2.193	correct	generate	Run1	generate/STIM_005.jpg
132.162	2.609	correct	generate	Run1	generate/STIM_005.jpg
136.875	2.521	correct	generate	Run1	generate/STIM_005.jpg
141.629	1.54	correct	generate	Run1	generate/STIM_005.jpg
146.327	2.27	correct	generate	Run1	generate/STIM_005.jpg
151.329	2.734	correct	generate	Run1	generate/STIM_006.jpg
156.468	2.647	correct	generate	Run1	generate/STIM_006.jpg
162.159	2.344	correct	generate	Run1	generate/STIM_006.jpg
166.816	1.482	correct	generate	Run1	generate/STIM_006.jpg
171.042	2.031	correct	generate	Run1	generate/STIM_006.jpg
176.54	2.252	correct	generate	Run1	generate/STIM_007.jpg
182.71	1.461	incorrect	generate	Run1	generate/STIM_007.jpg
187.961	2.445	correct	generate	Run1	generate/STIM_007.jpg
193.18	2.439	correct	generate	Run1	generate/STIM_007.jpg
199.005	0.991	correct	generate	Run1	generate/STIM_007.jpg
203.234	1.458	correct	generate	Run1	generate/STIM_008.jpg
207.697	2.33	incorrect	generate	Run1	generate/STIM_008.jpg
213.549	1.976	correct	generate	Run1	generate/STIM_008.jpg
218.473	1.241	correct	generate	Run1	generate/STIM_008.jpg
223.249	1.382	correct	generate	Run1	generate/STIM_008.jpg
227.949	1.694	correct	generate	Run1	generate/STIM_009.jpg
231.798	1.534	correct	generate	Run1	generate/STIM_009.jpg
235.534	1.512	correct	generate	Run1	generate/STIM_009.jpg
239.671	2.474	correct	generate	Run1	generate/STIM_009.jpg
245.507	1.597	correct	generate	Run1	generate/STIM_009.jpg
251.102	2.605	correct	generate	Run1	generate/STIM_010.jpg
256.536	2.121	correct	generate	Run1	generate/STIM_010.jpg
261.681	1.253	correct	generate	Run1	generate/STIM_010.jpg
266.825	2.389	correct	generate	Run1	generate/STIM_010.jpg
272.399	2.249	correct	generate	Run1	generate/STIM_010.jpg
277.515	2.18	correct	generate	Run1	generate/STIM_011.jpg
283.301	1.275	correct	generate	Run1	generate/STIM_011.jpg
287.41	2.531	correct	generate	Run1	generate/STIM_011.jpg
293.805	1.759	incorrect	generate	Run1	generate/STIM_011.jpg
299.224	1.813	correct	generate	Run1	generate/STIM_011.jpg
303.683	2.45	incorrect	generate	Run1	generate/STIM_012.jpg
310.119	2.691	correct	generate	Run1	generate/STIM_012.jpg
314.891	2.342	correct	generate	Run1	generate/STIM_012.jpg
320.69	1.064	correct	generate	Run1	generate/STIM_012.jpg
325.39	2.21	correct	generate	Run1	generate/STIM_012.jpg
330.338	1.372	correct	generate	Run1	generate/STIM_013.jpg
335.563	1.31	correct	generate	Run1	generate/STIM_013.jpg
338.992	2.025	incorrect	generate	Run1	generate/STIM_013.jpg
343.051	1.195	correct	generate	Run1	generate/STIM_013.jpg
346.474	0.943	correct	generate	Run1	generate/STIM_013.jpg
349.636	2.479	correct	generate	Run1	generate/STIM_014.jpg
356.092	1.729	correct	generate	Run1	generate/STIM_014.jpg
360.427	2.634	correct	generate	Run1	generate/STIM_014.jpg
366.959	1.412	correct	generate	Run1	generate/STIM_014.jpg
371.686	2.235	correct	generate	Run1	generate/STIM_014.jpg
376.64	2.148	correct	generate	Run1	generate/STIM_015.jpg
381.055	2.227	correct	generate	Run1	generate/STIM_015.jpg
386.28	2.169	correct	generate	Run1	generate/STIM_015.jpg
391.634	1.962	correct	generate	Run1	generate/STIM_015.jpg
397.362	1.604	correct	generate	Run1	generate/STIM_015.jpg
401.268	2.728	correct	generate	Run1	generate/STIM_016.jpg
407.451	1.473	correct	generate	Run1	generate/STIM_016.jpg
411.359	2.022	correct	generate	Run1	generate/STIM_016.jpg
416.859	2.276	correct	generate	Run1	generate/STIM_016.jpg
421.237	1.96	correct	generate	Run1	generate/STIM_016.jpg
426.965	2.919	correct	generate	Run1	generate/STIM_017.jpg
432.067	1.953	correct	generate	Run1	generate/STIM_017.jpg
437.079	1.748	correct	generate	Run1	generate/STIM_017.jpg
442.656	2.327	correct	generate	Run1	generate/STIM_017.jpg
447.219	1.68	correct	generate	Run1	generate/STIM_017.jpg
451.539	1.457	correct	generate	Run1	generate/STIM_018.jpg
456.561	2.718	correct	generate	Run1	generate/STIM_018.jpg
462.71	1.909	correct	generate	Run1	generate/STIM_018.jpg
467.793	2.228	correct	generate	Run1	generate/STIM_018.jpg
472.167	1.158	correct	generate	Run1	generate/STIM_018.jpg
477.015	1.594	correct	generate	Run1	generate/STIM_019.jpg
481.545	1.227	correct	generate	Run1	generate/STIM_019.jpg
485.405	2.128	incorrect	generate	Run1	generate/STIM_019.jpg
490.93	2.027	correct	generate	Run1	generate/STIM_019.jpg
496.625	1.745	correct	generate	Run1	generate/STIM_019.jpg
500.431	1.588	correct	generate	Run1	generate/STIM_020.jpg
505.389	1.566	correct	generate	Run1	generate/STIM_020.jpg
509.785	1.871	correct	generate	Run1	generate/STIM_020.jpg
515.44	1.914	correct	generate	Run1	generate/STIM_020.jpg
520.237	1.374	correct	generate	Run1	generate/STIM_020.jpg
524.28	2.102	correct	generate	Run1	generate/STIM_021.jpg
528.601	1.596	correct	generate	Run1	generate/STIM_021.jpg
533.255	2.169	correct	generate	Run1	generate/STIM_021.jpg
537.892	1.762	correct	generate	Run1	generate/STIM_021.jpg
542.185	1.279	correct	generate	Run1	generate/STIM_021.jpg
545.56	2.919	correct	generate	Run1	generate/STIM_022.jpg
551.321	1.28	incorrect	generate	Run1	generate/STIM_022.jpg
556.568	2.422	correct	generate	Run1	generate/STIM_022.jpg
561.843	1.782	correct	generate	Run1	generate/STIM_022.jpg
567.012	1.453	correct	generate	Run1	generate/STIM_022.jpg
570.492	2.386	correct	generate	Run1	generate/STIM_023.jpg
576.455	1.998	correct	generate	Run1	generate/STIM_023.jpg
582.205	2.014	correct	generate	Run1	generate/STIM_023.jpg
588.21	1.796	correct	generate	Run1	generate/STIM_023.jpg
592.991	1.23	correct	generate	Run1	generate/STIM_023.jpg
598.18	1.647	correct	generate	Run1	generate/STIM_024.jpg
601.896	2.792	correct	generate	Run1	generate/STIM_024.jpg
606.887	1.608	correct	generate	Run1	generate/STIM_024.jpg
611.136	1.864	correct	generate	Run1	generate/STIM_024.jpg
616.523	1.633	correct	generate	Run1	generate/STIM_024.jpg
621.145	0.686	correct	repeat	Run1	repeat/STIM_000.jpg
624.106	0.763	correct	repeat	Run1	repeat/STIM_000.jpg
626.986	0.647	correct	repeat	Run1	repeat/STIM_000.jpg
630.158	0.696	correct	repeat	Run1	repeat/STIM_000.jpg
634.247	0.603	correct	repeat	Run1	repeat/STIM_000.jpg
637.216	0.826	correct	repeat	Run1	repeat/STIM_001.jpg
640.109	0.966	correct	repeat	Run1	repeat/STIM_001.jpg
644.963	0.9	correct	repeat	Run1	repeat/STIM_001.jpg
647.952	0.876	correct	repeat	Run1	repeat/STIM_001.jpg
650.983	0.559	correct	repeat	Run1	repeat/STIM_001.jpg
655.001	0.916	correct	repeat	Run1	repeat/STIM_002.jpg
658.36	0.92	correct	repeat	Run1	repeat/STIM_002.jpg
662.278	0.698	correct	repeat	Run1	repeat/STIM_002.jpg
665.586	0.869	incorrect	repeat	Run1	repeat/STIM_002.jpg
668.919	0.621	correct	repeat	Run1	repeat/STIM_002.jpg
671.725	0.843	correct	repeat	Run1	repeat/STIM_003.jpg
675.105	0.627	incorrect	repeat	Run1	repeat/STIM_003.jpg
679.521	0.586	correct	repeat	Run1	repeat/STIM_003.jpg
683.618	0.556	correct	repeat	Run1	repeat/STIM_003.jpg
687.335	0.75	correct	repeat	Run1	repeat/STIM_003.jpg
691.592	0.619	correct	repeat	Run1	repeat/STIM_004.jpg
695.506	0.843	correct	repeat	Run1	repeat/STIM_004.jpg
698.389	0.967	correct	repeat	Run1	repeat/STIM_004.jpg
702.187	0.702	correct	repeat	Run1	repeat/STIM_004.jpg
706.18	0.755	correct	repeat	Run1	repeat/STIM_004.jpg
709.387	0.894	correct	repeat	Run1	repeat/STIM_005.jpg
714.07	0.912	correct	repeat	Run1	repeat/STIM_005.jpg
717.751	0.897	correct	repeat	Run1	repeat/STIM_005.jpg
722.318	0.935	correct	repeat	Run1	repeat/STIM_005.jpg
725.514	0.727	correct	repeat	Run1	repeat/STIM_005.jpg
728.633	0.784	correct	repeat	Run1	repeat/STIM_006.jpg
732.419	0.787	correct	repeat	Run1	repeat/STIM_006.jpg
735.993	0.677	correct	repeat	Run1	repeat/STIM_006.jpg
739.339	0.589	correct	repeat	Run1	repeat/STIM_006.jpg
743.704	0.849	incorrect	repeat	Run1	repeat/STIM_006.jpg
748.348	0.846	correct	repeat	Run1	repeat/STIM_007.jpg
752.645	0.902	correct	repeat	Run1	repeat/STIM_007.jpg
757.095	0.582	correct	repeat	Run1	repeat/STIM_007.jpg
760.573	0.895	incorrect	repeat	Run1	repeat/STIM_007.jpg
763.806	0.508	correct	repeat	Run1	repeat/STIM_007.jpg
767.003	0.619	correct	repeat	Run1	repeat/STIM_008.jpg
771.581	0.565	correct	repeat	Run1	repeat/STIM_008.jpg
775.64	0.81	correct	repeat	Run1	repeat/STIM_008.jpg
779.067	0.819	correct	repeat	Run1	repeat/STIM_008.jpg
782.423	0.65	incorrect	repeat	Run1	repeat/STIM_008.jpg
786.373	0.593	correct	repeat	Run1	repeat/STIM_009.jpg
790.096	0.531	correct	repeat	Run1	repeat/STIM_009.jpg
793.814	0.858	correct	repeat	Run1	repeat/STIM_009.jpg
798.067	0.649	correct	repeat	Run1	repeat/STIM_009.jpg
801.322	0.656	correct	repeat	Run1	repeat/STIM_009.jpg
805.463	0.748	correct	repeat	Run1	repeat/STIM_010.jpg
808.251	0.73	correct	repeat	Run1	repeat/STIM_010.jpg
811.862	0.634	correct	repeat	Run1	repeat/STIM_010.jpg
814.62	0.893	correct	repeat	Run1	repeat/STIM_010.jpg
818.023	0.821	correct	repeat	Run1	repeat/STIM_010.jpg
821.757	0.906	correct	repeat	Run1	repeat/STIM_011.jpg
825.842	0.69	correct	repeat	Run1	repeat/STIM_011.jpg
829.137	0.813	correct	repeat	Run1	repeat/STIM_011.jpg
832.762	0.637	correct	repeat	Run1	repeat/STIM_011.jpg
837.137	0.695	correct	repeat	Run1	repeat/STIM_011.jpg
839.92	0.519	correct	repeat	Run1	repeat/STIM_012.jpg
843.321	0.559	incorrect	repeat	Run1	repeat/STIM_012.jpg
846.096	0.709	correct	repeat	Run1	repeat/STIM_012.jpg
849.615	0.886	correct	repeat	Run1	repeat/STIM_012.jpg
853.496	0.792	correct	repeat	Run1	repeat/STIM_012.jpg
857.936	0.702	correct	repeat	Run1	repeat/STIM_013.jpg
862.407	0.66	correct	repeat	Run1	repeat/STIM_013.jpg
865.705	0.802	correct	repeat	Run1	repeat/STIM_013.jpg
870.381	0.645	correct	repeat	Run1	repeat/STIM_013.jpg
874.67	0.837	correct	repeat	Run1	repeat/STIM_013.jpg
877.599	0.654	correct	repeat	Run1	repeat/STIM_014.jpg
880.822	0.626	correct	repeat	Run1	repeat/STIM_014.jpg
885.334	0.871	correct	repeat	Run1	repeat/STIM_014.jpg
890.143	0.626	correct	repeat	Run1	repeat/STIM_014.jpg
893.289	0.727	correct	repeat	Run1	repeat/STIM_014.jpg
896.586	1.704	correct	generate	Run2	generate/STIM_000.jpg
901.781	1.22	correct	generate	Run2	generate/STIM_000.jpg
905.313	1.954	correct	generate	Run2	generate/STIM_000.jpg
910.99	1.912	correct	generate	Run2	generate/STIM_000.jpg
916.691	1.482	correct	generate	Run2	generate/STIM_000.jpg
921.474	1.44	correct	generate	Run2	generate/STIM_001.jpg
925.351	1.31	correct	generate	Run2	generate/STIM_001.jpg
929.675	0.937	correct	generate	Run2	generate/STIM_001.jpg
934.587	2.048	correct	generate	Run2	generate/STIM_001.jpg
940.554	1.659	correct	generate	Run2	generate/STIM_001.jpg
945.347	1.422	correct	generate	Run2	generate/STIM_002.jpg
948.824	1.583	correct	generate	Run2	generate/STIM_002.jpg
953.705	1.243	correct	generate	Run2	generate/STIM_002.jpg
958.227	0.933	incorrect	generate	Run2	generate/STIM_002.jpg
962.699	1.073	correct	generate	Run2	generate/STIM_002.jpg
966.219	1.577	correct	generate	Run2	generate/STIM_003.jpg
970.756	0.983	correct	generate	Run2	generate/STIM_003.jpg
975.218	1.529	correct	generate	Run2	generate/STIM_003.jpg
979.03	0.976	correct	generate	Run2	generate/STIM_003.jpg
983.943	0.838	correct	generate	Run2	generate/STIM_003.jpg
988.362	1.579	correct	generate	Run2	generate/STIM_004.jpg
993.703	2.027	correct	generate	Run2	generate/STIM_004.jpg
999.727	1.807	correct	generate	Run2	generate/STIM_004.jpg
1003.592	1.84	correct	generate	Run2	generate/STIM_004.jpg
1007.514	0.9	correct	generate	Run2	generate/STIM_004.jpg
1011.244	1.393	correct	generate	Run2	generate/STIM_005.jpg
1016.292	1.153	correct	generate	Run2	generate/STIM_005.jpg
1019.802	1.807	correct	generate	Run2	generate/STIM_005.jpg
1023.939	1.902	correct	generate	Run2	generate/STIM_005.jpg
1028.926	0.918	correct	generate	Run2	generate/STIM_005.jpg
1032.062	1.736	correct	generate	Run2	generate/STIM_006.jpg
1037.464	2.062	correct	generate	Run2	generate/STIM_006.jpg
1041.859	2.126	correct	generate	Run2	generate/STIM_006.jpg
1047.123	1.463	correct	generate	Run2	generate/STIM_006.jpg
1051.158	1.832	correct	generate	Run2	generate/STIM_006.jpg
1055.019	1.615	correct	generate	Run2	generate/STIM_007.jpg
1059.538	1.776	correct	generate	Run2	generate/STIM_007.jpg
1063.76	1.768	incorrect	generate	Run2	generate/STIM_007.jpg
1068.963	2.014	correct	generate	Run2	generate/STIM_007.jpg
1073.894	1.188	correct	generate	Run2	generate/STIM_007.jpg
1078.537	1.141	correct	generate	Run2	generate/STIM_008.jpg
1083.613	2.325	correct	generate	Run2	generate/STIM_008.jpg
1088.163	1.848	correct	generate	Run2	generate/STIM_008.jpg
1092.331	1.194	correct	generate	Run2	generate/STIM_008.jpg
1097.163	1.954	correct	generate	Run2	generate/STIM_008.jpg
1102.951	1.415	correct	generate	Run2	generate/STIM_009.jpg
1107.411	2.18	correct	generate	Run2	generate/STIM_009.jpg
1112.242	1.541	incorrect	generate	Run2	generate/STIM_009.jpg
1116.817	1.36	correct	generate	Run2	generate/STIM_009.jpg
1121.89	1.122	correct	generate	Run2	generate/STIM_009.jpg
1125.977	1.039	correct	generate	Run2	generate/STIM_010.jpg
1129.901	1.813	correct	generate	Run2	generate/STIM_010.jpg
1135.706	2.161	correct	generate	Run2	generate/STIM_010.jpg
1141.389	1.087	correct	generate	Run2	generate/STIM_010.jpg
1145.628	1.489	correct	generate	Run2	generate/STIM_010.jpg
1150.015	1.794	correct	generate	Run2	generate/STIM_011.jpg
1154.021	1.481	correct	generate	Run2	generate/STIM_011.jpg
1157.904	1.479	correct	generate	Run2	generate/STIM_011.jpg
1161.507	1.843	correct	generate	Run2	generate/STIM_011.jpg
1166.122	1.073	correct	generate	Run2	generate/STIM_011.jpg
1169.709	1.54	correct	generate	Run2	generate/STIM_012.jpg
1173.884	1.56	correct	generate	Run2	generate/STIM_012.jpg
1179.033	1.577	correct	generate	Run2	generate/STIM_012.jpg
1182.806	1.57	correct	generate	Run2	generate/STIM_012.jpg
1187.757	1.127	correct	generate	Run2	generate/STIM_012.jpg
1192.149	1.491	correct	generate	Run2	generate/STIM_013.jpg
1197.471	1.804	correct	generate	Run2	generate/STIM_013.jpg
1202.968	1.026	correct	generate	Run2	generate/STIM_013.jpg
1207.752	0.932	correct	generate	Run2	generate/STIM_013.jpg
1211.757	1.218	correct	generate	Run2	generate/STIM_013.jpg
1215.196	2.347	correct	generate	Run2	generate/STIM_014.jpg
1220.4	1.118	correct	generate	Run2	generate/STIM_014.jpg
1224.618	0.95	incorrect	generate	Run2	generate/STIM_014.jpg
1227.646	2.036	correct	generate	Run2	generate/STIM_014.jpg
1233.445	1.286	correct	generate	Run2	generate/STIM_014.jpg
1238.439	1.257	correct	generate	Run2	generate/STIM_015.jpg
1242.029	2.099	correct	generate	Run2	generate/STIM_015.jpg
1248.053	1.224	correct	generate	Run2	generate/STIM_015.jpg
1252.593	1.753	correct	generate	Run2	generate/STIM_015.jpg
1257.559	2.001	correct	generate	Run2	generate/STIM_015.jpg
1262.336	2.162	correct	generate	Run2	generate/STIM_016.jpg
1267.27	2.195	correct	generate	Run2	generate/STIM_016.jpg
1271.987	0.913	correct	generate	Run2	generate/STIM_016.jpg
1275.153	0.916	correct	generate	Run2	generate/STIM_016.jpg
1278.446	1.09	correct	generate	Run2	generate/STIM_016.jpg
1281.843	1.597	correct	generate	Run2	generate/STIM_017.jpg
1286.073	1.846	incorrect	generate	Run2	generate/STIM_017.jpg
1290.293	1.925	correct	generate	Run2	generate/STIM_017.jpg
1295.554	0.83	correct	generate	Run2	generate/STIM_017.jpg
1298.661	1.194	correct	generate	Run2	generate/STIM_017.jpg
1303.419	2.404	correct	generate	Run2	generate/STIM_018.jpg
1309.22	1.771	correct	generate	Run2	generate/STIM_018.jpg
1313.178	1.642	correct	generate	Run2	generate/STIM_018.jpg
1317.734	1.879	correct	generate	Run2	generate/STIM_018.jpg
1323.071	1.476	correct	generate	Run2	generate/STIM_018.jpg
1327.999	1.687	correct	generate	Run2	generate/STIM_019.jpg
1332.271	2.079	correct	generate	Run2	generate/STIM_019.jpg
1337.964	1.272	correct	generate	Run2	generate/STIM_019.jpg
1342.688	1.907	correct	generate	Run2	generate/STIM_019.jpg
1348.522	1.671	correct	generate	Run2	generate/STIM_019.jpg
1352.254	2.285	incorrect	generate	Run2	generate/STIM_020.jpg
1356.888	1.355	correct	generate	Run2	generate/STIM_020.jpg
1361.427	1.66	correct	generate	Run2	generate/STIM_020.jpg
1366.19	1.314	correct	generate	Run2	generate/STIM_020.jpg
1369.652	1.082	correct	generate	Run2	generate/STIM_020.jpg
1374.406	1.103	correct	generate	Run2	generate/STIM_021.jpg
1378.638	1.906	correct	generate	Run2	generate/STIM_021.jpg
1383.971	1.56	correct	generate	Run2	generate/STIM_021.jpg
1387.838	1.408	correct	generate	Run2	generate/STIM_021.jpg
1391.824	1.887	correct	generate	Run2	generate/STIM_021.jpg
1396.015	2.465	correct	generate	Run2	generate/STIM_022.jpg
1401.776	1.222	correct	generate	Run2	generate/STIM_022.jpg
1405.974	1.264	correct	generate	Run2	generate/STIM_022.jpg
1410.524	1.434	correct	generate	Run2	generate/STIM_022.jpg
1415.315	1.304	correct	generate	Run2	generate/STIM_022.jpg
1420.033	1.117	correct	generate	Run2	generate/STIM_023.jpg
1423.785	1.2	correct	generate	Run2	generate/STIM_023.jpg
1427.213	1.096	correct	generate	Run2	generate/STIM_023.jpg
1430.559	0.829	correct	generate	Run2	generate/STIM_023.jpg
1434.825	2.044	correct	generate	Run2	generate/STIM_023.jpg
1439.773	1.726	correct	generate	Run2	generate/STIM_024.jpg
1444.282	1.378	correct	generate	Run2	generate/STIM_024.jpg
1447.977	1.069	correct	generate	Run2	generate/STIM_024.jpg
1451.78	1.726	correct	generate	Run2	generate/STIM_024.jpg
1455.543	1.378	correct	generate	Run2	generate/STIM_024.jpg
1460.674	0.896	correct	repeat	Run2	repeat/STIM_000.jpg
1464.682	0.562	correct	repeat	Run2	repeat/STIM_000.jpg
1467.808	0.745	correct	repeat	Run2	repeat/STIM_000.jpg
1471.436	0.97	incorrect	repeat	Run2	repeat/STIM_000.jpg
1475.695	0.832	correct	repeat	Run2	repeat/STIM_000.jpg
1479.096	0.632	correct	repeat	Run2	repeat/STIM_001.jpg
1483.484	0.505	correct	repeat	Run2	repeat/STIM_001.jpg
1486.184	0.737	correct	repeat	Run2	repeat/STIM_001.jpg
1490.213	0.81	correct	repeat	Run2	repeat/STIM_001.jpg
1494.178	0.906	correct	repeat	Run2	repeat/STIM_001.jpg
1498.6	0.491	correct	repeat	Run2	repeat/STIM_002.jpg
1502.899	0.55	correct	repeat	Run2	repeat/STIM_002.jpg
1506.108	0.779	correct	repeat	Run2	repeat/STIM_002.jpg
1510.481	0.706	correct	repeat	Run2	repeat/STIM_002.jpg
1514.661	0.975	correct	repeat	Run2	repeat/STIM_002.jpg
1518.217	0.871	correct	repeat	Run2	repeat/STIM_003.jpg
1522.819	0.684	correct	repeat	Run2	repeat/STIM_003.jpg
1527.317	0.636	correct	repeat	Run2	repeat/STIM_003.jpg
1530.756	0.808	correct	repeat	Run2	repeat/STIM_003.jpg
1534.581	0.636	correct	repeat	Run2	repeat/STIM_003.jpg
1537.77	0.864	correct	repeat	Run2	repeat/STIM_004.jpg
1541.254	0.733	correct	repeat	Run2	repeat/STIM_004.jpg
1545.408	0.517	correct	repeat	Run2	repeat/STIM_004.jpg
1548.008	0.98	correct	repeat	Run2	repeat/STIM_004.jpg
1552.895	0.851	correct	repeat	Run2	repeat/STIM_004.jpg
1557.223	0.747	correct	repeat	Run2	repeat/STIM_005.jpg
1560.007	0.697	correct	repeat	Run2	repeat/STIM_005.jpg
1562.904	0.908	correct	repeat	Run2	repeat/STIM_005.jpg
1566.276	0.582	correct	repeat	Run2	repeat/STIM_005.jpg
1569.309	0.732	correct	repeat	Run2	repeat/STIM_005.jpg
1573.301	0.946	correct	repeat	Run2	repeat/STIM_006.jpg
1577.552	0.718	correct	repeat	Run2	repeat/STIM_006.jpg
1581.834	0.517	correct	repeat	Run2	repeat/STIM_006.jpg
1584.429	0.741	correct	repeat	Run2	repeat/STIM_006.jpg
1588.376	0.693	correct	repeat	Run2	repeat/STIM_006.jpg
1592.94	0.855	correct	repeat	Run2	repeat/STIM_007.jpg
1596.485	0.862	correct	repeat	Run2	repeat/STIM_007.jpg
1600.535	0.81	correct	repeat	Run2	repeat/STIM_007.jpg
1603.979	0.863	correct	repeat	Run2	repeat/STIM_007.jpg
1608.258	0.64	correct	repeat	Run2	repeat/STIM_007.jpg
1612.318	0.534	correct	repeat	Run2	repeat/STIM_008.jpg
1614.856	0.674	correct	repeat	Run2	repeat/STIM_008.jpg
1619.343	0.804	correct	repeat	Run2	repeat/STIM_008.jpg
1622.792	0.616	correct	repeat	Run2	repeat/STIM_008.jpg
1626.799	0.705	correct	repeat	Run2	repeat/STIM_008.jpg
1631.29	0.499	correct	repeat	Run2	repeat/STIM_009.jpg
1635.733	0.853	correct	repeat	Run2	repeat/STIM_009.jpg
1638.749	0.926	correct	repeat	Run2	repeat/STIM_009.jpg
1642.767	0.643	correct	repeat	Run2	repeat/STIM_009.jpg
1646.369	0.516	correct	repeat	Run2	repeat/STIM_009.jpg
1649.509	0.538	correct	repeat	Run2	repeat/STIM_010.jpg
1652.075	0.882	correct	repeat	Run2	repeat/STIM_010.jpg
1656.48	0.947	correct	repeat	Run2	repeat/STIM_010.jpg
1659.601	0.907	correct	repeat	Run2	repeat/STIM_010.jpg
1663.336	0.787	correct	repeat	Run2	repeat/STIM_010.jpg
1666.811	0.932	correct	repeat	Run2	repeat/STIM_011.jpg
1670.931	0.64	correct	repeat	Run2	repeat/STIM_011.jpg
1673.807	0.703	correct	repeat	Run2	repeat/STIM_011.jpg
1676.965	0.508	correct	repeat	Run2	repeat/STIM_011.jpg
1681.171	0.658	correct	repeat	Run2	repeat/STIM_011.jpg
1685.712	0.727	correct	repeat	Run2	repeat/STIM_012.jpg
1689.824	0.932	correct	repeat	Run2	repeat/STIM_012.jpg
1693.028	0.956	correct	repeat	Run2	repeat/STIM_012.jpg
1696.882	0.781	correct	repeat	Run2	repeat/STIM_012.jpg
1700.602	0.58	correct	repeat	Run2	repeat/STIM_012.jpg
1704.759	0.75	correct	repeat	Run2	repeat/STIM_013.jpg
1708.592	0.826	correct	repeat	Run2	repeat/STIM_013.jpg
1712.789	0.668	correct	repeat	Run2	repeat/STIM_013.jpg
1717.424	0.928	correct	repeat	Run2	repeat/STIM_013.jpg
1722.271	0.616	correct	repeat	Run2	repeat/STIM_013.jpg
1725.795	0.842	correct	repeat	Run2	repeat/STIM_014.jpg
1730.445	0.63	correct	repeat	Run2	repeat/STIM_014.jpg
1733.206	0.656	correct	repeat	Run2	repeat/STIM_014.jpg
1736.596	0.645	correct	repeat	Run2	repeat/STIM_014.jpg
1739.783	0.903	correct	repeat	Run2	repeat/STIM_014.jpg
1743.465	1.327	correct	generate	Run3	generate/STIM_000.jpg
1748.036	0.856	correct	generate	Run3	generate/STIM_000.jpg
1752.454	0.977	correct	generate	Run3	generate/STIM_000.jpg
1755.629	1.848	correct	generate	Run3	generate/STIM_000.jpg
1760.458	1.005	correct	generate	Run3	generate/STIM_000.jpg
1763.611	1.28	correct	generate	Run3	generate/STIM_001.jpg
1768.888	1.03	correct	generate	Run3	generate/STIM_001.jpg
1772.818	1.458	correct	generate	Run3	generate/STIM_001.jpg
1776.498	1.495	correct	generate	Run3	generate/STIM_001.jpg
1781.67	1.083	correct	generate	Run3	generate/STIM_001.jpg
1784.927	1.019	correct	generate	Run3	generate/STIM_002.jpg
1788.566	1.425	correct	generate	Run3	generate/STIM_002.jpg
1793.536	1.608	correct	generate	Run3	generate/STIM_002.jpg
1798.318	0.88	correct	generate	Run3	generate/STIM_002.jpg
1801.384	2.033	correct	generate	Run3	generate/STIM_002.jpg
1807.006	1.142	correct	generate	Run3	generate/STIM_003.jpg
1812.082	1.231	correct	generate	Run3	generate/STIM_003.jpg
1817.062	1.119	correct	generate	Run3	generate/STIM_003.jpg
1821.361	1.955	correct	generate	Run3	generate/STIM_003.jpg
1827.018	1.734	correct	generate	Run3	generate/STIM_003.jpg
1832.576	1.996	correct	generate	Run3	generate/STIM_004.jpg
1837.879	1.326	correct	generate	Run3	generate/STIM_004.jpg
1843.025	1.907	correct	generate	Run3	generate/STIM_004.jpg
1848.889	1.129	correct	generate	Run3	generate/STIM_004.jpg
1852.996	1.222	correct	generate	Run3	generate/STIM_004.jpg
1857.964	0.879	correct	generate	Run3	generate/STIM_005.jpg
1861.159	1.14	correct	generate	Run3	generate/STIM_005.jpg
1864.64	1.989	correct	generate	Run3	generate/STIM_005.jpg
1869.404	1.627	correct	generate	Run3	generate/STIM_005.jpg
1873.914	1.909	correct	generate	Run3	generate/STIM_005.jpg
1878.248	1.907	correct	generate	Run3	generate/STIM_006.jpg
1883.033	1.416	correct	generate	Run3	generate/STIM_006.jpg
1887.189	1.669	correct	generate	Run3	generate/STIM_006.jpg
1891.25	1.427	correct	generate	Run3	generate/STIM_006.jpg
1895.499	1.958	correct	generate	Run3	generate/STIM_006.jpg
1899.487	0.837	correct	generate	Run3	generate/STIM_007.jpg
1902.329	1.771	incorrect	generate	Run3	generate/STIM_007.jpg
1906.193	1.736	correct	generate	Run3	generate/STIM_007.jpg
1911.274	1.584	correct	generate	Run3	generate/STIM_007.jpg
1916.061	1.088	correct	generate	Run3	generate/STIM_007.jpg
1919.895	1.575	correct	generate	Run3	generate/STIM_008.jpg
1925.099	1.132	correct	generate	Run3	generate/STIM_008.jpg
1929.653	1.702	correct	generate	Run3	generate/STIM_008.jpg
1933.663	0.948	correct	generate	Run3	generate/STIM_008.jpg
1936.73	1.519	correct	generate	Run3	generate/STIM_008.jpg
1940.827	1.319	correct	generate	Run3	generate/STIM_009.jpg
1945.584	1.093	correct	generate	Run3	generate/STIM_009.jpg
1950.599	1.425	correct	generate	Run3	generate/STIM_009.jpg
1954.413	1.282	correct	generate	Run3	generate/STIM_009.jpg
1959.013	2.038	correct	generate	Run3	generate/STIM_009.jpg
1963.625	1.529	correct	generate	Run3	generate/STIM_010.jpg
1967.556	0.884	correct	generate	Run3	generate/STIM_010.jpg
1971.422	0.986	correct	generate	Run3	generate/STIM_010.jpg
1974.975	0.91	correct	generate	Run3	generate/STIM_010.jpg
1978.04	0.995	correct	generate	Run3	generate/STIM_010.jpg
1981.152	1.93	correct	generate	Run3	generate/STIM_011.jpg
1986.948	1.01	correct	generate	Run3	generate/STIM_011.jpg
1990.01	1.398	correct	generate	Run3	generate/STIM_011.jpg
1994.362	1.206	correct	generate	Run3	generate/STIM_011.jpg
1998.891	0.888	correct	generate	Run3	generate/STIM_011.jpg
2002.97	1.635	correct	generate	Run3	generate/STIM_012.jpg
2008.567	1.311	correct	generate	Run3	generate/STIM_012.jpg
2013.855	0.904	correct	generate	Run3	generate/STIM_012.jpg
2018.041	1.336	correct	generate	Run3	generate/STIM_012.jpg
2022.914	1.236	correct	generate	Run3	generate/STIM_012.jpg
2026.175	1.783	correct	generate	Run3	generate/STIM_013.jpg
2031.797	1.194	correct	generate	Run3	generate/STIM_013.jpg
2035.199	0.861	correct	generate	Run3	generate/STIM_013.jpg
2038.599	1.934	correct	generate	Run3	generate/STIM_013.jpg
2044.433	1.865	correct	generate	Run3	generate/STIM_013.jpg
2048.792	0.874	correct	generate	Run3	generate/STIM_014.jpg
2051.814	0.849	correct	generate	Run3	generate/STIM_014.jpg
2055.707	1.932	correct	generate	Run3	generate/STIM_014.jpg
2060.478	1.805	correct	generate	Run3	generate/STIM_014.jpg
2065.389	1.373	correct	generate	Run3	generate/STIM_014.jpg
2070.424	0.911	correct	generate	Run3	generate/STIM_015.jpg
2073.541	1.486	correct	generate	Run3	generate/STIM_015.jpg
2077.052	1.875	correct	generate	Run3	generate/STIM_015.jpg
2081.44	1.12	correct	generate	Run3	generate/STIM_015.jpg
2085.316	1.152	correct	generate	Run3	generate/STIM_015.jpg
2089.273	1.32	correct	generate	Run3	generate/STIM_016.jpg
2093.312	0.991	correct	generate	Run3	generate/STIM_016.jpg
2097.483	1.354	correct	generate	Run3	generate/STIM_016.jpg
2102.345	1.294	correct	generate	Run3	generate/STIM_016.jpg
2107.389	1.319	correct	generate	Run3	generate/STIM_016.jpg
2111.787	1.965	correct	generate	Run3	generate/STIM_017.jpg
2115.93	0.922	correct	generate	Run3	generate/STIM_017.jpg
2118.96	1.24	correct	generate	Run3	generate/STIM_017.jpg
2122.769	1.667	correct	generate	Run3	generate/STIM_017.jpg
2126.854	1.464	correct	generate	Run3	generate/STIM_017.jpg
2131.284	1.595	correct	generate	Run3	generate/STIM_018.jpg
2135.511	1.38	correct	generate	Run3	generate/STIM_018.jpg
2140.647	1.27	correct	generate	Run3	generate/STIM_018.jpg
2145.242	1.37	correct	generate	Run3	generate/STIM_018.jpg
2150.285	1.121	correct	generate	Run3	generate/STIM_018.jpg
2153.723	1.088	correct	generate	Run3	generate/STIM_019.jpg
2158.304	1.143	correct	generate	Run3	generate/STIM_019.jpg
2163.231	1.47	correct	generate	Run3	generate/STIM_019.jpg
2167.756	1.079	correct	generate	Run3	generate/STIM_019.jpg
2171.392	1.729	correct	generate	Run3	generate/STIM_019.jpg
2175.849	1.74	correct	generate	Run3	generate/STIM_020.jpg
2179.734	1.389	correct	generate	Run3	generate/STIM_020.jpg
2184.248	1.143	correct	generate	Run3	generate/STIM_020.jpg
2187.466	1.356	correct	generate	Run3	generate/STIM_020.jpg
2192.475	1.717	correct	generate	Run3	generate/STIM_020.jpg
2196.256	1.68	correct	generate	Run3	generate/STIM_021.jpg
2201.077	0.856	correct	generate	Run3	generate/STIM_021.jpg
2205.539	2.051	correct	generate	Run3	generate/STIM_021.jpg
2210.853	0.84	correct	generate	Run3	generate/STIM_021.jpg
2215.163	1.451	correct	generate	Run3	generate/STIM_021.jpg
2220.384	1.971	correct	generate	Run3	generate/STIM_022.jpg
2225.465	1.065	correct	generate	Run3	generate/STIM_022.jpg
2230.368	1.902	correct	generate	Run3	generate/STIM_022.jpg
2235.649	0.869	correct	generate	Run3	generate/STIM_022.jpg
2239.532	0.963	correct	generate	Run3	generate/STIM_022.jpg
2243.01	1.33	correct	generate	Run3	generate/STIM_023.jpg
2246.389	1.5	correct	generate	Run3	generate/STIM_023.jpg
2251.102	1.485	correct	generate	Run3	generate/STIM_023.jpg
2255.989	0.953	correct	generate	Run3	generate/STIM_023.jpg
2260.703	1.138	correct	generate	Run3	generate/STIM_023.jpg
2265.123	1.368	correct	generate	Run3	generate/STIM_024.jpg
2268.923	1.96	correct	generate	Run3	generate/STIM_024.jpg
2274.088	1.372	correct	generate	Run3	generate/STIM_024.jpg
2278.635	1.904	correct	generate	Run3	generate/STIM_024.jpg
2284.06	1.192	correct	generate	Run3	generate/STIM_024.jpg
2287.266	0.702	correct	repeat	Run3	repeat/STIM_000.jpg
2291.455	0.492	correct	repeat	Run3	repeat/STIM_000.jpg
2295.357	0.648	correct	repeat	Run3	repeat/STIM_000.jpg
2298.233	0.735	incorrect	repeat	Run3	repeat/STIM_000.jpg
2300.985	0.671	correct	repeat	Run3	repeat/STIM_000.jpg
2305.29	0.633	correct	repeat	Run3	repeat/STIM_001.jpg
2309.276	0.821	correct	repeat	Run3	repeat/STIM_001.jpg
2312.285	0.677	correct	repeat	Run3	repeat/STIM_001.jpg
2316.737	0.973	correct	repeat	Run3	repeat/STIM_001.jpg
2321.003	0.654	correct	repeat	Run3	repeat/STIM_001.jpg
2323.958	0.563	correct	repeat	Run3	repeat/STIM_002.jpg
2328.01	0.573	correct	repeat	Run3	repeat/STIM_002.jpg
2332.577	0.96	correct	repeat	Run3	repeat/STIM_002.jpg
2336.014	0.818	correct	repeat	Run3	repeat/STIM_002.jpg
2340.366	0.744	correct	repeat	Run3	repeat/STIM_002.jpg
2344.671	0.941	correct	repeat	Run3	repeat/STIM_003.jpg
2348.049	0.946	correct	repeat	Run3	repeat/STIM_003.jpg
2351.282	0.616	incorrect	repeat	Run3	repeat/STIM_003.jpg
2354.028	0.766	correct	repeat	Run3	repeat/STIM_003.jpg
2357.087	0.494	correct	repeat	Run3	repeat/STIM_003.jpg
2361.064	0.511	correct	repeat	Run3	repeat/STIM_004.jpg
2365.333	0.501	correct	repeat	Run3	repeat/STIM_004.jpg
2368.436	0.79	correct	repeat	Run3	repeat/STIM_004.jpg
2371.676	0.939	correct	repeat	Run3	repeat/STIM_004.jpg
2376.397	0.83	correct	repeat	Run3	repeat/STIM_004.jpg
2381.084	0.847	correct	repeat	Run3	repeat/STIM_005.jpg
2384.124	0.699	correct	repeat	Run3	repeat/STIM_005.jpg
2387.212	0.563	correct	repeat	Run3	repeat/STIM_005.jpg
2391.032	0.903	correct	repeat	Run3	repeat/STIM_005.jpg
2393.979	0.74	correct	repeat	Run3	repeat/STIM_005.jpg
2397.233	0.827	correct	repeat	Run3	repeat/STIM_006.jpg
2401.897	0.85	correct	repeat	Run3	repeat/STIM_006.jpg
2404.928	0.55	correct	repeat	Run3	repeat/STIM_006.jpg
2408.649	0.527	correct	repeat	Run3	repeat/STIM_006.jpg
2412.454	0.774	correct	repeat	Run3	repeat/STIM_006.jpg
2416.979	0.725	correct	repeat	Run3	repeat/STIM_007.jpg
2420.736	0.876	correct	repeat	Run3	repeat/STIM_007.jpg
2424.831	0.622	correct	repeat	Run3	repeat/STIM_007.jpg
2428.173	0.592	correct	repeat	Run3	repeat/STIM_007.jpg
2430.786	0.885	correct	repeat	Run3	repeat/STIM_007.jpg
2434.233	0.668	correct	repeat	Run3	repeat/STIM_008.jpg
2437.075	0.806	correct	repeat	Run3	repeat/STIM_008.jpg
2441.573	0.921	correct	repeat	Run3	repeat/STIM_008.jpg
2446.34	0.941	correct	repeat	Run3	repeat/STIM_008.jpg
2449.967	0.608	correct	repeat	Run3	repeat/STIM_008.jpg
2452.731	0.692	correct	repeat	Run3	repeat/STIM_009.jpg
2455.758	0.543	correct	repeat	Run3	repeat/STIM_009.jpg
2458.988	0.73	correct	repeat	Run3	repeat/STIM_009.jpg
2462.774	0.52	correct	repeat	Run3	repeat/STIM_009.jpg
2466.19	0.747	correct	repeat	Run3	repeat/STIM_009.jpg
2469.091	0.652	correct	repeat	Run3	repeat/STIM_010.jpg
2473.3	0.553	correct	repeat	Run3	repeat/STIM_010.jpg
2477.742	0.652	correct	repeat	Run3	repeat/STIM_010.jpg
2480.614	0.938	correct	repeat	Run3	repeat/STIM_010.jpg
2485.187	0.631	correct	repeat	Run3	repeat/STIM_010.jpg
2488.234	0.677	correct	repeat	Run3	repeat/STIM_011.jpg
2491.313	0.716	correct	repeat	Run3	repeat/STIM_011.jpg
2495.019	0.741	correct	repeat	Run3	repeat/STIM_011.jpg
2499.289	0.965	correct	repeat	Run3	repeat/STIM_011.jpg
2502.665	0.554	correct	repeat	Run3	repeat/STIM_011.jpg
2505.941	0.769	correct	repeat	Run3	repeat/STIM_012.jpg
2509.89	0.93	correct	repeat	Run3	repeat/STIM_012.jpg
2514.716	0.718	correct	repeat	Run3	repeat/STIM_012.jpg
2518.54	0.759	correct	repeat	Run3	repeat/STIM_012.jpg
2521.983	0.976	correct	repeat	Run3	repeat/STIM_012.jpg
2526.635	0.522	correct	repeat	Run3	repeat/STIM_013.jpg
2529.962	0.703	correct	repeat	Run3	repeat/STIM_013.jpg
2533.038	0.61	correct	repeat	Run3	repeat/STIM_013.jpg
2537.384	0.603	correct	repeat	Run3	repeat/STIM_013.jpg
2541.276	0.628	correct	repeat	Run3	repeat/STIM_013.jpg
2545.736	0.973	correct	repeat	Run3	repeat/STIM_014.jpg
2548.803	0.822	incorrect	repeat	Run3	repeat/STIM_014.jpg
2551.694	0.928	correct	repeat	Run3	repeat/STIM_014.jpg
2556.542	0.924	correct	repeat	Run3	repeat/STIM_014.jpg
2559.872	0.598	correct	repeat	Run3	repeat/STIM_014.jpg
2564.184	1.813	correct	generate	Run4	generate/STIM_000.jpg
2569.441	1.167	correct	generate	Run4	generate/STIM_000.jpg
2572.931	1.774	correct	generate	Run4	generate/STIM_000.jpg
2578.417	1.366	correct	generate	Run4	generate/STIM_000.jpg
2581.941	1.662	correct	generate	Run4	generate/STIM_000.jpg
2585.645	1.877	correct	generate	Run4	generate/STIM_001.jpg
2590.059	1.954	correct	generate	Run4	generate/STIM_001.jpg
2594.37	1.16	correct	generate	Run4	generate/STIM_001.jpg
2598.757	1.212	correct	generate	Run4	generate/STIM_001.jpg
2602.53	1.196	correct	generate	Run4	generate/STIM_001.jpg
2606.332	0.876	correct	generate	Run4	generate/STIM_002.jpg
2610.753	1.909	correct	generate	Run4	generate/STIM_002.jpg
2614.82	1.28	correct	generate	Run4	generate/STIM_002.jpg
2619.891	1.852	correct	generate	Run4	generate/STIM_002.jpg
2625.085	1.725	correct	generate	Run4	generate/STIM_002.jpg
2630.462	2.042	correct	generate	Run4	generate/STIM_003.jpg
2634.838	1.071	correct	generate	Run4	generate/STIM_003.jpg
2639.371	0.825	correct	generate	Run4	generate/STIM_003.jpg
2643.15	1.775	correct	generate	Run4	generate/STIM_003.jpg
2647.573	1.612	correct	generate	Run4	generate/STIM_003.jpg
2651.761	0.955	correct	generate	Run4	generate/STIM_004.jpg
2655.592	1.456	correct	generate	Run4	generate/STIM_004.jpg
2660.034	0.939	correct	generate	Run4	generate/STIM_004.jpg
2663.62	1.077	correct	generate	Run4	generate/STIM_004.jpg
2668.186	1.768	correct	generate	Run4	generate/STIM_004.jpg
2671.956	0.903	correct	generate	Run4	generate/STIM_005.jpg
2675.533	1.133	correct	generate	Run4	generate/STIM_005.jpg
2678.849	1.369	correct	generate	Run4	generate/STIM_005.jpg
2683.027	1.584	correct	generate	Run4	generate/STIM_005.jpg
2687.477	1.359	correct	generate	Run4	generate/STIM_005.jpg
2692.651	1.375	correct	generate	Run4	generate/STIM_006.jpg
2697.152	1.546	correct	generate	Run4	generate/STIM_006.jpg
2701.597	1.29	correct	generate	Run4	generate/STIM_006.jpg
2706.147	1.725	correct	generate	Run4	generate/STIM_006.jpg
2710.935	1.415	correct	generate	Run4	generate/STIM_006.jpg
2714.56	1.715	correct	generate	Run4	generate/STIM_007.jpg
2718.53	1.55	correct	generate	Run4	generate/STIM_007.jpg
2723.886	0.92	correct	generate	Run4	generate/STIM_007.jpg
2728.565	1.607	correct	generate	Run4	generate/STIM_007.jpg
2732.777	1.732	correct	generate	Run4	generate/STIM_007.jpg
2738.347	1.784	correct	generate	Run4	generate/STIM_008.jpg
2743.22	1.758	correct	generate	Run4	generate/STIM_008.jpg
2747.7	1.015	correct	generate	Run4	generate/STIM_008.jpg
2750.903	1.77	correct	generate	Run4	generate/STIM_008.jpg
2756.281	1.542	correct	generate	Run4	generate/STIM_008.jpg
2761.36	1.062	correct	generate	Run4	generate/STIM_009.jpg
2766.097	1.76	correct	generate	Run4	generate/STIM_009.jpg
2770.223	0.994	correct	generate	Run4	generate/STIM_009.jpg
2774.692	1.412	correct	generate	Run4	generate/STIM_009.jpg
2778.365	1.849	correct	generate	Run4	generate/STIM_009.jpg
2782.464	1.173	correct	generate	Run4	generate/STIM_010.jpg
2786.832	1.488	correct	generate	Run4	generate/STIM_010.jpg
2790.712	1.631	correct	generate	Run4	generate/STIM_010.jpg
2795.765	1.575	correct	generate	Run4	generate/STIM_010.jpg
2799.963	1.874	correct	generate	Run4	generate/STIM_010.jpg
2804.981	1.322	correct	generate	Run4	generate/STIM_011.jpg
2809.419	1.017	correct	generate	Run4	generate/STIM_011.jpg
2812.786	0.952	correct	generate	Run4	generate/STIM_011.jpg
2817.644	1.935	correct	generate	Run4	generate/STIM_011.jpg
2822.043	0.868	correct	generate	Run4	generate/STIM_011.jpg
2825.309	1.907	correct	generate	Run4	generate/STIM_012.jpg
2829.592	1.275	correct	generate	Run4	generate/STIM_012.jpg
2833.459	1.289	correct	generate	Run4	generate/STIM_012.jpg
2836.798	1.4	correct	generate	Run4	generate/STIM_012.jpg
2840.673	1.433	correct	generate	Run4	generate/STIM_012.jpg
2844.482	0.86	correct	generate	Run4	generate/STIM_013.jpg
2848.943	1.31	correct	generate	Run4	generate/STIM_013.jpg
2852.741	1.544	correct	generate	Run4	generate/STIM_013.jpg
2856.546	1.72	correct	generate	Run4	generate/STIM_013.jpg
2860.842	1.737	correct	generate	Run4	generate/STIM_013.jpg
2864.877	1.835	correct	generate	Run4	generate/STIM_014.jpg
2870.35	1.446	correct	generate	Run4	generate/STIM_014.jpg
2874.611	1.483	correct	generate	Run4	generate/STIM_014.jpg
2878.978	0.985	correct	generate	Run4	generate/STIM_014.jpg
2882.449	1.436	correct	generate	Run4	generate/STIM_014.jpg
2886.329	1.38	correct	generate	Run4	generate/STIM_015.jpg
2889.855	0.994	correct	generate	Run4	generate/STIM_015.jpg
2893.491	1.715	correct	generate	Run4	generate/STIM_015.jpg
2898.178	1.562	correct	generate	Run4	generate/STIM_015.jpg
2903.427	1.853	incorrect	generate	Run4	generate/STIM_015.jpg
2908.591	1.617	correct	generate	Run4	generate/STIM_016.jpg
2913.007	1.248	correct	generate	Run4	generate/STIM_016.jpg
2917.975	0.861	correct	generate	Run4	generate/STIM_016.jpg
2921.168	1.8	correct	generate	Run4	generate/STIM_016.jpg
2925.402	1.368	correct	generate	Run4	generate/STIM_016.jpg
2929.645	1.726	correct	generate	Run4	generate/STIM_017.jpg
2933.97	1.184	correct	generate	Run4	generate/STIM_017.jpg
2938.298	1.343	correct	generate	Run4	generate/STIM_017.jpg
2943.272	1.355	correct	generate	Run4	generate/STIM_017.jpg
2947.582	1.358	correct	generate	Run4	generate/STIM_017.jpg
2951.422	1.549	correct	generate	Run4	generate/STIM_018.jpg
2955.201	0.965	correct	generate	Run4	generate/STIM_018.jpg
2959.142	1.726	correct	generate	Run4	generate/STIM_018.jpg
2964.323	1.569	correct	generate	Run4	generate/STIM_018.jpg
2969.216	1.949	correct	generate	Run4	generate/STIM_018.jpg
2974.737	1.188	correct	generate	Run4	generate/STIM_019.jpg
2979.353	1.962	correct	generate	Run4	generate/STIM_019.jpg
2983.355	1.66	correct	generate	Run4	generate/STIM_019.jpg
2987.811	1.919	correct	generate	Run4	generate/STIM_019.jpg
2993.089	1.222	correct	generate	Run4	generate/STIM_019.jpg
2996.695	1.042	correct	generate	Run4	generate/STIM_020.jpg
3000.362	1.727	correct	generate	Run4	generate/STIM_020.jpg
3005.158	0.943	correct	generate	Run4	generate/STIM_020.jpg
3008.586	1.844	correct	generate	Run4	generate/STIM_020.jpg
3012.598	1.723	correct	generate	Run4	generate/STIM_020.jpg
3017.661	1.627	correct	generate	Run4	generate/STIM_021.jpg
3023.288	1.039	correct	generate	Run4	generate/STIM_021.jpg
3026.821	1.272	correct	generate	Run4	generate/STIM_021.jpg
3031.067	1.739	correct	generate	Run4	generate/STIM_021.jpg
3035.514	1.287	correct	generate	Run4	generate/STIM_021.jpg
3039.749	1.544	correct	generate	Run4	generate/STIM_022.jpg
3043.462	1.579	correct	generate	Run4	generate/STIM_022.jpg
3048.488	1.513	correct	generate	Run4	generate/STIM_022.jpg
3052.596	1.252	correct	generate	Run4	generate/STIM_022.jpg
3056.44	2.018	correct	generate	Run4	generate/STIM_022.jpg
3061.524	1.968	correct	generate	Run4	generate/STIM_023.jpg
3066.955	1.321	correct	generate	Run4	generate/STIM_023.jpg
3070.664	1.638	correct	generate	Run4	generate/STIM_023.jpg
3074.507	0.889	correct	generate	Run4	generate/STIM_023.jpg
3078.168	1.64	correct	generate	Run4	generate/STIM_023.jpg
3082.772	1.059	correct	generate	Run4	generate/STIM_024.jpg
3085.979	1.095	correct	generate	Run4	generate/STIM_024.jpg
3089.867	1.742	correct	generate	Run4	generate/STIM_024.jpg
3093.686	1.434	correct	generate	Run4	generate/STIM_024.jpg
3098.147	1.542	correct	generate	Run4	generate/STIM_024.jpg
3103.397	0.552	correct	repeat	Run4	repeat/STIM_000.jpg
3107.053	0.584	correct	repeat	Run4	repeat/STIM_000.jpg
3110.986	0.888	correct	repeat	Run4	repeat/STIM_000.jpg
3114.327	0.717	correct	repeat	Run4	repeat/STIM_000.jpg
3118.021	0.646	correct	repeat	Run4	repeat/STIM_000.jpg
3121.437	0.609	correct	repeat	Run4	repeat/STIM_001.jpg
3125.855	0.635	correct	repeat	Run4	repeat/STIM_001.jpg
3129.467	0.526	correct	repeat	Run4	repeat/STIM_001.jpg
3132.404	0.864	correct	repeat	Run4	repeat/STIM_001.jpg
3136.75	0.8	correct	repeat	Run4	repeat/STIM_001.jpg
3140.9	0.505	correct	repeat	Run4	repeat/STIM_002.jpg
3144.108	0.513	correct	repeat	Run4	repeat/STIM_002.jpg
3147.706	0.622	correct	repeat	Run4	repeat/STIM_002.jpg
3150.434	0.81	correct	repeat	Run4	repeat/STIM_002.jpg
3153.886	0.612	correct	repeat	Run4	repeat/STIM_002.jpg
3156.539	0.864	correct	repeat	Run4	repeat/STIM_003.jpg
3161.173	0.757	incorrect	repeat	Run4	repeat/STIM_003.jpg
3164.776	0.867	correct	repeat	Run4	repeat/STIM_003.jpg
3167.741	0.665	correct	repeat	Run4	repeat/STIM_003.jpg
3171.643	0.759	correct	repeat	Run4	repeat/STIM_003.jpg
3175.675	0.97	correct	repeat	Run4	repeat/STIM_004.jpg
3180.543	0.783	correct	repeat	Run4	repeat/STIM_004.jpg
3183.983	0.952	correct	repeat	Run4	repeat/STIM_004.jpg
3188.193	0.881	correct	repeat	Run4	repeat/STIM_004.jpg
3191.941	0.784	correct	repeat	Run4	repeat/STIM_004.jpg
3195.056	0.608	correct	repeat	Run4	repeat/STIM_005.jpg
3199.131	0.491	correct	repeat	Run4	repeat/STIM_005.jpg
3201.783	0.898	correct	repeat	Run4	repeat/STIM_005.jpg
3205.211	0.64	correct	repeat	Run4	repeat/STIM_005.jpg
3208.285	0.897	correct	repeat	Run4	repeat/STIM_005.jpg
3212.993	0.609	correct	repeat	Run4	repeat/STIM_006.jpg
3217.161	0.936	correct	repeat	Run4	repeat/STIM_006.jpg
3221.363	0.811	correct	repeat	Run4	repeat/STIM_006.jpg
3224.966	0.676	correct	repeat	Run4	repeat/STIM_006.jpg
3228.993	0.919	correct	repeat	Run4	repeat/STIM_006.jpg
3233.226	0.978	correct	repeat	Run4	repeat/STIM_007.jpg
3237.327	0.921	correct	repeat	Run4	repeat/STIM_007.jpg
3241.434	0.855	correct	repeat	Run4	repeat/STIM_007.jpg
3244.565	0.753	correct	repeat	Run4	repeat/STIM_007.jpg
3247.331	0.681	correct	repeat	Run4	repeat/STIM_007.jpg
3250.315	0.664	correct	repeat	Run4	repeat/STIM_008.jpg
3254.279	0.507	correct	repeat	Run4	repeat/STIM_008.jpg
3256.908	0.847	correct	repeat	Run4	repeat/STIM_008.jpg
3259.921	0.773	correct	repeat	Run4	repeat/STIM_008.jpg
3264.387	0.848	correct	repeat	Run4	repeat/STIM_008.jpg
3267.476	0.912	correct	repeat	Run4	repeat/STIM_009.jpg
3271.118	0.906	correct	repeat	Run4	repeat/STIM_009.jpg
3275.425	0.868	correct	repeat	Run4	repeat/STIM_009.jpg
3280.028	0.509	correct	repeat	Run4	repeat/STIM_009.jpg
3282.8	0.974	correct	repeat	Run4	repeat/STIM_009.jpg
3287.459	0.897	correct	repeat	Run4	repeat/STIM_010.jpg
3290.717	0.833	correct	repeat	Run4	repeat/STIM_010.jpg
3294.191	0.592	correct	repeat	Run4	repeat/STIM_010.jpg
3297.386	0.575	correct	repeat	Run4	repeat/STIM_010.jpg
3300.508	0.945	correct	repeat	Run4	repeat/STIM_010.jpg
3305.411	0.98	correct	repeat	Run4	repeat/STIM_011.jpg
3309.176	0.553	correct	repeat	Run4	repeat/STIM_011.jpg
3313.668	0.658	correct	repeat	Run4	repeat/STIM_011.jpg
3318.248	0.645	correct	repeat	Run4	repeat/STIM_011.jpg
3321.674	0.6	correct	repeat	Run4	repeat/STIM_011.jpg
3325.175	0.925	correct	repeat	Run4	repeat/STIM_012.jpg
3329.363	0.688	correct	repeat	Run4	repeat/STIM_012.jpg
3332.562	0.622	correct	repeat	Run4	repeat/STIM_012.jpg
3335.691	0.56	correct	repeat	Run4	repeat/STIM_012.jpg
3338.303	0.624	correct	repeat	Run4	repeat/STIM_012.jpg
3340.935	0.696	correct	repeat	Run4	repeat/STIM_013.jpg
3345.256	0.736	correct	repeat	Run4	repeat/STIM_013.jpg
3349.467	0.493	correct	repeat	Run4	repeat/STIM_013.jpg
3352.127	0.85	correct	repeat	Run4	repeat/STIM_013.jpg
3355.34	0.896	correct	repeat	Run4	repeat/STIM_013.jpg
3358.539	0.56	correct	repeat	Run4	repeat/STIM_014.jpg
3361.459	0.876	correct	repeat	Run4	repeat/STIM_014.jpg
3365.713	0.893	correct	repeat	Run4	repeat/STIM_014.jpg
3370.041	0.964	correct	repeat	Run4	repeat/STIM_014.jpg
3373.464	0.577	correct	repeat	Run4	repeat/STIM_014.jpg
