onset	duration	accuracy_binary	trial_type	learning_stage	stimulus
0.0	0.757	0	incongruent	Block1	incongruent/STIM_000.jpg
3.598	0.886	1	incongruent	Block1	incongruent/STIM_000.jpg
6.547	1.192	0	incongruent	Block1	incongruent/STIM_000.jpg
10.85	0.838	1	incongruent	Block1	incongruent/STIM_000.jpg
14.201	0.888	1	incongruent	Block1	incongruent/STIM_000.jpg
17.404	1.081	1	incongruent	Block1	incongruent/STIM_001.jpg
21.625	1.243	1	incongruent	Block1	incongruent/STIM_001.jpg
26.758	0.843	1	incongruent	Block1	incongruent/STIM_001.jpg
29.958	0.706	1	incongruent	Block1	incongruent/STIM_001.jpg
34.466	1.111	1	incongruent	Block1	incongruent/STIM_001.jpg
38.962	1.378	1	incongruent	Block1	incongruent/STIM_002.jpg
43.749	1.306	1	incongruent	Block1	incongruent/STIM_002.jpg
48.91	0.863	1	incongruent	Block1	incongruent/STIM_002.jpg
51.912	0.629	1	incongruent	Block1	incongruent/STIM_002.jpg
54.761	1.161	1	incongruent	Block1	incongruent/STIM_002.jpg
58.009	1.509	0	incongruent	Block1	incongruent/STIM_003.jpg
62.276	1.199	1	incongruent	Block1	incongruent/STIM_003.jpg
66.874	1.164	1	incongruent	Block1	incongruent/STIM_003.jpg
70.763	1.135	1	incongruent	Block1	incongruent/STIM_003.jpg
74.351	1.006	1	incongruent	Block1	incongruent/STIM_003.jpg
79.076	0.762	1	incongruent	Block1	incongruent/STIM_004.jpg
83.418	1.172	1	incongruent	Block1	incongruent/STIM_004.jpg
87.643	1.054	1	incongruent	Block1	incongruent/STIM_004.jpg
91.777	0.964	1	incongruent	Block1	incongruent/STIM_004.jpg
95.571	0.679	1	incongruent	Block1	incongruent/STIM_004.jpg
99.021	1.097	0	incongruent	Block1	incongruent/STIM_005.jpg
103.707	1.184	1	incongruent	Block1	incongruent/STIM_005.jpg
107.035	0.886	1	incongruent	Block1	incongruent/STIM_005.jpg
111.46	0.816	1	incongruent	Block1	incongruent/STIM_005.jpg
115.396	1.172	1	incongruent	Block1	incongruent/STIM_005.jpg
119.988	1.463	1	incongruent	Block1	incongruent/STIM_006.jpg
123.88	1.395	1	incongruent	Block1	incongruent/STIM_006.jpg
127.557	0.902	1	incongruent	Block1	incongruent/STIM_006.jpg
132.355	1.169	1	incongruent	Block1	incongruent/STIM_006.jpg
135.641	0.647	1	incongruent	Block1	incongruent/STIM_006.jpg
140.254	1.246	1	incongruent	Block1	incongruent/STIM_007.jpg
144.612	1.02	1	incongruent	Block1	incongruent/STIM_007.jpg
147.684	0.927	0	incongruent	Block1	incongruent/STIM_007.jpg
151.859	0.659	1	incongruent	Block1	incongruent/STIM_007.jpg
155.258	1.145	1	incongruent	Block1	incongruent/STIM_007.jpg
158.527	1.079	1	incongruent	Block1	incongruent/STIM_008.jpg
162.736	0.741	1	incongruent	Block1	incongruent/STIM_008.jpg
166.151	1.308	1	incongruent	Block1	incongruent/STIM_008.jpg
170.627	0.767	1	incongruent	Block1	incongruent/STIM_008.jpg
174.881	0.815	1	incongruent	Block1	incongruent/STIM_008.jpg
179.33	0.836	1	incongruent	Block1	incongruent/STIM_009.jpg
184.149	0.93	1	incongruent	Block1	incongruent/STIM_009.jpg
187.883	0.694	1	incongruent	Block1	incongruent/STIM_009.jpg
190.94	0.654	1	incongruent	Block1	incongruent/STIM_009.jpg
194.245	1.165	1	incongruent	Block1	incongruent/STIM_009.jpg
198.617	1.345	0	incongruent	Block1	incongruent/STIM_010.jpg
202.718	1.19	1	incongruent	Block1	incongruent/STIM_010.jpg
207.563	0.74	1	incongruent	Block1	incongruent/STIM_010.jpg
210.609	0.642	1	incongruent	Block1	incongruent/STIM_010.jpg
215.152	0.611	1	incongruent	Block1	incongruent/STIM_010.jpg
219.413	1.224	1	incongruent	Block1	incongruent/STIM_011.jpg
224.011	0.922	0	incongruent	Block1	incongruent/STIM_011.jpg
228.617	0.996	1	incongruent	Block1	incongruent/STIM_011.jpg
233.299	0.666	1	incongruent	Block1	incongruent/STIM_011.jpg
236.632	1.105	1	incongruent	Block1	incongruent/STIM_011.jpg
240.925	1.496	1	incongruent	Block1	incongruent/STIM_012.jpg
246.214	1.27	1	incongruent	Block1	incongruent/STIM_012.jpg
250.739	1.166	1	incongruent	Block1	incongruent/STIM_012.jpg
254.819	0.681	1	incongruent	Block1	incongruent/STIM_012.jpg
257.953	0.847	1	incongruent	Block1	incongruent/STIM_012.jpg
262.122	0.892	1	incongruent	Block1	incongruent/STIM_013.jpg
266.967	1.149	1	incongruent	Block1	incongruent/STIM_013.jpg
271.515	0.925	1	incongruent	Block1	incongruent/STIM_013.jpg
275.83	1.274	1	incongruent	Block1	incongruent/STIM_013.jpg
280.922	0.581	1	incongruent	Block1	incongruent/STIM_013.jpg
284.945	1.509	1	incongruent	Block1	incongruent/STIM_014.jpg
289.983	1.068	1	incongruent	Block1	incongruent/STIM_014.jpg
294.21	0.789	1	incongruent	Block1	incongruent/STIM_014.jpg
298.544	0.847	1	incongruent	Block1	incongruent/STIM_014.jpg
302.744	1.025	1	incongruent	Block1	incongruent/STIM_014.jpg
306.541	0.797	1	incongruent	Block1	incongruent/STIM_015.jpg
309.834	1.427	0	incongruent	Block1	incongruent/STIM_015.jpg
313.587	1.285	1	incongruent	Block1	incongruent/STIM_015.jpg
317.304	0.796	1	incongruent	Block1	incongruent/STIM_015.jpg
320.242	0.596	1	incongruent	Block1	incongruent/STIM_015.jpg
323.239	1.208	1	incongruent	Block1	incongruent/STIM_016.jpg
327.08	1.252	1	incongruent	Block1	incongruent/STIM_016.jpg
331.012	1.106	1	incongruent	Block1	incongruent/STIM_016.jpg
335.85	1.127	1	incongruent	Block1	incongruent/STIM_016.jpg
340.031	0.838	1	incongruent	Block1	incongruent/STIM_016.jpg
343.172	1.195	1	incongruent	Block1	incongruent/STIM_017.jpg
346.61	1.295	1	incongruent	Block1	incongruent/STIM_017.jpg
351.284	0.824	1	incongruent	Block1	incongruent/STIM_017.jpg
355.259	1.138	1	incongruent	Block1	incongruent/STIM_017.jpg
359.619	0.873	1	incongruent	Block1	incongruent/STIM_017.jpg
362.633	0.857	1	incongruent	Block1	incongruent/STIM_018.jpg
365.556	0.859	0	incongruent	Block1	incongruent/STIM_018.jpg
370.024	1.049	1	incongruent	Block1	incongruent/STIM_018.jpg
373.195	1.157	1	incongruent	Block1	incongruent/STIM_018.jpg
376.472	0.596	1	incongruent	Block1	incongruent/STIM_018.jpg
379.689	1.237	1	incongruent	Block1	incongruent/STIM_019.jpg
383.73	0.976	0	incongruent	Block1	incongruent/STIM_019.jpg
387.454	0.696	1	incongruent	Block1	incongruent/STIM_019.jpg
390.212	1.005	1	incongruent	Block1	incongruent/STIM_019.jpg
394.355	1.096	1	incongruent	Block1	incongruent/STIM_019.jpg
398.123	0.918	1	incongruent	Block1	incongruent/STIM_020.jpg
401.12	0.738	1	incongruent	Block1	incongruent/STIM_020.jpg
404.477	1.085	1	incongruent	Block1	incongruent/STIM_020.jpg
407.737	0.932	1	incongruent	Block1	incongruent/STIM_020.jpg
411.265	0.918	0	incongruent	Block1	incongruent/STIM_020.jpg
415.103	1.484	1	incongruent	Block1	incongruent/STIM_021.jpg
420.011	0.869	1	incongruent	Block1	incongruent/STIM_021.jpg
424.786	0.8	1	incongruent	Block1	incongruent/STIM_021.jpg
429.51	0.614	1	incongruent	Block1	incongruent/STIM_021.jpg
432.344	0.94	1	incongruent	Block1	incongruent/STIM_021.jpg
435.651	1.189	1	incongruent	Block1	incongruent/STIM_022.jpg
439.701	0.781	1	incongruent	Block1	incongruent/STIM_022.jpg
442.673	1.139	1	incongruent	Block1	incongruent/STIM_022.jpg
447.236	0.766	1	incongruent	Block1	incongruent/STIM_022.jpg
450.25	0.957	1	incongruent	Block1	incongruent/STIM_022.jpg
454.119	0.791	1	incongruent	Block1	incongruent/STIM_023.jpg
457.003	1.218	1	incongruent	Block1	incongruent/STIM_023.jpg
460.895	0.924	1	incongruent	Block1	incongruent/STIM_023.jpg
464.035	1.156	1	incongruent	Block1	incongruent/STIM_023.jpg
468.701	0.869	1	incongruent	Block1	incongruent/STIM_023.jpg
472.339	0.711	1	incongruent	Block1	incongruent/STIM_024.jpg
476.327	1.09	1	incongruent	Block1	incongruent/STIM_024.jpg
479.416	1.314	1	incongruent	Block1	incongruent/STIM_024.jpg
484.224	1.044	1	incongruent	Block1	incongruent/STIM_024.jpg
488.493	1.098	1	incongruent	Block1	incongruent/STIM_024.jpg
492.035	1.265	1	incongruent	Block1	incongruent/STIM_025.jpg
496.037	0.923	1	incongruent	Block1	incongruent/STIM_025.jpg
500.753	0.987	1	incongruent	Block1	incongruent/STIM_025.jpg
505.339	0.939	1	incongruent	Block1	incongruent/STIM_025.jpg
509.267	0.713	1	incongruent	Block1	incongruent/STIM_025.jpg
512.938	1.163	1	incongruent	Block1	incongruent/STIM_026.jpg
517.921	1.153	1	incongruent	Block1	incongruent/STIM_026.jpg
522.984	0.949	1	incongruent	Block1	incongruent/STIM_026.jpg
526.035	0.636	1	incongruent	Block1	incongruent/STIM_026.jpg
530.279	0.68	1	incongruent	Block1	incongruent/STIM_026.jpg
534.516	1.501	0	incongruent	Block1	incongruent/STIM_027.jpg
538.741	0.687	1	incongruent	Block1	incongruent/STIM_027.jpg
541.667	0.986	1	incongruent	Block1	incongruent/STIM_027.jpg
546.262	0.774	1	incongruent	Block1	incongruent/STIM_027.jpg
549.574	0.783	1	incongruent	Block1	incongruent/STIM_027.jpg
553.804	1.509	0	incongruent	Block1	incongruent/STIM_028.jpg
558.756	1.102	1	incongruent	Block1	incongruent/STIM_028.jpg
562.853	0.731	1	incongruent	Block1	incongruent/STIM_028.jpg
566.626	0.75	1	incongruent	Block1	incongruent/STIM_028.jpg
569.522	1.185	1	incongruent	Block1	incongruent/STIM_028.jpg
573.566	1.4	1	incongruent	Block1	incongruent/STIM_029.jpg
578.301	1.026	1	incongruent	Block1	incongruent/STIM_029.jpg
583.016	0.771	1	incongruent	Block1	incongruent/STIM_029.jpg
587.393	1.136	1	incongruent	Block1	incongruent/STIM_029.jpg
592.473	1.148	1	incongruent	Block1	incongruent/STIM_029.jpg
595.723	0.675	1	congruent	Block1	congruent/STIM_000.jpg
599.736	0.836	1	congruent	Block1	congruent/STIM_000.jpg
603.229	0.751	1	congruent	Block1	congruent/STIM_000.jpg
607.331	0.651	1	congruent	Block1	congruent/STIM_000.jpg
610.18	0.608	1	congruent	Block1	congruent/STIM_000.jpg
613.71	0.674	1	congruent	Block1	congruent/STIM_001.jpg
618.0	0.887	1	congruent	Block1	congruent/STIM_001.jpg
622.787	0.703	1	congruent	Block1	congruent/STIM_001.jpg
626.447	0.834	1	congruent	Block1	congruent/STIM_001.jpg
630.393	0.843	1	congruent	Block1	congruent/STIM_001.jpg
634.803	0.8	1	congruent	Block1	congruent/STIM_002.jpg
638.285	0.734	1	congruent	Block1	congruent/STIM_002.jpg
642.661	0.683	1	congruent	Block1	congruent/STIM_002.jpg
647.194	0.868	1	congruent	Block1	congruent/STIM_002.jpg
651.198	0.568	1	congruent	Block1	congruent/STIM_002.jpg
655.24	0.637	1	congruent	Block1	congruent/STIM_003.jpg
657.999	0.851	1	congruent	Block1	congruent/STIM_003.jpg
661.074	0.585	1	congruent	Block1	congruent/STIM_003.jpg
664.059	0.887	1	congruent	Block1	congruent/STIM_003.jpg
667.45	0.853	1	congruent	Block1	congruent/STIM_003.jpg
670.532	0.561	1	congruent	Block1	congruent/STIM_004.jpg
674.813	0.822	1	congruent	Block1	congruent/STIM_004.jpg
678.1	0.634	1	congruent	Block1	congruent/STIM_004.jpg
682.339	0.847	1	congruent	Block1	congruent/STIM_004.jpg
686.498	0.764	1	congruent	Block1	congruent/STIM_004.jpg
690.339	0.754	1	congruent	Block1	congruent/STIM_005.jpg
693.722	0.594	1	congruent	Block1	congruent/STIM_005.jpg
698.165	0.655	1	congruent	Block1	congruent/STIM_005.jpg
702.272	0.765	1	congruent	Block1	congruent/STIM_005.jpg
705.168	0.685	1	congruent	Block1	congruent/STIM_005.jpg
708.017	0.767	1	congruent	Block1	congruent/STIM_006.jpg
711.788	0.684	1	congruent	Block1	congruent/STIM_006.jpg
715.016	0.786	1	congruent	Block1	congruent/STIM_006.jpg
718.666	0.887	1	congruent	Block1	congruent/STIM_006.jpg
722.833	0.671	1	congruent	Block1	congruent/STIM_006.jpg
725.959	0.666	1	congruent	Block1	congruent/STIM_007.jpg
729.963	0.604	1	congruent	Block1	congruent/STIM_007.jpg
732.949	0.576	1	congruent	Block1	congruent/STIM_007.jpg
736.458	0.677	1	congruent	Block1	congruent/STIM_007.jpg
741.062	0.704	1	congruent	Block1	congruent/STIM_007.jpg
744.384	0.815	1	congruent	Block1	congruent/STIM_008.jpg
748.546	0.705	1	congruent	Block1	congruent/STIM_008.jpg
753.133	0.693	1	congruent	Block1	congruent/STIM_008.jpg
757.516	0.874	1	congruent	Block1	congruent/STIM_008.jpg
760.676	0.537	1	congruent	Block1	congruent/STIM_008.jpg
764.567	0.594	1	congruent	Block1	congruent/STIM_009.jpg
767.622	0.742	1	congruent	Block1	congruent/STIM_009.jpg
771.276	0.818	1	congruent	Block1	congruent/STIM_009.jpg
775.717	0.886	1	congruent	Block1	congruent/STIM_009.jpg
780.482	0.721	1	congruent	Block1	congruent/STIM_009.jpg
783.392	0.708	1	congruent	Block1	congruent/STIM_010.jpg
786.655	0.711	1	congruent	Block1	congruent/STIM_010.jpg
790.934	0.696	1	congruent	Block1	congruent/STIM_010.jpg
795.054	0.539	1	congruent	Block1	congruent/STIM_010.jpg
799.402	0.749	1	congruent	Block1	congruent/STIM_010.jpg
802.374	0.847	1	congruent	Block1	congruent/STIM_011.jpg
806.968	0.624	1	congruent	Block1	congruent/STIM_011.jpg
810.831	0.838	1	congruent	Block1	congruent/STIM_011.jpg
814.822	0.526	1	congruent	Block1	congruent/STIM_011.jpg
818.048	0.616	1	congruent	Block1	congruent/STIM_011.jpg
820.862	0.539	1	congruent	Block1	congruent/STIM_012.jpg
823.521	0.72	0	congruent	Block1	congruent/STIM_012.jpg
827.509	0.854	1	congruent	Block1	congruent/STIM_012.jpg
831.504	0.834	1	congruent	Block1	congruent/STIM_012.jpg
835.667	0.885	1	congruent	Block1	congruent/STIM_012.jpg
840.184	0.688	1	congruent	Block1	congruent/STIM_013.jpg
844.489	0.725	1	congruent	Block1	congruent/STIM_013.jpg
849.044	0.659	1	congruent	Block1	congruent/STIM_013.jpg
853.671	0.758	1	congruent	Block1	congruent/STIM_013.jpg
856.737	0.8	1	congruent	Block1	congruent/STIM_013.jpg
861.431	0.759	1	congruent	Block1	congruent/STIM_014.jpg
865.98	0.683	1	congruent	Block1	congruent/STIM_014.jpg
869.783	0.841	1	congruent	Block1	congruent/STIM_014.jpg
873.829	0.764	1	congruent	Block1	congruent/STIM_014.jpg
878.447	0.828	1	congruent	Block1	congruent/STIM_014.jpg
882.649	0.883	1	congruent	Block1	congruent/STIM_015.jpg
886.245	0.66	1	congruent	Block1	congruent/STIM_015.jpg
890.326	0.627	1	congruent	Block1	congruent/STIM_015.jpg
894.844	0.848	1	congruent	Block1	congruent/STIM_015.jpg
898.532	0.786	1	congruent	Block1	congruent/STIM_015.jpg
903.288	0.635	1	congruent	Block1	congruent/STIM_016.jpg
906.735	0.576	1	congruent	Block1	congruent/STIM_016.jpg
910.763	0.599	1	congruent	Block1	congruent/STIM_016.jpg
914.671	0.841	1	congruent	Block1	congruent/STIM_016.jpg
919.165	0.532	0	congruent	Block1	congruent/STIM_016.jpg
921.911	0.884	1	congruent	Block1	congruent/STIM_017.jpg
926.356	0.522	1	congruent	Block1	congruent/STIM_017.jpg
929.009	0.569	1	congruent	Block1	congruent/STIM_017.jpg
931.66	0.866	1	congruent	Block1	congruent/STIM_017.jpg
936.112	0.692	1	congruent	Block1	congruent/STIM_017.jpg
940.536	0.89	1	congruent	Block1	congruent/STIM_018.jpg
945.175	0.593	1	congruent	Block1	congruent/STIM_018.jpg
949.066	0.835	1	congruent	Block1	congruent/STIM_018.jpg
952.773	0.788	1	congruent	Block1	congruent/STIM_018.jpg
956.955	0.538	1	congruent	Block1	congruent/STIM_018.jpg
959.631	0.796	1	congruent	Block1	congruent/STIM_019.jpg
963.176	0.802	1	congruent	Block1	congruent/STIM_019.jpg
966.008	0.552	1	congruent	Block1	congruent/STIM_019.jpg
969.086	0.638	1	congruent	Block1	congruent/STIM_019.jpg
973.331	0.903	1	congruent	Block1	congruent/STIM_019.jpg
977.741	0.584	1	congruent	Block1	congruent/STIM_020.jpg
981.889	0.812	1	congruent	Block1	congruent/STIM_020.jpg
986.624	0.8	1	congruent	Block1	congruent/STIM_020.jpg
990.937	0.788	1	congruent	Block1	congruent/STIM_020.jpg
994.442	0.677	1	congruent	Block1	congruent/STIM_020.jpg
998.567	0.64	1	congruent	Block1	congruent/STIM_021.jpg
1002.084	0.736	1	congruent	Block1	congruent/STIM_021.jpg
1005.936	0.569	1	congruent	Block1	congruent/STIM_021.jpg
1008.609	0.53	1	congruent	Block1	congruent/STIM_021.jpg
1011.94	0.586	1	congruent	Block1	congruent/STIM_021.jpg
1014.556	0.642	1	congruent	Block1	congruent/STIM_022.jpg
1018.676	0.704	1	congruent	Block1	congruent/STIM_022.jpg
1022.593	0.508	1	congruent	Block1	congruent/STIM_022.jpg
1025.441	0.645	1	congruent	Block1	congruent/STIM_022.jpg
1029.209	0.643	0	congruent	Block1	congruent/STIM_022.jpg
1032.474	0.544	1	congruent	Block1	congruent/STIM_023.jpg
1035.929	0.628	1	congruent	Block1	congruent/STIM_023.jpg
1038.591	0.619	1	congruent	Block1	congruent/STIM_023.jpg
1041.318	0.623	1	congruent	Block1	congruent/STIM_023.jpg
1044.438	0.811	1	congruent	Block1	congruent/STIM_023.jpg
1047.46	0.527	1	congruent	Block1	congruent/STIM_024.jpg
1050.767	0.838	1	congruent	Block1	congruent/STIM_024.jpg
1055.421	0.83	1	congruent	Block1	congruent/STIM_024.jpg
1059.613	0.783	1	congruent	Block1	congruent/STIM_024.jpg
1063.339	0.574	1	congruent	Block1	congruent/STIM_024.jpg
1066.955	0.826	1	congruent	Block1	congruent/STIM_025.jpg
1071.235	0.805	1	congruent	Block1	congruent/STIM_025.jpg
1075.061	0.71	0	congruent	Block1	congruent/STIM_025.jpg
1079.694	0.68	1	congruent	Block1	congruent/STIM_025.jpg
1083.702	0.614	1	congruent	Block1	congruent/STIM_025.jpg
1086.718	0.601	1	congruent	Block1	congruent/STIM_026.jpg
1090.375	0.554	1	congruent	Block1	congruent/STIM_026.jpg
1093.714	0.749	1	congruent	Block1	congruent/STIM_026.jpg
1098.195	0.672	1	congruent	Block1	congruent/STIM_026.jpg
1102.344	0.87	1	congruent	Block1	congruent/STIM_026.jpg
1106.218	0.568	1	congruent	Block1	congruent/STIM_027.jpg
1110.032	0.816	1	congruent	Block1	congruent/STIM_027.jpg
1114.707	0.761	1	congruent	Block1	congruent/STIM_027.jpg
1119.067	0.667	1	congruent	Block1	congruent/STIM_027.jpg
1123.486	0.866	1	congruent	Block1	congruent/STIM_027.jpg
1126.874	0.69	1	congruent	Block1	congruent/STIM_028.jpg
1131.551	0.822	1	congruent	Block1	congruent/STIM_028.jpg
1134.677	0.63	1	congruent	Block1	congruent/STIM_028.jpg
1138.622	0.86	1	congruent	Block1	congruent/STIM_028.jpg
1142.449	0.718	1	congruent	Block1	congruent/STIM_028.jpg
1146.351	0.689	1	congruent	Block1	congruent/STIM_029.jpg
1149.785	0.631	1	congruent	Block1	congruent/STIM_029.jpg
1154.046	0.64	1	congruent	Block1	congruent/STIM_029.jpg
1158.187	0.832	1	congruent	Block1	congruent/STIM_029.jpg
1161.551	0.684	1	congruent	Block1	congruent/STIM_029.jpg
1165.996	0.951	1	incongruent	Block2	incongruent/STIM_000.jpg
1170.747	0.64	1	incongruent	Block2	incongruent/STIM_000.jpg
1175.117	0.624	1	incongruent	Block2	incongruent/STIM_000.jpg
1177.902	0.973	1	incongruent	Block2	incongruent/STIM_000.jpg
1182.198	0.937	1	incongruent	Block2	incongruent/STIM_000.jpg
1185.875	1.033	1	incongruent	Block2	incongruent/STIM_001.jpg
1189.703	1.082	1	incongruent	Block2	incongruent/STIM_001.jpg
1194.198	0.853	1	incongruent	Block2	incongruent/STIM_001.jpg
1197.277	0.527	1	incongruent	Block2	incongruent/STIM_001.jpg
1199.823	0.994	1	incongruent	Block2	incongruent/STIM_001.jpg
1203.362	1.223	1	incongruent	Block2	incongruent/STIM_002.jpg
1207.762	0.951	1	incongruent	Block2	incongruent/STIM_002.jpg
1211.27	1.069	1	incongruent	Block2	incongruent/STIM_002.jpg
1214.831	0.957	1	incongruent	Block2	incongruent/STIM_002.jpg
1219.591	0.536	1	incongruent	Block2	incongruent/STIM_002.jpg
1222.645	0.953	1	incongruent	Block2	incongruent/STIM_003.jpg
1226.363	0.917	1	incongruent	Block2	incongruent/STIM_003.jpg
1231.065	0.603	1	incongruent	Block2	incongruent/STIM_003.jpg
1234.286	0.84	1	incongruent	Block2	incongruent/STIM_003.jpg
1237.696	0.805	1	incongruent	Block2	incongruent/STIM_003.jpg
1242.243	1.142	1	incongruent	Block2	incongruent/STIM_004.jpg
1246.571	1.019	1	incongruent	Block2	incongruent/STIM_004.jpg
1249.701	0.902	1	incongruent	Block2	incongruent/STIM_004.jpg
1254.329	0.63	1	incongruent	Block2	incongruent/STIM_004.jpg
1257.931	0.991	1	incongruent	Block2	incongruent/STIM_004.jpg
1261.896	1.146	1	incongruent	Block2	incongruent/STIM_005.jpg
1266.327	0.862	1	incongruent	Block2	incongruent/STIM_005.jpg
1269.427	0.878	1	incongruent	Block2	incongruent/STIM_005.jpg
1273.042	0.947	1	incongruent	Block2	incongruent/STIM_005.jpg
1277.656	1.018	1	incongruent	Block2	incongruent/STIM_005.jpg
1281.483	0.882	1	incongruent	Block2	incongruent/STIM_006.jpg
1286.026	0.99	1	incongruent	Block2	incongruent/STIM_006.jpg
1290.875	0.811	1	incongruent	Block2	incongruent/STIM_006.jpg
1294.878	0.989	1	incongruent	Block2	incongruent/STIM_006.jpg
1298.153	0.604	1	incongruent	Block2	incongruent/STIM_006.jpg
1302.377	1.103	1	incongruent	Block2	incongruent/STIM_007.jpg
1307.119	0.925	1	incongruent	Block2	incongruent/STIM_007.jpg
1311.888	1.048	1	incongruent	Block2	incongruent/STIM_007.jpg
1315.931	0.97	1	incongruent	Block2	incongruent/STIM_007.jpg
1320.633	0.731	1	incongruent	Block2	incongruent/STIM_007.jpg
1324.109	1.016	1	incongruent	Block2	incongruent/STIM_008.jpg
1327.4	0.602	1	incongruent	Block2	incongruent/STIM_008.jpg
1330.513	0.874	1	incongruent	Block2	incongruent/STIM_008.jpg
1334.192	0.79	1	incongruent	Block2	incongruent/STIM_008.jpg
1337.786	0.534	1	incongruent	Block2	incongruent/STIM_008.jpg
1341.264	0.731	1	incongruent	Block2	incongruent/STIM_009.jpg
1344.907	0.857	1	incongruent	Block2	incongruent/STIM_009.jpg
1348.075	1.08	1	incongruent	Block2	incongruent/STIM_009.jpg
1352.921	0.689	1	incongruent	Block2	incongruent/STIM_009.jpg
1356.876	0.512	1	incongruent	Block2	incongruent/STIM_009.jpg
1360.63	1.032	0	incongruent	Block2	incongruent/STIM_010.jpg
1364.168	0.74	1	incongruent	Block2	incongruent/STIM_010.jpg
1368.603	0.702	1	incongruent	Block2	incongruent/STIM_010.jpg
1372.026	0.518	1	incongruent	Block2	incongruent/STIM_010.jpg
1376.502	0.587	1	incongruent	Block2	incongruent/STIM_010.jpg
1379.516	1.232	1	incongruent	Block2	incongruent/STIM_011.jpg
1383.615	1.089	1	incongruent	Block2	incongruent/STIM_011.jpg
1387.007	0.607	1	incongruent	Block2	incongruent/STIM_011.jpg
1391.513	1.003	1	incongruent	Block2	incongruent/STIM_011.jpg
1395.845	0.699	1	incongruent	Block2	incongruent/STIM_011.jpg
1399.095	0.767	1	incongruent	Block2	incongruent/STIM_012.jpg
1402.376	1.02	1	incongruent	Block2	incongruent/STIM_012.jpg
1407.343	0.605	1	incongruent	Block2	incongruent/STIM_012.jpg
1410.424	0.684	1	incongruent	Block2	incongruent/STIM_012.jpg
1414.202	0.86	1	incongruent	Block2	incongruent/STIM_012.jpg
1417.854	1.12	1	incongruent	Block2	incongruent/STIM_013.jpg
1421.489	1.149	1	incongruent	Block2	incongruent/STIM_013.jpg
1424.94	0.662	1	incongruent	Block2	incongruent/STIM_013.jpg
1428.02	0.785	1	incongruent	Block2	incongruent/STIM_013.jpg
1431.697	0.798	1	incongruent	Block2	incongruent/STIM_013.jpg
1435.776	0.844	1	incongruent	Block2	incongruent/STIM_014.jpg
1439.102	0.568	1	incongruent	Block2	incongruent/STIM_014.jpg
1443.283	0.638	1	incongruent	Block2	incongruent/STIM_014.jpg
1447.251	0.827	1	incongruent	Block2	incongruent/STIM_014.jpg
1451.934	0.611	1	incongruent	Block2	incongruent/STIM_014.jpg
1456.153	0.655	1	incongruent	Block2	incongruent/STIM_015.jpg
1460.092	0.783	0	incongruent	Block2	incongruent/STIM_015.jpg
1463.524	1.117	1	incongruent	Block2	incongruent/STIM_015.jpg
1466.828	0.853	1	incongruent	Block2	incongruent/STIM_015.jpg
1471.005	0.847	1	incongruent	Block2	incongruent/STIM_015.jpg
1475.076	1.18	1	incongruent	Block2	incongruent/STIM_016.jpg
1478.451	0.78	1	incongruent	Block2	incongruent/STIM_016.jpg
1482.489	0.954	1	incongruent	Block2	incongruent/STIM_016.jpg
1485.906	1.054	1	incongruent	Block2	incongruent/STIM_016.jpg
1490.415	0.637	1	incongruent	Block2	incongruent/STIM_016.jpg
1494.9	1.141	1	incongruent	Block2	incongruent/STIM_017.jpg
1499.052	0.981	1	incongruent	Block2	incongruent/STIM_017.jpg
1502.507	0.79	1	incongruent	Block2	incongruent/STIM_017.jpg
1507.085	0.994	1	incongruent	Block2	incongruent/STIM_017.jpg
1511.276	0.943	1	incongruent	Block2	incongruent/STIM_017.jpg
1514.491	1.142	0	incongruent	Block2	incongruent/STIM_018.jpg
1519.043	0.662	1	incongruent	Block2	incongruent/STIM_018.jpg
1523.648	0.722	1	incongruent	Block2	incongruent/STIM_018.jpg
1527.431	0.861	1	incongruent	Block2	incongruent/STIM_018.jpg
1531.275	1.041	1	incongruent	Block2	incongruent/STIM_018.jpg
1534.731	0.937	1	incongruent	Block2	incongruent/STIM_019.jpg
1538.843	0.782	1	incongruent	Block2	incongruent/STIM_019.jpg
1541.769	0.86	1	incongruent	Block2	incongruent/STIM_019.jpg
1544.76	0.882	1	incongruent	Block2	incongruent/STIM_019.jpg
1548.15	1.037	1	incongruent	Block2	incongruent/STIM_019.jpg
1552.479	0.729	1	incongruent	Block2	incongruent/STIM_020.jpg
1555.633	1.122	1	incongruent	Block2	incongruent/STIM_020.jpg
1560.334	1.114	1	incongruent	Block2	incongruent/STIM_020.jpg
1563.54	0.546	1	incongruent	Block2	incongruent/STIM_020.jpg
1567.494	0.625	0	incongruent	Block2	incongruent/STIM_020.jpg
1571.019	0.887	1	incongruent	Block2	incongruent/STIM_021.jpg
1574.974	1.074	1	incongruent	Block2	incongruent/STIM_021.jpg
1579.476	1.084	1	incongruent	Block2	incongruent/STIM_021.jpg
1584.216	0.808	1	incongruent	Block2	incongruent/STIM_021.jpg
1587.344	0.993	1	incongruent	Block2	incongruent/STIM_021.jpg
1591.808	0.758	1	incongruent	Block2	incongruent/STIM_022.jpg
1596.184	0.958	1	incongruent	Block2	incongruent/STIM_022.jpg
1599.684	0.783	1	incongruent	Block2	incongruent/STIM_022.jpg
1602.469	0.879	1	incongruent	Block2	incongruent/STIM_022.jpg
1605.909	0.807	1	incongruent	Block2	incongruent/STIM_022.jpg
1608.821	1.143	1	incongruent	Block2	incongruent/STIM_023.jpg
1611.993	1.19	1	incongruent	Block2	incongruent/STIM_023.jpg
1615.668	0.71	1	incongruent	Block2	incongruent/STIM_023.jpg
1620.209	0.536	1	incongruent	Block2	incongruent/STIM_023.jpg
1624.399	0.909	1	incongruent	Block2	incongruent/STIM_023.jpg
1628.496	0.732	1	incongruent	Block2	incongruent/STIM_024.jpg
1631.782	1.11	1	incongruent	Block2	incongruent/STIM_024.jpg
1635.25	0.594	0	incongruent	Block2	incongruent/STIM_024.jpg
1638.96	1.052	1	incongruent	Block2	incongruent/STIM_024.jpg
1642.151	0.756	1	incongruent	Block2	incongruent/STIM_024.jpg
1646.664	0.824	1	incongruent	Block2	incongruent/STIM_025.jpg
1650.791	1.166	1	incongruent	Block2	incongruent/STIM_025.jpg
1655.915	0.811	1	incongruent	Block2	incongruent/STIM_025.jpg
1658.814	0.806	1	incongruent	Block2	incongruent/STIM_025.jpg
1662.866	1.024	1	incongruent	Block2	incongruent/STIM_025.jpg
1667.234	1.28	1	incongruent	Block2	incongruent/STIM_026.jpg
1670.961	1.088	1	incongruent	Block2	incongruent/STIM_026.jpg
1674.136	0.928	1	incongruent	Block2	incongruent/STIM_026.jpg
1677.892	0.957	1	incongruent	Block2	incongruent/STIM_026.jpg
1681.28	0.966	1	incongruent	Block2	incongruent/STIM_026.jpg
1685.434	0.748	1	incongruent	Block2	incongruent/STIM_027.jpg
1689.772	1.137	1	incongruent	Block2	incongruent/STIM_027.jpg
1693.348	0.891	1	incongruent	Block2	incongruent/STIM_027.jpg
1696.246	0.73	1	incongruent	Block2	incongruent/STIM_027.jpg
1699.015	0.636	1	incongruent	Block2	incongruent/STIM_027.jpg
1702.829	0.648	1	incongruent	Block2	incongruent/STIM_028.jpg
1706.85	1.108	1	incongruent	Block2	incongruent/STIM_028.jpg
1710.944	0.914	1	incongruent	Block2	incongruent/STIM_028.jpg
1715.639	0.67	1	incongruent	Block2	incongruent/STIM_028.jpg
1719.995	0.527	1	incongruent	Block2	incongruent/STIM_028.jpg
1722.588	0.868	1	incongruent	Block2	incongruent/STIM_029.jpg
1725.927	0.638	1	incongruent	Block2	incongruent/STIM_029.jpg
1729.591	0.807	1	incongruent	Block2	incongruent/STIM_029.jpg
1732.981	0.972	1	incongruent	Block2	incongruent/STIM_029.jpg
1736.637	0.742	1	incongruent	Block2	incongruent/STIM_029.jpg
1740.252	0.847	1	congruent	Block2	congruent/STIM_000.jpg
1743.132	0.604	1	congruent	Block2	congruent/STIM_000.jpg
1745.773	0.7	0	congruent	Block2	congruent/STIM_000.jpg
1748.504	0.787	1	congruent	Block2	congruent/STIM_000.jpg
1751.488	0.626	1	congruent	Block2	congruent/STIM_000.jpg
1755.349	0.694	1	congruent	Block2	congruent/STIM_001.jpg
1759.736	0.71	1	congruent	Block2	congruent/STIM_001.jpg
1763.653	0.799	1	congruent	Block2	congruent/STIM_001.jpg
1767.119	0.602	1	congruent	Block2	congruent/STIM_001.jpg
1771.148	0.574	1	congruent	Block2	congruent/STIM_001.jpg
1774.643	0.573	1	congruent	Block2	congruent/STIM_002.jpg
1778.106	0.663	1	congruent	Block2	congruent/STIM_002.jpg
1780.997	0.888	1	congruent	Block2	congruent/STIM_002.jpg
1784.865	0.838	1	congruent	Block2	congruent/STIM_002.jpg
1789.604	0.769	1	congruent	Block2	congruent/STIM_002.jpg
1792.818	0.65	1	congruent	Block2	congruent/STIM_003.jpg
1795.874	0.663	1	congruent	Block2	congruent/STIM_003.jpg
1799.139	0.7	1	congruent	Block2	congruent/STIM_003.jpg
1802.249	0.849	1	congruent	Block2	congruent/STIM_003.jpg
1806.479	0.723	1	congruent	Block2	congruent/STIM_003.jpg
1809.324	0.586	1	congruent	Block2	congruent/STIM_004.jpg
1813.179	0.712	1	congruent	Block2	congruent/STIM_004.jpg
1817.662	0.524	1	congruent	Block2	congruent/STIM_004.jpg
1821.192	0.699	1	congruent	Block2	congruent/STIM_004.jpg
1825.389	0.705	1	congruent	Block2	congruent/STIM_004.jpg
1828.404	0.568	1	congruent	Block2	congruent/STIM_005.jpg
1832.341	0.638	1	congruent	Block2	congruent/STIM_005.jpg
1835.206	0.715	1	congruent	Block2	congruent/STIM_005.jpg
1838.442	0.902	1	congruent	Block2	congruent/STIM_005.jpg
1842.27	0.704	1	congruent	Block2	congruent/STIM_005.jpg
1845.638	0.531	1	congruent	Block2	congruent/STIM_006.jpg
1849.689	0.731	1	congruent	Block2	congruent/STIM_006.jpg
1852.482	0.563	1	congruent	Block2	congruent/STIM_006.jpg
1856.695	0.698	0	congruent	Block2	congruent/STIM_006.jpg
1860.663	0.688	1	congruent	Block2	congruent/STIM_006.jpg
1863.979	0.68	1	congruent	Block2	congruent/STIM_007.jpg
1867.115	0.8	1	congruent	Block2	congruent/STIM_007.jpg
1869.982	0.832	1	congruent	Block2	congruent/STIM_007.jpg
1874.474	0.851	1	congruent	Block2	congruent/STIM_007.jpg
1878.633	0.513	1	congruent	Block2	congruent/STIM_007.jpg
1882.544	0.593	1	congruent	Block2	congruent/STIM_008.jpg
1885.171	0.689	1	congruent	Block2	congruent/STIM_008.jpg
1888.267	0.886	1	congruent	Block2	congruent/STIM_008.jpg
1891.429	0.737	1	congruent	Block2	congruent/STIM_008.jpg
1896.022	0.59	1	congruent	Block2	congruent/STIM_008.jpg
1899.872	0.736	1	congruent	Block2	congruent/STIM_009.jpg
1904.497	0.511	1	congruent	Block2	congruent/STIM_009.jpg
1908.17	0.613	1	congruent	Block2	congruent/STIM_009.jpg
1912.255	0.539	0	congruent	Block2	congruent/STIM_009.jpg
1916.054	0.882	1	congruent	Block2	congruent/STIM_009.jpg
1919.206	0.584	1	congruent	Block2	congruent/STIM_010.jpg
1922.091	0.545	1	congruent	Block2	congruent/STIM_010.jpg
1925.381	0.866	1	congruent	Block2	congruent/STIM_010.jpg
1929.298	0.842	1	congruent	Block2	congruent/STIM_010.jpg
1934.089	0.575	1	congruent	Block2	congruent/STIM_010.jpg
1937.385	0.557	1	congruent	Block2	congruent/STIM_011.jpg
1940.0	0.879	1	congruent	Block2	congruent/STIM_011.jpg
1944.248	0.734	1	congruent	Block2	congruent/STIM_011.jpg
1948.631	0.891	1	congruent	Block2	congruent/STIM_011.jpg
1951.542	0.827	1	congruent	Block2	congruent/STIM_011.jpg
1955.057	0.568	1	congruent	Block2	congruent/STIM_012.jpg
1958.982	0.629	1	congruent	Block2	congruent/STIM_012.jpg
1961.876	0.689	1	congruent	Block2	congruent/STIM_012.jpg
1965.93	0.726	1	congruent	Block2	congruent/STIM_012.jpg
1969.638	0.781	1	congruent	Block2	congruent/STIM_012.jpg
1974.405	0.658	1	congruent	Block2	congruent/STIM_013.jpg
1978.562	0.591	1	congruent	Block2	congruent/STIM_013.jpg
1983.102	0.587	1	congruent	Block2	congruent/STIM_013.jpg
1986.619	0.768	1	congruent	Block2	congruent/STIM_013.jpg
1990.091	0.813	1	congruent	Block2	congruent/STIM_013.jpg
1994.162	0.825	1	congruent	Block2	congruent/STIM_014.jpg
1998.507	0.779	1	congruent	Block2	congruent/STIM_014.jpg
2002.024	0.521	1	congruent	Block2	congruent/STIM_014.jpg
2006.195	0.769	1	congruent	Block2	congruent/STIM_014.jpg
2009.712	0.524	1	congruent	Block2	congruent/STIM_014.jpg
2014.153	0.873	1	congruent	Block2	congruent/STIM_015.jpg
2017.855	0.743	1	congruent	Block2	congruent/STIM_015.jpg
2021.873	0.592	1	congruent	Block2	congruent/STIM_015.jpg
2024.818	0.754	1	congruent	Block2	congruent/STIM_015.jpg
2027.77	0.692	1	congruent	Block2	congruent/STIM_015.jpg
2031.539	0.767	1	congruent	Block2	congruent/STIM_016.jpg
2035.914	0.563	1	congruent	Block2	congruent/STIM_016.jpg
2039.257	0.815	1	congruent	Block2	congruent/STIM_016.jpg
2042.397	0.777	1	congruent	Block2	congruent/STIM_016.jpg
2046.385	0.627	1	congruent	Block2	congruent/STIM_016.jpg
2049.436	0.902	1	congruent	Block2	congruent/STIM_017.jpg
2052.355	0.505	1	congruent	Block2	congruent/STIM_017.jpg
2056.82	0.838	1	congruent	Block2	congruent/STIM_017.jpg
2060.788	0.504	1	congruent	Block2	congruent/STIM_017.jpg
2064.77	0.652	1	congruent	Block2	congruent/STIM_017.jpg
2069.197	0.508	1	congruent	Block2	congruent/STIM_018.jpg
2073.599	0.518	1	congruent	Block2	congruent/STIM_018.jpg
2077.578	0.803	1	congruent	Block2	congruent/STIM_018.jpg
2081.523	0.654	1	congruent	Block2	congruent/STIM_018.jpg
2084.514	0.613	1	congruent	Block2	congruent/STIM_018.jpg
2088.769	0.594	1	congruent	Block2	congruent/STIM_019.jpg
2092.051	0.793	1	congruent	Block2	congruent/STIM_019.jpg
2095.44	0.787	1	congruent	Block2	congruent/STIM_019.jpg
2099.856	0.852	1	congruent	Block2	congruent/STIM_019.jpg
2103.538	0.617	1	congruent	Block2	congruent/STIM_019.jpg
2106.944	0.689	1	congruent	Block2	congruent/STIM_020.jpg
2111.189	0.506	1	congruent	Block2	congruent/STIM_020.jpg
2113.715	0.887	1	congruent	Block2	congruent/STIM_020.jpg
2118.396	0.744	1	congruent	Block2	congruent/STIM_020.jpg
2121.319	0.722	1	congruent	Block2	congruent/STIM_020.jpg
2125.141	0.801	1	congruent	Block2	congruent/STIM_021.jpg
2128.119	0.562	1	congruent	Block2	congruent/STIM_021.jpg
2131.116	0.747	1	congruent	Block2	congruent/STIM_021.jpg
2135.669	0.817	1	congruent	Block2	congruent/STIM_021.jpg
2139.421	0.525	1	congruent	Block2	congruent/STIM_021.jpg
2142.245	0.901	1	congruent	Block2	congruent/STIM_022.jpg
2146.885	0.842	1	congruent	Block2	congruent/STIM_022.jpg
2151.54	0.697	1	congruent	Block2	congruent/STIM_022.jpg
2154.555	0.566	1	congruent	Block2	congruent/STIM_022.jpg
2157.645	0.814	1	congruent	Block2	congruent/STIM_022.jpg
2161.93	0.662	1	congruent	Block2	congruent/STIM_023.jpg
2166.366	0.746	1	congruent	Block2	congruent/STIM_023.jpg
2169.911	0.803	1	congruent	Block2	congruent/STIM_023.jpg
2174.36	0.882	1	congruent	Block2	congruent/STIM_023.jpg
2178.783	0.623	1	congruent	Block2	congruent/STIM_023.jpg
2181.97	0.84	1	congruent	Block2	congruent/STIM_024.jpg
2185.645	0.781	1	congruent	Block2	congruent/STIM_024.jpg
2188.5	0.532	1	congruent	Block2	congruent/STIM_024.jpg
2191.488	0.533	1	congruent	Block2	congruent/STIM_024.jpg
2194.414	0.793	1	congruent	Block2	congruent/STIM_024.jpg
2197.911	0.738	1	congruent	Block2	congruent/STIM_025.jpg
2202.254	0.834	1	congruent	Block2	congruent/STIM_025.jpg
2206.743	0.608	1	congruent	Block2	congruent/STIM_025.jpg
2210.273	0.637	0	congruent	Block2	congruent/STIM_025.jpg
2213.352	0.772	1	congruent	Block2	congruent/STIM_025.jpg
2217.271	0.892	1	congruent	Block2	congruent/STIM_026.jpg
2220.866	0.723	1	congruent	Block2	congruent/STIM_026.jpg
2225.528	0.793	1	congruent	Block2	congruent/STIM_026.jpg
2228.721	0.623	1	congruent	Block2	congruent/STIM_026.jpg
2233.163	0.861	1	congruent	Block2	congruent/STIM_026.jpg
2237.918	0.827	1	congruent	Block2	congruent/STIM_027.jpg
2241.7	0.794	1	congruent	Block2	congruent/STIM_027.jpg
2245.552	0.656	1	congruent	Block2	congruent/STIM_027.jpg
2249.712	0.745	1	congruent	Block2	congruent/STIM_027.jpg
2253.379	0.776	1	congruent	Block2	congruent/STIM_027.jpg
2257.391	0.56	1	congruent	Block2	congruent/STIM_028.jpg
2261.17	0.818	1	congruent	Block2	congruent/STIM_028.jpg
2265.264	0.84	1	congruent	Block2	congruent/STIM_028.jpg
2268.337	0.905	0	congruent	Block2	congruent/STIM_028.jpg
2273.07	0.644	1	congruent	Block2	congruent/STIM_028.jpg
2277.426	0.79	1	congruent	Block2	congruent/STIM_029.jpg
2281.124	0.534	1	congruent	Block2	congruent/STIM_029.jpg
2283.947	0.692	1	congruent	Block2	congruent/STIM_029.jpg
2288.471	0.859	1	congruent	Block2	congruent/STIM_029.jpg
2292.675	0.807	1	congruent	Block2	congruent/STIM_029.jpg
2296.543	0.856	1	incongruent	Block3	incongruent/STIM_000.jpg
2301.335	0.668	1	incongruent	Block3	incongruent/STIM_000.jpg
2305.811	0.556	1	incongruent	Block3	incongruent/STIM_000.jpg
2309.065	0.844	1	incongruent	Block3	incongruent/STIM_000.jpg
2312.458	0.773	1	incongruent	Block3	incongruent/STIM_000.jpg
2316.378	0.926	1	incongruent	Block3	incongruent/STIM_001.jpg
2319.542	1.0	1	incongruent	Block3	incongruent/STIM_001.jpg
2322.806	0.989	1	incongruent	Block3	incongruent/STIM_001.jpg
2326.658	1.03	1	incongruent	Block3	incongruent/STIM_001.jpg
2330.955	0.829	1	incongruent	Block3	incongruent/STIM_001.jpg
2334.536	0.629	1	incongruent	Block3	incongruent/STIM_002.jpg
2338.38	0.667	1	incongruent	Block3	incongruent/STIM_002.jpg
2341.781	0.613	1	incongruent	Block3	incongruent/STIM_002.jpg
2346.216	0.95	1	incongruent	Block3	incongruent/STIM_002.jpg
2349.817	0.746	1	incongruent	Block3	incongruent/STIM_002.jpg
2354.186	0.64	1	incongruent	Block3	incongruent/STIM_003.jpg
2358.248	0.655	1	incongruent	Block3	incongruent/STIM_003.jpg
2361.396	0.561	1	incongruent	Block3	incongruent/STIM_003.jpg
2364.681	1.029	1	incongruent	Block3	incongruent/STIM_003.jpg
2368.69	0.893	1	incongruent	Block3	incongruent/STIM_003.jpg
2373.392	0.834	1	incongruent	Block3	incongruent/STIM_004.jpg
2377.027	0.796	1	incongruent	Block3	incongruent/STIM_004.jpg
2379.848	0.539	1	incongruent	Block3	incongruent/STIM_004.jpg
2383.813	0.794	1	incongruent	Block3	incongruent/STIM_004.jpg
2387.668	0.559	1	incongruent	Block3	incongruent/STIM_004.jpg
2391.436	0.677	1	incongruent	Block3	incongruent/STIM_005.jpg
2395.905	0.82	1	incongruent	Block3	incongruent/STIM_005.jpg
2399.599	0.896	1	incongruent	Block3	incongruent/STIM_005.jpg
2403.727	0.749	1	incongruent	Block3	incongruent/STIM_005.jpg
2408.381	0.905	1	incongruent	Block3	incongruent/STIM_005.jpg
2412.24	0.942	1	incongruent	Block3	incongruent/STIM_006.jpg
2417.007	0.948	1	incongruent	Block3	incongruent/STIM_006.jpg
2421.571	0.515	1	incongruent	Block3	incongruent/STIM_006.jpg
2425.19	0.994	1	incongruent	Block3	incongruent/STIM_006.jpg
2429.046	0.82	1	incongruent	Block3	incongruent/STIM_006.jpg
2432.593	1.03	1	incongruent	Block3	incongruent/STIM_007.jpg
2437.247	0.922	1	incongruent	Block3	incongruent/STIM_007.jpg
2442.094	0.916	1	incongruent	Block3	incongruent/STIM_007.jpg
2445.617	0.891	1	incongruent	Block3	incongruent/STIM_007.jpg
2450.31	0.798	1	incongruent	Block3	incongruent/STIM_007.jpg
2453.863	0.925	1	incongruent	Block3	incongruent/STIM_008.jpg
2456.813	0.554	1	incongruent	Block3	incongruent/STIM_008.jpg
2459.427	1.004	1	incongruent	Block3	incongruent/STIM_008.jpg
2463.946	0.737	1	incongruent	Block3	incongruent/STIM_008.jpg
2467.769	0.6	1	incongruent	Block3	incongruent/STIM_008.jpg
2471.027	0.907	1	incongruent	Block3	incongruent/STIM_009.jpg
2474.126	0.964	1	incongruent	Block3	incongruent/STIM_009.jpg
2478.247	0.533	1	incongruent	Block3	incongruent/STIM_009.jpg
2482.769	0.78	1	incongruent	Block3	incongruent/STIM_009.jpg
2486.602	0.932	1	incongruent	Block3	incongruent/STIM_009.jpg
2490.022	1.019	1	incongruent	Block3	incongruent/STIM_010.jpg
2493.969	0.664	1	incongruent	Block3	incongruent/STIM_010.jpg
2497.075	0.998	1	incongruent	Block3	incongruent/STIM_010.jpg
2501.56	0.733	1	incongruent	Block3	incongruent/STIM_010.jpg
2505.555	0.846	1	incongruent	Block3	incongruent/STIM_010.jpg
2509.415	0.866	1	incongruent	Block3	incongruent/STIM_011.jpg
2513.446	0.759	1	incongruent	Block3	incongruent/STIM_011.jpg
2516.437	0.932	1	incongruent	Block3	incongruent/STIM_011.jpg
2519.541	0.749	1	incongruent	Block3	incongruent/STIM_011.jpg
2523.888	0.527	0	incongruent	Block3	incongruent/STIM_011.jpg
2528.224	1.01	1	incongruent	Block3	incongruent/STIM_012.jpg
2532.737	0.886	1	incongruent	Block3	incongruent/STIM_012.jpg
2537.449	0.693	1	incongruent	Block3	incongruent/STIM_012.jpg
2540.754	0.666	1	incongruent	Block3	incongruent/STIM_012.jpg
2545.267	0.925	1	incongruent	Block3	incongruent/STIM_012.jpg
2549.2	0.534	1	incongruent	Block3	incongruent/STIM_013.jpg
2553.172	0.61	1	incongruent	Block3	incongruent/STIM_013.jpg
2557.194	0.663	1	incongruent	Block3	incongruent/STIM_013.jpg
2559.865	0.807	1	incongruent	Block3	incongruent/STIM_013.jpg
2564.641	0.769	1	incongruent	Block3	incongruent/STIM_013.jpg
2569.228	0.955	1	incongruent	Block3	incongruent/STIM_014.jpg
2572.651	0.854	1	incongruent	Block3	incongruent/STIM_014.jpg
2576.816	0.811	1	incongruent	Block3	incongruent/STIM_014.jpg
2580.454	0.741	1	incongruent	Block3	incongruent/STIM_014.jpg
2584.765	1.0	1	incongruent	Block3	incongruent/STIM_014.jpg
2588.993	0.755	1	incongruent	Block3	incongruent/STIM_015.jpg
2592.6	0.693	1	incongruent	Block3	incongruent/STIM_015.jpg
2596.585	0.63	1	incongruent	Block3	incongruent/STIM_015.jpg
2599.346	0.965	1	incongruent	Block3	incongruent/STIM_015.jpg
2602.977	0.637	1	incongruent	Block3	incongruent/STIM_015.jpg
2606.684	0.91	1	incongruent	Block3	incongruent/STIM_016.jpg
2609.669	0.507	1	incongruent	Block3	incongruent/STIM_016.jpg
2613.637	0.746	1	incongruent	Block3	incongruent/STIM_016.jpg
2617.931	0.902	1	incongruent	Block3	incongruent/STIM_016.jpg
2620.975	0.949	1	incongruent	Block3	incongruent/STIM_016.jpg
2624.478	0.868	1	incongruent	Block3	incongruent/STIM_017.jpg
2628.582	0.758	1	incongruent	Block3	incongruent/STIM_017.jpg
2632.23	0.542	1	incongruent	Block3	incongruent/STIM_017.jpg
2636.724	0.888	1	incongruent	Block3	incongruent/STIM_017.jpg
2639.992	0.568	1	incongruent	Block3	incongruent/STIM_017.jpg
2642.606	0.869	1	incongruent	Block3	incongruent/STIM_018.jpg
2645.598	0.893	1	incongruent	Block3	incongruent/STIM_018.jpg
2649.559	0.928	1	incongruent	Block3	incongruent/STIM_018.jpg
2652.651	0.896	1	incongruent	Block3	incongruent/STIM_018.jpg
2656.69	0.942	1	incongruent	Block3	incongruent/STIM_018.jpg
2659.963	0.665	1	incongruent	Block3	incongruent/STIM_019.jpg
2664.258	0.919	1	incongruent	Block3	incongruent/STIM_019.jpg
2668.866	1.007	0	incongruent	Block3	incongruent/STIM_019.jpg
2672.211	0.828	1	incongruent	Block3	incongruent/STIM_019.jpg
2675.439	0.571	1	incongruent	Block3	incongruent/STIM_019.jpg
2678.396	0.904	1	incongruent	Block3	incongruent/STIM_020.jpg
2681.887	0.63	0	incongruent	Block3	incongruent/STIM_020.jpg
2684.815	0.829	1	incongruent	Block3	incongruent/STIM_020.jpg
2688.47	0.741	1	incongruent	Block3	incongruent/STIM_020.jpg
2692.682	0.923	1	incongruent	Block3	incongruent/STIM_020.jpg
2696.579	0.905	1	incongruent	Block3	incongruent/STIM_021.jpg
2700.228	0.882	1	incongruent	Block3	incongruent/STIM_021.jpg
2704.879	0.753	1	incongruent	Block3	incongruent/STIM_021.jpg
2707.684	0.535	1	incongruent	Block3	incongruent/STIM_021.jpg
2711.494	0.718	1	incongruent	Block3	incongruent/STIM_021.jpg
2714.303	0.594	1	incongruent	Block3	incongruent/STIM_022.jpg
2718.153	0.613	1	incongruent	Block3	incongruent/STIM_022.jpg
2722.707	0.691	1	incongruent	Block3	incongruent/STIM_022.jpg
2725.524	1.027	1	incongruent	Block3	incongruent/STIM_022.jpg
2729.015	0.98	1	incongruent	Block3	incongruent/STIM_022.jpg
2733.472	0.667	1	incongruent	Block3	incongruent/STIM_023.jpg
2736.616	0.533	1	incongruent	Block3	incongruent/STIM_023.jpg
2740.027	0.538	1	incongruent	Block3	incongruent/STIM_023.jpg
2743.162	0.621	1	incongruent	Block3	incongruent/STIM_023.jpg
2747.665	1.022	1	incongruent	Block3	incongruent/STIM_023.jpg
2751.564	0.682	1	incongruent	Block3	incongruent/STIM_024.jpg
2754.512	0.625	1	incongruent	Block3	incongruent/STIM_024.jpg
2758.337	0.81	1	incongruent	Block3	incongruent/STIM_024.jpg
2762.396	0.965	1	incongruent	Block3	incongruent/STIM_024.jpg
2766.109	0.545	1	incongruent	Block3	incongruent/STIM_024.jpg
2770.496	0.916	1	incongruent	Block3	incongruent/STIM_025.jpg
2774.093	0.754	1	incongruent	Block3	incongruent/STIM_025.jpg
2777.032	0.702	1	incongruent	Block3	incongruent/STIM_025.jpg
2780.798	0.949	1	incongruent	Block3	incongruent/STIM_025.jpg
2784.957	0.514	1	incongruent	Block3	incongruent/STIM_025.jpg
2788.558	1.023	1	incongruent	Block3	incongruent/STIM_026.jpg
2792.41	0.682	1	incongruent	Block3	incongruent/STIM_026.jpg
2795.131	1.006	1	incongruent	Block3	incongruent/STIM_026.jpg
2799.872	0.935	1	incongruent	Block3	incongruent/STIM_026.jpg
2803.6	0.812	1	incongruent	Block3	incongruent/STIM_026.jpg
2806.65	0.624	1	incongruent	Block3	incongruent/STIM_027.jpg
2809.547	0.913	1	incongruent	Block3	incongruent/STIM_027.jpg
2814.183	0.81	1	incongruent	Block3	incongruent/STIM_027.jpg
2818.906	0.494	1	incongruent	Block3	incongruent/STIM_027.jpg
2821.872	0.495	1	incongruent	Block3	incongruent/STIM_027.jpg
2824.927	0.514	1	incongruent	Block3	incongruent/STIM_028.jpg
2827.683	0.552	1	incongruent	Block3	incongruent/STIM_028.jpg
2832.19	0.978	1	incongruent	Block3	incongruent/STIM_028.jpg
2835.446	0.66	1	incongruent	Block3	incongruent/STIM_028.jpg
2838.998	0.913	1	incongruent	Block3	incongruent/STIM_028.jpg
2842.309	0.788	1	incongruent	Block3	incongruent/STIM_029.jpg
2845.926	0.91	1	incongruent	Block3	incongruent/STIM_029.jpg
2850.481	0.937	1	incongruent	Block3	incongruent/STIM_029.jpg
2854.816	0.987	1	incongruent	Block3	incongruent/STIM_029.jpg
2859.144	0.675	1	incongruent	Block3	incongruent/STIM_029.jpg
2862.625	0.509	1	congruent	Block3	congruent/STIM_000.jpg
2865.641	0.801	1	congruent	Block3	congruent/STIM_000.jpg
2869.058	0.504	1	congruent	Block3	congruent/STIM_000.jpg
2871.605	0.664	1	congruent	Block3	congruent/STIM_000.jpg
2875.51	0.871	1	congruent	Block3	congruent/STIM_000.jpg
2878.92	0.89	1	congruent	Block3	congruent/STIM_001.jpg
2882.549	0.756	1	congruent	Block3	congruent/STIM_001.jpg
2886.784	0.633	1	congruent	Block3	congruent/STIM_001.jpg
2891.283	0.668	1	congruent	Block3	congruent/STIM_001.jpg
2895.82	0.576	0	congruent	Block3	congruent/STIM_001.jpg
2899.749	0.633	1	congruent	Block3	congruent/STIM_002.jpg
2903.921	0.797	1	congruent	Block3	congruent/STIM_002.jpg
2907.155	0.598	1	congruent	Block3	congruent/STIM_002.jpg
2911.296	0.672	1	congruent	Block3	congruent/STIM_002.jpg
2915.345	0.764	1	congruent	Block3	congruent/STIM_002.jpg
2919.448	0.88	1	congruent	Block3	congruent/STIM_003.jpg
2924.225	0.836	1	congruent	Block3	congruent/STIM_003.jpg
2928.851	0.777	1	congruent	Block3	congruent/STIM_003.jpg
2931.875	0.602	1	congruent	Block3	congruent/STIM_003.jpg
2936.119	0.904	1	congruent	Block3	congruent/STIM_003.jpg
2940.739	0.624	1	congruent	Block3	congruent/STIM_004.jpg
2944.394	0.66	1	congruent	Block3	congruent/STIM_004.jpg
2948.412	0.535	1	congruent	Block3	congruent/STIM_004.jpg
2952.442	0.523	1	congruent	Block3	congruent/STIM_004.jpg
2955.562	0.81	1	congruent	Block3	congruent/STIM_004.jpg
2959.546	0.832	1	congruent	Block3	congruent/STIM_005.jpg
2963.415	0.863	1	congruent	Block3	congruent/STIM_005.jpg
2966.925	0.581	1	congruent	Block3	congruent/STIM_005.jpg
2969.688	0.682	1	congruent	Block3	congruent/STIM_005.jpg
2973.459	0.757	1	congruent	Block3	congruent/STIM_005.jpg
2976.837	0.827	1	congruent	Block3	congruent/STIM_006.jpg
2980.352	0.52	1	congruent	Block3	congruent/STIM_006.jpg
2984.488	0.573	1	congruent	Block3	congruent/STIM_006.jpg
2987.329	0.608	1	congruent	Block3	congruent/STIM_006.jpg
2991.891	0.508	1	congruent	Block3	congruent/STIM_006.jpg
2994.615	0.766	1	congruent	Block3	congruent/STIM_007.jpg
2998.21	0.668	1	congruent	Block3	congruent/STIM_007.jpg
3001.269	0.708	1	congruent	Block3	congruent/STIM_007.jpg
3005.899	0.557	1	congruent	Block3	congruent/STIM_007.jpg
3009.033	0.784	1	congruent	Block3	congruent/STIM_007.jpg
3012.396	0.902	1	congruent	Block3	congruent/STIM_008.jpg
3016.729	0.59	1	congruent	Block3	congruent/STIM_008.jpg
3019.918	0.711	1	congruent	Block3	congruent/STIM_008.jpg
3023.15	0.579	1	congruent	Block3	congruent/STIM_008.jpg
3027.085	0.649	1	congruent	Block3	congruent/STIM_008.jpg
3031.685	0.891	1	congruent	Block3	congruent/STIM_009.jpg
3035.841	0.767	1	congruent	Block3	congruent/STIM_009.jpg
3039.633	0.876	1	congruent	Block3	congruent/STIM_009.jpg
3043.337	0.6	1	congruent	Block3	congruent/STIM_009.jpg
3047.312	0.725	1	congruent	Block3	congruent/STIM_009.jpg
3051.613	0.662	1	congruent	Block3	congruent/STIM_010.jpg
3056.048	0.778	1	congruent	Block3	congruent/STIM_010.jpg
3059.188	0.844	1	congruent	Block3	congruent/STIM_010.jpg
3063.472	0.842	1	congruent	Block3	congruent/STIM_010.jpg
3066.458	0.567	1	congruent	Block3	congruent/STIM_010.jpg
3070.833	0.65	1	congruent	Block3	congruent/STIM_011.jpg
3074.786	0.508	1	congruent	Block3	congruent/STIM_011.jpg
3078.455	0.833	1	congruent	Block3	congruent/STIM_011.jpg
3083.087	0.768	1	congruent	Block3	congruent/STIM_011.jpg
3087.308	0.666	1	congruent	Block3	congruent/STIM_011.jpg
3090.582	0.665	1	congruent	Block3	congruent/STIM_012.jpg
3094.797	0.797	1	congruent	Block3	congruent/STIM_012.jpg
3099.114	0.879	1	congruent	Block3	congruent/STIM_012.jpg
3102.757	0.54	1	congruent	Block3	congruent/STIM_012.jpg
3106.436	0.665	1	congruent	Block3	congruent/STIM_012.jpg
3109.857	0.794	1	congruent	Block3	congruent/STIM_013.jpg
3114.072	0.684	1	congruent	Block3	congruent/STIM_013.jpg
3116.961	0.816	1	congruent	Block3	congruent/STIM_013.jpg
3120.471	0.789	1	congruent	Block3	congruent/STIM_013.jpg
3124.492	0.877	1	congruent	Block3	congruent/STIM_013.jpg
3128.358	0.705	1	congruent	Block3	congruent/STIM_014.jpg
3132.356	0.629	1	congruent	Block3	congruent/STIM_014.jpg
3135.855	0.628	1	congruent	Block3	congruent/STIM_014.jpg
3139.566	0.611	1	congruent	Block3	congruent/STIM_014.jpg
3143.79	0.687	1	congruent	Block3	congruent/STIM_014.jpg
3147.804	0.738	1	congruent	Block3	congruent/STIM_015.jpg
3152.356	0.679	1	congruent	Block3	congruent/STIM_015.jpg
3156.211	0.71	1	congruent	Block3	congruent/STIM_015.jpg
3159.494	0.833	1	congruent	Block3	congruent/STIM_015.jpg
3163.368	0.505	1	congruent	Block3	congruent/STIM_015.jpg
3167.79	0.758	1	congruent	Block3	congruent/STIM_016.jpg
3171.421	0.684	1	congruent	Block3	congruent/STIM_016.jpg
3175.114	0.815	1	congruent	Block3	congruent/STIM_016.jpg
3177.981	0.521	1	congruent	Block3	congruent/STIM_016.jpg
3181.623	0.727	1	congruent	Block3	congruent/STIM_016.jpg
3184.45	0.81	1	congruent	Block3	congruent/STIM_017.jpg
3188.852	0.661	1	congruent	Block3	congruent/STIM_017.jpg
3192.152	0.776	1	congruent	Block3	congruent/STIM_017.jpg
3196.673	0.523	1	congruent	Block3	congruent/STIM_017.jpg
3199.75	0.505	1	congruent	Block3	congruent/STIM_017.jpg
3203.717	0.786	1	congruent	Block3	congruent/STIM_018.jpg
3206.726	0.781	1	congruent	Block3	congruent/STIM_018.jpg
3211.198	0.719	1	congruent	Block3	congruent/STIM_018.jpg
3214.627	0.709	1	congruent	Block3	congruent/STIM_018.jpg
3218.048	0.638	1	congruent	Block3	congruent/STIM_018.jpg
3222.23	0.762	1	congruent	Block3	congruent/STIM_019.jpg
3226.413	0.748	1	congruent	Block3	congruent/STIM_019.jpg
3230.734	0.806	0	congruent	Block3	congruent/STIM_019.jpg
3234.819	0.581	1	congruent	Block3	congruent/STIM_019.jpg
3238.957	0.662	1	congruent	Block3	congruent/STIM_019.jpg
3242.824	0.772	1	congruent	Block3	congruent/STIM_020.jpg
3246.377	0.602	1	congruent	Block3	congruent/STIM_020.jpg
3250.17	0.676	1	congruent	Block3	congruent/STIM_020.jpg
3253.75	0.89	1	congruent	Block3	congruent/STIM_020.jpg
3256.804	0.782	1	congruent	Block3	congruent/STIM_020.jpg
3260.864	0.842	1	congruent	Block3	congruent/STIM_021.jpg
3264.875	0.899	1	congruent	Block3	congruent/STIM_021.jpg
3269.009	0.806	1	congruent	Block3	congruent/STIM_021.jpg
3273.699	0.512	1	congruent	Block3	congruent/STIM_021.jpg
3277.927	0.504	1	congruent	Block3	congruent/STIM_021.jpg
3281.571	0.843	1	congruent	Block3	congruent/STIM_022.jpg
3285.266	0.714	1	congruent	Block3	congruent/STIM_022.jpg
3288.518	0.641	1	congruent	Block3	congruent/STIM_022.jpg
3292.95	0.822	0	congruent	Block3	congruent/STIM_022.jpg
3297.19	0.538	1	congruent	Block3	congruent/STIM_022.jpg
3300.487	0.881	1	congruent	Block3	congruent/STIM_023.jpg
3304.07	0.736	1	congruent	Block3	congruent/STIM_023.jpg
3308.296	0.744	1	congruent	Block3	congruent/STIM_023.jpg
3311.084	0.6	1	congruent	Block3	congruent/STIM_023.jpg
3314.719	0.892	1	congruent	Block3	congruent/STIM_023.jpg
3318.423	0.505	1	congruent	Block3	congruent/STIM_024.jpg
3322.406	0.508	1	congruent	Block3	congruent/STIM_024.jpg
3325.566	0.514	1	congruent	Block3	congruent/STIM_024.jpg
3328.239	0.613	1	congruent	Block3	congruent/STIM_024.jpg
3331.053	0.768	1	congruent	Block3	congruent/STIM_024.jpg
3334.985	0.859	1	congruent	Block3	congruent/STIM_025.jpg
3339.697	0.759	1	congruent	Block3	congruent/STIM_025.jpg
3343.803	0.848	1	congruent	Block3	congruent/STIM_025.jpg
3346.7	0.519	1	congruent	Block3	congruent/STIM_025.jpg
3350.169	0.654	1	congruent	Block3	congruent/STIM_025.jpg
3353.243	0.54	1	congruent	Block3	congruent/STIM_026.jpg
3355.931	0.675	1	congruent	Block3	congruent/STIM_026.jpg
3359.039	0.774	1	congruent	Block3	congruent/STIM_026.jpg
3363.006	0.725	1	congruent	Block3	congruent/STIM_026.jpg
3366.595	0.693	1	congruent	Block3	congruent/STIM_026.jpg
3370.607	0.567	1	congruent	Block3	congruent/STIM_027.jpg
3374.65	0.784	1	congruent	Block3	congruent/STIM_027.jpg
3378.988	0.713	1	congruent	Block3	congruent/STIM_027.jpg
3382.571	0.754	1	congruent	Block3	congruent/STIM_027.jpg
3387.274	0.789	1	congruent	Block3	congruent/STIM_027.jpg
3390.339	0.725	1	congruent	Block3	congruent/STIM_028.jpg
3393.446	0.837	1	congruent	Block3	congruent/STIM_028.jpg
3397.95	0.696	1	congruent	Block3	congruent/STIM_028.jpg
3401.477	0.73	1	congruent	Block3	congruent/STIM_028.jpg
3404.515	0.677	1	congruent	Block3	congruent/STIM_028.jpg
3408.443	0.766	0	congruent	Block3	congruent/STIM_029.jpg
3412.489	0.702	0	congruent	Block3	congruent/STIM_029.jpg
3415.332	0.714	1	congruent	Block3	congruent/STIM_029.jpg
3418.792	0.62	1	congruent	Block3	congruent/STIM_029.jpg
3422.07	0.8	1	congruent	Block3	congruent/STIM_029.jpg
