onset	duration	response_time_ms	trial_type	learning_stage	stimulus	response_port
0.0	1.084	1083.7	incongruent	Block1	incongruent/STIM_000.jpg	99
4.934	0.639	638.7	incongruent	Block1	incongruent/STIM_000.jpg	99
7.573	0.663	662.6	incongruent	Block1	incongruent/STIM_000.jpg	100
11.483	0.734	733.8	incongruent	Block1	incongruent/STIM_000.jpg	99
15.178	0.798	798.0	incongruent	Block1	incongruent/STIM_000.jpg	99
18.049	0.943	942.7	incongruent	Block1	incongruent/STIM_001.jpg	99
22.076	0.787	787.4	incongruent	Block1	incongruent/STIM_001.jpg	99
25.907	0.719	718.8	incongruent	Block1	incongruent/STIM_001.jpg	100
29.448	0.775	774.6	incongruent	Block1	incongruent/STIM_001.jpg	100
33.092	0.706	705.8	incongruent	Block1	incongruent/STIM_001.jpg	100
36.129	0.757	757.1	incongruent	Block1	incongruent/STIM_002.jpg	99
40.622	0.865	864.6	incongruent	Block1	incongruent/STIM_002.jpg	100
45.385	0.74	739.5	incongruent	Block1	incongruent/STIM_002.jpg	100
48.42	0.57	570.3	incongruent	Block1	incongruent/STIM_002.jpg	99
52.801	1.013	1013.3	incongruent	Block1	incongruent/STIM_002.jpg	99
56.268	1.121	1121.0	incongruent	Block1	incongruent/STIM_003.jpg	100
61.349	1.06	1059.6	incongruent	Block1	incongruent/STIM_003.jpg	99
64.582	0.921	921.0	incongruent	Block1	incongruent/STIM_003.jpg	99
69.116	0.708	707.8	incongruent	Block1	incongruent/STIM_003.jpg	100
72.898	0.711	710.8	incongruent	Block1	incongruent/STIM_003.jpg	100
75.981	0.75	749.9	incongruent	Block1	incongruent/STIM_004.jpg	99
79.42	0.858	857.6	incongruent	Block1	incongruent/STIM_004.jpg	99
84.06	0.624	624.0	incongruent	Block1	incongruent/STIM_004.jpg	100
87.448	1.034	1033.5	incongruent	Block1	incongruent/STIM_004.jpg	100
91.869	0.95	950.2	incongruent	Block1	incongruent/STIM_004.jpg	99
95.681	0.805	804.7	incongruent	Block1	incongruent/STIM_005.jpg	99
99.859	0.59	590.2	incongruent	Block1	incongruent/STIM_005.jpg	99
103.919	1.094	1093.6	incongruent	Block1	incongruent/STIM_005.jpg	99
107.841	0.963	962.9	incongruent	Block1	incongruent/STIM_005.jpg	100
111.652	0.795	794.8	incongruent	Block1	incongruent/STIM_005.jpg	100
114.785	1.136	1136.3	incongruent	Block1	incongruent/STIM_006.jpg	100
119.402	1.14	1140.5	incongruent	Block1	incongruent/STIM_006.jpg	100
123.686	1.158	1157.8	incongruent	Block1	incongruent/STIM_006.jpg	99
127.199	0.681	680.9	incongruent	Block1	incongruent/STIM_006.jpg	100
131.772	0.814	813.9	incongruent	Block1	incongruent/STIM_006.jpg	100
135.39	1.183	1182.8	incongruent	Block1	incongruent/STIM_007.jpg	99
139.211	1.038	1037.6	incongruent	Block1	incongruent/STIM_007.jpg	99
142.406	0.704	704.4	incongruent	Block1	incongruent/STIM_007.jpg	100
145.144	0.633	633.0	incongruent	Block1	incongruent/STIM_007.jpg	100
148.19	0.826	826.3	incongruent	Block1	incongruent/STIM_007.jpg	99
152.447	0.743	743.0	incongruent	Block1	incongruent/STIM_008.jpg	99
155.363	0.817	816.7	incongruent	Block1	incongruent/STIM_008.jpg	100
158.859	0.651	651.3	incongruent	Block1	incongruent/STIM_008.jpg	99
163.435	1.001	1001.2	incongruent	Block1	incongruent/STIM_008.jpg	100
167.371	0.941	940.7	incongruent	Block1	incongruent/STIM_008.jpg	100
170.593	0.732	732.0	incongruent	Block1	incongruent/STIM_009.jpg	100
175.077	0.916	916.5	incongruent	Block1	incongruent/STIM_009.jpg	99
178.32	0.765	765.3	incongruent	Block1	incongruent/STIM_009.jpg	100
181.902	1.002	1001.8	incongruent	Block1	incongruent/STIM_009.jpg	99
186.441	0.963	963.4	incongruent	Block1	incongruent/STIM_009.jpg	100
189.657	0.923	922.9	incongruent	Block1	incongruent/STIM_010.jpg	100
193.064	0.746	745.6	incongruent	Block1	incongruent/STIM_010.jpg	99
195.855	0.753	752.8	incongruent	Block1	incongruent/STIM_010.jpg	99
200.314	0.807	807.2	incongruent	Block1	incongruent/STIM_010.jpg	99
204.512	0.651	651.3	incongruent	Block1	incongruent/STIM_010.jpg	100
208.787	0.745	745.0	incongruent	Block1	incongruent/STIM_011.jpg	100
213.27	0.743	743.1	incongruent	Block1	incongruent/STIM_011.jpg	100
217.327	1.035	1035.4	incongruent	Block1	incongruent/STIM_011.jpg	100
222.084	1.077	1077.3	incongruent	Block1	incongruent/STIM_011.jpg	99
227.132	0.494	494.4	incongruent	Block1	incongruent/STIM_011.jpg	99
230.916	0.782	781.5	incongruent	Block1	incongruent/STIM_012.jpg	99
234.831	0.596	596.2	incongruent	Block1	incongruent/STIM_012.jpg	99
239.382	1.115	1115.3	incongruent	Block1	incongruent/STIM_012.jpg	99
244.107	0.797	796.9	incongruent	Block1	incongruent/STIM_012.jpg	99
246.991	0.533	532.7	incongruent	Block1	incongruent/STIM_012.jpg	100
250.835	0.882	882.3	incongruent	Block1	incongruent/STIM_013.jpg	99
253.916	1.016	1016.3	incongruent	Block1	incongruent/STIM_013.jpg	100
257.394	0.595	595.1	incongruent	Block1	incongruent/STIM_013.jpg	100
261.436	0.737	736.9	incongruent	Block1	incongruent/STIM_013.jpg	99
264.859	0.518	517.8	incongruent	Block1	incongruent/STIM_013.jpg	99
268.377	0.922	922.4	incongruent	Block1	incongruent/STIM_014.jpg	99
271.407	1.009	1009.4	incongruent	Block1	incongruent/STIM_014.jpg	99
274.503	1.162	1162.2	incongruent	Block1	incongruent/STIM_014.jpg	100
279.298	0.973	972.8	incongruent	Block1	incongruent/STIM_014.jpg	99
283.56	0.497	496.8	incongruent	Block1	incongruent/STIM_014.jpg	99
287.788	0.82	820.5	incongruent	Block1	incongruent/STIM_015.jpg	99
291.902	1.216	1215.7	incongruent	Block1	incongruent/STIM_015.jpg	100
296.727	0.558	558.4	incongruent	Block1	incongruent/STIM_015.jpg	99
300.694	1.056	1056.2	incongruent	Block1	incongruent/STIM_015.jpg	99
304.532	0.635	635.0	incongruent	Block1	incongruent/STIM_015.jpg	100
308.601	0.849	849.0	incongruent	Block1	incongruent/STIM_016.jpg	99
311.973	0.836	836.0	incongruent	Block1	incongruent/STIM_016.jpg	100
316.306	0.929	929.3	incongruent	Block1	incongruent/STIM_016.jpg	99
319.454	0.989	988.8	incongruent	Block1	incongruent/STIM_016.jpg	99
322.671	0.785	784.6	incongruent	Block1	incongruent/STIM_016.jpg	100
326.852	0.818	818.0	incongruent	Block1	incongruent/STIM_017.jpg	100
330.859	0.75	750.0	incongruent	Block1	incongruent/STIM_017.jpg	99
335.415	0.854	853.9	incongruent	Block1	incongruent/STIM_017.jpg	99
339.877	0.632	632.3	incongruent	Block1	incongruent/STIM_017.jpg	100
342.672	1.04	1040.5	incongruent	Block1	incongruent/STIM_017.jpg	99
346.485	0.62	619.7	incongruent	Block1	incongruent/STIM_018.jpg	100
349.869	0.991	991.2	incongruent	Block1	incongruent/STIM_018.jpg	99
354.816	0.907	906.6	incongruent	Block1	incongruent/STIM_018.jpg	100
358.215	0.922	921.7	incongruent	Block1	incongruent/STIM_018.jpg	100
361.603	1.0	999.6	incongruent	Block1	incongruent/STIM_018.jpg	99
366.194	0.912	911.9	incongruent	Block1	incongruent/STIM_019.jpg	99
369.124	1.232	1231.5	incongruent	Block1	incongruent/STIM_019.jpg	99
372.663	0.835	835.1	incongruent	Block1	incongruent/STIM_019.jpg	99
376.931	0.761	761.1	incongruent	Block1	incongruent/STIM_019.jpg	100
380.007	0.557	556.8	incongruent	Block1	incongruent/STIM_019.jpg	99
383.016	1.08	1079.7	incongruent	Block1	incongruent/STIM_020.jpg	99
386.52	0.583	583.4	incongruent	Block1	incongruent/STIM_020.jpg	99
389.372	0.838	837.9	incongruent	Block1	incongruent/STIM_020.jpg	99
393.854	1.027	1027.0	incongruent	Block1	incongruent/STIM_020.jpg	99
397.967	1.039	1038.8	incongruent	Block1	incongruent/STIM_020.jpg	99
402.426	1.299	1299.2	incongruent	Block1	incongruent/STIM_021.jpg	99
407.522	0.747	747.3	incongruent	Block1	incongruent/STIM_021.jpg	100
410.394	0.747	746.9	incongruent	Block1	incongruent/STIM_021.jpg	100
414.795	0.552	551.6	incongruent	Block1	incongruent/STIM_021.jpg	99
417.437	0.512	511.9	incongruent	Block1	incongruent/STIM_021.jpg	100
420.365	0.839	839.0	incongruent	Block1	incongruent/STIM_022.jpg	99
423.206	1.118	1117.5	incongruent	Block1	incongruent/STIM_022.jpg	100
426.916	0.737	737.3	incongruent	Block1	incongruent/STIM_022.jpg	99
430.041	1.001	1000.8	incongruent	Block1	incongruent/STIM_022.jpg	100
434.329	0.88	880.0	incongruent	Block1	incongruent/STIM_022.jpg	99
438.58	1.006	1005.8	incongruent	Block1	incongruent/STIM_023.jpg	99
442.37	1.025	1024.9	incongruent	Block1	incongruent/STIM_023.jpg	99
445.512	1.052	1051.9	incongruent	Block1	incongruent/STIM_023.jpg	99
449.726	0.971	970.8	incongruent	Block1	incongruent/STIM_023.jpg	99
453.085	0.648	648.3	incongruent	Block1	incongruent/STIM_023.jpg	100
457.261	0.808	807.8	incongruent	Block1	incongruent/STIM_024.jpg	100
461.57	0.913	913.1	incongruent	Block1	incongruent/STIM_024.jpg	100
465.201	0.941	941.2	incongruent	Block1	incongruent/STIM_024.jpg	100
468.144	0.79	790.1	incongruent	Block1	incongruent/STIM_024.jpg	100
471.972	0.691	690.7	incongruent	Block1	incongruent/STIM_024.jpg	99
475.221	0.823	822.6	incongruent	Block1	incongruent/STIM_025.jpg	100
479.199	0.882	882.1	incongruent	Block1	incongruent/STIM_025.jpg	100
483.159	0.894	894.3	incongruent	Block1	incongruent/STIM_025.jpg	100
487.686	0.95	950.0	incongruent	Block1	incongruent/STIM_025.jpg	100
491.487	0.687	687.3	incongruent	Block1	incongruent/STIM_025.jpg	100
494.829	0.886	885.8	incongruent	Block1	incongruent/STIM_026.jpg	100
497.939	1.017	1017.0	incongruent	Block1	incongruent/STIM_026.jpg	99
502.116	0.993	992.9	incongruent	Block1	incongruent/STIM_026.jpg	99
506.338	0.739	738.7	incongruent	Block1	incongruent/STIM_026.jpg	100
509.69	0.852	852.4	incongruent	Block1	incongruent/STIM_026.jpg	99
512.89	0.894	894.0	incongruent	Block1	incongruent/STIM_027.jpg	100
516.512	1.228	1227.8	incongruent	Block1	incongruent/STIM_027.jpg	100
520.278	0.947	947.2	incongruent	Block1	incongruent/STIM_027.jpg	99
524.392	0.625	625.2	incongruent	Block1	incongruent/STIM_027.jpg	100
528.154	0.793	793.0	incongruent	Block1	incongruent/STIM_027.jpg	99
532.629	0.726	725.7	incongruent	Block1	incongruent/STIM_028.jpg	99
535.513	1.051	1050.7	incongruent	Block1	incongruent/STIM_028.jpg	99
539.81	0.912	911.7	incongruent	Block1	incongruent/STIM_028.jpg	99
543.197	1.029	1028.6	incongruent	Block1	incongruent/STIM_028.jpg	99
548.094	0.901	901.1	incongruent	Block1	incongruent/STIM_028.jpg	100
551.572	1.035	1035.0	incongruent	Block1	incongruent/STIM_029.jpg	99
556.09	1.084	1083.6	incongruent	Block1	incongruent/STIM_029.jpg	99
560.955	0.616	616.4	incongruent	Block1	incongruent/STIM_029.jpg	99
564.503	1.088	1088.0	incongruent	Block1	incongruent/STIM_029.jpg	99
568.345	0.499	499.1	incongruent	Block1	incongruent/STIM_029.jpg	99
571.015	0.616	616.5	congruent	Block1	congruent/STIM_000.jpg	99
574.603	0.62	619.9	congruent	Block1	congruent/STIM_000.jpg	100
578.014	0.671	671.4	congruent	Block1	congruent/STIM_000.jpg	100
582.339	0.648	648.3	congruent	Block1	congruent/STIM_000.jpg	99
586.734	0.644	644.3	congruent	Block1	congruent/STIM_000.jpg	99
590.086	0.459	459.2	congruent	Block1	congruent/STIM_001.jpg	100
593.394	0.513	513.2	congruent	Block1	congruent/STIM_001.jpg	100
595.94	0.476	476.5	congruent	Block1	congruent/STIM_001.jpg	100
600.323	0.689	689.2	congruent	Block1	congruent/STIM_001.jpg	99
604.333	0.616	615.5	congruent	Block1	congruent/STIM_001.jpg	99
607.542	0.437	437.4	congruent	Block1	congruent/STIM_002.jpg	99
611.427	0.644	644.1	congruent	Block1	congruent/STIM_002.jpg	99
615.512	0.704	704.1	congruent	Block1	congruent/STIM_002.jpg	100
619.764	0.737	737.2	congruent	Block1	congruent/STIM_002.jpg	99
623.387	0.564	564.2	congruent	Block1	congruent/STIM_002.jpg	100
627.767	0.46	460.2	congruent	Block1	congruent/STIM_003.jpg	99
630.581	0.78	780.1	congruent	Block1	congruent/STIM_003.jpg	100
633.787	0.564	564.2	congruent	Block1	congruent/STIM_003.jpg	100
636.394	0.75	750.1	congruent	Block1	congruent/STIM_003.jpg	100
640.269	0.72	720.4	congruent	Block1	congruent/STIM_003.jpg	99
643.335	0.601	600.8	congruent	Block1	congruent/STIM_004.jpg	100
646.195	0.76	760.1	congruent	Block1	congruent/STIM_004.jpg	100
649.027	0.506	505.8	congruent	Block1	congruent/STIM_004.jpg	99
652.39	0.658	658.2	congruent	Block1	congruent/STIM_004.jpg	99
655.738	0.438	437.7	congruent	Block1	congruent/STIM_004.jpg	99
658.743	0.436	436.5	congruent	Block1	congruent/STIM_005.jpg	99
661.68	0.67	669.6	congruent	Block1	congruent/STIM_005.jpg	99
666.243	0.742	742.0	congruent	Block1	congruent/STIM_005.jpg	100
669.082	0.534	533.7	congruent	Block1	congruent/STIM_005.jpg	100
672.43	0.476	475.9	congruent	Block1	congruent/STIM_005.jpg	100
676.375	0.465	465.2	congruent	Block1	congruent/STIM_006.jpg	100
680.418	0.456	455.6	congruent	Block1	congruent/STIM_006.jpg	100
684.135	0.438	438.2	congruent	Block1	congruent/STIM_006.jpg	99
686.681	0.454	454.2	congruent	Block1	congruent/STIM_006.jpg	99
690.549	0.722	721.5	congruent	Block1	congruent/STIM_006.jpg	100
694.542	0.445	445.2	congruent	Block1	congruent/STIM_007.jpg	100
698.573	0.612	611.7	congruent	Block1	congruent/STIM_007.jpg	100
701.88	0.758	758.3	congruent	Block1	congruent/STIM_007.jpg	100
704.836	0.749	748.8	congruent	Block1	congruent/STIM_007.jpg	99
707.762	0.533	533.2	congruent	Block1	congruent/STIM_007.jpg	99
711.641	0.657	657.3	congruent	Block1	congruent/STIM_008.jpg	99
715.16	0.564	564.0	congruent	Block1	congruent/STIM_008.jpg	99
719.533	0.533	533.1	congruent	Block1	congruent/STIM_008.jpg	99
723.392	0.684	683.5	congruent	Block1	congruent/STIM_008.jpg	99
726.48	0.658	658.5	congruent	Block1	congruent/STIM_008.jpg	100
730.26	0.579	579.2	congruent	Block1	congruent/STIM_009.jpg	99
733.423	0.616	616.2	congruent	Block1	congruent/STIM_009.jpg	99
737.247	0.473	472.8	congruent	Block1	congruent/STIM_009.jpg	99
740.076	0.532	532.5	congruent	Block1	congruent/STIM_009.jpg	99
744.3	0.513	513.2	congruent	Block1	congruent/STIM_009.jpg	99
748.034	0.521	520.8	congruent	Block1	congruent/STIM_010.jpg	100
750.9	0.76	760.0	congruent	Block1	congruent/STIM_010.jpg	99
754.17	0.531	530.9	congruent	Block1	congruent/STIM_010.jpg	100
758.65	0.571	571.2	congruent	Block1	congruent/STIM_010.jpg	99
761.68	0.685	684.6	congruent	Block1	congruent/STIM_010.jpg	99
764.566	0.722	721.8	congruent	Block1	congruent/STIM_011.jpg	99
769.209	0.722	721.9	congruent	Block1	congruent/STIM_011.jpg	100
772.434	0.531	530.9	congruent	Block1	congruent/STIM_011.jpg	99
776.009	0.722	721.5	congruent	Block1	congruent/STIM_011.jpg	99
780.172	0.689	689.4	congruent	Block1	congruent/STIM_011.jpg	99
783.649	0.729	729.0	congruent	Block1	congruent/STIM_012.jpg	100
788.234	0.668	667.7	congruent	Block1	congruent/STIM_012.jpg	100
791.034	0.736	736.2	congruent	Block1	congruent/STIM_012.jpg	100
794.784	0.459	459.1	congruent	Block1	congruent/STIM_012.jpg	99
799.098	0.72	719.8	congruent	Block1	congruent/STIM_012.jpg	99
802.468	0.606	606.3	congruent	Block1	congruent/STIM_013.jpg	100
805.199	0.475	475.4	congruent	Block1	congruent/STIM_013.jpg	99
808.466	0.553	552.7	congruent	Block1	congruent/STIM_013.jpg	100
811.764	0.508	508.0	congruent	Block1	congruent/STIM_013.jpg	99
815.15	0.612	611.7	congruent	Block1	congruent/STIM_013.jpg	100
818.125	0.547	546.8	congruent	Block1	congruent/STIM_014.jpg	100
821.791	0.702	701.9	congruent	Block1	congruent/STIM_014.jpg	100
825.328	0.734	734.5	congruent	Block1	congruent/STIM_014.jpg	99
828.819	0.46	459.9	congruent	Block1	congruent/STIM_014.jpg	100
832.925	0.486	485.5	congruent	Block1	congruent/STIM_014.jpg	99
835.519	0.728	728.2	congruent	Block1	congruent/STIM_015.jpg	99
839.87	0.655	655.3	congruent	Block1	congruent/STIM_015.jpg	99
842.859	0.719	718.6	congruent	Block1	congruent/STIM_015.jpg	99
846.768	0.732	732.1	congruent	Block1	congruent/STIM_015.jpg	100
850.965	0.739	738.9	congruent	Block1	congruent/STIM_015.jpg	99
855.341	0.46	459.7	congruent	Block1	congruent/STIM_016.jpg	100
859.046	0.514	514.3	congruent	Block1	congruent/STIM_016.jpg	100
862.338	0.671	670.8	congruent	Block1	congruent/STIM_016.jpg	100
865.764	0.622	621.8	congruent	Block1	congruent/STIM_016.jpg	99
870.062	0.642	641.6	congruent	Block1	congruent/STIM_016.jpg	100
874.189	0.448	447.5	congruent	Block1	congruent/STIM_017.jpg	100
878.617	0.599	598.9	congruent	Block1	congruent/STIM_017.jpg	100
882.871	0.504	504.3	congruent	Block1	congruent/STIM_017.jpg	100
885.443	0.575	574.9	congruent	Block1	congruent/STIM_017.jpg	99
889.94	0.78	780.2	congruent	Block1	congruent/STIM_017.jpg	100
893.697	0.609	608.6	congruent	Block1	congruent/STIM_018.jpg	100
896.636	0.439	438.9	congruent	Block1	congruent/STIM_018.jpg	99
900.37	0.733	733.2	congruent	Block1	congruent/STIM_018.jpg	99
904.573	0.578	578.4	congruent	Block1	congruent/STIM_018.jpg	99
907.668	0.738	738.5	congruent	Block1	congruent/STIM_018.jpg	99
910.867	0.55	549.9	congruent	Block1	congruent/STIM_019.jpg	100
913.872	0.47	469.7	congruent	Block1	congruent/STIM_019.jpg	100
917.844	0.531	531.2	congruent	Block1	congruent/STIM_019.jpg	100
921.62	0.618	618.2	congruent	Block1	congruent/STIM_019.jpg	100
925.839	0.519	519.3	congruent	Block1	congruent/STIM_019.jpg	100
929.811	0.495	495.0	congruent	Block1	congruent/STIM_020.jpg	99
932.333	0.763	762.9	congruent	Block1	congruent/STIM_020.jpg	100
935.484	0.723	723.3	congruent	Block1	congruent/STIM_020.jpg	100
939.253	0.612	612.1	congruent	Block1	congruent/STIM_020.jpg	100
943.504	0.745	745.0	congruent	Block1	congruent/STIM_020.jpg	100
947.354	0.65	650.0	congruent	Block1	congruent/STIM_021.jpg	99
951.167	0.552	551.7	congruent	Block1	congruent/STIM_021.jpg	100
954.391	0.498	497.7	congruent	Block1	congruent/STIM_021.jpg	100
958.25	0.67	669.6	congruent	Block1	congruent/STIM_021.jpg	100
961.253	0.617	617.1	congruent	Block1	congruent/STIM_021.jpg	99
965.063	0.462	462.3	congruent	Block1	congruent/STIM_022.jpg	100
968.225	0.696	696.3	congruent	Block1	congruent/STIM_022.jpg	99
972.868	0.751	751.2	congruent	Block1	congruent/STIM_022.jpg	99
976.593	0.58	580.0	congruent	Block1	congruent/STIM_022.jpg	100
980.437	0.651	651.1	congruent	Block1	congruent/STIM_022.jpg	99
983.533	0.435	434.9	congruent	Block1	congruent/STIM_023.jpg	100
986.55	0.534	533.8	congruent	Block1	congruent/STIM_023.jpg	100
990.425	0.602	602.3	congruent	Block1	congruent/STIM_023.jpg	100
994.633	0.557	557.4	congruent	Block1	congruent/STIM_023.jpg	100
998.764	0.52	520.0	congruent	Block1	congruent/STIM_023.jpg	99
1002.527	0.721	721.1	congruent	Block1	congruent/STIM_024.jpg	99
1006.976	0.515	515.0	congruent	Block1	congruent/STIM_024.jpg	99
1009.508	0.545	544.6	congruent	Block1	congruent/STIM_024.jpg	99
1012.938	0.46	460.1	congruent	Block1	congruent/STIM_024.jpg	100
1016.933	0.578	578.1	congruent	Block1	congruent/STIM_024.jpg	99
1021.306	0.473	472.6	congruent	Block1	congruent/STIM_025.jpg	100
1025.414	0.682	681.9	congruent	Block1	congruent/STIM_025.jpg	100
1028.155	0.766	765.9	congruent	Block1	congruent/STIM_025.jpg	99
1032.235	0.545	544.7	congruent	Block1	congruent/STIM_025.jpg	99
1036.037	0.51	510.2	congruent	Block1	congruent/STIM_025.jpg	99
1040.064	0.588	588.5	congruent	Block1	congruent/STIM_026.jpg	100
1042.81	0.727	727.1	congruent	Block1	congruent/STIM_026.jpg	100
1046.047	0.534	533.7	congruent	Block1	congruent/STIM_026.jpg	100
1048.936	0.597	597.4	congruent	Block1	congruent/STIM_026.jpg	100
1052.429	0.604	604.1	congruent	Block1	congruent/STIM_026.jpg	100
1056.561	0.587	586.9	congruent	Block1	congruent/STIM_027.jpg	99
1060.304	0.485	484.8	congruent	Block1	congruent/STIM_027.jpg	99
1063.55	0.618	618.5	congruent	Block1	congruent/STIM_027.jpg	99
1066.428	0.728	728.4	congruent	Block1	congruent/STIM_027.jpg	100
1070.823	0.744	743.6	congruent	Block1	congruent/STIM_027.jpg	100
1074.362	0.541	540.9	congruent	Block1	congruent/STIM_028.jpg	99
1077.624	0.562	562.1	congruent	Block1	congruent/STIM_028.jpg	99
1081.073	0.465	464.8	congruent	Block1	congruent/STIM_028.jpg	100
1083.837	0.57	570.5	congruent	Block1	congruent/STIM_028.jpg	100
1086.508	0.53	530.4	congruent	Block1	congruent/STIM_028.jpg	100
1089.833	0.763	763.2	congruent	Block1	congruent/STIM_029.jpg	100
1092.717	0.549	548.7	congruent	Block1	congruent/STIM_029.jpg	100
1096.743	0.528	528.2	congruent	Block1	congruent/STIM_029.jpg	100
1100.461	0.664	663.9	congruent	Block1	congruent/STIM_029.jpg	100
1104.123	0.755	755.1	congruent	Block1	congruent/STIM_029.jpg	100
1108.018	0.927	926.7	incongruent	Block2	incongruent/STIM_000.jpg	100
1111.737	0.522	522.4	incongruent	Block2	incongruent/STIM_000.jpg	99
1114.265	0.915	915.0	incongruent	Block2	incongruent/STIM_000.jpg	99
1118.174	0.453	452.6	incongruent	Block2	incongruent/STIM_000.jpg	100
1120.928	0.762	761.5	incongruent	Block2	incongruent/STIM_000.jpg	100
1125.378	0.866	866.5	incongruent	Block2	incongruent/STIM_001.jpg	99
1129.002	0.613	612.6	incongruent	Block2	incongruent/STIM_001.jpg	99
1132.55	0.508	508.5	incongruent	Block2	incongruent/STIM_001.jpg	99
1136.625	0.661	660.8	incongruent	Block2	incongruent/STIM_001.jpg	99
1139.515	0.592	591.7	incongruent	Block2	incongruent/STIM_001.jpg	100
1142.524	0.533	533.4	incongruent	Block2	incongruent/STIM_002.jpg	100
1146.535	0.794	793.9	incongruent	Block2	incongruent/STIM_002.jpg	99
1150.219	0.627	626.7	incongruent	Block2	incongruent/STIM_002.jpg	100
1152.962	0.726	725.6	incongruent	Block2	incongruent/STIM_002.jpg	99
1157.011	0.639	639.4	incongruent	Block2	incongruent/STIM_002.jpg	99
1159.928	0.727	726.9	incongruent	Block2	incongruent/STIM_003.jpg	99
1162.706	0.607	607.1	incongruent	Block2	incongruent/STIM_003.jpg	99
1166.293	0.75	749.6	incongruent	Block2	incongruent/STIM_003.jpg	100
1170.982	0.854	854.1	incongruent	Block2	incongruent/STIM_003.jpg	99
1175.253	0.554	554.1	incongruent	Block2	incongruent/STIM_003.jpg	99
1178.704	0.596	596.5	incongruent	Block2	incongruent/STIM_004.jpg	99
1182.741	0.58	580.1	incongruent	Block2	incongruent/STIM_004.jpg	99
1185.839	0.819	819.4	incongruent	Block2	incongruent/STIM_004.jpg	99
1190.398	0.584	583.9	incongruent	Block2	incongruent/STIM_004.jpg	99
1194.106	0.705	705.1	incongruent	Block2	incongruent/STIM_004.jpg	100
1197.866	0.765	764.9	incongruent	Block2	incongruent/STIM_005.jpg	100
1201.101	0.848	848.4	incongruent	Block2	incongruent/STIM_005.jpg	99
1205.839	0.604	604.2	incongruent	Block2	incongruent/STIM_005.jpg	100
1208.542	0.558	557.8	incongruent	Block2	incongruent/STIM_005.jpg	100
1211.742	0.43	429.6	incongruent	Block2	incongruent/STIM_005.jpg	99
1215.234	0.58	579.8	incongruent	Block2	incongruent/STIM_006.jpg	100
1219.568	1.039	1038.6	incongruent	Block2	incongruent/STIM_006.jpg	100
1224.289	0.831	831.0	incongruent	Block2	incongruent/STIM_006.jpg	100
1227.666	0.565	564.9	incongruent	Block2	incongruent/STIM_006.jpg	99
1231.607	0.433	433.1	incongruent	Block2	incongruent/STIM_006.jpg	99
1235.887	0.957	956.7	incongruent	Block2	incongruent/STIM_007.jpg	100
1240.773	0.828	827.5	incongruent	Block2	incongruent/STIM_007.jpg	100
1244.543	0.658	657.5	incongruent	Block2	incongruent/STIM_007.jpg	99
1248.944	0.468	468.4	incongruent	Block2	incongruent/STIM_007.jpg	99
1251.744	0.613	613.2	incongruent	Block2	incongruent/STIM_007.jpg	99
1254.605	0.674	674.2	incongruent	Block2	incongruent/STIM_008.jpg	100
1257.609	0.626	625.6	incongruent	Block2	incongruent/STIM_008.jpg	99
1261.791	0.942	942.4	incongruent	Block2	incongruent/STIM_008.jpg	99
1265.432	0.77	770.5	incongruent	Block2	incongruent/STIM_008.jpg	100
1269.718	0.902	901.9	incongruent	Block2	incongruent/STIM_008.jpg	100
1274.428	0.641	641.3	incongruent	Block2	incongruent/STIM_009.jpg	100
1278.967	1.013	1013.1	incongruent	Block2	incongruent/STIM_009.jpg	99
1282.83	0.708	707.8	incongruent	Block2	incongruent/STIM_009.jpg	99
1285.998	0.78	780.2	incongruent	Block2	incongruent/STIM_009.jpg	100
1290.572	0.594	593.8	incongruent	Block2	incongruent/STIM_009.jpg	99
1293.56	0.922	922.5	incongruent	Block2	incongruent/STIM_010.jpg	100
1297.661	1.008	1008.3	incongruent	Block2	incongruent/STIM_010.jpg	100
1302.455	0.922	922.4	incongruent	Block2	incongruent/STIM_010.jpg	99
1306.288	0.657	657.2	incongruent	Block2	incongruent/STIM_010.jpg	99
1309.605	0.875	875.4	incongruent	Block2	incongruent/STIM_010.jpg	99
1313.166	0.828	827.8	incongruent	Block2	incongruent/STIM_011.jpg	100
1316.989	0.545	545.2	incongruent	Block2	incongruent/STIM_011.jpg	99
1320.472	0.74	740.2	incongruent	Block2	incongruent/STIM_011.jpg	100
1324.557	0.476	476.5	incongruent	Block2	incongruent/STIM_011.jpg	99
1327.19	0.499	499.1	incongruent	Block2	incongruent/STIM_011.jpg	99
1330.479	0.914	914.3	incongruent	Block2	incongruent/STIM_012.jpg	100
1333.985	0.832	832.1	incongruent	Block2	incongruent/STIM_012.jpg	100
1338.353	0.568	568.3	incongruent	Block2	incongruent/STIM_012.jpg	100
1342.805	0.685	684.8	incongruent	Block2	incongruent/STIM_012.jpg	100
1346.601	0.523	522.8	incongruent	Block2	incongruent/STIM_012.jpg	99
1350.085	0.834	834.5	incongruent	Block2	incongruent/STIM_013.jpg	100
1354.698	0.799	799.0	incongruent	Block2	incongruent/STIM_013.jpg	100
1357.896	0.563	563.0	incongruent	Block2	incongruent/STIM_013.jpg	100
1361.46	0.855	855.2	incongruent	Block2	incongruent/STIM_013.jpg	99
1366.106	0.64	640.2	incongruent	Block2	incongruent/STIM_013.jpg	99
1368.897	0.693	693.2	incongruent	Block2	incongruent/STIM_014.jpg	99
1373.51	0.778	778.2	incongruent	Block2	incongruent/STIM_014.jpg	100
1377.432	0.938	938.2	incongruent	Block2	incongruent/STIM_014.jpg	99
1381.475	0.664	663.7	incongruent	Block2	incongruent/STIM_014.jpg	100
1385.936	0.771	770.7	incongruent	Block2	incongruent/STIM_014.jpg	99
1389.825	0.876	876.2	incongruent	Block2	incongruent/STIM_015.jpg	100
1394.606	0.617	617.2	incongruent	Block2	incongruent/STIM_015.jpg	99
1397.725	0.945	945.4	incongruent	Block2	incongruent/STIM_015.jpg	99
1400.835	0.83	829.9	incongruent	Block2	incongruent/STIM_015.jpg	100
1404.391	0.57	570.4	incongruent	Block2	incongruent/STIM_015.jpg	100
1407.993	0.548	548.5	incongruent	Block2	incongruent/STIM_016.jpg	99
1412.166	0.491	491.0	incongruent	Block2	incongruent/STIM_016.jpg	100
1414.815	0.709	709.0	incongruent	Block2	incongruent/STIM_016.jpg	99
1418.382	0.714	713.7	incongruent	Block2	incongruent/STIM_016.jpg	100
1422.845	0.723	723.4	incongruent	Block2	incongruent/STIM_016.jpg	100
1426.034	0.664	663.5	incongruent	Block2	incongruent/STIM_017.jpg	100
1430.683	0.704	703.8	incongruent	Block2	incongruent/STIM_017.jpg	99
1435.326	0.926	926.5	incongruent	Block2	incongruent/STIM_017.jpg	99
1439.147	0.523	523.3	incongruent	Block2	incongruent/STIM_017.jpg	100
1442.715	0.473	472.9	incongruent	Block2	incongruent/STIM_017.jpg	100
1445.57	0.846	845.5	incongruent	Block2	incongruent/STIM_018.jpg	100
1449.845	0.731	730.8	incongruent	Block2	incongruent/STIM_018.jpg	99
1452.659	0.932	932.4	incongruent	Block2	incongruent/STIM_018.jpg	100
1456.038	0.841	840.8	incongruent	Block2	incongruent/STIM_018.jpg	99
1459.722	0.541	541.4	incongruent	Block2	incongruent/STIM_018.jpg	99
1464.001	0.852	851.8	incongruent	Block2	incongruent/STIM_019.jpg	100
1467.133	0.85	850.2	incongruent	Block2	incongruent/STIM_019.jpg	99
1471.047	0.901	900.7	incongruent	Block2	incongruent/STIM_019.jpg	99
1475.66	0.912	911.7	incongruent	Block2	incongruent/STIM_019.jpg	99
1480.064	0.788	788.0	incongruent	Block2	incongruent/STIM_019.jpg	99
1483.216	0.578	578.3	incongruent	Block2	incongruent/STIM_020.jpg	100
1486.053	0.659	658.7	incongruent	Block2	incongruent/STIM_020.jpg	100
1489.794	0.77	769.9	incongruent	Block2	incongruent/STIM_020.jpg	100
1493.019	0.767	767.4	incongruent	Block2	incongruent/STIM_020.jpg	100
1497.184	0.887	887.2	incongruent	Block2	incongruent/STIM_020.jpg	100
1500.251	0.72	720.3	incongruent	Block2	incongruent/STIM_021.jpg	99
1504.603	0.59	590.1	incongruent	Block2	incongruent/STIM_021.jpg	99
1508.864	0.493	493.3	incongruent	Block2	incongruent/STIM_021.jpg	100
1512.615	0.586	585.8	incongruent	Block2	incongruent/STIM_021.jpg	100
1515.285	0.649	649.1	incongruent	Block2	incongruent/STIM_021.jpg	100
1518.111	0.915	915.3	incongruent	Block2	incongruent/STIM_022.jpg	100
1521.543	0.546	545.6	incongruent	Block2	incongruent/STIM_022.jpg	99
1524.988	0.845	844.9	incongruent	Block2	incongruent/STIM_022.jpg	100
1528.121	0.708	707.7	incongruent	Block2	incongruent/STIM_022.jpg	99
1532.005	0.739	739.3	incongruent	Block2	incongruent/STIM_022.jpg	99
1536.323	0.537	537.3	incongruent	Block2	incongruent/STIM_023.jpg	99
1540.779	0.554	554.1	incongruent	Block2	incongruent/STIM_023.jpg	100
1545.064	0.734	734.0	incongruent	Block2	incongruent/STIM_023.jpg	99
1549.225	0.912	911.8	incongruent	Block2	incongruent/STIM_023.jpg	100
1553.069	0.611	610.6	incongruent	Block2	incongruent/STIM_023.jpg	99
1557.472	0.965	964.8	incongruent	Block2	incongruent/STIM_024.jpg	100
1560.745	0.59	589.6	incongruent	Block2	incongruent/STIM_024.jpg	100
1565.143	0.842	841.5	incongruent	Block2	incongruent/STIM_024.jpg	100
1569.153	0.824	824.5	incongruent	Block2	incongruent/STIM_024.jpg	100
1572.975	0.733	733.3	incongruent	Block2	incongruent/STIM_024.jpg	99
1577.167	0.722	722.2	incongruent	Block2	incongruent/STIM_025.jpg	99
1581.074	0.733	732.6	incongruent	Block2	incongruent/STIM_025.jpg	99
1585.563	0.928	927.9	incongruent	Block2	incongruent/STIM_025.jpg	100
1589.701	0.891	891.2	incongruent	Block2	incongruent/STIM_025.jpg	100
1592.976	0.574	574.1	incongruent	Block2	incongruent/STIM_025.jpg	99
1597.447	0.694	693.5	incongruent	Block2	incongruent/STIM_026.jpg	99
1601.457	0.852	852.2	incongruent	Block2	incongruent/STIM_026.jpg	99
1605.85	0.946	946.3	incongruent	Block2	incongruent/STIM_026.jpg	99
1610.247	0.629	628.6	incongruent	Block2	incongruent/STIM_026.jpg	100
1614.546	0.566	565.7	incongruent	Block2	incongruent/STIM_026.jpg	99
1617.924	0.715	714.7	incongruent	Block2	incongruent/STIM_027.jpg	100
1622.075	0.983	983.1	incongruent	Block2	incongruent/STIM_027.jpg	100
1626.363	0.815	814.8	incongruent	Block2	incongruent/STIM_027.jpg	100
1630.063	0.872	871.9	incongruent	Block2	incongruent/STIM_027.jpg	100
1633.308	0.832	831.6	incongruent	Block2	incongruent/STIM_027.jpg	100
1637.926	0.628	628.4	incongruent	Block2	incongruent/STIM_028.jpg	100
1642.056	1.011	1010.6	incongruent	Block2	incongruent/STIM_028.jpg	99
1646.658	0.727	727.4	incongruent	Block2	incongruent/STIM_028.jpg	99
1650.827	0.541	541.3	incongruent	Block2	incongruent/STIM_028.jpg	100
1654.541	0.589	589.0	incongruent	Block2	incongruent/STIM_028.jpg	100
1657.344	0.634	634.4	incongruent	Block2	incongruent/STIM_029.jpg	100
1661.144	0.853	852.6	incongruent	Block2	incongruent/STIM_029.jpg	100
1665.924	0.668	667.9	incongruent	Block2	incongruent/STIM_029.jpg	99
1670.094	0.869	869.3	incongruent	Block2	incongruent/STIM_029.jpg	100
1674.145	0.448	448.2	incongruent	Block2	incongruent/STIM_029.jpg	100
1678.128	0.561	561.0	congruent	Block2	congruent/STIM_000.jpg	100
1680.815	0.437	436.7	congruent	Block2	congruent/STIM_000.jpg	99
1684.233	0.756	756.2	congruent	Block2	congruent/STIM_000.jpg	100
1687.117	0.534	534.1	congruent	Block2	congruent/STIM_000.jpg	99
1691.279	0.641	641.0	congruent	Block2	congruent/STIM_000.jpg	99
1695.414	0.659	659.3	congruent	Block2	congruent/STIM_001.jpg	100
1699.572	0.609	608.8	congruent	Block2	congruent/STIM_001.jpg	100
1703.647	0.644	643.5	congruent	Block2	congruent/STIM_001.jpg	100
1706.868	0.731	730.9	congruent	Block2	congruent/STIM_001.jpg	100
1710.013	0.449	449.2	congruent	Block2	congruent/STIM_001.jpg	100
1712.658	0.46	459.6	congruent	Block2	congruent/STIM_002.jpg	99
1716.261	0.778	777.7	congruent	Block2	congruent/STIM_002.jpg	99
1720.643	0.6	599.5	congruent	Block2	congruent/STIM_002.jpg	100
1724.725	0.724	723.8	congruent	Block2	congruent/STIM_002.jpg	100
1729.42	0.607	606.8	congruent	Block2	congruent/STIM_002.jpg	99
1732.533	0.498	498.5	congruent	Block2	congruent/STIM_003.jpg	100
1735.178	0.6	600.2	congruent	Block2	congruent/STIM_003.jpg	100
1738.453	0.635	635.0	congruent	Block2	congruent/STIM_003.jpg	100
1741.537	0.581	581.4	congruent	Block2	congruent/STIM_003.jpg	99
1744.496	0.59	590.1	congruent	Block2	congruent/STIM_003.jpg	100
1748.617	0.478	477.8	congruent	Block2	congruent/STIM_004.jpg	100
1752.259	0.648	647.5	congruent	Block2	congruent/STIM_004.jpg	99
1755.171	0.75	749.7	congruent	Block2	congruent/STIM_004.jpg	100
1758.687	0.696	696.1	congruent	Block2	congruent/STIM_004.jpg	100
1763.122	0.442	442.2	congruent	Block2	congruent/STIM_004.jpg	100
1765.784	0.637	636.9	congruent	Block2	congruent/STIM_005.jpg	99
1770.349	0.576	576.0	congruent	Block2	congruent/STIM_005.jpg	100
1774.692	0.435	434.8	congruent	Block2	congruent/STIM_005.jpg	99
1777.297	0.511	510.9	congruent	Block2	congruent/STIM_005.jpg	99
1780.53	0.606	606.0	congruent	Block2	congruent/STIM_005.jpg	99
1783.592	0.463	462.6	congruent	Block2	congruent/STIM_006.jpg	99
1787.793	0.478	478.4	congruent	Block2	congruent/STIM_006.jpg	100
1791.405	0.552	552.0	congruent	Block2	congruent/STIM_006.jpg	100
1794.886	0.539	539.1	congruent	Block2	congruent/STIM_006.jpg	99
1798.363	0.616	616.5	congruent	Block2	congruent/STIM_006.jpg	100
1802.937	0.547	546.8	congruent	Block2	congruent/STIM_007.jpg	99
1806.947	0.506	506.2	congruent	Block2	congruent/STIM_007.jpg	100
1809.937	0.482	482.3	congruent	Block2	congruent/STIM_007.jpg	99
1813.319	0.609	609.3	congruent	Block2	congruent/STIM_007.jpg	99
1816.439	0.604	604.0	congruent	Block2	congruent/STIM_007.jpg	99
1820.438	0.71	709.5	congruent	Block2	congruent/STIM_008.jpg	99
1825.129	0.77	770.3	congruent	Block2	congruent/STIM_008.jpg	99
1828.743	0.51	510.0	congruent	Block2	congruent/STIM_008.jpg	99
1832.405	0.578	577.8	congruent	Block2	congruent/STIM_008.jpg	99
1836.952	0.616	616.4	congruent	Block2	congruent/STIM_008.jpg	99
1840.775	0.493	492.8	congruent	Block2	congruent/STIM_009.jpg	100
1845.08	0.456	456.3	congruent	Block2	congruent/STIM_009.jpg	100
1849.507	0.502	502.1	congruent	Block2	congruent/STIM_009.jpg	99
1852.904	0.564	564.1	congruent	Block2	congruent/STIM_009.jpg	99
1855.888	0.769	769.1	congruent	Block2	congruent/STIM_009.jpg	99
1859.337	0.776	775.9	congruent	Block2	congruent/STIM_010.jpg	99
1862.929	0.695	695.1	congruent	Block2	congruent/STIM_010.jpg	99
1867.321	0.732	732.0	congruent	Block2	congruent/STIM_010.jpg	99
1871.009	0.505	505.3	congruent	Block2	congruent/STIM_010.jpg	99
1874.717	0.537	537.2	congruent	Block2	congruent/STIM_010.jpg	99
1877.727	0.555	554.8	congruent	Block2	congruent/STIM_011.jpg	99
1880.676	0.732	732.4	congruent	Block2	congruent/STIM_011.jpg	100
1883.794	0.463	463.2	congruent	Block2	congruent/STIM_011.jpg	99
1886.38	0.754	753.9	congruent	Block2	congruent/STIM_011.jpg	99
1890.421	0.447	446.8	congruent	Block2	congruent/STIM_011.jpg	100
1893.809	0.437	437.3	congruent	Block2	congruent/STIM_012.jpg	100
1896.366	0.463	462.7	congruent	Block2	congruent/STIM_012.jpg	100
1899.102	0.547	546.9	congruent	Block2	congruent/STIM_012.jpg	100
1901.905	0.771	771.2	congruent	Block2	congruent/STIM_012.jpg	100
1905.075	0.665	664.9	congruent	Block2	congruent/STIM_012.jpg	100
1907.948	0.643	643.2	congruent	Block2	congruent/STIM_013.jpg	99
1910.885	0.493	493.0	congruent	Block2	congruent/STIM_013.jpg	100
1913.611	0.69	690.1	congruent	Block2	congruent/STIM_013.jpg	100
1918.225	0.502	501.7	congruent	Block2	congruent/STIM_013.jpg	100
1921.704	0.743	743.2	congruent	Block2	congruent/STIM_013.jpg	99
1925.594	0.465	464.9	congruent	Block2	congruent/STIM_014.jpg	100
1929.05	0.455	455.1	congruent	Block2	congruent/STIM_014.jpg	100
1932.163	0.752	752.0	congruent	Block2	congruent/STIM_014.jpg	99
1935.598	0.504	503.8	congruent	Block2	congruent/STIM_014.jpg	99
1938.563	0.729	728.7	congruent	Block2	congruent/STIM_014.jpg	99
1941.434	0.769	768.7	congruent	Block2	congruent/STIM_015.jpg	99
1946.139	0.723	723.1	congruent	Block2	congruent/STIM_015.jpg	100
1949.266	0.766	766.3	congruent	Block2	congruent/STIM_015.jpg	99
1952.455	0.606	605.9	congruent	Block2	congruent/STIM_015.jpg	99
1957.054	0.688	688.4	congruent	Block2	congruent/STIM_015.jpg	99
1959.879	0.695	694.7	congruent	Block2	congruent/STIM_016.jpg	100
1962.941	0.763	763.3	congruent	Block2	congruent/STIM_016.jpg	100
1966.366	0.564	563.6	congruent	Block2	congruent/STIM_016.jpg	99
1970.056	0.666	665.9	congruent	Block2	congruent/STIM_016.jpg	100
1974.514	0.632	632.4	congruent	Block2	congruent/STIM_016.jpg	100
1978.534	0.669	669.0	congruent	Block2	congruent/STIM_017.jpg	100
1981.42	0.696	695.8	congruent	Block2	congruent/STIM_017.jpg	100
1985.685	0.672	671.8	congruent	Block2	congruent/STIM_017.jpg	99
1989.98	0.489	488.7	congruent	Block2	congruent/STIM_017.jpg	100
1993.137	0.759	759.0	congruent	Block2	congruent/STIM_017.jpg	100
1995.969	0.738	738.0	congruent	Block2	congruent/STIM_018.jpg	99
1999.358	0.634	633.5	congruent	Block2	congruent/STIM_018.jpg	99
2003.379	0.499	499.0	congruent	Block2	congruent/STIM_018.jpg	100
2006.777	0.75	749.7	congruent	Block2	congruent/STIM_018.jpg	100
2011.352	0.725	725.3	congruent	Block2	congruent/STIM_018.jpg	100
2014.44	0.505	504.6	congruent	Block2	congruent/STIM_019.jpg	99
2017.519	0.712	712.5	congruent	Block2	congruent/STIM_019.jpg	99
2020.98	0.532	532.2	congruent	Block2	congruent/STIM_019.jpg	99
2024.651	0.437	437.2	congruent	Block2	congruent/STIM_019.jpg	99
2028.76	0.522	521.7	congruent	Block2	congruent/STIM_019.jpg	100
2032.441	0.62	620.2	congruent	Block2	congruent/STIM_020.jpg	100
2035.274	0.736	736.1	congruent	Block2	congruent/STIM_020.jpg	100
2038.275	0.459	458.7	congruent	Block2	congruent/STIM_020.jpg	99
2041.378	0.674	674.5	congruent	Block2	congruent/STIM_020.jpg	100
2045.618	0.564	564.5	congruent	Block2	congruent/STIM_020.jpg	100
2048.198	0.65	650.5	congruent	Block2	congruent/STIM_021.jpg	100
2051.103	0.507	507.5	congruent	Block2	congruent/STIM_021.jpg	99
2055.554	0.561	560.6	congruent	Block2	congruent/STIM_021.jpg	99
2060.103	0.446	446.2	congruent	Block2	congruent/STIM_021.jpg	100
2062.782	0.64	640.3	congruent	Block2	congruent/STIM_021.jpg	100
2065.453	0.642	642.4	congruent	Block2	congruent/STIM_022.jpg	99
2068.467	0.648	648.2	congruent	Block2	congruent/STIM_022.jpg	99
2073.036	0.662	661.9	congruent	Block2	congruent/STIM_022.jpg	99
2075.868	0.707	707.3	congruent	Block2	congruent/STIM_022.jpg	99
2079.694	0.615	615.0	congruent	Block2	congruent/STIM_022.jpg	99
2083.945	0.762	761.5	congruent	Block2	congruent/STIM_023.jpg	99
2086.737	0.556	556.5	congruent	Block2	congruent/STIM_023.jpg	99
2090.785	0.646	645.9	congruent	Block2	congruent/STIM_023.jpg	99
2095.13	0.545	545.1	congruent	Block2	congruent/STIM_023.jpg	100
2099.335	0.486	485.5	congruent	Block2	congruent/STIM_023.jpg	99
2102.275	0.469	469.0	congruent	Block2	congruent/STIM_024.jpg	99
2106.395	0.732	731.5	congruent	Block2	congruent/STIM_024.jpg	100
2109.198	0.769	769.2	congruent	Block2	congruent/STIM_024.jpg	100
2112.033	0.712	712.0	congruent	Block2	congruent/STIM_024.jpg	99
2116.412	0.584	583.7	congruent	Block2	congruent/STIM_024.jpg	99
2120.85	0.663	663.2	congruent	Block2	congruent/STIM_025.jpg	100
2124.782	0.513	513.2	congruent	Block2	congruent/STIM_025.jpg	99
2127.654	0.563	562.9	congruent	Block2	congruent/STIM_025.jpg	100
2132.085	0.553	553.1	congruent	Block2	congruent/STIM_025.jpg	100
2135.191	0.755	755.1	congruent	Block2	congruent/STIM_025.jpg	99
2138.579	0.52	519.8	congruent	Block2	congruent/STIM_026.jpg	99
2142.795	0.669	669.1	congruent	Block2	congruent/STIM_026.jpg	99
2146.469	0.577	577.2	congruent	Block2	congruent/STIM_026.jpg	100
2149.402	0.581	581.2	congruent	Block2	congruent/STIM_026.jpg	100
2152.758	0.505	505.3	congruent	Block2	congruent/STIM_026.jpg	99
2156.61	0.712	712.2	congruent	Block2	congruent/STIM_027.jpg	99
2160.323	0.704	704.1	congruent	Block2	congruent/STIM_027.jpg	100
2164.145	0.569	569.0	congruent	Block2	congruent/STIM_027.jpg	100
2167.528	0.583	582.6	congruent	Block2	congruent/STIM_027.jpg	99
2171.173	0.732	732.3	congruent	Block2	congruent/STIM_027.jpg	100
2174.345	0.455	455.2	congruent	Block2	congruent/STIM_028.jpg	100
2177.651	0.769	768.6	congruent	Block2	congruent/STIM_028.jpg	100
2181.193	0.618	617.7	congruent	Block2	congruent/STIM_028.jpg	100
2184.234	0.521	520.8	congruent	Block2	congruent/STIM_028.jpg	99
2187.33	0.759	759.0	congruent	Block2	congruent/STIM_028.jpg	100
2190.571	0.669	668.6	congruent	Block2	congruent/STIM_029.jpg	100
2193.303	0.703	703.0	congruent	Block2	congruent/STIM_029.jpg	100
2196.113	0.754	753.5	congruent	Block2	congruent/STIM_029.jpg	99
2200.085	0.719	719.1	congruent	Block2	congruent/STIM_029.jpg	100
2203.056	0.524	523.9	congruent	Block2	congruent/STIM_029.jpg	100
2206.048	0.487	487.4	incongruent	Block3	incongruent/STIM_000.jpg	100
2208.834	0.637	636.9	incongruent	Block3	incongruent/STIM_000.jpg	99
2211.545	0.6	600.4	incongruent	Block3	incongruent/STIM_000.jpg	100
2214.469	0.813	813.0	incongruent	Block3	incongruent/STIM_000.jpg	100
2217.845	0.75	750.0	incongruent	Block3	incongruent/STIM_000.jpg	100
2222.193	0.789	789.1	incongruent	Block3	incongruent/STIM_001.jpg	99
2226.38	0.43	429.8	incongruent	Block3	incongruent/STIM_001.jpg	100
2230.525	0.485	484.7	incongruent	Block3	incongruent/STIM_001.jpg	99
2234.05	0.831	830.9	incongruent	Block3	incongruent/STIM_001.jpg	100
2238.726	0.776	776.4	incongruent	Block3	incongruent/STIM_001.jpg	100
2243.453	0.567	567.4	incongruent	Block3	incongruent/STIM_002.jpg	99
2247.435	0.696	695.5	incongruent	Block3	incongruent/STIM_002.jpg	100
2250.911	0.693	692.8	incongruent	Block3	incongruent/STIM_002.jpg	100
2254.166	0.622	621.8	incongruent	Block3	incongruent/STIM_002.jpg	100
2258.404	0.791	790.6	incongruent	Block3	incongruent/STIM_002.jpg	99
2262.326	0.457	457.1	incongruent	Block3	incongruent/STIM_003.jpg	100
2265.892	0.473	473.0	incongruent	Block3	incongruent/STIM_003.jpg	100
2269.729	0.628	628.0	incongruent	Block3	incongruent/STIM_003.jpg	100
2273.64	0.654	654.1	incongruent	Block3	incongruent/STIM_003.jpg	99
2277.613	0.685	685.0	incongruent	Block3	incongruent/STIM_003.jpg	99
2281.463	0.764	763.6	incongruent	Block3	incongruent/STIM_004.jpg	99
2285.935	0.91	909.6	incongruent	Block3	incongruent/STIM_004.jpg	99
2288.992	0.612	612.1	incongruent	Block3	incongruent/STIM_004.jpg	99
2293.455	0.877	877.2	incongruent	Block3	incongruent/STIM_004.jpg	99
2296.769	0.66	659.9	incongruent	Block3	incongruent/STIM_004.jpg	100
2301.358	0.785	785.0	incongruent	Block3	incongruent/STIM_005.jpg	99
2305.718	0.555	555.2	incongruent	Block3	incongruent/STIM_005.jpg	100
2310.157	0.881	880.6	incongruent	Block3	incongruent/STIM_005.jpg	99
2313.86	0.539	539.0	incongruent	Block3	incongruent/STIM_005.jpg	99
2318.298	0.451	451.1	incongruent	Block3	incongruent/STIM_005.jpg	100
2321.849	0.436	436.4	incongruent	Block3	incongruent/STIM_006.jpg	100
2326.145	0.652	651.8	incongruent	Block3	incongruent/STIM_006.jpg	100
2329.57	0.805	804.9	incongruent	Block3	incongruent/STIM_006.jpg	99
2332.564	0.481	481.1	incongruent	Block3	incongruent/STIM_006.jpg	100
2336.46	0.456	455.8	incongruent	Block3	incongruent/STIM_006.jpg	99
2338.978	0.892	892.4	incongruent	Block3	incongruent/STIM_007.jpg	99
2342.083	0.828	827.6	incongruent	Block3	incongruent/STIM_007.jpg	100
2346.321	0.684	683.5	incongruent	Block3	incongruent/STIM_007.jpg	99
2349.189	0.754	753.6	incongruent	Block3	incongruent/STIM_007.jpg	100
2352.856	0.796	795.9	incongruent	Block3	incongruent/STIM_007.jpg	99
2357.189	0.852	851.8	incongruent	Block3	incongruent/STIM_008.jpg	99
2360.065	0.599	599.3	incongruent	Block3	incongruent/STIM_008.jpg	100
2364.165	0.741	741.4	incongruent	Block3	incongruent/STIM_008.jpg	100
2368.15	0.808	807.7	incongruent	Block3	incongruent/STIM_008.jpg	99
2372.953	0.59	590.5	incongruent	Block3	incongruent/STIM_008.jpg	100
2375.585	0.549	548.9	incongruent	Block3	incongruent/STIM_009.jpg	99
2378.211	0.774	774.5	incongruent	Block3	incongruent/STIM_009.jpg	100
2381.852	0.677	677.1	incongruent	Block3	incongruent/STIM_009.jpg	100
2384.94	0.512	511.8	incongruent	Block3	incongruent/STIM_009.jpg	100
2389.29	0.876	875.9	incongruent	Block3	incongruent/STIM_009.jpg	100
2393.012	0.761	760.8	incongruent	Block3	incongruent/STIM_010.jpg	100
2396.519	0.835	835.1	incongruent	Block3	incongruent/STIM_010.jpg	100
2400.283	0.504	503.8	incongruent	Block3	incongruent/STIM_010.jpg	99
2404.071	0.742	742.2	incongruent	Block3	incongruent/STIM_010.jpg	99
2407.179	0.436	436.0	incongruent	Block3	incongruent/STIM_010.jpg	99
2410.026	0.632	631.8	incongruent	Block3	incongruent/STIM_011.jpg	100
2413.513	0.545	545.0	incongruent	Block3	incongruent/STIM_011.jpg	99
2417.648	0.487	487.0	incongruent	Block3	incongruent/STIM_011.jpg	100
2421.975	0.531	531.2	incongruent	Block3	incongruent/STIM_011.jpg	99
2424.81	0.578	578.2	incongruent	Block3	incongruent/STIM_011.jpg	100
2428.142	0.872	871.8	incongruent	Block3	incongruent/STIM_012.jpg	100
2431.017	0.658	657.8	incongruent	Block3	incongruent/STIM_012.jpg	99
2435.331	0.576	576.0	incongruent	Block3	incongruent/STIM_012.jpg	100
2438.764	0.475	475.4	incongruent	Block3	incongruent/STIM_012.jpg	100
2441.769	0.57	570.3	incongruent	Block3	incongruent/STIM_012.jpg	99
2445.821	0.848	847.5	incongruent	Block3	incongruent/STIM_013.jpg	100
2449.302	0.768	768.1	incongruent	Block3	incongruent/STIM_013.jpg	99
2452.344	0.613	613.3	incongruent	Block3	incongruent/STIM_013.jpg	99
2456.752	0.469	468.7	incongruent	Block3	incongruent/STIM_013.jpg	99
2460.671	0.863	862.8	incongruent	Block3	incongruent/STIM_013.jpg	100
2465.173	0.695	694.8	incongruent	Block3	incongruent/STIM_014.jpg	100
2469.285	0.834	833.7	incongruent	Block3	incongruent/STIM_014.jpg	99
2473.714	0.568	568.1	incongruent	Block3	incongruent/STIM_014.jpg	100
2476.74	0.675	674.9	incongruent	Block3	incongruent/STIM_014.jpg	99
2480.324	0.455	454.8	incongruent	Block3	incongruent/STIM_014.jpg	100
2483.768	0.552	552.1	incongruent	Block3	incongruent/STIM_015.jpg	99
2486.961	0.85	849.6	incongruent	Block3	incongruent/STIM_015.jpg	99
2491.36	0.791	791.1	incongruent	Block3	incongruent/STIM_015.jpg	99
2496.087	0.879	879.2	incongruent	Block3	incongruent/STIM_015.jpg	100
2499.752	0.532	531.7	incongruent	Block3	incongruent/STIM_015.jpg	99
2502.584	0.704	703.5	incongruent	Block3	incongruent/STIM_016.jpg	100
2506.227	0.428	427.9	incongruent	Block3	incongruent/STIM_016.jpg	100
2510.1	0.698	697.5	incongruent	Block3	incongruent/STIM_016.jpg	99
2512.851	0.867	867.4	incongruent	Block3	incongruent/STIM_016.jpg	99
2517.204	0.904	903.6	incongruent	Block3	incongruent/STIM_016.jpg	100
2520.349	0.64	639.7	incongruent	Block3	incongruent/STIM_017.jpg	100
2523.469	0.885	885.1	incongruent	Block3	incongruent/STIM_017.jpg	99
2528.254	0.75	750.1	incongruent	Block3	incongruent/STIM_017.jpg	99
2532.992	0.834	833.9	incongruent	Block3	incongruent/STIM_017.jpg	99
2537.809	0.57	570.2	incongruent	Block3	incongruent/STIM_017.jpg	99
2541.071	0.692	691.8	incongruent	Block3	incongruent/STIM_018.jpg	100
2544.071	0.89	889.8	incongruent	Block3	incongruent/STIM_018.jpg	99
2547.517	0.755	755.0	incongruent	Block3	incongruent/STIM_018.jpg	100
2552.099	0.867	867.0	incongruent	Block3	incongruent/STIM_018.jpg	100
2556.677	0.91	909.7	incongruent	Block3	incongruent/STIM_018.jpg	99
2560.544	0.782	782.5	incongruent	Block3	incongruent/STIM_019.jpg	100
2563.823	0.649	649.3	incongruent	Block3	incongruent/STIM_019.jpg	99
2566.52	0.698	698.5	incongruent	Block3	incongruent/STIM_019.jpg	100
2571.126	0.724	723.6	incongruent	Block3	incongruent/STIM_019.jpg	99
2575.085	0.783	782.8	incongruent	Block3	incongruent/STIM_019.jpg	100
2579.436	0.781	780.6	incongruent	Block3	incongruent/STIM_020.jpg	99
2582.879	0.646	645.7	incongruent	Block3	incongruent/STIM_020.jpg	99
2587.051	0.776	776.3	incongruent	Block3	incongruent/STIM_020.jpg	100
2591.597	0.58	579.6	incongruent	Block3	incongruent/STIM_020.jpg	99
2595.963	0.819	818.9	incongruent	Block3	incongruent/STIM_020.jpg	100
2599.455	0.812	811.9	incongruent	Block3	incongruent/STIM_021.jpg	100
2603.389	0.808	808.3	incongruent	Block3	incongruent/STIM_021.jpg	99
2607.153	0.456	455.5	incongruent	Block3	incongruent/STIM_021.jpg	100
2610.826	0.452	451.7	incongruent	Block3	incongruent/STIM_021.jpg	99
2613.886	0.628	627.5	incongruent	Block3	incongruent/STIM_021.jpg	99
2617.726	0.757	757.3	incongruent	Block3	incongruent/STIM_022.jpg	99
2622.327	0.541	541.2	incongruent	Block3	incongruent/STIM_022.jpg	100
2625.171	0.754	754.4	incongruent	Block3	incongruent/STIM_022.jpg	100
2629.44	0.689	688.6	incongruent	Block3	incongruent/STIM_022.jpg	99
2632.248	0.48	480.2	incongruent	Block3	incongruent/STIM_022.jpg	99
2635.799	0.636	635.7	incongruent	Block3	incongruent/STIM_023.jpg	99
2638.798	0.601	601.4	incongruent	Block3	incongruent/STIM_023.jpg	99
2643.168	0.671	671.2	incongruent	Block3	incongruent/STIM_023.jpg	99
2647.077	0.469	469.0	incongruent	Block3	incongruent/STIM_023.jpg	99
2649.887	0.578	577.9	incongruent	Block3	incongruent/STIM_023.jpg	100
2654.25	0.46	459.8	incongruent	Block3	incongruent/STIM_024.jpg	99
2657.394	0.904	904.2	incongruent	Block3	incongruent/STIM_024.jpg	100
2661.87	0.9	900.2	incongruent	Block3	incongruent/STIM_024.jpg	99
2666.541	0.573	573.3	incongruent	Block3	incongruent/STIM_024.jpg	99
2670.439	0.818	817.8	incongruent	Block3	incongruent/STIM_024.jpg	100
2674.814	0.86	859.9	incongruent	Block3	incongruent/STIM_025.jpg	100
2679.631	0.452	451.6	incongruent	Block3	incongruent/STIM_025.jpg	100
2683.535	0.689	688.6	incongruent	Block3	incongruent/STIM_025.jpg	100
2687.273	0.628	627.7	incongruent	Block3	incongruent/STIM_025.jpg	100
2690.4	0.888	888.4	incongruent	Block3	incongruent/STIM_025.jpg	100
2695.174	0.555	554.8	incongruent	Block3	incongruent/STIM_026.jpg	99
2699.153	0.704	704.5	incongruent	Block3	incongruent/STIM_026.jpg	100
2702.672	0.439	438.9	incongruent	Block3	incongruent/STIM_026.jpg	99
2706.283	0.693	693.3	incongruent	Block3	incongruent/STIM_026.jpg	99
2709.36	0.526	525.7	incongruent	Block3	incongruent/STIM_026.jpg	100
2713.718	0.878	877.6	incongruent	Block3	incongruent/STIM_027.jpg	99
2717.573	0.67	670.2	incongruent	Block3	incongruent/STIM_027.jpg	99
2720.786	0.671	671.3	incongruent	Block3	incongruent/STIM_027.jpg	99
2724.029	0.431	430.7	incongruent	Block3	incongruent/STIM_027.jpg	100
2728.39	0.532	531.8	incongruent	Block3	incongruent/STIM_027.jpg	99
2732.827	0.618	617.9	incongruent	Block3	incongruent/STIM_028.jpg	99
2735.826	0.524	523.5	incongruent	Block3	incongruent/STIM_028.jpg	100
2738.466	0.446	446.0	incongruent	Block3	incongruent/STIM_028.jpg	99
2742.218	0.501	501.3	incongruent	Block3	incongruent/STIM_028.jpg	100
2746.308	0.567	566.8	incongruent	Block3	incongruent/STIM_028.jpg	100
2749.225	0.85	849.8	incongruent	Block3	incongruent/STIM_029.jpg	100
2753.311	0.54	539.9	incongruent	Block3	incongruent/STIM_029.jpg	100
2756.33	0.509	509.5	incongruent	Block3	incongruent/STIM_029.jpg	100
2759.642	0.713	712.9	incongruent	Block3	incongruent/STIM_029.jpg	99
2763.498	0.528	527.9	incongruent	Block3	incongruent/STIM_029.jpg	99
2767.888	0.459	458.8	congruent	Block3	congruent/STIM_000.jpg	100
2770.601	0.69	689.6	congruent	Block3	congruent/STIM_000.jpg	99
2774.836	0.668	668.5	congruent	Block3	congruent/STIM_000.jpg	100
2779.278	0.712	712.3	congruent	Block3	congruent/STIM_000.jpg	99
2782.39	0.524	523.9	congruent	Block3	congruent/STIM_000.jpg	99
2785.61	0.55	549.5	congruent	Block3	congruent/STIM_001.jpg	100
2789.2	0.636	636.4	congruent	Block3	congruent/STIM_001.jpg	99
2793.529	0.489	488.9	congruent	Block3	congruent/STIM_001.jpg	100
2797.07	0.523	522.8	congruent	Block3	congruent/STIM_001.jpg	100
2800.146	0.666	665.9	congruent	Block3	congruent/STIM_001.jpg	100
2803.025	0.684	684.5	congruent	Block3	congruent/STIM_002.jpg	99
2806.726	0.542	542.5	congruent	Block3	congruent/STIM_002.jpg	99
2809.269	0.617	617.2	congruent	Block3	congruent/STIM_002.jpg	100
2813.651	0.762	762.4	congruent	Block3	congruent/STIM_002.jpg	99
2817.463	0.701	701.3	congruent	Block3	congruent/STIM_002.jpg	99
2820.509	0.728	728.5	congruent	Block3	congruent/STIM_003.jpg	99
2823.564	0.7	700.1	congruent	Block3	congruent/STIM_003.jpg	100
2826.658	0.68	680.3	congruent	Block3	congruent/STIM_003.jpg	99
2830.77	0.617	616.9	congruent	Block3	congruent/STIM_003.jpg	100
2834.733	0.452	451.7	congruent	Block3	congruent/STIM_003.jpg	100
2837.305	0.73	729.6	congruent	Block3	congruent/STIM_004.jpg	100
2840.153	0.76	759.9	congruent	Block3	congruent/STIM_004.jpg	99
2843.887	0.607	607.1	congruent	Block3	congruent/STIM_004.jpg	99
2847.697	0.602	601.9	congruent	Block3	congruent/STIM_004.jpg	100
2852.028	0.675	674.8	congruent	Block3	congruent/STIM_004.jpg	100
2855.148	0.464	464.2	congruent	Block3	congruent/STIM_005.jpg	100
2859.556	0.659	658.6	congruent	Block3	congruent/STIM_005.jpg	99
2862.964	0.552	552.4	congruent	Block3	congruent/STIM_005.jpg	100
2865.941	0.726	725.9	congruent	Block3	congruent/STIM_005.jpg	100
2869.714	0.539	539.1	congruent	Block3	congruent/STIM_005.jpg	100
2873.668	0.508	507.7	congruent	Block3	congruent/STIM_006.jpg	100
2877.464	0.439	438.7	congruent	Block3	congruent/STIM_006.jpg	99
2880.431	0.474	473.5	congruent	Block3	congruent/STIM_006.jpg	100
2884.062	0.49	490.0	congruent	Block3	congruent/STIM_006.jpg	100
2887.228	0.512	512.0	congruent	Block3	congruent/STIM_006.jpg	99
2891.421	0.662	662.4	congruent	Block3	congruent/STIM_007.jpg	99
2895.896	0.736	736.1	congruent	Block3	congruent/STIM_007.jpg	100
2899.239	0.539	538.7	congruent	Block3	congruent/STIM_007.jpg	100
2902.484	0.62	620.5	congruent	Block3	congruent/STIM_007.jpg	100
2905.151	0.458	457.6	congruent	Block3	congruent/STIM_007.jpg	99
2908.905	0.448	448.4	congruent	Block3	congruent/STIM_008.jpg	99
2912.124	0.516	515.8	congruent	Block3	congruent/STIM_008.jpg	100
2916.535	0.665	665.2	congruent	Block3	congruent/STIM_008.jpg	99
2920.319	0.684	684.5	congruent	Block3	congruent/STIM_008.jpg	99
2924.995	0.729	729.0	congruent	Block3	congruent/STIM_008.jpg	99
2927.79	0.569	568.8	congruent	Block3	congruent/STIM_009.jpg	99
2932.334	0.437	436.8	congruent	Block3	congruent/STIM_009.jpg	99
2935.268	0.77	770.2	congruent	Block3	congruent/STIM_009.jpg	100
2938.925	0.68	679.6	congruent	Block3	congruent/STIM_009.jpg	100
2941.903	0.462	462.0	congruent	Block3	congruent/STIM_009.jpg	100
2945.597	0.675	674.7	congruent	Block3	congruent/STIM_010.jpg	99
2948.712	0.703	703.3	congruent	Block3	congruent/STIM_010.jpg	100
2952.793	0.545	544.9	congruent	Block3	congruent/STIM_010.jpg	100
2957.313	0.592	592.2	congruent	Block3	congruent/STIM_010.jpg	99
2960.755	0.612	612.4	congruent	Block3	congruent/STIM_010.jpg	99
2964.711	0.523	523.4	congruent	Block3	congruent/STIM_011.jpg	99
2967.947	0.589	588.6	congruent	Block3	congruent/STIM_011.jpg	99
2970.97	0.441	441.2	congruent	Block3	congruent/STIM_011.jpg	100
2974.707	0.738	738.4	congruent	Block3	congruent/STIM_011.jpg	99
2979.233	0.531	530.8	congruent	Block3	congruent/STIM_011.jpg	99
2982.984	0.622	621.5	congruent	Block3	congruent/STIM_012.jpg	100
2986.206	0.437	436.8	congruent	Block3	congruent/STIM_012.jpg	100
2989.236	0.683	682.6	congruent	Block3	congruent/STIM_012.jpg	100
2993.651	0.612	611.6	congruent	Block3	congruent/STIM_012.jpg	99
2997.013	0.562	562.2	congruent	Block3	congruent/STIM_012.jpg	100
3001.137	0.592	592.2	congruent	Block3	congruent/STIM_013.jpg	99
3004.886	0.713	713.0	congruent	Block3	congruent/STIM_013.jpg	99
3008.051	0.575	574.9	congruent	Block3	congruent/STIM_013.jpg	99
3011.475	0.627	626.9	congruent	Block3	congruent/STIM_013.jpg	99
3015.872	0.617	617.3	congruent	Block3	congruent/STIM_013.jpg	99
3019.802	0.443	442.8	congruent	Block3	congruent/STIM_014.jpg	99
3024.219	0.655	655.3	congruent	Block3	congruent/STIM_014.jpg	99
3027.568	0.675	675.0	congruent	Block3	congruent/STIM_014.jpg	100
3031.341	0.706	705.8	congruent	Block3	congruent/STIM_014.jpg	100
3034.453	0.459	458.7	congruent	Block3	congruent/STIM_014.jpg	99
3037.527	0.598	597.9	congruent	Block3	congruent/STIM_015.jpg	100
3042.069	0.678	678.1	congruent	Block3	congruent/STIM_015.jpg	99
3046.719	0.766	765.7	congruent	Block3	congruent/STIM_015.jpg	99
3050.784	0.479	478.8	congruent	Block3	congruent/STIM_015.jpg	99
3054.634	0.602	602.5	congruent	Block3	congruent/STIM_015.jpg	100
3058.03	0.494	494.0	congruent	Block3	congruent/STIM_016.jpg	99
3062.133	0.733	733.0	congruent	Block3	congruent/STIM_016.jpg	99
3065.169	0.472	471.6	congruent	Block3	congruent/STIM_016.jpg	100
3068.09	0.517	516.7	congruent	Block3	congruent/STIM_016.jpg	99
3071.748	0.44	439.5	congruent	Block3	congruent/STIM_016.jpg	100
3075.495	0.691	690.7	congruent	Block3	congruent/STIM_017.jpg	100
3079.982	0.566	565.9	congruent	Block3	congruent/STIM_017.jpg	99
3083.831	0.764	763.8	congruent	Block3	congruent/STIM_017.jpg	100
3086.827	0.645	645.1	congruent	Block3	congruent/STIM_017.jpg	100
3090.597	0.592	592.2	congruent	Block3	congruent/STIM_017.jpg	99
3094.213	0.696	695.9	congruent	Block3	congruent/STIM_018.jpg	99
3098.478	0.689	689.3	congruent	Block3	congruent/STIM_018.jpg	99
3102.033	0.637	636.8	congruent	Block3	congruent/STIM_018.jpg	99
3106.558	0.535	534.7	congruent	Block3	congruent/STIM_018.jpg	99
3110.173	0.75	749.6	congruent	Block3	congruent/STIM_018.jpg	99
3113.009	0.538	537.6	congruent	Block3	congruent/STIM_019.jpg	100
3116.916	0.666	665.6	congruent	Block3	congruent/STIM_019.jpg	100
3119.828	0.461	460.8	congruent	Block3	congruent/STIM_019.jpg	100
3123.063	0.497	497.2	congruent	Block3	congruent/STIM_019.jpg	100
3126.376	0.436	436.1	congruent	Block3	congruent/STIM_019.jpg	99
3130.345	0.757	756.9	congruent	Block3	congruent/STIM_020.jpg	100
3134.197	0.541	541.1	congruent	Block3	congruent/STIM_020.jpg	100
3138.45	0.573	572.7	congruent	Block3	congruent/STIM_020.jpg	100
3141.842	0.589	588.9	congruent	Block3	congruent/STIM_020.jpg	99
3144.582	0.654	654.4	congruent	Block3	congruent/STIM_020.jpg	99
3147.933	0.763	762.7	congruent	Block3	congruent/STIM_021.jpg	99
3151.885	0.512	512.4	congruent	Block3	congruent/STIM_021.jpg	99
3155.283	0.524	523.9	congruent	Block3	congruent/STIM_021.jpg	99
3159.032	0.507	507.1	congruent	Block3	congruent/STIM_021.jpg	100
3162.694	0.444	444.1	congruent	Block3	congruent/STIM_021.jpg	99
3166.905	0.724	724.0	congruent	Block3	congruent/STIM_022.jpg	100
3171.423	0.625	625.0	congruent	Block3	congruent/STIM_022.jpg	99
3175.044	0.517	516.7	congruent	Block3	congruent/STIM_022.jpg	99
3178.395	0.444	443.5	congruent	Block3	congruent/STIM_022.jpg	99
3182.455	0.632	632.0	congruent	Block3	congruent/STIM_022.jpg	100
3185.348	0.697	697.0	congruent	Block3	congruent/STIM_023.jpg	99
3188.186	0.714	713.8	congruent	Block3	congruent/STIM_023.jpg	100
3192.853	0.687	687.0	congruent	Block3	congruent/STIM_023.jpg	100
3196.941	0.679	678.8	congruent	Block3	congruent/STIM_023.jpg	100
3200.323	0.497	497.0	congruent	Block3	congruent/STIM_023.jpg	99
3202.854	0.754	753.7	congruent	Block3	congruent/STIM_024.jpg	99
3205.979	0.685	684.8	congruent	Block3	congruent/STIM_024.jpg	99
3209.414	0.562	562.0	congruent	Block3	congruent/STIM_024.jpg	99
3213.119	0.596	596.5	congruent	Block3	congruent/STIM_024.jpg	100
3216.478	0.686	685.7	congruent	Block3	congruent/STIM_024.jpg	100
3221.101	0.585	585.3	congruent	Block3	congruent/STIM_025.jpg	100
3224.803	0.644	644.1	congruent	Block3	congruent/STIM_025.jpg	100
3229.265	0.71	710.0	congruent	Block3	congruent/STIM_025.jpg	99
3232.287	0.689	688.8	congruent	Block3	congruent/STIM_025.jpg	100
3236.793	0.765	764.6	congruent	Block3	congruent/STIM_025.jpg	99
3241.489	0.476	476.0	congruent	Block3	congruent/STIM_026.jpg	100
3244.184	0.555	554.8	congruent	Block3	congruent/STIM_026.jpg	100
3247.574	0.576	575.7	congruent	Block3	congruent/STIM_026.jpg	100
3250.367	0.745	745.3	congruent	Block3	congruent/STIM_026.jpg	100
3255.085	0.5	500.2	congruent	Block3	congruent/STIM_026.jpg	100
3259.554	0.569	568.7	congruent	Block3	congruent/STIM_027.jpg	99
3263.323	0.487	486.9	congruent	Block3	congruent/STIM_027.jpg	99
3266.027	0.44	440.1	congruent	Block3	congruent/STIM_027.jpg	99
3270.364	0.558	557.5	congruent	Block3	congruent/STIM_027.jpg	99
3273.44	0.645	645.0	congruent	Block3	congruent/STIM_027.jpg	100
3277.216	0.713	712.8	congruent	Block3	congruent/STIM_028.jpg	100
3280.406	0.437	436.6	congruent	Block3	congruent/STIM_028.jpg	99
3283.467	0.526	526.0	congruent	Block3	congruent/STIM_028.jpg	99
3287.931	0.616	616.1	congruent	Block3	congruent/STIM_028.jpg	100
3291.465	0.773	772.8	congruent	Block3	congruent/STIM_028.jpg	99
3295.947	0.717	717.0	congruent	Block3	congruent/STIM_029.jpg	99
3299.482	0.555	555.0	congruent	Block3	congruent/STIM_029.jpg	100
3303.643	0.562	562.1	congruent	Block3	congruent/STIM_029.jpg	100
3307.444	0.461	461.2	congruent	Block3	congruent/STIM_029.jpg	99
3310.501	0.776	776.3	congruent	Block3	congruent/STIM_029.jpg	99
