onset	duration	accuracy	trial_type	learning_stage	stimulus
0.0	1.084	incorrect	incongruent	Block1	incongruent/STIM_000.jpg
4.934	0.639	correct	incongruent	Block1	incongruent/STIM_000.jpg
7.573	0.663	incorrect	incongruent	Block1	incongruent/STIM_000.jpg
11.483	0.734	correct	incongruent	Block1	incongruent/STIM_000.jpg
15.178	0.798	correct	incongruent	Block1	incongruent/STIM_000.jpg
18.049	0.943	correct	incongruent	Block1	incongruent/STIM_001.jpg
22.076	0.787	correct	incongruent	Block1	incongruent/STIM_001.jpg
25.907	0.719	correct	incongruent	Block1	incongruent/STIM_001.jpg
29.448	0.775	incorrect	incongruent	Block1	incongruent/STIM_001.jpg
33.092	0.706	correct	incongruent	Block1	incongruent/STIM_001.jpg
36.129	0.757	correct	incongruent	Block1	incongruent/STIM_002.jpg
40.622	0.865	correct	incongruent	Block1	incongruent/STIM_002.jpg
45.385	0.74	correct	incongruent	Block1	incongruent/STIM_002.jpg
48.42	0.57	correct	incongruent	Block1	incongruent/STIM_002.jpg
52.801	1.013	incorrect	incongruent	Block1	incongruent/STIM_002.jpg
56.268	1.121	incorrect	incongruent	Block1	incongruent/STIM_003.jpg
61.349	1.06	correct	incongruent	Block1	incongruent/STIM_003.jpg
64.582	0.921	correct	incongruent	Block1	incongruent/STIM_003.jpg
69.116	0.708	correct	incongruent	Block1	incongruent/STIM_003.jpg
72.898	0.711	correct	incongruent	Block1	incongruent/STIM_003.jpg
75.981	0.75	correct	incongruent	Block1	incongruent/STIM_004.jpg
79.42	0.858	correct	incongruent	Block1	incongruent/STIM_004.jpg
84.06	0.624	correct	incongruent	Block1	incongruent/STIM_004.jpg
87.448	1.034	correct	incongruent	Block1	incongruent/STIM_004.jpg
91.869	0.95	correct	incongruent	Block1	incongruent/STIM_004.jpg
95.681	0.805	incorrect	incongruent	Block1	incongruent/STIM_005.jpg
99.859	0.59	correct	incongruent	Block1	incongruent/STIM_005.jpg
103.919	1.094	incorrect	incongruent	Block1	incongruent/STIM_005.jpg
107.841	0.963	correct	incongruent	Block1	incongruent/STIM_005.jpg
111.652	0.795	incorrect	incongruent	Block1	incongruent/STIM_005.jpg
114.785	1.136	correct	incongruent	Block1	incongruent/STIM_006.jpg
119.402	1.14	correct	incongruent	Block1	incongruent/STIM_006.jpg
123.686	1.158	correct	incongruent	Block1	incongruent/STIM_006.jpg
127.199	0.681	correct	incongruent	Block1	incongruent/STIM_006.jpg
131.772	0.814	correct	incongruent	Block1	incongruent/STIM_006.jpg
135.39	1.183	incorrect	incongruent	Block1	incongruent/STIM_007.jpg
139.211	1.038	correct	incongruent	Block1	incongruent/STIM_007.jpg
142.406	0.704	incorrect	incongruent	Block1	incongruent/STIM_007.jpg
145.144	0.633	correct	incongruent	Block1	incongruent/STIM_007.jpg
148.19	0.826	correct	incongruent	Block1	incongruent/STIM_007.jpg
152.447	0.743	correct	incongruent	Block1	incongruent/STIM_008.jpg
155.363	0.817	correct	incongruent	Block1	incongruent/STIM_008.jpg
158.859	0.651	correct	incongruent	Block1	incongruent/STIM_008.jpg
163.435	1.001	correct	incongruent	Block1	incongruent/STIM_008.jpg
167.371	0.941	incorrect	incongruent	Block1	incongruent/STIM_008.jpg
170.593	0.732	correct	incongruent	Block1	incongruent/STIM_009.jpg
175.077	0.916	correct	incongruent	Block1	incongruent/STIM_009.jpg
178.32	0.765	correct	incongruent	Block1	incongruent/STIM_009.jpg
181.902	1.002	correct	incongruent	Block1	incongruent/STIM_009.jpg
186.441	0.963	incorrect	incongruent	Block1	incongruent/STIM_009.jpg
189.657	0.923	incorrect	incongruent	Block1	incongruent/STIM_010.jpg
193.064	0.746	correct	incongruent	Block1	incongruent/STIM_010.jpg
195.855	0.753	correct	incongruent	Block1	incongruent/STIM_010.jpg
200.314	0.807	correct	incongruent	Block1	incongruent/STIM_010.jpg
204.512	0.651	incorrect	incongruent	Block1	incongruent/STIM_010.jpg
208.787	0.745	correct	incongruent	Block1	incongruent/STIM_011.jpg
213.27	0.743	incorrect	incongruent	Block1	incongruent/STIM_011.jpg
217.327	1.035	correct	incongruent	Block1	incongruent/STIM_011.jpg
222.084	1.077	correct	incongruent	Block1	incongruent/STIM_011.jpg
227.132	0.494	correct	incongruent	Block1	incongruent/STIM_011.jpg
230.916	0.782	correct	incongruent	Block1	incongruent/STIM_012.jpg
234.831	0.596	correct	incongruent	Block1	incongruent/STIM_012.jpg
239.382	1.115	correct	incongruent	Block1	incongruent/STIM_012.jpg
244.107	0.797	correct	incongruent	Block1	incongruent/STIM_012.jpg
246.991	0.533	correct	incongruent	Block1	incongruent/STIM_012.jpg
250.835	0.882	incorrect	incongruent	Block1	incongruent/STIM_013.jpg
253.916	1.016	correct	incongruent	Block1	incongruent/STIM_013.jpg
257.394	0.595	correct	incongruent	Block1	incongruent/STIM_013.jpg
261.436	0.737	correct	incongruent	Block1	incongruent/STIM_013.jpg
264.859	0.518	correct	incongruent	Block1	incongruent/STIM_013.jpg
268.377	0.922	correct	incongruent	Block1	incongruent/STIM_014.jpg
271.407	1.009	correct	incongruent	Block1	incongruent/STIM_014.jpg
274.503	1.162	correct	incongruent	Block1	incongruent/STIM_014.jpg
279.298	0.973	correct	incongruent	Block1	incongruent/STIM_014.jpg
283.56	0.497	incorrect	incongruent	Block1	incongruent/STIM_014.jpg
287.788	0.82	correct	incongruent	Block1	incongruent/STIM_015.jpg
291.902	1.216	incorrect	incongruent	Block1	incongruent/STIM_015.jpg
296.727	0.558	correct	incongruent	Block1	incongruent/STIM_015.jpg
300.694	1.056	correct	incongruent	Block1	incongruent/STIM_015.jpg
304.532	0.635	correct	incongruent	Block1	incongruent/STIM_015.jpg
308.601	0.849	incorrect	incongruent	Block1	incongruent/STIM_016.jpg
311.973	0.836	correct	incongruent	Block1	incongruent/STIM_016.jpg
316.306	0.929	incorrect	incongruent	Block1	incongruent/STIM_016.jpg
319.454	0.989	correct	incongruent	Block1	incongruent/STIM_016.jpg
322.671	0.785	correct	incongruent	Block1	incongruent/STIM_016.jpg
326.852	0.818	correct	incongruent	Block1	incongruent/STIM_017.jpg
330.859	0.75	correct	incongruent	Block1	incongruent/STIM_017.jpg
335.415	0.854	correct	incongruent	Block1	incongruent/STIM_017.jpg
339.877	0.632	correct	incongruent	Block1	incongruent/STIM_017.jpg
342.672	1.04	correct	incongruent	Block1	incongruent/STIM_017.jpg
346.485	0.62	correct	incongruent	Block1	incongruent/STIM_018.jpg
349.869	0.991	incorrect	incongruent	Block1	incongruent/STIM_018.jpg
354.816	0.907	correct	incongruent	Block1	incongruent/STIM_018.jpg
358.215	0.922	correct	incongruent	Block1	incongruent/STIM_018.jpg
361.603	1.0	correct	incongruent	Block1	incongruent/STIM_018.jpg
366.194	0.912	correct	incongruent	Block1	incongruent/STIM_019.jpg
369.124	1.232	incorrect	incongruent	Block1	incongruent/STIM_019.jpg
372.663	0.835	correct	incongruent	Block1	incongruent/STIM_019.jpg
376.931	0.761	incorrect	incongruent	Block1	incongruent/STIM_019.jpg
380.007	0.557	correct	incongruent	Block1	incongruent/STIM_019.jpg
383.016	1.08	correct	incongruent	Block1	incongruent/STIM_020.jpg
386.52	0.583	correct	incongruent	Block1	incongruent/STIM_020.jpg
389.372	0.838	correct	incongruent	Block1	incongruent/STIM_020.jpg
393.854	1.027	correct	incongruent	Block1	incongruent/STIM_020.jpg
397.967	1.039	incorrect	incongruent	Block1	incongruent/STIM_020.jpg
402.426	1.299	correct	incongruent	Block1	incongruent/STIM_021.jpg
407.522	0.747	correct	incongruent	Block1	incongruent/STIM_021.jpg
410.394	0.747	correct	incongruent	Block1	incongruent/STIM_021.jpg
414.795	0.552	incorrect	incongruent	Block1	incongruent/STIM_021.jpg
417.437	0.512	correct	incongruent	Block1	incongruent/STIM_021.jpg
420.365	0.839	incorrect	incongruent	Block1	incongruent/STIM_022.jpg
423.206	1.118	correct	incongruent	Block1	incongruent/STIM_022.jpg
426.916	0.737	correct	incongruent	Block1	incongruent/STIM_022.jpg
430.041	1.001	incorrect	incongruent	Block1	incongruent/STIM_022.jpg
434.329	0.88	correct	incongruent	Block1	incongruent/STIM_022.jpg
438.58	1.006	correct	incongruent	Block1	incongruent/STIM_023.jpg
442.37	1.025	correct	incongruent	Block1	incongruent/STIM_023.jpg
445.512	1.052	correct	incongruent	Block1	incongruent/STIM_023.jpg
449.726	0.971	correct	incongruent	Block1	incongruent/STIM_023.jpg
453.085	0.648	correct	incongruent	Block1	incongruent/STIM_023.jpg
457.261	0.808	correct	incongruent	Block1	incongruent/STIM_024.jpg
461.57	0.913	correct	incongruent	Block1	incongruent/STIM_024.jpg
465.201	0.941	correct	incongruent	Block1	incongruent/STIM_024.jpg
468.144	0.79	correct	incongruent	Block1	incongruent/STIM_024.jpg
471.972	0.691	correct	incongruent	Block1	incongruent/STIM_024.jpg
475.221	0.823	correct	incongruent	Block1	incongruent/STIM_025.jpg
479.199	0.882	correct	incongruent	Block1	incongruent/STIM_025.jpg
483.159	0.894	correct	incongruent	Block1	incongruent/STIM_025.jpg
487.686	0.95	correct	incongruent	Block1	incongruent/STIM_025.jpg
491.487	0.687	correct	incongruent	Block1	incongruent/STIM_025.jpg
494.829	0.886	correct	incongruent	Block1	incongruent/STIM_026.jpg
497.939	1.017	correct	incongruent	Block1	incongruent/STIM_026.jpg
502.116	0.993	correct	incongruent	Block1	incongruent/STIM_026.jpg
506.338	0.739	correct	incongruent	Block1	incongruent/STIM_026.jpg
509.69	0.852	correct	incongruent	Block1	incongruent/STIM_026.jpg
512.89	0.894	correct	incongruent	Block1	incongruent/STIM_027.jpg
516.512	1.228	correct	incongruent	Block1	incongruent/STIM_027.jpg
520.278	0.947	incorrect	incongruent	Block1	incongruent/STIM_027.jpg
524.392	0.625	correct	incongruent	Block1	incongruent/STIM_027.jpg
528.154	0.793	incorrect	incongruent	Block1	incongruent/STIM_027.jpg
532.629	0.726	correct	incongruent	Block1	incongruent/STIM_028.jpg
535.513	1.051	correct	incongruent	Block1	incongruent/STIM_028.jpg
539.81	0.912	correct	incongruent	Block1	incongruent/STIM_028.jpg
543.197	1.029	correct	incongruent	Block1	incongruent/STIM_028.jpg
548.094	0.901	correct	incongruent	Block1	incongruent/STIM_028.jpg
551.572	1.035	correct	incongruent	Block1	incongruent/STIM_029.jpg
556.09	1.084	correct	incongruent	Block1	incongruent/STIM_029.jpg
560.955	0.616	correct	incongruent	Block1	incongruent/STIM_029.jpg
564.503	1.088	incorrect	incongruent	Block1	incongruent/STIM_029.jpg
568.345	0.499	correct	incongruent	Block1	incongruent/STIM_029.jpg
571.015	0.616	incorrect	congruent	Block1	congruent/STIM_000.jpg
574.603	0.62	correct	congruent	Block1	congruent/STIM_000.jpg
578.014	0.671	correct	congruent	Block1	congruent/STIM_000.jpg
582.339	0.648	correct	congruent	Block1	congruent/STIM_000.jpg
586.734	0.644	correct	congruent	Block1	congruent/STIM_000.jpg
590.086	0.459	correct	congruent	Block1	congruent/STIM_001.jpg
593.394	0.513	correct	congruent	Block1	congruent/STIM_001.jpg
595.94	0.476	correct	congruent	Block1	congruent/STIM_001.jpg
600.323	0.689	correct	congruent	Block1	congruent/STIM_001.jpg
604.333	0.616	correct	congruent	Block1	congruent/STIM_001.jpg
607.542	0.437	correct	congruent	Block1	congruent/STIM_002.jpg
611.427	0.644	correct	congruent	Block1	congruent/STIM_002.jpg
615.512	0.704	correct	congruent	Block1	congruent/STIM_002.jpg
619.764	0.737	correct	congruent	Block1	congruent/STIM_002.jpg
623.387	0.564	correct	congruent	Block1	congruent/STIM_002.jpg
627.767	0.46	correct	congruent	Block1	congruent/STIM_003.jpg
630.581	0.78	correct	congruent	Block1	congruent/STIM_003.jpg
633.787	0.564	incorrect	congruent	Block1	congruent/STIM_003.jpg
636.394	0.75	correct	congruent	Block1	congruent/STIM_003.jpg
640.269	0.72	correct	congruent	Block1	congruent/STIM_003.jpg
643.335	0.601	correct	congruent	Block1	congruent/STIM_004.jpg
646.195	0.76	correct	congruent	Block1	congruent/STIM_004.jpg
649.027	0.506	correct	congruent	Block1	congruent/STIM_004.jpg
652.39	0.658	correct	congruent	Block1	congruent/STIM_004.jpg
655.738	0.438	correct	congruent	Block1	congruent/STIM_004.jpg
658.743	0.436	correct	congruent	Block1	congruent/STIM_005.jpg
661.68	0.67	correct	congruent	Block1	congruent/STIM_005.jpg
666.243	0.742	correct	congruent	Block1	congruent/STIM_005.jpg
669.082	0.534	correct	congruent	Block1	congruent/STIM_005.jpg
672.43	0.476	correct	congruent	Block1	congruent/STIM_005.jpg
676.375	0.465	correct	congruent	Block1	congruent/STIM_006.jpg
680.418	0.456	correct	congruent	Block1	congruent/STIM_006.jpg
684.135	0.438	correct	congruent	Block1	congruent/STIM_006.jpg
686.681	0.454	correct	congruent	Block1	congruent/STIM_006.jpg
690.549	0.722	correct	congruent	Block1	congruent/STIM_006.jpg
694.542	0.445	correct	congruent	Block1	congruent/STIM_007.jpg
698.573	0.612	correct	congruent	Block1	congruent/STIM_007.jpg
701.88	0.758	correct	congruent	Block1	congruent/STIM_007.jpg
704.836	0.749	incorrect	congruent	Block1	congruent/STIM_007.jpg
707.762	0.533	correct	congruent	Block1	congruent/STIM_007.jpg
711.641	0.657	correct	congruent	Block1	congruent/STIM_008.jpg
715.16	0.564	correct	congruent	Block1	congruent/STIM_008.jpg
719.533	0.533	correct	congruent	Block1	congruent/STIM_008.jpg
723.392	0.684	correct	congruent	Block1	congruent/STIM_008.jpg
726.48	0.658	correct	congruent	Block1	congruent/STIM_008.jpg
730.26	0.579	correct	congruent	Block1	congruent/STIM_009.jpg
733.423	0.616	correct	congruent	Block1	congruent/STIM_009.jpg
737.247	0.473	correct	congruent	Block1	congruent/STIM_009.jpg
740.076	0.532	correct	congruent	Block1	congruent/STIM_009.jpg
744.3	0.513	incorrect	congruent	Block1	congruent/STIM_009.jpg
748.034	0.521	correct	congruent	Block1	congruent/STIM_010.jpg
750.9	0.76	correct	congruent	Block1	congruent/STIM_010.jpg
754.17	0.531	correct	congruent	Block1	congruent/STIM_010.jpg
758.65	0.571	correct	congruent	Block1	congruent/STIM_010.jpg
761.68	0.685	correct	congruent	Block1	congruent/STIM_010.jpg
764.566	0.722	correct	congruent	Block1	congruent/STIM_011.jpg
769.209	0.722	correct	congruent	Block1	congruent/STIM_011.jpg
772.434	0.531	correct	congruent	Block1	congruent/STIM_011.jpg
776.009	0.722	correct	congruent	Block1	congruent/STIM_011.jpg
780.172	0.689	correct	congruent	Block1	congruent/STIM_011.jpg
783.649	0.729	correct	congruent	Block1	congruent/STIM_012.jpg
788.234	0.668	incorrect	congruent	Block1	congruent/STIM_012.jpg
791.034	0.736	correct	congruent	Block1	congruent/STIM_012.jpg
794.784	0.459	correct	congruent	Block1	congruent/STIM_012.jpg
799.098	0.72	correct	congruent	Block1	congruent/STIM_012.jpg
802.468	0.606	correct	congruent	Block1	congruent/STIM_013.jpg
805.199	0.475	correct	congruent	Block1	congruent/STIM_013.jpg
808.466	0.553	correct	congruent	Block1	congruent/STIM_013.jpg
811.764	0.508	correct	congruent	Block1	congruent/STIM_013.jpg
815.15	0.612	correct	congruent	Block1	congruent/STIM_013.jpg
818.125	0.547	correct	congruent	Block1	congruent/STIM_014.jpg
821.791	0.702	correct	congruent	Block1	congruent/STIM_014.jpg
825.328	0.734	correct	congruent	Block1	congruent/STIM_014.jpg
828.819	0.46	correct	congruent	Block1	congruent/STIM_014.jpg
832.925	0.486	incorrect	congruent	Block1	congruent/STIM_014.jpg
835.519	0.728	correct	congruent	Block1	congruent/STIM_015.jpg
839.87	0.655	correct	congruent	Block1	congruent/STIM_015.jpg
842.859	0.719	correct	congruent	Block1	congruent/STIM_015.jpg
846.768	0.732	correct	congruent	Block1	congruent/STIM_015.jpg
850.965	0.739	correct	congruent	Block1	congruent/STIM_015.jpg
855.341	0.46	correct	congruent	Block1	congruent/STIM_016.jpg
859.046	0.514	correct	congruent	Block1	congruent/STIM_016.jpg
862.338	0.671	correct	congruent	Block1	congruent/STIM_016.jpg
865.764	0.622	correct	congruent	Block1	congruent/STIM_016.jpg
870.062	0.642	incorrect	congruent	Block1	congruent/STIM_016.jpg
874.189	0.448	correct	congruent	Block1	congruent/STIM_017.jpg
878.617	0.599	correct	congruent	Block1	congruent/STIM_017.jpg
882.871	0.504	correct	congruent	Block1	congruent/STIM_017.jpg
885.443	0.575	correct	congruent	Block1	congruent/STIM_017.jpg
889.94	0.78	correct	congruent	Block1	congruent/STIM_017.jpg
893.697	0.609	correct	congruent	Block1	congruent/STIM_018.jpg
896.636	0.439	correct	congruent	Block1	congruent/STIM_018.jpg
900.37	0.733	correct	congruent	Block1	congruent/STIM_018.jpg
904.573	0.578	correct	congruent	Block1	congruent/STIM_018.jpg
907.668	0.738	correct	congruent	Block1	congruent/STIM_018.jpg
910.867	0.55	correct	congruent	Block1	congruent/STIM_019.jpg
913.872	0.47	incorrect	congruent	Block1	congruent/STIM_019.jpg
917.844	0.531	correct	congruent	Block1	congruent/STIM_019.jpg
921.62	0.618	correct	congruent	Block1	congruent/STIM_019.jpg
925.839	0.519	correct	congruent	Block1	congruent/STIM_019.jpg
929.811	0.495	correct	congruent	Block1	congruent/STIM_020.jpg
932.333	0.763	correct	congruent	Block1	congruent/STIM_020.jpg
935.484	0.723	correct	congruent	Block1	congruent/STIM_020.jpg
939.253	0.612	correct	congruent	Block1	congruent/STIM_020.jpg
943.504	0.745	incorrect	congruent	Block1	congruent/STIM_020.jpg
947.354	0.65	correct	congruent	Block1	congruent/STIM_021.jpg
951.167	0.552	correct	congruent	Block1	congruent/STIM_021.jpg
954.391	0.498	correct	congruent	Block1	congruent/STIM_021.jpg
958.25	0.67	correct	congruent	Block1	congruent/STIM_021.jpg
961.253	0.617	correct	congruent	Block1	congruent/STIM_021.jpg
965.063	0.462	correct	congruent	Block1	congruent/STIM_022.jpg
968.225	0.696	correct	congruent	Block1	congruent/STIM_022.jpg
972.868	0.751	correct	congruent	Block1	congruent/STIM_022.jpg
976.593	0.58	correct	congruent	Block1	congruent/STIM_022.jpg
980.437	0.651	incorrect	congruent	Block1	congruent/STIM_022.jpg
983.533	0.435	correct	congruent	Block1	congruent/STIM_023.jpg
986.55	0.534	correct	congruent	Block1	congruent/STIM_023.jpg
990.425	0.602	correct	congruent	Block1	congruent/STIM_023.jpg
994.633	0.557	correct	congruent	Block1	congruent/STIM_023.jpg
998.764	0.52	correct	congruent	Block1	congruent/STIM_023.jpg
1002.527	0.721	correct	congruent	Block1	congruent/STIM_024.jpg
1006.976	0.515	correct	congruent	Block1	congruent/STIM_024.jpg
1009.508	0.545	correct	congruent	Block1	congruent/STIM_024.jpg
1012.938	0.46	correct	congruent	Block1	congruent/STIM_024.jpg
1016.933	0.578	correct	congruent	Block1	congruent/STIM_024.jpg
1021.306	0.473	correct	congruent	Block1	congruent/STIM_025.jpg
1025.414	0.682	correct	congruent	Block1	congruent/STIM_025.jpg
1028.155	0.766	incorrect	congruent	Block1	congruent/STIM_025.jpg
1032.235	0.545	correct	congruent	Block1	congruent/STIM_025.jpg
1036.037	0.51	correct	congruent	Block1	congruent/STIM_025.jpg
1040.064	0.588	correct	congruent	Block1	congruent/STIM_026.jpg
1042.81	0.727	correct	congruent	Block1	congruent/STIM_026.jpg
1046.047	0.534	correct	congruent	Block1	congruent/STIM_026.jpg
1048.936	0.597	correct	congruent	Block1	congruent/STIM_026.jpg
1052.429	0.604	correct	congruent	Block1	congruent/STIM_026.jpg
1056.561	0.587	correct	congruent	Block1	congruent/STIM_027.jpg
1060.304	0.485	correct	congruent	Block1	congruent/STIM_027.jpg
1063.55	0.618	correct	congruent	Block1	congruent/STIM_027.jpg
1066.428	0.728	correct	congruent	Block1	congruent/STIM_027.jpg
1070.823	0.744	correct	congruent	Block1	congruent/STIM_027.jpg
1074.362	0.541	correct	congruent	Block1	congruent/STIM_028.jpg
1077.624	0.562	correct	congruent	Block1	congruent/STIM_028.jpg
1081.073	0.465	correct	congruent	Block1	congruent/STIM_028.jpg
1083.837	0.57	incorrect	congruent	Block1	congruent/STIM_028.jpg
1086.508	0.53	correct	congruent	Block1	congruent/STIM_028.jpg
1089.833	0.763	correct	congruent	Block1	congruent/STIM_029.jpg
1092.717	0.549	correct	congruent	Block1	congruent/STIM_029.jpg
1096.743	0.528	correct	congruent	Block1	congruent/STIM_029.jpg
1100.461	0.664	correct	congruent	Block1	congruent/STIM_029.jpg
1104.123	0.755	incorrect	congruent	Block1	congruent/STIM_029.jpg
1108.018	0.927	correct	incongruent	Block2	incongruent/STIM_000.jpg
1111.737	0.522	incorrect	incongruent	Block2	incongruent/STIM_000.jpg
1114.265	0.915	correct	incongruent	Block2	incongruent/STIM_000.jpg
1118.174	0.453	correct	incongruent	Block2	incongruent/STIM_000.jpg
1120.928	0.762	correct	incongruent	Block2	incongruent/STIM_000.jpg
1125.378	0.866	correct	incongruent	Block2	incongruent/STIM_001.jpg
1129.002	0.613	correct	incongruent	Block2	incongruent/STIM_001.jpg
1132.55	0.508	correct	incongruent	Block2	incongruent/STIM_001.jpg
1136.625	0.661	correct	incongruent	Block2	incongruent/STIM_001.jpg
1139.515	0.592	correct	incongruent	Block2	incongruent/STIM_001.jpg
1142.524	0.533	correct	incongruent	Block2	incongruent/STIM_002.jpg
1146.535	0.794	correct	incongruent	Block2	incongruent/STIM_002.jpg
1150.219	0.627	correct	incongruent	Block2	incongruent/STIM_002.jpg
1152.962	0.726	incorrect	incongruent	Block2	incongruent/STIM_002.jpg
1157.011	0.639	correct	incongruent	Block2	incongruent/STIM_002.jpg
1159.928	0.727	correct	incongruent	Block2	incongruent/STIM_003.jpg
1162.706	0.607	correct	incongruent	Block2	incongruent/STIM_003.jpg
1166.293	0.75	correct	incongruent	Block2	incongruent/STIM_003.jpg
1170.982	0.854	correct	incongruent	Block2	incongruent/STIM_003.jpg
1175.253	0.554	correct	incongruent	Block2	incongruent/STIM_003.jpg
1178.704	0.596	incorrect	incongruent	Block2	incongruent/STIM_004.jpg
1182.741	0.58	correct	incongruent	Block2	incongruent/STIM_004.jpg
1185.839	0.819	correct	incongruent	Block2	incongruent/STIM_004.jpg
1190.398	0.584	correct	incongruent	Block2	incongruent/STIM_004.jpg
1194.106	0.705	correct	incongruent	Block2	incongruent/STIM_004.jpg
1197.866	0.765	correct	incongruent	Block2	incongruent/STIM_005.jpg
1201.101	0.848	correct	incongruent	Block2	incongruent/STIM_005.jpg
1205.839	0.604	correct	incongruent	Block2	incongruent/STIM_005.jpg
1208.542	0.558	correct	incongruent	Block2	incongruent/STIM_005.jpg
1211.742	0.43	correct	incongruent	Block2	incongruent/STIM_005.jpg
1215.234	0.58	correct	incongruent	Block2	incongruent/STIM_006.jpg
1219.568	1.039	correct	incongruent	Block2	incongruent/STIM_006.jpg
1224.289	0.831	correct	incongruent	Block2	incongruent/STIM_006.jpg
1227.666	0.565	correct	incongruent	Block2	incongruent/STIM_006.jpg
1231.607	0.433	correct	incongruent	Block2	incongruent/STIM_006.jpg
1235.887	0.957	correct	incongruent	Block2	incongruent/STIM_007.jpg
1240.773	0.828	correct	incongruent	Block2	incongruent/STIM_007.jpg
1244.543	0.658	correct	incongruent	Block2	incongruent/STIM_007.jpg
1248.944	0.468	correct	incongruent	Block2	incongruent/STIM_007.jpg
1251.744	0.613	correct	incongruent	Block2	incongruent/STIM_007.jpg
1254.605	0.674	correct	incongruent	Block2	incongruent/STIM_008.jpg
1257.609	0.626	correct	incongruent	Block2	incongruent/STIM_008.jpg
1261.791	0.942	correct	incongruent	Block2	incongruent/STIM_008.jpg
1265.432	0.77	correct	incongruent	Block2	incongruent/STIM_008.jpg
1269.718	0.902	correct	incongruent	Block2	incongruent/STIM_008.jpg
1274.428	0.641	correct	incongruent	Block2	incongruent/STIM_009.jpg
1278.967	1.013	correct	incongruent	Block2	incongruent/STIM_009.jpg
1282.83	0.708	correct	incongruent	Block2	incongruent/STIM_009.jpg
1285.998	0.78	correct	incongruent	Block2	incongruent/STIM_009.jpg
1290.572	0.594	correct	incongruent	Block2	incongruent/STIM_009.jpg
1293.56	0.922	incorrect	incongruent	Block2	incongruent/STIM_010.jpg
1297.661	1.008	correct	incongruent	Block2	incongruent/STIM_010.jpg
1302.455	0.922	correct	incongruent	Block2	incongruent/STIM_010.jpg
1306.288	0.657	correct	incongruent	Block2	incongruent/STIM_010.jpg
1309.605	0.875	correct	incongruent	Block2	incongruent/STIM_010.jpg
1313.166	0.828	correct	incongruent	Block2	incongruent/STIM_011.jpg
1316.989	0.545	correct	incongruent	Block2	incongruent/STIM_011.jpg
1320.472	0.74	correct	incongruent	Block2	incongruent/STIM_011.jpg
1324.557	0.476	correct	incongruent	Block2	incongruent/STIM_011.jpg
1327.19	0.499	correct	incongruent	Block2	incongruent/STIM_011.jpg
1330.479	0.914	correct	incongruent	Block2	incongruent/STIM_012.jpg
1333.985	0.832	correct	incongruent	Block2	incongruent/STIM_012.jpg
1338.353	0.568	correct	incongruent	Block2	incongruent/STIM_012.jpg
1342.805	0.685	correct	incongruent	Block2	incongruent/STIM_012.jpg
1346.601	0.523	correct	incongruent	Block2	incongruent/STIM_012.jpg
1350.085	0.834	correct	incongruent	Block2	incongruent/STIM_013.jpg
1354.698	0.799	correct	incongruent	Block2	incongruent/STIM_013.jpg
1357.896	0.563	correct	incongruent	Block2	incongruent/STIM_013.jpg
1361.46	0.855	correct	incongruent	Block2	incongruent/STIM_013.jpg
1366.106	0.64	correct	incongruent	Block2	incongruent/STIM_013.jpg
1368.897	0.693	correct	incongruent	Block2	incongruent/STIM_014.jpg
1373.51	0.778	correct	incongruent	Block2	incongruent/STIM_014.jpg
1377.432	0.938	correct	incongruent	Block2	incongruent/STIM_014.jpg
1381.475	0.664	correct	incongruent	Block2	incongruent/STIM_014.jpg
1385.936	0.771	correct	incongruent	Block2	incongruent/STIM_014.jpg
1389.825	0.876	correct	incongruent	Block2	incongruent/STIM_015.jpg
1394.606	0.617	correct	incongruent	Block2	incongruent/STIM_015.jpg
1397.725	0.945	correct	incongruent	Block2	incongruent/STIM_015.jpg
1400.835	0.83	correct	incongruent	Block2	incongruent/STIM_015.jpg
1404.391	0.57	correct	incongruent	Block2	incongruent/STIM_015.jpg
1407.993	0.548	correct	incongruent	Block2	incongruent/STIM_016.jpg
1412.166	0.491	correct	incongruent	Block2	incongruent/STIM_016.jpg
1414.815	0.709	correct	incongruent	Block2	incongruent/STIM_016.jpg
1418.382	0.714	correct	incongruent	Block2	incongruent/STIM_016.jpg
1422.845	0.723	correct	incongruent	Block2	incongruent/STIM_016.jpg
1426.034	0.664	correct	incongruent	Block2	incongruent/STIM_017.jpg
1430.683	0.704	correct	incongruent	Block2	incongruent/STIM_017.jpg
1435.326	0.926	correct	incongruent	Block2	incongruent/STIM_017.jpg
1439.147	0.523	incorrect	incongruent	Block2	incongruent/STIM_017.jpg
1442.715	0.473	correct	incongruent	Block2	incongruent/STIM_017.jpg
1445.57	0.846	incorrect	incongruent	Block2	incongruent/STIM_018.jpg
1449.845	0.731	correct	incongruent	Block2	incongruent/STIM_018.jpg
1452.659	0.932	correct	incongruent	Block2	incongruent/STIM_018.jpg
1456.038	0.841	correct	incongruent	Block2	incongruent/STIM_018.jpg
1459.722	0.541	correct	incongruent	Block2	incongruent/STIM_018.jpg
1464.001	0.852	correct	incongruent	Block2	incongruent/STIM_019.jpg
1467.133	0.85	correct	incongruent	Block2	incongruent/STIM_019.jpg
1471.047	0.901	correct	incongruent	Block2	incongruent/STIM_019.jpg
1475.66	0.912	correct	incongruent	Block2	incongruent/STIM_019.jpg
1480.064	0.788	correct	incongruent	Block2	incongruent/STIM_019.jpg
1483.216	0.578	correct	incongruent	Block2	incongruent/STIM_020.jpg
1486.053	0.659	correct	incongruent	Block2	incongruent/STIM_020.jpg
1489.794	0.77	correct	incongruent	Block2	incongruent/STIM_020.jpg
1493.019	0.767	correct	incongruent	Block2	incongruent/STIM_020.jpg
1497.184	0.887	incorrect	incongruent	Block2	incongruent/STIM_020.jpg
1500.251	0.72	correct	incongruent	Block2	incongruent/STIM_021.jpg
1504.603	0.59	correct	incongruent	Block2	incongruent/STIM_021.jpg
1508.864	0.493	correct	incongruent	Block2	incongruent/STIM_021.jpg
1512.615	0.586	correct	incongruent	Block2	incongruent/STIM_021.jpg
1515.285	0.649	correct	incongruent	Block2	incongruent/STIM_021.jpg
1518.111	0.915	incorrect	incongruent	Block2	incongruent/STIM_022.jpg
1521.543	0.546	correct	incongruent	Block2	incongruent/STIM_022.jpg
1524.988	0.845	correct	incongruent	Block2	incongruent/STIM_022.jpg
1528.121	0.708	correct	incongruent	Block2	incongruent/STIM_022.jpg
1532.005	0.739	correct	incongruent	Block2	incongruent/STIM_022.jpg
1536.323	0.537	correct	incongruent	Block2	incongruent/STIM_023.jpg
1540.779	0.554	correct	incongruent	Block2	incongruent/STIM_023.jpg
1545.064	0.734	correct	incongruent	Block2	incongruent/STIM_023.jpg
1549.225	0.912	correct	incongruent	Block2	incongruent/STIM_023.jpg
1553.069	0.611	correct	incongruent	Block2	incongruent/STIM_023.jpg
1557.472	0.965	correct	incongruent	Block2	incongruent/STIM_024.jpg
1560.745	0.59	correct	incongruent	Block2	incongruent/STIM_024.jpg
1565.143	0.842	incorrect	incongruent	Block2	incongruent/STIM_024.jpg
1569.153	0.824	correct	incongruent	Block2	incongruent/STIM_024.jpg
1572.975	0.733	correct	incongruent	Block2	incongruent/STIM_024.jpg
1577.167	0.722	correct	incongruent	Block2	incongruent/STIM_025.jpg
1581.074	0.733	correct	incongruent	Block2	incongruent/STIM_025.jpg
1585.563	0.928	correct	incongruent	Block2	incongruent/STIM_025.jpg
1589.701	0.891	correct	incongruent	Block2	incongruent/STIM_025.jpg
1592.976	0.574	correct	incongruent	Block2	incongruent/STIM_025.jpg
1597.447	0.694	incorrect	incongruent	Block2	incongruent/STIM_026.jpg
1601.457	0.852	correct	incongruent	Block2	incongruent/STIM_026.jpg
1605.85	0.946	correct	incongruent	Block2	incongruent/STIM_026.jpg
1610.247	0.629	correct	incongruent	Block2	incongruent/STIM_026.jpg
1614.546	0.566	correct	incongruent	Block2	incongruent/STIM_026.jpg
1617.924	0.715	incorrect	incongruent	Block2	incongruent/STIM_027.jpg
1622.075	0.983	correct	incongruent	Block2	incongruent/STIM_027.jpg
1626.363	0.815	correct	incongruent	Block2	incongruent/STIM_027.jpg
1630.063	0.872	correct	incongruent	Block2	incongruent/STIM_027.jpg
1633.308	0.832	correct	incongruent	Block2	incongruent/STIM_027.jpg
1637.926	0.628	correct	incongruent	Block2	incongruent/STIM_028.jpg
1642.056	1.011	correct	incongruent	Block2	incongruent/STIM_028.jpg
1646.658	0.727	correct	incongruent	Block2	incongruent/STIM_028.jpg
1650.827	0.541	correct	incongruent	Block2	incongruent/STIM_028.jpg
1654.541	0.589	correct	incongruent	Block2	incongruent/STIM_028.jpg
1657.344	0.634	incorrect	incongruent	Block2	incongruent/STIM_029.jpg
1661.144	0.853	correct	incongruent	Block2	incongruent/STIM_029.jpg
1665.924	0.668	correct	incongruent	Block2	incongruent/STIM_029.jpg
1670.094	0.869	correct	incongruent	Block2	incongruent/STIM_029.jpg
1674.145	0.448	correct	incongruent	Block2	incongruent/STIM_029.jpg
1678.128	0.561	correct	congruent	Block2	congruent/STIM_000.jpg
1680.815	0.437	correct	congruent	Block2	congruent/STIM_000.jpg
1684.233	0.756	incorrect	congruent	Block2	congruent/STIM_000.jpg
1687.117	0.534	correct	congruent	Block2	congruent/STIM_000.jpg
1691.279	0.641	correct	congruent	Block2	congruent/STIM_000.jpg
1695.414	0.659	correct	congruent	Block2	congruent/STIM_001.jpg
1699.572	0.609	correct	congruent	Block2	congruent/STIM_001.jpg
1703.647	0.644	correct	congruent	Block2	congruent/STIM_001.jpg
1706.868	0.731	correct	congruent	Block2	congruent/STIM_001.jpg
1710.013	0.449	incorrect	congruent	Block2	congruent/STIM_001.jpg
1712.658	0.46	correct	congruent	Block2	congruent/STIM_002.jpg
1716.261	0.778	correct	congruent	Block2	congruent/STIM_002.jpg
1720.643	0.6	correct	congruent	Block2	congruent/STIM_002.jpg
1724.725	0.724	correct	congruent	Block2	congruent/STIM_002.jpg
1729.42	0.607	correct	congruent	Block2	congruent/STIM_002.jpg
1732.533	0.498	incorrect	congruent	Block2	congruent/STIM_003.jpg
1735.178	0.6	correct	congruent	Block2	congruent/STIM_003.jpg
1738.453	0.635	correct	congruent	Block2	congruent/STIM_003.jpg
1741.537	0.581	correct	congruent	Block2	congruent/STIM_003.jpg
1744.496	0.59	incorrect	congruent	Block2	congruent/STIM_003.jpg
1748.617	0.478	incorrect	congruent	Block2	congruent/STIM_004.jpg
1752.259	0.648	correct	congruent	Block2	congruent/STIM_004.jpg
1755.171	0.75	correct	congruent	Block2	congruent/STIM_004.jpg
1758.687	0.696	correct	congruent	Block2	congruent/STIM_004.jpg
1763.122	0.442	correct	congruent	Block2	congruent/STIM_004.jpg
1765.784	0.637	correct	congruent	Block2	congruent/STIM_005.jpg
1770.349	0.576	correct	congruent	Block2	congruent/STIM_005.jpg
1774.692	0.435	correct	congruent	Block2	congruent/STIM_005.jpg
1777.297	0.511	incorrect	congruent	Block2	congruent/STIM_005.jpg
1780.53	0.606	incorrect	congruent	Block2	congruent/STIM_005.jpg
1783.592	0.463	incorrect	congruent	Block2	congruent/STIM_006.jpg
1787.793	0.478	incorrect	congruent	Block2	congruent/STIM_006.jpg
1791.405	0.552	correct	congruent	Block2	congruent/STIM_006.jpg
1794.886	0.539	incorrect	congruent	Block2	congruent/STIM_006.jpg
1798.363	0.616	correct	congruent	Block2	congruent/STIM_006.jpg
1802.937	0.547	correct	congruent	Block2	congruent/STIM_007.jpg
1806.947	0.506	correct	congruent	Block2	congruent/STIM_007.jpg
1809.937	0.482	correct	congruent	Block2	congruent/STIM_007.jpg
1813.319	0.609	correct	congruent	Block2	congruent/STIM_007.jpg
1816.439	0.604	correct	congruent	Block2	congruent/STIM_007.jpg
1820.438	0.71	correct	congruent	Block2	congruent/STIM_008.jpg
1825.129	0.77	correct	congruent	Block2	congruent/STIM_008.jpg
1828.743	0.51	correct	congruent	Block2	congruent/STIM_008.jpg
1832.405	0.578	correct	congruent	Block2	congruent/STIM_008.jpg
1836.952	0.616	correct	congruent	Block2	congruent/STIM_008.jpg
1840.775	0.493	correct	congruent	Block2	congruent/STIM_009.jpg
1845.08	0.456	correct	congruent	Block2	congruent/STIM_009.jpg
1849.507	0.502	correct	congruent	Block2	congruent/STIM_009.jpg
1852.904	0.564	incorrect	congruent	Block2	congruent/STIM_009.jpg
1855.888	0.769	correct	congruent	Block2	congruent/STIM_009.jpg
1859.337	0.776	correct	congruent	Block2	congruent/STIM_010.jpg
1862.929	0.695	correct	congruent	Block2	congruent/STIM_010.jpg
1867.321	0.732	correct	congruent	Block2	congruent/STIM_010.jpg
1871.009	0.505	correct	congruent	Block2	congruent/STIM_010.jpg
1874.717	0.537	correct	congruent	Block2	congruent/STIM_010.jpg
1877.727	0.555	correct	congruent	Block2	congruent/STIM_011.jpg
1880.676	0.732	correct	congruent	Block2	congruent/STIM_011.jpg
1883.794	0.463	correct	congruent	Block2	congruent/STIM_011.jpg
1886.38	0.754	correct	congruent	Block2	congruent/STIM_011.jpg
1890.421	0.447	correct	congruent	Block2	congruent/STIM_011.jpg
1893.809	0.437	correct	congruent	Block2	congruent/STIM_012.jpg
1896.366	0.463	correct	congruent	Block2	congruent/STIM_012.jpg
1899.102	0.547	correct	congruent	Block2	congruent/STIM_012.jpg
1901.905	0.771	correct	congruent	Block2	congruent/STIM_012.jpg
1905.075	0.665	correct	congruent	Block2	congruent/STIM_012.jpg
1907.948	0.643	correct	congruent	Block2	congruent/STIM_013.jpg
1910.885	0.493	correct	congruent	Block2	congruent/STIM_013.jpg
1913.611	0.69	correct	congruent	Block2	congruent/STIM_013.jpg
1918.225	0.502	incorrect	congruent	Block2	congruent/STIM_013.jpg
1921.704	0.743	incorrect	congruent	Block2	congruent/STIM_013.jpg
1925.594	0.465	correct	congruent	Block2	congruent/STIM_014.jpg
1929.05	0.455	correct	congruent	Block2	congruent/STIM_014.jpg
1932.163	0.752	correct	congruent	Block2	congruent/STIM_014.jpg
1935.598	0.504	correct	congruent	Block2	congruent/STIM_014.jpg
1938.563	0.729	correct	congruent	Block2	congruent/STIM_014.jpg
1941.434	0.769	correct	congruent	Block2	congruent/STIM_015.jpg
1946.139	0.723	correct	congruent	Block2	congruent/STIM_015.jpg
1949.266	0.766	correct	congruent	Block2	congruent/STIM_015.jpg
1952.455	0.606	correct	congruent	Block2	congruent/STIM_015.jpg
1957.054	0.688	correct	congruent	Block2	congruent/STIM_015.jpg
1959.879	0.695	correct	congruent	Block2	congruent/STIM_016.jpg
1962.941	0.763	correct	congruent	Block2	congruent/STIM_016.jpg
1966.366	0.564	correct	congruent	Block2	congruent/STIM_016.jpg
1970.056	0.666	correct	congruent	Block2	congruent/STIM_016.jpg
1974.514	0.632	correct	congruent	Block2	congruent/STIM_016.jpg
1978.534	0.669	correct	congruent	Block2	congruent/STIM_017.jpg
1981.42	0.696	correct	congruent	Block2	congruent/STIM_017.jpg
1985.685	0.672	correct	congruent	Block2	congruent/STIM_017.jpg
1989.98	0.489	correct	congruent	Block2	congruent/STIM_017.jpg
1993.137	0.759	correct	congruent	Block2	congruent/STIM_017.jpg
1995.969	0.738	correct	congruent	Block2	congruent/STIM_018.jpg
1999.358	0.634	correct	congruent	Block2	congruent/STIM_018.jpg
2003.379	0.499	correct	congruent	Block2	congruent/STIM_018.jpg
2006.777	0.75	correct	congruent	Block2	congruent/STIM_018.jpg
2011.352	0.725	correct	congruent	Block2	congruent/STIM_018.jpg
2014.44	0.505	correct	congruent	Block2	congruent/STIM_019.jpg
2017.519	0.712	correct	congruent	Block2	congruent/STIM_019.jpg
2020.98	0.532	correct	congruent	Block2	congruent/STIM_019.jpg
2024.651	0.437	correct	congruent	Block2	congruent/STIM_019.jpg
2028.76	0.522	correct	congruent	Block2	congruent/STIM_019.jpg
2032.441	0.62	correct	congruent	Block2	congruent/STIM_020.jpg
2035.274	0.736	correct	congruent	Block2	congruent/STIM_020.jpg
2038.275	0.459	correct	congruent	Block2	congruent/STIM_020.jpg
2041.378	0.674	correct	congruent	Block2	congruent/STIM_020.jpg
2045.618	0.564	correct	congruent	Block2	congruent/STIM_020.jpg
2048.198	0.65	correct	congruent	Block2	congruent/STIM_021.jpg
2051.103	0.507	correct	congruent	Block2	congruent/STIM_021.jpg
2055.554	0.561	correct	congruent	Block2	congruent/STIM_021.jpg
2060.103	0.446	correct	congruent	Block2	congruent/STIM_021.jpg
2062.782	0.64	correct	congruent	Block2	congruent/STIM_021.jpg
2065.453	0.642	correct	congruent	Block2	congruent/STIM_022.jpg
2068.467	0.648	incorrect	congruent	Block2	congruent/STIM_022.jpg
2073.036	0.662	correct	congruent	Block2	congruent/STIM_022.jpg
2075.868	0.707	correct	congruent	Block2	congruent/STIM_022.jpg
2079.694	0.615	correct	congruent	Block2	congruent/STIM_022.jpg
2083.945	0.762	correct	congruent	Block2	congruent/STIM_023.jpg
2086.737	0.556	correct	congruent	Block2	congruent/STIM_023.jpg
2090.785	0.646	correct	congruent	Block2	congruent/STIM_023.jpg
2095.13	0.545	incorrect	congruent	Block2	congruent/STIM_023.jpg
2099.335	0.486	incorrect	congruent	Block2	congruent/STIM_023.jpg
2102.275	0.469	correct	congruent	Block2	congruent/STIM_024.jpg
2106.395	0.732	correct	congruent	Block2	congruent/STIM_024.jpg
2109.198	0.769	correct	congruent	Block2	congruent/STIM_024.jpg
2112.033	0.712	correct	congruent	Block2	congruent/STIM_024.jpg
2116.412	0.584	correct	congruent	Block2	congruent/STIM_024.jpg
2120.85	0.663	correct	congruent	Block2	congruent/STIM_025.jpg
2124.782	0.513	correct	congruent	Block2	congruent/STIM_025.jpg
2127.654	0.563	correct	congruent	Block2	congruent/STIM_025.jpg
2132.085	0.553	incorrect	congruent	Block2	congruent/STIM_025.jpg
2135.191	0.755	incorrect	congruent	Block2	congruent/STIM_025.jpg
2138.579	0.52	correct	congruent	Block2	congruent/STIM_026.jpg
2142.795	0.669	correct	congruent	Block2	congruent/STIM_026.jpg
2146.469	0.577	correct	congruent	Block2	congruent/STIM_026.jpg
2149.402	0.581	correct	congruent	Block2	congruent/STIM_026.jpg
2152.758	0.505	correct	congruent	Block2	congruent/STIM_026.jpg
2156.61	0.712	correct	congruent	Block2	congruent/STIM_027.jpg
2160.323	0.704	correct	congruent	Block2	congruent/STIM_027.jpg
2164.145	0.569	incorrect	congruent	Block2	congruent/STIM_027.jpg
2167.528	0.583	correct	congruent	Block2	congruent/STIM_027.jpg
2171.173	0.732	correct	congruent	Block2	congruent/STIM_027.jpg
2174.345	0.455	correct	congruent	Block2	congruent/STIM_028.jpg
2177.651	0.769	correct	congruent	Block2	congruent/STIM_028.jpg
2181.193	0.618	correct	congruent	Block2	congruent/STIM_028.jpg
2184.234	0.521	incorrect	congruent	Block2	congruent/STIM_028.jpg
2187.33	0.759	incorrect	congruent	Block2	congruent/STIM_028.jpg
2190.571	0.669	correct	congruent	Block2	congruent/STIM_029.jpg
2193.303	0.703	correct	congruent	Block2	congruent/STIM_029.jpg
2196.113	0.754	correct	congruent	Block2	congruent/STIM_029.jpg
2200.085	0.719	correct	congruent	Block2	congruent/STIM_029.jpg
2203.056	0.524	correct	congruent	Block2	congruent/STIM_029.jpg
2206.048	0.487	correct	incongruent	Block3	incongruent/STIM_000.jpg
2208.834	0.637	correct	incongruent	Block3	incongruent/STIM_000.jpg
2211.545	0.6	correct	incongruent	Block3	incongruent/STIM_000.jpg
2214.469	0.813	correct	incongruent	Block3	incongruent/STIM_000.jpg
2217.845	0.75	correct	incongruent	Block3	incongruent/STIM_000.jpg
2222.193	0.789	correct	incongruent	Block3	incongruent/STIM_001.jpg
2226.38	0.43	correct	incongruent	Block3	incongruent/STIM_001.jpg
2230.525	0.485	correct	incongruent	Block3	incongruent/STIM_001.jpg
2234.05	0.831	correct	incongruent	Block3	incongruent/STIM_001.jpg
2238.726	0.776	correct	incongruent	Block3	incongruent/STIM_001.jpg
2243.453	0.567	correct	incongruent	Block3	incongruent/STIM_002.jpg
2247.435	0.696	correct	incongruent	Block3	incongruent/STIM_002.jpg
2250.911	0.693	correct	incongruent	Block3	incongruent/STIM_002.jpg
2254.166	0.622	correct	incongruent	Block3	incongruent/STIM_002.jpg
2258.404	0.791	correct	incongruent	Block3	incongruent/STIM_002.jpg
2262.326	0.457	correct	incongruent	Block3	incongruent/STIM_003.jpg
2265.892	0.473	correct	incongruent	Block3	incongruent/STIM_003.jpg
2269.729	0.628	correct	incongruent	Block3	incongruent/STIM_003.jpg
2273.64	0.654	correct	incongruent	Block3	incongruent/STIM_003.jpg
2277.613	0.685	correct	incongruent	Block3	incongruent/STIM_003.jpg
2281.463	0.764	correct	incongruent	Block3	incongruent/STIM_004.jpg
2285.935	0.91	correct	incongruent	Block3	incongruent/STIM_004.jpg
2288.992	0.612	correct	incongruent	Block3	incongruent/STIM_004.jpg
2293.455	0.877	correct	incongruent	Block3	incongruent/STIM_004.jpg
2296.769	0.66	correct	incongruent	Block3	incongruent/STIM_004.jpg
2301.358	0.785	incorrect	incongruent	Block3	incongruent/STIM_005.jpg
2305.718	0.555	correct	incongruent	Block3	incongruent/STIM_005.jpg
2310.157	0.881	correct	incongruent	Block3	incongruent/STIM_005.jpg
2313.86	0.539	correct	incongruent	Block3	incongruent/STIM_005.jpg
2318.298	0.451	correct	incongruent	Block3	incongruent/STIM_005.jpg
2321.849	0.436	correct	incongruent	Block3	incongruent/STIM_006.jpg
2326.145	0.652	correct	incongruent	Block3	incongruent/STIM_006.jpg
2329.57	0.805	correct	incongruent	Block3	incongruent/STIM_006.jpg
2332.564	0.481	correct	incongruent	Block3	incongruent/STIM_006.jpg
2336.46	0.456	correct	incongruent	Block3	incongruent/STIM_006.jpg
2338.978	0.892	correct	incongruent	Block3	incongruent/STIM_007.jpg
2342.083	0.828	correct	incongruent	Block3	incongruent/STIM_007.jpg
2346.321	0.684	correct	incongruent	Block3	incongruent/STIM_007.jpg
2349.189	0.754	correct	incongruent	Block3	incongruent/STIM_007.jpg
2352.856	0.796	correct	incongruent	Block3	incongruent/STIM_007.jpg
2357.189	0.852	correct	incongruent	Block3	incongruent/STIM_008.jpg
2360.065	0.599	correct	incongruent	Block3	incongruent/STIM_008.jpg
2364.165	0.741	correct	incongruent	Block3	incongruent/STIM_008.jpg
2368.15	0.808	correct	incongruent	Block3	incongruent/STIM_008.jpg
2372.953	0.59	correct	incongruent	Block3	incongruent/STIM_008.jpg
2375.585	0.549	correct	incongruent	Block3	incongruent/STIM_009.jpg
2378.211	0.774	correct	incongruent	Block3	incongruent/STIM_009.jpg
2381.852	0.677	correct	incongruent	Block3	incongruent/STIM_009.jpg
2384.94	0.512	correct	incongruent	Block3	incongruent/STIM_009.jpg
2389.29	0.876	correct	incongruent	Block3	incongruent/STIM_009.jpg
2393.012	0.761	correct	incongruent	Block3	incongruent/STIM_010.jpg
2396.519	0.835	correct	incongruent	Block3	incongruent/STIM_010.jpg
2400.283	0.504	correct	incongruent	Block3	incongruent/STIM_010.jpg
2404.071	0.742	correct	incongruent	Block3	incongruent/STIM_010.jpg
2407.179	0.436	correct	incongruent	Block3	incongruent/STIM_010.jpg
2410.026	0.632	correct	incongruent	Block3	incongruent/STIM_011.jpg
2413.513	0.545	correct	incongruent	Block3	incongruent/STIM_011.jpg
2417.648	0.487	correct	incongruent	Block3	incongruent/STIM_011.jpg
2421.975	0.531	correct	incongruent	Block3	incongruent/STIM_011.jpg
2424.81	0.578	incorrect	incongruent	Block3	incongruent/STIM_011.jpg
2428.142	0.872	correct	incongruent	Block3	incongruent/STIM_012.jpg
2431.017	0.658	correct	incongruent	Block3	incongruent/STIM_012.jpg
2435.331	0.576	correct	incongruent	Block3	incongruent/STIM_012.jpg
2438.764	0.475	correct	incongruent	Block3	incongruent/STIM_012.jpg
2441.769	0.57	correct	incongruent	Block3	incongruent/STIM_012.jpg
2445.821	0.848	correct	incongruent	Block3	incongruent/STIM_013.jpg
2449.302	0.768	correct	incongruent	Block3	incongruent/STIM_013.jpg
2452.344	0.613	correct	incongruent	Block3	incongruent/STIM_013.jpg
2456.752	0.469	correct	incongruent	Block3	incongruent/STIM_013.jpg
2460.671	0.863	correct	incongruent	Block3	incongruent/STIM_013.jpg
2465.173	0.695	correct	incongruent	Block3	incongruent/STIM_014.jpg
2469.285	0.834	correct	incongruent	Block3	incongruent/STIM_014.jpg
2473.714	0.568	correct	incongruent	Block3	incongruent/STIM_014.jpg
2476.74	0.675	correct	incongruent	Block3	incongruent/STIM_014.jpg
2480.324	0.455	correct	incongruent	Block3	incongruent/STIM_014.jpg
2483.768	0.552	correct	incongruent	Block3	incongruent/STIM_015.jpg
2486.961	0.85	correct	incongruent	Block3	incongruent/STIM_015.jpg
2491.36	0.791	correct	incongruent	Block3	incongruent/STIM_015.jpg
2496.087	0.879	correct	incongruent	Block3	incongruent/STIM_015.jpg
2499.752	0.532	correct	incongruent	Block3	incongruent/STIM_015.jpg
2502.584	0.704	correct	incongruent	Block3	incongruent/STIM_016.jpg
2506.227	0.428	correct	incongruent	Block3	incongruent/STIM_016.jpg
2510.1	0.698	correct	incongruent	Block3	incongruent/STIM_016.jpg
2512.851	0.867	correct	incongruent	Block3	incongruent/STIM_016.jpg
2517.204	0.904	correct	incongruent	Block3	incongruent/STIM_016.jpg
2520.349	0.64	incorrect	incongruent	Block3	incongruent/STIM_017.jpg
2523.469	0.885	incorrect	incongruent	Block3	incongruent/STIM_017.jpg
2528.254	0.75	correct	incongruent	Block3	incongruent/STIM_017.jpg
2532.992	0.834	correct	incongruent	Block3	incongruent/STIM_017.jpg
2537.809	0.57	correct	incongruent	Block3	incongruent/STIM_017.jpg
2541.071	0.692	correct	incongruent	Block3	incongruent/STIM_018.jpg
2544.071	0.89	correct	incongruent	Block3	incongruent/STIM_018.jpg
2547.517	0.755	correct	incongruent	Block3	incongruent/STIM_018.jpg
2552.099	0.867	correct	incongruent	Block3	incongruent/STIM_018.jpg
2556.677	0.91	correct	incongruent	Block3	incongruent/STIM_018.jpg
2560.544	0.782	correct	incongruent	Block3	incongruent/STIM_019.jpg
2563.823	0.649	correct	incongruent	Block3	incongruent/STIM_019.jpg
2566.52	0.698	incorrect	incongruent	Block3	incongruent/STIM_019.jpg
2571.126	0.724	correct	incongruent	Block3	incongruent/STIM_019.jpg
2575.085	0.783	correct	incongruent	Block3	incongruent/STIM_019.jpg
2579.436	0.781	correct	incongruent	Block3	incongruent/STIM_020.jpg
2582.879	0.646	incorrect	incongruent	Block3	incongruent/STIM_020.jpg
2587.051	0.776	correct	incongruent	Block3	incongruent/STIM_020.jpg
2591.597	0.58	correct	incongruent	Block3	incongruent/STIM_020.jpg
2595.963	0.819	correct	incongruent	Block3	incongruent/STIM_020.jpg
2599.455	0.812	correct	incongruent	Block3	incongruent/STIM_021.jpg
2603.389	0.808	correct	incongruent	Block3	incongruent/STIM_021.jpg
2607.153	0.456	correct	incongruent	Block3	incongruent/STIM_021.jpg
2610.826	0.452	correct	incongruent	Block3	incongruent/STIM_021.jpg
2613.886	0.628	correct	incongruent	Block3	incongruent/STIM_021.jpg
2617.726	0.757	correct	incongruent	Block3	incongruent/STIM_022.jpg
2622.327	0.541	correct	incongruent	Block3	incongruent/STIM_022.jpg
2625.171	0.754	correct	incongruent	Block3	incongruent/STIM_022.jpg
2629.44	0.689	correct	incongruent	Block3	incongruent/STIM_022.jpg
2632.248	0.48	correct	incongruent	Block3	incongruent/STIM_022.jpg
2635.799	0.636	incorrect	incongruent	Block3	incongruent/STIM_023.jpg
2638.798	0.601	incorrect	incongruent	Block3	incongruent/STIM_023.jpg
2643.168	0.671	correct	incongruent	Block3	incongruent/STIM_023.jpg
2647.077	0.469	correct	incongruent	Block3	incongruent/STIM_023.jpg
2649.887	0.578	correct	incongruent	Block3	incongruent/STIM_023.jpg
2654.25	0.46	correct	incongruent	Block3	incongruent/STIM_024.jpg
2657.394	0.904	correct	incongruent	Block3	incongruent/STIM_024.jpg
2661.87	0.9	correct	incongruent	Block3	incongruent/STIM_024.jpg
2666.541	0.573	correct	incongruent	Block3	incongruent/STIM_024.jpg
2670.439	0.818	correct	incongruent	Block3	incongruent/STIM_024.jpg
2674.814	0.86	incorrect	incongruent	Block3	incongruent/STIM_025.jpg
2679.631	0.452	correct	incongruent	Block3	incongruent/STIM_025.jpg
2683.535	0.689	correct	incongruent	Block3	incongruent/STIM_025.jpg
2687.273	0.628	correct	incongruent	Block3	incongruent/STIM_025.jpg
2690.4	0.888	correct	incongruent	Block3	incongruent/STIM_025.jpg
2695.174	0.555	correct	incongruent	Block3	incongruent/STIM_026.jpg
2699.153	0.704	correct	incongruent	Block3	incongruent/STIM_026.jpg
2702.672	0.439	correct	incongruent	Block3	incongruent/STIM_026.jpg
2706.283	0.693	correct	incongruent	Block3	incongruent/STIM_026.jpg
2709.36	0.526	correct	incongruent	Block3	incongruent/STIM_026.jpg
2713.718	0.878	correct	incongruent	Block3	incongruent/STIM_027.jpg
2717.573	0.67	correct	incongruent	Block3	incongruent/STIM_027.jpg
2720.786	0.671	correct	incongruent	Block3	incongruent/STIM_027.jpg
2724.029	0.431	correct	incongruent	Block3	incongruent/STIM_027.jpg
2728.39	0.532	correct	incongruent	Block3	incongruent/STIM_027.jpg
2732.827	0.618	correct	incongruent	Block3	incongruent/STIM_028.jpg
2735.826	0.524	incorrect	incongruent	Block3	incongruent/STIM_028.jpg
2738.466	0.446	correct	incongruent	Block3	incongruent/STIM_028.jpg
2742.218	0.501	correct	incongruent	Block3	incongruent/STIM_028.jpg
2746.308	0.567	correct	incongruent	Block3	incongruent/STIM_028.jpg
2749.225	0.85	correct	incongruent	Block3	incongruent/STIM_029.jpg
2753.311	0.54	correct	incongruent	Block3	incongruent/STIM_029.jpg
2756.33	0.509	incorrect	incongruent	Block3	incongruent/STIM_029.jpg
2759.642	0.713	correct	incongruent	Block3	incongruent/STIM_029.jpg
2763.498	0.528	correct	incongruent	Block3	incongruent/STIM_029.jpg
2767.888	0.459	correct	congruent	Block3	congruent/STIM_000.jpg
2770.601	0.69	correct	congruent	Block3	congruent/STIM_000.jpg
2774.836	0.668	correct	congruent	Block3	congruent/STIM_000.jpg
2779.278	0.712	correct	congruent	Block3	congruent/STIM_000.jpg
2782.39	0.524	incorrect	congruent	Block3	congruent/STIM_000.jpg
2785.61	0.55	correct	congruent	Block3	congruent/STIM_001.jpg
2789.2	0.636	correct	congruent	Block3	congruent/STIM_001.jpg
2793.529	0.489	incorrect	congruent	Block3	congruent/STIM_001.jpg
2797.07	0.523	correct	congruent	Block3	congruent/STIM_001.jpg
2800.146	0.666	incorrect	congruent	Block3	congruent/STIM_001.jpg
2803.025	0.684	incorrect	congruent	Block3	congruent/STIM_002.jpg
2806.726	0.542	correct	congruent	Block3	congruent/STIM_002.jpg
2809.269	0.617	correct	congruent	Block3	congruent/STIM_002.jpg
2813.651	0.762	correct	congruent	Block3	congruent/STIM_002.jpg
2817.463	0.701	correct	congruent	Block3	congruent/STIM_002.jpg
2820.509	0.728	correct	congruent	Block3	congruent/STIM_003.jpg
2823.564	0.7	correct	congruent	Block3	congruent/STIM_003.jpg
2826.658	0.68	correct	congruent	Block3	congruent/STIM_003.jpg
2830.77	0.617	correct	congruent	Block3	congruent/STIM_003.jpg
2834.733	0.452	correct	congruent	Block3	congruent/STIM_003.jpg
2837.305	0.73	correct	congruent	Block3	congruent/STIM_004.jpg
2840.153	0.76	correct	congruent	Block3	congruent/STIM_004.jpg
2843.887	0.607	correct	congruent	Block3	congruent/STIM_004.jpg
2847.697	0.602	correct	congruent	Block3	congruent/STIM_004.jpg
2852.028	0.675	correct	congruent	Block3	congruent/STIM_004.jpg
2855.148	0.464	correct	congruent	Block3	congruent/STIM_005.jpg
2859.556	0.659	correct	congruent	Block3	congruent/STIM_005.jpg
2862.964	0.552	correct	congruent	Block3	congruent/STIM_005.jpg
2865.941	0.726	incorrect	congruent	Block3	congruent/STIM_005.jpg
2869.714	0.539	correct	congruent	Block3	congruent/STIM_005.jpg
2873.668	0.508	correct	congruent	Block3	congruent/STIM_006.jpg
2877.464	0.439	correct	congruent	Block3	congruent/STIM_006.jpg
2880.431	0.474	correct	congruent	Block3	congruent/STIM_006.jpg
2884.062	0.49	correct	congruent	Block3	congruent/STIM_006.jpg
2887.228	0.512	correct	congruent	Block3	congruent/STIM_006.jpg
2891.421	0.662	incorrect	congruent	Block3	congruent/STIM_007.jpg
2895.896	0.736	correct	congruent	Block3	congruent/STIM_007.jpg
2899.239	0.539	correct	congruent	Block3	congruent/STIM_007.jpg
2902.484	0.62	incorrect	congruent	Block3	congruent/STIM_007.jpg
2905.151	0.458	correct	congruent	Block3	congruent/STIM_007.jpg
2908.905	0.448	correct	congruent	Block3	congruent/STIM_008.jpg
2912.124	0.516	correct	congruent	Block3	congruent/STIM_008.jpg
2916.535	0.665	correct	congruent	Block3	congruent/STIM_008.jpg
2920.319	0.684	correct	congruent	Block3	congruent/STIM_008.jpg
2924.995	0.729	correct	congruent	Block3	congruent/STIM_008.jpg
2927.79	0.569	correct	congruent	Block3	congruent/STIM_009.jpg
2932.334	0.437	correct	congruent	Block3	congruent/STIM_009.jpg
2935.268	0.77	correct	congruent	Block3	congruent/STIM_009.jpg
2938.925	0.68	correct	congruent	Block3	congruent/STIM_009.jpg
2941.903	0.462	correct	congruent	Block3	congruent/STIM_009.jpg
2945.597	0.675	correct	congruent	Block3	congruent/STIM_010.jpg
2948.712	0.703	correct	congruent	Block3	congruent/STIM_010.jpg
2952.793	0.545	correct	congruent	Block3	congruent/STIM_010.jpg
2957.313	0.592	correct	congruent	Block3	congruent/STIM_010.jpg
2960.755	0.612	correct	congruent	Block3	congruent/STIM_010.jpg
2964.711	0.523	correct	congruent	Block3	congruent/STIM_011.jpg
2967.947	0.589	correct	congruent	Block3	congruent/STIM_011.jpg
2970.97	0.441	correct	congruent	Block3	congruent/STIM_011.jpg
2974.707	0.738	correct	congruent	Block3	congruent/STIM_011.jpg
2979.233	0.531	correct	congruent	Block3	congruent/STIM_011.jpg
2982.984	0.622	correct	congruent	Block3	congruent/STIM_012.jpg
2986.206	0.437	correct	congruent	Block3	congruent/STIM_012.jpg
2989.236	0.683	correct	congruent	Block3	congruent/STIM_012.jpg
2993.651	0.612	correct	congruent	Block3	congruent/STIM_012.jpg
2997.013	0.562	correct	congruent	Block3	congruent/STIM_012.jpg
3001.137	0.592	correct	congruent	Block3	congruent/STIM_013.jpg
3004.886	0.713	correct	congruent	Block3	congruent/STIM_013.jpg
3008.051	0.575	correct	congruent	Block3	congruent/STIM_013.jpg
3011.475	0.627	correct	congruent	Block3	congruent/STIM_013.jpg
3015.872	0.617	incorrect	congruent	Block3	congruent/STIM_013.jpg
3019.802	0.443	incorrect	congruent	Block3	congruent/STIM_014.jpg
3024.219	0.655	correct	congruent	Block3	congruent/STIM_014.jpg
3027.568	0.675	correct	congruent	Block3	congruent/STIM_014.jpg
3031.341	0.706	correct	congruent	Block3	congruent/STIM_014.jpg
3034.453	0.459	correct	congruent	Block3	congruent/STIM_014.jpg
3037.527	0.598	correct	congruent	Block3	congruent/STIM_015.jpg
3042.069	0.678	incorrect	congruent	Block3	congruent/STIM_015.jpg
3046.719	0.766	incorrect	congruent	Block3	congruent/STIM_015.jpg
3050.784	0.479	correct	congruent	Block3	congruent/STIM_015.jpg
3054.634	0.602	correct	congruent	Block3	congruent/STIM_015.jpg
3058.03	0.494	correct	congruent	Block3	congruent/STIM_016.jpg
3062.133	0.733	correct	congruent	Block3	congruent/STIM_016.jpg
3065.169	0.472	correct	congruent	Block3	congruent/STIM_016.jpg
3068.09	0.517	correct	congruent	Block3	congruent/STIM_016.jpg
3071.748	0.44	correct	congruent	Block3	congruent/STIM_016.jpg
3075.495	0.691	correct	congruent	Block3	congruent/STIM_017.jpg
3079.982	0.566	correct	congruent	Block3	congruent/STIM_017.jpg
3083.831	0.764	correct	congruent	Block3	congruent/STIM_017.jpg
3086.827	0.645	correct	congruent	Block3	congruent/STIM_017.jpg
3090.597	0.592	correct	congruent	Block3	congruent/STIM_017.jpg
3094.213	0.696	correct	congruent	Block3	congruent/STIM_018.jpg
3098.478	0.689	correct	congruent	Block3	congruent/STIM_018.jpg
3102.033	0.637	correct	congruent	Block3	congruent/STIM_018.jpg
3106.558	0.535	correct	congruent	Block3	congruent/STIM_018.jpg
3110.173	0.75	correct	congruent	Block3	congruent/STIM_018.jpg
3113.009	0.538	correct	congruent	Block3	congruent/STIM_019.jpg
3116.916	0.666	correct	congruent	Block3	congruent/STIM_019.jpg
3119.828	0.461	incorrect	congruent	Block3	congruent/STIM_019.jpg
3123.063	0.497	correct	congruent	Block3	congruent/STIM_019.jpg
3126.376	0.436	correct	congruent	Block3	congruent/STIM_019.jpg
3130.345	0.757	correct	congruent	Block3	congruent/STIM_020.jpg
3134.197	0.541	correct	congruent	Block3	congruent/STIM_020.jpg
3138.45	0.573	correct	congruent	Block3	congruent/STIM_020.jpg
3141.842	0.589	correct	congruent	Block3	congruent/STIM_020.jpg
3144.582	0.654	correct	congruent	Block3	congruent/STIM_020.jpg
3147.933	0.763	correct	congruent	Block3	congruent/STIM_021.jpg
3151.885	0.512	correct	congruent	Block3	congruent/STIM_021.jpg
3155.283	0.524	correct	congruent	Block3	congruent/STIM_021.jpg
3159.032	0.507	correct	congruent	Block3	congruent/STIM_021.jpg
3162.694	0.444	correct	congruent	Block3	congruent/STIM_021.jpg
3166.905	0.724	correct	congruent	Block3	congruent/STIM_022.jpg
3171.423	0.625	correct	congruent	Block3	congruent/STIM_022.jpg
3175.044	0.517	correct	congruent	Block3	congruent/STIM_022.jpg
3178.395	0.444	incorrect	congruent	Block3	congruent/STIM_022.jpg
3182.455	0.632	incorrect	congruent	Block3	congruent/STIM_022.jpg
3185.348	0.697	correct	congruent	Block3	congruent/STIM_023.jpg
3188.186	0.714	correct	congruent	Block3	congruent/STIM_023.jpg
3192.853	0.687	correct	congruent	Block3	congruent/STIM_023.jpg
3196.941	0.679	correct	congruent	Block3	congruent/STIM_023.jpg
3200.323	0.497	correct	congruent	Block3	congruent/STIM_023.jpg
3202.854	0.754	correct	congruent	Block3	congruent/STIM_024.jpg
3205.979	0.685	correct	congruent	Block3	congruent/STIM_024.jpg
3209.414	0.562	correct	congruent	Block3	congruent/STIM_024.jpg
3213.119	0.596	correct	congruent	Block3	congruent/STIM_024.jpg
3216.478	0.686	correct	congruent	Block3	congruent/STIM_024.jpg
3221.101	0.585	correct	congruent	Block3	congruent/STIM_025.jpg
3224.803	0.644	correct	congruent	Block3	congruent/STIM_025.jpg
3229.265	0.71	correct	congruent	Block3	congruent/STIM_025.jpg
3232.287	0.689	correct	congruent	Block3	congruent/STIM_025.jpg
3236.793	0.765	correct	congruent	Block3	congruent/STIM_025.jpg
3241.489	0.476	correct	congruent	Block3	congruent/STIM_026.jpg
3244.184	0.555	correct	congruent	Block3	congruent/STIM_026.jpg
3247.574	0.576	correct	congruent	Block3	congruent/STIM_026.jpg
3250.367	0.745	correct	congruent	Block3	congruent/STIM_026.jpg
3255.085	0.5	correct	congruent	Block3	congruent/STIM_026.jpg
3259.554	0.569	correct	congruent	Block3	congruent/STIM_027.jpg
3263.323	0.487	correct	congruent	Block3	congruent/STIM_027.jpg
3266.027	0.44	incorrect	congruent	Block3	congruent/STIM_027.jpg
3270.364	0.558	correct	congruent	Block3	congruent/STIM_027.jpg
3273.44	0.645	correct	congruent	Block3	congruent/STIM_027.jpg
3277.216	0.713	correct	congruent	Block3	congruent/STIM_028.jpg
3280.406	0.437	incorrect	congruent	Block3	congruent/STIM_028.jpg
3283.467	0.526	correct	congruent	Block3	congruent/STIM_028.jpg
3287.931	0.616	incorrect	congruent	Block3	congruent/STIM_028.jpg
3291.465	0.773	correct	congruent	Block3	congruent/STIM_028.jpg
3295.947	0.717	incorrect	congruent	Block3	congruent/STIM_029.jpg
3299.482	0.555	incorrect	congruent	Block3	congruent/STIM_029.jpg
3303.643	0.562	correct	congruent	Block3	congruent/STIM_029.jpg
3307.444	0.461	correct	congruent	Block3	congruent/STIM_029.jpg
3310.501	0.776	correct	congruent	Block3	congruent/STIM_029.jpg
