onset	duration	response_time_ms	trial_type	learning_stage	stimulus	response_port
0.0	2.446	2446.3	navigation	Trial1	navigation/STIM_000.jpg	100
5.554	1.959	1959.0	navigation	Trial1	navigation/STIM_000.jpg	100
9.808	3.031	3030.8	navigation	Trial1	navigation/STIM_000.jpg	99
14.926	2.747	2746.8	navigation	Trial1	navigation/STIM_000.jpg	100
21.014	2.855	2855.1	navigation	Trial1	navigation/STIM_000.jpg	99
26.966	2.545	2545.3	navigation	Trial1	navigation/STIM_000.jpg	99
32.008	2.789	2789.3	navigation	Trial1	navigation/STIM_001.jpg	99
38.296	3.277	3277.3	navigation	Trial1	navigation/STIM_001.jpg	100
43.824	2.434	2433.9	navigation	Trial1	navigation/STIM_001.jpg	100
49.287	2.161	2161.1	navigation	Trial1	navigation/STIM_001.jpg	99
54.575	1.423	1423.1	navigation	Trial1	navigation/STIM_001.jpg	100
59.449	2.666	2666.1	navigation	Trial1	navigation/STIM_001.jpg	99
64.181	1.786	1786.3	navigation	Trial1	navigation/STIM_002.jpg	100
68.96	1.872	1871.8	navigation	Trial1	navigation/STIM_002.jpg	99
73.776	2.779	2779.2	navigation	Trial1	navigation/STIM_002.jpg	100
79.077	1.885	1885.0	navigation	Trial1	navigation/STIM_002.jpg	99
83.893	1.5	1500.3	navigation	Trial1	navigation/STIM_002.jpg	99
87.632	2.442	2442.2	navigation	Trial1	navigation/STIM_002.jpg	99
92.869	3.108	3108.4	navigation	Trial1	navigation/STIM_003.jpg	99
98.187	2.847	2847.4	navigation	Trial1	navigation/STIM_003.jpg	100
104.256	2.76	2760.4	navigation	Trial1	navigation/STIM_003.jpg	99
109.052	2.308	2308.4	navigation	Trial1	navigation/STIM_003.jpg	100
114.987	2.364	2363.9	navigation	Trial1	navigation/STIM_003.jpg	100
121.157	1.381	1381.3	navigation	Trial1	navigation/STIM_003.jpg	100
125.741	2.818	2818.1	navigation	Trial1	navigation/STIM_004.jpg	100
131.201	2.503	2503.0	navigation	Trial1	navigation/STIM_004.jpg	99
136.889	2.216	2216.3	navigation	Trial1	navigation/STIM_004.jpg	100
142.572	2.533	2533.3	navigation	Trial1	navigation/STIM_004.jpg	100
149.053	2.354	2354.4	navigation	Trial1	navigation/STIM_004.jpg	100
155.349	1.897	1896.8	navigation	Trial1	navigation/STIM_004.jpg	100
159.395	2.816	2815.6	navigation	Trial1	navigation/STIM_005.jpg	99
165.807	3.25	3249.6	navigation	Trial1	navigation/STIM_005.jpg	99
171.346	2.194	2193.9	navigation	Trial1	navigation/STIM_005.jpg	99
176.982	2.651	2651.4	navigation	Trial1	navigation/STIM_005.jpg	99
181.745	2.645	2645.0	navigation	Trial1	navigation/STIM_005.jpg	100
186.427	2.347	2346.7	navigation	Trial1	navigation/STIM_005.jpg	99
191.613	3.36	3360.0	navigation	Trial1	navigation/STIM_006.jpg	100
198.85	2.181	2180.8	navigation	Trial1	navigation/STIM_006.jpg	100
204.264	3.01	3009.7	navigation	Trial1	navigation/STIM_006.jpg	99
209.818	2.12	2119.8	navigation	Trial1	navigation/STIM_006.jpg	100
214.269	2.274	2273.7	navigation	Trial1	navigation/STIM_006.jpg	99
219.724	2.398	2398.3	navigation	Trial1	navigation/STIM_006.jpg	99
224.211	3.081	3080.8	navigation	Trial1	navigation/STIM_007.jpg	100
229.963	2.059	2059.0	navigation	Trial1	navigation/STIM_007.jpg	99
234.75	1.787	1787.4	navigation	Trial1	navigation/STIM_007.jpg	100
240.193	3.219	3219.2	navigation	Trial1	navigation/STIM_007.jpg	99
246.98	1.437	1437.3	navigation	Trial1	navigation/STIM_007.jpg	99
252.282	1.942	1942.5	navigation	Trial1	navigation/STIM_007.jpg	99
256.828	3.812	3812.1	navigation	Trial1	navigation/STIM_008.jpg	99
264.193	2.968	2968.2	navigation	Trial1	navigation/STIM_008.jpg	99
269.328	1.515	1514.6	navigation	Trial1	navigation/STIM_008.jpg	100
273.119	1.618	1617.8	navigation	Trial1	navigation/STIM_008.jpg	99
277.436	1.603	1603.4	navigation	Trial1	navigation/STIM_008.jpg	99
281.384	2.118	2118.2	navigation	Trial1	navigation/STIM_008.jpg	100
287.03	3.417	3417.2	navigation	Trial1	navigation/STIM_009.jpg	99
293.264	1.743	1743.3	navigation	Trial1	navigation/STIM_009.jpg	100
297.117	2.802	2802.5	navigation	Trial1	navigation/STIM_009.jpg	99
302.463	2.754	2754.4	navigation	Trial1	navigation/STIM_009.jpg	99
308.998	1.858	1858.2	navigation	Trial1	navigation/STIM_009.jpg	100
314.147	1.689	1689.3	navigation	Trial1	navigation/STIM_009.jpg	100
318.729	2.818	2818.4	navigation	Trial1	navigation/STIM_010.jpg	99
324.519	3.179	3179.4	navigation	Trial1	navigation/STIM_010.jpg	100
329.699	3.368	3367.9	navigation	Trial1	navigation/STIM_010.jpg	99
336.498	2.674	2673.5	navigation	Trial1	navigation/STIM_010.jpg	100
342.278	2.318	2318.4	navigation	Trial1	navigation/STIM_010.jpg	99
348.288	2.251	2251.0	navigation	Trial1	navigation/STIM_010.jpg	99
352.651	3.783	3782.9	navigation	Trial1	navigation/STIM_011.jpg	99
359.993	3.241	3241.1	navigation	Trial1	navigation/STIM_011.jpg	100
366.879	1.615	1615.0	navigation	Trial1	navigation/STIM_011.jpg	99
371.337	2.515	2515.3	navigation	Trial1	navigation/STIM_011.jpg	99
376.271	3.036	3035.8	navigation	Trial1	navigation/STIM_011.jpg	100
381.814	1.493	1492.8	navigation	Trial1	navigation/STIM_011.jpg	99
386.017	0.822	822.1	pointing	Trial1	pointing/STIM_000.jpg	100
388.9	0.837	837.1	pointing	Trial1	pointing/STIM_000.jpg	100
393.106	0.963	962.9	pointing	Trial1	pointing/STIM_000.jpg	100
397.108	0.611	610.8	pointing	Trial1	pointing/STIM_000.jpg	100
400.205	0.887	886.7	pointing	Trial1	pointing/STIM_000.jpg	99
403.866	0.808	808.3	pointing	Trial1	pointing/STIM_000.jpg	100
408.614	1.072	1072.0	pointing	Trial1	pointing/STIM_001.jpg	99
412.288	0.659	659.2	pointing	Trial1	pointing/STIM_001.jpg	99
416.168	0.79	790.4	pointing	Trial1	pointing/STIM_001.jpg	99
419.723	0.704	703.7	pointing	Trial1	pointing/STIM_001.jpg	99
422.658	0.899	899.4	pointing	Trial1	pointing/STIM_001.jpg	100
427.066	0.714	713.9	pointing	Trial1	pointing/STIM_001.jpg	100
430.392	0.621	620.9	pointing	Trial1	pointing/STIM_002.jpg	99
433.836	0.957	956.7	pointing	Trial1	pointing/STIM_002.jpg	100
437.548	0.805	805.2	pointing	Trial1	pointing/STIM_002.jpg	99
442.041	1.051	1050.7	pointing	Trial1	pointing/STIM_002.jpg	99
445.271	0.738	738.4	pointing	Trial1	pointing/STIM_002.jpg	99
448.825	0.722	721.7	pointing	Trial1	pointing/STIM_002.jpg	100
452.28	0.776	776.3	pointing	Trial1	pointing/STIM_003.jpg	100
455.543	0.874	873.9	pointing	Trial1	pointing/STIM_003.jpg	100
460.182	0.814	814.1	pointing	Trial1	pointing/STIM_003.jpg	100
464.085	1.031	1031.0	pointing	Trial1	pointing/STIM_003.jpg	99
467.805	1.112	1111.9	pointing	Trial1	pointing/STIM_003.jpg	100
472.779	0.772	772.2	pointing	Trial1	pointing/STIM_003.jpg	100
477.101	0.856	855.6	pointing	Trial1	pointing/STIM_004.jpg	99
480.204	0.999	998.7	pointing	Trial1	pointing/STIM_004.jpg	100
483.649	0.687	687.0	pointing	Trial1	pointing/STIM_004.jpg	99
488.08	0.658	658.0	pointing	Trial1	pointing/STIM_004.jpg	99
491.278	0.905	904.8	pointing	Trial1	pointing/STIM_004.jpg	100
495.913	0.922	921.7	pointing	Trial1	pointing/STIM_004.jpg	99
499.392	1.131	1131.1	pointing	Trial1	pointing/STIM_005.jpg	100
504.1	0.682	682.0	pointing	Trial1	pointing/STIM_005.jpg	99
506.83	1.106	1105.9	pointing	Trial1	pointing/STIM_005.jpg	100
510.915	0.922	921.5	pointing	Trial1	pointing/STIM_005.jpg	100
514.116	1.098	1097.7	pointing	Trial1	pointing/STIM_005.jpg	99
519.062	0.822	821.8	pointing	Trial1	pointing/STIM_005.jpg	99
523.147	0.972	971.7	pointing	Trial1	pointing/STIM_006.jpg	100
528.114	0.986	986.4	pointing	Trial1	pointing/STIM_006.jpg	100
531.328	0.714	714.3	pointing	Trial1	pointing/STIM_006.jpg	99
534.757	0.676	675.7	pointing	Trial1	pointing/STIM_006.jpg	99
538.343	1.05	1050.5	pointing	Trial1	pointing/STIM_006.jpg	100
541.474	1.022	1021.5	pointing	Trial1	pointing/STIM_006.jpg	100
545.414	0.666	666.0	pointing	Trial1	pointing/STIM_007.jpg	99
548.845	0.63	629.7	pointing	Trial1	pointing/STIM_007.jpg	100
553.046	1.092	1091.8	pointing	Trial1	pointing/STIM_007.jpg	100
556.91	1.038	1038.1	pointing	Trial1	pointing/STIM_007.jpg	100
559.97	0.785	785.1	pointing	Trial1	pointing/STIM_007.jpg	99
564.464	0.975	975.2	pointing	Trial1	pointing/STIM_007.jpg	100
567.722	0.845	844.7	pointing	Trial1	pointing/STIM_008.jpg	99
571.794	0.949	948.9	pointing	Trial1	pointing/STIM_008.jpg	99
575.228	0.78	779.9	pointing	Trial1	pointing/STIM_008.jpg	99
578.378	1.144	1143.9	pointing	Trial1	pointing/STIM_008.jpg	99
581.885	1.019	1019.1	pointing	Trial1	pointing/STIM_008.jpg	100
586.193	0.853	853.0	pointing	Trial1	pointing/STIM_008.jpg	99
589.366	0.836	835.8	pointing	Trial1	pointing/STIM_009.jpg	99
593.432	1.138	1138.5	pointing	Trial1	pointing/STIM_009.jpg	100
597.339	1.07	1070.5	pointing	Trial1	pointing/STIM_009.jpg	100
600.526	1.034	1034.2	pointing	Trial1	pointing/STIM_009.jpg	99
605.525	1.104	1104.2	pointing	Trial1	pointing/STIM_009.jpg	99
610.107	0.914	914.5	pointing	Trial1	pointing/STIM_009.jpg	99
614.291	0.677	676.8	pointing	Trial1	pointing/STIM_010.jpg	100
618.579	0.789	788.7	pointing	Trial1	pointing/STIM_010.jpg	99
623.207	1.068	1067.5	pointing	Trial1	pointing/STIM_010.jpg	99
626.869	0.624	623.9	pointing	Trial1	pointing/STIM_010.jpg	100
630.114	1.111	1111.1	pointing	Trial1	pointing/STIM_010.jpg	99
635.09	1.017	1017.0	pointing	Trial1	pointing/STIM_010.jpg	100
639.172	0.877	876.8	pointing	Trial1	pointing/STIM_011.jpg	100
643.468	1.126	1126.1	pointing	Trial1	pointing/STIM_011.jpg	99
646.97	0.934	933.8	pointing	Trial1	pointing/STIM_011.jpg	99
650.301	1.037	1037.0	pointing	Trial1	pointing/STIM_011.jpg	99
655.081	0.624	624.3	pointing	Trial1	pointing/STIM_011.jpg	100
658.46	0.872	872.1	pointing	Trial1	pointing/STIM_011.jpg	100
662.759	2.779	2779.2	navigation	Trial2	navigation/STIM_000.jpg	100
667.912	2.103	2103.1	navigation	Trial2	navigation/STIM_000.jpg	99
672.442	2.155	2154.7	navigation	Trial2	navigation/STIM_000.jpg	100
676.714	2.393	2393.1	navigation	Trial2	navigation/STIM_000.jpg	100
681.581	1.517	1516.7	navigation	Trial2	navigation/STIM_000.jpg	100
685.476	2.122	2121.5	navigation	Trial2	navigation/STIM_000.jpg	99
690.665	2.503	2503.2	navigation	Trial2	navigation/STIM_001.jpg	100
695.317	2.692	2691.6	navigation	Trial2	navigation/STIM_001.jpg	99
700.31	2.679	2679.4	navigation	Trial2	navigation/STIM_001.jpg	100
705.225	1.71	1710.0	navigation	Trial2	navigation/STIM_001.jpg	99
709.033	2.074	2073.7	navigation	Trial2	navigation/STIM_001.jpg	100
713.753	2.194	2193.9	navigation	Trial2	navigation/STIM_001.jpg	100
719.129	1.534	1533.8	navigation	Trial2	navigation/STIM_002.jpg	100
723.518	2.448	2448.2	navigation	Trial2	navigation/STIM_002.jpg	100
728.331	1.891	1891.3	navigation	Trial2	navigation/STIM_002.jpg	99
733.394	1.63	1630.0	navigation	Trial2	navigation/STIM_002.jpg	99
738.112	2.258	2258.5	navigation	Trial2	navigation/STIM_002.jpg	100
743.729	1.514	1514.1	navigation	Trial2	navigation/STIM_002.jpg	100
748.852	2.754	2754.1	navigation	Trial2	navigation/STIM_003.jpg	99
755.289	2.213	2213.2	navigation	Trial2	navigation/STIM_003.jpg	99
760.579	2.771	2771.3	navigation	Trial2	navigation/STIM_003.jpg	99
767.332	2.613	2613.3	navigation	Trial2	navigation/STIM_003.jpg	99
772.592	2.512	2512.4	navigation	Trial2	navigation/STIM_003.jpg	99
778.144	1.58	1579.6	navigation	Trial2	navigation/STIM_003.jpg	100
782.902	2.436	2436.5	navigation	Trial2	navigation/STIM_004.jpg	100
789.312	3.043	3043.3	navigation	Trial2	navigation/STIM_004.jpg	100
796.309	1.377	1377.1	navigation	Trial2	navigation/STIM_004.jpg	100
800.489	2.557	2557.4	navigation	Trial2	navigation/STIM_004.jpg	100
805.143	2.257	2256.6	navigation	Trial2	navigation/STIM_004.jpg	100
809.713	1.194	1193.6	navigation	Trial2	navigation/STIM_004.jpg	100
813.015	3.134	3134.5	navigation	Trial2	navigation/STIM_005.jpg	99
818.87	2.754	2754.1	navigation	Trial2	navigation/STIM_005.jpg	100
824.006	2.371	2371.3	navigation	Trial2	navigation/STIM_005.jpg	100
828.49	1.782	1782.3	navigation	Trial2	navigation/STIM_005.jpg	100
833.243	1.274	1274.5	navigation	Trial2	navigation/STIM_005.jpg	100
838.01	1.187	1187.4	navigation	Trial2	navigation/STIM_005.jpg	100
841.515	2.715	2715.3	navigation	Trial2	navigation/STIM_006.jpg	99
846.35	2.521	2520.9	navigation	Trial2	navigation/STIM_006.jpg	99
851.914	1.628	1627.7	navigation	Trial2	navigation/STIM_006.jpg	99
857.071	1.447	1446.6	navigation	Trial2	navigation/STIM_006.jpg	99
862.253	1.48	1480.4	navigation	Trial2	navigation/STIM_006.jpg	100
866.195	2.283	2283.2	navigation	Trial2	navigation/STIM_006.jpg	99
871.799	2.526	2526.2	navigation	Trial2	navigation/STIM_007.jpg	99
876.331	1.754	1753.9	navigation	Trial2	navigation/STIM_007.jpg	99
880.167	2.158	2158.1	navigation	Trial2	navigation/STIM_007.jpg	99
885.163	1.26	1260.3	navigation	Trial2	navigation/STIM_007.jpg	99
889.404	1.645	1645.0	navigation	Trial2	navigation/STIM_007.jpg	99
893.584	1.902	1902.5	navigation	Trial2	navigation/STIM_007.jpg	100
898.498	2.384	2383.9	navigation	Trial2	navigation/STIM_008.jpg	100
904.413	2.64	2640.2	navigation	Trial2	navigation/STIM_008.jpg	99
909.301	1.254	1253.8	navigation	Trial2	navigation/STIM_008.jpg	99
913.308	2.272	2271.7	navigation	Trial2	navigation/STIM_008.jpg	100
919.261	2.527	2527.3	navigation	Trial2	navigation/STIM_008.jpg	100
925.163	2.651	2651.0	navigation	Trial2	navigation/STIM_008.jpg	99
930.455	2.93	2929.7	navigation	Trial2	navigation/STIM_009.jpg	99
935.801	2.569	2569.3	navigation	Trial2	navigation/STIM_009.jpg	99
940.551	2.096	2095.5	navigation	Trial2	navigation/STIM_009.jpg	100
946.014	1.309	1309.1	navigation	Trial2	navigation/STIM_009.jpg	99
951.088	1.126	1126.2	navigation	Trial2	navigation/STIM_009.jpg	99
955.654	2.493	2492.9	navigation	Trial2	navigation/STIM_009.jpg	99
960.678	2.513	2513.3	navigation	Trial2	navigation/STIM_010.jpg	100
966.782	1.813	1813.2	navigation	Trial2	navigation/STIM_010.jpg	99
970.646	2.59	2590.4	navigation	Trial2	navigation/STIM_010.jpg	99
975.968	1.216	1216.1	navigation	Trial2	navigation/STIM_010.jpg	100
980.465	2.005	2005.0	navigation	Trial2	navigation/STIM_010.jpg	100
984.497	2.145	2145.2	navigation	Trial2	navigation/STIM_010.jpg	99
988.643	2.098	2098.2	navigation	Trial2	navigation/STIM_011.jpg	100
994.129	2.077	2077.4	navigation	Trial2	navigation/STIM_011.jpg	100
999.325	1.912	1912.1	navigation	Trial2	navigation/STIM_011.jpg	99
1004.624	1.802	1802.2	navigation	Trial2	navigation/STIM_011.jpg	100
1009.715	1.077	1077.1	navigation	Trial2	navigation/STIM_011.jpg	100
1012.995	1.404	1404.4	navigation	Trial2	navigation/STIM_011.jpg	99
1017.564	0.912	911.5	pointing	Trial2	pointing/STIM_000.jpg	100
1022.193	0.711	710.9	pointing	Trial2	pointing/STIM_000.jpg	100
1025.915	0.716	716.4	pointing	Trial2	pointing/STIM_000.jpg	100
1029.042	1.009	1009.0	pointing	Trial2	pointing/STIM_000.jpg	100
1032.445	0.893	893.3	pointing	Trial2	pointing/STIM_000.jpg	100
1037.189	1.094	1094.1	pointing	Trial2	pointing/STIM_000.jpg	100
1041.397	1.03	1030.0	pointing	Trial2	pointing/STIM_001.jpg	99
1045.229	0.836	836.2	pointing	Trial2	pointing/STIM_001.jpg	100
1049.361	0.632	631.9	pointing	Trial2	pointing/STIM_001.jpg	100
1053.306	0.941	940.9	pointing	Trial2	pointing/STIM_001.jpg	100
1058.002	0.923	922.6	pointing	Trial2	pointing/STIM_001.jpg	100
1062.146	0.955	954.9	pointing	Trial2	pointing/STIM_001.jpg	100
1066.86	0.852	852.4	pointing	Trial2	pointing/STIM_002.jpg	99
1069.964	1.076	1075.9	pointing	Trial2	pointing/STIM_002.jpg	100
1073.218	1.129	1129.2	pointing	Trial2	pointing/STIM_002.jpg	99
1076.509	0.898	898.1	pointing	Trial2	pointing/STIM_002.jpg	99
1079.55	0.986	986.4	pointing	Trial2	pointing/STIM_002.jpg	99
1083.008	0.704	704.1	pointing	Trial2	pointing/STIM_002.jpg	99
1086.821	0.813	813.2	pointing	Trial2	pointing/STIM_003.jpg	99
1091.089	0.91	909.5	pointing	Trial2	pointing/STIM_003.jpg	100
1094.735	0.989	989.4	pointing	Trial2	pointing/STIM_003.jpg	100
1097.937	1.015	1014.9	pointing	Trial2	pointing/STIM_003.jpg	99
1101.728	1.091	1090.9	pointing	Trial2	pointing/STIM_003.jpg	100
1106.107	0.899	899.0	pointing	Trial2	pointing/STIM_003.jpg	100
1109.828	1.115	1115.1	pointing	Trial2	pointing/STIM_004.jpg	100
1113.407	0.995	994.8	pointing	Trial2	pointing/STIM_004.jpg	100
1117.618	1.058	1058.3	pointing	Trial2	pointing/STIM_004.jpg	100
1121.876	1.006	1006.1	pointing	Trial2	pointing/STIM_004.jpg	100
1125.59	0.678	678.4	pointing	Trial2	pointing/STIM_004.jpg	100
1129.655	1.138	1137.5	pointing	Trial2	pointing/STIM_004.jpg	99
1133.105	0.986	986.4	pointing	Trial2	pointing/STIM_005.jpg	100
1136.767	0.936	936.4	pointing	Trial2	pointing/STIM_005.jpg	100
1140.689	0.643	643.2	pointing	Trial2	pointing/STIM_005.jpg	100
1144.624	0.91	909.8	pointing	Trial2	pointing/STIM_005.jpg	100
1149.241	0.677	677.3	pointing	Trial2	pointing/STIM_005.jpg	100
1153.439	1.137	1136.6	pointing	Trial2	pointing/STIM_005.jpg	99
1156.72	0.637	636.6	pointing	Trial2	pointing/STIM_006.jpg	99
1160.086	0.824	824.4	pointing	Trial2	pointing/STIM_006.jpg	100
1164.456	0.612	612.3	pointing	Trial2	pointing/STIM_006.jpg	100
1167.129	0.78	779.5	pointing	Trial2	pointing/STIM_006.jpg	99
1170.495	0.947	946.8	pointing	Trial2	pointing/STIM_006.jpg	99
1174.533	0.776	776.5	pointing	Trial2	pointing/STIM_006.jpg	100
1179.189	0.66	659.7	pointing	Trial2	pointing/STIM_007.jpg	99
1183.239	0.69	690.2	pointing	Trial2	pointing/STIM_007.jpg	99
1187.768	1.046	1045.8	pointing	Trial2	pointing/STIM_007.jpg	100
1192.476	0.971	970.9	pointing	Trial2	pointing/STIM_007.jpg	99
1197.013	0.903	903.4	pointing	Trial2	pointing/STIM_007.jpg	100
1201.36	1.065	1065.4	pointing	Trial2	pointing/STIM_007.jpg	99
1205.595	0.725	725.0	pointing	Trial2	pointing/STIM_008.jpg	99
1209.244	0.884	884.0	pointing	Trial2	pointing/STIM_008.jpg	99
1213.682	0.932	931.6	pointing	Trial2	pointing/STIM_008.jpg	100
1218.251	0.643	643.1	pointing	Trial2	pointing/STIM_008.jpg	99
1221.369	0.891	891.4	pointing	Trial2	pointing/STIM_008.jpg	100
1226.061	0.941	940.6	pointing	Trial2	pointing/STIM_008.jpg	99
1229.646	0.969	968.7	pointing	Trial2	pointing/STIM_009.jpg	99
1232.923	0.733	733.1	pointing	Trial2	pointing/STIM_009.jpg	100
1236.456	0.981	980.6	pointing	Trial2	pointing/STIM_009.jpg	100
1240.922	0.712	712.2	pointing	Trial2	pointing/STIM_009.jpg	99
1245.451	0.798	798.5	pointing	Trial2	pointing/STIM_009.jpg	100
1249.75	1.034	1034.2	pointing	Trial2	pointing/STIM_009.jpg	100
1253.87	0.81	810.3	pointing	Trial2	pointing/STIM_010.jpg	100
1257.39	0.936	936.1	pointing	Trial2	pointing/STIM_010.jpg	100
1261.172	1.102	1102.1	pointing	Trial2	pointing/STIM_010.jpg	99
1265.942	0.722	721.6	pointing	Trial2	pointing/STIM_010.jpg	99
1269.222	1.081	1080.6	pointing	Trial2	pointing/STIM_010.jpg	100
1273.875	0.939	938.7	pointing	Trial2	pointing/STIM_010.jpg	99
1278.758	0.626	625.9	pointing	Trial2	pointing/STIM_011.jpg	100
1282.258	1.01	1010.3	pointing	Trial2	pointing/STIM_011.jpg	99
1287.02	0.711	710.7	pointing	Trial2	pointing/STIM_011.jpg	100
1290.756	0.66	659.5	pointing	Trial2	pointing/STIM_011.jpg	100
1294.114	0.976	975.8	pointing	Trial2	pointing/STIM_011.jpg	99
1298.405	0.959	959.3	pointing	Trial2	pointing/STIM_011.jpg	100
1301.429	2.546	2546.4	navigation	Trial3	navigation/STIM_000.jpg	100
1307.55	1.97	1970.1	navigation	Trial3	navigation/STIM_000.jpg	99
1312.019	2.538	2538.2	navigation	Trial3	navigation/STIM_000.jpg	99
1316.93	1.269	1268.8	navigation	Trial3	navigation/STIM_000.jpg	99
1321.074	1.288	1288.2	navigation	Trial3	navigation/STIM_000.jpg	99
1324.598	1.398	1397.6	navigation	Trial3	navigation/STIM_000.jpg	99
1329.844	1.577	1577.4	navigation	Trial3	navigation/STIM_001.jpg	100
1334.309	1.92	1920.1	navigation	Trial3	navigation/STIM_001.jpg	100
1339.426	1.928	1928.1	navigation	Trial3	navigation/STIM_001.jpg	100
1344.22	2.52	2520.3	navigation	Trial3	navigation/STIM_001.jpg	99
1349.175	2.168	2168.3	navigation	Trial3	navigation/STIM_001.jpg	100
1353.402	1.149	1149.0	navigation	Trial3	navigation/STIM_001.jpg	100
1356.563	1.824	1823.9	navigation	Trial3	navigation/STIM_002.jpg	100
1361.492	2.283	2282.8	navigation	Trial3	navigation/STIM_002.jpg	100
1367.267	2.525	2525.0	navigation	Trial3	navigation/STIM_002.jpg	99
1372.987	1.833	1832.9	navigation	Trial3	navigation/STIM_002.jpg	99
1378.636	2.123	2123.0	navigation	Trial3	navigation/STIM_002.jpg	100
1383.156	2.482	2482.0	navigation	Trial3	navigation/STIM_002.jpg	100
1389.549	1.474	1474.0	navigation	Trial3	navigation/STIM_003.jpg	100
1393.972	2.108	2107.5	navigation	Trial3	navigation/STIM_003.jpg	100
1398.712	1.845	1844.8	navigation	Trial3	navigation/STIM_003.jpg	99
1403.846	1.921	1921.3	navigation	Trial3	navigation/STIM_003.jpg	100
1408.118	2.261	2261.1	navigation	Trial3	navigation/STIM_003.jpg	99
1413.132	1.204	1204.3	navigation	Trial3	navigation/STIM_003.jpg	99
1416.89	1.286	1285.7	navigation	Trial3	navigation/STIM_004.jpg	99
1421.662	1.387	1386.6	navigation	Trial3	navigation/STIM_004.jpg	99
1425.172	1.959	1958.9	navigation	Trial3	navigation/STIM_004.jpg	100
1429.658	2.445	2445.0	navigation	Trial3	navigation/STIM_004.jpg	100
1434.363	1.759	1759.2	navigation	Trial3	navigation/STIM_004.jpg	99
1438.74	1.082	1081.9	navigation	Trial3	navigation/STIM_004.jpg	100
1442.748	2.051	2051.0	navigation	Trial3	navigation/STIM_005.jpg	99
1448.122	2.653	2653.2	navigation	Trial3	navigation/STIM_005.jpg	99
1453.638	1.586	1586.1	navigation	Trial3	navigation/STIM_005.jpg	99
1459.104	1.65	1649.6	navigation	Trial3	navigation/STIM_005.jpg	99
1463.287	1.913	1913.0	navigation	Trial3	navigation/STIM_005.jpg	99
1467.638	1.366	1366.1	navigation	Trial3	navigation/STIM_005.jpg	100
1472.381	1.729	1729.3	navigation	Trial3	navigation/STIM_006.jpg	100
1477.682	1.173	1173.2	navigation	Trial3	navigation/STIM_006.jpg	99
1481.744	1.429	1428.7	navigation	Trial3	navigation/STIM_006.jpg	99
1486.701	2.425	2424.6	navigation	Trial3	navigation/STIM_006.jpg	99
1492.199	2.369	2368.9	navigation	Trial3	navigation/STIM_006.jpg	99
1497.056	1.812	1811.9	navigation	Trial3	navigation/STIM_006.jpg	100
1501.968	1.896	1895.9	navigation	Trial3	navigation/STIM_007.jpg	100
1506.955	2.593	2593.3	navigation	Trial3	navigation/STIM_007.jpg	99
1513.372	2.052	2052.4	navigation	Trial3	navigation/STIM_007.jpg	100
1517.654	1.219	1219.3	navigation	Trial3	navigation/STIM_007.jpg	100
1521.647	2.03	2030.2	navigation	Trial3	navigation/STIM_007.jpg	99
1526.839	1.857	1856.8	navigation	Trial3	navigation/STIM_007.jpg	99
1531.342	2.323	2323.0	navigation	Trial3	navigation/STIM_008.jpg	100
1536.068	2.608	2607.6	navigation	Trial3	navigation/STIM_008.jpg	99
1541.557	1.308	1308.2	navigation	Trial3	navigation/STIM_008.jpg	99
1544.989	2.65	2649.7	navigation	Trial3	navigation/STIM_008.jpg	99
1550.253	2.015	2014.7	navigation	Trial3	navigation/STIM_008.jpg	100
1555.624	1.369	1369.3	navigation	Trial3	navigation/STIM_008.jpg	99
1559.814	2.485	2484.8	navigation	Trial3	navigation/STIM_009.jpg	99
1565.173	1.638	1637.7	navigation	Trial3	navigation/STIM_009.jpg	100
1569.966	1.488	1488.1	navigation	Trial3	navigation/STIM_009.jpg	100
1575.021	1.155	1155.4	navigation	Trial3	navigation/STIM_009.jpg	100
1580.07	1.626	1626.2	navigation	Trial3	navigation/STIM_009.jpg	99
1584.757	2.098	2098.1	navigation	Trial3	navigation/STIM_009.jpg	100
1589.568	2.26	2260.5	navigation	Trial3	navigation/STIM_010.jpg	99
1595.783	1.724	1724.1	navigation	Trial3	navigation/STIM_010.jpg	99
1600.693	1.491	1490.7	navigation	Trial3	navigation/STIM_010.jpg	99
1604.264	2.073	2073.1	navigation	Trial3	navigation/STIM_010.jpg	100
1610.232	1.255	1255.3	navigation	Trial3	navigation/STIM_010.jpg	99
1615.405	2.43	2430.4	navigation	Trial3	navigation/STIM_010.jpg	100
1620.887	2.187	2186.9	navigation	Trial3	navigation/STIM_011.jpg	100
1625.861	1.711	1711.1	navigation	Trial3	navigation/STIM_011.jpg	99
1630.152	1.488	1488.0	navigation	Trial3	navigation/STIM_011.jpg	100
1634.667	2.065	2065.0	navigation	Trial3	navigation/STIM_011.jpg	99
1639.755	1.823	1822.7	navigation	Trial3	navigation/STIM_011.jpg	99
1645.054	1.681	1681.4	navigation	Trial3	navigation/STIM_011.jpg	100
1649.033	0.916	916.3	pointing	Trial3	pointing/STIM_000.jpg	99
1653.449	0.883	883.4	pointing	Trial3	pointing/STIM_000.jpg	99
1657.271	0.631	631.2	pointing	Trial3	pointing/STIM_000.jpg	99
1661.619	0.823	823.2	pointing	Trial3	pointing/STIM_000.jpg	100
1664.612	1.014	1013.9	pointing	Trial3	pointing/STIM_000.jpg	100
1667.836	0.914	914.3	pointing	Trial3	pointing/STIM_000.jpg	99
1671.863	0.967	967.0	pointing	Trial3	pointing/STIM_001.jpg	100
1676.784	1.047	1046.6	pointing	Trial3	pointing/STIM_001.jpg	99
1680.111	0.765	765.2	pointing	Trial3	pointing/STIM_001.jpg	100
1684.61	1.008	1007.9	pointing	Trial3	pointing/STIM_001.jpg	100
1687.636	0.687	686.6	pointing	Trial3	pointing/STIM_001.jpg	100
1692.193	1.096	1095.8	pointing	Trial3	pointing/STIM_001.jpg	100
1695.861	0.857	857.3	pointing	Trial3	pointing/STIM_002.jpg	100
1700.254	0.802	802.2	pointing	Trial3	pointing/STIM_002.jpg	100
1703.484	0.906	905.8	pointing	Trial3	pointing/STIM_002.jpg	99
1706.628	1.114	1114.5	pointing	Trial3	pointing/STIM_002.jpg	99
1710.773	0.992	991.9	pointing	Trial3	pointing/STIM_002.jpg	99
1714.575	0.714	713.8	pointing	Trial3	pointing/STIM_002.jpg	100
1718.056	0.627	627.4	pointing	Trial3	pointing/STIM_003.jpg	100
1721.017	0.945	944.7	pointing	Trial3	pointing/STIM_003.jpg	99
1724.19	0.807	807.0	pointing	Trial3	pointing/STIM_003.jpg	99
1728.474	0.721	721.4	pointing	Trial3	pointing/STIM_003.jpg	99
1731.928	1.031	1031.0	pointing	Trial3	pointing/STIM_003.jpg	100
1736.801	0.631	631.0	pointing	Trial3	pointing/STIM_003.jpg	99
1740.902	0.967	966.7	pointing	Trial3	pointing/STIM_004.jpg	100
1744.192	0.621	620.9	pointing	Trial3	pointing/STIM_004.jpg	99
1746.845	0.633	633.0	pointing	Trial3	pointing/STIM_004.jpg	100
1751.067	1.018	1018.5	pointing	Trial3	pointing/STIM_004.jpg	99
1754.696	0.782	781.6	pointing	Trial3	pointing/STIM_004.jpg	100
1758.742	1.125	1125.3	pointing	Trial3	pointing/STIM_004.jpg	99
1762.743	0.924	923.5	pointing	Trial3	pointing/STIM_005.jpg	100
1766.426	0.947	947.0	pointing	Trial3	pointing/STIM_005.jpg	99
1770.036	0.839	838.7	pointing	Trial3	pointing/STIM_005.jpg	99
1774.857	0.745	745.0	pointing	Trial3	pointing/STIM_005.jpg	100
1779.502	0.819	819.2	pointing	Trial3	pointing/STIM_005.jpg	99
1783.718	0.929	928.9	pointing	Trial3	pointing/STIM_005.jpg	100
1788.421	0.741	741.3	pointing	Trial3	pointing/STIM_006.jpg	100
1791.434	1.09	1089.5	pointing	Trial3	pointing/STIM_006.jpg	100
1795.898	0.654	654.3	pointing	Trial3	pointing/STIM_006.jpg	99
1799.1	1.008	1007.9	pointing	Trial3	pointing/STIM_006.jpg	99
1803.213	0.65	650.4	pointing	Trial3	pointing/STIM_006.jpg	99
1807.632	1.127	1127.3	pointing	Trial3	pointing/STIM_006.jpg	99
1811.112	0.696	696.1	pointing	Trial3	pointing/STIM_007.jpg	100
1815.062	1.05	1050.0	pointing	Trial3	pointing/STIM_007.jpg	100
1818.165	0.833	833.2	pointing	Trial3	pointing/STIM_007.jpg	100
1821.776	0.646	645.5	pointing	Trial3	pointing/STIM_007.jpg	99
1826.421	1.099	1098.7	pointing	Trial3	pointing/STIM_007.jpg	99
1830.752	0.85	850.5	pointing	Trial3	pointing/STIM_007.jpg	100
1834.401	1.006	1006.5	pointing	Trial3	pointing/STIM_008.jpg	100
1838.846	0.754	753.6	pointing	Trial3	pointing/STIM_008.jpg	100
1842.866	0.613	613.4	pointing	Trial3	pointing/STIM_008.jpg	99
1845.561	1.046	1046.5	pointing	Trial3	pointing/STIM_008.jpg	100
1850.444	0.663	662.9	pointing	Trial3	pointing/STIM_008.jpg	100
1854.691	0.848	847.9	pointing	Trial3	pointing/STIM_008.jpg	99
1859.288	0.888	888.0	pointing	Trial3	pointing/STIM_009.jpg	100
1863.102	0.954	953.7	pointing	Trial3	pointing/STIM_009.jpg	100
1866.21	0.957	957.3	pointing	Trial3	pointing/STIM_009.jpg	99
1869.598	0.947	946.9	pointing	Trial3	pointing/STIM_009.jpg	100
1874.535	0.971	970.6	pointing	Trial3	pointing/STIM_009.jpg	100
1878.938	0.832	832.2	pointing	Trial3	pointing/STIM_009.jpg	100
1883.649	0.643	643.2	pointing	Trial3	pointing/STIM_010.jpg	99
1887.608	0.917	916.6	pointing	Trial3	pointing/STIM_010.jpg	100
1892.132	0.922	921.9	pointing	Trial3	pointing/STIM_010.jpg	100
1895.182	0.93	929.7	pointing	Trial3	pointing/STIM_010.jpg	99
1898.204	0.98	980.3	pointing	Trial3	pointing/STIM_010.jpg	100
1901.261	1.128	1128.0	pointing	Trial3	pointing/STIM_010.jpg	100
1905.305	0.713	713.2	pointing	Trial3	pointing/STIM_011.jpg	99
1909.244	0.938	937.6	pointing	Trial3	pointing/STIM_011.jpg	99
1913.963	1.094	1094.3	pointing	Trial3	pointing/STIM_011.jpg	100
1918.805	0.99	990.5	pointing	Trial3	pointing/STIM_011.jpg	100
1922.247	1.068	1067.7	pointing	Trial3	pointing/STIM_011.jpg	99
1926.78	0.694	694.0	pointing	Trial3	pointing/STIM_011.jpg	99
