onset	duration	accuracy	trial_type	learning_stage	stimulus
0.0	3.946	correct	navigation	Trial1	navigation/STIM_000.jpg
5.785	2.428	correct	navigation	Trial1	navigation/STIM_000.jpg
10.642	2.031	correct	navigation	Trial1	navigation/STIM_000.jpg
16.431	3.348	incorrect	navigation	Trial1	navigation/STIM_000.jpg
23.326	1.961	correct	navigation	Trial1	navigation/STIM_000.jpg
27.282	2.708	correct	navigation	Trial1	navigation/STIM_000.jpg
33.466	3.747	incorrect	navigation	Trial1	navigation/STIM_001.jpg
39.916	3.459	correct	navigation	Trial1	navigation/STIM_001.jpg
46.511	3.687	correct	navigation	Trial1	navigation/STIM_001.jpg
52.292	4.543	correct	navigation	Trial1	navigation/STIM_001.jpg
59.421	4.389	correct	navigation	Trial1	navigation/STIM_001.jpg
66.561	3.597	correct	navigation	Trial1	navigation/STIM_001.jpg
73.436	2.858	correct	navigation	Trial1	navigation/STIM_002.jpg
79.076	4.242	correct	navigation	Trial1	navigation/STIM_002.jpg
85.494	3.776	correct	navigation	Trial1	navigation/STIM_002.jpg
91.28	4.313	correct	navigation	Trial1	navigation/STIM_002.jpg
98.563	1.967	incorrect	navigation	Trial1	navigation/STIM_002.jpg
104.148	3.909	correct	navigation	Trial1	navigation/STIM_002.jpg
111.338	2.3	incorrect	navigation	Trial1	navigation/STIM_003.jpg
117.079	3.775	correct	navigation	Trial1	navigation/STIM_003.jpg
123.98	4.116	correct	navigation	Trial1	navigation/STIM_003.jpg
131.286	2.71	incorrect	navigation	Trial1	navigation/STIM_003.jpg
137.034	3.157	incorrect	navigation	Trial1	navigation/STIM_003.jpg
142.549	3.72	correct	navigation	Trial1	navigation/STIM_003.jpg
149.16	2.872	correct	navigation	Trial1	navigation/STIM_004.jpg
154.46	2.163	correct	navigation	Trial1	navigation/STIM_004.jpg
158.868	4.565	correct	navigation	Trial1	navigation/STIM_004.jpg
166.575	2.176	correct	navigation	Trial1	navigation/STIM_004.jpg
172.193	1.918	correct	navigation	Trial1	navigation/STIM_004.jpg
176.178	3.364	correct	navigation	Trial1	navigation/STIM_004.jpg
182.779	3.328	correct	navigation	Trial1	navigation/STIM_005.jpg
187.832	5.265	correct	navigation	Trial1	navigation/STIM_005.jpg
196.24	3.524	correct	navigation	Trial1	navigation/STIM_005.jpg
201.445	2.352	incorrect	navigation	Trial1	navigation/STIM_005.jpg
206.998	2.723	correct	navigation	Trial1	navigation/STIM_005.jpg
212.23	3.621	correct	navigation	Trial1	navigation/STIM_005.jpg
218.852	5.519	correct	navigation	Trial1	navigation/STIM_006.jpg
227.328	2.868	correct	navigation	Trial1	navigation/STIM_006.jpg
233.726	2.28	incorrect	navigation	Trial1	navigation/STIM_006.jpg
239.164	3.882	correct	navigation	Trial1	navigation/STIM_006.jpg
246.074	2.743	correct	navigation	Trial1	navigation/STIM_006.jpg
250.703	2.115	incorrect	navigation	Trial1	navigation/STIM_006.jpg
255.591	4.834	incorrect	navigation	Trial1	navigation/STIM_007.jpg
263.056	3.654	correct	navigation	Trial1	navigation/STIM_007.jpg
270.075	3.823	correct	navigation	Trial1	navigation/STIM_007.jpg
276.81	4.238	correct	navigation	Trial1	navigation/STIM_007.jpg
284.325	3.168	correct	navigation	Trial1	navigation/STIM_007.jpg
289.846	2.083	correct	navigation	Trial1	navigation/STIM_007.jpg
295.163	5.159	correct	navigation	Trial1	navigation/STIM_008.jpg
303.731	2.792	correct	navigation	Trial1	navigation/STIM_008.jpg
309.559	4.071	incorrect	navigation	Trial1	navigation/STIM_008.jpg
316.49	1.907	correct	navigation	Trial1	navigation/STIM_008.jpg
321.32	3.724	incorrect	navigation	Trial1	navigation/STIM_008.jpg
326.748	2.623	correct	navigation	Trial1	navigation/STIM_008.jpg
332.153	4.443	correct	navigation	Trial1	navigation/STIM_009.jpg
339.551	3.37	incorrect	navigation	Trial1	navigation/STIM_009.jpg
346.348	3.93	incorrect	navigation	Trial1	navigation/STIM_009.jpg
352.385	2.382	correct	navigation	Trial1	navigation/STIM_009.jpg
357.961	4.001	correct	navigation	Trial1	navigation/STIM_009.jpg
363.608	3.103	incorrect	navigation	Trial1	navigation/STIM_009.jpg
369.667	3.172	incorrect	navigation	Trial1	navigation/STIM_010.jpg
375.609	3.264	correct	navigation	Trial1	navigation/STIM_010.jpg
382.468	2.441	correct	navigation	Trial1	navigation/STIM_010.jpg
388.603	4.645	incorrect	navigation	Trial1	navigation/STIM_010.jpg
394.986	4.108	correct	navigation	Trial1	navigation/STIM_010.jpg
402.508	2.311	correct	navigation	Trial1	navigation/STIM_010.jpg
406.911	5.495	correct	navigation	Trial1	navigation/STIM_011.jpg
415.646	3.531	incorrect	navigation	Trial1	navigation/STIM_011.jpg
421.294	2.546	correct	navigation	Trial1	navigation/STIM_011.jpg
426.872	4.269	correct	navigation	Trial1	navigation/STIM_011.jpg
433.279	2.024	incorrect	navigation	Trial1	navigation/STIM_011.jpg
438.847	3.572	correct	navigation	Trial1	navigation/STIM_011.jpg
445.21	1.172	correct	pointing	Trial1	pointing/STIM_000.jpg
449.717	1.426	incorrect	pointing	Trial1	pointing/STIM_000.jpg
454.967	1.424	correct	pointing	Trial1	pointing/STIM_000.jpg
458.514	1.011	correct	pointing	Trial1	pointing/STIM_000.jpg
463.301	1.324	correct	pointing	Trial1	pointing/STIM_000.jpg
466.555	1.408	incorrect	pointing	Trial1	pointing/STIM_000.jpg
471.213	1.167	correct	pointing	Trial1	pointing/STIM_001.jpg
474.83	1.418	correct	pointing	Trial1	pointing/STIM_001.jpg
479.517	1.313	correct	pointing	Trial1	pointing/STIM_001.jpg
483.193	1.148	correct	pointing	Trial1	pointing/STIM_001.jpg
486.659	1.297	correct	pointing	Trial1	pointing/STIM_001.jpg
491.196	0.965	correct	pointing	Trial1	pointing/STIM_001.jpg
494.882	1.657	correct	pointing	Trial1	pointing/STIM_002.jpg
498.954	1.413	correct	pointing	Trial1	pointing/STIM_002.jpg
504.077	1.135	correct	pointing	Trial1	pointing/STIM_002.jpg
508.223	1.543	correct	pointing	Trial1	pointing/STIM_002.jpg
511.771	1.39	correct	pointing	Trial1	pointing/STIM_002.jpg
515.125	1.488	correct	pointing	Trial1	pointing/STIM_002.jpg
519.782	1.153	correct	pointing	Trial1	pointing/STIM_003.jpg
524.019	1.394	correct	pointing	Trial1	pointing/STIM_003.jpg
528.148	1.184	correct	pointing	Trial1	pointing/STIM_003.jpg
532.218	1.197	correct	pointing	Trial1	pointing/STIM_003.jpg
535.808	1.358	correct	pointing	Trial1	pointing/STIM_003.jpg
539.453	1.221	incorrect	pointing	Trial1	pointing/STIM_003.jpg
544.545	0.989	correct	pointing	Trial1	pointing/STIM_004.jpg
548.846	1.285	correct	pointing	Trial1	pointing/STIM_004.jpg
552.171	1.614	correct	pointing	Trial1	pointing/STIM_004.jpg
557.204	1.245	correct	pointing	Trial1	pointing/STIM_004.jpg
561.617	1.339	correct	pointing	Trial1	pointing/STIM_004.jpg
566.811	1.544	correct	pointing	Trial1	pointing/STIM_004.jpg
571.161	1.045	correct	pointing	Trial1	pointing/STIM_005.jpg
574.746	1.121	correct	pointing	Trial1	pointing/STIM_005.jpg
579.532	1.131	correct	pointing	Trial1	pointing/STIM_005.jpg
582.556	1.102	correct	pointing	Trial1	pointing/STIM_005.jpg
585.825	1.044	correct	pointing	Trial1	pointing/STIM_005.jpg
589.35	1.119	correct	pointing	Trial1	pointing/STIM_005.jpg
593.154	1.11	correct	pointing	Trial1	pointing/STIM_006.jpg
597.782	1.185	correct	pointing	Trial1	pointing/STIM_006.jpg
602.718	0.895	correct	pointing	Trial1	pointing/STIM_006.jpg
605.688	0.988	correct	pointing	Trial1	pointing/STIM_006.jpg
609.264	1.277	correct	pointing	Trial1	pointing/STIM_006.jpg
614.117	1.584	correct	pointing	Trial1	pointing/STIM_006.jpg
619.048	1.52	correct	pointing	Trial1	pointing/STIM_007.jpg
623.55	1.029	correct	pointing	Trial1	pointing/STIM_007.jpg
626.627	0.95	correct	pointing	Trial1	pointing/STIM_007.jpg
630.265	1.654	correct	pointing	Trial1	pointing/STIM_007.jpg
634.776	1.531	correct	pointing	Trial1	pointing/STIM_007.jpg
638.288	1.402	correct	pointing	Trial1	pointing/STIM_007.jpg
643.143	1.632	incorrect	pointing	Trial1	pointing/STIM_008.jpg
646.614	1.205	correct	pointing	Trial1	pointing/STIM_008.jpg
650.779	1.155	correct	pointing	Trial1	pointing/STIM_008.jpg
654.222	1.515	correct	pointing	Trial1	pointing/STIM_008.jpg
657.854	1.023	correct	pointing	Trial1	pointing/STIM_008.jpg
661.21	1.367	correct	pointing	Trial1	pointing/STIM_008.jpg
666.129	1.266	correct	pointing	Trial1	pointing/STIM_009.jpg
671.152	1.404	correct	pointing	Trial1	pointing/STIM_009.jpg
676.006	1.366	correct	pointing	Trial1	pointing/STIM_009.jpg
681.23	1.628	correct	pointing	Trial1	pointing/STIM_009.jpg
686.651	0.96	correct	pointing	Trial1	pointing/STIM_009.jpg
689.563	1.268	incorrect	pointing	Trial1	pointing/STIM_009.jpg
692.888	1.283	correct	pointing	Trial1	pointing/STIM_010.jpg
696.565	1.113	correct	pointing	Trial1	pointing/STIM_010.jpg
699.742	1.418	correct	pointing	Trial1	pointing/STIM_010.jpg
703.019	1.22	correct	pointing	Trial1	pointing/STIM_010.jpg
708.004	1.524	correct	pointing	Trial1	pointing/STIM_010.jpg
713.114	1.641	correct	pointing	Trial1	pointing/STIM_010.jpg
717.437	1.123	correct	pointing	Trial1	pointing/STIM_011.jpg
721.15	1.326	correct	pointing	Trial1	pointing/STIM_011.jpg
725.74	1.332	correct	pointing	Trial1	pointing/STIM_011.jpg
729.854	1.347	correct	pointing	Trial1	pointing/STIM_011.jpg
733.604	1.005	incorrect	pointing	Trial1	pointing/STIM_011.jpg
737.183	1.424	correct	pointing	Trial1	pointing/STIM_011.jpg
742.007	4.024	correct	navigation	Trial2	navigation/STIM_000.jpg
749.192	3.994	correct	navigation	Trial2	navigation/STIM_000.jpg
755.161	3.656	incorrect	navigation	Trial2	navigation/STIM_000.jpg
761.335	3.506	correct	navigation	Trial2	navigation/STIM_000.jpg
767.792	3.485	correct	navigation	Trial2	navigation/STIM_000.jpg
773.094	3.111	correct	navigation	Trial2	navigation/STIM_000.jpg
779.862	3.032	correct	navigation	Trial2	navigation/STIM_001.jpg
784.797	2.068	correct	navigation	Trial2	navigation/STIM_001.jpg
790.239	1.724	correct	navigation	Trial2	navigation/STIM_001.jpg
794.305	3.762	correct	navigation	Trial2	navigation/STIM_001.jpg
799.888	2.132	correct	navigation	Trial2	navigation/STIM_001.jpg
805.374	3.549	correct	navigation	Trial2	navigation/STIM_001.jpg
812.381	4.268	correct	navigation	Trial2	navigation/STIM_002.jpg
818.83	4.282	incorrect	navigation	Trial2	navigation/STIM_002.jpg
824.825	2.193	incorrect	navigation	Trial2	navigation/STIM_002.jpg
830.715	3.79	correct	navigation	Trial2	navigation/STIM_002.jpg
836.636	3.762	incorrect	navigation	Trial2	navigation/STIM_002.jpg
843.667	3.133	correct	navigation	Trial2	navigation/STIM_002.jpg
850.242	3.53	correct	navigation	Trial2	navigation/STIM_003.jpg
856.708	3.119	correct	navigation	Trial2	navigation/STIM_003.jpg
861.807	2.708	correct	navigation	Trial2	navigation/STIM_003.jpg
866.818	3.466	correct	navigation	Trial2	navigation/STIM_003.jpg
872.547	2.058	correct	navigation	Trial2	navigation/STIM_003.jpg
877.064	2.771	correct	navigation	Trial2	navigation/STIM_003.jpg
882.689	2.942	incorrect	navigation	Trial2	navigation/STIM_004.jpg
887.845	3.268	incorrect	navigation	Trial2	navigation/STIM_004.jpg
894.69	2.808	correct	navigation	Trial2	navigation/STIM_004.jpg
900.312	3.319	correct	navigation	Trial2	navigation/STIM_004.jpg
906.367	3.377	correct	navigation	Trial2	navigation/STIM_004.jpg
912.2	3.424	correct	navigation	Trial2	navigation/STIM_004.jpg
917.755	3.875	correct	navigation	Trial2	navigation/STIM_005.jpg
925.112	4.186	correct	navigation	Trial2	navigation/STIM_005.jpg
932.286	3.263	correct	navigation	Trial2	navigation/STIM_005.jpg
937.874	2.296	correct	navigation	Trial2	navigation/STIM_005.jpg
942.203	3.858	correct	navigation	Trial2	navigation/STIM_005.jpg
949.395	1.613	correct	navigation	Trial2	navigation/STIM_005.jpg
953.851	2.472	correct	navigation	Trial2	navigation/STIM_006.jpg
959.332	2.833	incorrect	navigation	Trial2	navigation/STIM_006.jpg
965.332	2.214	correct	navigation	Trial2	navigation/STIM_006.jpg
970.213	2.966	incorrect	navigation	Trial2	navigation/STIM_006.jpg
975.676	3.72	correct	navigation	Trial2	navigation/STIM_006.jpg
982.715	3.336	correct	navigation	Trial2	navigation/STIM_006.jpg
989.557	4.736	correct	navigation	Trial2	navigation/STIM_007.jpg
996.701	2.396	correct	navigation	Trial2	navigation/STIM_007.jpg
1001.952	2.207	correct	navigation	Trial2	navigation/STIM_007.jpg
1006.305	3.705	correct	navigation	Trial2	navigation/STIM_007.jpg
1013.143	2.68	correct	navigation	Trial2	navigation/STIM_007.jpg
1019.449	2.219	correct	navigation	Trial2	navigation/STIM_007.jpg
1024.633	2.851	correct	navigation	Trial2	navigation/STIM_008.jpg
1030.692	2.823	correct	navigation	Trial2	navigation/STIM_008.jpg
1035.288	2.565	correct	navigation	Trial2	navigation/STIM_008.jpg
1039.815	2.639	correct	navigation	Trial2	navigation/STIM_008.jpg
1044.552	2.743	correct	navigation	Trial2	navigation/STIM_008.jpg
1049.778	2.431	incorrect	navigation	Trial2	navigation/STIM_008.jpg
1055.403	2.535	correct	navigation	Trial2	navigation/STIM_009.jpg
1061.439	2.758	correct	navigation	Trial2	navigation/STIM_009.jpg
1065.991	4.045	correct	navigation	Trial2	navigation/STIM_009.jpg
1072.412	2.26	correct	navigation	Trial2	navigation/STIM_009.jpg
1077.656	2.225	correct	navigation	Trial2	navigation/STIM_009.jpg
1083.401	3.248	correct	navigation	Trial2	navigation/STIM_009.jpg
1088.421	4.599	correct	navigation	Trial2	navigation/STIM_010.jpg
1094.885	3.563	correct	navigation	Trial2	navigation/STIM_010.jpg
1101.807	3.06	correct	navigation	Trial2	navigation/STIM_010.jpg
1106.96	3.562	correct	navigation	Trial2	navigation/STIM_010.jpg
1113.405	3.421	correct	navigation	Trial2	navigation/STIM_010.jpg
1119.525	3.523	correct	navigation	Trial2	navigation/STIM_010.jpg
1125.038	3.075	incorrect	navigation	Trial2	navigation/STIM_011.jpg
1130.536	3.599	correct	navigation	Trial2	navigation/STIM_011.jpg
1136.696	2.058	correct	navigation	Trial2	navigation/STIM_011.jpg
1140.977	2.521	correct	navigation	Trial2	navigation/STIM_011.jpg
1146.774	2.739	correct	navigation	Trial2	navigation/STIM_011.jpg
1152.135	1.914	correct	navigation	Trial2	navigation/STIM_011.jpg
1157.849	1.412	incorrect	pointing	Trial2	pointing/STIM_000.jpg
1162.048	1.394	correct	pointing	Trial2	pointing/STIM_000.jpg
1167.184	1.528	correct	pointing	Trial2	pointing/STIM_000.jpg
1171.481	0.898	correct	pointing	Trial2	pointing/STIM_000.jpg
1174.686	1.557	correct	pointing	Trial2	pointing/STIM_000.jpg
1179.64	1.158	correct	pointing	Trial2	pointing/STIM_000.jpg
1182.801	1.331	correct	pointing	Trial2	pointing/STIM_001.jpg
1187.18	1.352	correct	pointing	Trial2	pointing/STIM_001.jpg
1191.041	1.009	correct	pointing	Trial2	pointing/STIM_001.jpg
1194.877	1.576	correct	pointing	Trial2	pointing/STIM_001.jpg
1200.272	1.662	correct	pointing	Trial2	pointing/STIM_001.jpg
1205.472	1.296	correct	pointing	Trial2	pointing/STIM_001.jpg
1209.32	1.064	correct	pointing	Trial2	pointing/STIM_002.jpg
1214.234	1.482	correct	pointing	Trial2	pointing/STIM_002.jpg
1218.475	1.315	incorrect	pointing	Trial2	pointing/STIM_002.jpg
1223.592	0.967	correct	pointing	Trial2	pointing/STIM_002.jpg
1227.015	1.079	correct	pointing	Trial2	pointing/STIM_002.jpg
1231.55	1.624	correct	pointing	Trial2	pointing/STIM_002.jpg
1236.458	1.657	correct	pointing	Trial2	pointing/STIM_003.jpg
1240.435	1.521	correct	pointing	Trial2	pointing/STIM_003.jpg
1245.535	1.002	correct	pointing	Trial2	pointing/STIM_003.jpg
1249.437	1.58	correct	pointing	Trial2	pointing/STIM_003.jpg
1254.227	1.164	correct	pointing	Trial2	pointing/STIM_003.jpg
1258.771	0.911	correct	pointing	Trial2	pointing/STIM_003.jpg
1262.118	1.341	correct	pointing	Trial2	pointing/STIM_004.jpg
1266.966	1.138	correct	pointing	Trial2	pointing/STIM_004.jpg
1270.799	0.924	correct	pointing	Trial2	pointing/STIM_004.jpg
1275.128	0.995	correct	pointing	Trial2	pointing/STIM_004.jpg
1279.754	1.009	correct	pointing	Trial2	pointing/STIM_004.jpg
1283.998	1.07	correct	pointing	Trial2	pointing/STIM_004.jpg
1288.02	1.594	correct	pointing	Trial2	pointing/STIM_005.jpg
1292.566	1.18	correct	pointing	Trial2	pointing/STIM_005.jpg
1296.336	1.542	incorrect	pointing	Trial2	pointing/STIM_005.jpg
1301.097	1.348	correct	pointing	Trial2	pointing/STIM_005.jpg
1306.052	1.138	correct	pointing	Trial2	pointing/STIM_005.jpg
1310.154	1.281	correct	pointing	Trial2	pointing/STIM_005.jpg
1314.44	1.583	correct	pointing	Trial2	pointing/STIM_006.jpg
1318.62	1.201	correct	pointing	Trial2	pointing/STIM_006.jpg
1322.424	1.036	correct	pointing	Trial2	pointing/STIM_006.jpg
1327.3	1.644	correct	pointing	Trial2	pointing/STIM_006.jpg
1331.468	0.97	correct	pointing	Trial2	pointing/STIM_006.jpg
1336.183	1.437	correct	pointing	Trial2	pointing/STIM_006.jpg
1341.14	1.445	correct	pointing	Trial2	pointing/STIM_007.jpg
1345.511	1.345	correct	pointing	Trial2	pointing/STIM_007.jpg
1349.293	1.24	correct	pointing	Trial2	pointing/STIM_007.jpg
1354.283	1.379	correct	pointing	Trial2	pointing/STIM_007.jpg
1358.868	1.535	correct	pointing	Trial2	pointing/STIM_007.jpg
1362.898	1.084	correct	pointing	Trial2	pointing/STIM_007.jpg
1366.28	1.203	incorrect	pointing	Trial2	pointing/STIM_008.jpg
1370.968	1.484	correct	pointing	Trial2	pointing/STIM_008.jpg
1376.196	1.297	correct	pointing	Trial2	pointing/STIM_008.jpg
1380.636	1.599	correct	pointing	Trial2	pointing/STIM_008.jpg
1385.157	1.632	correct	pointing	Trial2	pointing/STIM_008.jpg
1390.033	1.107	correct	pointing	Trial2	pointing/STIM_008.jpg
1393.953	1.065	correct	pointing	Trial2	pointing/STIM_009.jpg
1398.361	1.571	correct	pointing	Trial2	pointing/STIM_009.jpg
1403.48	1.404	correct	pointing	Trial2	pointing/STIM_009.jpg
1407.394	1.409	correct	pointing	Trial2	pointing/STIM_009.jpg
1411.878	1.622	correct	pointing	Trial2	pointing/STIM_009.jpg
1417.267	1.485	correct	pointing	Trial2	pointing/STIM_009.jpg
1421.203	1.587	correct	pointing	Trial2	pointing/STIM_010.jpg
1425.867	1.003	correct	pointing	Trial2	pointing/STIM_010.jpg
1429.906	1.52	incorrect	pointing	Trial2	pointing/STIM_010.jpg
1433.383	1.111	correct	pointing	Trial2	pointing/STIM_010.jpg
1436.465	1.357	correct	pointing	Trial2	pointing/STIM_010.jpg
1440.934	1.584	correct	pointing	Trial2	pointing/STIM_010.jpg
1446.145	1.596	incorrect	pointing	Trial2	pointing/STIM_011.jpg
1451.291	0.946	correct	pointing	Trial2	pointing/STIM_011.jpg
1454.811	1.44	correct	pointing	Trial2	pointing/STIM_011.jpg
1459.937	1.322	correct	pointing	Trial2	pointing/STIM_011.jpg
1463.314	1.169	correct	pointing	Trial2	pointing/STIM_011.jpg
1467.816	1.095	correct	pointing	Trial2	pointing/STIM_011.jpg
1472.703	1.623	correct	navigation	Trial3	navigation/STIM_000.jpg
1476.659	2.965	correct	navigation	Trial3	navigation/STIM_000.jpg
1482.841	2.889	correct	navigation	Trial3	navigation/STIM_000.jpg
1488.058	3.682	correct	navigation	Trial3	navigation/STIM_000.jpg
1494.312	3.772	correct	navigation	Trial3	navigation/STIM_000.jpg
1500.722	2.545	incorrect	navigation	Trial3	navigation/STIM_000.jpg
1505.174	3.147	correct	navigation	Trial3	navigation/STIM_001.jpg
1510.256	1.563	correct	navigation	Trial3	navigation/STIM_001.jpg
1515.412	3.637	correct	navigation	Trial3	navigation/STIM_001.jpg
1522.484	2.347	correct	navigation	Trial3	navigation/STIM_001.jpg
1528.214	3.4	incorrect	navigation	Trial3	navigation/STIM_001.jpg
1534.433	3.007	correct	navigation	Trial3	navigation/STIM_001.jpg
1540.128	3.011	incorrect	navigation	Trial3	navigation/STIM_002.jpg
1545.837	3.426	correct	navigation	Trial3	navigation/STIM_002.jpg
1552.775	2.699	incorrect	navigation	Trial3	navigation/STIM_002.jpg
1558.987	3.106	correct	navigation	Trial3	navigation/STIM_002.jpg
1563.891	3.565	correct	navigation	Trial3	navigation/STIM_002.jpg
1569.426	3.367	correct	navigation	Trial3	navigation/STIM_002.jpg
1575.679	3.463	correct	navigation	Trial3	navigation/STIM_003.jpg
1581.175	3.557	correct	navigation	Trial3	navigation/STIM_003.jpg
1586.486	3.222	correct	navigation	Trial3	navigation/STIM_003.jpg
1591.638	1.649	correct	navigation	Trial3	navigation/STIM_003.jpg
1596.599	3.278	correct	navigation	Trial3	navigation/STIM_003.jpg
1602.08	2.998	correct	navigation	Trial3	navigation/STIM_003.jpg
1608.046	3.438	correct	navigation	Trial3	navigation/STIM_004.jpg
1614.013	3.471	correct	navigation	Trial3	navigation/STIM_004.jpg
1620.275	2.998	correct	navigation	Trial3	navigation/STIM_004.jpg
1626.02	2.624	correct	navigation	Trial3	navigation/STIM_004.jpg
1631.101	2.305	correct	navigation	Trial3	navigation/STIM_004.jpg
1636.416	3.25	correct	navigation	Trial3	navigation/STIM_004.jpg
1642.737	2.983	correct	navigation	Trial3	navigation/STIM_005.jpg
1647.609	2.567	correct	navigation	Trial3	navigation/STIM_005.jpg
1653.672	3.079	correct	navigation	Trial3	navigation/STIM_005.jpg
1658.497	3.011	correct	navigation	Trial3	navigation/STIM_005.jpg
1663.678	1.782	correct	navigation	Trial3	navigation/STIM_005.jpg
1668.487	2.576	correct	navigation	Trial3	navigation/STIM_005.jpg
1673.668	2.713	correct	navigation	Trial3	navigation/STIM_006.jpg
1680.1	2.373	correct	navigation	Trial3	navigation/STIM_006.jpg
1685.091	1.746	correct	navigation	Trial3	navigation/STIM_006.jpg
1688.986	3.379	correct	navigation	Trial3	navigation/STIM_006.jpg
1694.524	2.999	correct	navigation	Trial3	navigation/STIM_006.jpg
1700.583	3.375	correct	navigation	Trial3	navigation/STIM_006.jpg
1706.651	3.317	correct	navigation	Trial3	navigation/STIM_007.jpg
1712.131	3.488	correct	navigation	Trial3	navigation/STIM_007.jpg
1718.72	2.527	correct	navigation	Trial3	navigation/STIM_007.jpg
1723.91	3.68	correct	navigation	Trial3	navigation/STIM_007.jpg
1729.981	3.194	correct	navigation	Trial3	navigation/STIM_007.jpg
1736.721	2.323	correct	navigation	Trial3	navigation/STIM_007.jpg
1741.36	1.621	incorrect	navigation	Trial3	navigation/STIM_008.jpg
1746.017	1.968	correct	navigation	Trial3	navigation/STIM_008.jpg
1749.923	3.176	correct	navigation	Trial3	navigation/STIM_008.jpg
1755.48	1.601	correct	navigation	Trial3	navigation/STIM_008.jpg
1760.671	1.958	correct	navigation	Trial3	navigation/STIM_008.jpg
1766.348	3.846	correct	navigation	Trial3	navigation/STIM_008.jpg
1772.154	2.69	correct	navigation	Trial3	navigation/STIM_009.jpg
1776.996	3.778	correct	navigation	Trial3	navigation/STIM_009.jpg
1784.118	2.898	correct	navigation	Trial3	navigation/STIM_009.jpg
1789.532	3.352	correct	navigation	Trial3	navigation/STIM_009.jpg
1794.937	1.95	correct	navigation	Trial3	navigation/STIM_009.jpg
1800.356	1.619	correct	navigation	Trial3	navigation/STIM_009.jpg
1803.995	1.575	correct	navigation	Trial3	navigation/STIM_010.jpg
1808.28	1.774	correct	navigation	Trial3	navigation/STIM_010.jpg
1812.476	3.879	correct	navigation	Trial3	navigation/STIM_010.jpg
1819.881	1.666	correct	navigation	Trial3	navigation/STIM_010.jpg
1823.537	3.662	correct	navigation	Trial3	navigation/STIM_010.jpg
1830.764	1.664	correct	navigation	Trial3	navigation/STIM_010.jpg
1834.884	3.397	correct	navigation	Trial3	navigation/STIM_011.jpg
1840.813	2.203	incorrect	navigation	Trial3	navigation/STIM_011.jpg
1845.478	2.35	correct	navigation	Trial3	navigation/STIM_011.jpg
1849.715	3.485	correct	navigation	Trial3	navigation/STIM_011.jpg
1855.992	3.593	correct	navigation	Trial3	navigation/STIM_011.jpg
1861.219	2.064	correct	navigation	Trial3	navigation/STIM_011.jpg
1866.263	1.498	correct	pointing	Trial3	pointing/STIM_000.jpg
1869.885	1.421	correct	pointing	Trial3	pointing/STIM_000.jpg
1873.252	1.068	correct	pointing	Trial3	pointing/STIM_000.jpg
1876.831	1.205	correct	pointing	Trial3	pointing/STIM_000.jpg
1880.215	1.088	correct	pointing	Trial3	pointing/STIM_000.jpg
1884.862	1.568	correct	pointing	Trial3	pointing/STIM_000.jpg
1889.976	1.522	correct	pointing	Trial3	pointing/STIM_001.jpg
1894.604	1.596	correct	pointing	Trial3	pointing/STIM_001.jpg
1898.575	0.987	correct	pointing	Trial3	pointing/STIM_001.jpg
1902.675	1.42	correct	pointing	Trial3	pointing/STIM_001.jpg
1907.151	1.271	correct	pointing	Trial3	pointing/STIM_001.jpg
1910.903	0.97	incorrect	pointing	Trial3	pointing/STIM_001.jpg
1915.017	1.277	correct	pointing	Trial3	pointing/STIM_002.jpg
1919.821	1.631	correct	pointing	Trial3	pointing/STIM_002.jpg
1923.653	1.274	correct	pointing	Trial3	pointing/STIM_002.jpg
1928.34	1.35	correct	pointing	Trial3	pointing/STIM_002.jpg
1931.809	1.052	correct	pointing	Trial3	pointing/STIM_002.jpg
1935.378	1.479	correct	pointing	Trial3	pointing/STIM_002.jpg
1939.024	1.222	correct	pointing	Trial3	pointing/STIM_003.jpg
1942.141	1.256	correct	pointing	Trial3	pointing/STIM_003.jpg
1946.967	1.297	correct	pointing	Trial3	pointing/STIM_003.jpg
1950.508	1.643	correct	pointing	Trial3	pointing/STIM_003.jpg
1954.738	0.897	correct	pointing	Trial3	pointing/STIM_003.jpg
1958.103	1.6	correct	pointing	Trial3	pointing/STIM_003.jpg
1962.495	1.315	correct	pointing	Trial3	pointing/STIM_004.jpg
1966.414	1.668	correct	pointing	Trial3	pointing/STIM_004.jpg
1970.374	1.2	correct	pointing	Trial3	pointing/STIM_004.jpg
1974.687	0.948	correct	pointing	Trial3	pointing/STIM_004.jpg
1978.65	1.035	incorrect	pointing	Trial3	pointing/STIM_004.jpg
1981.727	1.406	correct	pointing	Trial3	pointing/STIM_004.jpg
1986.586	1.033	correct	pointing	Trial3	pointing/STIM_005.jpg
1989.673	1.406	correct	pointing	Trial3	pointing/STIM_005.jpg
1993.751	0.928	correct	pointing	Trial3	pointing/STIM_005.jpg
1997.497	1.561	correct	pointing	Trial3	pointing/STIM_005.jpg
2001.826	1.217	correct	pointing	Trial3	pointing/STIM_005.jpg
2006.358	1.308	correct	pointing	Trial3	pointing/STIM_005.jpg
2010.832	1.668	correct	pointing	Trial3	pointing/STIM_006.jpg
2015.806	1.582	correct	pointing	Trial3	pointing/STIM_006.jpg
2020.738	1.555	correct	pointing	Trial3	pointing/STIM_006.jpg
2024.468	0.994	incorrect	pointing	Trial3	pointing/STIM_006.jpg
2028.655	1.498	correct	pointing	Trial3	pointing/STIM_006.jpg
2033.333	1.429	correct	pointing	Trial3	pointing/STIM_006.jpg
2036.991	1.252	correct	pointing	Trial3	pointing/STIM_007.jpg
2041.562	1.184	correct	pointing	Trial3	pointing/STIM_007.jpg
2045.089	1.127	correct	pointing	Trial3	pointing/STIM_007.jpg
2048.754	0.934	correct	pointing	Trial3	pointing/STIM_007.jpg
2051.942	1.455	correct	pointing	Trial3	pointing/STIM_007.jpg
2057.057	1.629	incorrect	pointing	Trial3	pointing/STIM_007.jpg
2060.959	0.99	correct	pointing	Trial3	pointing/STIM_008.jpg
2065.651	0.905	correct	pointing	Trial3	pointing/STIM_008.jpg
2068.6	1.05	correct	pointing	Trial3	pointing/STIM_008.jpg
2072.619	1.125	correct	pointing	Trial3	pointing/STIM_008.jpg
2077.431	1.548	correct	pointing	Trial3	pointing/STIM_008.jpg
2080.821	1.107	correct	pointing	Trial3	pointing/STIM_008.jpg
2085.145	1.6	correct	pointing	Trial3	pointing/STIM_009.jpg
2088.952	1.564	correct	pointing	Trial3	pointing/STIM_009.jpg
2092.371	1.316	correct	pointing	Trial3	pointing/STIM_009.jpg
2095.612	1.05	correct	pointing	Trial3	pointing/STIM_009.jpg
2100.531	0.976	correct	pointing	Trial3	pointing/STIM_009.jpg
2104.032	1.326	incorrect	pointing	Trial3	pointing/STIM_009.jpg
2107.389	1.631	correct	pointing	Trial3	pointing/STIM_010.jpg
2111.207	1.35	correct	pointing	Trial3	pointing/STIM_010.jpg
2115.586	1.23	correct	pointing	Trial3	pointing/STIM_010.jpg
2119.896	1.395	correct	pointing	Trial3	pointing/STIM_010.jpg
2124.615	0.99	correct	pointing	Trial3	pointing/STIM_010.jpg
2128.679	1.228	correct	pointing	Trial3	pointing/STIM_010.jpg
2132.634	0.969	correct	pointing	Trial3	pointing/STIM_011.jpg
2137.01	0.981	correct	pointing	Trial3	pointing/STIM_011.jpg
2141.452	1.127	correct	pointing	Trial3	pointing/STIM_011.jpg
2145.51	1.076	correct	pointing	Trial3	pointing/STIM_011.jpg
2149.373	1.548	correct	pointing	Trial3	pointing/STIM_011.jpg
2154.453	1.348	incorrect	pointing	Trial3	pointing/STIM_011.jpg
