onset	duration	accuracy_binary	trial_type	learning_stage	stimulus
0.0	1.221	1	study	Phase1	study/STIM_000.jpg
4.674	0.918	1	study	Phase1	study/STIM_000.jpg
7.542	0.884	1	study	Phase1	study/STIM_000.jpg
10.62	1.143	0	study	Phase1	study/STIM_001.jpg
14.894	0.933	1	study	Phase1	study/STIM_001.jpg
18.974	1.147	1	study	Phase1	study/STIM_001.jpg
22.208	1.367	0	study	Phase1	study/STIM_002.jpg
26.241	1.924	1	study	Phase1	study/STIM_002.jpg
31.712	0.845	1	study	Phase1	study/STIM_002.jpg
36.308	1.925	1	study	Phase1	study/STIM_003.jpg
40.919	1.064	0	study	Phase1	study/STIM_003.jpg
44.44	1.446	0	study	Phase1	study/STIM_003.jpg
49.542	2.023	1	study	Phase1	study/STIM_004.jpg
53.665	1.631	0	study	Phase1	study/STIM_004.jpg
57.445	1.472	0	study	Phase1	study/STIM_004.jpg
61.939	1.876	0	study	Phase1	study/STIM_005.jpg
66.283	0.957	1	study	Phase1	study/STIM_005.jpg
70.713	1.323	1	study	Phase1	study/STIM_005.jpg
75.647	1.012	1	study	Phase1	study/STIM_006.jpg
79.061	1.931	0	study	Phase1	study/STIM_006.jpg
82.72	1.525	0	study	Phase1	study/STIM_006.jpg
87.759	1.088	0	study	Phase1	study/STIM_007.jpg
92.046	1.792	0	study	Phase1	study/STIM_007.jpg
96.481	0.956	1	study	Phase1	study/STIM_007.jpg
100.802	1.223	1	study	Phase1	study/STIM_008.jpg
104.01	1.8	1	study	Phase1	study/STIM_008.jpg
108.329	1.18	1	study	Phase1	study/STIM_008.jpg
112.438	1.647	1	study	Phase1	study/STIM_009.jpg
116.329	1.095	1	study	Phase1	study/STIM_009.jpg
119.784	1.782	1	study	Phase1	study/STIM_009.jpg
123.452	1.872	1	study	Phase1	study/STIM_010.jpg
127.661	1.576	1	study	Phase1	study/STIM_010.jpg
131.181	1.018	1	study	Phase1	study/STIM_010.jpg
135.307	1.298	1	study	Phase1	study/STIM_011.jpg
138.578	1.181	1	study	Phase1	study/STIM_011.jpg
143.379	1.594	0	study	Phase1	study/STIM_011.jpg
148.535	1.039	1	study	Phase1	study/STIM_012.jpg
151.82	1.134	1	study	Phase1	study/STIM_012.jpg
155.006	1.637	1	study	Phase1	study/STIM_012.jpg
158.598	1.955	1	study	Phase1	study/STIM_013.jpg
163.822	1.45	1	study	Phase1	study/STIM_013.jpg
167.107	1.428	0	study	Phase1	study/STIM_013.jpg
170.86	1.656	1	study	Phase1	study/STIM_014.jpg
175.831	1.1	1	study	Phase1	study/STIM_014.jpg
179.658	1.082	1	study	Phase1	study/STIM_014.jpg
183.984	2.006	1	study	Phase1	study/STIM_015.jpg
189.058	1.411	1	study	Phase1	study/STIM_015.jpg
193.227	1.267	1	study	Phase1	study/STIM_015.jpg
198.085	1.712	1	study	Phase1	study/STIM_016.jpg
203.089	1.125	1	study	Phase1	study/STIM_016.jpg
206.782	1.461	1	study	Phase1	study/STIM_016.jpg
211.945	1.005	1	study	Phase1	study/STIM_017.jpg
216.772	1.111	1	study	Phase1	study/STIM_017.jpg
220.427	1.69	1	study	Phase1	study/STIM_017.jpg
225.097	1.17	1	study	Phase1	study/STIM_018.jpg
228.307	1.468	1	study	Phase1	study/STIM_018.jpg
231.911	1.007	1	study	Phase1	study/STIM_018.jpg
235.627	1.883	1	study	Phase1	study/STIM_019.jpg
239.757	1.731	1	study	Phase1	study/STIM_019.jpg
244.48	1.546	0	study	Phase1	study/STIM_019.jpg
249.708	1.707	1	study	Phase1	study/STIM_020.jpg
253.271	1.172	1	study	Phase1	study/STIM_020.jpg
256.911	0.977	1	study	Phase1	study/STIM_020.jpg
261.646	1.142	1	study	Phase1	study/STIM_021.jpg
265.073	1.745	1	study	Phase1	study/STIM_021.jpg
269.072	1.541	0	study	Phase1	study/STIM_021.jpg
273.102	1.317	0	study	Phase1	study/STIM_022.jpg
277.086	1.127	1	study	Phase1	study/STIM_022.jpg
281.239	1.314	1	study	Phase1	study/STIM_022.jpg
285.979	1.04	1	study	Phase1	study/STIM_023.jpg
289.292	1.899	1	study	Phase1	study/STIM_023.jpg
294.41	1.738	1	study	Phase1	study/STIM_023.jpg
299.398	1.943	0	study	Phase1	study/STIM_024.jpg
303.979	1.939	1	study	Phase1	study/STIM_024.jpg
309.37	0.911	1	study	Phase1	study/STIM_024.jpg
312.408	2.093	0	study	Phase1	study/STIM_025.jpg
317.979	1.935	1	study	Phase1	study/STIM_025.jpg
321.917	1.819	1	study	Phase1	study/STIM_025.jpg
327.039	1.162	0	study	Phase1	study/STIM_026.jpg
330.573	1.79	1	study	Phase1	study/STIM_026.jpg
334.546	1.271	1	study	Phase1	study/STIM_026.jpg
337.799	1.231	1	study	Phase1	study/STIM_027.jpg
341.407	1.391	1	study	Phase1	study/STIM_027.jpg
345.893	0.87	1	study	Phase1	study/STIM_027.jpg
350.175	1.0	1	study	Phase1	study/STIM_028.jpg
354.468	1.895	1	study	Phase1	study/STIM_028.jpg
358.567	1.004	1	study	Phase1	study/STIM_028.jpg
362.054	0.992	1	study	Phase1	study/STIM_029.jpg
364.913	1.071	1	study	Phase1	study/STIM_029.jpg
368.943	1.182	0	study	Phase1	study/STIM_029.jpg
373.957	1.029	1	test	Phase1	test/STIM_000.jpg
378.786	1.299	1	test	Phase1	test/STIM_000.jpg
383.161	1.074	1	test	Phase1	test/STIM_000.jpg
387.12	1.326	1	test	Phase1	test/STIM_001.jpg
392.131	1.006	1	test	Phase1	test/STIM_001.jpg
395.561	1.322	0	test	Phase1	test/STIM_001.jpg
399.518	1.123	1	test	Phase1	test/STIM_002.jpg
403.31	1.118	0	test	Phase1	test/STIM_002.jpg
406.69	0.785	1	test	Phase1	test/STIM_002.jpg
410.332	1.132	1	test	Phase1	test/STIM_003.jpg
414.297	0.81	1	test	Phase1	test/STIM_003.jpg
418.85	1.143	1	test	Phase1	test/STIM_003.jpg
423.545	1.119	1	test	Phase1	test/STIM_004.jpg
428.114	1.007	1	test	Phase1	test/STIM_004.jpg
432.538	1.087	1	test	Phase1	test/STIM_004.jpg
437.307	1.126	1	test	Phase1	test/STIM_005.jpg
440.864	1.502	1	test	Phase1	test/STIM_005.jpg
445.163	1.228	1	test	Phase1	test/STIM_005.jpg
450.138	1.403	1	test	Phase1	test/STIM_006.jpg
453.938	1.058	1	test	Phase1	test/STIM_006.jpg
457.301	1.26	1	test	Phase1	test/STIM_006.jpg
461.299	0.897	1	test	Phase1	test/STIM_007.jpg
465.73	1.31	1	test	Phase1	test/STIM_007.jpg
469.278	0.902	0	test	Phase1	test/STIM_007.jpg
473.328	0.816	1	test	Phase1	test/STIM_008.jpg
477.637	1.214	1	test	Phase1	test/STIM_008.jpg
481.711	0.753	1	test	Phase1	test/STIM_008.jpg
485.656	0.842	0	test	Phase1	test/STIM_009.jpg
489.972	0.721	1	test	Phase1	test/STIM_009.jpg
493.112	0.983	1	test	Phase1	test/STIM_009.jpg
496.629	0.949	1	test	Phase1	test/STIM_010.jpg
501.229	1.21	0	test	Phase1	test/STIM_010.jpg
505.275	0.949	1	test	Phase1	test/STIM_010.jpg
509.444	1.192	1	test	Phase1	test/STIM_011.jpg
513.016	0.966	0	test	Phase1	test/STIM_011.jpg
517.535	0.764	0	test	Phase1	test/STIM_011.jpg
522.166	0.813	1	test	Phase1	test/STIM_012.jpg
525.258	1.36	1	test	Phase1	test/STIM_012.jpg
529.346	0.756	1	test	Phase1	test/STIM_012.jpg
533.384	0.928	1	test	Phase1	test/STIM_013.jpg
537.142	1.065	1	test	Phase1	test/STIM_013.jpg
541.004	1.176	1	test	Phase1	test/STIM_013.jpg
545.793	0.885	0	test	Phase1	test/STIM_014.jpg
549.479	1.479	1	test	Phase1	test/STIM_014.jpg
553.619	1.333	1	test	Phase1	test/STIM_014.jpg
557.199	1.285	1	test	Phase1	test/STIM_015.jpg
560.511	1.457	1	test	Phase1	test/STIM_015.jpg
564.063	1.41	1	test	Phase1	test/STIM_015.jpg
568.926	0.929	0	test	Phase1	test/STIM_016.jpg
572.126	1.375	1	test	Phase1	test/STIM_016.jpg
576.642	0.874	1	test	Phase1	test/STIM_016.jpg
579.709	1.142	1	test	Phase1	test/STIM_017.jpg
583.01	0.906	1	test	Phase1	test/STIM_017.jpg
587.431	1.466	1	test	Phase1	test/STIM_017.jpg
591.567	1.216	1	test	Phase1	test/STIM_018.jpg
595.4	1.37	1	test	Phase1	test/STIM_018.jpg
599.997	1.5	1	test	Phase1	test/STIM_018.jpg
603.508	1.22	1	test	Phase1	test/STIM_019.jpg
608.365	1.117	1	test	Phase1	test/STIM_019.jpg
611.707	1.122	1	test	Phase1	test/STIM_019.jpg
616.326	1.091	1	test	Phase1	test/STIM_020.jpg
619.408	1.424	1	test	Phase1	test/STIM_020.jpg
623.398	0.764	1	test	Phase1	test/STIM_020.jpg
627.956	0.985	0	test	Phase1	test/STIM_021.jpg
632.685	1.203	1	test	Phase1	test/STIM_021.jpg
636.878	0.92	1	test	Phase1	test/STIM_021.jpg
640.951	1.375	1	test	Phase1	test/STIM_022.jpg
645.447	0.925	0	test	Phase1	test/STIM_022.jpg
648.69	0.856	1	test	Phase1	test/STIM_022.jpg
652.528	1.491	0	test	Phase1	test/STIM_023.jpg
656.824	1.246	1	test	Phase1	test/STIM_023.jpg
661.189	0.94	0	test	Phase1	test/STIM_023.jpg
664.779	0.811	0	test	Phase1	test/STIM_024.jpg
668.501	1.175	1	test	Phase1	test/STIM_024.jpg
671.61	0.772	1	test	Phase1	test/STIM_024.jpg
675.736	0.978	1	test	Phase1	test/STIM_025.jpg
679.785	1.002	1	test	Phase1	test/STIM_025.jpg
684.499	1.384	1	test	Phase1	test/STIM_025.jpg
688.992	0.752	0	test	Phase1	test/STIM_026.jpg
693.272	1.424	1	test	Phase1	test/STIM_026.jpg
697.205	0.743	1	test	Phase1	test/STIM_026.jpg
701.57	0.764	1	test	Phase1	test/STIM_027.jpg
705.759	1.229	1	test	Phase1	test/STIM_027.jpg
710.379	1.114	1	test	Phase1	test/STIM_027.jpg
714.899	1.2	1	test	Phase1	test/STIM_028.jpg
719.894	1.019	1	test	Phase1	test/STIM_028.jpg
724.724	1.2	0	test	Phase1	test/STIM_028.jpg
729.584	1.013	1	test	Phase1	test/STIM_029.jpg
732.596	1.065	1	test	Phase1	test/STIM_029.jpg
736.054	1.158	1	test	Phase1	test/STIM_029.jpg
740.62	1.71	1	study	Phase2	study/STIM_000.jpg
745.259	1.457	1	study	Phase2	study/STIM_000.jpg
749.27	1.506	0	study	Phase2	study/STIM_000.jpg
753.294	1.8	1	study	Phase2	study/STIM_001.jpg
756.957	1.36	1	study	Phase2	study/STIM_001.jpg
760.487	1.488	1	study	Phase2	study/STIM_001.jpg
765.238	1.115	1	study	Phase2	study/STIM_002.jpg
769.82	0.955	1	study	Phase2	study/STIM_002.jpg
773.618	1.034	1	study	Phase2	study/STIM_002.jpg
776.814	1.092	1	study	Phase2	study/STIM_003.jpg
781.78	0.894	1	study	Phase2	study/STIM_003.jpg
785.624	1.083	1	study	Phase2	study/STIM_003.jpg
788.743	0.806	1	study	Phase2	study/STIM_004.jpg
791.881	0.925	1	study	Phase2	study/STIM_004.jpg
795.718	1.145	1	study	Phase2	study/STIM_004.jpg
799.602	1.516	1	study	Phase2	study/STIM_005.jpg
803.629	0.952	1	study	Phase2	study/STIM_005.jpg
808.409	1.457	1	study	Phase2	study/STIM_005.jpg
812.664	1.702	1	study	Phase2	study/STIM_006.jpg
817.35	1.148	1	study	Phase2	study/STIM_006.jpg
820.571	1.174	1	study	Phase2	study/STIM_006.jpg
824.617	0.904	1	study	Phase2	study/STIM_007.jpg
828.308	0.979	1	study	Phase2	study/STIM_007.jpg
832.314	1.47	1	study	Phase2	study/STIM_007.jpg
837.173	1.634	1	study	Phase2	study/STIM_008.jpg
842.211	0.917	1	study	Phase2	study/STIM_008.jpg
847.033	1.381	1	study	Phase2	study/STIM_008.jpg
851.876	0.892	1	study	Phase2	study/STIM_009.jpg
855.235	1.095	1	study	Phase2	study/STIM_009.jpg
858.973	1.025	1	study	Phase2	study/STIM_009.jpg
863.653	0.955	1	study	Phase2	study/STIM_010.jpg
866.498	1.542	0	study	Phase2	study/STIM_010.jpg
871.513	1.456	1	study	Phase2	study/STIM_010.jpg
876.494	1.24	1	study	Phase2	study/STIM_011.jpg
880.707	1.425	1	study	Phase2	study/STIM_011.jpg
885.62	1.375	1	study	Phase2	study/STIM_011.jpg
889.917	1.122	1	study	Phase2	study/STIM_012.jpg
894.165	0.893	1	study	Phase2	study/STIM_012.jpg
898.348	0.731	1	study	Phase2	study/STIM_012.jpg
902.848	1.662	1	study	Phase2	study/STIM_013.jpg
906.866	0.924	1	study	Phase2	study/STIM_013.jpg
910.237	1.336	1	study	Phase2	study/STIM_013.jpg
914.403	1.241	1	study	Phase2	study/STIM_014.jpg
919.123	1.417	1	study	Phase2	study/STIM_014.jpg
923.144	0.804	1	study	Phase2	study/STIM_014.jpg
927.52	1.477	1	study	Phase2	study/STIM_015.jpg
931.048	0.867	1	study	Phase2	study/STIM_015.jpg
935.741	1.044	1	study	Phase2	study/STIM_015.jpg
938.979	1.363	1	study	Phase2	study/STIM_016.jpg
944.132	1.136	1	study	Phase2	study/STIM_016.jpg
948.473	1.112	1	study	Phase2	study/STIM_016.jpg
953.328	1.654	1	study	Phase2	study/STIM_017.jpg
957.108	1.669	1	study	Phase2	study/STIM_017.jpg
960.911	0.777	1	study	Phase2	study/STIM_017.jpg
965.383	1.57	1	study	Phase2	study/STIM_018.jpg
970.617	0.804	1	study	Phase2	study/STIM_018.jpg
975.204	1.574	1	study	Phase2	study/STIM_018.jpg
980.388	1.111	1	study	Phase2	study/STIM_019.jpg
983.727	1.704	1	study	Phase2	study/STIM_019.jpg
988.669	1.491	1	study	Phase2	study/STIM_019.jpg
993.061	1.554	1	study	Phase2	study/STIM_020.jpg
997.582	1.515	1	study	Phase2	study/STIM_020.jpg
1002.05	1.095	1	study	Phase2	study/STIM_020.jpg
1005.666	0.865	1	study	Phase2	study/STIM_021.jpg
1008.506	0.799	1	study	Phase2	study/STIM_021.jpg
1013.135	1.076	1	study	Phase2	study/STIM_021.jpg
1017.609	1.458	1	study	Phase2	study/STIM_022.jpg
1021.357	0.807	1	study	Phase2	study/STIM_022.jpg
1025.848	1.088	1	study	Phase2	study/STIM_022.jpg
1030.266	1.466	1	study	Phase2	study/STIM_023.jpg
1034.52	1.408	1	study	Phase2	study/STIM_023.jpg
1038.555	1.33	1	study	Phase2	study/STIM_023.jpg
1042.9	1.279	1	study	Phase2	study/STIM_024.jpg
1047.576	1.064	1	study	Phase2	study/STIM_024.jpg
1051.865	1.127	1	study	Phase2	study/STIM_024.jpg
1056.524	0.807	1	study	Phase2	study/STIM_025.jpg
1059.74	1.523	1	study	Phase2	study/STIM_025.jpg
1064.765	1.204	1	study	Phase2	study/STIM_025.jpg
1068.349	1.171	1	study	Phase2	study/STIM_026.jpg
1072.164	1.602	1	study	Phase2	study/STIM_026.jpg
1075.709	0.955	1	study	Phase2	study/STIM_026.jpg
1079.235	0.943	1	study	Phase2	study/STIM_027.jpg
1083.899	1.028	1	study	Phase2	study/STIM_027.jpg
1087.715	1.252	1	study	Phase2	study/STIM_027.jpg
1091.627	1.207	1	study	Phase2	study/STIM_028.jpg
1096.6	1.016	0	study	Phase2	study/STIM_028.jpg
1101.071	1.131	1	study	Phase2	study/STIM_028.jpg
1104.862	1.356	1	study	Phase2	study/STIM_029.jpg
1109.389	1.214	1	study	Phase2	study/STIM_029.jpg
1113.537	0.794	1	study	Phase2	study/STIM_029.jpg
1118.204	0.811	1	test	Phase2	test/STIM_000.jpg
1122.555	0.879	1	test	Phase2	test/STIM_000.jpg
1125.986	1.431	1	test	Phase2	test/STIM_000.jpg
1130.855	0.835	1	test	Phase2	test/STIM_001.jpg
1134.376	1.092	1	test	Phase2	test/STIM_001.jpg
1139.045	0.891	1	test	Phase2	test/STIM_001.jpg
1143.271	0.71	1	test	Phase2	test/STIM_002.jpg
1146.527	1.438	1	test	Phase2	test/STIM_002.jpg
1151.563	1.282	1	test	Phase2	test/STIM_002.jpg
1155.264	1.192	1	test	Phase2	test/STIM_003.jpg
1158.846	1.085	1	test	Phase2	test/STIM_003.jpg
1163.336	1.195	1	test	Phase2	test/STIM_003.jpg
1167.352	1.124	0	test	Phase2	test/STIM_004.jpg
1171.053	0.95	1	test	Phase2	test/STIM_004.jpg
1175.233	1.329	1	test	Phase2	test/STIM_004.jpg
1179.866	1.312	1	test	Phase2	test/STIM_005.jpg
1183.9	1.237	1	test	Phase2	test/STIM_005.jpg
1188.117	1.391	1	test	Phase2	test/STIM_005.jpg
1193.137	1.405	0	test	Phase2	test/STIM_006.jpg
1196.718	1.054	1	test	Phase2	test/STIM_006.jpg
1200.001	1.058	1	test	Phase2	test/STIM_006.jpg
1203.109	1.526	1	test	Phase2	test/STIM_007.jpg
1206.762	0.926	1	test	Phase2	test/STIM_007.jpg
1210.571	0.776	1	test	Phase2	test/STIM_007.jpg
1213.961	1.17	1	test	Phase2	test/STIM_008.jpg
1218.451	1.429	1	test	Phase2	test/STIM_008.jpg
1222.003	1.582	1	test	Phase2	test/STIM_008.jpg
1226.495	1.371	0	test	Phase2	test/STIM_009.jpg
1231.046	1.037	0	test	Phase2	test/STIM_009.jpg
1234.0	0.748	1	test	Phase2	test/STIM_009.jpg
1237.686	1.267	1	test	Phase2	test/STIM_010.jpg
1241.681	0.876	1	test	Phase2	test/STIM_010.jpg
1245.724	1.387	1	test	Phase2	test/STIM_010.jpg
1249.621	0.991	0	test	Phase2	test/STIM_011.jpg
1253.808	1.117	1	test	Phase2	test/STIM_011.jpg
1257.991	1.25	0	test	Phase2	test/STIM_011.jpg
1262.956	1.353	1	test	Phase2	test/STIM_012.jpg
1266.451	0.999	0	test	Phase2	test/STIM_012.jpg
1269.8	0.892	1	test	Phase2	test/STIM_012.jpg
1273.133	0.677	1	test	Phase2	test/STIM_013.jpg
1277.653	0.868	0	test	Phase2	test/STIM_013.jpg
1280.837	0.718	1	test	Phase2	test/STIM_013.jpg
1283.771	1.131	1	test	Phase2	test/STIM_014.jpg
1287.62	1.33	1	test	Phase2	test/STIM_014.jpg
1292.383	0.891	1	test	Phase2	test/STIM_014.jpg
1297.034	1.118	1	test	Phase2	test/STIM_015.jpg
1300.078	1.262	1	test	Phase2	test/STIM_015.jpg
1304.218	0.886	1	test	Phase2	test/STIM_015.jpg
1308.793	1.232	1	test	Phase2	test/STIM_016.jpg
1313.035	1.207	0	test	Phase2	test/STIM_016.jpg
1316.156	1.365	1	test	Phase2	test/STIM_016.jpg
1320.909	1.281	1	test	Phase2	test/STIM_017.jpg
1324.614	1.275	0	test	Phase2	test/STIM_017.jpg
1327.77	1.204	1	test	Phase2	test/STIM_017.jpg
1331.294	1.204	1	test	Phase2	test/STIM_018.jpg
1334.288	1.54	0	test	Phase2	test/STIM_018.jpg
1338.035	0.807	1	test	Phase2	test/STIM_018.jpg
1342.18	1.512	1	test	Phase2	test/STIM_019.jpg
1347.427	0.808	1	test	Phase2	test/STIM_019.jpg
1352.137	1.04	0	test	Phase2	test/STIM_019.jpg
1355.635	1.346	1	test	Phase2	test/STIM_020.jpg
1359.488	1.349	1	test	Phase2	test/STIM_020.jpg
1362.863	1.37	1	test	Phase2	test/STIM_020.jpg
1367.373	1.285	1	test	Phase2	test/STIM_021.jpg
1372.174	1.423	1	test	Phase2	test/STIM_021.jpg
1376.19	0.761	1	test	Phase2	test/STIM_021.jpg
1379.862	1.015	1	test	Phase2	test/STIM_022.jpg
1383.735	1.326	1	test	Phase2	test/STIM_022.jpg
1388.468	0.966	1	test	Phase2	test/STIM_022.jpg
1392.426	0.836	1	test	Phase2	test/STIM_023.jpg
1396.661	1.301	1	test	Phase2	test/STIM_023.jpg
1400.823	1.12	1	test	Phase2	test/STIM_023.jpg
1404.411	0.816	1	test	Phase2	test/STIM_024.jpg
1407.446	1.036	1	test	Phase2	test/STIM_024.jpg
1410.618	0.981	1	test	Phase2	test/STIM_024.jpg
1413.673	1.182	0	test	Phase2	test/STIM_025.jpg
1418.165	0.827	1	test	Phase2	test/STIM_025.jpg
1421.251	0.908	1	test	Phase2	test/STIM_025.jpg
1425.774	1.141	1	test	Phase2	test/STIM_026.jpg
1430.108	0.689	1	test	Phase2	test/STIM_026.jpg
1432.783	1.15	1	test	Phase2	test/STIM_026.jpg
1435.787	0.664	1	test	Phase2	test/STIM_027.jpg
1440.026	1.337	1	test	Phase2	test/STIM_027.jpg
1443.466	1.18	1	test	Phase2	test/STIM_027.jpg
1446.654	1.136	1	test	Phase2	test/STIM_028.jpg
1450.058	1.144	1	test	Phase2	test/STIM_028.jpg
1454.868	1.123	1	test	Phase2	test/STIM_028.jpg
1457.912	1.112	1	test	Phase2	test/STIM_029.jpg
1461.506	1.548	1	test	Phase2	test/STIM_029.jpg
1466.123	1.234	1	test	Phase2	test/STIM_029.jpg
1469.32	0.81	1	study	Phase3	study/STIM_000.jpg
1473.931	1.071	0	study	Phase3	study/STIM_000.jpg
1477.219	1.25	1	study	Phase3	study/STIM_000.jpg
1482.245	1.258	1	study	Phase3	study/STIM_001.jpg
1487.099	0.971	1	study	Phase3	study/STIM_001.jpg
1491.375	0.81	1	study	Phase3	study/STIM_001.jpg
1494.595	0.942	1	study	Phase3	study/STIM_002.jpg
1498.182	0.81	1	study	Phase3	study/STIM_002.jpg
1501.347	1.113	1	study	Phase3	study/STIM_002.jpg
1504.67	1.285	1	study	Phase3	study/STIM_003.jpg
1508.794	1.307	1	study	Phase3	study/STIM_003.jpg
1512.477	0.973	1	study	Phase3	study/STIM_003.jpg
1515.67	1.354	1	study	Phase3	study/STIM_004.jpg
1520.871	0.94	1	study	Phase3	study/STIM_004.jpg
1524.97	0.944	1	study	Phase3	study/STIM_004.jpg
1528.804	0.845	1	study	Phase3	study/STIM_005.jpg
1532.409	0.916	1	study	Phase3	study/STIM_005.jpg
1536.057	1.158	1	study	Phase3	study/STIM_005.jpg
1539.999	1.086	1	study	Phase3	study/STIM_006.jpg
1543.383	0.701	1	study	Phase3	study/STIM_006.jpg
1547.547	0.87	1	study	Phase3	study/STIM_006.jpg
1551.01	1.153	1	study	Phase3	study/STIM_007.jpg
1554.455	0.9	1	study	Phase3	study/STIM_007.jpg
1557.491	1.032	1	study	Phase3	study/STIM_007.jpg
1561.09	1.209	1	study	Phase3	study/STIM_008.jpg
1564.595	0.892	1	study	Phase3	study/STIM_008.jpg
1568.019	1.364	1	study	Phase3	study/STIM_008.jpg
1571.362	1.027	1	study	Phase3	study/STIM_009.jpg
1575.188	1.291	1	study	Phase3	study/STIM_009.jpg
1578.319	1.03	1	study	Phase3	study/STIM_009.jpg
1582.384	0.951	1	study	Phase3	study/STIM_010.jpg
1585.42	0.758	1	study	Phase3	study/STIM_010.jpg
1589.75	1.407	1	study	Phase3	study/STIM_010.jpg
1593.154	0.804	1	study	Phase3	study/STIM_011.jpg
1596.378	1.244	1	study	Phase3	study/STIM_011.jpg
1601.115	0.759	1	study	Phase3	study/STIM_011.jpg
1604.733	0.716	1	study	Phase3	study/STIM_012.jpg
1607.39	0.982	1	study	Phase3	study/STIM_012.jpg
1610.296	1.009	1	study	Phase3	study/STIM_012.jpg
1615.015	1.046	1	study	Phase3	study/STIM_013.jpg
1619.145	1.29	1	study	Phase3	study/STIM_013.jpg
1623.022	1.161	1	study	Phase3	study/STIM_013.jpg
1627.047	1.035	1	study	Phase3	study/STIM_014.jpg
1631.536	0.761	1	study	Phase3	study/STIM_014.jpg
1635.074	1.327	1	study	Phase3	study/STIM_014.jpg
1638.561	0.99	1	study	Phase3	study/STIM_015.jpg
1643.158	0.817	1	study	Phase3	study/STIM_015.jpg
1647.765	1.169	1	study	Phase3	study/STIM_015.jpg
1651.824	0.6	1	study	Phase3	study/STIM_016.jpg
1654.781	1.329	1	study	Phase3	study/STIM_016.jpg
1658.82	1.39	1	study	Phase3	study/STIM_016.jpg
1662.525	0.859	1	study	Phase3	study/STIM_017.jpg
1665.671	1.2	1	study	Phase3	study/STIM_017.jpg
1668.871	1.024	1	study	Phase3	study/STIM_017.jpg
1672.907	1.058	1	study	Phase3	study/STIM_018.jpg
1675.929	0.716	1	study	Phase3	study/STIM_018.jpg
1679.201	1.377	1	study	Phase3	study/STIM_018.jpg
1683.005	1.103	1	study	Phase3	study/STIM_019.jpg
1687.726	1.266	1	study	Phase3	study/STIM_019.jpg
1691.221	0.758	1	study	Phase3	study/STIM_019.jpg
1694.61	1.293	1	study	Phase3	study/STIM_020.jpg
1698.962	1.21	1	study	Phase3	study/STIM_020.jpg
1702.308	0.939	1	study	Phase3	study/STIM_020.jpg
1706.281	0.823	1	study	Phase3	study/STIM_021.jpg
1709.355	0.727	1	study	Phase3	study/STIM_021.jpg
1712.513	1.416	1	study	Phase3	study/STIM_021.jpg
1716.055	0.909	1	study	Phase3	study/STIM_022.jpg
1720.487	0.905	1	study	Phase3	study/STIM_022.jpg
1725.071	1.007	1	study	Phase3	study/STIM_022.jpg
1728.734	1.145	1	study	Phase3	study/STIM_023.jpg
1733.377	1.358	1	study	Phase3	study/STIM_023.jpg
1736.666	0.776	1	study	Phase3	study/STIM_023.jpg
1739.798	1.068	1	study	Phase3	study/STIM_024.jpg
1743.421	1.294	1	study	Phase3	study/STIM_024.jpg
1747.374	1.194	1	study	Phase3	study/STIM_024.jpg
1752.387	0.973	1	study	Phase3	study/STIM_025.jpg
1756.804	0.743	1	study	Phase3	study/STIM_025.jpg
1761.038	1.024	0	study	Phase3	study/STIM_025.jpg
1764.417	1.244	1	study	Phase3	study/STIM_026.jpg
1769.103	0.886	1	study	Phase3	study/STIM_026.jpg
1773.69	0.877	0	study	Phase3	study/STIM_026.jpg
1777.102	1.202	1	study	Phase3	study/STIM_027.jpg
1780.3	0.838	1	study	Phase3	study/STIM_027.jpg
1783.259	0.931	1	study	Phase3	study/STIM_027.jpg
1786.482	0.768	1	study	Phase3	study/STIM_028.jpg
1790.688	0.761	1	study	Phase3	study/STIM_028.jpg
1793.446	1.291	1	study	Phase3	study/STIM_028.jpg
1797.669	0.965	1	study	Phase3	study/STIM_029.jpg
1802.143	1.191	1	study	Phase3	study/STIM_029.jpg
1806.224	0.668	1	study	Phase3	study/STIM_029.jpg
1810.41	1.254	1	test	Phase3	test/STIM_000.jpg
1815.164	0.91	1	test	Phase3	test/STIM_000.jpg
1818.553	0.967	1	test	Phase3	test/STIM_000.jpg
1822.177	0.768	0	test	Phase3	test/STIM_001.jpg
1826.523	0.78	1	test	Phase3	test/STIM_001.jpg
1830.302	1.045	1	test	Phase3	test/STIM_001.jpg
1834.398	1.404	1	test	Phase3	test/STIM_002.jpg
1837.731	0.789	1	test	Phase3	test/STIM_002.jpg
1841.715	1.067	1	test	Phase3	test/STIM_002.jpg
1845.847	0.783	0	test	Phase3	test/STIM_003.jpg
1849.44	0.861	0	test	Phase3	test/STIM_003.jpg
1853.043	1.499	1	test	Phase3	test/STIM_003.jpg
1856.351	1.116	1	test	Phase3	test/STIM_004.jpg
1859.749	1.079	1	test	Phase3	test/STIM_004.jpg
1863.472	1.335	1	test	Phase3	test/STIM_004.jpg
1868.675	1.082	1	test	Phase3	test/STIM_005.jpg
1872.495	0.733	1	test	Phase3	test/STIM_005.jpg
1875.806	1.141	1	test	Phase3	test/STIM_005.jpg
1878.948	0.813	1	test	Phase3	test/STIM_006.jpg
1883.297	0.785	1	test	Phase3	test/STIM_006.jpg
1886.57	0.992	1	test	Phase3	test/STIM_006.jpg
1890.465	1.439	1	test	Phase3	test/STIM_007.jpg
1894.492	1.067	1	test	Phase3	test/STIM_007.jpg
1898.027	1.51	1	test	Phase3	test/STIM_007.jpg
1901.792	0.985	1	test	Phase3	test/STIM_008.jpg
1905.771	0.832	1	test	Phase3	test/STIM_008.jpg
1910.256	1.226	1	test	Phase3	test/STIM_008.jpg
1914.563	1.05	1	test	Phase3	test/STIM_009.jpg
1918.783	1.355	1	test	Phase3	test/STIM_009.jpg
1922.828	1.172	0	test	Phase3	test/STIM_009.jpg
1926.442	0.762	1	test	Phase3	test/STIM_010.jpg
1930.948	0.905	1	test	Phase3	test/STIM_010.jpg
1934.843	1.177	1	test	Phase3	test/STIM_010.jpg
1938.987	1.083	1	test	Phase3	test/STIM_011.jpg
1943.162	0.778	1	test	Phase3	test/STIM_011.jpg
1946.629	1.409	1	test	Phase3	test/STIM_011.jpg
1949.947	1.506	1	test	Phase3	test/STIM_012.jpg
1953.304	0.916	1	test	Phase3	test/STIM_012.jpg
1957.663	1.023	1	test	Phase3	test/STIM_012.jpg
1961.966	0.966	1	test	Phase3	test/STIM_013.jpg
1965.5	1.526	1	test	Phase3	test/STIM_013.jpg
1968.868	1.373	1	test	Phase3	test/STIM_013.jpg
1972.439	0.84	1	test	Phase3	test/STIM_014.jpg
1976.338	1.046	1	test	Phase3	test/STIM_014.jpg
1979.513	1.357	1	test	Phase3	test/STIM_014.jpg
1983.523	1.304	1	test	Phase3	test/STIM_015.jpg
1987.321	0.774	1	test	Phase3	test/STIM_015.jpg
1990.587	1.242	1	test	Phase3	test/STIM_015.jpg
1994.531	0.89	1	test	Phase3	test/STIM_016.jpg
1998.483	0.76	1	test	Phase3	test/STIM_016.jpg
2001.876	1.099	1	test	Phase3	test/STIM_016.jpg
2005.288	0.836	1	test	Phase3	test/STIM_017.jpg
2009.988	1.025	1	test	Phase3	test/STIM_017.jpg
2013.754	0.808	1	test	Phase3	test/STIM_017.jpg
2018.427	1.359	1	test	Phase3	test/STIM_018.jpg
2022.16	1.26	1	test	Phase3	test/STIM_018.jpg
2026.186	0.746	1	test	Phase3	test/STIM_018.jpg
2029.325	1.178	0	test	Phase3	test/STIM_019.jpg
2032.98	1.515	1	test	Phase3	test/STIM_019.jpg
2036.267	1.218	1	test	Phase3	test/STIM_019.jpg
2041.353	1.378	0	test	Phase3	test/STIM_020.jpg
2045.138	1.126	1	test	Phase3	test/STIM_020.jpg
2049.025	1.253	1	test	Phase3	test/STIM_020.jpg
2052.467	1.511	1	test	Phase3	test/STIM_021.jpg
2056.035	1.008	1	test	Phase3	test/STIM_021.jpg
2059.124	1.146	1	test	Phase3	test/STIM_021.jpg
2064.097	1.046	1	test	Phase3	test/STIM_022.jpg
2067.654	0.983	1	test	Phase3	test/STIM_022.jpg
2070.827	0.968	1	test	Phase3	test/STIM_022.jpg
2075.615	1.365	1	test	Phase3	test/STIM_023.jpg
2080.733	1.062	1	test	Phase3	test/STIM_023.jpg
2083.807	1.295	1	test	Phase3	test/STIM_023.jpg
2087.829	1.434	1	test	Phase3	test/STIM_024.jpg
2092.439	0.856	1	test	Phase3	test/STIM_024.jpg
2095.886	1.138	1	test	Phase3	test/STIM_024.jpg
2100.832	0.81	1	test	Phase3	test/STIM_025.jpg
2103.991	1.182	1	test	Phase3	test/STIM_025.jpg
2107.636	1.019	1	test	Phase3	test/STIM_025.jpg
2112.238	0.74	0	test	Phase3	test/STIM_026.jpg
2115.952	1.455	1	test	Phase3	test/STIM_026.jpg
2120.508	1.414	1	test	Phase3	test/STIM_026.jpg
2125.142	1.261	1	test	Phase3	test/STIM_027.jpg
2129.083	1.105	1	test	Phase3	test/STIM_027.jpg
2132.514	0.884	1	test	Phase3	test/STIM_027.jpg
2136.947	0.983	1	test	Phase3	test/STIM_028.jpg
2141.084	1.145	1	test	Phase3	test/STIM_028.jpg
2144.952	0.736	1	test	Phase3	test/STIM_028.jpg
2148.751	0.796	1	test	Phase3	test/STIM_029.jpg
2152.207	1.163	0	test	Phase3	test/STIM_029.jpg
2156.12	1.29	1	test	Phase3	test/STIM_029.jpg
