onset	duration	response_time_ms	trial_type	learning_stage	stimulus	response_port
0.0	0.662	662.1	study	Phase1	study/STIM_000.jpg	100
4.169	1.044	1044.2	study	Phase1	study/STIM_000.jpg	99
8.864	1.073	1073.0	study	Phase1	study/STIM_000.jpg	100
13.065	0.843	842.9	study	Phase1	study/STIM_001.jpg	99
16.753	0.793	793.2	study	Phase1	study/STIM_001.jpg	100
21.368	1.156	1155.9	study	Phase1	study/STIM_001.jpg	100
26.034	0.698	698.2	study	Phase1	study/STIM_002.jpg	99
29.057	1.121	1121.0	study	Phase1	study/STIM_002.jpg	100
33.865	1.102	1102.5	study	Phase1	study/STIM_002.jpg	100
38.829	1.105	1105.0	study	Phase1	study/STIM_003.jpg	100
42.447	1.293	1293.2	study	Phase1	study/STIM_003.jpg	99
46.521	0.808	808.5	study	Phase1	study/STIM_003.jpg	100
50.291	1.158	1158.5	study	Phase1	study/STIM_004.jpg	99
54.505	0.648	647.8	study	Phase1	study/STIM_004.jpg	99
57.502	1.085	1085.4	study	Phase1	study/STIM_004.jpg	99
61.527	0.64	639.5	study	Phase1	study/STIM_005.jpg	100
66.088	0.695	695.1	study	Phase1	study/STIM_005.jpg	99
68.928	0.627	626.8	study	Phase1	study/STIM_005.jpg	99
71.883	0.809	809.4	study	Phase1	study/STIM_006.jpg	99
75.653	0.819	818.7	study	Phase1	study/STIM_006.jpg	99
78.699	0.707	707.1	study	Phase1	study/STIM_006.jpg	99
81.986	1.294	1293.9	study	Phase1	study/STIM_007.jpg	99
86.709	0.697	697.0	study	Phase1	study/STIM_007.jpg	99
90.886	0.634	633.9	study	Phase1	study/STIM_007.jpg	100
94.162	0.898	898.5	study	Phase1	study/STIM_008.jpg	99
98.804	1.084	1083.9	study	Phase1	study/STIM_008.jpg	100
103.719	1.235	1234.9	study	Phase1	study/STIM_008.jpg	99
107.584	0.761	761.3	study	Phase1	study/STIM_009.jpg	99
112.098	0.758	757.6	study	Phase1	study/STIM_009.jpg	100
115.51	0.786	785.5	study	Phase1	study/STIM_009.jpg	100
119.064	0.795	795.2	study	Phase1	study/STIM_010.jpg	99
122.85	1.316	1315.6	study	Phase1	study/STIM_010.jpg	100
126.24	0.766	765.6	study	Phase1	study/STIM_010.jpg	99
130.244	1.321	1321.4	study	Phase1	study/STIM_011.jpg	100
134.036	1.245	1244.8	study	Phase1	study/STIM_011.jpg	100
138.408	0.817	817.1	study	Phase1	study/STIM_011.jpg	99
141.614	0.847	846.8	study	Phase1	study/STIM_012.jpg	99
146.442	0.626	626.3	study	Phase1	study/STIM_012.jpg	99
150.091	0.653	653.3	study	Phase1	study/STIM_012.jpg	99
153.596	1.208	1207.8	study	Phase1	study/STIM_013.jpg	100
158.083	0.808	808.2	study	Phase1	study/STIM_013.jpg	100
161.503	1.157	1157.1	study	Phase1	study/STIM_013.jpg	99
165.757	1.261	1260.6	study	Phase1	study/STIM_014.jpg	99
169.352	1.322	1322.3	study	Phase1	study/STIM_014.jpg	100
174.469	0.937	937.0	study	Phase1	study/STIM_014.jpg	99
178.36	1.078	1078.0	study	Phase1	study/STIM_015.jpg	100
182.967	0.69	690.0	study	Phase1	study/STIM_015.jpg	100
186.804	1.165	1165.1	study	Phase1	study/STIM_015.jpg	100
190.062	0.98	980.4	study	Phase1	study/STIM_016.jpg	99
193.57	1.126	1126.5	study	Phase1	study/STIM_016.jpg	99
198.628	0.916	915.7	study	Phase1	study/STIM_016.jpg	99
202.241	1.22	1220.2	study	Phase1	study/STIM_017.jpg	99
206.03	0.734	734.3	study	Phase1	study/STIM_017.jpg	99
209.722	0.828	827.7	study	Phase1	study/STIM_017.jpg	99
213.868	1.177	1177.2	study	Phase1	study/STIM_018.jpg	99
218.364	1.265	1264.8	study	Phase1	study/STIM_018.jpg	100
223.069	1.174	1173.5	study	Phase1	study/STIM_018.jpg	100
226.55	0.665	665.0	study	Phase1	study/STIM_019.jpg	99
230.261	0.735	734.6	study	Phase1	study/STIM_019.jpg	100
233.849	0.877	876.8	study	Phase1	study/STIM_019.jpg	100
237.005	0.782	781.7	study	Phase1	study/STIM_020.jpg	99
239.972	1.217	1217.2	study	Phase1	study/STIM_020.jpg	100
243.63	0.828	828.5	study	Phase1	study/STIM_020.jpg	100
247.732	1.3	1299.8	study	Phase1	study/STIM_021.jpg	100
252.064	0.65	650.5	study	Phase1	study/STIM_021.jpg	100
254.77	0.804	803.6	study	Phase1	study/STIM_021.jpg	99
258.414	0.708	707.5	study	Phase1	study/STIM_022.jpg	100
261.189	0.841	841.2	study	Phase1	study/STIM_022.jpg	100
264.461	1.255	1254.8	study	Phase1	study/STIM_022.jpg	100
268.935	0.855	855.1	study	Phase1	study/STIM_023.jpg	100
273.161	1.195	1194.7	study	Phase1	study/STIM_023.jpg	99
277.058	0.715	714.8	study	Phase1	study/STIM_023.jpg	99
281.131	1.407	1406.7	study	Phase1	study/STIM_024.jpg	100
286.411	1.038	1038.4	study	Phase1	study/STIM_024.jpg	99
291.316	1.193	1193.2	study	Phase1	study/STIM_024.jpg	100
295.615	0.712	712.0	study	Phase1	study/STIM_025.jpg	100
299.935	1.338	1337.6	study	Phase1	study/STIM_025.jpg	100
303.839	1.123	1122.8	study	Phase1	study/STIM_025.jpg	99
308.234	1.016	1016.3	study	Phase1	study/STIM_026.jpg	99
312.603	0.603	603.0	study	Phase1	study/STIM_026.jpg	100
316.633	0.915	914.7	study	Phase1	study/STIM_026.jpg	100
319.639	1.401	1400.9	study	Phase1	study/STIM_027.jpg	99
323.233	1.165	1165.3	study	Phase1	study/STIM_027.jpg	99
327.175	0.932	931.5	study	Phase1	study/STIM_027.jpg	100
330.21	0.74	740.4	study	Phase1	study/STIM_028.jpg	100
334.943	1.187	1186.6	study	Phase1	study/STIM_028.jpg	99
339.19	0.816	816.2	study	Phase1	study/STIM_028.jpg	100
342.37	0.985	985.2	study	Phase1	study/STIM_029.jpg	100
346.57	1.254	1254.3	study	Phase1	study/STIM_029.jpg	99
350.61	1.092	1092.1	study	Phase1	study/STIM_029.jpg	100
354.253	0.788	788.5	test	Phase1	test/STIM_000.jpg	100
357.913	0.956	956.1	test	Phase1	test/STIM_000.jpg	99
362.171	0.626	625.5	test	Phase1	test/STIM_000.jpg	99
364.878	0.517	517.0	test	Phase1	test/STIM_001.jpg	100
368.496	0.543	542.9	test	Phase1	test/STIM_001.jpg	99
372.308	0.952	951.5	test	Phase1	test/STIM_001.jpg	100
376.167	0.514	513.5	test	Phase1	test/STIM_002.jpg	100
380.125	0.904	904.5	test	Phase1	test/STIM_002.jpg	99
383.564	1.024	1023.5	test	Phase1	test/STIM_002.jpg	99
387.878	0.884	883.9	test	Phase1	test/STIM_003.jpg	100
392.094	0.706	705.8	test	Phase1	test/STIM_003.jpg	99
395.943	0.802	802.2	test	Phase1	test/STIM_003.jpg	100
400.6	0.719	718.9	test	Phase1	test/STIM_004.jpg	100
403.748	0.617	616.6	test	Phase1	test/STIM_004.jpg	100
406.515	0.733	732.8	test	Phase1	test/STIM_004.jpg	100
410.034	0.782	781.6	test	Phase1	test/STIM_005.jpg	99
412.905	0.572	572.0	test	Phase1	test/STIM_005.jpg	100
416.747	0.955	955.2	test	Phase1	test/STIM_005.jpg	99
420.155	0.872	872.1	test	Phase1	test/STIM_006.jpg	100
423.733	0.653	653.0	test	Phase1	test/STIM_006.jpg	99
426.726	0.748	748.5	test	Phase1	test/STIM_006.jpg	99
429.789	0.6	599.6	test	Phase1	test/STIM_007.jpg	100
433.6	0.87	870.1	test	Phase1	test/STIM_007.jpg	100
438.001	0.98	979.7	test	Phase1	test/STIM_007.jpg	100
442.8	0.823	822.8	test	Phase1	test/STIM_008.jpg	99
446.137	0.803	802.8	test	Phase1	test/STIM_008.jpg	100
448.947	0.62	619.6	test	Phase1	test/STIM_008.jpg	99
453.362	0.856	856.3	test	Phase1	test/STIM_009.jpg	99
456.315	0.491	491.4	test	Phase1	test/STIM_009.jpg	100
460.378	0.885	884.6	test	Phase1	test/STIM_009.jpg	100
465.236	0.944	944.4	test	Phase1	test/STIM_010.jpg	99
469.541	0.688	688.4	test	Phase1	test/STIM_010.jpg	100
472.918	0.872	871.7	test	Phase1	test/STIM_010.jpg	100
477.692	1.012	1012.2	test	Phase1	test/STIM_011.jpg	99
482.351	0.532	531.6	test	Phase1	test/STIM_011.jpg	100
485.409	0.821	820.9	test	Phase1	test/STIM_011.jpg	99
488.824	0.711	711.3	test	Phase1	test/STIM_012.jpg	99
492.296	0.795	795.1	test	Phase1	test/STIM_012.jpg	100
495.887	0.923	922.8	test	Phase1	test/STIM_012.jpg	100
499.353	0.682	681.5	test	Phase1	test/STIM_013.jpg	100
503.24	0.753	753.2	test	Phase1	test/STIM_013.jpg	100
507.059	0.521	520.7	test	Phase1	test/STIM_013.jpg	100
511.313	0.715	715.0	test	Phase1	test/STIM_014.jpg	99
514.108	0.552	552.3	test	Phase1	test/STIM_014.jpg	99
518.149	0.834	833.7	test	Phase1	test/STIM_014.jpg	100
522.038	0.878	878.5	test	Phase1	test/STIM_015.jpg	100
526.145	0.904	904.5	test	Phase1	test/STIM_015.jpg	100
530.668	0.699	699.0	test	Phase1	test/STIM_015.jpg	99
533.918	0.921	921.4	test	Phase1	test/STIM_016.jpg	100
537.256	0.682	681.7	test	Phase1	test/STIM_016.jpg	99
539.965	0.668	668.2	test	Phase1	test/STIM_016.jpg	100
542.927	0.856	855.6	test	Phase1	test/STIM_017.jpg	99
547.668	0.517	516.8	test	Phase1	test/STIM_017.jpg	100
551.387	0.819	818.9	test	Phase1	test/STIM_017.jpg	99
556.018	0.947	946.6	test	Phase1	test/STIM_018.jpg	99
559.934	0.636	636.5	test	Phase1	test/STIM_018.jpg	100
563.525	0.519	518.9	test	Phase1	test/STIM_018.jpg	99
567.677	0.685	684.9	test	Phase1	test/STIM_019.jpg	99
570.536	0.995	995.2	test	Phase1	test/STIM_019.jpg	100
574.147	0.623	623.1	test	Phase1	test/STIM_019.jpg	100
577.448	0.767	767.3	test	Phase1	test/STIM_020.jpg	100
580.629	0.577	576.6	test	Phase1	test/STIM_020.jpg	99
583.677	0.866	866.5	test	Phase1	test/STIM_020.jpg	100
586.624	0.875	874.6	test	Phase1	test/STIM_021.jpg	100
590.59	0.677	677.1	test	Phase1	test/STIM_021.jpg	99
594.408	0.657	657.3	test	Phase1	test/STIM_021.jpg	99
598.976	0.488	487.9	test	Phase1	test/STIM_022.jpg	100
602.81	0.804	804.5	test	Phase1	test/STIM_022.jpg	100
606.363	0.544	543.7	test	Phase1	test/STIM_022.jpg	99
609.707	0.922	922.2	test	Phase1	test/STIM_023.jpg	100
612.924	0.652	652.0	test	Phase1	test/STIM_023.jpg	99
617.428	0.952	951.8	test	Phase1	test/STIM_023.jpg	100
620.816	0.958	957.7	test	Phase1	test/STIM_024.jpg	99
625.593	0.79	789.5	test	Phase1	test/STIM_024.jpg	99
629.968	0.819	818.8	test	Phase1	test/STIM_024.jpg	100
633.276	0.822	821.6	test	Phase1	test/STIM_025.jpg	99
636.999	0.938	937.8	test	Phase1	test/STIM_025.jpg	100
641.44	0.898	897.7	test	Phase1	test/STIM_025.jpg	100
646.125	0.725	724.7	test	Phase1	test/STIM_026.jpg	100
650.153	1.002	1001.6	test	Phase1	test/STIM_026.jpg	100
654.912	0.956	955.8	test	Phase1	test/STIM_026.jpg	99
658.022	0.782	781.8	test	Phase1	test/STIM_027.jpg	99
661.571	0.968	968.5	test	Phase1	test/STIM_027.jpg	99
665.373	0.655	655.0	test	Phase1	test/STIM_027.jpg	100
668.946	0.742	742.1	test	Phase1	test/STIM_028.jpg	100
672.458	0.811	810.6	test	Phase1	test/STIM_028.jpg	99
676.363	0.486	485.6	test	Phase1	test/STIM_028.jpg	100
679.606	0.732	732.4	test	Phase1	test/STIM_029.jpg	99
683.683	0.991	991.4	test	Phase1	test/STIM_029.jpg	99
687.469	0.599	598.7	test	Phase1	test/STIM_029.jpg	99
691.402	0.982	981.5	study	Phase2	study/STIM_000.jpg	100
694.677	0.867	866.7	study	Phase2	study/STIM_000.jpg	100
698.681	0.742	742.1	study	Phase2	study/STIM_000.jpg	100
702.245	0.751	751.2	study	Phase2	study/STIM_001.jpg	100
706.321	0.932	932.3	study	Phase2	study/STIM_001.jpg	99
710.523	0.652	652.3	study	Phase2	study/STIM_001.jpg	100
714.444	0.815	815.3	study	Phase2	study/STIM_002.jpg	100
718.897	0.907	907.0	study	Phase2	study/STIM_002.jpg	100
722.451	1.048	1047.9	study	Phase2	study/STIM_002.jpg	99
727.16	0.633	633.3	study	Phase2	study/STIM_003.jpg	100
730.216	1.116	1116.5	study	Phase2	study/STIM_003.jpg	99
734.486	0.582	581.6	study	Phase2	study/STIM_003.jpg	99
738.866	0.74	739.7	study	Phase2	study/STIM_004.jpg	100
741.698	0.872	872.1	study	Phase2	study/STIM_004.jpg	99
745.806	1.018	1018.5	study	Phase2	study/STIM_004.jpg	99
749.767	0.738	738.5	study	Phase2	study/STIM_005.jpg	99
753.178	1.102	1102.1	study	Phase2	study/STIM_005.jpg	100
756.45	0.72	719.7	study	Phase2	study/STIM_005.jpg	99
759.751	0.844	843.9	study	Phase2	study/STIM_006.jpg	99
764.265	0.814	813.6	study	Phase2	study/STIM_006.jpg	99
767.41	0.634	633.9	study	Phase2	study/STIM_006.jpg	100
771.886	1.048	1048.5	study	Phase2	study/STIM_007.jpg	99
776.308	0.516	515.5	study	Phase2	study/STIM_007.jpg	100
780.569	0.762	761.6	study	Phase2	study/STIM_007.jpg	99
783.765	0.583	582.9	study	Phase2	study/STIM_008.jpg	100
786.815	0.647	646.8	study	Phase2	study/STIM_008.jpg	99
790.554	0.848	848.2	study	Phase2	study/STIM_008.jpg	99
794.916	0.894	893.6	study	Phase2	study/STIM_009.jpg	99
798.082	0.59	590.0	study	Phase2	study/STIM_009.jpg	99
802.296	0.527	526.7	study	Phase2	study/STIM_009.jpg	99
805.466	0.751	751.3	study	Phase2	study/STIM_010.jpg	99
809.081	1.05	1050.4	study	Phase2	study/STIM_010.jpg	100
812.259	0.861	860.6	study	Phase2	study/STIM_010.jpg	100
815.606	1.15	1149.8	study	Phase2	study/STIM_011.jpg	99
819.71	1.014	1013.9	study	Phase2	study/STIM_011.jpg	99
823.263	0.631	631.1	study	Phase2	study/STIM_011.jpg	100
827.651	0.803	802.8	study	Phase2	study/STIM_012.jpg	100
832.221	0.59	590.3	study	Phase2	study/STIM_012.jpg	99
836.748	0.601	600.9	study	Phase2	study/STIM_012.jpg	99
839.609	1.176	1176.5	study	Phase2	study/STIM_013.jpg	100
844.4	1.053	1052.9	study	Phase2	study/STIM_013.jpg	99
848.374	0.81	809.6	study	Phase2	study/STIM_013.jpg	100
852.261	0.702	701.7	study	Phase2	study/STIM_014.jpg	99
855.483	0.878	877.6	study	Phase2	study/STIM_014.jpg	100
858.366	0.988	988.4	study	Phase2	study/STIM_014.jpg	100
862.575	0.712	711.8	study	Phase2	study/STIM_015.jpg	99
866.517	1.124	1123.9	study	Phase2	study/STIM_015.jpg	100
871.393	0.629	629.1	study	Phase2	study/STIM_015.jpg	99
874.73	1.09	1089.5	study	Phase2	study/STIM_016.jpg	99
878.247	0.974	973.9	study	Phase2	study/STIM_016.jpg	99
881.921	0.56	560.5	study	Phase2	study/STIM_016.jpg	99
884.817	1.134	1133.9	study	Phase2	study/STIM_017.jpg	100
889.481	0.988	987.9	study	Phase2	study/STIM_017.jpg	100
894.283	0.957	957.0	study	Phase2	study/STIM_017.jpg	100
898.238	0.73	729.9	study	Phase2	study/STIM_018.jpg	100
902.333	0.955	954.9	study	Phase2	study/STIM_018.jpg	99
906.319	0.542	541.7	study	Phase2	study/STIM_018.jpg	99
909.789	0.667	666.9	study	Phase2	study/STIM_019.jpg	100
913.152	0.922	922.1	study	Phase2	study/STIM_019.jpg	100
916.893	0.971	970.9	study	Phase2	study/STIM_019.jpg	100
921.136	0.828	828.0	study	Phase2	study/STIM_020.jpg	100
924.42	0.661	660.7	study	Phase2	study/STIM_020.jpg	100
928.758	0.803	803.2	study	Phase2	study/STIM_020.jpg	100
932.986	0.735	734.9	study	Phase2	study/STIM_021.jpg	100
937.417	0.54	539.9	study	Phase2	study/STIM_021.jpg	99
941.028	0.804	803.5	study	Phase2	study/STIM_021.jpg	99
944.734	1.107	1107.1	study	Phase2	study/STIM_022.jpg	99
948.52	1.118	1118.2	study	Phase2	study/STIM_022.jpg	100
952.022	0.803	803.3	study	Phase2	study/STIM_022.jpg	99
956.384	0.833	832.6	study	Phase2	study/STIM_023.jpg	100
961.212	0.963	962.8	study	Phase2	study/STIM_023.jpg	99
965.395	1.035	1035.3	study	Phase2	study/STIM_023.jpg	100
969.977	0.818	818.3	study	Phase2	study/STIM_024.jpg	100
974.472	0.912	912.5	study	Phase2	study/STIM_024.jpg	99
979.046	0.794	793.8	study	Phase2	study/STIM_024.jpg	100
982.967	0.802	801.7	study	Phase2	study/STIM_025.jpg	100
987.206	0.941	940.7	study	Phase2	study/STIM_025.jpg	99
991.376	0.502	501.7	study	Phase2	study/STIM_025.jpg	100
994.087	0.941	940.7	study	Phase2	study/STIM_026.jpg	100
998.915	0.606	605.6	study	Phase2	study/STIM_026.jpg	99
1002.738	0.659	658.7	study	Phase2	study/STIM_026.jpg	99
1007.329	0.636	636.0	study	Phase2	study/STIM_027.jpg	100
1011.588	0.989	989.0	study	Phase2	study/STIM_027.jpg	99
1016.118	0.522	522.4	study	Phase2	study/STIM_027.jpg	100
1019.254	0.712	712.1	study	Phase2	study/STIM_028.jpg	99
1023.098	0.698	697.8	study	Phase2	study/STIM_028.jpg	100
1025.809	0.612	611.5	study	Phase2	study/STIM_028.jpg	100
1029.208	0.784	784.1	study	Phase2	study/STIM_029.jpg	99
1033.868	0.991	991.1	study	Phase2	study/STIM_029.jpg	100
1037.561	0.738	738.4	study	Phase2	study/STIM_029.jpg	99
1042.132	0.88	880.0	test	Phase2	test/STIM_000.jpg	100
1046.487	0.672	672.3	test	Phase2	test/STIM_000.jpg	100
1049.28	0.709	709.2	test	Phase2	test/STIM_000.jpg	99
1053.485	0.911	910.6	test	Phase2	test/STIM_001.jpg	99
1056.593	0.731	730.7	test	Phase2	test/STIM_001.jpg	99
1060.573	0.528	527.7	test	Phase2	test/STIM_001.jpg	100
1064.595	0.831	830.9	test	Phase2	test/STIM_002.jpg	99
1069.104	0.668	668.2	test	Phase2	test/STIM_002.jpg	99
1072.025	1.015	1014.9	test	Phase2	test/STIM_002.jpg	99
1075.52	1.002	1002.0	test	Phase2	test/STIM_003.jpg	100
1079.373	0.567	566.9	test	Phase2	test/STIM_003.jpg	100
1083.886	0.716	715.7	test	Phase2	test/STIM_003.jpg	99
1088.559	0.821	820.9	test	Phase2	test/STIM_004.jpg	99
1092.067	0.607	606.7	test	Phase2	test/STIM_004.jpg	99
1096.46	0.828	828.3	test	Phase2	test/STIM_004.jpg	99
1100.872	0.929	928.9	test	Phase2	test/STIM_005.jpg	100
1104.144	0.632	632.0	test	Phase2	test/STIM_005.jpg	100
1107.663	0.61	609.8	test	Phase2	test/STIM_005.jpg	99
1111.46	0.764	763.5	test	Phase2	test/STIM_006.jpg	100
1115.773	0.791	791.1	test	Phase2	test/STIM_006.jpg	99
1120.224	0.998	998.4	test	Phase2	test/STIM_006.jpg	100
1123.499	0.678	678.1	test	Phase2	test/STIM_007.jpg	99
1126.447	0.851	850.8	test	Phase2	test/STIM_007.jpg	99
1129.769	0.778	777.7	test	Phase2	test/STIM_007.jpg	99
1133.935	0.701	701.3	test	Phase2	test/STIM_008.jpg	99
1136.811	0.719	718.7	test	Phase2	test/STIM_008.jpg	99
1140.949	0.774	774.0	test	Phase2	test/STIM_008.jpg	99
1144.902	0.851	850.8	test	Phase2	test/STIM_009.jpg	100
1149.264	0.684	683.8	test	Phase2	test/STIM_009.jpg	100
1153.832	0.98	980.2	test	Phase2	test/STIM_009.jpg	100
1157.303	0.79	790.2	test	Phase2	test/STIM_010.jpg	99
1160.25	0.982	982.4	test	Phase2	test/STIM_010.jpg	100
1164.826	0.859	859.1	test	Phase2	test/STIM_010.jpg	99
1168.413	0.656	656.4	test	Phase2	test/STIM_011.jpg	99
1171.296	0.783	783.2	test	Phase2	test/STIM_011.jpg	100
1174.893	0.768	767.7	test	Phase2	test/STIM_011.jpg	100
1178.077	0.861	861.1	test	Phase2	test/STIM_012.jpg	100
1182.054	0.978	977.6	test	Phase2	test/STIM_012.jpg	100
1186.484	0.878	877.7	test	Phase2	test/STIM_012.jpg	99
1191.018	0.767	767.0	test	Phase2	test/STIM_013.jpg	100
1193.873	0.858	858.3	test	Phase2	test/STIM_013.jpg	99
1198.545	0.554	553.5	test	Phase2	test/STIM_013.jpg	100
1202.061	0.668	668.0	test	Phase2	test/STIM_014.jpg	100
1205.035	0.872	872.1	test	Phase2	test/STIM_014.jpg	100
1209.69	0.648	647.6	test	Phase2	test/STIM_014.jpg	100
1212.615	0.544	544.1	test	Phase2	test/STIM_015.jpg	99
1215.498	0.631	630.6	test	Phase2	test/STIM_015.jpg	99
1219.372	0.779	779.1	test	Phase2	test/STIM_015.jpg	100
1223.192	0.726	725.7	test	Phase2	test/STIM_016.jpg	99
1227.734	0.844	843.5	test	Phase2	test/STIM_016.jpg	99
1231.354	0.804	803.6	test	Phase2	test/STIM_016.jpg	99
1236.103	0.882	881.7	test	Phase2	test/STIM_017.jpg	100
1240.759	0.773	772.9	test	Phase2	test/STIM_017.jpg	100
1245.2	0.768	767.8	test	Phase2	test/STIM_017.jpg	99
1248.749	0.746	745.9	test	Phase2	test/STIM_018.jpg	100
1252.082	0.548	547.7	test	Phase2	test/STIM_018.jpg	100
1254.737	0.632	632.1	test	Phase2	test/STIM_018.jpg	100
1258.266	0.911	911.3	test	Phase2	test/STIM_019.jpg	99
1262.923	0.956	956.4	test	Phase2	test/STIM_019.jpg	99
1267.538	0.642	641.6	test	Phase2	test/STIM_019.jpg	100
1271.918	0.849	849.3	test	Phase2	test/STIM_020.jpg	100
1274.819	0.891	891.2	test	Phase2	test/STIM_020.jpg	99
1277.905	0.635	635.4	test	Phase2	test/STIM_020.jpg	100
1280.977	0.509	508.8	test	Phase2	test/STIM_021.jpg	100
1284.489	0.916	916.4	test	Phase2	test/STIM_021.jpg	99
1287.727	0.736	735.6	test	Phase2	test/STIM_021.jpg	99
1290.564	0.744	744.5	test	Phase2	test/STIM_022.jpg	99
1294.967	0.751	751.2	test	Phase2	test/STIM_022.jpg	99
1299.098	0.791	790.6	test	Phase2	test/STIM_022.jpg	99
1302.464	0.518	518.0	test	Phase2	test/STIM_023.jpg	99
1306.665	0.997	996.7	test	Phase2	test/STIM_023.jpg	99
1310.009	0.654	653.8	test	Phase2	test/STIM_023.jpg	100
1313.476	1.01	1010.1	test	Phase2	test/STIM_024.jpg	99
1316.728	0.733	733.1	test	Phase2	test/STIM_024.jpg	99
1320.279	0.912	912.5	test	Phase2	test/STIM_024.jpg	100
1323.803	0.745	745.2	test	Phase2	test/STIM_025.jpg	100
1328.271	0.839	838.9	test	Phase2	test/STIM_025.jpg	99
1332.315	0.602	602.5	test	Phase2	test/STIM_025.jpg	100
1336.118	0.791	790.9	test	Phase2	test/STIM_026.jpg	99
1339.0	0.729	729.0	test	Phase2	test/STIM_026.jpg	100
1343.321	0.605	604.7	test	Phase2	test/STIM_026.jpg	100
1346.581	0.995	995.2	test	Phase2	test/STIM_027.jpg	100
1349.68	0.496	496.3	test	Phase2	test/STIM_027.jpg	100
1352.355	0.916	915.8	test	Phase2	test/STIM_027.jpg	99
1356.823	0.771	770.8	test	Phase2	test/STIM_028.jpg	100
1360.317	0.927	926.6	test	Phase2	test/STIM_028.jpg	99
1364.275	0.683	682.7	test	Phase2	test/STIM_028.jpg	99
1368.381	0.624	624.2	test	Phase2	test/STIM_029.jpg	100
1371.585	0.814	813.5	test	Phase2	test/STIM_029.jpg	99
1375.71	0.705	704.6	test	Phase2	test/STIM_029.jpg	100
1380.092	0.729	729.0	study	Phase3	study/STIM_000.jpg	100
1383.088	0.463	462.9	study	Phase3	study/STIM_000.jpg	100
1385.786	0.544	544.2	study	Phase3	study/STIM_000.jpg	100
1388.673	0.942	942.4	study	Phase3	study/STIM_001.jpg	100
1392.147	0.835	834.6	study	Phase3	study/STIM_001.jpg	100
1395.291	0.57	570.3	study	Phase3	study/STIM_001.jpg	99
1399.135	0.677	677.1	study	Phase3	study/STIM_002.jpg	99
1403.792	0.923	923.4	study	Phase3	study/STIM_002.jpg	99
1407.119	0.945	945.4	study	Phase3	study/STIM_002.jpg	100
1411.196	0.865	865.3	study	Phase3	study/STIM_003.jpg	99
1416.045	0.779	779.1	study	Phase3	study/STIM_003.jpg	99
1419.136	0.912	911.9	study	Phase3	study/STIM_003.jpg	99
1423.404	0.58	579.6	study	Phase3	study/STIM_004.jpg	99
1426.076	0.541	540.9	study	Phase3	study/STIM_004.jpg	100
1429.798	0.752	752.2	study	Phase3	study/STIM_004.jpg	99
1434.274	0.796	795.6	study	Phase3	study/STIM_005.jpg	100
1438.99	0.75	749.5	study	Phase3	study/STIM_005.jpg	100
1442.169	0.626	626.5	study	Phase3	study/STIM_005.jpg	99
1446.056	0.492	491.7	study	Phase3	study/STIM_006.jpg	100
1448.974	0.74	739.8	study	Phase3	study/STIM_006.jpg	100
1452.492	0.583	583.4	study	Phase3	study/STIM_006.jpg	100
1455.273	0.539	538.9	study	Phase3	study/STIM_007.jpg	100
1459.746	0.625	624.8	study	Phase3	study/STIM_007.jpg	100
1464.323	0.9	900.0	study	Phase3	study/STIM_007.jpg	100
1468.845	0.469	468.6	study	Phase3	study/STIM_008.jpg	99
1472.293	0.694	693.5	study	Phase3	study/STIM_008.jpg	100
1476.849	0.585	584.8	study	Phase3	study/STIM_008.jpg	100
1480.735	0.78	780.1	study	Phase3	study/STIM_009.jpg	100
1483.551	0.534	534.1	study	Phase3	study/STIM_009.jpg	100
1486.206	0.58	580.0	study	Phase3	study/STIM_009.jpg	99
1489.3	0.569	568.6	study	Phase3	study/STIM_010.jpg	100
1492.995	0.726	725.7	study	Phase3	study/STIM_010.jpg	100
1496.434	0.452	452.0	study	Phase3	study/STIM_010.jpg	99
1499.62	0.872	871.9	study	Phase3	study/STIM_011.jpg	99
1504.054	0.838	838.1	study	Phase3	study/STIM_011.jpg	100
1508.147	0.736	735.8	study	Phase3	study/STIM_011.jpg	100
1512.691	0.549	549.0	study	Phase3	study/STIM_012.jpg	100
1516.06	0.856	855.9	study	Phase3	study/STIM_012.jpg	99
1520.649	0.764	764.2	study	Phase3	study/STIM_012.jpg	99
1524.499	0.573	572.7	study	Phase3	study/STIM_013.jpg	100
1527.378	0.77	770.1	study	Phase3	study/STIM_013.jpg	100
1532.054	0.459	458.6	study	Phase3	study/STIM_013.jpg	99
1535.176	0.76	759.9	study	Phase3	study/STIM_014.jpg	99
1538.552	0.617	616.7	study	Phase3	study/STIM_014.jpg	100
1541.843	0.795	795.4	study	Phase3	study/STIM_014.jpg	100
1546.347	0.568	567.8	study	Phase3	study/STIM_015.jpg	99
1550.524	0.891	891.3	study	Phase3	study/STIM_015.jpg	99
1553.696	0.942	942.0	study	Phase3	study/STIM_015.jpg	100
1557.351	0.525	525.4	study	Phase3	study/STIM_016.jpg	99
1560.07	0.74	740.0	study	Phase3	study/STIM_016.jpg	100
1563.113	0.82	819.8	study	Phase3	study/STIM_016.jpg	100
1567.284	0.887	887.3	study	Phase3	study/STIM_017.jpg	99
1570.19	0.601	601.0	study	Phase3	study/STIM_017.jpg	100
1573.506	0.909	909.4	study	Phase3	study/STIM_017.jpg	99
1576.74	0.819	818.6	study	Phase3	study/STIM_018.jpg	99
1581.288	0.89	889.7	study	Phase3	study/STIM_018.jpg	100
1586.127	0.842	842.4	study	Phase3	study/STIM_018.jpg	99
1590.807	0.634	634.4	study	Phase3	study/STIM_019.jpg	100
1594.312	0.508	508.3	study	Phase3	study/STIM_019.jpg	99
1598.228	0.466	465.5	study	Phase3	study/STIM_019.jpg	100
1602.141	0.852	851.8	study	Phase3	study/STIM_020.jpg	99
1606.114	0.559	558.8	study	Phase3	study/STIM_020.jpg	100
1609.684	0.895	895.3	study	Phase3	study/STIM_020.jpg	99
1612.594	0.599	599.4	study	Phase3	study/STIM_021.jpg	100
1616.628	0.722	722.1	study	Phase3	study/STIM_021.jpg	100
1619.504	0.562	562.1	study	Phase3	study/STIM_021.jpg	100
1622.478	0.765	765.4	study	Phase3	study/STIM_022.jpg	99
1625.826	0.888	888.4	study	Phase3	study/STIM_022.jpg	100
1629.865	0.6	600.0	study	Phase3	study/STIM_022.jpg	99
1632.887	0.892	892.3	study	Phase3	study/STIM_023.jpg	99
1637.614	0.793	793.1	study	Phase3	study/STIM_023.jpg	100
1642.107	0.736	735.7	study	Phase3	study/STIM_023.jpg	100
1645.954	0.456	456.3	study	Phase3	study/STIM_024.jpg	100
1650.398	0.926	926.3	study	Phase3	study/STIM_024.jpg	99
1655.193	0.555	555.2	study	Phase3	study/STIM_024.jpg	100
1657.771	0.678	678.3	study	Phase3	study/STIM_025.jpg	99
1660.807	0.492	491.7	study	Phase3	study/STIM_025.jpg	100
1663.756	0.798	797.6	study	Phase3	study/STIM_025.jpg	99
1667.453	0.869	868.9	study	Phase3	study/STIM_026.jpg	100
1670.653	0.607	607.3	study	Phase3	study/STIM_026.jpg	100
1673.497	0.807	807.1	study	Phase3	study/STIM_026.jpg	99
1677.592	0.645	645.2	study	Phase3	study/STIM_027.jpg	100
1681.9	0.619	618.7	study	Phase3	study/STIM_027.jpg	100
1686.432	0.938	938.0	study	Phase3	study/STIM_027.jpg	99
1689.712	0.678	678.5	study	Phase3	study/STIM_028.jpg	99
1692.727	0.457	457.3	study	Phase3	study/STIM_028.jpg	100
1697.034	0.482	482.0	study	Phase3	study/STIM_028.jpg	100
1700.4	0.543	542.6	study	Phase3	study/STIM_029.jpg	99
1704.675	0.511	511.5	study	Phase3	study/STIM_029.jpg	100
1709.118	0.606	606.5	study	Phase3	study/STIM_029.jpg	100
1712.847	0.609	608.8	test	Phase3	test/STIM_000.jpg	99
1716.28	0.558	558.4	test	Phase3	test/STIM_000.jpg	100
1719.673	0.969	968.7	test	Phase3	test/STIM_000.jpg	100
1724.469	0.836	835.6	test	Phase3	test/STIM_001.jpg	99
1727.474	0.894	894.5	test	Phase3	test/STIM_001.jpg	100
1730.733	0.943	942.9	test	Phase3	test/STIM_001.jpg	100
1734.546	0.875	874.8	test	Phase3	test/STIM_002.jpg	100
1739.214	0.838	838.2	test	Phase3	test/STIM_002.jpg	100
1742.836	0.498	497.6	test	Phase3	test/STIM_002.jpg	100
1746.858	0.568	567.7	test	Phase3	test/STIM_003.jpg	100
1751.317	0.974	973.7	test	Phase3	test/STIM_003.jpg	100
1754.51	0.949	949.2	test	Phase3	test/STIM_003.jpg	99
1757.821	0.868	867.9	test	Phase3	test/STIM_004.jpg	100
1762.066	0.793	793.1	test	Phase3	test/STIM_004.jpg	100
1765.074	0.612	611.7	test	Phase3	test/STIM_004.jpg	100
1768.137	0.715	714.9	test	Phase3	test/STIM_005.jpg	100
1772.701	0.539	539.2	test	Phase3	test/STIM_005.jpg	100
1776.859	0.51	509.7	test	Phase3	test/STIM_005.jpg	100
1779.557	0.726	726.3	test	Phase3	test/STIM_006.jpg	99
1783.063	0.496	496.1	test	Phase3	test/STIM_006.jpg	100
1785.827	0.579	579.4	test	Phase3	test/STIM_006.jpg	100
1788.445	0.986	986.3	test	Phase3	test/STIM_007.jpg	99
1792.491	0.958	957.7	test	Phase3	test/STIM_007.jpg	99
1795.608	0.921	920.9	test	Phase3	test/STIM_007.jpg	99
1800.145	0.581	580.9	test	Phase3	test/STIM_008.jpg	99
1803.325	0.807	807.2	test	Phase3	test/STIM_008.jpg	99
1806.933	0.804	804.0	test	Phase3	test/STIM_008.jpg	100
1810.438	0.82	819.9	test	Phase3	test/STIM_009.jpg	100
1813.814	0.572	572.4	test	Phase3	test/STIM_009.jpg	99
1817.512	1.028	1027.7	test	Phase3	test/STIM_009.jpg	100
1820.931	0.673	672.7	test	Phase3	test/STIM_010.jpg	100
1823.757	0.691	691.1	test	Phase3	test/STIM_010.jpg	99
1827.764	0.666	666.3	test	Phase3	test/STIM_010.jpg	99
1830.636	0.972	971.5	test	Phase3	test/STIM_011.jpg	100
1834.918	1.001	1001.2	test	Phase3	test/STIM_011.jpg	100
1837.98	0.84	839.9	test	Phase3	test/STIM_011.jpg	100
1842.279	0.726	726.2	test	Phase3	test/STIM_012.jpg	100
1845.053	0.631	630.9	test	Phase3	test/STIM_012.jpg	100
1848.579	0.964	963.9	test	Phase3	test/STIM_012.jpg	100
1852.95	0.673	673.3	test	Phase3	test/STIM_013.jpg	100
1856.549	0.611	610.6	test	Phase3	test/STIM_013.jpg	99
1859.588	0.521	521.3	test	Phase3	test/STIM_013.jpg	99
1863.587	0.861	861.0	test	Phase3	test/STIM_014.jpg	99
1866.529	0.489	488.6	test	Phase3	test/STIM_014.jpg	100
1869.864	0.714	713.7	test	Phase3	test/STIM_014.jpg	99
1874.181	0.637	637.3	test	Phase3	test/STIM_015.jpg	100
1877.702	0.965	964.7	test	Phase3	test/STIM_015.jpg	100
1881.324	0.516	516.2	test	Phase3	test/STIM_015.jpg	99
1884.388	0.647	646.7	test	Phase3	test/STIM_016.jpg	99
1888.508	0.692	691.6	test	Phase3	test/STIM_016.jpg	100
1891.582	0.846	845.7	test	Phase3	test/STIM_016.jpg	99
1895.741	0.967	967.2	test	Phase3	test/STIM_017.jpg	99
1899.389	0.785	785.1	test	Phase3	test/STIM_017.jpg	99
1902.757	0.478	478.2	test	Phase3	test/STIM_017.jpg	99
1907.023	0.575	574.8	test	Phase3	test/STIM_018.jpg	100
1910.826	0.601	600.6	test	Phase3	test/STIM_018.jpg	99
1914.305	0.918	917.6	test	Phase3	test/STIM_018.jpg	100
1917.52	0.684	683.7	test	Phase3	test/STIM_019.jpg	100
1921.297	0.913	912.9	test	Phase3	test/STIM_019.jpg	100
1924.844	0.967	967.4	test	Phase3	test/STIM_019.jpg	100
1927.955	0.797	797.1	test	Phase3	test/STIM_020.jpg	99
1931.342	0.57	569.5	test	Phase3	test/STIM_020.jpg	99
1934.794	0.702	702.3	test	Phase3	test/STIM_020.jpg	100
1937.938	0.497	497.1	test	Phase3	test/STIM_021.jpg	100
1941.216	0.595	595.2	test	Phase3	test/STIM_021.jpg	100
1945.573	0.604	604.4	test	Phase3	test/STIM_021.jpg	100
1950.013	0.687	686.8	test	Phase3	test/STIM_022.jpg	99
1952.725	0.541	541.3	test	Phase3	test/STIM_022.jpg	99
1956.264	1.02	1020.4	test	Phase3	test/STIM_022.jpg	99
1961.266	0.948	948.0	test	Phase3	test/STIM_023.jpg	100
1964.949	0.542	541.8	test	Phase3	test/STIM_023.jpg	100
1968.262	0.497	496.9	test	Phase3	test/STIM_023.jpg	100
1971.274	0.689	688.6	test	Phase3	test/STIM_024.jpg	99
1974.115	0.747	746.8	test	Phase3	test/STIM_024.jpg	99
1978.287	0.617	617.4	test	Phase3	test/STIM_024.jpg	100
1982.389	0.542	541.8	test	Phase3	test/STIM_025.jpg	99
1985.649	0.491	490.6	test	Phase3	test/STIM_025.jpg	100
1989.577	0.657	657.0	test	Phase3	test/STIM_025.jpg	99
1992.971	1.02	1020.5	test	Phase3	test/STIM_026.jpg	100
1996.5	0.518	517.8	test	Phase3	test/STIM_026.jpg	99
1999.036	0.598	598.4	test	Phase3	test/STIM_026.jpg	99
2001.814	0.571	570.9	test	Phase3	test/STIM_027.jpg	99
2005.815	0.768	768.0	test	Phase3	test/STIM_027.jpg	100
2008.768	0.565	564.9	test	Phase3	test/STIM_027.jpg	99
2013.252	0.931	930.6	test	Phase3	test/STIM_028.jpg	99
2016.286	1.029	1029.3	test	Phase3	test/STIM_028.jpg	100
2020.139	0.824	824.1	test	Phase3	test/STIM_028.jpg	99
2024.945	0.804	804.2	test	Phase3	test/STIM_029.jpg	99
2028.876	0.656	655.9	test	Phase3	test/STIM_029.jpg	99
2031.61	0.629	628.8	test	Phase3	test/STIM_029.jpg	100
