onset	duration	response_time_ms	trial_type	learning_stage	stimulus	response_port
0.0	2.936	2936.5	navigation	Trial1	navigation/STIM_000.jpg	99
6.608	3.837	3837.4	navigation	Trial1	navigation/STIM_000.jpg	100
12.83	2.831	2831.3	navigation	Trial1	navigation/STIM_000.jpg	100
19.716	1.801	1800.9	navigation	Trial1	navigation/STIM_000.jpg	99
24.587	2.241	2241.2	navigation	Trial1	navigation/STIM_000.jpg	99
30.19	2.152	2151.5	navigation	Trial1	navigation/STIM_000.jpg	99
35.434	2.054	2053.6	navigation	Trial1	navigation/STIM_001.jpg	99
41.552	2.311	2311.2	navigation	Trial1	navigation/STIM_001.jpg	99
47.655	2.011	2010.6	navigation	Trial1	navigation/STIM_001.jpg	100
51.904	3.399	3399.4	navigation	Trial1	navigation/STIM_001.jpg	99
57.576	2.273	2272.6	navigation	Trial1	navigation/STIM_001.jpg	99
62.972	2.001	2000.7	navigation	Trial1	navigation/STIM_001.jpg	100
67.566	4.08	4080.2	navigation	Trial1	navigation/STIM_002.jpg	100
74.237	3.972	3972.0	navigation	Trial1	navigation/STIM_002.jpg	100
80.485	3.88	3879.8	navigation	Trial1	navigation/STIM_002.jpg	100
87.793	1.745	1745.2	navigation	Trial1	navigation/STIM_002.jpg	99
91.89	2.93	2929.8	navigation	Trial1	navigation/STIM_002.jpg	99
97.967	2.377	2377.0	navigation	Trial1	navigation/STIM_002.jpg	99
103.402	2.828	2828.2	navigation	Trial1	navigation/STIM_003.jpg	99
108.922	3.391	3390.9	navigation	Trial1	navigation/STIM_003.jpg	100
114.767	3.99	3990.5	navigation	Trial1	navigation/STIM_003.jpg	99
122.516	3.086	3086.4	navigation	Trial1	navigation/STIM_003.jpg	100
129.455	2.023	2022.6	navigation	Trial1	navigation/STIM_003.jpg	100
134.9	2.95	2949.8	navigation	Trial1	navigation/STIM_003.jpg	100
140.536	3.517	3516.7	navigation	Trial1	navigation/STIM_004.jpg	100
146.633	1.874	1874.1	navigation	Trial1	navigation/STIM_004.jpg	100
152.414	3.031	3030.9	navigation	Trial1	navigation/STIM_004.jpg	99
159.485	3.029	3029.2	navigation	Trial1	navigation/STIM_004.jpg	99
165.679	3.637	3637.2	navigation	Trial1	navigation/STIM_004.jpg	99
172.273	2.998	2998.2	navigation	Trial1	navigation/STIM_004.jpg	100
178.414	3.692	3691.7	navigation	Trial1	navigation/STIM_005.jpg	99
185.724	3.922	3921.7	navigation	Trial1	navigation/STIM_005.jpg	100
192.251	2.097	2096.8	navigation	Trial1	navigation/STIM_005.jpg	99
198.007	3.625	3625.2	navigation	Trial1	navigation/STIM_005.jpg	99
205.355	1.903	1902.6	navigation	Trial1	navigation/STIM_005.jpg	100
210.791	2.647	2647.1	navigation	Trial1	navigation/STIM_005.jpg	99
216.582	3.812	3812.5	navigation	Trial1	navigation/STIM_006.jpg	100
223.3	3.7	3699.8	navigation	Trial1	navigation/STIM_006.jpg	99
231.163	2.074	2073.5	navigation	Trial1	navigation/STIM_006.jpg	100
236.792	3.185	3185.4	navigation	Trial1	navigation/STIM_006.jpg	99
242.774	3.342	3341.6	navigation	Trial1	navigation/STIM_006.jpg	100
248.418	2.12	2119.5	navigation	Trial1	navigation/STIM_006.jpg	100
253.923	4.323	4323.4	navigation	Trial1	navigation/STIM_007.jpg	100
260.639	2.195	2195.2	navigation	Trial1	navigation/STIM_007.jpg	99
266.385	3.738	3737.6	navigation	Trial1	navigation/STIM_007.jpg	99
273.76	3.942	3941.5	navigation	Trial1	navigation/STIM_007.jpg	99
281.799	1.804	1804.2	navigation	Trial1	navigation/STIM_007.jpg	99
286.272	2.296	2295.5	navigation	Trial1	navigation/STIM_007.jpg	100
290.972	3.896	3895.5	navigation	Trial1	navigation/STIM_008.jpg	100
298.137	2.732	2732.0	navigation	Trial1	navigation/STIM_008.jpg	99
303.74	3.963	3963.0	navigation	Trial1	navigation/STIM_008.jpg	100
310.989	1.824	1824.0	navigation	Trial1	navigation/STIM_008.jpg	99
316.807	1.757	1757.2	navigation	Trial1	navigation/STIM_008.jpg	99
321.661	3.392	3392.4	navigation	Trial1	navigation/STIM_008.jpg	99
328.805	4.006	4006.1	navigation	Trial1	navigation/STIM_009.jpg	99
335.253	3.661	3660.9	navigation	Trial1	navigation/STIM_009.jpg	100
341.395	3.524	3523.8	navigation	Trial1	navigation/STIM_009.jpg	99
348.489	2.446	2446.0	navigation	Trial1	navigation/STIM_009.jpg	100
354.657	3.127	3126.8	navigation	Trial1	navigation/STIM_009.jpg	100
360.625	3.529	3529.0	navigation	Trial1	navigation/STIM_009.jpg	100
366.67	2.791	2790.7	navigation	Trial1	navigation/STIM_010.jpg	100
372.064	2.005	2005.4	navigation	Trial1	navigation/STIM_010.jpg	100
377.241	2.302	2301.6	navigation	Trial1	navigation/STIM_010.jpg	100
383.156	2.327	2326.8	navigation	Trial1	navigation/STIM_010.jpg	99
387.932	2.572	2572.5	navigation	Trial1	navigation/STIM_010.jpg	99
392.842	1.488	1488.4	navigation	Trial1	navigation/STIM_010.jpg	99
396.907	4.643	4642.9	navigation	Trial1	navigation/STIM_011.jpg	99
404.446	4.482	4481.8	navigation	Trial1	navigation/STIM_011.jpg	100
412.416	3.226	3226.3	navigation	Trial1	navigation/STIM_011.jpg	99
418.121	2.012	2012.2	navigation	Trial1	navigation/STIM_011.jpg	100
423.11	3.349	3348.6	navigation	Trial1	navigation/STIM_011.jpg	100
430.102	1.718	1718.3	navigation	Trial1	navigation/STIM_011.jpg	99
434.195	1.34	1339.9	pointing	Trial1	pointing/STIM_000.jpg	99
437.662	1.044	1043.6	pointing	Trial1	pointing/STIM_000.jpg	100
441.215	1.061	1061.3	pointing	Trial1	pointing/STIM_000.jpg	99
446.242	0.914	913.8	pointing	Trial1	pointing/STIM_000.jpg	99
450.672	1.005	1004.8	pointing	Trial1	pointing/STIM_000.jpg	100
454.237	0.792	792.0	pointing	Trial1	pointing/STIM_000.jpg	99
458.586	0.851	851.0	pointing	Trial1	pointing/STIM_001.jpg	99
461.887	1.077	1076.8	pointing	Trial1	pointing/STIM_001.jpg	99
466.749	0.946	946.2	pointing	Trial1	pointing/STIM_001.jpg	99
471.144	1.293	1292.8	pointing	Trial1	pointing/STIM_001.jpg	100
475.57	1.087	1086.7	pointing	Trial1	pointing/STIM_001.jpg	100
479.558	0.998	998.3	pointing	Trial1	pointing/STIM_001.jpg	99
482.959	1.037	1037.4	pointing	Trial1	pointing/STIM_002.jpg	100
486.783	0.972	972.4	pointing	Trial1	pointing/STIM_002.jpg	99
490.435	1.219	1218.8	pointing	Trial1	pointing/STIM_002.jpg	99
495.603	1.28	1279.5	pointing	Trial1	pointing/STIM_002.jpg	99
499.26	1.011	1011.1	pointing	Trial1	pointing/STIM_002.jpg	99
503.559	1.092	1091.5	pointing	Trial1	pointing/STIM_002.jpg	100
507.406	1.292	1292.4	pointing	Trial1	pointing/STIM_003.jpg	100
511.652	1.061	1061.3	pointing	Trial1	pointing/STIM_003.jpg	100
515.91	0.978	978.2	pointing	Trial1	pointing/STIM_003.jpg	99
519.142	1.251	1250.8	pointing	Trial1	pointing/STIM_003.jpg	99
522.797	1.11	1110.2	pointing	Trial1	pointing/STIM_003.jpg	100
526.476	1.01	1009.9	pointing	Trial1	pointing/STIM_003.jpg	99
530.198	1.223	1223.4	pointing	Trial1	pointing/STIM_004.jpg	100
535.404	1.415	1414.7	pointing	Trial1	pointing/STIM_004.jpg	100
539.562	1.401	1401.4	pointing	Trial1	pointing/STIM_004.jpg	100
543.684	1.06	1059.7	pointing	Trial1	pointing/STIM_004.jpg	99
547.709	1.365	1365.2	pointing	Trial1	pointing/STIM_004.jpg	100
552.137	0.809	808.9	pointing	Trial1	pointing/STIM_004.jpg	100
555.407	1.422	1421.7	pointing	Trial1	pointing/STIM_005.jpg	99
559.961	1.17	1169.6	pointing	Trial1	pointing/STIM_005.jpg	100
563.434	1.006	1005.6	pointing	Trial1	pointing/STIM_005.jpg	100
568.215	1.282	1282.3	pointing	Trial1	pointing/STIM_005.jpg	99
571.923	0.774	774.2	pointing	Trial1	pointing/STIM_005.jpg	99
576.102	1.393	1393.4	pointing	Trial1	pointing/STIM_005.jpg	100
580.74	1.043	1042.7	pointing	Trial1	pointing/STIM_006.jpg	99
584.944	0.802	801.7	pointing	Trial1	pointing/STIM_006.jpg	99
588.276	1.398	1397.8	pointing	Trial1	pointing/STIM_006.jpg	100
593.624	0.794	794.4	pointing	Trial1	pointing/STIM_006.jpg	99
597.866	1.046	1045.7	pointing	Trial1	pointing/STIM_006.jpg	99
602.948	1.167	1167.3	pointing	Trial1	pointing/STIM_006.jpg	100
607.768	1.256	1256.5	pointing	Trial1	pointing/STIM_007.jpg	99
611.287	0.998	998.3	pointing	Trial1	pointing/STIM_007.jpg	99
615.133	1.01	1009.5	pointing	Trial1	pointing/STIM_007.jpg	99
618.56	1.279	1279.1	pointing	Trial1	pointing/STIM_007.jpg	99
623.413	0.766	765.6	pointing	Trial1	pointing/STIM_007.jpg	99
627.933	1.304	1304.3	pointing	Trial1	pointing/STIM_007.jpg	99
631.833	1.284	1283.6	pointing	Trial1	pointing/STIM_008.jpg	99
635.27	1.25	1249.8	pointing	Trial1	pointing/STIM_008.jpg	99
639.79	1.361	1361.4	pointing	Trial1	pointing/STIM_008.jpg	100
644.232	0.984	984.3	pointing	Trial1	pointing/STIM_008.jpg	100
648.352	1.02	1019.5	pointing	Trial1	pointing/STIM_008.jpg	99
652.319	0.967	966.9	pointing	Trial1	pointing/STIM_008.jpg	99
656.509	0.821	820.6	pointing	Trial1	pointing/STIM_009.jpg	100
661.068	0.786	785.7	pointing	Trial1	pointing/STIM_009.jpg	99
664.958	1.393	1392.9	pointing	Trial1	pointing/STIM_009.jpg	99
668.476	0.836	836.2	pointing	Trial1	pointing/STIM_009.jpg	100
672.506	0.777	777.0	pointing	Trial1	pointing/STIM_009.jpg	100
676.622	1.348	1348.3	pointing	Trial1	pointing/STIM_009.jpg	100
681.85	1.428	1428.2	pointing	Trial1	pointing/STIM_010.jpg	100
686.12	0.921	920.9	pointing	Trial1	pointing/STIM_010.jpg	100
690.613	1.419	1418.7	pointing	Trial1	pointing/STIM_010.jpg	100
695.854	1.104	1104.5	pointing	Trial1	pointing/STIM_010.jpg	100
700.402	0.842	842.4	pointing	Trial1	pointing/STIM_010.jpg	99
703.743	1.116	1116.3	pointing	Trial1	pointing/STIM_010.jpg	99
708.099	1.27	1269.5	pointing	Trial1	pointing/STIM_011.jpg	100
712.332	1.054	1053.9	pointing	Trial1	pointing/STIM_011.jpg	100
717.003	1.191	1191.2	pointing	Trial1	pointing/STIM_011.jpg	100
720.692	1.418	1418.3	pointing	Trial1	pointing/STIM_011.jpg	99
724.965	1.26	1260.1	pointing	Trial1	pointing/STIM_011.jpg	100
728.844	0.852	852.0	pointing	Trial1	pointing/STIM_011.jpg	99
731.923	3.253	3252.8	navigation	Trial2	navigation/STIM_000.jpg	99
738.673	1.534	1534.4	navigation	Trial2	navigation/STIM_000.jpg	100
743.011	2.337	2336.8	navigation	Trial2	navigation/STIM_000.jpg	99
749.223	2.652	2652.4	navigation	Trial2	navigation/STIM_000.jpg	99
754.088	2.216	2216.1	navigation	Trial2	navigation/STIM_000.jpg	99
758.549	2.234	2234.3	navigation	Trial2	navigation/STIM_000.jpg	99
763.745	2.451	2451.4	navigation	Trial2	navigation/STIM_001.jpg	100
768.499	2.715	2714.7	navigation	Trial2	navigation/STIM_001.jpg	99
775.322	1.778	1777.7	navigation	Trial2	navigation/STIM_001.jpg	99
779.813	2.083	2082.8	navigation	Trial2	navigation/STIM_001.jpg	99
785.156	1.854	1854.0	navigation	Trial2	navigation/STIM_001.jpg	100
790.849	2.123	2122.7	navigation	Trial2	navigation/STIM_001.jpg	99
795.4	1.964	1963.6	navigation	Trial2	navigation/STIM_002.jpg	100
799.561	2.763	2762.9	navigation	Trial2	navigation/STIM_002.jpg	100
806.39	2.466	2466.5	navigation	Trial2	navigation/STIM_002.jpg	99
811.673	2.133	2132.9	navigation	Trial2	navigation/STIM_002.jpg	100
816.897	2.685	2684.6	navigation	Trial2	navigation/STIM_002.jpg	100
823.164	2.256	2256.4	navigation	Trial2	navigation/STIM_002.jpg	100
827.788	3.0	2999.8	navigation	Trial2	navigation/STIM_003.jpg	99
834.388	1.668	1668.3	navigation	Trial2	navigation/STIM_003.jpg	99
838.729	2.816	2816.5	navigation	Trial2	navigation/STIM_003.jpg	100
844.744	2.813	2813.4	navigation	Trial2	navigation/STIM_003.jpg	99
850.814	2.644	2643.5	navigation	Trial2	navigation/STIM_003.jpg	99
855.888	2.72	2720.2	navigation	Trial2	navigation/STIM_003.jpg	99
861.613	3.282	3281.5	navigation	Trial2	navigation/STIM_004.jpg	100
868.318	1.887	1886.9	navigation	Trial2	navigation/STIM_004.jpg	99
874.239	3.436	3436.5	navigation	Trial2	navigation/STIM_004.jpg	99
881.431	2.504	2504.0	navigation	Trial2	navigation/STIM_004.jpg	100
887.742	1.661	1661.4	navigation	Trial2	navigation/STIM_004.jpg	99
892.321	3.089	3088.7	navigation	Trial2	navigation/STIM_004.jpg	100
897.945	2.958	2957.6	navigation	Trial2	navigation/STIM_005.jpg	99
904.863	3.305	3304.7	navigation	Trial2	navigation/STIM_005.jpg	99
911.763	1.488	1487.8	navigation	Trial2	navigation/STIM_005.jpg	99
915.544	2.537	2536.9	navigation	Trial2	navigation/STIM_005.jpg	100
920.99	2.722	2721.9	navigation	Trial2	navigation/STIM_005.jpg	99
926.165	3.04	3039.6	navigation	Trial2	navigation/STIM_005.jpg	100
932.142	2.326	2326.2	navigation	Trial2	navigation/STIM_006.jpg	100
937.237	3.54	3540.4	navigation	Trial2	navigation/STIM_006.jpg	99
944.847	1.591	1591.1	navigation	Trial2	navigation/STIM_006.jpg	100
948.601	2.425	2425.1	navigation	Trial2	navigation/STIM_006.jpg	99
953.574	3.199	3199.0	navigation	Trial2	navigation/STIM_006.jpg	100
959.218	2.794	2794.3	navigation	Trial2	navigation/STIM_006.jpg	99
965.737	1.681	1681.2	navigation	Trial2	navigation/STIM_007.jpg	100
969.913	2.234	2234.5	navigation	Trial2	navigation/STIM_007.jpg	100
975.841	1.659	1659.0	navigation	Trial2	navigation/STIM_007.jpg	99
980.89	1.895	1895.1	navigation	Trial2	navigation/STIM_007.jpg	100
986.805	2.273	2272.7	navigation	Trial2	navigation/STIM_007.jpg	99
992.135	2.886	2886.0	navigation	Trial2	navigation/STIM_007.jpg	99
998.901	3.373	3372.7	navigation	Trial2	navigation/STIM_008.jpg	99
1005.851	3.393	3392.6	navigation	Trial2	navigation/STIM_008.jpg	99
1011.931	3.443	3443.1	navigation	Trial2	navigation/STIM_008.jpg	100
1018.052	3.146	3145.5	navigation	Trial2	navigation/STIM_008.jpg	100
1023.783	1.44	1440.2	navigation	Trial2	navigation/STIM_008.jpg	100
1028.126	1.89	1889.5	navigation	Trial2	navigation/STIM_008.jpg	99
1033.881	1.633	1633.3	navigation	Trial2	navigation/STIM_009.jpg	100
1039.128	2.667	2667.0	navigation	Trial2	navigation/STIM_009.jpg	100
1044.549	1.721	1720.7	navigation	Trial2	navigation/STIM_009.jpg	100
1049.639	2.074	2073.9	navigation	Trial2	navigation/STIM_009.jpg	100
1055.713	2.289	2288.8	navigation	Trial2	navigation/STIM_009.jpg	99
1060.722	2.695	2695.1	navigation	Trial2	navigation/STIM_009.jpg	99
1065.777	1.75	1749.6	navigation	Trial2	navigation/STIM_010.jpg	99
1071.404	3.787	3786.8	navigation	Trial2	navigation/STIM_010.jpg	100
1079.346	2.442	2442.5	navigation	Trial2	navigation/STIM_010.jpg	100
1084.799	3.177	3177.0	navigation	Trial2	navigation/STIM_010.jpg	99
1091.703	3.026	3026.2	navigation	Trial2	navigation/STIM_010.jpg	99
1097.092	1.869	1869.0	navigation	Trial2	navigation/STIM_010.jpg	100
1101.401	2.586	2585.7	navigation	Trial2	navigation/STIM_011.jpg	99
1106.904	2.983	2982.6	navigation	Trial2	navigation/STIM_011.jpg	99
1112.29	3.421	3421.1	navigation	Trial2	navigation/STIM_011.jpg	99
1118.151	1.348	1348.5	navigation	Trial2	navigation/STIM_011.jpg	100
1122.2	3.311	3310.6	navigation	Trial2	navigation/STIM_011.jpg	100
1127.848	3.128	3127.8	navigation	Trial2	navigation/STIM_011.jpg	99
1134.739	0.927	926.9	pointing	Trial2	pointing/STIM_000.jpg	99
1138.02	1.4	1399.6	pointing	Trial2	pointing/STIM_000.jpg	99
1142.57	0.795	795.0	pointing	Trial2	pointing/STIM_000.jpg	99
1146.052	1.184	1183.9	pointing	Trial2	pointing/STIM_000.jpg	100
1149.845	0.975	975.3	pointing	Trial2	pointing/STIM_000.jpg	100
1154.466	0.824	823.9	pointing	Trial2	pointing/STIM_000.jpg	99
1158.274	0.946	946.1	pointing	Trial2	pointing/STIM_001.jpg	100
1161.273	1.397	1397.3	pointing	Trial2	pointing/STIM_001.jpg	100
1164.929	1.076	1076.5	pointing	Trial2	pointing/STIM_001.jpg	100
1169.362	0.987	987.0	pointing	Trial2	pointing/STIM_001.jpg	100
1172.7	0.87	870.5	pointing	Trial2	pointing/STIM_001.jpg	99
1176.683	1.134	1133.5	pointing	Trial2	pointing/STIM_001.jpg	100
1181.591	0.929	928.6	pointing	Trial2	pointing/STIM_002.jpg	99
1186.533	1.165	1165.4	pointing	Trial2	pointing/STIM_002.jpg	100
1190.092	0.824	824.0	pointing	Trial2	pointing/STIM_002.jpg	99
1194.032	1.209	1209.0	pointing	Trial2	pointing/STIM_002.jpg	100
1198.783	1.048	1048.0	pointing	Trial2	pointing/STIM_002.jpg	99
1203.393	1.334	1333.9	pointing	Trial2	pointing/STIM_002.jpg	100
1208.236	0.905	905.3	pointing	Trial2	pointing/STIM_003.jpg	99
1211.22	0.803	803.4	pointing	Trial2	pointing/STIM_003.jpg	100
1215.555	0.807	807.3	pointing	Trial2	pointing/STIM_003.jpg	99
1219.446	1.357	1357.1	pointing	Trial2	pointing/STIM_003.jpg	99
1223.276	0.773	772.6	pointing	Trial2	pointing/STIM_003.jpg	99
1227.052	1.418	1418.3	pointing	Trial2	pointing/STIM_003.jpg	100
1232.537	1.378	1378.3	pointing	Trial2	pointing/STIM_004.jpg	100
1237.233	0.837	836.8	pointing	Trial2	pointing/STIM_004.jpg	99
1241.57	1.388	1388.1	pointing	Trial2	pointing/STIM_004.jpg	99
1245.818	0.775	774.9	pointing	Trial2	pointing/STIM_004.jpg	100
1250.304	1.328	1327.9	pointing	Trial2	pointing/STIM_004.jpg	100
1254.537	1.083	1082.8	pointing	Trial2	pointing/STIM_004.jpg	99
1258.294	1.045	1045.4	pointing	Trial2	pointing/STIM_005.jpg	99
1261.599	1.222	1222.3	pointing	Trial2	pointing/STIM_005.jpg	100
1265.591	1.414	1414.3	pointing	Trial2	pointing/STIM_005.jpg	100
1270.16	1.057	1057.3	pointing	Trial2	pointing/STIM_005.jpg	100
1274.997	0.866	866.3	pointing	Trial2	pointing/STIM_005.jpg	100
1279.809	0.865	864.8	pointing	Trial2	pointing/STIM_005.jpg	99
1283.93	1.099	1098.7	pointing	Trial2	pointing/STIM_006.jpg	99
1288.82	1.366	1365.8	pointing	Trial2	pointing/STIM_006.jpg	99
1292.967	1.277	1276.7	pointing	Trial2	pointing/STIM_006.jpg	100
1297.689	0.798	798.5	pointing	Trial2	pointing/STIM_006.jpg	99
1301.489	1.189	1188.9	pointing	Trial2	pointing/STIM_006.jpg	100
1305.331	1.357	1357.4	pointing	Trial2	pointing/STIM_006.jpg	99
1310.636	0.992	991.7	pointing	Trial2	pointing/STIM_007.jpg	99
1313.698	0.925	925.3	pointing	Trial2	pointing/STIM_007.jpg	100
1317.446	0.943	943.0	pointing	Trial2	pointing/STIM_007.jpg	99
1321.178	0.953	952.7	pointing	Trial2	pointing/STIM_007.jpg	100
1324.31	1.429	1429.3	pointing	Trial2	pointing/STIM_007.jpg	99
1329.223	1.118	1118.2	pointing	Trial2	pointing/STIM_007.jpg	100
1333.761	1.284	1283.6	pointing	Trial2	pointing/STIM_008.jpg	99
1338.04	0.834	833.9	pointing	Trial2	pointing/STIM_008.jpg	100
1342.046	0.923	922.7	pointing	Trial2	pointing/STIM_008.jpg	100
1345.405	1.176	1176.3	pointing	Trial2	pointing/STIM_008.jpg	99
1349.222	1.298	1297.5	pointing	Trial2	pointing/STIM_008.jpg	100
1354.527	1.305	1305.1	pointing	Trial2	pointing/STIM_008.jpg	99
1358.362	0.866	866.4	pointing	Trial2	pointing/STIM_009.jpg	99
1362.371	1.279	1279.1	pointing	Trial2	pointing/STIM_009.jpg	100
1367.677	1.23	1229.8	pointing	Trial2	pointing/STIM_009.jpg	100
1371.742	1.001	1000.8	pointing	Trial2	pointing/STIM_009.jpg	100
1375.368	1.374	1374.3	pointing	Trial2	pointing/STIM_009.jpg	99
1379.129	0.987	987.3	pointing	Trial2	pointing/STIM_009.jpg	100
1382.483	0.914	913.6	pointing	Trial2	pointing/STIM_010.jpg	99
1387.346	0.805	805.4	pointing	Trial2	pointing/STIM_010.jpg	100
1390.995	0.955	954.7	pointing	Trial2	pointing/STIM_010.jpg	99
1395.818	1.237	1237.1	pointing	Trial2	pointing/STIM_010.jpg	100
1399.516	1.419	1418.9	pointing	Trial2	pointing/STIM_010.jpg	100
1404.888	1.093	1092.6	pointing	Trial2	pointing/STIM_010.jpg	99
1409.03	1.317	1317.0	pointing	Trial2	pointing/STIM_011.jpg	99
1413.336	0.886	885.6	pointing	Trial2	pointing/STIM_011.jpg	100
1417.459	1.226	1226.0	pointing	Trial2	pointing/STIM_011.jpg	100
1421.604	0.968	968.5	pointing	Trial2	pointing/STIM_011.jpg	99
1425.719	1.222	1221.6	pointing	Trial2	pointing/STIM_011.jpg	100
1429.825	0.815	814.9	pointing	Trial2	pointing/STIM_011.jpg	99
1433.827	1.433	1433.0	navigation	Trial3	navigation/STIM_000.jpg	99
1438.586	2.919	2918.9	navigation	Trial3	navigation/STIM_000.jpg	99
1444.166	2.53	2530.1	navigation	Trial3	navigation/STIM_000.jpg	99
1449.444	3.099	3098.8	navigation	Trial3	navigation/STIM_000.jpg	100
1456.626	2.78	2780.4	navigation	Trial3	navigation/STIM_000.jpg	100
1463.125	2.261	2261.0	navigation	Trial3	navigation/STIM_000.jpg	100
1467.713	2.16	2159.7	navigation	Trial3	navigation/STIM_001.jpg	99
1472.743	2.683	2683.1	navigation	Trial3	navigation/STIM_001.jpg	99
1479.148	3.031	3031.2	navigation	Trial3	navigation/STIM_001.jpg	99
1485.184	1.48	1480.2	navigation	Trial3	navigation/STIM_001.jpg	100
1490.426	1.824	1824.5	navigation	Trial3	navigation/STIM_001.jpg	100
1496.098	1.539	1538.6	navigation	Trial3	navigation/STIM_001.jpg	100
1499.993	2.011	2010.8	navigation	Trial3	navigation/STIM_002.jpg	100
1505.89	3.074	3073.5	navigation	Trial3	navigation/STIM_002.jpg	100
1511.978	1.733	1732.9	navigation	Trial3	navigation/STIM_002.jpg	100
1517.668	2.873	2872.7	navigation	Trial3	navigation/STIM_002.jpg	100
1522.767	2.207	2207.0	navigation	Trial3	navigation/STIM_002.jpg	99
1527.542	2.585	2585.0	navigation	Trial3	navigation/STIM_002.jpg	100
1532.876	2.909	2908.8	navigation	Trial3	navigation/STIM_003.jpg	100
1539.082	2.339	2339.3	navigation	Trial3	navigation/STIM_003.jpg	99
1544.93	2.547	2546.9	navigation	Trial3	navigation/STIM_003.jpg	100
1549.708	2.154	2154.2	navigation	Trial3	navigation/STIM_003.jpg	99
1553.967	2.286	2286.0	navigation	Trial3	navigation/STIM_003.jpg	99
1558.987	3.073	3073.0	navigation	Trial3	navigation/STIM_003.jpg	99
1565.902	1.649	1649.4	navigation	Trial3	navigation/STIM_004.jpg	99
1569.991	1.478	1478.0	navigation	Trial3	navigation/STIM_004.jpg	100
1574.701	2.428	2427.7	navigation	Trial3	navigation/STIM_004.jpg	99
1580.247	3.059	3058.8	navigation	Trial3	navigation/STIM_004.jpg	99
1585.531	2.769	2768.6	navigation	Trial3	navigation/STIM_004.jpg	99
1591.275	1.957	1957.0	navigation	Trial3	navigation/STIM_004.jpg	99
1596.011	2.22	2220.1	navigation	Trial3	navigation/STIM_005.jpg	100
1600.671	1.963	1963.0	navigation	Trial3	navigation/STIM_005.jpg	100
1605.162	2.092	2092.4	navigation	Trial3	navigation/STIM_005.jpg	99
1609.97	1.545	1544.9	navigation	Trial3	navigation/STIM_005.jpg	100
1615.532	1.421	1421.4	navigation	Trial3	navigation/STIM_005.jpg	99
1620.123	1.716	1716.3	navigation	Trial3	navigation/STIM_005.jpg	100
1624.106	2.362	2361.9	navigation	Trial3	navigation/STIM_006.jpg	99
1629.842	3.224	3224.3	navigation	Trial3	navigation/STIM_006.jpg	99
1637.142	1.875	1875.0	navigation	Trial3	navigation/STIM_006.jpg	99
1642.818	1.5	1500.4	navigation	Trial3	navigation/STIM_006.jpg	100
1647.916	2.369	2368.9	navigation	Trial3	navigation/STIM_006.jpg	99
1653.698	2.766	2766.4	navigation	Trial3	navigation/STIM_006.jpg	100
1659.161	2.822	2822.1	navigation	Trial3	navigation/STIM_007.jpg	100
1664.683	1.491	1490.7	navigation	Trial3	navigation/STIM_007.jpg	99
1668.789	2.396	2396.4	navigation	Trial3	navigation/STIM_007.jpg	99
1673.435	1.564	1564.4	navigation	Trial3	navigation/STIM_007.jpg	99
1677.563	2.444	2444.2	navigation	Trial3	navigation/STIM_007.jpg	99
1682.546	2.724	2724.1	navigation	Trial3	navigation/STIM_007.jpg	100
1688.82	2.439	2439.2	navigation	Trial3	navigation/STIM_008.jpg	99
1694.776	2.16	2160.4	navigation	Trial3	navigation/STIM_008.jpg	99
1700.046	3.125	3125.0	navigation	Trial3	navigation/STIM_008.jpg	100
1706.321	2.639	2638.8	navigation	Trial3	navigation/STIM_008.jpg	99
1712.872	3.166	3165.8	navigation	Trial3	navigation/STIM_008.jpg	100
1719.021	1.632	1632.2	navigation	Trial3	navigation/STIM_008.jpg	100
1724.424	2.929	2928.7	navigation	Trial3	navigation/STIM_009.jpg	100
1731.403	1.695	1695.2	navigation	Trial3	navigation/STIM_009.jpg	99
1736.825	1.97	1969.8	navigation	Trial3	navigation/STIM_009.jpg	99
1741.248	2.689	2689.1	navigation	Trial3	navigation/STIM_009.jpg	100
1747.801	2.8	2800.5	navigation	Trial3	navigation/STIM_009.jpg	100
1754.251	1.788	1788.1	navigation	Trial3	navigation/STIM_009.jpg	100
1760.118	2.184	2183.8	navigation	Trial3	navigation/STIM_010.jpg	100
1765.892	3.28	3280.4	navigation	Trial3	navigation/STIM_010.jpg	99
1772.1	3.215	3215.2	navigation	Trial3	navigation/STIM_010.jpg	100
1778.904	1.897	1896.7	navigation	Trial3	navigation/STIM_010.jpg	99
1783.766	1.86	1860.0	navigation	Trial3	navigation/STIM_010.jpg	99
1788.736	2.234	2233.6	navigation	Trial3	navigation/STIM_010.jpg	100
1794.178	1.588	1588.5	navigation	Trial3	navigation/STIM_011.jpg	99
1798.966	1.566	1565.6	navigation	Trial3	navigation/STIM_011.jpg	99
1803.71	1.717	1716.9	navigation	Trial3	navigation/STIM_011.jpg	100
1807.574	2.328	2327.6	navigation	Trial3	navigation/STIM_011.jpg	99
1812.997	1.992	1991.5	navigation	Trial3	navigation/STIM_011.jpg	100
1817.937	2.397	2397.2	navigation	Trial3	navigation/STIM_011.jpg	99
1822.787	1.37	1369.9	pointing	Trial3	pointing/STIM_000.jpg	100
1826.881	1.01	1009.5	pointing	Trial3	pointing/STIM_000.jpg	99
1831.067	1.334	1334.5	pointing	Trial3	pointing/STIM_000.jpg	99
1835.47	1.121	1121.0	pointing	Trial3	pointing/STIM_000.jpg	99
1839.007	1.054	1054.1	pointing	Trial3	pointing/STIM_000.jpg	100
1842.537	1.222	1222.1	pointing	Trial3	pointing/STIM_000.jpg	99
1846.174	1.221	1220.7	pointing	Trial3	pointing/STIM_001.jpg	99
1850.018	1.071	1071.0	pointing	Trial3	pointing/STIM_001.jpg	99
1854.522	1.062	1062.2	pointing	Trial3	pointing/STIM_001.jpg	100
1858.393	0.852	852.2	pointing	Trial3	pointing/STIM_001.jpg	100
1861.375	1.4	1399.8	pointing	Trial3	pointing/STIM_001.jpg	100
1865.792	1.226	1225.6	pointing	Trial3	pointing/STIM_001.jpg	99
1869.566	1.075	1075.3	pointing	Trial3	pointing/STIM_002.jpg	100
1872.706	1.257	1256.7	pointing	Trial3	pointing/STIM_002.jpg	99
1876.306	1.274	1274.2	pointing	Trial3	pointing/STIM_002.jpg	99
1881.248	1.433	1432.7	pointing	Trial3	pointing/STIM_002.jpg	99
1885.457	0.989	989.4	pointing	Trial3	pointing/STIM_002.jpg	99
1889.455	1.352	1352.3	pointing	Trial3	pointing/STIM_002.jpg	99
1893.213	0.972	971.9	pointing	Trial3	pointing/STIM_003.jpg	100
1897.606	1.26	1259.6	pointing	Trial3	pointing/STIM_003.jpg	100
1901.381	1.075	1074.8	pointing	Trial3	pointing/STIM_003.jpg	100
1904.9	0.821	821.1	pointing	Trial3	pointing/STIM_003.jpg	100
1909.395	0.98	979.7	pointing	Trial3	pointing/STIM_003.jpg	99
1914.103	1.246	1246.0	pointing	Trial3	pointing/STIM_003.jpg	99
1919.094	1.155	1154.9	pointing	Trial3	pointing/STIM_004.jpg	100
1922.43	1.076	1076.1	pointing	Trial3	pointing/STIM_004.jpg	99
1927.197	1.4	1399.5	pointing	Trial3	pointing/STIM_004.jpg	100
1932.259	1.344	1344.1	pointing	Trial3	pointing/STIM_004.jpg	100
1937.109	1.251	1250.6	pointing	Trial3	pointing/STIM_004.jpg	100
1942.018	0.914	913.8	pointing	Trial3	pointing/STIM_004.jpg	99
1946.014	0.988	987.8	pointing	Trial3	pointing/STIM_005.jpg	99
1950.884	1.139	1139.0	pointing	Trial3	pointing/STIM_005.jpg	100
1955.865	1.255	1255.3	pointing	Trial3	pointing/STIM_005.jpg	100
1960.666	1.054	1054.4	pointing	Trial3	pointing/STIM_005.jpg	100
1964.495	0.854	853.6	pointing	Trial3	pointing/STIM_005.jpg	99
1968.387	1.136	1135.5	pointing	Trial3	pointing/STIM_005.jpg	100
1971.873	1.334	1334.2	pointing	Trial3	pointing/STIM_006.jpg	100
1975.877	0.859	858.6	pointing	Trial3	pointing/STIM_006.jpg	99
1980.373	0.788	787.8	pointing	Trial3	pointing/STIM_006.jpg	99
1983.457	0.938	938.1	pointing	Trial3	pointing/STIM_006.jpg	100
1987.608	1.05	1049.6	pointing	Trial3	pointing/STIM_006.jpg	99
1991.531	1.164	1164.2	pointing	Trial3	pointing/STIM_006.jpg	100
1995.677	1.421	1421.2	pointing	Trial3	pointing/STIM_007.jpg	100
2001.016	1.372	1372.1	pointing	Trial3	pointing/STIM_007.jpg	99
2005.396	0.861	861.4	pointing	Trial3	pointing/STIM_007.jpg	99
2009.229	0.872	872.3	pointing	Trial3	pointing/STIM_007.jpg	100
2013.475	1.183	1182.7	pointing	Trial3	pointing/STIM_007.jpg	100
2018.253	0.947	947.2	pointing	Trial3	pointing/STIM_007.jpg	99
2022.656	1.078	1077.6	pointing	Trial3	pointing/STIM_008.jpg	100
2026.307	0.967	967.0	pointing	Trial3	pointing/STIM_008.jpg	100
2030.319	0.816	815.6	pointing	Trial3	pointing/STIM_008.jpg	99
2034.91	1.379	1379.0	pointing	Trial3	pointing/STIM_008.jpg	100
2038.888	1.028	1028.4	pointing	Trial3	pointing/STIM_008.jpg	100
2043.637	0.971	970.7	pointing	Trial3	pointing/STIM_008.jpg	100
2048.591	1.094	1094.1	pointing	Trial3	pointing/STIM_009.jpg	99
2053.538	0.781	781.3	pointing	Trial3	pointing/STIM_009.jpg	100
2058.163	1.243	1242.7	pointing	Trial3	pointing/STIM_009.jpg	100
2062.053	1.136	1135.5	pointing	Trial3	pointing/STIM_009.jpg	100
2065.362	1.276	1275.7	pointing	Trial3	pointing/STIM_009.jpg	100
2070.012	1.035	1035.3	pointing	Trial3	pointing/STIM_009.jpg	99
2074.736	1.304	1304.5	pointing	Trial3	pointing/STIM_010.jpg	99
2079.66	0.765	765.2	pointing	Trial3	pointing/STIM_010.jpg	99
2083.873	0.782	781.5	pointing	Trial3	pointing/STIM_010.jpg	99
2087.327	0.947	946.9	pointing	Trial3	pointing/STIM_010.jpg	100
2092.287	0.818	817.6	pointing	Trial3	pointing/STIM_010.jpg	100
2096.308	0.775	775.3	pointing	Trial3	pointing/STIM_010.jpg	100
2100.671	1.36	1360.5	pointing	Trial3	pointing/STIM_011.jpg	99
2104.599	1.17	1169.6	pointing	Trial3	pointing/STIM_011.jpg	100
2108.142	0.808	808.4	pointing	Trial3	pointing/STIM_011.jpg	99
2112.541	1.096	1095.8	pointing	Trial3	pointing/STIM_011.jpg	99
2117.063	1.312	1311.8	pointing	Trial3	pointing/STIM_011.jpg	100
2121.933	1.046	1045.7	pointing	Trial3	pointing/STIM_011.jpg	100
