onset	duration	accuracy_binary	trial_type	learning_stage	stimulus
0.0	2.339	1	navigation	Trial1	navigation/STIM_000.jpg
6.281	3.322	1	navigation	Trial1	navigation/STIM_000.jpg
13.121	2.489	1	navigation	Trial1	navigation/STIM_000.jpg
19.485	3.526	1	navigation	Trial1	navigation/STIM_000.jpg
26.257	2.982	1	navigation	Trial1	navigation/STIM_000.jpg
33.008	1.571	1	navigation	Trial1	navigation/STIM_000.jpg
37.913	3.348	0	navigation	Trial1	navigation/STIM_001.jpg
43.489	3.658	1	navigation	Trial1	navigation/STIM_001.jpg
50.35	1.902	1	navigation	Trial1	navigation/STIM_001.jpg
55.954	3.44	0	navigation	Trial1	navigation/STIM_001.jpg
62.954	2.465	1	navigation	Trial1	navigation/STIM_001.jpg
67.961	1.776	1	navigation	Trial1	navigation/STIM_001.jpg
73.678	3.358	0	navigation	Trial1	navigation/STIM_002.jpg
79.858	2.243	0	navigation	Trial1	navigation/STIM_002.jpg
84.998	3.456	0	navigation	Trial1	navigation/STIM_002.jpg
92.414	2.92	1	navigation	Trial1	navigation/STIM_002.jpg
98.55	2.859	1	navigation	Trial1	navigation/STIM_002.jpg
103.732	2.847	1	navigation	Trial1	navigation/STIM_002.jpg
109.63	3.805	1	navigation	Trial1	navigation/STIM_003.jpg
116.882	2.948	1	navigation	Trial1	navigation/STIM_003.jpg
122.432	3.562	1	navigation	Trial1	navigation/STIM_003.jpg
128.963	2.735	1	navigation	Trial1	navigation/STIM_003.jpg
135.676	2.056	1	navigation	Trial1	navigation/STIM_003.jpg
139.785	2.959	0	navigation	Trial1	navigation/STIM_003.jpg
145.24	1.794	0	navigation	Trial1	navigation/STIM_004.jpg
150.079	2.332	0	navigation	Trial1	navigation/STIM_004.jpg
154.47	1.829	1	navigation	Trial1	navigation/STIM_004.jpg
159.163	2.847	0	navigation	Trial1	navigation/STIM_004.jpg
165.169	1.624	1	navigation	Trial1	navigation/STIM_004.jpg
170.674	2.082	1	navigation	Trial1	navigation/STIM_004.jpg
176.465	3.275	1	navigation	Trial1	navigation/STIM_005.jpg
183.62	2.723	0	navigation	Trial1	navigation/STIM_005.jpg
189.495	2.92	0	navigation	Trial1	navigation/STIM_005.jpg
195.216	3.017	0	navigation	Trial1	navigation/STIM_005.jpg
200.496	2.804	1	navigation	Trial1	navigation/STIM_005.jpg
206.443	2.513	1	navigation	Trial1	navigation/STIM_005.jpg
212.239	4.208	1	navigation	Trial1	navigation/STIM_006.jpg
220.163	3.171	1	navigation	Trial1	navigation/STIM_006.jpg
226.959	3.147	1	navigation	Trial1	navigation/STIM_006.jpg
233.06	1.499	1	navigation	Trial1	navigation/STIM_006.jpg
237.541	2.19	0	navigation	Trial1	navigation/STIM_006.jpg
242.134	1.969	1	navigation	Trial1	navigation/STIM_006.jpg
247.359	3.969	1	navigation	Trial1	navigation/STIM_007.jpg
255.03	2.992	1	navigation	Trial1	navigation/STIM_007.jpg
261.778	2.578	1	navigation	Trial1	navigation/STIM_007.jpg
268.041	2.301	1	navigation	Trial1	navigation/STIM_007.jpg
274.335	1.563	1	navigation	Trial1	navigation/STIM_007.jpg
279.834	2.023	0	navigation	Trial1	navigation/STIM_007.jpg
285.401	2.529	1	navigation	Trial1	navigation/STIM_008.jpg
291.884	2.169	1	navigation	Trial1	navigation/STIM_008.jpg
297.849	1.575	0	navigation	Trial1	navigation/STIM_008.jpg
302.35	2.811	1	navigation	Trial1	navigation/STIM_008.jpg
309.16	3.247	1	navigation	Trial1	navigation/STIM_008.jpg
315.792	1.607	1	navigation	Trial1	navigation/STIM_008.jpg
320.211	3.856	1	navigation	Trial1	navigation/STIM_009.jpg
326.509	2.798	1	navigation	Trial1	navigation/STIM_009.jpg
333.132	2.156	0	navigation	Trial1	navigation/STIM_009.jpg
337.345	2.176	1	navigation	Trial1	navigation/STIM_009.jpg
341.887	3.099	0	navigation	Trial1	navigation/STIM_009.jpg
348.864	1.77	1	navigation	Trial1	navigation/STIM_009.jpg
353.44	3.615	1	navigation	Trial1	navigation/STIM_010.jpg
360.99	1.941	1	navigation	Trial1	navigation/STIM_010.jpg
365.889	2.298	1	navigation	Trial1	navigation/STIM_010.jpg
371.537	2.846	1	navigation	Trial1	navigation/STIM_010.jpg
376.915	2.877	1	navigation	Trial1	navigation/STIM_010.jpg
383.388	2.155	1	navigation	Trial1	navigation/STIM_010.jpg
389.415	4.141	1	navigation	Trial1	navigation/STIM_011.jpg
397.215	3.405	1	navigation	Trial1	navigation/STIM_011.jpg
403.699	2.787	0	navigation	Trial1	navigation/STIM_011.jpg
409.053	3.503	1	navigation	Trial1	navigation/STIM_011.jpg
416.157	3.032	1	navigation	Trial1	navigation/STIM_011.jpg
422.823	1.752	0	navigation	Trial1	navigation/STIM_011.jpg
428.109	0.846	1	pointing	Trial1	pointing/STIM_000.jpg
431.466	1.159	1	pointing	Trial1	pointing/STIM_000.jpg
436.281	0.978	1	pointing	Trial1	pointing/STIM_000.jpg
439.413	0.971	0	pointing	Trial1	pointing/STIM_000.jpg
443.997	0.792	1	pointing	Trial1	pointing/STIM_000.jpg
448.343	1.23	1	pointing	Trial1	pointing/STIM_000.jpg
452.078	1.01	1	pointing	Trial1	pointing/STIM_001.jpg
455.84	1.24	1	pointing	Trial1	pointing/STIM_001.jpg
459.593	0.838	1	pointing	Trial1	pointing/STIM_001.jpg
462.646	1.024	1	pointing	Trial1	pointing/STIM_001.jpg
467.056	0.924	1	pointing	Trial1	pointing/STIM_001.jpg
471.908	0.817	1	pointing	Trial1	pointing/STIM_001.jpg
476.35	1.239	1	pointing	Trial1	pointing/STIM_002.jpg
480.845	1.016	0	pointing	Trial1	pointing/STIM_002.jpg
485.035	0.749	1	pointing	Trial1	pointing/STIM_002.jpg
489.216	0.878	1	pointing	Trial1	pointing/STIM_002.jpg
493.813	0.864	1	pointing	Trial1	pointing/STIM_002.jpg
498.651	0.9	1	pointing	Trial1	pointing/STIM_002.jpg
502.997	0.902	1	pointing	Trial1	pointing/STIM_003.jpg
506.692	1.065	1	pointing	Trial1	pointing/STIM_003.jpg
511.04	0.853	1	pointing	Trial1	pointing/STIM_003.jpg
513.982	0.753	1	pointing	Trial1	pointing/STIM_003.jpg
517.079	1.181	1	pointing	Trial1	pointing/STIM_003.jpg
521.572	0.847	1	pointing	Trial1	pointing/STIM_003.jpg
525.002	0.759	1	pointing	Trial1	pointing/STIM_004.jpg
528.325	0.832	1	pointing	Trial1	pointing/STIM_004.jpg
532.825	1.269	1	pointing	Trial1	pointing/STIM_004.jpg
536.901	1.259	1	pointing	Trial1	pointing/STIM_004.jpg
541.264	1.08	1	pointing	Trial1	pointing/STIM_004.jpg
544.53	0.774	0	pointing	Trial1	pointing/STIM_004.jpg
547.492	0.948	1	pointing	Trial1	pointing/STIM_005.jpg
550.55	0.806	1	pointing	Trial1	pointing/STIM_005.jpg
553.919	1.137	1	pointing	Trial1	pointing/STIM_005.jpg
557.828	1.057	1	pointing	Trial1	pointing/STIM_005.jpg
561.647	0.751	1	pointing	Trial1	pointing/STIM_005.jpg
564.41	1.233	1	pointing	Trial1	pointing/STIM_005.jpg
569.197	1.249	0	pointing	Trial1	pointing/STIM_006.jpg
573.722	0.923	1	pointing	Trial1	pointing/STIM_006.jpg
577.41	0.901	1	pointing	Trial1	pointing/STIM_006.jpg
580.465	1.099	1	pointing	Trial1	pointing/STIM_006.jpg
584.499	0.868	1	pointing	Trial1	pointing/STIM_006.jpg
587.786	1.192	1	pointing	Trial1	pointing/STIM_006.jpg
591.353	1.013	0	pointing	Trial1	pointing/STIM_007.jpg
596.295	0.882	1	pointing	Trial1	pointing/STIM_007.jpg
599.237	1.136	1	pointing	Trial1	pointing/STIM_007.jpg
603.226	1.082	0	pointing	Trial1	pointing/STIM_007.jpg
606.792	1.117	1	pointing	Trial1	pointing/STIM_007.jpg
610.429	1.214	1	pointing	Trial1	pointing/STIM_007.jpg
614.559	0.839	1	pointing	Trial1	pointing/STIM_008.jpg
617.655	1.233	1	pointing	Trial1	pointing/STIM_008.jpg
621.527	0.856	1	pointing	Trial1	pointing/STIM_008.jpg
625.425	0.72	1	pointing	Trial1	pointing/STIM_008.jpg
628.596	0.836	1	pointing	Trial1	pointing/STIM_008.jpg
632.789	0.785	1	pointing	Trial1	pointing/STIM_008.jpg
637.438	0.722	1	pointing	Trial1	pointing/STIM_009.jpg
641.388	0.771	1	pointing	Trial1	pointing/STIM_009.jpg
644.209	0.902	1	pointing	Trial1	pointing/STIM_009.jpg
647.795	0.881	1	pointing	Trial1	pointing/STIM_009.jpg
652.395	0.739	1	pointing	Trial1	pointing/STIM_009.jpg
656.703	1.05	0	pointing	Trial1	pointing/STIM_009.jpg
660.552	0.8	1	pointing	Trial1	pointing/STIM_010.jpg
665.042	0.752	1	pointing	Trial1	pointing/STIM_010.jpg
668.173	1.261	1	pointing	Trial1	pointing/STIM_010.jpg
672.248	1.283	1	pointing	Trial1	pointing/STIM_010.jpg
676.059	1.152	1	pointing	Trial1	pointing/STIM_010.jpg
679.373	1.209	1	pointing	Trial1	pointing/STIM_010.jpg
684.236	0.694	1	pointing	Trial1	pointing/STIM_011.jpg
688.347	1.043	1	pointing	Trial1	pointing/STIM_011.jpg
693.228	0.743	1	pointing	Trial1	pointing/STIM_011.jpg
697.28	0.84	1	pointing	Trial1	pointing/STIM_011.jpg
701.069	1.11	0	pointing	Trial1	pointing/STIM_011.jpg
705.764	0.838	1	pointing	Trial1	pointing/STIM_011.jpg
710.008	2.587	0	navigation	Trial2	navigation/STIM_000.jpg
714.709	2.343	1	navigation	Trial2	navigation/STIM_000.jpg
720.387	2.308	1	navigation	Trial2	navigation/STIM_000.jpg
725.461	2.473	1	navigation	Trial2	navigation/STIM_000.jpg
730.704	1.234	1	navigation	Trial2	navigation/STIM_000.jpg
735.16	2.223	1	navigation	Trial2	navigation/STIM_000.jpg
741.027	2.391	0	navigation	Trial2	navigation/STIM_001.jpg
746.749	1.633	1	navigation	Trial2	navigation/STIM_001.jpg
751.352	2.844	1	navigation	Trial2	navigation/STIM_001.jpg
756.799	1.502	1	navigation	Trial2	navigation/STIM_001.jpg
761.687	2.852	1	navigation	Trial2	navigation/STIM_001.jpg
767.342	1.563	1	navigation	Trial2	navigation/STIM_001.jpg
771.057	3.032	1	navigation	Trial2	navigation/STIM_002.jpg
776.91	1.536	1	navigation	Trial2	navigation/STIM_002.jpg
781.266	2.962	1	navigation	Trial2	navigation/STIM_002.jpg
787.908	1.394	1	navigation	Trial2	navigation/STIM_002.jpg
792.79	1.424	1	navigation	Trial2	navigation/STIM_002.jpg
797.642	1.7	1	navigation	Trial2	navigation/STIM_002.jpg
802.763	1.926	0	navigation	Trial2	navigation/STIM_003.jpg
806.727	2.387	0	navigation	Trial2	navigation/STIM_003.jpg
811.986	2.137	1	navigation	Trial2	navigation/STIM_003.jpg
817.917	2.391	1	navigation	Trial2	navigation/STIM_003.jpg
823.035	2.701	1	navigation	Trial2	navigation/STIM_003.jpg
829.55	1.948	0	navigation	Trial2	navigation/STIM_003.jpg
835.475	1.776	0	navigation	Trial2	navigation/STIM_004.jpg
839.276	3.276	0	navigation	Trial2	navigation/STIM_004.jpg
846.382	2.807	1	navigation	Trial2	navigation/STIM_004.jpg
852.005	1.945	0	navigation	Trial2	navigation/STIM_004.jpg
857.028	2.517	1	navigation	Trial2	navigation/STIM_004.jpg
861.723	2.767	1	navigation	Trial2	navigation/STIM_004.jpg
867.842	3.061	1	navigation	Trial2	navigation/STIM_005.jpg
874.802	2.67	0	navigation	Trial2	navigation/STIM_005.jpg
879.719	2.408	0	navigation	Trial2	navigation/STIM_005.jpg
884.805	2.627	1	navigation	Trial2	navigation/STIM_005.jpg
889.611	1.36	1	navigation	Trial2	navigation/STIM_005.jpg
894.836	2.769	1	navigation	Trial2	navigation/STIM_005.jpg
899.809	3.142	0	navigation	Trial2	navigation/STIM_006.jpg
905.254	1.651	1	navigation	Trial2	navigation/STIM_006.jpg
909.982	3.042	1	navigation	Trial2	navigation/STIM_006.jpg
915.348	2.944	1	navigation	Trial2	navigation/STIM_006.jpg
921.993	1.37	0	navigation	Trial2	navigation/STIM_006.jpg
926.77	1.577	1	navigation	Trial2	navigation/STIM_006.jpg
931.008	2.386	1	navigation	Trial2	navigation/STIM_007.jpg
937.154	1.395	1	navigation	Trial2	navigation/STIM_007.jpg
941.791	2.231	1	navigation	Trial2	navigation/STIM_007.jpg
947.51	2.031	0	navigation	Trial2	navigation/STIM_007.jpg
951.831	1.348	0	navigation	Trial2	navigation/STIM_007.jpg
956.987	1.308	1	navigation	Trial2	navigation/STIM_007.jpg
961.84	2.754	1	navigation	Trial2	navigation/STIM_008.jpg
966.96	3.334	0	navigation	Trial2	navigation/STIM_008.jpg
973.134	1.479	0	navigation	Trial2	navigation/STIM_008.jpg
977.065	2.067	1	navigation	Trial2	navigation/STIM_008.jpg
981.451	2.789	0	navigation	Trial2	navigation/STIM_008.jpg
987.746	1.82	0	navigation	Trial2	navigation/STIM_008.jpg
991.92	2.91	1	navigation	Trial2	navigation/STIM_009.jpg
997.978	2.709	1	navigation	Trial2	navigation/STIM_009.jpg
1003.037	2.748	1	navigation	Trial2	navigation/STIM_009.jpg
1008.118	2.395	1	navigation	Trial2	navigation/STIM_009.jpg
1013.704	2.036	0	navigation	Trial2	navigation/STIM_009.jpg
1018.342	2.503	1	navigation	Trial2	navigation/STIM_009.jpg
1024.029	2.514	1	navigation	Trial2	navigation/STIM_010.jpg
1028.767	2.708	1	navigation	Trial2	navigation/STIM_010.jpg
1035.374	2.352	1	navigation	Trial2	navigation/STIM_010.jpg
1041.174	2.49	1	navigation	Trial2	navigation/STIM_010.jpg
1047.531	2.959	1	navigation	Trial2	navigation/STIM_010.jpg
1054.419	1.779	1	navigation	Trial2	navigation/STIM_010.jpg
1058.906	2.538	1	navigation	Trial2	navigation/STIM_011.jpg
1064.461	1.86	1	navigation	Trial2	navigation/STIM_011.jpg
1069.198	1.839	0	navigation	Trial2	navigation/STIM_011.jpg
1074.879	2.122	1	navigation	Trial2	navigation/STIM_011.jpg
1079.613	2.785	1	navigation	Trial2	navigation/STIM_011.jpg
1085.767	2.105	0	navigation	Trial2	navigation/STIM_011.jpg
1090.75	0.998	1	pointing	Trial2	pointing/STIM_000.jpg
1095.658	0.729	1	pointing	Trial2	pointing/STIM_000.jpg
1098.815	1.188	1	pointing	Trial2	pointing/STIM_000.jpg
1102.337	0.982	1	pointing	Trial2	pointing/STIM_000.jpg
1106.256	1.028	1	pointing	Trial2	pointing/STIM_000.jpg
1110.826	1.152	0	pointing	Trial2	pointing/STIM_000.jpg
1114.467	1.021	1	pointing	Trial2	pointing/STIM_001.jpg
1119.246	1.054	1	pointing	Trial2	pointing/STIM_001.jpg
1123.828	0.748	1	pointing	Trial2	pointing/STIM_001.jpg
1128.178	1.155	1	pointing	Trial2	pointing/STIM_001.jpg
1132.25	0.826	1	pointing	Trial2	pointing/STIM_001.jpg
1135.384	1.027	1	pointing	Trial2	pointing/STIM_001.jpg
1140.052	0.733	1	pointing	Trial2	pointing/STIM_002.jpg
1143.848	1.201	1	pointing	Trial2	pointing/STIM_002.jpg
1148.452	0.86	1	pointing	Trial2	pointing/STIM_002.jpg
1151.642	0.812	1	pointing	Trial2	pointing/STIM_002.jpg
1155.537	1.252	1	pointing	Trial2	pointing/STIM_002.jpg
1159.75	1.063	0	pointing	Trial2	pointing/STIM_002.jpg
1163.992	1.086	1	pointing	Trial2	pointing/STIM_003.jpg
1168.278	0.776	0	pointing	Trial2	pointing/STIM_003.jpg
1172.712	1.103	1	pointing	Trial2	pointing/STIM_003.jpg
1176.578	0.853	1	pointing	Trial2	pointing/STIM_003.jpg
1179.985	1.02	1	pointing	Trial2	pointing/STIM_003.jpg
1184.529	0.807	1	pointing	Trial2	pointing/STIM_003.jpg
1188.273	0.734	0	pointing	Trial2	pointing/STIM_004.jpg
1191.578	0.96	1	pointing	Trial2	pointing/STIM_004.jpg
1194.873	1.231	1	pointing	Trial2	pointing/STIM_004.jpg
1199.732	0.824	1	pointing	Trial2	pointing/STIM_004.jpg
1203.37	0.969	1	pointing	Trial2	pointing/STIM_004.jpg
1207.191	1.031	1	pointing	Trial2	pointing/STIM_004.jpg
1211.364	0.881	1	pointing	Trial2	pointing/STIM_005.jpg
1215.931	0.747	1	pointing	Trial2	pointing/STIM_005.jpg
1220.501	1.23	1	pointing	Trial2	pointing/STIM_005.jpg
1224.874	0.858	1	pointing	Trial2	pointing/STIM_005.jpg
1229.711	1.011	1	pointing	Trial2	pointing/STIM_005.jpg
1233.368	0.917	1	pointing	Trial2	pointing/STIM_005.jpg
1237.135	1.144	1	pointing	Trial2	pointing/STIM_006.jpg
1242.113	1.076	0	pointing	Trial2	pointing/STIM_006.jpg
1246.585	0.801	1	pointing	Trial2	pointing/STIM_006.jpg
1250.533	1.022	1	pointing	Trial2	pointing/STIM_006.jpg
1255.066	0.721	0	pointing	Trial2	pointing/STIM_006.jpg
1259.053	0.758	0	pointing	Trial2	pointing/STIM_006.jpg
1262.689	0.763	1	pointing	Trial2	pointing/STIM_007.jpg
1266.532	0.78	1	pointing	Trial2	pointing/STIM_007.jpg
1270.277	1.084	1	pointing	Trial2	pointing/STIM_007.jpg
1274.621	1.167	1	pointing	Trial2	pointing/STIM_007.jpg
1277.872	0.86	1	pointing	Trial2	pointing/STIM_007.jpg
1282.546	0.914	1	pointing	Trial2	pointing/STIM_007.jpg
1285.849	0.737	1	pointing	Trial2	pointing/STIM_008.jpg
1289.526	1.138	1	pointing	Trial2	pointing/STIM_008.jpg
1293.437	0.712	1	pointing	Trial2	pointing/STIM_008.jpg
1296.36	0.761	1	pointing	Trial2	pointing/STIM_008.jpg
1301.063	1.065	1	pointing	Trial2	pointing/STIM_008.jpg
1305.074	1.204	1	pointing	Trial2	pointing/STIM_008.jpg
1309.394	1.151	1	pointing	Trial2	pointing/STIM_009.jpg
1314.196	1.098	1	pointing	Trial2	pointing/STIM_009.jpg
1318.305	1.23	1	pointing	Trial2	pointing/STIM_009.jpg
1322.521	0.966	1	pointing	Trial2	pointing/STIM_009.jpg
1325.608	1.26	1	pointing	Trial2	pointing/STIM_009.jpg
1329.781	1.053	1	pointing	Trial2	pointing/STIM_009.jpg
1332.904	0.688	0	pointing	Trial2	pointing/STIM_010.jpg
1336.559	1.148	1	pointing	Trial2	pointing/STIM_010.jpg
1339.866	1.072	1	pointing	Trial2	pointing/STIM_010.jpg
1344.134	1.046	1	pointing	Trial2	pointing/STIM_010.jpg
1348.228	1.156	1	pointing	Trial2	pointing/STIM_010.jpg
1352.221	0.893	1	pointing	Trial2	pointing/STIM_010.jpg
1356.29	1.226	1	pointing	Trial2	pointing/STIM_011.jpg
1361.206	1.056	1	pointing	Trial2	pointing/STIM_011.jpg
1364.622	0.888	1	pointing	Trial2	pointing/STIM_011.jpg
1368.447	1.282	1	pointing	Trial2	pointing/STIM_011.jpg
1373.317	1.087	1	pointing	Trial2	pointing/STIM_011.jpg
1377.182	0.98	1	pointing	Trial2	pointing/STIM_011.jpg
1382.141	2.902	1	navigation	Trial3	navigation/STIM_000.jpg
1387.38	2.806	1	navigation	Trial3	navigation/STIM_000.jpg
1394.119	1.928	0	navigation	Trial3	navigation/STIM_000.jpg
1398.565	1.339	1	navigation	Trial3	navigation/STIM_000.jpg
1402.609	2.445	1	navigation	Trial3	navigation/STIM_000.jpg
1407.129	1.808	1	navigation	Trial3	navigation/STIM_000.jpg
1411.712	1.652	1	navigation	Trial3	navigation/STIM_001.jpg
1416.059	1.443	1	navigation	Trial3	navigation/STIM_001.jpg
1420.323	1.561	1	navigation	Trial3	navigation/STIM_001.jpg
1424.695	2.61	1	navigation	Trial3	navigation/STIM_001.jpg
1430.735	2.396	1	navigation	Trial3	navigation/STIM_001.jpg
1436.64	1.593	1	navigation	Trial3	navigation/STIM_001.jpg
1440.434	2.454	0	navigation	Trial3	navigation/STIM_002.jpg
1446.137	1.276	1	navigation	Trial3	navigation/STIM_002.jpg
1451.337	2.971	1	navigation	Trial3	navigation/STIM_002.jpg
1456.403	2.562	1	navigation	Trial3	navigation/STIM_002.jpg
1462.319	1.639	1	navigation	Trial3	navigation/STIM_002.jpg
1466.611	1.702	1	navigation	Trial3	navigation/STIM_002.jpg
1471.286	2.406	1	navigation	Trial3	navigation/STIM_003.jpg
1477.404	2.035	0	navigation	Trial3	navigation/STIM_003.jpg
1482.095	1.804	1	navigation	Trial3	navigation/STIM_003.jpg
1487.882	1.407	1	navigation	Trial3	navigation/STIM_003.jpg
1493.253	1.47	1	navigation	Trial3	navigation/STIM_003.jpg
1496.818	1.996	1	navigation	Trial3	navigation/STIM_003.jpg
1502.623	2.562	1	navigation	Trial3	navigation/STIM_004.jpg
1507.747	1.297	1	navigation	Trial3	navigation/STIM_004.jpg
1511.932	1.612	0	navigation	Trial3	navigation/STIM_004.jpg
1516.729	2.195	0	navigation	Trial3	navigation/STIM_004.jpg
1522.724	2.201	1	navigation	Trial3	navigation/STIM_004.jpg
1528.291	2.121	1	navigation	Trial3	navigation/STIM_004.jpg
1532.519	1.3	1	navigation	Trial3	navigation/STIM_005.jpg
1536.035	1.443	1	navigation	Trial3	navigation/STIM_005.jpg
1539.846	1.24	1	navigation	Trial3	navigation/STIM_005.jpg
1543.385	1.873	1	navigation	Trial3	navigation/STIM_005.jpg
1549.002	1.266	1	navigation	Trial3	navigation/STIM_005.jpg
1553.964	2.727	1	navigation	Trial3	navigation/STIM_005.jpg
1559.381	1.511	1	navigation	Trial3	navigation/STIM_006.jpg
1563.919	1.623	1	navigation	Trial3	navigation/STIM_006.jpg
1567.881	1.836	1	navigation	Trial3	navigation/STIM_006.jpg
1572.007	1.824	1	navigation	Trial3	navigation/STIM_006.jpg
1577.015	2.175	1	navigation	Trial3	navigation/STIM_006.jpg
1581.413	2.727	1	navigation	Trial3	navigation/STIM_006.jpg
1587.117	1.462	1	navigation	Trial3	navigation/STIM_007.jpg
1590.672	2.157	1	navigation	Trial3	navigation/STIM_007.jpg
1595.807	2.246	0	navigation	Trial3	navigation/STIM_007.jpg
1600.987	1.719	1	navigation	Trial3	navigation/STIM_007.jpg
1605.237	1.532	1	navigation	Trial3	navigation/STIM_007.jpg
1609.71	1.51	1	navigation	Trial3	navigation/STIM_007.jpg
1615.18	1.927	0	navigation	Trial3	navigation/STIM_008.jpg
1620.522	2.189	1	navigation	Trial3	navigation/STIM_008.jpg
1625.604	2.843	1	navigation	Trial3	navigation/STIM_008.jpg
1632.289	2.454	1	navigation	Trial3	navigation/STIM_008.jpg
1638.671	1.458	1	navigation	Trial3	navigation/STIM_008.jpg
1643.913	2.708	1	navigation	Trial3	navigation/STIM_008.jpg
1649.224	2.909	1	navigation	Trial3	navigation/STIM_009.jpg
1655.748	2.914	1	navigation	Trial3	navigation/STIM_009.jpg
1660.86	2.086	1	navigation	Trial3	navigation/STIM_009.jpg
1665.438	2.45	1	navigation	Trial3	navigation/STIM_009.jpg
1671.79	1.355	1	navigation	Trial3	navigation/STIM_009.jpg
1676.351	2.032	1	navigation	Trial3	navigation/STIM_009.jpg
1681.304	1.528	1	navigation	Trial3	navigation/STIM_010.jpg
1686.585	1.87	1	navigation	Trial3	navigation/STIM_010.jpg
1691.732	1.934	1	navigation	Trial3	navigation/STIM_010.jpg
1697.301	2.197	1	navigation	Trial3	navigation/STIM_010.jpg
1703.143	2.478	1	navigation	Trial3	navigation/STIM_010.jpg
1709.549	2.406	1	navigation	Trial3	navigation/STIM_010.jpg
1714.931	2.405	1	navigation	Trial3	navigation/STIM_011.jpg
1719.934	2.124	1	navigation	Trial3	navigation/STIM_011.jpg
1726.043	2.46	1	navigation	Trial3	navigation/STIM_011.jpg
1731.309	1.755	0	navigation	Trial3	navigation/STIM_011.jpg
1735.662	2.61	1	navigation	Trial3	navigation/STIM_011.jpg
1741.355	1.223	1	navigation	Trial3	navigation/STIM_011.jpg
1746.127	0.727	1	pointing	Trial3	pointing/STIM_000.jpg
1749.333	1.081	0	pointing	Trial3	pointing/STIM_000.jpg
1753.459	0.729	1	pointing	Trial3	pointing/STIM_000.jpg
1758.082	1.225	1	pointing	Trial3	pointing/STIM_000.jpg
1761.413	0.846	1	pointing	Trial3	pointing/STIM_000.jpg
1765.158	0.8	1	pointing	Trial3	pointing/STIM_000.jpg
1768.466	1.157	1	pointing	Trial3	pointing/STIM_001.jpg
1772.421	0.935	1	pointing	Trial3	pointing/STIM_001.jpg
1775.44	0.87	1	pointing	Trial3	pointing/STIM_001.jpg
1779.933	0.909	1	pointing	Trial3	pointing/STIM_001.jpg
1784.217	1.087	0	pointing	Trial3	pointing/STIM_001.jpg
1787.742	1.091	1	pointing	Trial3	pointing/STIM_001.jpg
1791.58	0.808	0	pointing	Trial3	pointing/STIM_002.jpg
1795.145	0.774	1	pointing	Trial3	pointing/STIM_002.jpg
1798.663	1.023	1	pointing	Trial3	pointing/STIM_002.jpg
1802.518	1.002	1	pointing	Trial3	pointing/STIM_002.jpg
1806.321	1.262	1	pointing	Trial3	pointing/STIM_002.jpg
1810.869	0.976	1	pointing	Trial3	pointing/STIM_002.jpg
1813.966	0.872	1	pointing	Trial3	pointing/STIM_003.jpg
1816.975	1.243	1	pointing	Trial3	pointing/STIM_003.jpg
1820.477	1.092	1	pointing	Trial3	pointing/STIM_003.jpg
1823.862	1.006	1	pointing	Trial3	pointing/STIM_003.jpg
1828.104	1.122	1	pointing	Trial3	pointing/STIM_003.jpg
1832.871	0.715	1	pointing	Trial3	pointing/STIM_003.jpg
1836.82	0.998	1	pointing	Trial3	pointing/STIM_004.jpg
1840.411	0.929	0	pointing	Trial3	pointing/STIM_004.jpg
1844.223	0.882	1	pointing	Trial3	pointing/STIM_004.jpg
1847.824	0.745	1	pointing	Trial3	pointing/STIM_004.jpg
1852.228	1.045	1	pointing	Trial3	pointing/STIM_004.jpg
1856.215	0.919	0	pointing	Trial3	pointing/STIM_004.jpg
1860.162	1.287	1	pointing	Trial3	pointing/STIM_005.jpg
1864.53	0.828	1	pointing	Trial3	pointing/STIM_005.jpg
1869.332	0.69	1	pointing	Trial3	pointing/STIM_005.jpg
1873.461	1.231	1	pointing	Trial3	pointing/STIM_005.jpg
1878.649	0.714	1	pointing	Trial3	pointing/STIM_005.jpg
1882.223	0.715	1	pointing	Trial3	pointing/STIM_005.jpg
1885.196	0.772	1	pointing	Trial3	pointing/STIM_006.jpg
1888.67	1.139	1	pointing	Trial3	pointing/STIM_006.jpg
1892.311	1.016	1	pointing	Trial3	pointing/STIM_006.jpg
1896.286	0.921	1	pointing	Trial3	pointing/STIM_006.jpg
1900.937	1.146	1	pointing	Trial3	pointing/STIM_006.jpg
1904.396	0.72	1	pointing	Trial3	pointing/STIM_006.jpg
1908.747	0.937	1	pointing	Trial3	pointing/STIM_007.jpg
1912.412	1.011	1	pointing	Trial3	pointing/STIM_007.jpg
1915.85	0.815	1	pointing	Trial3	pointing/STIM_007.jpg
1919.212	0.872	1	pointing	Trial3	pointing/STIM_007.jpg
1923.312	0.976	1	pointing	Trial3	pointing/STIM_007.jpg
1928.228	1.053	1	pointing	Trial3	pointing/STIM_007.jpg
1933.228	1.17	1	pointing	Trial3	pointing/STIM_008.jpg
1937.727	1.18	1	pointing	Trial3	pointing/STIM_008.jpg
1942.673	0.731	1	pointing	Trial3	pointing/STIM_008.jpg
1947.181	0.917	1	pointing	Trial3	pointing/STIM_008.jpg
1951.151	0.738	1	pointing	Trial3	pointing/STIM_008.jpg
1954.461	0.906	1	pointing	Trial3	pointing/STIM_008.jpg
1958.55	1.087	1	pointing	Trial3	pointing/STIM_009.jpg
1962.688	1.243	1	pointing	Trial3	pointing/STIM_009.jpg
1967.12	0.808	0	pointing	Trial3	pointing/STIM_009.jpg
1970.692	0.871	1	pointing	Trial3	pointing/STIM_009.jpg
1974.817	0.915	1	pointing	Trial3	pointing/STIM_009.jpg
1979.216	1.102	1	pointing	Trial3	pointing/STIM_009.jpg
1982.701	0.928	1	pointing	Trial3	pointing/STIM_010.jpg
1986.258	0.841	1	pointing	Trial3	pointing/STIM_010.jpg
1990.347	0.715	1	pointing	Trial3	pointing/STIM_010.jpg
1994.993	0.801	1	pointing	Trial3	pointing/STIM_010.jpg
1999.265	0.963	1	pointing	Trial3	pointing/STIM_010.jpg
2004.209	1.007	0	pointing	Trial3	pointing/STIM_010.jpg
2008.439	0.946	0	pointing	Trial3	pointing/STIM_011.jpg
2011.809	1.054	1	pointing	Trial3	pointing/STIM_011.jpg
2016.861	0.771	1	pointing	Trial3	pointing/STIM_011.jpg
2020.186	1.191	0	pointing	Trial3	pointing/STIM_011.jpg
2024.287	0.88	1	pointing	Trial3	pointing/STIM_011.jpg
2028.984	0.871	1	pointing	Trial3	pointing/STIM_011.jpg
