onset	duration	response_time_ms	trial_type	learning_stage	stimulus	response_port
0.0	2.339	2339.1	navigation	Trial1	navigation/STIM_000.jpg	99
6.281	3.322	3321.5	navigation	Trial1	navigation/STIM_000.jpg	100
13.121	2.489	2489.4	navigation	Trial1	navigation/STIM_000.jpg	100
19.485	3.526	3525.8	navigation	Trial1	navigation/STIM_000.jpg	100
26.257	2.982	2982.0	navigation	Trial1	navigation/STIM_000.jpg	100
33.008	1.571	1570.9	navigation	Trial1	navigation/STIM_000.jpg	99
37.913	3.348	3347.5	navigation	Trial1	navigation/STIM_001.jpg	99
43.489	3.658	3658.5	navigation	Trial1	navigation/STIM_001.jpg	100
50.35	1.902	1901.9	navigation	Trial1	navigation/STIM_001.jpg	99
55.954	3.44	3440.4	navigation	Trial1	navigation/STIM_001.jpg	99
62.954	2.465	2465.1	navigation	Trial1	navigation/STIM_001.jpg	100
67.961	1.776	1775.5	navigation	Trial1	navigation/STIM_001.jpg	99
73.678	3.358	3357.6	navigation	Trial1	navigation/STIM_002.jpg	99
79.858	2.243	2243.0	navigation	Trial1	navigation/STIM_002.jpg	100
84.998	3.456	3455.8	navigation	Trial1	navigation/STIM_002.jpg	99
92.414	2.92	2919.8	navigation	Trial1	navigation/STIM_002.jpg	99
98.55	2.859	2858.7	navigation	Trial1	navigation/STIM_002.jpg	99
103.732	2.847	2847.3	navigation	Trial1	navigation/STIM_002.jpg	99
109.63	3.805	3805.1	navigation	Trial1	navigation/STIM_003.jpg	100
116.882	2.948	2948.2	navigation	Trial1	navigation/STIM_003.jpg	99
122.432	3.562	3562.2	navigation	Trial1	navigation/STIM_003.jpg	99
128.963	2.735	2735.3	navigation	Trial1	navigation/STIM_003.jpg	100
135.676	2.056	2055.5	navigation	Trial1	navigation/STIM_003.jpg	99
139.785	2.959	2958.6	navigation	Trial1	navigation/STIM_003.jpg	100
145.24	1.794	1794.4	navigation	Trial1	navigation/STIM_004.jpg	99
150.079	2.332	2331.7	navigation	Trial1	navigation/STIM_004.jpg	100
154.47	1.829	1828.6	navigation	Trial1	navigation/STIM_004.jpg	100
159.163	2.847	2846.6	navigation	Trial1	navigation/STIM_004.jpg	100
165.169	1.624	1624.0	navigation	Trial1	navigation/STIM_004.jpg	99
170.674	2.082	2082.3	navigation	Trial1	navigation/STIM_004.jpg	99
176.465	3.275	3275.0	navigation	Trial1	navigation/STIM_005.jpg	100
183.62	2.723	2723.4	navigation	Trial1	navigation/STIM_005.jpg	99
189.495	2.92	2920.3	navigation	Trial1	navigation/STIM_005.jpg	99
195.216	3.017	3017.0	navigation	Trial1	navigation/STIM_005.jpg	100
200.496	2.804	2803.5	navigation	Trial1	navigation/STIM_005.jpg	100
206.443	2.513	2512.6	navigation	Trial1	navigation/STIM_005.jpg	99
212.239	4.208	4207.7	navigation	Trial1	navigation/STIM_006.jpg	100
220.163	3.171	3171.0	navigation	Trial1	navigation/STIM_006.jpg	99
226.959	3.147	3146.8	navigation	Trial1	navigation/STIM_006.jpg	99
233.06	1.499	1499.4	navigation	Trial1	navigation/STIM_006.jpg	99
237.541	2.19	2190.3	navigation	Trial1	navigation/STIM_006.jpg	99
242.134	1.969	1968.7	navigation	Trial1	navigation/STIM_006.jpg	99
247.359	3.969	3969.3	navigation	Trial1	navigation/STIM_007.jpg	99
255.03	2.992	2991.7	navigation	Trial1	navigation/STIM_007.jpg	100
261.778	2.578	2578.4	navigation	Trial1	navigation/STIM_007.jpg	100
268.041	2.301	2300.6	navigation	Trial1	navigation/STIM_007.jpg	99
274.335	1.563	1562.9	navigation	Trial1	navigation/STIM_007.jpg	100
279.834	2.023	2023.5	navigation	Trial1	navigation/STIM_007.jpg	100
285.401	2.529	2529.4	navigation	Trial1	navigation/STIM_008.jpg	99
291.884	2.169	2169.4	navigation	Trial1	navigation/STIM_008.jpg	100
297.849	1.575	1574.8	navigation	Trial1	navigation/STIM_008.jpg	99
302.35	2.811	2811.4	navigation	Trial1	navigation/STIM_008.jpg	100
309.16	3.247	3247.0	navigation	Trial1	navigation/STIM_008.jpg	99
315.792	1.607	1607.3	navigation	Trial1	navigation/STIM_008.jpg	99
320.211	3.856	3856.5	navigation	Trial1	navigation/STIM_009.jpg	100
326.509	2.798	2797.5	navigation	Trial1	navigation/STIM_009.jpg	99
333.132	2.156	2156.4	navigation	Trial1	navigation/STIM_009.jpg	99
337.345	2.176	2176.4	navigation	Trial1	navigation/STIM_009.jpg	99
341.887	3.099	3099.0	navigation	Trial1	navigation/STIM_009.jpg	100
348.864	1.77	1769.9	navigation	Trial1	navigation/STIM_009.jpg	99
353.44	3.615	3615.4	navigation	Trial1	navigation/STIM_010.jpg	100
360.99	1.941	1940.9	navigation	Trial1	navigation/STIM_010.jpg	100
365.889	2.298	2298.0	navigation	Trial1	navigation/STIM_010.jpg	99
371.537	2.846	2845.7	navigation	Trial1	navigation/STIM_010.jpg	99
376.915	2.877	2877.3	navigation	Trial1	navigation/STIM_010.jpg	99
383.388	2.155	2155.3	navigation	Trial1	navigation/STIM_010.jpg	100
389.415	4.141	4140.9	navigation	Trial1	navigation/STIM_011.jpg	100
397.215	3.405	3404.8	navigation	Trial1	navigation/STIM_011.jpg	100
403.699	2.787	2787.2	navigation	Trial1	navigation/STIM_011.jpg	99
409.053	3.503	3503.2	navigation	Trial1	navigation/STIM_011.jpg	99
416.157	3.032	3032.5	navigation	Trial1	navigation/STIM_011.jpg	99
422.823	1.752	1751.5	navigation	Trial1	navigation/STIM_011.jpg	99
428.109	0.846	846.5	pointing	Trial1	pointing/STIM_000.jpg	100
431.466	1.159	1158.6	pointing	Trial1	pointing/STIM_000.jpg	100
436.281	0.978	978.1	pointing	Trial1	pointing/STIM_000.jpg	99
439.413	0.971	970.9	pointing	Trial1	pointing/STIM_000.jpg	100
443.997	0.792	792.1	pointing	Trial1	pointing/STIM_000.jpg	100
448.343	1.23	1230.5	pointing	Trial1	pointing/STIM_000.jpg	99
452.078	1.01	1010.2	pointing	Trial1	pointing/STIM_001.jpg	100
455.84	1.24	1239.5	pointing	Trial1	pointing/STIM_001.jpg	99
459.593	0.838	838.1	pointing	Trial1	pointing/STIM_001.jpg	100
462.646	1.024	1024.5	pointing	Trial1	pointing/STIM_001.jpg	99
467.056	0.924	923.6	pointing	Trial1	pointing/STIM_001.jpg	99
471.908	0.817	817.1	pointing	Trial1	pointing/STIM_001.jpg	100
476.35	1.239	1239.2	pointing	Trial1	pointing/STIM_002.jpg	99
480.845	1.016	1016.3	pointing	Trial1	pointing/STIM_002.jpg	100
485.035	0.749	749.4	pointing	Trial1	pointing/STIM_002.jpg	99
489.216	0.878	878.1	pointing	Trial1	pointing/STIM_002.jpg	100
493.813	0.864	864.4	pointing	Trial1	pointing/STIM_002.jpg	100
498.651	0.9	899.6	pointing	Trial1	pointing/STIM_002.jpg	100
502.997	0.902	901.9	pointing	Trial1	pointing/STIM_003.jpg	100
506.692	1.065	1064.9	pointing	Trial1	pointing/STIM_003.jpg	100
511.04	0.853	853.4	pointing	Trial1	pointing/STIM_003.jpg	100
513.982	0.753	753.0	pointing	Trial1	pointing/STIM_003.jpg	99
517.079	1.181	1181.2	pointing	Trial1	pointing/STIM_003.jpg	99
521.572	0.847	847.3	pointing	Trial1	pointing/STIM_003.jpg	100
525.002	0.759	759.4	pointing	Trial1	pointing/STIM_004.jpg	100
528.325	0.832	832.5	pointing	Trial1	pointing/STIM_004.jpg	99
532.825	1.269	1268.9	pointing	Trial1	pointing/STIM_004.jpg	100
536.901	1.259	1258.6	pointing	Trial1	pointing/STIM_004.jpg	100
541.264	1.08	1079.5	pointing	Trial1	pointing/STIM_004.jpg	100
544.53	0.774	773.9	pointing	Trial1	pointing/STIM_004.jpg	100
547.492	0.948	948.5	pointing	Trial1	pointing/STIM_005.jpg	99
550.55	0.806	806.5	pointing	Trial1	pointing/STIM_005.jpg	100
553.919	1.137	1136.6	pointing	Trial1	pointing/STIM_005.jpg	99
557.828	1.057	1056.9	pointing	Trial1	pointing/STIM_005.jpg	99
561.647	0.751	751.1	pointing	Trial1	pointing/STIM_005.jpg	100
564.41	1.233	1232.9	pointing	Trial1	pointing/STIM_005.jpg	99
569.197	1.249	1248.9	pointing	Trial1	pointing/STIM_006.jpg	100
573.722	0.923	923.3	pointing	Trial1	pointing/STIM_006.jpg	100
577.41	0.901	901.0	pointing	Trial1	pointing/STIM_006.jpg	99
580.465	1.099	1099.4	pointing	Trial1	pointing/STIM_006.jpg	100
584.499	0.868	868.2	pointing	Trial1	pointing/STIM_006.jpg	100
587.786	1.192	1192.2	pointing	Trial1	pointing/STIM_006.jpg	100
591.353	1.013	1013.2	pointing	Trial1	pointing/STIM_007.jpg	99
596.295	0.882	882.0	pointing	Trial1	pointing/STIM_007.jpg	100
599.237	1.136	1135.5	pointing	Trial1	pointing/STIM_007.jpg	99
603.226	1.082	1082.2	pointing	Trial1	pointing/STIM_007.jpg	100
606.792	1.117	1117.0	pointing	Trial1	pointing/STIM_007.jpg	99
610.429	1.214	1213.5	pointing	Trial1	pointing/STIM_007.jpg	100
614.559	0.839	838.9	pointing	Trial1	pointing/STIM_008.jpg	100
617.655	1.233	1233.2	pointing	Trial1	pointing/STIM_008.jpg	100
621.527	0.856	856.5	pointing	Trial1	pointing/STIM_008.jpg	100
625.425	0.72	720.2	pointing	Trial1	pointing/STIM_008.jpg	100
628.596	0.836	836.4	pointing	Trial1	pointing/STIM_008.jpg	99
632.789	0.785	785.3	pointing	Trial1	pointing/STIM_008.jpg	100
637.438	0.722	722.2	pointing	Trial1	pointing/STIM_009.jpg	100
641.388	0.771	771.1	pointing	Trial1	pointing/STIM_009.jpg	100
644.209	0.902	901.7	pointing	Trial1	pointing/STIM_009.jpg	100
647.795	0.881	881.4	pointing	Trial1	pointing/STIM_009.jpg	100
652.395	0.739	738.6	pointing	Trial1	pointing/STIM_009.jpg	100
656.703	1.05	1049.9	pointing	Trial1	pointing/STIM_009.jpg	100
660.552	0.8	800.0	pointing	Trial1	pointing/STIM_010.jpg	100
665.042	0.752	751.6	pointing	Trial1	pointing/STIM_010.jpg	99
668.173	1.261	1261.3	pointing	Trial1	pointing/STIM_010.jpg	99
672.248	1.283	1283.3	pointing	Trial1	pointing/STIM_010.jpg	100
676.059	1.152	1151.6	pointing	Trial1	pointing/STIM_010.jpg	100
679.373	1.209	1209.1	pointing	Trial1	pointing/STIM_010.jpg	99
684.236	0.694	694.4	pointing	Trial1	pointing/STIM_011.jpg	100
688.347	1.043	1043.0	pointing	Trial1	pointing/STIM_011.jpg	100
693.228	0.743	742.8	pointing	Trial1	pointing/STIM_011.jpg	100
697.28	0.84	839.8	pointing	Trial1	pointing/STIM_011.jpg	99
701.069	1.11	1110.1	pointing	Trial1	pointing/STIM_011.jpg	99
705.764	0.838	837.7	pointing	Trial1	pointing/STIM_011.jpg	99
710.008	2.587	2587.3	navigation	Trial2	navigation/STIM_000.jpg	100
714.709	2.343	2342.7	navigation	Trial2	navigation/STIM_000.jpg	99
720.387	2.308	2308.5	navigation	Trial2	navigation/STIM_000.jpg	100
725.461	2.473	2472.8	navigation	Trial2	navigation/STIM_000.jpg	99
730.704	1.234	1234.5	navigation	Trial2	navigation/STIM_000.jpg	99
735.16	2.223	2222.7	navigation	Trial2	navigation/STIM_000.jpg	99
741.027	2.391	2390.9	navigation	Trial2	navigation/STIM_001.jpg	100
746.749	1.633	1632.8	navigation	Trial2	navigation/STIM_001.jpg	99
751.352	2.844	2843.9	navigation	Trial2	navigation/STIM_001.jpg	100
756.799	1.502	1501.7	navigation	Trial2	navigation/STIM_001.jpg	100
761.687	2.852	2851.6	navigation	Trial2	navigation/STIM_001.jpg	100
767.342	1.563	1562.9	navigation	Trial2	navigation/STIM_001.jpg	100
771.057	3.032	3032.1	navigation	Trial2	navigation/STIM_002.jpg	99
776.91	1.536	1535.9	navigation	Trial2	navigation/STIM_002.jpg	100
781.266	2.962	2961.5	navigation	Trial2	navigation/STIM_002.jpg	99
787.908	1.394	1394.3	navigation	Trial2	navigation/STIM_002.jpg	100
792.79	1.424	1424.5	navigation	Trial2	navigation/STIM_002.jpg	100
797.642	1.7	1699.9	navigation	Trial2	navigation/STIM_002.jpg	100
802.763	1.926	1926.1	navigation	Trial2	navigation/STIM_003.jpg	100
806.727	2.387	2386.9	navigation	Trial2	navigation/STIM_003.jpg	99
811.986	2.137	2137.2	navigation	Trial2	navigation/STIM_003.jpg	100
817.917	2.391	2391.1	navigation	Trial2	navigation/STIM_003.jpg	99
823.035	2.701	2701.4	navigation	Trial2	navigation/STIM_003.jpg	99
829.55	1.948	1948.5	navigation	Trial2	navigation/STIM_003.jpg	100
835.475	1.776	1775.7	navigation	Trial2	navigation/STIM_004.jpg	100
839.276	3.276	3276.2	navigation	Trial2	navigation/STIM_004.jpg	99
846.382	2.807	2807.1	navigation	Trial2	navigation/STIM_004.jpg	99
852.005	1.945	1945.4	navigation	Trial2	navigation/STIM_004.jpg	100
857.028	2.517	2517.3	navigation	Trial2	navigation/STIM_004.jpg	100
861.723	2.767	2767.4	navigation	Trial2	navigation/STIM_004.jpg	100
867.842	3.061	3061.4	navigation	Trial2	navigation/STIM_005.jpg	99
874.802	2.67	2670.0	navigation	Trial2	navigation/STIM_005.jpg	99
879.719	2.408	2407.5	navigation	Trial2	navigation/STIM_005.jpg	99
884.805	2.627	2627.1	navigation	Trial2	navigation/STIM_005.jpg	100
889.611	1.36	1359.7	navigation	Trial2	navigation/STIM_005.jpg	100
894.836	2.769	2768.8	navigation	Trial2	navigation/STIM_005.jpg	100
899.809	3.142	3142.1	navigation	Trial2	navigation/STIM_006.jpg	99
905.254	1.651	1650.6	navigation	Trial2	navigation/STIM_006.jpg	99
909.982	3.042	3041.9	navigation	Trial2	navigation/STIM_006.jpg	100
915.348	2.944	2943.9	navigation	Trial2	navigation/STIM_006.jpg	100
921.993	1.37	1369.8	navigation	Trial2	navigation/STIM_006.jpg	99
926.77	1.577	1577.3	navigation	Trial2	navigation/STIM_006.jpg	100
931.008	2.386	2386.5	navigation	Trial2	navigation/STIM_007.jpg	99
937.154	1.395	1395.1	navigation	Trial2	navigation/STIM_007.jpg	100
941.791	2.231	2231.2	navigation	Trial2	navigation/STIM_007.jpg	99
947.51	2.031	2031.3	navigation	Trial2	navigation/STIM_007.jpg	99
951.831	1.348	1348.5	navigation	Trial2	navigation/STIM_007.jpg	99
956.987	1.308	1308.5	navigation	Trial2	navigation/STIM_007.jpg	99
961.84	2.754	2754.4	navigation	Trial2	navigation/STIM_008.jpg	100
966.96	3.334	3333.7	navigation	Trial2	navigation/STIM_008.jpg	100
973.134	1.479	1478.6	navigation	Trial2	navigation/STIM_008.jpg	99
977.065	2.067	2067.2	navigation	Trial2	navigation/STIM_008.jpg	100
981.451	2.789	2789.3	navigation	Trial2	navigation/STIM_008.jpg	100
987.746	1.82	1819.8	navigation	Trial2	navigation/STIM_008.jpg	100
991.92	2.91	2909.8	navigation	Trial2	navigation/STIM_009.jpg	100
997.978	2.709	2709.3	navigation	Trial2	navigation/STIM_009.jpg	100
1003.037	2.748	2747.6	navigation	Trial2	navigation/STIM_009.jpg	100
1008.118	2.395	2395.4	navigation	Trial2	navigation/STIM_009.jpg	100
1013.704	2.036	2035.7	navigation	Trial2	navigation/STIM_009.jpg	99
1018.342	2.503	2502.8	navigation	Trial2	navigation/STIM_009.jpg	99
1024.029	2.514	2514.3	navigation	Trial2	navigation/STIM_010.jpg	99
1028.767	2.708	2707.5	navigation	Trial2	navigation/STIM_010.jpg	99
1035.374	2.352	2351.6	navigation	Trial2	navigation/STIM_010.jpg	99
1041.174	2.49	2490.5	navigation	Trial2	navigation/STIM_010.jpg	99
1047.531	2.959	2958.8	navigation	Trial2	navigation/STIM_010.jpg	100
1054.419	1.779	1778.7	navigation	Trial2	navigation/STIM_010.jpg	99
1058.906	2.538	2537.9	navigation	Trial2	navigation/STIM_011.jpg	100
1064.461	1.86	1859.9	navigation	Trial2	navigation/STIM_011.jpg	100
1069.198	1.839	1838.6	navigation	Trial2	navigation/STIM_011.jpg	100
1074.879	2.122	2122.3	navigation	Trial2	navigation/STIM_011.jpg	99
1079.613	2.785	2785.2	navigation	Trial2	navigation/STIM_011.jpg	100
1085.767	2.105	2105.1	navigation	Trial2	navigation/STIM_011.jpg	99
1090.75	0.998	997.8	pointing	Trial2	pointing/STIM_000.jpg	99
1095.658	0.729	728.8	pointing	Trial2	pointing/STIM_000.jpg	100
1098.815	1.188	1187.7	pointing	Trial2	pointing/STIM_000.jpg	100
1102.337	0.982	982.4	pointing	Trial2	pointing/STIM_000.jpg	100
1106.256	1.028	1028.0	pointing	Trial2	pointing/STIM_000.jpg	99
1110.826	1.152	1151.8	pointing	Trial2	pointing/STIM_000.jpg	99
1114.467	1.021	1021.1	pointing	Trial2	pointing/STIM_001.jpg	99
1119.246	1.054	1053.7	pointing	Trial2	pointing/STIM_001.jpg	100
1123.828	0.748	748.5	pointing	Trial2	pointing/STIM_001.jpg	100
1128.178	1.155	1155.2	pointing	Trial2	pointing/STIM_001.jpg	100
1132.25	0.826	825.7	pointing	Trial2	pointing/STIM_001.jpg	99
1135.384	1.027	1027.3	pointing	Trial2	pointing/STIM_001.jpg	100
1140.052	0.733	732.6	pointing	Trial2	pointing/STIM_002.jpg	100
1143.848	1.201	1201.4	pointing	Trial2	pointing/STIM_002.jpg	100
1148.452	0.86	860.5	pointing	Trial2	pointing/STIM_002.jpg	99
1151.642	0.812	811.8	pointing	Trial2	pointing/STIM_002.jpg	100
1155.537	1.252	1252.5	pointing	Trial2	pointing/STIM_002.jpg	100
1159.75	1.063	1062.6	pointing	Trial2	pointing/STIM_002.jpg	100
1163.992	1.086	1086.0	pointing	Trial2	pointing/STIM_003.jpg	99
1168.278	0.776	775.9	pointing	Trial2	pointing/STIM_003.jpg	99
1172.712	1.103	1102.7	pointing	Trial2	pointing/STIM_003.jpg	100
1176.578	0.853	852.6	pointing	Trial2	pointing/STIM_003.jpg	99
1179.985	1.02	1019.9	pointing	Trial2	pointing/STIM_003.jpg	100
1184.529	0.807	807.0	pointing	Trial2	pointing/STIM_003.jpg	100
1188.273	0.734	734.4	pointing	Trial2	pointing/STIM_004.jpg	100
1191.578	0.96	960.4	pointing	Trial2	pointing/STIM_004.jpg	99
1194.873	1.231	1231.3	pointing	Trial2	pointing/STIM_004.jpg	99
1199.732	0.824	823.6	pointing	Trial2	pointing/STIM_004.jpg	99
1203.37	0.969	969.3	pointing	Trial2	pointing/STIM_004.jpg	100
1207.191	1.031	1031.1	pointing	Trial2	pointing/STIM_004.jpg	100
1211.364	0.881	881.3	pointing	Trial2	pointing/STIM_005.jpg	100
1215.931	0.747	747.2	pointing	Trial2	pointing/STIM_005.jpg	99
1220.501	1.23	1230.5	pointing	Trial2	pointing/STIM_005.jpg	100
1224.874	0.858	857.9	pointing	Trial2	pointing/STIM_005.jpg	99
1229.711	1.011	1010.9	pointing	Trial2	pointing/STIM_005.jpg	99
1233.368	0.917	917.0	pointing	Trial2	pointing/STIM_005.jpg	100
1237.135	1.144	1144.2	pointing	Trial2	pointing/STIM_006.jpg	100
1242.113	1.076	1076.2	pointing	Trial2	pointing/STIM_006.jpg	99
1246.585	0.801	800.8	pointing	Trial2	pointing/STIM_006.jpg	99
1250.533	1.022	1021.6	pointing	Trial2	pointing/STIM_006.jpg	100
1255.066	0.721	720.9	pointing	Trial2	pointing/STIM_006.jpg	99
1259.053	0.758	758.3	pointing	Trial2	pointing/STIM_006.jpg	100
1262.689	0.763	763.0	pointing	Trial2	pointing/STIM_007.jpg	99
1266.532	0.78	779.6	pointing	Trial2	pointing/STIM_007.jpg	100
1270.277	1.084	1084.0	pointing	Trial2	pointing/STIM_007.jpg	100
1274.621	1.167	1167.1	pointing	Trial2	pointing/STIM_007.jpg	100
1277.872	0.86	860.0	pointing	Trial2	pointing/STIM_007.jpg	99
1282.546	0.914	913.5	pointing	Trial2	pointing/STIM_007.jpg	100
1285.849	0.737	737.3	pointing	Trial2	pointing/STIM_008.jpg	100
1289.526	1.138	1138.1	pointing	Trial2	pointing/STIM_008.jpg	99
1293.437	0.712	712.1	pointing	Trial2	pointing/STIM_008.jpg	99
1296.36	0.761	761.0	pointing	Trial2	pointing/STIM_008.jpg	99
1301.063	1.065	1064.9	pointing	Trial2	pointing/STIM_008.jpg	100
1305.074	1.204	1204.4	pointing	Trial2	pointing/STIM_008.jpg	100
1309.394	1.151	1150.9	pointing	Trial2	pointing/STIM_009.jpg	99
1314.196	1.098	1097.7	pointing	Trial2	pointing/STIM_009.jpg	100
1318.305	1.23	1230.0	pointing	Trial2	pointing/STIM_009.jpg	99
1322.521	0.966	966.0	pointing	Trial2	pointing/STIM_009.jpg	99
1325.608	1.26	1260.4	pointing	Trial2	pointing/STIM_009.jpg	100
1329.781	1.053	1053.1	pointing	Trial2	pointing/STIM_009.jpg	99
1332.904	0.688	688.3	pointing	Trial2	pointing/STIM_010.jpg	99
1336.559	1.148	1148.0	pointing	Trial2	pointing/STIM_010.jpg	100
1339.866	1.072	1071.7	pointing	Trial2	pointing/STIM_010.jpg	99
1344.134	1.046	1046.4	pointing	Trial2	pointing/STIM_010.jpg	99
1348.228	1.156	1155.5	pointing	Trial2	pointing/STIM_010.jpg	100
1352.221	0.893	893.0	pointing	Trial2	pointing/STIM_010.jpg	99
1356.29	1.226	1226.4	pointing	Trial2	pointing/STIM_011.jpg	100
1361.206	1.056	1056.5	pointing	Trial2	pointing/STIM_011.jpg	99
1364.622	0.888	888.4	pointing	Trial2	pointing/STIM_011.jpg	99
1368.447	1.282	1281.8	pointing	Trial2	pointing/STIM_011.jpg	99
1373.317	1.087	1086.7	pointing	Trial2	pointing/STIM_011.jpg	99
1377.182	0.98	980.5	pointing	Trial2	pointing/STIM_011.jpg	100
1382.141	2.902	2902.1	navigation	Trial3	navigation/STIM_000.jpg	100
1387.38	2.806	2806.0	navigation	Trial3	navigation/STIM_000.jpg	100
1394.119	1.928	1928.5	navigation	Trial3	navigation/STIM_000.jpg	100
1398.565	1.339	1338.8	navigation	Trial3	navigation/STIM_000.jpg	99
1402.609	2.445	2445.1	navigation	Trial3	navigation/STIM_000.jpg	100
1407.129	1.808	1808.1	navigation	Trial3	navigation/STIM_000.jpg	100
1411.712	1.652	1652.4	navigation	Trial3	navigation/STIM_001.jpg	99
1416.059	1.443	1442.8	navigation	Trial3	navigation/STIM_001.jpg	99
1420.323	1.561	1561.1	navigation	Trial3	navigation/STIM_001.jpg	99
1424.695	2.61	2609.8	navigation	Trial3	navigation/STIM_001.jpg	99
1430.735	2.396	2396.1	navigation	Trial3	navigation/STIM_001.jpg	100
1436.64	1.593	1593.3	navigation	Trial3	navigation/STIM_001.jpg	99
1440.434	2.454	2454.1	navigation	Trial3	navigation/STIM_002.jpg	99
1446.137	1.276	1276.1	navigation	Trial3	navigation/STIM_002.jpg	99
1451.337	2.971	2970.9	navigation	Trial3	navigation/STIM_002.jpg	99
1456.403	2.562	2561.6	navigation	Trial3	navigation/STIM_002.jpg	99
1462.319	1.639	1638.7	navigation	Trial3	navigation/STIM_002.jpg	99
1466.611	1.702	1701.5	navigation	Trial3	navigation/STIM_002.jpg	100
1471.286	2.406	2406.5	navigation	Trial3	navigation/STIM_003.jpg	100
1477.404	2.035	2034.6	navigation	Trial3	navigation/STIM_003.jpg	99
1482.095	1.804	1804.1	navigation	Trial3	navigation/STIM_003.jpg	100
1487.882	1.407	1407.0	navigation	Trial3	navigation/STIM_003.jpg	99
1493.253	1.47	1470.4	navigation	Trial3	navigation/STIM_003.jpg	100
1496.818	1.996	1995.6	navigation	Trial3	navigation/STIM_003.jpg	99
1502.623	2.562	2561.9	navigation	Trial3	navigation/STIM_004.jpg	100
1507.747	1.297	1297.0	navigation	Trial3	navigation/STIM_004.jpg	99
1511.932	1.612	1611.9	navigation	Trial3	navigation/STIM_004.jpg	99
1516.729	2.195	2194.9	navigation	Trial3	navigation/STIM_004.jpg	99
1522.724	2.201	2200.7	navigation	Trial3	navigation/STIM_004.jpg	100
1528.291	2.121	2120.6	navigation	Trial3	navigation/STIM_004.jpg	100
1532.519	1.3	1300.3	navigation	Trial3	navigation/STIM_005.jpg	100
1536.035	1.443	1443.3	navigation	Trial3	navigation/STIM_005.jpg	99
1539.846	1.24	1239.8	navigation	Trial3	navigation/STIM_005.jpg	100
1543.385	1.873	1873.3	navigation	Trial3	navigation/STIM_005.jpg	99
1549.002	1.266	1266.2	navigation	Trial3	navigation/STIM_005.jpg	100
1553.964	2.727	2727.0	navigation	Trial3	navigation/STIM_005.jpg	100
1559.381	1.511	1511.3	navigation	Trial3	navigation/STIM_006.jpg	99
1563.919	1.623	1622.8	navigation	Trial3	navigation/STIM_006.jpg	99
1567.881	1.836	1835.7	navigation	Trial3	navigation/STIM_006.jpg	100
1572.007	1.824	1824.5	navigation	Trial3	navigation/STIM_006.jpg	100
1577.015	2.175	2175.4	navigation	Trial3	navigation/STIM_006.jpg	99
1581.413	2.727	2726.8	navigation	Trial3	navigation/STIM_006.jpg	99
1587.117	1.462	1461.7	navigation	Trial3	navigation/STIM_007.jpg	99
1590.672	2.157	2157.0	navigation	Trial3	navigation/STIM_007.jpg	99
1595.807	2.246	2246.5	navigation	Trial3	navigation/STIM_007.jpg	99
1600.987	1.719	1718.7	navigation	Trial3	navigation/STIM_007.jpg	99
1605.237	1.532	1532.2	navigation	Trial3	navigation/STIM_007.jpg	99
1609.71	1.51	1510.0	navigation	Trial3	navigation/STIM_007.jpg	99
1615.18	1.927	1926.7	navigation	Trial3	navigation/STIM_008.jpg	99
1620.522	2.189	2189.4	navigation	Trial3	navigation/STIM_008.jpg	100
1625.604	2.843	2842.6	navigation	Trial3	navigation/STIM_008.jpg	99
1632.289	2.454	2454.3	navigation	Trial3	navigation/STIM_008.jpg	99
1638.671	1.458	1458.3	navigation	Trial3	navigation/STIM_008.jpg	100
1643.913	2.708	2707.6	navigation	Trial3	navigation/STIM_008.jpg	100
1649.224	2.909	2909.2	navigation	Trial3	navigation/STIM_009.jpg	99
1655.748	2.914	2914.4	navigation	Trial3	navigation/STIM_009.jpg	99
1660.86	2.086	2086.3	navigation	Trial3	navigation/STIM_009.jpg	99
1665.438	2.45	2449.5	navigation	Trial3	navigation/STIM_009.jpg	99
1671.79	1.355	1355.4	navigation	Trial3	navigation/STIM_009.jpg	100
1676.351	2.032	2031.6	navigation	Trial3	navigation/STIM_009.jpg	99
1681.304	1.528	1528.3	navigation	Trial3	navigation/STIM_010.jpg	99
1686.585	1.87	1869.5	navigation	Trial3	navigation/STIM_010.jpg	99
1691.732	1.934	1934.0	navigation	Trial3	navigation/STIM_010.jpg	99
1697.301	2.197	2197.1	navigation	Trial3	navigation/STIM_010.jpg	99
1703.143	2.478	2478.3	navigation	Trial3	navigation/STIM_010.jpg	100
1709.549	2.406	2406.1	navigation	Trial3	navigation/STIM_010.jpg	99
1714.931	2.405	2405.1	navigation	Trial3	navigation/STIM_011.jpg	100
1719.934	2.124	2124.3	navigation	Trial3	navigation/STIM_011.jpg	99
1726.043	2.46	2460.0	navigation	Trial3	navigation/STIM_011.jpg	99
1731.309	1.755	1755.4	navigation	Trial3	navigation/STIM_011.jpg	99
1735.662	2.61	2610.1	navigation	Trial3	navigation/STIM_011.jpg	99
1741.355	1.223	1222.8	navigation	Trial3	navigation/STIM_011.jpg	100
1746.127	0.727	726.6	pointing	Trial3	pointing/STIM_000.jpg	100
1749.333	1.081	1081.1	pointing	Trial3	pointing/STIM_000.jpg	100
1753.459	0.729	728.8	pointing	Trial3	pointing/STIM_000.jpg	99
1758.082	1.225	1225.0	pointing	Trial3	pointing/STIM_000.jpg	99
1761.413	0.846	845.6	pointing	Trial3	pointing/STIM_000.jpg	99
1765.158	0.8	799.8	pointing	Trial3	pointing/STIM_000.jpg	99
1768.466	1.157	1157.2	pointing	Trial3	pointing/STIM_001.jpg	99
1772.421	0.935	935.1	pointing	Trial3	pointing/STIM_001.jpg	100
1775.44	0.87	870.4	pointing	Trial3	pointing/STIM_001.jpg	99
1779.933	0.909	909.1	pointing	Trial3	pointing/STIM_001.jpg	100
1784.217	1.087	1087.3	pointing	Trial3	pointing/STIM_001.jpg	99
1787.742	1.091	1090.7	pointing	Trial3	pointing/STIM_001.jpg	100
1791.58	0.808	808.0	pointing	Trial3	pointing/STIM_002.jpg	99
1795.145	0.774	774.2	pointing	Trial3	pointing/STIM_002.jpg	99
1798.663	1.023	1023.2	pointing	Trial3	pointing/STIM_002.jpg	99
1802.518	1.002	1002.4	pointing	Trial3	pointing/STIM_002.jpg	100
1806.321	1.262	1261.6	pointing	Trial3	pointing/STIM_002.jpg	100
1810.869	0.976	976.2	pointing	Trial3	pointing/STIM_002.jpg	99
1813.966	0.872	872.3	pointing	Trial3	pointing/STIM_003.jpg	99
1816.975	1.243	1243.4	pointing	Trial3	pointing/STIM_003.jpg	99
1820.477	1.092	1091.9	pointing	Trial3	pointing/STIM_003.jpg	99
1823.862	1.006	1005.8	pointing	Trial3	pointing/STIM_003.jpg	99
1828.104	1.122	1121.7	pointing	Trial3	pointing/STIM_003.jpg	100
1832.871	0.715	715.0	pointing	Trial3	pointing/STIM_003.jpg	100
1836.82	0.998	997.5	pointing	Trial3	pointing/STIM_004.jpg	100
1840.411	0.929	928.6	pointing	Trial3	pointing/STIM_004.jpg	100
1844.223	0.882	882.4	pointing	Trial3	pointing/STIM_004.jpg	99
1847.824	0.745	745.3	pointing	Trial3	pointing/STIM_004.jpg	100
1852.228	1.045	1045.2	pointing	Trial3	pointing/STIM_004.jpg	99
1856.215	0.919	918.8	pointing	Trial3	pointing/STIM_004.jpg	99
1860.162	1.287	1287.0	pointing	Trial3	pointing/STIM_005.jpg	100
1864.53	0.828	827.6	pointing	Trial3	pointing/STIM_005.jpg	99
1869.332	0.69	690.4	pointing	Trial3	pointing/STIM_005.jpg	99
1873.461	1.231	1230.6	pointing	Trial3	pointing/STIM_005.jpg	100
1878.649	0.714	714.3	pointing	Trial3	pointing/STIM_005.jpg	99
1882.223	0.715	715.2	pointing	Trial3	pointing/STIM_005.jpg	100
1885.196	0.772	772.4	pointing	Trial3	pointing/STIM_006.jpg	99
1888.67	1.139	1139.0	pointing	Trial3	pointing/STIM_006.jpg	100
1892.311	1.016	1016.1	pointing	Trial3	pointing/STIM_006.jpg	100
1896.286	0.921	921.2	pointing	Trial3	pointing/STIM_006.jpg	99
1900.937	1.146	1146.1	pointing	Trial3	pointing/STIM_006.jpg	100
1904.396	0.72	719.8	pointing	Trial3	pointing/STIM_006.jpg	100
1908.747	0.937	936.7	pointing	Trial3	pointing/STIM_007.jpg	99
1912.412	1.011	1011.2	pointing	Trial3	pointing/STIM_007.jpg	99
1915.85	0.815	815.3	pointing	Trial3	pointing/STIM_007.jpg	100
1919.212	0.872	871.7	pointing	Trial3	pointing/STIM_007.jpg	100
1923.312	0.976	975.8	pointing	Trial3	pointing/STIM_007.jpg	100
1928.228	1.053	1052.9	pointing	Trial3	pointing/STIM_007.jpg	100
1933.228	1.17	1169.8	pointing	Trial3	pointing/STIM_008.jpg	99
1937.727	1.18	1179.7	pointing	Trial3	pointing/STIM_008.jpg	99
1942.673	0.731	731.3	pointing	Trial3	pointing/STIM_008.jpg	99
1947.181	0.917	917.1	pointing	Trial3	pointing/STIM_008.jpg	99
1951.151	0.738	737.8	pointing	Trial3	pointing/STIM_008.jpg	100
1954.461	0.906	906.1	pointing	Trial3	pointing/STIM_008.jpg	100
1958.55	1.087	1087.3	pointing	Trial3	pointing/STIM_009.jpg	99
1962.688	1.243	1242.8	pointing	Trial3	pointing/STIM_009.jpg	99
1967.12	0.808	808.3	pointing	Trial3	pointing/STIM_009.jpg	99
1970.692	0.871	870.6	pointing	Trial3	pointing/STIM_009.jpg	99
1974.817	0.915	915.3	pointing	Trial3	pointing/STIM_009.jpg	100
1979.216	1.102	1102.5	pointing	Trial3	pointing/STIM_009.jpg	99
1982.701	0.928	928.1	pointing	Trial3	pointing/STIM_010.jpg	99
1986.258	0.841	840.6	pointing	Trial3	pointing/STIM_010.jpg	99
1990.347	0.715	715.3	pointing	Trial3	pointing/STIM_010.jpg	99
1994.993	0.801	800.9	pointing	Trial3	pointing/STIM_010.jpg	99
1999.265	0.963	962.9	pointing	Trial3	pointing/STIM_010.jpg	100
2004.209	1.007	1007.3	pointing	Trial3	pointing/STIM_010.jpg	100
2008.439	0.946	946.5	pointing	Trial3	pointing/STIM_011.jpg	100
2011.809	1.054	1053.9	pointing	Trial3	pointing/STIM_011.jpg	100
2016.861	0.771	770.6	pointing	Trial3	pointing/STIM_011.jpg	99
2020.186	1.191	1190.8	pointing	Trial3	pointing/STIM_011.jpg	100
2024.287	0.88	879.6	pointing	Trial3	pointing/STIM_011.jpg	100
2028.984	0.871	871.1	pointing	Trial3	pointing/STIM_011.jpg	99
