onset	duration	response_time_ms	trial_type	learning_stage	stimulus	response_port
0.0	1.3	1299.9	study	Phase1	study/STIM_000.jpg	99
4.42	1.262	1261.5	study	Phase1	study/STIM_000.jpg	99
8.317	0.762	762.3	study	Phase1	study/STIM_000.jpg	100
11.277	0.929	929.1	study	Phase1	study/STIM_001.jpg	99
15.656	0.712	712.0	study	Phase1	study/STIM_001.jpg	99
19.625	0.864	863.6	study	Phase1	study/STIM_001.jpg	99
24.057	0.694	694.3	study	Phase1	study/STIM_002.jpg	100
27.151	0.756	756.0	study	Phase1	study/STIM_002.jpg	100
30.786	1.025	1024.7	study	Phase1	study/STIM_002.jpg	100
34.075	0.893	893.1	study	Phase1	study/STIM_003.jpg	100
38.84	0.956	955.9	study	Phase1	study/STIM_003.jpg	99
43.468	0.846	845.5	study	Phase1	study/STIM_003.jpg	99
46.969	1.019	1018.6	study	Phase1	study/STIM_004.jpg	99
51.113	1.255	1255.1	study	Phase1	study/STIM_004.jpg	100
54.72	0.958	957.5	study	Phase1	study/STIM_004.jpg	100
57.952	0.738	737.6	study	Phase1	study/STIM_005.jpg	100
61.202	1.414	1413.8	study	Phase1	study/STIM_005.jpg	100
65.425	1.162	1161.8	study	Phase1	study/STIM_005.jpg	100
69.043	0.89	889.8	study	Phase1	study/STIM_006.jpg	100
72.184	0.874	874.3	study	Phase1	study/STIM_006.jpg	99
75.606	1.145	1144.9	study	Phase1	study/STIM_006.jpg	99
80.372	1.24	1240.2	study	Phase1	study/STIM_007.jpg	100
83.935	0.788	788.5	study	Phase1	study/STIM_007.jpg	99
87.599	0.94	940.4	study	Phase1	study/STIM_007.jpg	99
90.994	1.123	1123.1	study	Phase1	study/STIM_008.jpg	99
95.087	0.687	687.3	study	Phase1	study/STIM_008.jpg	99
98.47	0.807	806.9	study	Phase1	study/STIM_008.jpg	100
102.859	1.389	1388.7	study	Phase1	study/STIM_009.jpg	100
107.122	0.905	905.1	study	Phase1	study/STIM_009.jpg	100
112.044	1.11	1110.4	study	Phase1	study/STIM_009.jpg	100
116.663	1.07	1070.0	study	Phase1	study/STIM_010.jpg	99
121.548	0.792	791.6	study	Phase1	study/STIM_010.jpg	99
125.442	0.762	762.1	study	Phase1	study/STIM_010.jpg	99
129.425	0.712	712.4	study	Phase1	study/STIM_011.jpg	100
133.526	0.769	769.4	study	Phase1	study/STIM_011.jpg	99
137.594	0.725	724.8	study	Phase1	study/STIM_011.jpg	100
140.494	0.774	774.5	study	Phase1	study/STIM_012.jpg	99
144.453	1.157	1157.4	study	Phase1	study/STIM_012.jpg	100
148.38	1.243	1242.6	study	Phase1	study/STIM_012.jpg	100
152.389	0.72	719.9	study	Phase1	study/STIM_013.jpg	100
155.934	0.811	810.8	study	Phase1	study/STIM_013.jpg	100
160.521	0.744	743.5	study	Phase1	study/STIM_013.jpg	100
164.738	0.966	966.3	study	Phase1	study/STIM_014.jpg	99
168.754	0.757	756.7	study	Phase1	study/STIM_014.jpg	100
172.775	1.297	1297.3	study	Phase1	study/STIM_014.jpg	99
176.447	0.864	864.1	study	Phase1	study/STIM_015.jpg	99
181.115	1.355	1354.9	study	Phase1	study/STIM_015.jpg	99
184.903	0.722	722.4	study	Phase1	study/STIM_015.jpg	100
189.603	0.858	857.5	study	Phase1	study/STIM_016.jpg	99
193.265	0.677	676.9	study	Phase1	study/STIM_016.jpg	100
197.037	1.113	1113.3	study	Phase1	study/STIM_016.jpg	100
201.026	0.877	876.9	study	Phase1	study/STIM_017.jpg	99
205.439	0.946	946.0	study	Phase1	study/STIM_017.jpg	99
208.544	0.667	666.7	study	Phase1	study/STIM_017.jpg	99
212.35	1.059	1059.3	study	Phase1	study/STIM_018.jpg	100
216.593	0.965	965.4	study	Phase1	study/STIM_018.jpg	100
221.36	1.063	1062.6	study	Phase1	study/STIM_018.jpg	99
225.896	1.051	1051.0	study	Phase1	study/STIM_019.jpg	100
230.959	1.141	1141.3	study	Phase1	study/STIM_019.jpg	99
234.403	1.05	1050.2	study	Phase1	study/STIM_019.jpg	100
238.62	1.196	1195.6	study	Phase1	study/STIM_020.jpg	99
242.41	0.732	732.0	study	Phase1	study/STIM_020.jpg	100
246.909	1.274	1274.3	study	Phase1	study/STIM_020.jpg	100
252.061	1.287	1287.4	study	Phase1	study/STIM_021.jpg	100
257.086	0.798	798.2	study	Phase1	study/STIM_021.jpg	99
260.805	0.86	860.5	study	Phase1	study/STIM_021.jpg	99
264.147	0.938	938.4	study	Phase1	study/STIM_022.jpg	99
268.187	1.278	1278.4	study	Phase1	study/STIM_022.jpg	100
273.318	0.939	939.2	study	Phase1	study/STIM_022.jpg	100
276.988	0.734	734.0	study	Phase1	study/STIM_023.jpg	99
281.142	1.305	1305.3	study	Phase1	study/STIM_023.jpg	100
284.977	1.276	1276.4	study	Phase1	study/STIM_023.jpg	99
290.08	1.35	1350.4	study	Phase1	study/STIM_024.jpg	99
293.803	0.796	795.9	study	Phase1	study/STIM_024.jpg	99
297.218	0.972	972.5	study	Phase1	study/STIM_024.jpg	100
302.095	1.303	1302.8	study	Phase1	study/STIM_025.jpg	99
306.297	1.208	1208.1	study	Phase1	study/STIM_025.jpg	100
311.307	1.324	1323.8	study	Phase1	study/STIM_025.jpg	100
316.262	0.813	813.4	study	Phase1	study/STIM_026.jpg	100
319.253	0.775	774.8	study	Phase1	study/STIM_026.jpg	100
323.58	1.113	1112.7	study	Phase1	study/STIM_026.jpg	100
328.227	1.35	1350.1	study	Phase1	study/STIM_027.jpg	99
333.578	1.3	1299.5	study	Phase1	study/STIM_027.jpg	100
338.241	0.711	710.8	study	Phase1	study/STIM_027.jpg	100
342.71	1.376	1375.5	study	Phase1	study/STIM_028.jpg	100
347.191	0.673	673.2	study	Phase1	study/STIM_028.jpg	100
350.817	0.993	992.7	study	Phase1	study/STIM_028.jpg	100
354.192	1.132	1131.5	study	Phase1	study/STIM_029.jpg	100
359.491	1.354	1354.4	study	Phase1	study/STIM_029.jpg	99
365.069	1.015	1014.6	study	Phase1	study/STIM_029.jpg	99
369.363	0.65	650.5	test	Phase1	test/STIM_000.jpg	100
373.997	0.987	986.8	test	Phase1	test/STIM_000.jpg	99
377.741	0.556	556.3	test	Phase1	test/STIM_000.jpg	99
380.574	0.815	814.6	test	Phase1	test/STIM_001.jpg	99
385.026	0.55	550.5	test	Phase1	test/STIM_001.jpg	100
388.244	0.577	577.4	test	Phase1	test/STIM_001.jpg	99
391.516	0.896	895.7	test	Phase1	test/STIM_002.jpg	99
395.47	0.963	963.1	test	Phase1	test/STIM_002.jpg	99
400.382	0.606	606.4	test	Phase1	test/STIM_002.jpg	99
403.302	0.701	700.7	test	Phase1	test/STIM_003.jpg	100
408.095	0.991	991.2	test	Phase1	test/STIM_003.jpg	99
412.402	0.889	889.0	test	Phase1	test/STIM_003.jpg	100
416.911	0.857	856.6	test	Phase1	test/STIM_004.jpg	99
421.402	0.595	594.7	test	Phase1	test/STIM_004.jpg	100
425.472	1.025	1025.4	test	Phase1	test/STIM_004.jpg	99
430.627	0.644	644.5	test	Phase1	test/STIM_005.jpg	100
434.135	1.073	1073.4	test	Phase1	test/STIM_005.jpg	100
438.328	0.627	627.2	test	Phase1	test/STIM_005.jpg	100
442.774	0.697	697.3	test	Phase1	test/STIM_006.jpg	99
447.409	0.559	558.6	test	Phase1	test/STIM_006.jpg	100
450.571	0.62	620.0	test	Phase1	test/STIM_006.jpg	100
454.705	0.752	751.8	test	Phase1	test/STIM_007.jpg	99
459.399	0.954	953.5	test	Phase1	test/STIM_007.jpg	99
463.504	0.532	531.5	test	Phase1	test/STIM_007.jpg	99
467.169	0.825	825.4	test	Phase1	test/STIM_008.jpg	100
471.684	0.694	694.2	test	Phase1	test/STIM_008.jpg	99
475.036	0.77	770.0	test	Phase1	test/STIM_008.jpg	99
479.2	0.77	770.3	test	Phase1	test/STIM_009.jpg	99
482.154	0.798	797.7	test	Phase1	test/STIM_009.jpg	99
486.254	0.76	759.8	test	Phase1	test/STIM_009.jpg	99
491.045	0.832	832.2	test	Phase1	test/STIM_010.jpg	99
495.521	1.068	1068.3	test	Phase1	test/STIM_010.jpg	99
500.421	1.058	1058.5	test	Phase1	test/STIM_010.jpg	99
504.282	1.086	1086.4	test	Phase1	test/STIM_011.jpg	99
508.31	0.99	990.3	test	Phase1	test/STIM_011.jpg	99
511.817	0.841	841.4	test	Phase1	test/STIM_011.jpg	100
516.449	0.789	789.2	test	Phase1	test/STIM_012.jpg	100
519.992	0.86	860.3	test	Phase1	test/STIM_012.jpg	99
523.766	1.03	1029.7	test	Phase1	test/STIM_012.jpg	100
528.586	0.685	684.6	test	Phase1	test/STIM_013.jpg	99
531.604	0.963	962.6	test	Phase1	test/STIM_013.jpg	99
536.035	0.935	934.6	test	Phase1	test/STIM_013.jpg	100
540.074	0.757	757.2	test	Phase1	test/STIM_014.jpg	100
543.597	0.625	624.8	test	Phase1	test/STIM_014.jpg	100
547.664	0.934	933.6	test	Phase1	test/STIM_014.jpg	100
552.516	0.688	687.9	test	Phase1	test/STIM_015.jpg	100
556.812	1.065	1065.2	test	Phase1	test/STIM_015.jpg	99
560.942	1.055	1054.9	test	Phase1	test/STIM_015.jpg	99
565.133	1.058	1057.9	test	Phase1	test/STIM_016.jpg	100
568.853	0.71	709.8	test	Phase1	test/STIM_016.jpg	99
573.506	1.115	1114.7	test	Phase1	test/STIM_016.jpg	100
577.774	0.521	520.8	test	Phase1	test/STIM_017.jpg	99
581.16	0.895	894.9	test	Phase1	test/STIM_017.jpg	99
585.164	1.082	1081.9	test	Phase1	test/STIM_017.jpg	99
589.85	0.761	760.9	test	Phase1	test/STIM_018.jpg	99
594.087	0.521	520.9	test	Phase1	test/STIM_018.jpg	99
597.072	0.615	615.0	test	Phase1	test/STIM_018.jpg	99
600.268	0.8	799.8	test	Phase1	test/STIM_019.jpg	99
604.361	0.948	947.5	test	Phase1	test/STIM_019.jpg	99
608.672	1.01	1010.1	test	Phase1	test/STIM_019.jpg	99
613.27	0.709	708.8	test	Phase1	test/STIM_020.jpg	99
617.188	0.651	650.6	test	Phase1	test/STIM_020.jpg	100
620.032	0.574	574.0	test	Phase1	test/STIM_020.jpg	99
623.879	0.953	953.0	test	Phase1	test/STIM_021.jpg	99
628.673	1.087	1087.1	test	Phase1	test/STIM_021.jpg	99
633.462	0.83	829.9	test	Phase1	test/STIM_021.jpg	99
637.081	0.567	567.2	test	Phase1	test/STIM_022.jpg	100
640.201	0.897	896.6	test	Phase1	test/STIM_022.jpg	99
644.552	0.641	641.1	test	Phase1	test/STIM_022.jpg	99
647.521	1.052	1052.3	test	Phase1	test/STIM_023.jpg	100
652.105	0.555	555.2	test	Phase1	test/STIM_023.jpg	99
656.471	0.588	588.0	test	Phase1	test/STIM_023.jpg	100
660.245	0.679	679.4	test	Phase1	test/STIM_024.jpg	100
664.188	0.738	738.5	test	Phase1	test/STIM_024.jpg	100
668.119	0.747	747.1	test	Phase1	test/STIM_024.jpg	99
671.195	0.887	887.4	test	Phase1	test/STIM_025.jpg	100
675.042	0.654	654.2	test	Phase1	test/STIM_025.jpg	100
679.5	0.711	710.8	test	Phase1	test/STIM_025.jpg	99
684.223	0.854	854.0	test	Phase1	test/STIM_026.jpg	100
687.755	1.076	1075.6	test	Phase1	test/STIM_026.jpg	100
692.34	0.771	770.6	test	Phase1	test/STIM_026.jpg	99
696.665	0.685	684.8	test	Phase1	test/STIM_027.jpg	99
700.324	0.519	518.7	test	Phase1	test/STIM_027.jpg	99
703.174	0.821	821.0	test	Phase1	test/STIM_027.jpg	100
706.815	0.801	801.4	test	Phase1	test/STIM_028.jpg	100
710.566	0.624	624.2	test	Phase1	test/STIM_028.jpg	99
713.767	0.578	578.1	test	Phase1	test/STIM_028.jpg	100
716.486	0.774	773.6	test	Phase1	test/STIM_029.jpg	99
719.759	0.986	985.5	test	Phase1	test/STIM_029.jpg	99
724.739	0.868	867.6	test	Phase1	test/STIM_029.jpg	99
729.676	0.808	808.0	study	Phase2	study/STIM_000.jpg	100
733.186	1.049	1048.9	study	Phase2	study/STIM_000.jpg	99
736.674	0.582	581.8	study	Phase2	study/STIM_000.jpg	99
739.826	0.684	683.8	study	Phase2	study/STIM_001.jpg	99
744.229	0.74	740.4	study	Phase2	study/STIM_001.jpg	100
748.759	0.61	609.9	study	Phase2	study/STIM_001.jpg	100
753.38	1.197	1196.8	study	Phase2	study/STIM_002.jpg	100
757.415	0.647	646.8	study	Phase2	study/STIM_002.jpg	99
762.141	0.666	665.9	study	Phase2	study/STIM_002.jpg	100
766.6	0.754	753.7	study	Phase2	study/STIM_003.jpg	100
769.502	0.832	831.8	study	Phase2	study/STIM_003.jpg	100
774.277	0.597	596.9	study	Phase2	study/STIM_003.jpg	99
777.789	1.153	1152.6	study	Phase2	study/STIM_004.jpg	100
782.16	0.955	955.3	study	Phase2	study/STIM_004.jpg	99
786.229	1.153	1153.0	study	Phase2	study/STIM_004.jpg	99
790.612	0.799	799.0	study	Phase2	study/STIM_005.jpg	100
794.691	0.945	945.4	study	Phase2	study/STIM_005.jpg	99
798.572	0.847	847.0	study	Phase2	study/STIM_005.jpg	99
803.138	0.773	772.6	study	Phase2	study/STIM_006.jpg	99
806.57	0.556	556.4	study	Phase2	study/STIM_006.jpg	99
811.19	0.72	720.5	study	Phase2	study/STIM_006.jpg	99
814.268	0.81	809.7	study	Phase2	study/STIM_007.jpg	100
818.234	0.696	695.7	study	Phase2	study/STIM_007.jpg	99
821.327	0.791	791.3	study	Phase2	study/STIM_007.jpg	100
824.373	0.874	874.1	study	Phase2	study/STIM_008.jpg	99
827.873	0.964	963.9	study	Phase2	study/STIM_008.jpg	99
832.258	0.617	617.0	study	Phase2	study/STIM_008.jpg	100
835.396	0.978	977.5	study	Phase2	study/STIM_009.jpg	99
839.196	1.088	1088.5	study	Phase2	study/STIM_009.jpg	100
844.415	0.59	589.7	study	Phase2	study/STIM_009.jpg	99
847.839	1.214	1214.3	study	Phase2	study/STIM_010.jpg	99
852.004	0.779	779.3	study	Phase2	study/STIM_010.jpg	99
856.883	0.637	636.9	study	Phase2	study/STIM_010.jpg	99
860.697	0.696	695.9	study	Phase2	study/STIM_011.jpg	100
865.486	0.86	859.8	study	Phase2	study/STIM_011.jpg	99
868.918	0.687	687.4	study	Phase2	study/STIM_011.jpg	99
872.391	0.915	915.2	study	Phase2	study/STIM_012.jpg	100
876.111	0.597	597.3	study	Phase2	study/STIM_012.jpg	99
879.205	1.002	1001.8	study	Phase2	study/STIM_012.jpg	99
883.321	0.796	795.8	study	Phase2	study/STIM_013.jpg	99
887.938	0.746	745.5	study	Phase2	study/STIM_013.jpg	100
892.17	0.64	640.3	study	Phase2	study/STIM_013.jpg	100
895.105	1.036	1035.6	study	Phase2	study/STIM_014.jpg	99
898.54	0.994	994.5	study	Phase2	study/STIM_014.jpg	99
902.133	0.742	742.1	study	Phase2	study/STIM_014.jpg	99
905.181	1.282	1281.7	study	Phase2	study/STIM_015.jpg	100
908.88	1.114	1113.8	study	Phase2	study/STIM_015.jpg	99
913.372	0.693	693.1	study	Phase2	study/STIM_015.jpg	100
917.626	0.986	985.9	study	Phase2	study/STIM_016.jpg	100
921.283	0.812	811.8	study	Phase2	study/STIM_016.jpg	99
924.904	0.955	955.1	study	Phase2	study/STIM_016.jpg	100
928.683	0.754	753.7	study	Phase2	study/STIM_017.jpg	99
933.343	0.83	830.4	study	Phase2	study/STIM_017.jpg	100
937.701	1.019	1019.2	study	Phase2	study/STIM_017.jpg	99
942.079	1.012	1012.4	study	Phase2	study/STIM_018.jpg	99
946.759	0.843	842.9	study	Phase2	study/STIM_018.jpg	100
950.775	0.675	674.6	study	Phase2	study/STIM_018.jpg	99
955.035	1.294	1293.5	study	Phase2	study/STIM_019.jpg	100
958.672	1.227	1227.1	study	Phase2	study/STIM_019.jpg	99
963.995	0.582	581.6	study	Phase2	study/STIM_019.jpg	100
966.941	1.193	1192.6	study	Phase2	study/STIM_020.jpg	100
971.334	0.677	677.1	study	Phase2	study/STIM_020.jpg	99
975.3	0.841	840.6	study	Phase2	study/STIM_020.jpg	99
978.89	0.877	876.8	study	Phase2	study/STIM_021.jpg	99
983.132	0.839	839.4	study	Phase2	study/STIM_021.jpg	100
987.394	0.771	771.2	study	Phase2	study/STIM_021.jpg	100
992.104	0.595	595.2	study	Phase2	study/STIM_022.jpg	99
996.685	0.998	997.9	study	Phase2	study/STIM_022.jpg	100
1000.255	1.051	1050.9	study	Phase2	study/STIM_022.jpg	100
1003.976	0.723	723.3	study	Phase2	study/STIM_023.jpg	100
1008.726	0.962	962.2	study	Phase2	study/STIM_023.jpg	100
1013.756	0.663	663.1	study	Phase2	study/STIM_023.jpg	99
1017.727	0.954	953.7	study	Phase2	study/STIM_024.jpg	99
1020.963	0.861	860.9	study	Phase2	study/STIM_024.jpg	99
1024.515	0.658	657.8	study	Phase2	study/STIM_024.jpg	99
1027.988	0.809	808.6	study	Phase2	study/STIM_025.jpg	100
1032.796	0.943	943.3	study	Phase2	study/STIM_025.jpg	100
1037.878	0.744	743.8	study	Phase2	study/STIM_025.jpg	99
1042.663	1.027	1027.1	study	Phase2	study/STIM_026.jpg	100
1047.239	0.69	690.3	study	Phase2	study/STIM_026.jpg	99
1050.499	0.672	672.3	study	Phase2	study/STIM_026.jpg	99
1055.044	0.799	799.2	study	Phase2	study/STIM_027.jpg	99
1058.15	0.931	930.6	study	Phase2	study/STIM_027.jpg	99
1061.525	0.579	578.8	study	Phase2	study/STIM_027.jpg	99
1065.326	0.798	798.0	study	Phase2	study/STIM_028.jpg	100
1069.105	0.765	764.6	study	Phase2	study/STIM_028.jpg	99
1072.081	0.666	665.6	study	Phase2	study/STIM_028.jpg	100
1076.524	0.665	664.7	study	Phase2	study/STIM_029.jpg	99
1080.686	0.736	736.2	study	Phase2	study/STIM_029.jpg	99
1084.138	0.611	611.2	study	Phase2	study/STIM_029.jpg	100
1088.011	1.011	1010.8	test	Phase2	test/STIM_000.jpg	99
1091.885	0.796	795.8	test	Phase2	test/STIM_000.jpg	100
1096.316	0.711	711.0	test	Phase2	test/STIM_000.jpg	100
1099.923	0.945	945.0	test	Phase2	test/STIM_001.jpg	100
1103.539	0.771	770.6	test	Phase2	test/STIM_001.jpg	100
1107.583	1.094	1094.5	test	Phase2	test/STIM_001.jpg	100
1111.78	0.766	766.4	test	Phase2	test/STIM_002.jpg	100
1116.297	1.02	1020.0	test	Phase2	test/STIM_002.jpg	100
1120.769	1.085	1084.6	test	Phase2	test/STIM_002.jpg	99
1125.699	1.068	1068.2	test	Phase2	test/STIM_003.jpg	99
1130.402	0.741	741.1	test	Phase2	test/STIM_003.jpg	100
1134.439	0.633	632.7	test	Phase2	test/STIM_003.jpg	99
1138.922	0.566	566.4	test	Phase2	test/STIM_004.jpg	99
1142.795	0.714	713.5	test	Phase2	test/STIM_004.jpg	99
1146.439	0.567	566.7	test	Phase2	test/STIM_004.jpg	99
1150.896	0.646	645.6	test	Phase2	test/STIM_005.jpg	100
1155.592	1.011	1011.2	test	Phase2	test/STIM_005.jpg	99
1159.788	0.953	953.2	test	Phase2	test/STIM_005.jpg	100
1164.421	0.789	789.4	test	Phase2	test/STIM_006.jpg	99
1168.271	0.904	903.8	test	Phase2	test/STIM_006.jpg	100
1171.465	0.554	553.8	test	Phase2	test/STIM_006.jpg	99
1174.415	0.692	691.5	test	Phase2	test/STIM_007.jpg	100
1178.04	0.624	623.7	test	Phase2	test/STIM_007.jpg	99
1181.905	0.787	786.6	test	Phase2	test/STIM_007.jpg	99
1185.391	0.912	911.8	test	Phase2	test/STIM_008.jpg	99
1189.239	0.96	959.7	test	Phase2	test/STIM_008.jpg	99
1193.537	0.607	606.9	test	Phase2	test/STIM_008.jpg	100
1197.291	0.92	920.1	test	Phase2	test/STIM_009.jpg	99
1202.199	0.65	650.3	test	Phase2	test/STIM_009.jpg	99
1205.362	0.617	616.6	test	Phase2	test/STIM_009.jpg	99
1209.677	0.812	812.3	test	Phase2	test/STIM_010.jpg	100
1214.525	0.738	737.5	test	Phase2	test/STIM_010.jpg	100
1217.933	0.658	658.3	test	Phase2	test/STIM_010.jpg	99
1221.283	0.825	824.6	test	Phase2	test/STIM_011.jpg	99
1225.799	0.941	941.2	test	Phase2	test/STIM_011.jpg	99
1229.128	0.84	840.5	test	Phase2	test/STIM_011.jpg	100
1232.277	0.831	831.3	test	Phase2	test/STIM_012.jpg	100
1236.759	0.703	703.4	test	Phase2	test/STIM_012.jpg	100
1241.096	0.549	549.4	test	Phase2	test/STIM_012.jpg	100
1244.861	0.932	932.3	test	Phase2	test/STIM_013.jpg	99
1248.915	0.736	735.7	test	Phase2	test/STIM_013.jpg	100
1253.665	0.705	705.4	test	Phase2	test/STIM_013.jpg	99
1256.822	1.03	1029.6	test	Phase2	test/STIM_014.jpg	99
1261.579	1.0	1000.4	test	Phase2	test/STIM_014.jpg	100
1265.847	0.621	621.1	test	Phase2	test/STIM_014.jpg	100
1269.719	0.735	734.9	test	Phase2	test/STIM_015.jpg	100
1273.572	0.876	876.3	test	Phase2	test/STIM_015.jpg	99
1276.659	0.948	948.1	test	Phase2	test/STIM_015.jpg	99
1281.069	0.843	843.0	test	Phase2	test/STIM_016.jpg	99
1285.722	0.763	762.8	test	Phase2	test/STIM_016.jpg	100
1288.846	0.747	746.8	test	Phase2	test/STIM_016.jpg	99
1292.962	0.806	805.6	test	Phase2	test/STIM_017.jpg	100
1297.507	0.679	678.8	test	Phase2	test/STIM_017.jpg	99
1301.522	0.739	738.6	test	Phase2	test/STIM_017.jpg	100
1304.847	1.049	1048.6	test	Phase2	test/STIM_018.jpg	99
1309.22	0.795	794.7	test	Phase2	test/STIM_018.jpg	99
1313.078	0.902	901.6	test	Phase2	test/STIM_018.jpg	100
1317.806	0.936	936.2	test	Phase2	test/STIM_019.jpg	99
1322.559	0.807	807.4	test	Phase2	test/STIM_019.jpg	99
1325.656	0.935	934.8	test	Phase2	test/STIM_019.jpg	100
1330.36	0.908	908.5	test	Phase2	test/STIM_020.jpg	99
1333.607	0.722	721.9	test	Phase2	test/STIM_020.jpg	100
1338.372	0.66	659.7	test	Phase2	test/STIM_020.jpg	100
1342.289	0.534	533.9	test	Phase2	test/STIM_021.jpg	99
1346.523	0.681	680.6	test	Phase2	test/STIM_021.jpg	99
1349.789	0.561	560.6	test	Phase2	test/STIM_021.jpg	99
1354.117	0.765	765.3	test	Phase2	test/STIM_022.jpg	100
1358.071	0.803	803.3	test	Phase2	test/STIM_022.jpg	100
1361.854	0.996	996.3	test	Phase2	test/STIM_022.jpg	100
1366.289	0.937	936.6	test	Phase2	test/STIM_023.jpg	100
1369.829	0.878	877.6	test	Phase2	test/STIM_023.jpg	99
1373.617	0.579	578.8	test	Phase2	test/STIM_023.jpg	100
1377.966	0.965	965.0	test	Phase2	test/STIM_024.jpg	100
1382.748	0.563	563.2	test	Phase2	test/STIM_024.jpg	100
1387.141	1.018	1018.5	test	Phase2	test/STIM_024.jpg	100
1391.819	0.771	771.4	test	Phase2	test/STIM_025.jpg	99
1395.779	0.974	974.0	test	Phase2	test/STIM_025.jpg	100
1400.095	0.845	845.2	test	Phase2	test/STIM_025.jpg	100
1404.471	1.066	1066.1	test	Phase2	test/STIM_026.jpg	100
1408.153	1.011	1010.7	test	Phase2	test/STIM_026.jpg	99
1412.576	1.045	1044.8	test	Phase2	test/STIM_026.jpg	100
1417.493	0.994	994.3	test	Phase2	test/STIM_027.jpg	100
1421.27	0.758	758.2	test	Phase2	test/STIM_027.jpg	99
1424.557	0.863	862.8	test	Phase2	test/STIM_027.jpg	100
1427.999	0.973	973.1	test	Phase2	test/STIM_028.jpg	99
1433.104	0.816	815.5	test	Phase2	test/STIM_028.jpg	100
1436.128	1.089	1089.2	test	Phase2	test/STIM_028.jpg	100
1440.474	0.752	752.4	test	Phase2	test/STIM_029.jpg	99
1444.637	0.912	912.4	test	Phase2	test/STIM_029.jpg	100
1448.7	0.989	989.4	test	Phase2	test/STIM_029.jpg	100
1452.185	0.669	668.6	study	Phase3	study/STIM_000.jpg	99
1455.216	0.707	707.2	study	Phase3	study/STIM_000.jpg	100
1458.186	0.843	843.0	study	Phase3	study/STIM_000.jpg	99
1463.097	0.978	978.3	study	Phase3	study/STIM_001.jpg	99
1466.282	0.981	981.0	study	Phase3	study/STIM_001.jpg	100
1469.837	0.807	807.4	study	Phase3	study/STIM_001.jpg	99
1474.445	0.947	947.1	study	Phase3	study/STIM_002.jpg	100
1479.182	0.612	612.4	study	Phase3	study/STIM_002.jpg	99
1482.606	0.881	880.9	study	Phase3	study/STIM_002.jpg	100
1487.044	1.064	1064.2	study	Phase3	study/STIM_003.jpg	100
1490.472	0.555	554.6	study	Phase3	study/STIM_003.jpg	99
1493.7	0.965	965.0	study	Phase3	study/STIM_003.jpg	99
1497.794	0.911	911.0	study	Phase3	study/STIM_004.jpg	100
1501.562	0.935	934.9	study	Phase3	study/STIM_004.jpg	100
1504.681	0.567	566.8	study	Phase3	study/STIM_004.jpg	99
1508.045	0.655	655.4	study	Phase3	study/STIM_005.jpg	100
1512.465	0.596	595.8	study	Phase3	study/STIM_005.jpg	100
1515.895	0.784	784.1	study	Phase3	study/STIM_005.jpg	99
1520.596	0.596	595.9	study	Phase3	study/STIM_006.jpg	100
1524.545	0.717	717.1	study	Phase3	study/STIM_006.jpg	100
1527.616	0.816	816.0	study	Phase3	study/STIM_006.jpg	99
1532.562	0.724	724.1	study	Phase3	study/STIM_007.jpg	99
1536.663	0.627	627.1	study	Phase3	study/STIM_007.jpg	100
1540.36	0.753	752.8	study	Phase3	study/STIM_007.jpg	100
1543.67	1.024	1023.5	study	Phase3	study/STIM_008.jpg	100
1547.53	0.589	588.9	study	Phase3	study/STIM_008.jpg	99
1550.881	0.815	814.9	study	Phase3	study/STIM_008.jpg	100
1555.66	0.54	539.7	study	Phase3	study/STIM_009.jpg	100
1558.508	0.635	634.6	study	Phase3	study/STIM_009.jpg	99
1562.478	0.617	616.9	study	Phase3	study/STIM_009.jpg	99
1566.798	0.933	933.0	study	Phase3	study/STIM_010.jpg	100
1571.125	0.782	781.5	study	Phase3	study/STIM_010.jpg	100
1574.483	0.815	815.2	study	Phase3	study/STIM_010.jpg	100
1578.622	1.033	1032.6	study	Phase3	study/STIM_011.jpg	99
1583.216	0.87	870.0	study	Phase3	study/STIM_011.jpg	100
1587.52	0.614	613.6	study	Phase3	study/STIM_011.jpg	100
1592.192	0.508	507.6	study	Phase3	study/STIM_012.jpg	99
1595.634	0.697	696.6	study	Phase3	study/STIM_012.jpg	100
1599.937	1.024	1024.1	study	Phase3	study/STIM_012.jpg	99
1604.259	1.016	1016.3	study	Phase3	study/STIM_013.jpg	99
1609.382	0.912	911.5	study	Phase3	study/STIM_013.jpg	100
1612.491	0.976	976.0	study	Phase3	study/STIM_013.jpg	100
1617.121	0.648	648.5	study	Phase3	study/STIM_014.jpg	99
1620.51	0.751	751.1	study	Phase3	study/STIM_014.jpg	100
1625.212	0.621	621.0	study	Phase3	study/STIM_014.jpg	99
1628.658	0.879	878.6	study	Phase3	study/STIM_015.jpg	100
1633.53	0.541	541.4	study	Phase3	study/STIM_015.jpg	100
1637.694	0.702	701.9	study	Phase3	study/STIM_015.jpg	100
1641.519	0.872	872.0	study	Phase3	study/STIM_016.jpg	99
1645.119	0.966	966.5	study	Phase3	study/STIM_016.jpg	100
1648.316	0.65	649.8	study	Phase3	study/STIM_016.jpg	100
1651.472	0.977	977.3	study	Phase3	study/STIM_017.jpg	100
1655.554	1.03	1030.2	study	Phase3	study/STIM_017.jpg	99
1659.225	0.878	877.6	study	Phase3	study/STIM_017.jpg	100
1662.919	0.687	686.8	study	Phase3	study/STIM_018.jpg	100
1666.302	0.907	907.0	study	Phase3	study/STIM_018.jpg	99
1670.24	0.719	719.3	study	Phase3	study/STIM_018.jpg	99
1673.646	0.532	531.9	study	Phase3	study/STIM_019.jpg	100
1676.908	0.809	809.3	study	Phase3	study/STIM_019.jpg	99
1680.643	1.048	1047.7	study	Phase3	study/STIM_019.jpg	100
1685.834	1.007	1006.6	study	Phase3	study/STIM_020.jpg	99
1690.204	0.558	558.2	study	Phase3	study/STIM_020.jpg	100
1694.055	0.785	784.9	study	Phase3	study/STIM_020.jpg	99
1697.858	0.795	795.0	study	Phase3	study/STIM_021.jpg	99
1702.22	1.007	1006.8	study	Phase3	study/STIM_021.jpg	100
1706.965	0.489	488.7	study	Phase3	study/STIM_021.jpg	99
1710.085	1.014	1013.7	study	Phase3	study/STIM_022.jpg	100
1714.146	0.93	930.5	study	Phase3	study/STIM_022.jpg	100
1718.062	0.888	887.9	study	Phase3	study/STIM_022.jpg	99
1721.648	0.868	868.5	study	Phase3	study/STIM_023.jpg	100
1726.049	0.482	482.3	study	Phase3	study/STIM_023.jpg	99
1729.413	0.662	662.5	study	Phase3	study/STIM_023.jpg	99
1733.476	1.06	1060.1	study	Phase3	study/STIM_024.jpg	99
1738.146	0.768	768.1	study	Phase3	study/STIM_024.jpg	99
1741.106	0.696	696.1	study	Phase3	study/STIM_024.jpg	99
1744.686	0.758	757.6	study	Phase3	study/STIM_025.jpg	99
1748.117	0.518	517.6	study	Phase3	study/STIM_025.jpg	99
1751.617	0.844	844.3	study	Phase3	study/STIM_025.jpg	99
1756.198	0.931	931.4	study	Phase3	study/STIM_026.jpg	100
1760.283	0.693	692.9	study	Phase3	study/STIM_026.jpg	99
1763.199	0.572	572.0	study	Phase3	study/STIM_026.jpg	99
1767.094	0.485	485.3	study	Phase3	study/STIM_027.jpg	100
1770.777	0.772	771.5	study	Phase3	study/STIM_027.jpg	99
1774.715	0.578	577.6	study	Phase3	study/STIM_027.jpg	99
1777.968	0.906	906.5	study	Phase3	study/STIM_028.jpg	100
1781.984	0.824	823.7	study	Phase3	study/STIM_028.jpg	100
1785.559	0.539	538.9	study	Phase3	study/STIM_028.jpg	100
1789.387	0.899	899.4	study	Phase3	study/STIM_029.jpg	99
1793.948	0.831	831.4	study	Phase3	study/STIM_029.jpg	100
1798.697	0.664	663.9	study	Phase3	study/STIM_029.jpg	99
1801.647	0.947	947.4	test	Phase3	test/STIM_000.jpg	100
1806.152	1.065	1064.6	test	Phase3	test/STIM_000.jpg	100
1810.515	0.887	886.7	test	Phase3	test/STIM_000.jpg	99
1814.174	1.089	1089.0	test	Phase3	test/STIM_001.jpg	100
1818.971	0.895	894.8	test	Phase3	test/STIM_001.jpg	99
1822.071	0.562	561.7	test	Phase3	test/STIM_001.jpg	99
1825.912	0.877	876.8	test	Phase3	test/STIM_002.jpg	99
1829.869	0.556	555.6	test	Phase3	test/STIM_002.jpg	99
1832.533	0.981	981.2	test	Phase3	test/STIM_002.jpg	100
1837.673	0.762	762.2	test	Phase3	test/STIM_003.jpg	99
1841.031	0.868	867.7	test	Phase3	test/STIM_003.jpg	99
1844.249	0.588	587.7	test	Phase3	test/STIM_003.jpg	100
1848.269	0.665	665.2	test	Phase3	test/STIM_004.jpg	99
1851.302	1.071	1070.6	test	Phase3	test/STIM_004.jpg	100
1854.712	0.719	718.7	test	Phase3	test/STIM_004.jpg	100
1858.604	0.927	927.2	test	Phase3	test/STIM_005.jpg	100
1863.006	0.734	733.8	test	Phase3	test/STIM_005.jpg	99
1867.81	1.007	1006.8	test	Phase3	test/STIM_005.jpg	100
1871.882	0.896	896.1	test	Phase3	test/STIM_006.jpg	100
1876.082	0.835	835.2	test	Phase3	test/STIM_006.jpg	100
1879.338	0.97	970.5	test	Phase3	test/STIM_006.jpg	99
1882.957	0.958	957.8	test	Phase3	test/STIM_007.jpg	100
1886.627	1.039	1038.7	test	Phase3	test/STIM_007.jpg	99
1890.529	0.771	771.4	test	Phase3	test/STIM_007.jpg	99
1893.851	0.796	796.2	test	Phase3	test/STIM_008.jpg	99
1897.859	0.88	880.0	test	Phase3	test/STIM_008.jpg	100
1901.283	0.761	761.0	test	Phase3	test/STIM_008.jpg	99
1905.73	0.907	907.4	test	Phase3	test/STIM_009.jpg	100
1910.737	0.58	579.5	test	Phase3	test/STIM_009.jpg	99
1914.095	0.652	652.0	test	Phase3	test/STIM_009.jpg	99
1916.934	0.621	621.3	test	Phase3	test/STIM_010.jpg	100
1921.025	1.041	1040.7	test	Phase3	test/STIM_010.jpg	99
1924.602	0.854	854.3	test	Phase3	test/STIM_010.jpg	100
1928.219	0.999	998.8	test	Phase3	test/STIM_011.jpg	100
1931.683	0.778	778.1	test	Phase3	test/STIM_011.jpg	99
1935.376	0.808	807.7	test	Phase3	test/STIM_011.jpg	100
1940.192	0.853	852.6	test	Phase3	test/STIM_012.jpg	99
1944.707	0.912	911.8	test	Phase3	test/STIM_012.jpg	99
1947.774	0.883	883.1	test	Phase3	test/STIM_012.jpg	100
1951.039	0.782	781.7	test	Phase3	test/STIM_013.jpg	100
1955.874	0.739	739.4	test	Phase3	test/STIM_013.jpg	100
1960.438	0.715	715.3	test	Phase3	test/STIM_013.jpg	100
1963.836	1.055	1054.7	test	Phase3	test/STIM_014.jpg	100
1967.723	0.794	793.7	test	Phase3	test/STIM_014.jpg	100
1972.524	0.77	770.5	test	Phase3	test/STIM_014.jpg	100
1975.745	0.609	608.9	test	Phase3	test/STIM_015.jpg	100
1979.474	0.626	626.3	test	Phase3	test/STIM_015.jpg	100
1983.771	1.011	1011.3	test	Phase3	test/STIM_015.jpg	99
1988.089	1.035	1035.4	test	Phase3	test/STIM_016.jpg	100
1992.51	0.97	970.4	test	Phase3	test/STIM_016.jpg	100
1995.788	0.725	725.0	test	Phase3	test/STIM_016.jpg	100
1999.018	0.604	603.9	test	Phase3	test/STIM_017.jpg	99
2001.786	0.961	961.2	test	Phase3	test/STIM_017.jpg	100
2005.155	0.935	934.6	test	Phase3	test/STIM_017.jpg	99
2008.284	0.655	655.0	test	Phase3	test/STIM_018.jpg	99
2011.818	1.078	1078.4	test	Phase3	test/STIM_018.jpg	99
2015.511	0.643	643.3	test	Phase3	test/STIM_018.jpg	100
2020.054	1.103	1103.2	test	Phase3	test/STIM_019.jpg	100
2025.044	1.023	1023.3	test	Phase3	test/STIM_019.jpg	99
2029.889	0.64	639.8	test	Phase3	test/STIM_019.jpg	99
2033.916	1.04	1040.0	test	Phase3	test/STIM_020.jpg	100
2038.807	0.799	799.4	test	Phase3	test/STIM_020.jpg	99
2043.699	0.607	606.9	test	Phase3	test/STIM_020.jpg	100
2047.451	0.901	901.0	test	Phase3	test/STIM_021.jpg	100
2051.32	0.766	766.2	test	Phase3	test/STIM_021.jpg	99
2054.252	0.813	813.0	test	Phase3	test/STIM_021.jpg	100
2059.055	0.567	567.4	test	Phase3	test/STIM_022.jpg	99
2063.612	1.056	1055.8	test	Phase3	test/STIM_022.jpg	99
2068.021	0.683	683.3	test	Phase3	test/STIM_022.jpg	100
2070.998	0.987	986.8	test	Phase3	test/STIM_023.jpg	100
2075.484	0.73	729.5	test	Phase3	test/STIM_023.jpg	100
2079.444	0.996	996.3	test	Phase3	test/STIM_023.jpg	99
2083.403	0.593	592.9	test	Phase3	test/STIM_024.jpg	99
2087.303	0.628	628.3	test	Phase3	test/STIM_024.jpg	99
2091.83	0.836	835.6	test	Phase3	test/STIM_024.jpg	100
2094.911	0.587	586.7	test	Phase3	test/STIM_025.jpg	99
2098.931	0.9	899.8	test	Phase3	test/STIM_025.jpg	100
2103.247	0.758	757.9	test	Phase3	test/STIM_025.jpg	100
2107.734	0.714	714.4	test	Phase3	test/STIM_026.jpg	99
2112.313	0.642	642.1	test	Phase3	test/STIM_026.jpg	99
2116.475	0.925	925.2	test	Phase3	test/STIM_026.jpg	100
2119.921	0.726	726.3	test	Phase3	test/STIM_027.jpg	100
2123.85	0.69	690.4	test	Phase3	test/STIM_027.jpg	99
2126.655	0.551	550.6	test	Phase3	test/STIM_027.jpg	99
2131.213	1.05	1049.7	test	Phase3	test/STIM_028.jpg	100
2135.271	0.543	542.7	test	Phase3	test/STIM_028.jpg	99
2139.255	0.596	595.9	test	Phase3	test/STIM_028.jpg	100
2142.062	0.8	800.0	test	Phase3	test/STIM_029.jpg	100
2145.177	0.762	761.7	test	Phase3	test/STIM_029.jpg	99
2149.14	0.964	964.5	test	Phase3	test/STIM_029.jpg	100
