onset	duration	response_time_ms	trial_type	learning_stage	stimulus	response_port
0.0	0.863	863.1	study	Phase1	study/STIM_000.jpg	99
3.511	1.236	1236.1	study	Phase1	study/STIM_000.jpg	99
8.021	0.987	986.6	study	Phase1	study/STIM_000.jpg	100
12.276	0.953	953.4	study	Phase1	study/STIM_001.jpg	99
16.924	1.058	1058.4	study	Phase1	study/STIM_001.jpg	99
21.28	0.97	970.0	study	Phase1	study/STIM_001.jpg	99
25.201	0.953	953.0	study	Phase1	study/STIM_002.jpg	100
28.278	0.985	984.8	study	Phase1	study/STIM_002.jpg	100
33.187	1.174	1174.5	study	Phase1	study/STIM_002.jpg	100
36.452	0.851	851.3	study	Phase1	study/STIM_003.jpg	100
40.55	0.884	884.0	study	Phase1	study/STIM_003.jpg	99
44.512	1.389	1389.1	study	Phase1	study/STIM_003.jpg	99
49.094	1.424	1424.5	study	Phase1	study/STIM_004.jpg	99
54.133	0.96	960.1	study	Phase1	study/STIM_004.jpg	100
58.62	1.293	1292.8	study	Phase1	study/STIM_004.jpg	100
63.72	0.844	843.7	study	Phase1	study/STIM_005.jpg	100
68.156	0.939	938.8	study	Phase1	study/STIM_005.jpg	100
71.898	1.369	1369.0	study	Phase1	study/STIM_005.jpg	100
76.61	0.755	754.6	study	Phase1	study/STIM_006.jpg	100
80.067	0.788	788.2	study	Phase1	study/STIM_006.jpg	99
84.583	1.315	1314.7	study	Phase1	study/STIM_006.jpg	99
88.944	0.924	924.2	study	Phase1	study/STIM_007.jpg	100
92.9	1.369	1369.4	study	Phase1	study/STIM_007.jpg	99
96.863	1.459	1459.2	study	Phase1	study/STIM_007.jpg	99
102.2	1.682	1682.2	study	Phase1	study/STIM_008.jpg	99
106.458	1.419	1419.1	study	Phase1	study/STIM_008.jpg	99
110.382	1.339	1339.4	study	Phase1	study/STIM_008.jpg	100
114.124	1.363	1362.7	study	Phase1	study/STIM_009.jpg	100
117.737	0.961	960.8	study	Phase1	study/STIM_009.jpg	100
121.457	1.321	1321.3	study	Phase1	study/STIM_009.jpg	100
126.104	0.757	757.1	study	Phase1	study/STIM_010.jpg	99
129.307	0.956	956.3	study	Phase1	study/STIM_010.jpg	99
133.084	0.74	739.6	study	Phase1	study/STIM_010.jpg	99
137.399	1.29	1290.5	study	Phase1	study/STIM_011.jpg	100
142.47	1.575	1575.1	study	Phase1	study/STIM_011.jpg	99
147.454	1.388	1387.7	study	Phase1	study/STIM_011.jpg	100
151.489	1.201	1200.6	study	Phase1	study/STIM_012.jpg	99
155.491	1.543	1543.2	study	Phase1	study/STIM_012.jpg	100
159.516	1.171	1171.0	study	Phase1	study/STIM_012.jpg	100
162.968	1.088	1087.8	study	Phase1	study/STIM_013.jpg	100
167.19	0.907	907.2	study	Phase1	study/STIM_013.jpg	100
171.133	1.139	1139.0	study	Phase1	study/STIM_013.jpg	100
175.533	0.816	815.7	study	Phase1	study/STIM_014.jpg	99
179.442	0.769	768.8	study	Phase1	study/STIM_014.jpg	100
182.495	1.246	1245.7	study	Phase1	study/STIM_014.jpg	99
186.54	1.47	1469.5	study	Phase1	study/STIM_015.jpg	99
191.461	1.164	1164.3	study	Phase1	study/STIM_015.jpg	99
196.146	1.189	1189.4	study	Phase1	study/STIM_015.jpg	100
200.914	1.642	1642.5	study	Phase1	study/STIM_016.jpg	99
205.711	0.791	790.6	study	Phase1	study/STIM_016.jpg	100
209.326	1.382	1382.0	study	Phase1	study/STIM_016.jpg	100
214.17	0.769	769.1	study	Phase1	study/STIM_017.jpg	99
218.741	0.914	913.8	study	Phase1	study/STIM_017.jpg	99
222.522	1.271	1271.4	study	Phase1	study/STIM_017.jpg	99
226.713	1.38	1380.2	study	Phase1	study/STIM_018.jpg	100
231.597	0.85	850.3	study	Phase1	study/STIM_018.jpg	100
235.76	1.376	1376.2	study	Phase1	study/STIM_018.jpg	99
240.579	1.088	1088.4	study	Phase1	study/STIM_019.jpg	100
244.101	1.485	1485.2	study	Phase1	study/STIM_019.jpg	99
249.49	0.74	740.3	study	Phase1	study/STIM_019.jpg	100
253.527	1.419	1418.6	study	Phase1	study/STIM_020.jpg	99
258.486	1.034	1034.3	study	Phase1	study/STIM_020.jpg	100
261.929	0.686	686.2	study	Phase1	study/STIM_020.jpg	100
264.799	1.053	1053.1	study	Phase1	study/STIM_021.jpg	100
269.641	1.463	1462.7	study	Phase1	study/STIM_021.jpg	99
273.372	0.839	839.3	study	Phase1	study/STIM_021.jpg	99
277.31	0.923	922.6	study	Phase1	study/STIM_022.jpg	99
281.023	1.516	1515.8	study	Phase1	study/STIM_022.jpg	100
285.326	1.103	1102.8	study	Phase1	study/STIM_022.jpg	100
290.166	1.291	1290.6	study	Phase1	study/STIM_023.jpg	99
294.263	1.584	1584.0	study	Phase1	study/STIM_023.jpg	100
299.409	1.056	1056.3	study	Phase1	study/STIM_023.jpg	99
303.324	1.411	1411.3	study	Phase1	study/STIM_024.jpg	99
307.75	1.143	1142.6	study	Phase1	study/STIM_024.jpg	99
311.246	1.47	1469.9	study	Phase1	study/STIM_024.jpg	100
316.318	1.423	1423.0	study	Phase1	study/STIM_025.jpg	99
321.614	1.27	1269.8	study	Phase1	study/STIM_025.jpg	100
325.219	1.206	1205.8	study	Phase1	study/STIM_025.jpg	100
328.968	1.447	1446.8	study	Phase1	study/STIM_026.jpg	100
334.078	0.993	992.8	study	Phase1	study/STIM_026.jpg	100
337.679	1.301	1300.7	study	Phase1	study/STIM_026.jpg	100
342.175	1.142	1141.7	study	Phase1	study/STIM_027.jpg	99
345.672	0.783	782.9	study	Phase1	study/STIM_027.jpg	100
350.153	0.694	693.7	study	Phase1	study/STIM_027.jpg	100
353.761	1.444	1444.0	study	Phase1	study/STIM_028.jpg	100
357.748	0.921	920.6	study	Phase1	study/STIM_028.jpg	100
361.119	0.974	974.1	study	Phase1	study/STIM_028.jpg	100
365.315	0.828	827.5	study	Phase1	study/STIM_029.jpg	100
369.097	1.547	1547.4	study	Phase1	study/STIM_029.jpg	99
374.097	1.294	1293.8	study	Phase1	study/STIM_029.jpg	99
379.197	0.886	886.3	test	Phase1	test/STIM_000.jpg	100
382.375	0.733	732.9	test	Phase1	test/STIM_000.jpg	99
385.746	0.892	891.9	test	Phase1	test/STIM_000.jpg	99
389.919	0.884	883.6	test	Phase1	test/STIM_001.jpg	99
394.102	0.841	840.9	test	Phase1	test/STIM_001.jpg	100
397.131	0.708	708.3	test	Phase1	test/STIM_001.jpg	99
401.71	0.848	847.7	test	Phase1	test/STIM_002.jpg	99
404.835	0.615	615.4	test	Phase1	test/STIM_002.jpg	99
407.824	0.891	891.1	test	Phase1	test/STIM_002.jpg	99
412.323	0.774	774.1	test	Phase1	test/STIM_003.jpg	100
416.539	0.848	848.3	test	Phase1	test/STIM_003.jpg	99
420.711	0.833	833.3	test	Phase1	test/STIM_003.jpg	100
425.479	0.998	998.3	test	Phase1	test/STIM_004.jpg	99
428.835	0.881	881.1	test	Phase1	test/STIM_004.jpg	100
432.361	1.2	1199.5	test	Phase1	test/STIM_004.jpg	99
437.366	0.856	856.1	test	Phase1	test/STIM_005.jpg	100
441.981	0.729	729.0	test	Phase1	test/STIM_005.jpg	100
444.981	0.997	996.7	test	Phase1	test/STIM_005.jpg	100
448.201	0.867	867.1	test	Phase1	test/STIM_006.jpg	99
452.558	0.641	641.0	test	Phase1	test/STIM_006.jpg	100
455.592	0.927	926.6	test	Phase1	test/STIM_006.jpg	100
459.541	0.602	601.7	test	Phase1	test/STIM_007.jpg	99
463.737	0.65	650.3	test	Phase1	test/STIM_007.jpg	99
466.763	1.054	1053.8	test	Phase1	test/STIM_007.jpg	99
470.898	0.727	727.4	test	Phase1	test/STIM_008.jpg	100
475.558	0.722	721.6	test	Phase1	test/STIM_008.jpg	99
479.44	0.644	644.5	test	Phase1	test/STIM_008.jpg	99
483.982	0.839	838.6	test	Phase1	test/STIM_009.jpg	99
487.333	0.939	938.7	test	Phase1	test/STIM_009.jpg	99
492.113	0.883	882.8	test	Phase1	test/STIM_009.jpg	99
495.002	0.73	729.9	test	Phase1	test/STIM_010.jpg	99
497.919	0.747	747.3	test	Phase1	test/STIM_010.jpg	99
502.604	1.003	1002.9	test	Phase1	test/STIM_010.jpg	99
507.583	0.664	664.1	test	Phase1	test/STIM_011.jpg	99
511.541	0.6	600.0	test	Phase1	test/STIM_011.jpg	99
514.341	0.656	655.6	test	Phase1	test/STIM_011.jpg	100
518.854	1.012	1012.5	test	Phase1	test/STIM_012.jpg	100
522.978	0.756	755.9	test	Phase1	test/STIM_012.jpg	99
526.554	0.659	659.0	test	Phase1	test/STIM_012.jpg	100
529.472	0.689	688.8	test	Phase1	test/STIM_013.jpg	99
533.481	0.978	978.2	test	Phase1	test/STIM_013.jpg	99
537.252	1.017	1017.1	test	Phase1	test/STIM_013.jpg	100
541.289	1.2	1200.5	test	Phase1	test/STIM_014.jpg	100
545.315	1.103	1102.8	test	Phase1	test/STIM_014.jpg	100
549.441	0.6	599.5	test	Phase1	test/STIM_014.jpg	100
553.842	1.076	1076.2	test	Phase1	test/STIM_015.jpg	100
557.238	0.799	799.0	test	Phase1	test/STIM_015.jpg	99
560.669	0.944	944.4	test	Phase1	test/STIM_015.jpg	99
564.734	0.852	851.7	test	Phase1	test/STIM_016.jpg	100
567.777	1.15	1149.6	test	Phase1	test/STIM_016.jpg	99
570.93	1.107	1106.9	test	Phase1	test/STIM_016.jpg	100
575.491	0.574	573.5	test	Phase1	test/STIM_017.jpg	99
580.008	1.095	1094.9	test	Phase1	test/STIM_017.jpg	99
583.577	0.573	572.9	test	Phase1	test/STIM_017.jpg	99
587.373	0.578	577.8	test	Phase1	test/STIM_018.jpg	99
590.318	1.031	1030.6	test	Phase1	test/STIM_018.jpg	99
594.429	0.616	616.4	test	Phase1	test/STIM_018.jpg	99
598.215	0.62	620.1	test	Phase1	test/STIM_019.jpg	99
601.929	1.169	1169.2	test	Phase1	test/STIM_019.jpg	99
606.939	0.614	614.5	test	Phase1	test/STIM_019.jpg	99
611.529	0.884	883.9	test	Phase1	test/STIM_020.jpg	99
615.953	0.737	737.1	test	Phase1	test/STIM_020.jpg	100
620.364	1.079	1078.9	test	Phase1	test/STIM_020.jpg	99
624.246	0.835	835.1	test	Phase1	test/STIM_021.jpg	99
627.416	0.861	860.8	test	Phase1	test/STIM_021.jpg	99
631.341	1.102	1102.4	test	Phase1	test/STIM_021.jpg	99
634.904	0.999	999.3	test	Phase1	test/STIM_022.jpg	100
638.543	0.988	987.6	test	Phase1	test/STIM_022.jpg	99
642.214	1.161	1161.1	test	Phase1	test/STIM_022.jpg	99
646.526	1.025	1025.1	test	Phase1	test/STIM_023.jpg	100
651.468	0.885	885.4	test	Phase1	test/STIM_023.jpg	99
655.185	0.611	610.7	test	Phase1	test/STIM_023.jpg	100
659.377	1.092	1092.5	test	Phase1	test/STIM_024.jpg	100
662.572	0.91	909.9	test	Phase1	test/STIM_024.jpg	100
665.883	1.155	1155.2	test	Phase1	test/STIM_024.jpg	99
670.556	0.606	605.7	test	Phase1	test/STIM_025.jpg	100
674.51	0.651	651.1	test	Phase1	test/STIM_025.jpg	100
677.29	0.992	991.6	test	Phase1	test/STIM_025.jpg	99
681.936	1.204	1204.1	test	Phase1	test/STIM_026.jpg	100
686.85	0.943	942.8	test	Phase1	test/STIM_026.jpg	100
690.606	1.101	1101.2	test	Phase1	test/STIM_026.jpg	99
693.819	1.186	1186.5	test	Phase1	test/STIM_027.jpg	99
698.959	1.042	1042.5	test	Phase1	test/STIM_027.jpg	99
703.397	1.101	1101.0	test	Phase1	test/STIM_027.jpg	100
708.04	1.092	1092.2	test	Phase1	test/STIM_028.jpg	100
711.216	0.698	697.6	test	Phase1	test/STIM_028.jpg	99
714.044	1.041	1040.6	test	Phase1	test/STIM_028.jpg	100
718.854	0.729	729.2	test	Phase1	test/STIM_029.jpg	99
722.861	1.14	1140.2	test	Phase1	test/STIM_029.jpg	99
726.748	1.133	1133.3	test	Phase1	test/STIM_029.jpg	99
730.04	0.994	993.8	study	Phase2	study/STIM_000.jpg	100
733.096	1.041	1041.1	study	Phase2	study/STIM_000.jpg	99
737.994	0.765	765.2	study	Phase2	study/STIM_000.jpg	99
741.64	0.923	923.4	study	Phase2	study/STIM_001.jpg	99
745.847	1.171	1171.1	study	Phase2	study/STIM_001.jpg	100
750.864	0.867	866.9	study	Phase2	study/STIM_001.jpg	100
754.162	1.209	1208.7	study	Phase2	study/STIM_002.jpg	100
759.005	0.959	959.1	study	Phase2	study/STIM_002.jpg	99
763.824	1.079	1079.2	study	Phase2	study/STIM_002.jpg	100
767.038	0.802	802.1	study	Phase2	study/STIM_003.jpg	100
771.226	1.023	1022.8	study	Phase2	study/STIM_003.jpg	100
774.338	0.823	823.4	study	Phase2	study/STIM_003.jpg	99
777.584	0.777	776.7	study	Phase2	study/STIM_004.jpg	100
781.533	0.781	781.2	study	Phase2	study/STIM_004.jpg	99
786.115	0.897	896.7	study	Phase2	study/STIM_004.jpg	99
790.866	0.712	712.3	study	Phase2	study/STIM_005.jpg	100
794.53	1.043	1042.8	study	Phase2	study/STIM_005.jpg	99
798.226	1.015	1014.9	study	Phase2	study/STIM_005.jpg	99
803.177	0.824	823.8	study	Phase2	study/STIM_006.jpg	99
806.219	0.78	779.8	study	Phase2	study/STIM_006.jpg	99
810.991	0.567	566.7	study	Phase2	study/STIM_006.jpg	99
815.297	1.175	1175.1	study	Phase2	study/STIM_007.jpg	100
820.389	1.272	1272.2	study	Phase2	study/STIM_007.jpg	99
824.807	1.245	1244.8	study	Phase2	study/STIM_007.jpg	100
828.952	1.315	1314.9	study	Phase2	study/STIM_008.jpg	99
833.01	0.725	724.8	study	Phase2	study/STIM_008.jpg	99
837.049	0.923	923.2	study	Phase2	study/STIM_008.jpg	100
840.778	0.936	936.4	study	Phase2	study/STIM_009.jpg	99
845.422	0.892	892.4	study	Phase2	study/STIM_009.jpg	100
848.999	1.034	1033.8	study	Phase2	study/STIM_009.jpg	99
852.814	1.181	1181.2	study	Phase2	study/STIM_010.jpg	99
856.527	1.032	1032.3	study	Phase2	study/STIM_010.jpg	99
860.466	1.224	1223.8	study	Phase2	study/STIM_010.jpg	99
864.197	0.959	959.3	study	Phase2	study/STIM_011.jpg	100
868.193	0.673	673.1	study	Phase2	study/STIM_011.jpg	99
872.371	0.872	871.7	study	Phase2	study/STIM_011.jpg	99
875.418	1.034	1033.9	study	Phase2	study/STIM_012.jpg	100
880.245	0.854	854.4	study	Phase2	study/STIM_012.jpg	99
884.494	0.803	802.9	study	Phase2	study/STIM_012.jpg	99
888.308	1.119	1118.8	study	Phase2	study/STIM_013.jpg	99
891.618	0.757	756.7	study	Phase2	study/STIM_013.jpg	100
895.457	0.77	770.4	study	Phase2	study/STIM_013.jpg	100
899.966	0.754	754.3	study	Phase2	study/STIM_014.jpg	99
904.626	1.07	1070.5	study	Phase2	study/STIM_014.jpg	99
908.559	0.578	577.5	study	Phase2	study/STIM_014.jpg	99
912.4	0.727	726.7	study	Phase2	study/STIM_015.jpg	100
916.957	0.755	755.0	study	Phase2	study/STIM_015.jpg	99
920.635	1.134	1134.4	study	Phase2	study/STIM_015.jpg	100
925.287	0.93	930.2	study	Phase2	study/STIM_016.jpg	100
928.917	1.112	1111.7	study	Phase2	study/STIM_016.jpg	99
933.958	0.883	882.9	study	Phase2	study/STIM_016.jpg	100
937.92	0.759	758.8	study	Phase2	study/STIM_017.jpg	99
941.768	1.315	1315.2	study	Phase2	study/STIM_017.jpg	100
947.043	0.945	945.3	study	Phase2	study/STIM_017.jpg	99
950.372	0.752	751.6	study	Phase2	study/STIM_018.jpg	99
953.168	0.935	935.3	study	Phase2	study/STIM_018.jpg	100
957.443	1.098	1098.5	study	Phase2	study/STIM_018.jpg	99
961.488	0.867	867.0	study	Phase2	study/STIM_019.jpg	100
964.717	0.946	945.6	study	Phase2	study/STIM_019.jpg	99
968.691	1.148	1148.1	study	Phase2	study/STIM_019.jpg	100
972.594	1.271	1270.8	study	Phase2	study/STIM_020.jpg	100
976.669	0.623	623.1	study	Phase2	study/STIM_020.jpg	99
981.237	1.0	1000.3	study	Phase2	study/STIM_020.jpg	99
985.271	0.824	823.5	study	Phase2	study/STIM_021.jpg	99
989.401	0.971	971.4	study	Phase2	study/STIM_021.jpg	100
993.762	1.259	1259.2	study	Phase2	study/STIM_021.jpg	100
997.875	0.867	867.4	study	Phase2	study/STIM_022.jpg	99
1002.488	0.633	632.9	study	Phase2	study/STIM_022.jpg	100
1007.108	0.984	984.5	study	Phase2	study/STIM_022.jpg	100
1010.538	0.859	859.2	study	Phase2	study/STIM_023.jpg	100
1014.348	0.644	644.0	study	Phase2	study/STIM_023.jpg	100
1017.736	0.704	703.8	study	Phase2	study/STIM_023.jpg	99
1022.387	1.193	1193.4	study	Phase2	study/STIM_024.jpg	99
1027.134	1.155	1155.0	study	Phase2	study/STIM_024.jpg	99
1030.699	1.168	1168.3	study	Phase2	study/STIM_024.jpg	99
1035.749	0.863	862.9	study	Phase2	study/STIM_025.jpg	100
1040.539	0.71	710.3	study	Phase2	study/STIM_025.jpg	100
1043.421	0.717	717.4	study	Phase2	study/STIM_025.jpg	99
1048.126	1.028	1028.5	study	Phase2	study/STIM_026.jpg	100
1052.543	1.328	1328.4	study	Phase2	study/STIM_026.jpg	99
1056.32	0.777	776.8	study	Phase2	study/STIM_026.jpg	99
1060.385	0.783	782.8	study	Phase2	study/STIM_027.jpg	99
1064.944	0.846	846.4	study	Phase2	study/STIM_027.jpg	99
1068.586	0.616	615.6	study	Phase2	study/STIM_027.jpg	99
1072.018	1.354	1353.5	study	Phase2	study/STIM_028.jpg	100
1076.13	1.189	1189.1	study	Phase2	study/STIM_028.jpg	99
1080.915	1.235	1235.1	study	Phase2	study/STIM_028.jpg	100
1084.966	1.294	1294.3	study	Phase2	study/STIM_029.jpg	99
1088.815	0.828	828.5	study	Phase2	study/STIM_029.jpg	99
1091.934	0.693	693.4	study	Phase2	study/STIM_029.jpg	100
1096.404	1.175	1175.4	test	Phase2	test/STIM_000.jpg	99
1101.26	0.684	684.1	test	Phase2	test/STIM_000.jpg	100
1104.957	0.608	607.6	test	Phase2	test/STIM_000.jpg	100
1108.183	0.592	592.1	test	Phase2	test/STIM_001.jpg	100
1110.895	0.719	718.6	test	Phase2	test/STIM_001.jpg	100
1115.602	0.718	718.2	test	Phase2	test/STIM_001.jpg	100
1119.694	1.128	1128.3	test	Phase2	test/STIM_002.jpg	100
1124.573	0.787	787.0	test	Phase2	test/STIM_002.jpg	100
1128.02	0.964	964.0	test	Phase2	test/STIM_002.jpg	99
1132.329	0.719	719.2	test	Phase2	test/STIM_003.jpg	99
1135.743	0.863	863.1	test	Phase2	test/STIM_003.jpg	100
1139.979	0.72	720.3	test	Phase2	test/STIM_003.jpg	99
1144.143	0.717	717.3	test	Phase2	test/STIM_004.jpg	99
1148.19	0.861	860.8	test	Phase2	test/STIM_004.jpg	99
1152.117	0.672	671.7	test	Phase2	test/STIM_004.jpg	99
1155.606	1.037	1036.7	test	Phase2	test/STIM_005.jpg	100
1160.287	0.778	777.8	test	Phase2	test/STIM_005.jpg	99
1164.609	0.974	974.5	test	Phase2	test/STIM_005.jpg	100
1168.356	0.764	764.4	test	Phase2	test/STIM_006.jpg	99
1171.786	1.04	1040.4	test	Phase2	test/STIM_006.jpg	100
1175.118	0.767	767.4	test	Phase2	test/STIM_006.jpg	99
1178.666	0.903	902.6	test	Phase2	test/STIM_007.jpg	100
1183.077	0.688	687.8	test	Phase2	test/STIM_007.jpg	99
1186.451	0.761	760.8	test	Phase2	test/STIM_007.jpg	99
1190.823	0.812	812.2	test	Phase2	test/STIM_008.jpg	99
1195.402	1.068	1067.5	test	Phase2	test/STIM_008.jpg	99
1200.124	1.072	1072.5	test	Phase2	test/STIM_008.jpg	100
1204.717	1.207	1207.2	test	Phase2	test/STIM_009.jpg	99
1208.059	0.866	866.4	test	Phase2	test/STIM_009.jpg	99
1211.513	0.949	949.2	test	Phase2	test/STIM_009.jpg	99
1215.833	1.104	1103.7	test	Phase2	test/STIM_010.jpg	100
1220.737	0.616	615.9	test	Phase2	test/STIM_010.jpg	100
1225.011	0.775	775.1	test	Phase2	test/STIM_010.jpg	99
1228.396	1.097	1096.8	test	Phase2	test/STIM_011.jpg	99
1232.152	0.953	952.9	test	Phase2	test/STIM_011.jpg	99
1236.042	1.22	1219.9	test	Phase2	test/STIM_011.jpg	100
1241.158	1.105	1105.2	test	Phase2	test/STIM_012.jpg	100
1244.622	0.704	703.8	test	Phase2	test/STIM_012.jpg	100
1248.775	0.987	986.8	test	Phase2	test/STIM_012.jpg	100
1253.344	0.76	760.1	test	Phase2	test/STIM_013.jpg	99
1256.949	0.623	623.2	test	Phase2	test/STIM_013.jpg	100
1260.315	1.123	1123.4	test	Phase2	test/STIM_013.jpg	99
1264.324	1.04	1039.7	test	Phase2	test/STIM_014.jpg	99
1268.046	1.041	1040.6	test	Phase2	test/STIM_014.jpg	100
1272.324	0.97	969.6	test	Phase2	test/STIM_014.jpg	100
1276.063	1.135	1134.7	test	Phase2	test/STIM_015.jpg	100
1280.965	0.788	788.4	test	Phase2	test/STIM_015.jpg	99
1284.954	0.811	810.6	test	Phase2	test/STIM_015.jpg	99
1288.626	1.003	1002.9	test	Phase2	test/STIM_016.jpg	99
1292.048	0.818	818.5	test	Phase2	test/STIM_016.jpg	100
1296.18	0.944	943.5	test	Phase2	test/STIM_016.jpg	99
1300.506	1.176	1175.7	test	Phase2	test/STIM_017.jpg	100
1303.804	0.768	767.8	test	Phase2	test/STIM_017.jpg	99
1307.624	0.905	904.6	test	Phase2	test/STIM_017.jpg	100
1312.019	1.202	1201.9	test	Phase2	test/STIM_018.jpg	99
1315.458	0.786	785.9	test	Phase2	test/STIM_018.jpg	99
1318.597	0.922	921.5	test	Phase2	test/STIM_018.jpg	100
1321.973	1.031	1031.4	test	Phase2	test/STIM_019.jpg	99
1325.046	0.824	823.6	test	Phase2	test/STIM_019.jpg	99
1328.911	0.792	791.9	test	Phase2	test/STIM_019.jpg	100
1332.189	0.629	629.0	test	Phase2	test/STIM_020.jpg	99
1334.992	0.756	755.6	test	Phase2	test/STIM_020.jpg	100
1339.31	0.589	589.2	test	Phase2	test/STIM_020.jpg	100
1343.046	0.833	832.6	test	Phase2	test/STIM_021.jpg	99
1346.429	1.088	1087.8	test	Phase2	test/STIM_021.jpg	99
1350.213	0.589	589.2	test	Phase2	test/STIM_021.jpg	99
1354.32	0.926	926.5	test	Phase2	test/STIM_022.jpg	100
1358.642	1.16	1159.9	test	Phase2	test/STIM_022.jpg	100
1363.378	0.876	875.8	test	Phase2	test/STIM_022.jpg	100
1367.268	0.893	893.4	test	Phase2	test/STIM_023.jpg	100
1370.534	0.994	994.4	test	Phase2	test/STIM_023.jpg	99
1374.769	0.721	720.9	test	Phase2	test/STIM_023.jpg	100
1377.91	1.139	1138.8	test	Phase2	test/STIM_024.jpg	100
1381.499	0.59	590.5	test	Phase2	test/STIM_024.jpg	100
1384.518	1.214	1213.9	test	Phase2	test/STIM_024.jpg	100
1388.31	0.996	995.7	test	Phase2	test/STIM_025.jpg	99
1392.947	0.766	766.0	test	Phase2	test/STIM_025.jpg	100
1396.923	1.118	1118.5	test	Phase2	test/STIM_025.jpg	100
1400.738	1.048	1048.2	test	Phase2	test/STIM_026.jpg	100
1404.175	0.798	797.6	test	Phase2	test/STIM_026.jpg	99
1408.199	0.79	789.9	test	Phase2	test/STIM_026.jpg	100
1411.404	0.832	832.3	test	Phase2	test/STIM_027.jpg	100
1416.161	0.665	665.0	test	Phase2	test/STIM_027.jpg	99
1419.683	0.812	811.8	test	Phase2	test/STIM_027.jpg	100
1423.766	1.014	1014.0	test	Phase2	test/STIM_028.jpg	99
1426.892	1.167	1167.2	test	Phase2	test/STIM_028.jpg	100
1430.921	0.967	966.8	test	Phase2	test/STIM_028.jpg	100
1434.532	0.614	614.2	test	Phase2	test/STIM_029.jpg	99
1438.783	0.575	574.6	test	Phase2	test/STIM_029.jpg	100
1443.119	0.706	706.4	test	Phase2	test/STIM_029.jpg	100
1447.37	0.694	693.5	study	Phase3	study/STIM_000.jpg	99
1450.819	0.784	783.9	study	Phase3	study/STIM_000.jpg	100
1454.84	0.793	792.7	study	Phase3	study/STIM_000.jpg	99
1459.541	0.6	600.3	study	Phase3	study/STIM_001.jpg	99
1464.066	1.155	1155.1	study	Phase3	study/STIM_001.jpg	100
1467.511	0.803	802.6	study	Phase3	study/STIM_001.jpg	99
1471.624	0.577	576.8	study	Phase3	study/STIM_002.jpg	100
1475.171	1.155	1155.4	study	Phase3	study/STIM_002.jpg	99
1479.039	1.182	1181.8	study	Phase3	study/STIM_002.jpg	100
1482.972	0.78	779.5	study	Phase3	study/STIM_003.jpg	100
1486.776	0.814	814.3	study	Phase3	study/STIM_003.jpg	99
1489.911	0.73	730.4	study	Phase3	study/STIM_003.jpg	99
1492.758	0.627	626.9	study	Phase3	study/STIM_004.jpg	100
1496.471	0.568	567.6	study	Phase3	study/STIM_004.jpg	100
1499.162	1.012	1011.5	study	Phase3	study/STIM_004.jpg	99
1503.476	1.007	1007.2	study	Phase3	study/STIM_005.jpg	100
1507.936	0.616	615.7	study	Phase3	study/STIM_005.jpg	100
1512.437	0.856	856.4	study	Phase3	study/STIM_005.jpg	99
1515.472	0.84	839.8	study	Phase3	study/STIM_006.jpg	100
1519.572	0.578	577.6	study	Phase3	study/STIM_006.jpg	100
1522.667	1.018	1018.0	study	Phase3	study/STIM_006.jpg	99
1527.378	0.613	612.6	study	Phase3	study/STIM_007.jpg	99
1530.781	1.17	1169.7	study	Phase3	study/STIM_007.jpg	100
1534.154	1.02	1019.6	study	Phase3	study/STIM_007.jpg	100
1538.608	0.657	657.3	study	Phase3	study/STIM_008.jpg	100
1541.796	0.823	822.7	study	Phase3	study/STIM_008.jpg	99
1546.143	0.865	864.9	study	Phase3	study/STIM_008.jpg	100
1549.535	0.684	683.8	study	Phase3	study/STIM_009.jpg	100
1553.462	0.556	556.5	study	Phase3	study/STIM_009.jpg	99
1556.767	1.017	1017.2	study	Phase3	study/STIM_009.jpg	99
1560.889	0.527	527.0	study	Phase3	study/STIM_010.jpg	100
1564.913	0.69	689.5	study	Phase3	study/STIM_010.jpg	100
1569.534	0.722	721.8	study	Phase3	study/STIM_010.jpg	100
1572.678	0.893	893.2	study	Phase3	study/STIM_011.jpg	99
1576.788	0.725	725.2	study	Phase3	study/STIM_011.jpg	100
1580.763	0.918	918.2	study	Phase3	study/STIM_011.jpg	100
1584.951	0.809	808.6	study	Phase3	study/STIM_012.jpg	99
1588.839	1.176	1176.1	study	Phase3	study/STIM_012.jpg	100
1593.946	0.589	589.1	study	Phase3	study/STIM_012.jpg	99
1596.764	0.706	705.7	study	Phase3	study/STIM_013.jpg	99
1600.655	1.035	1035.4	study	Phase3	study/STIM_013.jpg	100
1604.878	1.126	1125.6	study	Phase3	study/STIM_013.jpg	100
1608.454	0.632	632.2	study	Phase3	study/STIM_014.jpg	99
1612.512	0.554	553.8	study	Phase3	study/STIM_014.jpg	100
1615.278	0.911	910.6	study	Phase3	study/STIM_014.jpg	99
1618.521	0.916	915.5	study	Phase3	study/STIM_015.jpg	100
1622.101	0.906	905.9	study	Phase3	study/STIM_015.jpg	100
1626.877	0.747	747.3	study	Phase3	study/STIM_015.jpg	100
1631.581	1.038	1037.8	study	Phase3	study/STIM_016.jpg	99
1635.706	0.583	582.9	study	Phase3	study/STIM_016.jpg	100
1639.868	1.165	1165.0	study	Phase3	study/STIM_016.jpg	100
1644.078	0.867	867.0	study	Phase3	study/STIM_017.jpg	100
1647.882	0.944	943.5	study	Phase3	study/STIM_017.jpg	99
1652.017	1.089	1089.3	study	Phase3	study/STIM_017.jpg	100
1656.144	0.754	754.3	study	Phase3	study/STIM_018.jpg	100
1659.79	0.579	579.4	study	Phase3	study/STIM_018.jpg	99
1664.358	0.558	557.7	study	Phase3	study/STIM_018.jpg	99
1668.598	0.952	952.3	study	Phase3	study/STIM_019.jpg	100
1672.965	0.808	808.1	study	Phase3	study/STIM_019.jpg	99
1677.698	0.81	810.0	study	Phase3	study/STIM_019.jpg	100
1681.571	0.562	561.8	study	Phase3	study/STIM_020.jpg	99
1685.718	0.624	623.9	study	Phase3	study/STIM_020.jpg	100
1689.815	0.836	836.3	study	Phase3	study/STIM_020.jpg	99
1692.865	0.894	894.2	study	Phase3	study/STIM_021.jpg	99
1696.849	0.889	889.2	study	Phase3	study/STIM_021.jpg	100
1701.188	0.69	689.9	study	Phase3	study/STIM_021.jpg	99
1705.025	0.924	924.4	study	Phase3	study/STIM_022.jpg	100
1709.665	1.138	1137.8	study	Phase3	study/STIM_022.jpg	100
1714.684	0.725	724.6	study	Phase3	study/STIM_022.jpg	99
1718.386	0.634	633.6	study	Phase3	study/STIM_023.jpg	100
1722.388	0.714	714.5	study	Phase3	study/STIM_023.jpg	99
1725.502	0.789	788.6	study	Phase3	study/STIM_023.jpg	99
1728.679	0.783	783.1	study	Phase3	study/STIM_024.jpg	99
1732.991	0.736	736.0	study	Phase3	study/STIM_024.jpg	99
1737.018	0.825	825.2	study	Phase3	study/STIM_024.jpg	99
1740.665	0.679	679.0	study	Phase3	study/STIM_025.jpg	99
1744.399	0.873	872.9	study	Phase3	study/STIM_025.jpg	99
1747.99	0.997	997.0	study	Phase3	study/STIM_025.jpg	99
1752.911	0.779	779.1	study	Phase3	study/STIM_026.jpg	100
1757.331	0.945	945.0	study	Phase3	study/STIM_026.jpg	99
1760.445	1.15	1150.5	study	Phase3	study/STIM_026.jpg	99
1764.722	0.743	742.8	study	Phase3	study/STIM_027.jpg	100
1768.686	1.123	1123.3	study	Phase3	study/STIM_027.jpg	99
1773.784	0.916	915.5	study	Phase3	study/STIM_027.jpg	99
1777.08	0.997	996.6	study	Phase3	study/STIM_028.jpg	100
1781.037	0.623	623.3	study	Phase3	study/STIM_028.jpg	100
1785.16	0.827	827.4	study	Phase3	study/STIM_028.jpg	100
1788.492	0.768	767.5	study	Phase3	study/STIM_029.jpg	99
1792.428	0.925	925.2	study	Phase3	study/STIM_029.jpg	100
1796.157	0.798	798.0	study	Phase3	study/STIM_029.jpg	99
1800.071	0.791	790.8	test	Phase3	test/STIM_000.jpg	100
1804.457	0.67	670.0	test	Phase3	test/STIM_000.jpg	100
1808.138	0.764	764.0	test	Phase3	test/STIM_000.jpg	99
1812.004	0.877	877.2	test	Phase3	test/STIM_001.jpg	100
1816.486	1.203	1202.8	test	Phase3	test/STIM_001.jpg	99
1821.438	0.564	564.1	test	Phase3	test/STIM_001.jpg	99
1824.431	0.625	625.3	test	Phase3	test/STIM_002.jpg	99
1828.55	0.834	834.4	test	Phase3	test/STIM_002.jpg	99
1832.364	0.851	850.7	test	Phase3	test/STIM_002.jpg	100
1835.98	0.793	793.3	test	Phase3	test/STIM_003.jpg	99
1839.005	0.624	624.3	test	Phase3	test/STIM_003.jpg	99
1842.722	0.846	846.2	test	Phase3	test/STIM_003.jpg	100
1846.39	1.082	1082.5	test	Phase3	test/STIM_004.jpg	99
1850.878	0.603	602.8	test	Phase3	test/STIM_004.jpg	100
1853.963	0.771	770.6	test	Phase3	test/STIM_004.jpg	100
1858.285	0.99	989.8	test	Phase3	test/STIM_005.jpg	100
1862.611	0.719	719.1	test	Phase3	test/STIM_005.jpg	99
1866.596	0.982	981.9	test	Phase3	test/STIM_005.jpg	100
1870.152	1.07	1069.8	test	Phase3	test/STIM_006.jpg	100
1874.563	0.863	863.0	test	Phase3	test/STIM_006.jpg	100
1877.784	1.007	1007.1	test	Phase3	test/STIM_006.jpg	99
1881.137	0.607	606.8	test	Phase3	test/STIM_007.jpg	100
1884.058	0.686	686.0	test	Phase3	test/STIM_007.jpg	99
1888.179	0.728	728.1	test	Phase3	test/STIM_007.jpg	99
1891.975	1.118	1118.5	test	Phase3	test/STIM_008.jpg	99
1896.757	0.702	702.4	test	Phase3	test/STIM_008.jpg	100
1899.54	0.609	608.7	test	Phase3	test/STIM_008.jpg	99
1902.198	0.944	944.5	test	Phase3	test/STIM_009.jpg	100
1905.902	0.593	592.9	test	Phase3	test/STIM_009.jpg	99
1910.354	1.035	1034.8	test	Phase3	test/STIM_009.jpg	99
1913.849	0.574	573.5	test	Phase3	test/STIM_010.jpg	100
1916.885	1.128	1127.5	test	Phase3	test/STIM_010.jpg	99
1921.074	1.059	1059.0	test	Phase3	test/STIM_010.jpg	100
1925.418	1.18	1180.3	test	Phase3	test/STIM_011.jpg	100
1930.492	1.105	1105.2	test	Phase3	test/STIM_011.jpg	99
1934.924	0.632	631.6	test	Phase3	test/STIM_011.jpg	100
1937.567	0.654	653.7	test	Phase3	test/STIM_012.jpg	99
1940.514	1.156	1156.1	test	Phase3	test/STIM_012.jpg	99
1943.813	0.727	727.0	test	Phase3	test/STIM_012.jpg	100
1948.146	1.185	1184.9	test	Phase3	test/STIM_013.jpg	100
1953.284	0.833	833.0	test	Phase3	test/STIM_013.jpg	100
1957.633	0.76	760.1	test	Phase3	test/STIM_013.jpg	100
1961.461	1.085	1085.3	test	Phase3	test/STIM_014.jpg	100
1965.563	0.934	934.2	test	Phase3	test/STIM_014.jpg	100
1969.03	1.179	1179.1	test	Phase3	test/STIM_014.jpg	100
1973.671	1.081	1080.6	test	Phase3	test/STIM_015.jpg	100
1977.24	0.688	688.0	test	Phase3	test/STIM_015.jpg	100
1981.378	0.704	703.6	test	Phase3	test/STIM_015.jpg	99
1984.977	0.668	667.7	test	Phase3	test/STIM_016.jpg	100
1988.207	0.627	626.7	test	Phase3	test/STIM_016.jpg	100
1992.014	0.594	594.3	test	Phase3	test/STIM_016.jpg	100
1995.124	0.584	583.6	test	Phase3	test/STIM_017.jpg	99
1997.986	0.684	683.6	test	Phase3	test/STIM_017.jpg	100
2001.548	0.66	660.1	test	Phase3	test/STIM_017.jpg	99
2004.804	1.088	1088.0	test	Phase3	test/STIM_018.jpg	99
2008.212	0.829	829.1	test	Phase3	test/STIM_018.jpg	99
2011.1	0.976	976.0	test	Phase3	test/STIM_018.jpg	100
2014.096	1.006	1006.4	test	Phase3	test/STIM_019.jpg	100
2018.36	0.788	788.2	test	Phase3	test/STIM_019.jpg	99
2021.922	1.024	1024.0	test	Phase3	test/STIM_019.jpg	99
2025.11	0.986	986.1	test	Phase3	test/STIM_020.jpg	100
2028.837	1.139	1139.1	test	Phase3	test/STIM_020.jpg	99
2032.327	1.158	1157.8	test	Phase3	test/STIM_020.jpg	100
2036.932	1.098	1098.5	test	Phase3	test/STIM_021.jpg	100
2040.829	1.165	1165.2	test	Phase3	test/STIM_021.jpg	99
2044.508	0.801	801.1	test	Phase3	test/STIM_021.jpg	100
2049.187	0.708	708.1	test	Phase3	test/STIM_022.jpg	99
2052.411	1.201	1201.4	test	Phase3	test/STIM_022.jpg	99
2055.627	0.586	585.9	test	Phase3	test/STIM_022.jpg	100
2058.588	1.068	1068.0	test	Phase3	test/STIM_023.jpg	100
2063.594	0.982	981.6	test	Phase3	test/STIM_023.jpg	100
2067.011	1.15	1150.2	test	Phase3	test/STIM_023.jpg	99
2071.89	1.192	1192.1	test	Phase3	test/STIM_024.jpg	99
2075.275	1.092	1091.5	test	Phase3	test/STIM_024.jpg	99
2079.534	0.804	804.0	test	Phase3	test/STIM_024.jpg	100
2082.95	0.72	720.1	test	Phase3	test/STIM_025.jpg	99
2086.102	0.881	881.4	test	Phase3	test/STIM_025.jpg	100
2090.663	1.182	1182.4	test	Phase3	test/STIM_025.jpg	100
2094.555	1.097	1097.2	test	Phase3	test/STIM_026.jpg	99
2099.546	1.012	1012.5	test	Phase3	test/STIM_026.jpg	99
2102.638	0.66	660.2	test	Phase3	test/STIM_026.jpg	100
2106.223	1.125	1125.4	test	Phase3	test/STIM_027.jpg	100
2110.67	0.579	579.3	test	Phase3	test/STIM_027.jpg	99
2114.122	0.978	977.9	test	Phase3	test/STIM_027.jpg	99
2118.629	0.803	803.0	test	Phase3	test/STIM_028.jpg	100
2121.627	1.01	1010.2	test	Phase3	test/STIM_028.jpg	99
2126.228	0.828	827.8	test	Phase3	test/STIM_028.jpg	100
2130.925	0.577	577.0	test	Phase3	test/STIM_029.jpg	100
2135.042	0.988	988.3	test	Phase3	test/STIM_029.jpg	99
2139.02	0.591	591.0	test	Phase3	test/STIM_029.jpg	100
