onset	duration	response_time_ms	trial_type	learning_stage	stimulus	response_port
0.0	0.877	877.3	study	Phase1	study/STIM_000.jpg	100
3.973	0.871	871.4	study	Phase1	study/STIM_000.jpg	99
7.384	1.155	1155.4	study	Phase1	study/STIM_000.jpg	100
12.184	0.96	960.5	study	Phase1	study/STIM_001.jpg	99
15.896	0.824	824.5	study	Phase1	study/STIM_001.jpg	100
19.325	0.714	713.8	study	Phase1	study/STIM_001.jpg	100
24.003	0.951	951.1	study	Phase1	study/STIM_002.jpg	100
28.229	0.929	928.7	study	Phase1	study/STIM_002.jpg	100
31.847	1.144	1144.1	study	Phase1	study/STIM_002.jpg	99
35.508	1.41	1410.0	study	Phase1	study/STIM_003.jpg	99
40.621	1.282	1282.4	study	Phase1	study/STIM_003.jpg	100
44.852	1.255	1255.2	study	Phase1	study/STIM_003.jpg	99
49.38	1.228	1227.8	study	Phase1	study/STIM_004.jpg	100
52.822	1.03	1030.4	study	Phase1	study/STIM_004.jpg	99
57.679	1.287	1286.8	study	Phase1	study/STIM_004.jpg	99
61.384	1.14	1139.5	study	Phase1	study/STIM_005.jpg	99
65.699	0.895	894.8	study	Phase1	study/STIM_005.jpg	99
69.292	1.098	1098.3	study	Phase1	study/STIM_005.jpg	99
73.672	1.134	1133.6	study	Phase1	study/STIM_006.jpg	99
77.814	1.258	1257.7	study	Phase1	study/STIM_006.jpg	99
82.244	1.049	1049.1	study	Phase1	study/STIM_006.jpg	100
85.471	0.933	933.3	study	Phase1	study/STIM_007.jpg	100
89.0	1.095	1094.8	study	Phase1	study/STIM_007.jpg	100
93.464	0.737	737.2	study	Phase1	study/STIM_007.jpg	100
98.136	1.249	1249.3	study	Phase1	study/STIM_008.jpg	100
101.473	0.754	754.1	study	Phase1	study/STIM_008.jpg	99
105.181	0.727	727.3	study	Phase1	study/STIM_008.jpg	100
108.033	1.2	1200.3	study	Phase1	study/STIM_009.jpg	99
111.852	1.091	1090.7	study	Phase1	study/STIM_009.jpg	99
116.9	0.709	708.7	study	Phase1	study/STIM_009.jpg	100
120.945	0.939	938.7	study	Phase1	study/STIM_010.jpg	100
124.059	0.872	871.7	study	Phase1	study/STIM_010.jpg	100
128.019	0.921	921.0	study	Phase1	study/STIM_010.jpg	99
132.61	0.745	745.3	study	Phase1	study/STIM_011.jpg	100
136.5	1.272	1271.5	study	Phase1	study/STIM_011.jpg	100
140.319	1.151	1151.1	study	Phase1	study/STIM_011.jpg	99
143.578	1.05	1050.5	study	Phase1	study/STIM_012.jpg	100
146.935	1.179	1178.9	study	Phase1	study/STIM_012.jpg	100
152.011	0.634	634.2	study	Phase1	study/STIM_012.jpg	100
155.066	1.348	1348.1	study	Phase1	study/STIM_013.jpg	99
158.945	1.136	1135.6	study	Phase1	study/STIM_013.jpg	100
163.261	1.246	1245.5	study	Phase1	study/STIM_013.jpg	99
166.901	1.227	1227.1	study	Phase1	study/STIM_014.jpg	99
170.745	1.214	1214.2	study	Phase1	study/STIM_014.jpg	100
174.626	1.278	1277.9	study	Phase1	study/STIM_014.jpg	100
179.168	0.949	949.1	study	Phase1	study/STIM_015.jpg	99
182.383	1.006	1005.7	study	Phase1	study/STIM_015.jpg	100
186.765	1.135	1135.4	study	Phase1	study/STIM_015.jpg	99
190.978	0.687	687.4	study	Phase1	study/STIM_016.jpg	99
193.929	0.604	604.3	study	Phase1	study/STIM_016.jpg	100
196.583	0.852	852.5	study	Phase1	study/STIM_016.jpg	100
199.833	1.005	1005.1	study	Phase1	study/STIM_017.jpg	99
203.422	0.638	638.1	study	Phase1	study/STIM_017.jpg	100
207.234	1.085	1084.9	study	Phase1	study/STIM_017.jpg	100
211.704	1.134	1134.4	study	Phase1	study/STIM_018.jpg	99
215.25	0.967	966.7	study	Phase1	study/STIM_018.jpg	99
219.958	1.034	1033.5	study	Phase1	study/STIM_018.jpg	100
223.723	0.666	666.0	study	Phase1	study/STIM_019.jpg	100
228.036	0.87	870.2	study	Phase1	study/STIM_019.jpg	100
231.645	1.042	1042.2	study	Phase1	study/STIM_019.jpg	99
235.112	0.848	848.5	study	Phase1	study/STIM_020.jpg	99
238.166	0.928	928.4	study	Phase1	study/STIM_020.jpg	100
242.208	0.615	615.4	study	Phase1	study/STIM_020.jpg	99
246.213	1.051	1051.2	study	Phase1	study/STIM_021.jpg	99
250.034	0.999	999.2	study	Phase1	study/STIM_021.jpg	100
253.261	0.68	679.6	study	Phase1	study/STIM_021.jpg	100
255.943	1.214	1214.5	study	Phase1	study/STIM_022.jpg	99
260.92	0.69	690.2	study	Phase1	study/STIM_022.jpg	100
265.054	1.006	1006.1	study	Phase1	study/STIM_022.jpg	99
268.713	0.746	745.5	study	Phase1	study/STIM_023.jpg	100
271.68	1.119	1118.9	study	Phase1	study/STIM_023.jpg	100
276.599	1.233	1232.9	study	Phase1	study/STIM_023.jpg	100
280.093	1.049	1048.7	study	Phase1	study/STIM_024.jpg	99
284.485	0.95	949.9	study	Phase1	study/STIM_024.jpg	99
288.259	1.111	1111.0	study	Phase1	study/STIM_024.jpg	100
292.824	1.242	1241.6	study	Phase1	study/STIM_025.jpg	100
297.747	0.824	824.0	study	Phase1	study/STIM_025.jpg	100
302.162	1.114	1113.9	study	Phase1	study/STIM_025.jpg	99
305.942	0.837	836.9	study	Phase1	study/STIM_026.jpg	100
310.607	1.064	1064.2	study	Phase1	study/STIM_026.jpg	100
314.736	1.223	1223.2	study	Phase1	study/STIM_026.jpg	99
319.264	1.034	1033.6	study	Phase1	study/STIM_027.jpg	99
324.126	1.192	1192.2	study	Phase1	study/STIM_027.jpg	99
328.653	1.009	1009.0	study	Phase1	study/STIM_027.jpg	100
333.524	0.64	640.3	study	Phase1	study/STIM_028.jpg	99
337.187	1.227	1227.0	study	Phase1	study/STIM_028.jpg	99
340.721	0.911	910.7	study	Phase1	study/STIM_028.jpg	100
344.091	0.731	730.7	study	Phase1	study/STIM_029.jpg	99
348.443	1.136	1136.3	study	Phase1	study/STIM_029.jpg	100
353.34	0.694	694.5	study	Phase1	study/STIM_029.jpg	99
357.471	0.585	585.4	test	Phase1	test/STIM_000.jpg	99
360.542	0.73	730.0	test	Phase1	test/STIM_000.jpg	100
364.174	0.645	644.6	test	Phase1	test/STIM_000.jpg	100
368.423	0.487	487.0	test	Phase1	test/STIM_001.jpg	99
371.201	0.487	487.4	test	Phase1	test/STIM_001.jpg	99
375.036	0.728	728.2	test	Phase1	test/STIM_001.jpg	100
379.446	0.794	794.1	test	Phase1	test/STIM_002.jpg	100
384.081	0.968	968.0	test	Phase1	test/STIM_002.jpg	100
388.021	0.829	829.0	test	Phase1	test/STIM_002.jpg	99
391.43	0.986	986.3	test	Phase1	test/STIM_003.jpg	100
396.1	0.996	995.7	test	Phase1	test/STIM_003.jpg	99
399.875	0.753	753.4	test	Phase1	test/STIM_003.jpg	99
404.45	0.85	849.5	test	Phase1	test/STIM_004.jpg	99
409.085	0.894	893.8	test	Phase1	test/STIM_004.jpg	100
413.745	0.66	659.5	test	Phase1	test/STIM_004.jpg	99
417.809	0.996	996.0	test	Phase1	test/STIM_005.jpg	100
422.645	0.961	961.1	test	Phase1	test/STIM_005.jpg	99
427.479	0.831	831.0	test	Phase1	test/STIM_005.jpg	99
430.908	0.755	754.7	test	Phase1	test/STIM_006.jpg	99
433.971	0.926	925.6	test	Phase1	test/STIM_006.jpg	100
437.952	0.747	746.8	test	Phase1	test/STIM_006.jpg	99
442.361	0.578	578.3	test	Phase1	test/STIM_007.jpg	99
446.84	0.777	777.2	test	Phase1	test/STIM_007.jpg	99
450.679	0.887	887.4	test	Phase1	test/STIM_007.jpg	100
455.554	0.679	678.9	test	Phase1	test/STIM_008.jpg	100
460.0	0.719	719.0	test	Phase1	test/STIM_008.jpg	99
464.657	0.884	883.7	test	Phase1	test/STIM_008.jpg	100
469.132	0.654	654.1	test	Phase1	test/STIM_009.jpg	99
473.208	0.875	874.8	test	Phase1	test/STIM_009.jpg	100
478.072	0.896	896.0	test	Phase1	test/STIM_009.jpg	99
482.14	0.667	667.3	test	Phase1	test/STIM_010.jpg	99
485.659	0.54	540.4	test	Phase1	test/STIM_010.jpg	99
489.215	0.501	500.7	test	Phase1	test/STIM_010.jpg	99
492.556	0.525	524.8	test	Phase1	test/STIM_011.jpg	100
495.237	0.566	565.8	test	Phase1	test/STIM_011.jpg	99
499.607	0.908	908.2	test	Phase1	test/STIM_011.jpg	100
502.793	0.849	848.9	test	Phase1	test/STIM_012.jpg	100
507.548	0.509	509.1	test	Phase1	test/STIM_012.jpg	100
510.784	0.581	580.7	test	Phase1	test/STIM_012.jpg	99
514.107	0.872	872.5	test	Phase1	test/STIM_013.jpg	100
518.134	0.914	913.7	test	Phase1	test/STIM_013.jpg	100
522.639	1.019	1018.8	test	Phase1	test/STIM_013.jpg	100
527.19	0.94	940.1	test	Phase1	test/STIM_014.jpg	100
531.221	0.988	987.7	test	Phase1	test/STIM_014.jpg	99
535.595	0.67	670.3	test	Phase1	test/STIM_014.jpg	99
538.7	0.62	620.2	test	Phase1	test/STIM_015.jpg	99
542.162	0.904	903.8	test	Phase1	test/STIM_015.jpg	99
546.301	0.82	820.1	test	Phase1	test/STIM_015.jpg	100
550.925	0.661	661.2	test	Phase1	test/STIM_016.jpg	99
554.044	0.955	954.9	test	Phase1	test/STIM_016.jpg	100
557.998	0.656	655.6	test	Phase1	test/STIM_016.jpg	99
561.798	0.952	952.2	test	Phase1	test/STIM_017.jpg	99
564.99	0.823	823.1	test	Phase1	test/STIM_017.jpg	100
568.931	0.542	542.0	test	Phase1	test/STIM_017.jpg	99
571.645	0.99	989.8	test	Phase1	test/STIM_018.jpg	99
575.381	0.578	578.5	test	Phase1	test/STIM_018.jpg	99
579.488	0.926	925.8	test	Phase1	test/STIM_018.jpg	100
583.954	0.566	565.6	test	Phase1	test/STIM_019.jpg	100
586.821	0.613	612.9	test	Phase1	test/STIM_019.jpg	99
590.693	0.496	496.0	test	Phase1	test/STIM_019.jpg	100
593.651	0.946	945.6	test	Phase1	test/STIM_020.jpg	100
596.965	0.619	618.6	test	Phase1	test/STIM_020.jpg	99
599.751	0.706	706.4	test	Phase1	test/STIM_020.jpg	100
603.248	0.914	913.7	test	Phase1	test/STIM_021.jpg	100
606.971	0.974	973.5	test	Phase1	test/STIM_021.jpg	100
611.414	0.921	921.3	test	Phase1	test/STIM_021.jpg	100
614.89	0.588	588.5	test	Phase1	test/STIM_022.jpg	99
619.229	0.66	659.9	test	Phase1	test/STIM_022.jpg	100
621.96	0.866	866.2	test	Phase1	test/STIM_022.jpg	99
626.495	0.752	752.4	test	Phase1	test/STIM_023.jpg	99
629.42	0.79	789.8	test	Phase1	test/STIM_023.jpg	99
634.005	0.982	981.8	test	Phase1	test/STIM_023.jpg	100
637.691	0.688	687.8	test	Phase1	test/STIM_024.jpg	100
641.864	0.94	940.0	test	Phase1	test/STIM_024.jpg	99
646.785	0.789	789.3	test	Phase1	test/STIM_024.jpg	100
650.777	0.678	678.3	test	Phase1	test/STIM_025.jpg	100
654.856	0.59	589.6	test	Phase1	test/STIM_025.jpg	100
657.728	0.972	972.1	test	Phase1	test/STIM_025.jpg	99
662.564	1.033	1032.6	test	Phase1	test/STIM_026.jpg	100
665.782	0.494	494.3	test	Phase1	test/STIM_026.jpg	100
670.107	0.883	882.7	test	Phase1	test/STIM_026.jpg	99
674.912	0.841	840.9	test	Phase1	test/STIM_027.jpg	100
679.18	0.686	685.6	test	Phase1	test/STIM_027.jpg	100
681.898	0.816	815.8	test	Phase1	test/STIM_027.jpg	100
685.874	1.013	1012.7	test	Phase1	test/STIM_028.jpg	99
689.6	0.654	653.8	test	Phase1	test/STIM_028.jpg	99
694.135	0.982	981.8	test	Phase1	test/STIM_028.jpg	100
697.58	0.738	738.0	test	Phase1	test/STIM_029.jpg	100
700.964	0.53	530.3	test	Phase1	test/STIM_029.jpg	100
704.089	0.672	672.0	test	Phase1	test/STIM_029.jpg	100
708.613	1.029	1029.3	study	Phase2	study/STIM_000.jpg	100
711.834	0.905	904.8	study	Phase2	study/STIM_000.jpg	99
716.017	0.672	671.8	study	Phase2	study/STIM_000.jpg	99
720.378	0.915	914.8	study	Phase2	study/STIM_001.jpg	99
724.008	0.901	901.2	study	Phase2	study/STIM_001.jpg	99
727.883	0.79	790.0	study	Phase2	study/STIM_001.jpg	100
730.966	0.682	682.1	study	Phase2	study/STIM_002.jpg	100
734.488	0.871	871.3	study	Phase2	study/STIM_002.jpg	99
739.296	0.843	843.2	study	Phase2	study/STIM_002.jpg	99
742.879	1.202	1202.2	study	Phase2	study/STIM_003.jpg	99
746.222	1.036	1036.5	study	Phase2	study/STIM_003.jpg	99
749.628	0.973	973.2	study	Phase2	study/STIM_003.jpg	100
752.828	1.113	1112.8	study	Phase2	study/STIM_004.jpg	100
755.955	0.67	670.2	study	Phase2	study/STIM_004.jpg	100
759.544	0.614	613.9	study	Phase2	study/STIM_004.jpg	100
763.562	0.561	560.6	study	Phase2	study/STIM_005.jpg	99
768.025	0.822	822.4	study	Phase2	study/STIM_005.jpg	100
772.608	0.87	869.6	study	Phase2	study/STIM_005.jpg	99
776.302	0.731	730.7	study	Phase2	study/STIM_006.jpg	100
780.777	1.133	1133.3	study	Phase2	study/STIM_006.jpg	99
784.249	0.726	726.3	study	Phase2	study/STIM_006.jpg	99
787.662	0.758	758.4	study	Phase2	study/STIM_007.jpg	99
792.314	0.534	534.2	study	Phase2	study/STIM_007.jpg	99
796.172	0.623	623.1	study	Phase2	study/STIM_007.jpg	100
798.945	1.038	1038.5	study	Phase2	study/STIM_008.jpg	100
803.112	0.71	709.7	study	Phase2	study/STIM_008.jpg	100
806.008	0.486	485.8	study	Phase2	study/STIM_008.jpg	99
809.301	0.552	551.5	study	Phase2	study/STIM_009.jpg	99
812.929	1.043	1042.7	study	Phase2	study/STIM_009.jpg	100
817.211	0.493	493.3	study	Phase2	study/STIM_009.jpg	100
819.83	0.724	724.4	study	Phase2	study/STIM_010.jpg	100
823.058	0.546	545.9	study	Phase2	study/STIM_010.jpg	100
826.393	0.918	917.5	study	Phase2	study/STIM_010.jpg	99
830.257	0.78	779.7	study	Phase2	study/STIM_011.jpg	99
834.982	0.762	762.2	study	Phase2	study/STIM_011.jpg	99
839.664	0.506	506.1	study	Phase2	study/STIM_011.jpg	99
842.578	0.846	845.5	study	Phase2	study/STIM_012.jpg	99
846.344	0.694	693.5	study	Phase2	study/STIM_012.jpg	100
849.357	0.754	753.5	study	Phase2	study/STIM_012.jpg	100
853.317	0.764	763.9	study	Phase2	study/STIM_013.jpg	100
856.901	0.553	552.9	study	Phase2	study/STIM_013.jpg	100
860.649	1.066	1065.8	study	Phase2	study/STIM_013.jpg	100
865.608	0.544	543.9	study	Phase2	study/STIM_014.jpg	100
869.08	0.901	901.4	study	Phase2	study/STIM_014.jpg	100
872.57	0.686	686.1	study	Phase2	study/STIM_014.jpg	100
876.491	0.913	913.1	study	Phase2	study/STIM_015.jpg	99
880.97	1.015	1014.9	study	Phase2	study/STIM_015.jpg	99
884.33	0.696	696.4	study	Phase2	study/STIM_015.jpg	100
887.96	0.893	892.8	study	Phase2	study/STIM_016.jpg	99
892.729	1.104	1103.5	study	Phase2	study/STIM_016.jpg	99
895.979	0.786	786.0	study	Phase2	study/STIM_016.jpg	99
900.301	0.99	989.9	study	Phase2	study/STIM_017.jpg	99
903.96	0.512	512.2	study	Phase2	study/STIM_017.jpg	99
906.643	0.835	834.8	study	Phase2	study/STIM_017.jpg	100
910.401	0.738	737.7	study	Phase2	study/STIM_018.jpg	99
913.801	0.963	963.3	study	Phase2	study/STIM_018.jpg	99
917.581	0.802	801.6	study	Phase2	study/STIM_018.jpg	99
921.565	1.16	1160.0	study	Phase2	study/STIM_019.jpg	100
926.145	1.064	1063.6	study	Phase2	study/STIM_019.jpg	99
930.324	0.547	547.4	study	Phase2	study/STIM_019.jpg	99
933.614	0.886	885.7	study	Phase2	study/STIM_020.jpg	100
937.666	1.131	1131.0	study	Phase2	study/STIM_020.jpg	99
942.297	1.059	1058.6	study	Phase2	study/STIM_020.jpg	99
947.024	0.57	570.3	study	Phase2	study/STIM_021.jpg	99
950.952	1.082	1081.6	study	Phase2	study/STIM_021.jpg	100
955.652	0.588	587.7	study	Phase2	study/STIM_021.jpg	99
959.928	0.656	656.1	study	Phase2	study/STIM_022.jpg	100
964.243	0.907	906.8	study	Phase2	study/STIM_022.jpg	100
968.46	0.586	585.6	study	Phase2	study/STIM_022.jpg	100
971.828	1.062	1062.0	study	Phase2	study/STIM_023.jpg	100
975.864	1.074	1073.6	study	Phase2	study/STIM_023.jpg	99
979.56	0.643	642.6	study	Phase2	study/STIM_023.jpg	99
982.419	0.818	818.3	study	Phase2	study/STIM_024.jpg	99
985.851	1.045	1045.1	study	Phase2	study/STIM_024.jpg	100
989.818	1.028	1027.9	study	Phase2	study/STIM_024.jpg	99
994.777	0.589	589.0	study	Phase2	study/STIM_025.jpg	99
997.53	0.562	562.5	study	Phase2	study/STIM_025.jpg	100
1000.907	0.96	960.1	study	Phase2	study/STIM_025.jpg	100
1004.12	0.561	561.2	study	Phase2	study/STIM_026.jpg	99
1007.144	0.738	737.9	study	Phase2	study/STIM_026.jpg	100
1010.693	1.056	1056.5	study	Phase2	study/STIM_026.jpg	100
1015.175	0.7	699.9	study	Phase2	study/STIM_027.jpg	100
1017.897	0.836	835.6	study	Phase2	study/STIM_027.jpg	100
1021.57	0.623	622.8	study	Phase2	study/STIM_027.jpg	99
1025.829	0.992	992.2	study	Phase2	study/STIM_028.jpg	100
1029.072	0.682	682.5	study	Phase2	study/STIM_028.jpg	99
1033.672	0.696	696.0	study	Phase2	study/STIM_028.jpg	99
1037.52	1.006	1006.5	study	Phase2	study/STIM_029.jpg	100
1042.514	1.112	1111.6	study	Phase2	study/STIM_029.jpg	100
1047.011	0.708	708.1	study	Phase2	study/STIM_029.jpg	100
1050.764	0.487	487.0	test	Phase2	test/STIM_000.jpg	100
1053.964	0.726	726.5	test	Phase2	test/STIM_000.jpg	100
1057.657	0.753	752.7	test	Phase2	test/STIM_000.jpg	99
1061.161	0.604	603.5	test	Phase2	test/STIM_001.jpg	100
1064.408	0.793	792.7	test	Phase2	test/STIM_001.jpg	99
1068.634	0.972	972.5	test	Phase2	test/STIM_001.jpg	100
1072.613	0.824	823.9	test	Phase2	test/STIM_002.jpg	100
1076.718	0.953	953.4	test	Phase2	test/STIM_002.jpg	100
1080.417	0.758	757.7	test	Phase2	test/STIM_002.jpg	99
1083.2	0.798	797.5	test	Phase2	test/STIM_003.jpg	99
1086.776	0.985	984.6	test	Phase2	test/STIM_003.jpg	99
1091.022	0.591	590.8	test	Phase2	test/STIM_003.jpg	100
1094.543	0.496	496.2	test	Phase2	test/STIM_004.jpg	100
1097.711	0.5	499.6	test	Phase2	test/STIM_004.jpg	99
1101.566	0.667	667.2	test	Phase2	test/STIM_004.jpg	100
1106.139	0.836	835.7	test	Phase2	test/STIM_005.jpg	99
1109.656	1.002	1002.5	test	Phase2	test/STIM_005.jpg	99
1113.533	0.63	629.5	test	Phase2	test/STIM_005.jpg	100
1117.679	0.929	928.7	test	Phase2	test/STIM_006.jpg	100
1122.486	0.654	653.5	test	Phase2	test/STIM_006.jpg	99
1126.376	0.493	493.2	test	Phase2	test/STIM_006.jpg	100
1130.132	0.799	798.9	test	Phase2	test/STIM_007.jpg	99
1134.261	0.522	522.5	test	Phase2	test/STIM_007.jpg	100
1137.394	0.711	711.1	test	Phase2	test/STIM_007.jpg	100
1140.381	0.925	925.4	test	Phase2	test/STIM_008.jpg	100
1144.761	0.684	684.2	test	Phase2	test/STIM_008.jpg	100
1148.426	0.656	655.8	test	Phase2	test/STIM_008.jpg	100
1152.219	0.79	790.2	test	Phase2	test/STIM_009.jpg	100
1156.985	0.683	683.2	test	Phase2	test/STIM_009.jpg	100
1160.261	0.692	692.4	test	Phase2	test/STIM_009.jpg	99
1163.751	0.585	585.2	test	Phase2	test/STIM_010.jpg	100
1166.422	0.548	548.3	test	Phase2	test/STIM_010.jpg	99
1169.789	0.704	704.0	test	Phase2	test/STIM_010.jpg	99
1172.956	0.557	556.8	test	Phase2	test/STIM_011.jpg	100
1177.272	0.907	907.4	test	Phase2	test/STIM_011.jpg	100
1180.73	0.765	765.4	test	Phase2	test/STIM_011.jpg	99
1185.33	0.797	797.2	test	Phase2	test/STIM_012.jpg	100
1190.019	0.78	779.9	test	Phase2	test/STIM_012.jpg	99
1193.404	0.932	932.0	test	Phase2	test/STIM_012.jpg	99
1196.689	0.912	912.5	test	Phase2	test/STIM_013.jpg	99
1199.959	0.623	622.8	test	Phase2	test/STIM_013.jpg	100
1202.722	0.654	654.5	test	Phase2	test/STIM_013.jpg	99
1206.97	0.662	662.2	test	Phase2	test/STIM_014.jpg	99
1210.891	0.619	619.2	test	Phase2	test/STIM_014.jpg	99
1214.234	0.892	892.3	test	Phase2	test/STIM_014.jpg	100
1218.41	0.704	703.8	test	Phase2	test/STIM_015.jpg	99
1222.681	0.79	790.3	test	Phase2	test/STIM_015.jpg	100
1226.59	0.525	524.9	test	Phase2	test/STIM_015.jpg	99
1230.513	0.989	989.0	test	Phase2	test/STIM_016.jpg	99
1233.971	0.505	505.4	test	Phase2	test/STIM_016.jpg	100
1237.27	0.484	484.5	test	Phase2	test/STIM_016.jpg	100
1240.926	1.002	1002.3	test	Phase2	test/STIM_017.jpg	100
1245.363	0.834	833.6	test	Phase2	test/STIM_017.jpg	100
1248.744	0.701	701.3	test	Phase2	test/STIM_017.jpg	99
1252.104	0.794	794.3	test	Phase2	test/STIM_018.jpg	100
1255.473	0.975	975.0	test	Phase2	test/STIM_018.jpg	100
1259.865	0.626	626.5	test	Phase2	test/STIM_018.jpg	99
1263.858	0.645	645.4	test	Phase2	test/STIM_019.jpg	100
1268.189	0.868	868.1	test	Phase2	test/STIM_019.jpg	99
1271.427	0.851	851.0	test	Phase2	test/STIM_019.jpg	99
1274.76	0.509	509.3	test	Phase2	test/STIM_020.jpg	99
1278.28	0.757	757.0	test	Phase2	test/STIM_020.jpg	99
1281.151	0.9	900.5	test	Phase2	test/STIM_020.jpg	99
1285.484	1.03	1029.6	test	Phase2	test/STIM_021.jpg	99
1289.047	0.558	557.7	test	Phase2	test/STIM_021.jpg	99
1293.271	0.565	564.7	test	Phase2	test/STIM_021.jpg	100
1297.714	0.554	553.8	test	Phase2	test/STIM_022.jpg	100
1300.698	1.03	1030.4	test	Phase2	test/STIM_022.jpg	99
1304.471	0.501	501.1	test	Phase2	test/STIM_022.jpg	99
1307.957	1.009	1009.2	test	Phase2	test/STIM_023.jpg	100
1311.924	0.597	597.1	test	Phase2	test/STIM_023.jpg	100
1315.29	0.931	930.7	test	Phase2	test/STIM_023.jpg	100
1319.169	0.741	741.4	test	Phase2	test/STIM_024.jpg	100
1323.533	0.896	895.6	test	Phase2	test/STIM_024.jpg	99
1326.797	0.915	915.4	test	Phase2	test/STIM_024.jpg	99
1329.99	0.565	565.3	test	Phase2	test/STIM_025.jpg	99
1333.52	0.561	561.2	test	Phase2	test/STIM_025.jpg	99
1336.127	0.751	750.9	test	Phase2	test/STIM_025.jpg	100
1339.638	1.023	1023.4	test	Phase2	test/STIM_026.jpg	100
1343.36	0.718	718.1	test	Phase2	test/STIM_026.jpg	99
1346.098	0.931	930.6	test	Phase2	test/STIM_026.jpg	100
1350.723	0.555	554.9	test	Phase2	test/STIM_027.jpg	100
1355.253	0.584	583.9	test	Phase2	test/STIM_027.jpg	100
1358.481	0.837	836.7	test	Phase2	test/STIM_027.jpg	100
1362.928	0.831	831.2	test	Phase2	test/STIM_028.jpg	99
1367.28	0.553	552.7	test	Phase2	test/STIM_028.jpg	100
1370.616	0.749	749.4	test	Phase2	test/STIM_028.jpg	100
1373.819	0.638	638.4	test	Phase2	test/STIM_029.jpg	99
1377.407	0.679	679.1	test	Phase2	test/STIM_029.jpg	100
1380.561	0.745	744.6	test	Phase2	test/STIM_029.jpg	99
1383.774	0.938	937.7	study	Phase3	study/STIM_000.jpg	99
1386.711	0.527	526.9	study	Phase3	study/STIM_000.jpg	99
1389.363	0.942	941.7	study	Phase3	study/STIM_000.jpg	99
1394.268	0.792	791.6	study	Phase3	study/STIM_001.jpg	100
1398.092	0.88	880.5	study	Phase3	study/STIM_001.jpg	99
1401.284	0.503	503.2	study	Phase3	study/STIM_001.jpg	99
1404.559	0.623	622.9	study	Phase3	study/STIM_002.jpg	100
1407.46	0.557	556.9	study	Phase3	study/STIM_002.jpg	100
1411.481	0.816	815.9	study	Phase3	study/STIM_002.jpg	100
1414.349	0.467	466.9	study	Phase3	study/STIM_003.jpg	99
1418.328	0.944	943.6	study	Phase3	study/STIM_003.jpg	99
1422.136	0.902	901.9	study	Phase3	study/STIM_003.jpg	99
1425.182	0.957	957.3	study	Phase3	study/STIM_004.jpg	99
1429.065	0.771	771.1	study	Phase3	study/STIM_004.jpg	100
1432.155	0.687	687.2	study	Phase3	study/STIM_004.jpg	99
1434.957	0.492	492.3	study	Phase3	study/STIM_005.jpg	99
1438.163	0.505	505.5	study	Phase3	study/STIM_005.jpg	100
1441.46	0.916	916.2	study	Phase3	study/STIM_005.jpg	99
1445.845	0.607	606.9	study	Phase3	study/STIM_006.jpg	100
1448.945	0.853	852.7	study	Phase3	study/STIM_006.jpg	100
1452.717	0.843	843.3	study	Phase3	study/STIM_006.jpg	99
1456.48	0.932	932.0	study	Phase3	study/STIM_007.jpg	100
1460.325	0.476	475.6	study	Phase3	study/STIM_007.jpg	100
1463.843	0.865	865.1	study	Phase3	study/STIM_007.jpg	99
1468.273	0.477	477.2	study	Phase3	study/STIM_008.jpg	100
1471.959	0.449	449.1	study	Phase3	study/STIM_008.jpg	99
1475.846	0.913	913.3	study	Phase3	study/STIM_008.jpg	100
1480.628	0.74	739.9	study	Phase3	study/STIM_009.jpg	100
1484.991	0.798	797.8	study	Phase3	study/STIM_009.jpg	100
1488.735	0.57	570.1	study	Phase3	study/STIM_009.jpg	100
1492.023	0.854	854.5	study	Phase3	study/STIM_010.jpg	99
1496.747	0.945	944.6	study	Phase3	study/STIM_010.jpg	99
1500.483	0.985	984.6	study	Phase3	study/STIM_010.jpg	100
1505.45	0.576	576.5	study	Phase3	study/STIM_011.jpg	100
1508.565	0.802	802.5	study	Phase3	study/STIM_011.jpg	99
1512.515	0.905	905.4	study	Phase3	study/STIM_011.jpg	100
1516.549	0.704	704.4	study	Phase3	study/STIM_012.jpg	100
1519.376	0.858	858.0	study	Phase3	study/STIM_012.jpg	100
1523.48	0.488	487.5	study	Phase3	study/STIM_012.jpg	99
1527.964	0.862	862.5	study	Phase3	study/STIM_013.jpg	100
1532.784	0.952	951.5	study	Phase3	study/STIM_013.jpg	99
1537.598	0.875	874.6	study	Phase3	study/STIM_013.jpg	100
1541.989	0.527	527.4	study	Phase3	study/STIM_014.jpg	99
1545.009	0.521	521.3	study	Phase3	study/STIM_014.jpg	100
1548.852	0.514	514.4	study	Phase3	study/STIM_014.jpg	100
1552.76	0.473	472.8	study	Phase3	study/STIM_015.jpg	99
1555.374	0.981	980.7	study	Phase3	study/STIM_015.jpg	99
1558.49	0.791	790.8	study	Phase3	study/STIM_015.jpg	100
1563.129	0.904	904.1	study	Phase3	study/STIM_016.jpg	100
1566.433	0.615	614.8	study	Phase3	study/STIM_016.jpg	100
1570.488	0.834	833.5	study	Phase3	study/STIM_016.jpg	100
1573.462	0.975	975.1	study	Phase3	study/STIM_017.jpg	100
1578.066	0.888	888.3	study	Phase3	study/STIM_017.jpg	99
1581.45	0.742	742.5	study	Phase3	study/STIM_017.jpg	100
1586.033	0.952	952.4	study	Phase3	study/STIM_018.jpg	99
1589.027	0.915	915.2	study	Phase3	study/STIM_018.jpg	100
1592.991	0.662	662.0	study	Phase3	study/STIM_018.jpg	99
1596.165	0.765	765.2	study	Phase3	study/STIM_019.jpg	100
1600.283	0.679	678.9	study	Phase3	study/STIM_019.jpg	100
1603.798	0.946	946.2	study	Phase3	study/STIM_019.jpg	100
1606.823	0.653	652.9	study	Phase3	study/STIM_020.jpg	99
1610.036	0.549	549.3	study	Phase3	study/STIM_020.jpg	99
1613.801	0.7	700.2	study	Phase3	study/STIM_020.jpg	100
1617.978	0.865	865.2	study	Phase3	study/STIM_021.jpg	100
1620.861	0.799	799.4	study	Phase3	study/STIM_021.jpg	99
1624.634	0.827	827.3	study	Phase3	study/STIM_021.jpg	100
1627.937	0.634	634.1	study	Phase3	study/STIM_022.jpg	100
1631.761	0.549	549.4	study	Phase3	study/STIM_022.jpg	99
1634.417	0.723	723.3	study	Phase3	study/STIM_022.jpg	100
1638.806	0.635	635.3	study	Phase3	study/STIM_023.jpg	99
1642.13	0.742	742.4	study	Phase3	study/STIM_023.jpg	99
1646.665	0.574	573.8	study	Phase3	study/STIM_023.jpg	100
1650.404	0.852	851.6	study	Phase3	study/STIM_024.jpg	99
1654.577	0.663	662.8	study	Phase3	study/STIM_024.jpg	100
1658.246	0.709	709.3	study	Phase3	study/STIM_024.jpg	99
1662.534	0.844	843.8	study	Phase3	study/STIM_025.jpg	100
1665.772	0.448	447.6	study	Phase3	study/STIM_025.jpg	100
1668.923	0.785	785.4	study	Phase3	study/STIM_025.jpg	100
1672.12	0.816	816.1	study	Phase3	study/STIM_026.jpg	99
1675.13	0.613	613.4	study	Phase3	study/STIM_026.jpg	100
1678.103	0.705	704.8	study	Phase3	study/STIM_026.jpg	100
1682.661	0.835	835.3	study	Phase3	study/STIM_027.jpg	100
1686.575	0.764	764.4	study	Phase3	study/STIM_027.jpg	99
1690.83	0.808	808.3	study	Phase3	study/STIM_027.jpg	99
1694.065	0.918	917.7	study	Phase3	study/STIM_028.jpg	99
1697.378	0.526	526.3	study	Phase3	study/STIM_028.jpg	99
1700.394	0.918	918.3	study	Phase3	study/STIM_028.jpg	99
1704.727	0.462	461.8	study	Phase3	study/STIM_029.jpg	100
1707.721	0.483	483.1	study	Phase3	study/STIM_029.jpg	100
1710.453	0.567	567.3	study	Phase3	study/STIM_029.jpg	99
1714.687	0.72	720.4	test	Phase3	test/STIM_000.jpg	99
1718.331	0.739	738.6	test	Phase3	test/STIM_000.jpg	99
1723.048	0.848	848.3	test	Phase3	test/STIM_000.jpg	100
1726.781	0.9	899.8	test	Phase3	test/STIM_001.jpg	100
1731.335	0.501	501.2	test	Phase3	test/STIM_001.jpg	99
1734.974	0.687	687.4	test	Phase3	test/STIM_001.jpg	99
1737.993	0.616	616.0	test	Phase3	test/STIM_002.jpg	99
1742.397	0.55	550.5	test	Phase3	test/STIM_002.jpg	99
1746.925	0.894	893.8	test	Phase3	test/STIM_002.jpg	99
1750.935	0.568	568.0	test	Phase3	test/STIM_003.jpg	99
1754.564	0.754	753.8	test	Phase3	test/STIM_003.jpg	100
1757.621	0.617	616.7	test	Phase3	test/STIM_003.jpg	99
1760.559	0.632	631.7	test	Phase3	test/STIM_004.jpg	100
1764.529	0.662	662.0	test	Phase3	test/STIM_004.jpg	99
1767.493	0.634	634.4	test	Phase3	test/STIM_004.jpg	100
1770.659	0.579	579.0	test	Phase3	test/STIM_005.jpg	99
1774.551	0.488	488.4	test	Phase3	test/STIM_005.jpg	100
1778.359	0.674	673.7	test	Phase3	test/STIM_005.jpg	99
1782.632	0.541	541.1	test	Phase3	test/STIM_006.jpg	100
1786.153	0.602	602.2	test	Phase3	test/STIM_006.jpg	99
1788.812	1.022	1022.4	test	Phase3	test/STIM_006.jpg	100
1793.327	0.72	720.4	test	Phase3	test/STIM_007.jpg	100
1797.232	0.984	983.7	test	Phase3	test/STIM_007.jpg	100
1801.821	0.945	944.9	test	Phase3	test/STIM_007.jpg	99
1806.043	0.956	956.5	test	Phase3	test/STIM_008.jpg	99
1810.273	0.766	766.5	test	Phase3	test/STIM_008.jpg	99
1814.603	0.642	641.9	test	Phase3	test/STIM_008.jpg	99
1819.07	0.795	794.9	test	Phase3	test/STIM_009.jpg	100
1822.386	0.564	563.7	test	Phase3	test/STIM_009.jpg	99
1825.802	0.713	712.6	test	Phase3	test/STIM_009.jpg	100
1830.389	0.537	536.8	test	Phase3	test/STIM_010.jpg	100
1833.87	0.89	889.9	test	Phase3	test/STIM_010.jpg	99
1836.904	0.502	501.9	test	Phase3	test/STIM_010.jpg	100
1839.431	0.79	790.0	test	Phase3	test/STIM_011.jpg	99
1842.601	0.576	576.3	test	Phase3	test/STIM_011.jpg	100
1846.125	0.595	595.4	test	Phase3	test/STIM_011.jpg	100
1849.608	0.771	770.8	test	Phase3	test/STIM_012.jpg	100
1852.553	0.685	684.8	test	Phase3	test/STIM_012.jpg	99
1855.897	0.971	970.8	test	Phase3	test/STIM_012.jpg	100
1860.143	0.967	967.3	test	Phase3	test/STIM_013.jpg	100
1864.593	0.839	838.6	test	Phase3	test/STIM_013.jpg	100
1868.341	1.009	1008.9	test	Phase3	test/STIM_013.jpg	100
1871.481	0.903	903.2	test	Phase3	test/STIM_014.jpg	100
1876.317	0.477	477.0	test	Phase3	test/STIM_014.jpg	99
1879.002	0.757	756.6	test	Phase3	test/STIM_014.jpg	99
1882.906	0.787	787.3	test	Phase3	test/STIM_015.jpg	100
1885.986	0.874	873.7	test	Phase3	test/STIM_015.jpg	99
1889.44	0.578	578.1	test	Phase3	test/STIM_015.jpg	100
1893.092	0.617	616.6	test	Phase3	test/STIM_016.jpg	99
1896.465	0.858	858.5	test	Phase3	test/STIM_016.jpg	100
1901.23	0.975	975.0	test	Phase3	test/STIM_016.jpg	100
1904.624	0.992	992.3	test	Phase3	test/STIM_017.jpg	99
1907.629	0.983	983.3	test	Phase3	test/STIM_017.jpg	100
1911.514	0.918	918.5	test	Phase3	test/STIM_017.jpg	100
1915.05	0.738	738.3	test	Phase3	test/STIM_018.jpg	99
1918.373	0.968	968.4	test	Phase3	test/STIM_018.jpg	100
1923.226	0.787	787.4	test	Phase3	test/STIM_018.jpg	100
1926.799	0.607	606.9	test	Phase3	test/STIM_019.jpg	100
1930.016	0.766	765.9	test	Phase3	test/STIM_019.jpg	100
1934.617	0.629	629.1	test	Phase3	test/STIM_019.jpg	99
1938.542	0.616	615.8	test	Phase3	test/STIM_020.jpg	100
1942.125	0.896	896.4	test	Phase3	test/STIM_020.jpg	99
1945.482	0.535	535.4	test	Phase3	test/STIM_020.jpg	99
1949.505	0.555	555.1	test	Phase3	test/STIM_021.jpg	99
1952.452	0.603	602.8	test	Phase3	test/STIM_021.jpg	99
1956.071	0.569	569.0	test	Phase3	test/STIM_021.jpg	100
1959.356	0.603	603.2	test	Phase3	test/STIM_022.jpg	100
1962.136	0.87	869.9	test	Phase3	test/STIM_022.jpg	99
1966.028	0.54	540.5	test	Phase3	test/STIM_022.jpg	100
1969.268	0.851	850.8	test	Phase3	test/STIM_023.jpg	99
1973.535	0.84	840.5	test	Phase3	test/STIM_023.jpg	100
1978.082	0.626	626.5	test	Phase3	test/STIM_023.jpg	99
1980.808	0.598	598.1	test	Phase3	test/STIM_024.jpg	99
1983.977	0.812	811.8	test	Phase3	test/STIM_024.jpg	99
1987.101	0.796	796.5	test	Phase3	test/STIM_024.jpg	99
1991.383	0.563	563.0	test	Phase3	test/STIM_025.jpg	100
1994.903	0.616	616.1	test	Phase3	test/STIM_025.jpg	100
1997.842	0.653	652.6	test	Phase3	test/STIM_025.jpg	99
2001.166	0.528	527.6	test	Phase3	test/STIM_026.jpg	99
2005.379	0.943	943.0	test	Phase3	test/STIM_026.jpg	99
2008.347	0.799	799.1	test	Phase3	test/STIM_026.jpg	99
2012.859	0.943	942.8	test	Phase3	test/STIM_027.jpg	100
2017.515	0.615	615.0	test	Phase3	test/STIM_027.jpg	99
2021.998	0.772	771.8	test	Phase3	test/STIM_027.jpg	99
2026.584	0.516	515.8	test	Phase3	test/STIM_028.jpg	100
2029.302	0.7	700.3	test	Phase3	test/STIM_028.jpg	99
2032.144	0.696	696.5	test	Phase3	test/STIM_028.jpg	99
2036.252	0.96	959.9	test	Phase3	test/STIM_029.jpg	100
2040.311	0.946	945.7	test	Phase3	test/STIM_029.jpg	99
2044.248	0.952	952.1	test	Phase3	test/STIM_029.jpg	99
