onset	duration	accuracy_binary	trial_type	learning_stage	stimulus
0.0	1.155	1	study	Phase1	study/STIM_000.jpg
4.688	1.624	0	study	Phase1	study/STIM_000.jpg
9.474	0.727	1	study	Phase1	study/STIM_000.jpg
12.363	1.666	1	study	Phase1	study/STIM_001.jpg
17.42	1.161	1	study	Phase1	study/STIM_001.jpg
21.436	1.374	1	study	Phase1	study/STIM_001.jpg
25.431	0.968	1	study	Phase1	study/STIM_002.jpg
28.805	1.296	1	study	Phase1	study/STIM_002.jpg
32.944	1.525	1	study	Phase1	study/STIM_002.jpg
37.527	1.44	1	study	Phase1	study/STIM_003.jpg
42.303	1.346	0	study	Phase1	study/STIM_003.jpg
47.076	1.256	1	study	Phase1	study/STIM_003.jpg
50.924	1.363	1	study	Phase1	study/STIM_004.jpg
54.942	1.375	1	study	Phase1	study/STIM_004.jpg
59.472	0.929	1	study	Phase1	study/STIM_004.jpg
63.322	1.71	1	study	Phase1	study/STIM_005.jpg
67.137	1.229	1	study	Phase1	study/STIM_005.jpg
71.259	0.938	1	study	Phase1	study/STIM_005.jpg
74.452	0.958	1	study	Phase1	study/STIM_006.jpg
77.53	1.162	1	study	Phase1	study/STIM_006.jpg
81.628	1.276	0	study	Phase1	study/STIM_006.jpg
86.634	1.766	1	study	Phase1	study/STIM_007.jpg
91.383	1.139	1	study	Phase1	study/STIM_007.jpg
94.94	0.94	1	study	Phase1	study/STIM_007.jpg
99.11	1.535	1	study	Phase1	study/STIM_008.jpg
102.725	1.367	0	study	Phase1	study/STIM_008.jpg
106.875	0.808	1	study	Phase1	study/STIM_008.jpg
111.148	0.88	1	study	Phase1	study/STIM_009.jpg
114.183	0.974	1	study	Phase1	study/STIM_009.jpg
119.022	1.25	1	study	Phase1	study/STIM_009.jpg
124.204	1.03	1	study	Phase1	study/STIM_010.jpg
127.631	1.363	1	study	Phase1	study/STIM_010.jpg
131.04	1.427	1	study	Phase1	study/STIM_010.jpg
135.459	1.124	1	study	Phase1	study/STIM_011.jpg
138.957	1.144	1	study	Phase1	study/STIM_011.jpg
142.963	1.6	0	study	Phase1	study/STIM_011.jpg
148.079	0.893	1	study	Phase1	study/STIM_012.jpg
151.543	0.807	1	study	Phase1	study/STIM_012.jpg
155.484	1.556	1	study	Phase1	study/STIM_012.jpg
159.789	1.535	1	study	Phase1	study/STIM_013.jpg
164.692	0.654	1	study	Phase1	study/STIM_013.jpg
169.477	1.452	0	study	Phase1	study/STIM_013.jpg
173.227	0.873	1	study	Phase1	study/STIM_014.jpg
177.616	1.668	1	study	Phase1	study/STIM_014.jpg
182.081	1.574	1	study	Phase1	study/STIM_014.jpg
186.166	1.321	1	study	Phase1	study/STIM_015.jpg
189.961	1.609	1	study	Phase1	study/STIM_015.jpg
194.095	1.323	1	study	Phase1	study/STIM_015.jpg
197.749	1.461	1	study	Phase1	study/STIM_016.jpg
202.162	1.618	1	study	Phase1	study/STIM_016.jpg
206.637	1.095	1	study	Phase1	study/STIM_016.jpg
210.927	1.321	0	study	Phase1	study/STIM_017.jpg
215.759	1.471	1	study	Phase1	study/STIM_017.jpg
219.903	1.107	1	study	Phase1	study/STIM_017.jpg
224.596	1.858	1	study	Phase1	study/STIM_018.jpg
228.634	1.116	1	study	Phase1	study/STIM_018.jpg
232.26	1.558	1	study	Phase1	study/STIM_018.jpg
237.538	1.183	1	study	Phase1	study/STIM_019.jpg
242.522	1.729	1	study	Phase1	study/STIM_019.jpg
247.1	1.378	1	study	Phase1	study/STIM_019.jpg
250.897	1.392	1	study	Phase1	study/STIM_020.jpg
255.639	1.449	1	study	Phase1	study/STIM_020.jpg
259.168	1.307	1	study	Phase1	study/STIM_020.jpg
264.046	1.081	1	study	Phase1	study/STIM_021.jpg
267.901	1.034	1	study	Phase1	study/STIM_021.jpg
272.291	1.342	1	study	Phase1	study/STIM_021.jpg
277.13	1.739	1	study	Phase1	study/STIM_022.jpg
281.583	1.645	1	study	Phase1	study/STIM_022.jpg
286.401	0.975	1	study	Phase1	study/STIM_022.jpg
290.55	1.006	0	study	Phase1	study/STIM_023.jpg
293.91	1.507	1	study	Phase1	study/STIM_023.jpg
298.615	1.385	1	study	Phase1	study/STIM_023.jpg
303.181	0.98	1	study	Phase1	study/STIM_024.jpg
306.721	1.277	1	study	Phase1	study/STIM_024.jpg
311.908	1.377	0	study	Phase1	study/STIM_024.jpg
317.122	1.527	0	study	Phase1	study/STIM_025.jpg
321.263	1.197	0	study	Phase1	study/STIM_025.jpg
324.851	1.144	1	study	Phase1	study/STIM_025.jpg
329.043	1.828	1	study	Phase1	study/STIM_026.jpg
334.573	1.347	0	study	Phase1	study/STIM_026.jpg
338.281	0.978	1	study	Phase1	study/STIM_026.jpg
343.088	1.331	1	study	Phase1	study/STIM_027.jpg
346.531	1.747	1	study	Phase1	study/STIM_027.jpg
351.197	1.617	1	study	Phase1	study/STIM_027.jpg
356.487	1.417	1	study	Phase1	study/STIM_028.jpg
361.397	1.026	1	study	Phase1	study/STIM_028.jpg
365.994	1.264	1	study	Phase1	study/STIM_028.jpg
370.096	1.07	1	study	Phase1	study/STIM_029.jpg
375.139	1.036	1	study	Phase1	study/STIM_029.jpg
378.77	1.341	1	study	Phase1	study/STIM_029.jpg
383.022	0.585	1	test	Phase1	test/STIM_000.jpg
387.43	1.018	1	test	Phase1	test/STIM_000.jpg
390.626	0.992	1	test	Phase1	test/STIM_000.jpg
393.688	1.208	1	test	Phase1	test/STIM_001.jpg
398.442	1.168	1	test	Phase1	test/STIM_001.jpg
403.392	0.83	1	test	Phase1	test/STIM_001.jpg
406.998	1.319	1	test	Phase1	test/STIM_002.jpg
412.182	0.659	1	test	Phase1	test/STIM_002.jpg
416.238	1.209	0	test	Phase1	test/STIM_002.jpg
420.056	0.812	1	test	Phase1	test/STIM_003.jpg
422.902	1.162	1	test	Phase1	test/STIM_003.jpg
427.004	0.775	1	test	Phase1	test/STIM_003.jpg
429.951	1.139	1	test	Phase1	test/STIM_004.jpg
434.35	0.842	1	test	Phase1	test/STIM_004.jpg
437.436	1.245	1	test	Phase1	test/STIM_004.jpg
441.176	0.965	1	test	Phase1	test/STIM_005.jpg
444.525	0.878	1	test	Phase1	test/STIM_005.jpg
448.464	1.017	1	test	Phase1	test/STIM_005.jpg
452.446	0.745	1	test	Phase1	test/STIM_006.jpg
455.909	0.808	1	test	Phase1	test/STIM_006.jpg
460.603	1.23	1	test	Phase1	test/STIM_006.jpg
465.352	0.946	1	test	Phase1	test/STIM_007.jpg
469.924	1.162	1	test	Phase1	test/STIM_007.jpg
474.726	1.207	1	test	Phase1	test/STIM_007.jpg
479.585	1.128	1	test	Phase1	test/STIM_008.jpg
484.125	0.897	1	test	Phase1	test/STIM_008.jpg
488.041	0.92	1	test	Phase1	test/STIM_008.jpg
491.389	1.197	1	test	Phase1	test/STIM_009.jpg
496.04	0.801	1	test	Phase1	test/STIM_009.jpg
499.605	0.645	1	test	Phase1	test/STIM_009.jpg
503.533	1.004	1	test	Phase1	test/STIM_010.jpg
506.874	0.904	1	test	Phase1	test/STIM_010.jpg
511.001	0.676	1	test	Phase1	test/STIM_010.jpg
514.555	0.824	1	test	Phase1	test/STIM_011.jpg
517.447	0.636	1	test	Phase1	test/STIM_011.jpg
520.357	0.879	1	test	Phase1	test/STIM_011.jpg
523.906	0.665	1	test	Phase1	test/STIM_012.jpg
527.836	1.046	1	test	Phase1	test/STIM_012.jpg
532.662	0.923	1	test	Phase1	test/STIM_012.jpg
537.313	1.261	1	test	Phase1	test/STIM_013.jpg
542.345	1.174	1	test	Phase1	test/STIM_013.jpg
545.795	1.034	1	test	Phase1	test/STIM_013.jpg
550.323	0.804	1	test	Phase1	test/STIM_014.jpg
555.216	1.245	1	test	Phase1	test/STIM_014.jpg
560.019	0.847	1	test	Phase1	test/STIM_014.jpg
564.132	0.923	1	test	Phase1	test/STIM_015.jpg
567.933	0.998	1	test	Phase1	test/STIM_015.jpg
571.968	1.212	1	test	Phase1	test/STIM_015.jpg
576.525	0.766	1	test	Phase1	test/STIM_016.jpg
581.257	0.908	1	test	Phase1	test/STIM_016.jpg
585.239	1.077	1	test	Phase1	test/STIM_016.jpg
590.049	0.761	1	test	Phase1	test/STIM_017.jpg
594.079	0.662	1	test	Phase1	test/STIM_017.jpg
597.536	1.233	1	test	Phase1	test/STIM_017.jpg
601.721	1.104	1	test	Phase1	test/STIM_018.jpg
605.2	1.056	1	test	Phase1	test/STIM_018.jpg
608.832	0.989	1	test	Phase1	test/STIM_018.jpg
612.378	0.885	1	test	Phase1	test/STIM_019.jpg
615.63	1.273	0	test	Phase1	test/STIM_019.jpg
618.906	1.126	0	test	Phase1	test/STIM_019.jpg
622.555	0.858	1	test	Phase1	test/STIM_020.jpg
626.844	0.605	1	test	Phase1	test/STIM_020.jpg
630.2	0.76	1	test	Phase1	test/STIM_020.jpg
633.643	1.088	1	test	Phase1	test/STIM_021.jpg
637.897	0.674	1	test	Phase1	test/STIM_021.jpg
642.371	1.35	1	test	Phase1	test/STIM_021.jpg
646.971	0.953	1	test	Phase1	test/STIM_022.jpg
649.899	0.724	0	test	Phase1	test/STIM_022.jpg
653.502	1.068	1	test	Phase1	test/STIM_022.jpg
657.43	1.038	1	test	Phase1	test/STIM_023.jpg
661.192	1.308	1	test	Phase1	test/STIM_023.jpg
664.679	1.156	1	test	Phase1	test/STIM_023.jpg
668.982	0.821	1	test	Phase1	test/STIM_024.jpg
672.111	1.181	1	test	Phase1	test/STIM_024.jpg
675.83	0.852	1	test	Phase1	test/STIM_024.jpg
678.904	1.343	1	test	Phase1	test/STIM_025.jpg
682.964	1.092	1	test	Phase1	test/STIM_025.jpg
686.294	0.712	1	test	Phase1	test/STIM_025.jpg
690.918	0.895	1	test	Phase1	test/STIM_026.jpg
695.554	0.743	1	test	Phase1	test/STIM_026.jpg
699.942	0.81	0	test	Phase1	test/STIM_026.jpg
703.269	0.935	1	test	Phase1	test/STIM_027.jpg
707.671	0.794	1	test	Phase1	test/STIM_027.jpg
711.375	0.906	1	test	Phase1	test/STIM_027.jpg
715.683	0.825	1	test	Phase1	test/STIM_028.jpg
719.655	1.371	1	test	Phase1	test/STIM_028.jpg
723.233	1.145	0	test	Phase1	test/STIM_028.jpg
728.262	1.114	1	test	Phase1	test/STIM_029.jpg
731.679	1.152	1	test	Phase1	test/STIM_029.jpg
735.068	0.928	1	test	Phase1	test/STIM_029.jpg
738.318	0.73	1	study	Phase2	study/STIM_000.jpg
741.379	1.17	1	study	Phase2	study/STIM_000.jpg
744.734	0.928	1	study	Phase2	study/STIM_000.jpg
748.243	1.163	1	study	Phase2	study/STIM_001.jpg
752.222	1.478	1	study	Phase2	study/STIM_001.jpg
755.659	1.067	1	study	Phase2	study/STIM_001.jpg
759.27	1.286	1	study	Phase2	study/STIM_002.jpg
763.952	0.783	1	study	Phase2	study/STIM_002.jpg
767.813	1.326	1	study	Phase2	study/STIM_002.jpg
771.86	1.245	1	study	Phase2	study/STIM_003.jpg
776.71	0.994	1	study	Phase2	study/STIM_003.jpg
781.645	1.138	1	study	Phase2	study/STIM_003.jpg
786.316	0.972	1	study	Phase2	study/STIM_004.jpg
789.568	0.709	1	study	Phase2	study/STIM_004.jpg
793.413	1.108	1	study	Phase2	study/STIM_004.jpg
796.811	0.92	1	study	Phase2	study/STIM_005.jpg
801.087	0.69	0	study	Phase2	study/STIM_005.jpg
804.942	0.803	1	study	Phase2	study/STIM_005.jpg
808.4	0.93	1	study	Phase2	study/STIM_006.jpg
812.783	0.679	1	study	Phase2	study/STIM_006.jpg
817.363	1.021	1	study	Phase2	study/STIM_006.jpg
820.995	1.381	1	study	Phase2	study/STIM_007.jpg
826.108	1.315	0	study	Phase2	study/STIM_007.jpg
831.267	0.889	1	study	Phase2	study/STIM_007.jpg
834.209	0.983	1	study	Phase2	study/STIM_008.jpg
838.879	0.912	1	study	Phase2	study/STIM_008.jpg
842.662	0.782	0	study	Phase2	study/STIM_008.jpg
846.381	0.937	0	study	Phase2	study/STIM_009.jpg
849.803	1.374	0	study	Phase2	study/STIM_009.jpg
853.232	0.872	1	study	Phase2	study/STIM_009.jpg
856.913	1.502	0	study	Phase2	study/STIM_010.jpg
861.808	0.721	1	study	Phase2	study/STIM_010.jpg
866.379	1.264	1	study	Phase2	study/STIM_010.jpg
871.046	0.824	1	study	Phase2	study/STIM_011.jpg
875.759	0.654	1	study	Phase2	study/STIM_011.jpg
879.097	1.334	1	study	Phase2	study/STIM_011.jpg
883.118	0.777	1	study	Phase2	study/STIM_012.jpg
886.553	0.96	1	study	Phase2	study/STIM_012.jpg
889.695	1.286	1	study	Phase2	study/STIM_012.jpg
894.22	1.402	1	study	Phase2	study/STIM_013.jpg
898.079	1.452	1	study	Phase2	study/STIM_013.jpg
903.092	0.908	1	study	Phase2	study/STIM_013.jpg
907.063	0.813	1	study	Phase2	study/STIM_014.jpg
910.867	1.373	1	study	Phase2	study/STIM_014.jpg
914.309	1.247	1	study	Phase2	study/STIM_014.jpg
918.883	0.728	1	study	Phase2	study/STIM_015.jpg
922.735	0.799	1	study	Phase2	study/STIM_015.jpg
925.585	1.189	1	study	Phase2	study/STIM_015.jpg
929.978	0.883	1	study	Phase2	study/STIM_016.jpg
933.977	0.746	1	study	Phase2	study/STIM_016.jpg
938.097	1.302	1	study	Phase2	study/STIM_016.jpg
942.892	0.806	1	study	Phase2	study/STIM_017.jpg
947.303	1.342	1	study	Phase2	study/STIM_017.jpg
950.965	0.828	1	study	Phase2	study/STIM_017.jpg
954.815	1.004	1	study	Phase2	study/STIM_018.jpg
958.313	1.282	1	study	Phase2	study/STIM_018.jpg
962.09	1.202	1	study	Phase2	study/STIM_018.jpg
967.219	0.952	1	study	Phase2	study/STIM_019.jpg
970.348	1.074	1	study	Phase2	study/STIM_019.jpg
973.969	0.904	1	study	Phase2	study/STIM_019.jpg
977.296	1.242	1	study	Phase2	study/STIM_020.jpg
981.582	0.917	1	study	Phase2	study/STIM_020.jpg
984.527	0.738	1	study	Phase2	study/STIM_020.jpg
987.676	1.017	1	study	Phase2	study/STIM_021.jpg
991.997	1.013	1	study	Phase2	study/STIM_021.jpg
996.807	1.175	1	study	Phase2	study/STIM_021.jpg
1001.774	1.525	1	study	Phase2	study/STIM_022.jpg
1005.926	0.69	1	study	Phase2	study/STIM_022.jpg
1010.024	1.389	1	study	Phase2	study/STIM_022.jpg
1013.586	1.1	1	study	Phase2	study/STIM_023.jpg
1016.813	0.909	1	study	Phase2	study/STIM_023.jpg
1020.478	0.77	0	study	Phase2	study/STIM_023.jpg
1023.492	0.984	1	study	Phase2	study/STIM_024.jpg
1026.622	1.064	1	study	Phase2	study/STIM_024.jpg
1030.522	1.054	1	study	Phase2	study/STIM_024.jpg
1034.24	0.86	1	study	Phase2	study/STIM_025.jpg
1037.533	1.196	1	study	Phase2	study/STIM_025.jpg
1040.982	1.396	1	study	Phase2	study/STIM_025.jpg
1045.82	1.065	1	study	Phase2	study/STIM_026.jpg
1050.487	1.378	1	study	Phase2	study/STIM_026.jpg
1054.956	0.911	1	study	Phase2	study/STIM_026.jpg
1058.467	1.144	1	study	Phase2	study/STIM_027.jpg
1061.788	1.389	1	study	Phase2	study/STIM_027.jpg
1066.934	1.466	1	study	Phase2	study/STIM_027.jpg
1071.095	1.412	1	study	Phase2	study/STIM_028.jpg
1074.965	1.155	1	study	Phase2	study/STIM_028.jpg
1078.94	1.226	1	study	Phase2	study/STIM_028.jpg
1082.764	0.895	1	study	Phase2	study/STIM_029.jpg
1086.282	0.739	1	study	Phase2	study/STIM_029.jpg
1089.222	0.818	1	study	Phase2	study/STIM_029.jpg
1093.066	0.975	1	test	Phase2	test/STIM_000.jpg
1097.671	1.097	1	test	Phase2	test/STIM_000.jpg
1101.218	1.022	1	test	Phase2	test/STIM_000.jpg
1104.293	1.056	1	test	Phase2	test/STIM_001.jpg
1108.159	1.332	1	test	Phase2	test/STIM_001.jpg
1111.762	1.215	1	test	Phase2	test/STIM_001.jpg
1116.701	1.283	1	test	Phase2	test/STIM_002.jpg
1121.703	0.929	1	test	Phase2	test/STIM_002.jpg
1125.012	1.131	1	test	Phase2	test/STIM_002.jpg
1128.876	0.653	1	test	Phase2	test/STIM_003.jpg
1132.899	0.585	1	test	Phase2	test/STIM_003.jpg
1136.319	1.091	1	test	Phase2	test/STIM_003.jpg
1140.835	0.695	1	test	Phase2	test/STIM_004.jpg
1144.843	1.182	1	test	Phase2	test/STIM_004.jpg
1148.909	0.796	0	test	Phase2	test/STIM_004.jpg
1152.611	0.769	1	test	Phase2	test/STIM_005.jpg
1155.723	0.75	1	test	Phase2	test/STIM_005.jpg
1159.001	1.217	1	test	Phase2	test/STIM_005.jpg
1164.192	0.745	1	test	Phase2	test/STIM_006.jpg
1168.669	0.73	1	test	Phase2	test/STIM_006.jpg
1172.492	0.762	1	test	Phase2	test/STIM_006.jpg
1176.378	1.173	1	test	Phase2	test/STIM_007.jpg
1179.93	0.658	1	test	Phase2	test/STIM_007.jpg
1184.041	1.073	1	test	Phase2	test/STIM_007.jpg
1187.59	0.963	1	test	Phase2	test/STIM_008.jpg
1192.226	1.187	1	test	Phase2	test/STIM_008.jpg
1197.351	0.603	1	test	Phase2	test/STIM_008.jpg
1201.389	1.248	1	test	Phase2	test/STIM_009.jpg
1206.188	1.253	1	test	Phase2	test/STIM_009.jpg
1209.951	1.198	1	test	Phase2	test/STIM_009.jpg
1215.072	0.827	1	test	Phase2	test/STIM_010.jpg
1218.39	1.316	1	test	Phase2	test/STIM_010.jpg
1221.718	0.863	1	test	Phase2	test/STIM_010.jpg
1225.337	1.222	0	test	Phase2	test/STIM_011.jpg
1228.629	0.836	0	test	Phase2	test/STIM_011.jpg
1232.413	1.114	1	test	Phase2	test/STIM_011.jpg
1237.151	1.144	1	test	Phase2	test/STIM_012.jpg
1241.482	0.691	1	test	Phase2	test/STIM_012.jpg
1245.856	1.18	1	test	Phase2	test/STIM_012.jpg
1250.651	0.821	1	test	Phase2	test/STIM_013.jpg
1254.212	1.251	1	test	Phase2	test/STIM_013.jpg
1257.616	0.784	1	test	Phase2	test/STIM_013.jpg
1261.521	0.904	1	test	Phase2	test/STIM_014.jpg
1265.572	0.656	1	test	Phase2	test/STIM_014.jpg
1270.138	1.296	1	test	Phase2	test/STIM_014.jpg
1274.731	0.946	1	test	Phase2	test/STIM_015.jpg
1278.653	1.24	1	test	Phase2	test/STIM_015.jpg
1283.518	0.981	1	test	Phase2	test/STIM_015.jpg
1286.664	1.242	1	test	Phase2	test/STIM_016.jpg
1291.378	0.854	0	test	Phase2	test/STIM_016.jpg
1295.217	0.913	1	test	Phase2	test/STIM_016.jpg
1298.468	1.314	1	test	Phase2	test/STIM_017.jpg
1302.484	1.029	1	test	Phase2	test/STIM_017.jpg
1305.623	1.274	1	test	Phase2	test/STIM_017.jpg
1310.116	1.036	1	test	Phase2	test/STIM_018.jpg
1314.677	1.27	1	test	Phase2	test/STIM_018.jpg
1318.761	0.654	1	test	Phase2	test/STIM_018.jpg
1323.034	1.359	1	test	Phase2	test/STIM_019.jpg
1326.749	0.712	1	test	Phase2	test/STIM_019.jpg
1329.711	1.337	1	test	Phase2	test/STIM_019.jpg
1333.078	1.048	1	test	Phase2	test/STIM_020.jpg
1337.724	0.992	1	test	Phase2	test/STIM_020.jpg
1341.456	1.143	1	test	Phase2	test/STIM_020.jpg
1344.59	1.192	1	test	Phase2	test/STIM_021.jpg
1349.394	0.804	1	test	Phase2	test/STIM_021.jpg
1352.76	0.831	1	test	Phase2	test/STIM_021.jpg
1355.488	0.938	1	test	Phase2	test/STIM_022.jpg
1358.949	0.605	1	test	Phase2	test/STIM_022.jpg
1362.6	1.127	1	test	Phase2	test/STIM_022.jpg
1367.437	0.621	1	test	Phase2	test/STIM_023.jpg
1371.373	0.792	1	test	Phase2	test/STIM_023.jpg
1374.318	1.259	1	test	Phase2	test/STIM_023.jpg
1378.073	1.256	1	test	Phase2	test/STIM_024.jpg
1381.601	0.756	1	test	Phase2	test/STIM_024.jpg
1386.001	0.592	1	test	Phase2	test/STIM_024.jpg
1389.903	1.093	1	test	Phase2	test/STIM_025.jpg
1393.349	1.27	1	test	Phase2	test/STIM_025.jpg
1397.311	1.218	1	test	Phase2	test/STIM_025.jpg
1400.729	1.187	1	test	Phase2	test/STIM_026.jpg
1403.959	0.729	1	test	Phase2	test/STIM_026.jpg
1406.929	1.108	1	test	Phase2	test/STIM_026.jpg
1410.214	1.372	1	test	Phase2	test/STIM_027.jpg
1414.287	0.78	1	test	Phase2	test/STIM_027.jpg
1417.647	1.281	1	test	Phase2	test/STIM_027.jpg
1422.826	1.305	1	test	Phase2	test/STIM_028.jpg
1426.958	0.807	0	test	Phase2	test/STIM_028.jpg
1431.276	0.692	0	test	Phase2	test/STIM_028.jpg
1435.39	0.97	1	test	Phase2	test/STIM_029.jpg
1439.617	0.732	1	test	Phase2	test/STIM_029.jpg
1444.277	1.037	1	test	Phase2	test/STIM_029.jpg
1447.65	0.74	1	study	Phase3	study/STIM_000.jpg
1451.971	0.717	1	study	Phase3	study/STIM_000.jpg
1455.969	0.824	1	study	Phase3	study/STIM_000.jpg
1460.288	0.952	1	study	Phase3	study/STIM_001.jpg
1463.455	0.983	1	study	Phase3	study/STIM_001.jpg
1467.874	1.182	1	study	Phase3	study/STIM_001.jpg
1473.066	0.665	1	study	Phase3	study/STIM_002.jpg
1477.31	0.793	1	study	Phase3	study/STIM_002.jpg
1481.65	0.932	1	study	Phase3	study/STIM_002.jpg
1484.682	1.17	0	study	Phase3	study/STIM_003.jpg
1488.874	0.879	1	study	Phase3	study/STIM_003.jpg
1492.226	1.158	1	study	Phase3	study/STIM_003.jpg
1495.631	1.215	1	study	Phase3	study/STIM_004.jpg
1500.093	0.993	1	study	Phase3	study/STIM_004.jpg
1504.627	0.854	1	study	Phase3	study/STIM_004.jpg
1508.636	1.193	1	study	Phase3	study/STIM_005.jpg
1512.093	0.792	1	study	Phase3	study/STIM_005.jpg
1515.041	0.686	1	study	Phase3	study/STIM_005.jpg
1519.597	0.715	1	study	Phase3	study/STIM_006.jpg
1522.973	0.998	1	study	Phase3	study/STIM_006.jpg
1527.242	0.971	1	study	Phase3	study/STIM_006.jpg
1530.536	1.19	1	study	Phase3	study/STIM_007.jpg
1534.9	0.89	1	study	Phase3	study/STIM_007.jpg
1538.864	0.747	1	study	Phase3	study/STIM_007.jpg
1541.678	1.311	0	study	Phase3	study/STIM_008.jpg
1546.594	0.859	1	study	Phase3	study/STIM_008.jpg
1550.086	1.274	1	study	Phase3	study/STIM_008.jpg
1554.018	1.332	1	study	Phase3	study/STIM_009.jpg
1558.363	0.604	1	study	Phase3	study/STIM_009.jpg
1561.456	0.894	1	study	Phase3	study/STIM_009.jpg
1564.768	1.046	1	study	Phase3	study/STIM_010.jpg
1568.291	1.163	1	study	Phase3	study/STIM_010.jpg
1572.438	0.925	1	study	Phase3	study/STIM_010.jpg
1575.489	1.169	1	study	Phase3	study/STIM_011.jpg
1580.103	1.118	1	study	Phase3	study/STIM_011.jpg
1585.109	0.651	1	study	Phase3	study/STIM_011.jpg
1588.818	0.872	1	study	Phase3	study/STIM_012.jpg
1592.331	0.71	1	study	Phase3	study/STIM_012.jpg
1597.115	1.032	1	study	Phase3	study/STIM_012.jpg
1600.282	0.703	1	study	Phase3	study/STIM_013.jpg
1604.496	0.816	1	study	Phase3	study/STIM_013.jpg
1607.974	1.15	1	study	Phase3	study/STIM_013.jpg
1611.241	0.851	1	study	Phase3	study/STIM_014.jpg
1614.339	0.65	1	study	Phase3	study/STIM_014.jpg
1618.527	0.595	1	study	Phase3	study/STIM_014.jpg
1622.028	1.037	1	study	Phase3	study/STIM_015.jpg
1626.119	0.845	1	study	Phase3	study/STIM_015.jpg
1630.322	0.979	1	study	Phase3	study/STIM_015.jpg
1634.122	0.648	1	study	Phase3	study/STIM_016.jpg
1637.584	0.605	1	study	Phase3	study/STIM_016.jpg
1641.007	1.18	1	study	Phase3	study/STIM_016.jpg
1646.037	1.159	0	study	Phase3	study/STIM_017.jpg
1650.145	0.721	1	study	Phase3	study/STIM_017.jpg
1653.196	0.523	1	study	Phase3	study/STIM_017.jpg
1657.294	1.217	1	study	Phase3	study/STIM_018.jpg
1660.727	0.743	1	study	Phase3	study/STIM_018.jpg
1664.494	0.783	1	study	Phase3	study/STIM_018.jpg
1668.8	1.152	1	study	Phase3	study/STIM_019.jpg
1673.15	0.997	1	study	Phase3	study/STIM_019.jpg
1676.494	0.994	1	study	Phase3	study/STIM_019.jpg
1679.901	1.243	1	study	Phase3	study/STIM_020.jpg
1683.717	1.247	1	study	Phase3	study/STIM_020.jpg
1687.394	1.125	1	study	Phase3	study/STIM_020.jpg
1692.206	1.332	1	study	Phase3	study/STIM_021.jpg
1696.537	0.945	1	study	Phase3	study/STIM_021.jpg
1700.643	0.958	1	study	Phase3	study/STIM_021.jpg
1703.745	0.868	0	study	Phase3	study/STIM_022.jpg
1707.299	0.92	1	study	Phase3	study/STIM_022.jpg
1711.68	1.185	1	study	Phase3	study/STIM_022.jpg
1716.0	0.736	1	study	Phase3	study/STIM_023.jpg
1719.185	0.942	1	study	Phase3	study/STIM_023.jpg
1722.478	1.19	1	study	Phase3	study/STIM_023.jpg
1726.51	0.65	1	study	Phase3	study/STIM_024.jpg
1730.161	1.001	1	study	Phase3	study/STIM_024.jpg
1733.405	0.861	1	study	Phase3	study/STIM_024.jpg
1737.588	1.159	1	study	Phase3	study/STIM_025.jpg
1741.967	1.258	1	study	Phase3	study/STIM_025.jpg
1745.224	0.596	0	study	Phase3	study/STIM_025.jpg
1749.785	0.578	1	study	Phase3	study/STIM_026.jpg
1752.714	0.95	1	study	Phase3	study/STIM_026.jpg
1756.325	1.198	1	study	Phase3	study/STIM_026.jpg
1761.293	0.851	1	study	Phase3	study/STIM_027.jpg
1765.702	1.232	1	study	Phase3	study/STIM_027.jpg
1770.816	1.017	1	study	Phase3	study/STIM_027.jpg
1774.395	1.12	1	study	Phase3	study/STIM_028.jpg
1778.287	0.616	1	study	Phase3	study/STIM_028.jpg
1782.554	1.032	1	study	Phase3	study/STIM_028.jpg
1787.17	1.364	1	study	Phase3	study/STIM_029.jpg
1792.318	0.729	1	study	Phase3	study/STIM_029.jpg
1795.11	1.08	1	study	Phase3	study/STIM_029.jpg
1799.378	1.251	1	test	Phase3	test/STIM_000.jpg
1804.07	0.979	1	test	Phase3	test/STIM_000.jpg
1807.327	1.221	1	test	Phase3	test/STIM_000.jpg
1811.106	1.309	1	test	Phase3	test/STIM_001.jpg
1815.305	1.369	1	test	Phase3	test/STIM_001.jpg
1819.486	0.816	0	test	Phase3	test/STIM_001.jpg
1824.184	0.853	1	test	Phase3	test/STIM_002.jpg
1828.994	0.702	1	test	Phase3	test/STIM_002.jpg
1832.853	1.215	1	test	Phase3	test/STIM_002.jpg
1837.09	0.862	1	test	Phase3	test/STIM_003.jpg
1841.287	1.237	1	test	Phase3	test/STIM_003.jpg
1844.912	0.942	1	test	Phase3	test/STIM_003.jpg
1849.159	1.221	1	test	Phase3	test/STIM_004.jpg
1853.954	0.954	1	test	Phase3	test/STIM_004.jpg
1857.963	1.309	1	test	Phase3	test/STIM_004.jpg
1863.066	0.789	1	test	Phase3	test/STIM_005.jpg
1866.994	1.242	1	test	Phase3	test/STIM_005.jpg
1871.121	0.591	1	test	Phase3	test/STIM_005.jpg
1874.172	1.247	1	test	Phase3	test/STIM_006.jpg
1878.326	0.617	1	test	Phase3	test/STIM_006.jpg
1881.015	1.151	1	test	Phase3	test/STIM_006.jpg
1884.34	0.974	1	test	Phase3	test/STIM_007.jpg
1888.238	0.698	1	test	Phase3	test/STIM_007.jpg
1891.415	1.013	1	test	Phase3	test/STIM_007.jpg
1895.012	0.732	1	test	Phase3	test/STIM_008.jpg
1899.479	0.639	1	test	Phase3	test/STIM_008.jpg
1903.728	1.139	1	test	Phase3	test/STIM_008.jpg
1907.598	1.277	1	test	Phase3	test/STIM_009.jpg
1912.468	1.022	1	test	Phase3	test/STIM_009.jpg
1915.616	1.147	1	test	Phase3	test/STIM_009.jpg
1919.351	0.652	1	test	Phase3	test/STIM_010.jpg
1923.253	1.271	1	test	Phase3	test/STIM_010.jpg
1926.99	0.598	0	test	Phase3	test/STIM_010.jpg
1931.029	1.063	1	test	Phase3	test/STIM_011.jpg
1935.545	0.957	1	test	Phase3	test/STIM_011.jpg
1939.281	1.231	0	test	Phase3	test/STIM_011.jpg
1944.212	0.985	1	test	Phase3	test/STIM_012.jpg
1949.109	1.001	1	test	Phase3	test/STIM_012.jpg
1953.793	1.251	1	test	Phase3	test/STIM_012.jpg
1957.585	1.111	1	test	Phase3	test/STIM_013.jpg
1961.243	0.836	1	test	Phase3	test/STIM_013.jpg
1965.567	1.224	1	test	Phase3	test/STIM_013.jpg
1970.511	0.948	1	test	Phase3	test/STIM_014.jpg
1974.634	1.02	1	test	Phase3	test/STIM_014.jpg
1978.947	1.184	1	test	Phase3	test/STIM_014.jpg
1982.851	1.082	1	test	Phase3	test/STIM_015.jpg
1986.591	1.25	1	test	Phase3	test/STIM_015.jpg
1991.088	0.973	1	test	Phase3	test/STIM_015.jpg
1995.111	1.322	1	test	Phase3	test/STIM_016.jpg
1998.94	0.894	1	test	Phase3	test/STIM_016.jpg
2003.062	0.731	1	test	Phase3	test/STIM_016.jpg
2006.246	0.613	1	test	Phase3	test/STIM_017.jpg
2009.332	1.112	1	test	Phase3	test/STIM_017.jpg
2013.629	0.763	1	test	Phase3	test/STIM_017.jpg
2016.544	1.176	1	test	Phase3	test/STIM_018.jpg
2021.423	0.768	1	test	Phase3	test/STIM_018.jpg
2024.711	1.065	1	test	Phase3	test/STIM_018.jpg
2027.988	0.721	1	test	Phase3	test/STIM_019.jpg
2031.356	0.705	1	test	Phase3	test/STIM_019.jpg
2035.192	0.891	1	test	Phase3	test/STIM_019.jpg
2038.589	1.228	1	test	Phase3	test/STIM_020.jpg
2042.843	0.875	1	test	Phase3	test/STIM_020.jpg
2046.576	0.967	0	test	Phase3	test/STIM_020.jpg
2051.139	1.152	1	test	Phase3	test/STIM_021.jpg
2054.739	0.848	1	test	Phase3	test/STIM_021.jpg
2059.361	0.717	1	test	Phase3	test/STIM_021.jpg
2063.568	0.892	1	test	Phase3	test/STIM_022.jpg
2068.222	1.319	0	test	Phase3	test/STIM_022.jpg
2071.965	1.12	1	test	Phase3	test/STIM_022.jpg
2075.321	1.135	1	test	Phase3	test/STIM_023.jpg
2078.834	0.587	1	test	Phase3	test/STIM_023.jpg
2082.08	0.83	1	test	Phase3	test/STIM_023.jpg
2085.958	1.211	1	test	Phase3	test/STIM_024.jpg
2090.728	0.666	1	test	Phase3	test/STIM_024.jpg
2094.139	1.064	1	test	Phase3	test/STIM_024.jpg
2098.812	0.763	1	test	Phase3	test/STIM_025.jpg
2102.27	1.109	1	test	Phase3	test/STIM_025.jpg
2105.346	1.296	1	test	Phase3	test/STIM_025.jpg
2108.893	1.282	1	test	Phase3	test/STIM_026.jpg
2113.29	1.132	1	test	Phase3	test/STIM_026.jpg
2116.88	1.19	1	test	Phase3	test/STIM_026.jpg
2120.415	1.06	1	test	Phase3	test/STIM_027.jpg
2124.63	0.84	1	test	Phase3	test/STIM_027.jpg
2129.391	1.128	1	test	Phase3	test/STIM_027.jpg
2134.202	0.757	1	test	Phase3	test/STIM_028.jpg
2138.627	1.191	1	test	Phase3	test/STIM_028.jpg
2141.926	1.207	1	test	Phase3	test/STIM_028.jpg
2146.968	1.007	1	test	Phase3	test/STIM_029.jpg
2150.58	1.291	0	test	Phase3	test/STIM_029.jpg
2154.942	0.804	1	test	Phase3	test/STIM_029.jpg
