onset	duration	response_time_ms	trial_type	learning_stage	stimulus	response_port
0.0	1.104	1104.1	2back	Block1	2back/STIM_000.jpg	100
4.363	0.708	708.4	2back	Block1	2back/STIM_000.jpg	99
8.079	0.46	459.5	2back	Block1	2back/STIM_000.jpg	100
11.856	0.91	909.6	2back	Block1	2back/STIM_001.jpg	100
15.393	1.1	1099.6	2back	Block1	2back/STIM_001.jpg	100
19.846	0.709	708.7	2back	Block1	2back/STIM_001.jpg	99
23.461	0.722	721.6	2back	Block1	2back/STIM_002.jpg	100
26.594	0.752	751.6	2back	Block1	2back/STIM_002.jpg	100
30.87	1.037	1037.2	2back	Block1	2back/STIM_002.jpg	100
35.174	0.815	814.9	2back	Block1	2back/STIM_003.jpg	99
39.587	0.616	615.8	2back	Block1	2back/STIM_003.jpg	100
43.42	1.046	1046.5	2back	Block1	2back/STIM_003.jpg	100
47.954	1.235	1234.6	2back	Block1	2back/STIM_004.jpg	99
51.484	1.153	1153.2	2back	Block1	2back/STIM_004.jpg	99
55.94	0.98	980.0	2back	Block1	2back/STIM_004.jpg	99
60.158	1.143	1143.4	2back	Block1	2back/STIM_005.jpg	99
64.865	0.804	804.0	2back	Block1	2back/STIM_005.jpg	100
68.636	1.038	1037.8	2back	Block1	2back/STIM_005.jpg	99
73.166	0.636	636.4	2back	Block1	2back/STIM_006.jpg	100
77.161	0.93	929.7	2back	Block1	2back/STIM_006.jpg	100
80.273	1.016	1016.0	2back	Block1	2back/STIM_006.jpg	100
84.372	1.273	1272.9	2back	Block1	2back/STIM_007.jpg	99
87.771	1.092	1091.7	2back	Block1	2back/STIM_007.jpg	100
91.297	0.839	839.1	2back	Block1	2back/STIM_007.jpg	99
95.894	1.058	1058.2	2back	Block1	2back/STIM_008.jpg	99
99.643	1.043	1043.3	2back	Block1	2back/STIM_008.jpg	100
103.637	0.912	912.5	2back	Block1	2back/STIM_008.jpg	100
107.459	1.018	1018.1	2back	Block1	2back/STIM_009.jpg	99
112.458	0.751	751.3	2back	Block1	2back/STIM_009.jpg	99
116.222	0.46	459.9	2back	Block1	2back/STIM_009.jpg	100
120.695	0.623	623.2	2back	Block1	2back/STIM_010.jpg	100
124.447	0.863	863.2	2back	Block1	2back/STIM_010.jpg	99
128.003	0.766	765.8	2back	Block1	2back/STIM_010.jpg	100
131.417	0.766	766.3	2back	Block1	2back/STIM_011.jpg	100
134.551	0.751	751.1	2back	Block1	2back/STIM_011.jpg	100
137.931	0.688	687.9	2back	Block1	2back/STIM_011.jpg	100
141.949	1.214	1214.4	2back	Block1	2back/STIM_012.jpg	99
145.42	0.679	679.0	2back	Block1	2back/STIM_012.jpg	99
150.024	0.798	798.4	2back	Block1	2back/STIM_012.jpg	100
154.284	0.999	998.6	2back	Block1	2back/STIM_013.jpg	99
159.167	1.174	1174.2	2back	Block1	2back/STIM_013.jpg	99
164.095	0.994	993.8	2back	Block1	2back/STIM_013.jpg	99
168.163	0.697	697.2	2back	Block1	2back/STIM_014.jpg	99
172.615	1.1	1099.7	2back	Block1	2back/STIM_014.jpg	100
177.062	0.62	620.3	2back	Block1	2back/STIM_014.jpg	100
180.18	0.722	722.5	2back	Block1	2back/STIM_015.jpg	99
183.742	0.63	630.0	2back	Block1	2back/STIM_015.jpg	99
188.189	1.143	1143.1	2back	Block1	2back/STIM_015.jpg	99
192.553	0.639	639.3	2back	Block1	2back/STIM_016.jpg	99
195.358	1.004	1004.5	2back	Block1	2back/STIM_016.jpg	100
199.549	0.518	517.5	2back	Block1	2back/STIM_016.jpg	100
203.938	0.746	746.5	2back	Block1	2back/STIM_017.jpg	100
207.186	0.773	772.7	2back	Block1	2back/STIM_017.jpg	100
210.603	0.774	774.1	2back	Block1	2back/STIM_017.jpg	100
214.633	0.758	757.9	2back	Block1	2back/STIM_018.jpg	100
218.081	0.5	500.5	2back	Block1	2back/STIM_018.jpg	100
222.344	0.732	732.5	2back	Block1	2back/STIM_018.jpg	100
226.91	0.532	532.5	2back	Block1	2back/STIM_019.jpg	100
230.804	0.821	820.8	2back	Block1	2back/STIM_019.jpg	100
235.315	0.54	540.4	2back	Block1	2back/STIM_019.jpg	100
239.852	0.696	695.8	2back	Block1	2back/STIM_020.jpg	100
243.403	0.831	831.4	2back	Block1	2back/STIM_020.jpg	100
246.878	0.589	589.0	2back	Block1	2back/STIM_020.jpg	99
249.568	1.206	1206.3	2back	Block1	2back/STIM_021.jpg	100
253.68	0.758	757.9	2back	Block1	2back/STIM_021.jpg	99
258.511	0.972	971.9	2back	Block1	2back/STIM_021.jpg	99
262.079	0.789	789.0	2back	Block1	2back/STIM_022.jpg	99
266.476	0.894	893.6	2back	Block1	2back/STIM_022.jpg	99
271.425	0.837	836.9	2back	Block1	2back/STIM_022.jpg	99
275.838	0.673	673.4	2back	Block1	2back/STIM_023.jpg	99
279.093	0.542	542.3	2back	Block1	2back/STIM_023.jpg	100
282.92	0.704	703.9	2back	Block1	2back/STIM_023.jpg	100
287.253	0.611	611.2	2back	Block1	2back/STIM_024.jpg	99
290.68	0.777	777.3	2back	Block1	2back/STIM_024.jpg	99
295.338	0.463	463.3	2back	Block1	2back/STIM_024.jpg	99
299.5	0.514	514.3	2back	Block1	2back/STIM_025.jpg	100
303.495	1.135	1135.1	2back	Block1	2back/STIM_025.jpg	100
307.28	0.582	582.1	2back	Block1	2back/STIM_025.jpg	99
311.274	1.133	1133.3	2back	Block1	2back/STIM_026.jpg	100
314.508	1.05	1049.9	2back	Block1	2back/STIM_026.jpg	100
318.902	1.057	1057.4	2back	Block1	2back/STIM_026.jpg	100
323.45	1.044	1044.3	2back	Block1	2back/STIM_027.jpg	99
328.361	0.803	803.4	2back	Block1	2back/STIM_027.jpg	100
332.834	0.99	989.5	2back	Block1	2back/STIM_027.jpg	100
336.191	0.686	685.7	2back	Block1	2back/STIM_028.jpg	100
339.024	0.603	603.0	2back	Block1	2back/STIM_028.jpg	99
342.638	1.002	1001.8	2back	Block1	2back/STIM_028.jpg	99
346.053	1.177	1176.7	2back	Block1	2back/STIM_029.jpg	100
349.964	0.657	656.7	2back	Block1	2back/STIM_029.jpg	100
353.535	1.053	1052.9	2back	Block1	2back/STIM_029.jpg	100
357.119	0.649	649.0	2back	Block1	2back/STIM_030.jpg	100
360.649	1.084	1083.7	2back	Block1	2back/STIM_030.jpg	99
364.171	0.662	662.1	2back	Block1	2back/STIM_030.jpg	100
368.497	1.186	1186.0	2back	Block1	2back/STIM_031.jpg	100
373.361	0.813	812.7	2back	Block1	2back/STIM_031.jpg	99
377.956	0.951	951.1	2back	Block1	2back/STIM_031.jpg	100
382.171	0.569	569.2	2back	Block1	2back/STIM_032.jpg	100
386.744	0.957	956.6	2back	Block1	2back/STIM_032.jpg	100
390.845	0.974	974.4	2back	Block1	2back/STIM_032.jpg	100
395.21	1.053	1052.7	2back	Block1	2back/STIM_033.jpg	99
398.958	1.166	1166.2	2back	Block1	2back/STIM_033.jpg	99
403.187	0.508	507.6	2back	Block1	2back/STIM_033.jpg	99
406.315	0.772	772.4	2back	Block1	2back/STIM_034.jpg	100
410.456	0.759	758.9	2back	Block1	2back/STIM_034.jpg	99
413.95	0.935	935.3	2back	Block1	2back/STIM_034.jpg	100
418.05	1.062	1062.4	2back	Block1	2back/STIM_035.jpg	100
422.93	1.009	1009.1	2back	Block1	2back/STIM_035.jpg	100
427.947	0.714	714.2	2back	Block1	2back/STIM_035.jpg	100
432.675	0.973	972.7	2back	Block1	2back/STIM_036.jpg	100
436.76	1.144	1144.3	2back	Block1	2back/STIM_036.jpg	100
440.258	0.587	587.4	2back	Block1	2back/STIM_036.jpg	99
443.072	0.843	842.6	2back	Block1	2back/STIM_037.jpg	99
445.924	0.89	889.5	2back	Block1	2back/STIM_037.jpg	100
450.008	0.482	482.3	2back	Block1	2back/STIM_037.jpg	100
453.919	0.737	736.9	2back	Block1	2back/STIM_038.jpg	99
456.913	1.013	1013.1	2back	Block1	2back/STIM_038.jpg	100
461.637	0.843	842.8	2back	Block1	2back/STIM_038.jpg	100
464.603	0.601	600.8	2back	Block1	2back/STIM_039.jpg	99
468.017	0.735	734.6	2back	Block1	2back/STIM_039.jpg	99
471.497	0.904	903.5	2back	Block1	2back/STIM_039.jpg	99
475.827	0.394	393.5	0back	Block1	0back/STIM_000.jpg	100
478.629	0.631	630.9	0back	Block1	0back/STIM_000.jpg	99
483.255	0.59	590.0	0back	Block1	0back/STIM_000.jpg	99
486.555	0.395	394.9	0back	Block1	0back/STIM_001.jpg	100
489.227	0.63	629.8	0back	Block1	0back/STIM_001.jpg	99
493.314	0.484	484.0	0back	Block1	0back/STIM_001.jpg	99
496.641	0.644	644.3	0back	Block1	0back/STIM_002.jpg	100
500.717	0.409	408.7	0back	Block1	0back/STIM_002.jpg	99
504.791	0.655	655.0	0back	Block1	0back/STIM_002.jpg	99
509.418	0.618	618.3	0back	Block1	0back/STIM_003.jpg	99
513.054	0.398	398.5	0back	Block1	0back/STIM_003.jpg	99
516.547	0.419	419.3	0back	Block1	0back/STIM_003.jpg	100
520.013	0.516	515.5	0back	Block1	0back/STIM_004.jpg	99
523.345	0.535	534.9	0back	Block1	0back/STIM_004.jpg	99
526.647	0.686	686.0	0back	Block1	0back/STIM_004.jpg	99
530.995	0.536	536.5	0back	Block1	0back/STIM_005.jpg	100
533.845	0.418	417.9	0back	Block1	0back/STIM_005.jpg	99
537.058	0.459	459.3	0back	Block1	0back/STIM_005.jpg	100
539.649	0.608	608.2	0back	Block1	0back/STIM_006.jpg	99
544.188	0.602	602.2	0back	Block1	0back/STIM_006.jpg	100
547.829	0.437	437.2	0back	Block1	0back/STIM_006.jpg	99
551.393	0.535	535.0	0back	Block1	0back/STIM_007.jpg	100
554.537	0.37	370.0	0back	Block1	0back/STIM_007.jpg	99
558.771	0.584	584.4	0back	Block1	0back/STIM_007.jpg	100
562.134	0.714	713.8	0back	Block1	0back/STIM_008.jpg	100
565.497	0.396	396.3	0back	Block1	0back/STIM_008.jpg	99
569.531	0.722	722.0	0back	Block1	0back/STIM_008.jpg	100
574.017	0.719	718.7	0back	Block1	0back/STIM_009.jpg	99
577.717	0.482	482.2	0back	Block1	0back/STIM_009.jpg	100
581.451	0.736	735.8	0back	Block1	0back/STIM_009.jpg	99
585.511	0.611	610.8	0back	Block1	0back/STIM_010.jpg	100
588.237	0.481	480.8	0back	Block1	0back/STIM_010.jpg	100
592.274	0.411	411.0	0back	Block1	0back/STIM_010.jpg	100
596.527	0.394	394.2	0back	Block1	0back/STIM_011.jpg	99
599.671	0.592	591.5	0back	Block1	0back/STIM_011.jpg	100
603.153	0.683	682.9	0back	Block1	0back/STIM_011.jpg	100
607.596	0.436	436.2	0back	Block1	0back/STIM_012.jpg	99
610.637	0.49	489.5	0back	Block1	0back/STIM_012.jpg	99
614.826	0.727	727.4	0back	Block1	0back/STIM_012.jpg	99
618.542	0.67	669.9	0back	Block1	0back/STIM_013.jpg	99
622.999	0.348	348.2	0back	Block1	0back/STIM_013.jpg	99
627.013	0.613	612.9	0back	Block1	0back/STIM_013.jpg	100
631.159	0.389	389.2	0back	Block1	0back/STIM_014.jpg	99
634.027	0.412	412.4	0back	Block1	0back/STIM_014.jpg	99
637.193	0.404	403.9	0back	Block1	0back/STIM_014.jpg	99
640.185	0.742	741.6	0back	Block1	0back/STIM_015.jpg	99
643.075	0.426	425.7	0back	Block1	0back/STIM_015.jpg	100
647.434	0.401	400.6	0back	Block1	0back/STIM_015.jpg	99
651.039	0.547	547.1	0back	Block1	0back/STIM_016.jpg	100
655.286	0.7	699.7	0back	Block1	0back/STIM_016.jpg	100
658.978	0.712	712.4	0back	Block1	0back/STIM_016.jpg	99
662.919	0.663	662.6	0back	Block1	0back/STIM_017.jpg	99
667.567	0.542	541.7	0back	Block1	0back/STIM_017.jpg	100
671.085	0.492	491.6	0back	Block1	0back/STIM_017.jpg	99
674.155	0.509	509.2	0back	Block1	0back/STIM_018.jpg	99
678.341	0.449	448.7	0back	Block1	0back/STIM_018.jpg	100
681.362	0.474	474.3	0back	Block1	0back/STIM_018.jpg	100
685.079	0.496	495.9	0back	Block1	0back/STIM_019.jpg	99
688.247	0.711	711.1	0back	Block1	0back/STIM_019.jpg	100
692.08	0.482	482.3	0back	Block1	0back/STIM_019.jpg	99
694.761	0.777	777.2	2back	Block2	2back/STIM_000.jpg	100
698.754	0.996	996.2	2back	Block2	2back/STIM_000.jpg	99
702.118	0.612	612.1	2back	Block2	2back/STIM_000.jpg	100
705.189	1.022	1022.5	2back	Block2	2back/STIM_001.jpg	100
709.406	0.856	856.1	2back	Block2	2back/STIM_001.jpg	100
713.759	0.487	486.7	2back	Block2	2back/STIM_001.jpg	99
716.579	0.852	852.1	2back	Block2	2back/STIM_002.jpg	99
720.911	0.892	892.2	2back	Block2	2back/STIM_002.jpg	100
724.38	0.503	502.7	2back	Block2	2back/STIM_002.jpg	99
728.522	0.759	758.6	2back	Block2	2back/STIM_003.jpg	99
731.536	0.538	538.5	2back	Block2	2back/STIM_003.jpg	100
736.118	0.867	867.4	2back	Block2	2back/STIM_003.jpg	99
739.755	0.698	697.7	2back	Block2	2back/STIM_004.jpg	99
743.935	0.53	530.0	2back	Block2	2back/STIM_004.jpg	100
748.02	0.635	635.0	2back	Block2	2back/STIM_004.jpg	100
751.433	1.076	1076.4	2back	Block2	2back/STIM_005.jpg	99
755.982	0.79	789.5	2back	Block2	2back/STIM_005.jpg	100
759.959	0.918	917.9	2back	Block2	2back/STIM_005.jpg	99
763.655	0.637	636.7	2back	Block2	2back/STIM_006.jpg	100
767.342	0.825	825.2	2back	Block2	2back/STIM_006.jpg	100
771.368	0.613	612.6	2back	Block2	2back/STIM_006.jpg	99
773.958	0.721	720.8	2back	Block2	2back/STIM_007.jpg	99
777.342	0.495	494.6	2back	Block2	2back/STIM_007.jpg	100
780.627	0.464	463.6	2back	Block2	2back/STIM_007.jpg	99
783.716	0.75	749.5	2back	Block2	2back/STIM_008.jpg	100
786.853	0.886	885.8	2back	Block2	2back/STIM_008.jpg	100
791.346	0.355	355.3	2back	Block2	2back/STIM_008.jpg	99
794.536	0.711	711.1	2back	Block2	2back/STIM_009.jpg	99
797.933	0.63	630.3	2back	Block2	2back/STIM_009.jpg	99
802.529	0.798	797.8	2back	Block2	2back/STIM_009.jpg	100
805.541	0.984	983.8	2back	Block2	2back/STIM_010.jpg	99
808.648	0.614	613.6	2back	Block2	2back/STIM_010.jpg	99
812.514	0.858	858.4	2back	Block2	2back/STIM_010.jpg	99
815.677	1.009	1009.3	2back	Block2	2back/STIM_011.jpg	100
819.689	0.672	672.1	2back	Block2	2back/STIM_011.jpg	99
822.788	0.856	856.1	2back	Block2	2back/STIM_011.jpg	100
826.469	0.935	935.2	2back	Block2	2back/STIM_012.jpg	100
829.564	0.764	763.8	2back	Block2	2back/STIM_012.jpg	99
833.428	0.627	626.8	2back	Block2	2back/STIM_012.jpg	100
836.99	1.098	1098.4	2back	Block2	2back/STIM_013.jpg	100
840.275	0.795	794.7	2back	Block2	2back/STIM_013.jpg	100
844.11	0.75	750.4	2back	Block2	2back/STIM_013.jpg	99
848.659	0.712	712.3	2back	Block2	2back/STIM_014.jpg	99
852.948	0.707	706.7	2back	Block2	2back/STIM_014.jpg	100
856.991	0.561	561.1	2back	Block2	2back/STIM_014.jpg	100
860.443	0.634	634.0	2back	Block2	2back/STIM_015.jpg	100
864.767	0.749	748.8	2back	Block2	2back/STIM_015.jpg	100
867.594	0.81	810.1	2back	Block2	2back/STIM_015.jpg	99
871.855	0.453	452.8	2back	Block2	2back/STIM_016.jpg	100
874.819	0.729	728.9	2back	Block2	2back/STIM_016.jpg	99
879.116	0.839	838.9	2back	Block2	2back/STIM_016.jpg	100
882.541	0.938	938.2	2back	Block2	2back/STIM_017.jpg	100
887.303	0.441	441.1	2back	Block2	2back/STIM_017.jpg	100
891.64	0.458	458.5	2back	Block2	2back/STIM_017.jpg	99
895.853	0.596	595.6	2back	Block2	2back/STIM_018.jpg	99
899.108	0.841	841.4	2back	Block2	2back/STIM_018.jpg	100
904.022	0.974	973.7	2back	Block2	2back/STIM_018.jpg	100
908.478	0.461	461.2	2back	Block2	2back/STIM_019.jpg	99
912.996	0.56	560.5	2back	Block2	2back/STIM_019.jpg	99
915.801	0.56	560.3	2back	Block2	2back/STIM_019.jpg	99
919.383	0.547	546.9	2back	Block2	2back/STIM_020.jpg	99
921.967	0.388	387.6	2back	Block2	2back/STIM_020.jpg	99
925.033	0.689	688.6	2back	Block2	2back/STIM_020.jpg	99
928.874	0.521	521.3	2back	Block2	2back/STIM_021.jpg	100
933.259	0.934	933.5	2back	Block2	2back/STIM_021.jpg	99
937.768	0.991	990.8	2back	Block2	2back/STIM_021.jpg	100
941.343	0.472	472.4	2back	Block2	2back/STIM_022.jpg	100
945.343	0.554	554.3	2back	Block2	2back/STIM_022.jpg	99
948.405	0.724	724.1	2back	Block2	2back/STIM_022.jpg	100
951.978	0.837	837.4	2back	Block2	2back/STIM_023.jpg	100
955.936	0.773	772.7	2back	Block2	2back/STIM_023.jpg	100
958.796	0.652	651.7	2back	Block2	2back/STIM_023.jpg	100
962.983	1.002	1001.7	2back	Block2	2back/STIM_024.jpg	100
966.86	0.566	565.5	2back	Block2	2back/STIM_024.jpg	99
970.816	0.402	401.8	2back	Block2	2back/STIM_024.jpg	99
973.369	0.517	517.1	2back	Block2	2back/STIM_025.jpg	100
977.155	0.538	538.1	2back	Block2	2back/STIM_025.jpg	100
980.874	0.705	705.4	2back	Block2	2back/STIM_025.jpg	99
984.87	1.026	1025.9	2back	Block2	2back/STIM_026.jpg	100
988.4	0.707	706.8	2back	Block2	2back/STIM_026.jpg	100
992.667	0.664	663.8	2back	Block2	2back/STIM_026.jpg	99
995.918	0.678	677.7	2back	Block2	2back/STIM_027.jpg	99
998.79	0.834	834.2	2back	Block2	2back/STIM_027.jpg	100
1003.003	0.821	820.9	2back	Block2	2back/STIM_027.jpg	100
1006.531	0.917	917.2	2back	Block2	2back/STIM_028.jpg	99
1010.914	0.86	860.4	2back	Block2	2back/STIM_028.jpg	99
1014.185	0.69	690.0	2back	Block2	2back/STIM_028.jpg	100
1018.775	0.925	924.6	2back	Block2	2back/STIM_029.jpg	99
1023.708	0.97	970.4	2back	Block2	2back/STIM_029.jpg	99
1027.811	0.405	405.0	2back	Block2	2back/STIM_029.jpg	100
1030.592	0.792	791.9	2back	Block2	2back/STIM_030.jpg	99
1034.171	0.527	526.7	2back	Block2	2back/STIM_030.jpg	99
1037.515	0.521	520.8	2back	Block2	2back/STIM_030.jpg	99
1040.984	0.635	635.3	2back	Block2	2back/STIM_031.jpg	100
1045.25	0.754	753.5	2back	Block2	2back/STIM_031.jpg	99
1049.162	0.91	910.2	2back	Block2	2back/STIM_031.jpg	99
1054.093	0.885	884.7	2back	Block2	2back/STIM_032.jpg	100
1057.126	0.732	732.3	2back	Block2	2back/STIM_032.jpg	100
1061.421	0.844	843.6	2back	Block2	2back/STIM_032.jpg	100
1065.99	1.029	1028.8	2back	Block2	2back/STIM_033.jpg	100
1070.37	0.862	861.5	2back	Block2	2back/STIM_033.jpg	99
1073.421	0.724	723.8	2back	Block2	2back/STIM_033.jpg	99
1077.124	0.589	589.0	2back	Block2	2back/STIM_034.jpg	99
1081.551	0.881	880.7	2back	Block2	2back/STIM_034.jpg	99
1086.105	0.449	449.1	2back	Block2	2back/STIM_034.jpg	99
1089.657	0.963	962.6	2back	Block2	2back/STIM_035.jpg	99
1093.833	0.94	939.9	2back	Block2	2back/STIM_035.jpg	99
1097.828	0.629	628.7	2back	Block2	2back/STIM_035.jpg	99
1101.992	0.766	765.5	2back	Block2	2back/STIM_036.jpg	100
1105.168	0.528	527.6	2back	Block2	2back/STIM_036.jpg	99
1108.511	0.444	444.3	2back	Block2	2back/STIM_036.jpg	100
1111.626	0.974	974.3	2back	Block2	2back/STIM_037.jpg	99
1115.308	0.888	888.0	2back	Block2	2back/STIM_037.jpg	100
1119.863	0.554	554.1	2back	Block2	2back/STIM_037.jpg	100
1122.74	0.459	458.7	2back	Block2	2back/STIM_038.jpg	99
1126.46	0.996	996.0	2back	Block2	2back/STIM_038.jpg	100
1129.796	0.449	448.9	2back	Block2	2back/STIM_038.jpg	100
1133.617	0.822	821.7	2back	Block2	2back/STIM_039.jpg	100
1137.558	0.515	515.0	2back	Block2	2back/STIM_039.jpg	100
1141.817	0.755	755.1	2back	Block2	2back/STIM_039.jpg	99
1145.866	0.681	681.2	0back	Block2	0back/STIM_000.jpg	99
1148.686	0.347	347.4	0back	Block2	0back/STIM_000.jpg	100
1151.276	0.67	670.2	0back	Block2	0back/STIM_000.jpg	99
1154.987	0.597	596.8	0back	Block2	0back/STIM_001.jpg	99
1159.082	0.364	363.9	0back	Block2	0back/STIM_001.jpg	100
1162.146	0.502	502.5	0back	Block2	0back/STIM_001.jpg	99
1165.626	0.394	393.5	0back	Block2	0back/STIM_002.jpg	99
1168.527	0.498	497.5	0back	Block2	0back/STIM_002.jpg	100
1172.864	0.485	484.7	0back	Block2	0back/STIM_002.jpg	100
1176.234	0.581	581.4	0back	Block2	0back/STIM_003.jpg	100
1179.608	0.424	424.5	0back	Block2	0back/STIM_003.jpg	99
1182.903	0.642	641.8	0back	Block2	0back/STIM_003.jpg	99
1187.076	0.596	596.0	0back	Block2	0back/STIM_004.jpg	100
1190.727	0.618	617.8	0back	Block2	0back/STIM_004.jpg	99
1195.335	0.74	739.8	0back	Block2	0back/STIM_004.jpg	99
1199.117	0.496	496.1	0back	Block2	0back/STIM_005.jpg	100
1203.573	0.485	485.0	0back	Block2	0back/STIM_005.jpg	99
1207.233	0.614	614.2	0back	Block2	0back/STIM_005.jpg	100
1211.711	0.406	406.5	0back	Block2	0back/STIM_006.jpg	99
1214.822	0.567	567.3	0back	Block2	0back/STIM_006.jpg	99
1219.059	0.448	448.2	0back	Block2	0back/STIM_006.jpg	99
1222.51	0.494	494.3	0back	Block2	0back/STIM_007.jpg	100
1225.787	0.467	467.4	0back	Block2	0back/STIM_007.jpg	100
1229.623	0.526	525.9	0back	Block2	0back/STIM_007.jpg	99
1232.474	0.516	515.8	0back	Block2	0back/STIM_008.jpg	99
1235.061	0.492	491.9	0back	Block2	0back/STIM_008.jpg	99
1239.608	0.589	589.0	0back	Block2	0back/STIM_008.jpg	100
1243.002	0.623	623.1	0back	Block2	0back/STIM_009.jpg	100
1246.095	0.565	564.7	0back	Block2	0back/STIM_009.jpg	100
1249.49	0.586	586.5	0back	Block2	0back/STIM_009.jpg	100
1253.887	0.419	419.1	0back	Block2	0back/STIM_010.jpg	100
1258.229	0.726	726.2	0back	Block2	0back/STIM_010.jpg	100
1262.868	0.448	448.5	0back	Block2	0back/STIM_010.jpg	99
1267.073	0.354	353.9	0back	Block2	0back/STIM_011.jpg	99
1270.647	0.486	485.7	0back	Block2	0back/STIM_011.jpg	99
1274.647	0.535	534.6	0back	Block2	0back/STIM_011.jpg	99
1278.637	0.383	383.1	0back	Block2	0back/STIM_012.jpg	99
1282.316	0.527	527.1	0back	Block2	0back/STIM_012.jpg	100
1285.631	0.295	295.2	0back	Block2	0back/STIM_012.jpg	99
1288.165	0.273	273.0	0back	Block2	0back/STIM_013.jpg	100
1291.555	0.613	613.0	0back	Block2	0back/STIM_013.jpg	100
1294.657	0.468	468.5	0back	Block2	0back/STIM_013.jpg	100
1299.089	0.528	528.1	0back	Block2	0back/STIM_014.jpg	100
1303.157	0.651	650.9	0back	Block2	0back/STIM_014.jpg	99
1307.046	0.582	581.9	0back	Block2	0back/STIM_014.jpg	100
1310.659	0.625	624.8	0back	Block2	0back/STIM_015.jpg	99
1313.852	0.517	516.8	0back	Block2	0back/STIM_015.jpg	100
1318.058	0.699	698.6	0back	Block2	0back/STIM_015.jpg	100
1321.764	0.451	451.1	0back	Block2	0back/STIM_016.jpg	99
1324.347	0.439	438.8	0back	Block2	0back/STIM_016.jpg	100
1328.599	0.434	433.6	0back	Block2	0back/STIM_016.jpg	100
1331.853	0.595	594.7	0back	Block2	0back/STIM_017.jpg	100
1336.274	0.378	378.3	0back	Block2	0back/STIM_017.jpg	99
1338.75	0.661	661.4	0back	Block2	0back/STIM_017.jpg	100
1343.179	0.596	595.8	0back	Block2	0back/STIM_018.jpg	100
1346.111	0.516	516.0	0back	Block2	0back/STIM_018.jpg	99
1349.113	0.476	476.2	0back	Block2	0back/STIM_018.jpg	99
1352.463	0.41	410.4	0back	Block2	0back/STIM_019.jpg	99
1356.522	0.554	553.8	0back	Block2	0back/STIM_019.jpg	100
1360.361	0.419	418.7	0back	Block2	0back/STIM_019.jpg	99
1364.179	0.492	492.0	2back	Block3	2back/STIM_000.jpg	100
1368.042	0.717	717.2	2back	Block3	2back/STIM_000.jpg	100
1372.324	0.724	723.5	2back	Block3	2back/STIM_000.jpg	99
1375.442	0.593	592.7	2back	Block3	2back/STIM_001.jpg	100
1379.269	0.766	765.5	2back	Block3	2back/STIM_001.jpg	99
1382.6	0.713	713.4	2back	Block3	2back/STIM_001.jpg	99
1386.963	0.824	824.2	2back	Block3	2back/STIM_002.jpg	100
1391.374	0.586	586.4	2back	Block3	2back/STIM_002.jpg	100
1394.739	0.888	888.3	2back	Block3	2back/STIM_002.jpg	100
1397.678	0.603	603.4	2back	Block3	2back/STIM_003.jpg	99
1401.083	0.9	900.5	2back	Block3	2back/STIM_003.jpg	100
1405.894	0.671	670.9	2back	Block3	2back/STIM_003.jpg	100
1410.439	0.499	499.0	2back	Block3	2back/STIM_004.jpg	100
1414.828	0.773	773.3	2back	Block3	2back/STIM_004.jpg	99
1418.115	0.447	446.7	2back	Block3	2back/STIM_004.jpg	99
1421.259	0.45	450.5	2back	Block3	2back/STIM_005.jpg	100
1423.91	0.789	788.7	2back	Block3	2back/STIM_005.jpg	99
1427.914	0.73	729.5	2back	Block3	2back/STIM_005.jpg	99
1431.46	0.52	520.0	2back	Block3	2back/STIM_006.jpg	99
1435.833	0.835	834.6	2back	Block3	2back/STIM_006.jpg	100
1440.017	0.705	704.9	2back	Block3	2back/STIM_006.jpg	100
1443.171	0.642	642.1	2back	Block3	2back/STIM_007.jpg	99
1447.77	0.756	756.1	2back	Block3	2back/STIM_007.jpg	100
1451.253	0.445	444.7	2back	Block3	2back/STIM_007.jpg	100
1454.132	0.66	660.4	2back	Block3	2back/STIM_008.jpg	99
1457.769	0.62	620.5	2back	Block3	2back/STIM_008.jpg	100
1461.33	0.438	438.4	2back	Block3	2back/STIM_008.jpg	99
1464.905	0.84	840.4	2back	Block3	2back/STIM_009.jpg	100
1468.463	0.645	645.3	2back	Block3	2back/STIM_009.jpg	99
1472.465	0.754	754.0	2back	Block3	2back/STIM_009.jpg	99
1476.403	0.575	574.8	2back	Block3	2back/STIM_010.jpg	100
1478.98	0.767	766.8	2back	Block3	2back/STIM_010.jpg	99
1482.907	0.893	892.8	2back	Block3	2back/STIM_010.jpg	100
1486.508	0.687	687.1	2back	Block3	2back/STIM_011.jpg	99
1489.874	0.519	519.4	2back	Block3	2back/STIM_011.jpg	100
1493.786	0.584	583.7	2back	Block3	2back/STIM_011.jpg	99
1496.876	0.695	695.0	2back	Block3	2back/STIM_012.jpg	100
1499.726	0.842	841.5	2back	Block3	2back/STIM_012.jpg	99
1503.448	0.525	525.0	2back	Block3	2back/STIM_012.jpg	99
1507.331	0.731	730.8	2back	Block3	2back/STIM_013.jpg	100
1510.472	0.868	867.7	2back	Block3	2back/STIM_013.jpg	99
1513.497	0.671	671.2	2back	Block3	2back/STIM_013.jpg	99
1516.234	0.394	394.4	2back	Block3	2back/STIM_014.jpg	100
1518.829	0.818	817.9	2back	Block3	2back/STIM_014.jpg	100
1523.521	0.499	499.1	2back	Block3	2back/STIM_014.jpg	99
1528.05	0.848	847.5	2back	Block3	2back/STIM_015.jpg	100
1531.954	0.59	589.7	2back	Block3	2back/STIM_015.jpg	100
1536.531	0.648	647.5	2back	Block3	2back/STIM_015.jpg	100
1539.326	0.508	507.9	2back	Block3	2back/STIM_016.jpg	100
1542.541	0.834	833.9	2back	Block3	2back/STIM_016.jpg	100
1545.469	0.673	673.1	2back	Block3	2back/STIM_016.jpg	100
1549.901	0.82	820.2	2back	Block3	2back/STIM_017.jpg	99
1554.186	0.673	673.3	2back	Block3	2back/STIM_017.jpg	100
1558.845	0.49	490.3	2back	Block3	2back/STIM_017.jpg	99
1561.664	0.805	804.8	2back	Block3	2back/STIM_018.jpg	99
1565.15	0.44	440.2	2back	Block3	2back/STIM_018.jpg	100
1569.248	0.633	633.3	2back	Block3	2back/STIM_018.jpg	99
1572.239	0.362	361.5	2back	Block3	2back/STIM_019.jpg	100
1575.88	0.556	556.0	2back	Block3	2back/STIM_019.jpg	100
1578.592	0.834	834.1	2back	Block3	2back/STIM_019.jpg	100
1582.521	0.682	682.5	2back	Block3	2back/STIM_020.jpg	99
1586.833	0.795	795.4	2back	Block3	2back/STIM_020.jpg	100
1591.249	0.809	808.8	2back	Block3	2back/STIM_020.jpg	100
1596.119	0.877	876.6	2back	Block3	2back/STIM_021.jpg	99
1600.482	0.68	680.1	2back	Block3	2back/STIM_021.jpg	99
1604.729	0.505	505.2	2back	Block3	2back/STIM_021.jpg	99
1608.502	0.638	637.8	2back	Block3	2back/STIM_022.jpg	100
1611.449	0.889	889.0	2back	Block3	2back/STIM_022.jpg	100
1614.591	0.699	698.8	2back	Block3	2back/STIM_022.jpg	99
1619.238	0.845	845.4	2back	Block3	2back/STIM_023.jpg	99
1623.129	0.54	539.7	2back	Block3	2back/STIM_023.jpg	99
1626.009	0.54	540.1	2back	Block3	2back/STIM_023.jpg	99
1628.63	0.386	386.2	2back	Block3	2back/STIM_024.jpg	99
1632.127	0.53	530.5	2back	Block3	2back/STIM_024.jpg	100
1635.688	0.913	913.4	2back	Block3	2back/STIM_024.jpg	99
1639.455	0.699	698.8	2back	Block3	2back/STIM_025.jpg	99
1642.678	0.366	365.9	2back	Block3	2back/STIM_025.jpg	99
1646.438	0.63	630.1	2back	Block3	2back/STIM_025.jpg	100
1650.89	0.479	478.7	2back	Block3	2back/STIM_026.jpg	99
1653.733	0.804	804.4	2back	Block3	2back/STIM_026.jpg	99
1657.468	0.455	455.2	2back	Block3	2back/STIM_026.jpg	99
1661.382	0.711	710.9	2back	Block3	2back/STIM_027.jpg	99
1666.209	0.547	546.9	2back	Block3	2back/STIM_027.jpg	100
1669.242	0.698	698.1	2back	Block3	2back/STIM_027.jpg	99
1672.818	0.888	888.0	2back	Block3	2back/STIM_028.jpg	99
1677.203	0.431	430.9	2back	Block3	2back/STIM_028.jpg	99
1679.835	0.61	610.4	2back	Block3	2back/STIM_028.jpg	99
1682.926	0.566	566.5	2back	Block3	2back/STIM_029.jpg	100
1686.715	0.347	347.2	2back	Block3	2back/STIM_029.jpg	100
1690.078	0.75	749.8	2back	Block3	2back/STIM_029.jpg	100
1693.852	0.426	426.4	2back	Block3	2back/STIM_030.jpg	100
1697.773	0.864	863.8	2back	Block3	2back/STIM_030.jpg	100
1702.531	0.496	496.2	2back	Block3	2back/STIM_030.jpg	100
1705.254	0.773	773.3	2back	Block3	2back/STIM_031.jpg	100
1709.451	0.819	819.1	2back	Block3	2back/STIM_031.jpg	100
1714.359	0.412	412.0	2back	Block3	2back/STIM_031.jpg	99
1717.047	0.382	382.2	2back	Block3	2back/STIM_032.jpg	100
1720.904	0.59	590.1	2back	Block3	2back/STIM_032.jpg	100
1724.377	0.59	589.9	2back	Block3	2back/STIM_032.jpg	100
1728.996	0.74	739.8	2back	Block3	2back/STIM_033.jpg	100
1733.171	0.518	518.1	2back	Block3	2back/STIM_033.jpg	99
1736.011	0.74	740.4	2back	Block3	2back/STIM_033.jpg	100
1740.562	0.826	826.0	2back	Block3	2back/STIM_034.jpg	100
1745.148	0.867	867.1	2back	Block3	2back/STIM_034.jpg	99
1748.227	0.545	545.3	2back	Block3	2back/STIM_034.jpg	99
1752.671	0.626	625.9	2back	Block3	2back/STIM_035.jpg	99
1755.858	0.831	831.0	2back	Block3	2back/STIM_035.jpg	99
1759.136	0.648	648.2	2back	Block3	2back/STIM_035.jpg	100
1763.593	0.643	643.3	2back	Block3	2back/STIM_036.jpg	100
1766.381	0.611	611.3	2back	Block3	2back/STIM_036.jpg	99
1770.759	0.847	847.3	2back	Block3	2back/STIM_036.jpg	100
1774.007	0.707	706.6	2back	Block3	2back/STIM_037.jpg	99
1778.069	0.731	731.1	2back	Block3	2back/STIM_037.jpg	100
1781.051	0.666	666.3	2back	Block3	2back/STIM_037.jpg	99
1784.48	0.543	543.4	2back	Block3	2back/STIM_038.jpg	100
1787.201	0.764	764.2	2back	Block3	2back/STIM_038.jpg	100
1790.597	0.707	706.8	2back	Block3	2back/STIM_038.jpg	99
1794.736	0.688	687.6	2back	Block3	2back/STIM_039.jpg	100
1799.119	0.76	760.2	2back	Block3	2back/STIM_039.jpg	99
1804.016	0.579	579.4	2back	Block3	2back/STIM_039.jpg	100
1807.054	0.713	712.9	0back	Block3	0back/STIM_000.jpg	99
1810.287	0.539	539.4	0back	Block3	0back/STIM_000.jpg	100
1814.232	0.674	674.4	0back	Block3	0back/STIM_000.jpg	100
1818.898	0.651	651.4	0back	Block3	0back/STIM_001.jpg	99
1822.077	0.539	538.7	0back	Block3	0back/STIM_001.jpg	100
1825.535	0.574	573.6	0back	Block3	0back/STIM_001.jpg	99
1828.497	0.511	510.6	0back	Block3	0back/STIM_002.jpg	99
1832.995	0.656	655.5	0back	Block3	0back/STIM_002.jpg	100
1836.249	0.321	320.6	0back	Block3	0back/STIM_002.jpg	100
1839.495	0.688	688.3	0back	Block3	0back/STIM_003.jpg	99
1843.951	0.352	351.6	0back	Block3	0back/STIM_003.jpg	100
1846.96	0.472	472.4	0back	Block3	0back/STIM_003.jpg	100
1851.031	0.664	664.3	0back	Block3	0back/STIM_004.jpg	99
1854.081	0.568	568.4	0back	Block3	0back/STIM_004.jpg	99
1858.277	0.673	672.7	0back	Block3	0back/STIM_004.jpg	100
1862.196	0.7	700.3	0back	Block3	0back/STIM_005.jpg	100
1866.573	0.386	385.9	0back	Block3	0back/STIM_005.jpg	99
1869.672	0.605	605.3	0back	Block3	0back/STIM_005.jpg	99
1873.35	0.576	575.6	0back	Block3	0back/STIM_006.jpg	99
1877.088	0.39	390.3	0back	Block3	0back/STIM_006.jpg	100
1881.235	0.549	548.6	0back	Block3	0back/STIM_006.jpg	99
1884.371	0.423	423.1	0back	Block3	0back/STIM_007.jpg	99
1887.668	0.407	407.3	0back	Block3	0back/STIM_007.jpg	99
1890.703	0.653	653.3	0back	Block3	0back/STIM_007.jpg	99
1893.776	0.538	537.7	0back	Block3	0back/STIM_008.jpg	100
1897.306	0.673	673.1	0back	Block3	0back/STIM_008.jpg	99
1901.916	0.524	524.5	0back	Block3	0back/STIM_008.jpg	99
1905.796	0.566	566.0	0back	Block3	0back/STIM_009.jpg	100
1910.001	0.364	364.4	0back	Block3	0back/STIM_009.jpg	100
1914.22	0.65	649.9	0back	Block3	0back/STIM_009.jpg	99
1917.075	0.624	624.3	0back	Block3	0back/STIM_010.jpg	99
1919.698	0.545	544.9	0back	Block3	0back/STIM_010.jpg	99
1923.338	0.348	348.4	0back	Block3	0back/STIM_010.jpg	99
1926.311	0.454	453.9	0back	Block3	0back/STIM_011.jpg	100
1930.132	0.806	805.5	0back	Block3	0back/STIM_011.jpg	99
1934.639	0.619	619.3	0back	Block3	0back/STIM_011.jpg	100
1937.399	0.476	475.7	0back	Block3	0back/STIM_012.jpg	99
1940.883	0.448	448.2	0back	Block3	0back/STIM_012.jpg	100
1945.216	0.51	510.2	0back	Block3	0back/STIM_012.jpg	99
1949.004	0.516	516.2	0back	Block3	0back/STIM_013.jpg	99
1951.659	0.695	695.3	0back	Block3	0back/STIM_013.jpg	100
1954.491	0.648	648.5	0back	Block3	0back/STIM_013.jpg	100
1959.013	0.421	421.4	0back	Block3	0back/STIM_014.jpg	100
1962.417	0.339	339.2	0back	Block3	0back/STIM_014.jpg	99
1964.938	0.494	493.6	0back	Block3	0back/STIM_014.jpg	99
1969.0	0.614	613.6	0back	Block3	0back/STIM_015.jpg	100
1972.378	0.62	619.7	0back	Block3	0back/STIM_015.jpg	99
1975.945	0.654	654.2	0back	Block3	0back/STIM_015.jpg	99
1979.373	0.414	413.5	0back	Block3	0back/STIM_016.jpg	99
1982.683	0.337	337.4	0back	Block3	0back/STIM_016.jpg	99
1986.954	0.702	701.9	0back	Block3	0back/STIM_016.jpg	100
1990.291	0.526	525.7	0back	Block3	0back/STIM_017.jpg	100
1993.112	0.478	478.0	0back	Block3	0back/STIM_017.jpg	99
1997.019	0.705	704.7	0back	Block3	0back/STIM_017.jpg	99
2000.792	0.426	426.1	0back	Block3	0back/STIM_018.jpg	99
2004.053	0.739	738.7	0back	Block3	0back/STIM_018.jpg	100
2008.157	0.499	499.1	0back	Block3	0back/STIM_018.jpg	99
2012.237	0.783	782.6	0back	Block3	0back/STIM_019.jpg	100
2015.365	0.488	488.1	0back	Block3	0back/STIM_019.jpg	99
2018.606	0.554	554.1	0back	Block3	0back/STIM_019.jpg	99
2022.638	0.76	759.8	2back	Block4	2back/STIM_000.jpg	99
2026.88	0.522	522.3	2back	Block4	2back/STIM_000.jpg	100
2030.996	0.451	451.1	2back	Block4	2back/STIM_000.jpg	100
2033.782	0.485	484.8	2back	Block4	2back/STIM_001.jpg	99
2037.969	0.717	716.7	2back	Block4	2back/STIM_001.jpg	100
2041.086	0.811	811.3	2back	Block4	2back/STIM_001.jpg	100
2044.474	0.808	807.8	2back	Block4	2back/STIM_002.jpg	99
2047.518	0.541	541.1	2back	Block4	2back/STIM_002.jpg	99
2050.741	0.782	781.8	2back	Block4	2back/STIM_002.jpg	99
2054.203	0.721	721.2	2back	Block4	2back/STIM_003.jpg	99
2057.345	0.528	528.1	2back	Block4	2back/STIM_003.jpg	99
2061.338	0.635	634.9	2back	Block4	2back/STIM_003.jpg	100
2065.083	0.804	804.0	2back	Block4	2back/STIM_004.jpg	99
2069.885	0.802	802.4	2back	Block4	2back/STIM_004.jpg	99
2073.24	0.503	502.9	2back	Block4	2back/STIM_004.jpg	99
2077.591	0.736	735.5	2back	Block4	2back/STIM_005.jpg	100
2080.721	0.419	419.2	2back	Block4	2back/STIM_005.jpg	99
2084.565	0.772	772.2	2back	Block4	2back/STIM_005.jpg	100
2089.334	0.774	773.6	2back	Block4	2back/STIM_006.jpg	99
2093.257	0.583	583.3	2back	Block4	2back/STIM_006.jpg	99
2096.085	0.758	758.2	2back	Block4	2back/STIM_006.jpg	99
2100.449	0.461	461.1	2back	Block4	2back/STIM_007.jpg	100
2103.243	0.839	838.7	2back	Block4	2back/STIM_007.jpg	100
2106.354	0.556	556.3	2back	Block4	2back/STIM_007.jpg	99
2109.335	0.383	382.6	2back	Block4	2back/STIM_008.jpg	100
2113.315	0.815	814.6	2back	Block4	2back/STIM_008.jpg	100
2117.14	0.867	867.0	2back	Block4	2back/STIM_008.jpg	100
2120.804	0.687	687.3	2back	Block4	2back/STIM_009.jpg	100
2123.647	0.51	509.8	2back	Block4	2back/STIM_009.jpg	100
2127.118	0.689	688.8	2back	Block4	2back/STIM_009.jpg	100
2130.061	0.703	703.3	2back	Block4	2back/STIM_010.jpg	99
2133.206	0.547	547.4	2back	Block4	2back/STIM_010.jpg	99
2136.027	0.448	448.4	2back	Block4	2back/STIM_010.jpg	99
2139.528	0.909	909.3	2back	Block4	2back/STIM_011.jpg	99
2143.789	0.544	544.2	2back	Block4	2back/STIM_011.jpg	99
2147.653	0.394	394.3	2back	Block4	2back/STIM_011.jpg	100
2150.804	0.747	747.4	2back	Block4	2back/STIM_012.jpg	100
2154.134	0.596	595.5	2back	Block4	2back/STIM_012.jpg	99
2158.46	0.563	562.9	2back	Block4	2back/STIM_012.jpg	99
2162.288	0.407	406.6	2back	Block4	2back/STIM_013.jpg	99
2165.35	0.505	504.9	2back	Block4	2back/STIM_013.jpg	100
2168.638	0.761	761.0	2back	Block4	2back/STIM_013.jpg	100
2171.543	0.843	842.8	2back	Block4	2back/STIM_014.jpg	100
2174.478	0.451	451.3	2back	Block4	2back/STIM_014.jpg	99
2177.387	0.553	553.0	2back	Block4	2back/STIM_014.jpg	100
2180.439	0.51	510.2	2back	Block4	2back/STIM_015.jpg	100
2183.8	0.458	457.5	2back	Block4	2back/STIM_015.jpg	99
2188.11	0.388	388.0	2back	Block4	2back/STIM_015.jpg	99
2191.714	0.855	854.6	2back	Block4	2back/STIM_016.jpg	99
2194.914	0.607	606.6	2back	Block4	2back/STIM_016.jpg	100
2198.669	0.433	432.7	2back	Block4	2back/STIM_016.jpg	99
2201.306	0.839	838.9	2back	Block4	2back/STIM_017.jpg	100
2205.615	0.46	459.5	2back	Block4	2back/STIM_017.jpg	100
2209.213	0.655	655.2	2back	Block4	2back/STIM_017.jpg	100
2212.945	0.565	565.2	2back	Block4	2back/STIM_018.jpg	100
2216.312	0.743	743.0	2back	Block4	2back/STIM_018.jpg	100
2219.618	0.809	809.4	2back	Block4	2back/STIM_018.jpg	100
2222.981	0.724	724.4	2back	Block4	2back/STIM_019.jpg	100
2226.749	0.907	906.9	2back	Block4	2back/STIM_019.jpg	100
2230.01	0.795	794.7	2back	Block4	2back/STIM_019.jpg	99
2234.395	0.839	839.2	2back	Block4	2back/STIM_020.jpg	99
2239.052	0.586	586.0	2back	Block4	2back/STIM_020.jpg	100
2242.711	0.861	860.6	2back	Block4	2back/STIM_020.jpg	99
2247.491	0.643	642.6	2back	Block4	2back/STIM_021.jpg	100
2251.127	0.644	644.0	2back	Block4	2back/STIM_021.jpg	99
2255.693	0.87	870.0	2back	Block4	2back/STIM_021.jpg	100
2259.715	0.566	566.2	2back	Block4	2back/STIM_022.jpg	99
2262.445	0.336	336.2	2back	Block4	2back/STIM_022.jpg	99
2265.796	0.611	611.2	2back	Block4	2back/STIM_022.jpg	100
2268.868	0.622	622.2	2back	Block4	2back/STIM_023.jpg	99
2272.35	0.685	685.1	2back	Block4	2back/STIM_023.jpg	99
2275.513	0.439	439.3	2back	Block4	2back/STIM_023.jpg	99
2279.399	0.398	398.1	2back	Block4	2back/STIM_024.jpg	99
2282.09	0.512	512.4	2back	Block4	2back/STIM_024.jpg	100
2286.175	0.802	802.1	2back	Block4	2back/STIM_024.jpg	100
2289.707	0.628	627.9	2back	Block4	2back/STIM_025.jpg	99
2294.315	0.579	579.4	2back	Block4	2back/STIM_025.jpg	100
2297.751	0.902	902.4	2back	Block4	2back/STIM_025.jpg	100
2301.146	0.63	630.5	2back	Block4	2back/STIM_026.jpg	99
2305.187	0.844	843.8	2back	Block4	2back/STIM_026.jpg	100
2308.682	0.62	619.6	2back	Block4	2back/STIM_026.jpg	99
2312.994	0.592	592.5	2back	Block4	2back/STIM_027.jpg	100
2316.061	0.905	904.7	2back	Block4	2back/STIM_027.jpg	99
2320.258	0.52	520.5	2back	Block4	2back/STIM_027.jpg	99
2323.378	0.834	833.5	2back	Block4	2back/STIM_028.jpg	99
2327.253	0.643	643.2	2back	Block4	2back/STIM_028.jpg	100
2330.982	0.502	501.9	2back	Block4	2back/STIM_028.jpg	100
2333.689	0.421	420.8	2back	Block4	2back/STIM_029.jpg	100
2337.631	0.427	427.4	2back	Block4	2back/STIM_029.jpg	100
2342.104	0.499	499.2	2back	Block4	2back/STIM_029.jpg	99
2345.259	0.822	821.9	2back	Block4	2back/STIM_030.jpg	99
2349.364	0.501	501.5	2back	Block4	2back/STIM_030.jpg	99
2353.189	0.626	625.5	2back	Block4	2back/STIM_030.jpg	99
2356.626	0.616	616.4	2back	Block4	2back/STIM_031.jpg	100
2360.973	0.454	453.7	2back	Block4	2back/STIM_031.jpg	99
2364.002	0.498	497.9	2back	Block4	2back/STIM_031.jpg	100
2367.768	0.771	771.2	2back	Block4	2back/STIM_032.jpg	100
2371.956	0.587	586.7	2back	Block4	2back/STIM_032.jpg	100
2375.638	0.368	368.4	2back	Block4	2back/STIM_032.jpg	99
2379.536	0.461	461.4	2back	Block4	2back/STIM_033.jpg	100
2383.26	0.641	641.0	2back	Block4	2back/STIM_033.jpg	100
2386.976	0.691	691.3	2back	Block4	2back/STIM_033.jpg	100
2390.152	0.816	816.2	2back	Block4	2back/STIM_034.jpg	100
2394.683	0.52	519.6	2back	Block4	2back/STIM_034.jpg	100
2397.394	0.681	681.2	2back	Block4	2back/STIM_034.jpg	100
2400.816	0.671	671.4	2back	Block4	2back/STIM_035.jpg	99
2403.703	0.763	763.4	2back	Block4	2back/STIM_035.jpg	99
2407.221	0.572	572.3	2back	Block4	2back/STIM_035.jpg	100
2410.75	0.609	608.6	2back	Block4	2back/STIM_036.jpg	99
2414.022	0.33	329.5	2back	Block4	2back/STIM_036.jpg	99
2417.435	0.507	506.6	2back	Block4	2back/STIM_036.jpg	99
2421.35	0.822	821.8	2back	Block4	2back/STIM_037.jpg	99
2424.642	0.462	461.9	2back	Block4	2back/STIM_037.jpg	99
2427.873	0.796	796.0	2back	Block4	2back/STIM_037.jpg	100
2432.375	0.347	347.2	2back	Block4	2back/STIM_038.jpg	99
2436.027	0.548	548.4	2back	Block4	2back/STIM_038.jpg	100
2439.871	0.931	930.7	2back	Block4	2back/STIM_038.jpg	100
2443.413	0.807	807.2	2back	Block4	2back/STIM_039.jpg	100
2447.024	0.801	800.7	2back	Block4	2back/STIM_039.jpg	100
2450.396	0.811	811.1	2back	Block4	2back/STIM_039.jpg	100
2455.003	0.531	531.0	0back	Block4	0back/STIM_000.jpg	99
2457.852	0.587	587.1	0back	Block4	0back/STIM_000.jpg	100
2461.83	0.737	737.3	0back	Block4	0back/STIM_000.jpg	100
2465.968	0.417	416.7	0back	Block4	0back/STIM_001.jpg	100
2470.191	0.658	658.1	0back	Block4	0back/STIM_001.jpg	99
2473.551	0.348	348.2	0back	Block4	0back/STIM_001.jpg	99
2477.027	0.826	826.0	0back	Block4	0back/STIM_002.jpg	99
2479.99	0.592	591.6	0back	Block4	0back/STIM_002.jpg	100
2482.697	0.581	580.7	0back	Block4	0back/STIM_002.jpg	100
2485.79	0.656	655.8	0back	Block4	0back/STIM_003.jpg	100
2488.698	0.392	392.1	0back	Block4	0back/STIM_003.jpg	100
2492.172	0.405	405.1	0back	Block4	0back/STIM_003.jpg	99
2495.446	0.541	540.7	0back	Block4	0back/STIM_004.jpg	100
2498.647	0.642	642.2	0back	Block4	0back/STIM_004.jpg	99
2502.209	0.609	608.8	0back	Block4	0back/STIM_004.jpg	100
2505.956	0.491	491.2	0back	Block4	0back/STIM_005.jpg	100
2509.068	0.661	661.1	0back	Block4	0back/STIM_005.jpg	99
2513.579	0.599	598.8	0back	Block4	0back/STIM_005.jpg	99
2517.66	0.443	442.8	0back	Block4	0back/STIM_006.jpg	100
2521.622	0.671	671.4	0back	Block4	0back/STIM_006.jpg	99
2525.367	0.436	436.4	0back	Block4	0back/STIM_006.jpg	99
2528.686	0.569	569.0	0back	Block4	0back/STIM_007.jpg	99
2532.782	0.692	692.3	0back	Block4	0back/STIM_007.jpg	100
2536.125	0.4	399.8	0back	Block4	0back/STIM_007.jpg	100
2538.707	0.473	472.6	0back	Block4	0back/STIM_008.jpg	99
2541.592	0.661	661.0	0back	Block4	0back/STIM_008.jpg	99
2546.031	0.457	456.6	0back	Block4	0back/STIM_008.jpg	100
2550.166	0.553	553.2	0back	Block4	0back/STIM_009.jpg	99
2553.521	0.732	731.8	0back	Block4	0back/STIM_009.jpg	99
2557.106	0.477	477.3	0back	Block4	0back/STIM_009.jpg	99
2560.851	0.604	604.4	0back	Block4	0back/STIM_010.jpg	100
2564.327	0.651	651.4	0back	Block4	0back/STIM_010.jpg	100
2567.666	0.552	552.4	0back	Block4	0back/STIM_010.jpg	99
2571.7	0.492	491.7	0back	Block4	0back/STIM_011.jpg	99
2575.657	0.459	458.8	0back	Block4	0back/STIM_011.jpg	99
2579.6	0.674	674.4	0back	Block4	0back/STIM_011.jpg	100
2582.995	0.526	526.4	0back	Block4	0back/STIM_012.jpg	100
2586.854	0.513	513.3	0back	Block4	0back/STIM_012.jpg	100
2590.109	0.345	344.8	0back	Block4	0back/STIM_012.jpg	99
2593.567	0.57	569.9	0back	Block4	0back/STIM_013.jpg	99
2597.478	0.582	581.5	0back	Block4	0back/STIM_013.jpg	99
2600.592	0.582	582.0	0back	Block4	0back/STIM_013.jpg	99
2604.744	0.542	541.7	0back	Block4	0back/STIM_014.jpg	100
2607.609	0.34	339.7	0back	Block4	0back/STIM_014.jpg	99
2610.329	0.579	578.8	0back	Block4	0back/STIM_014.jpg	100
2613.346	0.716	716.5	0back	Block4	0back/STIM_015.jpg	100
2617.559	0.701	701.0	0back	Block4	0back/STIM_015.jpg	99
2621.32	0.46	460.3	0back	Block4	0back/STIM_015.jpg	99
2625.114	0.428	428.3	0back	Block4	0back/STIM_016.jpg	100
2628.504	0.578	577.7	0back	Block4	0back/STIM_016.jpg	99
2631.707	0.739	738.9	0back	Block4	0back/STIM_016.jpg	100
2636.0	0.525	524.7	0back	Block4	0back/STIM_017.jpg	99
2639.862	0.615	615.2	0back	Block4	0back/STIM_017.jpg	100
2644.333	0.455	454.6	0back	Block4	0back/STIM_017.jpg	99
2647.809	0.726	725.5	0back	Block4	0back/STIM_018.jpg	100
2651.496	0.526	526.5	0back	Block4	0back/STIM_018.jpg	100
2654.668	0.568	567.8	0back	Block4	0back/STIM_018.jpg	100
2657.627	0.416	416.3	0back	Block4	0back/STIM_019.jpg	100
2661.982	0.647	647.3	0back	Block4	0back/STIM_019.jpg	99
2666.682	0.528	527.9	0back	Block4	0back/STIM_019.jpg	99
