onset	duration	accuracy_binary	trial_type	learning_stage	stimulus
0.0	1.104	1	2back	Block1	2back/STIM_000.jpg
4.363	0.708	1	2back	Block1	2back/STIM_000.jpg
8.079	0.46	0	2back	Block1	2back/STIM_000.jpg
11.856	0.91	1	2back	Block1	2back/STIM_001.jpg
15.393	1.1	1	2back	Block1	2back/STIM_001.jpg
19.846	0.709	1	2back	Block1	2back/STIM_001.jpg
23.461	0.722	1	2back	Block1	2back/STIM_002.jpg
26.594	0.752	1	2back	Block1	2back/STIM_002.jpg
30.87	1.037	1	2back	Block1	2back/STIM_002.jpg
35.174	0.815	1	2back	Block1	2back/STIM_003.jpg
39.587	0.616	0	2back	Block1	2back/STIM_003.jpg
43.42	1.046	1	2back	Block1	2back/STIM_003.jpg
47.954	1.235	0	2back	Block1	2back/STIM_004.jpg
51.484	1.153	1	2back	Block1	2back/STIM_004.jpg
55.94	0.98	1	2back	Block1	2back/STIM_004.jpg
60.158	1.143	0	2back	Block1	2back/STIM_005.jpg
64.865	0.804	1	2back	Block1	2back/STIM_005.jpg
68.636	1.038	0	2back	Block1	2back/STIM_005.jpg
73.166	0.636	0	2back	Block1	2back/STIM_006.jpg
77.161	0.93	1	2back	Block1	2back/STIM_006.jpg
80.273	1.016	1	2back	Block1	2back/STIM_006.jpg
84.372	1.273	1	2back	Block1	2back/STIM_007.jpg
87.771	1.092	1	2back	Block1	2back/STIM_007.jpg
91.297	0.839	1	2back	Block1	2back/STIM_007.jpg
95.894	1.058	1	2back	Block1	2back/STIM_008.jpg
99.643	1.043	1	2back	Block1	2back/STIM_008.jpg
103.637	0.912	1	2back	Block1	2back/STIM_008.jpg
107.459	1.018	1	2back	Block1	2back/STIM_009.jpg
112.458	0.751	1	2back	Block1	2back/STIM_009.jpg
116.222	0.46	1	2back	Block1	2back/STIM_009.jpg
120.695	0.623	1	2back	Block1	2back/STIM_010.jpg
124.447	0.863	1	2back	Block1	2back/STIM_010.jpg
128.003	0.766	0	2back	Block1	2back/STIM_010.jpg
131.417	0.766	0	2back	Block1	2back/STIM_011.jpg
134.551	0.751	0	2back	Block1	2back/STIM_011.jpg
137.931	0.688	1	2back	Block1	2back/STIM_011.jpg
141.949	1.214	0	2back	Block1	2back/STIM_012.jpg
145.42	0.679	1	2back	Block1	2back/STIM_012.jpg
150.024	0.798	0	2back	Block1	2back/STIM_012.jpg
154.284	0.999	1	2back	Block1	2back/STIM_013.jpg
159.167	1.174	1	2back	Block1	2back/STIM_013.jpg
164.095	0.994	1	2back	Block1	2back/STIM_013.jpg
168.163	0.697	0	2back	Block1	2back/STIM_014.jpg
172.615	1.1	1	2back	Block1	2back/STIM_014.jpg
177.062	0.62	1	2back	Block1	2back/STIM_014.jpg
180.18	0.722	1	2back	Block1	2back/STIM_015.jpg
183.742	0.63	1	2back	Block1	2back/STIM_015.jpg
188.189	1.143	1	2back	Block1	2back/STIM_015.jpg
192.553	0.639	1	2back	Block1	2back/STIM_016.jpg
195.358	1.004	0	2back	Block1	2back/STIM_016.jpg
199.549	0.518	1	2back	Block1	2back/STIM_016.jpg
203.938	0.746	1	2back	Block1	2back/STIM_017.jpg
207.186	0.773	1	2back	Block1	2back/STIM_017.jpg
210.603	0.774	1	2back	Block1	2back/STIM_017.jpg
214.633	0.758	1	2back	Block1	2back/STIM_018.jpg
218.081	0.5	1	2back	Block1	2back/STIM_018.jpg
222.344	0.732	1	2back	Block1	2back/STIM_018.jpg
226.91	0.532	1	2back	Block1	2back/STIM_019.jpg
230.804	0.821	1	2back	Block1	2back/STIM_019.jpg
235.315	0.54	0	2back	Block1	2back/STIM_019.jpg
239.852	0.696	1	2back	Block1	2back/STIM_020.jpg
243.403	0.831	1	2back	Block1	2back/STIM_020.jpg
246.878	0.589	0	2back	Block1	2back/STIM_020.jpg
249.568	1.206	0	2back	Block1	2back/STIM_021.jpg
253.68	0.758	0	2back	Block1	2back/STIM_021.jpg
258.511	0.972	1	2back	Block1	2back/STIM_021.jpg
262.079	0.789	1	2back	Block1	2back/STIM_022.jpg
266.476	0.894	1	2back	Block1	2back/STIM_022.jpg
271.425	0.837	0	2back	Block1	2back/STIM_022.jpg
275.838	0.673	1	2back	Block1	2back/STIM_023.jpg
279.093	0.542	1	2back	Block1	2back/STIM_023.jpg
282.92	0.704	1	2back	Block1	2back/STIM_023.jpg
287.253	0.611	1	2back	Block1	2back/STIM_024.jpg
290.68	0.777	1	2back	Block1	2back/STIM_024.jpg
295.338	0.463	1	2back	Block1	2back/STIM_024.jpg
299.5	0.514	1	2back	Block1	2back/STIM_025.jpg
303.495	1.135	1	2back	Block1	2back/STIM_025.jpg
307.28	0.582	1	2back	Block1	2back/STIM_025.jpg
311.274	1.133	1	2back	Block1	2back/STIM_026.jpg
314.508	1.05	1	2back	Block1	2back/STIM_026.jpg
318.902	1.057	1	2back	Block1	2back/STIM_026.jpg
323.45	1.044	1	2back	Block1	2back/STIM_027.jpg
328.361	0.803	1	2back	Block1	2back/STIM_027.jpg
332.834	0.99	1	2back	Block1	2back/STIM_027.jpg
336.191	0.686	1	2back	Block1	2back/STIM_028.jpg
339.024	0.603	1	2back	Block1	2back/STIM_028.jpg
342.638	1.002	0	2back	Block1	2back/STIM_028.jpg
346.053	1.177	1	2back	Block1	2back/STIM_029.jpg
349.964	0.657	1	2back	Block1	2back/STIM_029.jpg
353.535	1.053	1	2back	Block1	2back/STIM_029.jpg
357.119	0.649	1	2back	Block1	2back/STIM_030.jpg
360.649	1.084	1	2back	Block1	2back/STIM_030.jpg
364.171	0.662	1	2back	Block1	2back/STIM_030.jpg
368.497	1.186	1	2back	Block1	2back/STIM_031.jpg
373.361	0.813	0	2back	Block1	2back/STIM_031.jpg
377.956	0.951	1	2back	Block1	2back/STIM_031.jpg
382.171	0.569	1	2back	Block1	2back/STIM_032.jpg
386.744	0.957	1	2back	Block1	2back/STIM_032.jpg
390.845	0.974	1	2back	Block1	2back/STIM_032.jpg
395.21	1.053	1	2back	Block1	2back/STIM_033.jpg
398.958	1.166	1	2back	Block1	2back/STIM_033.jpg
403.187	0.508	1	2back	Block1	2back/STIM_033.jpg
406.315	0.772	1	2back	Block1	2back/STIM_034.jpg
410.456	0.759	0	2back	Block1	2back/STIM_034.jpg
413.95	0.935	1	2back	Block1	2back/STIM_034.jpg
418.05	1.062	1	2back	Block1	2back/STIM_035.jpg
422.93	1.009	1	2back	Block1	2back/STIM_035.jpg
427.947	0.714	1	2back	Block1	2back/STIM_035.jpg
432.675	0.973	1	2back	Block1	2back/STIM_036.jpg
436.76	1.144	0	2back	Block1	2back/STIM_036.jpg
440.258	0.587	1	2back	Block1	2back/STIM_036.jpg
443.072	0.843	1	2back	Block1	2back/STIM_037.jpg
445.924	0.89	1	2back	Block1	2back/STIM_037.jpg
450.008	0.482	1	2back	Block1	2back/STIM_037.jpg
453.919	0.737	1	2back	Block1	2back/STIM_038.jpg
456.913	1.013	1	2back	Block1	2back/STIM_038.jpg
461.637	0.843	1	2back	Block1	2back/STIM_038.jpg
464.603	0.601	1	2back	Block1	2back/STIM_039.jpg
468.017	0.735	1	2back	Block1	2back/STIM_039.jpg
471.497	0.904	0	2back	Block1	2back/STIM_039.jpg
475.827	0.394	1	0back	Block1	0back/STIM_000.jpg
478.629	0.631	1	0back	Block1	0back/STIM_000.jpg
483.255	0.59	1	0back	Block1	0back/STIM_000.jpg
486.555	0.395	1	0back	Block1	0back/STIM_001.jpg
489.227	0.63	1	0back	Block1	0back/STIM_001.jpg
493.314	0.484	1	0back	Block1	0back/STIM_001.jpg
496.641	0.644	1	0back	Block1	0back/STIM_002.jpg
500.717	0.409	0	0back	Block1	0back/STIM_002.jpg
504.791	0.655	1	0back	Block1	0back/STIM_002.jpg
509.418	0.618	1	0back	Block1	0back/STIM_003.jpg
513.054	0.398	1	0back	Block1	0back/STIM_003.jpg
516.547	0.419	1	0back	Block1	0back/STIM_003.jpg
520.013	0.516	1	0back	Block1	0back/STIM_004.jpg
523.345	0.535	1	0back	Block1	0back/STIM_004.jpg
526.647	0.686	1	0back	Block1	0back/STIM_004.jpg
530.995	0.536	1	0back	Block1	0back/STIM_005.jpg
533.845	0.418	1	0back	Block1	0back/STIM_005.jpg
537.058	0.459	1	0back	Block1	0back/STIM_005.jpg
539.649	0.608	1	0back	Block1	0back/STIM_006.jpg
544.188	0.602	1	0back	Block1	0back/STIM_006.jpg
547.829	0.437	1	0back	Block1	0back/STIM_006.jpg
551.393	0.535	1	0back	Block1	0back/STIM_007.jpg
554.537	0.37	1	0back	Block1	0back/STIM_007.jpg
558.771	0.584	1	0back	Block1	0back/STIM_007.jpg
562.134	0.714	1	0back	Block1	0back/STIM_008.jpg
565.497	0.396	1	0back	Block1	0back/STIM_008.jpg
569.531	0.722	1	0back	Block1	0back/STIM_008.jpg
574.017	0.719	1	0back	Block1	0back/STIM_009.jpg
577.717	0.482	1	0back	Block1	0back/STIM_009.jpg
581.451	0.736	1	0back	Block1	0back/STIM_009.jpg
585.511	0.611	1	0back	Block1	0back/STIM_010.jpg
588.237	0.481	1	0back	Block1	0back/STIM_010.jpg
592.274	0.411	1	0back	Block1	0back/STIM_010.jpg
596.527	0.394	1	0back	Block1	0back/STIM_011.jpg
599.671	0.592	1	0back	Block1	0back/STIM_011.jpg
603.153	0.683	1	0back	Block1	0back/STIM_011.jpg
607.596	0.436	1	0back	Block1	0back/STIM_012.jpg
610.637	0.49	1	0back	Block1	0back/STIM_012.jpg
614.826	0.727	1	0back	Block1	0back/STIM_012.jpg
618.542	0.67	1	0back	Block1	0back/STIM_013.jpg
622.999	0.348	1	0back	Block1	0back/STIM_013.jpg
627.013	0.613	1	0back	Block1	0back/STIM_013.jpg
631.159	0.389	1	0back	Block1	0back/STIM_014.jpg
634.027	0.412	1	0back	Block1	0back/STIM_014.jpg
637.193	0.404	1	0back	Block1	0back/STIM_014.jpg
640.185	0.742	0	0back	Block1	0back/STIM_015.jpg
643.075	0.426	1	0back	Block1	0back/STIM_015.jpg
647.434	0.401	1	0back	Block1	0back/STIM_015.jpg
651.039	0.547	1	0back	Block1	0back/STIM_016.jpg
655.286	0.7	1	0back	Block1	0back/STIM_016.jpg
658.978	0.712	1	0back	Block1	0back/STIM_016.jpg
662.919	0.663	1	0back	Block1	0back/STIM_017.jpg
667.567	0.542	1	0back	Block1	0back/STIM_017.jpg
671.085	0.492	1	0back	Block1	0back/STIM_017.jpg
674.155	0.509	1	0back	Block1	0back/STIM_018.jpg
678.341	0.449	1	0back	Block1	0back/STIM_018.jpg
681.362	0.474	1	0back	Block1	0back/STIM_018.jpg
685.079	0.496	1	0back	Block1	0back/STIM_019.jpg
688.247	0.711	1	0back	Block1	0back/STIM_019.jpg
692.08	0.482	1	0back	Block1	0back/STIM_019.jpg
694.761	0.777	1	2back	Block2	2back/STIM_000.jpg
698.754	0.996	1	2back	Block2	2back/STIM_000.jpg
702.118	0.612	1	2back	Block2	2back/STIM_000.jpg
705.189	1.022	1	2back	Block2	2back/STIM_001.jpg
709.406	0.856	0	2back	Block2	2back/STIM_001.jpg
713.759	0.487	0	2back	Block2	2back/STIM_001.jpg
716.579	0.852	1	2back	Block2	2back/STIM_002.jpg
720.911	0.892	1	2back	Block2	2back/STIM_002.jpg
724.38	0.503	1	2back	Block2	2back/STIM_002.jpg
728.522	0.759	1	2back	Block2	2back/STIM_003.jpg
731.536	0.538	1	2back	Block2	2back/STIM_003.jpg
736.118	0.867	1	2back	Block2	2back/STIM_003.jpg
739.755	0.698	1	2back	Block2	2back/STIM_004.jpg
743.935	0.53	1	2back	Block2	2back/STIM_004.jpg
748.02	0.635	1	2back	Block2	2back/STIM_004.jpg
751.433	1.076	1	2back	Block2	2back/STIM_005.jpg
755.982	0.79	1	2back	Block2	2back/STIM_005.jpg
759.959	0.918	1	2back	Block2	2back/STIM_005.jpg
763.655	0.637	1	2back	Block2	2back/STIM_006.jpg
767.342	0.825	1	2back	Block2	2back/STIM_006.jpg
771.368	0.613	1	2back	Block2	2back/STIM_006.jpg
773.958	0.721	1	2back	Block2	2back/STIM_007.jpg
777.342	0.495	1	2back	Block2	2back/STIM_007.jpg
780.627	0.464	1	2back	Block2	2back/STIM_007.jpg
783.716	0.75	1	2back	Block2	2back/STIM_008.jpg
786.853	0.886	1	2back	Block2	2back/STIM_008.jpg
791.346	0.355	0	2back	Block2	2back/STIM_008.jpg
794.536	0.711	1	2back	Block2	2back/STIM_009.jpg
797.933	0.63	1	2back	Block2	2back/STIM_009.jpg
802.529	0.798	1	2back	Block2	2back/STIM_009.jpg
805.541	0.984	1	2back	Block2	2back/STIM_010.jpg
808.648	0.614	1	2back	Block2	2back/STIM_010.jpg
812.514	0.858	1	2back	Block2	2back/STIM_010.jpg
815.677	1.009	0	2back	Block2	2back/STIM_011.jpg
819.689	0.672	1	2back	Block2	2back/STIM_011.jpg
822.788	0.856	0	2back	Block2	2back/STIM_011.jpg
826.469	0.935	1	2back	Block2	2back/STIM_012.jpg
829.564	0.764	1	2back	Block2	2back/STIM_012.jpg
833.428	0.627	1	2back	Block2	2back/STIM_012.jpg
836.99	1.098	1	2back	Block2	2back/STIM_013.jpg
840.275	0.795	1	2back	Block2	2back/STIM_013.jpg
844.11	0.75	1	2back	Block2	2back/STIM_013.jpg
848.659	0.712	1	2back	Block2	2back/STIM_014.jpg
852.948	0.707	1	2back	Block2	2back/STIM_014.jpg
856.991	0.561	1	2back	Block2	2back/STIM_014.jpg
860.443	0.634	1	2back	Block2	2back/STIM_015.jpg
864.767	0.749	1	2back	Block2	2back/STIM_015.jpg
867.594	0.81	1	2back	Block2	2back/STIM_015.jpg
871.855	0.453	1	2back	Block2	2back/STIM_016.jpg
874.819	0.729	1	2back	Block2	2back/STIM_016.jpg
879.116	0.839	1	2back	Block2	2back/STIM_016.jpg
882.541	0.938	1	2back	Block2	2back/STIM_017.jpg
887.303	0.441	1	2back	Block2	2back/STIM_017.jpg
891.64	0.458	1	2back	Block2	2back/STIM_017.jpg
895.853	0.596	1	2back	Block2	2back/STIM_018.jpg
899.108	0.841	1	2back	Block2	2back/STIM_018.jpg
904.022	0.974	1	2back	Block2	2back/STIM_018.jpg
908.478	0.461	1	2back	Block2	2back/STIM_019.jpg
912.996	0.56	1	2back	Block2	2back/STIM_019.jpg
915.801	0.56	1	2back	Block2	2back/STIM_019.jpg
919.383	0.547	1	2back	Block2	2back/STIM_020.jpg
921.967	0.388	1	2back	Block2	2back/STIM_020.jpg
925.033	0.689	1	2back	Block2	2back/STIM_020.jpg
928.874	0.521	1	2back	Block2	2back/STIM_021.jpg
933.259	0.934	1	2back	Block2	2back/STIM_021.jpg
937.768	0.991	0	2back	Block2	2back/STIM_021.jpg
941.343	0.472	1	2back	Block2	2back/STIM_022.jpg
945.343	0.554	1	2back	Block2	2back/STIM_022.jpg
948.405	0.724	1	2back	Block2	2back/STIM_022.jpg
951.978	0.837	1	2back	Block2	2back/STIM_023.jpg
955.936	0.773	1	2back	Block2	2back/STIM_023.jpg
958.796	0.652	1	2back	Block2	2back/STIM_023.jpg
962.983	1.002	1	2back	Block2	2back/STIM_024.jpg
966.86	0.566	1	2back	Block2	2back/STIM_024.jpg
970.816	0.402	1	2back	Block2	2back/STIM_024.jpg
973.369	0.517	1	2back	Block2	2back/STIM_025.jpg
977.155	0.538	1	2back	Block2	2back/STIM_025.jpg
980.874	0.705	1	2back	Block2	2back/STIM_025.jpg
984.87	1.026	1	2back	Block2	2back/STIM_026.jpg
988.4	0.707	0	2back	Block2	2back/STIM_026.jpg
992.667	0.664	1	2back	Block2	2back/STIM_026.jpg
995.918	0.678	1	2back	Block2	2back/STIM_027.jpg
998.79	0.834	1	2back	Block2	2back/STIM_027.jpg
1003.003	0.821	1	2back	Block2	2back/STIM_027.jpg
1006.531	0.917	1	2back	Block2	2back/STIM_028.jpg
1010.914	0.86	0	2back	Block2	2back/STIM_028.jpg
1014.185	0.69	1	2back	Block2	2back/STIM_028.jpg
1018.775	0.925	1	2back	Block2	2back/STIM_029.jpg
1023.708	0.97	1	2back	Block2	2back/STIM_029.jpg
1027.811	0.405	1	2back	Block2	2back/STIM_029.jpg
1030.592	0.792	1	2back	Block2	2back/STIM_030.jpg
1034.171	0.527	1	2back	Block2	2back/STIM_030.jpg
1037.515	0.521	1	2back	Block2	2back/STIM_030.jpg
1040.984	0.635	1	2back	Block2	2back/STIM_031.jpg
1045.25	0.754	1	2back	Block2	2back/STIM_031.jpg
1049.162	0.91	1	2back	Block2	2back/STIM_031.jpg
1054.093	0.885	1	2back	Block2	2back/STIM_032.jpg
1057.126	0.732	1	2back	Block2	2back/STIM_032.jpg
1061.421	0.844	1	2back	Block2	2back/STIM_032.jpg
1065.99	1.029	1	2back	Block2	2back/STIM_033.jpg
1070.37	0.862	1	2back	Block2	2back/STIM_033.jpg
1073.421	0.724	1	2back	Block2	2back/STIM_033.jpg
1077.124	0.589	1	2back	Block2	2back/STIM_034.jpg
1081.551	0.881	1	2back	Block2	2back/STIM_034.jpg
1086.105	0.449	0	2back	Block2	2back/STIM_034.jpg
1089.657	0.963	1	2back	Block2	2back/STIM_035.jpg
1093.833	0.94	1	2back	Block2	2back/STIM_035.jpg
1097.828	0.629	1	2back	Block2	2back/STIM_035.jpg
1101.992	0.766	1	2back	Block2	2back/STIM_036.jpg
1105.168	0.528	1	2back	Block2	2back/STIM_036.jpg
1108.511	0.444	1	2back	Block2	2back/STIM_036.jpg
1111.626	0.974	1	2back	Block2	2back/STIM_037.jpg
1115.308	0.888	1	2back	Block2	2back/STIM_037.jpg
1119.863	0.554	1	2back	Block2	2back/STIM_037.jpg
1122.74	0.459	1	2back	Block2	2back/STIM_038.jpg
1126.46	0.996	1	2back	Block2	2back/STIM_038.jpg
1129.796	0.449	1	2back	Block2	2back/STIM_038.jpg
1133.617	0.822	1	2back	Block2	2back/STIM_039.jpg
1137.558	0.515	1	2back	Block2	2back/STIM_039.jpg
1141.817	0.755	1	2back	Block2	2back/STIM_039.jpg
1145.866	0.681	1	0back	Block2	0back/STIM_000.jpg
1148.686	0.347	1	0back	Block2	0back/STIM_000.jpg
1151.276	0.67	1	0back	Block2	0back/STIM_000.jpg
1154.987	0.597	1	0back	Block2	0back/STIM_001.jpg
1159.082	0.364	1	0back	Block2	0back/STIM_001.jpg
1162.146	0.502	1	0back	Block2	0back/STIM_001.jpg
1165.626	0.394	1	0back	Block2	0back/STIM_002.jpg
1168.527	0.498	1	0back	Block2	0back/STIM_002.jpg
1172.864	0.485	1	0back	Block2	0back/STIM_002.jpg
1176.234	0.581	1	0back	Block2	0back/STIM_003.jpg
1179.608	0.424	1	0back	Block2	0back/STIM_003.jpg
1182.903	0.642	1	0back	Block2	0back/STIM_003.jpg
1187.076	0.596	1	0back	Block2	0back/STIM_004.jpg
1190.727	0.618	0	0back	Block2	0back/STIM_004.jpg
1195.335	0.74	1	0back	Block2	0back/STIM_004.jpg
1199.117	0.496	1	0back	Block2	0back/STIM_005.jpg
1203.573	0.485	1	0back	Block2	0back/STIM_005.jpg
1207.233	0.614	1	0back	Block2	0back/STIM_005.jpg
1211.711	0.406	1	0back	Block2	0back/STIM_006.jpg
1214.822	0.567	1	0back	Block2	0back/STIM_006.jpg
1219.059	0.448	1	0back	Block2	0back/STIM_006.jpg
1222.51	0.494	1	0back	Block2	0back/STIM_007.jpg
1225.787	0.467	1	0back	Block2	0back/STIM_007.jpg
1229.623	0.526	1	0back	Block2	0back/STIM_007.jpg
1232.474	0.516	1	0back	Block2	0back/STIM_008.jpg
1235.061	0.492	1	0back	Block2	0back/STIM_008.jpg
1239.608	0.589	1	0back	Block2	0back/STIM_008.jpg
1243.002	0.623	1	0back	Block2	0back/STIM_009.jpg
1246.095	0.565	1	0back	Block2	0back/STIM_009.jpg
1249.49	0.586	1	0back	Block2	0back/STIM_009.jpg
1253.887	0.419	1	0back	Block2	0back/STIM_010.jpg
1258.229	0.726	1	0back	Block2	0back/STIM_010.jpg
1262.868	0.448	1	0back	Block2	0back/STIM_010.jpg
1267.073	0.354	1	0back	Block2	0back/STIM_011.jpg
1270.647	0.486	1	0back	Block2	0back/STIM_011.jpg
1274.647	0.535	1	0back	Block2	0back/STIM_011.jpg
1278.637	0.383	1	0back	Block2	0back/STIM_012.jpg
1282.316	0.527	1	0back	Block2	0back/STIM_012.jpg
1285.631	0.295	0	0back	Block2	0back/STIM_012.jpg
1288.165	0.273	1	0back	Block2	0back/STIM_013.jpg
1291.555	0.613	1	0back	Block2	0back/STIM_013.jpg
1294.657	0.468	1	0back	Block2	0back/STIM_013.jpg
1299.089	0.528	1	0back	Block2	0back/STIM_014.jpg
1303.157	0.651	1	0back	Block2	0back/STIM_014.jpg
1307.046	0.582	0	0back	Block2	0back/STIM_014.jpg
1310.659	0.625	1	0back	Block2	0back/STIM_015.jpg
1313.852	0.517	1	0back	Block2	0back/STIM_015.jpg
1318.058	0.699	1	0back	Block2	0back/STIM_015.jpg
1321.764	0.451	1	0back	Block2	0back/STIM_016.jpg
1324.347	0.439	1	0back	Block2	0back/STIM_016.jpg
1328.599	0.434	1	0back	Block2	0back/STIM_016.jpg
1331.853	0.595	1	0back	Block2	0back/STIM_017.jpg
1336.274	0.378	1	0back	Block2	0back/STIM_017.jpg
1338.75	0.661	1	0back	Block2	0back/STIM_017.jpg
1343.179	0.596	1	0back	Block2	0back/STIM_018.jpg
1346.111	0.516	1	0back	Block2	0back/STIM_018.jpg
1349.113	0.476	1	0back	Block2	0back/STIM_018.jpg
1352.463	0.41	1	0back	Block2	0back/STIM_019.jpg
1356.522	0.554	1	0back	Block2	0back/STIM_019.jpg
1360.361	0.419	1	0back	Block2	0back/STIM_019.jpg
1364.179	0.492	1	2back	Block3	2back/STIM_000.jpg
1368.042	0.717	1	2back	Block3	2back/STIM_000.jpg
1372.324	0.724	1	2back	Block3	2back/STIM_000.jpg
1375.442	0.593	1	2back	Block3	2back/STIM_001.jpg
1379.269	0.766	1	2back	Block3	2back/STIM_001.jpg
1382.6	0.713	1	2back	Block3	2back/STIM_001.jpg
1386.963	0.824	1	2back	Block3	2back/STIM_002.jpg
1391.374	0.586	1	2back	Block3	2back/STIM_002.jpg
1394.739	0.888	1	2back	Block3	2back/STIM_002.jpg
1397.678	0.603	1	2back	Block3	2back/STIM_003.jpg
1401.083	0.9	1	2back	Block3	2back/STIM_003.jpg
1405.894	0.671	1	2back	Block3	2back/STIM_003.jpg
1410.439	0.499	1	2back	Block3	2back/STIM_004.jpg
1414.828	0.773	1	2back	Block3	2back/STIM_004.jpg
1418.115	0.447	1	2back	Block3	2back/STIM_004.jpg
1421.259	0.45	1	2back	Block3	2back/STIM_005.jpg
1423.91	0.789	1	2back	Block3	2back/STIM_005.jpg
1427.914	0.73	1	2back	Block3	2back/STIM_005.jpg
1431.46	0.52	1	2back	Block3	2back/STIM_006.jpg
1435.833	0.835	0	2back	Block3	2back/STIM_006.jpg
1440.017	0.705	1	2back	Block3	2back/STIM_006.jpg
1443.171	0.642	1	2back	Block3	2back/STIM_007.jpg
1447.77	0.756	1	2back	Block3	2back/STIM_007.jpg
1451.253	0.445	1	2back	Block3	2back/STIM_007.jpg
1454.132	0.66	1	2back	Block3	2back/STIM_008.jpg
1457.769	0.62	1	2back	Block3	2back/STIM_008.jpg
1461.33	0.438	1	2back	Block3	2back/STIM_008.jpg
1464.905	0.84	1	2back	Block3	2back/STIM_009.jpg
1468.463	0.645	1	2back	Block3	2back/STIM_009.jpg
1472.465	0.754	1	2back	Block3	2back/STIM_009.jpg
1476.403	0.575	1	2back	Block3	2back/STIM_010.jpg
1478.98	0.767	1	2back	Block3	2back/STIM_010.jpg
1482.907	0.893	1	2back	Block3	2back/STIM_010.jpg
1486.508	0.687	1	2back	Block3	2back/STIM_011.jpg
1489.874	0.519	1	2back	Block3	2back/STIM_011.jpg
1493.786	0.584	1	2back	Block3	2back/STIM_011.jpg
1496.876	0.695	1	2back	Block3	2back/STIM_012.jpg
1499.726	0.842	1	2back	Block3	2back/STIM_012.jpg
1503.448	0.525	1	2back	Block3	2back/STIM_012.jpg
1507.331	0.731	1	2back	Block3	2back/STIM_013.jpg
1510.472	0.868	1	2back	Block3	2back/STIM_013.jpg
1513.497	0.671	1	2back	Block3	2back/STIM_013.jpg
1516.234	0.394	1	2back	Block3	2back/STIM_014.jpg
1518.829	0.818	1	2back	Block3	2back/STIM_014.jpg
1523.521	0.499	0	2back	Block3	2back/STIM_014.jpg
1528.05	0.848	1	2back	Block3	2back/STIM_015.jpg
1531.954	0.59	1	2back	Block3	2back/STIM_015.jpg
1536.531	0.648	1	2back	Block3	2back/STIM_015.jpg
1539.326	0.508	1	2back	Block3	2back/STIM_016.jpg
1542.541	0.834	1	2back	Block3	2back/STIM_016.jpg
1545.469	0.673	1	2back	Block3	2back/STIM_016.jpg
1549.901	0.82	0	2back	Block3	2back/STIM_017.jpg
1554.186	0.673	1	2back	Block3	2back/STIM_017.jpg
1558.845	0.49	1	2back	Block3	2back/STIM_017.jpg
1561.664	0.805	1	2back	Block3	2back/STIM_018.jpg
1565.15	0.44	0	2back	Block3	2back/STIM_018.jpg
1569.248	0.633	1	2back	Block3	2back/STIM_018.jpg
1572.239	0.362	1	2back	Block3	2back/STIM_019.jpg
1575.88	0.556	1	2back	Block3	2back/STIM_019.jpg
1578.592	0.834	1	2back	Block3	2back/STIM_019.jpg
1582.521	0.682	1	2back	Block3	2back/STIM_020.jpg
1586.833	0.795	1	2back	Block3	2back/STIM_020.jpg
1591.249	0.809	1	2back	Block3	2back/STIM_020.jpg
1596.119	0.877	1	2back	Block3	2back/STIM_021.jpg
1600.482	0.68	1	2back	Block3	2back/STIM_021.jpg
1604.729	0.505	1	2back	Block3	2back/STIM_021.jpg
1608.502	0.638	1	2back	Block3	2back/STIM_022.jpg
1611.449	0.889	1	2back	Block3	2back/STIM_022.jpg
1614.591	0.699	1	2back	Block3	2back/STIM_022.jpg
1619.238	0.845	1	2back	Block3	2back/STIM_023.jpg
1623.129	0.54	1	2back	Block3	2back/STIM_023.jpg
1626.009	0.54	1	2back	Block3	2back/STIM_023.jpg
1628.63	0.386	1	2back	Block3	2back/STIM_024.jpg
1632.127	0.53	1	2back	Block3	2back/STIM_024.jpg
1635.688	0.913	1	2back	Block3	2back/STIM_024.jpg
1639.455	0.699	1	2back	Block3	2back/STIM_025.jpg
1642.678	0.366	1	2back	Block3	2back/STIM_025.jpg
1646.438	0.63	1	2back	Block3	2back/STIM_025.jpg
1650.89	0.479	1	2back	Block3	2back/STIM_026.jpg
1653.733	0.804	1	2back	Block3	2back/STIM_026.jpg
1657.468	0.455	1	2back	Block3	2back/STIM_026.jpg
1661.382	0.711	1	2back	Block3	2back/STIM_027.jpg
1666.209	0.547	1	2back	Block3	2back/STIM_027.jpg
1669.242	0.698	1	2back	Block3	2back/STIM_027.jpg
1672.818	0.888	1	2back	Block3	2back/STIM_028.jpg
1677.203	0.431	1	2back	Block3	2back/STIM_028.jpg
1679.835	0.61	1	2back	Block3	2back/STIM_028.jpg
1682.926	0.566	1	2back	Block3	2back/STIM_029.jpg
1686.715	0.347	1	2back	Block3	2back/STIM_029.jpg
1690.078	0.75	1	2back	Block3	2back/STIM_029.jpg
1693.852	0.426	1	2back	Block3	2back/STIM_030.jpg
1697.773	0.864	1	2back	Block3	2back/STIM_030.jpg
1702.531	0.496	1	2back	Block3	2back/STIM_030.jpg
1705.254	0.773	1	2back	Block3	2back/STIM_031.jpg
1709.451	0.819	1	2back	Block3	2back/STIM_031.jpg
1714.359	0.412	1	2back	Block3	2back/STIM_031.jpg
1717.047	0.382	1	2back	Block3	2back/STIM_032.jpg
1720.904	0.59	1	2back	Block3	2back/STIM_032.jpg
1724.377	0.59	1	2back	Block3	2back/STIM_032.jpg
1728.996	0.74	1	2back	Block3	2back/STIM_033.jpg
1733.171	0.518	1	2back	Block3	2back/STIM_033.jpg
1736.011	0.74	1	2back	Block3	2back/STIM_033.jpg
1740.562	0.826	1	2back	Block3	2back/STIM_034.jpg
1745.148	0.867	1	2back	Block3	2back/STIM_034.jpg
1748.227	0.545	1	2back	Block3	2back/STIM_034.jpg
1752.671	0.626	1	2back	Block3	2back/STIM_035.jpg
1755.858	0.831	1	2back	Block3	2back/STIM_035.jpg
1759.136	0.648	1	2back	Block3	2back/STIM_035.jpg
1763.593	0.643	1	2back	Block3	2back/STIM_036.jpg
1766.381	0.611	1	2back	Block3	2back/STIM_036.jpg
1770.759	0.847	1	2back	Block3	2back/STIM_036.jpg
1774.007	0.707	1	2back	Block3	2back/STIM_037.jpg
1778.069	0.731	1	2back	Block3	2back/STIM_037.jpg
1781.051	0.666	1	2back	Block3	2back/STIM_037.jpg
1784.48	0.543	1	2back	Block3	2back/STIM_038.jpg
1787.201	0.764	1	2back	Block3	2back/STIM_038.jpg
1790.597	0.707	1	2back	Block3	2back/STIM_038.jpg
1794.736	0.688	1	2back	Block3	2back/STIM_039.jpg
1799.119	0.76	1	2back	Block3	2back/STIM_039.jpg
1804.016	0.579	0	2back	Block3	2back/STIM_039.jpg
1807.054	0.713	1	0back	Block3	0back/STIM_000.jpg
1810.287	0.539	1	0back	Block3	0back/STIM_000.jpg
1814.232	0.674	1	0back	Block3	0back/STIM_000.jpg
1818.898	0.651	0	0back	Block3	0back/STIM_001.jpg
1822.077	0.539	0	0back	Block3	0back/STIM_001.jpg
1825.535	0.574	1	0back	Block3	0back/STIM_001.jpg
1828.497	0.511	1	0back	Block3	0back/STIM_002.jpg
1832.995	0.656	1	0back	Block3	0back/STIM_002.jpg
1836.249	0.321	1	0back	Block3	0back/STIM_002.jpg
1839.495	0.688	1	0back	Block3	0back/STIM_003.jpg
1843.951	0.352	1	0back	Block3	0back/STIM_003.jpg
1846.96	0.472	1	0back	Block3	0back/STIM_003.jpg
1851.031	0.664	1	0back	Block3	0back/STIM_004.jpg
1854.081	0.568	1	0back	Block3	0back/STIM_004.jpg
1858.277	0.673	1	0back	Block3	0back/STIM_004.jpg
1862.196	0.7	1	0back	Block3	0back/STIM_005.jpg
1866.573	0.386	1	0back	Block3	0back/STIM_005.jpg
1869.672	0.605	1	0back	Block3	0back/STIM_005.jpg
1873.35	0.576	1	0back	Block3	0back/STIM_006.jpg
1877.088	0.39	1	0back	Block3	0back/STIM_006.jpg
1881.235	0.549	1	0back	Block3	0back/STIM_006.jpg
1884.371	0.423	1	0back	Block3	0back/STIM_007.jpg
1887.668	0.407	1	0back	Block3	0back/STIM_007.jpg
1890.703	0.653	1	0back	Block3	0back/STIM_007.jpg
1893.776	0.538	1	0back	Block3	0back/STIM_008.jpg
1897.306	0.673	1	0back	Block3	0back/STIM_008.jpg
1901.916	0.524	1	0back	Block3	0back/STIM_008.jpg
1905.796	0.566	1	0back	Block3	0back/STIM_009.jpg
1910.001	0.364	1	0back	Block3	0back/STIM_009.jpg
1914.22	0.65	1	0back	Block3	0back/STIM_009.jpg
1917.075	0.624	1	0back	Block3	0back/STIM_010.jpg
1919.698	0.545	1	0back	Block3	0back/STIM_010.jpg
1923.338	0.348	1	0back	Block3	0back/STIM_010.jpg
1926.311	0.454	0	0back	Block3	0back/STIM_011.jpg
1930.132	0.806	1	0back	Block3	0back/STIM_011.jpg
1934.639	0.619	1	0back	Block3	0back/STIM_011.jpg
1937.399	0.476	1	0back	Block3	0back/STIM_012.jpg
1940.883	0.448	1	0back	Block3	0back/STIM_012.jpg
1945.216	0.51	1	0back	Block3	0back/STIM_012.jpg
1949.004	0.516	1	0back	Block3	0back/STIM_013.jpg
1951.659	0.695	0	0back	Block3	0back/STIM_013.jpg
1954.491	0.648	1	0back	Block3	0back/STIM_013.jpg
1959.013	0.421	1	0back	Block3	0back/STIM_014.jpg
1962.417	0.339	1	0back	Block3	0back/STIM_014.jpg
1964.938	0.494	1	0back	Block3	0back/STIM_014.jpg
1969.0	0.614	1	0back	Block3	0back/STIM_015.jpg
1972.378	0.62	0	0back	Block3	0back/STIM_015.jpg
1975.945	0.654	1	0back	Block3	0back/STIM_015.jpg
1979.373	0.414	1	0back	Block3	0back/STIM_016.jpg
1982.683	0.337	1	0back	Block3	0back/STIM_016.jpg
1986.954	0.702	1	0back	Block3	0back/STIM_016.jpg
1990.291	0.526	1	0back	Block3	0back/STIM_017.jpg
1993.112	0.478	1	0back	Block3	0back/STIM_017.jpg
1997.019	0.705	1	0back	Block3	0back/STIM_017.jpg
2000.792	0.426	1	0back	Block3	0back/STIM_018.jpg
2004.053	0.739	1	0back	Block3	0back/STIM_018.jpg
2008.157	0.499	1	0back	Block3	0back/STIM_018.jpg
2012.237	0.783	1	0back	Block3	0back/STIM_019.jpg
2015.365	0.488	1	0back	Block3	0back/STIM_019.jpg
2018.606	0.554	1	0back	Block3	0back/STIM_019.jpg
2022.638	0.76	0	2back	Block4	2back/STIM_000.jpg
2026.88	0.522	1	2back	Block4	2back/STIM_000.jpg
2030.996	0.451	1	2back	Block4	2back/STIM_000.jpg
2033.782	0.485	1	2back	Block4	2back/STIM_001.jpg
2037.969	0.717	1	2back	Block4	2back/STIM_001.jpg
2041.086	0.811	1	2back	Block4	2back/STIM_001.jpg
2044.474	0.808	1	2back	Block4	2back/STIM_002.jpg
2047.518	0.541	1	2back	Block4	2back/STIM_002.jpg
2050.741	0.782	1	2back	Block4	2back/STIM_002.jpg
2054.203	0.721	1	2back	Block4	2back/STIM_003.jpg
2057.345	0.528	1	2back	Block4	2back/STIM_003.jpg
2061.338	0.635	1	2back	Block4	2back/STIM_003.jpg
2065.083	0.804	1	2back	Block4	2back/STIM_004.jpg
2069.885	0.802	1	2back	Block4	2back/STIM_004.jpg
2073.24	0.503	1	2back	Block4	2back/STIM_004.jpg
2077.591	0.736	1	2back	Block4	2back/STIM_005.jpg
2080.721	0.419	1	2back	Block4	2back/STIM_005.jpg
2084.565	0.772	1	2back	Block4	2back/STIM_005.jpg
2089.334	0.774	1	2back	Block4	2back/STIM_006.jpg
2093.257	0.583	1	2back	Block4	2back/STIM_006.jpg
2096.085	0.758	1	2back	Block4	2back/STIM_006.jpg
2100.449	0.461	1	2back	Block4	2back/STIM_007.jpg
2103.243	0.839	1	2back	Block4	2back/STIM_007.jpg
2106.354	0.556	1	2back	Block4	2back/STIM_007.jpg
2109.335	0.383	1	2back	Block4	2back/STIM_008.jpg
2113.315	0.815	1	2back	Block4	2back/STIM_008.jpg
2117.14	0.867	1	2back	Block4	2back/STIM_008.jpg
2120.804	0.687	1	2back	Block4	2back/STIM_009.jpg
2123.647	0.51	1	2back	Block4	2back/STIM_009.jpg
2127.118	0.689	1	2back	Block4	2back/STIM_009.jpg
2130.061	0.703	1	2back	Block4	2back/STIM_010.jpg
2133.206	0.547	1	2back	Block4	2back/STIM_010.jpg
2136.027	0.448	1	2back	Block4	2back/STIM_010.jpg
2139.528	0.909	1	2back	Block4	2back/STIM_011.jpg
2143.789	0.544	1	2back	Block4	2back/STIM_011.jpg
2147.653	0.394	1	2back	Block4	2back/STIM_011.jpg
2150.804	0.747	1	2back	Block4	2back/STIM_012.jpg
2154.134	0.596	1	2back	Block4	2back/STIM_012.jpg
2158.46	0.563	1	2back	Block4	2back/STIM_012.jpg
2162.288	0.407	1	2back	Block4	2back/STIM_013.jpg
2165.35	0.505	1	2back	Block4	2back/STIM_013.jpg
2168.638	0.761	1	2back	Block4	2back/STIM_013.jpg
2171.543	0.843	1	2back	Block4	2back/STIM_014.jpg
2174.478	0.451	1	2back	Block4	2back/STIM_014.jpg
2177.387	0.553	1	2back	Block4	2back/STIM_014.jpg
2180.439	0.51	1	2back	Block4	2back/STIM_015.jpg
2183.8	0.458	1	2back	Block4	2back/STIM_015.jpg
2188.11	0.388	1	2back	Block4	2back/STIM_015.jpg
2191.714	0.855	1	2back	Block4	2back/STIM_016.jpg
2194.914	0.607	1	2back	Block4	2back/STIM_016.jpg
2198.669	0.433	1	2back	Block4	2back/STIM_016.jpg
2201.306	0.839	0	2back	Block4	2back/STIM_017.jpg
2205.615	0.46	1	2back	Block4	2back/STIM_017.jpg
2209.213	0.655	0	2back	Block4	2back/STIM_017.jpg
2212.945	0.565	1	2back	Block4	2back/STIM_018.jpg
2216.312	0.743	1	2back	Block4	2back/STIM_018.jpg
2219.618	0.809	1	2back	Block4	2back/STIM_018.jpg
2222.981	0.724	0	2back	Block4	2back/STIM_019.jpg
2226.749	0.907	1	2back	Block4	2back/STIM_019.jpg
2230.01	0.795	1	2back	Block4	2back/STIM_019.jpg
2234.395	0.839	1	2back	Block4	2back/STIM_020.jpg
2239.052	0.586	1	2back	Block4	2back/STIM_020.jpg
2242.711	0.861	1	2back	Block4	2back/STIM_020.jpg
2247.491	0.643	1	2back	Block4	2back/STIM_021.jpg
2251.127	0.644	1	2back	Block4	2back/STIM_021.jpg
2255.693	0.87	1	2back	Block4	2back/STIM_021.jpg
2259.715	0.566	1	2back	Block4	2back/STIM_022.jpg
2262.445	0.336	1	2back	Block4	2back/STIM_022.jpg
2265.796	0.611	1	2back	Block4	2back/STIM_022.jpg
2268.868	0.622	1	2back	Block4	2back/STIM_023.jpg
2272.35	0.685	1	2back	Block4	2back/STIM_023.jpg
2275.513	0.439	1	2back	Block4	2back/STIM_023.jpg
2279.399	0.398	1	2back	Block4	2back/STIM_024.jpg
2282.09	0.512	1	2back	Block4	2back/STIM_024.jpg
2286.175	0.802	1	2back	Block4	2back/STIM_024.jpg
2289.707	0.628	1	2back	Block4	2back/STIM_025.jpg
2294.315	0.579	1	2back	Block4	2back/STIM_025.jpg
2297.751	0.902	1	2back	Block4	2back/STIM_025.jpg
2301.146	0.63	1	2back	Block4	2back/STIM_026.jpg
2305.187	0.844	1	2back	Block4	2back/STIM_026.jpg
2308.682	0.62	1	2back	Block4	2back/STIM_026.jpg
2312.994	0.592	1	2back	Block4	2back/STIM_027.jpg
2316.061	0.905	0	2back	Block4	2back/STIM_027.jpg
2320.258	0.52	1	2back	Block4	2back/STIM_027.jpg
2323.378	0.834	0	2back	Block4	2back/STIM_028.jpg
2327.253	0.643	1	2back	Block4	2back/STIM_028.jpg
2330.982	0.502	1	2back	Block4	2back/STIM_028.jpg
2333.689	0.421	1	2back	Block4	2back/STIM_029.jpg
2337.631	0.427	1	2back	Block4	2back/STIM_029.jpg
2342.104	0.499	1	2back	Block4	2back/STIM_029.jpg
2345.259	0.822	1	2back	Block4	2back/STIM_030.jpg
2349.364	0.501	1	2back	Block4	2back/STIM_030.jpg
2353.189	0.626	1	2back	Block4	2back/STIM_030.jpg
2356.626	0.616	1	2back	Block4	2back/STIM_031.jpg
2360.973	0.454	1	2back	Block4	2back/STIM_031.jpg
2364.002	0.498	1	2back	Block4	2back/STIM_031.jpg
2367.768	0.771	1	2back	Block4	2back/STIM_032.jpg
2371.956	0.587	1	2back	Block4	2back/STIM_032.jpg
2375.638	0.368	1	2back	Block4	2back/STIM_032.jpg
2379.536	0.461	1	2back	Block4	2back/STIM_033.jpg
2383.26	0.641	1	2back	Block4	2back/STIM_033.jpg
2386.976	0.691	1	2back	Block4	2back/STIM_033.jpg
2390.152	0.816	1	2back	Block4	2back/STIM_034.jpg
2394.683	0.52	1	2back	Block4	2back/STIM_034.jpg
2397.394	0.681	1	2back	Block4	2back/STIM_034.jpg
2400.816	0.671	1	2back	Block4	2back/STIM_035.jpg
2403.703	0.763	1	2back	Block4	2back/STIM_035.jpg
2407.221	0.572	1	2back	Block4	2back/STIM_035.jpg
2410.75	0.609	1	2back	Block4	2back/STIM_036.jpg
2414.022	0.33	1	2back	Block4	2back/STIM_036.jpg
2417.435	0.507	1	2back	Block4	2back/STIM_036.jpg
2421.35	0.822	1	2back	Block4	2back/STIM_037.jpg
2424.642	0.462	1	2back	Block4	2back/STIM_037.jpg
2427.873	0.796	1	2back	Block4	2back/STIM_037.jpg
2432.375	0.347	1	2back	Block4	2back/STIM_038.jpg
2436.027	0.548	1	2back	Block4	2back/STIM_038.jpg
2439.871	0.931	1	2back	Block4	2back/STIM_038.jpg
2443.413	0.807	1	2back	Block4	2back/STIM_039.jpg
2447.024	0.801	1	2back	Block4	2back/STIM_039.jpg
2450.396	0.811	1	2back	Block4	2back/STIM_039.jpg
2455.003	0.531	1	0back	Block4	0back/STIM_000.jpg
2457.852	0.587	1	0back	Block4	0back/STIM_000.jpg
2461.83	0.737	1	0back	Block4	0back/STIM_000.jpg
2465.968	0.417	1	0back	Block4	0back/STIM_001.jpg
2470.191	0.658	1	0back	Block4	0back/STIM_001.jpg
2473.551	0.348	1	0back	Block4	0back/STIM_001.jpg
2477.027	0.826	1	0back	Block4	0back/STIM_002.jpg
2479.99	0.592	1	0back	Block4	0back/STIM_002.jpg
2482.697	0.581	1	0back	Block4	0back/STIM_002.jpg
2485.79	0.656	1	0back	Block4	0back/STIM_003.jpg
2488.698	0.392	1	0back	Block4	0back/STIM_003.jpg
2492.172	0.405	1	0back	Block4	0back/STIM_003.jpg
2495.446	0.541	1	0back	Block4	0back/STIM_004.jpg
2498.647	0.642	1	0back	Block4	0back/STIM_004.jpg
2502.209	0.609	1	0back	Block4	0back/STIM_004.jpg
2505.956	0.491	1	0back	Block4	0back/STIM_005.jpg
2509.068	0.661	1	0back	Block4	0back/STIM_005.jpg
2513.579	0.599	1	0back	Block4	0back/STIM_005.jpg
2517.66	0.443	0	0back	Block4	0back/STIM_006.jpg
2521.622	0.671	1	0back	Block4	0back/STIM_006.jpg
2525.367	0.436	1	0back	Block4	0back/STIM_006.jpg
2528.686	0.569	0	0back	Block4	0back/STIM_007.jpg
2532.782	0.692	1	0back	Block4	0back/STIM_007.jpg
2536.125	0.4	1	0back	Block4	0back/STIM_007.jpg
2538.707	0.473	1	0back	Block4	0back/STIM_008.jpg
2541.592	0.661	1	0back	Block4	0back/STIM_008.jpg
2546.031	0.457	1	0back	Block4	0back/STIM_008.jpg
2550.166	0.553	1	0back	Block4	0back/STIM_009.jpg
2553.521	0.732	1	0back	Block4	0back/STIM_009.jpg
2557.106	0.477	1	0back	Block4	0back/STIM_009.jpg
2560.851	0.604	1	0back	Block4	0back/STIM_010.jpg
2564.327	0.651	1	0back	Block4	0back/STIM_010.jpg
2567.666	0.552	1	0back	Block4	0back/STIM_010.jpg
2571.7	0.492	1	0back	Block4	0back/STIM_011.jpg
2575.657	0.459	1	0back	Block4	0back/STIM_011.jpg
2579.6	0.674	1	0back	Block4	0back/STIM_011.jpg
2582.995	0.526	1	0back	Block4	0back/STIM_012.jpg
2586.854	0.513	1	0back	Block4	0back/STIM_012.jpg
2590.109	0.345	0	0back	Block4	0back/STIM_012.jpg
2593.567	0.57	1	0back	Block4	0back/STIM_013.jpg
2597.478	0.582	1	0back	Block4	0back/STIM_013.jpg
2600.592	0.582	1	0back	Block4	0back/STIM_013.jpg
2604.744	0.542	1	0back	Block4	0back/STIM_014.jpg
2607.609	0.34	1	0back	Block4	0back/STIM_014.jpg
2610.329	0.579	1	0back	Block4	0back/STIM_014.jpg
2613.346	0.716	1	0back	Block4	0back/STIM_015.jpg
2617.559	0.701	1	0back	Block4	0back/STIM_015.jpg
2621.32	0.46	1	0back	Block4	0back/STIM_015.jpg
2625.114	0.428	1	0back	Block4	0back/STIM_016.jpg
2628.504	0.578	1	0back	Block4	0back/STIM_016.jpg
2631.707	0.739	1	0back	Block4	0back/STIM_016.jpg
2636.0	0.525	1	0back	Block4	0back/STIM_017.jpg
2639.862	0.615	1	0back	Block4	0back/STIM_017.jpg
2644.333	0.455	1	0back	Block4	0back/STIM_017.jpg
2647.809	0.726	1	0back	Block4	0back/STIM_018.jpg
2651.496	0.526	1	0back	Block4	0back/STIM_018.jpg
2654.668	0.568	1	0back	Block4	0back/STIM_018.jpg
2657.627	0.416	1	0back	Block4	0back/STIM_019.jpg
2661.982	0.647	1	0back	Block4	0back/STIM_019.jpg
2666.682	0.528	0	0back	Block4	0back/STIM_019.jpg
