onset	duration	accuracy	trial_type	learning_stage	stimulus
0.0	4.075	correct	navigation	Trial1	navigation/STIM_000.jpg
6.642	4.54	correct	navigation	Trial1	navigation/STIM_000.jpg
14.332	4.692	correct	navigation	Trial1	navigation/STIM_000.jpg
20.431	4.801	correct	navigation	Trial1	navigation/STIM_000.jpg
28.036	3.603	correct	navigation	Trial1	navigation/STIM_000.jpg
33.816	3.412	correct	navigation	Trial1	navigation/STIM_000.jpg
39.265	4.33	incorrect	navigation	Trial1	navigation/STIM_001.jpg
45.153	4.082	incorrect	navigation	Trial1	navigation/STIM_001.jpg
52.15	3.417	correct	navigation	Trial1	navigation/STIM_001.jpg
58.038	4.059	correct	navigation	Trial1	navigation/STIM_001.jpg
65.165	4.258	correct	navigation	Trial1	navigation/STIM_001.jpg
72.59	4.284	correct	navigation	Trial1	navigation/STIM_001.jpg
80.296	3.717	correct	navigation	Trial1	navigation/STIM_002.jpg
86.239	2.957	incorrect	navigation	Trial1	navigation/STIM_002.jpg
91.708	2.111	incorrect	navigation	Trial1	navigation/STIM_002.jpg
97.116	3.018	correct	navigation	Trial1	navigation/STIM_002.jpg
101.819	2.308	correct	navigation	Trial1	navigation/STIM_002.jpg
107.211	3.188	correct	navigation	Trial1	navigation/STIM_002.jpg
113.748	4.3	correct	navigation	Trial1	navigation/STIM_003.jpg
119.733	5.477	incorrect	navigation	Trial1	navigation/STIM_003.jpg
127.491	3.102	incorrect	navigation	Trial1	navigation/STIM_003.jpg
133.176	4.985	incorrect	navigation	Trial1	navigation/STIM_003.jpg
139.998	1.788	correct	navigation	Trial1	navigation/STIM_003.jpg
145.367	1.77	correct	navigation	Trial1	navigation/STIM_003.jpg
150.115	4.972	correct	navigation	Trial1	navigation/STIM_004.jpg
157.746	2.615	correct	navigation	Trial1	navigation/STIM_004.jpg
162.277	3.02	incorrect	navigation	Trial1	navigation/STIM_004.jpg
168.672	2.014	correct	navigation	Trial1	navigation/STIM_004.jpg
172.453	4.273	correct	navigation	Trial1	navigation/STIM_004.jpg
179.442	1.965	correct	navigation	Trial1	navigation/STIM_004.jpg
183.843	4.56	correct	navigation	Trial1	navigation/STIM_005.jpg
190.755	4.016	correct	navigation	Trial1	navigation/STIM_005.jpg
198.255	4.868	correct	navigation	Trial1	navigation/STIM_005.jpg
206.41	4.729	incorrect	navigation	Trial1	navigation/STIM_005.jpg
213.061	1.999	correct	navigation	Trial1	navigation/STIM_005.jpg
218.472	1.799	incorrect	navigation	Trial1	navigation/STIM_005.jpg
222.577	2.49	correct	navigation	Trial1	navigation/STIM_006.jpg
228.153	4.345	incorrect	navigation	Trial1	navigation/STIM_006.jpg
234.25	2.58	correct	navigation	Trial1	navigation/STIM_006.jpg
239.976	4.55	correct	navigation	Trial1	navigation/STIM_006.jpg
246.456	3.726	correct	navigation	Trial1	navigation/STIM_006.jpg
251.809	3.285	correct	navigation	Trial1	navigation/STIM_006.jpg
258.376	3.902	correct	navigation	Trial1	navigation/STIM_007.jpg
264.182	4.186	correct	navigation	Trial1	navigation/STIM_007.jpg
269.93	2.394	correct	navigation	Trial1	navigation/STIM_007.jpg
274.896	2.956	incorrect	navigation	Trial1	navigation/STIM_007.jpg
279.714	4.235	correct	navigation	Trial1	navigation/STIM_007.jpg
286.858	3.808	incorrect	navigation	Trial1	navigation/STIM_007.jpg
292.977	5.454	correct	navigation	Trial1	navigation/STIM_008.jpg
301.126	4.12	incorrect	navigation	Trial1	navigation/STIM_008.jpg
307.322	5.109	incorrect	navigation	Trial1	navigation/STIM_008.jpg
315.647	2.237	correct	navigation	Trial1	navigation/STIM_008.jpg
320.742	3.564	correct	navigation	Trial1	navigation/STIM_008.jpg
326.757	2.208	correct	navigation	Trial1	navigation/STIM_008.jpg
331.954	4.892	correct	navigation	Trial1	navigation/STIM_009.jpg
338.349	4.239	correct	navigation	Trial1	navigation/STIM_009.jpg
345.349	4.402	incorrect	navigation	Trial1	navigation/STIM_009.jpg
352.416	3.783	correct	navigation	Trial1	navigation/STIM_009.jpg
359.619	2.939	correct	navigation	Trial1	navigation/STIM_009.jpg
364.184	2.249	correct	navigation	Trial1	navigation/STIM_009.jpg
369.545	3.756	correct	navigation	Trial1	navigation/STIM_010.jpg
376.563	3.945	correct	navigation	Trial1	navigation/STIM_010.jpg
383.271	4.848	incorrect	navigation	Trial1	navigation/STIM_010.jpg
391.496	3.542	correct	navigation	Trial1	navigation/STIM_010.jpg
397.037	2.329	correct	navigation	Trial1	navigation/STIM_010.jpg
402.895	2.335	incorrect	navigation	Trial1	navigation/STIM_010.jpg
408.726	5.441	incorrect	navigation	Trial1	navigation/STIM_011.jpg
415.825	3.253	correct	navigation	Trial1	navigation/STIM_011.jpg
421.658	4.517	correct	navigation	Trial1	navigation/STIM_011.jpg
428.948	4.259	correct	navigation	Trial1	navigation/STIM_011.jpg
435.706	2.382	correct	navigation	Trial1	navigation/STIM_011.jpg
441.53	1.91	correct	navigation	Trial1	navigation/STIM_011.jpg
445.965	1.559	correct	pointing	Trial1	pointing/STIM_000.jpg
449.475	1.098	correct	pointing	Trial1	pointing/STIM_000.jpg
454.063	1.026	correct	pointing	Trial1	pointing/STIM_000.jpg
457.119	1.344	correct	pointing	Trial1	pointing/STIM_000.jpg
462.214	1.37	correct	pointing	Trial1	pointing/STIM_000.jpg
466.466	1.361	correct	pointing	Trial1	pointing/STIM_000.jpg
470.814	0.962	correct	pointing	Trial1	pointing/STIM_001.jpg
473.97	1.716	correct	pointing	Trial1	pointing/STIM_001.jpg
477.923	1.6	correct	pointing	Trial1	pointing/STIM_001.jpg
482.99	1.309	correct	pointing	Trial1	pointing/STIM_001.jpg
486.805	1.358	correct	pointing	Trial1	pointing/STIM_001.jpg
491.471	1.328	correct	pointing	Trial1	pointing/STIM_001.jpg
495.697	1.521	correct	pointing	Trial1	pointing/STIM_002.jpg
500.283	1.208	correct	pointing	Trial1	pointing/STIM_002.jpg
504.559	1.149	correct	pointing	Trial1	pointing/STIM_002.jpg
508.105	1.295	correct	pointing	Trial1	pointing/STIM_002.jpg
511.819	1.294	correct	pointing	Trial1	pointing/STIM_002.jpg
516.625	1.187	correct	pointing	Trial1	pointing/STIM_002.jpg
519.911	1.656	correct	pointing	Trial1	pointing/STIM_003.jpg
523.622	1.717	correct	pointing	Trial1	pointing/STIM_003.jpg
528.753	1.374	incorrect	pointing	Trial1	pointing/STIM_003.jpg
533.525	1.226	correct	pointing	Trial1	pointing/STIM_003.jpg
536.585	0.983	correct	pointing	Trial1	pointing/STIM_003.jpg
540.121	1.613	correct	pointing	Trial1	pointing/STIM_003.jpg
545.331	1.451	correct	pointing	Trial1	pointing/STIM_004.jpg
550.004	1.033	correct	pointing	Trial1	pointing/STIM_004.jpg
553.587	1.076	correct	pointing	Trial1	pointing/STIM_004.jpg
556.629	1.522	incorrect	pointing	Trial1	pointing/STIM_004.jpg
560.956	1.116	correct	pointing	Trial1	pointing/STIM_004.jpg
564.171	1.087	correct	pointing	Trial1	pointing/STIM_004.jpg
568.483	1.676	incorrect	pointing	Trial1	pointing/STIM_005.jpg
573.58	1.566	correct	pointing	Trial1	pointing/STIM_005.jpg
577.737	1.684	correct	pointing	Trial1	pointing/STIM_005.jpg
583.039	1.155	correct	pointing	Trial1	pointing/STIM_005.jpg
587.905	1.465	incorrect	pointing	Trial1	pointing/STIM_005.jpg
592.181	1.508	correct	pointing	Trial1	pointing/STIM_005.jpg
595.579	1.316	correct	pointing	Trial1	pointing/STIM_006.jpg
599.35	1.321	correct	pointing	Trial1	pointing/STIM_006.jpg
603.732	1.129	correct	pointing	Trial1	pointing/STIM_006.jpg
607.07	1.432	correct	pointing	Trial1	pointing/STIM_006.jpg
612.228	1.164	correct	pointing	Trial1	pointing/STIM_006.jpg
615.902	1.208	correct	pointing	Trial1	pointing/STIM_006.jpg
620.706	1.353	correct	pointing	Trial1	pointing/STIM_007.jpg
625.811	1.552	correct	pointing	Trial1	pointing/STIM_007.jpg
629.945	1.206	correct	pointing	Trial1	pointing/STIM_007.jpg
633.674	1.501	correct	pointing	Trial1	pointing/STIM_007.jpg
637.711	1.189	incorrect	pointing	Trial1	pointing/STIM_007.jpg
640.8	1.095	correct	pointing	Trial1	pointing/STIM_007.jpg
645.405	1.566	incorrect	pointing	Trial1	pointing/STIM_008.jpg
650.705	1.253	correct	pointing	Trial1	pointing/STIM_008.jpg
655.181	1.113	correct	pointing	Trial1	pointing/STIM_008.jpg
659.427	1.371	correct	pointing	Trial1	pointing/STIM_008.jpg
663.725	1.276	correct	pointing	Trial1	pointing/STIM_008.jpg
666.989	1.0	correct	pointing	Trial1	pointing/STIM_008.jpg
670.225	1.46	correct	pointing	Trial1	pointing/STIM_009.jpg
674.793	0.965	correct	pointing	Trial1	pointing/STIM_009.jpg
678.179	1.406	correct	pointing	Trial1	pointing/STIM_009.jpg
682.033	0.93	correct	pointing	Trial1	pointing/STIM_009.jpg
685.455	1.079	correct	pointing	Trial1	pointing/STIM_009.jpg
688.705	1.254	correct	pointing	Trial1	pointing/STIM_009.jpg
692.148	1.586	correct	pointing	Trial1	pointing/STIM_010.jpg
695.616	1.695	correct	pointing	Trial1	pointing/STIM_010.jpg
699.183	1.149	incorrect	pointing	Trial1	pointing/STIM_010.jpg
703.86	0.877	correct	pointing	Trial1	pointing/STIM_010.jpg
707.038	1.224	correct	pointing	Trial1	pointing/STIM_010.jpg
710.485	1.61	correct	pointing	Trial1	pointing/STIM_010.jpg
715.762	1.098	correct	pointing	Trial1	pointing/STIM_011.jpg
720.39	1.774	correct	pointing	Trial1	pointing/STIM_011.jpg
723.982	1.168	correct	pointing	Trial1	pointing/STIM_011.jpg
727.578	1.212	correct	pointing	Trial1	pointing/STIM_011.jpg
731.512	1.069	incorrect	pointing	Trial1	pointing/STIM_011.jpg
736.033	1.657	correct	pointing	Trial1	pointing/STIM_011.jpg
741.435	2.832	incorrect	navigation	Trial2	navigation/STIM_000.jpg
747.369	4.189	correct	navigation	Trial2	navigation/STIM_000.jpg
754.779	3.553	correct	navigation	Trial2	navigation/STIM_000.jpg
761.051	2.746	correct	navigation	Trial2	navigation/STIM_000.jpg
765.683	4.035	incorrect	navigation	Trial2	navigation/STIM_000.jpg
772.414	3.68	correct	navigation	Trial2	navigation/STIM_000.jpg
779.524	3.464	correct	navigation	Trial2	navigation/STIM_001.jpg
785.128	2.741	correct	navigation	Trial2	navigation/STIM_001.jpg
789.466	2.585	incorrect	navigation	Trial2	navigation/STIM_001.jpg
794.427	3.657	correct	navigation	Trial2	navigation/STIM_001.jpg
800.232	2.743	correct	navigation	Trial2	navigation/STIM_001.jpg
804.728	3.3	correct	navigation	Trial2	navigation/STIM_001.jpg
810.658	2.961	incorrect	navigation	Trial2	navigation/STIM_002.jpg
815.825	3.178	incorrect	navigation	Trial2	navigation/STIM_002.jpg
822.591	3.573	incorrect	navigation	Trial2	navigation/STIM_002.jpg
827.743	2.179	correct	navigation	Trial2	navigation/STIM_002.jpg
831.799	1.81	incorrect	navigation	Trial2	navigation/STIM_002.jpg
836.53	2.344	correct	navigation	Trial2	navigation/STIM_002.jpg
841.047	4.055	correct	navigation	Trial2	navigation/STIM_003.jpg
847.196	3.105	correct	navigation	Trial2	navigation/STIM_003.jpg
852.393	3.38	correct	navigation	Trial2	navigation/STIM_003.jpg
857.885	2.718	incorrect	navigation	Trial2	navigation/STIM_003.jpg
863.938	3.954	correct	navigation	Trial2	navigation/STIM_003.jpg
869.924	3.513	correct	navigation	Trial2	navigation/STIM_003.jpg
875.848	3.816	correct	navigation	Trial2	navigation/STIM_004.jpg
882.276	2.538	correct	navigation	Trial2	navigation/STIM_004.jpg
888.48	1.9	correct	navigation	Trial2	navigation/STIM_004.jpg
893.312	3.518	correct	navigation	Trial2	navigation/STIM_004.jpg
898.516	3.422	incorrect	navigation	Trial2	navigation/STIM_004.jpg
903.54	1.826	correct	navigation	Trial2	navigation/STIM_004.jpg
907.595	2.507	incorrect	navigation	Trial2	navigation/STIM_005.jpg
913.503	3.529	correct	navigation	Trial2	navigation/STIM_005.jpg
919.408	3.447	correct	navigation	Trial2	navigation/STIM_005.jpg
925.036	1.678	correct	navigation	Trial2	navigation/STIM_005.jpg
929.075	2.692	correct	navigation	Trial2	navigation/STIM_005.jpg
933.707	2.157	correct	navigation	Trial2	navigation/STIM_005.jpg
938.536	2.206	correct	navigation	Trial2	navigation/STIM_006.jpg
943.768	1.963	incorrect	navigation	Trial2	navigation/STIM_006.jpg
947.684	1.905	correct	navigation	Trial2	navigation/STIM_006.jpg
951.913	3.726	correct	navigation	Trial2	navigation/STIM_006.jpg
958.855	3.374	correct	navigation	Trial2	navigation/STIM_006.jpg
964.317	3.76	correct	navigation	Trial2	navigation/STIM_006.jpg
969.632	2.889	correct	navigation	Trial2	navigation/STIM_007.jpg
975.187	3.586	incorrect	navigation	Trial2	navigation/STIM_007.jpg
981.034	3.38	incorrect	navigation	Trial2	navigation/STIM_007.jpg
986.992	2.403	correct	navigation	Trial2	navigation/STIM_007.jpg
991.817	1.991	correct	navigation	Trial2	navigation/STIM_007.jpg
996.16	1.69	incorrect	navigation	Trial2	navigation/STIM_007.jpg
999.973	2.758	correct	navigation	Trial2	navigation/STIM_008.jpg
1005.706	4.241	correct	navigation	Trial2	navigation/STIM_008.jpg
1013.387	2.841	correct	navigation	Trial2	navigation/STIM_008.jpg
1018.769	2.986	correct	navigation	Trial2	navigation/STIM_008.jpg
1023.985	2.217	incorrect	navigation	Trial2	navigation/STIM_008.jpg
1028.5	2.789	correct	navigation	Trial2	navigation/STIM_008.jpg
1034.377	4.627	correct	navigation	Trial2	navigation/STIM_009.jpg
1042.148	2.208	incorrect	navigation	Trial2	navigation/STIM_009.jpg
1047.866	2.558	correct	navigation	Trial2	navigation/STIM_009.jpg
1053.508	3.286	correct	navigation	Trial2	navigation/STIM_009.jpg
1059.271	3.369	correct	navigation	Trial2	navigation/STIM_009.jpg
1065.6	3.982	correct	navigation	Trial2	navigation/STIM_009.jpg
1072.397	3.28	correct	navigation	Trial2	navigation/STIM_010.jpg
1078.358	3.208	correct	navigation	Trial2	navigation/STIM_010.jpg
1083.44	3.877	correct	navigation	Trial2	navigation/STIM_010.jpg
1089.449	1.922	incorrect	navigation	Trial2	navigation/STIM_010.jpg
1093.623	3.421	correct	navigation	Trial2	navigation/STIM_010.jpg
1100.544	2.961	correct	navigation	Trial2	navigation/STIM_010.jpg
1105.909	4.036	correct	navigation	Trial2	navigation/STIM_011.jpg
1113.136	3.944	correct	navigation	Trial2	navigation/STIM_011.jpg
1119.696	2.352	correct	navigation	Trial2	navigation/STIM_011.jpg
1125.412	2.194	correct	navigation	Trial2	navigation/STIM_011.jpg
1131.057	3.176	incorrect	navigation	Trial2	navigation/STIM_011.jpg
1136.969	3.612	correct	navigation	Trial2	navigation/STIM_011.jpg
1142.95	1.505	correct	pointing	Trial2	pointing/STIM_000.jpg
1147.166	1.246	correct	pointing	Trial2	pointing/STIM_000.jpg
1150.57	1.017	correct	pointing	Trial2	pointing/STIM_000.jpg
1153.714	1.21	correct	pointing	Trial2	pointing/STIM_000.jpg
1157.0	1.217	correct	pointing	Trial2	pointing/STIM_000.jpg
1160.097	1.51	correct	pointing	Trial2	pointing/STIM_000.jpg
1164.048	1.656	correct	pointing	Trial2	pointing/STIM_001.jpg
1168.268	1.164	correct	pointing	Trial2	pointing/STIM_001.jpg
1171.407	1.129	correct	pointing	Trial2	pointing/STIM_001.jpg
1175.917	1.672	correct	pointing	Trial2	pointing/STIM_001.jpg
1181.276	1.595	correct	pointing	Trial2	pointing/STIM_001.jpg
1185.644	1.182	correct	pointing	Trial2	pointing/STIM_001.jpg
1190.129	1.022	incorrect	pointing	Trial2	pointing/STIM_002.jpg
1194.754	0.99	correct	pointing	Trial2	pointing/STIM_002.jpg
1198.183	1.384	correct	pointing	Trial2	pointing/STIM_002.jpg
1202.576	1.244	correct	pointing	Trial2	pointing/STIM_002.jpg
1205.938	1.348	correct	pointing	Trial2	pointing/STIM_002.jpg
1209.877	1.266	correct	pointing	Trial2	pointing/STIM_002.jpg
1213.492	1.791	correct	pointing	Trial2	pointing/STIM_003.jpg
1218.15	1.431	correct	pointing	Trial2	pointing/STIM_003.jpg
1221.408	1.344	correct	pointing	Trial2	pointing/STIM_003.jpg
1225.833	1.565	correct	pointing	Trial2	pointing/STIM_003.jpg
1230.451	1.064	correct	pointing	Trial2	pointing/STIM_003.jpg
1234.226	1.581	correct	pointing	Trial2	pointing/STIM_003.jpg
1239.537	1.084	correct	pointing	Trial2	pointing/STIM_004.jpg
1242.644	1.249	correct	pointing	Trial2	pointing/STIM_004.jpg
1247.208	1.001	correct	pointing	Trial2	pointing/STIM_004.jpg
1251.957	0.972	correct	pointing	Trial2	pointing/STIM_004.jpg
1254.984	1.378	correct	pointing	Trial2	pointing/STIM_004.jpg
1258.215	1.582	correct	pointing	Trial2	pointing/STIM_004.jpg
1263.521	0.991	correct	pointing	Trial2	pointing/STIM_005.jpg
1267.8	0.986	correct	pointing	Trial2	pointing/STIM_005.jpg
1270.897	1.036	correct	pointing	Trial2	pointing/STIM_005.jpg
1274.661	1.302	correct	pointing	Trial2	pointing/STIM_005.jpg
1278.026	0.937	correct	pointing	Trial2	pointing/STIM_005.jpg
1282.603	1.476	correct	pointing	Trial2	pointing/STIM_005.jpg
1285.919	1.195	correct	pointing	Trial2	pointing/STIM_006.jpg
1290.082	1.035	correct	pointing	Trial2	pointing/STIM_006.jpg
1294.086	1.654	correct	pointing	Trial2	pointing/STIM_006.jpg
1298.933	1.54	correct	pointing	Trial2	pointing/STIM_006.jpg
1302.666	1.111	correct	pointing	Trial2	pointing/STIM_006.jpg
1307.225	1.382	correct	pointing	Trial2	pointing/STIM_006.jpg
1310.663	1.708	correct	pointing	Trial2	pointing/STIM_007.jpg
1315.756	1.723	correct	pointing	Trial2	pointing/STIM_007.jpg
1320.223	1.568	correct	pointing	Trial2	pointing/STIM_007.jpg
1323.99	1.672	correct	pointing	Trial2	pointing/STIM_007.jpg
1328.294	0.884	correct	pointing	Trial2	pointing/STIM_007.jpg
1331.348	1.405	incorrect	pointing	Trial2	pointing/STIM_007.jpg
1336.521	1.639	correct	pointing	Trial2	pointing/STIM_008.jpg
1340.242	1.044	correct	pointing	Trial2	pointing/STIM_008.jpg
1344.872	1.02	correct	pointing	Trial2	pointing/STIM_008.jpg
1348.451	1.346	correct	pointing	Trial2	pointing/STIM_008.jpg
1353.394	1.489	correct	pointing	Trial2	pointing/STIM_008.jpg
1357.042	1.46	incorrect	pointing	Trial2	pointing/STIM_008.jpg
1361.776	1.692	correct	pointing	Trial2	pointing/STIM_009.jpg
1367.087	1.637	correct	pointing	Trial2	pointing/STIM_009.jpg
1371.395	1.569	correct	pointing	Trial2	pointing/STIM_009.jpg
1375.431	1.13	correct	pointing	Trial2	pointing/STIM_009.jpg
1380.111	1.019	incorrect	pointing	Trial2	pointing/STIM_009.jpg
1383.239	0.94	correct	pointing	Trial2	pointing/STIM_009.jpg
1387.279	1.044	correct	pointing	Trial2	pointing/STIM_010.jpg
1391.46	1.521	incorrect	pointing	Trial2	pointing/STIM_010.jpg
1396.332	1.086	correct	pointing	Trial2	pointing/STIM_010.jpg
1399.637	1.274	incorrect	pointing	Trial2	pointing/STIM_010.jpg
1402.913	1.139	correct	pointing	Trial2	pointing/STIM_010.jpg
1407.683	1.372	correct	pointing	Trial2	pointing/STIM_010.jpg
1411.632	1.166	correct	pointing	Trial2	pointing/STIM_011.jpg
1416.028	1.393	correct	pointing	Trial2	pointing/STIM_011.jpg
1419.495	1.269	correct	pointing	Trial2	pointing/STIM_011.jpg
1423.66	1.366	correct	pointing	Trial2	pointing/STIM_011.jpg
1426.867	1.445	correct	pointing	Trial2	pointing/STIM_011.jpg
1431.91	1.202	correct	pointing	Trial2	pointing/STIM_011.jpg
1435.821	2.692	correct	navigation	Trial3	navigation/STIM_000.jpg
1441.326	1.645	correct	navigation	Trial3	navigation/STIM_000.jpg
1445.771	2.932	correct	navigation	Trial3	navigation/STIM_000.jpg
1450.564	2.761	incorrect	navigation	Trial3	navigation/STIM_000.jpg
1456.55	2.449	correct	navigation	Trial3	navigation/STIM_000.jpg
1461.981	3.524	correct	navigation	Trial3	navigation/STIM_000.jpg
1468.977	2.51	incorrect	navigation	Trial3	navigation/STIM_001.jpg
1474.932	3.705	correct	navigation	Trial3	navigation/STIM_001.jpg
1480.324	1.776	correct	navigation	Trial3	navigation/STIM_001.jpg
1484.613	3.726	correct	navigation	Trial3	navigation/STIM_001.jpg
1490.757	1.784	correct	navigation	Trial3	navigation/STIM_001.jpg
1495.197	3.237	correct	navigation	Trial3	navigation/STIM_001.jpg
1500.025	3.427	correct	navigation	Trial3	navigation/STIM_002.jpg
1505.594	2.6	correct	navigation	Trial3	navigation/STIM_002.jpg
1510.072	2.002	correct	navigation	Trial3	navigation/STIM_002.jpg
1515.247	3.845	correct	navigation	Trial3	navigation/STIM_002.jpg
1522.568	1.888	correct	navigation	Trial3	navigation/STIM_002.jpg
1528.215	2.851	correct	navigation	Trial3	navigation/STIM_002.jpg
1532.806	3.301	correct	navigation	Trial3	navigation/STIM_003.jpg
1539.203	3.904	correct	navigation	Trial3	navigation/STIM_003.jpg
1545.553	2.095	correct	navigation	Trial3	navigation/STIM_003.jpg
1549.684	3.78	correct	navigation	Trial3	navigation/STIM_003.jpg
1556.508	2.705	correct	navigation	Trial3	navigation/STIM_003.jpg
1562.859	2.008	correct	navigation	Trial3	navigation/STIM_003.jpg
1568.472	3.496	correct	navigation	Trial3	navigation/STIM_004.jpg
1574.238	1.902	correct	navigation	Trial3	navigation/STIM_004.jpg
1578.675	2.371	correct	navigation	Trial3	navigation/STIM_004.jpg
1583.27	1.82	correct	navigation	Trial3	navigation/STIM_004.jpg
1587.138	2.758	correct	navigation	Trial3	navigation/STIM_004.jpg
1592.21	3.998	incorrect	navigation	Trial3	navigation/STIM_004.jpg
1597.675	2.126	correct	navigation	Trial3	navigation/STIM_005.jpg
1601.67	2.127	correct	navigation	Trial3	navigation/STIM_005.jpg
1607.123	2.044	correct	navigation	Trial3	navigation/STIM_005.jpg
1612.289	2.356	correct	navigation	Trial3	navigation/STIM_005.jpg
1617.255	1.689	correct	navigation	Trial3	navigation/STIM_005.jpg
1622.238	2.567	correct	navigation	Trial3	navigation/STIM_005.jpg
1626.702	1.919	incorrect	navigation	Trial3	navigation/STIM_006.jpg
1632.105	3.331	correct	navigation	Trial3	navigation/STIM_006.jpg
1638.258	2.28	correct	navigation	Trial3	navigation/STIM_006.jpg
1643.402	2.947	correct	navigation	Trial3	navigation/STIM_006.jpg
1649.07	2.525	correct	navigation	Trial3	navigation/STIM_006.jpg
1654.757	3.547	correct	navigation	Trial3	navigation/STIM_006.jpg
1661.008	2.464	incorrect	navigation	Trial3	navigation/STIM_007.jpg
1666.691	1.911	correct	navigation	Trial3	navigation/STIM_007.jpg
1672.237	3.124	incorrect	navigation	Trial3	navigation/STIM_007.jpg
1677.477	2.187	correct	navigation	Trial3	navigation/STIM_007.jpg
1681.513	3.724	correct	navigation	Trial3	navigation/STIM_007.jpg
1687.917	1.866	correct	navigation	Trial3	navigation/STIM_007.jpg
1691.542	3.654	correct	navigation	Trial3	navigation/STIM_008.jpg
1696.909	3.951	correct	navigation	Trial3	navigation/STIM_008.jpg
1703.237	3.391	correct	navigation	Trial3	navigation/STIM_008.jpg
1709.198	2.837	correct	navigation	Trial3	navigation/STIM_008.jpg
1713.723	3.109	correct	navigation	Trial3	navigation/STIM_008.jpg
1719.3	2.181	correct	navigation	Trial3	navigation/STIM_008.jpg
1724.76	2.671	correct	navigation	Trial3	navigation/STIM_009.jpg
1730.517	3.364	correct	navigation	Trial3	navigation/STIM_009.jpg
1735.649	2.268	correct	navigation	Trial3	navigation/STIM_009.jpg
1739.857	3.536	incorrect	navigation	Trial3	navigation/STIM_009.jpg
1746.06	3.801	correct	navigation	Trial3	navigation/STIM_009.jpg
1752.636	2.96	correct	navigation	Trial3	navigation/STIM_009.jpg
1758.059	1.919	correct	navigation	Trial3	navigation/STIM_010.jpg
1762.782	2.946	correct	navigation	Trial3	navigation/STIM_010.jpg
1767.638	3.839	correct	navigation	Trial3	navigation/STIM_010.jpg
1774.257	3.417	correct	navigation	Trial3	navigation/STIM_010.jpg
1779.651	2.425	correct	navigation	Trial3	navigation/STIM_010.jpg
1783.923	2.728	incorrect	navigation	Trial3	navigation/STIM_010.jpg
1788.264	3.443	correct	navigation	Trial3	navigation/STIM_011.jpg
1794.066	2.718	correct	navigation	Trial3	navigation/STIM_011.jpg
1799.331	1.724	correct	navigation	Trial3	navigation/STIM_011.jpg
1803.313	3.83	correct	navigation	Trial3	navigation/STIM_011.jpg
1809.464	2.518	correct	navigation	Trial3	navigation/STIM_011.jpg
1814.512	3.2	correct	navigation	Trial3	navigation/STIM_011.jpg
1820.558	1.064	correct	pointing	Trial3	pointing/STIM_000.jpg
1825.064	1.545	correct	pointing	Trial3	pointing/STIM_000.jpg
1830.218	1.502	correct	pointing	Trial3	pointing/STIM_000.jpg
1834.035	1.3	correct	pointing	Trial3	pointing/STIM_000.jpg
1838.175	1.426	correct	pointing	Trial3	pointing/STIM_000.jpg
1842.339	1.664	correct	pointing	Trial3	pointing/STIM_000.jpg
1846.952	1.392	incorrect	pointing	Trial3	pointing/STIM_001.jpg
1850.867	1.656	correct	pointing	Trial3	pointing/STIM_001.jpg
1855.509	1.353	correct	pointing	Trial3	pointing/STIM_001.jpg
1859.874	1.105	correct	pointing	Trial3	pointing/STIM_001.jpg
1864.267	1.45	correct	pointing	Trial3	pointing/STIM_001.jpg
1867.837	1.398	correct	pointing	Trial3	pointing/STIM_001.jpg
1872.479	1.305	correct	pointing	Trial3	pointing/STIM_002.jpg
1876.108	1.424	correct	pointing	Trial3	pointing/STIM_002.jpg
1880.281	1.161	correct	pointing	Trial3	pointing/STIM_002.jpg
1884.716	1.595	correct	pointing	Trial3	pointing/STIM_002.jpg
1888.213	1.398	correct	pointing	Trial3	pointing/STIM_002.jpg
1891.564	1.035	correct	pointing	Trial3	pointing/STIM_002.jpg
1895.238	1.254	correct	pointing	Trial3	pointing/STIM_003.jpg
1898.81	1.552	correct	pointing	Trial3	pointing/STIM_003.jpg
1902.888	1.157	correct	pointing	Trial3	pointing/STIM_003.jpg
1907.867	1.402	correct	pointing	Trial3	pointing/STIM_003.jpg
1911.773	1.092	correct	pointing	Trial3	pointing/STIM_003.jpg
1914.925	1.041	correct	pointing	Trial3	pointing/STIM_003.jpg
1918.395	1.08	correct	pointing	Trial3	pointing/STIM_004.jpg
1922.571	1.36	correct	pointing	Trial3	pointing/STIM_004.jpg
1927.546	0.875	correct	pointing	Trial3	pointing/STIM_004.jpg
1931.495	1.336	correct	pointing	Trial3	pointing/STIM_004.jpg
1935.123	1.235	correct	pointing	Trial3	pointing/STIM_004.jpg
1938.602	1.55	correct	pointing	Trial3	pointing/STIM_004.jpg
1942.842	1.3	correct	pointing	Trial3	pointing/STIM_005.jpg
1946.522	1.688	correct	pointing	Trial3	pointing/STIM_005.jpg
1950.672	1.198	correct	pointing	Trial3	pointing/STIM_005.jpg
1953.945	1.439	correct	pointing	Trial3	pointing/STIM_005.jpg
1958.304	1.455	correct	pointing	Trial3	pointing/STIM_005.jpg
1963.161	1.624	correct	pointing	Trial3	pointing/STIM_005.jpg
1968.039	1.707	correct	pointing	Trial3	pointing/STIM_006.jpg
1973.324	1.517	correct	pointing	Trial3	pointing/STIM_006.jpg
1977.741	1.343	correct	pointing	Trial3	pointing/STIM_006.jpg
1982.945	1.703	correct	pointing	Trial3	pointing/STIM_006.jpg
1987.75	1.041	correct	pointing	Trial3	pointing/STIM_006.jpg
1992.308	0.862	correct	pointing	Trial3	pointing/STIM_006.jpg
1995.572	1.277	correct	pointing	Trial3	pointing/STIM_007.jpg
2000.549	1.024	correct	pointing	Trial3	pointing/STIM_007.jpg
2004.318	1.201	correct	pointing	Trial3	pointing/STIM_007.jpg
2009.086	1.681	correct	pointing	Trial3	pointing/STIM_007.jpg
2014.493	1.06	correct	pointing	Trial3	pointing/STIM_007.jpg
2018.506	1.581	correct	pointing	Trial3	pointing/STIM_007.jpg
2023.074	1.155	correct	pointing	Trial3	pointing/STIM_008.jpg
2027.809	1.566	correct	pointing	Trial3	pointing/STIM_008.jpg
2031.638	1.22	correct	pointing	Trial3	pointing/STIM_008.jpg
2035.126	1.214	correct	pointing	Trial3	pointing/STIM_008.jpg
2038.519	1.654	correct	pointing	Trial3	pointing/STIM_008.jpg
2043.76	1.301	correct	pointing	Trial3	pointing/STIM_008.jpg
2047.228	1.521	correct	pointing	Trial3	pointing/STIM_009.jpg
2051.181	1.372	correct	pointing	Trial3	pointing/STIM_009.jpg
2055.237	1.214	incorrect	pointing	Trial3	pointing/STIM_009.jpg
2059.799	1.738	correct	pointing	Trial3	pointing/STIM_009.jpg
2065.117	1.446	correct	pointing	Trial3	pointing/STIM_009.jpg
2068.767	1.605	correct	pointing	Trial3	pointing/STIM_009.jpg
2073.66	0.965	correct	pointing	Trial3	pointing/STIM_010.jpg
2077.668	1.423	correct	pointing	Trial3	pointing/STIM_010.jpg
2082.785	1.089	correct	pointing	Trial3	pointing/STIM_010.jpg
2087.668	1.256	correct	pointing	Trial3	pointing/STIM_010.jpg
2090.757	1.143	correct	pointing	Trial3	pointing/STIM_010.jpg
2095.754	1.022	incorrect	pointing	Trial3	pointing/STIM_010.jpg
2100.452	1.716	correct	pointing	Trial3	pointing/STIM_011.jpg
2104.95	1.566	correct	pointing	Trial3	pointing/STIM_011.jpg
2108.852	1.544	correct	pointing	Trial3	pointing/STIM_011.jpg
2113.153	1.019	correct	pointing	Trial3	pointing/STIM_011.jpg
2116.965	1.48	correct	pointing	Trial3	pointing/STIM_011.jpg
2120.42	1.12	correct	pointing	Trial3	pointing/STIM_011.jpg
