onset	duration	accuracy_binary	trial_type	learning_stage	stimulus
0.0	2.321	1	navigation	Trial1	navigation/STIM_000.jpg
6.207	3.345	1	navigation	Trial1	navigation/STIM_000.jpg
12.753	2.702	0	navigation	Trial1	navigation/STIM_000.jpg
19.087	3.56	1	navigation	Trial1	navigation/STIM_000.jpg
25.685	3.903	1	navigation	Trial1	navigation/STIM_000.jpg
31.986	3.875	1	navigation	Trial1	navigation/STIM_000.jpg
39.225	3.722	0	navigation	Trial1	navigation/STIM_001.jpg
45.783	4.874	0	navigation	Trial1	navigation/STIM_001.jpg
53.19	3.278	1	navigation	Trial1	navigation/STIM_001.jpg
59.033	2.608	0	navigation	Trial1	navigation/STIM_001.jpg
65.047	3.11	0	navigation	Trial1	navigation/STIM_001.jpg
71.698	1.806	1	navigation	Trial1	navigation/STIM_001.jpg
76.369	3.305	1	navigation	Trial1	navigation/STIM_002.jpg
83.4	2.09	0	navigation	Trial1	navigation/STIM_002.jpg
89.22	4.684	0	navigation	Trial1	navigation/STIM_002.jpg
96.398	4.274	1	navigation	Trial1	navigation/STIM_002.jpg
103.725	2.182	1	navigation	Trial1	navigation/STIM_002.jpg
109.625	1.65	0	navigation	Trial1	navigation/STIM_002.jpg
115.092	4.179	1	navigation	Trial1	navigation/STIM_003.jpg
122.032	4.847	0	navigation	Trial1	navigation/STIM_003.jpg
130.236	2.64	0	navigation	Trial1	navigation/STIM_003.jpg
135.352	1.981	0	navigation	Trial1	navigation/STIM_003.jpg
140.573	3.515	1	navigation	Trial1	navigation/STIM_003.jpg
146.698	3.571	1	navigation	Trial1	navigation/STIM_003.jpg
153.397	2.906	1	navigation	Trial1	navigation/STIM_004.jpg
159.224	3.758	1	navigation	Trial1	navigation/STIM_004.jpg
165.196	4.169	0	navigation	Trial1	navigation/STIM_004.jpg
171.538	3.587	1	navigation	Trial1	navigation/STIM_004.jpg
177.588	3.099	1	navigation	Trial1	navigation/STIM_004.jpg
183.968	2.346	0	navigation	Trial1	navigation/STIM_004.jpg
189.019	2.638	1	navigation	Trial1	navigation/STIM_005.jpg
194.813	4.696	0	navigation	Trial1	navigation/STIM_005.jpg
202.142	2.603	0	navigation	Trial1	navigation/STIM_005.jpg
207.798	4.127	0	navigation	Trial1	navigation/STIM_005.jpg
215.398	1.803	1	navigation	Trial1	navigation/STIM_005.jpg
220.295	1.657	0	navigation	Trial1	navigation/STIM_005.jpg
224.537	4.382	1	navigation	Trial1	navigation/STIM_006.jpg
232.257	3.152	0	navigation	Trial1	navigation/STIM_006.jpg
237.982	3.817	1	navigation	Trial1	navigation/STIM_006.jpg
245.504	2.609	1	navigation	Trial1	navigation/STIM_006.jpg
251.022	3.726	1	navigation	Trial1	navigation/STIM_006.jpg
256.763	2.115	1	navigation	Trial1	navigation/STIM_006.jpg
261.559	2.642	1	navigation	Trial1	navigation/STIM_007.jpg
267.364	2.945	1	navigation	Trial1	navigation/STIM_007.jpg
273.037	3.023	1	navigation	Trial1	navigation/STIM_007.jpg
278.693	3.039	0	navigation	Trial1	navigation/STIM_007.jpg
285.05	1.987	0	navigation	Trial1	navigation/STIM_007.jpg
290.667	2.842	0	navigation	Trial1	navigation/STIM_007.jpg
296.402	4.254	0	navigation	Trial1	navigation/STIM_008.jpg
304.146	3.188	0	navigation	Trial1	navigation/STIM_008.jpg
310.978	3.189	0	navigation	Trial1	navigation/STIM_008.jpg
317.011	2.899	1	navigation	Trial1	navigation/STIM_008.jpg
323.746	3.685	1	navigation	Trial1	navigation/STIM_008.jpg
330.348	2.936	1	navigation	Trial1	navigation/STIM_008.jpg
336.142	2.692	1	navigation	Trial1	navigation/STIM_009.jpg
341.092	3.819	0	navigation	Trial1	navigation/STIM_009.jpg
348.28	2.113	0	navigation	Trial1	navigation/STIM_009.jpg
353.116	3.743	1	navigation	Trial1	navigation/STIM_009.jpg
359.895	3.059	1	navigation	Trial1	navigation/STIM_009.jpg
365.028	1.881	1	navigation	Trial1	navigation/STIM_009.jpg
369.041	2.645	1	navigation	Trial1	navigation/STIM_010.jpg
373.98	2.722	1	navigation	Trial1	navigation/STIM_010.jpg
379.296	3.178	0	navigation	Trial1	navigation/STIM_010.jpg
385.373	3.033	0	navigation	Trial1	navigation/STIM_010.jpg
391.995	2.497	0	navigation	Trial1	navigation/STIM_010.jpg
397.961	2.438	0	navigation	Trial1	navigation/STIM_010.jpg
402.428	4.853	0	navigation	Trial1	navigation/STIM_011.jpg
409.947	3.934	1	navigation	Trial1	navigation/STIM_011.jpg
417.071	3.316	0	navigation	Trial1	navigation/STIM_011.jpg
424.292	4.371	1	navigation	Trial1	navigation/STIM_011.jpg
432.461	3.952	1	navigation	Trial1	navigation/STIM_011.jpg
439.679	3.121	1	navigation	Trial1	navigation/STIM_011.jpg
445.503	1.167	0	pointing	Trial1	pointing/STIM_000.jpg
449.616	1.396	1	pointing	Trial1	pointing/STIM_000.jpg
454.465	1.39	1	pointing	Trial1	pointing/STIM_000.jpg
459.7	1.604	1	pointing	Trial1	pointing/STIM_000.jpg
465.045	1.403	1	pointing	Trial1	pointing/STIM_000.jpg
470.344	1.562	1	pointing	Trial1	pointing/STIM_000.jpg
475.895	1.152	1	pointing	Trial1	pointing/STIM_001.jpg
479.991	1.163	1	pointing	Trial1	pointing/STIM_001.jpg
483.805	1.388	1	pointing	Trial1	pointing/STIM_001.jpg
489.136	1.05	1	pointing	Trial1	pointing/STIM_001.jpg
492.488	1.475	1	pointing	Trial1	pointing/STIM_001.jpg
496.875	1.395	0	pointing	Trial1	pointing/STIM_001.jpg
500.832	0.93	1	pointing	Trial1	pointing/STIM_002.jpg
504.9	1.18	1	pointing	Trial1	pointing/STIM_002.jpg
508.945	0.983	1	pointing	Trial1	pointing/STIM_002.jpg
513.147	0.874	1	pointing	Trial1	pointing/STIM_002.jpg
517.977	1.031	0	pointing	Trial1	pointing/STIM_002.jpg
521.94	0.994	1	pointing	Trial1	pointing/STIM_002.jpg
525.924	1.244	1	pointing	Trial1	pointing/STIM_003.jpg
530.447	1.305	0	pointing	Trial1	pointing/STIM_003.jpg
535.24	1.469	0	pointing	Trial1	pointing/STIM_003.jpg
538.995	1.059	1	pointing	Trial1	pointing/STIM_003.jpg
543.555	1.068	1	pointing	Trial1	pointing/STIM_003.jpg
548.1	1.066	1	pointing	Trial1	pointing/STIM_003.jpg
552.746	0.931	1	pointing	Trial1	pointing/STIM_004.jpg
556.368	1.486	1	pointing	Trial1	pointing/STIM_004.jpg
560.937	1.28	1	pointing	Trial1	pointing/STIM_004.jpg
565.944	0.895	0	pointing	Trial1	pointing/STIM_004.jpg
570.355	0.883	1	pointing	Trial1	pointing/STIM_004.jpg
574.099	1.243	1	pointing	Trial1	pointing/STIM_004.jpg
578.209	0.943	0	pointing	Trial1	pointing/STIM_005.jpg
582.822	1.147	1	pointing	Trial1	pointing/STIM_005.jpg
586.002	0.956	1	pointing	Trial1	pointing/STIM_005.jpg
589.241	1.514	0	pointing	Trial1	pointing/STIM_005.jpg
593.997	1.196	0	pointing	Trial1	pointing/STIM_005.jpg
598.306	1.621	1	pointing	Trial1	pointing/STIM_005.jpg
603.161	1.081	1	pointing	Trial1	pointing/STIM_006.jpg
606.55	1.55	1	pointing	Trial1	pointing/STIM_006.jpg
610.76	1.202	1	pointing	Trial1	pointing/STIM_006.jpg
615.073	1.306	1	pointing	Trial1	pointing/STIM_006.jpg
619.857	0.904	1	pointing	Trial1	pointing/STIM_006.jpg
623.893	1.143	1	pointing	Trial1	pointing/STIM_006.jpg
628.443	1.27	1	pointing	Trial1	pointing/STIM_007.jpg
631.964	1.44	0	pointing	Trial1	pointing/STIM_007.jpg
637.156	1.09	1	pointing	Trial1	pointing/STIM_007.jpg
641.17	1.243	1	pointing	Trial1	pointing/STIM_007.jpg
645.866	0.905	0	pointing	Trial1	pointing/STIM_007.jpg
650.327	1.475	0	pointing	Trial1	pointing/STIM_007.jpg
654.361	1.368	0	pointing	Trial1	pointing/STIM_008.jpg
659.532	1.44	1	pointing	Trial1	pointing/STIM_008.jpg
663.826	1.259	1	pointing	Trial1	pointing/STIM_008.jpg
668.454	1.055	1	pointing	Trial1	pointing/STIM_008.jpg
673.194	1.574	1	pointing	Trial1	pointing/STIM_008.jpg
678.427	1.629	1	pointing	Trial1	pointing/STIM_008.jpg
684.035	1.406	1	pointing	Trial1	pointing/STIM_009.jpg
688.471	1.542	1	pointing	Trial1	pointing/STIM_009.jpg
692.618	1.128	1	pointing	Trial1	pointing/STIM_009.jpg
697.268	1.403	1	pointing	Trial1	pointing/STIM_009.jpg
702.044	1.389	1	pointing	Trial1	pointing/STIM_009.jpg
705.837	1.55	1	pointing	Trial1	pointing/STIM_009.jpg
710.494	1.485	0	pointing	Trial1	pointing/STIM_010.jpg
714.653	1.054	1	pointing	Trial1	pointing/STIM_010.jpg
719.583	1.619	0	pointing	Trial1	pointing/STIM_010.jpg
723.306	0.878	1	pointing	Trial1	pointing/STIM_010.jpg
727.343	1.533	1	pointing	Trial1	pointing/STIM_010.jpg
732.083	1.223	0	pointing	Trial1	pointing/STIM_010.jpg
737.069	1.359	0	pointing	Trial1	pointing/STIM_011.jpg
741.348	1.086	1	pointing	Trial1	pointing/STIM_011.jpg
744.738	1.184	1	pointing	Trial1	pointing/STIM_011.jpg
749.15	1.465	0	pointing	Trial1	pointing/STIM_011.jpg
753.099	1.144	0	pointing	Trial1	pointing/STIM_011.jpg
756.671	1.416	1	pointing	Trial1	pointing/STIM_011.jpg
760.349	2.442	0	navigation	Trial2	navigation/STIM_000.jpg
764.94	2.819	1	navigation	Trial2	navigation/STIM_000.jpg
769.772	3.3	0	navigation	Trial2	navigation/STIM_000.jpg
776.496	2.011	1	navigation	Trial2	navigation/STIM_000.jpg
782.387	3.19	0	navigation	Trial2	navigation/STIM_000.jpg
788.183	3.091	1	navigation	Trial2	navigation/STIM_000.jpg
793.623	2.117	1	navigation	Trial2	navigation/STIM_001.jpg
798.158	4.146	1	navigation	Trial2	navigation/STIM_001.jpg
805.537	3.861	0	navigation	Trial2	navigation/STIM_001.jpg
811.508	2.685	0	navigation	Trial2	navigation/STIM_001.jpg
816.452	3.747	1	navigation	Trial2	navigation/STIM_001.jpg
823.483	1.54	0	navigation	Trial2	navigation/STIM_001.jpg
828.807	3.923	0	navigation	Trial2	navigation/STIM_002.jpg
836.26	3.211	0	navigation	Trial2	navigation/STIM_002.jpg
842.596	3.097	0	navigation	Trial2	navigation/STIM_002.jpg
849.019	2.529	1	navigation	Trial2	navigation/STIM_002.jpg
855.107	1.748	0	navigation	Trial2	navigation/STIM_002.jpg
859.388	1.775	1	navigation	Trial2	navigation/STIM_002.jpg
863.504	3.59	1	navigation	Trial2	navigation/STIM_003.jpg
870.099	3.514	1	navigation	Trial2	navigation/STIM_003.jpg
876.211	1.919	1	navigation	Trial2	navigation/STIM_003.jpg
880.674	1.86	0	navigation	Trial2	navigation/STIM_003.jpg
886.034	2.266	1	navigation	Trial2	navigation/STIM_003.jpg
891.573	2.506	1	navigation	Trial2	navigation/STIM_003.jpg
897.685	4.548	1	navigation	Trial2	navigation/STIM_004.jpg
906.227	3.533	1	navigation	Trial2	navigation/STIM_004.jpg
911.886	2.259	1	navigation	Trial2	navigation/STIM_004.jpg
917.502	3.3	0	navigation	Trial2	navigation/STIM_004.jpg
923.651	2.81	0	navigation	Trial2	navigation/STIM_004.jpg
928.988	2.378	1	navigation	Trial2	navigation/STIM_004.jpg
934.096	2.332	0	navigation	Trial2	navigation/STIM_005.jpg
938.893	4.203	1	navigation	Trial2	navigation/STIM_005.jpg
946.084	1.796	0	navigation	Trial2	navigation/STIM_005.jpg
951.848	3.243	0	navigation	Trial2	navigation/STIM_005.jpg
958.889	2.642	0	navigation	Trial2	navigation/STIM_005.jpg
964.26	3.343	1	navigation	Trial2	navigation/STIM_005.jpg
970.966	4.323	1	navigation	Trial2	navigation/STIM_006.jpg
978.929	4.275	0	navigation	Trial2	navigation/STIM_006.jpg
986.445	1.956	1	navigation	Trial2	navigation/STIM_006.jpg
991.479	3.774	1	navigation	Trial2	navigation/STIM_006.jpg
998.264	3.423	1	navigation	Trial2	navigation/STIM_006.jpg
1005.364	2.247	1	navigation	Trial2	navigation/STIM_006.jpg
1010.137	4.051	1	navigation	Trial2	navigation/STIM_007.jpg
1018.069	2.88	0	navigation	Trial2	navigation/STIM_007.jpg
1024.122	2.269	0	navigation	Trial2	navigation/STIM_007.jpg
1029.101	3.295	1	navigation	Trial2	navigation/STIM_007.jpg
1036.32	2.2	1	navigation	Trial2	navigation/STIM_007.jpg
1041.166	2.974	0	navigation	Trial2	navigation/STIM_007.jpg
1046.464	2.703	1	navigation	Trial2	navigation/STIM_008.jpg
1052.986	4.056	1	navigation	Trial2	navigation/STIM_008.jpg
1060.917	3.323	1	navigation	Trial2	navigation/STIM_008.jpg
1067.306	1.739	1	navigation	Trial2	navigation/STIM_008.jpg
1071.779	2.226	0	navigation	Trial2	navigation/STIM_008.jpg
1077.782	3.197	0	navigation	Trial2	navigation/STIM_008.jpg
1084.938	4.451	1	navigation	Trial2	navigation/STIM_009.jpg
1093.286	3.844	0	navigation	Trial2	navigation/STIM_009.jpg
1100.442	2.257	1	navigation	Trial2	navigation/STIM_009.jpg
1105.754	2.946	1	navigation	Trial2	navigation/STIM_009.jpg
1111.735	2.444	1	navigation	Trial2	navigation/STIM_009.jpg
1117.742	2.446	1	navigation	Trial2	navigation/STIM_009.jpg
1123.764	2.34	1	navigation	Trial2	navigation/STIM_010.jpg
1129.498	2.018	1	navigation	Trial2	navigation/STIM_010.jpg
1134.274	3.428	1	navigation	Trial2	navigation/STIM_010.jpg
1140.466	3.565	0	navigation	Trial2	navigation/STIM_010.jpg
1146.848	3.494	1	navigation	Trial2	navigation/STIM_010.jpg
1152.454	1.545	1	navigation	Trial2	navigation/STIM_010.jpg
1157.523	3.679	0	navigation	Trial2	navigation/STIM_011.jpg
1164.474	2.146	1	navigation	Trial2	navigation/STIM_011.jpg
1168.988	2.494	0	navigation	Trial2	navigation/STIM_011.jpg
1174.016	1.729	1	navigation	Trial2	navigation/STIM_011.jpg
1179.495	3.033	0	navigation	Trial2	navigation/STIM_011.jpg
1186.307	2.547	1	navigation	Trial2	navigation/STIM_011.jpg
1191.056	1.124	1	pointing	Trial2	pointing/STIM_000.jpg
1195.14	1.29	1	pointing	Trial2	pointing/STIM_000.jpg
1198.867	1.472	1	pointing	Trial2	pointing/STIM_000.jpg
1204.086	1.188	1	pointing	Trial2	pointing/STIM_000.jpg
1208.92	1.15	1	pointing	Trial2	pointing/STIM_000.jpg
1212.159	0.951	1	pointing	Trial2	pointing/STIM_000.jpg
1215.133	1.258	0	pointing	Trial2	pointing/STIM_001.jpg
1218.967	1.054	1	pointing	Trial2	pointing/STIM_001.jpg
1223.469	0.919	0	pointing	Trial2	pointing/STIM_001.jpg
1228.026	1.481	1	pointing	Trial2	pointing/STIM_001.jpg
1231.884	1.08	0	pointing	Trial2	pointing/STIM_001.jpg
1235.066	1.244	0	pointing	Trial2	pointing/STIM_001.jpg
1239.263	1.48	0	pointing	Trial2	pointing/STIM_002.jpg
1242.92	1.291	1	pointing	Trial2	pointing/STIM_002.jpg
1246.728	1.134	1	pointing	Trial2	pointing/STIM_002.jpg
1251.302	1.54	1	pointing	Trial2	pointing/STIM_002.jpg
1256.015	1.134	1	pointing	Trial2	pointing/STIM_002.jpg
1259.174	0.959	1	pointing	Trial2	pointing/STIM_002.jpg
1263.316	1.146	0	pointing	Trial2	pointing/STIM_003.jpg
1267.555	1.219	1	pointing	Trial2	pointing/STIM_003.jpg
1271.391	1.232	0	pointing	Trial2	pointing/STIM_003.jpg
1274.862	1.591	1	pointing	Trial2	pointing/STIM_003.jpg
1280.435	1.245	1	pointing	Trial2	pointing/STIM_003.jpg
1284.544	1.558	1	pointing	Trial2	pointing/STIM_003.jpg
1289.885	1.24	1	pointing	Trial2	pointing/STIM_004.jpg
1294.198	1.545	1	pointing	Trial2	pointing/STIM_004.jpg
1298.394	0.915	1	pointing	Trial2	pointing/STIM_004.jpg
1301.404	0.882	1	pointing	Trial2	pointing/STIM_004.jpg
1305.47	0.88	0	pointing	Trial2	pointing/STIM_004.jpg
1308.725	1.072	1	pointing	Trial2	pointing/STIM_004.jpg
1313.126	1.528	1	pointing	Trial2	pointing/STIM_005.jpg
1318.259	1.06	1	pointing	Trial2	pointing/STIM_005.jpg
1322.243	1.128	1	pointing	Trial2	pointing/STIM_005.jpg
1327.089	1.57	0	pointing	Trial2	pointing/STIM_005.jpg
1331.326	1.314	1	pointing	Trial2	pointing/STIM_005.jpg
1335.005	0.874	1	pointing	Trial2	pointing/STIM_005.jpg
1339.347	1.453	0	pointing	Trial2	pointing/STIM_006.jpg
1344.763	0.939	0	pointing	Trial2	pointing/STIM_006.jpg
1349.246	1.47	1	pointing	Trial2	pointing/STIM_006.jpg
1354.374	1.492	1	pointing	Trial2	pointing/STIM_006.jpg
1359.853	1.282	1	pointing	Trial2	pointing/STIM_006.jpg
1363.504	0.952	1	pointing	Trial2	pointing/STIM_006.jpg
1367.405	1.325	1	pointing	Trial2	pointing/STIM_007.jpg
1370.91	1.506	1	pointing	Trial2	pointing/STIM_007.jpg
1375.04	1.382	1	pointing	Trial2	pointing/STIM_007.jpg
1379.985	1.138	1	pointing	Trial2	pointing/STIM_007.jpg
1383.714	0.989	1	pointing	Trial2	pointing/STIM_007.jpg
1387.985	1.268	0	pointing	Trial2	pointing/STIM_007.jpg
1393.226	0.892	1	pointing	Trial2	pointing/STIM_008.jpg
1397.117	1.104	0	pointing	Trial2	pointing/STIM_008.jpg
1400.395	0.888	0	pointing	Trial2	pointing/STIM_008.jpg
1404.225	1.502	1	pointing	Trial2	pointing/STIM_008.jpg
1409.378	1.305	1	pointing	Trial2	pointing/STIM_008.jpg
1414.563	1.124	0	pointing	Trial2	pointing/STIM_008.jpg
1419.417	1.449	0	pointing	Trial2	pointing/STIM_009.jpg
1424.684	1.104	1	pointing	Trial2	pointing/STIM_009.jpg
1428.855	1.209	1	pointing	Trial2	pointing/STIM_009.jpg
1433.134	1.573	0	pointing	Trial2	pointing/STIM_009.jpg
1438.015	1.267	0	pointing	Trial2	pointing/STIM_009.jpg
1442.587	1.38	0	pointing	Trial2	pointing/STIM_009.jpg
1447.206	1.556	1	pointing	Trial2	pointing/STIM_010.jpg
1452.677	1.362	0	pointing	Trial2	pointing/STIM_010.jpg
1456.345	1.068	1	pointing	Trial2	pointing/STIM_010.jpg
1459.623	1.558	0	pointing	Trial2	pointing/STIM_010.jpg
1463.221	1.226	1	pointing	Trial2	pointing/STIM_010.jpg
1468.21	0.929	1	pointing	Trial2	pointing/STIM_010.jpg
1471.244	1.349	1	pointing	Trial2	pointing/STIM_011.jpg
1476.318	1.04	1	pointing	Trial2	pointing/STIM_011.jpg
1480.355	1.014	1	pointing	Trial2	pointing/STIM_011.jpg
1483.823	1.194	1	pointing	Trial2	pointing/STIM_011.jpg
1487.448	0.884	1	pointing	Trial2	pointing/STIM_011.jpg
1491.413	1.397	0	pointing	Trial2	pointing/STIM_011.jpg
1494.964	1.616	1	navigation	Trial3	navigation/STIM_000.jpg
1498.872	3.044	1	navigation	Trial3	navigation/STIM_000.jpg
1505.533	3.632	1	navigation	Trial3	navigation/STIM_000.jpg
1511.953	1.826	0	navigation	Trial3	navigation/STIM_000.jpg
1516.684	2.0	1	navigation	Trial3	navigation/STIM_000.jpg
1522.589	1.891	1	navigation	Trial3	navigation/STIM_000.jpg
1527.176	2.299	0	navigation	Trial3	navigation/STIM_001.jpg
1532.678	3.151	1	navigation	Trial3	navigation/STIM_001.jpg
1539.529	1.794	1	navigation	Trial3	navigation/STIM_001.jpg
1545.211	3.79	0	navigation	Trial3	navigation/STIM_001.jpg
1551.484	3.413	1	navigation	Trial3	navigation/STIM_001.jpg
1556.971	3.724	0	navigation	Trial3	navigation/STIM_001.jpg
1564.08	2.277	0	navigation	Trial3	navigation/STIM_002.jpg
1569.916	3.597	1	navigation	Trial3	navigation/STIM_002.jpg
1576.596	2.713	1	navigation	Trial3	navigation/STIM_002.jpg
1582.91	1.975	1	navigation	Trial3	navigation/STIM_002.jpg
1586.984	2.542	1	navigation	Trial3	navigation/STIM_002.jpg
1592.166	1.885	1	navigation	Trial3	navigation/STIM_002.jpg
1596.336	3.214	0	navigation	Trial3	navigation/STIM_003.jpg
1603.39	1.677	0	navigation	Trial3	navigation/STIM_003.jpg
1608.172	2.192	1	navigation	Trial3	navigation/STIM_003.jpg
1613.857	3.508	1	navigation	Trial3	navigation/STIM_003.jpg
1620.113	2.302	1	navigation	Trial3	navigation/STIM_003.jpg
1625.54	2.634	1	navigation	Trial3	navigation/STIM_003.jpg
1631.776	2.018	1	navigation	Trial3	navigation/STIM_004.jpg
1636.724	3.565	1	navigation	Trial3	navigation/STIM_004.jpg
1644.126	2.165	1	navigation	Trial3	navigation/STIM_004.jpg
1648.629	2.99	1	navigation	Trial3	navigation/STIM_004.jpg
1654.273	2.065	1	navigation	Trial3	navigation/STIM_004.jpg
1659.244	2.15	0	navigation	Trial3	navigation/STIM_004.jpg
1665.004	3.619	1	navigation	Trial3	navigation/STIM_005.jpg
1670.826	2.812	1	navigation	Trial3	navigation/STIM_005.jpg
1677.401	2.711	1	navigation	Trial3	navigation/STIM_005.jpg
1683.307	3.274	0	navigation	Trial3	navigation/STIM_005.jpg
1688.848	2.835	1	navigation	Trial3	navigation/STIM_005.jpg
1694.604	2.68	1	navigation	Trial3	navigation/STIM_005.jpg
1700.021	1.827	0	navigation	Trial3	navigation/STIM_006.jpg
1705.302	3.801	0	navigation	Trial3	navigation/STIM_006.jpg
1712.133	3.353	1	navigation	Trial3	navigation/STIM_006.jpg
1718.946	3.701	1	navigation	Trial3	navigation/STIM_006.jpg
1725.591	3.052	1	navigation	Trial3	navigation/STIM_006.jpg
1731.188	1.969	1	navigation	Trial3	navigation/STIM_006.jpg
1735.215	3.439	0	navigation	Trial3	navigation/STIM_007.jpg
1741.152	1.864	1	navigation	Trial3	navigation/STIM_007.jpg
1745.335	1.753	0	navigation	Trial3	navigation/STIM_007.jpg
1750.394	2.794	1	navigation	Trial3	navigation/STIM_007.jpg
1756.215	3.232	1	navigation	Trial3	navigation/STIM_007.jpg
1762.261	2.896	0	navigation	Trial3	navigation/STIM_007.jpg
1767.295	3.583	0	navigation	Trial3	navigation/STIM_008.jpg
1773.128	3.779	1	navigation	Trial3	navigation/STIM_008.jpg
1779.893	3.555	1	navigation	Trial3	navigation/STIM_008.jpg
1787.235	2.84	1	navigation	Trial3	navigation/STIM_008.jpg
1792.943	2.725	1	navigation	Trial3	navigation/STIM_008.jpg
1797.892	1.544	1	navigation	Trial3	navigation/STIM_008.jpg
1803.331	3.5	0	navigation	Trial3	navigation/STIM_009.jpg
1809.418	2.304	1	navigation	Trial3	navigation/STIM_009.jpg
1814.394	2.598	1	navigation	Trial3	navigation/STIM_009.jpg
1820.685	3.697	0	navigation	Trial3	navigation/STIM_009.jpg
1827.404	2.424	0	navigation	Trial3	navigation/STIM_009.jpg
1833.004	2.05	1	navigation	Trial3	navigation/STIM_009.jpg
1837.471	3.033	0	navigation	Trial3	navigation/STIM_010.jpg
1843.388	1.744	1	navigation	Trial3	navigation/STIM_010.jpg
1847.193	3.329	0	navigation	Trial3	navigation/STIM_010.jpg
1854.351	3.253	0	navigation	Trial3	navigation/STIM_010.jpg
1860.456	1.944	1	navigation	Trial3	navigation/STIM_010.jpg
1865.654	3.624	0	navigation	Trial3	navigation/STIM_010.jpg
1872.151	2.135	0	navigation	Trial3	navigation/STIM_011.jpg
1876.861	2.93	1	navigation	Trial3	navigation/STIM_011.jpg
1882.129	1.693	1	navigation	Trial3	navigation/STIM_011.jpg
1886.506	1.831	1	navigation	Trial3	navigation/STIM_011.jpg
1891.896	2.995	0	navigation	Trial3	navigation/STIM_011.jpg
1897.734	1.765	1	navigation	Trial3	navigation/STIM_011.jpg
1901.699	0.972	1	pointing	Trial3	pointing/STIM_000.jpg
1906.496	1.025	1	pointing	Trial3	pointing/STIM_000.jpg
1910.885	1.177	1	pointing	Trial3	pointing/STIM_000.jpg
1915.143	1.23	1	pointing	Trial3	pointing/STIM_000.jpg
1918.901	1.496	1	pointing	Trial3	pointing/STIM_000.jpg
1922.958	1.558	0	pointing	Trial3	pointing/STIM_000.jpg
1927.517	1.36	0	pointing	Trial3	pointing/STIM_001.jpg
1931.458	1.061	0	pointing	Trial3	pointing/STIM_001.jpg
1936.208	1.058	1	pointing	Trial3	pointing/STIM_001.jpg
1940.609	0.991	1	pointing	Trial3	pointing/STIM_001.jpg
1945.229	1.328	1	pointing	Trial3	pointing/STIM_001.jpg
1949.356	0.907	1	pointing	Trial3	pointing/STIM_001.jpg
1954.253	1.026	1	pointing	Trial3	pointing/STIM_002.jpg
1957.831	1.322	1	pointing	Trial3	pointing/STIM_002.jpg
1961.727	1.109	1	pointing	Trial3	pointing/STIM_002.jpg
1964.898	1.306	1	pointing	Trial3	pointing/STIM_002.jpg
1969.452	1.597	1	pointing	Trial3	pointing/STIM_002.jpg
1973.21	0.877	1	pointing	Trial3	pointing/STIM_002.jpg
1976.573	1.471	0	pointing	Trial3	pointing/STIM_003.jpg
1980.794	1.054	1	pointing	Trial3	pointing/STIM_003.jpg
1983.947	1.473	1	pointing	Trial3	pointing/STIM_003.jpg
1989.258	1.104	1	pointing	Trial3	pointing/STIM_003.jpg
1992.751	1.566	0	pointing	Trial3	pointing/STIM_003.jpg
1997.068	1.357	1	pointing	Trial3	pointing/STIM_003.jpg
2001.549	1.312	1	pointing	Trial3	pointing/STIM_004.jpg
2005.602	1.455	0	pointing	Trial3	pointing/STIM_004.jpg
2009.661	1.484	0	pointing	Trial3	pointing/STIM_004.jpg
2014.254	1.373	1	pointing	Trial3	pointing/STIM_004.jpg
2019.166	1.346	1	pointing	Trial3	pointing/STIM_004.jpg
2024.41	1.573	0	pointing	Trial3	pointing/STIM_004.jpg
2028.926	1.438	1	pointing	Trial3	pointing/STIM_005.jpg
2033.892	0.887	1	pointing	Trial3	pointing/STIM_005.jpg
2038.745	0.94	1	pointing	Trial3	pointing/STIM_005.jpg
2043.367	0.911	1	pointing	Trial3	pointing/STIM_005.jpg
2046.738	1.157	1	pointing	Trial3	pointing/STIM_005.jpg
2050.266	1.163	1	pointing	Trial3	pointing/STIM_005.jpg
2053.875	0.951	1	pointing	Trial3	pointing/STIM_006.jpg
2057.689	1.036	1	pointing	Trial3	pointing/STIM_006.jpg
2061.789	1.204	1	pointing	Trial3	pointing/STIM_006.jpg
2065.747	1.002	0	pointing	Trial3	pointing/STIM_006.jpg
2068.749	1.126	1	pointing	Trial3	pointing/STIM_006.jpg
2073.619	1.449	1	pointing	Trial3	pointing/STIM_006.jpg
2078.23	1.183	0	pointing	Trial3	pointing/STIM_007.jpg
2081.747	1.011	0	pointing	Trial3	pointing/STIM_007.jpg
2085.457	0.962	1	pointing	Trial3	pointing/STIM_007.jpg
2089.262	1.047	1	pointing	Trial3	pointing/STIM_007.jpg
2092.52	0.88	1	pointing	Trial3	pointing/STIM_007.jpg
2096.448	0.942	1	pointing	Trial3	pointing/STIM_007.jpg
2100.585	1.493	1	pointing	Trial3	pointing/STIM_008.jpg
2104.932	1.235	0	pointing	Trial3	pointing/STIM_008.jpg
2109.091	1.476	1	pointing	Trial3	pointing/STIM_008.jpg
2113.072	1.048	0	pointing	Trial3	pointing/STIM_008.jpg
2117.551	1.336	1	pointing	Trial3	pointing/STIM_008.jpg
2122.374	1.227	1	pointing	Trial3	pointing/STIM_008.jpg
2125.77	1.354	0	pointing	Trial3	pointing/STIM_009.jpg
2131.031	1.517	0	pointing	Trial3	pointing/STIM_009.jpg
2136.136	1.497	0	pointing	Trial3	pointing/STIM_009.jpg
2140.557	1.411	1	pointing	Trial3	pointing/STIM_009.jpg
2144.409	0.912	1	pointing	Trial3	pointing/STIM_009.jpg
2148.102	0.954	1	pointing	Trial3	pointing/STIM_009.jpg
2152.17	1.139	1	pointing	Trial3	pointing/STIM_010.jpg
2156.02	1.409	0	pointing	Trial3	pointing/STIM_010.jpg
2160.169	1.405	1	pointing	Trial3	pointing/STIM_010.jpg
2165.004	1.114	1	pointing	Trial3	pointing/STIM_010.jpg
2169.162	1.459	1	pointing	Trial3	pointing/STIM_010.jpg
2173.6	1.62	0	pointing	Trial3	pointing/STIM_010.jpg
2177.89	1.068	0	pointing	Trial3	pointing/STIM_011.jpg
2182.839	0.884	1	pointing	Trial3	pointing/STIM_011.jpg
2187.082	0.936	1	pointing	Trial3	pointing/STIM_011.jpg
2191.612	1.4	1	pointing	Trial3	pointing/STIM_011.jpg
2195.39	0.902	0	pointing	Trial3	pointing/STIM_011.jpg
2198.427	1.288	1	pointing	Trial3	pointing/STIM_011.jpg
