onset	duration	response_time_ms	trial_type	learning_stage	stimulus	response_port
0.0	2.321	2320.9	navigation	Trial1	navigation/STIM_000.jpg	100
6.207	3.345	3345.4	navigation	Trial1	navigation/STIM_000.jpg	100
12.753	2.702	2701.5	navigation	Trial1	navigation/STIM_000.jpg	99
19.087	3.56	3559.8	navigation	Trial1	navigation/STIM_000.jpg	99
25.685	3.903	3903.0	navigation	Trial1	navigation/STIM_000.jpg	100
31.986	3.875	3874.7	navigation	Trial1	navigation/STIM_000.jpg	100
39.225	3.722	3721.5	navigation	Trial1	navigation/STIM_001.jpg	99
45.783	4.874	4873.5	navigation	Trial1	navigation/STIM_001.jpg	99
53.19	3.278	3277.7	navigation	Trial1	navigation/STIM_001.jpg	99
59.033	2.608	2608.1	navigation	Trial1	navigation/STIM_001.jpg	99
65.047	3.11	3110.1	navigation	Trial1	navigation/STIM_001.jpg	100
71.698	1.806	1806.0	navigation	Trial1	navigation/STIM_001.jpg	100
76.369	3.305	3304.7	navigation	Trial1	navigation/STIM_002.jpg	100
83.4	2.09	2089.5	navigation	Trial1	navigation/STIM_002.jpg	100
89.22	4.684	4684.1	navigation	Trial1	navigation/STIM_002.jpg	100
96.398	4.274	4274.2	navigation	Trial1	navigation/STIM_002.jpg	100
103.725	2.182	2181.7	navigation	Trial1	navigation/STIM_002.jpg	99
109.625	1.65	1649.7	navigation	Trial1	navigation/STIM_002.jpg	100
115.092	4.179	4178.7	navigation	Trial1	navigation/STIM_003.jpg	100
122.032	4.847	4847.1	navigation	Trial1	navigation/STIM_003.jpg	100
130.236	2.64	2639.7	navigation	Trial1	navigation/STIM_003.jpg	100
135.352	1.981	1981.4	navigation	Trial1	navigation/STIM_003.jpg	100
140.573	3.515	3515.0	navigation	Trial1	navigation/STIM_003.jpg	99
146.698	3.571	3570.6	navigation	Trial1	navigation/STIM_003.jpg	100
153.397	2.906	2905.5	navigation	Trial1	navigation/STIM_004.jpg	100
159.224	3.758	3757.8	navigation	Trial1	navigation/STIM_004.jpg	100
165.196	4.169	4169.4	navigation	Trial1	navigation/STIM_004.jpg	100
171.538	3.587	3586.8	navigation	Trial1	navigation/STIM_004.jpg	100
177.588	3.099	3099.0	navigation	Trial1	navigation/STIM_004.jpg	99
183.968	2.346	2345.5	navigation	Trial1	navigation/STIM_004.jpg	99
189.019	2.638	2637.7	navigation	Trial1	navigation/STIM_005.jpg	100
194.813	4.696	4696.3	navigation	Trial1	navigation/STIM_005.jpg	100
202.142	2.603	2603.0	navigation	Trial1	navigation/STIM_005.jpg	99
207.798	4.127	4127.4	navigation	Trial1	navigation/STIM_005.jpg	99
215.398	1.803	1802.6	navigation	Trial1	navigation/STIM_005.jpg	100
220.295	1.657	1657.2	navigation	Trial1	navigation/STIM_005.jpg	100
224.537	4.382	4381.7	navigation	Trial1	navigation/STIM_006.jpg	99
232.257	3.152	3152.1	navigation	Trial1	navigation/STIM_006.jpg	100
237.982	3.817	3817.2	navigation	Trial1	navigation/STIM_006.jpg	99
245.504	2.609	2608.8	navigation	Trial1	navigation/STIM_006.jpg	100
251.022	3.726	3726.3	navigation	Trial1	navigation/STIM_006.jpg	100
256.763	2.115	2114.7	navigation	Trial1	navigation/STIM_006.jpg	100
261.559	2.642	2641.8	navigation	Trial1	navigation/STIM_007.jpg	99
267.364	2.945	2944.8	navigation	Trial1	navigation/STIM_007.jpg	99
273.037	3.023	3023.2	navigation	Trial1	navigation/STIM_007.jpg	99
278.693	3.039	3038.6	navigation	Trial1	navigation/STIM_007.jpg	99
285.05	1.987	1987.2	navigation	Trial1	navigation/STIM_007.jpg	99
290.667	2.842	2841.6	navigation	Trial1	navigation/STIM_007.jpg	99
296.402	4.254	4253.9	navigation	Trial1	navigation/STIM_008.jpg	99
304.146	3.188	3187.8	navigation	Trial1	navigation/STIM_008.jpg	99
310.978	3.189	3188.6	navigation	Trial1	navigation/STIM_008.jpg	100
317.011	2.899	2898.8	navigation	Trial1	navigation/STIM_008.jpg	100
323.746	3.685	3685.4	navigation	Trial1	navigation/STIM_008.jpg	100
330.348	2.936	2936.3	navigation	Trial1	navigation/STIM_008.jpg	100
336.142	2.692	2691.9	navigation	Trial1	navigation/STIM_009.jpg	100
341.092	3.819	3818.9	navigation	Trial1	navigation/STIM_009.jpg	99
348.28	2.113	2112.8	navigation	Trial1	navigation/STIM_009.jpg	100
353.116	3.743	3742.7	navigation	Trial1	navigation/STIM_009.jpg	100
359.895	3.059	3059.2	navigation	Trial1	navigation/STIM_009.jpg	99
365.028	1.881	1880.9	navigation	Trial1	navigation/STIM_009.jpg	99
369.041	2.645	2644.7	navigation	Trial1	navigation/STIM_010.jpg	100
373.98	2.722	2722.1	navigation	Trial1	navigation/STIM_010.jpg	100
379.296	3.178	3178.0	navigation	Trial1	navigation/STIM_010.jpg	100
385.373	3.033	3033.0	navigation	Trial1	navigation/STIM_010.jpg	100
391.995	2.497	2496.7	navigation	Trial1	navigation/STIM_010.jpg	100
397.961	2.438	2438.0	navigation	Trial1	navigation/STIM_010.jpg	100
402.428	4.853	4853.0	navigation	Trial1	navigation/STIM_011.jpg	99
409.947	3.934	3934.4	navigation	Trial1	navigation/STIM_011.jpg	99
417.071	3.316	3315.8	navigation	Trial1	navigation/STIM_011.jpg	99
424.292	4.371	4370.7	navigation	Trial1	navigation/STIM_011.jpg	99
432.461	3.952	3952.4	navigation	Trial1	navigation/STIM_011.jpg	99
439.679	3.121	3120.9	navigation	Trial1	navigation/STIM_011.jpg	99
445.503	1.167	1166.6	pointing	Trial1	pointing/STIM_000.jpg	99
449.616	1.396	1395.7	pointing	Trial1	pointing/STIM_000.jpg	99
454.465	1.39	1390.1	pointing	Trial1	pointing/STIM_000.jpg	100
459.7	1.604	1603.6	pointing	Trial1	pointing/STIM_000.jpg	99
465.045	1.403	1402.6	pointing	Trial1	pointing/STIM_000.jpg	100
470.344	1.562	1562.4	pointing	Trial1	pointing/STIM_000.jpg	99
475.895	1.152	1152.5	pointing	Trial1	pointing/STIM_001.jpg	100
479.991	1.163	1163.2	pointing	Trial1	pointing/STIM_001.jpg	99
483.805	1.388	1387.9	pointing	Trial1	pointing/STIM_001.jpg	99
489.136	1.05	1049.6	pointing	Trial1	pointing/STIM_001.jpg	100
492.488	1.475	1474.7	pointing	Trial1	pointing/STIM_001.jpg	99
496.875	1.395	1395.4	pointing	Trial1	pointing/STIM_001.jpg	99
500.832	0.93	929.7	pointing	Trial1	pointing/STIM_002.jpg	100
504.9	1.18	1180.4	pointing	Trial1	pointing/STIM_002.jpg	100
508.945	0.983	983.3	pointing	Trial1	pointing/STIM_002.jpg	99
513.147	0.874	873.9	pointing	Trial1	pointing/STIM_002.jpg	100
517.977	1.031	1031.4	pointing	Trial1	pointing/STIM_002.jpg	99
521.94	0.994	994.1	pointing	Trial1	pointing/STIM_002.jpg	100
525.924	1.244	1244.5	pointing	Trial1	pointing/STIM_003.jpg	100
530.447	1.305	1304.6	pointing	Trial1	pointing/STIM_003.jpg	99
535.24	1.469	1468.6	pointing	Trial1	pointing/STIM_003.jpg	100
538.995	1.059	1058.8	pointing	Trial1	pointing/STIM_003.jpg	100
543.555	1.068	1067.6	pointing	Trial1	pointing/STIM_003.jpg	99
548.1	1.066	1066.1	pointing	Trial1	pointing/STIM_003.jpg	100
552.746	0.931	931.4	pointing	Trial1	pointing/STIM_004.jpg	99
556.368	1.486	1486.0	pointing	Trial1	pointing/STIM_004.jpg	100
560.937	1.28	1280.1	pointing	Trial1	pointing/STIM_004.jpg	100
565.944	0.895	895.1	pointing	Trial1	pointing/STIM_004.jpg	99
570.355	0.883	883.4	pointing	Trial1	pointing/STIM_004.jpg	100
574.099	1.243	1243.0	pointing	Trial1	pointing/STIM_004.jpg	100
578.209	0.943	942.8	pointing	Trial1	pointing/STIM_005.jpg	99
582.822	1.147	1146.8	pointing	Trial1	pointing/STIM_005.jpg	100
586.002	0.956	956.2	pointing	Trial1	pointing/STIM_005.jpg	99
589.241	1.514	1514.0	pointing	Trial1	pointing/STIM_005.jpg	100
593.997	1.196	1196.4	pointing	Trial1	pointing/STIM_005.jpg	100
598.306	1.621	1621.3	pointing	Trial1	pointing/STIM_005.jpg	100
603.161	1.081	1081.2	pointing	Trial1	pointing/STIM_006.jpg	99
606.55	1.55	1550.4	pointing	Trial1	pointing/STIM_006.jpg	100
610.76	1.202	1201.5	pointing	Trial1	pointing/STIM_006.jpg	100
615.073	1.306	1306.3	pointing	Trial1	pointing/STIM_006.jpg	99
619.857	0.904	904.3	pointing	Trial1	pointing/STIM_006.jpg	99
623.893	1.143	1142.8	pointing	Trial1	pointing/STIM_006.jpg	99
628.443	1.27	1269.5	pointing	Trial1	pointing/STIM_007.jpg	100
631.964	1.44	1440.4	pointing	Trial1	pointing/STIM_007.jpg	99
637.156	1.09	1090.3	pointing	Trial1	pointing/STIM_007.jpg	99
641.17	1.243	1242.7	pointing	Trial1	pointing/STIM_007.jpg	100
645.866	0.905	905.3	pointing	Trial1	pointing/STIM_007.jpg	100
650.327	1.475	1474.9	pointing	Trial1	pointing/STIM_007.jpg	99
654.361	1.368	1368.5	pointing	Trial1	pointing/STIM_008.jpg	100
659.532	1.44	1439.6	pointing	Trial1	pointing/STIM_008.jpg	100
663.826	1.259	1259.4	pointing	Trial1	pointing/STIM_008.jpg	100
668.454	1.055	1054.8	pointing	Trial1	pointing/STIM_008.jpg	100
673.194	1.574	1574.5	pointing	Trial1	pointing/STIM_008.jpg	99
678.427	1.629	1628.9	pointing	Trial1	pointing/STIM_008.jpg	99
684.035	1.406	1406.0	pointing	Trial1	pointing/STIM_009.jpg	100
688.471	1.542	1542.2	pointing	Trial1	pointing/STIM_009.jpg	99
692.618	1.128	1128.0	pointing	Trial1	pointing/STIM_009.jpg	99
697.268	1.403	1403.4	pointing	Trial1	pointing/STIM_009.jpg	100
702.044	1.389	1389.2	pointing	Trial1	pointing/STIM_009.jpg	99
705.837	1.55	1550.5	pointing	Trial1	pointing/STIM_009.jpg	100
710.494	1.485	1485.1	pointing	Trial1	pointing/STIM_010.jpg	99
714.653	1.054	1054.3	pointing	Trial1	pointing/STIM_010.jpg	100
719.583	1.619	1618.9	pointing	Trial1	pointing/STIM_010.jpg	100
723.306	0.878	878.4	pointing	Trial1	pointing/STIM_010.jpg	100
727.343	1.533	1532.6	pointing	Trial1	pointing/STIM_010.jpg	100
732.083	1.223	1222.6	pointing	Trial1	pointing/STIM_010.jpg	100
737.069	1.359	1359.0	pointing	Trial1	pointing/STIM_011.jpg	99
741.348	1.086	1086.4	pointing	Trial1	pointing/STIM_011.jpg	99
744.738	1.184	1184.2	pointing	Trial1	pointing/STIM_011.jpg	100
749.15	1.465	1464.8	pointing	Trial1	pointing/STIM_011.jpg	99
753.099	1.144	1144.4	pointing	Trial1	pointing/STIM_011.jpg	100
756.671	1.416	1416.5	pointing	Trial1	pointing/STIM_011.jpg	99
760.349	2.442	2442.5	navigation	Trial2	navigation/STIM_000.jpg	99
764.94	2.819	2819.3	navigation	Trial2	navigation/STIM_000.jpg	99
769.772	3.3	3300.0	navigation	Trial2	navigation/STIM_000.jpg	99
776.496	2.011	2010.7	navigation	Trial2	navigation/STIM_000.jpg	99
782.387	3.19	3190.3	navigation	Trial2	navigation/STIM_000.jpg	99
788.183	3.091	3091.3	navigation	Trial2	navigation/STIM_000.jpg	100
793.623	2.117	2117.0	navigation	Trial2	navigation/STIM_001.jpg	99
798.158	4.146	4146.5	navigation	Trial2	navigation/STIM_001.jpg	100
805.537	3.861	3860.9	navigation	Trial2	navigation/STIM_001.jpg	99
811.508	2.685	2685.2	navigation	Trial2	navigation/STIM_001.jpg	100
816.452	3.747	3747.0	navigation	Trial2	navigation/STIM_001.jpg	100
823.483	1.54	1539.5	navigation	Trial2	navigation/STIM_001.jpg	100
828.807	3.923	3922.8	navigation	Trial2	navigation/STIM_002.jpg	100
836.26	3.211	3210.6	navigation	Trial2	navigation/STIM_002.jpg	99
842.596	3.097	3097.4	navigation	Trial2	navigation/STIM_002.jpg	100
849.019	2.529	2528.8	navigation	Trial2	navigation/STIM_002.jpg	99
855.107	1.748	1748.0	navigation	Trial2	navigation/STIM_002.jpg	99
859.388	1.775	1775.3	navigation	Trial2	navigation/STIM_002.jpg	100
863.504	3.59	3590.0	navigation	Trial2	navigation/STIM_003.jpg	100
870.099	3.514	3513.9	navigation	Trial2	navigation/STIM_003.jpg	100
876.211	1.919	1918.8	navigation	Trial2	navigation/STIM_003.jpg	100
880.674	1.86	1859.9	navigation	Trial2	navigation/STIM_003.jpg	99
886.034	2.266	2265.8	navigation	Trial2	navigation/STIM_003.jpg	100
891.573	2.506	2505.7	navigation	Trial2	navigation/STIM_003.jpg	100
897.685	4.548	4548.0	navigation	Trial2	navigation/STIM_004.jpg	100
906.227	3.533	3533.2	navigation	Trial2	navigation/STIM_004.jpg	100
911.886	2.259	2258.7	navigation	Trial2	navigation/STIM_004.jpg	100
917.502	3.3	3299.7	navigation	Trial2	navigation/STIM_004.jpg	100
923.651	2.81	2809.7	navigation	Trial2	navigation/STIM_004.jpg	100
928.988	2.378	2377.5	navigation	Trial2	navigation/STIM_004.jpg	99
934.096	2.332	2331.9	navigation	Trial2	navigation/STIM_005.jpg	99
938.893	4.203	4203.4	navigation	Trial2	navigation/STIM_005.jpg	99
946.084	1.796	1796.0	navigation	Trial2	navigation/STIM_005.jpg	99
951.848	3.243	3242.7	navigation	Trial2	navigation/STIM_005.jpg	99
958.889	2.642	2641.8	navigation	Trial2	navigation/STIM_005.jpg	100
964.26	3.343	3343.2	navigation	Trial2	navigation/STIM_005.jpg	100
970.966	4.323	4323.0	navigation	Trial2	navigation/STIM_006.jpg	100
978.929	4.275	4274.9	navigation	Trial2	navigation/STIM_006.jpg	100
986.445	1.956	1956.0	navigation	Trial2	navigation/STIM_006.jpg	99
991.479	3.774	3774.5	navigation	Trial2	navigation/STIM_006.jpg	100
998.264	3.423	3422.9	navigation	Trial2	navigation/STIM_006.jpg	100
1005.364	2.247	2247.2	navigation	Trial2	navigation/STIM_006.jpg	99
1010.137	4.051	4051.4	navigation	Trial2	navigation/STIM_007.jpg	100
1018.069	2.88	2879.8	navigation	Trial2	navigation/STIM_007.jpg	99
1024.122	2.269	2269.1	navigation	Trial2	navigation/STIM_007.jpg	99
1029.101	3.295	3294.9	navigation	Trial2	navigation/STIM_007.jpg	100
1036.32	2.2	2200.3	navigation	Trial2	navigation/STIM_007.jpg	100
1041.166	2.974	2973.6	navigation	Trial2	navigation/STIM_007.jpg	100
1046.464	2.703	2702.7	navigation	Trial2	navigation/STIM_008.jpg	100
1052.986	4.056	4056.1	navigation	Trial2	navigation/STIM_008.jpg	99
1060.917	3.323	3322.6	navigation	Trial2	navigation/STIM_008.jpg	99
1067.306	1.739	1738.8	navigation	Trial2	navigation/STIM_008.jpg	99
1071.779	2.226	2226.1	navigation	Trial2	navigation/STIM_008.jpg	100
1077.782	3.197	3196.7	navigation	Trial2	navigation/STIM_008.jpg	100
1084.938	4.451	4451.3	navigation	Trial2	navigation/STIM_009.jpg	99
1093.286	3.844	3843.8	navigation	Trial2	navigation/STIM_009.jpg	100
1100.442	2.257	2257.3	navigation	Trial2	navigation/STIM_009.jpg	99
1105.754	2.946	2945.5	navigation	Trial2	navigation/STIM_009.jpg	99
1111.735	2.444	2443.6	navigation	Trial2	navigation/STIM_009.jpg	100
1117.742	2.446	2445.7	navigation	Trial2	navigation/STIM_009.jpg	99
1123.764	2.34	2340.4	navigation	Trial2	navigation/STIM_010.jpg	100
1129.498	2.018	2018.1	navigation	Trial2	navigation/STIM_010.jpg	99
1134.274	3.428	3428.5	navigation	Trial2	navigation/STIM_010.jpg	100
1140.466	3.565	3564.6	navigation	Trial2	navigation/STIM_010.jpg	100
1146.848	3.494	3493.7	navigation	Trial2	navigation/STIM_010.jpg	100
1152.454	1.545	1544.9	navigation	Trial2	navigation/STIM_010.jpg	100
1157.523	3.679	3679.2	navigation	Trial2	navigation/STIM_011.jpg	100
1164.474	2.146	2146.0	navigation	Trial2	navigation/STIM_011.jpg	99
1168.988	2.494	2494.5	navigation	Trial2	navigation/STIM_011.jpg	100
1174.016	1.729	1728.8	navigation	Trial2	navigation/STIM_011.jpg	99
1179.495	3.033	3033.3	navigation	Trial2	navigation/STIM_011.jpg	99
1186.307	2.547	2547.1	navigation	Trial2	navigation/STIM_011.jpg	100
1191.056	1.124	1124.0	pointing	Trial2	pointing/STIM_000.jpg	99
1195.14	1.29	1289.6	pointing	Trial2	pointing/STIM_000.jpg	99
1198.867	1.472	1471.7	pointing	Trial2	pointing/STIM_000.jpg	99
1204.086	1.188	1188.2	pointing	Trial2	pointing/STIM_000.jpg	100
1208.92	1.15	1150.0	pointing	Trial2	pointing/STIM_000.jpg	100
1212.159	0.951	951.3	pointing	Trial2	pointing/STIM_000.jpg	99
1215.133	1.258	1258.3	pointing	Trial2	pointing/STIM_001.jpg	100
1218.967	1.054	1053.7	pointing	Trial2	pointing/STIM_001.jpg	100
1223.469	0.919	919.3	pointing	Trial2	pointing/STIM_001.jpg	99
1228.026	1.481	1480.7	pointing	Trial2	pointing/STIM_001.jpg	100
1231.884	1.08	1080.5	pointing	Trial2	pointing/STIM_001.jpg	100
1235.066	1.244	1244.1	pointing	Trial2	pointing/STIM_001.jpg	99
1239.263	1.48	1480.0	pointing	Trial2	pointing/STIM_002.jpg	99
1242.92	1.291	1290.9	pointing	Trial2	pointing/STIM_002.jpg	100
1246.728	1.134	1134.4	pointing	Trial2	pointing/STIM_002.jpg	99
1251.302	1.54	1540.3	pointing	Trial2	pointing/STIM_002.jpg	99
1256.015	1.134	1134.4	pointing	Trial2	pointing/STIM_002.jpg	100
1259.174	0.959	959.0	pointing	Trial2	pointing/STIM_002.jpg	99
1263.316	1.146	1146.1	pointing	Trial2	pointing/STIM_003.jpg	100
1267.555	1.219	1218.7	pointing	Trial2	pointing/STIM_003.jpg	99
1271.391	1.232	1231.9	pointing	Trial2	pointing/STIM_003.jpg	100
1274.862	1.591	1590.6	pointing	Trial2	pointing/STIM_003.jpg	100
1280.435	1.245	1244.8	pointing	Trial2	pointing/STIM_003.jpg	99
1284.544	1.558	1558.3	pointing	Trial2	pointing/STIM_003.jpg	99
1289.885	1.24	1240.3	pointing	Trial2	pointing/STIM_004.jpg	99
1294.198	1.545	1545.2	pointing	Trial2	pointing/STIM_004.jpg	99
1298.394	0.915	914.6	pointing	Trial2	pointing/STIM_004.jpg	100
1301.404	0.882	881.6	pointing	Trial2	pointing/STIM_004.jpg	100
1305.47	0.88	879.6	pointing	Trial2	pointing/STIM_004.jpg	100
1308.725	1.072	1071.8	pointing	Trial2	pointing/STIM_004.jpg	99
1313.126	1.528	1528.4	pointing	Trial2	pointing/STIM_005.jpg	100
1318.259	1.06	1060.5	pointing	Trial2	pointing/STIM_005.jpg	100
1322.243	1.128	1127.5	pointing	Trial2	pointing/STIM_005.jpg	100
1327.089	1.57	1570.3	pointing	Trial2	pointing/STIM_005.jpg	100
1331.326	1.314	1314.3	pointing	Trial2	pointing/STIM_005.jpg	99
1335.005	0.874	873.6	pointing	Trial2	pointing/STIM_005.jpg	100
1339.347	1.453	1452.6	pointing	Trial2	pointing/STIM_006.jpg	99
1344.763	0.939	938.7	pointing	Trial2	pointing/STIM_006.jpg	100
1349.246	1.47	1470.0	pointing	Trial2	pointing/STIM_006.jpg	100
1354.374	1.492	1492.1	pointing	Trial2	pointing/STIM_006.jpg	99
1359.853	1.282	1282.0	pointing	Trial2	pointing/STIM_006.jpg	100
1363.504	0.952	952.5	pointing	Trial2	pointing/STIM_006.jpg	100
1367.405	1.325	1324.8	pointing	Trial2	pointing/STIM_007.jpg	99
1370.91	1.506	1506.4	pointing	Trial2	pointing/STIM_007.jpg	99
1375.04	1.382	1381.8	pointing	Trial2	pointing/STIM_007.jpg	100
1379.985	1.138	1138.1	pointing	Trial2	pointing/STIM_007.jpg	99
1383.714	0.989	989.3	pointing	Trial2	pointing/STIM_007.jpg	99
1387.985	1.268	1268.4	pointing	Trial2	pointing/STIM_007.jpg	99
1393.226	0.892	892.4	pointing	Trial2	pointing/STIM_008.jpg	100
1397.117	1.104	1104.4	pointing	Trial2	pointing/STIM_008.jpg	100
1400.395	0.888	887.8	pointing	Trial2	pointing/STIM_008.jpg	100
1404.225	1.502	1501.7	pointing	Trial2	pointing/STIM_008.jpg	99
1409.378	1.305	1305.1	pointing	Trial2	pointing/STIM_008.jpg	100
1414.563	1.124	1124.4	pointing	Trial2	pointing/STIM_008.jpg	100
1419.417	1.449	1449.2	pointing	Trial2	pointing/STIM_009.jpg	99
1424.684	1.104	1104.1	pointing	Trial2	pointing/STIM_009.jpg	99
1428.855	1.209	1209.3	pointing	Trial2	pointing/STIM_009.jpg	100
1433.134	1.573	1573.2	pointing	Trial2	pointing/STIM_009.jpg	100
1438.015	1.267	1267.3	pointing	Trial2	pointing/STIM_009.jpg	99
1442.587	1.38	1380.3	pointing	Trial2	pointing/STIM_009.jpg	99
1447.206	1.556	1556.2	pointing	Trial2	pointing/STIM_010.jpg	100
1452.677	1.362	1362.3	pointing	Trial2	pointing/STIM_010.jpg	100
1456.345	1.068	1068.5	pointing	Trial2	pointing/STIM_010.jpg	99
1459.623	1.558	1558.4	pointing	Trial2	pointing/STIM_010.jpg	99
1463.221	1.226	1225.7	pointing	Trial2	pointing/STIM_010.jpg	100
1468.21	0.929	929.3	pointing	Trial2	pointing/STIM_010.jpg	100
1471.244	1.349	1348.7	pointing	Trial2	pointing/STIM_011.jpg	100
1476.318	1.04	1039.5	pointing	Trial2	pointing/STIM_011.jpg	99
1480.355	1.014	1013.7	pointing	Trial2	pointing/STIM_011.jpg	100
1483.823	1.194	1194.4	pointing	Trial2	pointing/STIM_011.jpg	99
1487.448	0.884	884.4	pointing	Trial2	pointing/STIM_011.jpg	99
1491.413	1.397	1397.0	pointing	Trial2	pointing/STIM_011.jpg	100
1494.964	1.616	1616.4	navigation	Trial3	navigation/STIM_000.jpg	99
1498.872	3.044	3043.9	navigation	Trial3	navigation/STIM_000.jpg	99
1505.533	3.632	3632.1	navigation	Trial3	navigation/STIM_000.jpg	100
1511.953	1.826	1825.5	navigation	Trial3	navigation/STIM_000.jpg	100
1516.684	2.0	1999.9	navigation	Trial3	navigation/STIM_000.jpg	99
1522.589	1.891	1890.6	navigation	Trial3	navigation/STIM_000.jpg	100
1527.176	2.299	2299.4	navigation	Trial3	navigation/STIM_001.jpg	100
1532.678	3.151	3151.2	navigation	Trial3	navigation/STIM_001.jpg	100
1539.529	1.794	1794.1	navigation	Trial3	navigation/STIM_001.jpg	100
1545.211	3.79	3789.5	navigation	Trial3	navigation/STIM_001.jpg	99
1551.484	3.413	3413.2	navigation	Trial3	navigation/STIM_001.jpg	100
1556.971	3.724	3723.7	navigation	Trial3	navigation/STIM_001.jpg	100
1564.08	2.277	2276.9	navigation	Trial3	navigation/STIM_002.jpg	100
1569.916	3.597	3597.0	navigation	Trial3	navigation/STIM_002.jpg	100
1576.596	2.713	2712.7	navigation	Trial3	navigation/STIM_002.jpg	100
1582.91	1.975	1975.3	navigation	Trial3	navigation/STIM_002.jpg	99
1586.984	2.542	2542.3	navigation	Trial3	navigation/STIM_002.jpg	99
1592.166	1.885	1885.3	navigation	Trial3	navigation/STIM_002.jpg	99
1596.336	3.214	3213.8	navigation	Trial3	navigation/STIM_003.jpg	100
1603.39	1.677	1677.0	navigation	Trial3	navigation/STIM_003.jpg	99
1608.172	2.192	2192.1	navigation	Trial3	navigation/STIM_003.jpg	100
1613.857	3.508	3508.4	navigation	Trial3	navigation/STIM_003.jpg	100
1620.113	2.302	2302.1	navigation	Trial3	navigation/STIM_003.jpg	100
1625.54	2.634	2634.5	navigation	Trial3	navigation/STIM_003.jpg	99
1631.776	2.018	2017.6	navigation	Trial3	navigation/STIM_004.jpg	99
1636.724	3.565	3565.1	navigation	Trial3	navigation/STIM_004.jpg	100
1644.126	2.165	2164.9	navigation	Trial3	navigation/STIM_004.jpg	100
1648.629	2.99	2989.6	navigation	Trial3	navigation/STIM_004.jpg	100
1654.273	2.065	2065.3	navigation	Trial3	navigation/STIM_004.jpg	100
1659.244	2.15	2150.0	navigation	Trial3	navigation/STIM_004.jpg	99
1665.004	3.619	3618.6	navigation	Trial3	navigation/STIM_005.jpg	99
1670.826	2.812	2812.4	navigation	Trial3	navigation/STIM_005.jpg	100
1677.401	2.711	2710.9	navigation	Trial3	navigation/STIM_005.jpg	99
1683.307	3.274	3274.4	navigation	Trial3	navigation/STIM_005.jpg	100
1688.848	2.835	2834.6	navigation	Trial3	navigation/STIM_005.jpg	100
1694.604	2.68	2679.9	navigation	Trial3	navigation/STIM_005.jpg	99
1700.021	1.827	1827.3	navigation	Trial3	navigation/STIM_006.jpg	99
1705.302	3.801	3801.1	navigation	Trial3	navigation/STIM_006.jpg	100
1712.133	3.353	3352.7	navigation	Trial3	navigation/STIM_006.jpg	100
1718.946	3.701	3701.3	navigation	Trial3	navigation/STIM_006.jpg	100
1725.591	3.052	3051.5	navigation	Trial3	navigation/STIM_006.jpg	99
1731.188	1.969	1969.2	navigation	Trial3	navigation/STIM_006.jpg	99
1735.215	3.439	3439.3	navigation	Trial3	navigation/STIM_007.jpg	100
1741.152	1.864	1863.8	navigation	Trial3	navigation/STIM_007.jpg	99
1745.335	1.753	1752.9	navigation	Trial3	navigation/STIM_007.jpg	100
1750.394	2.794	2793.9	navigation	Trial3	navigation/STIM_007.jpg	99
1756.215	3.232	3232.3	navigation	Trial3	navigation/STIM_007.jpg	100
1762.261	2.896	2896.1	navigation	Trial3	navigation/STIM_007.jpg	99
1767.295	3.583	3583.4	navigation	Trial3	navigation/STIM_008.jpg	100
1773.128	3.779	3778.7	navigation	Trial3	navigation/STIM_008.jpg	100
1779.893	3.555	3554.7	navigation	Trial3	navigation/STIM_008.jpg	100
1787.235	2.84	2839.5	navigation	Trial3	navigation/STIM_008.jpg	100
1792.943	2.725	2724.9	navigation	Trial3	navigation/STIM_008.jpg	99
1797.892	1.544	1544.4	navigation	Trial3	navigation/STIM_008.jpg	99
1803.331	3.5	3499.9	navigation	Trial3	navigation/STIM_009.jpg	99
1809.418	2.304	2303.9	navigation	Trial3	navigation/STIM_009.jpg	99
1814.394	2.598	2597.9	navigation	Trial3	navigation/STIM_009.jpg	100
1820.685	3.697	3697.1	navigation	Trial3	navigation/STIM_009.jpg	100
1827.404	2.424	2423.6	navigation	Trial3	navigation/STIM_009.jpg	99
1833.004	2.05	2050.4	navigation	Trial3	navigation/STIM_009.jpg	100
1837.471	3.033	3032.6	navigation	Trial3	navigation/STIM_010.jpg	99
1843.388	1.744	1744.5	navigation	Trial3	navigation/STIM_010.jpg	99
1847.193	3.329	3328.6	navigation	Trial3	navigation/STIM_010.jpg	99
1854.351	3.253	3253.0	navigation	Trial3	navigation/STIM_010.jpg	100
1860.456	1.944	1943.7	navigation	Trial3	navigation/STIM_010.jpg	99
1865.654	3.624	3624.5	navigation	Trial3	navigation/STIM_010.jpg	99
1872.151	2.135	2134.8	navigation	Trial3	navigation/STIM_011.jpg	99
1876.861	2.93	2930.0	navigation	Trial3	navigation/STIM_011.jpg	99
1882.129	1.693	1693.2	navigation	Trial3	navigation/STIM_011.jpg	99
1886.506	1.831	1831.0	navigation	Trial3	navigation/STIM_011.jpg	99
1891.896	2.995	2994.9	navigation	Trial3	navigation/STIM_011.jpg	100
1897.734	1.765	1765.3	navigation	Trial3	navigation/STIM_011.jpg	99
1901.699	0.972	971.5	pointing	Trial3	pointing/STIM_000.jpg	99
1906.496	1.025	1025.0	pointing	Trial3	pointing/STIM_000.jpg	100
1910.885	1.177	1177.1	pointing	Trial3	pointing/STIM_000.jpg	99
1915.143	1.23	1229.9	pointing	Trial3	pointing/STIM_000.jpg	100
1918.901	1.496	1496.0	pointing	Trial3	pointing/STIM_000.jpg	99
1922.958	1.558	1557.9	pointing	Trial3	pointing/STIM_000.jpg	100
1927.517	1.36	1360.3	pointing	Trial3	pointing/STIM_001.jpg	100
1931.458	1.061	1060.7	pointing	Trial3	pointing/STIM_001.jpg	100
1936.208	1.058	1058.2	pointing	Trial3	pointing/STIM_001.jpg	100
1940.609	0.991	990.6	pointing	Trial3	pointing/STIM_001.jpg	99
1945.229	1.328	1328.4	pointing	Trial3	pointing/STIM_001.jpg	100
1949.356	0.907	906.6	pointing	Trial3	pointing/STIM_001.jpg	100
1954.253	1.026	1025.9	pointing	Trial3	pointing/STIM_002.jpg	99
1957.831	1.322	1322.4	pointing	Trial3	pointing/STIM_002.jpg	99
1961.727	1.109	1108.7	pointing	Trial3	pointing/STIM_002.jpg	99
1964.898	1.306	1305.7	pointing	Trial3	pointing/STIM_002.jpg	99
1969.452	1.597	1597.3	pointing	Trial3	pointing/STIM_002.jpg	99
1973.21	0.877	876.8	pointing	Trial3	pointing/STIM_002.jpg	99
1976.573	1.471	1470.8	pointing	Trial3	pointing/STIM_003.jpg	100
1980.794	1.054	1053.6	pointing	Trial3	pointing/STIM_003.jpg	100
1983.947	1.473	1472.9	pointing	Trial3	pointing/STIM_003.jpg	100
1989.258	1.104	1104.1	pointing	Trial3	pointing/STIM_003.jpg	100
1992.751	1.566	1566.5	pointing	Trial3	pointing/STIM_003.jpg	99
1997.068	1.357	1357.2	pointing	Trial3	pointing/STIM_003.jpg	99
2001.549	1.312	1311.5	pointing	Trial3	pointing/STIM_004.jpg	100
2005.602	1.455	1454.9	pointing	Trial3	pointing/STIM_004.jpg	99
2009.661	1.484	1484.0	pointing	Trial3	pointing/STIM_004.jpg	99
2014.254	1.373	1372.7	pointing	Trial3	pointing/STIM_004.jpg	99
2019.166	1.346	1346.5	pointing	Trial3	pointing/STIM_004.jpg	100
2024.41	1.573	1572.9	pointing	Trial3	pointing/STIM_004.jpg	100
2028.926	1.438	1437.5	pointing	Trial3	pointing/STIM_005.jpg	100
2033.892	0.887	886.8	pointing	Trial3	pointing/STIM_005.jpg	99
2038.745	0.94	940.5	pointing	Trial3	pointing/STIM_005.jpg	100
2043.367	0.911	910.8	pointing	Trial3	pointing/STIM_005.jpg	99
2046.738	1.157	1157.3	pointing	Trial3	pointing/STIM_005.jpg	100
2050.266	1.163	1162.7	pointing	Trial3	pointing/STIM_005.jpg	100
2053.875	0.951	950.6	pointing	Trial3	pointing/STIM_006.jpg	100
2057.689	1.036	1036.2	pointing	Trial3	pointing/STIM_006.jpg	100
2061.789	1.204	1204.3	pointing	Trial3	pointing/STIM_006.jpg	99
2065.747	1.002	1001.5	pointing	Trial3	pointing/STIM_006.jpg	99
2068.749	1.126	1126.0	pointing	Trial3	pointing/STIM_006.jpg	100
2073.619	1.449	1449.0	pointing	Trial3	pointing/STIM_006.jpg	100
2078.23	1.183	1182.6	pointing	Trial3	pointing/STIM_007.jpg	99
2081.747	1.011	1011.2	pointing	Trial3	pointing/STIM_007.jpg	100
2085.457	0.962	961.9	pointing	Trial3	pointing/STIM_007.jpg	100
2089.262	1.047	1046.9	pointing	Trial3	pointing/STIM_007.jpg	100
2092.52	0.88	879.6	pointing	Trial3	pointing/STIM_007.jpg	99
2096.448	0.942	941.8	pointing	Trial3	pointing/STIM_007.jpg	100
2100.585	1.493	1492.8	pointing	Trial3	pointing/STIM_008.jpg	100
2104.932	1.235	1234.9	pointing	Trial3	pointing/STIM_008.jpg	100
2109.091	1.476	1476.5	pointing	Trial3	pointing/STIM_008.jpg	100
2113.072	1.048	1047.5	pointing	Trial3	pointing/STIM_008.jpg	100
2117.551	1.336	1335.6	pointing	Trial3	pointing/STIM_008.jpg	99
2122.374	1.227	1226.7	pointing	Trial3	pointing/STIM_008.jpg	99
2125.77	1.354	1353.5	pointing	Trial3	pointing/STIM_009.jpg	99
2131.031	1.517	1516.6	pointing	Trial3	pointing/STIM_009.jpg	99
2136.136	1.497	1497.2	pointing	Trial3	pointing/STIM_009.jpg	100
2140.557	1.411	1411.1	pointing	Trial3	pointing/STIM_009.jpg	100
2144.409	0.912	912.0	pointing	Trial3	pointing/STIM_009.jpg	100
2148.102	0.954	954.4	pointing	Trial3	pointing/STIM_009.jpg	100
2152.17	1.139	1139.0	pointing	Trial3	pointing/STIM_010.jpg	100
2156.02	1.409	1408.6	pointing	Trial3	pointing/STIM_010.jpg	100
2160.169	1.405	1404.9	pointing	Trial3	pointing/STIM_010.jpg	99
2165.004	1.114	1113.9	pointing	Trial3	pointing/STIM_010.jpg	100
2169.162	1.459	1458.7	pointing	Trial3	pointing/STIM_010.jpg	99
2173.6	1.62	1619.6	pointing	Trial3	pointing/STIM_010.jpg	99
2177.89	1.068	1068.0	pointing	Trial3	pointing/STIM_011.jpg	99
2182.839	0.884	884.5	pointing	Trial3	pointing/STIM_011.jpg	99
2187.082	0.936	935.8	pointing	Trial3	pointing/STIM_011.jpg	99
2191.612	1.4	1399.8	pointing	Trial3	pointing/STIM_011.jpg	100
2195.39	0.902	901.5	pointing	Trial3	pointing/STIM_011.jpg	99
2198.427	1.288	1288.1	pointing	Trial3	pointing/STIM_011.jpg	100
