onset	duration	accuracy	trial_type	learning_stage	stimulus
0.0	3.624	incorrect	navigation	Trial1	navigation/STIM_000.jpg
7.173	3.979	correct	navigation	Trial1	navigation/STIM_000.jpg
13.536	3.484	correct	navigation	Trial1	navigation/STIM_000.jpg
19.254	1.95	incorrect	navigation	Trial1	navigation/STIM_000.jpg
24.889	2.332	incorrect	navigation	Trial1	navigation/STIM_000.jpg
30.813	1.885	correct	navigation	Trial1	navigation/STIM_000.jpg
35.607	3.283	incorrect	navigation	Trial1	navigation/STIM_001.jpg
41.792	3.859	incorrect	navigation	Trial1	navigation/STIM_001.jpg
48.041	4.014	incorrect	navigation	Trial1	navigation/STIM_001.jpg
55.453	3.428	incorrect	navigation	Trial1	navigation/STIM_001.jpg
61.445	3.516	incorrect	navigation	Trial1	navigation/STIM_001.jpg
68.377	3.325	incorrect	navigation	Trial1	navigation/STIM_001.jpg
74.866	4.81	incorrect	navigation	Trial1	navigation/STIM_002.jpg
82.827	3.011	incorrect	navigation	Trial1	navigation/STIM_002.jpg
88.431	3.103	correct	navigation	Trial1	navigation/STIM_002.jpg
94.854	2.198	incorrect	navigation	Trial1	navigation/STIM_002.jpg
99.63	3.921	correct	navigation	Trial1	navigation/STIM_002.jpg
106.013	3.561	incorrect	navigation	Trial1	navigation/STIM_002.jpg
111.64	4.461	incorrect	navigation	Trial1	navigation/STIM_003.jpg
118.289	3.063	incorrect	navigation	Trial1	navigation/STIM_003.jpg
124.589	3.198	incorrect	navigation	Trial1	navigation/STIM_003.jpg
129.8	2.127	correct	navigation	Trial1	navigation/STIM_003.jpg
134.69	3.36	incorrect	navigation	Trial1	navigation/STIM_003.jpg
141.465	1.616	incorrect	navigation	Trial1	navigation/STIM_003.jpg
145.476	4.662	incorrect	navigation	Trial1	navigation/STIM_004.jpg
152.157	4.52	correct	navigation	Trial1	navigation/STIM_004.jpg
158.708	2.763	incorrect	navigation	Trial1	navigation/STIM_004.jpg
164.968	2.386	incorrect	navigation	Trial1	navigation/STIM_004.jpg
170.679	2.546	correct	navigation	Trial1	navigation/STIM_004.jpg
176.332	3.659	incorrect	navigation	Trial1	navigation/STIM_004.jpg
182.759	4.818	correct	navigation	Trial1	navigation/STIM_005.jpg
190.385	4.545	correct	navigation	Trial1	navigation/STIM_005.jpg
197.193	3.479	incorrect	navigation	Trial1	navigation/STIM_005.jpg
204.22	2.857	incorrect	navigation	Trial1	navigation/STIM_005.jpg
209.701	2.332	incorrect	navigation	Trial1	navigation/STIM_005.jpg
215.595	2.667	incorrect	navigation	Trial1	navigation/STIM_005.jpg
220.356	3.31	correct	navigation	Trial1	navigation/STIM_006.jpg
227.031	4.18	correct	navigation	Trial1	navigation/STIM_006.jpg
233.556	2.252	correct	navigation	Trial1	navigation/STIM_006.jpg
239.499	2.071	incorrect	navigation	Trial1	navigation/STIM_006.jpg
244.215	4.016	incorrect	navigation	Trial1	navigation/STIM_006.jpg
251.972	2.896	incorrect	navigation	Trial1	navigation/STIM_006.jpg
257.311	4.854	correct	navigation	Trial1	navigation/STIM_007.jpg
265.99	3.432	correct	navigation	Trial1	navigation/STIM_007.jpg
273.018	3.075	incorrect	navigation	Trial1	navigation/STIM_007.jpg
279.566	2.771	incorrect	navigation	Trial1	navigation/STIM_007.jpg
285.841	2.972	correct	navigation	Trial1	navigation/STIM_007.jpg
291.725	2.75	correct	navigation	Trial1	navigation/STIM_007.jpg
297.392	3.08	incorrect	navigation	Trial1	navigation/STIM_008.jpg
302.808	3.415	incorrect	navigation	Trial1	navigation/STIM_008.jpg
310.198	3.43	incorrect	navigation	Trial1	navigation/STIM_008.jpg
316.171	4.238	correct	navigation	Trial1	navigation/STIM_008.jpg
322.519	2.043	correct	navigation	Trial1	navigation/STIM_008.jpg
328.118	2.042	incorrect	navigation	Trial1	navigation/STIM_008.jpg
332.501	4.093	incorrect	navigation	Trial1	navigation/STIM_009.jpg
340.024	4.31	correct	navigation	Trial1	navigation/STIM_009.jpg
347.059	4.498	correct	navigation	Trial1	navigation/STIM_009.jpg
354.972	3.342	incorrect	navigation	Trial1	navigation/STIM_009.jpg
360.887	2.536	correct	navigation	Trial1	navigation/STIM_009.jpg
365.838	2.003	incorrect	navigation	Trial1	navigation/STIM_009.jpg
369.988	2.937	incorrect	navigation	Trial1	navigation/STIM_010.jpg
375.909	4.677	correct	navigation	Trial1	navigation/STIM_010.jpg
384.126	3.373	incorrect	navigation	Trial1	navigation/STIM_010.jpg
390.416	3.848	incorrect	navigation	Trial1	navigation/STIM_010.jpg
397.633	4.073	correct	navigation	Trial1	navigation/STIM_010.jpg
404.918	2.04	incorrect	navigation	Trial1	navigation/STIM_010.jpg
410.016	3.941	correct	navigation	Trial1	navigation/STIM_011.jpg
417.02	4.563	correct	navigation	Trial1	navigation/STIM_011.jpg
424.65	4.497	incorrect	navigation	Trial1	navigation/STIM_011.jpg
432.503	3.507	incorrect	navigation	Trial1	navigation/STIM_011.jpg
438.022	2.533	correct	navigation	Trial1	navigation/STIM_011.jpg
443.635	3.78	correct	navigation	Trial1	navigation/STIM_011.jpg
451.349	1.253	correct	pointing	Trial1	pointing/STIM_000.jpg
454.691	1.131	correct	pointing	Trial1	pointing/STIM_000.jpg
459.39	1.55	correct	pointing	Trial1	pointing/STIM_000.jpg
463.17	1.323	incorrect	pointing	Trial1	pointing/STIM_000.jpg
466.665	1.379	correct	pointing	Trial1	pointing/STIM_000.jpg
471.412	0.895	correct	pointing	Trial1	pointing/STIM_000.jpg
475.417	1.531	correct	pointing	Trial1	pointing/STIM_001.jpg
480.386	1.235	incorrect	pointing	Trial1	pointing/STIM_001.jpg
485.475	1.233	correct	pointing	Trial1	pointing/STIM_001.jpg
490.367	1.212	correct	pointing	Trial1	pointing/STIM_001.jpg
494.625	1.164	incorrect	pointing	Trial1	pointing/STIM_001.jpg
499.316	1.604	correct	pointing	Trial1	pointing/STIM_001.jpg
503.111	1.542	incorrect	pointing	Trial1	pointing/STIM_002.jpg
508.401	1.579	correct	pointing	Trial1	pointing/STIM_002.jpg
513.372	1.196	correct	pointing	Trial1	pointing/STIM_002.jpg
517.448	0.944	incorrect	pointing	Trial1	pointing/STIM_002.jpg
520.538	1.265	incorrect	pointing	Trial1	pointing/STIM_002.jpg
524.884	1.112	incorrect	pointing	Trial1	pointing/STIM_002.jpg
529.336	1.294	correct	pointing	Trial1	pointing/STIM_003.jpg
534.413	1.078	correct	pointing	Trial1	pointing/STIM_003.jpg
539.356	1.389	incorrect	pointing	Trial1	pointing/STIM_003.jpg
543.451	0.951	correct	pointing	Trial1	pointing/STIM_003.jpg
546.477	1.586	correct	pointing	Trial1	pointing/STIM_003.jpg
551.439	1.473	incorrect	pointing	Trial1	pointing/STIM_003.jpg
555.991	1.433	incorrect	pointing	Trial1	pointing/STIM_004.jpg
561.03	1.27	correct	pointing	Trial1	pointing/STIM_004.jpg
566.15	0.954	correct	pointing	Trial1	pointing/STIM_004.jpg
569.404	0.987	correct	pointing	Trial1	pointing/STIM_004.jpg
572.493	1.508	correct	pointing	Trial1	pointing/STIM_004.jpg
576.477	0.916	correct	pointing	Trial1	pointing/STIM_004.jpg
580.664	1.496	correct	pointing	Trial1	pointing/STIM_005.jpg
584.624	1.358	correct	pointing	Trial1	pointing/STIM_005.jpg
589.542	1.362	incorrect	pointing	Trial1	pointing/STIM_005.jpg
593.306	0.977	incorrect	pointing	Trial1	pointing/STIM_005.jpg
598.057	1.197	incorrect	pointing	Trial1	pointing/STIM_005.jpg
602.03	1.189	correct	pointing	Trial1	pointing/STIM_005.jpg
606.002	1.113	correct	pointing	Trial1	pointing/STIM_006.jpg
610.926	1.1	correct	pointing	Trial1	pointing/STIM_006.jpg
614.146	1.298	correct	pointing	Trial1	pointing/STIM_006.jpg
619.246	0.883	correct	pointing	Trial1	pointing/STIM_006.jpg
623.357	0.895	correct	pointing	Trial1	pointing/STIM_006.jpg
626.881	1.147	correct	pointing	Trial1	pointing/STIM_006.jpg
631.041	1.336	correct	pointing	Trial1	pointing/STIM_007.jpg
635.358	1.371	correct	pointing	Trial1	pointing/STIM_007.jpg
639.827	1.431	incorrect	pointing	Trial1	pointing/STIM_007.jpg
643.531	1.252	incorrect	pointing	Trial1	pointing/STIM_007.jpg
647.902	1.295	correct	pointing	Trial1	pointing/STIM_007.jpg
652.877	1.538	incorrect	pointing	Trial1	pointing/STIM_007.jpg
657.731	1.349	incorrect	pointing	Trial1	pointing/STIM_008.jpg
661.692	1.278	incorrect	pointing	Trial1	pointing/STIM_008.jpg
666.966	0.954	correct	pointing	Trial1	pointing/STIM_008.jpg
671.59	1.068	incorrect	pointing	Trial1	pointing/STIM_008.jpg
676.407	1.228	correct	pointing	Trial1	pointing/STIM_008.jpg
680.468	1.512	correct	pointing	Trial1	pointing/STIM_008.jpg
685.251	1.609	correct	pointing	Trial1	pointing/STIM_009.jpg
688.949	1.01	correct	pointing	Trial1	pointing/STIM_009.jpg
693.472	1.16	correct	pointing	Trial1	pointing/STIM_009.jpg
697.601	1.527	correct	pointing	Trial1	pointing/STIM_009.jpg
701.243	1.511	correct	pointing	Trial1	pointing/STIM_009.jpg
706.562	1.127	incorrect	pointing	Trial1	pointing/STIM_009.jpg
710.993	1.599	correct	pointing	Trial1	pointing/STIM_010.jpg
714.749	1.572	incorrect	pointing	Trial1	pointing/STIM_010.jpg
719.615	1.575	correct	pointing	Trial1	pointing/STIM_010.jpg
723.624	1.328	incorrect	pointing	Trial1	pointing/STIM_010.jpg
727.743	1.44	correct	pointing	Trial1	pointing/STIM_010.jpg
732.652	1.444	correct	pointing	Trial1	pointing/STIM_010.jpg
737.398	1.289	correct	pointing	Trial1	pointing/STIM_011.jpg
741.194	1.565	correct	pointing	Trial1	pointing/STIM_011.jpg
745.561	1.581	correct	pointing	Trial1	pointing/STIM_011.jpg
750.916	1.064	correct	pointing	Trial1	pointing/STIM_011.jpg
755.719	1.504	correct	pointing	Trial1	pointing/STIM_011.jpg
760.367	1.148	correct	pointing	Trial1	pointing/STIM_011.jpg
764.496	3.571	correct	navigation	Trial2	navigation/STIM_000.jpg
772.026	3.102	correct	navigation	Trial2	navigation/STIM_000.jpg
778.209	3.498	correct	navigation	Trial2	navigation/STIM_000.jpg
785.177	2.729	correct	navigation	Trial2	navigation/STIM_000.jpg
789.981	3.279	correct	navigation	Trial2	navigation/STIM_000.jpg
795.35	3.475	correct	navigation	Trial2	navigation/STIM_000.jpg
800.925	2.378	correct	navigation	Trial2	navigation/STIM_001.jpg
806.552	4.111	correct	navigation	Trial2	navigation/STIM_001.jpg
813.769	2.95	incorrect	navigation	Trial2	navigation/STIM_001.jpg
820.706	3.62	incorrect	navigation	Trial2	navigation/STIM_001.jpg
826.953	3.182	incorrect	navigation	Trial2	navigation/STIM_001.jpg
833.762	2.985	correct	navigation	Trial2	navigation/STIM_001.jpg
840.648	3.768	incorrect	navigation	Trial2	navigation/STIM_002.jpg
846.9	4.239	correct	navigation	Trial2	navigation/STIM_002.jpg
853.872	3.018	correct	navigation	Trial2	navigation/STIM_002.jpg
860.006	3.219	correct	navigation	Trial2	navigation/STIM_002.jpg
865.282	1.997	incorrect	navigation	Trial2	navigation/STIM_002.jpg
869.957	2.85	correct	navigation	Trial2	navigation/STIM_002.jpg
875.845	2.292	correct	navigation	Trial2	navigation/STIM_003.jpg
880.167	2.043	incorrect	navigation	Trial2	navigation/STIM_003.jpg
885.411	4.012	correct	navigation	Trial2	navigation/STIM_003.jpg
892.568	2.774	correct	navigation	Trial2	navigation/STIM_003.jpg
897.553	3.588	correct	navigation	Trial2	navigation/STIM_003.jpg
904.388	1.88	incorrect	navigation	Trial2	navigation/STIM_003.jpg
909.862	2.04	incorrect	navigation	Trial2	navigation/STIM_004.jpg
915.189	3.693	correct	navigation	Trial2	navigation/STIM_004.jpg
921.82	1.837	correct	navigation	Trial2	navigation/STIM_004.jpg
927.606	2.289	incorrect	navigation	Trial2	navigation/STIM_004.jpg
933.334	2.08	correct	navigation	Trial2	navigation/STIM_004.jpg
939.01	3.195	correct	navigation	Trial2	navigation/STIM_004.jpg
945.795	2.825	correct	navigation	Trial2	navigation/STIM_005.jpg
951.873	1.805	incorrect	navigation	Trial2	navigation/STIM_005.jpg
957.157	2.948	correct	navigation	Trial2	navigation/STIM_005.jpg
963.089	1.663	correct	navigation	Trial2	navigation/STIM_005.jpg
967.511	2.201	correct	navigation	Trial2	navigation/STIM_005.jpg
972.513	2.859	correct	navigation	Trial2	navigation/STIM_005.jpg
979.259	3.113	correct	navigation	Trial2	navigation/STIM_006.jpg
985.13	4.002	correct	navigation	Trial2	navigation/STIM_006.jpg
992.552	3.724	correct	navigation	Trial2	navigation/STIM_006.jpg
999.145	1.72	incorrect	navigation	Trial2	navigation/STIM_006.jpg
1003.749	2.045	correct	navigation	Trial2	navigation/STIM_006.jpg
1008.749	2.915	correct	navigation	Trial2	navigation/STIM_006.jpg
1015.167	2.734	incorrect	navigation	Trial2	navigation/STIM_007.jpg
1021.754	2.853	incorrect	navigation	Trial2	navigation/STIM_007.jpg
1026.968	3.057	incorrect	navigation	Trial2	navigation/STIM_007.jpg
1033.008	3.207	incorrect	navigation	Trial2	navigation/STIM_007.jpg
1039.13	3.008	incorrect	navigation	Trial2	navigation/STIM_007.jpg
1044.277	3.614	correct	navigation	Trial2	navigation/STIM_007.jpg
1050.419	3.842	correct	navigation	Trial2	navigation/STIM_008.jpg
1056.986	2.566	correct	navigation	Trial2	navigation/STIM_008.jpg
1062.421	2.486	incorrect	navigation	Trial2	navigation/STIM_008.jpg
1067.919	3.53	incorrect	navigation	Trial2	navigation/STIM_008.jpg
1075.255	1.82	correct	navigation	Trial2	navigation/STIM_008.jpg
1079.693	2.886	incorrect	navigation	Trial2	navigation/STIM_008.jpg
1086.433	2.798	correct	navigation	Trial2	navigation/STIM_009.jpg
1091.836	3.965	correct	navigation	Trial2	navigation/STIM_009.jpg
1098.435	3.553	correct	navigation	Trial2	navigation/STIM_009.jpg
1105.63	2.106	correct	navigation	Trial2	navigation/STIM_009.jpg
1111.601	2.096	incorrect	navigation	Trial2	navigation/STIM_009.jpg
1116.782	3.605	incorrect	navigation	Trial2	navigation/STIM_009.jpg
1122.775	3.24	incorrect	navigation	Trial2	navigation/STIM_010.jpg
1129.266	2.697	incorrect	navigation	Trial2	navigation/STIM_010.jpg
1135.588	3.955	correct	navigation	Trial2	navigation/STIM_010.jpg
1143.206	3.364	incorrect	navigation	Trial2	navigation/STIM_010.jpg
1149.667	2.945	correct	navigation	Trial2	navigation/STIM_010.jpg
1155.22	2.116	incorrect	navigation	Trial2	navigation/STIM_010.jpg
1161.002	3.767	correct	navigation	Trial2	navigation/STIM_011.jpg
1167.269	3.245	incorrect	navigation	Trial2	navigation/STIM_011.jpg
1174.314	2.844	correct	navigation	Trial2	navigation/STIM_011.jpg
1180.614	2.628	incorrect	navigation	Trial2	navigation/STIM_011.jpg
1186.79	3.484	incorrect	navigation	Trial2	navigation/STIM_011.jpg
1192.884	1.771	correct	navigation	Trial2	navigation/STIM_011.jpg
1198.257	1.279	correct	pointing	Trial2	pointing/STIM_000.jpg
1201.925	1.24	incorrect	pointing	Trial2	pointing/STIM_000.jpg
1205.564	1.588	incorrect	pointing	Trial2	pointing/STIM_000.jpg
1210.366	1.44	correct	pointing	Trial2	pointing/STIM_000.jpg
1214.158	1.367	correct	pointing	Trial2	pointing/STIM_000.jpg
1217.539	0.967	incorrect	pointing	Trial2	pointing/STIM_000.jpg
1220.582	1.487	incorrect	pointing	Trial2	pointing/STIM_001.jpg
1225.582	1.491	correct	pointing	Trial2	pointing/STIM_001.jpg
1229.469	1.471	correct	pointing	Trial2	pointing/STIM_001.jpg
1234.471	1.584	incorrect	pointing	Trial2	pointing/STIM_001.jpg
1239.374	1.211	incorrect	pointing	Trial2	pointing/STIM_001.jpg
1243.244	1.151	correct	pointing	Trial2	pointing/STIM_001.jpg
1248.284	1.26	correct	pointing	Trial2	pointing/STIM_002.jpg
1253.011	1.399	incorrect	pointing	Trial2	pointing/STIM_002.jpg
1256.417	0.978	incorrect	pointing	Trial2	pointing/STIM_002.jpg
1260.452	1.514	incorrect	pointing	Trial2	pointing/STIM_002.jpg
1265.903	1.265	incorrect	pointing	Trial2	pointing/STIM_002.jpg
1269.8	0.913	correct	pointing	Trial2	pointing/STIM_002.jpg
1273.592	1.051	correct	pointing	Trial2	pointing/STIM_003.jpg
1278.378	1.164	correct	pointing	Trial2	pointing/STIM_003.jpg
1281.97	1.215	correct	pointing	Trial2	pointing/STIM_003.jpg
1286.336	1.082	correct	pointing	Trial2	pointing/STIM_003.jpg
1290.486	1.025	correct	pointing	Trial2	pointing/STIM_003.jpg
1294.721	1.536	correct	pointing	Trial2	pointing/STIM_003.jpg
1299.626	1.159	correct	pointing	Trial2	pointing/STIM_004.jpg
1304.516	1.394	correct	pointing	Trial2	pointing/STIM_004.jpg
1308.573	1.316	incorrect	pointing	Trial2	pointing/STIM_004.jpg
1312.186	1.3	correct	pointing	Trial2	pointing/STIM_004.jpg
1316.995	1.484	correct	pointing	Trial2	pointing/STIM_004.jpg
1320.847	0.928	incorrect	pointing	Trial2	pointing/STIM_004.jpg
1324.837	1.168	correct	pointing	Trial2	pointing/STIM_005.jpg
1329.044	1.418	incorrect	pointing	Trial2	pointing/STIM_005.jpg
1333.914	1.422	incorrect	pointing	Trial2	pointing/STIM_005.jpg
1339.089	1.471	correct	pointing	Trial2	pointing/STIM_005.jpg
1343.265	1.326	correct	pointing	Trial2	pointing/STIM_005.jpg
1347.717	0.956	correct	pointing	Trial2	pointing/STIM_005.jpg
1351.17	1.525	correct	pointing	Trial2	pointing/STIM_006.jpg
1355.888	1.032	correct	pointing	Trial2	pointing/STIM_006.jpg
1359.047	1.483	correct	pointing	Trial2	pointing/STIM_006.jpg
1362.945	1.354	correct	pointing	Trial2	pointing/STIM_006.jpg
1368.163	1.318	correct	pointing	Trial2	pointing/STIM_006.jpg
1372.359	0.95	correct	pointing	Trial2	pointing/STIM_006.jpg
1376.042	1.1	correct	pointing	Trial2	pointing/STIM_007.jpg
1379.723	1.328	incorrect	pointing	Trial2	pointing/STIM_007.jpg
1383.648	1.276	correct	pointing	Trial2	pointing/STIM_007.jpg
1387.106	1.562	correct	pointing	Trial2	pointing/STIM_007.jpg
1391.643	1.558	correct	pointing	Trial2	pointing/STIM_007.jpg
1395.529	1.308	incorrect	pointing	Trial2	pointing/STIM_007.jpg
1399.785	0.897	correct	pointing	Trial2	pointing/STIM_008.jpg
1403.022	1.412	correct	pointing	Trial2	pointing/STIM_008.jpg
1406.596	0.915	correct	pointing	Trial2	pointing/STIM_008.jpg
1410.591	1.232	correct	pointing	Trial2	pointing/STIM_008.jpg
1414.54	1.379	correct	pointing	Trial2	pointing/STIM_008.jpg
1418.657	1.202	incorrect	pointing	Trial2	pointing/STIM_008.jpg
1423.338	1.182	correct	pointing	Trial2	pointing/STIM_009.jpg
1426.94	1.163	correct	pointing	Trial2	pointing/STIM_009.jpg
1430.789	1.45	correct	pointing	Trial2	pointing/STIM_009.jpg
1434.252	1.223	correct	pointing	Trial2	pointing/STIM_009.jpg
1438.536	1.598	incorrect	pointing	Trial2	pointing/STIM_009.jpg
1443.08	1.459	incorrect	pointing	Trial2	pointing/STIM_009.jpg
1447.6	0.991	incorrect	pointing	Trial2	pointing/STIM_010.jpg
1451.576	1.4	incorrect	pointing	Trial2	pointing/STIM_010.jpg
1455.522	1.182	correct	pointing	Trial2	pointing/STIM_010.jpg
1460.076	1.478	correct	pointing	Trial2	pointing/STIM_010.jpg
1464.006	1.216	incorrect	pointing	Trial2	pointing/STIM_010.jpg
1467.54	1.392	incorrect	pointing	Trial2	pointing/STIM_010.jpg
1472.148	1.07	correct	pointing	Trial2	pointing/STIM_011.jpg
1476.705	1.042	correct	pointing	Trial2	pointing/STIM_011.jpg
1481.326	1.192	incorrect	pointing	Trial2	pointing/STIM_011.jpg
1484.631	1.15	incorrect	pointing	Trial2	pointing/STIM_011.jpg
1489.113	1.506	correct	pointing	Trial2	pointing/STIM_011.jpg
1492.755	1.356	correct	pointing	Trial2	pointing/STIM_011.jpg
1496.716	2.848	correct	navigation	Trial3	navigation/STIM_000.jpg
1503.392	1.814	incorrect	navigation	Trial3	navigation/STIM_000.jpg
1507.93	1.988	incorrect	navigation	Trial3	navigation/STIM_000.jpg
1512.472	2.429	correct	navigation	Trial3	navigation/STIM_000.jpg
1517.77	3.171	correct	navigation	Trial3	navigation/STIM_000.jpg
1523.262	3.147	correct	navigation	Trial3	navigation/STIM_000.jpg
1530.212	3.271	incorrect	navigation	Trial3	navigation/STIM_001.jpg
1535.586	3.457	correct	navigation	Trial3	navigation/STIM_001.jpg
1541.807	3.082	correct	navigation	Trial3	navigation/STIM_001.jpg
1548.028	1.999	incorrect	navigation	Trial3	navigation/STIM_001.jpg
1552.146	1.805	correct	navigation	Trial3	navigation/STIM_001.jpg
1556.621	3.689	correct	navigation	Trial3	navigation/STIM_001.jpg
1563.39	2.892	correct	navigation	Trial3	navigation/STIM_002.jpg
1569.897	1.664	correct	navigation	Trial3	navigation/STIM_002.jpg
1574.017	2.054	correct	navigation	Trial3	navigation/STIM_002.jpg
1578.649	1.635	correct	navigation	Trial3	navigation/STIM_002.jpg
1584.272	3.618	correct	navigation	Trial3	navigation/STIM_002.jpg
1591.326	2.955	correct	navigation	Trial3	navigation/STIM_002.jpg
1597.038	2.212	correct	navigation	Trial3	navigation/STIM_003.jpg
1601.295	2.424	incorrect	navigation	Trial3	navigation/STIM_003.jpg
1606.25	2.37	correct	navigation	Trial3	navigation/STIM_003.jpg
1612.0	2.519	incorrect	navigation	Trial3	navigation/STIM_003.jpg
1617.529	2.011	correct	navigation	Trial3	navigation/STIM_003.jpg
1622.147	2.172	incorrect	navigation	Trial3	navigation/STIM_003.jpg
1626.36	2.175	correct	navigation	Trial3	navigation/STIM_004.jpg
1631.489	2.532	incorrect	navigation	Trial3	navigation/STIM_004.jpg
1637.711	3.35	correct	navigation	Trial3	navigation/STIM_004.jpg
1644.001	2.214	incorrect	navigation	Trial3	navigation/STIM_004.jpg
1649.58	2.244	correct	navigation	Trial3	navigation/STIM_004.jpg
1655.742	1.79	correct	navigation	Trial3	navigation/STIM_004.jpg
1661.021	3.713	correct	navigation	Trial3	navigation/STIM_005.jpg
1666.801	2.821	correct	navigation	Trial3	navigation/STIM_005.jpg
1672.262	2.448	incorrect	navigation	Trial3	navigation/STIM_005.jpg
1678.192	1.946	correct	navigation	Trial3	navigation/STIM_005.jpg
1682.383	3.57	correct	navigation	Trial3	navigation/STIM_005.jpg
1689.148	3.696	incorrect	navigation	Trial3	navigation/STIM_005.jpg
1695.175	1.988	incorrect	navigation	Trial3	navigation/STIM_006.jpg
1700.764	1.854	incorrect	navigation	Trial3	navigation/STIM_006.jpg
1706.343	3.278	incorrect	navigation	Trial3	navigation/STIM_006.jpg
1711.662	2.25	correct	navigation	Trial3	navigation/STIM_006.jpg
1716.688	1.973	correct	navigation	Trial3	navigation/STIM_006.jpg
1720.947	2.539	correct	navigation	Trial3	navigation/STIM_006.jpg
1727.142	2.434	correct	navigation	Trial3	navigation/STIM_007.jpg
1732.162	3.272	incorrect	navigation	Trial3	navigation/STIM_007.jpg
1738.088	3.332	correct	navigation	Trial3	navigation/STIM_007.jpg
1743.983	2.748	correct	navigation	Trial3	navigation/STIM_007.jpg
1750.604	2.185	correct	navigation	Trial3	navigation/STIM_007.jpg
1755.197	1.848	correct	navigation	Trial3	navigation/STIM_007.jpg
1760.293	3.358	correct	navigation	Trial3	navigation/STIM_008.jpg
1765.831	2.679	correct	navigation	Trial3	navigation/STIM_008.jpg
1771.409	2.797	incorrect	navigation	Trial3	navigation/STIM_008.jpg
1777.049	2.763	incorrect	navigation	Trial3	navigation/STIM_008.jpg
1783.785	3.678	correct	navigation	Trial3	navigation/STIM_008.jpg
1789.821	3.17	correct	navigation	Trial3	navigation/STIM_008.jpg
1796.054	2.476	incorrect	navigation	Trial3	navigation/STIM_009.jpg
1801.122	3.143	incorrect	navigation	Trial3	navigation/STIM_009.jpg
1808.181	1.592	correct	navigation	Trial3	navigation/STIM_009.jpg
1812.25	1.78	incorrect	navigation	Trial3	navigation/STIM_009.jpg
1817.798	2.38	incorrect	navigation	Trial3	navigation/STIM_009.jpg
1822.981	2.986	correct	navigation	Trial3	navigation/STIM_009.jpg
1829.278	3.652	correct	navigation	Trial3	navigation/STIM_010.jpg
1836.224	3.358	correct	navigation	Trial3	navigation/STIM_010.jpg
1841.817	1.946	correct	navigation	Trial3	navigation/STIM_010.jpg
1847.217	2.448	correct	navigation	Trial3	navigation/STIM_010.jpg
1852.012	3.348	incorrect	navigation	Trial3	navigation/STIM_010.jpg
1857.941	1.998	incorrect	navigation	Trial3	navigation/STIM_010.jpg
1863.121	3.749	correct	navigation	Trial3	navigation/STIM_011.jpg
1870.345	3.061	incorrect	navigation	Trial3	navigation/STIM_011.jpg
1876.033	2.103	incorrect	navigation	Trial3	navigation/STIM_011.jpg
1881.461	2.163	correct	navigation	Trial3	navigation/STIM_011.jpg
1887.151	2.79	incorrect	navigation	Trial3	navigation/STIM_011.jpg
1892.131	2.022	incorrect	navigation	Trial3	navigation/STIM_011.jpg
1896.678	1.083	incorrect	pointing	Trial3	pointing/STIM_000.jpg
1900.203	1.42	correct	pointing	Trial3	pointing/STIM_000.jpg
1903.875	1.468	correct	pointing	Trial3	pointing/STIM_000.jpg
1908.982	0.992	correct	pointing	Trial3	pointing/STIM_000.jpg
1913.295	1.3	correct	pointing	Trial3	pointing/STIM_000.jpg
1916.942	1.56	correct	pointing	Trial3	pointing/STIM_000.jpg
1920.582	0.951	incorrect	pointing	Trial3	pointing/STIM_001.jpg
1923.593	1.522	incorrect	pointing	Trial3	pointing/STIM_001.jpg
1928.15	0.935	incorrect	pointing	Trial3	pointing/STIM_001.jpg
1932.684	1.263	correct	pointing	Trial3	pointing/STIM_001.jpg
1937.182	1.064	correct	pointing	Trial3	pointing/STIM_001.jpg
1941.507	1.039	correct	pointing	Trial3	pointing/STIM_001.jpg
1946.402	1.536	incorrect	pointing	Trial3	pointing/STIM_002.jpg
1950.982	0.889	correct	pointing	Trial3	pointing/STIM_002.jpg
1955.192	1.195	correct	pointing	Trial3	pointing/STIM_002.jpg
1959.071	1.334	incorrect	pointing	Trial3	pointing/STIM_002.jpg
1963.01	1.429	incorrect	pointing	Trial3	pointing/STIM_002.jpg
1967.499	1.399	correct	pointing	Trial3	pointing/STIM_002.jpg
1972.787	1.048	correct	pointing	Trial3	pointing/STIM_003.jpg
1977.29	1.144	correct	pointing	Trial3	pointing/STIM_003.jpg
1982.424	1.171	incorrect	pointing	Trial3	pointing/STIM_003.jpg
1986.904	1.446	correct	pointing	Trial3	pointing/STIM_003.jpg
1990.989	1.569	correct	pointing	Trial3	pointing/STIM_003.jpg
1995.704	1.192	correct	pointing	Trial3	pointing/STIM_003.jpg
1999.487	1.364	correct	pointing	Trial3	pointing/STIM_004.jpg
2004.166	1.564	correct	pointing	Trial3	pointing/STIM_004.jpg
2009.602	1.322	incorrect	pointing	Trial3	pointing/STIM_004.jpg
2014.912	1.473	incorrect	pointing	Trial3	pointing/STIM_004.jpg
2018.617	1.608	incorrect	pointing	Trial3	pointing/STIM_004.jpg
2024.019	1.031	correct	pointing	Trial3	pointing/STIM_004.jpg
2028.56	1.196	incorrect	pointing	Trial3	pointing/STIM_005.jpg
2033.718	1.516	incorrect	pointing	Trial3	pointing/STIM_005.jpg
2038.586	1.4	correct	pointing	Trial3	pointing/STIM_005.jpg
2043.689	1.205	correct	pointing	Trial3	pointing/STIM_005.jpg
2047.861	1.39	correct	pointing	Trial3	pointing/STIM_005.jpg
2051.44	0.961	correct	pointing	Trial3	pointing/STIM_005.jpg
2056.319	1.326	correct	pointing	Trial3	pointing/STIM_006.jpg
2061.036	1.136	correct	pointing	Trial3	pointing/STIM_006.jpg
2064.516	1.081	correct	pointing	Trial3	pointing/STIM_006.jpg
2068.882	1.096	correct	pointing	Trial3	pointing/STIM_006.jpg
2072.598	1.485	correct	pointing	Trial3	pointing/STIM_006.jpg
2077.728	1.052	correct	pointing	Trial3	pointing/STIM_006.jpg
2082.52	1.604	correct	pointing	Trial3	pointing/STIM_007.jpg
2086.437	1.049	correct	pointing	Trial3	pointing/STIM_007.jpg
2089.971	1.262	correct	pointing	Trial3	pointing/STIM_007.jpg
2094.812	1.204	correct	pointing	Trial3	pointing/STIM_007.jpg
2098.361	1.242	correct	pointing	Trial3	pointing/STIM_007.jpg
2101.923	1.455	correct	pointing	Trial3	pointing/STIM_007.jpg
2105.891	1.223	incorrect	pointing	Trial3	pointing/STIM_008.jpg
2109.205	1.414	correct	pointing	Trial3	pointing/STIM_008.jpg
2112.677	1.343	correct	pointing	Trial3	pointing/STIM_008.jpg
2117.046	1.315	correct	pointing	Trial3	pointing/STIM_008.jpg
2122.075	1.266	correct	pointing	Trial3	pointing/STIM_008.jpg
2126.591	1.192	incorrect	pointing	Trial3	pointing/STIM_008.jpg
2130.689	0.894	incorrect	pointing	Trial3	pointing/STIM_009.jpg
2134.459	0.983	incorrect	pointing	Trial3	pointing/STIM_009.jpg
2138.536	1.572	correct	pointing	Trial3	pointing/STIM_009.jpg
2143.923	1.259	incorrect	pointing	Trial3	pointing/STIM_009.jpg
2147.829	0.952	correct	pointing	Trial3	pointing/STIM_009.jpg
2151.563	1.517	correct	pointing	Trial3	pointing/STIM_009.jpg
2155.626	1.57	incorrect	pointing	Trial3	pointing/STIM_010.jpg
2159.943	1.556	correct	pointing	Trial3	pointing/STIM_010.jpg
2164.875	1.095	correct	pointing	Trial3	pointing/STIM_010.jpg
2168.404	1.149	correct	pointing	Trial3	pointing/STIM_010.jpg
2172.408	0.895	correct	pointing	Trial3	pointing/STIM_010.jpg
2176.837	1.02	incorrect	pointing	Trial3	pointing/STIM_010.jpg
2180.54	1.534	correct	pointing	Trial3	pointing/STIM_011.jpg
2185.013	0.897	correct	pointing	Trial3	pointing/STIM_011.jpg
2189.265	0.919	correct	pointing	Trial3	pointing/STIM_011.jpg
2192.986	1.422	correct	pointing	Trial3	pointing/STIM_011.jpg
2196.476	1.054	correct	pointing	Trial3	pointing/STIM_011.jpg
2200.219	1.462	correct	pointing	Trial3	pointing/STIM_011.jpg
