onset	duration	response_time_ms	trial_type	learning_stage	stimulus	response_port
0.0	0.762	761.8	2back	Block1	2back/STIM_000.jpg	100
4.37	1.128	1127.6	2back	Block1	2back/STIM_000.jpg	99
8.559	0.864	863.8	2back	Block1	2back/STIM_000.jpg	100
13.052	0.677	677.4	2back	Block1	2back/STIM_001.jpg	100
17.01	1.077	1077.2	2back	Block1	2back/STIM_001.jpg	99
20.873	0.81	810.5	2back	Block1	2back/STIM_001.jpg	99
25.571	1.049	1048.9	2back	Block1	2back/STIM_002.jpg	99
30.457	1.091	1091.2	2back	Block1	2back/STIM_002.jpg	99
33.852	0.706	705.6	2back	Block1	2back/STIM_002.jpg	99
38.469	0.604	604.1	2back	Block1	2back/STIM_003.jpg	99
41.24	0.917	916.9	2back	Block1	2back/STIM_003.jpg	99
46.027	0.812	812.2	2back	Block1	2back/STIM_003.jpg	99
49.973	0.696	695.6	2back	Block1	2back/STIM_004.jpg	99
53.84	0.727	727.2	2back	Block1	2back/STIM_004.jpg	100
57.459	0.911	911.2	2back	Block1	2back/STIM_004.jpg	100
60.739	0.84	839.9	2back	Block1	2back/STIM_005.jpg	99
64.617	0.847	846.9	2back	Block1	2back/STIM_005.jpg	100
69.443	0.916	916.3	2back	Block1	2back/STIM_005.jpg	99
73.946	0.562	562.5	2back	Block1	2back/STIM_006.jpg	100
77.122	0.581	581.2	2back	Block1	2back/STIM_006.jpg	100
81.493	0.996	996.2	2back	Block1	2back/STIM_006.jpg	99
85.272	1.174	1173.9	2back	Block1	2back/STIM_007.jpg	99
89.362	1.218	1218.4	2back	Block1	2back/STIM_007.jpg	100
92.814	0.924	923.7	2back	Block1	2back/STIM_007.jpg	100
97.247	0.996	995.9	2back	Block1	2back/STIM_008.jpg	99
100.706	1.074	1074.0	2back	Block1	2back/STIM_008.jpg	100
105.68	0.528	527.8	2back	Block1	2back/STIM_008.jpg	100
109.836	0.881	880.8	2back	Block1	2back/STIM_009.jpg	99
113.14	1.101	1101.2	2back	Block1	2back/STIM_009.jpg	99
118.076	0.806	806.5	2back	Block1	2back/STIM_009.jpg	100
121.743	0.604	604.3	2back	Block1	2back/STIM_010.jpg	99
125.159	0.7	699.8	2back	Block1	2back/STIM_010.jpg	100
128.477	0.504	503.7	2back	Block1	2back/STIM_010.jpg	100
132.242	1.0	1000.5	2back	Block1	2back/STIM_011.jpg	99
135.937	1.174	1174.5	2back	Block1	2back/STIM_011.jpg	100
139.635	0.939	938.9	2back	Block1	2back/STIM_011.jpg	99
144.029	0.753	752.7	2back	Block1	2back/STIM_012.jpg	100
147.327	1.047	1046.6	2back	Block1	2back/STIM_012.jpg	100
150.388	0.879	878.7	2back	Block1	2back/STIM_012.jpg	100
153.333	0.974	974.3	2back	Block1	2back/STIM_013.jpg	99
156.553	0.98	979.6	2back	Block1	2back/STIM_013.jpg	100
160.53	0.533	532.6	2back	Block1	2back/STIM_013.jpg	99
164.258	0.904	904.5	2back	Block1	2back/STIM_014.jpg	99
167.68	0.87	869.8	2back	Block1	2back/STIM_014.jpg	100
171.534	0.813	812.7	2back	Block1	2back/STIM_014.jpg	100
175.126	0.815	814.7	2back	Block1	2back/STIM_015.jpg	99
178.534	1.069	1069.4	2back	Block1	2back/STIM_015.jpg	100
181.729	0.918	918.4	2back	Block1	2back/STIM_015.jpg	99
186.614	0.944	944.2	2back	Block1	2back/STIM_016.jpg	99
190.917	0.558	557.5	2back	Block1	2back/STIM_016.jpg	100
194.531	0.964	963.5	2back	Block1	2back/STIM_016.jpg	99
199.471	1.226	1226.5	2back	Block1	2back/STIM_017.jpg	99
203.102	0.662	662.4	2back	Block1	2back/STIM_017.jpg	99
207.28	0.826	825.6	2back	Block1	2back/STIM_017.jpg	99
210.312	1.099	1098.6	2back	Block1	2back/STIM_018.jpg	99
214.98	0.832	831.8	2back	Block1	2back/STIM_018.jpg	100
218.104	0.706	706.2	2back	Block1	2back/STIM_018.jpg	100
220.928	0.614	614.1	2back	Block1	2back/STIM_019.jpg	100
224.346	0.758	757.9	2back	Block1	2back/STIM_019.jpg	99
227.122	0.876	875.5	2back	Block1	2back/STIM_019.jpg	100
230.366	0.772	772.3	2back	Block1	2back/STIM_020.jpg	100
234.798	0.682	682.2	2back	Block1	2back/STIM_020.jpg	99
238.898	0.497	496.7	2back	Block1	2back/STIM_020.jpg	100
242.353	1.003	1003.0	2back	Block1	2back/STIM_021.jpg	99
246.365	0.68	679.8	2back	Block1	2back/STIM_021.jpg	99
251.037	1.016	1016.3	2back	Block1	2back/STIM_021.jpg	100
255.976	1.034	1034.1	2back	Block1	2back/STIM_022.jpg	100
259.058	1.197	1196.9	2back	Block1	2back/STIM_022.jpg	99
264.14	0.591	591.4	2back	Block1	2back/STIM_022.jpg	99
267.134	0.887	887.3	2back	Block1	2back/STIM_023.jpg	100
270.387	1.15	1149.9	2back	Block1	2back/STIM_023.jpg	100
274.574	0.763	763.4	2back	Block1	2back/STIM_023.jpg	99
278.334	0.765	765.1	2back	Block1	2back/STIM_024.jpg	100
282.3	1.105	1104.8	2back	Block1	2back/STIM_024.jpg	100
285.541	0.524	524.2	2back	Block1	2back/STIM_024.jpg	99
290.037	1.269	1268.9	2back	Block1	2back/STIM_025.jpg	99
294.126	1.003	1003.4	2back	Block1	2back/STIM_025.jpg	100
298.69	0.83	830.1	2back	Block1	2back/STIM_025.jpg	100
302.675	1.21	1210.1	2back	Block1	2back/STIM_026.jpg	100
306.764	1.17	1170.4	2back	Block1	2back/STIM_026.jpg	100
311.482	0.903	903.1	2back	Block1	2back/STIM_026.jpg	100
316.2	0.917	917.1	2back	Block1	2back/STIM_027.jpg	99
320.87	1.037	1036.6	2back	Block1	2back/STIM_027.jpg	99
325.828	0.527	527.0	2back	Block1	2back/STIM_027.jpg	99
330.314	0.7	699.9	2back	Block1	2back/STIM_028.jpg	100
333.264	0.999	999.0	2back	Block1	2back/STIM_028.jpg	99
336.316	0.906	906.2	2back	Block1	2back/STIM_028.jpg	100
341.147	0.767	766.8	2back	Block1	2back/STIM_029.jpg	100
344.711	0.795	795.1	2back	Block1	2back/STIM_029.jpg	100
348.434	0.503	503.1	2back	Block1	2back/STIM_029.jpg	99
352.753	1.157	1156.6	2back	Block1	2back/STIM_030.jpg	100
357.493	0.991	991.4	2back	Block1	2back/STIM_030.jpg	99
361.909	0.6	599.9	2back	Block1	2back/STIM_030.jpg	100
364.99	1.153	1153.3	2back	Block1	2back/STIM_031.jpg	99
368.911	1.042	1042.4	2back	Block1	2back/STIM_031.jpg	100
373.518	0.503	503.4	2back	Block1	2back/STIM_031.jpg	100
376.599	1.057	1057.0	2back	Block1	2back/STIM_032.jpg	100
379.847	0.564	564.5	2back	Block1	2back/STIM_032.jpg	100
384.265	0.757	756.8	2back	Block1	2back/STIM_032.jpg	100
387.961	0.706	706.2	2back	Block1	2back/STIM_033.jpg	99
391.329	1.22	1220.2	2back	Block1	2back/STIM_033.jpg	99
395.929	1.105	1105.4	2back	Block1	2back/STIM_033.jpg	99
399.36	0.83	829.7	2back	Block1	2back/STIM_034.jpg	99
403.452	0.775	775.0	2back	Block1	2back/STIM_034.jpg	100
407.709	0.89	889.9	2back	Block1	2back/STIM_034.jpg	100
410.927	0.584	583.9	2back	Block1	2back/STIM_035.jpg	100
414.179	1.12	1120.4	2back	Block1	2back/STIM_035.jpg	99
418.318	0.581	580.9	2back	Block1	2back/STIM_035.jpg	100
422.756	0.848	847.7	2back	Block1	2back/STIM_036.jpg	99
426.486	0.814	814.2	2back	Block1	2back/STIM_036.jpg	99
431.284	0.795	795.4	2back	Block1	2back/STIM_036.jpg	99
435.369	0.737	736.7	2back	Block1	2back/STIM_037.jpg	100
440.053	0.665	665.2	2back	Block1	2back/STIM_037.jpg	100
442.877	0.504	503.7	2back	Block1	2back/STIM_037.jpg	100
445.45	0.738	737.7	2back	Block1	2back/STIM_038.jpg	100
449.595	0.586	586.0	2back	Block1	2back/STIM_038.jpg	100
452.324	0.778	777.8	2back	Block1	2back/STIM_038.jpg	100
455.255	1.033	1033.3	2back	Block1	2back/STIM_039.jpg	100
459.237	0.79	790.2	2back	Block1	2back/STIM_039.jpg	100
463.995	0.937	937.2	2back	Block1	2back/STIM_039.jpg	100
468.444	0.382	382.5	0back	Block1	0back/STIM_000.jpg	99
472.634	0.446	446.1	0back	Block1	0back/STIM_000.jpg	100
475.313	0.655	654.8	0back	Block1	0back/STIM_000.jpg	100
479.035	0.565	564.8	0back	Block1	0back/STIM_001.jpg	100
482.848	0.599	599.1	0back	Block1	0back/STIM_001.jpg	99
486.342	0.382	382.1	0back	Block1	0back/STIM_001.jpg	100
489.931	0.668	667.8	0back	Block1	0back/STIM_002.jpg	99
494.191	0.6	600.1	0back	Block1	0back/STIM_002.jpg	100
498.214	0.513	513.4	0back	Block1	0back/STIM_002.jpg	99
501.615	0.714	714.0	0back	Block1	0back/STIM_003.jpg	100
505.366	0.644	644.1	0back	Block1	0back/STIM_003.jpg	100
509.083	0.492	492.2	0back	Block1	0back/STIM_003.jpg	99
511.823	0.71	709.7	0back	Block1	0back/STIM_004.jpg	100
515.335	0.586	586.2	0back	Block1	0back/STIM_004.jpg	100
519.909	0.37	369.9	0back	Block1	0back/STIM_004.jpg	100
523.245	0.62	619.7	0back	Block1	0back/STIM_005.jpg	99
526.001	0.403	403.2	0back	Block1	0back/STIM_005.jpg	100
530.251	0.69	689.8	0back	Block1	0back/STIM_005.jpg	100
534.284	0.629	629.0	0back	Block1	0back/STIM_006.jpg	99
537.275	0.633	632.9	0back	Block1	0back/STIM_006.jpg	99
541.866	0.544	544.0	0back	Block1	0back/STIM_006.jpg	100
545.799	0.494	494.2	0back	Block1	0back/STIM_007.jpg	100
548.601	0.625	624.7	0back	Block1	0back/STIM_007.jpg	99
551.813	0.631	631.0	0back	Block1	0back/STIM_007.jpg	99
555.955	0.706	706.1	0back	Block1	0back/STIM_008.jpg	100
560.404	0.72	720.1	0back	Block1	0back/STIM_008.jpg	99
563.78	0.537	537.2	0back	Block1	0back/STIM_008.jpg	99
567.519	0.456	455.9	0back	Block1	0back/STIM_009.jpg	99
570.004	0.725	725.2	0back	Block1	0back/STIM_009.jpg	99
573.675	0.408	408.1	0back	Block1	0back/STIM_009.jpg	99
578.05	0.43	429.6	0back	Block1	0back/STIM_010.jpg	100
580.969	0.479	479.3	0back	Block1	0back/STIM_010.jpg	100
584.49	0.511	511.2	0back	Block1	0back/STIM_010.jpg	100
587.16	0.594	594.2	0back	Block1	0back/STIM_011.jpg	99
589.79	0.619	619.2	0back	Block1	0back/STIM_011.jpg	100
593.507	0.592	591.5	0back	Block1	0back/STIM_011.jpg	100
597.68	0.534	533.6	0back	Block1	0back/STIM_012.jpg	100
600.664	0.618	618.5	0back	Block1	0back/STIM_012.jpg	99
604.321	0.402	401.8	0back	Block1	0back/STIM_012.jpg	100
607.218	0.615	614.6	0back	Block1	0back/STIM_013.jpg	99
610.039	0.499	498.7	0back	Block1	0back/STIM_013.jpg	100
613.818	0.694	694.5	0back	Block1	0back/STIM_013.jpg	100
617.14	0.454	453.7	0back	Block1	0back/STIM_014.jpg	99
621.487	0.442	441.7	0back	Block1	0back/STIM_014.jpg	100
624.237	0.503	503.3	0back	Block1	0back/STIM_014.jpg	100
628.309	0.709	709.4	0back	Block1	0back/STIM_015.jpg	100
631.337	0.712	712.2	0back	Block1	0back/STIM_015.jpg	99
635.213	0.609	609.1	0back	Block1	0back/STIM_015.jpg	99
638.052	0.614	613.8	0back	Block1	0back/STIM_016.jpg	100
642.658	0.378	378.0	0back	Block1	0back/STIM_016.jpg	99
645.639	0.434	433.7	0back	Block1	0back/STIM_016.jpg	99
649.232	0.418	418.0	0back	Block1	0back/STIM_017.jpg	100
652.784	0.442	442.5	0back	Block1	0back/STIM_017.jpg	99
657.052	0.627	626.8	0back	Block1	0back/STIM_017.jpg	99
660.036	0.459	459.3	0back	Block1	0back/STIM_018.jpg	99
662.707	0.651	651.0	0back	Block1	0back/STIM_018.jpg	100
667.166	0.723	722.9	0back	Block1	0back/STIM_018.jpg	100
670.122	0.59	590.5	0back	Block1	0back/STIM_019.jpg	100
673.859	0.537	537.4	0back	Block1	0back/STIM_019.jpg	99
676.472	0.509	509.2	0back	Block1	0back/STIM_019.jpg	100
679.957	0.925	925.0	2back	Block2	2back/STIM_000.jpg	100
684.5	0.513	512.6	2back	Block2	2back/STIM_000.jpg	100
688.034	0.716	716.2	2back	Block2	2back/STIM_000.jpg	100
691.511	0.713	712.6	2back	Block2	2back/STIM_001.jpg	100
695.224	0.938	937.5	2back	Block2	2back/STIM_001.jpg	99
699.419	0.644	644.5	2back	Block2	2back/STIM_001.jpg	100
703.964	1.082	1082.0	2back	Block2	2back/STIM_002.jpg	100
707.595	0.892	891.7	2back	Block2	2back/STIM_002.jpg	99
712.463	0.77	770.2	2back	Block2	2back/STIM_002.jpg	99
716.362	0.774	773.6	2back	Block2	2back/STIM_003.jpg	100
720.122	0.69	690.3	2back	Block2	2back/STIM_003.jpg	100
723.757	0.656	656.3	2back	Block2	2back/STIM_003.jpg	99
728.103	0.918	918.5	2back	Block2	2back/STIM_004.jpg	100
731.6	0.498	498.1	2back	Block2	2back/STIM_004.jpg	99
735.875	0.562	561.8	2back	Block2	2back/STIM_004.jpg	99
740.084	0.984	984.4	2back	Block2	2back/STIM_005.jpg	100
744.548	0.623	622.8	2back	Block2	2back/STIM_005.jpg	99
747.199	0.836	835.6	2back	Block2	2back/STIM_005.jpg	99
750.446	0.904	904.0	2back	Block2	2back/STIM_006.jpg	100
754.759	0.688	688.4	2back	Block2	2back/STIM_006.jpg	100
759.377	0.798	798.2	2back	Block2	2back/STIM_006.jpg	100
763.953	0.584	583.6	2back	Block2	2back/STIM_007.jpg	99
767.149	0.804	804.0	2back	Block2	2back/STIM_007.jpg	100
770.077	0.7	700.1	2back	Block2	2back/STIM_007.jpg	100
773.645	0.687	687.0	2back	Block2	2back/STIM_008.jpg	100
776.807	0.613	612.8	2back	Block2	2back/STIM_008.jpg	99
780.347	0.682	682.2	2back	Block2	2back/STIM_008.jpg	100
784.348	0.944	943.8	2back	Block2	2back/STIM_009.jpg	100
788.232	0.805	805.1	2back	Block2	2back/STIM_009.jpg	99
792.102	0.897	896.6	2back	Block2	2back/STIM_009.jpg	99
795.827	0.981	980.9	2back	Block2	2back/STIM_010.jpg	99
800.277	0.921	920.6	2back	Block2	2back/STIM_010.jpg	100
804.233	0.655	655.2	2back	Block2	2back/STIM_010.jpg	100
807.269	0.715	715.2	2back	Block2	2back/STIM_011.jpg	99
810.449	0.942	941.7	2back	Block2	2back/STIM_011.jpg	100
814.934	0.43	429.5	2back	Block2	2back/STIM_011.jpg	99
817.86	0.86	859.7	2back	Block2	2back/STIM_012.jpg	100
820.987	0.654	653.8	2back	Block2	2back/STIM_012.jpg	100
823.645	0.961	960.8	2back	Block2	2back/STIM_012.jpg	100
827.761	0.517	516.9	2back	Block2	2back/STIM_013.jpg	99
831.978	0.744	744.2	2back	Block2	2back/STIM_013.jpg	100
835.003	0.418	417.6	2back	Block2	2back/STIM_013.jpg	99
837.618	0.954	954.1	2back	Block2	2back/STIM_014.jpg	99
841.976	0.935	934.7	2back	Block2	2back/STIM_014.jpg	100
845.626	0.461	461.4	2back	Block2	2back/STIM_014.jpg	100
849.8	0.744	743.5	2back	Block2	2back/STIM_015.jpg	99
854.258	0.804	804.3	2back	Block2	2back/STIM_015.jpg	100
858.127	0.584	584.5	2back	Block2	2back/STIM_015.jpg	100
862.457	0.987	986.9	2back	Block2	2back/STIM_016.jpg	99
866.036	0.872	871.6	2back	Block2	2back/STIM_016.jpg	100
868.925	0.749	749.4	2back	Block2	2back/STIM_016.jpg	100
871.727	1.004	1004.3	2back	Block2	2back/STIM_017.jpg	100
875.307	0.886	886.0	2back	Block2	2back/STIM_017.jpg	99
878.528	0.73	729.7	2back	Block2	2back/STIM_017.jpg	100
881.331	0.808	808.0	2back	Block2	2back/STIM_018.jpg	100
884.268	0.749	749.2	2back	Block2	2back/STIM_018.jpg	100
887.465	0.748	748.1	2back	Block2	2back/STIM_018.jpg	99
890.636	0.747	746.6	2back	Block2	2back/STIM_019.jpg	99
893.467	0.444	443.9	2back	Block2	2back/STIM_019.jpg	99
897.678	0.799	798.7	2back	Block2	2back/STIM_019.jpg	99
901.48	1.061	1061.4	2back	Block2	2back/STIM_020.jpg	99
905.765	0.583	582.8	2back	Block2	2back/STIM_020.jpg	100
909.902	0.833	833.3	2back	Block2	2back/STIM_020.jpg	99
914.019	0.839	838.8	2back	Block2	2back/STIM_021.jpg	99
918.267	0.677	676.8	2back	Block2	2back/STIM_021.jpg	99
920.948	0.679	678.7	2back	Block2	2back/STIM_021.jpg	99
924.398	0.781	781.2	2back	Block2	2back/STIM_022.jpg	99
928.991	0.598	598.2	2back	Block2	2back/STIM_022.jpg	100
932.127	0.565	564.8	2back	Block2	2back/STIM_022.jpg	100
936.623	0.652	652.3	2back	Block2	2back/STIM_023.jpg	99
939.284	1.027	1027.0	2back	Block2	2back/STIM_023.jpg	100
943.561	0.887	886.9	2back	Block2	2back/STIM_023.jpg	99
947.573	0.737	737.0	2back	Block2	2back/STIM_024.jpg	99
950.583	0.508	508.0	2back	Block2	2back/STIM_024.jpg	99
955.08	0.579	578.6	2back	Block2	2back/STIM_024.jpg	100
957.691	0.924	923.9	2back	Block2	2back/STIM_025.jpg	99
962.501	0.985	985.3	2back	Block2	2back/STIM_025.jpg	99
965.95	0.694	694.1	2back	Block2	2back/STIM_025.jpg	100
968.716	0.556	556.4	2back	Block2	2back/STIM_026.jpg	99
971.388	0.854	854.3	2back	Block2	2back/STIM_026.jpg	100
975.509	0.734	733.9	2back	Block2	2back/STIM_026.jpg	100
978.75	0.973	972.6	2back	Block2	2back/STIM_027.jpg	99
983.251	0.77	770.0	2back	Block2	2back/STIM_027.jpg	99
986.332	0.436	436.3	2back	Block2	2back/STIM_027.jpg	100
990.42	0.574	574.0	2back	Block2	2back/STIM_028.jpg	99
994.42	0.696	696.4	2back	Block2	2back/STIM_028.jpg	99
998.008	0.738	738.4	2back	Block2	2back/STIM_028.jpg	100
1001.769	0.923	923.0	2back	Block2	2back/STIM_029.jpg	99
1005.451	0.926	925.7	2back	Block2	2back/STIM_029.jpg	100
1009.173	0.444	444.1	2back	Block2	2back/STIM_029.jpg	100
1012.305	0.529	529.2	2back	Block2	2back/STIM_030.jpg	99
1015.039	0.839	839.4	2back	Block2	2back/STIM_030.jpg	99
1018.78	0.818	818.2	2back	Block2	2back/STIM_030.jpg	100
1022.559	0.7	700.4	2back	Block2	2back/STIM_031.jpg	99
1026.869	0.442	442.5	2back	Block2	2back/STIM_031.jpg	100
1030.408	0.838	838.5	2back	Block2	2back/STIM_031.jpg	99
1033.387	0.618	617.7	2back	Block2	2back/STIM_032.jpg	99
1036.056	0.633	633.4	2back	Block2	2back/STIM_032.jpg	99
1039.32	0.552	551.9	2back	Block2	2back/STIM_032.jpg	100
1042.65	0.681	681.4	2back	Block2	2back/STIM_033.jpg	99
1046.104	0.88	879.5	2back	Block2	2back/STIM_033.jpg	99
1049.54	0.64	640.2	2back	Block2	2back/STIM_033.jpg	99
1053.265	0.712	712.4	2back	Block2	2back/STIM_034.jpg	100
1056.49	0.658	658.4	2back	Block2	2back/STIM_034.jpg	100
1059.232	0.928	927.7	2back	Block2	2back/STIM_034.jpg	99
1062.674	0.558	557.7	2back	Block2	2back/STIM_035.jpg	100
1065.599	0.746	745.6	2back	Block2	2back/STIM_035.jpg	99
1069.792	0.521	521.0	2back	Block2	2back/STIM_035.jpg	99
1072.8	0.965	965.1	2back	Block2	2back/STIM_036.jpg	100
1077.657	0.472	472.2	2back	Block2	2back/STIM_036.jpg	99
1080.725	0.646	646.3	2back	Block2	2back/STIM_036.jpg	99
1083.625	0.788	788.2	2back	Block2	2back/STIM_037.jpg	100
1087.483	0.785	784.9	2back	Block2	2back/STIM_037.jpg	100
1091.816	0.774	773.9	2back	Block2	2back/STIM_037.jpg	99
1094.997	0.738	737.7	2back	Block2	2back/STIM_038.jpg	99
1099.618	0.744	743.6	2back	Block2	2back/STIM_038.jpg	99
1103.039	0.806	806.2	2back	Block2	2back/STIM_038.jpg	99
1107.122	0.611	611.3	2back	Block2	2back/STIM_039.jpg	100
1111.624	0.665	664.8	2back	Block2	2back/STIM_039.jpg	100
1115.088	0.638	637.6	2back	Block2	2back/STIM_039.jpg	100
1119.61	0.706	705.6	0back	Block2	0back/STIM_000.jpg	99
1123.81	0.552	552.3	0back	Block2	0back/STIM_000.jpg	99
1127.917	0.699	699.4	0back	Block2	0back/STIM_000.jpg	99
1132.564	0.56	559.7	0back	Block2	0back/STIM_001.jpg	100
1135.454	0.602	602.3	0back	Block2	0back/STIM_001.jpg	99
1139.585	0.48	480.4	0back	Block2	0back/STIM_001.jpg	99
1143.852	0.602	602.5	0back	Block2	0back/STIM_002.jpg	99
1147.57	0.665	665.1	0back	Block2	0back/STIM_002.jpg	100
1150.267	0.401	401.3	0back	Block2	0back/STIM_002.jpg	100
1152.893	0.413	413.4	0back	Block2	0back/STIM_003.jpg	100
1156.677	0.516	515.7	0back	Block2	0back/STIM_003.jpg	100
1160.834	0.638	637.8	0back	Block2	0back/STIM_003.jpg	99
1164.534	0.726	726.3	0back	Block2	0back/STIM_004.jpg	99
1168.061	0.671	671.1	0back	Block2	0back/STIM_004.jpg	100
1172.265	0.682	682.3	0back	Block2	0back/STIM_004.jpg	100
1175.702	0.429	429.3	0back	Block2	0back/STIM_005.jpg	100
1178.556	0.426	426.2	0back	Block2	0back/STIM_005.jpg	100
1181.75	0.542	541.7	0back	Block2	0back/STIM_005.jpg	100
1185.037	0.708	707.8	0back	Block2	0back/STIM_006.jpg	100
1189.438	0.532	532.1	0back	Block2	0back/STIM_006.jpg	100
1192.46	0.629	628.7	0back	Block2	0back/STIM_006.jpg	100
1195.394	0.646	646.0	0back	Block2	0back/STIM_007.jpg	100
1199.843	0.531	530.8	0back	Block2	0back/STIM_007.jpg	99
1203.867	0.652	652.0	0back	Block2	0back/STIM_007.jpg	99
1207.74	0.455	455.1	0back	Block2	0back/STIM_008.jpg	100
1210.549	0.436	436.2	0back	Block2	0back/STIM_008.jpg	99
1214.404	0.703	703.3	0back	Block2	0back/STIM_008.jpg	99
1218.751	0.398	397.6	0back	Block2	0back/STIM_009.jpg	99
1221.881	0.503	502.9	0back	Block2	0back/STIM_009.jpg	99
1226.283	0.679	679.2	0back	Block2	0back/STIM_009.jpg	100
1229.135	0.582	581.6	0back	Block2	0back/STIM_010.jpg	99
1231.998	0.696	696.5	0back	Block2	0back/STIM_010.jpg	100
1235.658	0.389	388.6	0back	Block2	0back/STIM_010.jpg	99
1238.891	0.59	589.8	0back	Block2	0back/STIM_011.jpg	99
1241.846	0.384	383.6	0back	Block2	0back/STIM_011.jpg	100
1244.519	0.433	433.3	0back	Block2	0back/STIM_011.jpg	99
1248.739	0.555	555.4	0back	Block2	0back/STIM_012.jpg	100
1253.198	0.694	694.5	0back	Block2	0back/STIM_012.jpg	99
1256.702	0.434	434.3	0back	Block2	0back/STIM_012.jpg	100
1259.972	0.613	613.3	0back	Block2	0back/STIM_013.jpg	100
1263.333	0.474	474.0	0back	Block2	0back/STIM_013.jpg	100
1267.664	0.37	369.5	0back	Block2	0back/STIM_013.jpg	99
1271.791	0.41	409.5	0back	Block2	0back/STIM_014.jpg	99
1274.204	0.505	505.0	0back	Block2	0back/STIM_014.jpg	100
1277.204	0.435	435.1	0back	Block2	0back/STIM_014.jpg	100
1280.244	0.586	586.3	0back	Block2	0back/STIM_015.jpg	100
1283.117	0.525	525.0	0back	Block2	0back/STIM_015.jpg	100
1287.126	0.656	655.9	0back	Block2	0back/STIM_015.jpg	100
1290.144	0.587	587.1	0back	Block2	0back/STIM_016.jpg	100
1293.325	0.505	504.7	0back	Block2	0back/STIM_016.jpg	99
1296.128	0.48	479.7	0back	Block2	0back/STIM_016.jpg	99
1300.01	0.691	691.1	0back	Block2	0back/STIM_017.jpg	100
1303.839	0.472	472.4	0back	Block2	0back/STIM_017.jpg	99
1307.221	0.59	589.9	0back	Block2	0back/STIM_017.jpg	99
1311.549	0.685	684.6	0back	Block2	0back/STIM_018.jpg	100
1316.173	0.67	670.0	0back	Block2	0back/STIM_018.jpg	99
1318.987	0.398	397.5	0back	Block2	0back/STIM_018.jpg	99
1322.57	0.672	672.3	0back	Block2	0back/STIM_019.jpg	99
1326.563	0.39	389.7	0back	Block2	0back/STIM_019.jpg	100
1330.254	0.731	731.0	0back	Block2	0back/STIM_019.jpg	99
1334.416	0.899	898.7	2back	Block3	2back/STIM_000.jpg	99
1338.808	0.858	858.2	2back	Block3	2back/STIM_000.jpg	100
1341.959	0.863	862.8	2back	Block3	2back/STIM_000.jpg	100
1346.06	0.688	687.8	2back	Block3	2back/STIM_001.jpg	100
1349.588	0.599	599.2	2back	Block3	2back/STIM_001.jpg	99
1353.888	0.513	513.3	2back	Block3	2back/STIM_001.jpg	99
1358.055	0.475	475.2	2back	Block3	2back/STIM_002.jpg	100
1362.337	0.63	630.2	2back	Block3	2back/STIM_002.jpg	100
1365.138	0.658	657.8	2back	Block3	2back/STIM_002.jpg	99
1368.077	0.609	608.7	2back	Block3	2back/STIM_003.jpg	100
1370.934	0.771	771.4	2back	Block3	2back/STIM_003.jpg	100
1374.435	0.759	759.0	2back	Block3	2back/STIM_003.jpg	100
1378.335	0.528	527.7	2back	Block3	2back/STIM_004.jpg	99
1382.096	0.403	403.2	2back	Block3	2back/STIM_004.jpg	99
1385.148	0.62	620.4	2back	Block3	2back/STIM_004.jpg	99
1388.372	0.73	730.1	2back	Block3	2back/STIM_005.jpg	100
1391.151	0.78	780.1	2back	Block3	2back/STIM_005.jpg	99
1394.941	0.455	454.7	2back	Block3	2back/STIM_005.jpg	99
1397.492	0.49	490.3	2back	Block3	2back/STIM_006.jpg	100
1401.122	0.879	879.0	2back	Block3	2back/STIM_006.jpg	100
1405.038	0.508	507.6	2back	Block3	2back/STIM_006.jpg	99
1409.065	0.568	568.3	2back	Block3	2back/STIM_007.jpg	100
1411.678	0.895	894.9	2back	Block3	2back/STIM_007.jpg	100
1415.489	0.695	694.7	2back	Block3	2back/STIM_007.jpg	99
1419.874	0.805	804.6	2back	Block3	2back/STIM_008.jpg	100
1423.371	0.84	840.4	2back	Block3	2back/STIM_008.jpg	100
1426.74	0.776	775.8	2back	Block3	2back/STIM_008.jpg	100
1430.195	0.842	842.4	2back	Block3	2back/STIM_009.jpg	100
1434.215	0.425	425.3	2back	Block3	2back/STIM_009.jpg	100
1437.275	0.459	459.0	2back	Block3	2back/STIM_009.jpg	100
1439.866	0.782	782.5	2back	Block3	2back/STIM_010.jpg	100
1444.416	0.803	802.8	2back	Block3	2back/STIM_010.jpg	99
1448.95	0.826	825.8	2back	Block3	2back/STIM_010.jpg	100
1452.667	0.42	420.5	2back	Block3	2back/STIM_011.jpg	100
1456.966	0.776	776.2	2back	Block3	2back/STIM_011.jpg	99
1460.197	0.61	610.0	2back	Block3	2back/STIM_011.jpg	99
1463.476	0.827	827.4	2back	Block3	2back/STIM_012.jpg	99
1467.46	0.804	804.3	2back	Block3	2back/STIM_012.jpg	100
1470.831	0.49	489.6	2back	Block3	2back/STIM_012.jpg	99
1473.734	0.505	505.5	2back	Block3	2back/STIM_013.jpg	100
1478.038	0.74	740.3	2back	Block3	2back/STIM_013.jpg	99
1480.939	0.461	460.9	2back	Block3	2back/STIM_013.jpg	99
1484.865	0.858	857.5	2back	Block3	2back/STIM_014.jpg	100
1489.676	0.388	387.9	2back	Block3	2back/STIM_014.jpg	100
1493.44	0.751	751.2	2back	Block3	2back/STIM_014.jpg	100
1496.488	0.518	518.4	2back	Block3	2back/STIM_015.jpg	99
1499.611	0.78	779.6	2back	Block3	2back/STIM_015.jpg	100
1504.122	0.417	416.6	2back	Block3	2back/STIM_015.jpg	99
1507.572	0.497	497.2	2back	Block3	2back/STIM_016.jpg	100
1510.837	0.615	615.1	2back	Block3	2back/STIM_016.jpg	99
1513.984	0.632	632.5	2back	Block3	2back/STIM_016.jpg	99
1516.808	0.709	708.6	2back	Block3	2back/STIM_017.jpg	99
1520.818	0.658	658.4	2back	Block3	2back/STIM_017.jpg	100
1524.504	0.43	430.1	2back	Block3	2back/STIM_017.jpg	100
1527.656	0.86	859.9	2back	Block3	2back/STIM_018.jpg	100
1531.528	0.728	727.9	2back	Block3	2back/STIM_018.jpg	100
1535.49	0.538	537.9	2back	Block3	2back/STIM_018.jpg	100
1539.125	0.75	750.1	2back	Block3	2back/STIM_019.jpg	100
1542.733	0.827	827.4	2back	Block3	2back/STIM_019.jpg	100
1546.419	0.801	801.4	2back	Block3	2back/STIM_019.jpg	99
1549.355	0.564	563.9	2back	Block3	2back/STIM_020.jpg	100
1553.043	0.4	399.9	2back	Block3	2back/STIM_020.jpg	100
1557.271	0.724	723.5	2back	Block3	2back/STIM_020.jpg	100
1560.111	0.442	441.5	2back	Block3	2back/STIM_021.jpg	100
1563.332	0.558	558.5	2back	Block3	2back/STIM_021.jpg	100
1567.346	0.451	450.8	2back	Block3	2back/STIM_021.jpg	100
1570.356	0.57	570.2	2back	Block3	2back/STIM_022.jpg	100
1573.3	0.754	754.3	2back	Block3	2back/STIM_022.jpg	99
1577.284	0.419	419.1	2back	Block3	2back/STIM_022.jpg	99
1580.359	0.78	779.7	2back	Block3	2back/STIM_023.jpg	100
1583.977	0.569	569.4	2back	Block3	2back/STIM_023.jpg	100
1588.239	0.859	859.3	2back	Block3	2back/STIM_023.jpg	100
1592.305	0.455	454.9	2back	Block3	2back/STIM_024.jpg	99
1595.459	0.855	855.0	2back	Block3	2back/STIM_024.jpg	99
1599.394	0.803	802.9	2back	Block3	2back/STIM_024.jpg	99
1603.869	0.471	470.9	2back	Block3	2back/STIM_025.jpg	100
1608.094	0.488	488.5	2back	Block3	2back/STIM_025.jpg	99
1612.508	0.406	405.9	2back	Block3	2back/STIM_025.jpg	100
1616.789	0.591	590.7	2back	Block3	2back/STIM_026.jpg	99
1620.899	0.421	421.3	2back	Block3	2back/STIM_026.jpg	99
1623.527	0.849	848.8	2back	Block3	2back/STIM_026.jpg	100
1626.549	0.793	792.9	2back	Block3	2back/STIM_027.jpg	100
1630.01	0.793	793.3	2back	Block3	2back/STIM_027.jpg	100
1633.31	0.786	786.4	2back	Block3	2back/STIM_027.jpg	99
1637.168	0.49	490.0	2back	Block3	2back/STIM_028.jpg	100
1641.178	0.681	680.6	2back	Block3	2back/STIM_028.jpg	100
1644.451	0.656	656.0	2back	Block3	2back/STIM_028.jpg	100
1647.221	0.571	570.9	2back	Block3	2back/STIM_029.jpg	100
1650.922	0.628	628.4	2back	Block3	2back/STIM_029.jpg	100
1654.127	0.878	877.9	2back	Block3	2back/STIM_029.jpg	99
1657.707	0.506	506.2	2back	Block3	2back/STIM_030.jpg	100
1660.83	0.802	802.3	2back	Block3	2back/STIM_030.jpg	99
1664.549	0.555	554.6	2back	Block3	2back/STIM_030.jpg	99
1667.417	0.404	403.5	2back	Block3	2back/STIM_031.jpg	100
1670.536	0.637	636.9	2back	Block3	2back/STIM_031.jpg	99
1674.245	0.509	509.5	2back	Block3	2back/STIM_031.jpg	100
1678.417	0.462	462.5	2back	Block3	2back/STIM_032.jpg	99
1681.612	0.747	746.6	2back	Block3	2back/STIM_032.jpg	99
1684.506	0.826	826.5	2back	Block3	2back/STIM_032.jpg	99
1687.576	0.607	606.8	2back	Block3	2back/STIM_033.jpg	99
1690.49	0.772	771.5	2back	Block3	2back/STIM_033.jpg	99
1694.45	0.493	493.0	2back	Block3	2back/STIM_033.jpg	99
1698.59	0.668	667.6	2back	Block3	2back/STIM_034.jpg	100
1701.997	0.845	844.7	2back	Block3	2back/STIM_034.jpg	99
1705.128	0.569	568.7	2back	Block3	2back/STIM_034.jpg	99
1708.585	0.898	898.5	2back	Block3	2back/STIM_035.jpg	99
1713.097	0.608	608.5	2back	Block3	2back/STIM_035.jpg	100
1716.98	0.807	807.1	2back	Block3	2back/STIM_035.jpg	99
1721.556	0.883	882.8	2back	Block3	2back/STIM_036.jpg	100
1726.058	0.867	867.3	2back	Block3	2back/STIM_036.jpg	99
1730.732	0.726	726.4	2back	Block3	2back/STIM_036.jpg	100
1733.596	0.394	394.5	2back	Block3	2back/STIM_037.jpg	100
1737.225	0.466	465.7	2back	Block3	2back/STIM_037.jpg	100
1741.056	0.713	712.7	2back	Block3	2back/STIM_037.jpg	100
1743.999	0.72	719.7	2back	Block3	2back/STIM_038.jpg	99
1747.889	0.762	761.9	2back	Block3	2back/STIM_038.jpg	100
1752.585	0.712	711.7	2back	Block3	2back/STIM_038.jpg	99
1755.511	0.386	385.8	2back	Block3	2back/STIM_039.jpg	100
1759.896	0.741	741.4	2back	Block3	2back/STIM_039.jpg	100
1764.45	0.654	654.1	2back	Block3	2back/STIM_039.jpg	100
1768.903	0.41	409.9	0back	Block3	0back/STIM_000.jpg	99
1772.604	0.515	515.2	0back	Block3	0back/STIM_000.jpg	99
1775.963	0.56	559.9	0back	Block3	0back/STIM_000.jpg	99
1779.791	0.643	643.2	0back	Block3	0back/STIM_001.jpg	99
1784.339	0.564	564.2	0back	Block3	0back/STIM_001.jpg	100
1787.448	0.507	507.2	0back	Block3	0back/STIM_001.jpg	99
1791.286	0.454	454.2	0back	Block3	0back/STIM_002.jpg	100
1795.125	0.697	697.0	0back	Block3	0back/STIM_002.jpg	100
1798.104	0.6	599.7	0back	Block3	0back/STIM_002.jpg	100
1800.78	0.509	509.5	0back	Block3	0back/STIM_003.jpg	100
1804.408	0.684	684.5	0back	Block3	0back/STIM_003.jpg	100
1808.315	0.481	481.2	0back	Block3	0back/STIM_003.jpg	100
1811.184	0.517	516.6	0back	Block3	0back/STIM_004.jpg	100
1814.584	0.568	568.4	0back	Block3	0back/STIM_004.jpg	100
1818.581	0.72	719.8	0back	Block3	0back/STIM_004.jpg	99
1822.134	0.63	630.3	0back	Block3	0back/STIM_005.jpg	99
1825.275	0.687	687.2	0back	Block3	0back/STIM_005.jpg	99
1829.226	0.389	389.3	0back	Block3	0back/STIM_005.jpg	99
1832.38	0.5	499.9	0back	Block3	0back/STIM_006.jpg	100
1835.606	0.579	578.6	0back	Block3	0back/STIM_006.jpg	99
1840.092	0.674	673.8	0back	Block3	0back/STIM_006.jpg	100
1843.449	0.609	609.1	0back	Block3	0back/STIM_007.jpg	100
1846.717	0.661	660.9	0back	Block3	0back/STIM_007.jpg	100
1849.772	0.467	466.9	0back	Block3	0back/STIM_007.jpg	100
1853.963	0.514	513.6	0back	Block3	0back/STIM_008.jpg	99
1857.57	0.572	571.7	0back	Block3	0back/STIM_008.jpg	99
1860.56	0.667	667.2	0back	Block3	0back/STIM_008.jpg	99
1865.212	0.447	447.2	0back	Block3	0back/STIM_009.jpg	99
1869.15	0.679	678.7	0back	Block3	0back/STIM_009.jpg	99
1872.966	0.427	426.8	0back	Block3	0back/STIM_009.jpg	99
1876.533	0.68	679.6	0back	Block3	0back/STIM_010.jpg	100
1879.859	0.661	660.7	0back	Block3	0back/STIM_010.jpg	99
1883.034	0.696	695.7	0back	Block3	0back/STIM_010.jpg	99
1886.73	0.415	415.4	0back	Block3	0back/STIM_011.jpg	99
1889.19	0.596	595.6	0back	Block3	0back/STIM_011.jpg	100
1893.746	0.522	521.7	0back	Block3	0back/STIM_011.jpg	99
1896.426	0.401	400.8	0back	Block3	0back/STIM_012.jpg	99
1898.883	0.557	556.7	0back	Block3	0back/STIM_012.jpg	100
1903.095	0.484	483.9	0back	Block3	0back/STIM_012.jpg	99
1905.898	0.57	569.5	0back	Block3	0back/STIM_013.jpg	99
1909.53	0.677	677.0	0back	Block3	0back/STIM_013.jpg	100
1912.498	0.558	557.7	0back	Block3	0back/STIM_013.jpg	100
1916.819	0.585	585.2	0back	Block3	0back/STIM_014.jpg	100
1920.917	0.436	435.5	0back	Block3	0back/STIM_014.jpg	99
1923.883	0.687	687.2	0back	Block3	0back/STIM_014.jpg	100
1927.567	0.475	475.1	0back	Block3	0back/STIM_015.jpg	99
1931.724	0.62	620.5	0back	Block3	0back/STIM_015.jpg	99
1935.304	0.373	372.8	0back	Block3	0back/STIM_015.jpg	99
1939.332	0.439	438.6	0back	Block3	0back/STIM_016.jpg	100
1942.066	0.723	722.9	0back	Block3	0back/STIM_016.jpg	100
1946.063	0.558	558.1	0back	Block3	0back/STIM_016.jpg	100
1949.677	0.632	632.3	0back	Block3	0back/STIM_017.jpg	100
1953.541	0.476	476.4	0back	Block3	0back/STIM_017.jpg	100
1956.834	0.728	728.1	0back	Block3	0back/STIM_017.jpg	100
1961.276	0.437	436.6	0back	Block3	0back/STIM_018.jpg	99
1964.316	0.571	570.9	0back	Block3	0back/STIM_018.jpg	99
1966.997	0.734	733.8	0back	Block3	0back/STIM_018.jpg	99
1969.937	0.685	684.9	0back	Block3	0back/STIM_019.jpg	100
1974.03	0.393	393.2	0back	Block3	0back/STIM_019.jpg	99
1977.204	0.501	500.9	0back	Block3	0back/STIM_019.jpg	99
1980.706	0.711	711.0	2back	Block4	2back/STIM_000.jpg	99
1985.328	0.555	554.9	2back	Block4	2back/STIM_000.jpg	100
1989.077	0.744	744.4	2back	Block4	2back/STIM_000.jpg	99
1993.604	0.688	687.6	2back	Block4	2back/STIM_001.jpg	100
1997.986	0.701	701.0	2back	Block4	2back/STIM_001.jpg	100
2002.0	0.398	398.5	2back	Block4	2back/STIM_001.jpg	100
2004.649	0.7	700.0	2back	Block4	2back/STIM_002.jpg	100
2007.97	0.881	880.9	2back	Block4	2back/STIM_002.jpg	99
2011.251	0.728	727.6	2back	Block4	2back/STIM_002.jpg	99
2014.862	0.54	540.1	2back	Block4	2back/STIM_003.jpg	100
2018.143	0.84	839.8	2back	Block4	2back/STIM_003.jpg	99
2021.978	0.632	631.9	2back	Block4	2back/STIM_003.jpg	99
2024.621	0.71	710.3	2back	Block4	2back/STIM_004.jpg	100
2028.155	0.526	525.5	2back	Block4	2back/STIM_004.jpg	100
2032.111	0.79	790.5	2back	Block4	2back/STIM_004.jpg	100
2035.855	0.662	662.5	2back	Block4	2back/STIM_005.jpg	100
2038.672	0.534	533.9	2back	Block4	2back/STIM_005.jpg	99
2042.275	0.688	688.4	2back	Block4	2back/STIM_005.jpg	99
2045.552	0.818	817.6	2back	Block4	2back/STIM_006.jpg	99
2049.889	0.468	467.5	2back	Block4	2back/STIM_006.jpg	99
2054.319	0.493	492.9	2back	Block4	2back/STIM_006.jpg	100
2056.986	0.719	718.6	2back	Block4	2back/STIM_007.jpg	99
2060.034	0.891	890.6	2back	Block4	2back/STIM_007.jpg	100
2063.766	0.407	406.7	2back	Block4	2back/STIM_007.jpg	100
2068.029	0.392	391.6	2back	Block4	2back/STIM_008.jpg	99
2072.401	0.816	815.6	2back	Block4	2back/STIM_008.jpg	100
2077.005	0.583	583.3	2back	Block4	2back/STIM_008.jpg	100
2081.517	0.662	661.6	2back	Block4	2back/STIM_009.jpg	99
2085.534	0.673	672.8	2back	Block4	2back/STIM_009.jpg	99
2090.01	0.848	847.7	2back	Block4	2back/STIM_009.jpg	100
2093.532	0.559	558.8	2back	Block4	2back/STIM_010.jpg	99
2096.53	0.568	568.5	2back	Block4	2back/STIM_010.jpg	99
2100.391	0.714	714.0	2back	Block4	2back/STIM_010.jpg	100
2103.33	0.665	665.0	2back	Block4	2back/STIM_011.jpg	99
2107.198	0.707	707.2	2back	Block4	2back/STIM_011.jpg	99
2111.53	0.755	754.8	2back	Block4	2back/STIM_011.jpg	99
2114.58	0.46	459.7	2back	Block4	2back/STIM_012.jpg	100
2118.028	0.668	667.9	2back	Block4	2back/STIM_012.jpg	100
2122.564	0.774	774.5	2back	Block4	2back/STIM_012.jpg	100
2126.051	0.497	496.8	2back	Block4	2back/STIM_013.jpg	99
2128.923	0.693	693.1	2back	Block4	2back/STIM_013.jpg	100
2133.384	0.871	871.1	2back	Block4	2back/STIM_013.jpg	99
2136.304	0.684	683.8	2back	Block4	2back/STIM_014.jpg	99
2139.261	0.391	391.0	2back	Block4	2back/STIM_014.jpg	100
2142.383	0.396	395.5	2back	Block4	2back/STIM_014.jpg	100
2144.934	0.854	854.4	2back	Block4	2back/STIM_015.jpg	99
2148.311	0.782	782.2	2back	Block4	2back/STIM_015.jpg	100
2153.023	0.876	876.3	2back	Block4	2back/STIM_015.jpg	100
2156.117	0.623	623.0	2back	Block4	2back/STIM_016.jpg	100
2158.871	0.572	572.2	2back	Block4	2back/STIM_016.jpg	99
2162.948	0.565	564.6	2back	Block4	2back/STIM_016.jpg	99
2166.313	0.648	648.5	2back	Block4	2back/STIM_017.jpg	99
2170.281	0.448	448.3	2back	Block4	2back/STIM_017.jpg	100
2174.047	0.829	829.0	2back	Block4	2back/STIM_017.jpg	99
2176.976	0.724	724.0	2back	Block4	2back/STIM_018.jpg	99
2180.148	0.596	596.3	2back	Block4	2back/STIM_018.jpg	100
2184.611	0.684	683.9	2back	Block4	2back/STIM_018.jpg	100
2188.722	0.522	521.7	2back	Block4	2back/STIM_019.jpg	100
2193.064	0.751	750.9	2back	Block4	2back/STIM_019.jpg	100
2197.763	0.387	386.9	2back	Block4	2back/STIM_019.jpg	99
2200.647	0.636	636.1	2back	Block4	2back/STIM_020.jpg	100
2203.307	0.702	702.0	2back	Block4	2back/STIM_020.jpg	100
2207.82	0.778	777.5	2back	Block4	2back/STIM_020.jpg	99
2211.19	0.844	843.9	2back	Block4	2back/STIM_021.jpg	100
2214.686	0.409	409.2	2back	Block4	2back/STIM_021.jpg	100
2217.137	0.754	754.2	2back	Block4	2back/STIM_021.jpg	100
2220.424	0.397	397.2	2back	Block4	2back/STIM_022.jpg	99
2223.153	0.743	743.0	2back	Block4	2back/STIM_022.jpg	99
2226.166	0.662	662.5	2back	Block4	2back/STIM_022.jpg	99
2229.201	0.405	404.9	2back	Block4	2back/STIM_023.jpg	99
2232.676	0.467	466.9	2back	Block4	2back/STIM_023.jpg	99
2236.797	0.811	811.0	2back	Block4	2back/STIM_023.jpg	100
2239.822	0.816	816.2	2back	Block4	2back/STIM_024.jpg	99
2243.598	0.768	768.4	2back	Block4	2back/STIM_024.jpg	100
2246.84	0.504	503.7	2back	Block4	2back/STIM_024.jpg	100
2250.822	0.66	659.6	2back	Block4	2back/STIM_025.jpg	100
2253.998	0.436	436.3	2back	Block4	2back/STIM_025.jpg	100
2258.124	0.798	797.9	2back	Block4	2back/STIM_025.jpg	100
2261.925	0.573	572.6	2back	Block4	2back/STIM_026.jpg	99
2266.419	0.763	762.6	2back	Block4	2back/STIM_026.jpg	100
2269.949	0.843	842.9	2back	Block4	2back/STIM_026.jpg	100
2273.38	0.861	860.9	2back	Block4	2back/STIM_027.jpg	100
2277.731	0.76	760.3	2back	Block4	2back/STIM_027.jpg	99
2281.103	0.631	630.9	2back	Block4	2back/STIM_027.jpg	100
2285.582	0.724	723.7	2back	Block4	2back/STIM_028.jpg	99
2289.073	0.698	697.7	2back	Block4	2back/STIM_028.jpg	100
2291.78	0.772	771.6	2back	Block4	2back/STIM_028.jpg	100
2295.787	0.742	742.5	2back	Block4	2back/STIM_029.jpg	100
2298.751	0.414	413.5	2back	Block4	2back/STIM_029.jpg	99
2302.866	0.508	507.6	2back	Block4	2back/STIM_029.jpg	99
2306.533	0.713	712.9	2back	Block4	2back/STIM_030.jpg	100
2310.948	0.898	897.8	2back	Block4	2back/STIM_030.jpg	99
2314.733	0.714	714.4	2back	Block4	2back/STIM_030.jpg	99
2319.361	0.693	692.6	2back	Block4	2back/STIM_031.jpg	99
2322.217	0.481	481.2	2back	Block4	2back/STIM_031.jpg	99
2326.655	0.862	861.5	2back	Block4	2back/STIM_031.jpg	99
2330.272	0.421	421.3	2back	Block4	2back/STIM_032.jpg	100
2333.31	0.83	829.7	2back	Block4	2back/STIM_032.jpg	100
2338.109	0.633	633.3	2back	Block4	2back/STIM_032.jpg	99
2341.74	0.89	889.8	2back	Block4	2back/STIM_033.jpg	99
2346.159	0.879	879.0	2back	Block4	2back/STIM_033.jpg	99
2349.188	0.85	849.7	2back	Block4	2back/STIM_033.jpg	100
2353.379	0.602	601.6	2back	Block4	2back/STIM_034.jpg	100
2356.844	0.668	667.5	2back	Block4	2back/STIM_034.jpg	100
2360.324	0.705	705.0	2back	Block4	2back/STIM_034.jpg	99
2363.169	0.685	684.6	2back	Block4	2back/STIM_035.jpg	99
2367.31	0.653	653.0	2back	Block4	2back/STIM_035.jpg	100
2370.391	0.664	664.4	2back	Block4	2back/STIM_035.jpg	99
2373.674	0.669	668.9	2back	Block4	2back/STIM_036.jpg	100
2376.39	0.514	513.6	2back	Block4	2back/STIM_036.jpg	99
2380.65	0.751	750.9	2back	Block4	2back/STIM_036.jpg	100
2383.587	0.486	486.2	2back	Block4	2back/STIM_037.jpg	99
2387.159	0.399	399.4	2back	Block4	2back/STIM_037.jpg	100
2390.256	0.524	523.5	2back	Block4	2back/STIM_037.jpg	99
2394.152	0.774	773.5	2back	Block4	2back/STIM_038.jpg	100
2398.585	0.508	508.3	2back	Block4	2back/STIM_038.jpg	99
2401.351	0.821	820.8	2back	Block4	2back/STIM_038.jpg	100
2404.501	0.869	869.2	2back	Block4	2back/STIM_039.jpg	100
2408.871	0.859	858.9	2back	Block4	2back/STIM_039.jpg	100
2412.47	0.599	599.3	2back	Block4	2back/STIM_039.jpg	99
2416.664	0.511	511.2	0back	Block4	0back/STIM_000.jpg	100
2419.357	0.495	495.3	0back	Block4	0back/STIM_000.jpg	99
2422.716	0.667	666.8	0back	Block4	0back/STIM_000.jpg	100
2426.002	0.461	460.8	0back	Block4	0back/STIM_001.jpg	99
2429.8	0.46	459.7	0back	Block4	0back/STIM_001.jpg	100
2432.699	0.693	692.6	0back	Block4	0back/STIM_001.jpg	100
2436.171	0.645	645.3	0back	Block4	0back/STIM_002.jpg	100
2439.311	0.673	672.7	0back	Block4	0back/STIM_002.jpg	100
2442.26	0.587	586.9	0back	Block4	0back/STIM_002.jpg	100
2446.126	0.456	456.1	0back	Block4	0back/STIM_003.jpg	99
2450.093	0.548	548.2	0back	Block4	0back/STIM_003.jpg	100
2453.486	0.724	723.6	0back	Block4	0back/STIM_003.jpg	99
2456.842	0.588	587.8	0back	Block4	0back/STIM_004.jpg	99
2459.689	0.441	440.7	0back	Block4	0back/STIM_004.jpg	100
2462.363	0.528	527.6	0back	Block4	0back/STIM_004.jpg	100
2465.337	0.583	582.7	0back	Block4	0back/STIM_005.jpg	99
2469.847	0.638	637.8	0back	Block4	0back/STIM_005.jpg	100
2472.635	0.372	372.5	0back	Block4	0back/STIM_005.jpg	99
2475.298	0.539	539.3	0back	Block4	0back/STIM_006.jpg	100
2477.84	0.452	451.6	0back	Block4	0back/STIM_006.jpg	99
2480.436	0.419	419.4	0back	Block4	0back/STIM_006.jpg	100
2483.502	0.469	468.9	0back	Block4	0back/STIM_007.jpg	99
2487.307	0.547	547.4	0back	Block4	0back/STIM_007.jpg	100
2490.266	0.534	534.2	0back	Block4	0back/STIM_007.jpg	99
2492.905	0.398	397.6	0back	Block4	0back/STIM_008.jpg	100
2495.415	0.658	658.2	0back	Block4	0back/STIM_008.jpg	99
2498.223	0.461	461.4	0back	Block4	0back/STIM_008.jpg	100
2501.714	0.496	495.5	0back	Block4	0back/STIM_009.jpg	99
2504.594	0.372	372.3	0back	Block4	0back/STIM_009.jpg	99
2508.095	0.507	506.7	0back	Block4	0back/STIM_009.jpg	99
2511.438	0.575	574.9	0back	Block4	0back/STIM_010.jpg	100
2514.772	0.374	373.7	0back	Block4	0back/STIM_010.jpg	100
2519.081	0.71	709.8	0back	Block4	0back/STIM_010.jpg	100
2522.613	0.594	594.2	0back	Block4	0back/STIM_011.jpg	100
2526.628	0.476	475.8	0back	Block4	0back/STIM_011.jpg	100
2530.139	0.642	642.3	0back	Block4	0back/STIM_011.jpg	99
2533.119	0.624	623.5	0back	Block4	0back/STIM_012.jpg	100
2537.382	0.68	679.5	0back	Block4	0back/STIM_012.jpg	100
2541.975	0.541	540.9	0back	Block4	0back/STIM_012.jpg	100
2545.69	0.639	638.8	0back	Block4	0back/STIM_013.jpg	99
2549.742	0.661	661.4	0back	Block4	0back/STIM_013.jpg	99
2553.072	0.489	488.6	0back	Block4	0back/STIM_013.jpg	99
2557.415	0.486	486.5	0back	Block4	0back/STIM_014.jpg	100
2560.181	0.69	689.8	0back	Block4	0back/STIM_014.jpg	100
2563.317	0.659	658.6	0back	Block4	0back/STIM_014.jpg	100
2567.902	0.487	487.0	0back	Block4	0back/STIM_015.jpg	100
2571.883	0.484	484.2	0back	Block4	0back/STIM_015.jpg	100
2574.779	0.424	423.7	0back	Block4	0back/STIM_015.jpg	100
2577.91	0.434	433.7	0back	Block4	0back/STIM_016.jpg	99
2581.331	0.478	478.3	0back	Block4	0back/STIM_016.jpg	99
2584.87	0.374	373.7	0back	Block4	0back/STIM_016.jpg	99
2587.453	0.421	421.1	0back	Block4	0back/STIM_017.jpg	100
2591.386	0.486	486.5	0back	Block4	0back/STIM_017.jpg	100
2594.892	0.368	368.2	0back	Block4	0back/STIM_017.jpg	100
2598.011	0.416	416.0	0back	Block4	0back/STIM_018.jpg	99
2602.317	0.572	572.1	0back	Block4	0back/STIM_018.jpg	99
2605.967	0.664	663.9	0back	Block4	0back/STIM_018.jpg	100
2609.64	0.412	411.9	0back	Block4	0back/STIM_019.jpg	100
2613.824	0.485	485.0	0back	Block4	0back/STIM_019.jpg	99
2616.419	0.526	525.8	0back	Block4	0back/STIM_019.jpg	100
