onset	duration	accuracy_binary	trial_type	learning_stage	stimulus
0.0	1.262	1	2back	Block1	2back/STIM_000.jpg
3.84	1.276	1	2back	Block1	2back/STIM_000.jpg
8.802	0.94	1	2back	Block1	2back/STIM_000.jpg
12.502	1.238	0	2back	Block1	2back/STIM_001.jpg
17.346	1.432	1	2back	Block1	2back/STIM_001.jpg
22.439	0.81	1	2back	Block1	2back/STIM_001.jpg
25.62	0.794	1	2back	Block1	2back/STIM_002.jpg
29.641	0.838	1	2back	Block1	2back/STIM_002.jpg
33.617	1.159	1	2back	Block1	2back/STIM_002.jpg
38.503	1.185	1	2back	Block1	2back/STIM_003.jpg
41.692	1.486	1	2back	Block1	2back/STIM_003.jpg
46.296	1.022	1	2back	Block1	2back/STIM_003.jpg
50.423	1.269	1	2back	Block1	2back/STIM_004.jpg
54.372	0.9	0	2back	Block1	2back/STIM_004.jpg
57.782	1.242	1	2back	Block1	2back/STIM_004.jpg
60.97	1.357	1	2back	Block1	2back/STIM_005.jpg
65.172	1.326	1	2back	Block1	2back/STIM_005.jpg
68.824	1.275	1	2back	Block1	2back/STIM_005.jpg
72.882	1.044	1	2back	Block1	2back/STIM_006.jpg
75.981	0.977	1	2back	Block1	2back/STIM_006.jpg
79.812	0.657	1	2back	Block1	2back/STIM_006.jpg
82.707	1.286	1	2back	Block1	2back/STIM_007.jpg
87.556	1.099	1	2back	Block1	2back/STIM_007.jpg
92.507	1.083	1	2back	Block1	2back/STIM_007.jpg
95.614	0.94	1	2back	Block1	2back/STIM_008.jpg
99.38	1.395	1	2back	Block1	2back/STIM_008.jpg
103.975	1.009	1	2back	Block1	2back/STIM_008.jpg
108.251	1.44	1	2back	Block1	2back/STIM_009.jpg
112.912	1.24	1	2back	Block1	2back/STIM_009.jpg
117.699	0.728	1	2back	Block1	2back/STIM_009.jpg
121.585	1.418	1	2back	Block1	2back/STIM_010.jpg
126.228	0.732	1	2back	Block1	2back/STIM_010.jpg
130.406	0.772	0	2back	Block1	2back/STIM_010.jpg
134.102	1.542	1	2back	Block1	2back/STIM_011.jpg
138.709	1.268	1	2back	Block1	2back/STIM_011.jpg
141.944	1.376	1	2back	Block1	2back/STIM_011.jpg
146.178	0.991	1	2back	Block1	2back/STIM_012.jpg
150.111	0.801	0	2back	Block1	2back/STIM_012.jpg
154.0	0.992	1	2back	Block1	2back/STIM_012.jpg
157.979	1.296	1	2back	Block1	2back/STIM_013.jpg
162.456	0.947	1	2back	Block1	2back/STIM_013.jpg
165.513	1.4	1	2back	Block1	2back/STIM_013.jpg
169.333	0.788	1	2back	Block1	2back/STIM_014.jpg
173.918	0.942	1	2back	Block1	2back/STIM_014.jpg
177.983	0.812	1	2back	Block1	2back/STIM_014.jpg
180.92	0.876	1	2back	Block1	2back/STIM_015.jpg
184.123	0.833	1	2back	Block1	2back/STIM_015.jpg
188.313	0.902	1	2back	Block1	2back/STIM_015.jpg
191.649	1.34	1	2back	Block1	2back/STIM_016.jpg
195.54	1.44	1	2back	Block1	2back/STIM_016.jpg
199.327	0.808	1	2back	Block1	2back/STIM_016.jpg
203.76	1.312	1	2back	Block1	2back/STIM_017.jpg
207.3	1.134	0	2back	Block1	2back/STIM_017.jpg
211.17	0.644	0	2back	Block1	2back/STIM_017.jpg
214.525	0.979	1	2back	Block1	2back/STIM_018.jpg
218.344	0.649	1	2back	Block1	2back/STIM_018.jpg
221.228	1.278	1	2back	Block1	2back/STIM_018.jpg
225.317	1.386	1	2back	Block1	2back/STIM_019.jpg
229.049	0.879	1	2back	Block1	2back/STIM_019.jpg
231.962	1.036	1	2back	Block1	2back/STIM_019.jpg
236.421	1.185	1	2back	Block1	2back/STIM_020.jpg
241.175	1.05	1	2back	Block1	2back/STIM_020.jpg
244.653	1.294	1	2back	Block1	2back/STIM_020.jpg
248.821	1.393	1	2back	Block1	2back/STIM_021.jpg
252.245	1.497	1	2back	Block1	2back/STIM_021.jpg
256.245	0.714	1	2back	Block1	2back/STIM_021.jpg
260.059	1.319	1	2back	Block1	2back/STIM_022.jpg
264.721	1.194	0	2back	Block1	2back/STIM_022.jpg
269.551	1.336	1	2back	Block1	2back/STIM_022.jpg
274.365	0.75	1	2back	Block1	2back/STIM_023.jpg
277.058	1.053	1	2back	Block1	2back/STIM_023.jpg
280.204	0.948	1	2back	Block1	2back/STIM_023.jpg
284.146	1.486	1	2back	Block1	2back/STIM_024.jpg
287.521	1.269	1	2back	Block1	2back/STIM_024.jpg
292.614	0.859	1	2back	Block1	2back/STIM_024.jpg
296.858	1.558	0	2back	Block1	2back/STIM_025.jpg
300.749	0.91	1	2back	Block1	2back/STIM_025.jpg
304.08	0.97	0	2back	Block1	2back/STIM_025.jpg
307.465	1.423	1	2back	Block1	2back/STIM_026.jpg
312.029	1.198	1	2back	Block1	2back/STIM_026.jpg
316.191	0.849	0	2back	Block1	2back/STIM_026.jpg
319.338	0.799	1	2back	Block1	2back/STIM_027.jpg
322.334	1.366	1	2back	Block1	2back/STIM_027.jpg
325.667	1.197	1	2back	Block1	2back/STIM_027.jpg
329.894	1.565	1	2back	Block1	2back/STIM_028.jpg
334.939	0.893	0	2back	Block1	2back/STIM_028.jpg
339.14	1.404	1	2back	Block1	2back/STIM_028.jpg
342.444	1.014	1	2back	Block1	2back/STIM_029.jpg
347.181	1.364	1	2back	Block1	2back/STIM_029.jpg
350.475	0.863	1	2back	Block1	2back/STIM_029.jpg
354.81	0.924	0	2back	Block1	2back/STIM_030.jpg
358.406	1.082	1	2back	Block1	2back/STIM_030.jpg
363.041	1.102	1	2back	Block1	2back/STIM_030.jpg
367.136	1.048	1	2back	Block1	2back/STIM_031.jpg
371.345	0.998	1	2back	Block1	2back/STIM_031.jpg
374.595	0.61	0	2back	Block1	2back/STIM_031.jpg
377.998	0.989	1	2back	Block1	2back/STIM_032.jpg
381.782	1.467	1	2back	Block1	2back/STIM_032.jpg
386.571	1.328	1	2back	Block1	2back/STIM_032.jpg
389.826	1.544	1	2back	Block1	2back/STIM_033.jpg
393.488	0.99	1	2back	Block1	2back/STIM_033.jpg
398.074	0.888	0	2back	Block1	2back/STIM_033.jpg
401.456	0.742	1	2back	Block1	2back/STIM_034.jpg
406.004	1.473	1	2back	Block1	2back/STIM_034.jpg
410.523	0.975	1	2back	Block1	2back/STIM_034.jpg
413.7	1.488	1	2back	Block1	2back/STIM_035.jpg
418.875	1.01	1	2back	Block1	2back/STIM_035.jpg
423.575	0.677	1	2back	Block1	2back/STIM_035.jpg
426.323	1.445	1	2back	Block1	2back/STIM_036.jpg
430.99	1.04	1	2back	Block1	2back/STIM_036.jpg
435.809	1.217	1	2back	Block1	2back/STIM_036.jpg
440.037	1.065	1	2back	Block1	2back/STIM_037.jpg
444.852	1.173	1	2back	Block1	2back/STIM_037.jpg
448.325	0.778	1	2back	Block1	2back/STIM_037.jpg
451.504	1.219	1	2back	Block1	2back/STIM_038.jpg
455.552	1.102	1	2back	Block1	2back/STIM_038.jpg
458.797	1.152	1	2back	Block1	2back/STIM_038.jpg
462.975	0.757	1	2back	Block1	2back/STIM_039.jpg
467.127	0.687	1	2back	Block1	2back/STIM_039.jpg
470.399	0.734	1	2back	Block1	2back/STIM_039.jpg
474.6	0.786	1	0back	Block1	0back/STIM_000.jpg
478.204	0.624	1	0back	Block1	0back/STIM_000.jpg
480.893	0.752	1	0back	Block1	0back/STIM_000.jpg
485.459	0.664	1	0back	Block1	0back/STIM_001.jpg
488.658	0.523	1	0back	Block1	0back/STIM_001.jpg
492.814	0.87	1	0back	Block1	0back/STIM_001.jpg
495.89	0.593	1	0back	Block1	0back/STIM_002.jpg
499.816	0.86	1	0back	Block1	0back/STIM_002.jpg
504.221	0.882	1	0back	Block1	0back/STIM_002.jpg
508.815	0.836	1	0back	Block1	0back/STIM_003.jpg
511.573	0.77	1	0back	Block1	0back/STIM_003.jpg
514.654	0.565	1	0back	Block1	0back/STIM_003.jpg
518.578	0.699	1	0back	Block1	0back/STIM_004.jpg
522.451	0.63	1	0back	Block1	0back/STIM_004.jpg
526.291	0.632	1	0back	Block1	0back/STIM_004.jpg
530.11	0.542	1	0back	Block1	0back/STIM_005.jpg
533.521	0.753	1	0back	Block1	0back/STIM_005.jpg
537.897	0.608	1	0back	Block1	0back/STIM_005.jpg
540.468	0.645	1	0back	Block1	0back/STIM_006.jpg
544.141	0.546	1	0back	Block1	0back/STIM_006.jpg
548.278	0.701	1	0back	Block1	0back/STIM_006.jpg
552.851	0.882	1	0back	Block1	0back/STIM_007.jpg
557.43	0.783	1	0back	Block1	0back/STIM_007.jpg
560.876	0.901	1	0back	Block1	0back/STIM_007.jpg
565.05	0.835	1	0back	Block1	0back/STIM_008.jpg
569.382	0.691	0	0back	Block1	0back/STIM_008.jpg
572.374	0.574	1	0back	Block1	0back/STIM_008.jpg
576.864	0.546	1	0back	Block1	0back/STIM_009.jpg
579.748	0.839	1	0back	Block1	0back/STIM_009.jpg
582.726	0.483	1	0back	Block1	0back/STIM_009.jpg
586.536	0.638	1	0back	Block1	0back/STIM_010.jpg
590.434	0.457	1	0back	Block1	0back/STIM_010.jpg
593.141	0.738	1	0back	Block1	0back/STIM_010.jpg
596.163	0.791	1	0back	Block1	0back/STIM_011.jpg
599.605	0.728	1	0back	Block1	0back/STIM_011.jpg
603.143	0.696	0	0back	Block1	0back/STIM_011.jpg
606.112	0.61	1	0back	Block1	0back/STIM_012.jpg
608.896	0.54	1	0back	Block1	0back/STIM_012.jpg
611.582	0.65	1	0back	Block1	0back/STIM_012.jpg
615.949	0.575	1	0back	Block1	0back/STIM_013.jpg
618.721	0.816	1	0back	Block1	0back/STIM_013.jpg
623.384	0.608	1	0back	Block1	0back/STIM_013.jpg
627.868	0.573	1	0back	Block1	0back/STIM_014.jpg
630.81	0.858	1	0back	Block1	0back/STIM_014.jpg
634.636	0.758	1	0back	Block1	0back/STIM_014.jpg
638.241	0.522	0	0back	Block1	0back/STIM_015.jpg
641.226	0.728	1	0back	Block1	0back/STIM_015.jpg
644.186	0.587	0	0back	Block1	0back/STIM_015.jpg
647.856	0.526	1	0back	Block1	0back/STIM_016.jpg
651.036	0.495	1	0back	Block1	0back/STIM_016.jpg
654.726	0.56	1	0back	Block1	0back/STIM_016.jpg
658.169	0.565	1	0back	Block1	0back/STIM_017.jpg
661.283	0.822	1	0back	Block1	0back/STIM_017.jpg
665.43	0.741	1	0back	Block1	0back/STIM_017.jpg
669.771	0.574	1	0back	Block1	0back/STIM_018.jpg
672.832	0.654	1	0back	Block1	0back/STIM_018.jpg
676.629	0.679	1	0back	Block1	0back/STIM_018.jpg
680.864	0.81	1	0back	Block1	0back/STIM_019.jpg
685.399	0.543	1	0back	Block1	0back/STIM_019.jpg
689.166	0.728	1	0back	Block1	0back/STIM_019.jpg
692.375	1.001	1	2back	Block2	2back/STIM_000.jpg
695.828	0.988	1	2back	Block2	2back/STIM_000.jpg
699.247	0.549	1	2back	Block2	2back/STIM_000.jpg
702.462	1.053	0	2back	Block2	2back/STIM_001.jpg
706.553	1.093	1	2back	Block2	2back/STIM_001.jpg
711.012	1.003	1	2back	Block2	2back/STIM_001.jpg
714.677	1.19	1	2back	Block2	2back/STIM_002.jpg
718.816	0.75	1	2back	Block2	2back/STIM_002.jpg
721.919	0.751	1	2back	Block2	2back/STIM_002.jpg
726.448	0.859	1	2back	Block2	2back/STIM_003.jpg
730.068	1.156	1	2back	Block2	2back/STIM_003.jpg
733.163	0.513	1	2back	Block2	2back/STIM_003.jpg
735.657	0.578	1	2back	Block2	2back/STIM_004.jpg
738.918	1.034	1	2back	Block2	2back/STIM_004.jpg
743.245	0.755	1	2back	Block2	2back/STIM_004.jpg
747.451	0.98	1	2back	Block2	2back/STIM_005.jpg
750.925	1.063	1	2back	Block2	2back/STIM_005.jpg
754.972	0.722	1	2back	Block2	2back/STIM_005.jpg
758.595	0.618	1	2back	Block2	2back/STIM_006.jpg
762.019	0.716	1	2back	Block2	2back/STIM_006.jpg
764.938	1.163	1	2back	Block2	2back/STIM_006.jpg
769.953	1.122	1	2back	Block2	2back/STIM_007.jpg
774.423	1.11	1	2back	Block2	2back/STIM_007.jpg
778.919	0.51	1	2back	Block2	2back/STIM_007.jpg
782.922	1.135	1	2back	Block2	2back/STIM_008.jpg
787.792	0.57	1	2back	Block2	2back/STIM_008.jpg
792.068	0.723	1	2back	Block2	2back/STIM_008.jpg
795.748	0.744	1	2back	Block2	2back/STIM_009.jpg
800.406	0.937	1	2back	Block2	2back/STIM_009.jpg
803.829	0.668	1	2back	Block2	2back/STIM_009.jpg
807.461	0.984	1	2back	Block2	2back/STIM_010.jpg
811.126	0.886	1	2back	Block2	2back/STIM_010.jpg
815.668	0.973	1	2back	Block2	2back/STIM_010.jpg
818.781	0.736	0	2back	Block2	2back/STIM_011.jpg
821.551	0.838	1	2back	Block2	2back/STIM_011.jpg
825.83	0.978	1	2back	Block2	2back/STIM_011.jpg
829.509	0.774	1	2back	Block2	2back/STIM_012.jpg
832.966	0.892	0	2back	Block2	2back/STIM_012.jpg
836.323	0.864	1	2back	Block2	2back/STIM_012.jpg
840.423	0.621	1	2back	Block2	2back/STIM_013.jpg
844.143	1.027	1	2back	Block2	2back/STIM_013.jpg
848.925	0.541	1	2back	Block2	2back/STIM_013.jpg
853.019	0.79	1	2back	Block2	2back/STIM_014.jpg
857.597	1.25	1	2back	Block2	2back/STIM_014.jpg
862.652	0.931	1	2back	Block2	2back/STIM_014.jpg
865.956	0.937	1	2back	Block2	2back/STIM_015.jpg
870.332	1.146	1	2back	Block2	2back/STIM_015.jpg
874.894	1.034	1	2back	Block2	2back/STIM_015.jpg
878.464	1.054	1	2back	Block2	2back/STIM_016.jpg
882.447	0.637	1	2back	Block2	2back/STIM_016.jpg
885.642	0.62	1	2back	Block2	2back/STIM_016.jpg
888.316	0.858	0	2back	Block2	2back/STIM_017.jpg
891.652	0.611	1	2back	Block2	2back/STIM_017.jpg
895.947	1.14	1	2back	Block2	2back/STIM_017.jpg
900.172	1.326	1	2back	Block2	2back/STIM_018.jpg
903.775	0.55	1	2back	Block2	2back/STIM_018.jpg
906.431	0.969	1	2back	Block2	2back/STIM_018.jpg
909.98	1.009	0	2back	Block2	2back/STIM_019.jpg
913.924	0.919	1	2back	Block2	2back/STIM_019.jpg
918.18	0.945	1	2back	Block2	2back/STIM_019.jpg
922.649	0.636	1	2back	Block2	2back/STIM_020.jpg
926.83	0.997	1	2back	Block2	2back/STIM_020.jpg
930.497	0.707	1	2back	Block2	2back/STIM_020.jpg
934.289	0.883	1	2back	Block2	2back/STIM_021.jpg
938.573	1.208	0	2back	Block2	2back/STIM_021.jpg
941.966	1.155	1	2back	Block2	2back/STIM_021.jpg
945.123	0.897	1	2back	Block2	2back/STIM_022.jpg
949.801	0.922	1	2back	Block2	2back/STIM_022.jpg
953.614	0.984	1	2back	Block2	2back/STIM_022.jpg
957.932	0.98	1	2back	Block2	2back/STIM_023.jpg
961.744	0.563	1	2back	Block2	2back/STIM_023.jpg
964.922	0.977	1	2back	Block2	2back/STIM_023.jpg
969.157	1.081	1	2back	Block2	2back/STIM_024.jpg
973.837	0.784	1	2back	Block2	2back/STIM_024.jpg
977.095	0.905	1	2back	Block2	2back/STIM_024.jpg
980.646	1.202	1	2back	Block2	2back/STIM_025.jpg
984.661	0.637	1	2back	Block2	2back/STIM_025.jpg
987.717	0.822	1	2back	Block2	2back/STIM_025.jpg
991.309	0.926	1	2back	Block2	2back/STIM_026.jpg
995.152	0.667	1	2back	Block2	2back/STIM_026.jpg
997.879	0.512	1	2back	Block2	2back/STIM_026.jpg
1001.959	0.944	1	2back	Block2	2back/STIM_027.jpg
1005.791	1.068	1	2back	Block2	2back/STIM_027.jpg
1009.16	0.634	1	2back	Block2	2back/STIM_027.jpg
1013.671	0.864	1	2back	Block2	2back/STIM_028.jpg
1018.342	0.833	1	2back	Block2	2back/STIM_028.jpg
1021.257	1.157	1	2back	Block2	2back/STIM_028.jpg
1025.58	1.193	1	2back	Block2	2back/STIM_029.jpg
1028.945	0.861	1	2back	Block2	2back/STIM_029.jpg
1032.917	0.954	1	2back	Block2	2back/STIM_029.jpg
1036.186	1.029	1	2back	Block2	2back/STIM_030.jpg
1040.649	0.552	1	2back	Block2	2back/STIM_030.jpg
1044.99	0.987	1	2back	Block2	2back/STIM_030.jpg
1048.036	1.294	1	2back	Block2	2back/STIM_031.jpg
1052.669	0.976	1	2back	Block2	2back/STIM_031.jpg
1056.532	0.625	1	2back	Block2	2back/STIM_031.jpg
1059.293	1.157	1	2back	Block2	2back/STIM_032.jpg
1063.555	1.055	1	2back	Block2	2back/STIM_032.jpg
1067.256	0.816	1	2back	Block2	2back/STIM_032.jpg
1070.083	1.145	1	2back	Block2	2back/STIM_033.jpg
1073.97	1.067	1	2back	Block2	2back/STIM_033.jpg
1078.459	0.762	1	2back	Block2	2back/STIM_033.jpg
1081.227	0.596	0	2back	Block2	2back/STIM_034.jpg
1084.76	1.174	1	2back	Block2	2back/STIM_034.jpg
1088.84	0.796	1	2back	Block2	2back/STIM_034.jpg
1092.315	0.838	1	2back	Block2	2back/STIM_035.jpg
1095.823	1.159	1	2back	Block2	2back/STIM_035.jpg
1099.153	0.868	1	2back	Block2	2back/STIM_035.jpg
1102.33	1.082	1	2back	Block2	2back/STIM_036.jpg
1106.026	0.588	1	2back	Block2	2back/STIM_036.jpg
1109.104	0.656	1	2back	Block2	2back/STIM_036.jpg
1111.795	1.285	1	2back	Block2	2back/STIM_037.jpg
1115.324	1.05	1	2back	Block2	2back/STIM_037.jpg
1119.663	0.666	1	2back	Block2	2back/STIM_037.jpg
1124.057	0.679	0	2back	Block2	2back/STIM_038.jpg
1128.168	0.794	1	2back	Block2	2back/STIM_038.jpg
1132.451	1.036	1	2back	Block2	2back/STIM_038.jpg
1137.291	0.823	1	2back	Block2	2back/STIM_039.jpg
1141.633	0.903	1	2back	Block2	2back/STIM_039.jpg
1145.128	0.599	1	2back	Block2	2back/STIM_039.jpg
1148.174	0.67	1	0back	Block2	0back/STIM_000.jpg
1151.307	0.829	1	0back	Block2	0back/STIM_000.jpg
1154.633	0.578	1	0back	Block2	0back/STIM_000.jpg
1158.372	0.672	1	0back	Block2	0back/STIM_001.jpg
1161.944	0.777	1	0back	Block2	0back/STIM_001.jpg
1166.046	0.485	1	0back	Block2	0back/STIM_001.jpg
1169.221	0.466	1	0back	Block2	0back/STIM_002.jpg
1172.506	0.469	0	0back	Block2	0back/STIM_002.jpg
1176.654	0.701	1	0back	Block2	0back/STIM_002.jpg
1179.453	0.753	1	0back	Block2	0back/STIM_003.jpg
1183.063	0.5	0	0back	Block2	0back/STIM_003.jpg
1185.572	0.887	1	0back	Block2	0back/STIM_003.jpg
1189.83	0.601	1	0back	Block2	0back/STIM_004.jpg
1193.123	0.538	1	0back	Block2	0back/STIM_004.jpg
1195.684	0.625	1	0back	Block2	0back/STIM_004.jpg
1198.431	0.637	1	0back	Block2	0back/STIM_005.jpg
1201.395	0.631	1	0back	Block2	0back/STIM_005.jpg
1205.043	0.592	1	0back	Block2	0back/STIM_005.jpg
1208.346	0.714	1	0back	Block2	0back/STIM_006.jpg
1211.476	0.754	1	0back	Block2	0back/STIM_006.jpg
1214.86	0.667	1	0back	Block2	0back/STIM_006.jpg
1217.953	0.585	1	0back	Block2	0back/STIM_007.jpg
1221.88	0.78	1	0back	Block2	0back/STIM_007.jpg
1225.186	0.833	1	0back	Block2	0back/STIM_007.jpg
1228.473	0.759	1	0back	Block2	0back/STIM_008.jpg
1232.895	0.885	1	0back	Block2	0back/STIM_008.jpg
1236.14	0.681	1	0back	Block2	0back/STIM_008.jpg
1239.068	0.899	1	0back	Block2	0back/STIM_009.jpg
1243.474	0.517	1	0back	Block2	0back/STIM_009.jpg
1246.639	0.65	1	0back	Block2	0back/STIM_009.jpg
1250.363	0.752	1	0back	Block2	0back/STIM_010.jpg
1255.013	0.592	1	0back	Block2	0back/STIM_010.jpg
1258.697	0.602	1	0back	Block2	0back/STIM_010.jpg
1262.647	0.568	1	0back	Block2	0back/STIM_011.jpg
1266.772	0.72	1	0back	Block2	0back/STIM_011.jpg
1271.359	0.839	1	0back	Block2	0back/STIM_011.jpg
1275.489	0.597	1	0back	Block2	0back/STIM_012.jpg
1278.046	0.468	1	0back	Block2	0back/STIM_012.jpg
1282.007	0.9	1	0back	Block2	0back/STIM_012.jpg
1285.093	0.891	1	0back	Block2	0back/STIM_013.jpg
1289.778	0.821	1	0back	Block2	0back/STIM_013.jpg
1293.033	0.537	1	0back	Block2	0back/STIM_013.jpg
1295.686	0.812	1	0back	Block2	0back/STIM_014.jpg
1298.977	0.663	1	0back	Block2	0back/STIM_014.jpg
1303.015	0.509	1	0back	Block2	0back/STIM_014.jpg
1305.768	0.708	1	0back	Block2	0back/STIM_015.jpg
1309.253	0.598	1	0back	Block2	0back/STIM_015.jpg
1313.747	0.458	1	0back	Block2	0back/STIM_015.jpg
1317.192	0.874	1	0back	Block2	0back/STIM_016.jpg
1320.398	0.598	1	0back	Block2	0back/STIM_016.jpg
1323.09	0.802	1	0back	Block2	0back/STIM_016.jpg
1326.874	0.737	1	0back	Block2	0back/STIM_017.jpg
1331.13	0.879	1	0back	Block2	0back/STIM_017.jpg
1334.749	0.678	1	0back	Block2	0back/STIM_017.jpg
1338.934	0.6	1	0back	Block2	0back/STIM_018.jpg
1342.784	0.576	1	0back	Block2	0back/STIM_018.jpg
1346.146	0.792	1	0back	Block2	0back/STIM_018.jpg
1349.63	0.654	1	0back	Block2	0back/STIM_019.jpg
1353.939	0.706	1	0back	Block2	0back/STIM_019.jpg
1357.546	0.627	1	0back	Block2	0back/STIM_019.jpg
1360.933	0.939	1	2back	Block3	2back/STIM_000.jpg
1365.397	0.794	0	2back	Block3	2back/STIM_000.jpg
1369.827	0.714	1	2back	Block3	2back/STIM_000.jpg
1372.508	1.058	1	2back	Block3	2back/STIM_001.jpg
1377.295	1.045	1	2back	Block3	2back/STIM_001.jpg
1381.684	0.811	0	2back	Block3	2back/STIM_001.jpg
1385.313	0.52	1	2back	Block3	2back/STIM_002.jpg
1388.442	1.009	1	2back	Block3	2back/STIM_002.jpg
1393.288	1.007	1	2back	Block3	2back/STIM_002.jpg
1397.652	0.541	1	2back	Block3	2back/STIM_003.jpg
1400.639	0.796	1	2back	Block3	2back/STIM_003.jpg
1404.03	0.645	1	2back	Block3	2back/STIM_003.jpg
1408.012	0.81	1	2back	Block3	2back/STIM_004.jpg
1411.588	0.81	1	2back	Block3	2back/STIM_004.jpg
1415.235	1.074	1	2back	Block3	2back/STIM_004.jpg
1418.707	0.551	1	2back	Block3	2back/STIM_005.jpg
1422.924	0.553	1	2back	Block3	2back/STIM_005.jpg
1425.608	0.998	1	2back	Block3	2back/STIM_005.jpg
1428.695	1.099	1	2back	Block3	2back/STIM_006.jpg
1433.469	0.637	1	2back	Block3	2back/STIM_006.jpg
1437.93	0.755	1	2back	Block3	2back/STIM_006.jpg
1440.98	0.68	0	2back	Block3	2back/STIM_007.jpg
1444.994	1.005	0	2back	Block3	2back/STIM_007.jpg
1448.966	0.628	1	2back	Block3	2back/STIM_007.jpg
1453.015	1.016	1	2back	Block3	2back/STIM_008.jpg
1457.69	0.59	1	2back	Block3	2back/STIM_008.jpg
1461.123	0.561	1	2back	Block3	2back/STIM_008.jpg
1465.175	0.672	1	2back	Block3	2back/STIM_009.jpg
1468.605	0.727	1	2back	Block3	2back/STIM_009.jpg
1471.992	0.568	1	2back	Block3	2back/STIM_009.jpg
1476.391	0.664	1	2back	Block3	2back/STIM_010.jpg
1480.158	0.662	1	2back	Block3	2back/STIM_010.jpg
1484.45	1.067	1	2back	Block3	2back/STIM_010.jpg
1488.536	1.062	1	2back	Block3	2back/STIM_011.jpg
1491.644	0.575	1	2back	Block3	2back/STIM_011.jpg
1495.134	1.02	1	2back	Block3	2back/STIM_011.jpg
1498.878	0.651	1	2back	Block3	2back/STIM_012.jpg
1502.055	0.922	1	2back	Block3	2back/STIM_012.jpg
1505.816	0.626	1	2back	Block3	2back/STIM_012.jpg
1509.985	0.8	1	2back	Block3	2back/STIM_013.jpg
1514.106	0.58	0	2back	Block3	2back/STIM_013.jpg
1517.244	0.606	1	2back	Block3	2back/STIM_013.jpg
1521.13	0.702	1	2back	Block3	2back/STIM_014.jpg
1524.01	1.07	1	2back	Block3	2back/STIM_014.jpg
1528.786	1.047	1	2back	Block3	2back/STIM_014.jpg
1533.469	0.863	1	2back	Block3	2back/STIM_015.jpg
1537.841	0.685	0	2back	Block3	2back/STIM_015.jpg
1542.418	0.851	1	2back	Block3	2back/STIM_015.jpg
1546.119	1.041	1	2back	Block3	2back/STIM_016.jpg
1550.551	0.899	1	2back	Block3	2back/STIM_016.jpg
1554.919	0.573	1	2back	Block3	2back/STIM_016.jpg
1557.622	0.925	1	2back	Block3	2back/STIM_017.jpg
1560.555	0.97	1	2back	Block3	2back/STIM_017.jpg
1564.616	0.74	1	2back	Block3	2back/STIM_017.jpg
1568.454	1.031	1	2back	Block3	2back/STIM_018.jpg
1571.98	1.068	1	2back	Block3	2back/STIM_018.jpg
1576.168	0.995	1	2back	Block3	2back/STIM_018.jpg
1580.24	0.895	1	2back	Block3	2back/STIM_019.jpg
1584.853	1.005	1	2back	Block3	2back/STIM_019.jpg
1588.588	0.82	1	2back	Block3	2back/STIM_019.jpg
1592.274	0.86	1	2back	Block3	2back/STIM_020.jpg
1596.98	0.991	1	2back	Block3	2back/STIM_020.jpg
1600.44	0.587	1	2back	Block3	2back/STIM_020.jpg
1604.231	0.942	1	2back	Block3	2back/STIM_021.jpg
1607.142	0.802	1	2back	Block3	2back/STIM_021.jpg
1611.829	1.028	1	2back	Block3	2back/STIM_021.jpg
1614.917	0.482	1	2back	Block3	2back/STIM_022.jpg
1618.301	0.749	1	2back	Block3	2back/STIM_022.jpg
1622.586	0.666	1	2back	Block3	2back/STIM_022.jpg
1626.126	0.712	1	2back	Block3	2back/STIM_023.jpg
1629.908	0.976	1	2back	Block3	2back/STIM_023.jpg
1633.776	1.091	1	2back	Block3	2back/STIM_023.jpg
1638.587	0.981	1	2back	Block3	2back/STIM_024.jpg
1642.889	0.679	0	2back	Block3	2back/STIM_024.jpg
1646.566	0.975	1	2back	Block3	2back/STIM_024.jpg
1650.154	0.816	1	2back	Block3	2back/STIM_025.jpg
1654.833	0.537	1	2back	Block3	2back/STIM_025.jpg
1657.664	0.826	1	2back	Block3	2back/STIM_025.jpg
1662.214	1.001	1	2back	Block3	2back/STIM_026.jpg
1666.649	0.545	1	2back	Block3	2back/STIM_026.jpg
1670.653	1.022	0	2back	Block3	2back/STIM_026.jpg
1674.709	0.563	1	2back	Block3	2back/STIM_027.jpg
1679.117	1.012	1	2back	Block3	2back/STIM_027.jpg
1683.965	1.1	1	2back	Block3	2back/STIM_027.jpg
1688.053	0.803	1	2back	Block3	2back/STIM_028.jpg
1692.242	0.794	1	2back	Block3	2back/STIM_028.jpg
1695.295	0.962	1	2back	Block3	2back/STIM_028.jpg
1698.686	0.79	1	2back	Block3	2back/STIM_029.jpg
1703.021	0.986	1	2back	Block3	2back/STIM_029.jpg
1706.611	0.831	1	2back	Block3	2back/STIM_029.jpg
1710.281	0.695	1	2back	Block3	2back/STIM_030.jpg
1713.983	1.048	1	2back	Block3	2back/STIM_030.jpg
1718.064	0.616	1	2back	Block3	2back/STIM_030.jpg
1721.25	0.915	1	2back	Block3	2back/STIM_031.jpg
1725.383	0.876	1	2back	Block3	2back/STIM_031.jpg
1728.567	0.633	1	2back	Block3	2back/STIM_031.jpg
1732.213	0.612	1	2back	Block3	2back/STIM_032.jpg
1735.906	0.606	1	2back	Block3	2back/STIM_032.jpg
1738.463	0.836	1	2back	Block3	2back/STIM_032.jpg
1742.809	0.507	1	2back	Block3	2back/STIM_033.jpg
1745.511	0.721	1	2back	Block3	2back/STIM_033.jpg
1749.352	1.041	1	2back	Block3	2back/STIM_033.jpg
1754.199	0.842	1	2back	Block3	2back/STIM_034.jpg
1758.262	0.65	1	2back	Block3	2back/STIM_034.jpg
1761.618	0.97	1	2back	Block3	2back/STIM_034.jpg
1766.026	0.705	1	2back	Block3	2back/STIM_035.jpg
1770.567	0.982	1	2back	Block3	2back/STIM_035.jpg
1773.671	0.805	1	2back	Block3	2back/STIM_035.jpg
1777.873	0.566	1	2back	Block3	2back/STIM_036.jpg
1781.103	0.525	1	2back	Block3	2back/STIM_036.jpg
1784.11	0.477	0	2back	Block3	2back/STIM_036.jpg
1786.72	0.874	1	2back	Block3	2back/STIM_037.jpg
1791.477	0.555	1	2back	Block3	2back/STIM_037.jpg
1794.457	1.09	1	2back	Block3	2back/STIM_037.jpg
1799.389	0.828	1	2back	Block3	2back/STIM_038.jpg
1803.831	0.591	1	2back	Block3	2back/STIM_038.jpg
1807.144	0.696	1	2back	Block3	2back/STIM_038.jpg
1810.866	0.53	1	2back	Block3	2back/STIM_039.jpg
1813.668	0.954	0	2back	Block3	2back/STIM_039.jpg
1816.715	1.007	1	2back	Block3	2back/STIM_039.jpg
1819.845	0.63	1	0back	Block3	0back/STIM_000.jpg
1823.626	0.642	1	0back	Block3	0back/STIM_000.jpg
1827.706	0.752	1	0back	Block3	0back/STIM_000.jpg
1831.207	0.671	1	0back	Block3	0back/STIM_001.jpg
1835.528	0.609	1	0back	Block3	0back/STIM_001.jpg
1839.411	0.882	1	0back	Block3	0back/STIM_001.jpg
1843.985	0.617	1	0back	Block3	0back/STIM_002.jpg
1847.422	0.742	1	0back	Block3	0back/STIM_002.jpg
1850.39	0.682	1	0back	Block3	0back/STIM_002.jpg
1854.409	0.759	1	0back	Block3	0back/STIM_003.jpg
1857.719	0.825	1	0back	Block3	0back/STIM_003.jpg
1860.763	0.872	1	0back	Block3	0back/STIM_003.jpg
1864.532	0.674	1	0back	Block3	0back/STIM_004.jpg
1868.62	0.78	1	0back	Block3	0back/STIM_004.jpg
1872.654	0.518	1	0back	Block3	0back/STIM_004.jpg
1875.844	0.828	1	0back	Block3	0back/STIM_005.jpg
1879.754	0.667	1	0back	Block3	0back/STIM_005.jpg
1884.232	0.488	1	0back	Block3	0back/STIM_005.jpg
1888.222	0.893	1	0back	Block3	0back/STIM_006.jpg
1891.038	0.765	1	0back	Block3	0back/STIM_006.jpg
1895.382	0.615	1	0back	Block3	0back/STIM_006.jpg
1899.881	0.803	1	0back	Block3	0back/STIM_007.jpg
1903.526	0.807	1	0back	Block3	0back/STIM_007.jpg
1907.616	0.564	1	0back	Block3	0back/STIM_007.jpg
1911.225	0.516	1	0back	Block3	0back/STIM_008.jpg
1915.1	0.812	1	0back	Block3	0back/STIM_008.jpg
1919.201	0.686	1	0back	Block3	0back/STIM_008.jpg
1922.327	0.848	1	0back	Block3	0back/STIM_009.jpg
1926.437	0.501	1	0back	Block3	0back/STIM_009.jpg
1929.206	0.788	0	0back	Block3	0back/STIM_009.jpg
1933.625	0.895	0	0back	Block3	0back/STIM_010.jpg
1937.923	0.846	1	0back	Block3	0back/STIM_010.jpg
1942.013	0.618	1	0back	Block3	0back/STIM_010.jpg
1945.587	0.645	1	0back	Block3	0back/STIM_011.jpg
1948.272	0.51	1	0back	Block3	0back/STIM_011.jpg
1952.006	0.745	1	0back	Block3	0back/STIM_011.jpg
1954.891	0.764	1	0back	Block3	0back/STIM_012.jpg
1959.056	0.829	1	0back	Block3	0back/STIM_012.jpg
1963.099	0.627	1	0back	Block3	0back/STIM_012.jpg
1967.608	0.456	1	0back	Block3	0back/STIM_013.jpg
1970.415	0.754	1	0back	Block3	0back/STIM_013.jpg
1973.142	0.542	1	0back	Block3	0back/STIM_013.jpg
1976.904	0.804	1	0back	Block3	0back/STIM_014.jpg
1980.557	0.591	1	0back	Block3	0back/STIM_014.jpg
1984.779	0.757	0	0back	Block3	0back/STIM_014.jpg
1987.817	0.517	1	0back	Block3	0back/STIM_015.jpg
1990.393	0.456	1	0back	Block3	0back/STIM_015.jpg
1993.552	0.579	1	0back	Block3	0back/STIM_015.jpg
1996.105	0.813	1	0back	Block3	0back/STIM_016.jpg
1999.409	0.845	1	0back	Block3	0back/STIM_016.jpg
2003.902	0.832	1	0back	Block3	0back/STIM_016.jpg
2007.461	0.495	1	0back	Block3	0back/STIM_017.jpg
2011.002	0.753	1	0back	Block3	0back/STIM_017.jpg
2014.841	0.712	0	0back	Block3	0back/STIM_017.jpg
2017.489	0.76	0	0back	Block3	0back/STIM_018.jpg
2021.688	0.507	0	0back	Block3	0back/STIM_018.jpg
2025.653	0.725	1	0back	Block3	0back/STIM_018.jpg
2029.71	0.628	1	0back	Block3	0back/STIM_019.jpg
2033.633	0.47	1	0back	Block3	0back/STIM_019.jpg
2037.326	0.793	1	0back	Block3	0back/STIM_019.jpg
2040.928	0.839	1	2back	Block4	2back/STIM_000.jpg
2043.788	0.776	1	2back	Block4	2back/STIM_000.jpg
2047.722	0.477	1	2back	Block4	2back/STIM_000.jpg
2051.977	0.902	1	2back	Block4	2back/STIM_001.jpg
2056.245	0.582	1	2back	Block4	2back/STIM_001.jpg
2059.787	0.753	0	2back	Block4	2back/STIM_001.jpg
2062.913	1.006	1	2back	Block4	2back/STIM_002.jpg
2066.85	0.809	1	2back	Block4	2back/STIM_002.jpg
2069.929	0.893	1	2back	Block4	2back/STIM_002.jpg
2073.423	1.071	1	2back	Block4	2back/STIM_003.jpg
2076.913	0.846	1	2back	Block4	2back/STIM_003.jpg
2080.767	0.49	1	2back	Block4	2back/STIM_003.jpg
2083.877	1.059	1	2back	Block4	2back/STIM_004.jpg
2086.848	0.844	1	2back	Block4	2back/STIM_004.jpg
2090.142	0.835	1	2back	Block4	2back/STIM_004.jpg
2094.852	0.656	1	2back	Block4	2back/STIM_005.jpg
2097.814	0.964	1	2back	Block4	2back/STIM_005.jpg
2100.981	0.996	1	2back	Block4	2back/STIM_005.jpg
2105.763	0.864	1	2back	Block4	2back/STIM_006.jpg
2109.676	0.942	1	2back	Block4	2back/STIM_006.jpg
2114.248	0.967	1	2back	Block4	2back/STIM_006.jpg
2118.903	1.09	1	2back	Block4	2back/STIM_007.jpg
2123.816	1.013	1	2back	Block4	2back/STIM_007.jpg
2128.01	0.909	1	2back	Block4	2back/STIM_007.jpg
2132.531	1.018	1	2back	Block4	2back/STIM_008.jpg
2137.053	0.892	1	2back	Block4	2back/STIM_008.jpg
2140.884	0.616	1	2back	Block4	2back/STIM_008.jpg
2143.665	0.533	1	2back	Block4	2back/STIM_009.jpg
2146.408	0.611	1	2back	Block4	2back/STIM_009.jpg
2150.853	0.724	1	2back	Block4	2back/STIM_009.jpg
2155.171	0.601	1	2back	Block4	2back/STIM_010.jpg
2159.2	0.936	1	2back	Block4	2back/STIM_010.jpg
2162.239	0.694	1	2back	Block4	2back/STIM_010.jpg
2166.173	0.854	1	2back	Block4	2back/STIM_011.jpg
2170.79	1.069	1	2back	Block4	2back/STIM_011.jpg
2173.833	1.009	1	2back	Block4	2back/STIM_011.jpg
2177.149	0.994	1	2back	Block4	2back/STIM_012.jpg
2182.025	0.982	1	2back	Block4	2back/STIM_012.jpg
2185.574	0.98	0	2back	Block4	2back/STIM_012.jpg
2189.694	0.864	1	2back	Block4	2back/STIM_013.jpg
2193.789	0.99	1	2back	Block4	2back/STIM_013.jpg
2197.56	1.067	1	2back	Block4	2back/STIM_013.jpg
2201.247	0.512	1	2back	Block4	2back/STIM_014.jpg
2205.602	0.584	1	2back	Block4	2back/STIM_014.jpg
2209.664	0.957	1	2back	Block4	2back/STIM_014.jpg
2213.727	0.616	1	2back	Block4	2back/STIM_015.jpg
2216.453	0.915	1	2back	Block4	2back/STIM_015.jpg
2220.215	0.54	0	2back	Block4	2back/STIM_015.jpg
2223.911	0.739	1	2back	Block4	2back/STIM_016.jpg
2227.733	0.664	1	2back	Block4	2back/STIM_016.jpg
2231.853	1.014	1	2back	Block4	2back/STIM_016.jpg
2235.047	0.677	1	2back	Block4	2back/STIM_017.jpg
2237.778	0.592	1	2back	Block4	2back/STIM_017.jpg
2242.156	1.056	1	2back	Block4	2back/STIM_017.jpg
2245.407	1.026	1	2back	Block4	2back/STIM_018.jpg
2248.346	0.478	1	2back	Block4	2back/STIM_018.jpg
2251.387	0.927	1	2back	Block4	2back/STIM_018.jpg
2255.831	0.674	1	2back	Block4	2back/STIM_019.jpg
2258.798	1.079	1	2back	Block4	2back/STIM_019.jpg
2263.543	0.973	1	2back	Block4	2back/STIM_019.jpg
2267.743	0.876	1	2back	Block4	2back/STIM_020.jpg
2271.25	1.055	1	2back	Block4	2back/STIM_020.jpg
2275.097	0.94	1	2back	Block4	2back/STIM_020.jpg
2277.961	0.952	1	2back	Block4	2back/STIM_021.jpg
2281.923	0.983	1	2back	Block4	2back/STIM_021.jpg
2285.294	0.761	1	2back	Block4	2back/STIM_021.jpg
2289.737	0.712	1	2back	Block4	2back/STIM_022.jpg
2293.173	0.628	1	2back	Block4	2back/STIM_022.jpg
2297.191	0.695	1	2back	Block4	2back/STIM_022.jpg
2300.928	0.707	1	2back	Block4	2back/STIM_023.jpg
2304.301	0.764	1	2back	Block4	2back/STIM_023.jpg
2308.901	0.899	1	2back	Block4	2back/STIM_023.jpg
2312.579	0.939	1	2back	Block4	2back/STIM_024.jpg
2316.787	0.631	1	2back	Block4	2back/STIM_024.jpg
2320.124	1.066	1	2back	Block4	2back/STIM_024.jpg
2324.176	0.82	1	2back	Block4	2back/STIM_025.jpg
2327.965	0.887	1	2back	Block4	2back/STIM_025.jpg
2332.207	0.712	1	2back	Block4	2back/STIM_025.jpg
2335.364	0.528	1	2back	Block4	2back/STIM_026.jpg
2339.305	0.562	1	2back	Block4	2back/STIM_026.jpg
2343.716	0.71	1	2back	Block4	2back/STIM_026.jpg
2348.339	0.713	1	2back	Block4	2back/STIM_027.jpg
2351.421	0.734	1	2back	Block4	2back/STIM_027.jpg
2354.233	0.577	1	2back	Block4	2back/STIM_027.jpg
2357.609	0.528	1	2back	Block4	2back/STIM_028.jpg
2361.117	0.588	1	2back	Block4	2back/STIM_028.jpg
2363.729	0.648	1	2back	Block4	2back/STIM_028.jpg
2367.422	0.77	1	2back	Block4	2back/STIM_029.jpg
2370.614	1.09	1	2back	Block4	2back/STIM_029.jpg
2374.391	0.996	1	2back	Block4	2back/STIM_029.jpg
2377.721	0.754	1	2back	Block4	2back/STIM_030.jpg
2381.239	1.096	1	2back	Block4	2back/STIM_030.jpg
2386.025	1.009	1	2back	Block4	2back/STIM_030.jpg
2389.927	0.5	1	2back	Block4	2back/STIM_031.jpg
2392.691	1.012	1	2back	Block4	2back/STIM_031.jpg
2397.088	0.895	1	2back	Block4	2back/STIM_031.jpg
2401.009	0.902	1	2back	Block4	2back/STIM_032.jpg
2403.979	0.673	1	2back	Block4	2back/STIM_032.jpg
2408.165	0.482	1	2back	Block4	2back/STIM_032.jpg
2410.773	0.8	1	2back	Block4	2back/STIM_033.jpg
2415.126	0.721	1	2back	Block4	2back/STIM_033.jpg
2418.419	0.52	1	2back	Block4	2back/STIM_033.jpg
2422.035	0.526	1	2back	Block4	2back/STIM_034.jpg
2425.738	0.541	1	2back	Block4	2back/STIM_034.jpg
2429.269	0.831	1	2back	Block4	2back/STIM_034.jpg
2432.728	0.742	1	2back	Block4	2back/STIM_035.jpg
2436.404	0.736	1	2back	Block4	2back/STIM_035.jpg
2441.009	0.697	1	2back	Block4	2back/STIM_035.jpg
2444.823	0.987	1	2back	Block4	2back/STIM_036.jpg
2448.129	1.06	1	2back	Block4	2back/STIM_036.jpg
2452.447	1.017	1	2back	Block4	2back/STIM_036.jpg
2455.968	1.041	1	2back	Block4	2back/STIM_037.jpg
2460.25	0.937	1	2back	Block4	2back/STIM_037.jpg
2464.881	0.744	1	2back	Block4	2back/STIM_037.jpg
2468.73	0.987	1	2back	Block4	2back/STIM_038.jpg
2471.673	0.511	1	2back	Block4	2back/STIM_038.jpg
2476.103	0.812	1	2back	Block4	2back/STIM_038.jpg
2480.704	0.848	1	2back	Block4	2back/STIM_039.jpg
2484.435	0.485	1	2back	Block4	2back/STIM_039.jpg
2486.915	0.913	0	2back	Block4	2back/STIM_039.jpg
2490.251	0.859	1	0back	Block4	0back/STIM_000.jpg
2494.882	0.839	1	0back	Block4	0back/STIM_000.jpg
2498.004	0.85	1	0back	Block4	0back/STIM_000.jpg
2502.432	0.495	1	0back	Block4	0back/STIM_001.jpg
2504.891	0.663	1	0back	Block4	0back/STIM_001.jpg
2507.931	0.873	1	0back	Block4	0back/STIM_001.jpg
2511.763	0.652	1	0back	Block4	0back/STIM_002.jpg
2515.562	0.679	1	0back	Block4	0back/STIM_002.jpg
2519.287	0.728	1	0back	Block4	0back/STIM_002.jpg
2523.007	0.456	1	0back	Block4	0back/STIM_003.jpg
2525.69	0.815	1	0back	Block4	0back/STIM_003.jpg
2529.544	0.754	1	0back	Block4	0back/STIM_003.jpg
2534.111	0.601	1	0back	Block4	0back/STIM_004.jpg
2537.214	0.652	1	0back	Block4	0back/STIM_004.jpg
2541.287	0.567	1	0back	Block4	0back/STIM_004.jpg
2545.698	0.837	1	0back	Block4	0back/STIM_005.jpg
2548.818	0.514	1	0back	Block4	0back/STIM_005.jpg
2551.976	0.89	1	0back	Block4	0back/STIM_005.jpg
2554.891	0.46	1	0back	Block4	0back/STIM_006.jpg
2557.408	0.5	1	0back	Block4	0back/STIM_006.jpg
2561.804	0.694	1	0back	Block4	0back/STIM_006.jpg
2564.7	0.662	1	0back	Block4	0back/STIM_007.jpg
2568.294	0.579	1	0back	Block4	0back/STIM_007.jpg
2572.585	0.716	1	0back	Block4	0back/STIM_007.jpg
2575.339	0.69	1	0back	Block4	0back/STIM_008.jpg
2578.707	0.52	1	0back	Block4	0back/STIM_008.jpg
2581.713	0.807	1	0back	Block4	0back/STIM_008.jpg
2586.115	0.602	1	0back	Block4	0back/STIM_009.jpg
2590.202	0.514	1	0back	Block4	0back/STIM_009.jpg
2593.838	0.636	1	0back	Block4	0back/STIM_009.jpg
2598.289	0.891	1	0back	Block4	0back/STIM_010.jpg
2602.368	0.841	1	0back	Block4	0back/STIM_010.jpg
2605.36	0.623	1	0back	Block4	0back/STIM_010.jpg
2608.555	0.618	1	0back	Block4	0back/STIM_011.jpg
2612.248	0.764	1	0back	Block4	0back/STIM_011.jpg
2615.189	0.784	1	0back	Block4	0back/STIM_011.jpg
2618.704	0.852	1	0back	Block4	0back/STIM_012.jpg
2621.48	0.863	1	0back	Block4	0back/STIM_012.jpg
2624.444	0.843	1	0back	Block4	0back/STIM_012.jpg
2628.598	0.759	1	0back	Block4	0back/STIM_013.jpg
2632.695	0.614	1	0back	Block4	0back/STIM_013.jpg
2637.206	0.859	0	0back	Block4	0back/STIM_013.jpg
2640.976	0.648	1	0back	Block4	0back/STIM_014.jpg
2643.763	0.723	1	0back	Block4	0back/STIM_014.jpg
2646.623	0.788	1	0back	Block4	0back/STIM_014.jpg
2650.785	0.602	1	0back	Block4	0back/STIM_015.jpg
2653.948	0.602	1	0back	Block4	0back/STIM_015.jpg
2656.862	0.727	1	0back	Block4	0back/STIM_015.jpg
2660.344	0.643	1	0back	Block4	0back/STIM_016.jpg
2664.903	0.685	1	0back	Block4	0back/STIM_016.jpg
2669.23	0.819	1	0back	Block4	0back/STIM_016.jpg
2673.9	0.761	1	0back	Block4	0back/STIM_017.jpg
2677.071	0.597	1	0back	Block4	0back/STIM_017.jpg
2680.69	0.514	1	0back	Block4	0back/STIM_017.jpg
2683.965	0.789	1	0back	Block4	0back/STIM_018.jpg
2688.367	0.881	1	0back	Block4	0back/STIM_018.jpg
2692.165	0.638	1	0back	Block4	0back/STIM_018.jpg
2695.498	0.594	1	0back	Block4	0back/STIM_019.jpg
2698.225	0.736	1	0back	Block4	0back/STIM_019.jpg
2702.811	0.85	1	0back	Block4	0back/STIM_019.jpg
