onset	duration	accuracy_binary	trial_type	learning_stage	stimulus
0.0	0.762	0	2back	Block1	2back/STIM_000.jpg
4.37	1.128	1	2back	Block1	2back/STIM_000.jpg
8.559	0.864	1	2back	Block1	2back/STIM_000.jpg
13.052	0.677	0	2back	Block1	2back/STIM_001.jpg
17.01	1.077	1	2back	Block1	2back/STIM_001.jpg
20.873	0.81	1	2back	Block1	2back/STIM_001.jpg
25.571	1.049	0	2back	Block1	2back/STIM_002.jpg
30.457	1.091	1	2back	Block1	2back/STIM_002.jpg
33.852	0.706	1	2back	Block1	2back/STIM_002.jpg
38.469	0.604	0	2back	Block1	2back/STIM_003.jpg
41.24	0.917	0	2back	Block1	2back/STIM_003.jpg
46.027	0.812	0	2back	Block1	2back/STIM_003.jpg
49.973	0.696	0	2back	Block1	2back/STIM_004.jpg
53.84	0.727	0	2back	Block1	2back/STIM_004.jpg
57.459	0.911	1	2back	Block1	2back/STIM_004.jpg
60.739	0.84	0	2back	Block1	2back/STIM_005.jpg
64.617	0.847	1	2back	Block1	2back/STIM_005.jpg
69.443	0.916	0	2back	Block1	2back/STIM_005.jpg
73.946	0.562	1	2back	Block1	2back/STIM_006.jpg
77.122	0.581	1	2back	Block1	2back/STIM_006.jpg
81.493	0.996	1	2back	Block1	2back/STIM_006.jpg
85.272	1.174	1	2back	Block1	2back/STIM_007.jpg
89.362	1.218	0	2back	Block1	2back/STIM_007.jpg
92.814	0.924	1	2back	Block1	2back/STIM_007.jpg
97.247	0.996	1	2back	Block1	2back/STIM_008.jpg
100.706	1.074	1	2back	Block1	2back/STIM_008.jpg
105.68	0.528	1	2back	Block1	2back/STIM_008.jpg
109.836	0.881	1	2back	Block1	2back/STIM_009.jpg
113.14	1.101	1	2back	Block1	2back/STIM_009.jpg
118.076	0.806	1	2back	Block1	2back/STIM_009.jpg
121.743	0.604	1	2back	Block1	2back/STIM_010.jpg
125.159	0.7	1	2back	Block1	2back/STIM_010.jpg
128.477	0.504	0	2back	Block1	2back/STIM_010.jpg
132.242	1.0	0	2back	Block1	2back/STIM_011.jpg
135.937	1.174	1	2back	Block1	2back/STIM_011.jpg
139.635	0.939	1	2back	Block1	2back/STIM_011.jpg
144.029	0.753	1	2back	Block1	2back/STIM_012.jpg
147.327	1.047	0	2back	Block1	2back/STIM_012.jpg
150.388	0.879	1	2back	Block1	2back/STIM_012.jpg
153.333	0.974	1	2back	Block1	2back/STIM_013.jpg
156.553	0.98	1	2back	Block1	2back/STIM_013.jpg
160.53	0.533	1	2back	Block1	2back/STIM_013.jpg
164.258	0.904	1	2back	Block1	2back/STIM_014.jpg
167.68	0.87	1	2back	Block1	2back/STIM_014.jpg
171.534	0.813	1	2back	Block1	2back/STIM_014.jpg
175.126	0.815	0	2back	Block1	2back/STIM_015.jpg
178.534	1.069	0	2back	Block1	2back/STIM_015.jpg
181.729	0.918	1	2back	Block1	2back/STIM_015.jpg
186.614	0.944	1	2back	Block1	2back/STIM_016.jpg
190.917	0.558	1	2back	Block1	2back/STIM_016.jpg
194.531	0.964	1	2back	Block1	2back/STIM_016.jpg
199.471	1.226	1	2back	Block1	2back/STIM_017.jpg
203.102	0.662	0	2back	Block1	2back/STIM_017.jpg
207.28	0.826	0	2back	Block1	2back/STIM_017.jpg
210.312	1.099	0	2back	Block1	2back/STIM_018.jpg
214.98	0.832	1	2back	Block1	2back/STIM_018.jpg
218.104	0.706	1	2back	Block1	2back/STIM_018.jpg
220.928	0.614	1	2back	Block1	2back/STIM_019.jpg
224.346	0.758	1	2back	Block1	2back/STIM_019.jpg
227.122	0.876	1	2back	Block1	2back/STIM_019.jpg
230.366	0.772	1	2back	Block1	2back/STIM_020.jpg
234.798	0.682	0	2back	Block1	2back/STIM_020.jpg
238.898	0.497	0	2back	Block1	2back/STIM_020.jpg
242.353	1.003	1	2back	Block1	2back/STIM_021.jpg
246.365	0.68	1	2back	Block1	2back/STIM_021.jpg
251.037	1.016	1	2back	Block1	2back/STIM_021.jpg
255.976	1.034	0	2back	Block1	2back/STIM_022.jpg
259.058	1.197	0	2back	Block1	2back/STIM_022.jpg
264.14	0.591	1	2back	Block1	2back/STIM_022.jpg
267.134	0.887	1	2back	Block1	2back/STIM_023.jpg
270.387	1.15	0	2back	Block1	2back/STIM_023.jpg
274.574	0.763	1	2back	Block1	2back/STIM_023.jpg
278.334	0.765	0	2back	Block1	2back/STIM_024.jpg
282.3	1.105	1	2back	Block1	2back/STIM_024.jpg
285.541	0.524	1	2back	Block1	2back/STIM_024.jpg
290.037	1.269	0	2back	Block1	2back/STIM_025.jpg
294.126	1.003	0	2back	Block1	2back/STIM_025.jpg
298.69	0.83	0	2back	Block1	2back/STIM_025.jpg
302.675	1.21	1	2back	Block1	2back/STIM_026.jpg
306.764	1.17	0	2back	Block1	2back/STIM_026.jpg
311.482	0.903	0	2back	Block1	2back/STIM_026.jpg
316.2	0.917	1	2back	Block1	2back/STIM_027.jpg
320.87	1.037	1	2back	Block1	2back/STIM_027.jpg
325.828	0.527	1	2back	Block1	2back/STIM_027.jpg
330.314	0.7	0	2back	Block1	2back/STIM_028.jpg
333.264	0.999	0	2back	Block1	2back/STIM_028.jpg
336.316	0.906	1	2back	Block1	2back/STIM_028.jpg
341.147	0.767	1	2back	Block1	2back/STIM_029.jpg
344.711	0.795	0	2back	Block1	2back/STIM_029.jpg
348.434	0.503	1	2back	Block1	2back/STIM_029.jpg
352.753	1.157	0	2back	Block1	2back/STIM_030.jpg
357.493	0.991	1	2back	Block1	2back/STIM_030.jpg
361.909	0.6	1	2back	Block1	2back/STIM_030.jpg
364.99	1.153	1	2back	Block1	2back/STIM_031.jpg
368.911	1.042	1	2back	Block1	2back/STIM_031.jpg
373.518	0.503	0	2back	Block1	2back/STIM_031.jpg
376.599	1.057	1	2back	Block1	2back/STIM_032.jpg
379.847	0.564	1	2back	Block1	2back/STIM_032.jpg
384.265	0.757	0	2back	Block1	2back/STIM_032.jpg
387.961	0.706	1	2back	Block1	2back/STIM_033.jpg
391.329	1.22	0	2back	Block1	2back/STIM_033.jpg
395.929	1.105	0	2back	Block1	2back/STIM_033.jpg
399.36	0.83	1	2back	Block1	2back/STIM_034.jpg
403.452	0.775	1	2back	Block1	2back/STIM_034.jpg
407.709	0.89	1	2back	Block1	2back/STIM_034.jpg
410.927	0.584	1	2back	Block1	2back/STIM_035.jpg
414.179	1.12	1	2back	Block1	2back/STIM_035.jpg
418.318	0.581	1	2back	Block1	2back/STIM_035.jpg
422.756	0.848	1	2back	Block1	2back/STIM_036.jpg
426.486	0.814	0	2back	Block1	2back/STIM_036.jpg
431.284	0.795	1	2back	Block1	2back/STIM_036.jpg
435.369	0.737	0	2back	Block1	2back/STIM_037.jpg
440.053	0.665	1	2back	Block1	2back/STIM_037.jpg
442.877	0.504	1	2back	Block1	2back/STIM_037.jpg
445.45	0.738	1	2back	Block1	2back/STIM_038.jpg
449.595	0.586	1	2back	Block1	2back/STIM_038.jpg
452.324	0.778	1	2back	Block1	2back/STIM_038.jpg
455.255	1.033	1	2back	Block1	2back/STIM_039.jpg
459.237	0.79	1	2back	Block1	2back/STIM_039.jpg
463.995	0.937	1	2back	Block1	2back/STIM_039.jpg
468.444	0.382	1	0back	Block1	0back/STIM_000.jpg
472.634	0.446	1	0back	Block1	0back/STIM_000.jpg
475.313	0.655	0	0back	Block1	0back/STIM_000.jpg
479.035	0.565	1	0back	Block1	0back/STIM_001.jpg
482.848	0.599	1	0back	Block1	0back/STIM_001.jpg
486.342	0.382	1	0back	Block1	0back/STIM_001.jpg
489.931	0.668	0	0back	Block1	0back/STIM_002.jpg
494.191	0.6	1	0back	Block1	0back/STIM_002.jpg
498.214	0.513	1	0back	Block1	0back/STIM_002.jpg
501.615	0.714	0	0back	Block1	0back/STIM_003.jpg
505.366	0.644	1	0back	Block1	0back/STIM_003.jpg
509.083	0.492	1	0back	Block1	0back/STIM_003.jpg
511.823	0.71	1	0back	Block1	0back/STIM_004.jpg
515.335	0.586	1	0back	Block1	0back/STIM_004.jpg
519.909	0.37	1	0back	Block1	0back/STIM_004.jpg
523.245	0.62	0	0back	Block1	0back/STIM_005.jpg
526.001	0.403	1	0back	Block1	0back/STIM_005.jpg
530.251	0.69	1	0back	Block1	0back/STIM_005.jpg
534.284	0.629	1	0back	Block1	0back/STIM_006.jpg
537.275	0.633	1	0back	Block1	0back/STIM_006.jpg
541.866	0.544	1	0back	Block1	0back/STIM_006.jpg
545.799	0.494	0	0back	Block1	0back/STIM_007.jpg
548.601	0.625	1	0back	Block1	0back/STIM_007.jpg
551.813	0.631	1	0back	Block1	0back/STIM_007.jpg
555.955	0.706	1	0back	Block1	0back/STIM_008.jpg
560.404	0.72	0	0back	Block1	0back/STIM_008.jpg
563.78	0.537	1	0back	Block1	0back/STIM_008.jpg
567.519	0.456	1	0back	Block1	0back/STIM_009.jpg
570.004	0.725	1	0back	Block1	0back/STIM_009.jpg
573.675	0.408	1	0back	Block1	0back/STIM_009.jpg
578.05	0.43	1	0back	Block1	0back/STIM_010.jpg
580.969	0.479	1	0back	Block1	0back/STIM_010.jpg
584.49	0.511	0	0back	Block1	0back/STIM_010.jpg
587.16	0.594	1	0back	Block1	0back/STIM_011.jpg
589.79	0.619	1	0back	Block1	0back/STIM_011.jpg
593.507	0.592	0	0back	Block1	0back/STIM_011.jpg
597.68	0.534	0	0back	Block1	0back/STIM_012.jpg
600.664	0.618	1	0back	Block1	0back/STIM_012.jpg
604.321	0.402	0	0back	Block1	0back/STIM_012.jpg
607.218	0.615	1	0back	Block1	0back/STIM_013.jpg
610.039	0.499	1	0back	Block1	0back/STIM_013.jpg
613.818	0.694	1	0back	Block1	0back/STIM_013.jpg
617.14	0.454	0	0back	Block1	0back/STIM_014.jpg
621.487	0.442	0	0back	Block1	0back/STIM_014.jpg
624.237	0.503	1	0back	Block1	0back/STIM_014.jpg
628.309	0.709	0	0back	Block1	0back/STIM_015.jpg
631.337	0.712	1	0back	Block1	0back/STIM_015.jpg
635.213	0.609	0	0back	Block1	0back/STIM_015.jpg
638.052	0.614	1	0back	Block1	0back/STIM_016.jpg
642.658	0.378	1	0back	Block1	0back/STIM_016.jpg
645.639	0.434	1	0back	Block1	0back/STIM_016.jpg
649.232	0.418	1	0back	Block1	0back/STIM_017.jpg
652.784	0.442	1	0back	Block1	0back/STIM_017.jpg
657.052	0.627	0	0back	Block1	0back/STIM_017.jpg
660.036	0.459	0	0back	Block1	0back/STIM_018.jpg
662.707	0.651	0	0back	Block1	0back/STIM_018.jpg
667.166	0.723	0	0back	Block1	0back/STIM_018.jpg
670.122	0.59	1	0back	Block1	0back/STIM_019.jpg
673.859	0.537	1	0back	Block1	0back/STIM_019.jpg
676.472	0.509	1	0back	Block1	0back/STIM_019.jpg
679.957	0.925	1	2back	Block2	2back/STIM_000.jpg
684.5	0.513	1	2back	Block2	2back/STIM_000.jpg
688.034	0.716	1	2back	Block2	2back/STIM_000.jpg
691.511	0.713	0	2back	Block2	2back/STIM_001.jpg
695.224	0.938	0	2back	Block2	2back/STIM_001.jpg
699.419	0.644	1	2back	Block2	2back/STIM_001.jpg
703.964	1.082	0	2back	Block2	2back/STIM_002.jpg
707.595	0.892	1	2back	Block2	2back/STIM_002.jpg
712.463	0.77	0	2back	Block2	2back/STIM_002.jpg
716.362	0.774	1	2back	Block2	2back/STIM_003.jpg
720.122	0.69	1	2back	Block2	2back/STIM_003.jpg
723.757	0.656	1	2back	Block2	2back/STIM_003.jpg
728.103	0.918	0	2back	Block2	2back/STIM_004.jpg
731.6	0.498	1	2back	Block2	2back/STIM_004.jpg
735.875	0.562	1	2back	Block2	2back/STIM_004.jpg
740.084	0.984	1	2back	Block2	2back/STIM_005.jpg
744.548	0.623	1	2back	Block2	2back/STIM_005.jpg
747.199	0.836	0	2back	Block2	2back/STIM_005.jpg
750.446	0.904	1	2back	Block2	2back/STIM_006.jpg
754.759	0.688	0	2back	Block2	2back/STIM_006.jpg
759.377	0.798	1	2back	Block2	2back/STIM_006.jpg
763.953	0.584	1	2back	Block2	2back/STIM_007.jpg
767.149	0.804	1	2back	Block2	2back/STIM_007.jpg
770.077	0.7	1	2back	Block2	2back/STIM_007.jpg
773.645	0.687	1	2back	Block2	2back/STIM_008.jpg
776.807	0.613	1	2back	Block2	2back/STIM_008.jpg
780.347	0.682	0	2back	Block2	2back/STIM_008.jpg
784.348	0.944	1	2back	Block2	2back/STIM_009.jpg
788.232	0.805	1	2back	Block2	2back/STIM_009.jpg
792.102	0.897	1	2back	Block2	2back/STIM_009.jpg
795.827	0.981	1	2back	Block2	2back/STIM_010.jpg
800.277	0.921	0	2back	Block2	2back/STIM_010.jpg
804.233	0.655	1	2back	Block2	2back/STIM_010.jpg
807.269	0.715	0	2back	Block2	2back/STIM_011.jpg
810.449	0.942	1	2back	Block2	2back/STIM_011.jpg
814.934	0.43	1	2back	Block2	2back/STIM_011.jpg
817.86	0.86	1	2back	Block2	2back/STIM_012.jpg
820.987	0.654	0	2back	Block2	2back/STIM_012.jpg
823.645	0.961	1	2back	Block2	2back/STIM_012.jpg
827.761	0.517	1	2back	Block2	2back/STIM_013.jpg
831.978	0.744	1	2back	Block2	2back/STIM_013.jpg
835.003	0.418	1	2back	Block2	2back/STIM_013.jpg
837.618	0.954	1	2back	Block2	2back/STIM_014.jpg
841.976	0.935	1	2back	Block2	2back/STIM_014.jpg
845.626	0.461	0	2back	Block2	2back/STIM_014.jpg
849.8	0.744	1	2back	Block2	2back/STIM_015.jpg
854.258	0.804	1	2back	Block2	2back/STIM_015.jpg
858.127	0.584	0	2back	Block2	2back/STIM_015.jpg
862.457	0.987	1	2back	Block2	2back/STIM_016.jpg
866.036	0.872	1	2back	Block2	2back/STIM_016.jpg
868.925	0.749	1	2back	Block2	2back/STIM_016.jpg
871.727	1.004	0	2back	Block2	2back/STIM_017.jpg
875.307	0.886	1	2back	Block2	2back/STIM_017.jpg
878.528	0.73	0	2back	Block2	2back/STIM_017.jpg
881.331	0.808	1	2back	Block2	2back/STIM_018.jpg
884.268	0.749	1	2back	Block2	2back/STIM_018.jpg
887.465	0.748	0	2back	Block2	2back/STIM_018.jpg
890.636	0.747	0	2back	Block2	2back/STIM_019.jpg
893.467	0.444	1	2back	Block2	2back/STIM_019.jpg
897.678	0.799	1	2back	Block2	2back/STIM_019.jpg
901.48	1.061	1	2back	Block2	2back/STIM_020.jpg
905.765	0.583	1	2back	Block2	2back/STIM_020.jpg
909.902	0.833	1	2back	Block2	2back/STIM_020.jpg
914.019	0.839	1	2back	Block2	2back/STIM_021.jpg
918.267	0.677	0	2back	Block2	2back/STIM_021.jpg
920.948	0.679	1	2back	Block2	2back/STIM_021.jpg
924.398	0.781	1	2back	Block2	2back/STIM_022.jpg
928.991	0.598	1	2back	Block2	2back/STIM_022.jpg
932.127	0.565	1	2back	Block2	2back/STIM_022.jpg
936.623	0.652	0	2back	Block2	2back/STIM_023.jpg
939.284	1.027	1	2back	Block2	2back/STIM_023.jpg
943.561	0.887	0	2back	Block2	2back/STIM_023.jpg
947.573	0.737	1	2back	Block2	2back/STIM_024.jpg
950.583	0.508	1	2back	Block2	2back/STIM_024.jpg
955.08	0.579	0	2back	Block2	2back/STIM_024.jpg
957.691	0.924	0	2back	Block2	2back/STIM_025.jpg
962.501	0.985	1	2back	Block2	2back/STIM_025.jpg
965.95	0.694	1	2back	Block2	2back/STIM_025.jpg
968.716	0.556	0	2back	Block2	2back/STIM_026.jpg
971.388	0.854	1	2back	Block2	2back/STIM_026.jpg
975.509	0.734	1	2back	Block2	2back/STIM_026.jpg
978.75	0.973	1	2back	Block2	2back/STIM_027.jpg
983.251	0.77	0	2back	Block2	2back/STIM_027.jpg
986.332	0.436	1	2back	Block2	2back/STIM_027.jpg
990.42	0.574	0	2back	Block2	2back/STIM_028.jpg
994.42	0.696	1	2back	Block2	2back/STIM_028.jpg
998.008	0.738	1	2back	Block2	2back/STIM_028.jpg
1001.769	0.923	1	2back	Block2	2back/STIM_029.jpg
1005.451	0.926	1	2back	Block2	2back/STIM_029.jpg
1009.173	0.444	1	2back	Block2	2back/STIM_029.jpg
1012.305	0.529	1	2back	Block2	2back/STIM_030.jpg
1015.039	0.839	1	2back	Block2	2back/STIM_030.jpg
1018.78	0.818	1	2back	Block2	2back/STIM_030.jpg
1022.559	0.7	1	2back	Block2	2back/STIM_031.jpg
1026.869	0.442	1	2back	Block2	2back/STIM_031.jpg
1030.408	0.838	1	2back	Block2	2back/STIM_031.jpg
1033.387	0.618	0	2back	Block2	2back/STIM_032.jpg
1036.056	0.633	1	2back	Block2	2back/STIM_032.jpg
1039.32	0.552	0	2back	Block2	2back/STIM_032.jpg
1042.65	0.681	1	2back	Block2	2back/STIM_033.jpg
1046.104	0.88	1	2back	Block2	2back/STIM_033.jpg
1049.54	0.64	0	2back	Block2	2back/STIM_033.jpg
1053.265	0.712	0	2back	Block2	2back/STIM_034.jpg
1056.49	0.658	0	2back	Block2	2back/STIM_034.jpg
1059.232	0.928	1	2back	Block2	2back/STIM_034.jpg
1062.674	0.558	0	2back	Block2	2back/STIM_035.jpg
1065.599	0.746	1	2back	Block2	2back/STIM_035.jpg
1069.792	0.521	1	2back	Block2	2back/STIM_035.jpg
1072.8	0.965	1	2back	Block2	2back/STIM_036.jpg
1077.657	0.472	1	2back	Block2	2back/STIM_036.jpg
1080.725	0.646	1	2back	Block2	2back/STIM_036.jpg
1083.625	0.788	0	2back	Block2	2back/STIM_037.jpg
1087.483	0.785	1	2back	Block2	2back/STIM_037.jpg
1091.816	0.774	1	2back	Block2	2back/STIM_037.jpg
1094.997	0.738	0	2back	Block2	2back/STIM_038.jpg
1099.618	0.744	1	2back	Block2	2back/STIM_038.jpg
1103.039	0.806	1	2back	Block2	2back/STIM_038.jpg
1107.122	0.611	1	2back	Block2	2back/STIM_039.jpg
1111.624	0.665	1	2back	Block2	2back/STIM_039.jpg
1115.088	0.638	1	2back	Block2	2back/STIM_039.jpg
1119.61	0.706	1	0back	Block2	0back/STIM_000.jpg
1123.81	0.552	1	0back	Block2	0back/STIM_000.jpg
1127.917	0.699	1	0back	Block2	0back/STIM_000.jpg
1132.564	0.56	1	0back	Block2	0back/STIM_001.jpg
1135.454	0.602	1	0back	Block2	0back/STIM_001.jpg
1139.585	0.48	1	0back	Block2	0back/STIM_001.jpg
1143.852	0.602	1	0back	Block2	0back/STIM_002.jpg
1147.57	0.665	0	0back	Block2	0back/STIM_002.jpg
1150.267	0.401	1	0back	Block2	0back/STIM_002.jpg
1152.893	0.413	1	0back	Block2	0back/STIM_003.jpg
1156.677	0.516	0	0back	Block2	0back/STIM_003.jpg
1160.834	0.638	1	0back	Block2	0back/STIM_003.jpg
1164.534	0.726	1	0back	Block2	0back/STIM_004.jpg
1168.061	0.671	1	0back	Block2	0back/STIM_004.jpg
1172.265	0.682	0	0back	Block2	0back/STIM_004.jpg
1175.702	0.429	1	0back	Block2	0back/STIM_005.jpg
1178.556	0.426	1	0back	Block2	0back/STIM_005.jpg
1181.75	0.542	1	0back	Block2	0back/STIM_005.jpg
1185.037	0.708	0	0back	Block2	0back/STIM_006.jpg
1189.438	0.532	0	0back	Block2	0back/STIM_006.jpg
1192.46	0.629	1	0back	Block2	0back/STIM_006.jpg
1195.394	0.646	1	0back	Block2	0back/STIM_007.jpg
1199.843	0.531	1	0back	Block2	0back/STIM_007.jpg
1203.867	0.652	1	0back	Block2	0back/STIM_007.jpg
1207.74	0.455	0	0back	Block2	0back/STIM_008.jpg
1210.549	0.436	1	0back	Block2	0back/STIM_008.jpg
1214.404	0.703	1	0back	Block2	0back/STIM_008.jpg
1218.751	0.398	1	0back	Block2	0back/STIM_009.jpg
1221.881	0.503	1	0back	Block2	0back/STIM_009.jpg
1226.283	0.679	1	0back	Block2	0back/STIM_009.jpg
1229.135	0.582	0	0back	Block2	0back/STIM_010.jpg
1231.998	0.696	1	0back	Block2	0back/STIM_010.jpg
1235.658	0.389	1	0back	Block2	0back/STIM_010.jpg
1238.891	0.59	1	0back	Block2	0back/STIM_011.jpg
1241.846	0.384	0	0back	Block2	0back/STIM_011.jpg
1244.519	0.433	1	0back	Block2	0back/STIM_011.jpg
1248.739	0.555	0	0back	Block2	0back/STIM_012.jpg
1253.198	0.694	0	0back	Block2	0back/STIM_012.jpg
1256.702	0.434	1	0back	Block2	0back/STIM_012.jpg
1259.972	0.613	0	0back	Block2	0back/STIM_013.jpg
1263.333	0.474	1	0back	Block2	0back/STIM_013.jpg
1267.664	0.37	1	0back	Block2	0back/STIM_013.jpg
1271.791	0.41	1	0back	Block2	0back/STIM_014.jpg
1274.204	0.505	1	0back	Block2	0back/STIM_014.jpg
1277.204	0.435	0	0back	Block2	0back/STIM_014.jpg
1280.244	0.586	1	0back	Block2	0back/STIM_015.jpg
1283.117	0.525	1	0back	Block2	0back/STIM_015.jpg
1287.126	0.656	0	0back	Block2	0back/STIM_015.jpg
1290.144	0.587	1	0back	Block2	0back/STIM_016.jpg
1293.325	0.505	1	0back	Block2	0back/STIM_016.jpg
1296.128	0.48	1	0back	Block2	0back/STIM_016.jpg
1300.01	0.691	1	0back	Block2	0back/STIM_017.jpg
1303.839	0.472	0	0back	Block2	0back/STIM_017.jpg
1307.221	0.59	1	0back	Block2	0back/STIM_017.jpg
1311.549	0.685	1	0back	Block2	0back/STIM_018.jpg
1316.173	0.67	1	0back	Block2	0back/STIM_018.jpg
1318.987	0.398	1	0back	Block2	0back/STIM_018.jpg
1322.57	0.672	1	0back	Block2	0back/STIM_019.jpg
1326.563	0.39	1	0back	Block2	0back/STIM_019.jpg
1330.254	0.731	1	0back	Block2	0back/STIM_019.jpg
1334.416	0.899	0	2back	Block3	2back/STIM_000.jpg
1338.808	0.858	0	2back	Block3	2back/STIM_000.jpg
1341.959	0.863	1	2back	Block3	2back/STIM_000.jpg
1346.06	0.688	1	2back	Block3	2back/STIM_001.jpg
1349.588	0.599	1	2back	Block3	2back/STIM_001.jpg
1353.888	0.513	0	2back	Block3	2back/STIM_001.jpg
1358.055	0.475	1	2back	Block3	2back/STIM_002.jpg
1362.337	0.63	0	2back	Block3	2back/STIM_002.jpg
1365.138	0.658	1	2back	Block3	2back/STIM_002.jpg
1368.077	0.609	1	2back	Block3	2back/STIM_003.jpg
1370.934	0.771	1	2back	Block3	2back/STIM_003.jpg
1374.435	0.759	1	2back	Block3	2back/STIM_003.jpg
1378.335	0.528	0	2back	Block3	2back/STIM_004.jpg
1382.096	0.403	1	2back	Block3	2back/STIM_004.jpg
1385.148	0.62	1	2back	Block3	2back/STIM_004.jpg
1388.372	0.73	1	2back	Block3	2back/STIM_005.jpg
1391.151	0.78	1	2back	Block3	2back/STIM_005.jpg
1394.941	0.455	0	2back	Block3	2back/STIM_005.jpg
1397.492	0.49	1	2back	Block3	2back/STIM_006.jpg
1401.122	0.879	0	2back	Block3	2back/STIM_006.jpg
1405.038	0.508	0	2back	Block3	2back/STIM_006.jpg
1409.065	0.568	0	2back	Block3	2back/STIM_007.jpg
1411.678	0.895	0	2back	Block3	2back/STIM_007.jpg
1415.489	0.695	1	2back	Block3	2back/STIM_007.jpg
1419.874	0.805	1	2back	Block3	2back/STIM_008.jpg
1423.371	0.84	1	2back	Block3	2back/STIM_008.jpg
1426.74	0.776	1	2back	Block3	2back/STIM_008.jpg
1430.195	0.842	1	2back	Block3	2back/STIM_009.jpg
1434.215	0.425	1	2back	Block3	2back/STIM_009.jpg
1437.275	0.459	1	2back	Block3	2back/STIM_009.jpg
1439.866	0.782	1	2back	Block3	2back/STIM_010.jpg
1444.416	0.803	1	2back	Block3	2back/STIM_010.jpg
1448.95	0.826	1	2back	Block3	2back/STIM_010.jpg
1452.667	0.42	1	2back	Block3	2back/STIM_011.jpg
1456.966	0.776	1	2back	Block3	2back/STIM_011.jpg
1460.197	0.61	1	2back	Block3	2back/STIM_011.jpg
1463.476	0.827	0	2back	Block3	2back/STIM_012.jpg
1467.46	0.804	1	2back	Block3	2back/STIM_012.jpg
1470.831	0.49	1	2back	Block3	2back/STIM_012.jpg
1473.734	0.505	1	2back	Block3	2back/STIM_013.jpg
1478.038	0.74	0	2back	Block3	2back/STIM_013.jpg
1480.939	0.461	1	2back	Block3	2back/STIM_013.jpg
1484.865	0.858	1	2back	Block3	2back/STIM_014.jpg
1489.676	0.388	0	2back	Block3	2back/STIM_014.jpg
1493.44	0.751	1	2back	Block3	2back/STIM_014.jpg
1496.488	0.518	1	2back	Block3	2back/STIM_015.jpg
1499.611	0.78	0	2back	Block3	2back/STIM_015.jpg
1504.122	0.417	1	2back	Block3	2back/STIM_015.jpg
1507.572	0.497	1	2back	Block3	2back/STIM_016.jpg
1510.837	0.615	1	2back	Block3	2back/STIM_016.jpg
1513.984	0.632	0	2back	Block3	2back/STIM_016.jpg
1516.808	0.709	1	2back	Block3	2back/STIM_017.jpg
1520.818	0.658	0	2back	Block3	2back/STIM_017.jpg
1524.504	0.43	1	2back	Block3	2back/STIM_017.jpg
1527.656	0.86	0	2back	Block3	2back/STIM_018.jpg
1531.528	0.728	1	2back	Block3	2back/STIM_018.jpg
1535.49	0.538	0	2back	Block3	2back/STIM_018.jpg
1539.125	0.75	1	2back	Block3	2back/STIM_019.jpg
1542.733	0.827	1	2back	Block3	2back/STIM_019.jpg
1546.419	0.801	1	2back	Block3	2back/STIM_019.jpg
1549.355	0.564	0	2back	Block3	2back/STIM_020.jpg
1553.043	0.4	1	2back	Block3	2back/STIM_020.jpg
1557.271	0.724	1	2back	Block3	2back/STIM_020.jpg
1560.111	0.442	1	2back	Block3	2back/STIM_021.jpg
1563.332	0.558	1	2back	Block3	2back/STIM_021.jpg
1567.346	0.451	1	2back	Block3	2back/STIM_021.jpg
1570.356	0.57	1	2back	Block3	2back/STIM_022.jpg
1573.3	0.754	1	2back	Block3	2back/STIM_022.jpg
1577.284	0.419	0	2back	Block3	2back/STIM_022.jpg
1580.359	0.78	1	2back	Block3	2back/STIM_023.jpg
1583.977	0.569	1	2back	Block3	2back/STIM_023.jpg
1588.239	0.859	1	2back	Block3	2back/STIM_023.jpg
1592.305	0.455	0	2back	Block3	2back/STIM_024.jpg
1595.459	0.855	0	2back	Block3	2back/STIM_024.jpg
1599.394	0.803	0	2back	Block3	2back/STIM_024.jpg
1603.869	0.471	1	2back	Block3	2back/STIM_025.jpg
1608.094	0.488	1	2back	Block3	2back/STIM_025.jpg
1612.508	0.406	0	2back	Block3	2back/STIM_025.jpg
1616.789	0.591	0	2back	Block3	2back/STIM_026.jpg
1620.899	0.421	1	2back	Block3	2back/STIM_026.jpg
1623.527	0.849	0	2back	Block3	2back/STIM_026.jpg
1626.549	0.793	1	2back	Block3	2back/STIM_027.jpg
1630.01	0.793	0	2back	Block3	2back/STIM_027.jpg
1633.31	0.786	1	2back	Block3	2back/STIM_027.jpg
1637.168	0.49	1	2back	Block3	2back/STIM_028.jpg
1641.178	0.681	1	2back	Block3	2back/STIM_028.jpg
1644.451	0.656	1	2back	Block3	2back/STIM_028.jpg
1647.221	0.571	1	2back	Block3	2back/STIM_029.jpg
1650.922	0.628	0	2back	Block3	2back/STIM_029.jpg
1654.127	0.878	1	2back	Block3	2back/STIM_029.jpg
1657.707	0.506	1	2back	Block3	2back/STIM_030.jpg
1660.83	0.802	0	2back	Block3	2back/STIM_030.jpg
1664.549	0.555	1	2back	Block3	2back/STIM_030.jpg
1667.417	0.404	1	2back	Block3	2back/STIM_031.jpg
1670.536	0.637	1	2back	Block3	2back/STIM_031.jpg
1674.245	0.509	1	2back	Block3	2back/STIM_031.jpg
1678.417	0.462	0	2back	Block3	2back/STIM_032.jpg
1681.612	0.747	1	2back	Block3	2back/STIM_032.jpg
1684.506	0.826	1	2back	Block3	2back/STIM_032.jpg
1687.576	0.607	0	2back	Block3	2back/STIM_033.jpg
1690.49	0.772	1	2back	Block3	2back/STIM_033.jpg
1694.45	0.493	1	2back	Block3	2back/STIM_033.jpg
1698.59	0.668	1	2back	Block3	2back/STIM_034.jpg
1701.997	0.845	1	2back	Block3	2back/STIM_034.jpg
1705.128	0.569	0	2back	Block3	2back/STIM_034.jpg
1708.585	0.898	1	2back	Block3	2back/STIM_035.jpg
1713.097	0.608	1	2back	Block3	2back/STIM_035.jpg
1716.98	0.807	1	2back	Block3	2back/STIM_035.jpg
1721.556	0.883	1	2back	Block3	2back/STIM_036.jpg
1726.058	0.867	1	2back	Block3	2back/STIM_036.jpg
1730.732	0.726	0	2back	Block3	2back/STIM_036.jpg
1733.596	0.394	1	2back	Block3	2back/STIM_037.jpg
1737.225	0.466	1	2back	Block3	2back/STIM_037.jpg
1741.056	0.713	1	2back	Block3	2back/STIM_037.jpg
1743.999	0.72	1	2back	Block3	2back/STIM_038.jpg
1747.889	0.762	0	2back	Block3	2back/STIM_038.jpg
1752.585	0.712	1	2back	Block3	2back/STIM_038.jpg
1755.511	0.386	0	2back	Block3	2back/STIM_039.jpg
1759.896	0.741	0	2back	Block3	2back/STIM_039.jpg
1764.45	0.654	0	2back	Block3	2back/STIM_039.jpg
1768.903	0.41	1	0back	Block3	0back/STIM_000.jpg
1772.604	0.515	1	0back	Block3	0back/STIM_000.jpg
1775.963	0.56	0	0back	Block3	0back/STIM_000.jpg
1779.791	0.643	0	0back	Block3	0back/STIM_001.jpg
1784.339	0.564	1	0back	Block3	0back/STIM_001.jpg
1787.448	0.507	0	0back	Block3	0back/STIM_001.jpg
1791.286	0.454	1	0back	Block3	0back/STIM_002.jpg
1795.125	0.697	1	0back	Block3	0back/STIM_002.jpg
1798.104	0.6	0	0back	Block3	0back/STIM_002.jpg
1800.78	0.509	1	0back	Block3	0back/STIM_003.jpg
1804.408	0.684	1	0back	Block3	0back/STIM_003.jpg
1808.315	0.481	1	0back	Block3	0back/STIM_003.jpg
1811.184	0.517	1	0back	Block3	0back/STIM_004.jpg
1814.584	0.568	0	0back	Block3	0back/STIM_004.jpg
1818.581	0.72	1	0back	Block3	0back/STIM_004.jpg
1822.134	0.63	1	0back	Block3	0back/STIM_005.jpg
1825.275	0.687	1	0back	Block3	0back/STIM_005.jpg
1829.226	0.389	1	0back	Block3	0back/STIM_005.jpg
1832.38	0.5	0	0back	Block3	0back/STIM_006.jpg
1835.606	0.579	1	0back	Block3	0back/STIM_006.jpg
1840.092	0.674	1	0back	Block3	0back/STIM_006.jpg
1843.449	0.609	1	0back	Block3	0back/STIM_007.jpg
1846.717	0.661	1	0back	Block3	0back/STIM_007.jpg
1849.772	0.467	1	0back	Block3	0back/STIM_007.jpg
1853.963	0.514	0	0back	Block3	0back/STIM_008.jpg
1857.57	0.572	1	0back	Block3	0back/STIM_008.jpg
1860.56	0.667	1	0back	Block3	0back/STIM_008.jpg
1865.212	0.447	1	0back	Block3	0back/STIM_009.jpg
1869.15	0.679	0	0back	Block3	0back/STIM_009.jpg
1872.966	0.427	0	0back	Block3	0back/STIM_009.jpg
1876.533	0.68	0	0back	Block3	0back/STIM_010.jpg
1879.859	0.661	1	0back	Block3	0back/STIM_010.jpg
1883.034	0.696	0	0back	Block3	0back/STIM_010.jpg
1886.73	0.415	1	0back	Block3	0back/STIM_011.jpg
1889.19	0.596	1	0back	Block3	0back/STIM_011.jpg
1893.746	0.522	1	0back	Block3	0back/STIM_011.jpg
1896.426	0.401	1	0back	Block3	0back/STIM_012.jpg
1898.883	0.557	1	0back	Block3	0back/STIM_012.jpg
1903.095	0.484	0	0back	Block3	0back/STIM_012.jpg
1905.898	0.57	1	0back	Block3	0back/STIM_013.jpg
1909.53	0.677	1	0back	Block3	0back/STIM_013.jpg
1912.498	0.558	0	0back	Block3	0back/STIM_013.jpg
1916.819	0.585	1	0back	Block3	0back/STIM_014.jpg
1920.917	0.436	0	0back	Block3	0back/STIM_014.jpg
1923.883	0.687	0	0back	Block3	0back/STIM_014.jpg
1927.567	0.475	1	0back	Block3	0back/STIM_015.jpg
1931.724	0.62	1	0back	Block3	0back/STIM_015.jpg
1935.304	0.373	1	0back	Block3	0back/STIM_015.jpg
1939.332	0.439	0	0back	Block3	0back/STIM_016.jpg
1942.066	0.723	1	0back	Block3	0back/STIM_016.jpg
1946.063	0.558	0	0back	Block3	0back/STIM_016.jpg
1949.677	0.632	0	0back	Block3	0back/STIM_017.jpg
1953.541	0.476	1	0back	Block3	0back/STIM_017.jpg
1956.834	0.728	0	0back	Block3	0back/STIM_017.jpg
1961.276	0.437	0	0back	Block3	0back/STIM_018.jpg
1964.316	0.571	0	0back	Block3	0back/STIM_018.jpg
1966.997	0.734	1	0back	Block3	0back/STIM_018.jpg
1969.937	0.685	1	0back	Block3	0back/STIM_019.jpg
1974.03	0.393	1	0back	Block3	0back/STIM_019.jpg
1977.204	0.501	1	0back	Block3	0back/STIM_019.jpg
1980.706	0.711	1	2back	Block4	2back/STIM_000.jpg
1985.328	0.555	1	2back	Block4	2back/STIM_000.jpg
1989.077	0.744	1	2back	Block4	2back/STIM_000.jpg
1993.604	0.688	1	2back	Block4	2back/STIM_001.jpg
1997.986	0.701	1	2back	Block4	2back/STIM_001.jpg
2002.0	0.398	0	2back	Block4	2back/STIM_001.jpg
2004.649	0.7	0	2back	Block4	2back/STIM_002.jpg
2007.97	0.881	1	2back	Block4	2back/STIM_002.jpg
2011.251	0.728	1	2back	Block4	2back/STIM_002.jpg
2014.862	0.54	1	2back	Block4	2back/STIM_003.jpg
2018.143	0.84	1	2back	Block4	2back/STIM_003.jpg
2021.978	0.632	1	2back	Block4	2back/STIM_003.jpg
2024.621	0.71	1	2back	Block4	2back/STIM_004.jpg
2028.155	0.526	0	2back	Block4	2back/STIM_004.jpg
2032.111	0.79	1	2back	Block4	2back/STIM_004.jpg
2035.855	0.662	1	2back	Block4	2back/STIM_005.jpg
2038.672	0.534	1	2back	Block4	2back/STIM_005.jpg
2042.275	0.688	1	2back	Block4	2back/STIM_005.jpg
2045.552	0.818	1	2back	Block4	2back/STIM_006.jpg
2049.889	0.468	1	2back	Block4	2back/STIM_006.jpg
2054.319	0.493	0	2back	Block4	2back/STIM_006.jpg
2056.986	0.719	1	2back	Block4	2back/STIM_007.jpg
2060.034	0.891	1	2back	Block4	2back/STIM_007.jpg
2063.766	0.407	0	2back	Block4	2back/STIM_007.jpg
2068.029	0.392	1	2back	Block4	2back/STIM_008.jpg
2072.401	0.816	1	2back	Block4	2back/STIM_008.jpg
2077.005	0.583	1	2back	Block4	2back/STIM_008.jpg
2081.517	0.662	1	2back	Block4	2back/STIM_009.jpg
2085.534	0.673	0	2back	Block4	2back/STIM_009.jpg
2090.01	0.848	1	2back	Block4	2back/STIM_009.jpg
2093.532	0.559	0	2back	Block4	2back/STIM_010.jpg
2096.53	0.568	1	2back	Block4	2back/STIM_010.jpg
2100.391	0.714	1	2back	Block4	2back/STIM_010.jpg
2103.33	0.665	1	2back	Block4	2back/STIM_011.jpg
2107.198	0.707	1	2back	Block4	2back/STIM_011.jpg
2111.53	0.755	1	2back	Block4	2back/STIM_011.jpg
2114.58	0.46	1	2back	Block4	2back/STIM_012.jpg
2118.028	0.668	1	2back	Block4	2back/STIM_012.jpg
2122.564	0.774	0	2back	Block4	2back/STIM_012.jpg
2126.051	0.497	1	2back	Block4	2back/STIM_013.jpg
2128.923	0.693	1	2back	Block4	2back/STIM_013.jpg
2133.384	0.871	1	2back	Block4	2back/STIM_013.jpg
2136.304	0.684	0	2back	Block4	2back/STIM_014.jpg
2139.261	0.391	0	2back	Block4	2back/STIM_014.jpg
2142.383	0.396	1	2back	Block4	2back/STIM_014.jpg
2144.934	0.854	0	2back	Block4	2back/STIM_015.jpg
2148.311	0.782	1	2back	Block4	2back/STIM_015.jpg
2153.023	0.876	0	2back	Block4	2back/STIM_015.jpg
2156.117	0.623	1	2back	Block4	2back/STIM_016.jpg
2158.871	0.572	1	2back	Block4	2back/STIM_016.jpg
2162.948	0.565	1	2back	Block4	2back/STIM_016.jpg
2166.313	0.648	1	2back	Block4	2back/STIM_017.jpg
2170.281	0.448	1	2back	Block4	2back/STIM_017.jpg
2174.047	0.829	1	2back	Block4	2back/STIM_017.jpg
2176.976	0.724	1	2back	Block4	2back/STIM_018.jpg
2180.148	0.596	1	2back	Block4	2back/STIM_018.jpg
2184.611	0.684	1	2back	Block4	2back/STIM_018.jpg
2188.722	0.522	1	2back	Block4	2back/STIM_019.jpg
2193.064	0.751	0	2back	Block4	2back/STIM_019.jpg
2197.763	0.387	1	2back	Block4	2back/STIM_019.jpg
2200.647	0.636	1	2back	Block4	2back/STIM_020.jpg
2203.307	0.702	1	2back	Block4	2back/STIM_020.jpg
2207.82	0.778	1	2back	Block4	2back/STIM_020.jpg
2211.19	0.844	1	2back	Block4	2back/STIM_021.jpg
2214.686	0.409	1	2back	Block4	2back/STIM_021.jpg
2217.137	0.754	1	2back	Block4	2back/STIM_021.jpg
2220.424	0.397	1	2back	Block4	2back/STIM_022.jpg
2223.153	0.743	1	2back	Block4	2back/STIM_022.jpg
2226.166	0.662	1	2back	Block4	2back/STIM_022.jpg
2229.201	0.405	1	2back	Block4	2back/STIM_023.jpg
2232.676	0.467	1	2back	Block4	2back/STIM_023.jpg
2236.797	0.811	1	2back	Block4	2back/STIM_023.jpg
2239.822	0.816	0	2back	Block4	2back/STIM_024.jpg
2243.598	0.768	1	2back	Block4	2back/STIM_024.jpg
2246.84	0.504	1	2back	Block4	2back/STIM_024.jpg
2250.822	0.66	1	2back	Block4	2back/STIM_025.jpg
2253.998	0.436	1	2back	Block4	2back/STIM_025.jpg
2258.124	0.798	1	2back	Block4	2back/STIM_025.jpg
2261.925	0.573	1	2back	Block4	2back/STIM_026.jpg
2266.419	0.763	1	2back	Block4	2back/STIM_026.jpg
2269.949	0.843	1	2back	Block4	2back/STIM_026.jpg
2273.38	0.861	1	2back	Block4	2back/STIM_027.jpg
2277.731	0.76	1	2back	Block4	2back/STIM_027.jpg
2281.103	0.631	1	2back	Block4	2back/STIM_027.jpg
2285.582	0.724	1	2back	Block4	2back/STIM_028.jpg
2289.073	0.698	1	2back	Block4	2back/STIM_028.jpg
2291.78	0.772	1	2back	Block4	2back/STIM_028.jpg
2295.787	0.742	1	2back	Block4	2back/STIM_029.jpg
2298.751	0.414	1	2back	Block4	2back/STIM_029.jpg
2302.866	0.508	1	2back	Block4	2back/STIM_029.jpg
2306.533	0.713	1	2back	Block4	2back/STIM_030.jpg
2310.948	0.898	1	2back	Block4	2back/STIM_030.jpg
2314.733	0.714	1	2back	Block4	2back/STIM_030.jpg
2319.361	0.693	1	2back	Block4	2back/STIM_031.jpg
2322.217	0.481	1	2back	Block4	2back/STIM_031.jpg
2326.655	0.862	1	2back	Block4	2back/STIM_031.jpg
2330.272	0.421	1	2back	Block4	2back/STIM_032.jpg
2333.31	0.83	1	2back	Block4	2back/STIM_032.jpg
2338.109	0.633	1	2back	Block4	2back/STIM_032.jpg
2341.74	0.89	0	2back	Block4	2back/STIM_033.jpg
2346.159	0.879	1	2back	Block4	2back/STIM_033.jpg
2349.188	0.85	1	2back	Block4	2back/STIM_033.jpg
2353.379	0.602	1	2back	Block4	2back/STIM_034.jpg
2356.844	0.668	1	2back	Block4	2back/STIM_034.jpg
2360.324	0.705	0	2back	Block4	2back/STIM_034.jpg
2363.169	0.685	1	2back	Block4	2back/STIM_035.jpg
2367.31	0.653	1	2back	Block4	2back/STIM_035.jpg
2370.391	0.664	1	2back	Block4	2back/STIM_035.jpg
2373.674	0.669	1	2back	Block4	2back/STIM_036.jpg
2376.39	0.514	1	2back	Block4	2back/STIM_036.jpg
2380.65	0.751	1	2back	Block4	2back/STIM_036.jpg
2383.587	0.486	1	2back	Block4	2back/STIM_037.jpg
2387.159	0.399	1	2back	Block4	2back/STIM_037.jpg
2390.256	0.524	1	2back	Block4	2back/STIM_037.jpg
2394.152	0.774	0	2back	Block4	2back/STIM_038.jpg
2398.585	0.508	1	2back	Block4	2back/STIM_038.jpg
2401.351	0.821	1	2back	Block4	2back/STIM_038.jpg
2404.501	0.869	1	2back	Block4	2back/STIM_039.jpg
2408.871	0.859	1	2back	Block4	2back/STIM_039.jpg
2412.47	0.599	0	2back	Block4	2back/STIM_039.jpg
2416.664	0.511	1	0back	Block4	0back/STIM_000.jpg
2419.357	0.495	1	0back	Block4	0back/STIM_000.jpg
2422.716	0.667	1	0back	Block4	0back/STIM_000.jpg
2426.002	0.461	1	0back	Block4	0back/STIM_001.jpg
2429.8	0.46	1	0back	Block4	0back/STIM_001.jpg
2432.699	0.693	1	0back	Block4	0back/STIM_001.jpg
2436.171	0.645	0	0back	Block4	0back/STIM_002.jpg
2439.311	0.673	0	0back	Block4	0back/STIM_002.jpg
2442.26	0.587	1	0back	Block4	0back/STIM_002.jpg
2446.126	0.456	1	0back	Block4	0back/STIM_003.jpg
2450.093	0.548	1	0back	Block4	0back/STIM_003.jpg
2453.486	0.724	1	0back	Block4	0back/STIM_003.jpg
2456.842	0.588	1	0back	Block4	0back/STIM_004.jpg
2459.689	0.441	1	0back	Block4	0back/STIM_004.jpg
2462.363	0.528	0	0back	Block4	0back/STIM_004.jpg
2465.337	0.583	1	0back	Block4	0back/STIM_005.jpg
2469.847	0.638	0	0back	Block4	0back/STIM_005.jpg
2472.635	0.372	1	0back	Block4	0back/STIM_005.jpg
2475.298	0.539	1	0back	Block4	0back/STIM_006.jpg
2477.84	0.452	1	0back	Block4	0back/STIM_006.jpg
2480.436	0.419	1	0back	Block4	0back/STIM_006.jpg
2483.502	0.469	0	0back	Block4	0back/STIM_007.jpg
2487.307	0.547	0	0back	Block4	0back/STIM_007.jpg
2490.266	0.534	1	0back	Block4	0back/STIM_007.jpg
2492.905	0.398	0	0back	Block4	0back/STIM_008.jpg
2495.415	0.658	1	0back	Block4	0back/STIM_008.jpg
2498.223	0.461	0	0back	Block4	0back/STIM_008.jpg
2501.714	0.496	1	0back	Block4	0back/STIM_009.jpg
2504.594	0.372	0	0back	Block4	0back/STIM_009.jpg
2508.095	0.507	0	0back	Block4	0back/STIM_009.jpg
2511.438	0.575	1	0back	Block4	0back/STIM_010.jpg
2514.772	0.374	1	0back	Block4	0back/STIM_010.jpg
2519.081	0.71	1	0back	Block4	0back/STIM_010.jpg
2522.613	0.594	1	0back	Block4	0back/STIM_011.jpg
2526.628	0.476	1	0back	Block4	0back/STIM_011.jpg
2530.139	0.642	0	0back	Block4	0back/STIM_011.jpg
2533.119	0.624	1	0back	Block4	0back/STIM_012.jpg
2537.382	0.68	1	0back	Block4	0back/STIM_012.jpg
2541.975	0.541	0	0back	Block4	0back/STIM_012.jpg
2545.69	0.639	1	0back	Block4	0back/STIM_013.jpg
2549.742	0.661	0	0back	Block4	0back/STIM_013.jpg
2553.072	0.489	0	0back	Block4	0back/STIM_013.jpg
2557.415	0.486	1	0back	Block4	0back/STIM_014.jpg
2560.181	0.69	1	0back	Block4	0back/STIM_014.jpg
2563.317	0.659	1	0back	Block4	0back/STIM_014.jpg
2567.902	0.487	1	0back	Block4	0back/STIM_015.jpg
2571.883	0.484	1	0back	Block4	0back/STIM_015.jpg
2574.779	0.424	1	0back	Block4	0back/STIM_015.jpg
2577.91	0.434	1	0back	Block4	0back/STIM_016.jpg
2581.331	0.478	1	0back	Block4	0back/STIM_016.jpg
2584.87	0.374	1	0back	Block4	0back/STIM_016.jpg
2587.453	0.421	0	0back	Block4	0back/STIM_017.jpg
2591.386	0.486	0	0back	Block4	0back/STIM_017.jpg
2594.892	0.368	1	0back	Block4	0back/STIM_017.jpg
2598.011	0.416	1	0back	Block4	0back/STIM_018.jpg
2602.317	0.572	1	0back	Block4	0back/STIM_018.jpg
2605.967	0.664	0	0back	Block4	0back/STIM_018.jpg
2609.64	0.412	1	0back	Block4	0back/STIM_019.jpg
2613.824	0.485	1	0back	Block4	0back/STIM_019.jpg
2616.419	0.526	1	0back	Block4	0back/STIM_019.jpg
