onset	duration	response_time_ms	trial_type	learning_stage	stimulus	response_port
0.0	1.018	1018.4	2back	Block1	2back/STIM_000.jpg	99
4.808	0.852	851.7	2back	Block1	2back/STIM_000.jpg	100
8.787	0.68	679.5	2back	Block1	2back/STIM_000.jpg	100
11.689	0.707	707.2	2back	Block1	2back/STIM_001.jpg	99
16.148	0.857	857.3	2back	Block1	2back/STIM_001.jpg	100
19.411	0.562	562.4	2back	Block1	2back/STIM_001.jpg	99
23.261	0.962	962.0	2back	Block1	2back/STIM_002.jpg	100
26.556	0.709	708.9	2back	Block1	2back/STIM_002.jpg	100
30.071	0.554	553.5	2back	Block1	2back/STIM_002.jpg	99
34.061	1.117	1117.0	2back	Block1	2back/STIM_003.jpg	100
37.935	0.642	641.9	2back	Block1	2back/STIM_003.jpg	99
41.083	0.72	720.2	2back	Block1	2back/STIM_003.jpg	99
44.258	0.951	951.2	2back	Block1	2back/STIM_004.jpg	100
48.294	1.079	1078.6	2back	Block1	2back/STIM_004.jpg	99
52.28	0.968	968.4	2back	Block1	2back/STIM_004.jpg	100
56.224	0.767	767.0	2back	Block1	2back/STIM_005.jpg	100
60.117	0.476	475.8	2back	Block1	2back/STIM_005.jpg	100
63.248	0.778	778.0	2back	Block1	2back/STIM_005.jpg	100
67.964	0.916	915.5	2back	Block1	2back/STIM_006.jpg	100
71.789	1.063	1063.4	2back	Block1	2back/STIM_006.jpg	99
76.19	0.576	576.1	2back	Block1	2back/STIM_006.jpg	99
79.29	0.571	571.1	2back	Block1	2back/STIM_007.jpg	99
82.789	0.535	534.6	2back	Block1	2back/STIM_007.jpg	99
85.571	0.45	449.8	2back	Block1	2back/STIM_007.jpg	99
88.792	0.98	979.6	2back	Block1	2back/STIM_008.jpg	100
93.474	0.652	652.0	2back	Block1	2back/STIM_008.jpg	100
97.862	0.631	631.3	2back	Block1	2back/STIM_008.jpg	100
101.868	0.675	674.6	2back	Block1	2back/STIM_009.jpg	100
105.376	0.988	987.9	2back	Block1	2back/STIM_009.jpg	99
108.959	0.529	528.8	2back	Block1	2back/STIM_009.jpg	99
112.963	0.898	898.5	2back	Block1	2back/STIM_010.jpg	99
116.657	0.605	604.6	2back	Block1	2back/STIM_010.jpg	100
119.973	0.884	883.9	2back	Block1	2back/STIM_010.jpg	99
124.441	1.0	999.6	2back	Block1	2back/STIM_011.jpg	100
128.335	0.908	907.7	2back	Block1	2back/STIM_011.jpg	100
132.161	0.886	886.5	2back	Block1	2back/STIM_011.jpg	99
136.289	0.983	982.6	2back	Block1	2back/STIM_012.jpg	99
141.138	0.897	896.9	2back	Block1	2back/STIM_012.jpg	100
145.357	0.631	631.0	2back	Block1	2back/STIM_012.jpg	100
149.675	0.922	921.8	2back	Block1	2back/STIM_013.jpg	99
152.625	0.657	657.4	2back	Block1	2back/STIM_013.jpg	100
157.02	0.933	933.1	2back	Block1	2back/STIM_013.jpg	100
160.261	0.969	968.8	2back	Block1	2back/STIM_014.jpg	99
164.231	0.585	584.6	2back	Block1	2back/STIM_014.jpg	100
167.029	0.587	587.1	2back	Block1	2back/STIM_014.jpg	99
170.319	0.819	819.0	2back	Block1	2back/STIM_015.jpg	99
173.206	0.576	575.6	2back	Block1	2back/STIM_015.jpg	100
177.309	0.642	641.5	2back	Block1	2back/STIM_015.jpg	99
181.846	0.654	653.5	2back	Block1	2back/STIM_016.jpg	99
185.2	0.83	830.5	2back	Block1	2back/STIM_016.jpg	99
189.018	0.839	839.2	2back	Block1	2back/STIM_016.jpg	99
193.486	1.03	1029.6	2back	Block1	2back/STIM_017.jpg	99
196.738	0.623	622.9	2back	Block1	2back/STIM_017.jpg	100
200.133	0.642	642.3	2back	Block1	2back/STIM_017.jpg	99
204.084	0.682	682.2	2back	Block1	2back/STIM_018.jpg	100
208.564	0.734	734.4	2back	Block1	2back/STIM_018.jpg	100
212.279	0.64	639.6	2back	Block1	2back/STIM_018.jpg	100
215.566	0.592	592.1	2back	Block1	2back/STIM_019.jpg	99
219.253	0.867	867.2	2back	Block1	2back/STIM_019.jpg	100
224.027	0.498	497.5	2back	Block1	2back/STIM_019.jpg	99
228.407	0.812	812.0	2back	Block1	2back/STIM_020.jpg	100
232.613	0.557	557.2	2back	Block1	2back/STIM_020.jpg	100
236.976	0.478	477.5	2back	Block1	2back/STIM_020.jpg	100
239.522	0.733	733.0	2back	Block1	2back/STIM_021.jpg	100
244.077	0.825	824.7	2back	Block1	2back/STIM_021.jpg	99
248.001	0.836	836.0	2back	Block1	2back/STIM_021.jpg	99
251.212	0.978	978.1	2back	Block1	2back/STIM_022.jpg	100
254.245	0.933	933.4	2back	Block1	2back/STIM_022.jpg	100
258.255	0.479	478.9	2back	Block1	2back/STIM_022.jpg	100
260.879	0.722	722.0	2back	Block1	2back/STIM_023.jpg	99
263.811	0.992	992.1	2back	Block1	2back/STIM_023.jpg	100
267.963	1.028	1028.2	2back	Block1	2back/STIM_023.jpg	100
272.382	0.745	744.8	2back	Block1	2back/STIM_024.jpg	99
275.727	0.736	736.1	2back	Block1	2back/STIM_024.jpg	99
279.426	1.026	1025.5	2back	Block1	2back/STIM_024.jpg	100
282.614	0.509	508.7	2back	Block1	2back/STIM_025.jpg	100
285.471	0.614	613.5	2back	Block1	2back/STIM_025.jpg	100
289.827	0.835	835.1	2back	Block1	2back/STIM_025.jpg	100
294.14	1.066	1065.5	2back	Block1	2back/STIM_026.jpg	100
297.76	0.88	879.7	2back	Block1	2back/STIM_026.jpg	100
301.338	1.032	1031.5	2back	Block1	2back/STIM_026.jpg	100
304.905	1.095	1094.8	2back	Block1	2back/STIM_027.jpg	99
309.549	0.968	968.1	2back	Block1	2back/STIM_027.jpg	99
314.351	0.777	776.6	2back	Block1	2back/STIM_027.jpg	99
319.04	0.638	638.4	2back	Block1	2back/STIM_028.jpg	100
322.102	0.488	487.7	2back	Block1	2back/STIM_028.jpg	100
325.901	0.942	941.8	2back	Block1	2back/STIM_028.jpg	99
330.263	0.866	866.3	2back	Block1	2back/STIM_029.jpg	99
334.794	0.499	499.1	2back	Block1	2back/STIM_029.jpg	100
338.245	0.502	502.1	2back	Block1	2back/STIM_029.jpg	100
342.419	1.132	1132.0	2back	Block1	2back/STIM_030.jpg	100
346.973	1.095	1095.0	2back	Block1	2back/STIM_030.jpg	100
350.731	1.043	1042.9	2back	Block1	2back/STIM_030.jpg	100
354.261	0.994	993.5	2back	Block1	2back/STIM_031.jpg	100
358.561	0.656	656.4	2back	Block1	2back/STIM_031.jpg	99
362.142	0.957	956.9	2back	Block1	2back/STIM_031.jpg	100
366.129	0.503	503.2	2back	Block1	2back/STIM_032.jpg	100
369.584	0.758	758.4	2back	Block1	2back/STIM_032.jpg	100
373.615	0.635	635.2	2back	Block1	2back/STIM_032.jpg	100
377.763	0.581	580.8	2back	Block1	2back/STIM_033.jpg	99
380.914	0.562	562.1	2back	Block1	2back/STIM_033.jpg	100
384.754	0.835	835.1	2back	Block1	2back/STIM_033.jpg	99
387.698	1.005	1005.0	2back	Block1	2back/STIM_034.jpg	99
391.979	0.966	966.5	2back	Block1	2back/STIM_034.jpg	99
395.808	0.546	546.0	2back	Block1	2back/STIM_034.jpg	99
399.69	1.146	1146.4	2back	Block1	2back/STIM_035.jpg	100
403.513	0.978	977.7	2back	Block1	2back/STIM_035.jpg	99
408.327	0.949	948.6	2back	Block1	2back/STIM_035.jpg	99
411.46	0.569	569.1	2back	Block1	2back/STIM_036.jpg	99
414.477	0.989	989.4	2back	Block1	2back/STIM_036.jpg	99
418.525	0.465	465.4	2back	Block1	2back/STIM_036.jpg	99
422.778	0.766	766.0	2back	Block1	2back/STIM_037.jpg	99
427.226	0.992	992.3	2back	Block1	2back/STIM_037.jpg	100
430.94	0.61	609.5	2back	Block1	2back/STIM_037.jpg	100
434.509	1.161	1161.1	2back	Block1	2back/STIM_038.jpg	99
437.749	1.003	1003.2	2back	Block1	2back/STIM_038.jpg	100
442.123	0.821	821.4	2back	Block1	2back/STIM_038.jpg	100
445.27	0.611	611.4	2back	Block1	2back/STIM_039.jpg	100
449.661	0.973	973.3	2back	Block1	2back/STIM_039.jpg	99
454.475	0.624	623.7	2back	Block1	2back/STIM_039.jpg	99
457.712	0.487	487.3	0back	Block1	0back/STIM_000.jpg	99
461.72	0.502	502.2	0back	Block1	0back/STIM_000.jpg	100
465.911	0.355	355.2	0back	Block1	0back/STIM_000.jpg	100
469.62	0.624	623.7	0back	Block1	0back/STIM_001.jpg	99
474.168	0.354	354.4	0back	Block1	0back/STIM_001.jpg	99
478.417	0.542	541.5	0back	Block1	0back/STIM_001.jpg	99
480.998	0.514	514.5	0back	Block1	0back/STIM_002.jpg	99
484.248	0.642	642.3	0back	Block1	0back/STIM_002.jpg	99
487.655	0.423	423.2	0back	Block1	0back/STIM_002.jpg	99
490.753	0.628	628.1	0back	Block1	0back/STIM_003.jpg	99
493.658	0.65	650.0	0back	Block1	0back/STIM_003.jpg	99
496.574	0.421	420.8	0back	Block1	0back/STIM_003.jpg	99
499.564	0.513	513.1	0back	Block1	0back/STIM_004.jpg	99
502.486	0.425	425.4	0back	Block1	0back/STIM_004.jpg	99
505.902	0.419	419.2	0back	Block1	0back/STIM_004.jpg	100
510.175	0.477	477.4	0back	Block1	0back/STIM_005.jpg	99
514.382	0.394	393.6	0back	Block1	0back/STIM_005.jpg	100
518.563	0.419	419.0	0back	Block1	0back/STIM_005.jpg	99
522.376	0.539	538.6	0back	Block1	0back/STIM_006.jpg	99
525.906	0.379	378.9	0back	Block1	0back/STIM_006.jpg	99
530.038	0.62	620.0	0back	Block1	0back/STIM_006.jpg	100
532.915	0.639	639.3	0back	Block1	0back/STIM_007.jpg	100
536.898	0.507	507.0	0back	Block1	0back/STIM_007.jpg	99
539.569	0.384	384.1	0back	Block1	0back/STIM_007.jpg	100
543.167	0.566	566.0	0back	Block1	0back/STIM_008.jpg	100
546.206	0.389	388.8	0back	Block1	0back/STIM_008.jpg	100
549.77	0.54	539.6	0back	Block1	0back/STIM_008.jpg	99
554.26	0.649	649.4	0back	Block1	0back/STIM_009.jpg	99
557.352	0.572	571.6	0back	Block1	0back/STIM_009.jpg	99
560.518	0.653	653.1	0back	Block1	0back/STIM_009.jpg	99
564.144	0.468	467.6	0back	Block1	0back/STIM_010.jpg	99
566.958	0.574	573.7	0back	Block1	0back/STIM_010.jpg	100
570.321	0.481	480.8	0back	Block1	0back/STIM_010.jpg	100
572.942	0.498	498.1	0back	Block1	0back/STIM_011.jpg	99
576.431	0.461	461.2	0back	Block1	0back/STIM_011.jpg	99
579.465	0.45	449.9	0back	Block1	0back/STIM_011.jpg	100
582.324	0.55	549.9	0back	Block1	0back/STIM_012.jpg	100
585.18	0.426	426.4	0back	Block1	0back/STIM_012.jpg	99
589.582	0.567	566.8	0back	Block1	0back/STIM_012.jpg	99
594.091	0.44	439.9	0back	Block1	0back/STIM_013.jpg	100
597.452	0.421	421.2	0back	Block1	0back/STIM_013.jpg	99
599.899	0.58	579.7	0back	Block1	0back/STIM_013.jpg	100
604.29	0.46	460.2	0back	Block1	0back/STIM_014.jpg	100
608.159	0.434	434.2	0back	Block1	0back/STIM_014.jpg	100
612.291	0.662	661.5	0back	Block1	0back/STIM_014.jpg	99
616.208	0.527	526.6	0back	Block1	0back/STIM_015.jpg	100
619.655	0.414	414.4	0back	Block1	0back/STIM_015.jpg	100
622.583	0.344	344.1	0back	Block1	0back/STIM_015.jpg	99
626.209	0.471	470.9	0back	Block1	0back/STIM_016.jpg	100
630.06	0.391	391.3	0back	Block1	0back/STIM_016.jpg	99
632.911	0.434	433.5	0back	Block1	0back/STIM_016.jpg	99
636.373	0.51	510.2	0back	Block1	0back/STIM_017.jpg	100
639.704	0.551	551.1	0back	Block1	0back/STIM_017.jpg	99
642.654	0.414	414.1	0back	Block1	0back/STIM_017.jpg	100
645.239	0.634	634.2	0back	Block1	0back/STIM_018.jpg	99
648.008	0.463	462.9	0back	Block1	0back/STIM_018.jpg	99
650.684	0.422	422.3	0back	Block1	0back/STIM_018.jpg	99
654.297	0.578	578.0	0back	Block1	0back/STIM_019.jpg	99
657.281	0.486	486.4	0back	Block1	0back/STIM_019.jpg	99
661.185	0.375	375.4	0back	Block1	0back/STIM_019.jpg	99
665.276	0.679	678.7	2back	Block2	2back/STIM_000.jpg	100
669.105	0.93	930.5	2back	Block2	2back/STIM_000.jpg	100
672.685	0.376	375.7	2back	Block2	2back/STIM_000.jpg	99
675.089	0.846	846.4	2back	Block2	2back/STIM_001.jpg	99
678.412	0.639	639.0	2back	Block2	2back/STIM_001.jpg	99
681.905	0.564	564.1	2back	Block2	2back/STIM_001.jpg	100
685.275	0.682	681.9	2back	Block2	2back/STIM_002.jpg	100
689.493	0.571	570.8	2back	Block2	2back/STIM_002.jpg	99
692.644	0.626	625.7	2back	Block2	2back/STIM_002.jpg	99
696.452	0.694	693.6	2back	Block2	2back/STIM_003.jpg	99
700.961	0.439	439.4	2back	Block2	2back/STIM_003.jpg	99
705.277	0.549	549.1	2back	Block2	2back/STIM_003.jpg	99
708.541	0.834	834.4	2back	Block2	2back/STIM_004.jpg	99
713.135	0.813	812.6	2back	Block2	2back/STIM_004.jpg	100
717.544	0.42	420.5	2back	Block2	2back/STIM_004.jpg	100
720.323	0.426	426.1	2back	Block2	2back/STIM_005.jpg	99
724.026	0.839	838.8	2back	Block2	2back/STIM_005.jpg	100
727.542	0.498	497.7	2back	Block2	2back/STIM_005.jpg	100
731.058	0.611	611.2	2back	Block2	2back/STIM_006.jpg	100
735.272	0.564	564.2	2back	Block2	2back/STIM_006.jpg	99
738.66	0.683	682.9	2back	Block2	2back/STIM_006.jpg	100
742.641	0.939	938.9	2back	Block2	2back/STIM_007.jpg	100
747.567	0.746	745.6	2back	Block2	2back/STIM_007.jpg	100
750.805	0.797	797.4	2back	Block2	2back/STIM_007.jpg	99
754.419	0.444	443.7	2back	Block2	2back/STIM_008.jpg	100
758.19	0.716	715.8	2back	Block2	2back/STIM_008.jpg	99
762.362	0.736	735.9	2back	Block2	2back/STIM_008.jpg	99
766.258	0.442	442.1	2back	Block2	2back/STIM_009.jpg	99
769.486	0.725	724.7	2back	Block2	2back/STIM_009.jpg	100
772.225	0.543	542.6	2back	Block2	2back/STIM_009.jpg	100
775.869	0.769	768.8	2back	Block2	2back/STIM_010.jpg	100
779.09	0.539	539.0	2back	Block2	2back/STIM_010.jpg	99
783.543	0.562	562.0	2back	Block2	2back/STIM_010.jpg	99
787.468	0.442	441.6	2back	Block2	2back/STIM_011.jpg	100
790.161	0.83	830.4	2back	Block2	2back/STIM_011.jpg	100
794.915	0.869	869.0	2back	Block2	2back/STIM_011.jpg	100
799.17	0.826	826.3	2back	Block2	2back/STIM_012.jpg	100
803.741	0.826	826.3	2back	Block2	2back/STIM_012.jpg	100
808.407	0.57	569.5	2back	Block2	2back/STIM_012.jpg	99
812.618	0.442	442.0	2back	Block2	2back/STIM_013.jpg	100
815.206	0.867	866.9	2back	Block2	2back/STIM_013.jpg	99
818.581	0.708	708.5	2back	Block2	2back/STIM_013.jpg	99
821.297	0.676	676.4	2back	Block2	2back/STIM_014.jpg	99
824.31	0.751	750.8	2back	Block2	2back/STIM_014.jpg	99
827.599	0.646	646.1	2back	Block2	2back/STIM_014.jpg	100
831.508	0.523	522.8	2back	Block2	2back/STIM_015.jpg	99
835.575	0.429	429.0	2back	Block2	2back/STIM_015.jpg	100
839.708	0.595	595.3	2back	Block2	2back/STIM_015.jpg	99
842.509	0.759	759.4	2back	Block2	2back/STIM_016.jpg	100
845.759	0.659	658.7	2back	Block2	2back/STIM_016.jpg	99
850.204	0.45	449.9	2back	Block2	2back/STIM_016.jpg	99
853.62	0.531	530.9	2back	Block2	2back/STIM_017.jpg	99
856.187	0.423	422.8	2back	Block2	2back/STIM_017.jpg	100
860.118	0.691	691.2	2back	Block2	2back/STIM_017.jpg	100
863.328	0.69	690.4	2back	Block2	2back/STIM_018.jpg	99
866.092	0.471	470.9	2back	Block2	2back/STIM_018.jpg	100
870.168	0.621	621.1	2back	Block2	2back/STIM_018.jpg	100
873.19	0.695	694.6	2back	Block2	2back/STIM_019.jpg	100
877.248	0.859	858.6	2back	Block2	2back/STIM_019.jpg	100
881.655	0.546	545.5	2back	Block2	2back/STIM_019.jpg	100
886.125	0.432	431.9	2back	Block2	2back/STIM_020.jpg	99
888.763	0.919	918.9	2back	Block2	2back/STIM_020.jpg	100
892.715	0.664	664.3	2back	Block2	2back/STIM_020.jpg	100
895.55	0.551	550.7	2back	Block2	2back/STIM_021.jpg	99
898.471	0.573	573.0	2back	Block2	2back/STIM_021.jpg	99
902.045	0.739	738.6	2back	Block2	2back/STIM_021.jpg	100
906.703	0.866	866.5	2back	Block2	2back/STIM_022.jpg	99
910.862	0.472	471.6	2back	Block2	2back/STIM_022.jpg	99
913.731	0.764	764.5	2back	Block2	2back/STIM_022.jpg	99
917.052	0.521	520.6	2back	Block2	2back/STIM_023.jpg	99
921.42	0.404	404.5	2back	Block2	2back/STIM_023.jpg	100
925.384	0.441	441.3	2back	Block2	2back/STIM_023.jpg	100
928.214	0.604	603.8	2back	Block2	2back/STIM_024.jpg	100
930.942	0.92	920.3	2back	Block2	2back/STIM_024.jpg	99
935.422	0.694	693.5	2back	Block2	2back/STIM_024.jpg	99
938.859	0.593	593.0	2back	Block2	2back/STIM_025.jpg	100
942.49	0.527	527.1	2back	Block2	2back/STIM_025.jpg	100
945.817	0.659	659.1	2back	Block2	2back/STIM_025.jpg	100
949.463	0.712	712.1	2back	Block2	2back/STIM_026.jpg	99
952.551	0.894	893.5	2back	Block2	2back/STIM_026.jpg	100
957.144	0.489	489.2	2back	Block2	2back/STIM_026.jpg	100
960.31	0.748	747.7	2back	Block2	2back/STIM_027.jpg	99
963.9	0.712	712.3	2back	Block2	2back/STIM_027.jpg	100
967.909	0.598	597.5	2back	Block2	2back/STIM_027.jpg	100
972.367	0.81	810.0	2back	Block2	2back/STIM_028.jpg	100
976.995	0.766	765.8	2back	Block2	2back/STIM_028.jpg	99
981.509	0.581	580.6	2back	Block2	2back/STIM_028.jpg	99
985.772	0.745	745.3	2back	Block2	2back/STIM_029.jpg	99
989.319	0.894	893.6	2back	Block2	2back/STIM_029.jpg	100
993.14	0.59	590.2	2back	Block2	2back/STIM_029.jpg	99
997.496	0.833	832.8	2back	Block2	2back/STIM_030.jpg	99
1001.259	0.417	417.3	2back	Block2	2back/STIM_030.jpg	99
1004.224	0.593	593.0	2back	Block2	2back/STIM_030.jpg	99
1008.521	0.562	561.9	2back	Block2	2back/STIM_031.jpg	100
1011.747	0.453	453.1	2back	Block2	2back/STIM_031.jpg	100
1014.487	0.416	415.8	2back	Block2	2back/STIM_031.jpg	100
1017.05	0.939	939.1	2back	Block2	2back/STIM_032.jpg	99
1021.954	0.421	420.8	2back	Block2	2back/STIM_032.jpg	99
1025.67	0.514	513.7	2back	Block2	2back/STIM_032.jpg	99
1029.189	0.894	893.7	2back	Block2	2back/STIM_033.jpg	100
1032.262	0.581	581.3	2back	Block2	2back/STIM_033.jpg	100
1035.757	0.683	682.6	2back	Block2	2back/STIM_033.jpg	99
1040.207	0.795	795.0	2back	Block2	2back/STIM_034.jpg	100
1044.301	0.9	900.4	2back	Block2	2back/STIM_034.jpg	99
1047.266	0.854	853.5	2back	Block2	2back/STIM_034.jpg	100
1050.957	0.826	825.9	2back	Block2	2back/STIM_035.jpg	100
1054.42	0.4	400.5	2back	Block2	2back/STIM_035.jpg	99
1057.278	0.788	787.8	2back	Block2	2back/STIM_035.jpg	100
1061.016	0.733	733.2	2back	Block2	2back/STIM_036.jpg	100
1065.056	0.813	812.6	2back	Block2	2back/STIM_036.jpg	100
1069.842	0.389	388.9	2back	Block2	2back/STIM_036.jpg	100
1072.568	0.79	789.9	2back	Block2	2back/STIM_037.jpg	99
1076.51	0.584	584.5	2back	Block2	2back/STIM_037.jpg	100
1079.801	0.49	490.2	2back	Block2	2back/STIM_037.jpg	100
1083.319	0.802	801.5	2back	Block2	2back/STIM_038.jpg	100
1088.028	0.743	743.0	2back	Block2	2back/STIM_038.jpg	100
1091.36	0.662	662.2	2back	Block2	2back/STIM_038.jpg	100
1094.107	0.621	621.1	2back	Block2	2back/STIM_039.jpg	99
1097.109	0.708	708.1	2back	Block2	2back/STIM_039.jpg	99
1101.673	0.854	853.8	2back	Block2	2back/STIM_039.jpg	100
1105.808	0.434	433.9	0back	Block2	0back/STIM_000.jpg	100
1109.48	0.447	446.7	0back	Block2	0back/STIM_000.jpg	99
1112.454	0.606	606.5	0back	Block2	0back/STIM_000.jpg	100
1116.514	0.449	448.6	0back	Block2	0back/STIM_001.jpg	100
1118.981	0.502	502.1	0back	Block2	0back/STIM_001.jpg	99
1122.703	0.34	340.4	0back	Block2	0back/STIM_001.jpg	99
1125.131	0.397	396.9	0back	Block2	0back/STIM_002.jpg	100
1129.354	0.386	385.5	0back	Block2	0back/STIM_002.jpg	99
1132.072	0.584	584.3	0back	Block2	0back/STIM_002.jpg	99
1135.764	0.472	472.5	0back	Block2	0back/STIM_003.jpg	100
1139.696	0.524	523.6	0back	Block2	0back/STIM_003.jpg	99
1142.485	0.372	372.1	0back	Block2	0back/STIM_003.jpg	99
1145.712	0.534	534.3	0back	Block2	0back/STIM_004.jpg	100
1149.124	0.437	436.6	0back	Block2	0back/STIM_004.jpg	99
1151.722	0.626	625.7	0back	Block2	0back/STIM_004.jpg	100
1155.058	0.631	631.2	0back	Block2	0back/STIM_005.jpg	100
1158.023	0.541	540.6	0back	Block2	0back/STIM_005.jpg	99
1161.546	0.346	345.7	0back	Block2	0back/STIM_005.jpg	100
1165.217	0.626	625.7	0back	Block2	0back/STIM_006.jpg	99
1169.479	0.586	586.3	0back	Block2	0back/STIM_006.jpg	99
1173.524	0.512	512.5	0back	Block2	0back/STIM_006.jpg	99
1176.284	0.664	663.8	0back	Block2	0back/STIM_007.jpg	99
1180.567	0.35	350.1	0back	Block2	0back/STIM_007.jpg	99
1183.288	0.413	413.2	0back	Block2	0back/STIM_007.jpg	100
1187.268	0.525	525.1	0back	Block2	0back/STIM_008.jpg	100
1190.526	0.491	491.2	0back	Block2	0back/STIM_008.jpg	100
1193.989	0.457	456.7	0back	Block2	0back/STIM_008.jpg	100
1197.311	0.388	388.2	0back	Block2	0back/STIM_009.jpg	100
1200.21	0.616	615.5	0back	Block2	0back/STIM_009.jpg	99
1204.229	0.489	489.2	0back	Block2	0back/STIM_009.jpg	99
1207.689	0.578	577.5	0back	Block2	0back/STIM_010.jpg	100
1211.687	0.566	565.8	0back	Block2	0back/STIM_010.jpg	99
1214.979	0.527	526.9	0back	Block2	0back/STIM_010.jpg	100
1219.203	0.388	388.4	0back	Block2	0back/STIM_011.jpg	99
1222.736	0.366	365.8	0back	Block2	0back/STIM_011.jpg	100
1225.614	0.408	407.7	0back	Block2	0back/STIM_011.jpg	100
1228.262	0.4	400.0	0back	Block2	0back/STIM_012.jpg	100
1230.748	0.437	437.3	0back	Block2	0back/STIM_012.jpg	100
1234.871	0.633	633.3	0back	Block2	0back/STIM_012.jpg	99
1239.071	0.42	420.0	0back	Block2	0back/STIM_013.jpg	100
1242.628	0.403	403.0	0back	Block2	0back/STIM_013.jpg	100
1245.447	0.551	550.8	0back	Block2	0back/STIM_013.jpg	99
1249.843	0.637	636.8	0back	Block2	0back/STIM_014.jpg	99
1254.194	0.602	601.9	0back	Block2	0back/STIM_014.jpg	100
1257.053	0.579	579.3	0back	Block2	0back/STIM_014.jpg	99
1260.241	0.38	379.8	0back	Block2	0back/STIM_015.jpg	100
1263.874	0.644	644.5	0back	Block2	0back/STIM_015.jpg	99
1268.326	0.434	434.2	0back	Block2	0back/STIM_015.jpg	99
1272.723	0.424	424.4	0back	Block2	0back/STIM_016.jpg	99
1275.397	0.4	399.9	0back	Block2	0back/STIM_016.jpg	99
1278.492	0.576	576.5	0back	Block2	0back/STIM_016.jpg	99
1281.201	0.575	575.1	0back	Block2	0back/STIM_017.jpg	99
1284.367	0.424	424.0	0back	Block2	0back/STIM_017.jpg	100
1287.162	0.425	424.8	0back	Block2	0back/STIM_017.jpg	100
1291.474	0.335	335.1	0back	Block2	0back/STIM_018.jpg	100
1294.85	0.663	663.2	0back	Block2	0back/STIM_018.jpg	99
1298.518	0.551	550.7	0back	Block2	0back/STIM_018.jpg	99
1302.91	0.546	546.5	0back	Block2	0back/STIM_019.jpg	99
1306.732	0.536	536.2	0back	Block2	0back/STIM_019.jpg	100
1310.06	0.431	431.1	0back	Block2	0back/STIM_019.jpg	100
1313.304	0.356	356.0	2back	Block3	2back/STIM_000.jpg	100
1317.559	0.646	646.4	2back	Block3	2back/STIM_000.jpg	100
1320.836	0.421	420.8	2back	Block3	2back/STIM_000.jpg	100
1323.459	0.508	508.3	2back	Block3	2back/STIM_001.jpg	99
1327.636	0.583	583.2	2back	Block3	2back/STIM_001.jpg	100
1332.037	0.786	786.2	2back	Block3	2back/STIM_001.jpg	99
1336.578	0.361	361.3	2back	Block3	2back/STIM_002.jpg	99
1339.257	0.403	402.8	2back	Block3	2back/STIM_002.jpg	99
1342.813	0.568	567.6	2back	Block3	2back/STIM_002.jpg	99
1345.501	0.575	574.9	2back	Block3	2back/STIM_003.jpg	99
1349.451	0.412	412.5	2back	Block3	2back/STIM_003.jpg	100
1352.963	0.655	655.1	2back	Block3	2back/STIM_003.jpg	100
1355.905	0.633	633.4	2back	Block3	2back/STIM_004.jpg	99
1359.127	0.418	418.4	2back	Block3	2back/STIM_004.jpg	99
1362.914	0.531	531.2	2back	Block3	2back/STIM_004.jpg	100
1367.167	0.784	783.6	2back	Block3	2back/STIM_005.jpg	100
1370.333	0.717	717.0	2back	Block3	2back/STIM_005.jpg	100
1373.888	0.558	558.0	2back	Block3	2back/STIM_005.jpg	99
1376.9	0.813	813.4	2back	Block3	2back/STIM_006.jpg	100
1381.057	0.71	709.8	2back	Block3	2back/STIM_006.jpg	100
1385.377	0.643	642.8	2back	Block3	2back/STIM_006.jpg	99
1389.243	0.48	480.5	2back	Block3	2back/STIM_007.jpg	99
1391.761	0.365	365.2	2back	Block3	2back/STIM_007.jpg	99
1394.534	0.713	712.9	2back	Block3	2back/STIM_007.jpg	99
1399.188	0.375	374.8	2back	Block3	2back/STIM_008.jpg	99
1402.596	0.634	634.3	2back	Block3	2back/STIM_008.jpg	99
1406.164	0.401	401.0	2back	Block3	2back/STIM_008.jpg	99
1408.74	0.449	449.4	2back	Block3	2back/STIM_009.jpg	99
1412.105	0.721	720.6	2back	Block3	2back/STIM_009.jpg	100
1416.159	0.384	384.3	2back	Block3	2back/STIM_009.jpg	99
1420.113	0.524	524.1	2back	Block3	2back/STIM_010.jpg	100
1423.813	0.521	521.2	2back	Block3	2back/STIM_010.jpg	99
1426.38	0.758	757.7	2back	Block3	2back/STIM_010.jpg	99
1429.388	0.771	771.4	2back	Block3	2back/STIM_011.jpg	99
1433.296	0.751	751.2	2back	Block3	2back/STIM_011.jpg	100
1437.162	0.759	759.1	2back	Block3	2back/STIM_011.jpg	100
1441.293	0.606	606.3	2back	Block3	2back/STIM_012.jpg	100
1444.938	0.572	572.5	2back	Block3	2back/STIM_012.jpg	100
1448.36	0.657	657.4	2back	Block3	2back/STIM_012.jpg	99
1451.024	0.432	432.2	2back	Block3	2back/STIM_013.jpg	100
1453.494	0.532	532.2	2back	Block3	2back/STIM_013.jpg	99
1457.348	0.513	513.0	2back	Block3	2back/STIM_013.jpg	100
1459.995	0.588	588.3	2back	Block3	2back/STIM_014.jpg	99
1463.135	0.619	619.1	2back	Block3	2back/STIM_014.jpg	99
1467.739	0.81	810.5	2back	Block3	2back/STIM_014.jpg	99
1471.587	0.624	624.1	2back	Block3	2back/STIM_015.jpg	99
1474.747	0.732	732.1	2back	Block3	2back/STIM_015.jpg	99
1477.849	0.446	445.6	2back	Block3	2back/STIM_015.jpg	99
1480.417	0.723	722.7	2back	Block3	2back/STIM_016.jpg	99
1484.849	0.766	766.4	2back	Block3	2back/STIM_016.jpg	100
1488.9	0.662	662.3	2back	Block3	2back/STIM_016.jpg	100
1492.914	0.618	618.3	2back	Block3	2back/STIM_017.jpg	99
1497.075	0.354	354.4	2back	Block3	2back/STIM_017.jpg	99
1501.171	0.731	730.7	2back	Block3	2back/STIM_017.jpg	100
1505.489	0.614	614.5	2back	Block3	2back/STIM_018.jpg	99
1508.522	0.53	529.8	2back	Block3	2back/STIM_018.jpg	100
1512.692	0.674	673.7	2back	Block3	2back/STIM_018.jpg	99
1517.156	0.697	696.7	2back	Block3	2back/STIM_019.jpg	100
1521.845	0.694	693.5	2back	Block3	2back/STIM_019.jpg	99
1524.763	0.697	697.4	2back	Block3	2back/STIM_019.jpg	99
1527.662	0.779	779.4	2back	Block3	2back/STIM_020.jpg	99
1531.273	0.69	689.7	2back	Block3	2back/STIM_020.jpg	100
1534.646	0.482	482.1	2back	Block3	2back/STIM_020.jpg	99
1537.588	0.694	694.2	2back	Block3	2back/STIM_021.jpg	100
1541.33	0.414	414.3	2back	Block3	2back/STIM_021.jpg	100
1544.12	0.78	779.6	2back	Block3	2back/STIM_021.jpg	100
1547.342	0.374	374.4	2back	Block3	2back/STIM_022.jpg	100
1549.767	0.759	759.4	2back	Block3	2back/STIM_022.jpg	99
1552.874	0.419	419.4	2back	Block3	2back/STIM_022.jpg	99
1556.243	0.772	772.2	2back	Block3	2back/STIM_023.jpg	100
1559.115	0.378	377.5	2back	Block3	2back/STIM_023.jpg	100
1563.357	0.53	529.7	2back	Block3	2back/STIM_023.jpg	100
1566.298	0.509	509.3	2back	Block3	2back/STIM_024.jpg	99
1569.222	0.462	462.5	2back	Block3	2back/STIM_024.jpg	99
1573.213	0.581	580.8	2back	Block3	2back/STIM_024.jpg	99
1577.393	0.446	446.1	2back	Block3	2back/STIM_025.jpg	100
1580.401	0.496	495.9	2back	Block3	2back/STIM_025.jpg	99
1582.941	0.635	635.1	2back	Block3	2back/STIM_025.jpg	99
1586.592	0.37	370.5	2back	Block3	2back/STIM_026.jpg	99
1589.013	0.743	742.6	2back	Block3	2back/STIM_026.jpg	100
1592.499	0.7	699.9	2back	Block3	2back/STIM_026.jpg	100
1596.918	0.586	586.1	2back	Block3	2back/STIM_027.jpg	99
1599.789	0.694	694.0	2back	Block3	2back/STIM_027.jpg	100
1602.752	0.726	725.8	2back	Block3	2back/STIM_027.jpg	100
1607.151	0.729	729.2	2back	Block3	2back/STIM_028.jpg	100
1610.139	0.674	674.4	2back	Block3	2back/STIM_028.jpg	100
1613.11	0.752	752.4	2back	Block3	2back/STIM_028.jpg	100
1617.379	0.787	787.1	2back	Block3	2back/STIM_029.jpg	100
1620.658	0.362	362.2	2back	Block3	2back/STIM_029.jpg	100
1624.988	0.647	647.2	2back	Block3	2back/STIM_029.jpg	100
1628.458	0.496	495.8	2back	Block3	2back/STIM_030.jpg	99
1631.31	0.755	754.7	2back	Block3	2back/STIM_030.jpg	100
1635.034	0.545	545.3	2back	Block3	2back/STIM_030.jpg	99
1639.232	0.789	788.6	2back	Block3	2back/STIM_031.jpg	100
1643.29	0.518	518.1	2back	Block3	2back/STIM_031.jpg	99
1646.191	0.699	698.7	2back	Block3	2back/STIM_031.jpg	99
1650.384	0.497	497.3	2back	Block3	2back/STIM_032.jpg	99
1654.603	0.721	721.3	2back	Block3	2back/STIM_032.jpg	99
1658.376	0.814	813.8	2back	Block3	2back/STIM_032.jpg	100
1661.574	0.424	424.0	2back	Block3	2back/STIM_033.jpg	100
1664.551	0.717	716.8	2back	Block3	2back/STIM_033.jpg	99
1669.098	0.579	578.7	2back	Block3	2back/STIM_033.jpg	100
1672.307	0.393	392.6	2back	Block3	2back/STIM_034.jpg	99
1676.515	0.395	395.2	2back	Block3	2back/STIM_034.jpg	99
1679.064	0.541	541.4	2back	Block3	2back/STIM_034.jpg	100
1682.884	0.56	559.7	2back	Block3	2back/STIM_035.jpg	99
1686.685	0.645	644.9	2back	Block3	2back/STIM_035.jpg	100
1690.753	0.673	673.1	2back	Block3	2back/STIM_035.jpg	99
1694.73	0.516	515.6	2back	Block3	2back/STIM_036.jpg	99
1697.861	0.697	697.2	2back	Block3	2back/STIM_036.jpg	100
1701.761	0.69	690.1	2back	Block3	2back/STIM_036.jpg	100
1705.144	0.684	683.7	2back	Block3	2back/STIM_037.jpg	99
1708.421	0.814	814.4	2back	Block3	2back/STIM_037.jpg	100
1712.914	0.72	720.3	2back	Block3	2back/STIM_037.jpg	99
1717.46	0.583	582.9	2back	Block3	2back/STIM_038.jpg	99
1721.341	0.371	371.0	2back	Block3	2back/STIM_038.jpg	99
1724.312	0.665	664.8	2back	Block3	2back/STIM_038.jpg	99
1727.516	0.43	429.8	2back	Block3	2back/STIM_039.jpg	100
1730.392	0.419	419.3	2back	Block3	2back/STIM_039.jpg	99
1733.646	0.364	363.5	2back	Block3	2back/STIM_039.jpg	100
1737.52	0.463	462.7	0back	Block3	0back/STIM_000.jpg	100
1740.529	0.53	529.6	0back	Block3	0back/STIM_000.jpg	100
1744.343	0.482	481.6	0back	Block3	0back/STIM_000.jpg	100
1748.505	0.372	372.3	0back	Block3	0back/STIM_001.jpg	100
1751.868	0.386	385.7	0back	Block3	0back/STIM_001.jpg	100
1755.661	0.582	582.5	0back	Block3	0back/STIM_001.jpg	100
1758.68	0.524	524.1	0back	Block3	0back/STIM_002.jpg	99
1763.139	0.447	446.8	0back	Block3	0back/STIM_002.jpg	100
1765.606	0.641	640.7	0back	Block3	0back/STIM_002.jpg	99
1769.117	0.511	511.0	0back	Block3	0back/STIM_003.jpg	100
1772.312	0.428	428.5	0back	Block3	0back/STIM_003.jpg	100
1775.636	0.55	549.8	0back	Block3	0back/STIM_003.jpg	99
1779.137	0.564	564.1	0back	Block3	0back/STIM_004.jpg	100
1783.251	0.544	544.1	0back	Block3	0back/STIM_004.jpg	99
1786.586	0.498	498.3	0back	Block3	0back/STIM_004.jpg	100
1789.708	0.356	356.3	0back	Block3	0back/STIM_005.jpg	100
1792.317	0.355	355.1	0back	Block3	0back/STIM_005.jpg	100
1795.355	0.564	564.5	0back	Block3	0back/STIM_005.jpg	100
1799.403	0.338	338.1	0back	Block3	0back/STIM_006.jpg	99
1802.106	0.341	341.3	0back	Block3	0back/STIM_006.jpg	100
1805.751	0.546	546.3	0back	Block3	0back/STIM_006.jpg	100
1810.267	0.41	409.5	0back	Block3	0back/STIM_007.jpg	99
1813.671	0.598	597.5	0back	Block3	0back/STIM_007.jpg	100
1817.034	0.541	541.1	0back	Block3	0back/STIM_007.jpg	100
1821.425	0.537	536.7	0back	Block3	0back/STIM_008.jpg	100
1825.019	0.372	372.4	0back	Block3	0back/STIM_008.jpg	100
1827.83	0.432	431.7	0back	Block3	0back/STIM_008.jpg	100
1832.039	0.556	555.9	0back	Block3	0back/STIM_009.jpg	100
1836.219	0.37	370.5	0back	Block3	0back/STIM_009.jpg	100
1838.923	0.382	381.7	0back	Block3	0back/STIM_009.jpg	99
1842.523	0.613	613.3	0back	Block3	0back/STIM_010.jpg	100
1845.229	0.505	505.3	0back	Block3	0back/STIM_010.jpg	100
1848.499	0.636	636.0	0back	Block3	0back/STIM_010.jpg	100
1851.435	0.545	545.0	0back	Block3	0back/STIM_011.jpg	99
1855.22	0.374	373.5	0back	Block3	0back/STIM_011.jpg	100
1859.581	0.382	382.3	0back	Block3	0back/STIM_011.jpg	100
1862.517	0.411	411.1	0back	Block3	0back/STIM_012.jpg	100
1865.957	0.434	433.8	0back	Block3	0back/STIM_012.jpg	100
1869.978	0.588	587.6	0back	Block3	0back/STIM_012.jpg	100
1872.624	0.583	582.6	0back	Block3	0back/STIM_013.jpg	100
1877.183	0.48	480.5	0back	Block3	0back/STIM_013.jpg	99
1881.539	0.517	517.3	0back	Block3	0back/STIM_013.jpg	100
1884.488	0.36	359.8	0back	Block3	0back/STIM_014.jpg	100
1888.782	0.533	533.2	0back	Block3	0back/STIM_014.jpg	100
1891.958	0.573	573.0	0back	Block3	0back/STIM_014.jpg	100
1895.582	0.421	420.9	0back	Block3	0back/STIM_015.jpg	100
1899.624	0.519	519.4	0back	Block3	0back/STIM_015.jpg	100
1902.825	0.542	542.2	0back	Block3	0back/STIM_015.jpg	99
1905.934	0.452	451.9	0back	Block3	0back/STIM_016.jpg	100
1909.308	0.386	385.6	0back	Block3	0back/STIM_016.jpg	100
1912.796	0.658	657.8	0back	Block3	0back/STIM_016.jpg	100
1916.757	0.536	535.6	0back	Block3	0back/STIM_017.jpg	100
1920.49	0.63	630.2	0back	Block3	0back/STIM_017.jpg	100
1924.312	0.431	431.2	0back	Block3	0back/STIM_017.jpg	100
1927.948	0.594	593.7	0back	Block3	0back/STIM_018.jpg	100
1931.664	0.408	407.6	0back	Block3	0back/STIM_018.jpg	100
1934.662	0.608	608.5	0back	Block3	0back/STIM_018.jpg	100
1938.272	0.438	438.3	0back	Block3	0back/STIM_019.jpg	99
1942.545	0.582	581.5	0back	Block3	0back/STIM_019.jpg	99
1946.553	0.41	410.1	0back	Block3	0back/STIM_019.jpg	99
1949.162	0.69	690.5	2back	Block4	2back/STIM_000.jpg	100
1952.122	0.776	775.8	2back	Block4	2back/STIM_000.jpg	100
1956.676	0.652	651.5	2back	Block4	2back/STIM_000.jpg	100
1960.775	0.397	396.7	2back	Block4	2back/STIM_001.jpg	99
1963.635	0.694	694.4	2back	Block4	2back/STIM_001.jpg	99
1967.159	0.742	741.8	2back	Block4	2back/STIM_001.jpg	99
1971.635	0.536	535.8	2back	Block4	2back/STIM_002.jpg	100
1974.757	0.4	400.3	2back	Block4	2back/STIM_002.jpg	100
1977.801	0.566	566.2	2back	Block4	2back/STIM_002.jpg	99
1980.574	0.399	399.1	2back	Block4	2back/STIM_003.jpg	100
1984.19	0.462	462.2	2back	Block4	2back/STIM_003.jpg	100
1987.965	0.691	691.3	2back	Block4	2back/STIM_003.jpg	99
1992.466	0.352	351.6	2back	Block4	2back/STIM_004.jpg	99
1996.202	0.701	700.9	2back	Block4	2back/STIM_004.jpg	99
2000.456	0.719	719.2	2back	Block4	2back/STIM_004.jpg	100
2004.407	0.737	736.6	2back	Block4	2back/STIM_005.jpg	100
2007.315	0.748	747.9	2back	Block4	2back/STIM_005.jpg	99
2011.525	0.637	636.6	2back	Block4	2back/STIM_005.jpg	99
2014.441	0.521	521.2	2back	Block4	2back/STIM_006.jpg	100
2018.864	0.523	522.9	2back	Block4	2back/STIM_006.jpg	100
2021.419	0.605	605.3	2back	Block4	2back/STIM_006.jpg	99
2025.968	0.502	502.2	2back	Block4	2back/STIM_007.jpg	100
2030.194	0.556	556.4	2back	Block4	2back/STIM_007.jpg	100
2033.756	0.661	660.8	2back	Block4	2back/STIM_007.jpg	99
2037.038	0.57	569.7	2back	Block4	2back/STIM_008.jpg	99
2040.393	0.479	478.6	2back	Block4	2back/STIM_008.jpg	100
2042.99	0.574	574.4	2back	Block4	2back/STIM_008.jpg	100
2046.803	0.525	525.2	2back	Block4	2back/STIM_009.jpg	100
2049.913	0.767	767.0	2back	Block4	2back/STIM_009.jpg	100
2052.942	0.445	445.3	2back	Block4	2back/STIM_009.jpg	100
2055.724	0.585	585.0	2back	Block4	2back/STIM_010.jpg	99
2058.337	0.559	558.6	2back	Block4	2back/STIM_010.jpg	99
2061.056	0.785	785.2	2back	Block4	2back/STIM_010.jpg	100
2065.304	0.787	786.9	2back	Block4	2back/STIM_011.jpg	100
2070.036	0.365	365.1	2back	Block4	2back/STIM_011.jpg	99
2074.296	0.651	651.3	2back	Block4	2back/STIM_011.jpg	100
2077.677	0.353	353.1	2back	Block4	2back/STIM_012.jpg	99
2080.135	0.779	778.8	2back	Block4	2back/STIM_012.jpg	100
2084.6	0.658	658.4	2back	Block4	2back/STIM_012.jpg	100
2088.313	0.732	732.4	2back	Block4	2back/STIM_013.jpg	100
2092.355	0.733	733.4	2back	Block4	2back/STIM_013.jpg	99
2096.135	0.737	737.2	2back	Block4	2back/STIM_013.jpg	100
2099.069	0.432	432.3	2back	Block4	2back/STIM_014.jpg	99
2102.119	0.626	625.6	2back	Block4	2back/STIM_014.jpg	100
2105.778	0.758	758.0	2back	Block4	2back/STIM_014.jpg	99
2109.593	0.719	718.7	2back	Block4	2back/STIM_015.jpg	100
2112.642	0.534	533.6	2back	Block4	2back/STIM_015.jpg	100
2117.039	0.482	481.9	2back	Block4	2back/STIM_015.jpg	100
2120.279	0.682	681.7	2back	Block4	2back/STIM_016.jpg	100
2124.614	0.627	627.3	2back	Block4	2back/STIM_016.jpg	100
2128.273	0.707	706.7	2back	Block4	2back/STIM_016.jpg	99
2132.697	0.813	812.6	2back	Block4	2back/STIM_017.jpg	99
2135.579	0.515	514.8	2back	Block4	2back/STIM_017.jpg	100
2139.098	0.705	705.1	2back	Block4	2back/STIM_017.jpg	100
2142.649	0.626	626.3	2back	Block4	2back/STIM_018.jpg	100
2146.138	0.77	770.1	2back	Block4	2back/STIM_018.jpg	100
2150.622	0.796	796.1	2back	Block4	2back/STIM_018.jpg	99
2155.372	0.352	351.5	2back	Block4	2back/STIM_019.jpg	99
2158.224	0.663	663.4	2back	Block4	2back/STIM_019.jpg	99
2161.351	0.43	430.5	2back	Block4	2back/STIM_019.jpg	100
2164.206	0.518	518.1	2back	Block4	2back/STIM_020.jpg	100
2166.82	0.396	396.0	2back	Block4	2back/STIM_020.jpg	100
2170.59	0.729	728.8	2back	Block4	2back/STIM_020.jpg	99
2174.399	0.394	394.5	2back	Block4	2back/STIM_021.jpg	100
2177.824	0.511	510.9	2back	Block4	2back/STIM_021.jpg	100
2181.463	0.392	392.5	2back	Block4	2back/STIM_021.jpg	99
2184.552	0.58	580.3	2back	Block4	2back/STIM_022.jpg	99
2188.805	0.722	722.1	2back	Block4	2back/STIM_022.jpg	99
2193.119	0.528	528.1	2back	Block4	2back/STIM_022.jpg	100
2197.629	0.764	763.9	2back	Block4	2back/STIM_023.jpg	100
2201.869	0.748	748.4	2back	Block4	2back/STIM_023.jpg	99
2204.746	0.516	515.9	2back	Block4	2back/STIM_023.jpg	100
2207.797	0.748	748.0	2back	Block4	2back/STIM_024.jpg	100
2211.39	0.677	677.2	2back	Block4	2back/STIM_024.jpg	100
2215.137	0.711	710.9	2back	Block4	2back/STIM_024.jpg	100
2219.79	0.6	600.5	2back	Block4	2back/STIM_025.jpg	100
2222.56	0.469	468.8	2back	Block4	2back/STIM_025.jpg	100
2226.647	0.483	482.7	2back	Block4	2back/STIM_025.jpg	100
2230.332	0.704	704.2	2back	Block4	2back/STIM_026.jpg	99
2233.528	0.709	708.6	2back	Block4	2back/STIM_026.jpg	99
2236.391	0.448	447.8	2back	Block4	2back/STIM_026.jpg	100
2240.225	0.677	677.2	2back	Block4	2back/STIM_027.jpg	99
2244.314	0.802	802.4	2back	Block4	2back/STIM_027.jpg	99
2249.006	0.364	364.1	2back	Block4	2back/STIM_027.jpg	100
2252.481	0.371	370.6	2back	Block4	2back/STIM_028.jpg	100
2256.139	0.741	740.7	2back	Block4	2back/STIM_028.jpg	100
2260.57	0.748	748.4	2back	Block4	2back/STIM_028.jpg	99
2265.004	0.425	425.4	2back	Block4	2back/STIM_029.jpg	100
2268.941	0.783	783.1	2back	Block4	2back/STIM_029.jpg	99
2273.551	0.719	718.7	2back	Block4	2back/STIM_029.jpg	99
2277.021	0.74	739.8	2back	Block4	2back/STIM_030.jpg	100
2280.637	0.698	698.4	2back	Block4	2back/STIM_030.jpg	100
2283.465	0.689	689.4	2back	Block4	2back/STIM_030.jpg	99
2287.413	0.475	475.2	2back	Block4	2back/STIM_031.jpg	99
2291.386	0.514	514.4	2back	Block4	2back/STIM_031.jpg	100
2295.835	0.608	608.5	2back	Block4	2back/STIM_031.jpg	99
2300.247	0.351	350.7	2back	Block4	2back/STIM_032.jpg	99
2303.892	0.802	801.8	2back	Block4	2back/STIM_032.jpg	100
2307.03	0.629	629.4	2back	Block4	2back/STIM_032.jpg	99
2311.646	0.67	670.0	2back	Block4	2back/STIM_033.jpg	100
2314.449	0.553	552.6	2back	Block4	2back/STIM_033.jpg	100
2317.923	0.496	496.0	2back	Block4	2back/STIM_033.jpg	100
2321.957	0.714	713.6	2back	Block4	2back/STIM_034.jpg	100
2325.935	0.386	386.5	2back	Block4	2back/STIM_034.jpg	99
2329.371	0.392	391.6	2back	Block4	2back/STIM_034.jpg	100
2333.558	0.396	395.5	2back	Block4	2back/STIM_035.jpg	99
2337.598	0.422	421.5	2back	Block4	2back/STIM_035.jpg	99
2340.35	0.522	521.8	2back	Block4	2back/STIM_035.jpg	99
2343.339	0.658	658.2	2back	Block4	2back/STIM_036.jpg	100
2347.444	0.676	676.0	2back	Block4	2back/STIM_036.jpg	100
2351.933	0.754	754.5	2back	Block4	2back/STIM_036.jpg	100
2356.58	0.362	362.5	2back	Block4	2back/STIM_037.jpg	99
2359.128	0.535	535.2	2back	Block4	2back/STIM_037.jpg	100
2362.067	0.793	793.2	2back	Block4	2back/STIM_037.jpg	99
2365.214	0.814	813.8	2back	Block4	2back/STIM_038.jpg	99
2368.779	0.632	632.1	2back	Block4	2back/STIM_038.jpg	100
2371.518	0.508	508.4	2back	Block4	2back/STIM_038.jpg	100
2374.273	0.676	676.2	2back	Block4	2back/STIM_039.jpg	99
2378.773	0.641	641.1	2back	Block4	2back/STIM_039.jpg	99
2383.181	0.372	372.0	2back	Block4	2back/STIM_039.jpg	100
2387.437	0.526	526.0	0back	Block4	0back/STIM_000.jpg	99
2391.621	0.424	423.7	0back	Block4	0back/STIM_000.jpg	100
2395.683	0.518	517.6	0back	Block4	0back/STIM_000.jpg	100
2399.491	0.4	399.6	0back	Block4	0back/STIM_001.jpg	99
2402.153	0.508	508.1	0back	Block4	0back/STIM_001.jpg	99
2405.113	0.458	457.5	0back	Block4	0back/STIM_001.jpg	100
2408.953	0.462	462.0	0back	Block4	0back/STIM_002.jpg	100
2413.398	0.403	402.6	0back	Block4	0back/STIM_002.jpg	99
2416.093	0.659	659.2	0back	Block4	0back/STIM_002.jpg	100
2420.51	0.439	439.2	0back	Block4	0back/STIM_003.jpg	99
2424.43	0.37	369.5	0back	Block4	0back/STIM_003.jpg	99
2428.006	0.627	626.9	0back	Block4	0back/STIM_003.jpg	99
2430.968	0.454	454.0	0back	Block4	0back/STIM_004.jpg	99
2434.6	0.43	430.1	0back	Block4	0back/STIM_004.jpg	99
2438.53	0.513	513.2	0back	Block4	0back/STIM_004.jpg	99
2442.837	0.388	387.9	0back	Block4	0back/STIM_005.jpg	100
2445.981	0.387	386.8	0back	Block4	0back/STIM_005.jpg	99
2449.535	0.372	372.2	0back	Block4	0back/STIM_005.jpg	100
2452.478	0.593	593.3	0back	Block4	0back/STIM_006.jpg	100
2455.35	0.482	482.5	0back	Block4	0back/STIM_006.jpg	99
2458.149	0.47	469.9	0back	Block4	0back/STIM_006.jpg	100
2461.788	0.45	450.0	0back	Block4	0back/STIM_007.jpg	100
2464.592	0.418	418.1	0back	Block4	0back/STIM_007.jpg	100
2467.245	0.514	514.5	0back	Block4	0back/STIM_007.jpg	100
2471.371	0.565	564.9	0back	Block4	0back/STIM_008.jpg	99
2474.499	0.602	601.6	0back	Block4	0back/STIM_008.jpg	99
2478.186	0.531	531.2	0back	Block4	0back/STIM_008.jpg	100
2482.036	0.412	412.4	0back	Block4	0back/STIM_009.jpg	100
2485.511	0.556	555.6	0back	Block4	0back/STIM_009.jpg	99
2488.332	0.357	356.7	0back	Block4	0back/STIM_009.jpg	100
2492.071	0.513	513.2	0back	Block4	0back/STIM_010.jpg	100
2494.713	0.633	633.1	0back	Block4	0back/STIM_010.jpg	99
2498.888	0.569	569.1	0back	Block4	0back/STIM_010.jpg	100
2502.077	0.659	659.2	0back	Block4	0back/STIM_011.jpg	100
2505.826	0.666	665.9	0back	Block4	0back/STIM_011.jpg	100
2510.179	0.386	386.3	0back	Block4	0back/STIM_011.jpg	99
2512.609	0.514	513.7	0back	Block4	0back/STIM_012.jpg	100
2516.104	0.497	496.6	0back	Block4	0back/STIM_012.jpg	99
2519.547	0.389	389.2	0back	Block4	0back/STIM_012.jpg	99
2522.637	0.418	417.6	0back	Block4	0back/STIM_013.jpg	100
2526.052	0.573	573.3	0back	Block4	0back/STIM_013.jpg	99
2528.976	0.369	369.2	0back	Block4	0back/STIM_013.jpg	99
2533.232	0.347	347.2	0back	Block4	0back/STIM_014.jpg	100
2535.8	0.63	629.6	0back	Block4	0back/STIM_014.jpg	100
2538.434	0.456	456.1	0back	Block4	0back/STIM_014.jpg	99
2540.936	0.588	588.3	0back	Block4	0back/STIM_015.jpg	100
2545.117	0.66	660.1	0back	Block4	0back/STIM_015.jpg	99
2549.085	0.595	595.1	0back	Block4	0back/STIM_015.jpg	99
2552.99	0.503	503.5	0back	Block4	0back/STIM_016.jpg	99
2556.991	0.356	355.5	0back	Block4	0back/STIM_016.jpg	99
2561.188	0.568	568.5	0back	Block4	0back/STIM_016.jpg	99
2563.974	0.537	537.1	0back	Block4	0back/STIM_017.jpg	99
2567.114	0.492	491.9	0back	Block4	0back/STIM_017.jpg	99
2570.791	0.631	631.3	0back	Block4	0back/STIM_017.jpg	99
2574.454	0.507	506.7	0back	Block4	0back/STIM_018.jpg	100
2577.546	0.612	612.2	0back	Block4	0back/STIM_018.jpg	100
2580.495	0.381	380.7	0back	Block4	0back/STIM_018.jpg	99
2582.896	0.59	589.7	0back	Block4	0back/STIM_019.jpg	100
2586.538	0.42	420.4	0back	Block4	0back/STIM_019.jpg	100
2590.909	0.336	336.4	0back	Block4	0back/STIM_019.jpg	100
