onset	duration	response_time_ms	trial_type	learning_stage	stimulus	response_port
0.0	1.144	1144.5	2back	Block1	2back/STIM_000.jpg	99
3.108	0.603	603.1	2back	Block1	2back/STIM_000.jpg	100
7.088	0.758	757.6	2back	Block1	2back/STIM_000.jpg	100
10.569	0.865	865.2	2back	Block1	2back/STIM_001.jpg	99
14.23	0.651	651.1	2back	Block1	2back/STIM_001.jpg	100
17.941	0.633	632.9	2back	Block1	2back/STIM_001.jpg	99
21.22	0.982	982.0	2back	Block1	2back/STIM_002.jpg	100
25.416	0.648	648.3	2back	Block1	2back/STIM_002.jpg	100
29.877	1.254	1253.9	2back	Block1	2back/STIM_002.jpg	99
33.485	1.073	1072.8	2back	Block1	2back/STIM_003.jpg	100
37.032	1.298	1297.5	2back	Block1	2back/STIM_003.jpg	99
40.593	1.319	1318.6	2back	Block1	2back/STIM_003.jpg	99
45.117	1.101	1100.8	2back	Block1	2back/STIM_004.jpg	100
49.971	0.742	742.2	2back	Block1	2back/STIM_004.jpg	99
53.322	1.247	1247.0	2back	Block1	2back/STIM_004.jpg	100
56.912	1.43	1430.1	2back	Block1	2back/STIM_005.jpg	100
61.666	0.817	817.2	2back	Block1	2back/STIM_005.jpg	100
65.52	0.622	621.5	2back	Block1	2back/STIM_005.jpg	100
70.029	1.212	1211.6	2back	Block1	2back/STIM_006.jpg	100
74.506	0.635	634.6	2back	Block1	2back/STIM_006.jpg	99
77.355	0.868	868.3	2back	Block1	2back/STIM_006.jpg	99
81.423	0.706	705.8	2back	Block1	2back/STIM_007.jpg	99
85.08	0.88	880.5	2back	Block1	2back/STIM_007.jpg	99
88.549	1.162	1162.5	2back	Block1	2back/STIM_007.jpg	99
93.384	0.833	833.1	2back	Block1	2back/STIM_008.jpg	100
96.211	0.958	957.7	2back	Block1	2back/STIM_008.jpg	100
99.885	1.187	1186.7	2back	Block1	2back/STIM_008.jpg	100
104.765	1.005	1004.6	2back	Block1	2back/STIM_009.jpg	100
108.75	1.307	1306.6	2back	Block1	2back/STIM_009.jpg	99
112.256	1.176	1176.2	2back	Block1	2back/STIM_009.jpg	99
116.798	0.925	925.0	2back	Block1	2back/STIM_010.jpg	99
119.97	1.182	1182.5	2back	Block1	2back/STIM_010.jpg	100
124.528	0.853	853.0	2back	Block1	2back/STIM_010.jpg	99
128.366	1.36	1360.1	2back	Block1	2back/STIM_011.jpg	100
132.347	1.277	1277.0	2back	Block1	2back/STIM_011.jpg	100
136.106	1.272	1271.7	2back	Block1	2back/STIM_011.jpg	99
140.417	1.221	1221.2	2back	Block1	2back/STIM_012.jpg	99
143.953	1.123	1122.8	2back	Block1	2back/STIM_012.jpg	100
148.554	0.872	872.5	2back	Block1	2back/STIM_012.jpg	100
152.594	0.813	812.9	2back	Block1	2back/STIM_013.jpg	99
157.199	0.606	605.7	2back	Block1	2back/STIM_013.jpg	100
161.388	1.326	1326.1	2back	Block1	2back/STIM_013.jpg	100
165.547	0.802	802.0	2back	Block1	2back/STIM_014.jpg	99
168.814	0.709	708.6	2back	Block1	2back/STIM_014.jpg	100
172.201	1.007	1006.7	2back	Block1	2back/STIM_014.jpg	99
176.592	0.716	715.7	2back	Block1	2back/STIM_015.jpg	99
180.667	0.854	853.8	2back	Block1	2back/STIM_015.jpg	100
183.91	0.714	713.9	2back	Block1	2back/STIM_015.jpg	99
187.661	1.139	1138.7	2back	Block1	2back/STIM_016.jpg	99
190.869	1.244	1244.5	2back	Block1	2back/STIM_016.jpg	99
194.499	1.179	1179.3	2back	Block1	2back/STIM_016.jpg	99
198.343	1.114	1114.1	2back	Block1	2back/STIM_017.jpg	99
202.17	0.796	795.7	2back	Block1	2back/STIM_017.jpg	100
206.308	0.861	860.9	2back	Block1	2back/STIM_017.jpg	99
210.594	1.292	1291.5	2back	Block1	2back/STIM_018.jpg	100
214.903	1.292	1291.5	2back	Block1	2back/STIM_018.jpg	100
218.894	1.065	1064.9	2back	Block1	2back/STIM_018.jpg	100
222.896	1.335	1335.4	2back	Block1	2back/STIM_019.jpg	99
227.859	1.058	1058.0	2back	Block1	2back/STIM_019.jpg	100
232.545	0.974	973.6	2back	Block1	2back/STIM_019.jpg	99
236.446	0.664	664.5	2back	Block1	2back/STIM_020.jpg	100
240.597	1.099	1099.0	2back	Block1	2back/STIM_020.jpg	100
244.728	0.896	895.8	2back	Block1	2back/STIM_020.jpg	100
247.656	1.417	1416.7	2back	Block1	2back/STIM_021.jpg	100
251.318	0.79	790.2	2back	Block1	2back/STIM_021.jpg	99
255.816	0.579	579.3	2back	Block1	2back/STIM_021.jpg	99
258.366	1.126	1125.9	2back	Block1	2back/STIM_022.jpg	100
263.295	1.11	1109.8	2back	Block1	2back/STIM_022.jpg	100
268.217	0.773	772.6	2back	Block1	2back/STIM_022.jpg	100
271.069	0.776	776.0	2back	Block1	2back/STIM_023.jpg	99
274.93	0.745	745.2	2back	Block1	2back/STIM_023.jpg	100
279.336	1.302	1301.9	2back	Block1	2back/STIM_023.jpg	100
283.862	0.963	962.9	2back	Block1	2back/STIM_024.jpg	99
287.959	0.894	893.5	2back	Block1	2back/STIM_024.jpg	99
291.706	0.817	816.7	2back	Block1	2back/STIM_024.jpg	100
295.394	1.155	1155.4	2back	Block1	2back/STIM_025.jpg	100
299.323	1.067	1066.8	2back	Block1	2back/STIM_025.jpg	100
303.44	0.929	929.0	2back	Block1	2back/STIM_025.jpg	100
307.295	1.189	1189.3	2back	Block1	2back/STIM_026.jpg	100
311.09	1.092	1091.9	2back	Block1	2back/STIM_026.jpg	100
314.844	1.05	1050.1	2back	Block1	2back/STIM_026.jpg	100
318.048	1.321	1320.6	2back	Block1	2back/STIM_027.jpg	99
321.96	1.28	1279.5	2back	Block1	2back/STIM_027.jpg	99
326.079	1.139	1139.0	2back	Block1	2back/STIM_027.jpg	99
330.623	1.422	1421.8	2back	Block1	2back/STIM_028.jpg	100
334.652	0.764	764.1	2back	Block1	2back/STIM_028.jpg	100
339.04	1.181	1181.0	2back	Block1	2back/STIM_028.jpg	99
343.889	1.182	1182.5	2back	Block1	2back/STIM_029.jpg	99
347.511	0.67	669.6	2back	Block1	2back/STIM_029.jpg	100
350.978	0.588	587.7	2back	Block1	2back/STIM_029.jpg	100
353.56	0.642	642.4	2back	Block1	2back/STIM_030.jpg	100
356.902	1.247	1247.3	2back	Block1	2back/STIM_030.jpg	100
360.277	0.576	575.6	2back	Block1	2back/STIM_030.jpg	100
363.876	0.757	756.7	2back	Block1	2back/STIM_031.jpg	100
368.393	1.078	1077.9	2back	Block1	2back/STIM_031.jpg	99
372.9	0.606	606.3	2back	Block1	2back/STIM_031.jpg	100
376.927	1.345	1345.3	2back	Block1	2back/STIM_032.jpg	100
382.09	1.069	1069.4	2back	Block1	2back/STIM_032.jpg	100
385.676	1.037	1036.9	2back	Block1	2back/STIM_032.jpg	100
390.462	1.134	1134.5	2back	Block1	2back/STIM_033.jpg	99
394.597	1.359	1358.8	2back	Block1	2back/STIM_033.jpg	100
399.458	1.053	1053.2	2back	Block1	2back/STIM_033.jpg	99
403.499	1.058	1057.9	2back	Block1	2back/STIM_034.jpg	99
408.461	1.286	1286.4	2back	Block1	2back/STIM_034.jpg	99
411.804	0.667	667.1	2back	Block1	2back/STIM_034.jpg	99
416.263	1.256	1256.0	2back	Block1	2back/STIM_035.jpg	100
419.899	0.853	852.7	2back	Block1	2back/STIM_035.jpg	99
423.253	1.002	1001.7	2back	Block1	2back/STIM_035.jpg	99
427.844	0.811	811.0	2back	Block1	2back/STIM_036.jpg	99
431.772	1.263	1263.3	2back	Block1	2back/STIM_036.jpg	99
435.499	0.611	611.4	2back	Block1	2back/STIM_036.jpg	99
439.55	0.722	721.9	2back	Block1	2back/STIM_037.jpg	99
442.771	1.284	1283.8	2back	Block1	2back/STIM_037.jpg	100
446.25	0.697	696.7	2back	Block1	2back/STIM_037.jpg	100
449.539	1.439	1438.7	2back	Block1	2back/STIM_038.jpg	99
453.715	0.967	967.3	2back	Block1	2back/STIM_038.jpg	100
457.228	0.969	969.3	2back	Block1	2back/STIM_038.jpg	100
462.072	1.259	1259.0	2back	Block1	2back/STIM_039.jpg	100
466.435	0.811	811.1	2back	Block1	2back/STIM_039.jpg	99
469.999	1.102	1102.5	2back	Block1	2back/STIM_039.jpg	99
473.554	0.549	549.3	0back	Block1	0back/STIM_000.jpg	99
476.179	0.552	551.9	0back	Block1	0back/STIM_000.jpg	100
479.813	0.596	596.5	0back	Block1	0back/STIM_000.jpg	100
482.781	0.552	551.6	0back	Block1	0back/STIM_001.jpg	99
487.072	0.637	637.3	0back	Block1	0back/STIM_001.jpg	99
491.291	0.657	656.6	0back	Block1	0back/STIM_001.jpg	99
494.686	0.674	673.8	0back	Block1	0back/STIM_002.jpg	99
497.563	0.622	622.4	0back	Block1	0back/STIM_002.jpg	99
500.961	0.495	494.7	0back	Block1	0back/STIM_002.jpg	99
503.679	0.84	839.5	0back	Block1	0back/STIM_003.jpg	99
507.692	0.83	830.5	0back	Block1	0back/STIM_003.jpg	99
511.375	0.565	565.2	0back	Block1	0back/STIM_003.jpg	99
515.685	0.724	724.0	0back	Block1	0back/STIM_004.jpg	99
519.98	0.704	704.3	0back	Block1	0back/STIM_004.jpg	99
524.381	0.819	819.3	0back	Block1	0back/STIM_004.jpg	100
527.376	0.83	830.2	0back	Block1	0back/STIM_005.jpg	99
531.368	0.766	765.6	0back	Block1	0back/STIM_005.jpg	100
534.497	0.462	462.2	0back	Block1	0back/STIM_005.jpg	99
537.95	0.638	637.6	0back	Block1	0back/STIM_006.jpg	99
541.921	0.716	715.8	0back	Block1	0back/STIM_006.jpg	99
545.404	0.569	569.2	0back	Block1	0back/STIM_006.jpg	100
548.017	0.712	712.2	0back	Block1	0back/STIM_007.jpg	100
550.828	0.43	430.1	0back	Block1	0back/STIM_007.jpg	99
554.145	0.831	831.1	0back	Block1	0back/STIM_007.jpg	100
557.506	0.52	520.2	0back	Block1	0back/STIM_008.jpg	100
561.771	0.805	804.9	0back	Block1	0back/STIM_008.jpg	100
565.152	0.552	551.9	0back	Block1	0back/STIM_008.jpg	99
568.556	0.597	596.6	0back	Block1	0back/STIM_009.jpg	99
571.595	0.5	500.3	0back	Block1	0back/STIM_009.jpg	99
575.567	0.843	843.1	0back	Block1	0back/STIM_009.jpg	99
579.334	0.478	478.1	0back	Block1	0back/STIM_010.jpg	99
583.16	0.781	781.4	0back	Block1	0back/STIM_010.jpg	100
586.525	0.691	691.0	0back	Block1	0back/STIM_010.jpg	100
590.059	0.514	514.3	0back	Block1	0back/STIM_011.jpg	99
593.26	0.53	529.6	0back	Block1	0back/STIM_011.jpg	99
596.82	0.441	441.1	0back	Block1	0back/STIM_011.jpg	100
600.452	0.789	789.0	0back	Block1	0back/STIM_012.jpg	100
604.108	0.509	509.2	0back	Block1	0back/STIM_012.jpg	99
606.943	0.525	525.2	0back	Block1	0back/STIM_012.jpg	99
610.346	0.821	821.1	0back	Block1	0back/STIM_013.jpg	100
614.215	0.552	551.8	0back	Block1	0back/STIM_013.jpg	99
617.127	0.791	790.6	0back	Block1	0back/STIM_013.jpg	100
621.41	0.599	599.3	0back	Block1	0back/STIM_014.jpg	100
624.937	0.447	446.6	0back	Block1	0back/STIM_014.jpg	100
629.02	0.602	601.9	0back	Block1	0back/STIM_014.jpg	99
633.072	0.567	566.7	0back	Block1	0back/STIM_015.jpg	100
637.337	0.799	798.7	0back	Block1	0back/STIM_015.jpg	100
641.871	0.523	523.0	0back	Block1	0back/STIM_015.jpg	99
644.82	0.699	699.2	0back	Block1	0back/STIM_016.jpg	100
647.505	0.799	799.1	0back	Block1	0back/STIM_016.jpg	99
651.826	0.778	778.4	0back	Block1	0back/STIM_016.jpg	99
655.487	0.616	616.4	0back	Block1	0back/STIM_017.jpg	100
658.842	0.817	817.0	0back	Block1	0back/STIM_017.jpg	99
661.863	0.662	662.0	0back	Block1	0back/STIM_017.jpg	100
665.738	0.777	777.1	0back	Block1	0back/STIM_018.jpg	99
670.273	0.433	433.3	0back	Block1	0back/STIM_018.jpg	99
674.142	0.653	652.6	0back	Block1	0back/STIM_018.jpg	99
678.722	0.427	427.4	0back	Block1	0back/STIM_019.jpg	99
682.834	0.678	677.6	0back	Block1	0back/STIM_019.jpg	99
687.062	0.45	450.5	0back	Block1	0back/STIM_019.jpg	99
690.361	1.123	1122.8	2back	Block2	2back/STIM_000.jpg	100
693.811	0.548	548.5	2back	Block2	2back/STIM_000.jpg	100
696.519	0.855	855.0	2back	Block2	2back/STIM_000.jpg	99
700.303	0.644	643.7	2back	Block2	2back/STIM_001.jpg	99
704.432	0.95	950.5	2back	Block2	2back/STIM_001.jpg	99
709.084	0.938	938.2	2back	Block2	2back/STIM_001.jpg	100
713.022	0.592	592.1	2back	Block2	2back/STIM_002.jpg	100
716.487	1.162	1161.7	2back	Block2	2back/STIM_002.jpg	99
720.431	0.565	564.9	2back	Block2	2back/STIM_002.jpg	99
724.484	1.014	1013.6	2back	Block2	2back/STIM_003.jpg	99
728.437	0.979	979.1	2back	Block2	2back/STIM_003.jpg	99
732.075	0.937	937.2	2back	Block2	2back/STIM_003.jpg	99
735.454	1.196	1196.0	2back	Block2	2back/STIM_004.jpg	99
739.402	1.099	1098.6	2back	Block2	2back/STIM_004.jpg	100
743.283	1.019	1018.6	2back	Block2	2back/STIM_004.jpg	100
747.087	0.938	937.9	2back	Block2	2back/STIM_005.jpg	99
751.88	1.12	1120.0	2back	Block2	2back/STIM_005.jpg	100
756.417	0.69	690.2	2back	Block2	2back/STIM_005.jpg	100
760.466	0.938	938.2	2back	Block2	2back/STIM_006.jpg	100
764.041	1.165	1165.2	2back	Block2	2back/STIM_006.jpg	99
767.815	0.556	555.5	2back	Block2	2back/STIM_006.jpg	100
770.935	1.17	1170.4	2back	Block2	2back/STIM_007.jpg	100
775.068	0.858	857.5	2back	Block2	2back/STIM_007.jpg	100
778.938	0.689	688.9	2back	Block2	2back/STIM_007.jpg	99
781.997	0.649	648.6	2back	Block2	2back/STIM_008.jpg	100
784.795	1.108	1107.5	2back	Block2	2back/STIM_008.jpg	99
789.698	0.784	783.6	2back	Block2	2back/STIM_008.jpg	99
794.037	1.229	1229.1	2back	Block2	2back/STIM_009.jpg	99
798.201	1.167	1166.8	2back	Block2	2back/STIM_009.jpg	100
801.637	0.864	864.1	2back	Block2	2back/STIM_009.jpg	100
806.388	0.883	883.4	2back	Block2	2back/STIM_010.jpg	100
809.328	0.767	766.9	2back	Block2	2back/STIM_010.jpg	99
812.091	1.023	1022.7	2back	Block2	2back/STIM_010.jpg	99
816.652	0.572	572.2	2back	Block2	2back/STIM_011.jpg	100
820.68	0.658	657.6	2back	Block2	2back/STIM_011.jpg	100
824.173	1.053	1053.2	2back	Block2	2back/STIM_011.jpg	100
827.655	1.141	1141.1	2back	Block2	2back/STIM_012.jpg	100
831.054	0.721	720.6	2back	Block2	2back/STIM_012.jpg	100
833.889	1.0	1000.0	2back	Block2	2back/STIM_012.jpg	99
838.393	0.79	790.2	2back	Block2	2back/STIM_013.jpg	100
842.423	0.695	694.6	2back	Block2	2back/STIM_013.jpg	99
845.489	0.921	920.7	2back	Block2	2back/STIM_013.jpg	99
850.037	1.047	1046.9	2back	Block2	2back/STIM_014.jpg	99
853.885	0.833	832.6	2back	Block2	2back/STIM_014.jpg	99
858.424	0.615	614.6	2back	Block2	2back/STIM_014.jpg	100
862.927	1.034	1033.8	2back	Block2	2back/STIM_015.jpg	99
866.396	0.856	855.6	2back	Block2	2back/STIM_015.jpg	100
870.771	0.845	844.9	2back	Block2	2back/STIM_015.jpg	99
875.382	1.131	1130.7	2back	Block2	2back/STIM_016.jpg	100
879.784	0.962	961.9	2back	Block2	2back/STIM_016.jpg	99
883.216	0.853	852.9	2back	Block2	2back/STIM_016.jpg	99
886.887	1.205	1205.3	2back	Block2	2back/STIM_017.jpg	99
891.97	0.57	570.0	2back	Block2	2back/STIM_017.jpg	100
894.944	0.587	587.2	2back	Block2	2back/STIM_017.jpg	100
899.439	1.166	1166.2	2back	Block2	2back/STIM_018.jpg	99
903.505	0.599	599.4	2back	Block2	2back/STIM_018.jpg	100
907.031	0.71	709.5	2back	Block2	2back/STIM_018.jpg	100
911.336	0.907	906.9	2back	Block2	2back/STIM_019.jpg	100
915.708	0.6	600.1	2back	Block2	2back/STIM_019.jpg	100
919.334	0.697	697.2	2back	Block2	2back/STIM_019.jpg	100
922.622	0.614	614.4	2back	Block2	2back/STIM_020.jpg	99
925.654	0.938	938.1	2back	Block2	2back/STIM_020.jpg	100
930.428	0.947	946.9	2back	Block2	2back/STIM_020.jpg	100
934.169	1.038	1038.3	2back	Block2	2back/STIM_021.jpg	99
937.379	0.974	974.2	2back	Block2	2back/STIM_021.jpg	99
942.136	0.979	978.9	2back	Block2	2back/STIM_021.jpg	100
946.824	1.107	1106.7	2back	Block2	2back/STIM_022.jpg	99
951.494	0.931	930.8	2back	Block2	2back/STIM_022.jpg	99
956.055	0.897	897.3	2back	Block2	2back/STIM_022.jpg	99
959.701	0.606	606.5	2back	Block2	2back/STIM_023.jpg	99
964.269	0.588	587.9	2back	Block2	2back/STIM_023.jpg	100
968.468	0.545	545.1	2back	Block2	2back/STIM_023.jpg	100
972.767	0.762	762.0	2back	Block2	2back/STIM_024.jpg	100
976.415	0.806	805.9	2back	Block2	2back/STIM_024.jpg	99
980.014	0.593	593.3	2back	Block2	2back/STIM_024.jpg	99
982.584	0.775	775.1	2back	Block2	2back/STIM_025.jpg	100
986.954	0.582	582.3	2back	Block2	2back/STIM_025.jpg	100
989.675	0.789	789.3	2back	Block2	2back/STIM_025.jpg	100
994.179	1.154	1154.0	2back	Block2	2back/STIM_026.jpg	99
999.149	0.868	867.7	2back	Block2	2back/STIM_026.jpg	100
1002.377	0.527	527.0	2back	Block2	2back/STIM_026.jpg	100
1006.335	0.57	569.5	2back	Block2	2back/STIM_027.jpg	99
1010.026	1.08	1080.1	2back	Block2	2back/STIM_027.jpg	100
1014.279	1.101	1100.6	2back	Block2	2back/STIM_027.jpg	100
1018.247	1.08	1080.0	2back	Block2	2back/STIM_028.jpg	100
1023.125	1.111	1111.2	2back	Block2	2back/STIM_028.jpg	99
1027.482	0.731	731.4	2back	Block2	2back/STIM_028.jpg	99
1031.816	0.596	596.5	2back	Block2	2back/STIM_029.jpg	99
1035.954	0.87	869.7	2back	Block2	2back/STIM_029.jpg	100
1040.256	0.828	827.8	2back	Block2	2back/STIM_029.jpg	99
1043.918	1.187	1186.9	2back	Block2	2back/STIM_030.jpg	99
1048.497	0.75	749.7	2back	Block2	2back/STIM_030.jpg	99
1051.908	0.982	981.8	2back	Block2	2back/STIM_030.jpg	99
1056.566	0.633	632.6	2back	Block2	2back/STIM_031.jpg	100
1060.811	1.161	1161.3	2back	Block2	2back/STIM_031.jpg	100
1064.226	1.0	1000.1	2back	Block2	2back/STIM_031.jpg	100
1068.866	0.75	750.0	2back	Block2	2back/STIM_032.jpg	99
1073.115	1.176	1175.7	2back	Block2	2back/STIM_032.jpg	99
1078.139	0.745	744.6	2back	Block2	2back/STIM_032.jpg	99
1081.518	0.849	849.3	2back	Block2	2back/STIM_033.jpg	100
1084.497	0.739	738.6	2back	Block2	2back/STIM_033.jpg	100
1088.498	1.104	1104.0	2back	Block2	2back/STIM_033.jpg	99
1093.279	0.99	989.5	2back	Block2	2back/STIM_034.jpg	100
1097.43	1.084	1083.7	2back	Block2	2back/STIM_034.jpg	99
1102.22	0.897	897.0	2back	Block2	2back/STIM_034.jpg	100
1105.427	1.124	1124.1	2back	Block2	2back/STIM_035.jpg	100
1109.361	1.081	1081.1	2back	Block2	2back/STIM_035.jpg	99
1113.534	1.049	1049.3	2back	Block2	2back/STIM_035.jpg	100
1117.833	0.887	887.4	2back	Block2	2back/STIM_036.jpg	100
1122.604	1.098	1098.4	2back	Block2	2back/STIM_036.jpg	100
1127.287	0.641	640.7	2back	Block2	2back/STIM_036.jpg	100
1131.836	0.766	766.0	2back	Block2	2back/STIM_037.jpg	99
1135.7	0.811	810.9	2back	Block2	2back/STIM_037.jpg	100
1138.617	0.786	786.4	2back	Block2	2back/STIM_037.jpg	100
1141.853	1.089	1089.4	2back	Block2	2back/STIM_038.jpg	100
1146.479	1.108	1107.9	2back	Block2	2back/STIM_038.jpg	100
1151.511	0.76	759.9	2back	Block2	2back/STIM_038.jpg	100
1154.998	0.686	685.6	2back	Block2	2back/STIM_039.jpg	99
1158.906	0.723	722.9	2back	Block2	2back/STIM_039.jpg	99
1163.214	0.976	976.3	2back	Block2	2back/STIM_039.jpg	100
1167.221	0.592	591.8	0back	Block2	0back/STIM_000.jpg	100
1170.83	0.671	671.3	0back	Block2	0back/STIM_000.jpg	99
1173.844	0.644	643.6	0back	Block2	0back/STIM_000.jpg	100
1177.078	0.808	807.5	0back	Block2	0back/STIM_001.jpg	100
1181.198	0.624	624.3	0back	Block2	0back/STIM_001.jpg	99
1184.777	0.437	436.7	0back	Block2	0back/STIM_001.jpg	99
1188.075	0.796	796.1	0back	Block2	0back/STIM_002.jpg	100
1191.375	0.476	476.5	0back	Block2	0back/STIM_002.jpg	99
1193.976	0.443	442.8	0back	Block2	0back/STIM_002.jpg	99
1197.619	0.482	482.4	0back	Block2	0back/STIM_003.jpg	100
1200.971	0.458	458.3	0back	Block2	0back/STIM_003.jpg	99
1204.595	0.618	617.8	0back	Block2	0back/STIM_003.jpg	99
1207.254	0.528	528.0	0back	Block2	0back/STIM_004.jpg	100
1209.907	0.741	740.7	0back	Block2	0back/STIM_004.jpg	99
1214.484	0.819	819.2	0back	Block2	0back/STIM_004.jpg	100
1217.698	0.562	562.1	0back	Block2	0back/STIM_005.jpg	100
1221.302	0.548	548.3	0back	Block2	0back/STIM_005.jpg	99
1224.45	0.506	506.2	0back	Block2	0back/STIM_005.jpg	100
1228.471	0.788	787.8	0back	Block2	0back/STIM_006.jpg	99
1231.298	0.528	528.0	0back	Block2	0back/STIM_006.jpg	99
1234.439	0.804	804.2	0back	Block2	0back/STIM_006.jpg	99
1237.316	0.637	637.2	0back	Block2	0back/STIM_007.jpg	99
1240.512	0.618	617.6	0back	Block2	0back/STIM_007.jpg	99
1244.272	0.645	644.6	0back	Block2	0back/STIM_007.jpg	100
1248.442	0.832	832.4	0back	Block2	0back/STIM_008.jpg	100
1252.781	0.533	533.4	0back	Block2	0back/STIM_008.jpg	100
1255.797	0.691	690.6	0back	Block2	0back/STIM_008.jpg	100
1258.568	0.432	431.5	0back	Block2	0back/STIM_009.jpg	100
1262.117	0.446	446.5	0back	Block2	0back/STIM_009.jpg	99
1266.09	0.767	767.3	0back	Block2	0back/STIM_009.jpg	99
1269.636	0.724	724.0	0back	Block2	0back/STIM_010.jpg	100
1274.046	0.523	522.9	0back	Block2	0back/STIM_010.jpg	99
1276.745	0.617	617.2	0back	Block2	0back/STIM_010.jpg	100
1280.742	0.753	752.8	0back	Block2	0back/STIM_011.jpg	99
1284.082	0.433	432.7	0back	Block2	0back/STIM_011.jpg	100
1288.183	0.529	528.9	0back	Block2	0back/STIM_011.jpg	100
1291.159	0.786	786.4	0back	Block2	0back/STIM_012.jpg	100
1294.084	0.825	825.3	0back	Block2	0back/STIM_012.jpg	100
1297.499	0.49	490.1	0back	Block2	0back/STIM_012.jpg	99
1301.15	0.591	590.6	0back	Block2	0back/STIM_013.jpg	100
1304.039	0.683	682.7	0back	Block2	0back/STIM_013.jpg	100
1307.458	0.635	635.0	0back	Block2	0back/STIM_013.jpg	99
1311.615	0.508	508.5	0back	Block2	0back/STIM_014.jpg	99
1314.212	0.456	456.0	0back	Block2	0back/STIM_014.jpg	100
1317.219	0.716	716.5	0back	Block2	0back/STIM_014.jpg	99
1321.537	0.722	722.2	0back	Block2	0back/STIM_015.jpg	100
1324.24	0.748	748.1	0back	Block2	0back/STIM_015.jpg	99
1328.351	0.618	618.1	0back	Block2	0back/STIM_015.jpg	99
1332.312	0.748	747.6	0back	Block2	0back/STIM_016.jpg	99
1336.206	0.553	552.9	0back	Block2	0back/STIM_016.jpg	99
1340.559	0.605	605.1	0back	Block2	0back/STIM_016.jpg	99
1344.842	0.669	669.1	0back	Block2	0back/STIM_017.jpg	99
1348.733	0.624	623.7	0back	Block2	0back/STIM_017.jpg	100
1351.933	0.66	660.5	0back	Block2	0back/STIM_017.jpg	100
1354.925	0.621	620.9	0back	Block2	0back/STIM_018.jpg	100
1358.046	0.654	654.3	0back	Block2	0back/STIM_018.jpg	99
1361.52	0.736	735.7	0back	Block2	0back/STIM_018.jpg	99
1365.1	0.576	575.8	0back	Block2	0back/STIM_019.jpg	99
1369.507	0.551	551.4	0back	Block2	0back/STIM_019.jpg	100
1373.886	0.447	446.8	0back	Block2	0back/STIM_019.jpg	100
1377.863	0.782	781.6	2back	Block3	2back/STIM_000.jpg	100
1380.682	0.809	808.6	2back	Block3	2back/STIM_000.jpg	100
1383.703	0.478	478.3	2back	Block3	2back/STIM_000.jpg	100
1387.702	0.793	792.7	2back	Block3	2back/STIM_001.jpg	99
1391.171	0.975	975.3	2back	Block3	2back/STIM_001.jpg	100
1394.241	1.004	1003.9	2back	Block3	2back/STIM_001.jpg	99
1398.852	0.585	584.7	2back	Block3	2back/STIM_002.jpg	99
1403.094	0.739	738.9	2back	Block3	2back/STIM_002.jpg	99
1406.733	0.95	949.9	2back	Block3	2back/STIM_002.jpg	99
1410.427	0.837	837.1	2back	Block3	2back/STIM_003.jpg	99
1415.186	0.706	705.8	2back	Block3	2back/STIM_003.jpg	100
1419.733	0.723	723.3	2back	Block3	2back/STIM_003.jpg	100
1423.828	0.809	809.4	2back	Block3	2back/STIM_004.jpg	99
1427.605	0.721	720.8	2back	Block3	2back/STIM_004.jpg	99
1431.125	0.722	722.0	2back	Block3	2back/STIM_004.jpg	100
1435.365	0.965	965.2	2back	Block3	2back/STIM_005.jpg	100
1439.501	0.745	744.7	2back	Block3	2back/STIM_005.jpg	100
1443.772	1.005	1004.6	2back	Block3	2back/STIM_005.jpg	99
1447.585	0.526	525.5	2back	Block3	2back/STIM_006.jpg	100
1452.04	0.529	528.8	2back	Block3	2back/STIM_006.jpg	100
1456.032	0.514	514.4	2back	Block3	2back/STIM_006.jpg	99
1459.308	0.592	592.2	2back	Block3	2back/STIM_007.jpg	99
1462.868	1.022	1021.8	2back	Block3	2back/STIM_007.jpg	99
1466.703	0.892	891.9	2back	Block3	2back/STIM_007.jpg	99
1469.81	0.55	550.0	2back	Block3	2back/STIM_008.jpg	99
1473.352	1.0	999.7	2back	Block3	2back/STIM_008.jpg	99
1476.389	0.941	940.8	2back	Block3	2back/STIM_008.jpg	99
1480.429	0.782	781.8	2back	Block3	2back/STIM_009.jpg	99
1484.755	0.966	965.5	2back	Block3	2back/STIM_009.jpg	100
1488.348	0.663	662.8	2back	Block3	2back/STIM_009.jpg	99
1492.186	0.898	897.9	2back	Block3	2back/STIM_010.jpg	100
1495.397	1.028	1028.0	2back	Block3	2back/STIM_010.jpg	99
1499.644	0.84	840.0	2back	Block3	2back/STIM_010.jpg	99
1503.122	0.715	715.1	2back	Block3	2back/STIM_011.jpg	99
1506.38	0.775	775.1	2back	Block3	2back/STIM_011.jpg	100
1510.895	0.943	942.8	2back	Block3	2back/STIM_011.jpg	100
1515.533	0.776	775.7	2back	Block3	2back/STIM_012.jpg	100
1518.936	0.628	627.6	2back	Block3	2back/STIM_012.jpg	100
1522.484	0.674	674.0	2back	Block3	2back/STIM_012.jpg	99
1525.746	0.942	942.5	2back	Block3	2back/STIM_013.jpg	100
1530.465	0.804	804.2	2back	Block3	2back/STIM_013.jpg	99
1534.889	0.835	834.8	2back	Block3	2back/STIM_013.jpg	100
1538.64	0.742	742.2	2back	Block3	2back/STIM_014.jpg	99
1543.195	0.972	972.5	2back	Block3	2back/STIM_014.jpg	99
1546.587	0.525	524.9	2back	Block3	2back/STIM_014.jpg	99
1550.646	0.738	737.8	2back	Block3	2back/STIM_015.jpg	99
1553.725	0.996	996.4	2back	Block3	2back/STIM_015.jpg	99
1557.922	0.621	620.9	2back	Block3	2back/STIM_015.jpg	99
1562.069	0.489	489.4	2back	Block3	2back/STIM_016.jpg	99
1564.701	0.973	973.2	2back	Block3	2back/STIM_016.jpg	100
1569.461	0.886	885.9	2back	Block3	2back/STIM_016.jpg	100
1572.861	0.705	705.2	2back	Block3	2back/STIM_017.jpg	99
1575.913	0.68	680.5	2back	Block3	2back/STIM_017.jpg	99
1578.58	0.658	657.6	2back	Block3	2back/STIM_017.jpg	100
1582.063	0.884	884.2	2back	Block3	2back/STIM_018.jpg	99
1585.182	0.635	635.4	2back	Block3	2back/STIM_018.jpg	100
1588.374	0.828	828.3	2back	Block3	2back/STIM_018.jpg	99
1591.426	0.514	513.9	2back	Block3	2back/STIM_019.jpg	100
1594.729	0.672	672.3	2back	Block3	2back/STIM_019.jpg	99
1597.902	0.815	814.7	2back	Block3	2back/STIM_019.jpg	99
1602.135	0.751	750.8	2back	Block3	2back/STIM_020.jpg	99
1605.922	0.71	709.6	2back	Block3	2back/STIM_020.jpg	100
1609.907	0.605	605.0	2back	Block3	2back/STIM_020.jpg	99
1613.283	0.948	947.7	2back	Block3	2back/STIM_021.jpg	100
1618.149	0.855	855.1	2back	Block3	2back/STIM_021.jpg	100
1622.16	0.463	463.1	2back	Block3	2back/STIM_021.jpg	100
1626.439	0.745	745.0	2back	Block3	2back/STIM_022.jpg	100
1629.176	0.946	946.2	2back	Block3	2back/STIM_022.jpg	99
1633.127	0.806	806.5	2back	Block3	2back/STIM_022.jpg	99
1636.542	0.693	692.9	2back	Block3	2back/STIM_023.jpg	100
1640.07	0.723	722.8	2back	Block3	2back/STIM_023.jpg	100
1643.891	0.535	534.8	2back	Block3	2back/STIM_023.jpg	100
1646.874	0.536	536.3	2back	Block3	2back/STIM_024.jpg	99
1650.666	0.859	858.8	2back	Block3	2back/STIM_024.jpg	99
1654.068	0.965	965.2	2back	Block3	2back/STIM_024.jpg	99
1657.186	0.887	887.1	2back	Block3	2back/STIM_025.jpg	100
1660.288	1.004	1004.0	2back	Block3	2back/STIM_025.jpg	99
1663.774	0.849	849.1	2back	Block3	2back/STIM_025.jpg	99
1667.285	0.905	904.8	2back	Block3	2back/STIM_026.jpg	99
1670.575	0.834	834.4	2back	Block3	2back/STIM_026.jpg	100
1674.004	1.014	1014.3	2back	Block3	2back/STIM_026.jpg	100
1677.966	0.476	475.8	2back	Block3	2back/STIM_027.jpg	99
1681.521	0.917	917.4	2back	Block3	2back/STIM_027.jpg	100
1684.725	0.993	993.2	2back	Block3	2back/STIM_027.jpg	100
1688.984	0.73	729.9	2back	Block3	2back/STIM_028.jpg	100
1692.815	0.943	943.1	2back	Block3	2back/STIM_028.jpg	100
1697.454	0.654	653.5	2back	Block3	2back/STIM_028.jpg	100
1700.283	1.022	1022.5	2back	Block3	2back/STIM_029.jpg	100
1703.802	0.845	845.4	2back	Block3	2back/STIM_029.jpg	100
1707.694	0.625	625.4	2back	Block3	2back/STIM_029.jpg	100
1710.992	0.559	559.2	2back	Block3	2back/STIM_030.jpg	99
1713.629	0.784	783.6	2back	Block3	2back/STIM_030.jpg	100
1717.595	0.635	635.3	2back	Block3	2back/STIM_030.jpg	99
1721.068	0.72	719.8	2back	Block3	2back/STIM_031.jpg	100
1723.801	0.643	642.6	2back	Block3	2back/STIM_031.jpg	99
1727.371	0.856	855.5	2back	Block3	2back/STIM_031.jpg	99
1732.018	0.775	775.3	2back	Block3	2back/STIM_032.jpg	99
1735.168	0.629	629.2	2back	Block3	2back/STIM_032.jpg	99
1738.658	0.586	585.6	2back	Block3	2back/STIM_032.jpg	100
1742.045	0.625	624.9	2back	Block3	2back/STIM_033.jpg	100
1746.479	0.897	896.8	2back	Block3	2back/STIM_033.jpg	99
1749.554	0.488	488.1	2back	Block3	2back/STIM_033.jpg	100
1753.674	1.02	1020.2	2back	Block3	2back/STIM_034.jpg	99
1757.373	0.718	718.5	2back	Block3	2back/STIM_034.jpg	99
1760.126	0.535	535.1	2back	Block3	2back/STIM_034.jpg	100
1764.369	0.857	857.3	2back	Block3	2back/STIM_035.jpg	99
1767.468	1.03	1029.8	2back	Block3	2back/STIM_035.jpg	100
1771.983	0.633	633.1	2back	Block3	2back/STIM_035.jpg	99
1775.452	0.952	951.5	2back	Block3	2back/STIM_036.jpg	99
1778.944	0.726	726.1	2back	Block3	2back/STIM_036.jpg	100
1782.482	0.883	882.7	2back	Block3	2back/STIM_036.jpg	100
1786.637	0.564	564.4	2back	Block3	2back/STIM_037.jpg	99
1790.547	0.53	530.3	2back	Block3	2back/STIM_037.jpg	100
1794.859	1.023	1023.4	2back	Block3	2back/STIM_037.jpg	99
1798.065	0.91	909.8	2back	Block3	2back/STIM_038.jpg	99
1801.154	0.802	801.9	2back	Block3	2back/STIM_038.jpg	99
1805.853	0.964	964.0	2back	Block3	2back/STIM_038.jpg	99
1810.276	0.7	699.8	2back	Block3	2back/STIM_039.jpg	100
1813.328	0.635	635.1	2back	Block3	2back/STIM_039.jpg	99
1816.995	0.576	575.9	2back	Block3	2back/STIM_039.jpg	100
1820.658	0.494	494.3	0back	Block3	0back/STIM_000.jpg	100
1823.309	0.566	565.7	0back	Block3	0back/STIM_000.jpg	100
1827.572	0.716	715.9	0back	Block3	0back/STIM_000.jpg	100
1830.966	0.466	466.2	0back	Block3	0back/STIM_001.jpg	100
1833.528	0.426	426.1	0back	Block3	0back/STIM_001.jpg	100
1836.201	0.538	537.7	0back	Block3	0back/STIM_001.jpg	100
1838.843	0.814	813.9	0back	Block3	0back/STIM_002.jpg	99
1843.467	0.45	450.5	0back	Block3	0back/STIM_002.jpg	100
1847.139	0.533	532.6	0back	Block3	0back/STIM_002.jpg	99
1850.639	0.843	843.4	0back	Block3	0back/STIM_003.jpg	100
1855.197	0.806	805.6	0back	Block3	0back/STIM_003.jpg	100
1859.243	0.747	746.8	0back	Block3	0back/STIM_003.jpg	99
1862.756	0.562	561.9	0back	Block3	0back/STIM_004.jpg	100
1865.535	0.656	655.8	0back	Block3	0back/STIM_004.jpg	99
1869.915	0.484	484.2	0back	Block3	0back/STIM_004.jpg	100
1873.915	0.834	833.8	0back	Block3	0back/STIM_005.jpg	100
1878.401	0.453	453.3	0back	Block3	0back/STIM_005.jpg	100
1882.119	0.799	798.7	0back	Block3	0back/STIM_005.jpg	100
1885.747	0.55	550.4	0back	Block3	0back/STIM_006.jpg	99
1889.778	0.487	487.3	0back	Block3	0back/STIM_006.jpg	100
1892.502	0.43	430.2	0back	Block3	0back/STIM_006.jpg	100
1895.965	0.527	527.0	0back	Block3	0back/STIM_007.jpg	99
1900.34	0.652	651.6	0back	Block3	0back/STIM_007.jpg	100
1903.196	0.747	747.4	0back	Block3	0back/STIM_007.jpg	100
1906.757	0.429	429.1	0back	Block3	0back/STIM_008.jpg	100
1909.168	0.565	564.7	0back	Block3	0back/STIM_008.jpg	100
1912.003	0.487	487.2	0back	Block3	0back/STIM_008.jpg	100
1914.917	0.801	801.4	0back	Block3	0back/STIM_009.jpg	100
1917.753	0.819	819.1	0back	Block3	0back/STIM_009.jpg	100
1920.981	0.462	462.0	0back	Block3	0back/STIM_009.jpg	99
1924.295	0.76	760.5	0back	Block3	0back/STIM_010.jpg	100
1928.645	0.778	777.5	0back	Block3	0back/STIM_010.jpg	100
1932.188	0.757	757.1	0back	Block3	0back/STIM_010.jpg	100
1935.154	0.665	665.4	0back	Block3	0back/STIM_011.jpg	99
1938.454	0.605	605.1	0back	Block3	0back/STIM_011.jpg	100
1942.306	0.84	840.1	0back	Block3	0back/STIM_011.jpg	100
1946.662	0.626	626.5	0back	Block3	0back/STIM_012.jpg	100
1950.054	0.464	463.7	0back	Block3	0back/STIM_012.jpg	100
1953.883	0.44	440.2	0back	Block3	0back/STIM_012.jpg	100
1956.607	0.836	836.1	0back	Block3	0back/STIM_013.jpg	100
1960.62	0.48	479.9	0back	Block3	0back/STIM_013.jpg	99
1964.159	0.762	761.6	0back	Block3	0back/STIM_013.jpg	100
1967.238	0.424	424.3	0back	Block3	0back/STIM_014.jpg	100
1971.418	0.55	549.9	0back	Block3	0back/STIM_014.jpg	100
1974.944	0.511	510.8	0back	Block3	0back/STIM_014.jpg	100
1978.901	0.582	581.7	0back	Block3	0back/STIM_015.jpg	100
1982.504	0.685	685.4	0back	Block3	0back/STIM_015.jpg	100
1985.773	0.822	821.9	0back	Block3	0back/STIM_015.jpg	99
1989.231	0.77	770.2	0back	Block3	0back/STIM_016.jpg	100
1993.914	0.636	635.9	0back	Block3	0back/STIM_016.jpg	100
1997.115	0.581	580.8	0back	Block3	0back/STIM_016.jpg	100
2000.02	0.53	529.8	0back	Block3	0back/STIM_017.jpg	100
2002.895	0.768	768.5	0back	Block3	0back/STIM_017.jpg	100
2006.877	0.73	730.4	0back	Block3	0back/STIM_017.jpg	100
2010.141	0.629	628.9	0back	Block3	0back/STIM_018.jpg	100
2013.436	0.53	530.1	0back	Block3	0back/STIM_018.jpg	100
2017.452	0.671	671.3	0back	Block3	0back/STIM_018.jpg	100
2020.708	0.798	797.9	0back	Block3	0back/STIM_019.jpg	99
2024.442	0.502	501.9	0back	Block3	0back/STIM_019.jpg	99
2028.756	0.759	758.9	0back	Block3	0back/STIM_019.jpg	99
2032.871	0.609	608.9	2back	Block4	2back/STIM_000.jpg	100
2036.465	0.675	675.3	2back	Block4	2back/STIM_000.jpg	100
2040.724	0.957	956.9	2back	Block4	2back/STIM_000.jpg	100
2044.148	0.635	634.6	2back	Block4	2back/STIM_001.jpg	99
2047.012	0.722	721.5	2back	Block4	2back/STIM_001.jpg	99
2050.449	0.962	961.9	2back	Block4	2back/STIM_001.jpg	99
2053.849	0.48	480.2	2back	Block4	2back/STIM_002.jpg	100
2056.33	0.646	645.9	2back	Block4	2back/STIM_002.jpg	100
2059.61	0.754	753.8	2back	Block4	2back/STIM_002.jpg	99
2063.645	0.461	460.7	2back	Block4	2back/STIM_003.jpg	100
2067.813	1.0	1000.0	2back	Block4	2back/STIM_003.jpg	100
2071.962	0.606	605.8	2back	Block4	2back/STIM_003.jpg	99
2075.714	0.5	499.6	2back	Block4	2back/STIM_004.jpg	99
2079.485	0.68	679.5	2back	Block4	2back/STIM_004.jpg	99
2082.425	0.502	502.3	2back	Block4	2back/STIM_004.jpg	100
2085.056	0.958	957.5	2back	Block4	2back/STIM_005.jpg	100
2088.206	0.522	521.7	2back	Block4	2back/STIM_005.jpg	99
2092.447	0.8	799.6	2back	Block4	2back/STIM_005.jpg	99
2096.591	0.45	450.4	2back	Block4	2back/STIM_006.jpg	100
2099.951	0.587	586.7	2back	Block4	2back/STIM_006.jpg	100
2103.098	0.74	739.5	2back	Block4	2back/STIM_006.jpg	99
2106.593	0.483	483.4	2back	Block4	2back/STIM_007.jpg	100
2111.015	0.558	558.2	2back	Block4	2back/STIM_007.jpg	100
2115.142	0.814	813.9	2back	Block4	2back/STIM_007.jpg	99
2119.611	0.929	929.4	2back	Block4	2back/STIM_008.jpg	99
2124.485	0.905	905.2	2back	Block4	2back/STIM_008.jpg	100
2128.911	0.972	972.1	2back	Block4	2back/STIM_008.jpg	100
2133.515	0.774	774.0	2back	Block4	2back/STIM_009.jpg	100
2138.204	0.613	613.3	2back	Block4	2back/STIM_009.jpg	100
2142.768	0.97	969.7	2back	Block4	2back/STIM_009.jpg	100
2146.688	0.469	468.9	2back	Block4	2back/STIM_010.jpg	99
2150.365	0.632	631.7	2back	Block4	2back/STIM_010.jpg	99
2153.741	0.618	618.4	2back	Block4	2back/STIM_010.jpg	100
2157.226	0.772	772.2	2back	Block4	2back/STIM_011.jpg	100
2161.132	0.852	852.3	2back	Block4	2back/STIM_011.jpg	99
2164.063	0.992	992.2	2back	Block4	2back/STIM_011.jpg	100
2168.733	0.945	944.9	2back	Block4	2back/STIM_012.jpg	99
2172.489	0.966	966.1	2back	Block4	2back/STIM_012.jpg	100
2175.892	0.735	735.4	2back	Block4	2back/STIM_012.jpg	100
2180.221	0.98	980.2	2back	Block4	2back/STIM_013.jpg	100
2184.194	0.734	734.5	2back	Block4	2back/STIM_013.jpg	99
2187.156	0.982	981.7	2back	Block4	2back/STIM_013.jpg	100
2191.524	0.522	521.8	2back	Block4	2back/STIM_014.jpg	99
2194.699	0.458	458.2	2back	Block4	2back/STIM_014.jpg	100
2197.745	0.499	499.1	2back	Block4	2back/STIM_014.jpg	99
2201.509	0.492	492.3	2back	Block4	2back/STIM_015.jpg	100
2205.372	0.918	918.4	2back	Block4	2back/STIM_015.jpg	100
2208.293	0.655	655.2	2back	Block4	2back/STIM_015.jpg	100
2212.779	0.728	728.5	2back	Block4	2back/STIM_016.jpg	100
2216.186	0.727	727.0	2back	Block4	2back/STIM_016.jpg	100
2220.677	0.678	678.1	2back	Block4	2back/STIM_016.jpg	99
2223.61	0.939	938.9	2back	Block4	2back/STIM_017.jpg	99
2226.907	0.611	611.1	2back	Block4	2back/STIM_017.jpg	100
2230.247	0.823	823.1	2back	Block4	2back/STIM_017.jpg	100
2234.155	0.558	557.8	2back	Block4	2back/STIM_018.jpg	100
2237.567	0.712	711.7	2back	Block4	2back/STIM_018.jpg	100
2240.322	0.734	733.6	2back	Block4	2back/STIM_018.jpg	99
2243.651	0.975	974.8	2back	Block4	2back/STIM_019.jpg	99
2248.033	0.713	713.4	2back	Block4	2back/STIM_019.jpg	99
2252.586	0.723	723.1	2back	Block4	2back/STIM_019.jpg	100
2257.229	0.892	892.0	2back	Block4	2back/STIM_020.jpg	100
2260.385	0.705	704.7	2back	Block4	2back/STIM_020.jpg	100
2264.923	0.531	530.7	2back	Block4	2back/STIM_020.jpg	99
2269.012	0.854	853.9	2back	Block4	2back/STIM_021.jpg	100
2272.924	0.723	723.1	2back	Block4	2back/STIM_021.jpg	100
2275.641	0.526	525.8	2back	Block4	2back/STIM_021.jpg	99
2278.54	0.468	468.1	2back	Block4	2back/STIM_022.jpg	99
2282.219	0.906	905.8	2back	Block4	2back/STIM_022.jpg	99
2285.185	0.585	585.2	2back	Block4	2back/STIM_022.jpg	100
2289.007	0.97	969.7	2back	Block4	2back/STIM_023.jpg	100
2293.296	0.671	670.8	2back	Block4	2back/STIM_023.jpg	99
2297.032	0.809	808.8	2back	Block4	2back/STIM_023.jpg	100
2301.142	1.016	1015.5	2back	Block4	2back/STIM_024.jpg	100
2304.468	0.691	691.0	2back	Block4	2back/STIM_024.jpg	100
2307.585	0.607	606.8	2back	Block4	2back/STIM_024.jpg	100
2310.926	0.672	672.5	2back	Block4	2back/STIM_025.jpg	100
2315.057	0.697	696.6	2back	Block4	2back/STIM_025.jpg	100
2318.058	0.632	632.0	2back	Block4	2back/STIM_025.jpg	100
2320.716	0.544	543.8	2back	Block4	2back/STIM_026.jpg	99
2324.792	1.024	1024.3	2back	Block4	2back/STIM_026.jpg	99
2329.167	0.75	749.5	2back	Block4	2back/STIM_026.jpg	100
2332.902	0.794	793.7	2back	Block4	2back/STIM_027.jpg	99
2337.443	1.024	1023.5	2back	Block4	2back/STIM_027.jpg	99
2341.096	0.739	739.0	2back	Block4	2back/STIM_027.jpg	100
2344.147	0.562	561.6	2back	Block4	2back/STIM_028.jpg	100
2347.665	0.996	996.3	2back	Block4	2back/STIM_028.jpg	100
2351.926	0.659	659.0	2back	Block4	2back/STIM_028.jpg	99
2355.807	0.695	694.6	2back	Block4	2back/STIM_029.jpg	100
2358.706	0.851	851.1	2back	Block4	2back/STIM_029.jpg	99
2362.43	0.839	839.2	2back	Block4	2back/STIM_029.jpg	99
2365.925	0.515	514.8	2back	Block4	2back/STIM_030.jpg	100
2369.914	0.884	884.3	2back	Block4	2back/STIM_030.jpg	100
2373.186	0.939	939.0	2back	Block4	2back/STIM_030.jpg	99
2377.722	1.008	1007.8	2back	Block4	2back/STIM_031.jpg	99
2381.783	0.475	474.8	2back	Block4	2back/STIM_031.jpg	100
2385.742	1.028	1027.5	2back	Block4	2back/STIM_031.jpg	99
2390.392	0.587	586.6	2back	Block4	2back/STIM_032.jpg	99
2394.233	0.974	973.5	2back	Block4	2back/STIM_032.jpg	100
2398.276	0.611	611.4	2back	Block4	2back/STIM_032.jpg	99
2400.894	0.85	849.5	2back	Block4	2back/STIM_033.jpg	100
2404.054	0.58	579.7	2back	Block4	2back/STIM_033.jpg	100
2408.178	0.697	697.0	2back	Block4	2back/STIM_033.jpg	100
2412.749	0.625	624.6	2back	Block4	2back/STIM_034.jpg	100
2416.873	0.557	557.0	2back	Block4	2back/STIM_034.jpg	99
2421.093	0.454	453.7	2back	Block4	2back/STIM_034.jpg	100
2424.848	0.747	747.3	2back	Block4	2back/STIM_035.jpg	99
2428.395	0.782	782.0	2back	Block4	2back/STIM_035.jpg	99
2431.443	0.498	498.0	2back	Block4	2back/STIM_035.jpg	99
2435.446	0.532	532.3	2back	Block4	2back/STIM_036.jpg	100
2439.2	0.447	446.9	2back	Block4	2back/STIM_036.jpg	100
2441.876	0.741	740.8	2back	Block4	2back/STIM_036.jpg	100
2445.477	0.551	551.0	2back	Block4	2back/STIM_037.jpg	99
2449.583	0.631	630.8	2back	Block4	2back/STIM_037.jpg	100
2452.996	0.739	739.1	2back	Block4	2back/STIM_037.jpg	99
2455.981	0.771	771.1	2back	Block4	2back/STIM_038.jpg	99
2460.71	0.466	466.0	2back	Block4	2back/STIM_038.jpg	100
2464.95	0.726	725.8	2back	Block4	2back/STIM_038.jpg	100
2468.105	0.709	709.2	2back	Block4	2back/STIM_039.jpg	99
2471.754	0.756	755.8	2back	Block4	2back/STIM_039.jpg	99
2474.946	0.472	471.8	2back	Block4	2back/STIM_039.jpg	100
2479.159	0.428	427.6	0back	Block4	0back/STIM_000.jpg	99
2482.832	0.755	755.2	0back	Block4	0back/STIM_000.jpg	100
2486.683	0.462	462.1	0back	Block4	0back/STIM_000.jpg	100
2489.466	0.703	702.8	0back	Block4	0back/STIM_001.jpg	99
2493.364	0.442	442.0	0back	Block4	0back/STIM_001.jpg	99
2497.383	0.721	720.9	0back	Block4	0back/STIM_001.jpg	100
2501.622	0.517	516.6	0back	Block4	0back/STIM_002.jpg	100
2504.747	0.796	796.3	0back	Block4	0back/STIM_002.jpg	99
2507.585	0.773	773.2	0back	Block4	0back/STIM_002.jpg	100
2510.714	0.632	632.1	0back	Block4	0back/STIM_003.jpg	99
2514.251	0.711	710.7	0back	Block4	0back/STIM_003.jpg	99
2517.027	0.761	760.7	0back	Block4	0back/STIM_003.jpg	99
2519.986	0.584	584.4	0back	Block4	0back/STIM_004.jpg	99
2522.805	0.523	523.1	0back	Block4	0back/STIM_004.jpg	99
2525.973	0.815	814.6	0back	Block4	0back/STIM_004.jpg	99
2529.134	0.462	462.3	0back	Block4	0back/STIM_005.jpg	100
2531.927	0.594	594.5	0back	Block4	0back/STIM_005.jpg	99
2534.693	0.505	505.0	0back	Block4	0back/STIM_005.jpg	100
2538.657	0.548	548.0	0back	Block4	0back/STIM_006.jpg	100
2541.259	0.82	819.5	0back	Block4	0back/STIM_006.jpg	99
2545.405	0.522	522.3	0back	Block4	0back/STIM_006.jpg	100
2549.195	0.697	697.1	0back	Block4	0back/STIM_007.jpg	100
2552.454	0.842	842.2	0back	Block4	0back/STIM_007.jpg	100
2556.811	0.613	613.4	0back	Block4	0back/STIM_007.jpg	100
2559.463	0.79	790.2	0back	Block4	0back/STIM_008.jpg	99
2562.58	0.628	627.6	0back	Block4	0back/STIM_008.jpg	99
2565.672	0.691	691.4	0back	Block4	0back/STIM_008.jpg	100
2569.272	0.522	521.9	0back	Block4	0back/STIM_009.jpg	100
2572.895	0.545	545.4	0back	Block4	0back/STIM_009.jpg	99
2575.427	0.821	821.0	0back	Block4	0back/STIM_009.jpg	100
2579.218	0.831	830.6	0back	Block4	0back/STIM_010.jpg	100
2582.641	0.686	685.6	0back	Block4	0back/STIM_010.jpg	99
2586.753	0.527	526.6	0back	Block4	0back/STIM_010.jpg	100
2590.03	0.438	437.9	0back	Block4	0back/STIM_011.jpg	100
2594.003	0.654	653.7	0back	Block4	0back/STIM_011.jpg	100
2596.887	0.62	619.9	0back	Block4	0back/STIM_011.jpg	99
2600.771	0.705	705.4	0back	Block4	0back/STIM_012.jpg	100
2604.616	0.688	688.0	0back	Block4	0back/STIM_012.jpg	99
2608.955	0.82	820.5	0back	Block4	0back/STIM_012.jpg	99
2611.86	0.602	601.9	0back	Block4	0back/STIM_013.jpg	100
2616.108	0.52	520.0	0back	Block4	0back/STIM_013.jpg	99
2620.099	0.82	820.4	0back	Block4	0back/STIM_013.jpg	99
2623.087	0.708	708.1	0back	Block4	0back/STIM_014.jpg	100
2627.657	0.611	610.8	0back	Block4	0back/STIM_014.jpg	100
2630.534	0.635	634.6	0back	Block4	0back/STIM_014.jpg	99
2633.826	0.544	544.0	0back	Block4	0back/STIM_015.jpg	100
2636.346	0.746	746.5	0back	Block4	0back/STIM_015.jpg	99
2639.116	0.432	431.7	0back	Block4	0back/STIM_015.jpg	99
2641.809	0.579	579.0	0back	Block4	0back/STIM_016.jpg	99
2645.898	0.554	554.5	0back	Block4	0back/STIM_016.jpg	99
2648.829	0.504	504.3	0back	Block4	0back/STIM_016.jpg	99
2652.905	0.547	547.2	0back	Block4	0back/STIM_017.jpg	99
2657.188	0.666	666.5	0back	Block4	0back/STIM_017.jpg	99
2661.655	0.584	583.6	0back	Block4	0back/STIM_017.jpg	99
2664.589	0.536	535.7	0back	Block4	0back/STIM_018.jpg	100
2669.008	0.696	696.5	0back	Block4	0back/STIM_018.jpg	100
2673.116	0.764	764.2	0back	Block4	0back/STIM_018.jpg	99
2676.673	0.842	841.7	0back	Block4	0back/STIM_019.jpg	100
2680.957	0.671	671.1	0back	Block4	0back/STIM_019.jpg	100
2685.361	0.673	672.6	0back	Block4	0back/STIM_019.jpg	100
