onset	duration	accuracy_binary	trial_type	learning_stage	stimulus
0.0	0.814	1	2back	Block1	2back/STIM_000.jpg
3.867	1.002	1	2back	Block1	2back/STIM_000.jpg
8.269	0.818	0	2back	Block1	2back/STIM_000.jpg
12.41	1.066	1	2back	Block1	2back/STIM_001.jpg
17.318	0.997	1	2back	Block1	2back/STIM_001.jpg
20.636	0.839	1	2back	Block1	2back/STIM_001.jpg
24.7	1.07	0	2back	Block1	2back/STIM_002.jpg
28.185	0.658	1	2back	Block1	2back/STIM_002.jpg
32.101	0.79	1	2back	Block1	2back/STIM_002.jpg
35.695	1.165	0	2back	Block1	2back/STIM_003.jpg
40.353	0.586	1	2back	Block1	2back/STIM_003.jpg
43.601	0.926	1	2back	Block1	2back/STIM_003.jpg
47.668	1.165	1	2back	Block1	2back/STIM_004.jpg
52.046	1.059	1	2back	Block1	2back/STIM_004.jpg
56.288	1.07	1	2back	Block1	2back/STIM_004.jpg
59.484	0.76	1	2back	Block1	2back/STIM_005.jpg
63.214	0.877	1	2back	Block1	2back/STIM_005.jpg
67.146	1.126	1	2back	Block1	2back/STIM_005.jpg
71.223	1.107	0	2back	Block1	2back/STIM_006.jpg
75.753	0.62	1	2back	Block1	2back/STIM_006.jpg
79.044	0.612	1	2back	Block1	2back/STIM_006.jpg
83.754	0.626	1	2back	Block1	2back/STIM_007.jpg
87.473	0.621	1	2back	Block1	2back/STIM_007.jpg
90.487	0.785	1	2back	Block1	2back/STIM_007.jpg
93.537	1.078	1	2back	Block1	2back/STIM_008.jpg
98.588	1.196	1	2back	Block1	2back/STIM_008.jpg
102.421	0.514	1	2back	Block1	2back/STIM_008.jpg
106.374	1.172	1	2back	Block1	2back/STIM_009.jpg
109.674	1.222	1	2back	Block1	2back/STIM_009.jpg
113.877	0.647	1	2back	Block1	2back/STIM_009.jpg
117.004	0.705	1	2back	Block1	2back/STIM_010.jpg
120.217	1.138	1	2back	Block1	2back/STIM_010.jpg
124.49	0.779	1	2back	Block1	2back/STIM_010.jpg
129.168	1.343	1	2back	Block1	2back/STIM_011.jpg
133.577	0.799	1	2back	Block1	2back/STIM_011.jpg
137.207	1.109	1	2back	Block1	2back/STIM_011.jpg
140.976	0.883	1	2back	Block1	2back/STIM_012.jpg
144.28	0.565	1	2back	Block1	2back/STIM_012.jpg
148.541	0.987	1	2back	Block1	2back/STIM_012.jpg
152.363	1.156	1	2back	Block1	2back/STIM_013.jpg
157.467	1.192	1	2back	Block1	2back/STIM_013.jpg
161.332	0.776	1	2back	Block1	2back/STIM_013.jpg
164.537	0.905	1	2back	Block1	2back/STIM_014.jpg
168.737	1.297	1	2back	Block1	2back/STIM_014.jpg
172.226	1.059	1	2back	Block1	2back/STIM_014.jpg
175.422	1.032	1	2back	Block1	2back/STIM_015.jpg
179.903	0.924	1	2back	Block1	2back/STIM_015.jpg
184.269	1.104	1	2back	Block1	2back/STIM_015.jpg
188.767	0.708	1	2back	Block1	2back/STIM_016.jpg
193.263	0.985	1	2back	Block1	2back/STIM_016.jpg
196.493	1.126	1	2back	Block1	2back/STIM_016.jpg
200.621	0.956	1	2back	Block1	2back/STIM_017.jpg
205.079	0.756	1	2back	Block1	2back/STIM_017.jpg
209.214	0.848	1	2back	Block1	2back/STIM_017.jpg
212.507	1.33	1	2back	Block1	2back/STIM_018.jpg
217.286	0.84	1	2back	Block1	2back/STIM_018.jpg
221.347	0.883	1	2back	Block1	2back/STIM_018.jpg
224.653	0.745	1	2back	Block1	2back/STIM_019.jpg
227.546	1.203	0	2back	Block1	2back/STIM_019.jpg
231.605	1.073	1	2back	Block1	2back/STIM_019.jpg
235.343	1.211	1	2back	Block1	2back/STIM_020.jpg
240.31	0.726	1	2back	Block1	2back/STIM_020.jpg
243.343	1.065	1	2back	Block1	2back/STIM_020.jpg
247.558	1.053	1	2back	Block1	2back/STIM_021.jpg
252.296	0.898	1	2back	Block1	2back/STIM_021.jpg
256.728	0.976	1	2back	Block1	2back/STIM_021.jpg
260.123	1.141	1	2back	Block1	2back/STIM_022.jpg
263.448	0.627	0	2back	Block1	2back/STIM_022.jpg
266.148	0.789	0	2back	Block1	2back/STIM_022.jpg
270.021	0.733	1	2back	Block1	2back/STIM_023.jpg
273.022	1.234	1	2back	Block1	2back/STIM_023.jpg
277.151	0.712	1	2back	Block1	2back/STIM_023.jpg
280.947	0.758	1	2back	Block1	2back/STIM_024.jpg
284.026	0.542	1	2back	Block1	2back/STIM_024.jpg
288.158	0.516	1	2back	Block1	2back/STIM_024.jpg
291.741	0.726	1	2back	Block1	2back/STIM_025.jpg
295.068	0.69	1	2back	Block1	2back/STIM_025.jpg
298.247	0.509	1	2back	Block1	2back/STIM_025.jpg
300.958	1.118	1	2back	Block1	2back/STIM_026.jpg
305.904	0.712	1	2back	Block1	2back/STIM_026.jpg
310.286	0.767	0	2back	Block1	2back/STIM_026.jpg
313.969	1.031	1	2back	Block1	2back/STIM_027.jpg
318.891	1.065	1	2back	Block1	2back/STIM_027.jpg
323.984	1.081	0	2back	Block1	2back/STIM_027.jpg
327.858	0.928	1	2back	Block1	2back/STIM_028.jpg
332.297	0.699	0	2back	Block1	2back/STIM_028.jpg
336.228	1.075	1	2back	Block1	2back/STIM_028.jpg
340.49	0.659	1	2back	Block1	2back/STIM_029.jpg
344.728	0.812	1	2back	Block1	2back/STIM_029.jpg
347.966	0.91	1	2back	Block1	2back/STIM_029.jpg
351.955	0.869	1	2back	Block1	2back/STIM_030.jpg
355.994	0.872	1	2back	Block1	2back/STIM_030.jpg
360.845	0.851	1	2back	Block1	2back/STIM_030.jpg
364.265	0.725	1	2back	Block1	2back/STIM_031.jpg
367.779	1.124	1	2back	Block1	2back/STIM_031.jpg
372.189	1.133	0	2back	Block1	2back/STIM_031.jpg
376.32	0.804	1	2back	Block1	2back/STIM_032.jpg
379.403	0.827	1	2back	Block1	2back/STIM_032.jpg
384.27	0.946	1	2back	Block1	2back/STIM_032.jpg
387.67	1.011	1	2back	Block1	2back/STIM_033.jpg
391.799	0.683	1	2back	Block1	2back/STIM_033.jpg
396.497	0.487	1	2back	Block1	2back/STIM_033.jpg
399.147	0.593	1	2back	Block1	2back/STIM_034.jpg
402.031	0.712	0	2back	Block1	2back/STIM_034.jpg
406.677	0.482	1	2back	Block1	2back/STIM_034.jpg
409.326	1.206	0	2back	Block1	2back/STIM_035.jpg
413.918	0.975	1	2back	Block1	2back/STIM_035.jpg
417.771	0.95	1	2back	Block1	2back/STIM_035.jpg
421.841	0.593	1	2back	Block1	2back/STIM_036.jpg
425.799	0.889	1	2back	Block1	2back/STIM_036.jpg
429.467	1.187	1	2back	Block1	2back/STIM_036.jpg
434.156	0.539	1	2back	Block1	2back/STIM_037.jpg
437.851	1.177	1	2back	Block1	2back/STIM_037.jpg
442.97	1.083	1	2back	Block1	2back/STIM_037.jpg
446.447	0.888	1	2back	Block1	2back/STIM_038.jpg
450.107	0.814	1	2back	Block1	2back/STIM_038.jpg
452.96	0.899	1	2back	Block1	2back/STIM_038.jpg
456.302	0.655	1	2back	Block1	2back/STIM_039.jpg
459.264	0.775	1	2back	Block1	2back/STIM_039.jpg
462.15	0.895	1	2back	Block1	2back/STIM_039.jpg
466.993	0.556	1	0back	Block1	0back/STIM_000.jpg
469.87	0.382	1	0back	Block1	0back/STIM_000.jpg
474.021	0.48	1	0back	Block1	0back/STIM_000.jpg
477.534	0.447	1	0back	Block1	0back/STIM_001.jpg
481.495	0.618	1	0back	Block1	0back/STIM_001.jpg
485.364	0.525	1	0back	Block1	0back/STIM_001.jpg
488.176	0.429	1	0back	Block1	0back/STIM_002.jpg
491.971	0.686	1	0back	Block1	0back/STIM_002.jpg
496.145	0.562	1	0back	Block1	0back/STIM_002.jpg
500.083	0.543	1	0back	Block1	0back/STIM_003.jpg
503.978	0.638	1	0back	Block1	0back/STIM_003.jpg
507.383	0.767	1	0back	Block1	0back/STIM_003.jpg
510.947	0.337	1	0back	Block1	0back/STIM_004.jpg
514.847	0.624	1	0back	Block1	0back/STIM_004.jpg
518.614	0.474	1	0back	Block1	0back/STIM_004.jpg
521.22	0.421	1	0back	Block1	0back/STIM_005.jpg
524.609	0.481	1	0back	Block1	0back/STIM_005.jpg
528.479	0.692	1	0back	Block1	0back/STIM_005.jpg
531.306	0.4	1	0back	Block1	0back/STIM_006.jpg
535.22	0.799	1	0back	Block1	0back/STIM_006.jpg
538.395	0.722	1	0back	Block1	0back/STIM_006.jpg
542.633	0.294	1	0back	Block1	0back/STIM_007.jpg
546.327	0.668	1	0back	Block1	0back/STIM_007.jpg
550.846	0.586	1	0back	Block1	0back/STIM_007.jpg
555.0	0.458	1	0back	Block1	0back/STIM_008.jpg
559.359	0.719	1	0back	Block1	0back/STIM_008.jpg
562.567	0.524	1	0back	Block1	0back/STIM_008.jpg
565.929	0.469	1	0back	Block1	0back/STIM_009.jpg
569.14	0.548	1	0back	Block1	0back/STIM_009.jpg
572.796	0.648	0	0back	Block1	0back/STIM_009.jpg
576.37	0.578	1	0back	Block1	0back/STIM_010.jpg
579.814	0.56	1	0back	Block1	0back/STIM_010.jpg
582.717	0.618	1	0back	Block1	0back/STIM_010.jpg
586.759	0.623	1	0back	Block1	0back/STIM_011.jpg
590.239	0.626	1	0back	Block1	0back/STIM_011.jpg
594.866	0.479	1	0back	Block1	0back/STIM_011.jpg
598.343	0.557	1	0back	Block1	0back/STIM_012.jpg
601.783	0.626	1	0back	Block1	0back/STIM_012.jpg
604.83	0.573	1	0back	Block1	0back/STIM_012.jpg
609.131	0.694	1	0back	Block1	0back/STIM_013.jpg
612.028	0.508	1	0back	Block1	0back/STIM_013.jpg
616.12	0.808	1	0back	Block1	0back/STIM_013.jpg
619.177	0.706	1	0back	Block1	0back/STIM_014.jpg
622.964	0.36	1	0back	Block1	0back/STIM_014.jpg
627.252	0.702	1	0back	Block1	0back/STIM_014.jpg
630.454	0.52	1	0back	Block1	0back/STIM_015.jpg
634.455	0.484	1	0back	Block1	0back/STIM_015.jpg
638.599	0.694	0	0back	Block1	0back/STIM_015.jpg
641.806	0.519	1	0back	Block1	0back/STIM_016.jpg
644.45	0.443	1	0back	Block1	0back/STIM_016.jpg
647.763	0.532	1	0back	Block1	0back/STIM_016.jpg
650.736	0.36	0	0back	Block1	0back/STIM_017.jpg
654.386	0.412	1	0back	Block1	0back/STIM_017.jpg
657.48	0.642	1	0back	Block1	0back/STIM_017.jpg
661.986	0.586	1	0back	Block1	0back/STIM_018.jpg
665.688	0.493	1	0back	Block1	0back/STIM_018.jpg
668.388	0.437	1	0back	Block1	0back/STIM_018.jpg
671.607	0.524	1	0back	Block1	0back/STIM_019.jpg
674.227	0.62	1	0back	Block1	0back/STIM_019.jpg
677.996	0.631	1	0back	Block1	0back/STIM_019.jpg
682.539	0.802	1	2back	Block2	2back/STIM_000.jpg
685.399	1.063	1	2back	Block2	2back/STIM_000.jpg
690.365	0.562	1	2back	Block2	2back/STIM_000.jpg
693.279	1.001	1	2back	Block2	2back/STIM_001.jpg
696.811	0.686	1	2back	Block2	2back/STIM_001.jpg
700.212	0.471	1	2back	Block2	2back/STIM_001.jpg
704.381	1.158	1	2back	Block2	2back/STIM_002.jpg
707.996	1.021	1	2back	Block2	2back/STIM_002.jpg
712.83	0.755	1	2back	Block2	2back/STIM_002.jpg
716.672	0.728	1	2back	Block2	2back/STIM_003.jpg
721.315	0.638	0	2back	Block2	2back/STIM_003.jpg
725.922	0.716	1	2back	Block2	2back/STIM_003.jpg
730.668	0.97	1	2back	Block2	2back/STIM_004.jpg
733.995	0.375	1	2back	Block2	2back/STIM_004.jpg
738.434	0.55	1	2back	Block2	2back/STIM_004.jpg
741.09	1.092	1	2back	Block2	2back/STIM_005.jpg
745.416	0.699	1	2back	Block2	2back/STIM_005.jpg
749.893	0.806	1	2back	Block2	2back/STIM_005.jpg
754.022	0.593	1	2back	Block2	2back/STIM_006.jpg
758.375	0.518	1	2back	Block2	2back/STIM_006.jpg
761.781	0.452	1	2back	Block2	2back/STIM_006.jpg
765.177	1.105	1	2back	Block2	2back/STIM_007.jpg
770.314	0.575	1	2back	Block2	2back/STIM_007.jpg
773.182	0.616	1	2back	Block2	2back/STIM_007.jpg
776.45	0.578	1	2back	Block2	2back/STIM_008.jpg
780.505	0.572	1	2back	Block2	2back/STIM_008.jpg
784.009	0.384	0	2back	Block2	2back/STIM_008.jpg
787.172	1.018	1	2back	Block2	2back/STIM_009.jpg
790.773	0.966	0	2back	Block2	2back/STIM_009.jpg
795.302	0.608	1	2back	Block2	2back/STIM_009.jpg
799.388	0.533	1	2back	Block2	2back/STIM_010.jpg
801.99	0.752	1	2back	Block2	2back/STIM_010.jpg
806.075	0.583	1	2back	Block2	2back/STIM_010.jpg
809.189	0.712	1	2back	Block2	2back/STIM_011.jpg
812.789	0.68	0	2back	Block2	2back/STIM_011.jpg
817.592	0.735	1	2back	Block2	2back/STIM_011.jpg
821.183	0.537	1	2back	Block2	2back/STIM_012.jpg
824.828	0.906	1	2back	Block2	2back/STIM_012.jpg
827.91	0.572	1	2back	Block2	2back/STIM_012.jpg
832.109	0.52	1	2back	Block2	2back/STIM_013.jpg
835.707	0.714	0	2back	Block2	2back/STIM_013.jpg
838.504	0.787	1	2back	Block2	2back/STIM_013.jpg
842.228	1.026	1	2back	Block2	2back/STIM_014.jpg
846.468	0.986	1	2back	Block2	2back/STIM_014.jpg
850.544	0.455	1	2back	Block2	2back/STIM_014.jpg
854.971	1.081	1	2back	Block2	2back/STIM_015.jpg
858.26	0.632	1	2back	Block2	2back/STIM_015.jpg
861.884	0.764	1	2back	Block2	2back/STIM_015.jpg
865.688	0.99	1	2back	Block2	2back/STIM_016.jpg
869.134	0.395	1	2back	Block2	2back/STIM_016.jpg
872.893	0.858	1	2back	Block2	2back/STIM_016.jpg
877.421	0.997	1	2back	Block2	2back/STIM_017.jpg
881.571	0.413	1	2back	Block2	2back/STIM_017.jpg
884.539	0.718	1	2back	Block2	2back/STIM_017.jpg
888.797	0.623	1	2back	Block2	2back/STIM_018.jpg
892.29	0.564	0	2back	Block2	2back/STIM_018.jpg
896.128	0.442	1	2back	Block2	2back/STIM_018.jpg
899.548	0.817	1	2back	Block2	2back/STIM_019.jpg
903.309	0.806	1	2back	Block2	2back/STIM_019.jpg
907.576	0.478	1	2back	Block2	2back/STIM_019.jpg
911.184	1.164	1	2back	Block2	2back/STIM_020.jpg
914.399	0.891	0	2back	Block2	2back/STIM_020.jpg
917.742	0.733	1	2back	Block2	2back/STIM_020.jpg
921.165	0.74	1	2back	Block2	2back/STIM_021.jpg
924.797	0.897	0	2back	Block2	2back/STIM_021.jpg
929.185	0.654	1	2back	Block2	2back/STIM_021.jpg
933.084	1.049	1	2back	Block2	2back/STIM_022.jpg
936.502	0.533	1	2back	Block2	2back/STIM_022.jpg
939.967	0.345	1	2back	Block2	2back/STIM_022.jpg
943.904	0.611	1	2back	Block2	2back/STIM_023.jpg
946.715	0.774	1	2back	Block2	2back/STIM_023.jpg
950.949	0.431	1	2back	Block2	2back/STIM_023.jpg
955.314	0.985	1	2back	Block2	2back/STIM_024.jpg
959.989	0.579	1	2back	Block2	2back/STIM_024.jpg
964.279	0.922	1	2back	Block2	2back/STIM_024.jpg
967.958	0.78	1	2back	Block2	2back/STIM_025.jpg
971.564	0.762	1	2back	Block2	2back/STIM_025.jpg
975.754	0.532	0	2back	Block2	2back/STIM_025.jpg
978.493	0.661	1	2back	Block2	2back/STIM_026.jpg
981.522	1.001	1	2back	Block2	2back/STIM_026.jpg
986.021	0.742	1	2back	Block2	2back/STIM_026.jpg
990.018	0.959	1	2back	Block2	2back/STIM_027.jpg
994.989	0.374	0	2back	Block2	2back/STIM_027.jpg
997.639	0.839	1	2back	Block2	2back/STIM_027.jpg
1000.931	1.075	1	2back	Block2	2back/STIM_028.jpg
1005.027	0.764	1	2back	Block2	2back/STIM_028.jpg
1008.053	0.594	1	2back	Block2	2back/STIM_028.jpg
1011.219	1.066	1	2back	Block2	2back/STIM_029.jpg
1015.083	0.518	1	2back	Block2	2back/STIM_029.jpg
1018.105	0.828	0	2back	Block2	2back/STIM_029.jpg
1022.338	1.008	1	2back	Block2	2back/STIM_030.jpg
1026.155	0.783	1	2back	Block2	2back/STIM_030.jpg
1030.26	0.76	1	2back	Block2	2back/STIM_030.jpg
1034.23	0.833	1	2back	Block2	2back/STIM_031.jpg
1038.395	0.9	1	2back	Block2	2back/STIM_031.jpg
1042.661	0.823	0	2back	Block2	2back/STIM_031.jpg
1046.98	1.118	1	2back	Block2	2back/STIM_032.jpg
1051.887	0.92	1	2back	Block2	2back/STIM_032.jpg
1055.461	0.691	1	2back	Block2	2back/STIM_032.jpg
1059.495	0.91	1	2back	Block2	2back/STIM_033.jpg
1063.865	0.914	1	2back	Block2	2back/STIM_033.jpg
1067.208	0.376	1	2back	Block2	2back/STIM_033.jpg
1071.078	0.633	0	2back	Block2	2back/STIM_034.jpg
1074.463	1.073	1	2back	Block2	2back/STIM_034.jpg
1078.63	0.83	1	2back	Block2	2back/STIM_034.jpg
1083.332	1.024	1	2back	Block2	2back/STIM_035.jpg
1087.966	0.647	1	2back	Block2	2back/STIM_035.jpg
1092.066	0.739	1	2back	Block2	2back/STIM_035.jpg
1095.554	0.85	1	2back	Block2	2back/STIM_036.jpg
1100.124	0.75	1	2back	Block2	2back/STIM_036.jpg
1104.103	0.538	1	2back	Block2	2back/STIM_036.jpg
1108.63	0.661	1	2back	Block2	2back/STIM_037.jpg
1111.871	0.582	1	2back	Block2	2back/STIM_037.jpg
1114.797	0.975	1	2back	Block2	2back/STIM_037.jpg
1118.034	1.088	1	2back	Block2	2back/STIM_038.jpg
1121.746	0.857	1	2back	Block2	2back/STIM_038.jpg
1126.26	0.754	1	2back	Block2	2back/STIM_038.jpg
1130.848	0.516	1	2back	Block2	2back/STIM_039.jpg
1135.33	0.582	1	2back	Block2	2back/STIM_039.jpg
1139.113	0.667	1	2back	Block2	2back/STIM_039.jpg
1142.363	0.458	1	0back	Block2	0back/STIM_000.jpg
1145.131	0.582	1	0back	Block2	0back/STIM_000.jpg
1149.419	0.586	1	0back	Block2	0back/STIM_000.jpg
1152.676	0.429	1	0back	Block2	0back/STIM_001.jpg
1155.503	0.792	0	0back	Block2	0back/STIM_001.jpg
1158.541	0.621	1	0back	Block2	0back/STIM_001.jpg
1162.577	0.613	1	0back	Block2	0back/STIM_002.jpg
1165.414	0.608	1	0back	Block2	0back/STIM_002.jpg
1168.731	0.517	0	0back	Block2	0back/STIM_002.jpg
1172.446	0.456	1	0back	Block2	0back/STIM_003.jpg
1176.197	0.632	1	0back	Block2	0back/STIM_003.jpg
1180.017	0.396	1	0back	Block2	0back/STIM_003.jpg
1183.81	0.42	1	0back	Block2	0back/STIM_004.jpg
1187.065	0.399	1	0back	Block2	0back/STIM_004.jpg
1190.364	0.646	1	0back	Block2	0back/STIM_004.jpg
1194.533	0.655	1	0back	Block2	0back/STIM_005.jpg
1197.909	0.573	1	0back	Block2	0back/STIM_005.jpg
1202.227	0.564	1	0back	Block2	0back/STIM_005.jpg
1206.671	0.77	1	0back	Block2	0back/STIM_006.jpg
1209.545	0.66	1	0back	Block2	0back/STIM_006.jpg
1212.369	0.598	1	0back	Block2	0back/STIM_006.jpg
1216.296	0.35	1	0back	Block2	0back/STIM_007.jpg
1220.172	0.473	1	0back	Block2	0back/STIM_007.jpg
1223.852	0.716	1	0back	Block2	0back/STIM_007.jpg
1226.643	0.46	1	0back	Block2	0back/STIM_008.jpg
1230.184	0.667	1	0back	Block2	0back/STIM_008.jpg
1233.93	0.742	1	0back	Block2	0back/STIM_008.jpg
1237.468	0.519	1	0back	Block2	0back/STIM_009.jpg
1240.232	0.791	1	0back	Block2	0back/STIM_009.jpg
1243.833	0.727	1	0back	Block2	0back/STIM_009.jpg
1247.699	0.479	1	0back	Block2	0back/STIM_010.jpg
1251.937	0.613	1	0back	Block2	0back/STIM_010.jpg
1256.115	0.633	1	0back	Block2	0back/STIM_010.jpg
1259.718	0.533	1	0back	Block2	0back/STIM_011.jpg
1263.076	0.615	1	0back	Block2	0back/STIM_011.jpg
1267.082	0.687	1	0back	Block2	0back/STIM_011.jpg
1271.669	0.569	1	0back	Block2	0back/STIM_012.jpg
1275.909	0.582	1	0back	Block2	0back/STIM_012.jpg
1279.473	0.416	1	0back	Block2	0back/STIM_012.jpg
1283.847	0.404	1	0back	Block2	0back/STIM_013.jpg
1286.761	0.754	1	0back	Block2	0back/STIM_013.jpg
1290.19	0.418	1	0back	Block2	0back/STIM_013.jpg
1292.998	0.511	1	0back	Block2	0back/STIM_014.jpg
1296.693	0.744	1	0back	Block2	0back/STIM_014.jpg
1301.335	0.689	1	0back	Block2	0back/STIM_014.jpg
1304.166	0.664	1	0back	Block2	0back/STIM_015.jpg
1308.261	0.371	1	0back	Block2	0back/STIM_015.jpg
1312.388	0.587	1	0back	Block2	0back/STIM_015.jpg
1316.005	0.628	1	0back	Block2	0back/STIM_016.jpg
1319.928	0.593	1	0back	Block2	0back/STIM_016.jpg
1324.297	0.524	1	0back	Block2	0back/STIM_016.jpg
1328.441	0.576	1	0back	Block2	0back/STIM_017.jpg
1332.5	0.784	1	0back	Block2	0back/STIM_017.jpg
1337.035	0.518	1	0back	Block2	0back/STIM_017.jpg
1340.169	0.474	1	0back	Block2	0back/STIM_018.jpg
1343.016	0.691	1	0back	Block2	0back/STIM_018.jpg
1346.523	0.497	1	0back	Block2	0back/STIM_018.jpg
1350.243	0.686	1	0back	Block2	0back/STIM_019.jpg
1354.544	0.683	1	0back	Block2	0back/STIM_019.jpg
1357.313	0.341	1	0back	Block2	0back/STIM_019.jpg
1359.796	0.942	1	2back	Block3	2back/STIM_000.jpg
1364.556	0.621	1	2back	Block3	2back/STIM_000.jpg
1368.407	0.593	1	2back	Block3	2back/STIM_000.jpg
1371.56	0.527	1	2back	Block3	2back/STIM_001.jpg
1374.334	0.747	1	2back	Block3	2back/STIM_001.jpg
1377.271	0.849	1	2back	Block3	2back/STIM_001.jpg
1380.199	0.778	1	2back	Block3	2back/STIM_002.jpg
1384.48	0.816	1	2back	Block3	2back/STIM_002.jpg
1388.725	0.59	1	2back	Block3	2back/STIM_002.jpg
1392.886	0.694	1	2back	Block3	2back/STIM_003.jpg
1395.932	0.807	1	2back	Block3	2back/STIM_003.jpg
1399.25	0.897	1	2back	Block3	2back/STIM_003.jpg
1403.279	0.652	1	2back	Block3	2back/STIM_004.jpg
1406.912	0.708	1	2back	Block3	2back/STIM_004.jpg
1410.708	0.683	1	2back	Block3	2back/STIM_004.jpg
1415.266	0.892	1	2back	Block3	2back/STIM_005.jpg
1418.942	0.469	1	2back	Block3	2back/STIM_005.jpg
1423.216	0.498	1	2back	Block3	2back/STIM_005.jpg
1426.994	0.684	1	2back	Block3	2back/STIM_006.jpg
1431.069	0.823	1	2back	Block3	2back/STIM_006.jpg
1434.104	0.737	1	2back	Block3	2back/STIM_006.jpg
1438.117	0.847	1	2back	Block3	2back/STIM_007.jpg
1442.398	0.909	1	2back	Block3	2back/STIM_007.jpg
1446.78	0.785	1	2back	Block3	2back/STIM_007.jpg
1449.951	0.655	1	2back	Block3	2back/STIM_008.jpg
1454.158	0.663	1	2back	Block3	2back/STIM_008.jpg
1456.871	0.796	1	2back	Block3	2back/STIM_008.jpg
1460.24	0.477	1	2back	Block3	2back/STIM_009.jpg
1463.325	0.95	1	2back	Block3	2back/STIM_009.jpg
1466.813	0.461	1	2back	Block3	2back/STIM_009.jpg
1469.61	0.459	1	2back	Block3	2back/STIM_010.jpg
1472.333	0.862	1	2back	Block3	2back/STIM_010.jpg
1475.619	0.434	1	2back	Block3	2back/STIM_010.jpg
1479.803	0.618	1	2back	Block3	2back/STIM_011.jpg
1482.531	0.662	1	2back	Block3	2back/STIM_011.jpg
1486.124	0.698	1	2back	Block3	2back/STIM_011.jpg
1489.206	0.438	1	2back	Block3	2back/STIM_012.jpg
1492.266	0.48	1	2back	Block3	2back/STIM_012.jpg
1496.748	0.644	0	2back	Block3	2back/STIM_012.jpg
1501.435	0.505	1	2back	Block3	2back/STIM_013.jpg
1504.331	0.517	1	2back	Block3	2back/STIM_013.jpg
1507.768	0.849	1	2back	Block3	2back/STIM_013.jpg
1510.736	0.736	1	2back	Block3	2back/STIM_014.jpg
1514.516	0.403	1	2back	Block3	2back/STIM_014.jpg
1516.99	0.985	1	2back	Block3	2back/STIM_014.jpg
1520.526	0.56	1	2back	Block3	2back/STIM_015.jpg
1524.054	0.677	1	2back	Block3	2back/STIM_015.jpg
1528.598	0.6	1	2back	Block3	2back/STIM_015.jpg
1532.461	0.653	1	2back	Block3	2back/STIM_016.jpg
1536.754	0.844	1	2back	Block3	2back/STIM_016.jpg
1541.597	0.708	1	2back	Block3	2back/STIM_016.jpg
1544.588	0.866	1	2back	Block3	2back/STIM_017.jpg
1549.008	0.568	1	2back	Block3	2back/STIM_017.jpg
1552.13	0.717	1	2back	Block3	2back/STIM_017.jpg
1555.636	0.792	1	2back	Block3	2back/STIM_018.jpg
1560.134	0.56	1	2back	Block3	2back/STIM_018.jpg
1562.788	0.408	1	2back	Block3	2back/STIM_018.jpg
1565.905	0.92	1	2back	Block3	2back/STIM_019.jpg
1568.91	0.747	1	2back	Block3	2back/STIM_019.jpg
1572.238	0.795	1	2back	Block3	2back/STIM_019.jpg
1575.101	0.472	1	2back	Block3	2back/STIM_020.jpg
1579.298	0.679	1	2back	Block3	2back/STIM_020.jpg
1584.028	0.884	1	2back	Block3	2back/STIM_020.jpg
1588.113	0.612	1	2back	Block3	2back/STIM_021.jpg
1591.349	0.771	1	2back	Block3	2back/STIM_021.jpg
1595.139	0.508	1	2back	Block3	2back/STIM_021.jpg
1597.886	0.652	1	2back	Block3	2back/STIM_022.jpg
1601.657	0.491	1	2back	Block3	2back/STIM_022.jpg
1605.703	0.532	1	2back	Block3	2back/STIM_022.jpg
1609.381	0.762	1	2back	Block3	2back/STIM_023.jpg
1613.998	0.773	1	2back	Block3	2back/STIM_023.jpg
1617.791	0.522	1	2back	Block3	2back/STIM_023.jpg
1621.338	0.607	1	2back	Block3	2back/STIM_024.jpg
1624.899	0.749	1	2back	Block3	2back/STIM_024.jpg
1627.964	0.786	1	2back	Block3	2back/STIM_024.jpg
1632.55	0.493	1	2back	Block3	2back/STIM_025.jpg
1635.62	0.721	1	2back	Block3	2back/STIM_025.jpg
1638.968	0.739	1	2back	Block3	2back/STIM_025.jpg
1643.55	0.859	1	2back	Block3	2back/STIM_026.jpg
1648.214	0.899	0	2back	Block3	2back/STIM_026.jpg
1652.247	0.786	1	2back	Block3	2back/STIM_026.jpg
1655.683	0.48	1	2back	Block3	2back/STIM_027.jpg
1659.595	0.71	1	2back	Block3	2back/STIM_027.jpg
1662.889	0.69	1	2back	Block3	2back/STIM_027.jpg
1667.289	0.693	1	2back	Block3	2back/STIM_028.jpg
1671.14	0.812	1	2back	Block3	2back/STIM_028.jpg
1675.064	0.921	1	2back	Block3	2back/STIM_028.jpg
1679.538	0.769	1	2back	Block3	2back/STIM_029.jpg
1682.792	0.443	0	2back	Block3	2back/STIM_029.jpg
1686.152	0.812	1	2back	Block3	2back/STIM_029.jpg
1689.901	0.625	1	2back	Block3	2back/STIM_030.jpg
1694.508	0.678	1	2back	Block3	2back/STIM_030.jpg
1699.01	0.792	1	2back	Block3	2back/STIM_030.jpg
1702.388	0.766	1	2back	Block3	2back/STIM_031.jpg
1706.706	0.631	1	2back	Block3	2back/STIM_031.jpg
1711.076	0.488	1	2back	Block3	2back/STIM_031.jpg
1714.475	0.812	1	2back	Block3	2back/STIM_032.jpg
1717.758	0.798	1	2back	Block3	2back/STIM_032.jpg
1721.411	0.436	1	2back	Block3	2back/STIM_032.jpg
1724.41	0.461	1	2back	Block3	2back/STIM_033.jpg
1728.481	0.463	1	2back	Block3	2back/STIM_033.jpg
1731.836	0.687	1	2back	Block3	2back/STIM_033.jpg
1735.668	0.607	1	2back	Block3	2back/STIM_034.jpg
1739.122	0.774	1	2back	Block3	2back/STIM_034.jpg
1743.835	0.904	1	2back	Block3	2back/STIM_034.jpg
1748.282	0.534	1	2back	Block3	2back/STIM_035.jpg
1752.217	0.584	1	2back	Block3	2back/STIM_035.jpg
1756.253	0.514	1	2back	Block3	2back/STIM_035.jpg
1760.326	0.658	1	2back	Block3	2back/STIM_036.jpg
1763.063	0.448	1	2back	Block3	2back/STIM_036.jpg
1767.298	0.987	1	2back	Block3	2back/STIM_036.jpg
1770.41	0.441	1	2back	Block3	2back/STIM_037.jpg
1774.483	0.533	1	2back	Block3	2back/STIM_037.jpg
1779.031	0.51	1	2back	Block3	2back/STIM_037.jpg
1783.43	0.608	0	2back	Block3	2back/STIM_038.jpg
1787.144	0.847	1	2back	Block3	2back/STIM_038.jpg
1790.782	0.606	1	2back	Block3	2back/STIM_038.jpg
1794.345	0.829	1	2back	Block3	2back/STIM_039.jpg
1798.378	0.856	1	2back	Block3	2back/STIM_039.jpg
1802.873	0.525	1	2back	Block3	2back/STIM_039.jpg
1806.615	0.742	1	0back	Block3	0back/STIM_000.jpg
1810.855	0.733	1	0back	Block3	0back/STIM_000.jpg
1814.438	0.524	1	0back	Block3	0back/STIM_000.jpg
1817.512	0.507	1	0back	Block3	0back/STIM_001.jpg
1821.699	0.468	1	0back	Block3	0back/STIM_001.jpg
1824.963	0.435	1	0back	Block3	0back/STIM_001.jpg
1829.025	0.614	1	0back	Block3	0back/STIM_002.jpg
1832.26	0.665	1	0back	Block3	0back/STIM_002.jpg
1835.781	0.715	1	0back	Block3	0back/STIM_002.jpg
1839.5	0.669	1	0back	Block3	0back/STIM_003.jpg
1843.531	0.604	1	0back	Block3	0back/STIM_003.jpg
1847.713	0.681	1	0back	Block3	0back/STIM_003.jpg
1850.827	0.627	1	0back	Block3	0back/STIM_004.jpg
1854.127	0.647	1	0back	Block3	0back/STIM_004.jpg
1857.326	0.56	1	0back	Block3	0back/STIM_004.jpg
1861.377	0.706	1	0back	Block3	0back/STIM_005.jpg
1865.296	0.675	1	0back	Block3	0back/STIM_005.jpg
1869.103	0.42	1	0back	Block3	0back/STIM_005.jpg
1872.309	0.743	1	0back	Block3	0back/STIM_006.jpg
1875.783	0.556	1	0back	Block3	0back/STIM_006.jpg
1878.396	0.77	1	0back	Block3	0back/STIM_006.jpg
1882.929	0.515	1	0back	Block3	0back/STIM_007.jpg
1887.344	0.486	1	0back	Block3	0back/STIM_007.jpg
1891.845	0.464	1	0back	Block3	0back/STIM_007.jpg
1894.722	0.629	1	0back	Block3	0back/STIM_008.jpg
1898.648	0.797	1	0back	Block3	0back/STIM_008.jpg
1902.013	0.474	1	0back	Block3	0back/STIM_008.jpg
1905.429	0.614	1	0back	Block3	0back/STIM_009.jpg
1908.408	0.34	1	0back	Block3	0back/STIM_009.jpg
1912.727	0.528	1	0back	Block3	0back/STIM_009.jpg
1915.748	0.515	1	0back	Block3	0back/STIM_010.jpg
1918.891	0.602	1	0back	Block3	0back/STIM_010.jpg
1922.281	0.593	1	0back	Block3	0back/STIM_010.jpg
1926.634	0.599	1	0back	Block3	0back/STIM_011.jpg
1930.637	0.614	1	0back	Block3	0back/STIM_011.jpg
1933.889	0.473	1	0back	Block3	0back/STIM_011.jpg
1936.485	0.554	1	0back	Block3	0back/STIM_012.jpg
1939.459	0.625	1	0back	Block3	0back/STIM_012.jpg
1943.858	0.653	1	0back	Block3	0back/STIM_012.jpg
1947.894	0.746	1	0back	Block3	0back/STIM_013.jpg
1951.533	0.719	1	0back	Block3	0back/STIM_013.jpg
1955.843	0.812	1	0back	Block3	0back/STIM_013.jpg
1959.948	0.583	1	0back	Block3	0back/STIM_014.jpg
1963.525	0.549	1	0back	Block3	0back/STIM_014.jpg
1967.725	0.497	1	0back	Block3	0back/STIM_014.jpg
1971.359	0.645	1	0back	Block3	0back/STIM_015.jpg
1975.833	0.462	1	0back	Block3	0back/STIM_015.jpg
1979.013	0.592	1	0back	Block3	0back/STIM_015.jpg
1983.375	0.536	1	0back	Block3	0back/STIM_016.jpg
1986.476	0.648	1	0back	Block3	0back/STIM_016.jpg
1989.542	0.624	1	0back	Block3	0back/STIM_016.jpg
1993.941	0.658	1	0back	Block3	0back/STIM_017.jpg
1996.69	0.731	1	0back	Block3	0back/STIM_017.jpg
2000.195	0.405	1	0back	Block3	0back/STIM_017.jpg
2003.015	0.62	1	0back	Block3	0back/STIM_018.jpg
2007.463	0.396	1	0back	Block3	0back/STIM_018.jpg
2011.268	0.492	1	0back	Block3	0back/STIM_018.jpg
2015.04	0.473	1	0back	Block3	0back/STIM_019.jpg
2019.631	0.649	1	0back	Block3	0back/STIM_019.jpg
2023.75	0.486	1	0back	Block3	0back/STIM_019.jpg
2026.607	0.949	1	2back	Block4	2back/STIM_000.jpg
2030.147	0.817	1	2back	Block4	2back/STIM_000.jpg
2034.332	0.458	1	2back	Block4	2back/STIM_000.jpg
2038.202	0.477	1	2back	Block4	2back/STIM_001.jpg
2042.251	0.703	1	2back	Block4	2back/STIM_001.jpg
2046.188	0.919	1	2back	Block4	2back/STIM_001.jpg
2050.525	0.702	1	2back	Block4	2back/STIM_002.jpg
2053.662	0.436	1	2back	Block4	2back/STIM_002.jpg
2056.616	0.642	1	2back	Block4	2back/STIM_002.jpg
2060.1	0.798	1	2back	Block4	2back/STIM_003.jpg
2063.369	0.877	1	2back	Block4	2back/STIM_003.jpg
2066.933	0.673	1	2back	Block4	2back/STIM_003.jpg
2070.823	0.496	1	2back	Block4	2back/STIM_004.jpg
2074.365	0.71	1	2back	Block4	2back/STIM_004.jpg
2079.128	0.575	1	2back	Block4	2back/STIM_004.jpg
2081.988	0.506	1	2back	Block4	2back/STIM_005.jpg
2086.074	0.798	1	2back	Block4	2back/STIM_005.jpg
2089.985	0.714	1	2back	Block4	2back/STIM_005.jpg
2093.868	0.56	1	2back	Block4	2back/STIM_006.jpg
2096.494	0.524	1	2back	Block4	2back/STIM_006.jpg
2101.019	0.762	1	2back	Block4	2back/STIM_006.jpg
2103.961	0.966	1	2back	Block4	2back/STIM_007.jpg
2107.061	0.674	1	2back	Block4	2back/STIM_007.jpg
2111.336	0.769	1	2back	Block4	2back/STIM_007.jpg
2114.43	0.612	1	2back	Block4	2back/STIM_008.jpg
2117.559	0.478	1	2back	Block4	2back/STIM_008.jpg
2120.866	0.6	1	2back	Block4	2back/STIM_008.jpg
2124.666	0.474	1	2back	Block4	2back/STIM_009.jpg
2127.403	0.707	1	2back	Block4	2back/STIM_009.jpg
2131.66	0.567	1	2back	Block4	2back/STIM_009.jpg
2134.665	0.794	1	2back	Block4	2back/STIM_010.jpg
2138.47	0.488	1	2back	Block4	2back/STIM_010.jpg
2141.339	0.761	1	2back	Block4	2back/STIM_010.jpg
2144.319	0.646	1	2back	Block4	2back/STIM_011.jpg
2147.559	0.79	1	2back	Block4	2back/STIM_011.jpg
2151.742	0.846	1	2back	Block4	2back/STIM_011.jpg
2154.752	0.617	1	2back	Block4	2back/STIM_012.jpg
2159.411	0.628	1	2back	Block4	2back/STIM_012.jpg
2162.79	0.869	1	2back	Block4	2back/STIM_012.jpg
2166.02	0.489	1	2back	Block4	2back/STIM_013.jpg
2168.893	0.524	1	2back	Block4	2back/STIM_013.jpg
2173.473	0.735	1	2back	Block4	2back/STIM_013.jpg
2178.076	0.891	1	2back	Block4	2back/STIM_014.jpg
2182.084	0.707	1	2back	Block4	2back/STIM_014.jpg
2185.959	0.676	1	2back	Block4	2back/STIM_014.jpg
2189.316	0.418	1	2back	Block4	2back/STIM_015.jpg
2193.388	0.396	1	2back	Block4	2back/STIM_015.jpg
2196.224	0.488	1	2back	Block4	2back/STIM_015.jpg
2199.324	0.537	1	2back	Block4	2back/STIM_016.jpg
2202.203	0.909	1	2back	Block4	2back/STIM_016.jpg
2206.806	0.418	1	2back	Block4	2back/STIM_016.jpg
2210.101	0.679	1	2back	Block4	2back/STIM_017.jpg
2214.154	0.36	1	2back	Block4	2back/STIM_017.jpg
2218.495	0.515	1	2back	Block4	2back/STIM_017.jpg
2221.998	0.908	1	2back	Block4	2back/STIM_018.jpg
2226.43	0.625	1	2back	Block4	2back/STIM_018.jpg
2230.803	0.877	1	2back	Block4	2back/STIM_018.jpg
2234.822	0.91	1	2back	Block4	2back/STIM_019.jpg
2238.499	0.394	1	2back	Block4	2back/STIM_019.jpg
2242.112	0.878	1	2back	Block4	2back/STIM_019.jpg
2245.869	0.37	1	2back	Block4	2back/STIM_020.jpg
2249.94	0.562	1	2back	Block4	2back/STIM_020.jpg
2253.538	0.412	1	2back	Block4	2back/STIM_020.jpg
2257.266	0.851	1	2back	Block4	2back/STIM_021.jpg
2260.832	0.624	1	2back	Block4	2back/STIM_021.jpg
2265.345	0.766	1	2back	Block4	2back/STIM_021.jpg
2268.947	0.621	1	2back	Block4	2back/STIM_022.jpg
2273.284	0.686	1	2back	Block4	2back/STIM_022.jpg
2276.221	0.648	1	2back	Block4	2back/STIM_022.jpg
2279.404	0.496	1	2back	Block4	2back/STIM_023.jpg
2282.938	0.488	1	2back	Block4	2back/STIM_023.jpg
2286.281	0.647	1	2back	Block4	2back/STIM_023.jpg
2289.21	0.549	1	2back	Block4	2back/STIM_024.jpg
2292.581	0.567	1	2back	Block4	2back/STIM_024.jpg
2295.589	0.481	1	2back	Block4	2back/STIM_024.jpg
2298.983	0.596	1	2back	Block4	2back/STIM_025.jpg
2302.779	0.398	1	2back	Block4	2back/STIM_025.jpg
2306.131	0.522	1	2back	Block4	2back/STIM_025.jpg
2308.884	0.559	1	2back	Block4	2back/STIM_026.jpg
2313.341	0.574	1	2back	Block4	2back/STIM_026.jpg
2317.324	0.555	1	2back	Block4	2back/STIM_026.jpg
2320.899	0.586	1	2back	Block4	2back/STIM_027.jpg
2325.064	0.387	1	2back	Block4	2back/STIM_027.jpg
2327.543	0.803	1	2back	Block4	2back/STIM_027.jpg
2331.653	0.544	1	2back	Block4	2back/STIM_028.jpg
2334.679	0.642	1	2back	Block4	2back/STIM_028.jpg
2339.111	0.812	1	2back	Block4	2back/STIM_028.jpg
2342.514	0.843	1	2back	Block4	2back/STIM_029.jpg
2346.493	0.796	1	2back	Block4	2back/STIM_029.jpg
2350.733	0.652	1	2back	Block4	2back/STIM_029.jpg
2354.13	0.894	1	2back	Block4	2back/STIM_030.jpg
2357.789	0.446	1	2back	Block4	2back/STIM_030.jpg
2361.71	0.473	1	2back	Block4	2back/STIM_030.jpg
2364.774	0.733	1	2back	Block4	2back/STIM_031.jpg
2367.766	0.818	1	2back	Block4	2back/STIM_031.jpg
2370.813	0.662	1	2back	Block4	2back/STIM_031.jpg
2374.24	0.922	0	2back	Block4	2back/STIM_032.jpg
2378.034	0.771	1	2back	Block4	2back/STIM_032.jpg
2382.733	0.657	1	2back	Block4	2back/STIM_032.jpg
2387.418	0.717	1	2back	Block4	2back/STIM_033.jpg
2391.634	0.413	1	2back	Block4	2back/STIM_033.jpg
2395.34	0.896	1	2back	Block4	2back/STIM_033.jpg
2398.924	0.578	1	2back	Block4	2back/STIM_034.jpg
2402.358	0.932	1	2back	Block4	2back/STIM_034.jpg
2406.383	0.636	1	2back	Block4	2back/STIM_034.jpg
2411.012	0.551	1	2back	Block4	2back/STIM_035.jpg
2414.129	0.65	1	2back	Block4	2back/STIM_035.jpg
2417.28	0.581	1	2back	Block4	2back/STIM_035.jpg
2421.578	0.78	1	2back	Block4	2back/STIM_036.jpg
2425.082	0.888	1	2back	Block4	2back/STIM_036.jpg
2428.107	0.676	1	2back	Block4	2back/STIM_036.jpg
2431.556	0.729	1	2back	Block4	2back/STIM_037.jpg
2435.983	0.85	1	2back	Block4	2back/STIM_037.jpg
2439.728	0.894	1	2back	Block4	2back/STIM_037.jpg
2443.594	0.529	1	2back	Block4	2back/STIM_038.jpg
2447.868	0.445	1	2back	Block4	2back/STIM_038.jpg
2452.154	0.778	1	2back	Block4	2back/STIM_038.jpg
2455.271	0.751	1	2back	Block4	2back/STIM_039.jpg
2459.767	0.678	1	2back	Block4	2back/STIM_039.jpg
2463.193	0.547	1	2back	Block4	2back/STIM_039.jpg
2466.541	0.542	1	0back	Block4	0back/STIM_000.jpg
2470.912	0.757	1	0back	Block4	0back/STIM_000.jpg
2474.509	0.337	1	0back	Block4	0back/STIM_000.jpg
2477.099	0.63	1	0back	Block4	0back/STIM_001.jpg
2479.947	0.457	1	0back	Block4	0back/STIM_001.jpg
2484.366	0.645	1	0back	Block4	0back/STIM_001.jpg
2488.736	0.751	1	0back	Block4	0back/STIM_002.jpg
2491.556	0.716	1	0back	Block4	0back/STIM_002.jpg
2496.266	0.667	1	0back	Block4	0back/STIM_002.jpg
2498.964	0.545	1	0back	Block4	0back/STIM_003.jpg
2502.845	0.35	1	0back	Block4	0back/STIM_003.jpg
2506.492	0.436	1	0back	Block4	0back/STIM_003.jpg
2509.631	0.424	0	0back	Block4	0back/STIM_004.jpg
2512.712	0.481	1	0back	Block4	0back/STIM_004.jpg
2516.372	0.586	1	0back	Block4	0back/STIM_004.jpg
2519.714	0.547	1	0back	Block4	0back/STIM_005.jpg
2523.974	0.822	1	0back	Block4	0back/STIM_005.jpg
2528.538	0.376	1	0back	Block4	0back/STIM_005.jpg
2532.902	0.571	1	0back	Block4	0back/STIM_006.jpg
2537.287	0.446	1	0back	Block4	0back/STIM_006.jpg
2540.935	0.63	1	0back	Block4	0back/STIM_006.jpg
2543.942	0.56	1	0back	Block4	0back/STIM_007.jpg
2548.122	0.37	1	0back	Block4	0back/STIM_007.jpg
2550.855	0.47	1	0back	Block4	0back/STIM_007.jpg
2555.318	0.525	1	0back	Block4	0back/STIM_008.jpg
2557.971	0.445	1	0back	Block4	0back/STIM_008.jpg
2562.167	0.686	1	0back	Block4	0back/STIM_008.jpg
2565.961	0.553	1	0back	Block4	0back/STIM_009.jpg
2569.353	0.675	1	0back	Block4	0back/STIM_009.jpg
2573.944	0.54	1	0back	Block4	0back/STIM_009.jpg
2578.376	0.572	1	0back	Block4	0back/STIM_010.jpg
2582.847	0.621	1	0back	Block4	0back/STIM_010.jpg
2586.579	0.584	1	0back	Block4	0back/STIM_010.jpg
2591.146	0.773	1	0back	Block4	0back/STIM_011.jpg
2594.448	0.565	1	0back	Block4	0back/STIM_011.jpg
2598.386	0.64	1	0back	Block4	0back/STIM_011.jpg
2601.195	0.743	1	0back	Block4	0back/STIM_012.jpg
2605.022	0.729	1	0back	Block4	0back/STIM_012.jpg
2609.278	0.456	1	0back	Block4	0back/STIM_012.jpg
2612.636	0.622	1	0back	Block4	0back/STIM_013.jpg
2615.938	0.749	1	0back	Block4	0back/STIM_013.jpg
2619.258	0.542	1	0back	Block4	0back/STIM_013.jpg
2622.678	0.555	1	0back	Block4	0back/STIM_014.jpg
2626.237	0.433	1	0back	Block4	0back/STIM_014.jpg
2628.972	0.597	1	0back	Block4	0back/STIM_014.jpg
2632.868	0.636	1	0back	Block4	0back/STIM_015.jpg
2636.189	0.565	1	0back	Block4	0back/STIM_015.jpg
2639.652	0.464	1	0back	Block4	0back/STIM_015.jpg
2642.97	0.474	1	0back	Block4	0back/STIM_016.jpg
2645.81	0.675	1	0back	Block4	0back/STIM_016.jpg
2650.171	0.671	1	0back	Block4	0back/STIM_016.jpg
2653.19	0.62	1	0back	Block4	0back/STIM_017.jpg
2656.69	0.348	1	0back	Block4	0back/STIM_017.jpg
2659.567	0.588	1	0back	Block4	0back/STIM_017.jpg
2663.352	0.693	1	0back	Block4	0back/STIM_018.jpg
2666.136	0.446	1	0back	Block4	0back/STIM_018.jpg
2669.301	0.474	1	0back	Block4	0back/STIM_018.jpg
2672.744	0.575	1	0back	Block4	0back/STIM_019.jpg
2675.578	0.7	1	0back	Block4	0back/STIM_019.jpg
2679.174	0.508	1	0back	Block4	0back/STIM_019.jpg
