onset	duration	accuracy	trial_type	learning_stage	stimulus
0.0	1.535	correct	2back	Block1	2back/STIM_000.jpg
4.532	1.244	correct	2back	Block1	2back/STIM_000.jpg
8.215	0.639	correct	2back	Block1	2back/STIM_000.jpg
12.498	0.803	correct	2back	Block1	2back/STIM_001.jpg
16.345	1.225	correct	2back	Block1	2back/STIM_001.jpg
20.139	1.099	correct	2back	Block1	2back/STIM_001.jpg
23.805	1.002	incorrect	2back	Block1	2back/STIM_002.jpg
28.697	1.444	correct	2back	Block1	2back/STIM_002.jpg
33.849	0.729	correct	2back	Block1	2back/STIM_002.jpg
38.552	1.269	incorrect	2back	Block1	2back/STIM_003.jpg
42.982	1.32	correct	2back	Block1	2back/STIM_003.jpg
46.838	1.295	incorrect	2back	Block1	2back/STIM_003.jpg
50.591	1.384	correct	2back	Block1	2back/STIM_004.jpg
54.861	1.211	correct	2back	Block1	2back/STIM_004.jpg
59.283	0.745	correct	2back	Block1	2back/STIM_004.jpg
64.016	1.334	correct	2back	Block1	2back/STIM_005.jpg
68.644	1.229	correct	2back	Block1	2back/STIM_005.jpg
73.251	1.222	correct	2back	Block1	2back/STIM_005.jpg
76.898	0.68	incorrect	2back	Block1	2back/STIM_006.jpg
80.285	0.924	correct	2back	Block1	2back/STIM_006.jpg
83.851	1.252	correct	2back	Block1	2back/STIM_006.jpg
88.726	0.861	correct	2back	Block1	2back/STIM_007.jpg
93.3	1.355	correct	2back	Block1	2back/STIM_007.jpg
97.807	1.325	correct	2back	Block1	2back/STIM_007.jpg
102.337	1.497	correct	2back	Block1	2back/STIM_008.jpg
107.055	1.279	correct	2back	Block1	2back/STIM_008.jpg
111.931	0.934	correct	2back	Block1	2back/STIM_008.jpg
115.031	0.986	correct	2back	Block1	2back/STIM_009.jpg
118.675	1.363	correct	2back	Block1	2back/STIM_009.jpg
122.74	1.388	correct	2back	Block1	2back/STIM_009.jpg
126.88	1.455	correct	2back	Block1	2back/STIM_010.jpg
131.533	0.778	correct	2back	Block1	2back/STIM_010.jpg
134.961	0.649	correct	2back	Block1	2back/STIM_010.jpg
137.768	0.951	correct	2back	Block1	2back/STIM_011.jpg
141.19	0.954	correct	2back	Block1	2back/STIM_011.jpg
145.298	1.002	correct	2back	Block1	2back/STIM_011.jpg
149.129	0.776	correct	2back	Block1	2back/STIM_012.jpg
153.859	0.853	correct	2back	Block1	2back/STIM_012.jpg
157.186	1.026	correct	2back	Block1	2back/STIM_012.jpg
161.718	1.042	correct	2back	Block1	2back/STIM_013.jpg
165.774	0.759	incorrect	2back	Block1	2back/STIM_013.jpg
169.583	0.632	correct	2back	Block1	2back/STIM_013.jpg
173.037	0.714	correct	2back	Block1	2back/STIM_014.jpg
177.674	0.932	correct	2back	Block1	2back/STIM_014.jpg
180.899	1.229	correct	2back	Block1	2back/STIM_014.jpg
184.302	0.814	correct	2back	Block1	2back/STIM_015.jpg
188.741	0.738	correct	2back	Block1	2back/STIM_015.jpg
191.914	0.841	correct	2back	Block1	2back/STIM_015.jpg
195.451	1.274	correct	2back	Block1	2back/STIM_016.jpg
199.189	0.93	correct	2back	Block1	2back/STIM_016.jpg
203.717	0.641	correct	2back	Block1	2back/STIM_016.jpg
207.518	1.183	correct	2back	Block1	2back/STIM_017.jpg
211.872	0.672	correct	2back	Block1	2back/STIM_017.jpg
215.702	0.784	correct	2back	Block1	2back/STIM_017.jpg
219.016	0.851	correct	2back	Block1	2back/STIM_018.jpg
223.526	1.047	correct	2back	Block1	2back/STIM_018.jpg
226.745	0.784	correct	2back	Block1	2back/STIM_018.jpg
230.784	0.681	correct	2back	Block1	2back/STIM_019.jpg
234.614	1.263	correct	2back	Block1	2back/STIM_019.jpg
238.668	1.038	correct	2back	Block1	2back/STIM_019.jpg
241.902	0.826	correct	2back	Block1	2back/STIM_020.jpg
245.005	1.134	correct	2back	Block1	2back/STIM_020.jpg
249.552	0.804	correct	2back	Block1	2back/STIM_020.jpg
254.185	1.504	correct	2back	Block1	2back/STIM_021.jpg
259.256	0.974	correct	2back	Block1	2back/STIM_021.jpg
262.826	0.709	correct	2back	Block1	2back/STIM_021.jpg
266.275	1.003	correct	2back	Block1	2back/STIM_022.jpg
271.079	1.181	incorrect	2back	Block1	2back/STIM_022.jpg
275.305	1.209	incorrect	2back	Block1	2back/STIM_022.jpg
279.486	1.008	correct	2back	Block1	2back/STIM_023.jpg
283.294	1.089	correct	2back	Block1	2back/STIM_023.jpg
286.574	1.284	correct	2back	Block1	2back/STIM_023.jpg
291.715	1.053	correct	2back	Block1	2back/STIM_024.jpg
295.94	1.176	correct	2back	Block1	2back/STIM_024.jpg
299.46	0.61	correct	2back	Block1	2back/STIM_024.jpg
303.432	1.129	correct	2back	Block1	2back/STIM_025.jpg
307.669	1.198	correct	2back	Block1	2back/STIM_025.jpg
311.189	1.033	correct	2back	Block1	2back/STIM_025.jpg
315.067	0.764	incorrect	2back	Block1	2back/STIM_026.jpg
317.976	1.15	correct	2back	Block1	2back/STIM_026.jpg
321.696	1.351	incorrect	2back	Block1	2back/STIM_026.jpg
326.261	0.807	correct	2back	Block1	2back/STIM_027.jpg
329.142	1.065	correct	2back	Block1	2back/STIM_027.jpg
333.38	1.026	correct	2back	Block1	2back/STIM_027.jpg
338.195	0.96	correct	2back	Block1	2back/STIM_028.jpg
341.8	1.308	incorrect	2back	Block1	2back/STIM_028.jpg
346.824	1.216	correct	2back	Block1	2back/STIM_028.jpg
351.182	0.7	correct	2back	Block1	2back/STIM_029.jpg
354.633	0.667	correct	2back	Block1	2back/STIM_029.jpg
357.354	0.823	correct	2back	Block1	2back/STIM_029.jpg
361.996	1.077	correct	2back	Block1	2back/STIM_030.jpg
365.369	1.27	correct	2back	Block1	2back/STIM_030.jpg
369.802	1.0	correct	2back	Block1	2back/STIM_030.jpg
373.14	1.347	correct	2back	Block1	2back/STIM_031.jpg
376.888	1.399	correct	2back	Block1	2back/STIM_031.jpg
380.513	0.634	incorrect	2back	Block1	2back/STIM_031.jpg
384.789	1.31	correct	2back	Block1	2back/STIM_032.jpg
389.346	1.162	correct	2back	Block1	2back/STIM_032.jpg
393.531	1.188	correct	2back	Block1	2back/STIM_032.jpg
397.678	0.825	correct	2back	Block1	2back/STIM_033.jpg
402.224	1.378	correct	2back	Block1	2back/STIM_033.jpg
406.124	1.342	correct	2back	Block1	2back/STIM_033.jpg
410.108	1.003	correct	2back	Block1	2back/STIM_034.jpg
413.728	0.966	incorrect	2back	Block1	2back/STIM_034.jpg
417.605	0.924	correct	2back	Block1	2back/STIM_034.jpg
421.933	1.051	incorrect	2back	Block1	2back/STIM_035.jpg
426.251	1.19	correct	2back	Block1	2back/STIM_035.jpg
430.604	0.769	correct	2back	Block1	2back/STIM_035.jpg
435.203	0.671	correct	2back	Block1	2back/STIM_036.jpg
437.906	0.849	correct	2back	Block1	2back/STIM_036.jpg
441.774	1.163	correct	2back	Block1	2back/STIM_036.jpg
445.831	0.726	correct	2back	Block1	2back/STIM_037.jpg
449.778	1.235	correct	2back	Block1	2back/STIM_037.jpg
454.375	0.677	correct	2back	Block1	2back/STIM_037.jpg
458.155	1.408	correct	2back	Block1	2back/STIM_038.jpg
462.906	1.123	correct	2back	Block1	2back/STIM_038.jpg
467.186	1.154	correct	2back	Block1	2back/STIM_038.jpg
471.024	1.245	correct	2back	Block1	2back/STIM_039.jpg
475.952	1.292	correct	2back	Block1	2back/STIM_039.jpg
480.455	0.787	correct	2back	Block1	2back/STIM_039.jpg
484.539	0.538	correct	0back	Block1	0back/STIM_000.jpg
488.895	0.561	correct	0back	Block1	0back/STIM_000.jpg
493.264	0.815	correct	0back	Block1	0back/STIM_000.jpg
497.291	0.694	correct	0back	Block1	0back/STIM_001.jpg
501.52	0.48	correct	0back	Block1	0back/STIM_001.jpg
504.785	0.65	correct	0back	Block1	0back/STIM_001.jpg
508.847	0.736	correct	0back	Block1	0back/STIM_002.jpg
513.349	0.581	correct	0back	Block1	0back/STIM_002.jpg
516.368	0.454	correct	0back	Block1	0back/STIM_002.jpg
519.047	0.718	correct	0back	Block1	0back/STIM_003.jpg
522.139	0.793	correct	0back	Block1	0back/STIM_003.jpg
525.863	0.83	correct	0back	Block1	0back/STIM_003.jpg
530.432	0.684	correct	0back	Block1	0back/STIM_004.jpg
533.736	0.713	correct	0back	Block1	0back/STIM_004.jpg
537.499	0.717	correct	0back	Block1	0back/STIM_004.jpg
541.657	0.567	correct	0back	Block1	0back/STIM_005.jpg
545.715	0.656	correct	0back	Block1	0back/STIM_005.jpg
549.559	0.527	correct	0back	Block1	0back/STIM_005.jpg
552.599	0.7	correct	0back	Block1	0back/STIM_006.jpg
556.116	0.677	correct	0back	Block1	0back/STIM_006.jpg
560.72	0.509	correct	0back	Block1	0back/STIM_006.jpg
564.879	0.527	correct	0back	Block1	0back/STIM_007.jpg
568.068	0.482	correct	0back	Block1	0back/STIM_007.jpg
570.576	0.764	correct	0back	Block1	0back/STIM_007.jpg
575.075	0.855	correct	0back	Block1	0back/STIM_008.jpg
579.721	0.644	correct	0back	Block1	0back/STIM_008.jpg
583.911	0.739	correct	0back	Block1	0back/STIM_008.jpg
587.547	0.841	correct	0back	Block1	0back/STIM_009.jpg
591.029	0.513	correct	0back	Block1	0back/STIM_009.jpg
595.009	0.663	incorrect	0back	Block1	0back/STIM_009.jpg
599.184	0.502	correct	0back	Block1	0back/STIM_010.jpg
603.097	0.468	correct	0back	Block1	0back/STIM_010.jpg
606.228	0.85	correct	0back	Block1	0back/STIM_010.jpg
610.834	0.826	correct	0back	Block1	0back/STIM_011.jpg
615.044	0.528	correct	0back	Block1	0back/STIM_011.jpg
618.39	0.736	correct	0back	Block1	0back/STIM_011.jpg
621.212	0.795	correct	0back	Block1	0back/STIM_012.jpg
625.92	0.503	correct	0back	Block1	0back/STIM_012.jpg
629.099	0.743	correct	0back	Block1	0back/STIM_012.jpg
633.154	0.675	correct	0back	Block1	0back/STIM_013.jpg
636.698	0.803	correct	0back	Block1	0back/STIM_013.jpg
640.972	0.516	correct	0back	Block1	0back/STIM_013.jpg
643.709	0.492	correct	0back	Block1	0back/STIM_014.jpg
648.175	0.642	correct	0back	Block1	0back/STIM_014.jpg
650.993	0.784	correct	0back	Block1	0back/STIM_014.jpg
654.427	0.704	correct	0back	Block1	0back/STIM_015.jpg
658.273	0.68	correct	0back	Block1	0back/STIM_015.jpg
662.125	0.8	correct	0back	Block1	0back/STIM_015.jpg
665.883	0.732	correct	0back	Block1	0back/STIM_016.jpg
670.27	0.808	correct	0back	Block1	0back/STIM_016.jpg
674.126	0.714	correct	0back	Block1	0back/STIM_016.jpg
677.362	0.589	incorrect	0back	Block1	0back/STIM_017.jpg
680.012	0.496	correct	0back	Block1	0back/STIM_017.jpg
682.956	0.833	correct	0back	Block1	0back/STIM_017.jpg
687.338	0.518	correct	0back	Block1	0back/STIM_018.jpg
690.391	0.642	correct	0back	Block1	0back/STIM_018.jpg
693.267	0.871	correct	0back	Block1	0back/STIM_018.jpg
696.491	0.557	incorrect	0back	Block1	0back/STIM_019.jpg
700.929	0.63	correct	0back	Block1	0back/STIM_019.jpg
704.718	0.819	correct	0back	Block1	0back/STIM_019.jpg
709.393	0.985	correct	2back	Block2	2back/STIM_000.jpg
713.42	0.854	correct	2back	Block2	2back/STIM_000.jpg
716.392	0.615	correct	2back	Block2	2back/STIM_000.jpg
720.324	0.582	correct	2back	Block2	2back/STIM_001.jpg
724.815	1.022	correct	2back	Block2	2back/STIM_001.jpg
729.427	0.782	correct	2back	Block2	2back/STIM_001.jpg
733.647	0.792	correct	2back	Block2	2back/STIM_002.jpg
737.351	0.679	correct	2back	Block2	2back/STIM_002.jpg
740.358	0.965	correct	2back	Block2	2back/STIM_002.jpg
743.387	0.87	correct	2back	Block2	2back/STIM_003.jpg
748.225	0.76	incorrect	2back	Block2	2back/STIM_003.jpg
751.388	1.08	correct	2back	Block2	2back/STIM_003.jpg
754.811	1.128	correct	2back	Block2	2back/STIM_004.jpg
759.547	0.612	correct	2back	Block2	2back/STIM_004.jpg
764.087	0.531	correct	2back	Block2	2back/STIM_004.jpg
767.5	1.166	correct	2back	Block2	2back/STIM_005.jpg
770.72	1.183	correct	2back	Block2	2back/STIM_005.jpg
775.707	0.787	correct	2back	Block2	2back/STIM_005.jpg
779.58	0.895	correct	2back	Block2	2back/STIM_006.jpg
782.687	1.202	correct	2back	Block2	2back/STIM_006.jpg
786.832	1.11	correct	2back	Block2	2back/STIM_006.jpg
790.333	0.957	correct	2back	Block2	2back/STIM_007.jpg
794.506	0.639	correct	2back	Block2	2back/STIM_007.jpg
798.603	1.044	correct	2back	Block2	2back/STIM_007.jpg
803.582	1.307	correct	2back	Block2	2back/STIM_008.jpg
807.951	1.112	correct	2back	Block2	2back/STIM_008.jpg
811.193	0.734	correct	2back	Block2	2back/STIM_008.jpg
815.857	0.855	correct	2back	Block2	2back/STIM_009.jpg
819.323	0.599	correct	2back	Block2	2back/STIM_009.jpg
822.973	1.058	correct	2back	Block2	2back/STIM_009.jpg
827.666	0.644	correct	2back	Block2	2back/STIM_010.jpg
830.485	0.972	incorrect	2back	Block2	2back/STIM_010.jpg
834.376	0.516	correct	2back	Block2	2back/STIM_010.jpg
837.318	1.05	correct	2back	Block2	2back/STIM_011.jpg
840.498	0.573	correct	2back	Block2	2back/STIM_011.jpg
844.527	0.758	correct	2back	Block2	2back/STIM_011.jpg
847.512	1.005	correct	2back	Block2	2back/STIM_012.jpg
851.448	1.176	correct	2back	Block2	2back/STIM_012.jpg
855.84	1.118	correct	2back	Block2	2back/STIM_012.jpg
859.322	1.02	correct	2back	Block2	2back/STIM_013.jpg
863.704	0.591	incorrect	2back	Block2	2back/STIM_013.jpg
866.423	0.501	correct	2back	Block2	2back/STIM_013.jpg
870.776	1.286	correct	2back	Block2	2back/STIM_014.jpg
874.073	1.037	correct	2back	Block2	2back/STIM_014.jpg
877.873	1.066	correct	2back	Block2	2back/STIM_014.jpg
880.956	0.906	correct	2back	Block2	2back/STIM_015.jpg
884.903	0.769	correct	2back	Block2	2back/STIM_015.jpg
889.197	1.139	correct	2back	Block2	2back/STIM_015.jpg
892.462	1.293	correct	2back	Block2	2back/STIM_016.jpg
896.956	0.983	correct	2back	Block2	2back/STIM_016.jpg
901.098	0.953	correct	2back	Block2	2back/STIM_016.jpg
905.527	1.012	correct	2back	Block2	2back/STIM_017.jpg
908.909	0.95	correct	2back	Block2	2back/STIM_017.jpg
913.405	0.624	correct	2back	Block2	2back/STIM_017.jpg
917.227	1.175	correct	2back	Block2	2back/STIM_018.jpg
921.66	1.229	incorrect	2back	Block2	2back/STIM_018.jpg
925.721	1.097	correct	2back	Block2	2back/STIM_018.jpg
929.387	0.884	correct	2back	Block2	2back/STIM_019.jpg
933.495	0.927	correct	2back	Block2	2back/STIM_019.jpg
937.538	1.015	correct	2back	Block2	2back/STIM_019.jpg
941.572	1.297	correct	2back	Block2	2back/STIM_020.jpg
946.321	0.824	correct	2back	Block2	2back/STIM_020.jpg
950.176	0.953	correct	2back	Block2	2back/STIM_020.jpg
953.502	0.951	correct	2back	Block2	2back/STIM_021.jpg
957.97	1.147	correct	2back	Block2	2back/STIM_021.jpg
961.876	0.517	correct	2back	Block2	2back/STIM_021.jpg
964.583	0.857	correct	2back	Block2	2back/STIM_022.jpg
968.89	0.559	correct	2back	Block2	2back/STIM_022.jpg
972.265	0.52	correct	2back	Block2	2back/STIM_022.jpg
976.266	0.637	correct	2back	Block2	2back/STIM_023.jpg
979.651	0.734	correct	2back	Block2	2back/STIM_023.jpg
982.557	0.946	correct	2back	Block2	2back/STIM_023.jpg
985.604	0.584	correct	2back	Block2	2back/STIM_024.jpg
989.031	0.682	correct	2back	Block2	2back/STIM_024.jpg
992.519	0.578	correct	2back	Block2	2back/STIM_024.jpg
995.334	0.901	correct	2back	Block2	2back/STIM_025.jpg
999.428	1.157	correct	2back	Block2	2back/STIM_025.jpg
1002.749	0.607	correct	2back	Block2	2back/STIM_025.jpg
1006.865	0.742	incorrect	2back	Block2	2back/STIM_026.jpg
1011.109	1.118	correct	2back	Block2	2back/STIM_026.jpg
1015.455	1.026	correct	2back	Block2	2back/STIM_026.jpg
1019.223	0.666	correct	2back	Block2	2back/STIM_027.jpg
1023.17	1.085	correct	2back	Block2	2back/STIM_027.jpg
1028.025	0.673	correct	2back	Block2	2back/STIM_027.jpg
1030.75	1.012	correct	2back	Block2	2back/STIM_028.jpg
1034.067	0.755	correct	2back	Block2	2back/STIM_028.jpg
1038.225	0.97	correct	2back	Block2	2back/STIM_028.jpg
1042.373	0.611	correct	2back	Block2	2back/STIM_029.jpg
1046.254	1.004	correct	2back	Block2	2back/STIM_029.jpg
1050.119	0.556	correct	2back	Block2	2back/STIM_029.jpg
1053.513	0.743	correct	2back	Block2	2back/STIM_030.jpg
1058.074	0.728	incorrect	2back	Block2	2back/STIM_030.jpg
1062.022	1.125	correct	2back	Block2	2back/STIM_030.jpg
1066.933	0.82	correct	2back	Block2	2back/STIM_031.jpg
1070.209	0.766	correct	2back	Block2	2back/STIM_031.jpg
1074.629	1.112	correct	2back	Block2	2back/STIM_031.jpg
1078.709	0.964	correct	2back	Block2	2back/STIM_032.jpg
1081.77	0.823	correct	2back	Block2	2back/STIM_032.jpg
1085.378	0.832	correct	2back	Block2	2back/STIM_032.jpg
1090.072	0.959	correct	2back	Block2	2back/STIM_033.jpg
1094.51	0.806	correct	2back	Block2	2back/STIM_033.jpg
1098.004	0.729	correct	2back	Block2	2back/STIM_033.jpg
1102.342	0.608	correct	2back	Block2	2back/STIM_034.jpg
1106.355	0.726	correct	2back	Block2	2back/STIM_034.jpg
1109.516	1.054	correct	2back	Block2	2back/STIM_034.jpg
1113.741	1.09	correct	2back	Block2	2back/STIM_035.jpg
1117.002	1.224	correct	2back	Block2	2back/STIM_035.jpg
1121.821	0.859	correct	2back	Block2	2back/STIM_035.jpg
1125.319	0.757	correct	2back	Block2	2back/STIM_036.jpg
1128.42	1.171	correct	2back	Block2	2back/STIM_036.jpg
1132.565	0.538	correct	2back	Block2	2back/STIM_036.jpg
1136.327	0.707	correct	2back	Block2	2back/STIM_037.jpg
1139.195	0.583	correct	2back	Block2	2back/STIM_037.jpg
1143.389	0.88	incorrect	2back	Block2	2back/STIM_037.jpg
1148.088	0.66	correct	2back	Block2	2back/STIM_038.jpg
1151.219	1.151	correct	2back	Block2	2back/STIM_038.jpg
1155.851	1.15	correct	2back	Block2	2back/STIM_038.jpg
1159.259	1.19	correct	2back	Block2	2back/STIM_039.jpg
1163.434	1.086	correct	2back	Block2	2back/STIM_039.jpg
1167.621	0.623	correct	2back	Block2	2back/STIM_039.jpg
1171.314	0.582	correct	0back	Block2	0back/STIM_000.jpg
1173.971	0.563	correct	0back	Block2	0back/STIM_000.jpg
1177.747	0.667	correct	0back	Block2	0back/STIM_000.jpg
1182.014	0.54	correct	0back	Block2	0back/STIM_001.jpg
1186.116	0.726	incorrect	0back	Block2	0back/STIM_001.jpg
1189.773	0.871	correct	0back	Block2	0back/STIM_001.jpg
1193.768	0.799	correct	0back	Block2	0back/STIM_002.jpg
1198.543	0.752	correct	0back	Block2	0back/STIM_002.jpg
1201.602	0.546	incorrect	0back	Block2	0back/STIM_002.jpg
1204.505	0.591	correct	0back	Block2	0back/STIM_003.jpg
1207.47	0.462	correct	0back	Block2	0back/STIM_003.jpg
1210.42	0.568	correct	0back	Block2	0back/STIM_003.jpg
1214.432	0.642	correct	0back	Block2	0back/STIM_004.jpg
1218.618	0.643	correct	0back	Block2	0back/STIM_004.jpg
1221.527	0.618	correct	0back	Block2	0back/STIM_004.jpg
1225.84	0.821	correct	0back	Block2	0back/STIM_005.jpg
1229.246	0.755	correct	0back	Block2	0back/STIM_005.jpg
1232.526	0.557	correct	0back	Block2	0back/STIM_005.jpg
1235.877	0.66	correct	0back	Block2	0back/STIM_006.jpg
1238.765	0.621	correct	0back	Block2	0back/STIM_006.jpg
1242.385	0.731	correct	0back	Block2	0back/STIM_006.jpg
1246.746	0.49	correct	0back	Block2	0back/STIM_007.jpg
1250.983	0.55	correct	0back	Block2	0back/STIM_007.jpg
1255.198	0.446	correct	0back	Block2	0back/STIM_007.jpg
1259.159	0.62	correct	0back	Block2	0back/STIM_008.jpg
1263.74	0.714	correct	0back	Block2	0back/STIM_008.jpg
1266.744	0.764	correct	0back	Block2	0back/STIM_008.jpg
1269.568	0.576	correct	0back	Block2	0back/STIM_009.jpg
1273.671	0.535	correct	0back	Block2	0back/STIM_009.jpg
1277.906	0.612	correct	0back	Block2	0back/STIM_009.jpg
1281.658	0.874	correct	0back	Block2	0back/STIM_010.jpg
1285.768	0.695	correct	0back	Block2	0back/STIM_010.jpg
1289.917	0.792	correct	0back	Block2	0back/STIM_010.jpg
1293.134	0.477	correct	0back	Block2	0back/STIM_011.jpg
1297.386	0.61	correct	0back	Block2	0back/STIM_011.jpg
1301.42	0.641	correct	0back	Block2	0back/STIM_011.jpg
1304.665	0.842	correct	0back	Block2	0back/STIM_012.jpg
1308.038	0.774	correct	0back	Block2	0back/STIM_012.jpg
1312.305	0.597	correct	0back	Block2	0back/STIM_012.jpg
1315.732	0.445	correct	0back	Block2	0back/STIM_013.jpg
1320.102	0.461	correct	0back	Block2	0back/STIM_013.jpg
1324.354	0.73	correct	0back	Block2	0back/STIM_013.jpg
1327.853	0.764	correct	0back	Block2	0back/STIM_014.jpg
1332.027	0.79	correct	0back	Block2	0back/STIM_014.jpg
1336.597	0.712	correct	0back	Block2	0back/STIM_014.jpg
1341.177	0.753	correct	0back	Block2	0back/STIM_015.jpg
1344.52	0.46	correct	0back	Block2	0back/STIM_015.jpg
1347.286	0.709	correct	0back	Block2	0back/STIM_015.jpg
1350.481	0.45	correct	0back	Block2	0back/STIM_016.jpg
1353.472	0.468	correct	0back	Block2	0back/STIM_016.jpg
1357.579	0.63	correct	0back	Block2	0back/STIM_016.jpg
1360.889	0.824	correct	0back	Block2	0back/STIM_017.jpg
1364.405	0.66	correct	0back	Block2	0back/STIM_017.jpg
1368.821	0.697	correct	0back	Block2	0back/STIM_017.jpg
1373.138	0.681	correct	0back	Block2	0back/STIM_018.jpg
1375.941	0.614	correct	0back	Block2	0back/STIM_018.jpg
1379.137	0.765	correct	0back	Block2	0back/STIM_018.jpg
1383.232	0.544	correct	0back	Block2	0back/STIM_019.jpg
1387.137	0.714	correct	0back	Block2	0back/STIM_019.jpg
1391.236	0.71	correct	0back	Block2	0back/STIM_019.jpg
1394.906	0.617	correct	2back	Block3	2back/STIM_000.jpg
1398.839	0.808	correct	2back	Block3	2back/STIM_000.jpg
1401.653	0.897	correct	2back	Block3	2back/STIM_000.jpg
1406.272	0.638	correct	2back	Block3	2back/STIM_001.jpg
1410.809	1.006	correct	2back	Block3	2back/STIM_001.jpg
1415.221	0.545	correct	2back	Block3	2back/STIM_001.jpg
1419.221	0.731	correct	2back	Block3	2back/STIM_002.jpg
1423.686	0.981	correct	2back	Block3	2back/STIM_002.jpg
1428.414	0.822	correct	2back	Block3	2back/STIM_002.jpg
1432.515	0.964	correct	2back	Block3	2back/STIM_003.jpg
1436.16	0.646	correct	2back	Block3	2back/STIM_003.jpg
1440.751	0.96	correct	2back	Block3	2back/STIM_003.jpg
1445.428	0.622	correct	2back	Block3	2back/STIM_004.jpg
1449.591	0.586	correct	2back	Block3	2back/STIM_004.jpg
1453.923	0.793	correct	2back	Block3	2back/STIM_004.jpg
1457.97	0.548	correct	2back	Block3	2back/STIM_005.jpg
1460.907	0.988	correct	2back	Block3	2back/STIM_005.jpg
1465.159	0.657	correct	2back	Block3	2back/STIM_005.jpg
1468.679	1.005	correct	2back	Block3	2back/STIM_006.jpg
1473.201	0.558	correct	2back	Block3	2back/STIM_006.jpg
1477.687	0.791	correct	2back	Block3	2back/STIM_006.jpg
1481.304	0.583	correct	2back	Block3	2back/STIM_007.jpg
1484.641	0.719	correct	2back	Block3	2back/STIM_007.jpg
1488.671	1.056	correct	2back	Block3	2back/STIM_007.jpg
1492.198	0.869	correct	2back	Block3	2back/STIM_008.jpg
1495.921	0.831	correct	2back	Block3	2back/STIM_008.jpg
1499.063	0.608	correct	2back	Block3	2back/STIM_008.jpg
1503.306	1.058	correct	2back	Block3	2back/STIM_009.jpg
1506.619	0.5	correct	2back	Block3	2back/STIM_009.jpg
1510.128	0.94	correct	2back	Block3	2back/STIM_009.jpg
1514.527	0.805	correct	2back	Block3	2back/STIM_010.jpg
1518.023	0.469	correct	2back	Block3	2back/STIM_010.jpg
1522.184	0.631	correct	2back	Block3	2back/STIM_010.jpg
1526.29	0.828	correct	2back	Block3	2back/STIM_011.jpg
1530.617	0.782	correct	2back	Block3	2back/STIM_011.jpg
1535.246	0.958	correct	2back	Block3	2back/STIM_011.jpg
1539.874	0.594	correct	2back	Block3	2back/STIM_012.jpg
1543.401	0.783	correct	2back	Block3	2back/STIM_012.jpg
1546.565	0.794	incorrect	2back	Block3	2back/STIM_012.jpg
1551.001	0.577	correct	2back	Block3	2back/STIM_013.jpg
1553.611	0.595	correct	2back	Block3	2back/STIM_013.jpg
1556.922	0.922	correct	2back	Block3	2back/STIM_013.jpg
1560.363	0.566	correct	2back	Block3	2back/STIM_014.jpg
1564.678	0.599	correct	2back	Block3	2back/STIM_014.jpg
1568.597	0.936	correct	2back	Block3	2back/STIM_014.jpg
1572.246	0.937	correct	2back	Block3	2back/STIM_015.jpg
1575.669	0.864	correct	2back	Block3	2back/STIM_015.jpg
1579.131	0.49	correct	2back	Block3	2back/STIM_015.jpg
1582.952	0.828	correct	2back	Block3	2back/STIM_016.jpg
1587.051	0.87	correct	2back	Block3	2back/STIM_016.jpg
1590.164	0.632	correct	2back	Block3	2back/STIM_016.jpg
1593.565	0.656	correct	2back	Block3	2back/STIM_017.jpg
1597.116	0.61	correct	2back	Block3	2back/STIM_017.jpg
1600.535	1.02	correct	2back	Block3	2back/STIM_017.jpg
1604.543	0.806	correct	2back	Block3	2back/STIM_018.jpg
1607.46	1.027	correct	2back	Block3	2back/STIM_018.jpg
1611.164	0.633	correct	2back	Block3	2back/STIM_018.jpg
1614.213	0.741	correct	2back	Block3	2back/STIM_019.jpg
1617.698	0.937	correct	2back	Block3	2back/STIM_019.jpg
1621.405	0.77	correct	2back	Block3	2back/STIM_019.jpg
1624.336	0.496	correct	2back	Block3	2back/STIM_020.jpg
1627.051	0.509	correct	2back	Block3	2back/STIM_020.jpg
1630.483	0.867	correct	2back	Block3	2back/STIM_020.jpg
1635.153	0.822	correct	2back	Block3	2back/STIM_021.jpg
1639.223	0.823	correct	2back	Block3	2back/STIM_021.jpg
1643.763	0.516	correct	2back	Block3	2back/STIM_021.jpg
1646.942	0.646	correct	2back	Block3	2back/STIM_022.jpg
1651.351	0.662	incorrect	2back	Block3	2back/STIM_022.jpg
1654.649	1.005	correct	2back	Block3	2back/STIM_022.jpg
1658.134	0.48	incorrect	2back	Block3	2back/STIM_023.jpg
1661.631	0.708	correct	2back	Block3	2back/STIM_023.jpg
1666.316	0.757	correct	2back	Block3	2back/STIM_023.jpg
1670.148	0.988	correct	2back	Block3	2back/STIM_024.jpg
1674.561	0.66	correct	2back	Block3	2back/STIM_024.jpg
1677.625	0.92	correct	2back	Block3	2back/STIM_024.jpg
1681.07	0.604	correct	2back	Block3	2back/STIM_025.jpg
1684.457	0.935	correct	2back	Block3	2back/STIM_025.jpg
1688.324	0.818	correct	2back	Block3	2back/STIM_025.jpg
1692.347	1.026	correct	2back	Block3	2back/STIM_026.jpg
1695.912	1.072	correct	2back	Block3	2back/STIM_026.jpg
1699.403	0.998	correct	2back	Block3	2back/STIM_026.jpg
1703.869	0.501	correct	2back	Block3	2back/STIM_027.jpg
1706.98	0.485	correct	2back	Block3	2back/STIM_027.jpg
1710.739	1.055	correct	2back	Block3	2back/STIM_027.jpg
1715.683	0.828	correct	2back	Block3	2back/STIM_028.jpg
1719.296	0.551	correct	2back	Block3	2back/STIM_028.jpg
1723.347	0.591	correct	2back	Block3	2back/STIM_028.jpg
1726.217	0.723	correct	2back	Block3	2back/STIM_029.jpg
1729.126	0.779	incorrect	2back	Block3	2back/STIM_029.jpg
1732.039	0.582	correct	2back	Block3	2back/STIM_029.jpg
1736.512	0.628	correct	2back	Block3	2back/STIM_030.jpg
1739.156	0.847	correct	2back	Block3	2back/STIM_030.jpg
1742.057	0.697	correct	2back	Block3	2back/STIM_030.jpg
1746.626	0.654	correct	2back	Block3	2back/STIM_031.jpg
1750.672	0.963	correct	2back	Block3	2back/STIM_031.jpg
1753.877	1.046	correct	2back	Block3	2back/STIM_031.jpg
1758.21	0.855	correct	2back	Block3	2back/STIM_032.jpg
1761.096	0.73	correct	2back	Block3	2back/STIM_032.jpg
1765.795	0.849	correct	2back	Block3	2back/STIM_032.jpg
1770.306	0.876	correct	2back	Block3	2back/STIM_033.jpg
1774.967	0.805	correct	2back	Block3	2back/STIM_033.jpg
1778.474	0.642	correct	2back	Block3	2back/STIM_033.jpg
1781.806	1.026	correct	2back	Block3	2back/STIM_034.jpg
1785.772	0.785	correct	2back	Block3	2back/STIM_034.jpg
1789.486	0.895	correct	2back	Block3	2back/STIM_034.jpg
1794.177	0.945	correct	2back	Block3	2back/STIM_035.jpg
1798.692	0.999	correct	2back	Block3	2back/STIM_035.jpg
1802.269	0.83	correct	2back	Block3	2back/STIM_035.jpg
1805.553	0.955	correct	2back	Block3	2back/STIM_036.jpg
1809.396	0.933	correct	2back	Block3	2back/STIM_036.jpg
1814.038	0.927	correct	2back	Block3	2back/STIM_036.jpg
1817.953	0.686	correct	2back	Block3	2back/STIM_037.jpg
1821.642	0.531	correct	2back	Block3	2back/STIM_037.jpg
1825.158	0.645	correct	2back	Block3	2back/STIM_037.jpg
1829.187	1.075	incorrect	2back	Block3	2back/STIM_038.jpg
1833.57	1.017	correct	2back	Block3	2back/STIM_038.jpg
1837.487	1.012	correct	2back	Block3	2back/STIM_038.jpg
1842.162	0.994	correct	2back	Block3	2back/STIM_039.jpg
1845.87	0.635	correct	2back	Block3	2back/STIM_039.jpg
1850.475	0.472	correct	2back	Block3	2back/STIM_039.jpg
1853.091	0.498	correct	0back	Block3	0back/STIM_000.jpg
1855.628	0.619	correct	0back	Block3	0back/STIM_000.jpg
1860.047	0.766	correct	0back	Block3	0back/STIM_000.jpg
1863.608	0.817	correct	0back	Block3	0back/STIM_001.jpg
1868.086	0.842	correct	0back	Block3	0back/STIM_001.jpg
1872.067	0.643	correct	0back	Block3	0back/STIM_001.jpg
1876.016	0.686	correct	0back	Block3	0back/STIM_002.jpg
1879.486	0.867	correct	0back	Block3	0back/STIM_002.jpg
1883.399	0.808	correct	0back	Block3	0back/STIM_002.jpg
1887.071	0.499	correct	0back	Block3	0back/STIM_003.jpg
1890.417	0.687	correct	0back	Block3	0back/STIM_003.jpg
1894.926	0.833	correct	0back	Block3	0back/STIM_003.jpg
1898.699	0.544	correct	0back	Block3	0back/STIM_004.jpg
1901.357	0.669	correct	0back	Block3	0back/STIM_004.jpg
1906.012	0.446	correct	0back	Block3	0back/STIM_004.jpg
1909.406	0.547	correct	0back	Block3	0back/STIM_005.jpg
1913.389	0.593	correct	0back	Block3	0back/STIM_005.jpg
1917.81	0.496	correct	0back	Block3	0back/STIM_005.jpg
1921.386	0.651	correct	0back	Block3	0back/STIM_006.jpg
1925.466	0.473	correct	0back	Block3	0back/STIM_006.jpg
1929.47	0.829	correct	0back	Block3	0back/STIM_006.jpg
1932.814	0.757	correct	0back	Block3	0back/STIM_007.jpg
1937.489	0.746	correct	0back	Block3	0back/STIM_007.jpg
1941.498	0.605	correct	0back	Block3	0back/STIM_007.jpg
1944.47	0.841	correct	0back	Block3	0back/STIM_008.jpg
1948.898	0.714	correct	0back	Block3	0back/STIM_008.jpg
1953.059	0.834	correct	0back	Block3	0back/STIM_008.jpg
1956.616	0.714	correct	0back	Block3	0back/STIM_009.jpg
1959.357	0.772	correct	0back	Block3	0back/STIM_009.jpg
1962.697	0.827	correct	0back	Block3	0back/STIM_009.jpg
1967.285	0.582	correct	0back	Block3	0back/STIM_010.jpg
1971.096	0.736	correct	0back	Block3	0back/STIM_010.jpg
1974.265	0.683	correct	0back	Block3	0back/STIM_010.jpg
1978.532	0.47	correct	0back	Block3	0back/STIM_011.jpg
1982.365	0.691	correct	0back	Block3	0back/STIM_011.jpg
1986.573	0.766	correct	0back	Block3	0back/STIM_011.jpg
1991.323	0.681	correct	0back	Block3	0back/STIM_012.jpg
1994.689	0.531	correct	0back	Block3	0back/STIM_012.jpg
1997.459	0.503	correct	0back	Block3	0back/STIM_012.jpg
2001.337	0.443	correct	0back	Block3	0back/STIM_013.jpg
2005.263	0.54	correct	0back	Block3	0back/STIM_013.jpg
2007.839	0.659	correct	0back	Block3	0back/STIM_013.jpg
2011.507	0.844	correct	0back	Block3	0back/STIM_014.jpg
2015.903	0.62	correct	0back	Block3	0back/STIM_014.jpg
2019.364	0.618	correct	0back	Block3	0back/STIM_014.jpg
2022.793	0.481	incorrect	0back	Block3	0back/STIM_015.jpg
2026.536	0.574	correct	0back	Block3	0back/STIM_015.jpg
2030.202	0.553	correct	0back	Block3	0back/STIM_015.jpg
2034.68	0.653	correct	0back	Block3	0back/STIM_016.jpg
2038.122	0.754	correct	0back	Block3	0back/STIM_016.jpg
2042.819	0.547	correct	0back	Block3	0back/STIM_016.jpg
2046.078	0.47	correct	0back	Block3	0back/STIM_017.jpg
2050.503	0.876	correct	0back	Block3	0back/STIM_017.jpg
2055.171	0.49	correct	0back	Block3	0back/STIM_017.jpg
2059.266	0.66	correct	0back	Block3	0back/STIM_018.jpg
2062.038	0.877	correct	0back	Block3	0back/STIM_018.jpg
2065.272	0.674	correct	0back	Block3	0back/STIM_018.jpg
2068.074	0.814	correct	0back	Block3	0back/STIM_019.jpg
2072.625	0.504	correct	0back	Block3	0back/STIM_019.jpg
2076.034	0.696	correct	0back	Block3	0back/STIM_019.jpg
2080.518	0.819	correct	2back	Block4	2back/STIM_000.jpg
2085.053	0.489	correct	2back	Block4	2back/STIM_000.jpg
2087.979	0.981	correct	2back	Block4	2back/STIM_000.jpg
2092.064	0.915	correct	2back	Block4	2back/STIM_001.jpg
2095.938	0.639	correct	2back	Block4	2back/STIM_001.jpg
2098.907	0.603	correct	2back	Block4	2back/STIM_001.jpg
2102.096	0.898	correct	2back	Block4	2back/STIM_002.jpg
2105.851	0.792	correct	2back	Block4	2back/STIM_002.jpg
2109.428	1.01	correct	2back	Block4	2back/STIM_002.jpg
2113.752	0.487	correct	2back	Block4	2back/STIM_003.jpg
2116.284	1.066	correct	2back	Block4	2back/STIM_003.jpg
2119.578	1.059	correct	2back	Block4	2back/STIM_003.jpg
2123.412	0.623	correct	2back	Block4	2back/STIM_004.jpg
2127.442	1.028	correct	2back	Block4	2back/STIM_004.jpg
2132.423	0.9	correct	2back	Block4	2back/STIM_004.jpg
2137.141	0.97	correct	2back	Block4	2back/STIM_005.jpg
2140.771	0.603	correct	2back	Block4	2back/STIM_005.jpg
2143.665	0.641	correct	2back	Block4	2back/STIM_005.jpg
2147.028	0.555	correct	2back	Block4	2back/STIM_006.jpg
2149.724	1.046	correct	2back	Block4	2back/STIM_006.jpg
2153.61	0.642	correct	2back	Block4	2back/STIM_006.jpg
2157.463	0.75	correct	2back	Block4	2back/STIM_007.jpg
2162.201	0.933	correct	2back	Block4	2back/STIM_007.jpg
2165.535	0.702	correct	2back	Block4	2back/STIM_007.jpg
2169.036	1.07	correct	2back	Block4	2back/STIM_008.jpg
2172.185	1.024	correct	2back	Block4	2back/STIM_008.jpg
2176.153	0.871	correct	2back	Block4	2back/STIM_008.jpg
2180.095	0.474	correct	2back	Block4	2back/STIM_009.jpg
2182.574	0.514	correct	2back	Block4	2back/STIM_009.jpg
2185.243	0.698	correct	2back	Block4	2back/STIM_009.jpg
2189.368	0.515	correct	2back	Block4	2back/STIM_010.jpg
2192.103	0.86	correct	2back	Block4	2back/STIM_010.jpg
2195.711	1.003	correct	2back	Block4	2back/STIM_010.jpg
2199.209	0.836	correct	2back	Block4	2back/STIM_011.jpg
2203.517	0.527	correct	2back	Block4	2back/STIM_011.jpg
2207.506	0.557	correct	2back	Block4	2back/STIM_011.jpg
2211.676	0.476	correct	2back	Block4	2back/STIM_012.jpg
2214.791	0.557	correct	2back	Block4	2back/STIM_012.jpg
2219.257	0.847	correct	2back	Block4	2back/STIM_012.jpg
2222.865	0.518	correct	2back	Block4	2back/STIM_013.jpg
2227.149	0.465	correct	2back	Block4	2back/STIM_013.jpg
2229.821	0.756	correct	2back	Block4	2back/STIM_013.jpg
2232.885	0.939	correct	2back	Block4	2back/STIM_014.jpg
2236.916	0.772	correct	2back	Block4	2back/STIM_014.jpg
2240.04	0.992	correct	2back	Block4	2back/STIM_014.jpg
2243.745	0.965	correct	2back	Block4	2back/STIM_015.jpg
2247.271	0.583	correct	2back	Block4	2back/STIM_015.jpg
2250.252	0.903	correct	2back	Block4	2back/STIM_015.jpg
2253.983	0.726	correct	2back	Block4	2back/STIM_016.jpg
2257.376	0.899	correct	2back	Block4	2back/STIM_016.jpg
2260.309	0.799	correct	2back	Block4	2back/STIM_016.jpg
2263.931	1.057	correct	2back	Block4	2back/STIM_017.jpg
2268.263	0.552	correct	2back	Block4	2back/STIM_017.jpg
2271.517	0.569	correct	2back	Block4	2back/STIM_017.jpg
2275.67	0.848	correct	2back	Block4	2back/STIM_018.jpg
2279.708	0.734	correct	2back	Block4	2back/STIM_018.jpg
2283.2	0.944	correct	2back	Block4	2back/STIM_018.jpg
2287.475	0.842	correct	2back	Block4	2back/STIM_019.jpg
2290.881	0.946	correct	2back	Block4	2back/STIM_019.jpg
2295.514	0.673	correct	2back	Block4	2back/STIM_019.jpg
2298.752	0.673	correct	2back	Block4	2back/STIM_020.jpg
2302.654	0.57	correct	2back	Block4	2back/STIM_020.jpg
2306.309	0.974	correct	2back	Block4	2back/STIM_020.jpg
2309.855	0.951	correct	2back	Block4	2back/STIM_021.jpg
2312.847	0.866	correct	2back	Block4	2back/STIM_021.jpg
2317.536	0.871	correct	2back	Block4	2back/STIM_021.jpg
2321.99	0.851	correct	2back	Block4	2back/STIM_022.jpg
2325.118	0.533	correct	2back	Block4	2back/STIM_022.jpg
2329.434	0.637	correct	2back	Block4	2back/STIM_022.jpg
2332.509	0.662	correct	2back	Block4	2back/STIM_023.jpg
2335.517	0.727	correct	2back	Block4	2back/STIM_023.jpg
2338.954	0.602	correct	2back	Block4	2back/STIM_023.jpg
2342.972	0.931	correct	2back	Block4	2back/STIM_024.jpg
2346.576	0.621	correct	2back	Block4	2back/STIM_024.jpg
2349.466	0.528	correct	2back	Block4	2back/STIM_024.jpg
2353.085	0.812	correct	2back	Block4	2back/STIM_025.jpg
2355.982	0.691	correct	2back	Block4	2back/STIM_025.jpg
2359.059	0.991	correct	2back	Block4	2back/STIM_025.jpg
2362.418	0.83	correct	2back	Block4	2back/STIM_026.jpg
2366.815	1.078	correct	2back	Block4	2back/STIM_026.jpg
2371.571	0.581	correct	2back	Block4	2back/STIM_026.jpg
2374.158	0.509	correct	2back	Block4	2back/STIM_027.jpg
2377.824	0.91	correct	2back	Block4	2back/STIM_027.jpg
2382.085	0.848	correct	2back	Block4	2back/STIM_027.jpg
2385.306	0.756	correct	2back	Block4	2back/STIM_028.jpg
2388.777	0.786	correct	2back	Block4	2back/STIM_028.jpg
2392.127	0.579	correct	2back	Block4	2back/STIM_028.jpg
2394.894	0.805	correct	2back	Block4	2back/STIM_029.jpg
2398.765	0.49	correct	2back	Block4	2back/STIM_029.jpg
2403.04	0.752	correct	2back	Block4	2back/STIM_029.jpg
2406.306	1.034	correct	2back	Block4	2back/STIM_030.jpg
2411.327	0.721	correct	2back	Block4	2back/STIM_030.jpg
2415.491	0.697	correct	2back	Block4	2back/STIM_030.jpg
2419.581	0.987	correct	2back	Block4	2back/STIM_031.jpg
2424.103	1.039	correct	2back	Block4	2back/STIM_031.jpg
2429.093	1.076	correct	2back	Block4	2back/STIM_031.jpg
2432.335	0.858	incorrect	2back	Block4	2back/STIM_032.jpg
2436.908	0.757	correct	2back	Block4	2back/STIM_032.jpg
2440.513	0.603	correct	2back	Block4	2back/STIM_032.jpg
2444.228	0.798	correct	2back	Block4	2back/STIM_033.jpg
2448.839	0.921	correct	2back	Block4	2back/STIM_033.jpg
2452.027	0.758	correct	2back	Block4	2back/STIM_033.jpg
2456.464	0.906	correct	2back	Block4	2back/STIM_034.jpg
2460.166	0.978	correct	2back	Block4	2back/STIM_034.jpg
2464.436	1.08	correct	2back	Block4	2back/STIM_034.jpg
2467.8	0.584	correct	2back	Block4	2back/STIM_035.jpg
2471.149	0.67	correct	2back	Block4	2back/STIM_035.jpg
2475.039	0.557	correct	2back	Block4	2back/STIM_035.jpg
2478.011	0.963	correct	2back	Block4	2back/STIM_036.jpg
2482.485	0.595	correct	2back	Block4	2back/STIM_036.jpg
2486.803	0.78	correct	2back	Block4	2back/STIM_036.jpg
2489.835	0.764	correct	2back	Block4	2back/STIM_037.jpg
2493.374	0.516	correct	2back	Block4	2back/STIM_037.jpg
2496.833	0.624	correct	2back	Block4	2back/STIM_037.jpg
2499.485	0.812	correct	2back	Block4	2back/STIM_038.jpg
2503.116	0.492	correct	2back	Block4	2back/STIM_038.jpg
2506.523	0.548	correct	2back	Block4	2back/STIM_038.jpg
2509.14	0.96	correct	2back	Block4	2back/STIM_039.jpg
2513.258	0.553	correct	2back	Block4	2back/STIM_039.jpg
2517.066	0.6	correct	2back	Block4	2back/STIM_039.jpg
2519.742	0.577	correct	0back	Block4	0back/STIM_000.jpg
2523.023	0.477	correct	0back	Block4	0back/STIM_000.jpg
2525.547	0.846	correct	0back	Block4	0back/STIM_000.jpg
2530.225	0.604	correct	0back	Block4	0back/STIM_001.jpg
2533.78	0.552	correct	0back	Block4	0back/STIM_001.jpg
2537.223	0.768	correct	0back	Block4	0back/STIM_001.jpg
2541.264	0.836	correct	0back	Block4	0back/STIM_002.jpg
2545.984	0.567	correct	0back	Block4	0back/STIM_002.jpg
2549.039	0.587	correct	0back	Block4	0back/STIM_002.jpg
2551.78	0.676	correct	0back	Block4	0back/STIM_003.jpg
2555.336	0.7	correct	0back	Block4	0back/STIM_003.jpg
2558.496	0.608	correct	0back	Block4	0back/STIM_003.jpg
2561.499	0.587	incorrect	0back	Block4	0back/STIM_004.jpg
2565.251	0.666	correct	0back	Block4	0back/STIM_004.jpg
2568.282	0.472	correct	0back	Block4	0back/STIM_004.jpg
2570.915	0.569	correct	0back	Block4	0back/STIM_005.jpg
2574.597	0.587	correct	0back	Block4	0back/STIM_005.jpg
2577.313	0.613	correct	0back	Block4	0back/STIM_005.jpg
2581.147	0.532	correct	0back	Block4	0back/STIM_006.jpg
2584.289	0.615	correct	0back	Block4	0back/STIM_006.jpg
2588.668	0.7	correct	0back	Block4	0back/STIM_006.jpg
2592.282	0.632	correct	0back	Block4	0back/STIM_007.jpg
2595.981	0.55	correct	0back	Block4	0back/STIM_007.jpg
2599.228	0.752	correct	0back	Block4	0back/STIM_007.jpg
2603.046	0.649	correct	0back	Block4	0back/STIM_008.jpg
2606.349	0.483	correct	0back	Block4	0back/STIM_008.jpg
2609.758	0.635	correct	0back	Block4	0back/STIM_008.jpg
2613.764	0.489	correct	0back	Block4	0back/STIM_009.jpg
2617.908	0.75	correct	0back	Block4	0back/STIM_009.jpg
2620.955	0.806	correct	0back	Block4	0back/STIM_009.jpg
2625.324	0.69	correct	0back	Block4	0back/STIM_010.jpg
2629.183	0.526	correct	0back	Block4	0back/STIM_010.jpg
2633.361	0.847	correct	0back	Block4	0back/STIM_010.jpg
2637.269	0.858	correct	0back	Block4	0back/STIM_011.jpg
2642.04	0.831	correct	0back	Block4	0back/STIM_011.jpg
2646.24	0.604	correct	0back	Block4	0back/STIM_011.jpg
2649.045	0.557	correct	0back	Block4	0back/STIM_012.jpg
2652.337	0.457	correct	0back	Block4	0back/STIM_012.jpg
2656.343	0.453	correct	0back	Block4	0back/STIM_012.jpg
2659.039	0.753	correct	0back	Block4	0back/STIM_013.jpg
2663.718	0.67	correct	0back	Block4	0back/STIM_013.jpg
2666.448	0.796	correct	0back	Block4	0back/STIM_013.jpg
2669.885	0.663	correct	0back	Block4	0back/STIM_014.jpg
2672.728	0.578	correct	0back	Block4	0back/STIM_014.jpg
2676.447	0.723	correct	0back	Block4	0back/STIM_014.jpg
2680.261	0.839	correct	0back	Block4	0back/STIM_015.jpg
2683.827	0.7	correct	0back	Block4	0back/STIM_015.jpg
2686.768	0.701	correct	0back	Block4	0back/STIM_015.jpg
2690.381	0.523	correct	0back	Block4	0back/STIM_016.jpg
2694.704	0.579	correct	0back	Block4	0back/STIM_016.jpg
2697.599	0.657	correct	0back	Block4	0back/STIM_016.jpg
2701.436	0.88	correct	0back	Block4	0back/STIM_017.jpg
2705.85	0.729	correct	0back	Block4	0back/STIM_017.jpg
2709.997	0.665	correct	0back	Block4	0back/STIM_017.jpg
2712.857	0.704	correct	0back	Block4	0back/STIM_018.jpg
2717.365	0.664	incorrect	0back	Block4	0back/STIM_018.jpg
2720.636	0.479	correct	0back	Block4	0back/STIM_018.jpg
2723.867	0.506	correct	0back	Block4	0back/STIM_019.jpg
2726.819	0.486	correct	0back	Block4	0back/STIM_019.jpg
2729.432	0.792	correct	0back	Block4	0back/STIM_019.jpg
