onset	duration	response_time_ms	trial_type	learning_stage	stimulus	response_port
0.0	1.822	1821.5	study	Phase1	study/STIM_000.jpg	100
4.337	1.212	1212.2	study	Phase1	study/STIM_000.jpg	99
8.335	1.133	1132.6	study	Phase1	study/STIM_000.jpg	99
12.905	1.598	1597.6	study	Phase1	study/STIM_001.jpg	99
17.437	1.672	1672.4	study	Phase1	study/STIM_001.jpg	99
21.152	1.378	1377.5	study	Phase1	study/STIM_001.jpg	100
24.795	1.648	1648.5	study	Phase1	study/STIM_002.jpg	99
30.187	1.012	1011.7	study	Phase1	study/STIM_002.jpg	100
33.275	1.286	1285.7	study	Phase1	study/STIM_002.jpg	100
37.28	1.742	1741.5	study	Phase1	study/STIM_003.jpg	99
41.965	1.031	1030.8	study	Phase1	study/STIM_003.jpg	100
45.018	1.544	1544.2	study	Phase1	study/STIM_003.jpg	100
50.152	1.068	1067.7	study	Phase1	study/STIM_004.jpg	100
53.133	1.622	1621.9	study	Phase1	study/STIM_004.jpg	100
57.761	1.491	1491.3	study	Phase1	study/STIM_004.jpg	100
62.196	1.184	1184.1	study	Phase1	study/STIM_005.jpg	99
67.001	1.481	1481.1	study	Phase1	study/STIM_005.jpg	100
71.152	1.63	1629.6	study	Phase1	study/STIM_005.jpg	99
76.148	1.671	1670.6	study	Phase1	study/STIM_006.jpg	99
80.407	0.861	861.4	study	Phase1	study/STIM_006.jpg	99
83.43	1.294	1293.8	study	Phase1	study/STIM_006.jpg	100
87.041	1.42	1420.4	study	Phase1	study/STIM_007.jpg	99
90.646	1.612	1612.5	study	Phase1	study/STIM_007.jpg	99
94.568	1.32	1319.8	study	Phase1	study/STIM_007.jpg	99
99.631	1.825	1825.4	study	Phase1	study/STIM_008.jpg	99
104.029	1.2	1199.9	study	Phase1	study/STIM_008.jpg	100
108.188	1.525	1524.8	study	Phase1	study/STIM_008.jpg	100
112.012	1.352	1351.9	study	Phase1	study/STIM_009.jpg	99
116.69	1.318	1317.9	study	Phase1	study/STIM_009.jpg	100
120.544	1.639	1638.8	study	Phase1	study/STIM_009.jpg	99
125.818	1.341	1340.9	study	Phase1	study/STIM_010.jpg	100
130.452	0.955	955.4	study	Phase1	study/STIM_010.jpg	99
134.675	0.752	751.7	study	Phase1	study/STIM_010.jpg	100
138.695	1.548	1548.1	study	Phase1	study/STIM_011.jpg	100
143.599	1.515	1514.6	study	Phase1	study/STIM_011.jpg	99
148.135	0.985	984.8	study	Phase1	study/STIM_011.jpg	100
151.126	1.222	1222.4	study	Phase1	study/STIM_012.jpg	99
155.147	0.913	912.7	study	Phase1	study/STIM_012.jpg	99
159.228	1.683	1683.2	study	Phase1	study/STIM_012.jpg	100
163.83	1.254	1254.3	study	Phase1	study/STIM_013.jpg	100
166.99	1.163	1162.6	study	Phase1	study/STIM_013.jpg	100
170.406	0.825	825.0	study	Phase1	study/STIM_013.jpg	100
174.993	1.83	1829.5	study	Phase1	study/STIM_014.jpg	99
178.836	1.566	1565.6	study	Phase1	study/STIM_014.jpg	100
183.639	1.479	1479.3	study	Phase1	study/STIM_014.jpg	99
188.964	1.666	1665.7	study	Phase1	study/STIM_015.jpg	100
193.026	1.758	1757.6	study	Phase1	study/STIM_015.jpg	99
198.474	1.098	1098.5	study	Phase1	study/STIM_015.jpg	99
203.129	0.936	935.7	study	Phase1	study/STIM_016.jpg	99
206.456	1.768	1767.8	study	Phase1	study/STIM_016.jpg	100
211.389	1.156	1156.1	study	Phase1	study/STIM_016.jpg	100
216.098	0.949	949.3	study	Phase1	study/STIM_017.jpg	100
220.269	1.336	1336.5	study	Phase1	study/STIM_017.jpg	100
223.769	0.983	982.6	study	Phase1	study/STIM_017.jpg	100
226.663	1.767	1766.9	study	Phase1	study/STIM_018.jpg	99
230.661	1.446	1445.9	study	Phase1	study/STIM_018.jpg	99
235.174	1.595	1594.9	study	Phase1	study/STIM_018.jpg	100
240.259	1.246	1246.3	study	Phase1	study/STIM_019.jpg	100
243.806	1.802	1801.9	study	Phase1	study/STIM_019.jpg	100
249.172	1.391	1390.9	study	Phase1	study/STIM_019.jpg	100
253.311	1.784	1783.9	study	Phase1	study/STIM_020.jpg	99
257.906	1.683	1683.0	study	Phase1	study/STIM_020.jpg	99
263.303	1.552	1551.6	study	Phase1	study/STIM_020.jpg	99
268.42	1.457	1457.1	study	Phase1	study/STIM_021.jpg	99
272.885	1.228	1228.1	study	Phase1	study/STIM_021.jpg	99
276.498	1.185	1185.1	study	Phase1	study/STIM_021.jpg	99
279.86	1.196	1196.0	study	Phase1	study/STIM_022.jpg	99
283.744	1.728	1727.9	study	Phase1	study/STIM_022.jpg	99
288.063	0.942	942.3	study	Phase1	study/STIM_022.jpg	100
292.122	1.576	1576.2	study	Phase1	study/STIM_023.jpg	100
296.478	1.632	1631.9	study	Phase1	study/STIM_023.jpg	99
300.096	1.375	1374.6	study	Phase1	study/STIM_023.jpg	100
305.363	1.525	1524.6	study	Phase1	study/STIM_024.jpg	99
309.633	1.357	1357.3	study	Phase1	study/STIM_024.jpg	99
314.797	1.464	1464.4	study	Phase1	study/STIM_024.jpg	99
319.205	1.078	1077.5	study	Phase1	study/STIM_025.jpg	99
323.4	1.458	1458.1	study	Phase1	study/STIM_025.jpg	99
327.143	1.452	1452.1	study	Phase1	study/STIM_025.jpg	100
331.624	1.461	1460.7	study	Phase1	study/STIM_026.jpg	99
336.769	1.821	1821.1	study	Phase1	study/STIM_026.jpg	99
342.29	1.534	1534.1	study	Phase1	study/STIM_026.jpg	100
347.439	1.677	1677.1	study	Phase1	study/STIM_027.jpg	99
351.065	1.749	1748.6	study	Phase1	study/STIM_027.jpg	99
356.25	1.145	1144.6	study	Phase1	study/STIM_027.jpg	99
360.652	1.876	1876.3	study	Phase1	study/STIM_028.jpg	100
366.09	1.626	1625.8	study	Phase1	study/STIM_028.jpg	99
370.314	0.848	847.7	study	Phase1	study/STIM_028.jpg	100
374.03	0.925	925.4	study	Phase1	study/STIM_029.jpg	100
378.619	1.413	1413.0	study	Phase1	study/STIM_029.jpg	99
382.296	1.526	1526.1	study	Phase1	study/STIM_029.jpg	99
386.809	1.248	1247.6	test	Phase1	test/STIM_000.jpg	100
391.51	1.204	1204.4	test	Phase1	test/STIM_000.jpg	100
395.166	0.761	761.0	test	Phase1	test/STIM_000.jpg	100
398.129	1.359	1358.7	test	Phase1	test/STIM_001.jpg	99
403.286	1.094	1094.4	test	Phase1	test/STIM_001.jpg	100
407.298	0.9	900.2	test	Phase1	test/STIM_001.jpg	99
411.746	0.639	638.7	test	Phase1	test/STIM_002.jpg	99
415.806	0.614	613.7	test	Phase1	test/STIM_002.jpg	100
419.758	0.704	703.6	test	Phase1	test/STIM_002.jpg	100
422.685	0.958	957.9	test	Phase1	test/STIM_003.jpg	99
427.565	1.256	1255.8	test	Phase1	test/STIM_003.jpg	99
431.375	0.737	737.0	test	Phase1	test/STIM_003.jpg	99
434.205	1.305	1305.2	test	Phase1	test/STIM_004.jpg	100
438.747	0.891	890.6	test	Phase1	test/STIM_004.jpg	100
442.45	1.049	1049.0	test	Phase1	test/STIM_004.jpg	99
446.582	0.937	936.6	test	Phase1	test/STIM_005.jpg	100
449.59	1.026	1026.5	test	Phase1	test/STIM_005.jpg	100
452.639	1.137	1137.1	test	Phase1	test/STIM_005.jpg	100
457.054	0.725	724.9	test	Phase1	test/STIM_006.jpg	99
460.347	0.81	809.5	test	Phase1	test/STIM_006.jpg	99
464.414	0.852	852.5	test	Phase1	test/STIM_006.jpg	99
468.703	0.968	967.9	test	Phase1	test/STIM_007.jpg	99
471.901	1.407	1407.0	test	Phase1	test/STIM_007.jpg	99
476.973	0.955	955.3	test	Phase1	test/STIM_007.jpg	99
479.923	1.457	1456.9	test	Phase1	test/STIM_008.jpg	100
483.937	1.2	1200.0	test	Phase1	test/STIM_008.jpg	99
488.882	0.942	942.0	test	Phase1	test/STIM_008.jpg	100
493.427	1.21	1210.3	test	Phase1	test/STIM_009.jpg	99
498.264	0.656	655.7	test	Phase1	test/STIM_009.jpg	99
501.31	0.85	849.9	test	Phase1	test/STIM_009.jpg	99
505.01	1.01	1009.5	test	Phase1	test/STIM_010.jpg	99
508.637	0.821	820.9	test	Phase1	test/STIM_010.jpg	100
512.16	1.043	1042.9	test	Phase1	test/STIM_010.jpg	99
516.933	1.157	1157.2	test	Phase1	test/STIM_011.jpg	99
521.706	1.428	1428.3	test	Phase1	test/STIM_011.jpg	100
526.937	1.047	1046.9	test	Phase1	test/STIM_011.jpg	99
530.583	1.128	1127.6	test	Phase1	test/STIM_012.jpg	99
533.853	0.67	670.4	test	Phase1	test/STIM_012.jpg	100
537.264	1.088	1087.6	test	Phase1	test/STIM_012.jpg	100
542.219	0.887	887.2	test	Phase1	test/STIM_013.jpg	100
545.229	0.826	826.0	test	Phase1	test/STIM_013.jpg	100
549.131	1.257	1257.0	test	Phase1	test/STIM_013.jpg	99
552.992	0.649	648.8	test	Phase1	test/STIM_014.jpg	100
557.164	0.662	662.5	test	Phase1	test/STIM_014.jpg	100
561.719	0.87	870.1	test	Phase1	test/STIM_014.jpg	100
565.304	1.147	1146.8	test	Phase1	test/STIM_015.jpg	100
570.316	1.233	1233.1	test	Phase1	test/STIM_015.jpg	99
574.447	0.927	927.3	test	Phase1	test/STIM_015.jpg	100
578.712	1.039	1038.8	test	Phase1	test/STIM_016.jpg	99
582.668	1.367	1366.6	test	Phase1	test/STIM_016.jpg	100
586.321	0.595	595.4	test	Phase1	test/STIM_016.jpg	99
590.773	1.404	1403.6	test	Phase1	test/STIM_017.jpg	100
595.53	1.084	1084.3	test	Phase1	test/STIM_017.jpg	100
599.598	1.168	1168.3	test	Phase1	test/STIM_017.jpg	99
604.032	0.813	812.9	test	Phase1	test/STIM_018.jpg	99
608.389	1.206	1205.7	test	Phase1	test/STIM_018.jpg	100
611.685	1.404	1403.5	test	Phase1	test/STIM_018.jpg	100
615.762	1.139	1139.0	test	Phase1	test/STIM_019.jpg	100
619.711	1.34	1340.0	test	Phase1	test/STIM_019.jpg	100
623.139	0.483	482.6	test	Phase1	test/STIM_019.jpg	100
626.036	0.878	877.8	test	Phase1	test/STIM_020.jpg	100
629.244	0.847	847.4	test	Phase1	test/STIM_020.jpg	99
633.293	1.052	1051.6	test	Phase1	test/STIM_020.jpg	99
637.481	1.393	1393.2	test	Phase1	test/STIM_021.jpg	100
640.786	1.269	1268.6	test	Phase1	test/STIM_021.jpg	99
644.07	0.903	903.0	test	Phase1	test/STIM_021.jpg	99
647.923	1.191	1191.3	test	Phase1	test/STIM_022.jpg	99
651.478	0.931	931.2	test	Phase1	test/STIM_022.jpg	99
655.029	1.415	1415.1	test	Phase1	test/STIM_022.jpg	99
660.278	1.192	1191.7	test	Phase1	test/STIM_023.jpg	100
664.143	0.962	961.9	test	Phase1	test/STIM_023.jpg	99
668.742	0.961	961.0	test	Phase1	test/STIM_023.jpg	99
673.217	1.338	1337.5	test	Phase1	test/STIM_024.jpg	99
677.751	0.734	733.7	test	Phase1	test/STIM_024.jpg	100
680.482	0.706	705.6	test	Phase1	test/STIM_024.jpg	99
683.709	1.182	1182.5	test	Phase1	test/STIM_025.jpg	100
687.107	1.24	1240.2	test	Phase1	test/STIM_025.jpg	100
690.439	1.081	1081.4	test	Phase1	test/STIM_025.jpg	100
694.526	1.401	1401.0	test	Phase1	test/STIM_026.jpg	99
699.756	1.019	1019.0	test	Phase1	test/STIM_026.jpg	99
703.653	0.869	869.3	test	Phase1	test/STIM_026.jpg	99
707.767	0.925	925.1	test	Phase1	test/STIM_027.jpg	99
711.632	0.797	797.1	test	Phase1	test/STIM_027.jpg	100
715.87	1.356	1356.2	test	Phase1	test/STIM_027.jpg	100
720.209	1.057	1057.1	test	Phase1	test/STIM_028.jpg	99
724.46	0.767	767.0	test	Phase1	test/STIM_028.jpg	100
728.472	1.141	1141.4	test	Phase1	test/STIM_028.jpg	99
731.923	1.362	1362.5	test	Phase1	test/STIM_029.jpg	100
737.157	1.258	1258.3	test	Phase1	test/STIM_029.jpg	99
741.827	0.667	667.2	test	Phase1	test/STIM_029.jpg	99
744.681	0.838	838.2	study	Phase2	study/STIM_000.jpg	99
747.867	1.388	1388.0	study	Phase2	study/STIM_000.jpg	100
752.586	1.137	1137.4	study	Phase2	study/STIM_000.jpg	99
756.162	0.979	979.2	study	Phase2	study/STIM_001.jpg	99
760.305	0.884	884.2	study	Phase2	study/STIM_001.jpg	99
763.258	1.279	1278.8	study	Phase2	study/STIM_001.jpg	100
767.845	1.542	1542.0	study	Phase2	study/STIM_002.jpg	99
772.197	0.784	784.3	study	Phase2	study/STIM_002.jpg	99
775.879	0.718	718.1	study	Phase2	study/STIM_002.jpg	99
779.119	0.76	760.1	study	Phase2	study/STIM_003.jpg	100
782.807	1.044	1044.5	study	Phase2	study/STIM_003.jpg	100
787.444	0.64	639.5	study	Phase2	study/STIM_003.jpg	100
791.578	0.943	943.0	study	Phase2	study/STIM_004.jpg	99
794.615	1.382	1382.3	study	Phase2	study/STIM_004.jpg	100
798.069	1.354	1354.3	study	Phase2	study/STIM_004.jpg	100
801.975	1.378	1378.4	study	Phase2	study/STIM_005.jpg	99
807.105	1.158	1157.5	study	Phase2	study/STIM_005.jpg	100
811.515	1.203	1202.8	study	Phase2	study/STIM_005.jpg	100
815.755	1.561	1561.3	study	Phase2	study/STIM_006.jpg	99
819.549	1.457	1457.1	study	Phase2	study/STIM_006.jpg	100
824.318	1.413	1412.6	study	Phase2	study/STIM_006.jpg	99
828.515	0.867	866.7	study	Phase2	study/STIM_007.jpg	99
833.012	1.566	1565.7	study	Phase2	study/STIM_007.jpg	100
837.997	1.272	1272.1	study	Phase2	study/STIM_007.jpg	100
841.77	1.291	1290.9	study	Phase2	study/STIM_008.jpg	99
846.942	1.235	1234.8	study	Phase2	study/STIM_008.jpg	99
850.497	0.959	958.6	study	Phase2	study/STIM_008.jpg	100
853.552	0.817	817.3	study	Phase2	study/STIM_009.jpg	100
857.573	1.167	1166.7	study	Phase2	study/STIM_009.jpg	100
862.538	1.381	1381.1	study	Phase2	study/STIM_009.jpg	100
866.693	1.368	1368.1	study	Phase2	study/STIM_010.jpg	100
870.734	1.021	1020.6	study	Phase2	study/STIM_010.jpg	100
874.176	1.014	1014.1	study	Phase2	study/STIM_010.jpg	100
878.604	1.385	1385.0	study	Phase2	study/STIM_011.jpg	99
883.475	0.714	714.1	study	Phase2	study/STIM_011.jpg	99
887.708	1.041	1041.1	study	Phase2	study/STIM_011.jpg	100
892.07	1.564	1564.2	study	Phase2	study/STIM_012.jpg	100
897.121	1.507	1507.1	study	Phase2	study/STIM_012.jpg	100
901.692	0.728	728.5	study	Phase2	study/STIM_012.jpg	99
905.451	1.553	1552.6	study	Phase2	study/STIM_013.jpg	100
910.729	0.908	908.5	study	Phase2	study/STIM_013.jpg	100
914.424	1.11	1110.2	study	Phase2	study/STIM_013.jpg	99
917.981	0.807	806.7	study	Phase2	study/STIM_014.jpg	99
921.801	1.33	1330.3	study	Phase2	study/STIM_014.jpg	100
925.189	1.214	1213.5	study	Phase2	study/STIM_014.jpg	100
930.205	1.624	1624.2	study	Phase2	study/STIM_015.jpg	99
934.729	0.83	830.2	study	Phase2	study/STIM_015.jpg	99
938.669	1.269	1268.6	study	Phase2	study/STIM_015.jpg	99
943.241	1.141	1141.0	study	Phase2	study/STIM_016.jpg	99
946.573	0.827	827.4	study	Phase2	study/STIM_016.jpg	100
951.125	0.643	642.6	study	Phase2	study/STIM_016.jpg	99
954.249	1.15	1149.9	study	Phase2	study/STIM_017.jpg	100
958.499	0.903	903.1	study	Phase2	study/STIM_017.jpg	99
963.148	0.987	987.0	study	Phase2	study/STIM_017.jpg	99
966.988	1.126	1125.9	study	Phase2	study/STIM_018.jpg	99
971.363	1.33	1329.7	study	Phase2	study/STIM_018.jpg	99
976.155	1.295	1295.0	study	Phase2	study/STIM_018.jpg	99
979.718	0.946	946.4	study	Phase2	study/STIM_019.jpg	100
983.054	0.686	685.7	study	Phase2	study/STIM_019.jpg	99
986.35	0.957	956.6	study	Phase2	study/STIM_019.jpg	100
990.957	1.06	1060.4	study	Phase2	study/STIM_020.jpg	100
995.158	1.11	1109.8	study	Phase2	study/STIM_020.jpg	100
998.707	1.122	1121.6	study	Phase2	study/STIM_020.jpg	100
1003.596	1.237	1237.3	study	Phase2	study/STIM_021.jpg	99
1007.528	1.379	1379.2	study	Phase2	study/STIM_021.jpg	99
1011.338	1.31	1309.9	study	Phase2	study/STIM_021.jpg	99
1015.767	1.295	1294.8	study	Phase2	study/STIM_022.jpg	99
1019.593	0.789	788.7	study	Phase2	study/STIM_022.jpg	99
1022.518	1.246	1246.3	study	Phase2	study/STIM_022.jpg	100
1026.41	0.821	821.1	study	Phase2	study/STIM_023.jpg	100
1030.449	0.801	800.9	study	Phase2	study/STIM_023.jpg	100
1035.087	1.057	1056.7	study	Phase2	study/STIM_023.jpg	99
1039.873	1.743	1743.2	study	Phase2	study/STIM_024.jpg	99
1044.016	1.482	1481.9	study	Phase2	study/STIM_024.jpg	99
1049.101	0.601	600.6	study	Phase2	study/STIM_024.jpg	99
1053.268	1.447	1446.9	study	Phase2	study/STIM_025.jpg	100
1057.066	1.565	1565.0	study	Phase2	study/STIM_025.jpg	99
1061.272	1.322	1322.5	study	Phase2	study/STIM_025.jpg	100
1065.335	1.026	1025.5	study	Phase2	study/STIM_026.jpg	99
1068.95	0.866	866.5	study	Phase2	study/STIM_026.jpg	99
1073.039	1.421	1421.2	study	Phase2	study/STIM_026.jpg	100
1076.925	0.859	859.3	study	Phase2	study/STIM_027.jpg	99
1081.683	1.022	1022.3	study	Phase2	study/STIM_027.jpg	99
1085.805	1.333	1333.0	study	Phase2	study/STIM_027.jpg	100
1090.247	1.403	1402.9	study	Phase2	study/STIM_028.jpg	99
1093.866	1.55	1550.1	study	Phase2	study/STIM_028.jpg	99
1098.75	1.152	1152.1	study	Phase2	study/STIM_028.jpg	100
1103.176	1.054	1053.9	study	Phase2	study/STIM_029.jpg	99
1107.17	1.093	1093.3	study	Phase2	study/STIM_029.jpg	100
1112.099	0.818	818.2	study	Phase2	study/STIM_029.jpg	100
1115.179	1.028	1027.5	test	Phase2	test/STIM_000.jpg	100
1119.133	0.777	776.8	test	Phase2	test/STIM_000.jpg	99
1123.448	1.223	1223.1	test	Phase2	test/STIM_000.jpg	99
1126.592	1.41	1409.7	test	Phase2	test/STIM_001.jpg	99
1131.66	0.991	991.1	test	Phase2	test/STIM_001.jpg	99
1136.078	1.314	1314.3	test	Phase2	test/STIM_001.jpg	100
1140.107	0.965	965.1	test	Phase2	test/STIM_002.jpg	100
1144.395	0.89	889.9	test	Phase2	test/STIM_002.jpg	100
1147.629	0.912	911.8	test	Phase2	test/STIM_002.jpg	100
1151.73	0.646	646.1	test	Phase2	test/STIM_003.jpg	100
1155.662	0.891	890.9	test	Phase2	test/STIM_003.jpg	99
1158.629	0.677	677.3	test	Phase2	test/STIM_003.jpg	99
1162.633	0.784	784.1	test	Phase2	test/STIM_004.jpg	99
1165.835	1.106	1105.9	test	Phase2	test/STIM_004.jpg	99
1169.802	0.844	843.8	test	Phase2	test/STIM_004.jpg	100
1174.107	1.3	1299.8	test	Phase2	test/STIM_005.jpg	100
1177.44	1.192	1191.8	test	Phase2	test/STIM_005.jpg	100
1182.452	0.865	864.7	test	Phase2	test/STIM_005.jpg	100
1185.339	1.176	1176.3	test	Phase2	test/STIM_006.jpg	100
1189.918	1.242	1242.0	test	Phase2	test/STIM_006.jpg	100
1194.174	0.828	828.0	test	Phase2	test/STIM_006.jpg	99
1197.578	0.866	866.0	test	Phase2	test/STIM_007.jpg	100
1200.602	1.084	1083.7	test	Phase2	test/STIM_007.jpg	100
1205.471	1.25	1250.1	test	Phase2	test/STIM_007.jpg	99
1210.261	0.942	941.8	test	Phase2	test/STIM_008.jpg	100
1214.473	1.302	1302.1	test	Phase2	test/STIM_008.jpg	99
1218.788	1.251	1250.8	test	Phase2	test/STIM_008.jpg	99
1222.02	1.397	1397.4	test	Phase2	test/STIM_009.jpg	99
1226.506	1.321	1321.0	test	Phase2	test/STIM_009.jpg	99
1229.688	1.246	1245.5	test	Phase2	test/STIM_009.jpg	99
1233.052	1.192	1191.9	test	Phase2	test/STIM_010.jpg	99
1237.36	0.778	777.8	test	Phase2	test/STIM_010.jpg	99
1241.475	1.075	1075.2	test	Phase2	test/STIM_010.jpg	99
1246.086	0.949	949.2	test	Phase2	test/STIM_011.jpg	100
1250.87	1.081	1081.3	test	Phase2	test/STIM_011.jpg	99
1255.719	1.288	1288.3	test	Phase2	test/STIM_011.jpg	100
1259.566	1.367	1367.2	test	Phase2	test/STIM_012.jpg	100
1263.681	1.108	1108.1	test	Phase2	test/STIM_012.jpg	99
1268.449	0.924	924.1	test	Phase2	test/STIM_012.jpg	99
1273.067	1.315	1315.2	test	Phase2	test/STIM_013.jpg	99
1277.954	0.839	839.3	test	Phase2	test/STIM_013.jpg	99
1282.51	0.937	937.0	test	Phase2	test/STIM_013.jpg	99
1285.689	0.743	742.8	test	Phase2	test/STIM_014.jpg	99
1289.823	0.816	815.7	test	Phase2	test/STIM_014.jpg	99
1293.128	1.313	1312.6	test	Phase2	test/STIM_014.jpg	99
1297.746	0.938	938.4	test	Phase2	test/STIM_015.jpg	99
1302.296	0.662	661.7	test	Phase2	test/STIM_015.jpg	100
1306.217	1.003	1003.0	test	Phase2	test/STIM_015.jpg	99
1309.365	0.992	992.1	test	Phase2	test/STIM_016.jpg	99
1312.795	1.2	1199.9	test	Phase2	test/STIM_016.jpg	99
1317.206	0.742	742.1	test	Phase2	test/STIM_016.jpg	99
1321.91	0.799	799.0	test	Phase2	test/STIM_017.jpg	99
1325.797	1.068	1067.6	test	Phase2	test/STIM_017.jpg	99
1329.797	0.62	620.0	test	Phase2	test/STIM_017.jpg	100
1334.063	0.787	787.2	test	Phase2	test/STIM_018.jpg	99
1338.326	1.396	1395.5	test	Phase2	test/STIM_018.jpg	100
1343.411	0.826	825.8	test	Phase2	test/STIM_018.jpg	100
1347.879	0.852	851.8	test	Phase2	test/STIM_019.jpg	100
1351.662	1.139	1139.2	test	Phase2	test/STIM_019.jpg	99
1354.768	0.716	716.1	test	Phase2	test/STIM_019.jpg	100
1358.031	1.268	1268.4	test	Phase2	test/STIM_020.jpg	99
1363.001	1.361	1361.3	test	Phase2	test/STIM_020.jpg	99
1367.707	0.754	753.6	test	Phase2	test/STIM_020.jpg	99
1370.644	1.358	1358.2	test	Phase2	test/STIM_021.jpg	100
1375.106	1.28	1280.4	test	Phase2	test/STIM_021.jpg	100
1379.763	1.08	1080.4	test	Phase2	test/STIM_021.jpg	99
1384.046	0.632	631.7	test	Phase2	test/STIM_022.jpg	100
1387.799	0.614	613.9	test	Phase2	test/STIM_022.jpg	99
1391.406	1.302	1301.7	test	Phase2	test/STIM_022.jpg	100
1396.246	0.728	727.6	test	Phase2	test/STIM_023.jpg	100
1400.64	1.178	1177.6	test	Phase2	test/STIM_023.jpg	100
1404.749	0.846	845.8	test	Phase2	test/STIM_023.jpg	100
1407.898	0.798	798.3	test	Phase2	test/STIM_024.jpg	99
1411.117	1.278	1278.0	test	Phase2	test/STIM_024.jpg	99
1414.386	1.034	1033.7	test	Phase2	test/STIM_024.jpg	100
1417.666	1.076	1075.5	test	Phase2	test/STIM_025.jpg	100
1422.393	0.684	684.4	test	Phase2	test/STIM_025.jpg	100
1426.248	0.817	817.1	test	Phase2	test/STIM_025.jpg	100
1430.031	0.756	756.5	test	Phase2	test/STIM_026.jpg	99
1433.285	1.118	1117.7	test	Phase2	test/STIM_026.jpg	100
1436.496	0.999	998.9	test	Phase2	test/STIM_026.jpg	99
1439.627	1.405	1405.3	test	Phase2	test/STIM_027.jpg	100
1444.751	0.791	791.3	test	Phase2	test/STIM_027.jpg	99
1448.744	1.218	1218.4	test	Phase2	test/STIM_027.jpg	99
1451.788	1.334	1333.6	test	Phase2	test/STIM_028.jpg	99
1455.229	0.627	627.1	test	Phase2	test/STIM_028.jpg	99
1459.063	1.104	1104.0	test	Phase2	test/STIM_028.jpg	99
1462.706	1.118	1117.9	test	Phase2	test/STIM_029.jpg	99
1465.717	0.842	842.4	test	Phase2	test/STIM_029.jpg	99
1470.315	1.201	1201.4	test	Phase2	test/STIM_029.jpg	100
1474.027	1.272	1272.5	study	Phase3	study/STIM_000.jpg	100
1478.108	0.774	774.3	study	Phase3	study/STIM_000.jpg	100
1482.632	0.749	749.3	study	Phase3	study/STIM_000.jpg	100
1486.75	1.335	1335.2	study	Phase3	study/STIM_001.jpg	99
1490.563	0.912	912.5	study	Phase3	study/STIM_001.jpg	99
1495.121	1.186	1186.5	study	Phase3	study/STIM_001.jpg	99
1498.771	1.36	1359.9	study	Phase3	study/STIM_002.jpg	100
1503.928	1.13	1130.4	study	Phase3	study/STIM_002.jpg	100
1508.521	0.817	817.0	study	Phase3	study/STIM_002.jpg	100
1511.361	1.165	1165.2	study	Phase3	study/STIM_003.jpg	100
1515.136	1.052	1052.5	study	Phase3	study/STIM_003.jpg	100
1519.673	1.268	1267.8	study	Phase3	study/STIM_003.jpg	100
1524.471	0.813	813.2	study	Phase3	study/STIM_004.jpg	100
1528.111	1.128	1128.1	study	Phase3	study/STIM_004.jpg	99
1532.506	0.957	957.1	study	Phase3	study/STIM_004.jpg	100
1535.416	0.982	982.5	study	Phase3	study/STIM_005.jpg	99
1540.325	1.168	1167.7	study	Phase3	study/STIM_005.jpg	100
1545.194	1.091	1091.1	study	Phase3	study/STIM_005.jpg	100
1549.966	1.192	1191.9	study	Phase3	study/STIM_006.jpg	99
1554.47	1.215	1214.8	study	Phase3	study/STIM_006.jpg	100
1559.542	0.91	909.7	study	Phase3	study/STIM_006.jpg	100
1562.549	0.837	836.9	study	Phase3	study/STIM_007.jpg	100
1566.004	1.101	1101.3	study	Phase3	study/STIM_007.jpg	100
1570.562	0.782	782.0	study	Phase3	study/STIM_007.jpg	100
1574.147	0.842	842.5	study	Phase3	study/STIM_008.jpg	99
1578.632	0.936	935.6	study	Phase3	study/STIM_008.jpg	99
1582.223	1.235	1235.4	study	Phase3	study/STIM_008.jpg	99
1586.878	0.911	910.6	study	Phase3	study/STIM_009.jpg	99
1590.304	0.98	980.4	study	Phase3	study/STIM_009.jpg	100
1593.292	1.086	1086.2	study	Phase3	study/STIM_009.jpg	100
1597.621	1.204	1203.9	study	Phase3	study/STIM_010.jpg	99
1601.888	1.42	1420.1	study	Phase3	study/STIM_010.jpg	99
1606.329	1.125	1125.1	study	Phase3	study/STIM_010.jpg	99
1610.806	1.3	1299.7	study	Phase3	study/STIM_011.jpg	100
1615.747	0.822	822.0	study	Phase3	study/STIM_011.jpg	100
1620.165	1.274	1274.1	study	Phase3	study/STIM_011.jpg	100
1625.183	0.926	925.6	study	Phase3	study/STIM_012.jpg	100
1628.837	0.843	843.3	study	Phase3	study/STIM_012.jpg	100
1633.128	0.971	971.3	study	Phase3	study/STIM_012.jpg	99
1637.53	0.692	692.1	study	Phase3	study/STIM_013.jpg	99
1640.977	0.935	935.1	study	Phase3	study/STIM_013.jpg	100
1644.952	1.277	1277.0	study	Phase3	study/STIM_013.jpg	100
1649.238	1.153	1152.8	study	Phase3	study/STIM_014.jpg	100
1652.38	0.702	702.4	study	Phase3	study/STIM_014.jpg	100
1655.469	1.356	1355.5	study	Phase3	study/STIM_014.jpg	99
1660.043	0.765	764.6	study	Phase3	study/STIM_015.jpg	99
1663.469	1.084	1083.6	study	Phase3	study/STIM_015.jpg	99
1667.554	0.952	951.5	study	Phase3	study/STIM_015.jpg	99
1670.709	1.149	1149.4	study	Phase3	study/STIM_016.jpg	99
1675.151	0.891	891.3	study	Phase3	study/STIM_016.jpg	100
1678.402	1.41	1410.1	study	Phase3	study/STIM_016.jpg	100
1683.64	1.008	1008.5	study	Phase3	study/STIM_017.jpg	99
1687.558	0.662	661.8	study	Phase3	study/STIM_017.jpg	99
1691.783	1.146	1146.2	study	Phase3	study/STIM_017.jpg	99
1696.01	1.396	1395.7	study	Phase3	study/STIM_018.jpg	100
1700.827	1.058	1057.7	study	Phase3	study/STIM_018.jpg	100
1705.45	1.449	1448.6	study	Phase3	study/STIM_018.jpg	99
1709.118	0.98	979.8	study	Phase3	study/STIM_019.jpg	100
1713.579	0.672	671.9	study	Phase3	study/STIM_019.jpg	100
1716.61	1.309	1308.7	study	Phase3	study/STIM_019.jpg	99
1721.116	0.842	841.9	study	Phase3	study/STIM_020.jpg	100
1725.743	0.685	685.2	study	Phase3	study/STIM_020.jpg	100
1728.61	1.032	1031.8	study	Phase3	study/STIM_020.jpg	99
1732.178	1.119	1119.2	study	Phase3	study/STIM_021.jpg	99
1736.935	1.199	1198.8	study	Phase3	study/STIM_021.jpg	100
1741.94	0.799	799.1	study	Phase3	study/STIM_021.jpg	100
1746.241	0.705	705.2	study	Phase3	study/STIM_022.jpg	100
1749.132	0.95	949.5	study	Phase3	study/STIM_022.jpg	100
1752.433	0.559	559.1	study	Phase3	study/STIM_022.jpg	100
1755.052	1.266	1265.7	study	Phase3	study/STIM_023.jpg	99
1759.621	0.957	956.9	study	Phase3	study/STIM_023.jpg	100
1763.43	1.038	1038.1	study	Phase3	study/STIM_023.jpg	99
1767.816	0.674	673.6	study	Phase3	study/STIM_024.jpg	99
1771.055	0.75	749.7	study	Phase3	study/STIM_024.jpg	99
1775.665	0.989	988.6	study	Phase3	study/STIM_024.jpg	99
1779.951	1.243	1243.4	study	Phase3	study/STIM_025.jpg	99
1784.614	1.224	1224.0	study	Phase3	study/STIM_025.jpg	99
1788.485	1.259	1259.0	study	Phase3	study/STIM_025.jpg	100
1792.289	1.123	1122.9	study	Phase3	study/STIM_026.jpg	100
1796.224	0.929	929.1	study	Phase3	study/STIM_026.jpg	100
1800.382	1.123	1122.7	study	Phase3	study/STIM_026.jpg	100
1803.797	1.234	1233.5	study	Phase3	study/STIM_027.jpg	99
1807.788	1.28	1280.1	study	Phase3	study/STIM_027.jpg	100
1811.373	0.711	711.3	study	Phase3	study/STIM_027.jpg	99
1815.57	1.337	1336.9	study	Phase3	study/STIM_028.jpg	100
1820.582	1.188	1188.2	study	Phase3	study/STIM_028.jpg	100
1823.819	1.348	1347.5	study	Phase3	study/STIM_028.jpg	99
1828.873	0.682	681.5	study	Phase3	study/STIM_029.jpg	99
1832.957	1.351	1351.1	study	Phase3	study/STIM_029.jpg	99
1836.98	1.017	1017.2	study	Phase3	study/STIM_029.jpg	99
1840.322	0.882	881.9	test	Phase3	test/STIM_000.jpg	99
1844.194	1.355	1355.0	test	Phase3	test/STIM_000.jpg	99
1847.538	0.711	711.3	test	Phase3	test/STIM_000.jpg	100
1850.704	0.717	717.2	test	Phase3	test/STIM_001.jpg	100
1854.546	1.101	1101.4	test	Phase3	test/STIM_001.jpg	100
1858.228	1.158	1157.5	test	Phase3	test/STIM_001.jpg	100
1862.015	0.753	753.1	test	Phase3	test/STIM_002.jpg	99
1864.949	0.947	946.6	test	Phase3	test/STIM_002.jpg	99
1868.802	0.794	793.7	test	Phase3	test/STIM_002.jpg	100
1871.612	1.097	1097.0	test	Phase3	test/STIM_003.jpg	99
1874.602	1.247	1247.2	test	Phase3	test/STIM_003.jpg	100
1878.009	1.07	1070.3	test	Phase3	test/STIM_003.jpg	99
1882.02	0.967	967.3	test	Phase3	test/STIM_004.jpg	99
1885.404	0.863	863.4	test	Phase3	test/STIM_004.jpg	100
1889.825	1.275	1274.7	test	Phase3	test/STIM_004.jpg	100
1894.662	1.431	1430.6	test	Phase3	test/STIM_005.jpg	99
1899.455	1.38	1379.5	test	Phase3	test/STIM_005.jpg	100
1904.011	1.27	1269.8	test	Phase3	test/STIM_005.jpg	100
1908.896	1.223	1223.1	test	Phase3	test/STIM_006.jpg	100
1913.16	0.648	647.9	test	Phase3	test/STIM_006.jpg	100
1916.854	0.996	996.2	test	Phase3	test/STIM_006.jpg	100
1920.56	1.282	1282.0	test	Phase3	test/STIM_007.jpg	100
1925.515	1.381	1380.9	test	Phase3	test/STIM_007.jpg	99
1929.64	1.248	1247.7	test	Phase3	test/STIM_007.jpg	99
1933.43	0.644	644.4	test	Phase3	test/STIM_008.jpg	99
1936.364	0.868	868.1	test	Phase3	test/STIM_008.jpg	100
1940.446	1.388	1387.6	test	Phase3	test/STIM_008.jpg	99
1945.567	1.21	1210.1	test	Phase3	test/STIM_009.jpg	100
1949.544	0.819	818.8	test	Phase3	test/STIM_009.jpg	99
1954.182	1.003	1002.6	test	Phase3	test/STIM_009.jpg	99
1958.684	0.973	973.2	test	Phase3	test/STIM_010.jpg	100
1963.093	1.019	1018.9	test	Phase3	test/STIM_010.jpg	99
1967.885	1.135	1134.6	test	Phase3	test/STIM_010.jpg	99
1971.445	0.84	840.3	test	Phase3	test/STIM_011.jpg	100
1975.157	0.782	781.7	test	Phase3	test/STIM_011.jpg	100
1978.817	1.037	1037.2	test	Phase3	test/STIM_011.jpg	100
1982.685	0.755	755.3	test	Phase3	test/STIM_012.jpg	99
1987.199	0.753	752.9	test	Phase3	test/STIM_012.jpg	100
1991.098	1.249	1249.1	test	Phase3	test/STIM_012.jpg	100
1996.105	1.211	1211.0	test	Phase3	test/STIM_013.jpg	99
1999.633	1.221	1220.9	test	Phase3	test/STIM_013.jpg	99
2003.546	0.912	911.6	test	Phase3	test/STIM_013.jpg	99
2006.601	1.194	1193.5	test	Phase3	test/STIM_014.jpg	99
2010.097	1.275	1275.0	test	Phase3	test/STIM_014.jpg	99
2015.106	1.31	1310.0	test	Phase3	test/STIM_014.jpg	100
2019.952	1.288	1288.1	test	Phase3	test/STIM_015.jpg	99
2024.872	0.737	737.3	test	Phase3	test/STIM_015.jpg	100
2028.725	1.095	1095.3	test	Phase3	test/STIM_015.jpg	99
2032.406	1.125	1125.2	test	Phase3	test/STIM_016.jpg	100
2036.982	1.172	1172.3	test	Phase3	test/STIM_016.jpg	100
2040.33	1.103	1102.7	test	Phase3	test/STIM_016.jpg	100
2043.708	0.893	893.2	test	Phase3	test/STIM_017.jpg	99
2046.753	1.002	1001.9	test	Phase3	test/STIM_017.jpg	100
2050.886	1.278	1278.1	test	Phase3	test/STIM_017.jpg	99
2054.936	1.132	1131.8	test	Phase3	test/STIM_018.jpg	99
2059.354	1.171	1171.2	test	Phase3	test/STIM_018.jpg	100
2062.653	1.257	1257.0	test	Phase3	test/STIM_018.jpg	99
2067.727	1.129	1129.2	test	Phase3	test/STIM_019.jpg	99
2071.842	1.317	1317.1	test	Phase3	test/STIM_019.jpg	100
2076.607	1.152	1152.5	test	Phase3	test/STIM_019.jpg	100
2081.089	1.179	1178.7	test	Phase3	test/STIM_020.jpg	99
2084.434	1.132	1131.7	test	Phase3	test/STIM_020.jpg	100
2089.013	0.758	757.6	test	Phase3	test/STIM_020.jpg	99
2092.371	0.722	722.1	test	Phase3	test/STIM_021.jpg	100
2095.204	1.137	1136.8	test	Phase3	test/STIM_021.jpg	100
2100.204	0.852	852.4	test	Phase3	test/STIM_021.jpg	99
2103.676	1.361	1361.1	test	Phase3	test/STIM_022.jpg	99
2107.054	0.924	923.5	test	Phase3	test/STIM_022.jpg	100
2111.509	0.947	947.4	test	Phase3	test/STIM_022.jpg	100
2115.602	1.451	1450.9	test	Phase3	test/STIM_023.jpg	100
2119.74	1.138	1138.0	test	Phase3	test/STIM_023.jpg	100
2124.644	0.805	805.3	test	Phase3	test/STIM_023.jpg	99
2127.932	0.938	938.3	test	Phase3	test/STIM_024.jpg	100
2131.829	1.089	1089.4	test	Phase3	test/STIM_024.jpg	99
2136.225	0.704	704.2	test	Phase3	test/STIM_024.jpg	100
2140.749	1.224	1224.5	test	Phase3	test/STIM_025.jpg	100
2144.045	1.154	1154.2	test	Phase3	test/STIM_025.jpg	99
2148.019	0.885	884.9	test	Phase3	test/STIM_025.jpg	99
2151.449	1.152	1152.5	test	Phase3	test/STIM_026.jpg	100
2156.216	1.128	1127.8	test	Phase3	test/STIM_026.jpg	99
2159.932	1.306	1306.5	test	Phase3	test/STIM_026.jpg	100
2164.197	1.102	1101.7	test	Phase3	test/STIM_027.jpg	99
2167.839	0.976	976.4	test	Phase3	test/STIM_027.jpg	100
2171.341	0.687	686.9	test	Phase3	test/STIM_027.jpg	100
2174.625	1.317	1317.4	test	Phase3	test/STIM_028.jpg	100
2179.473	0.68	679.5	test	Phase3	test/STIM_028.jpg	99
2183.734	1.099	1099.0	test	Phase3	test/STIM_028.jpg	100
2187.58	1.031	1030.8	test	Phase3	test/STIM_029.jpg	100
2190.678	1.114	1114.1	test	Phase3	test/STIM_029.jpg	100
2195.652	1.166	1166.0	test	Phase3	test/STIM_029.jpg	100
