onset	duration	accuracy_binary	trial_type	learning_stage	stimulus
0.0	1.584	1	study	Phase1	study/STIM_000.jpg
5.322	1.54	1	study	Phase1	study/STIM_000.jpg
10.554	1.23	1	study	Phase1	study/STIM_000.jpg
13.897	1.435	1	study	Phase1	study/STIM_001.jpg
18.268	1.367	1	study	Phase1	study/STIM_001.jpg
23.286	1.093	1	study	Phase1	study/STIM_001.jpg
26.859	1.139	1	study	Phase1	study/STIM_002.jpg
31.94	1.268	0	study	Phase1	study/STIM_002.jpg
35.914	1.178	1	study	Phase1	study/STIM_002.jpg
39.162	1.701	1	study	Phase1	study/STIM_003.jpg
42.895	0.809	1	study	Phase1	study/STIM_003.jpg
45.98	0.736	1	study	Phase1	study/STIM_003.jpg
49.961	0.886	1	study	Phase1	study/STIM_004.jpg
53.682	0.885	1	study	Phase1	study/STIM_004.jpg
56.738	0.74	1	study	Phase1	study/STIM_004.jpg
59.974	0.87	0	study	Phase1	study/STIM_005.jpg
64.674	1.406	1	study	Phase1	study/STIM_005.jpg
69.824	1.55	1	study	Phase1	study/STIM_005.jpg
74.591	1.132	1	study	Phase1	study/STIM_006.jpg
79.096	1.656	1	study	Phase1	study/STIM_006.jpg
84.2	1.132	1	study	Phase1	study/STIM_006.jpg
88.153	1.267	1	study	Phase1	study/STIM_007.jpg
92.918	1.545	1	study	Phase1	study/STIM_007.jpg
96.918	1.483	1	study	Phase1	study/STIM_007.jpg
101.019	1.483	1	study	Phase1	study/STIM_008.jpg
104.608	1.083	1	study	Phase1	study/STIM_008.jpg
108.345	1.25	1	study	Phase1	study/STIM_008.jpg
113.062	1.648	1	study	Phase1	study/STIM_009.jpg
117.044	1.032	1	study	Phase1	study/STIM_009.jpg
121.504	0.711	1	study	Phase1	study/STIM_009.jpg
125.775	1.429	1	study	Phase1	study/STIM_010.jpg
130.827	1.461	1	study	Phase1	study/STIM_010.jpg
135.167	1.559	1	study	Phase1	study/STIM_010.jpg
139.132	1.062	1	study	Phase1	study/STIM_011.jpg
144.043	0.903	1	study	Phase1	study/STIM_011.jpg
148.709	1.5	1	study	Phase1	study/STIM_011.jpg
152.964	1.418	1	study	Phase1	study/STIM_012.jpg
158.136	0.838	0	study	Phase1	study/STIM_012.jpg
161.391	0.95	1	study	Phase1	study/STIM_012.jpg
164.472	1.511	1	study	Phase1	study/STIM_013.jpg
169.811	1.078	1	study	Phase1	study/STIM_013.jpg
173.339	0.91	1	study	Phase1	study/STIM_013.jpg
177.37	1.524	1	study	Phase1	study/STIM_014.jpg
182.235	1.153	1	study	Phase1	study/STIM_014.jpg
186.633	1.565	1	study	Phase1	study/STIM_014.jpg
190.287	1.088	1	study	Phase1	study/STIM_015.jpg
194.818	1.246	1	study	Phase1	study/STIM_015.jpg
198.629	0.86	1	study	Phase1	study/STIM_015.jpg
202.636	1.446	1	study	Phase1	study/STIM_016.jpg
207.309	0.786	1	study	Phase1	study/STIM_016.jpg
211.499	1.021	1	study	Phase1	study/STIM_016.jpg
216.184	1.605	1	study	Phase1	study/STIM_017.jpg
220.762	1.416	1	study	Phase1	study/STIM_017.jpg
225.747	0.899	1	study	Phase1	study/STIM_017.jpg
229.826	1.497	1	study	Phase1	study/STIM_018.jpg
233.532	1.4	1	study	Phase1	study/STIM_018.jpg
237.264	0.828	1	study	Phase1	study/STIM_018.jpg
241.278	1.125	1	study	Phase1	study/STIM_019.jpg
244.597	1.006	1	study	Phase1	study/STIM_019.jpg
247.801	1.19	1	study	Phase1	study/STIM_019.jpg
251.413	0.944	1	study	Phase1	study/STIM_020.jpg
255.7	1.166	1	study	Phase1	study/STIM_020.jpg
259.064	0.826	1	study	Phase1	study/STIM_020.jpg
263.422	1.074	1	study	Phase1	study/STIM_021.jpg
267.099	0.812	1	study	Phase1	study/STIM_021.jpg
271.008	1.388	0	study	Phase1	study/STIM_021.jpg
275.425	0.864	1	study	Phase1	study/STIM_022.jpg
278.6	1.121	1	study	Phase1	study/STIM_022.jpg
283.285	1.298	1	study	Phase1	study/STIM_022.jpg
286.881	1.113	1	study	Phase1	study/STIM_023.jpg
291.434	1.617	1	study	Phase1	study/STIM_023.jpg
295.226	1.115	1	study	Phase1	study/STIM_023.jpg
299.445	0.822	1	study	Phase1	study/STIM_024.jpg
303.925	0.86	1	study	Phase1	study/STIM_024.jpg
307.686	1.024	1	study	Phase1	study/STIM_024.jpg
312.38	1.418	1	study	Phase1	study/STIM_025.jpg
317.713	0.875	1	study	Phase1	study/STIM_025.jpg
321.86	0.863	1	study	Phase1	study/STIM_025.jpg
326.464	1.185	1	study	Phase1	study/STIM_026.jpg
330.657	1.409	0	study	Phase1	study/STIM_026.jpg
334.641	1.017	1	study	Phase1	study/STIM_026.jpg
338.594	0.984	1	study	Phase1	study/STIM_027.jpg
343.172	0.79	1	study	Phase1	study/STIM_027.jpg
347.351	0.84	1	study	Phase1	study/STIM_027.jpg
351.575	1.534	0	study	Phase1	study/STIM_028.jpg
355.624	1.022	1	study	Phase1	study/STIM_028.jpg
358.989	0.79	0	study	Phase1	study/STIM_028.jpg
363.338	1.264	0	study	Phase1	study/STIM_029.jpg
367.466	1.097	1	study	Phase1	study/STIM_029.jpg
372.098	0.881	1	study	Phase1	study/STIM_029.jpg
376.068	1.0	1	test	Phase1	test/STIM_000.jpg
380.688	1.105	1	test	Phase1	test/STIM_000.jpg
385.501	1.094	1	test	Phase1	test/STIM_000.jpg
390.508	0.764	1	test	Phase1	test/STIM_001.jpg
395.05	1.108	1	test	Phase1	test/STIM_001.jpg
398.284	1.01	1	test	Phase1	test/STIM_001.jpg
402.301	0.689	1	test	Phase1	test/STIM_002.jpg
405.014	1.011	1	test	Phase1	test/STIM_002.jpg
408.236	0.802	0	test	Phase1	test/STIM_002.jpg
412.922	0.8	1	test	Phase1	test/STIM_003.jpg
417.402	1.023	1	test	Phase1	test/STIM_003.jpg
421.697	1.226	1	test	Phase1	test/STIM_003.jpg
426.901	1.148	1	test	Phase1	test/STIM_004.jpg
431.374	1.024	1	test	Phase1	test/STIM_004.jpg
434.834	1.237	1	test	Phase1	test/STIM_004.jpg
438.827	1.101	1	test	Phase1	test/STIM_005.jpg
441.955	1.083	1	test	Phase1	test/STIM_005.jpg
445.368	1.233	1	test	Phase1	test/STIM_005.jpg
449.517	0.661	1	test	Phase1	test/STIM_006.jpg
452.929	0.823	1	test	Phase1	test/STIM_006.jpg
455.771	1.125	1	test	Phase1	test/STIM_006.jpg
460.869	0.984	1	test	Phase1	test/STIM_007.jpg
463.953	1.183	1	test	Phase1	test/STIM_007.jpg
467.829	1.003	1	test	Phase1	test/STIM_007.jpg
472.766	1.229	1	test	Phase1	test/STIM_008.jpg
477.728	1.201	1	test	Phase1	test/STIM_008.jpg
482.591	1.065	1	test	Phase1	test/STIM_008.jpg
486.798	0.641	1	test	Phase1	test/STIM_009.jpg
490.812	0.733	1	test	Phase1	test/STIM_009.jpg
494.742	0.837	1	test	Phase1	test/STIM_009.jpg
497.845	1.222	1	test	Phase1	test/STIM_010.jpg
501.07	1.103	1	test	Phase1	test/STIM_010.jpg
504.193	0.834	1	test	Phase1	test/STIM_010.jpg
507.933	1.112	1	test	Phase1	test/STIM_011.jpg
511.352	1.247	1	test	Phase1	test/STIM_011.jpg
516.034	0.68	1	test	Phase1	test/STIM_011.jpg
519.598	0.714	1	test	Phase1	test/STIM_012.jpg
522.626	0.963	1	test	Phase1	test/STIM_012.jpg
525.714	1.175	0	test	Phase1	test/STIM_012.jpg
529.34	1.032	1	test	Phase1	test/STIM_013.jpg
533.371	0.67	1	test	Phase1	test/STIM_013.jpg
537.275	0.675	1	test	Phase1	test/STIM_013.jpg
541.571	0.969	1	test	Phase1	test/STIM_014.jpg
545.286	0.748	1	test	Phase1	test/STIM_014.jpg
549.72	0.88	1	test	Phase1	test/STIM_014.jpg
554.411	0.975	1	test	Phase1	test/STIM_015.jpg
557.909	0.996	1	test	Phase1	test/STIM_015.jpg
561.699	1.256	1	test	Phase1	test/STIM_015.jpg
566.454	0.948	1	test	Phase1	test/STIM_016.jpg
569.772	0.791	1	test	Phase1	test/STIM_016.jpg
573.471	1.183	1	test	Phase1	test/STIM_016.jpg
577.67	1.023	1	test	Phase1	test/STIM_017.jpg
582.471	1.256	1	test	Phase1	test/STIM_017.jpg
585.987	0.671	1	test	Phase1	test/STIM_017.jpg
589.404	1.081	1	test	Phase1	test/STIM_018.jpg
593.74	1.106	1	test	Phase1	test/STIM_018.jpg
597.926	0.643	1	test	Phase1	test/STIM_018.jpg
601.66	0.897	1	test	Phase1	test/STIM_019.jpg
606.37	1.142	0	test	Phase1	test/STIM_019.jpg
610.946	0.852	1	test	Phase1	test/STIM_019.jpg
614.484	0.631	1	test	Phase1	test/STIM_020.jpg
618.036	1.232	1	test	Phase1	test/STIM_020.jpg
623.074	0.738	1	test	Phase1	test/STIM_020.jpg
626.85	1.04	0	test	Phase1	test/STIM_021.jpg
630.332	0.893	1	test	Phase1	test/STIM_021.jpg
634.65	0.93	1	test	Phase1	test/STIM_021.jpg
639.37	0.782	1	test	Phase1	test/STIM_022.jpg
643.711	1.238	1	test	Phase1	test/STIM_022.jpg
648.181	0.81	1	test	Phase1	test/STIM_022.jpg
651.918	0.88	1	test	Phase1	test/STIM_023.jpg
654.899	1.182	1	test	Phase1	test/STIM_023.jpg
659.094	0.916	1	test	Phase1	test/STIM_023.jpg
663.999	0.658	1	test	Phase1	test/STIM_024.jpg
668.02	1.218	1	test	Phase1	test/STIM_024.jpg
672.526	0.662	1	test	Phase1	test/STIM_024.jpg
675.466	1.182	1	test	Phase1	test/STIM_025.jpg
680.163	1.026	1	test	Phase1	test/STIM_025.jpg
683.489	0.807	0	test	Phase1	test/STIM_025.jpg
687.746	0.692	1	test	Phase1	test/STIM_026.jpg
691.822	0.895	1	test	Phase1	test/STIM_026.jpg
695.347	0.8	1	test	Phase1	test/STIM_026.jpg
698.375	1.147	1	test	Phase1	test/STIM_027.jpg
701.894	1.072	1	test	Phase1	test/STIM_027.jpg
706.462	0.711	1	test	Phase1	test/STIM_027.jpg
709.647	0.832	1	test	Phase1	test/STIM_028.jpg
713.954	1.212	1	test	Phase1	test/STIM_028.jpg
717.189	1.058	1	test	Phase1	test/STIM_028.jpg
720.916	0.955	1	test	Phase1	test/STIM_029.jpg
725.156	0.804	1	test	Phase1	test/STIM_029.jpg
729.628	0.699	1	test	Phase1	test/STIM_029.jpg
733.388	1.423	1	study	Phase2	study/STIM_000.jpg
738.02	0.936	1	study	Phase2	study/STIM_000.jpg
742.167	0.943	1	study	Phase2	study/STIM_000.jpg
745.865	0.842	1	study	Phase2	study/STIM_001.jpg
749.955	0.963	1	study	Phase2	study/STIM_001.jpg
754.837	1.117	1	study	Phase2	study/STIM_001.jpg
758.378	1.466	1	study	Phase2	study/STIM_002.jpg
763.674	0.858	1	study	Phase2	study/STIM_002.jpg
767.96	0.798	1	study	Phase2	study/STIM_002.jpg
772.012	1.058	1	study	Phase2	study/STIM_003.jpg
776.735	1.283	1	study	Phase2	study/STIM_003.jpg
780.994	0.861	1	study	Phase2	study/STIM_003.jpg
784.835	0.864	1	study	Phase2	study/STIM_004.jpg
787.983	1.159	1	study	Phase2	study/STIM_004.jpg
791.663	1.28	1	study	Phase2	study/STIM_004.jpg
796.517	1.176	1	study	Phase2	study/STIM_005.jpg
801.211	1.087	1	study	Phase2	study/STIM_005.jpg
804.681	1.27	1	study	Phase2	study/STIM_005.jpg
809.008	0.762	1	study	Phase2	study/STIM_006.jpg
812.992	1.397	1	study	Phase2	study/STIM_006.jpg
818.322	0.837	0	study	Phase2	study/STIM_006.jpg
822.07	1.364	1	study	Phase2	study/STIM_007.jpg
826.445	1.372	1	study	Phase2	study/STIM_007.jpg
831.185	1.164	1	study	Phase2	study/STIM_007.jpg
835.793	1.171	1	study	Phase2	study/STIM_008.jpg
839.19	0.706	0	study	Phase2	study/STIM_008.jpg
842.179	0.924	1	study	Phase2	study/STIM_008.jpg
846.204	1.244	1	study	Phase2	study/STIM_009.jpg
850.479	0.982	1	study	Phase2	study/STIM_009.jpg
855.185	0.824	1	study	Phase2	study/STIM_009.jpg
859.495	0.958	1	study	Phase2	study/STIM_010.jpg
863.109	1.167	1	study	Phase2	study/STIM_010.jpg
867.047	0.833	1	study	Phase2	study/STIM_010.jpg
871.814	1.041	1	study	Phase2	study/STIM_011.jpg
876.254	1.373	1	study	Phase2	study/STIM_011.jpg
879.783	1.102	1	study	Phase2	study/STIM_011.jpg
882.918	0.868	1	study	Phase2	study/STIM_012.jpg
887.638	1.242	1	study	Phase2	study/STIM_012.jpg
892.494	0.59	1	study	Phase2	study/STIM_012.jpg
895.145	0.738	1	study	Phase2	study/STIM_013.jpg
898.891	1.28	1	study	Phase2	study/STIM_013.jpg
903.403	1.259	1	study	Phase2	study/STIM_013.jpg
908.44	1.035	1	study	Phase2	study/STIM_014.jpg
913.309	0.923	1	study	Phase2	study/STIM_014.jpg
916.89	1.066	1	study	Phase2	study/STIM_014.jpg
920.006	1.404	1	study	Phase2	study/STIM_015.jpg
924.138	0.753	1	study	Phase2	study/STIM_015.jpg
926.992	0.986	1	study	Phase2	study/STIM_015.jpg
930.246	1.298	1	study	Phase2	study/STIM_016.jpg
933.991	0.835	1	study	Phase2	study/STIM_016.jpg
938.146	0.596	1	study	Phase2	study/STIM_016.jpg
941.603	0.935	1	study	Phase2	study/STIM_017.jpg
946.113	1.108	1	study	Phase2	study/STIM_017.jpg
950.623	1.197	1	study	Phase2	study/STIM_017.jpg
955.389	1.279	1	study	Phase2	study/STIM_018.jpg
959.292	1.201	1	study	Phase2	study/STIM_018.jpg
964.053	1.169	1	study	Phase2	study/STIM_018.jpg
968.167	0.82	1	study	Phase2	study/STIM_019.jpg
972.473	1.31	1	study	Phase2	study/STIM_019.jpg
976.072	1.264	1	study	Phase2	study/STIM_019.jpg
980.203	1.152	1	study	Phase2	study/STIM_020.jpg
984.827	1.374	1	study	Phase2	study/STIM_020.jpg
989.362	1.087	1	study	Phase2	study/STIM_020.jpg
994.198	1.468	1	study	Phase2	study/STIM_021.jpg
999.327	0.954	1	study	Phase2	study/STIM_021.jpg
1002.788	1.179	1	study	Phase2	study/STIM_021.jpg
1006.479	0.707	1	study	Phase2	study/STIM_022.jpg
1010.427	1.368	1	study	Phase2	study/STIM_022.jpg
1013.936	0.942	1	study	Phase2	study/STIM_022.jpg
1017.401	0.764	1	study	Phase2	study/STIM_023.jpg
1020.378	1.363	1	study	Phase2	study/STIM_023.jpg
1024.629	1.238	1	study	Phase2	study/STIM_023.jpg
1029.102	1.243	1	study	Phase2	study/STIM_024.jpg
1034.101	1.121	1	study	Phase2	study/STIM_024.jpg
1038.293	0.785	1	study	Phase2	study/STIM_024.jpg
1042.16	1.409	0	study	Phase2	study/STIM_025.jpg
1046.364	1.358	1	study	Phase2	study/STIM_025.jpg
1051.605	1.278	1	study	Phase2	study/STIM_025.jpg
1056.011	1.195	1	study	Phase2	study/STIM_026.jpg
1060.757	1.111	1	study	Phase2	study/STIM_026.jpg
1065.24	1.294	0	study	Phase2	study/STIM_026.jpg
1068.811	1.033	1	study	Phase2	study/STIM_027.jpg
1073.41	0.746	1	study	Phase2	study/STIM_027.jpg
1076.786	0.895	1	study	Phase2	study/STIM_027.jpg
1080.84	0.709	1	study	Phase2	study/STIM_028.jpg
1085.041	0.767	1	study	Phase2	study/STIM_028.jpg
1089.394	0.651	1	study	Phase2	study/STIM_028.jpg
1092.09	0.947	1	study	Phase2	study/STIM_029.jpg
1095.218	1.312	1	study	Phase2	study/STIM_029.jpg
1098.74	1.305	1	study	Phase2	study/STIM_029.jpg
1102.212	0.586	0	test	Phase2	test/STIM_000.jpg
1106.058	0.809	1	test	Phase2	test/STIM_000.jpg
1110.3	0.821	1	test	Phase2	test/STIM_000.jpg
1115.002	0.646	1	test	Phase2	test/STIM_001.jpg
1118.575	0.921	1	test	Phase2	test/STIM_001.jpg
1122.097	1.036	1	test	Phase2	test/STIM_001.jpg
1126.29	0.66	1	test	Phase2	test/STIM_002.jpg
1129.662	0.917	1	test	Phase2	test/STIM_002.jpg
1133.54	0.592	1	test	Phase2	test/STIM_002.jpg
1137.774	1.113	1	test	Phase2	test/STIM_003.jpg
1141.386	0.899	1	test	Phase2	test/STIM_003.jpg
1146.285	1.021	1	test	Phase2	test/STIM_003.jpg
1150.289	0.824	1	test	Phase2	test/STIM_004.jpg
1154.103	1.259	1	test	Phase2	test/STIM_004.jpg
1157.498	1.047	0	test	Phase2	test/STIM_004.jpg
1161.046	0.823	1	test	Phase2	test/STIM_005.jpg
1164.858	0.602	1	test	Phase2	test/STIM_005.jpg
1168.283	1.21	1	test	Phase2	test/STIM_005.jpg
1172.91	0.732	1	test	Phase2	test/STIM_006.jpg
1177.084	1.198	1	test	Phase2	test/STIM_006.jpg
1181.177	1.045	1	test	Phase2	test/STIM_006.jpg
1185.042	1.223	1	test	Phase2	test/STIM_007.jpg
1190.237	0.622	1	test	Phase2	test/STIM_007.jpg
1194.02	0.923	1	test	Phase2	test/STIM_007.jpg
1197.203	1.192	1	test	Phase2	test/STIM_008.jpg
1200.913	1.196	1	test	Phase2	test/STIM_008.jpg
1205.737	0.847	1	test	Phase2	test/STIM_008.jpg
1209.857	0.679	1	test	Phase2	test/STIM_009.jpg
1212.919	0.863	1	test	Phase2	test/STIM_009.jpg
1215.826	0.727	1	test	Phase2	test/STIM_009.jpg
1219.516	0.924	1	test	Phase2	test/STIM_010.jpg
1223.81	1.062	1	test	Phase2	test/STIM_010.jpg
1228.634	1.021	1	test	Phase2	test/STIM_010.jpg
1232.209	0.583	1	test	Phase2	test/STIM_011.jpg
1236.438	0.667	1	test	Phase2	test/STIM_011.jpg
1240.427	1.026	1	test	Phase2	test/STIM_011.jpg
1243.734	0.875	1	test	Phase2	test/STIM_012.jpg
1247.388	0.593	1	test	Phase2	test/STIM_012.jpg
1251.035	1.161	1	test	Phase2	test/STIM_012.jpg
1254.651	0.759	1	test	Phase2	test/STIM_013.jpg
1259.016	0.846	0	test	Phase2	test/STIM_013.jpg
1261.991	0.637	1	test	Phase2	test/STIM_013.jpg
1265.518	1.077	1	test	Phase2	test/STIM_014.jpg
1268.865	0.68	1	test	Phase2	test/STIM_014.jpg
1272.988	0.84	1	test	Phase2	test/STIM_014.jpg
1275.852	0.779	1	test	Phase2	test/STIM_015.jpg
1279.09	0.868	1	test	Phase2	test/STIM_015.jpg
1282.167	1.192	1	test	Phase2	test/STIM_015.jpg
1287.228	0.818	1	test	Phase2	test/STIM_016.jpg
1290.456	1.003	1	test	Phase2	test/STIM_016.jpg
1293.463	1.216	1	test	Phase2	test/STIM_016.jpg
1298.533	0.81	1	test	Phase2	test/STIM_017.jpg
1302.144	1.063	1	test	Phase2	test/STIM_017.jpg
1307.058	0.6	1	test	Phase2	test/STIM_017.jpg
1310.319	0.705	1	test	Phase2	test/STIM_018.jpg
1314.034	0.676	1	test	Phase2	test/STIM_018.jpg
1317.527	0.861	1	test	Phase2	test/STIM_018.jpg
1320.684	0.586	1	test	Phase2	test/STIM_019.jpg
1325.157	0.912	1	test	Phase2	test/STIM_019.jpg
1329.416	0.63	1	test	Phase2	test/STIM_019.jpg
1333.878	1.011	1	test	Phase2	test/STIM_020.jpg
1338.686	0.887	1	test	Phase2	test/STIM_020.jpg
1341.95	0.628	1	test	Phase2	test/STIM_020.jpg
1345.399	0.663	1	test	Phase2	test/STIM_021.jpg
1348.954	0.814	1	test	Phase2	test/STIM_021.jpg
1352.626	1.021	1	test	Phase2	test/STIM_021.jpg
1355.863	0.65	1	test	Phase2	test/STIM_022.jpg
1359.526	1.104	1	test	Phase2	test/STIM_022.jpg
1364.288	1.211	1	test	Phase2	test/STIM_022.jpg
1367.711	1.192	1	test	Phase2	test/STIM_023.jpg
1372.404	0.608	1	test	Phase2	test/STIM_023.jpg
1375.288	0.734	1	test	Phase2	test/STIM_023.jpg
1378.552	1.032	1	test	Phase2	test/STIM_024.jpg
1381.8	1.029	1	test	Phase2	test/STIM_024.jpg
1385.152	0.989	1	test	Phase2	test/STIM_024.jpg
1389.06	0.778	1	test	Phase2	test/STIM_025.jpg
1391.895	1.25	1	test	Phase2	test/STIM_025.jpg
1396.147	0.844	1	test	Phase2	test/STIM_025.jpg
1399.751	0.828	1	test	Phase2	test/STIM_026.jpg
1403.13	0.705	1	test	Phase2	test/STIM_026.jpg
1407.521	0.687	1	test	Phase2	test/STIM_026.jpg
1410.702	1.249	1	test	Phase2	test/STIM_027.jpg
1415.142	1.215	1	test	Phase2	test/STIM_027.jpg
1420.324	0.784	1	test	Phase2	test/STIM_027.jpg
1424.384	0.84	1	test	Phase2	test/STIM_028.jpg
1427.834	1.003	1	test	Phase2	test/STIM_028.jpg
1430.939	1.203	1	test	Phase2	test/STIM_028.jpg
1436.083	1.07	1	test	Phase2	test/STIM_029.jpg
1440.271	0.668	1	test	Phase2	test/STIM_029.jpg
1443.519	1.188	1	test	Phase2	test/STIM_029.jpg
1448.553	0.899	1	study	Phase3	study/STIM_000.jpg
1451.673	0.727	1	study	Phase3	study/STIM_000.jpg
1454.932	0.746	1	study	Phase3	study/STIM_000.jpg
1457.936	0.703	1	study	Phase3	study/STIM_001.jpg
1461.549	0.92	1	study	Phase3	study/STIM_001.jpg
1466.074	1.077	1	study	Phase3	study/STIM_001.jpg
1469.918	0.591	1	study	Phase3	study/STIM_002.jpg
1473.983	1.157	1	study	Phase3	study/STIM_002.jpg
1478.053	0.669	1	study	Phase3	study/STIM_002.jpg
1481.767	0.58	1	study	Phase3	study/STIM_003.jpg
1485.434	1.108	1	study	Phase3	study/STIM_003.jpg
1490.348	1.223	1	study	Phase3	study/STIM_003.jpg
1495.127	1.096	1	study	Phase3	study/STIM_004.jpg
1498.603	1.004	1	study	Phase3	study/STIM_004.jpg
1503.578	0.912	1	study	Phase3	study/STIM_004.jpg
1507.858	1.21	1	study	Phase3	study/STIM_005.jpg
1511.72	0.912	1	study	Phase3	study/STIM_005.jpg
1514.677	0.773	1	study	Phase3	study/STIM_005.jpg
1517.537	0.836	1	study	Phase3	study/STIM_006.jpg
1522.279	1.214	1	study	Phase3	study/STIM_006.jpg
1527.393	0.568	1	study	Phase3	study/STIM_006.jpg
1531.247	0.714	1	study	Phase3	study/STIM_007.jpg
1534.22	1.137	1	study	Phase3	study/STIM_007.jpg
1538.608	0.652	1	study	Phase3	study/STIM_007.jpg
1543.244	1.056	1	study	Phase3	study/STIM_008.jpg
1546.892	0.656	1	study	Phase3	study/STIM_008.jpg
1550.537	0.663	1	study	Phase3	study/STIM_008.jpg
1553.924	0.671	1	study	Phase3	study/STIM_009.jpg
1557.722	1.038	1	study	Phase3	study/STIM_009.jpg
1561.811	0.638	1	study	Phase3	study/STIM_009.jpg
1566.307	1.009	1	study	Phase3	study/STIM_010.jpg
1570.39	0.972	1	study	Phase3	study/STIM_010.jpg
1575.353	1.127	1	study	Phase3	study/STIM_010.jpg
1580.387	0.961	1	study	Phase3	study/STIM_011.jpg
1584.162	0.761	1	study	Phase3	study/STIM_011.jpg
1587.217	0.787	1	study	Phase3	study/STIM_011.jpg
1590.08	0.647	1	study	Phase3	study/STIM_012.jpg
1593.532	1.222	1	study	Phase3	study/STIM_012.jpg
1597.045	1.166	1	study	Phase3	study/STIM_012.jpg
1600.276	1.055	1	study	Phase3	study/STIM_013.jpg
1604.867	0.88	1	study	Phase3	study/STIM_013.jpg
1607.834	0.703	1	study	Phase3	study/STIM_013.jpg
1611.437	1.17	1	study	Phase3	study/STIM_014.jpg
1614.698	0.821	1	study	Phase3	study/STIM_014.jpg
1619.45	0.951	0	study	Phase3	study/STIM_014.jpg
1623.828	1.068	1	study	Phase3	study/STIM_015.jpg
1627.37	1.138	1	study	Phase3	study/STIM_015.jpg
1631.992	1.222	1	study	Phase3	study/STIM_015.jpg
1636.872	1.191	1	study	Phase3	study/STIM_016.jpg
1641.058	0.939	1	study	Phase3	study/STIM_016.jpg
1645.676	1.062	1	study	Phase3	study/STIM_016.jpg
1650.733	0.72	1	study	Phase3	study/STIM_017.jpg
1654.556	0.757	1	study	Phase3	study/STIM_017.jpg
1659.104	0.949	1	study	Phase3	study/STIM_017.jpg
1663.144	0.694	1	study	Phase3	study/STIM_018.jpg
1666.6	1.206	1	study	Phase3	study/STIM_018.jpg
1671.777	1.211	1	study	Phase3	study/STIM_018.jpg
1675.941	1.199	1	study	Phase3	study/STIM_019.jpg
1679.193	0.696	1	study	Phase3	study/STIM_019.jpg
1681.917	0.915	1	study	Phase3	study/STIM_019.jpg
1685.405	0.604	1	study	Phase3	study/STIM_020.jpg
1689.191	1.157	1	study	Phase3	study/STIM_020.jpg
1694.291	0.891	1	study	Phase3	study/STIM_020.jpg
1698.334	0.873	1	study	Phase3	study/STIM_021.jpg
1702.496	1.089	1	study	Phase3	study/STIM_021.jpg
1705.967	0.986	1	study	Phase3	study/STIM_021.jpg
1710.12	1.005	1	study	Phase3	study/STIM_022.jpg
1713.185	0.606	1	study	Phase3	study/STIM_022.jpg
1716.588	1.103	1	study	Phase3	study/STIM_022.jpg
1721.165	1.154	1	study	Phase3	study/STIM_023.jpg
1724.495	0.584	1	study	Phase3	study/STIM_023.jpg
1728.539	1.019	1	study	Phase3	study/STIM_023.jpg
1732.318	1.195	1	study	Phase3	study/STIM_024.jpg
1737.061	0.754	1	study	Phase3	study/STIM_024.jpg
1741.301	0.769	1	study	Phase3	study/STIM_024.jpg
1745.485	0.908	1	study	Phase3	study/STIM_025.jpg
1749.554	0.739	1	study	Phase3	study/STIM_025.jpg
1753.472	0.553	1	study	Phase3	study/STIM_025.jpg
1757.116	1.135	1	study	Phase3	study/STIM_026.jpg
1761.14	0.889	1	study	Phase3	study/STIM_026.jpg
1764.928	1.153	1	study	Phase3	study/STIM_026.jpg
1768.334	0.959	1	study	Phase3	study/STIM_027.jpg
1772.484	1.078	1	study	Phase3	study/STIM_027.jpg
1776.263	0.797	1	study	Phase3	study/STIM_027.jpg
1780.06	0.932	1	study	Phase3	study/STIM_028.jpg
1784.547	0.729	1	study	Phase3	study/STIM_028.jpg
1787.859	0.889	1	study	Phase3	study/STIM_028.jpg
1791.885	0.58	1	study	Phase3	study/STIM_029.jpg
1795.201	0.908	1	study	Phase3	study/STIM_029.jpg
1798.677	1.159	1	study	Phase3	study/STIM_029.jpg
1803.198	1.212	1	test	Phase3	test/STIM_000.jpg
1808.163	0.668	1	test	Phase3	test/STIM_000.jpg
1811.744	0.588	1	test	Phase3	test/STIM_000.jpg
1815.071	1.038	1	test	Phase3	test/STIM_001.jpg
1818.281	0.806	1	test	Phase3	test/STIM_001.jpg
1821.997	1.11	1	test	Phase3	test/STIM_001.jpg
1825.161	1.066	1	test	Phase3	test/STIM_002.jpg
1829.254	0.978	1	test	Phase3	test/STIM_002.jpg
1832.673	0.743	1	test	Phase3	test/STIM_002.jpg
1837.272	0.938	1	test	Phase3	test/STIM_003.jpg
1840.742	0.844	1	test	Phase3	test/STIM_003.jpg
1844.466	0.85	1	test	Phase3	test/STIM_003.jpg
1847.799	0.636	1	test	Phase3	test/STIM_004.jpg
1850.938	0.645	1	test	Phase3	test/STIM_004.jpg
1855.129	1.07	1	test	Phase3	test/STIM_004.jpg
1859.904	0.775	1	test	Phase3	test/STIM_005.jpg
1863.477	0.855	1	test	Phase3	test/STIM_005.jpg
1866.529	1.246	1	test	Phase3	test/STIM_005.jpg
1870.457	0.8	0	test	Phase3	test/STIM_006.jpg
1873.561	0.613	1	test	Phase3	test/STIM_006.jpg
1877.908	0.814	1	test	Phase3	test/STIM_006.jpg
1882.013	1.26	1	test	Phase3	test/STIM_007.jpg
1885.833	1.244	1	test	Phase3	test/STIM_007.jpg
1890.099	0.746	1	test	Phase3	test/STIM_007.jpg
1894.807	1.137	1	test	Phase3	test/STIM_008.jpg
1898.751	0.748	1	test	Phase3	test/STIM_008.jpg
1903.328	0.868	1	test	Phase3	test/STIM_008.jpg
1906.527	0.879	1	test	Phase3	test/STIM_009.jpg
1910.176	0.826	1	test	Phase3	test/STIM_009.jpg
1914.611	1.188	1	test	Phase3	test/STIM_009.jpg
1919.237	0.956	1	test	Phase3	test/STIM_010.jpg
1924.191	0.984	1	test	Phase3	test/STIM_010.jpg
1928.54	1.158	1	test	Phase3	test/STIM_010.jpg
1932.138	1.035	1	test	Phase3	test/STIM_011.jpg
1936.544	0.864	1	test	Phase3	test/STIM_011.jpg
1940.884	1.087	1	test	Phase3	test/STIM_011.jpg
1944.554	1.212	0	test	Phase3	test/STIM_012.jpg
1949.346	0.728	1	test	Phase3	test/STIM_012.jpg
1953.824	0.617	1	test	Phase3	test/STIM_012.jpg
1957.404	1.094	1	test	Phase3	test/STIM_013.jpg
1960.936	1.213	1	test	Phase3	test/STIM_013.jpg
1964.358	0.714	1	test	Phase3	test/STIM_013.jpg
1967.463	0.998	1	test	Phase3	test/STIM_014.jpg
1972.233	1.096	1	test	Phase3	test/STIM_014.jpg
1975.35	1.181	1	test	Phase3	test/STIM_014.jpg
1980.395	0.92	1	test	Phase3	test/STIM_015.jpg
1983.453	1.09	1	test	Phase3	test/STIM_015.jpg
1987.245	0.664	1	test	Phase3	test/STIM_015.jpg
1990.28	0.806	1	test	Phase3	test/STIM_016.jpg
1993.823	1.075	1	test	Phase3	test/STIM_016.jpg
1998.08	0.91	1	test	Phase3	test/STIM_016.jpg
2002.683	0.892	1	test	Phase3	test/STIM_017.jpg
2005.961	0.965	1	test	Phase3	test/STIM_017.jpg
2009.623	0.736	1	test	Phase3	test/STIM_017.jpg
2013.339	1.094	1	test	Phase3	test/STIM_018.jpg
2016.606	1.083	1	test	Phase3	test/STIM_018.jpg
2021.496	0.972	1	test	Phase3	test/STIM_018.jpg
2025.971	0.689	1	test	Phase3	test/STIM_019.jpg
2028.802	0.8	1	test	Phase3	test/STIM_019.jpg
2033.598	0.876	1	test	Phase3	test/STIM_019.jpg
2037.861	0.722	1	test	Phase3	test/STIM_020.jpg
2041.675	1.059	1	test	Phase3	test/STIM_020.jpg
2045.451	1.192	1	test	Phase3	test/STIM_020.jpg
2050.022	0.99	1	test	Phase3	test/STIM_021.jpg
2053.168	0.597	1	test	Phase3	test/STIM_021.jpg
2057.257	0.7	1	test	Phase3	test/STIM_021.jpg
2060.535	1.125	1	test	Phase3	test/STIM_022.jpg
2065.21	0.94	1	test	Phase3	test/STIM_022.jpg
2069.769	0.709	1	test	Phase3	test/STIM_022.jpg
2072.846	1.041	1	test	Phase3	test/STIM_023.jpg
2077.192	0.865	1	test	Phase3	test/STIM_023.jpg
2081.88	0.928	0	test	Phase3	test/STIM_023.jpg
2085.986	0.714	1	test	Phase3	test/STIM_024.jpg
2089.511	0.737	1	test	Phase3	test/STIM_024.jpg
2094.033	0.944	1	test	Phase3	test/STIM_024.jpg
2098.356	1.23	1	test	Phase3	test/STIM_025.jpg
2103.253	0.98	1	test	Phase3	test/STIM_025.jpg
2106.827	0.911	1	test	Phase3	test/STIM_025.jpg
2110.223	0.946	1	test	Phase3	test/STIM_026.jpg
2114.067	1.17	1	test	Phase3	test/STIM_026.jpg
2118.178	1.244	1	test	Phase3	test/STIM_026.jpg
2121.429	0.842	1	test	Phase3	test/STIM_027.jpg
2125.529	0.907	1	test	Phase3	test/STIM_027.jpg
2128.777	1.162	1	test	Phase3	test/STIM_027.jpg
2133.287	1.034	1	test	Phase3	test/STIM_028.jpg
2136.727	0.874	1	test	Phase3	test/STIM_028.jpg
2140.676	0.596	1	test	Phase3	test/STIM_028.jpg
2144.961	0.76	1	test	Phase3	test/STIM_029.jpg
2149.567	0.648	1	test	Phase3	test/STIM_029.jpg
2153.128	0.862	1	test	Phase3	test/STIM_029.jpg
