onset	duration	response_time_ms	trial_type	learning_stage	stimulus	response_port
0.0	2.448	2448.2	generate	Run1	generate/STIM_000.jpg	100
4.38	1.756	1756.2	generate	Run1	generate/STIM_000.jpg	99
8.371	2.781	2780.7	generate	Run1	generate/STIM_000.jpg	99
13.142	1.865	1865.4	generate	Run1	generate/STIM_000.jpg	99
18.723	2.519	2519.2	generate	Run1	generate/STIM_000.jpg	100
24.399	3.188	3187.9	generate	Run1	generate/STIM_001.jpg	99
29.997	2.446	2446.3	generate	Run1	generate/STIM_001.jpg	99
35.461	1.806	1805.7	generate	Run1	generate/STIM_001.jpg	100
40.993	1.332	1332.1	generate	Run1	generate/STIM_001.jpg	99
45.408	2.357	2357.1	generate	Run1	generate/STIM_001.jpg	99
49.622	2.251	2251.4	generate	Run1	generate/STIM_002.jpg	100
54.474	1.692	1692.4	generate	Run1	generate/STIM_002.jpg	99
58.216	1.619	1618.6	generate	Run1	generate/STIM_002.jpg	100
61.927	2.71	2709.5	generate	Run1	generate/STIM_002.jpg	99
67.501	1.573	1573.4	generate	Run1	generate/STIM_002.jpg	100
71.306	2.745	2745.3	generate	Run1	generate/STIM_003.jpg	99
76.277	1.735	1734.7	generate	Run1	generate/STIM_003.jpg	99
80.318	1.712	1712.2	generate	Run1	generate/STIM_003.jpg	100
85.68	1.603	1603.2	generate	Run1	generate/STIM_003.jpg	100
90.235	1.276	1275.5	generate	Run1	generate/STIM_003.jpg	100
94.531	2.971	2971.4	generate	Run1	generate/STIM_004.jpg	100
99.731	1.662	1661.7	generate	Run1	generate/STIM_004.jpg	100
104.684	2.288	2287.8	generate	Run1	generate/STIM_004.jpg	99
108.979	1.568	1568.0	generate	Run1	generate/STIM_004.jpg	100
113.263	2.298	2298.5	generate	Run1	generate/STIM_004.jpg	99
118.657	2.348	2347.5	generate	Run1	generate/STIM_005.jpg	99
123.8	1.558	1558.5	generate	Run1	generate/STIM_005.jpg	100
129.064	1.426	1425.5	generate	Run1	generate/STIM_005.jpg	99
134.233	1.495	1494.9	generate	Run1	generate/STIM_005.jpg	100
138.449	1.876	1875.9	generate	Run1	generate/STIM_005.jpg	99
143.695	2.392	2391.5	generate	Run1	generate/STIM_006.jpg	99
149.333	1.867	1866.7	generate	Run1	generate/STIM_006.jpg	100
154.758	1.917	1917.1	generate	Run1	generate/STIM_006.jpg	99
159.77	1.306	1305.9	generate	Run1	generate/STIM_006.jpg	99
163.669	2.522	2522.2	generate	Run1	generate/STIM_006.jpg	99
168.13	3.26	3259.5	generate	Run1	generate/STIM_007.jpg	100
173.843	2.933	2932.7	generate	Run1	generate/STIM_007.jpg	100
180.225	1.496	1495.5	generate	Run1	generate/STIM_007.jpg	99
183.874	2.246	2246.2	generate	Run1	generate/STIM_007.jpg	99
189.651	1.619	1619.4	generate	Run1	generate/STIM_007.jpg	99
194.851	2.354	2354.1	generate	Run1	generate/STIM_008.jpg	99
200.856	1.793	1793.3	generate	Run1	generate/STIM_008.jpg	99
205.074	2.752	2752.0	generate	Run1	generate/STIM_008.jpg	99
211.552	2.106	2105.7	generate	Run1	generate/STIM_008.jpg	100
215.697	2.398	2397.8	generate	Run1	generate/STIM_008.jpg	100
221.504	3.261	3260.6	generate	Run1	generate/STIM_009.jpg	100
228.396	2.783	2783.3	generate	Run1	generate/STIM_009.jpg	100
234.494	2.757	2757.0	generate	Run1	generate/STIM_009.jpg	99
240.556	2.058	2058.4	generate	Run1	generate/STIM_009.jpg	99
245.727	1.645	1645.2	generate	Run1	generate/STIM_009.jpg	99
250.559	1.372	1371.7	generate	Run1	generate/STIM_010.jpg	100
255.664	2.823	2823.2	generate	Run1	generate/STIM_010.jpg	99
261.181	1.909	1908.8	generate	Run1	generate/STIM_010.jpg	99
265.38	2.237	2237.4	generate	Run1	generate/STIM_010.jpg	99
270.461	1.299	1299.3	generate	Run1	generate/STIM_010.jpg	100
274.333	2.856	2855.9	generate	Run1	generate/STIM_011.jpg	100
280.77	2.212	2211.8	generate	Run1	generate/STIM_011.jpg	100
285.731	1.56	1560.1	generate	Run1	generate/STIM_011.jpg	99
289.727	1.97	1970.2	generate	Run1	generate/STIM_011.jpg	100
294.657	1.185	1184.9	generate	Run1	generate/STIM_011.jpg	99
298.488	1.735	1734.7	generate	Run1	generate/STIM_012.jpg	99
302.38	2.323	2323.3	generate	Run1	generate/STIM_012.jpg	99
307.439	2.793	2792.7	generate	Run1	generate/STIM_012.jpg	99
313.453	1.328	1328.3	generate	Run1	generate/STIM_012.jpg	100
318.147	2.587	2586.7	generate	Run1	generate/STIM_012.jpg	99
324.481	2.063	2063.3	generate	Run1	generate/STIM_013.jpg	99
330.307	1.29	1289.5	generate	Run1	generate/STIM_013.jpg	100
333.665	2.054	2053.6	generate	Run1	generate/STIM_013.jpg	100
337.778	2.165	2165.3	generate	Run1	generate/STIM_013.jpg	100
342.32	2.274	2274.4	generate	Run1	generate/STIM_013.jpg	99
347.009	3.145	3145.2	generate	Run1	generate/STIM_014.jpg	99
352.903	2.295	2295.2	generate	Run1	generate/STIM_014.jpg	99
358.513	2.965	2965.3	generate	Run1	generate/STIM_014.jpg	100
364.528	1.369	1369.3	generate	Run1	generate/STIM_014.jpg	99
369.708	1.356	1355.9	generate	Run1	generate/STIM_014.jpg	99
373.411	1.528	1527.7	generate	Run1	generate/STIM_015.jpg	100
377.113	2.967	2966.7	generate	Run1	generate/STIM_015.jpg	99
382.065	1.965	1964.6	generate	Run1	generate/STIM_015.jpg	100
387.748	2.432	2431.6	generate	Run1	generate/STIM_015.jpg	99
391.983	1.252	1252.2	generate	Run1	generate/STIM_015.jpg	100
395.611	2.401	2401.0	generate	Run1	generate/STIM_016.jpg	100
400.779	1.522	1522.3	generate	Run1	generate/STIM_016.jpg	99
405.709	2.167	2166.6	generate	Run1	generate/STIM_016.jpg	100
410.144	2.376	2375.6	generate	Run1	generate/STIM_016.jpg	99
414.615	2.33	2329.6	generate	Run1	generate/STIM_016.jpg	100
420.42	1.666	1665.9	generate	Run1	generate/STIM_017.jpg	99
424.11	2.175	2174.7	generate	Run1	generate/STIM_017.jpg	99
429.387	2.622	2621.7	generate	Run1	generate/STIM_017.jpg	99
434.309	2.566	2566.5	generate	Run1	generate/STIM_017.jpg	100
439.477	1.582	1582.4	generate	Run1	generate/STIM_017.jpg	99
444.671	2.154	2154.5	generate	Run1	generate/STIM_018.jpg	100
449.605	1.678	1678.4	generate	Run1	generate/STIM_018.jpg	100
453.722	1.593	1593.4	generate	Run1	generate/STIM_018.jpg	100
459.032	2.092	2092.1	generate	Run1	generate/STIM_018.jpg	99
463.178	2.043	2042.8	generate	Run1	generate/STIM_018.jpg	100
468.414	3.185	3184.6	generate	Run1	generate/STIM_019.jpg	99
474.486	2.942	2942.3	generate	Run1	generate/STIM_019.jpg	100
480.025	2.28	2280.1	generate	Run1	generate/STIM_019.jpg	99
485.629	2.438	2438.5	generate	Run1	generate/STIM_019.jpg	100
491.58	1.895	1895.4	generate	Run1	generate/STIM_019.jpg	100
495.435	1.674	1673.6	generate	Run1	generate/STIM_020.jpg	100
500.68	2.05	2050.3	generate	Run1	generate/STIM_020.jpg	99
505.606	1.539	1539.2	generate	Run1	generate/STIM_020.jpg	100
509.217	2.236	2236.0	generate	Run1	generate/STIM_020.jpg	100
513.29	2.221	2220.9	generate	Run1	generate/STIM_020.jpg	99
517.735	3.142	3141.5	generate	Run1	generate/STIM_021.jpg	100
523.476	2.355	2354.7	generate	Run1	generate/STIM_021.jpg	100
527.649	1.678	1677.7	generate	Run1	generate/STIM_021.jpg	100
532.879	1.546	1546.3	generate	Run1	generate/STIM_021.jpg	100
536.423	1.254	1254.0	generate	Run1	generate/STIM_021.jpg	100
541.145	2.13	2129.8	generate	Run1	generate/STIM_022.jpg	100
545.672	2.369	2368.9	generate	Run1	generate/STIM_022.jpg	100
550.505	1.689	1689.0	generate	Run1	generate/STIM_022.jpg	99
555.461	2.359	2359.2	generate	Run1	generate/STIM_022.jpg	99
561.361	2.348	2348.1	generate	Run1	generate/STIM_022.jpg	99
566.276	2.647	2647.2	generate	Run1	generate/STIM_023.jpg	99
572.117	1.441	1440.6	generate	Run1	generate/STIM_023.jpg	99
576.427	1.279	1278.8	generate	Run1	generate/STIM_023.jpg	100
579.608	2.618	2618.3	generate	Run1	generate/STIM_023.jpg	100
585.883	2.552	2551.8	generate	Run1	generate/STIM_023.jpg	99
592.198	3.203	3202.6	generate	Run1	generate/STIM_024.jpg	100
597.838	2.345	2344.8	generate	Run1	generate/STIM_024.jpg	99
603.778	2.46	2460.2	generate	Run1	generate/STIM_024.jpg	100
608.257	1.975	1975.4	generate	Run1	generate/STIM_024.jpg	100
612.553	1.324	1323.8	generate	Run1	generate/STIM_024.jpg	99
616.123	0.934	933.5	repeat	Run1	repeat/STIM_000.jpg	99
620.526	0.839	838.7	repeat	Run1	repeat/STIM_000.jpg	100
624.807	0.827	826.9	repeat	Run1	repeat/STIM_000.jpg	100
628.548	0.781	781.3	repeat	Run1	repeat/STIM_000.jpg	100
632.526	0.704	703.5	repeat	Run1	repeat/STIM_000.jpg	100
635.543	0.644	643.9	repeat	Run1	repeat/STIM_001.jpg	99
639.732	0.87	869.5	repeat	Run1	repeat/STIM_001.jpg	99
643.842	0.847	847.3	repeat	Run1	repeat/STIM_001.jpg	100
648.298	0.693	693.0	repeat	Run1	repeat/STIM_001.jpg	100
651.503	1.002	1002.5	repeat	Run1	repeat/STIM_001.jpg	100
655.83	0.84	840.4	repeat	Run1	repeat/STIM_002.jpg	99
658.614	0.764	764.1	repeat	Run1	repeat/STIM_002.jpg	100
661.479	0.67	669.8	repeat	Run1	repeat/STIM_002.jpg	99
664.795	0.691	691.3	repeat	Run1	repeat/STIM_002.jpg	100
668.3	0.579	579.1	repeat	Run1	repeat/STIM_002.jpg	100
672.555	1.085	1085.0	repeat	Run1	repeat/STIM_003.jpg	99
676.894	0.678	678.5	repeat	Run1	repeat/STIM_003.jpg	99
681.477	1.046	1046.3	repeat	Run1	repeat/STIM_003.jpg	99
685.529	0.599	598.8	repeat	Run1	repeat/STIM_003.jpg	99
689.423	0.802	801.5	repeat	Run1	repeat/STIM_003.jpg	100
693.238	0.64	639.5	repeat	Run1	repeat/STIM_004.jpg	100
696.548	0.926	925.5	repeat	Run1	repeat/STIM_004.jpg	99
700.115	0.825	824.6	repeat	Run1	repeat/STIM_004.jpg	99
703.969	0.799	799.4	repeat	Run1	repeat/STIM_004.jpg	100
708.037	0.708	707.5	repeat	Run1	repeat/STIM_004.jpg	100
711.764	1.058	1057.7	repeat	Run1	repeat/STIM_005.jpg	100
714.768	0.845	844.9	repeat	Run1	repeat/STIM_005.jpg	99
718.614	0.732	732.2	repeat	Run1	repeat/STIM_005.jpg	100
722.857	0.804	804.1	repeat	Run1	repeat/STIM_005.jpg	100
726.593	0.945	945.3	repeat	Run1	repeat/STIM_005.jpg	100
730.951	0.737	736.9	repeat	Run1	repeat/STIM_006.jpg	100
734.505	0.877	877.2	repeat	Run1	repeat/STIM_006.jpg	100
737.95	0.593	592.6	repeat	Run1	repeat/STIM_006.jpg	99
742.029	0.584	584.0	repeat	Run1	repeat/STIM_006.jpg	100
746.402	1.032	1031.5	repeat	Run1	repeat/STIM_006.jpg	100
750.125	1.095	1094.7	repeat	Run1	repeat/STIM_007.jpg	100
753.194	0.869	868.6	repeat	Run1	repeat/STIM_007.jpg	99
757.193	0.782	781.6	repeat	Run1	repeat/STIM_007.jpg	99
761.636	0.697	696.8	repeat	Run1	repeat/STIM_007.jpg	100
765.998	0.895	895.1	repeat	Run1	repeat/STIM_007.jpg	100
768.997	0.892	892.3	repeat	Run1	repeat/STIM_008.jpg	99
772.309	1.002	1001.9	repeat	Run1	repeat/STIM_008.jpg	99
776.101	0.741	740.8	repeat	Run1	repeat/STIM_008.jpg	99
779.509	0.818	818.1	repeat	Run1	repeat/STIM_008.jpg	100
784.114	0.82	820.5	repeat	Run1	repeat/STIM_008.jpg	99
787.932	0.922	921.9	repeat	Run1	repeat/STIM_009.jpg	99
791.974	0.972	971.9	repeat	Run1	repeat/STIM_009.jpg	100
795.348	0.611	611.1	repeat	Run1	repeat/STIM_009.jpg	100
798.926	1.06	1059.8	repeat	Run1	repeat/STIM_009.jpg	99
802.731	0.932	932.1	repeat	Run1	repeat/STIM_009.jpg	100
806.612	0.822	821.8	repeat	Run1	repeat/STIM_010.jpg	100
811.269	1.051	1051.1	repeat	Run1	repeat/STIM_010.jpg	99
815.37	0.632	632.4	repeat	Run1	repeat/STIM_010.jpg	100
818.236	0.771	770.7	repeat	Run1	repeat/STIM_010.jpg	100
821.839	0.69	689.7	repeat	Run1	repeat/STIM_010.jpg	100
824.738	0.596	595.7	repeat	Run1	repeat/STIM_011.jpg	99
828.442	0.749	748.7	repeat	Run1	repeat/STIM_011.jpg	99
831.166	0.95	950.4	repeat	Run1	repeat/STIM_011.jpg	99
834.692	0.959	958.6	repeat	Run1	repeat/STIM_011.jpg	99
837.853	1.033	1032.9	repeat	Run1	repeat/STIM_011.jpg	100
841.653	1.079	1079.4	repeat	Run1	repeat/STIM_012.jpg	99
846.361	0.79	789.8	repeat	Run1	repeat/STIM_012.jpg	100
849.342	1.088	1088.5	repeat	Run1	repeat/STIM_012.jpg	100
853.596	0.603	602.9	repeat	Run1	repeat/STIM_012.jpg	100
857.663	1.094	1094.2	repeat	Run1	repeat/STIM_012.jpg	99
862.538	1.087	1087.1	repeat	Run1	repeat/STIM_013.jpg	99
865.711	0.941	940.6	repeat	Run1	repeat/STIM_013.jpg	99
870.429	0.932	931.9	repeat	Run1	repeat/STIM_013.jpg	99
875.268	0.696	696.4	repeat	Run1	repeat/STIM_013.jpg	99
878.025	1.065	1064.7	repeat	Run1	repeat/STIM_013.jpg	99
882.131	0.796	795.9	repeat	Run1	repeat/STIM_014.jpg	99
884.885	0.734	733.9	repeat	Run1	repeat/STIM_014.jpg	100
889.357	1.063	1063.0	repeat	Run1	repeat/STIM_014.jpg	100
893.693	0.702	701.5	repeat	Run1	repeat/STIM_014.jpg	100
897.349	0.859	858.7	repeat	Run1	repeat/STIM_014.jpg	99
900.439	2.771	2770.7	generate	Run2	generate/STIM_000.jpg	99
905.245	2.52	2519.7	generate	Run2	generate/STIM_000.jpg	100
911.406	2.213	2212.6	generate	Run2	generate/STIM_000.jpg	100
915.586	2.057	2057.2	generate	Run2	generate/STIM_000.jpg	99
920.799	1.185	1185.0	generate	Run2	generate/STIM_000.jpg	100
924.718	1.617	1617.0	generate	Run2	generate/STIM_001.jpg	99
929.854	2.173	2172.6	generate	Run2	generate/STIM_001.jpg	99
935.528	2.379	2379.4	generate	Run2	generate/STIM_001.jpg	100
940.009	1.841	1840.8	generate	Run2	generate/STIM_001.jpg	100
944.932	1.228	1228.2	generate	Run2	generate/STIM_001.jpg	99
948.287	1.99	1989.5	generate	Run2	generate/STIM_002.jpg	99
952.541	1.932	1932.5	generate	Run2	generate/STIM_002.jpg	99
956.635	1.768	1768.4	generate	Run2	generate/STIM_002.jpg	99
960.644	1.426	1426.3	generate	Run2	generate/STIM_002.jpg	100
964.285	1.112	1112.0	generate	Run2	generate/STIM_002.jpg	99
968.807	1.238	1237.9	generate	Run2	generate/STIM_003.jpg	100
973.438	2.037	2037.2	generate	Run2	generate/STIM_003.jpg	99
978.462	1.04	1040.5	generate	Run2	generate/STIM_003.jpg	100
982.774	1.435	1435.4	generate	Run2	generate/STIM_003.jpg	100
987.934	2.159	2159.4	generate	Run2	generate/STIM_003.jpg	99
992.122	1.258	1257.5	generate	Run2	generate/STIM_004.jpg	100
995.354	1.11	1109.9	generate	Run2	generate/STIM_004.jpg	99
999.728	1.507	1506.6	generate	Run2	generate/STIM_004.jpg	99
1003.82	1.699	1698.6	generate	Run2	generate/STIM_004.jpg	100
1008.066	1.205	1204.9	generate	Run2	generate/STIM_004.jpg	99
1011.54	2.266	2265.5	generate	Run2	generate/STIM_005.jpg	100
1015.987	2.118	2117.5	generate	Run2	generate/STIM_005.jpg	100
1021.053	1.456	1456.4	generate	Run2	generate/STIM_005.jpg	99
1025.51	2.017	2016.5	generate	Run2	generate/STIM_005.jpg	99
1030.969	1.862	1862.3	generate	Run2	generate/STIM_005.jpg	99
1034.737	1.22	1219.5	generate	Run2	generate/STIM_006.jpg	100
1039.658	1.157	1157.1	generate	Run2	generate/STIM_006.jpg	100
1043.231	2.067	2066.9	generate	Run2	generate/STIM_006.jpg	100
1048.481	2.188	2188.0	generate	Run2	generate/STIM_006.jpg	100
1053.241	0.958	957.5	generate	Run2	generate/STIM_006.jpg	99
1056.776	2.422	2422.2	generate	Run2	generate/STIM_007.jpg	99
1062.253	1.207	1206.6	generate	Run2	generate/STIM_007.jpg	99
1065.481	1.2	1199.8	generate	Run2	generate/STIM_007.jpg	100
1069.421	2.267	2267.3	generate	Run2	generate/STIM_007.jpg	100
1074.856	1.614	1614.1	generate	Run2	generate/STIM_007.jpg	99
1080.11	1.411	1410.9	generate	Run2	generate/STIM_008.jpg	99
1083.605	2.105	2105.1	generate	Run2	generate/STIM_008.jpg	99
1088.194	1.391	1391.3	generate	Run2	generate/STIM_008.jpg	100
1091.894	1.073	1072.6	generate	Run2	generate/STIM_008.jpg	99
1095.832	2.28	2279.6	generate	Run2	generate/STIM_008.jpg	99
1101.283	1.469	1469.0	generate	Run2	generate/STIM_009.jpg	99
1105.47	1.846	1846.3	generate	Run2	generate/STIM_009.jpg	99
1110.996	1.824	1824.5	generate	Run2	generate/STIM_009.jpg	99
1116.012	1.05	1050.0	generate	Run2	generate/STIM_009.jpg	100
1120.172	1.143	1143.2	generate	Run2	generate/STIM_009.jpg	100
1124.49	1.318	1317.5	generate	Run2	generate/STIM_010.jpg	100
1129.016	2.272	2271.7	generate	Run2	generate/STIM_010.jpg	100
1133.27	1.688	1687.6	generate	Run2	generate/STIM_010.jpg	100
1137.073	1.82	1819.9	generate	Run2	generate/STIM_010.jpg	99
1141.631	1.604	1603.6	generate	Run2	generate/STIM_010.jpg	99
1145.743	2.124	2124.0	generate	Run2	generate/STIM_011.jpg	100
1151.513	1.819	1818.7	generate	Run2	generate/STIM_011.jpg	99
1156.146	2.096	2095.6	generate	Run2	generate/STIM_011.jpg	99
1160.152	1.089	1088.7	generate	Run2	generate/STIM_011.jpg	99
1164.264	1.76	1759.9	generate	Run2	generate/STIM_011.jpg	100
1169.124	1.126	1126.5	generate	Run2	generate/STIM_012.jpg	100
1174.138	2.062	2061.6	generate	Run2	generate/STIM_012.jpg	100
1178.289	1.485	1485.2	generate	Run2	generate/STIM_012.jpg	99
1182.606	2.139	2138.8	generate	Run2	generate/STIM_012.jpg	100
1187.332	1.413	1412.6	generate	Run2	generate/STIM_012.jpg	99
1191.684	1.871	1871.1	generate	Run2	generate/STIM_013.jpg	100
1196.508	2.07	2069.5	generate	Run2	generate/STIM_013.jpg	100
1200.852	1.877	1877.0	generate	Run2	generate/STIM_013.jpg	99
1205.837	1.847	1846.8	generate	Run2	generate/STIM_013.jpg	100
1209.538	1.48	1479.8	generate	Run2	generate/STIM_013.jpg	100
1213.18	2.728	2728.5	generate	Run2	generate/STIM_014.jpg	99
1219.464	2.355	2355.2	generate	Run2	generate/STIM_014.jpg	99
1224.681	2.238	2237.9	generate	Run2	generate/STIM_014.jpg	99
1228.742	1.11	1110.4	generate	Run2	generate/STIM_014.jpg	99
1233.641	1.414	1413.8	generate	Run2	generate/STIM_014.jpg	99
1237.605	1.864	1864.5	generate	Run2	generate/STIM_015.jpg	100
1242.392	1.164	1164.5	generate	Run2	generate/STIM_015.jpg	100
1245.781	1.348	1347.9	generate	Run2	generate/STIM_015.jpg	100
1249.354	1.231	1231.4	generate	Run2	generate/STIM_015.jpg	99
1254.252	1.357	1356.8	generate	Run2	generate/STIM_015.jpg	99
1258.349	2.248	2248.0	generate	Run2	generate/STIM_016.jpg	99
1262.543	2.042	2041.5	generate	Run2	generate/STIM_016.jpg	100
1267.351	2.343	2343.0	generate	Run2	generate/STIM_016.jpg	99
1272.119	1.675	1675.3	generate	Run2	generate/STIM_016.jpg	99
1275.735	1.167	1166.9	generate	Run2	generate/STIM_016.jpg	99
1279.729	2.13	2129.5	generate	Run2	generate/STIM_017.jpg	99
1284.324	1.801	1800.8	generate	Run2	generate/STIM_017.jpg	100
1288.182	2.233	2232.7	generate	Run2	generate/STIM_017.jpg	99
1293.218	1.554	1553.8	generate	Run2	generate/STIM_017.jpg	100
1297.735	2.048	2047.9	generate	Run2	generate/STIM_017.jpg	100
1303.458	2.435	2434.8	generate	Run2	generate/STIM_018.jpg	100
1309.007	1.609	1609.2	generate	Run2	generate/STIM_018.jpg	100
1312.523	1.836	1835.5	generate	Run2	generate/STIM_018.jpg	99
1317.559	1.252	1252.1	generate	Run2	generate/STIM_018.jpg	100
1322.45	2.159	2159.1	generate	Run2	generate/STIM_018.jpg	100
1327.302	1.174	1173.6	generate	Run2	generate/STIM_019.jpg	99
1331.053	2.6	2599.7	generate	Run2	generate/STIM_019.jpg	100
1336.913	1.621	1620.6	generate	Run2	generate/STIM_019.jpg	99
1340.495	1.408	1408.5	generate	Run2	generate/STIM_019.jpg	100
1345.551	1.911	1910.7	generate	Run2	generate/STIM_019.jpg	99
1350.933	2.237	2237.4	generate	Run2	generate/STIM_020.jpg	99
1355.038	2.089	2088.9	generate	Run2	generate/STIM_020.jpg	100
1360.424	1.668	1668.0	generate	Run2	generate/STIM_020.jpg	99
1364.609	1.869	1869.0	generate	Run2	generate/STIM_020.jpg	100
1369.679	1.849	1849.4	generate	Run2	generate/STIM_020.jpg	100
1374.543	2.527	2526.9	generate	Run2	generate/STIM_021.jpg	100
1379.662	2.095	2095.1	generate	Run2	generate/STIM_021.jpg	99
1384.861	2.11	2110.4	generate	Run2	generate/STIM_021.jpg	99
1390.776	1.79	1790.0	generate	Run2	generate/STIM_021.jpg	100
1395.276	1.441	1440.8	generate	Run2	generate/STIM_021.jpg	100
1398.971	1.733	1733.0	generate	Run2	generate/STIM_022.jpg	100
1403.222	1.439	1439.0	generate	Run2	generate/STIM_022.jpg	99
1407.021	1.259	1259.2	generate	Run2	generate/STIM_022.jpg	100
1411.19	1.799	1798.8	generate	Run2	generate/STIM_022.jpg	100
1414.98	1.354	1353.7	generate	Run2	generate/STIM_022.jpg	100
1420.139	2.798	2798.3	generate	Run2	generate/STIM_023.jpg	100
1424.698	1.863	1862.6	generate	Run2	generate/STIM_023.jpg	100
1429.434	1.946	1945.6	generate	Run2	generate/STIM_023.jpg	100
1435.038	2.126	2126.4	generate	Run2	generate/STIM_023.jpg	100
1440.619	1.285	1285.4	generate	Run2	generate/STIM_023.jpg	99
1444.521	1.509	1509.1	generate	Run2	generate/STIM_024.jpg	99
1448.478	1.985	1985.3	generate	Run2	generate/STIM_024.jpg	100
1453.724	2.019	2018.8	generate	Run2	generate/STIM_024.jpg	99
1459.04	1.444	1443.5	generate	Run2	generate/STIM_024.jpg	99
1462.386	0.933	933.2	generate	Run2	generate/STIM_024.jpg	99
1466.803	0.839	839.0	repeat	Run2	repeat/STIM_000.jpg	99
1470.313	0.905	905.0	repeat	Run2	repeat/STIM_000.jpg	100
1473.195	0.796	795.7	repeat	Run2	repeat/STIM_000.jpg	99
1477.014	0.609	609.2	repeat	Run2	repeat/STIM_000.jpg	99
1480.829	0.774	774.3	repeat	Run2	repeat/STIM_000.jpg	100
1484.471	1.008	1007.6	repeat	Run2	repeat/STIM_001.jpg	100
1489.148	0.742	741.8	repeat	Run2	repeat/STIM_001.jpg	100
1493.214	0.673	672.6	repeat	Run2	repeat/STIM_001.jpg	99
1496.153	0.975	975.4	repeat	Run2	repeat/STIM_001.jpg	100
1499.363	0.926	926.2	repeat	Run2	repeat/STIM_001.jpg	99
1502.966	1.007	1007.0	repeat	Run2	repeat/STIM_002.jpg	100
1507.27	0.914	914.4	repeat	Run2	repeat/STIM_002.jpg	99
1510.184	0.577	577.0	repeat	Run2	repeat/STIM_002.jpg	99
1514.633	1.036	1035.7	repeat	Run2	repeat/STIM_002.jpg	99
1517.799	0.719	718.7	repeat	Run2	repeat/STIM_002.jpg	100
1522.181	1.029	1028.8	repeat	Run2	repeat/STIM_003.jpg	100
1526.458	0.606	605.6	repeat	Run2	repeat/STIM_003.jpg	100
1529.839	0.662	662.0	repeat	Run2	repeat/STIM_003.jpg	100
1533.193	0.897	897.1	repeat	Run2	repeat/STIM_003.jpg	99
1536.99	0.876	876.3	repeat	Run2	repeat/STIM_003.jpg	99
1541.294	0.625	625.0	repeat	Run2	repeat/STIM_004.jpg	99
1545.677	0.938	938.2	repeat	Run2	repeat/STIM_004.jpg	100
1548.7	1.066	1066.0	repeat	Run2	repeat/STIM_004.jpg	100
1553.468	0.654	653.7	repeat	Run2	repeat/STIM_004.jpg	100
1558.055	0.696	695.7	repeat	Run2	repeat/STIM_004.jpg	99
1562.233	0.652	652.3	repeat	Run2	repeat/STIM_005.jpg	100
1566.064	0.747	747.3	repeat	Run2	repeat/STIM_005.jpg	99
1569.771	0.609	609.0	repeat	Run2	repeat/STIM_005.jpg	99
1573.916	1.01	1010.4	repeat	Run2	repeat/STIM_005.jpg	99
1578.054	0.792	791.8	repeat	Run2	repeat/STIM_005.jpg	100
1581.988	1.04	1040.3	repeat	Run2	repeat/STIM_006.jpg	100
1585.866	1.041	1040.6	repeat	Run2	repeat/STIM_006.jpg	99
1589.334	0.769	769.1	repeat	Run2	repeat/STIM_006.jpg	100
1593.278	0.798	797.5	repeat	Run2	repeat/STIM_006.jpg	100
1597.738	0.553	552.8	repeat	Run2	repeat/STIM_006.jpg	100
1601.936	0.752	752.3	repeat	Run2	repeat/STIM_007.jpg	99
1606.135	0.752	751.6	repeat	Run2	repeat/STIM_007.jpg	100
1610.564	1.088	1087.7	repeat	Run2	repeat/STIM_007.jpg	99
1614.431	0.875	875.1	repeat	Run2	repeat/STIM_007.jpg	99
1617.463	0.96	960.5	repeat	Run2	repeat/STIM_007.jpg	99
1621.232	1.037	1036.6	repeat	Run2	repeat/STIM_008.jpg	99
1625.631	0.903	902.9	repeat	Run2	repeat/STIM_008.jpg	100
1630.349	0.972	971.6	repeat	Run2	repeat/STIM_008.jpg	100
1634.602	0.976	976.1	repeat	Run2	repeat/STIM_008.jpg	99
1638.698	0.793	792.9	repeat	Run2	repeat/STIM_008.jpg	99
1642.346	1.021	1021.3	repeat	Run2	repeat/STIM_009.jpg	100
1645.775	0.709	709.0	repeat	Run2	repeat/STIM_009.jpg	99
1649.391	0.656	656.2	repeat	Run2	repeat/STIM_009.jpg	99
1652.374	0.925	925.3	repeat	Run2	repeat/STIM_009.jpg	99
1656.486	0.686	686.0	repeat	Run2	repeat/STIM_009.jpg	100
1659.621	0.805	804.8	repeat	Run2	repeat/STIM_010.jpg	100
1664.102	0.633	633.0	repeat	Run2	repeat/STIM_010.jpg	100
1667.318	0.872	872.4	repeat	Run2	repeat/STIM_010.jpg	100
1670.937	0.948	948.0	repeat	Run2	repeat/STIM_010.jpg	99
1674.947	0.94	940.2	repeat	Run2	repeat/STIM_010.jpg	100
1679.116	1.039	1039.1	repeat	Run2	repeat/STIM_011.jpg	100
1682.236	0.94	939.8	repeat	Run2	repeat/STIM_011.jpg	99
1685.809	1.092	1092.4	repeat	Run2	repeat/STIM_011.jpg	100
1689.205	1.037	1036.8	repeat	Run2	repeat/STIM_011.jpg	99
1694.009	0.631	631.1	repeat	Run2	repeat/STIM_011.jpg	99
1697.761	0.598	597.7	repeat	Run2	repeat/STIM_012.jpg	100
1700.981	0.784	783.7	repeat	Run2	repeat/STIM_012.jpg	99
1704.758	0.926	926.1	repeat	Run2	repeat/STIM_012.jpg	100
1707.883	0.822	821.8	repeat	Run2	repeat/STIM_012.jpg	99
1710.894	0.825	825.4	repeat	Run2	repeat/STIM_012.jpg	99
1713.71	0.789	789.2	repeat	Run2	repeat/STIM_013.jpg	99
1716.691	0.976	975.7	repeat	Run2	repeat/STIM_013.jpg	99
1720.263	0.64	639.6	repeat	Run2	repeat/STIM_013.jpg	99
1723.995	0.898	898.4	repeat	Run2	repeat/STIM_013.jpg	100
1727.727	0.999	998.8	repeat	Run2	repeat/STIM_013.jpg	100
1731.265	0.688	688.2	repeat	Run2	repeat/STIM_014.jpg	99
1734.427	0.91	909.8	repeat	Run2	repeat/STIM_014.jpg	99
1738.316	0.734	734.5	repeat	Run2	repeat/STIM_014.jpg	100
1741.413	1.082	1081.9	repeat	Run2	repeat/STIM_014.jpg	100
1745.234	0.566	566.3	repeat	Run2	repeat/STIM_014.jpg	99
1749.486	1.374	1374.4	generate	Run3	generate/STIM_000.jpg	100
1754.736	1.966	1965.9	generate	Run3	generate/STIM_000.jpg	100
1759.078	2.214	2213.8	generate	Run3	generate/STIM_000.jpg	100
1765.065	2.268	2268.3	generate	Run3	generate/STIM_000.jpg	99
1770.763	0.992	992.5	generate	Run3	generate/STIM_000.jpg	99
1774.012	1.171	1170.9	generate	Run3	generate/STIM_001.jpg	100
1777.807	1.046	1045.7	generate	Run3	generate/STIM_001.jpg	99
1781.541	1.546	1546.2	generate	Run3	generate/STIM_001.jpg	100
1786.239	2.088	2087.9	generate	Run3	generate/STIM_001.jpg	100
1790.38	1.025	1025.2	generate	Run3	generate/STIM_001.jpg	100
1794.193	1.328	1328.1	generate	Run3	generate/STIM_002.jpg	99
1798.209	1.55	1550.1	generate	Run3	generate/STIM_002.jpg	100
1802.78	1.882	1882.0	generate	Run3	generate/STIM_002.jpg	100
1807.778	1.738	1738.5	generate	Run3	generate/STIM_002.jpg	99
1813.293	2.137	2136.9	generate	Run3	generate/STIM_002.jpg	100
1819.191	1.062	1062.2	generate	Run3	generate/STIM_003.jpg	100
1823.598	1.9	1899.8	generate	Run3	generate/STIM_003.jpg	100
1828.523	1.575	1574.7	generate	Run3	generate/STIM_003.jpg	100
1833.194	1.933	1933.1	generate	Run3	generate/STIM_003.jpg	100
1838.889	2.083	2082.6	generate	Run3	generate/STIM_003.jpg	99
1844.52	1.396	1395.8	generate	Run3	generate/STIM_004.jpg	99
1849.202	1.075	1075.2	generate	Run3	generate/STIM_004.jpg	100
1852.856	2.232	2231.6	generate	Run3	generate/STIM_004.jpg	99
1857.64	1.035	1034.8	generate	Run3	generate/STIM_004.jpg	99
1861.154	1.759	1759.3	generate	Run3	generate/STIM_004.jpg	99
1865.605	1.022	1021.5	generate	Run3	generate/STIM_005.jpg	100
1868.632	1.298	1298.4	generate	Run3	generate/STIM_005.jpg	99
1873.175	1.802	1802.2	generate	Run3	generate/STIM_005.jpg	99
1876.964	1.674	1674.0	generate	Run3	generate/STIM_005.jpg	100
1880.714	1.278	1277.5	generate	Run3	generate/STIM_005.jpg	100
1884.497	1.693	1693.0	generate	Run3	generate/STIM_006.jpg	100
1888.392	1.862	1862.1	generate	Run3	generate/STIM_006.jpg	100
1892.812	2.3	2300.3	generate	Run3	generate/STIM_006.jpg	100
1897.31	2.185	2184.6	generate	Run3	generate/STIM_006.jpg	99
1903.202	1.185	1184.9	generate	Run3	generate/STIM_006.jpg	99
1907.036	1.032	1032.4	generate	Run3	generate/STIM_007.jpg	99
1910.024	0.971	970.7	generate	Run3	generate/STIM_007.jpg	99
1914.495	2.034	2034.4	generate	Run3	generate/STIM_007.jpg	99
1918.493	1.182	1182.3	generate	Run3	generate/STIM_007.jpg	99
1922.39	1.358	1357.5	generate	Run3	generate/STIM_007.jpg	100
1927.052	2.119	2118.7	generate	Run3	generate/STIM_008.jpg	99
1932.6	2.2	2200.1	generate	Run3	generate/STIM_008.jpg	99
1938.581	2.296	2296.0	generate	Run3	generate/STIM_008.jpg	99
1943.965	1.294	1294.1	generate	Run3	generate/STIM_008.jpg	99
1947.726	2.298	2298.5	generate	Run3	generate/STIM_008.jpg	99
1952.912	1.539	1539.0	generate	Run3	generate/STIM_009.jpg	99
1957.671	1.398	1397.8	generate	Run3	generate/STIM_009.jpg	99
1961.812	2.134	2133.7	generate	Run3	generate/STIM_009.jpg	100
1967.516	1.412	1412.1	generate	Run3	generate/STIM_009.jpg	99
1971.108	1.812	1812.4	generate	Run3	generate/STIM_009.jpg	99
1975.974	1.933	1932.8	generate	Run3	generate/STIM_010.jpg	100
1979.775	1.7	1699.6	generate	Run3	generate/STIM_010.jpg	100
1984.019	1.117	1117.3	generate	Run3	generate/STIM_010.jpg	100
1988.325	1.721	1720.6	generate	Run3	generate/STIM_010.jpg	100
1992.668	1.253	1252.8	generate	Run3	generate/STIM_010.jpg	99
1996.018	1.884	1884.0	generate	Run3	generate/STIM_011.jpg	100
2001.463	0.941	941.0	generate	Run3	generate/STIM_011.jpg	99
2006.075	1.412	1412.1	generate	Run3	generate/STIM_011.jpg	99
2011.046	1.313	1313.1	generate	Run3	generate/STIM_011.jpg	100
2014.251	1.585	1584.6	generate	Run3	generate/STIM_011.jpg	99
2018.117	0.943	943.3	generate	Run3	generate/STIM_012.jpg	99
2022.387	1.832	1832.2	generate	Run3	generate/STIM_012.jpg	100
2027.326	1.893	1892.7	generate	Run3	generate/STIM_012.jpg	99
2031.215	2.083	2082.7	generate	Run3	generate/STIM_012.jpg	100
2036.263	1.104	1104.5	generate	Run3	generate/STIM_012.jpg	99
2039.416	1.514	1513.9	generate	Run3	generate/STIM_013.jpg	99
2044.658	1.336	1335.9	generate	Run3	generate/STIM_013.jpg	99
2047.986	1.346	1345.9	generate	Run3	generate/STIM_013.jpg	100
2052.405	1.604	1604.1	generate	Run3	generate/STIM_013.jpg	99
2057.211	1.804	1804.3	generate	Run3	generate/STIM_013.jpg	99
2062.459	1.319	1319.3	generate	Run3	generate/STIM_014.jpg	99
2067.006	1.065	1065.1	generate	Run3	generate/STIM_014.jpg	100
2070.804	1.27	1269.8	generate	Run3	generate/STIM_014.jpg	100
2075.011	2.112	2111.7	generate	Run3	generate/STIM_014.jpg	99
2080.626	1.271	1270.7	generate	Run3	generate/STIM_014.jpg	99
2083.955	1.816	1815.9	generate	Run3	generate/STIM_015.jpg	99
2087.891	1.798	1798.2	generate	Run3	generate/STIM_015.jpg	100
2092.476	1.122	1122.5	generate	Run3	generate/STIM_015.jpg	99
2097.22	1.825	1824.7	generate	Run3	generate/STIM_015.jpg	99
2101.854	2.123	2123.1	generate	Run3	generate/STIM_015.jpg	100
2106.168	1.905	1905.3	generate	Run3	generate/STIM_016.jpg	100
2110.867	0.995	994.7	generate	Run3	generate/STIM_016.jpg	100
2114.928	2.135	2134.6	generate	Run3	generate/STIM_016.jpg	99
2119.398	1.628	1627.9	generate	Run3	generate/STIM_016.jpg	99
2123.351	1.728	1728.0	generate	Run3	generate/STIM_016.jpg	99
2127.689	1.922	1921.6	generate	Run3	generate/STIM_017.jpg	99
2131.73	1.668	1668.1	generate	Run3	generate/STIM_017.jpg	99
2135.709	1.183	1183.0	generate	Run3	generate/STIM_017.jpg	99
2139.243	1.504	1503.5	generate	Run3	generate/STIM_017.jpg	100
2143.418	2.158	2157.7	generate	Run3	generate/STIM_017.jpg	100
2148.996	1.25	1250.5	generate	Run3	generate/STIM_018.jpg	100
2152.604	1.919	1919.4	generate	Run3	generate/STIM_018.jpg	100
2157.431	2.126	2126.2	generate	Run3	generate/STIM_018.jpg	100
2162.708	1.484	1484.0	generate	Run3	generate/STIM_018.jpg	99
2166.504	1.314	1313.8	generate	Run3	generate/STIM_018.jpg	100
2170.551	1.194	1194.5	generate	Run3	generate/STIM_019.jpg	99
2173.876	1.189	1188.9	generate	Run3	generate/STIM_019.jpg	100
2177.906	1.685	1685.2	generate	Run3	generate/STIM_019.jpg	100
2182.215	1.088	1087.7	generate	Run3	generate/STIM_019.jpg	100
2185.557	1.366	1366.5	generate	Run3	generate/STIM_019.jpg	100
2189.447	2.213	2213.1	generate	Run3	generate/STIM_020.jpg	100
2195.101	1.749	1749.3	generate	Run3	generate/STIM_020.jpg	100
2200.105	1.742	1741.5	generate	Run3	generate/STIM_020.jpg	100
2204.231	1.838	1837.7	generate	Run3	generate/STIM_020.jpg	99
2209.185	0.935	935.1	generate	Run3	generate/STIM_020.jpg	99
2212.657	1.036	1036.1	generate	Run3	generate/STIM_021.jpg	99
2216.074	2.155	2155.4	generate	Run3	generate/STIM_021.jpg	99
2222.023	2.28	2280.3	generate	Run3	generate/STIM_021.jpg	99
2226.867	1.983	1983.0	generate	Run3	generate/STIM_021.jpg	100
2232.56	1.356	1355.9	generate	Run3	generate/STIM_021.jpg	100
2236.829	0.964	964.2	generate	Run3	generate/STIM_022.jpg	99
2240.563	1.73	1730.3	generate	Run3	generate/STIM_022.jpg	99
2244.715	2.254	2253.7	generate	Run3	generate/STIM_022.jpg	100
2250.118	1.301	1300.8	generate	Run3	generate/STIM_022.jpg	99
2253.384	1.099	1098.6	generate	Run3	generate/STIM_022.jpg	99
2258.072	1.615	1615.3	generate	Run3	generate/STIM_023.jpg	100
2261.902	1.309	1309.0	generate	Run3	generate/STIM_023.jpg	100
2266.789	2.16	2160.3	generate	Run3	generate/STIM_023.jpg	100
2272.754	1.108	1108.1	generate	Run3	generate/STIM_023.jpg	100
2276.649	2.286	2285.9	generate	Run3	generate/STIM_023.jpg	100
2281.483	1.528	1527.8	generate	Run3	generate/STIM_024.jpg	99
2286.449	1.823	1823.2	generate	Run3	generate/STIM_024.jpg	99
2291.437	1.435	1435.1	generate	Run3	generate/STIM_024.jpg	99
2295.03	1.29	1290.5	generate	Run3	generate/STIM_024.jpg	100
2298.653	1.276	1276.5	generate	Run3	generate/STIM_024.jpg	99
2302.379	0.922	921.7	repeat	Run3	repeat/STIM_000.jpg	99
2307.17	0.65	649.5	repeat	Run3	repeat/STIM_000.jpg	100
2309.878	1.038	1038.3	repeat	Run3	repeat/STIM_000.jpg	99
2312.905	0.688	688.5	repeat	Run3	repeat/STIM_000.jpg	99
2317.531	1.068	1068.4	repeat	Run3	repeat/STIM_000.jpg	99
2322.369	0.876	875.8	repeat	Run3	repeat/STIM_001.jpg	100
2326.966	0.603	603.0	repeat	Run3	repeat/STIM_001.jpg	99
2329.72	0.986	986.4	repeat	Run3	repeat/STIM_001.jpg	100
2334.484	1.043	1042.6	repeat	Run3	repeat/STIM_001.jpg	100
2338.661	0.9	900.1	repeat	Run3	repeat/STIM_001.jpg	99
2343.246	0.694	694.5	repeat	Run3	repeat/STIM_002.jpg	100
2346.236	0.704	704.4	repeat	Run3	repeat/STIM_002.jpg	99
2349.924	0.697	697.2	repeat	Run3	repeat/STIM_002.jpg	100
2353.995	0.914	913.6	repeat	Run3	repeat/STIM_002.jpg	100
2357.827	1.059	1058.9	repeat	Run3	repeat/STIM_002.jpg	99
2361.813	1.052	1052.2	repeat	Run3	repeat/STIM_003.jpg	99
2366.179	0.674	673.5	repeat	Run3	repeat/STIM_003.jpg	99
2369.298	1.095	1095.2	repeat	Run3	repeat/STIM_003.jpg	100
2372.325	0.843	843.1	repeat	Run3	repeat/STIM_003.jpg	99
2375.835	0.736	735.9	repeat	Run3	repeat/STIM_003.jpg	99
2379.323	0.837	837.3	repeat	Run3	repeat/STIM_004.jpg	100
2383.856	0.9	899.6	repeat	Run3	repeat/STIM_004.jpg	100
2388.572	0.717	717.2	repeat	Run3	repeat/STIM_004.jpg	100
2392.748	0.717	717.2	repeat	Run3	repeat/STIM_004.jpg	99
2395.485	0.796	795.7	repeat	Run3	repeat/STIM_004.jpg	100
2399.346	0.916	915.5	repeat	Run3	repeat/STIM_005.jpg	100
2402.419	0.81	809.5	repeat	Run3	repeat/STIM_005.jpg	100
2405.843	0.89	889.5	repeat	Run3	repeat/STIM_005.jpg	100
2409.94	0.986	986.3	repeat	Run3	repeat/STIM_005.jpg	100
2413.888	1.034	1033.9	repeat	Run3	repeat/STIM_005.jpg	99
2417.225	1.075	1074.7	repeat	Run3	repeat/STIM_006.jpg	100
2420.921	0.876	876.4	repeat	Run3	repeat/STIM_006.jpg	100
2425.437	1.082	1082.1	repeat	Run3	repeat/STIM_006.jpg	100
2429.133	0.764	763.9	repeat	Run3	repeat/STIM_006.jpg	99
2431.911	0.612	612.2	repeat	Run3	repeat/STIM_006.jpg	99
2435.546	0.582	582.2	repeat	Run3	repeat/STIM_007.jpg	99
2438.739	0.99	990.3	repeat	Run3	repeat/STIM_007.jpg	100
2441.772	0.576	576.3	repeat	Run3	repeat/STIM_007.jpg	100
2446.145	0.658	658.4	repeat	Run3	repeat/STIM_007.jpg	99
2449.761	0.686	686.0	repeat	Run3	repeat/STIM_007.jpg	100
2452.732	0.835	835.2	repeat	Run3	repeat/STIM_008.jpg	99
2455.511	0.823	823.4	repeat	Run3	repeat/STIM_008.jpg	99
2460.193	0.994	994.3	repeat	Run3	repeat/STIM_008.jpg	99
2464.977	1.066	1066.0	repeat	Run3	repeat/STIM_008.jpg	99
2469.061	0.551	550.8	repeat	Run3	repeat/STIM_008.jpg	99
2472.692	0.59	589.6	repeat	Run3	repeat/STIM_009.jpg	99
2476.84	0.977	977.3	repeat	Run3	repeat/STIM_009.jpg	99
2479.846	0.599	599.4	repeat	Run3	repeat/STIM_009.jpg	100
2484.298	0.829	828.6	repeat	Run3	repeat/STIM_009.jpg	100
2488.286	0.626	625.6	repeat	Run3	repeat/STIM_009.jpg	99
2491.606	1.026	1026.5	repeat	Run3	repeat/STIM_010.jpg	99
2495.446	0.67	669.7	repeat	Run3	repeat/STIM_010.jpg	99
2498.776	1.086	1086.4	repeat	Run3	repeat/STIM_010.jpg	100
2503.722	0.743	742.7	repeat	Run3	repeat/STIM_010.jpg	100
2507.625	0.804	804.5	repeat	Run3	repeat/STIM_010.jpg	99
2510.679	0.805	805.1	repeat	Run3	repeat/STIM_011.jpg	100
2514.042	1.026	1025.8	repeat	Run3	repeat/STIM_011.jpg	100
2517.583	1.075	1074.6	repeat	Run3	repeat/STIM_011.jpg	100
2522.209	1.012	1012.0	repeat	Run3	repeat/STIM_011.jpg	99
2526.547	0.595	595.0	repeat	Run3	repeat/STIM_011.jpg	100
2529.309	0.88	879.8	repeat	Run3	repeat/STIM_012.jpg	99
2533.862	0.829	829.2	repeat	Run3	repeat/STIM_012.jpg	100
2538.017	0.944	943.7	repeat	Run3	repeat/STIM_012.jpg	100
2541.677	0.675	675.2	repeat	Run3	repeat/STIM_012.jpg	100
2545.43	1.072	1072.1	repeat	Run3	repeat/STIM_012.jpg	100
2548.762	1.069	1069.4	repeat	Run3	repeat/STIM_013.jpg	100
2553.083	0.894	893.7	repeat	Run3	repeat/STIM_013.jpg	99
2556.989	0.795	794.9	repeat	Run3	repeat/STIM_013.jpg	100
2560.752	0.568	568.3	repeat	Run3	repeat/STIM_013.jpg	100
2564.476	0.613	613.1	repeat	Run3	repeat/STIM_013.jpg	99
2567.801	0.564	563.8	repeat	Run3	repeat/STIM_014.jpg	100
2571.638	0.92	919.9	repeat	Run3	repeat/STIM_014.jpg	99
2575.592	1.015	1014.6	repeat	Run3	repeat/STIM_014.jpg	99
2580.035	1.075	1074.7	repeat	Run3	repeat/STIM_014.jpg	99
2584.878	0.875	875.1	repeat	Run3	repeat/STIM_014.jpg	100
2589.311	1.652	1651.7	generate	Run4	generate/STIM_000.jpg	99
2594.214	1.305	1304.9	generate	Run4	generate/STIM_000.jpg	100
2597.942	2.212	2211.8	generate	Run4	generate/STIM_000.jpg	100
2602.038	1.425	1424.6	generate	Run4	generate/STIM_000.jpg	100
2605.681	1.176	1175.8	generate	Run4	generate/STIM_000.jpg	100
2609.122	1.082	1081.7	generate	Run4	generate/STIM_001.jpg	100
2613.274	1.155	1155.3	generate	Run4	generate/STIM_001.jpg	99
2616.847	1.141	1141.1	generate	Run4	generate/STIM_001.jpg	100
2620.332	1.969	1969.4	generate	Run4	generate/STIM_001.jpg	99
2625.002	1.862	1862.3	generate	Run4	generate/STIM_001.jpg	99
2629.722	1.976	1976.3	generate	Run4	generate/STIM_002.jpg	100
2635.486	1.776	1775.7	generate	Run4	generate/STIM_002.jpg	99
2640.221	1.55	1550.1	generate	Run4	generate/STIM_002.jpg	100
2645.128	1.134	1133.7	generate	Run4	generate/STIM_002.jpg	100
2648.681	1.434	1433.9	generate	Run4	generate/STIM_002.jpg	100
2653.651	2.261	2261.2	generate	Run4	generate/STIM_003.jpg	99
2659.151	1.281	1281.2	generate	Run4	generate/STIM_003.jpg	100
2664.257	1.804	1803.8	generate	Run4	generate/STIM_003.jpg	100
2668.684	1.788	1787.8	generate	Run4	generate/STIM_003.jpg	100
2673.913	2.081	2081.1	generate	Run4	generate/STIM_003.jpg	100
2678.117	0.924	923.7	generate	Run4	generate/STIM_004.jpg	99
2682.545	1.025	1025.2	generate	Run4	generate/STIM_004.jpg	100
2687.319	1.582	1582.3	generate	Run4	generate/STIM_004.jpg	100
2691.061	1.318	1318.2	generate	Run4	generate/STIM_004.jpg	100
2695.007	1.266	1266.4	generate	Run4	generate/STIM_004.jpg	99
2699.213	1.563	1563.1	generate	Run4	generate/STIM_005.jpg	100
2704.007	1.233	1232.8	generate	Run4	generate/STIM_005.jpg	100
2708.095	2.072	2072.2	generate	Run4	generate/STIM_005.jpg	99
2712.548	1.283	1283.2	generate	Run4	generate/STIM_005.jpg	99
2716.796	1.373	1372.7	generate	Run4	generate/STIM_005.jpg	100
2721.776	2.269	2269.1	generate	Run4	generate/STIM_006.jpg	100
2727.779	2.298	2297.9	generate	Run4	generate/STIM_006.jpg	99
2733.016	1.94	1939.8	generate	Run4	generate/STIM_006.jpg	99
2736.811	1.691	1691.3	generate	Run4	generate/STIM_006.jpg	100
2740.898	1.43	1429.7	generate	Run4	generate/STIM_006.jpg	99
2744.407	1.843	1842.7	generate	Run4	generate/STIM_007.jpg	99
2749.361	2.051	2050.6	generate	Run4	generate/STIM_007.jpg	99
2753.645	1.23	1229.7	generate	Run4	generate/STIM_007.jpg	99
2756.995	1.606	1605.7	generate	Run4	generate/STIM_007.jpg	99
2762.359	1.36	1360.1	generate	Run4	generate/STIM_007.jpg	100
2766.839	1.329	1328.8	generate	Run4	generate/STIM_008.jpg	99
2770.38	1.732	1732.0	generate	Run4	generate/STIM_008.jpg	100
2774.568	1.085	1085.2	generate	Run4	generate/STIM_008.jpg	99
2778.653	1.764	1763.8	generate	Run4	generate/STIM_008.jpg	100
2783.73	1.005	1004.6	generate	Run4	generate/STIM_008.jpg	100
2786.684	1.423	1423.1	generate	Run4	generate/STIM_009.jpg	100
2790.034	2.14	2140.3	generate	Run4	generate/STIM_009.jpg	100
2794.319	2.252	2251.5	generate	Run4	generate/STIM_009.jpg	100
2799.671	1.426	1426.0	generate	Run4	generate/STIM_009.jpg	100
2804.119	1.381	1380.8	generate	Run4	generate/STIM_009.jpg	99
2807.483	1.782	1781.9	generate	Run4	generate/STIM_010.jpg	100
2811.467	1.825	1825.1	generate	Run4	generate/STIM_010.jpg	100
2815.973	1.157	1156.7	generate	Run4	generate/STIM_010.jpg	100
2820.161	1.327	1327.1	generate	Run4	generate/STIM_010.jpg	100
2824.84	1.491	1490.8	generate	Run4	generate/STIM_010.jpg	100
2828.828	1.779	1779.1	generate	Run4	generate/STIM_011.jpg	99
2833.11	1.56	1559.7	generate	Run4	generate/STIM_011.jpg	99
2838.343	1.538	1538.4	generate	Run4	generate/STIM_011.jpg	100
2843.283	1.609	1609.0	generate	Run4	generate/STIM_011.jpg	99
2847.279	1.696	1695.7	generate	Run4	generate/STIM_011.jpg	99
2850.987	1.587	1586.6	generate	Run4	generate/STIM_012.jpg	99
2854.709	1.741	1741.1	generate	Run4	generate/STIM_012.jpg	100
2859.969	1.209	1208.7	generate	Run4	generate/STIM_012.jpg	100
2863.165	1.227	1227.2	generate	Run4	generate/STIM_012.jpg	100
2868.153	1.964	1964.5	generate	Run4	generate/STIM_012.jpg	99
2872.428	1.81	1810.5	generate	Run4	generate/STIM_013.jpg	100
2877.557	0.973	973.2	generate	Run4	generate/STIM_013.jpg	99
2881.741	1.72	1719.6	generate	Run4	generate/STIM_013.jpg	100
2885.624	2.304	2304.1	generate	Run4	generate/STIM_013.jpg	99
2891.345	1.406	1406.3	generate	Run4	generate/STIM_013.jpg	100
2895.151	1.432	1432.1	generate	Run4	generate/STIM_014.jpg	99
2899.934	1.705	1704.7	generate	Run4	generate/STIM_014.jpg	99
2903.875	1.666	1666.4	generate	Run4	generate/STIM_014.jpg	99
2908.885	1.184	1184.2	generate	Run4	generate/STIM_014.jpg	100
2913.183	1.368	1367.5	generate	Run4	generate/STIM_014.jpg	99
2916.557	2.148	2148.3	generate	Run4	generate/STIM_015.jpg	100
2921.566	1.776	1776.2	generate	Run4	generate/STIM_015.jpg	99
2926.69	1.055	1055.3	generate	Run4	generate/STIM_015.jpg	100
2931.205	1.904	1904.4	generate	Run4	generate/STIM_015.jpg	99
2935.264	1.958	1957.9	generate	Run4	generate/STIM_015.jpg	99
2939.622	1.456	1455.5	generate	Run4	generate/STIM_016.jpg	99
2944.945	1.354	1353.9	generate	Run4	generate/STIM_016.jpg	99
2949.283	2.03	2030.5	generate	Run4	generate/STIM_016.jpg	99
2953.55	2.268	2268.5	generate	Run4	generate/STIM_016.jpg	100
2959.129	2.148	2147.8	generate	Run4	generate/STIM_016.jpg	99
2964.427	0.937	937.4	generate	Run4	generate/STIM_017.jpg	99
2968.643	1.002	1001.5	generate	Run4	generate/STIM_017.jpg	99
2972.077	1.852	1851.8	generate	Run4	generate/STIM_017.jpg	99
2977.385	1.985	1984.6	generate	Run4	generate/STIM_017.jpg	99
2981.653	1.507	1507.1	generate	Run4	generate/STIM_017.jpg	99
2986.949	2.1	2099.7	generate	Run4	generate/STIM_018.jpg	99
2992.597	1.681	1680.9	generate	Run4	generate/STIM_018.jpg	99
2996.28	0.927	926.8	generate	Run4	generate/STIM_018.jpg	99
2999.633	1.891	1890.8	generate	Run4	generate/STIM_018.jpg	99
3005.116	2.161	2161.2	generate	Run4	generate/STIM_018.jpg	100
3009.94	1.833	1833.1	generate	Run4	generate/STIM_019.jpg	99
3013.794	1.446	1446.1	generate	Run4	generate/STIM_019.jpg	100
3018.727	1.172	1172.1	generate	Run4	generate/STIM_019.jpg	100
3023.295	1.886	1885.5	generate	Run4	generate/STIM_019.jpg	100
3027.725	1.018	1018.5	generate	Run4	generate/STIM_019.jpg	99
3032.059	1.858	1858.5	generate	Run4	generate/STIM_020.jpg	100
3035.881	1.501	1500.9	generate	Run4	generate/STIM_020.jpg	99
3039.555	1.573	1573.0	generate	Run4	generate/STIM_020.jpg	99
3043.611	1.807	1806.8	generate	Run4	generate/STIM_020.jpg	100
3047.648	1.902	1901.6	generate	Run4	generate/STIM_020.jpg	99
3052.153	1.258	1257.8	generate	Run4	generate/STIM_021.jpg	99
3055.326	1.668	1668.5	generate	Run4	generate/STIM_021.jpg	99
3059.836	1.357	1356.8	generate	Run4	generate/STIM_021.jpg	99
3063.243	1.984	1983.9	generate	Run4	generate/STIM_021.jpg	99
3068.087	1.465	1465.3	generate	Run4	generate/STIM_021.jpg	100
3071.903	1.688	1687.8	generate	Run4	generate/STIM_022.jpg	100
3076.911	0.946	945.5	generate	Run4	generate/STIM_022.jpg	100
3080.221	1.795	1794.8	generate	Run4	generate/STIM_022.jpg	99
3084.525	0.965	964.6	generate	Run4	generate/STIM_022.jpg	100
3088.675	1.735	1735.2	generate	Run4	generate/STIM_022.jpg	100
3092.506	1.737	1736.6	generate	Run4	generate/STIM_023.jpg	100
3096.14	1.848	1848.0	generate	Run4	generate/STIM_023.jpg	100
3099.893	2.287	2287.0	generate	Run4	generate/STIM_023.jpg	99
3104.78	1.554	1553.5	generate	Run4	generate/STIM_023.jpg	100
3108.205	1.332	1332.3	generate	Run4	generate/STIM_023.jpg	100
3112.645	1.359	1358.8	generate	Run4	generate/STIM_024.jpg	99
3116.346	1.104	1104.3	generate	Run4	generate/STIM_024.jpg	99
3120.853	1.76	1759.5	generate	Run4	generate/STIM_024.jpg	99
3125.274	1.595	1594.8	generate	Run4	generate/STIM_024.jpg	99
3128.958	1.918	1917.7	generate	Run4	generate/STIM_024.jpg	99
3133.238	1.001	1000.7	repeat	Run4	repeat/STIM_000.jpg	99
3137.287	0.634	634.4	repeat	Run4	repeat/STIM_000.jpg	100
3139.932	0.931	930.7	repeat	Run4	repeat/STIM_000.jpg	99
3143.109	1.066	1066.1	repeat	Run4	repeat/STIM_000.jpg	100
3146.817	0.694	694.0	repeat	Run4	repeat/STIM_000.jpg	100
3149.929	0.841	841.0	repeat	Run4	repeat/STIM_001.jpg	99
3153.733	0.96	959.9	repeat	Run4	repeat/STIM_001.jpg	100
3157.971	0.572	572.3	repeat	Run4	repeat/STIM_001.jpg	99
3161.435	0.9	899.5	repeat	Run4	repeat/STIM_001.jpg	100
3165.585	1.09	1090.5	repeat	Run4	repeat/STIM_001.jpg	99
3170.545	0.652	651.6	repeat	Run4	repeat/STIM_002.jpg	100
3173.208	1.075	1075.4	repeat	Run4	repeat/STIM_002.jpg	100
3177.04	1.009	1008.9	repeat	Run4	repeat/STIM_002.jpg	99
3180.282	0.711	711.1	repeat	Run4	repeat/STIM_002.jpg	100
3183.234	1.027	1027.0	repeat	Run4	repeat/STIM_002.jpg	100
3186.925	0.977	977.2	repeat	Run4	repeat/STIM_003.jpg	100
3190.991	0.712	712.3	repeat	Run4	repeat/STIM_003.jpg	99
3195.289	0.657	657.1	repeat	Run4	repeat/STIM_003.jpg	99
3199.618	0.683	682.8	repeat	Run4	repeat/STIM_003.jpg	99
3202.936	0.591	591.4	repeat	Run4	repeat/STIM_003.jpg	100
3206.377	1.023	1023.0	repeat	Run4	repeat/STIM_004.jpg	99
3210.893	0.671	671.4	repeat	Run4	repeat/STIM_004.jpg	99
3213.641	1.05	1049.5	repeat	Run4	repeat/STIM_004.jpg	100
3218.11	0.622	622.3	repeat	Run4	repeat/STIM_004.jpg	99
3222.396	0.921	921.2	repeat	Run4	repeat/STIM_004.jpg	99
3226.315	0.968	967.7	repeat	Run4	repeat/STIM_005.jpg	100
3230.245	0.963	962.6	repeat	Run4	repeat/STIM_005.jpg	100
3233.14	0.9	900.2	repeat	Run4	repeat/STIM_005.jpg	100
3236.685	1.036	1035.9	repeat	Run4	repeat/STIM_005.jpg	100
3240.392	0.785	785.3	repeat	Run4	repeat/STIM_005.jpg	99
3244.013	0.553	553.4	repeat	Run4	repeat/STIM_006.jpg	99
3246.866	0.7	699.6	repeat	Run4	repeat/STIM_006.jpg	100
3250.127	0.575	575.1	repeat	Run4	repeat/STIM_006.jpg	100
3254.367	0.604	604.0	repeat	Run4	repeat/STIM_006.jpg	99
3257.866	0.911	910.6	repeat	Run4	repeat/STIM_006.jpg	99
3260.741	0.954	953.6	repeat	Run4	repeat/STIM_007.jpg	100
3263.726	0.921	920.6	repeat	Run4	repeat/STIM_007.jpg	99
3267.589	0.7	700.5	repeat	Run4	repeat/STIM_007.jpg	100
3270.642	1.034	1034.0	repeat	Run4	repeat/STIM_007.jpg	100
3274.592	0.948	948.0	repeat	Run4	repeat/STIM_007.jpg	99
3279.424	0.874	873.8	repeat	Run4	repeat/STIM_008.jpg	99
3284.162	0.785	785.0	repeat	Run4	repeat/STIM_008.jpg	99
3288.456	1.08	1080.3	repeat	Run4	repeat/STIM_008.jpg	99
3292.018	0.848	847.5	repeat	Run4	repeat/STIM_008.jpg	99
3295.042	1.084	1084.1	repeat	Run4	repeat/STIM_008.jpg	99
3299.263	0.766	766.3	repeat	Run4	repeat/STIM_009.jpg	99
3303.136	0.949	948.6	repeat	Run4	repeat/STIM_009.jpg	100
3307.885	0.922	922.5	repeat	Run4	repeat/STIM_009.jpg	100
3310.842	0.858	857.9	repeat	Run4	repeat/STIM_009.jpg	100
3314.628	0.856	856.3	repeat	Run4	repeat/STIM_009.jpg	100
3318.263	0.786	786.4	repeat	Run4	repeat/STIM_010.jpg	100
3322.943	0.837	836.7	repeat	Run4	repeat/STIM_010.jpg	99
3327.612	1.094	1094.0	repeat	Run4	repeat/STIM_010.jpg	99
3331.025	0.863	862.8	repeat	Run4	repeat/STIM_010.jpg	100
3335.322	0.829	829.3	repeat	Run4	repeat/STIM_010.jpg	100
3339.884	0.616	615.6	repeat	Run4	repeat/STIM_011.jpg	99
3343.221	0.82	820.3	repeat	Run4	repeat/STIM_011.jpg	99
3346.69	1.035	1035.3	repeat	Run4	repeat/STIM_011.jpg	100
3350.376	0.956	955.7	repeat	Run4	repeat/STIM_011.jpg	99
3355.01	0.569	569.1	repeat	Run4	repeat/STIM_011.jpg	99
3358.028	0.645	645.0	repeat	Run4	repeat/STIM_012.jpg	99
3362.096	1.045	1044.8	repeat	Run4	repeat/STIM_012.jpg	100
3365.987	0.98	980.2	repeat	Run4	repeat/STIM_012.jpg	99
3369.193	1.005	1004.9	repeat	Run4	repeat/STIM_012.jpg	99
3372.619	0.746	745.9	repeat	Run4	repeat/STIM_012.jpg	99
3376.51	0.618	618.2	repeat	Run4	repeat/STIM_013.jpg	99
3379.53	0.676	675.8	repeat	Run4	repeat/STIM_013.jpg	100
3382.363	0.841	840.9	repeat	Run4	repeat/STIM_013.jpg	99
3386.531	1.098	1097.5	repeat	Run4	repeat/STIM_013.jpg	99
3390.95	0.759	759.0	repeat	Run4	repeat/STIM_013.jpg	99
3394.609	0.748	748.2	repeat	Run4	repeat/STIM_014.jpg	99
3398.136	0.81	810.5	repeat	Run4	repeat/STIM_014.jpg	99
3400.968	1.042	1041.9	repeat	Run4	repeat/STIM_014.jpg	99
3404.272	0.872	872.3	repeat	Run4	repeat/STIM_014.jpg	99
3407.838	0.646	646.3	repeat	Run4	repeat/STIM_014.jpg	100
