onset	duration	response_time_ms	trial_type	learning_stage	stimulus	response_port
0.0	3.498	3498.5	generate	Run1	generate/STIM_000.jpg	100
7.217	3.018	3018.1	generate	Run1	generate/STIM_000.jpg	99
13.53	1.581	1580.7	generate	Run1	generate/STIM_000.jpg	99
18.965	1.526	1526.3	generate	Run1	generate/STIM_000.jpg	99
23.516	1.484	1483.8	generate	Run1	generate/STIM_000.jpg	100
27.557	3.076	3076.3	generate	Run1	generate/STIM_001.jpg	99
33.824	2.348	2348.4	generate	Run1	generate/STIM_001.jpg	99
38.248	2.337	2337.1	generate	Run1	generate/STIM_001.jpg	100
43.919	1.344	1343.5	generate	Run1	generate/STIM_001.jpg	99
47.743	2.525	2525.0	generate	Run1	generate/STIM_001.jpg	99
53.927	1.695	1695.1	generate	Run1	generate/STIM_002.jpg	100
59.191	1.808	1807.9	generate	Run1	generate/STIM_002.jpg	99
64.522	1.554	1553.9	generate	Run1	generate/STIM_002.jpg	100
69.003	2.235	2235.3	generate	Run1	generate/STIM_002.jpg	99
74.792	2.224	2224.5	generate	Run1	generate/STIM_002.jpg	100
80.001	3.237	3237.2	generate	Run1	generate/STIM_003.jpg	99
86.134	1.77	1770.5	generate	Run1	generate/STIM_003.jpg	99
91.627	1.559	1559.0	generate	Run1	generate/STIM_003.jpg	100
95.886	1.799	1798.7	generate	Run1	generate/STIM_003.jpg	100
100.688	2.742	2742.0	generate	Run1	generate/STIM_003.jpg	100
107.311	2.136	2135.7	generate	Run1	generate/STIM_004.jpg	100
112.207	2.754	2753.7	generate	Run1	generate/STIM_004.jpg	100
118.006	1.439	1438.6	generate	Run1	generate/STIM_004.jpg	99
122.243	2.481	2480.7	generate	Run1	generate/STIM_004.jpg	100
128.037	2.531	2530.6	generate	Run1	generate/STIM_004.jpg	99
133.228	2.22	2219.7	generate	Run1	generate/STIM_005.jpg	99
138.94	3.074	3073.5	generate	Run1	generate/STIM_005.jpg	100
145.648	2.681	2681.4	generate	Run1	generate/STIM_005.jpg	99
151.976	2.423	2422.8	generate	Run1	generate/STIM_005.jpg	100
156.551	1.648	1648.1	generate	Run1	generate/STIM_005.jpg	99
161.032	3.53	3529.6	generate	Run1	generate/STIM_006.jpg	99
167.087	1.534	1533.8	generate	Run1	generate/STIM_006.jpg	100
171.836	1.354	1353.8	generate	Run1	generate/STIM_006.jpg	99
175.538	2.964	2963.5	generate	Run1	generate/STIM_006.jpg	99
180.636	2.432	2431.7	generate	Run1	generate/STIM_006.jpg	99
185.995	3.124	3124.2	generate	Run1	generate/STIM_007.jpg	100
192.932	1.438	1438.2	generate	Run1	generate/STIM_007.jpg	100
196.592	3.039	3039.2	generate	Run1	generate/STIM_007.jpg	99
202.696	1.471	1471.0	generate	Run1	generate/STIM_007.jpg	99
207.892	2.078	2078.5	generate	Run1	generate/STIM_007.jpg	99
212.724	1.963	1962.8	generate	Run1	generate/STIM_008.jpg	99
217.451	2.207	2206.7	generate	Run1	generate/STIM_008.jpg	99
223.294	2.816	2815.8	generate	Run1	generate/STIM_008.jpg	99
229.562	2.858	2857.9	generate	Run1	generate/STIM_008.jpg	100
235.582	1.961	1960.9	generate	Run1	generate/STIM_008.jpg	100
241.493	1.871	1870.9	generate	Run1	generate/STIM_009.jpg	100
246.849	2.946	2945.5	generate	Run1	generate/STIM_009.jpg	100
253.698	2.803	2803.1	generate	Run1	generate/STIM_009.jpg	99
259.226	1.239	1238.8	generate	Run1	generate/STIM_009.jpg	99
263.816	2.556	2555.8	generate	Run1	generate/STIM_009.jpg	99
270.169	1.681	1681.3	generate	Run1	generate/STIM_010.jpg	100
273.995	2.867	2866.8	generate	Run1	generate/STIM_010.jpg	99
280.293	2.844	2843.9	generate	Run1	generate/STIM_010.jpg	99
286.996	2.433	2433.2	generate	Run1	generate/STIM_010.jpg	99
291.609	2.114	2113.5	generate	Run1	generate/STIM_010.jpg	100
296.236	1.668	1668.0	generate	Run1	generate/STIM_011.jpg	100
300.679	2.592	2591.8	generate	Run1	generate/STIM_011.jpg	100
306.387	2.313	2313.3	generate	Run1	generate/STIM_011.jpg	99
310.765	2.024	2023.6	generate	Run1	generate/STIM_011.jpg	100
316.403	1.347	1347.3	generate	Run1	generate/STIM_011.jpg	99
321.537	2.958	2957.9	generate	Run1	generate/STIM_012.jpg	99
327.246	1.563	1563.2	generate	Run1	generate/STIM_012.jpg	99
332.713	3.125	3125.2	generate	Run1	generate/STIM_012.jpg	99
338.726	1.503	1503.3	generate	Run1	generate/STIM_012.jpg	100
342.84	2.295	2295.2	generate	Run1	generate/STIM_012.jpg	99
348.69	1.656	1655.6	generate	Run1	generate/STIM_013.jpg	99
353.453	3.392	3392.1	generate	Run1	generate/STIM_013.jpg	100
359.685	2.716	2716.4	generate	Run1	generate/STIM_013.jpg	100
365.356	2.953	2952.6	generate	Run1	generate/STIM_013.jpg	100
370.682	1.624	1624.0	generate	Run1	generate/STIM_013.jpg	99
376.148	2.329	2328.9	generate	Run1	generate/STIM_014.jpg	99
382.172	2.411	2411.3	generate	Run1	generate/STIM_014.jpg	99
387.48	1.77	1770.3	generate	Run1	generate/STIM_014.jpg	100
392.94	1.976	1975.7	generate	Run1	generate/STIM_014.jpg	99
398.635	1.376	1375.8	generate	Run1	generate/STIM_014.jpg	99
403.661	2.264	2263.7	generate	Run1	generate/STIM_015.jpg	100
408.807	2.657	2656.9	generate	Run1	generate/STIM_015.jpg	99
414.376	1.728	1727.5	generate	Run1	generate/STIM_015.jpg	100
419.875	2.372	2371.5	generate	Run1	generate/STIM_015.jpg	99
425.412	2.457	2457.4	generate	Run1	generate/STIM_015.jpg	100
429.94	1.627	1627.2	generate	Run1	generate/STIM_016.jpg	100
435.498	3.069	3069.0	generate	Run1	generate/STIM_016.jpg	99
440.788	3.046	3045.6	generate	Run1	generate/STIM_016.jpg	100
447.26	2.628	2627.5	generate	Run1	generate/STIM_016.jpg	99
452.904	1.442	1441.8	generate	Run1	generate/STIM_016.jpg	100
456.709	2.309	2308.7	generate	Run1	generate/STIM_017.jpg	99
462.555	3.104	3104.4	generate	Run1	generate/STIM_017.jpg	99
467.941	1.918	1918.1	generate	Run1	generate/STIM_017.jpg	99
472.058	1.979	1978.9	generate	Run1	generate/STIM_017.jpg	100
476.733	1.278	1278.0	generate	Run1	generate/STIM_017.jpg	99
481.72	1.617	1616.7	generate	Run1	generate/STIM_018.jpg	100
485.464	2.103	2102.9	generate	Run1	generate/STIM_018.jpg	100
491.525	2.69	2689.7	generate	Run1	generate/STIM_018.jpg	100
497.124	2.381	2381.3	generate	Run1	generate/STIM_018.jpg	99
502.09	2.301	2301.3	generate	Run1	generate/STIM_018.jpg	100
507.845	2.562	2561.5	generate	Run1	generate/STIM_019.jpg	99
514.158	2.92	2920.0	generate	Run1	generate/STIM_019.jpg	100
520.829	2.096	2096.1	generate	Run1	generate/STIM_019.jpg	99
525.358	2.74	2740.2	generate	Run1	generate/STIM_019.jpg	100
531.745	2.022	2021.6	generate	Run1	generate/STIM_019.jpg	100
535.887	2.472	2471.9	generate	Run1	generate/STIM_020.jpg	100
542.098	1.968	1968.3	generate	Run1	generate/STIM_020.jpg	99
546.84	1.566	1566.2	generate	Run1	generate/STIM_020.jpg	100
551.675	2.979	2979.0	generate	Run1	generate/STIM_020.jpg	100
557.244	2.542	2542.0	generate	Run1	generate/STIM_020.jpg	99
563.464	3.111	3111.3	generate	Run1	generate/STIM_021.jpg	100
569.305	2.359	2358.9	generate	Run1	generate/STIM_021.jpg	100
575.264	3.031	3031.1	generate	Run1	generate/STIM_021.jpg	100
580.639	1.971	1971.0	generate	Run1	generate/STIM_021.jpg	100
585.479	1.217	1216.9	generate	Run1	generate/STIM_021.jpg	100
589.187	2.635	2635.1	generate	Run1	generate/STIM_022.jpg	100
594.594	3.319	3319.3	generate	Run1	generate/STIM_022.jpg	100
601.242	2.82	2820.1	generate	Run1	generate/STIM_022.jpg	99
606.164	2.359	2359.0	generate	Run1	generate/STIM_022.jpg	99
612.024	1.581	1580.8	generate	Run1	generate/STIM_022.jpg	99
615.647	3.302	3301.8	generate	Run1	generate/STIM_023.jpg	99
621.957	2.822	2822.4	generate	Run1	generate/STIM_023.jpg	99
627.732	1.312	1312.1	generate	Run1	generate/STIM_023.jpg	100
633.022	1.225	1224.9	generate	Run1	generate/STIM_023.jpg	100
638.214	1.994	1994.3	generate	Run1	generate/STIM_023.jpg	99
642.938	2.907	2906.9	generate	Run1	generate/STIM_024.jpg	100
648.235	2.822	2822.0	generate	Run1	generate/STIM_024.jpg	99
654.822	1.473	1473.4	generate	Run1	generate/STIM_024.jpg	100
660.072	2.649	2648.8	generate	Run1	generate/STIM_024.jpg	100
665.05	2.695	2695.1	generate	Run1	generate/STIM_024.jpg	99
669.982	1.171	1170.8	repeat	Run1	repeat/STIM_000.jpg	99
675.148	0.662	662.2	repeat	Run1	repeat/STIM_000.jpg	100
679.803	0.915	914.8	repeat	Run1	repeat/STIM_000.jpg	100
684.217	0.619	618.6	repeat	Run1	repeat/STIM_000.jpg	100
688.401	0.768	768.5	repeat	Run1	repeat/STIM_000.jpg	100
692.546	0.852	851.8	repeat	Run1	repeat/STIM_001.jpg	99
695.733	1.156	1155.7	repeat	Run1	repeat/STIM_001.jpg	99
700.041	1.105	1104.9	repeat	Run1	repeat/STIM_001.jpg	100
703.413	0.941	941.0	repeat	Run1	repeat/STIM_001.jpg	100
707.908	0.667	666.8	repeat	Run1	repeat/STIM_001.jpg	100
711.474	1.065	1065.1	repeat	Run1	repeat/STIM_002.jpg	99
716.198	1.145	1144.8	repeat	Run1	repeat/STIM_002.jpg	100
719.989	1.05	1050.0	repeat	Run1	repeat/STIM_002.jpg	99
724.188	1.066	1065.8	repeat	Run1	repeat/STIM_002.jpg	100
728.348	0.626	625.8	repeat	Run1	repeat/STIM_002.jpg	100
732.914	1.176	1176.4	repeat	Run1	repeat/STIM_003.jpg	99
737.828	0.875	875.1	repeat	Run1	repeat/STIM_003.jpg	99
742.012	0.605	604.7	repeat	Run1	repeat/STIM_003.jpg	99
745.021	1.174	1173.6	repeat	Run1	repeat/STIM_003.jpg	99
749.76	0.925	924.6	repeat	Run1	repeat/STIM_003.jpg	100
753.603	0.604	604.2	repeat	Run1	repeat/STIM_004.jpg	100
757.715	0.926	926.1	repeat	Run1	repeat/STIM_004.jpg	99
760.945	0.598	597.7	repeat	Run1	repeat/STIM_004.jpg	99
763.576	0.615	614.6	repeat	Run1	repeat/STIM_004.jpg	100
768.131	1.116	1116.5	repeat	Run1	repeat/STIM_004.jpg	100
773.233	0.93	930.3	repeat	Run1	repeat/STIM_005.jpg	100
777.505	0.623	622.7	repeat	Run1	repeat/STIM_005.jpg	99
781.803	0.809	809.4	repeat	Run1	repeat/STIM_005.jpg	100
786.305	0.632	632.5	repeat	Run1	repeat/STIM_005.jpg	100
789.926	1.16	1160.5	repeat	Run1	repeat/STIM_005.jpg	100
793.905	0.883	882.8	repeat	Run1	repeat/STIM_006.jpg	100
796.835	0.966	965.6	repeat	Run1	repeat/STIM_006.jpg	100
801.038	0.793	792.6	repeat	Run1	repeat/STIM_006.jpg	99
803.853	0.844	844.2	repeat	Run1	repeat/STIM_006.jpg	100
807.026	1.179	1179.3	repeat	Run1	repeat/STIM_006.jpg	100
811.688	1.129	1128.6	repeat	Run1	repeat/STIM_007.jpg	100
816.733	0.919	918.8	repeat	Run1	repeat/STIM_007.jpg	99
820.282	1.182	1181.8	repeat	Run1	repeat/STIM_007.jpg	99
824.92	0.757	756.9	repeat	Run1	repeat/STIM_007.jpg	100
828.364	1.008	1008.2	repeat	Run1	repeat/STIM_007.jpg	100
831.868	0.806	805.8	repeat	Run1	repeat/STIM_008.jpg	99
835.559	0.917	917.2	repeat	Run1	repeat/STIM_008.jpg	99
838.929	0.899	898.6	repeat	Run1	repeat/STIM_008.jpg	99
843.812	0.85	849.6	repeat	Run1	repeat/STIM_008.jpg	100
847.677	1.079	1078.9	repeat	Run1	repeat/STIM_008.jpg	99
851.57	0.807	806.7	repeat	Run1	repeat/STIM_009.jpg	99
854.421	0.901	900.6	repeat	Run1	repeat/STIM_009.jpg	100
859.111	0.945	945.3	repeat	Run1	repeat/STIM_009.jpg	100
863.453	1.085	1085.0	repeat	Run1	repeat/STIM_009.jpg	99
867.862	0.769	769.3	repeat	Run1	repeat/STIM_009.jpg	100
870.771	1.041	1040.9	repeat	Run1	repeat/STIM_010.jpg	100
874.111	1.008	1008.4	repeat	Run1	repeat/STIM_010.jpg	99
877.498	1.19	1190.0	repeat	Run1	repeat/STIM_010.jpg	100
881.714	0.985	984.6	repeat	Run1	repeat/STIM_010.jpg	100
885.408	0.706	705.8	repeat	Run1	repeat/STIM_010.jpg	100
889.743	0.895	894.8	repeat	Run1	repeat/STIM_011.jpg	99
893.997	1.152	1152.4	repeat	Run1	repeat/STIM_011.jpg	99
899.114	0.774	774.2	repeat	Run1	repeat/STIM_011.jpg	99
903.341	0.646	646.3	repeat	Run1	repeat/STIM_011.jpg	99
907.775	0.73	730.1	repeat	Run1	repeat/STIM_011.jpg	100
912.468	0.776	776.4	repeat	Run1	repeat/STIM_012.jpg	99
915.596	1.057	1056.7	repeat	Run1	repeat/STIM_012.jpg	100
920.379	0.75	749.6	repeat	Run1	repeat/STIM_012.jpg	100
923.395	0.739	739.3	repeat	Run1	repeat/STIM_012.jpg	100
926.942	1.156	1156.4	repeat	Run1	repeat/STIM_012.jpg	99
930.369	0.935	934.7	repeat	Run1	repeat/STIM_013.jpg	99
933.624	0.982	982.5	repeat	Run1	repeat/STIM_013.jpg	99
938.265	0.977	977.1	repeat	Run1	repeat/STIM_013.jpg	99
943.168	0.929	929.1	repeat	Run1	repeat/STIM_013.jpg	99
947.338	0.805	805.3	repeat	Run1	repeat/STIM_013.jpg	99
952.114	0.795	795.0	repeat	Run1	repeat/STIM_014.jpg	99
956.357	0.796	796.3	repeat	Run1	repeat/STIM_014.jpg	100
960.263	1.018	1018.2	repeat	Run1	repeat/STIM_014.jpg	100
963.72	1.033	1033.2	repeat	Run1	repeat/STIM_014.jpg	100
968.712	0.65	649.5	repeat	Run1	repeat/STIM_014.jpg	99
971.653	2.463	2463.1	generate	Run2	generate/STIM_000.jpg	99
976.535	1.475	1474.6	generate	Run2	generate/STIM_000.jpg	100
981.38	2.351	2351.0	generate	Run2	generate/STIM_000.jpg	100
987.465	1.756	1755.8	generate	Run2	generate/STIM_000.jpg	99
992.592	1.387	1387.4	generate	Run2	generate/STIM_000.jpg	100
997.848	1.936	1935.8	generate	Run2	generate/STIM_001.jpg	99
1002.841	2.715	2715.3	generate	Run2	generate/STIM_001.jpg	99
1008.165	2.607	2606.7	generate	Run2	generate/STIM_001.jpg	100
1014.346	2.352	2351.9	generate	Run2	generate/STIM_001.jpg	100
1019.24	1.867	1866.8	generate	Run2	generate/STIM_001.jpg	99
1023.649	1.712	1712.3	generate	Run2	generate/STIM_002.jpg	99
1029.172	2.563	2563.1	generate	Run2	generate/STIM_002.jpg	99
1034.283	1.543	1542.9	generate	Run2	generate/STIM_002.jpg	99
1038.015	1.552	1551.5	generate	Run2	generate/STIM_002.jpg	100
1042.297	2.087	2087.4	generate	Run2	generate/STIM_002.jpg	99
1047.613	2.675	2674.7	generate	Run2	generate/STIM_003.jpg	100
1053.339	2.174	2173.8	generate	Run2	generate/STIM_003.jpg	99
1059.319	1.384	1384.5	generate	Run2	generate/STIM_003.jpg	100
1062.731	1.228	1227.5	generate	Run2	generate/STIM_003.jpg	100
1067.235	1.788	1787.7	generate	Run2	generate/STIM_003.jpg	99
1071.263	2.536	2536.0	generate	Run2	generate/STIM_004.jpg	100
1077.024	2.362	2361.7	generate	Run2	generate/STIM_004.jpg	99
1082.551	2.361	2360.9	generate	Run2	generate/STIM_004.jpg	99
1088.755	2.264	2263.7	generate	Run2	generate/STIM_004.jpg	100
1094.561	1.838	1838.4	generate	Run2	generate/STIM_004.jpg	99
1099.966	2.692	2692.5	generate	Run2	generate/STIM_005.jpg	100
1105.797	2.202	2201.7	generate	Run2	generate/STIM_005.jpg	100
1110.793	2.252	2252.3	generate	Run2	generate/STIM_005.jpg	99
1115.267	1.955	1955.4	generate	Run2	generate/STIM_005.jpg	99
1119.245	2.3	2299.6	generate	Run2	generate/STIM_005.jpg	99
1125.53	1.227	1226.9	generate	Run2	generate/STIM_006.jpg	100
1129.567	1.696	1696.4	generate	Run2	generate/STIM_006.jpg	100
1133.891	1.784	1784.5	generate	Run2	generate/STIM_006.jpg	100
1137.915	2.438	2437.8	generate	Run2	generate/STIM_006.jpg	100
1143.629	2.256	2255.5	generate	Run2	generate/STIM_006.jpg	99
1148.548	2.405	2405.4	generate	Run2	generate/STIM_007.jpg	99
1154.242	1.813	1812.7	generate	Run2	generate/STIM_007.jpg	99
1158.064	1.245	1244.7	generate	Run2	generate/STIM_007.jpg	100
1162.816	2.434	2434.1	generate	Run2	generate/STIM_007.jpg	100
1169.089	2.334	2334.5	generate	Run2	generate/STIM_007.jpg	99
1174.391	1.61	1610.1	generate	Run2	generate/STIM_008.jpg	99
1179.953	1.395	1394.7	generate	Run2	generate/STIM_008.jpg	99
1184.342	1.398	1398.1	generate	Run2	generate/STIM_008.jpg	100
1188.629	1.682	1681.5	generate	Run2	generate/STIM_008.jpg	99
1194.077	1.135	1135.0	generate	Run2	generate/STIM_008.jpg	99
1198.281	2.181	2180.6	generate	Run2	generate/STIM_009.jpg	99
1203.295	1.176	1175.9	generate	Run2	generate/STIM_009.jpg	99
1206.983	2.332	2332.1	generate	Run2	generate/STIM_009.jpg	99
1211.442	2.352	2352.0	generate	Run2	generate/STIM_009.jpg	100
1216.326	2.499	2498.8	generate	Run2	generate/STIM_009.jpg	100
1221.788	2.907	2907.3	generate	Run2	generate/STIM_010.jpg	100
1226.824	2.059	2059.2	generate	Run2	generate/STIM_010.jpg	100
1231.557	2.329	2329.2	generate	Run2	generate/STIM_010.jpg	100
1235.964	2.363	2362.7	generate	Run2	generate/STIM_010.jpg	99
1242.065	2.422	2421.7	generate	Run2	generate/STIM_010.jpg	99
1246.664	2.564	2564.1	generate	Run2	generate/STIM_011.jpg	100
1252.777	1.936	1935.9	generate	Run2	generate/STIM_011.jpg	99
1256.99	2.469	2469.3	generate	Run2	generate/STIM_011.jpg	99
1261.627	1.038	1038.5	generate	Run2	generate/STIM_011.jpg	99
1265.63	1.42	1419.7	generate	Run2	generate/STIM_011.jpg	100
1270.827	2.005	2004.5	generate	Run2	generate/STIM_012.jpg	100
1276.066	1.155	1155.0	generate	Run2	generate/STIM_012.jpg	100
1279.924	1.439	1439.3	generate	Run2	generate/STIM_012.jpg	99
1283.566	1.788	1787.9	generate	Run2	generate/STIM_012.jpg	100
1289.347	1.236	1236.0	generate	Run2	generate/STIM_012.jpg	99
1294.341	2.023	2023.2	generate	Run2	generate/STIM_013.jpg	100
1300.209	1.528	1527.9	generate	Run2	generate/STIM_013.jpg	100
1305.378	1.837	1836.8	generate	Run2	generate/STIM_013.jpg	99
1310.24	1.812	1812.3	generate	Run2	generate/STIM_013.jpg	100
1314.664	1.352	1352.0	generate	Run2	generate/STIM_013.jpg	100
1319.904	2.306	2305.9	generate	Run2	generate/STIM_014.jpg	99
1325.633	1.331	1331.3	generate	Run2	generate/STIM_014.jpg	99
1329.924	1.598	1597.7	generate	Run2	generate/STIM_014.jpg	99
1335.097	2.4	2400.2	generate	Run2	generate/STIM_014.jpg	99
1339.527	2.304	2304.1	generate	Run2	generate/STIM_014.jpg	99
1344.915	1.466	1465.9	generate	Run2	generate/STIM_015.jpg	100
1348.391	1.565	1565.1	generate	Run2	generate/STIM_015.jpg	100
1352.094	2.476	2476.1	generate	Run2	generate/STIM_015.jpg	100
1356.936	1.075	1075.0	generate	Run2	generate/STIM_015.jpg	99
1360.398	1.644	1644.2	generate	Run2	generate/STIM_015.jpg	99
1364.994	2.534	2534.1	generate	Run2	generate/STIM_016.jpg	99
1370.751	1.973	1973.2	generate	Run2	generate/STIM_016.jpg	100
1375.655	1.852	1852.1	generate	Run2	generate/STIM_016.jpg	99
1380.396	1.226	1226.4	generate	Run2	generate/STIM_016.jpg	99
1383.979	2.41	2410.0	generate	Run2	generate/STIM_016.jpg	99
1388.504	2.207	2206.7	generate	Run2	generate/STIM_017.jpg	99
1394.103	1.384	1384.5	generate	Run2	generate/STIM_017.jpg	100
1398.167	1.428	1428.5	generate	Run2	generate/STIM_017.jpg	99
1401.751	1.627	1627.0	generate	Run2	generate/STIM_017.jpg	100
1406.516	1.371	1370.7	generate	Run2	generate/STIM_017.jpg	100
1411.388	1.234	1233.9	generate	Run2	generate/STIM_018.jpg	100
1414.943	2.444	2444.3	generate	Run2	generate/STIM_018.jpg	100
1419.756	1.958	1958.1	generate	Run2	generate/STIM_018.jpg	99
1425.578	2.002	2002.4	generate	Run2	generate/STIM_018.jpg	100
1430.039	2.034	2033.6	generate	Run2	generate/STIM_018.jpg	100
1436.059	2.765	2765.4	generate	Run2	generate/STIM_019.jpg	99
1442.441	1.962	1962.1	generate	Run2	generate/STIM_019.jpg	100
1447.949	2.516	2516.2	generate	Run2	generate/STIM_019.jpg	99
1453.327	2.289	2289.4	generate	Run2	generate/STIM_019.jpg	100
1458.307	1.723	1723.3	generate	Run2	generate/STIM_019.jpg	99
1463.342	2.983	2983.2	generate	Run2	generate/STIM_020.jpg	99
1469.403	1.746	1745.7	generate	Run2	generate/STIM_020.jpg	100
1474.874	2.433	2432.6	generate	Run2	generate/STIM_020.jpg	99
1481.042	1.069	1068.8	generate	Run2	generate/STIM_020.jpg	100
1484.733	1.195	1194.6	generate	Run2	generate/STIM_020.jpg	100
1488.678	2.383	2383.1	generate	Run2	generate/STIM_021.jpg	100
1493.156	1.36	1359.7	generate	Run2	generate/STIM_021.jpg	99
1496.689	2.2	2199.6	generate	Run2	generate/STIM_021.jpg	99
1502.282	1.647	1646.9	generate	Run2	generate/STIM_021.jpg	100
1506.285	1.993	1993.4	generate	Run2	generate/STIM_021.jpg	100
1510.285	1.727	1727.0	generate	Run2	generate/STIM_022.jpg	100
1515.707	1.861	1861.1	generate	Run2	generate/STIM_022.jpg	99
1521.492	1.123	1122.6	generate	Run2	generate/STIM_022.jpg	100
1526.146	1.759	1758.7	generate	Run2	generate/STIM_022.jpg	100
1530.938	1.384	1383.6	generate	Run2	generate/STIM_022.jpg	100
1536.073	1.955	1954.8	generate	Run2	generate/STIM_023.jpg	100
1540.611	1.48	1480.1	generate	Run2	generate/STIM_023.jpg	100
1545.673	2.332	2332.3	generate	Run2	generate/STIM_023.jpg	100
1550.444	1.095	1094.7	generate	Run2	generate/STIM_023.jpg	100
1555.346	2.438	2437.7	generate	Run2	generate/STIM_023.jpg	99
1561.02	2.888	2887.9	generate	Run2	generate/STIM_024.jpg	99
1567.533	2.837	2836.6	generate	Run2	generate/STIM_024.jpg	100
1574.169	2.076	2076.1	generate	Run2	generate/STIM_024.jpg	99
1579.671	2.457	2457.4	generate	Run2	generate/STIM_024.jpg	99
1584.99	1.416	1416.5	generate	Run2	generate/STIM_024.jpg	99
1589.956	1.087	1086.6	repeat	Run2	repeat/STIM_000.jpg	99
1593.067	0.777	777.2	repeat	Run2	repeat/STIM_000.jpg	100
1597.733	1.11	1109.8	repeat	Run2	repeat/STIM_000.jpg	99
1602.146	0.959	958.8	repeat	Run2	repeat/STIM_000.jpg	99
1606.505	0.797	796.7	repeat	Run2	repeat/STIM_000.jpg	100
1610.65	1.192	1191.8	repeat	Run2	repeat/STIM_001.jpg	100
1614.956	1.078	1077.7	repeat	Run2	repeat/STIM_001.jpg	100
1619.407	1.054	1054.0	repeat	Run2	repeat/STIM_001.jpg	99
1622.592	0.758	757.6	repeat	Run2	repeat/STIM_001.jpg	100
1627.212	0.622	622.5	repeat	Run2	repeat/STIM_001.jpg	99
1630.524	1.132	1132.3	repeat	Run2	repeat/STIM_002.jpg	100
1634.269	0.988	987.6	repeat	Run2	repeat/STIM_002.jpg	99
1638.531	0.909	908.9	repeat	Run2	repeat/STIM_002.jpg	99
1641.552	1.07	1069.9	repeat	Run2	repeat/STIM_002.jpg	99
1645.009	0.962	961.8	repeat	Run2	repeat/STIM_002.jpg	100
1649.856	0.748	748.0	repeat	Run2	repeat/STIM_003.jpg	100
1653.805	0.696	696.0	repeat	Run2	repeat/STIM_003.jpg	100
1657.084	0.659	658.8	repeat	Run2	repeat/STIM_003.jpg	100
1661.67	0.941	941.1	repeat	Run2	repeat/STIM_003.jpg	99
1664.63	0.675	675.4	repeat	Run2	repeat/STIM_003.jpg	99
1668.979	0.658	657.9	repeat	Run2	repeat/STIM_004.jpg	99
1672.928	0.837	837.1	repeat	Run2	repeat/STIM_004.jpg	100
1675.976	0.944	943.6	repeat	Run2	repeat/STIM_004.jpg	100
1679.094	0.889	889.3	repeat	Run2	repeat/STIM_004.jpg	100
1683.25	1.103	1103.2	repeat	Run2	repeat/STIM_004.jpg	99
1686.958	0.983	982.8	repeat	Run2	repeat/STIM_005.jpg	100
1691.571	1.153	1153.2	repeat	Run2	repeat/STIM_005.jpg	99
1694.767	0.954	954.1	repeat	Run2	repeat/STIM_005.jpg	99
1699.462	0.957	956.8	repeat	Run2	repeat/STIM_005.jpg	99
1702.468	1.077	1077.4	repeat	Run2	repeat/STIM_005.jpg	100
1705.842	0.627	626.6	repeat	Run2	repeat/STIM_006.jpg	100
1708.655	0.657	657.4	repeat	Run2	repeat/STIM_006.jpg	99
1711.685	0.776	775.7	repeat	Run2	repeat/STIM_006.jpg	100
1714.893	1.018	1018.5	repeat	Run2	repeat/STIM_006.jpg	100
1718.174	1.124	1124.2	repeat	Run2	repeat/STIM_006.jpg	100
1721.731	0.966	965.6	repeat	Run2	repeat/STIM_007.jpg	99
1725.835	0.821	821.0	repeat	Run2	repeat/STIM_007.jpg	100
1728.934	0.887	887.4	repeat	Run2	repeat/STIM_007.jpg	99
1732.267	0.99	990.0	repeat	Run2	repeat/STIM_007.jpg	99
1735.73	0.597	596.7	repeat	Run2	repeat/STIM_007.jpg	99
1738.587	0.761	761.4	repeat	Run2	repeat/STIM_008.jpg	99
1742.272	0.859	859.4	repeat	Run2	repeat/STIM_008.jpg	100
1746.472	1.095	1094.9	repeat	Run2	repeat/STIM_008.jpg	100
1750.698	1.173	1172.7	repeat	Run2	repeat/STIM_008.jpg	99
1755.553	1.013	1012.8	repeat	Run2	repeat/STIM_008.jpg	99
1759.013	1.131	1130.6	repeat	Run2	repeat/STIM_009.jpg	100
1763.811	0.83	830.5	repeat	Run2	repeat/STIM_009.jpg	99
1767.284	1.018	1018.4	repeat	Run2	repeat/STIM_009.jpg	99
1770.394	0.761	760.9	repeat	Run2	repeat/STIM_009.jpg	99
1773.43	0.634	634.1	repeat	Run2	repeat/STIM_009.jpg	100
1776.303	1.113	1113.0	repeat	Run2	repeat/STIM_010.jpg	100
1780.284	0.61	609.7	repeat	Run2	repeat/STIM_010.jpg	100
1784.13	0.712	711.9	repeat	Run2	repeat/STIM_010.jpg	100
1787.554	0.908	907.5	repeat	Run2	repeat/STIM_010.jpg	99
1791.534	0.945	945.0	repeat	Run2	repeat/STIM_010.jpg	100
1795.923	0.987	987.3	repeat	Run2	repeat/STIM_011.jpg	100
1799.784	0.883	883.1	repeat	Run2	repeat/STIM_011.jpg	99
1804.099	0.631	631.0	repeat	Run2	repeat/STIM_011.jpg	100
1807.558	0.774	774.2	repeat	Run2	repeat/STIM_011.jpg	99
1811.896	0.943	942.6	repeat	Run2	repeat/STIM_011.jpg	99
1816.784	0.904	904.0	repeat	Run2	repeat/STIM_012.jpg	100
1820.223	1.066	1066.1	repeat	Run2	repeat/STIM_012.jpg	99
1823.712	0.642	642.4	repeat	Run2	repeat/STIM_012.jpg	100
1827.539	0.611	611.2	repeat	Run2	repeat/STIM_012.jpg	99
1830.254	0.762	761.6	repeat	Run2	repeat/STIM_012.jpg	99
1834.368	0.885	884.6	repeat	Run2	repeat/STIM_013.jpg	99
1837.976	0.649	649.3	repeat	Run2	repeat/STIM_013.jpg	99
1841.718	0.882	881.5	repeat	Run2	repeat/STIM_013.jpg	99
1846.04	1.071	1071.2	repeat	Run2	repeat/STIM_013.jpg	100
1850.358	1.022	1021.6	repeat	Run2	repeat/STIM_013.jpg	100
1855.295	0.807	806.8	repeat	Run2	repeat/STIM_014.jpg	99
1858.545	0.648	647.8	repeat	Run2	repeat/STIM_014.jpg	99
1862.796	1.022	1021.9	repeat	Run2	repeat/STIM_014.jpg	100
1866.519	1.173	1173.0	repeat	Run2	repeat/STIM_014.jpg	100
1870.932	0.985	984.7	repeat	Run2	repeat/STIM_014.jpg	99
1874.448	1.248	1247.6	generate	Run3	generate/STIM_000.jpg	100
1878.874	1.914	1913.5	generate	Run3	generate/STIM_000.jpg	100
1884.115	1.422	1422.5	generate	Run3	generate/STIM_000.jpg	100
1888.287	1.208	1208.5	generate	Run3	generate/STIM_000.jpg	99
1892.582	2.324	2324.4	generate	Run3	generate/STIM_000.jpg	99
1898.766	1.991	1991.2	generate	Run3	generate/STIM_001.jpg	100
1903.735	2.468	2468.4	generate	Run3	generate/STIM_001.jpg	99
1909.103	1.142	1141.7	generate	Run3	generate/STIM_001.jpg	100
1912.372	2.303	2303.4	generate	Run3	generate/STIM_001.jpg	100
1918.05	1.388	1388.2	generate	Run3	generate/STIM_001.jpg	100
1923.134	1.639	1638.6	generate	Run3	generate/STIM_002.jpg	99
1928.497	1.037	1037.2	generate	Run3	generate/STIM_002.jpg	100
1932.679	1.083	1082.8	generate	Run3	generate/STIM_002.jpg	100
1937.446	2.291	2291.3	generate	Run3	generate/STIM_002.jpg	99
1942.259	1.498	1497.5	generate	Run3	generate/STIM_002.jpg	100
1945.967	1.136	1136.4	generate	Run3	generate/STIM_003.jpg	100
1950.462	2.265	2264.6	generate	Run3	generate/STIM_003.jpg	100
1956.229	2.118	2118.3	generate	Run3	generate/STIM_003.jpg	100
1960.766	2.455	2455.3	generate	Run3	generate/STIM_003.jpg	100
1965.745	1.853	1852.8	generate	Run3	generate/STIM_003.jpg	99
1969.656	1.116	1115.6	generate	Run3	generate/STIM_004.jpg	99
1973.11	2.121	2120.7	generate	Run3	generate/STIM_004.jpg	100
1979.116	1.026	1026.2	generate	Run3	generate/STIM_004.jpg	99
1982.862	1.981	1981.1	generate	Run3	generate/STIM_004.jpg	99
1988.771	1.2	1199.8	generate	Run3	generate/STIM_004.jpg	99
1991.983	2.243	2243.0	generate	Run3	generate/STIM_005.jpg	100
1998.111	1.397	1397.1	generate	Run3	generate/STIM_005.jpg	99
2002.655	2.281	2281.0	generate	Run3	generate/STIM_005.jpg	99
2007.793	1.482	1482.5	generate	Run3	generate/STIM_005.jpg	100
2011.441	1.144	1143.5	generate	Run3	generate/STIM_005.jpg	100
2016.484	2.068	2068.4	generate	Run3	generate/STIM_006.jpg	100
2021.064	1.762	1762.4	generate	Run3	generate/STIM_006.jpg	100
2025.176	2.126	2126.3	generate	Run3	generate/STIM_006.jpg	100
2030.782	1.997	1996.8	generate	Run3	generate/STIM_006.jpg	99
2036.702	2.44	2440.2	generate	Run3	generate/STIM_006.jpg	99
2042.182	1.267	1267.1	generate	Run3	generate/STIM_007.jpg	99
2045.886	1.094	1094.0	generate	Run3	generate/STIM_007.jpg	99
2049.899	1.966	1966.3	generate	Run3	generate/STIM_007.jpg	99
2054.257	2.065	2064.7	generate	Run3	generate/STIM_007.jpg	99
2059.309	2.131	2130.8	generate	Run3	generate/STIM_007.jpg	100
2064.042	1.582	1582.1	generate	Run3	generate/STIM_008.jpg	99
2068.916	1.696	1696.1	generate	Run3	generate/STIM_008.jpg	99
2074.184	1.442	1442.2	generate	Run3	generate/STIM_008.jpg	99
2079.494	2.143	2143.3	generate	Run3	generate/STIM_008.jpg	99
2085.028	1.256	1256.5	generate	Run3	generate/STIM_008.jpg	99
2088.462	2.305	2305.4	generate	Run3	generate/STIM_009.jpg	99
2094.747	1.778	1778.0	generate	Run3	generate/STIM_009.jpg	99
2100.018	2.118	2118.0	generate	Run3	generate/STIM_009.jpg	100
2105.863	1.699	1699.2	generate	Run3	generate/STIM_009.jpg	99
2109.665	1.2	1199.7	generate	Run3	generate/STIM_009.jpg	99
2113.484	1.236	1235.5	generate	Run3	generate/STIM_010.jpg	100
2117.178	2.248	2247.7	generate	Run3	generate/STIM_010.jpg	100
2122.332	2.201	2201.2	generate	Run3	generate/STIM_010.jpg	100
2127.5	1.124	1124.4	generate	Run3	generate/STIM_010.jpg	100
2132.581	1.654	1654.0	generate	Run3	generate/STIM_010.jpg	99
2136.397	1.407	1407.1	generate	Run3	generate/STIM_011.jpg	100
2141.474	2.164	2163.7	generate	Run3	generate/STIM_011.jpg	99
2147.467	1.149	1148.7	generate	Run3	generate/STIM_011.jpg	99
2151.65	2.285	2285.0	generate	Run3	generate/STIM_011.jpg	100
2157.396	1.284	1284.4	generate	Run3	generate/STIM_011.jpg	99
2161.936	1.47	1469.5	generate	Run3	generate/STIM_012.jpg	99
2166.566	2.013	2013.4	generate	Run3	generate/STIM_012.jpg	100
2171.959	2.303	2302.8	generate	Run3	generate/STIM_012.jpg	99
2176.675	1.252	1252.0	generate	Run3	generate/STIM_012.jpg	100
2180.617	2.077	2076.8	generate	Run3	generate/STIM_012.jpg	99
2186.413	1.799	1799.1	generate	Run3	generate/STIM_013.jpg	99
2190.604	1.685	1685.3	generate	Run3	generate/STIM_013.jpg	99
2195.518	1.877	1876.6	generate	Run3	generate/STIM_013.jpg	100
2201.051	2.178	2178.3	generate	Run3	generate/STIM_013.jpg	99
2205.429	2.179	2178.9	generate	Run3	generate/STIM_013.jpg	99
2210.989	2.104	2103.9	generate	Run3	generate/STIM_014.jpg	99
2216.33	1.702	1701.9	generate	Run3	generate/STIM_014.jpg	100
2221.938	1.657	1657.4	generate	Run3	generate/STIM_014.jpg	100
2227.568	1.568	1568.2	generate	Run3	generate/STIM_014.jpg	99
2232.489	1.366	1366.2	generate	Run3	generate/STIM_014.jpg	99
2236.962	1.774	1773.5	generate	Run3	generate/STIM_015.jpg	99
2242.429	2.406	2406.1	generate	Run3	generate/STIM_015.jpg	100
2247.584	1.963	1963.3	generate	Run3	generate/STIM_015.jpg	99
2252.32	1.489	1489.0	generate	Run3	generate/STIM_015.jpg	99
2257.162	1.077	1076.6	generate	Run3	generate/STIM_015.jpg	100
2261.6	1.251	1251.3	generate	Run3	generate/STIM_016.jpg	100
2264.961	1.511	1510.8	generate	Run3	generate/STIM_016.jpg	100
2269.697	1.383	1382.8	generate	Run3	generate/STIM_016.jpg	99
2273.09	2.337	2337.4	generate	Run3	generate/STIM_016.jpg	99
2277.474	1.644	1643.7	generate	Run3	generate/STIM_016.jpg	99
2282.685	1.103	1102.9	generate	Run3	generate/STIM_017.jpg	99
2286.064	2.422	2421.8	generate	Run3	generate/STIM_017.jpg	99
2290.754	2.038	2037.5	generate	Run3	generate/STIM_017.jpg	99
2296.03	1.116	1115.9	generate	Run3	generate/STIM_017.jpg	100
2300.115	1.616	1616.1	generate	Run3	generate/STIM_017.jpg	100
2304.714	1.889	1889.1	generate	Run3	generate/STIM_018.jpg	100
2310.299	1.964	1964.4	generate	Run3	generate/STIM_018.jpg	100
2314.615	1.17	1169.7	generate	Run3	generate/STIM_018.jpg	100
2319.088	1.461	1460.6	generate	Run3	generate/STIM_018.jpg	99
2322.763	1.4	1400.2	generate	Run3	generate/STIM_018.jpg	100
2327.707	1.304	1303.9	generate	Run3	generate/STIM_019.jpg	99
2332.463	2.383	2382.6	generate	Run3	generate/STIM_019.jpg	100
2338.745	1.936	1935.8	generate	Run3	generate/STIM_019.jpg	100
2344.581	2.397	2396.6	generate	Run3	generate/STIM_019.jpg	100
2349.7	2.477	2477.0	generate	Run3	generate/STIM_019.jpg	100
2355.095	1.987	1987.0	generate	Run3	generate/STIM_020.jpg	100
2361.002	1.55	1550.0	generate	Run3	generate/STIM_020.jpg	100
2366.296	1.885	1885.0	generate	Run3	generate/STIM_020.jpg	100
2371.961	2.146	2146.4	generate	Run3	generate/STIM_020.jpg	99
2376.987	2.23	2230.3	generate	Run3	generate/STIM_020.jpg	99
2383.08	2.022	2022.0	generate	Run3	generate/STIM_021.jpg	99
2388.949	2.028	2027.8	generate	Run3	generate/STIM_021.jpg	99
2394.025	1.509	1509.2	generate	Run3	generate/STIM_021.jpg	99
2398.392	1.712	1711.7	generate	Run3	generate/STIM_021.jpg	100
2402.217	1.816	1815.6	generate	Run3	generate/STIM_021.jpg	100
2407.759	1.674	1674.1	generate	Run3	generate/STIM_022.jpg	99
2413.373	1.266	1265.8	generate	Run3	generate/STIM_022.jpg	99
2417.002	1.592	1592.1	generate	Run3	generate/STIM_022.jpg	100
2422.121	1.61	1609.8	generate	Run3	generate/STIM_022.jpg	99
2427.663	1.91	1910.2	generate	Run3	generate/STIM_022.jpg	99
2432.964	1.509	1508.8	generate	Run3	generate/STIM_023.jpg	100
2436.688	1.282	1282.2	generate	Run3	generate/STIM_023.jpg	100
2440.15	1.394	1394.1	generate	Run3	generate/STIM_023.jpg	100
2445.372	1.215	1215.4	generate	Run3	generate/STIM_023.jpg	100
2450.339	1.564	1564.4	generate	Run3	generate/STIM_023.jpg	100
2455.864	1.661	1660.8	generate	Run3	generate/STIM_024.jpg	99
2460.699	2.22	2220.4	generate	Run3	generate/STIM_024.jpg	99
2465.951	2.147	2147.3	generate	Run3	generate/STIM_024.jpg	99
2471.577	2.148	2147.7	generate	Run3	generate/STIM_024.jpg	100
2477.363	1.901	1901.1	generate	Run3	generate/STIM_024.jpg	99
2481.85	1.096	1096.1	repeat	Run3	repeat/STIM_000.jpg	99
2486.47	0.854	853.6	repeat	Run3	repeat/STIM_000.jpg	100
2490.865	0.996	996.5	repeat	Run3	repeat/STIM_000.jpg	99
2495.56	1.157	1157.0	repeat	Run3	repeat/STIM_000.jpg	99
2498.882	0.936	936.1	repeat	Run3	repeat/STIM_000.jpg	99
2503.119	0.701	701.3	repeat	Run3	repeat/STIM_001.jpg	100
2507.624	0.87	870.5	repeat	Run3	repeat/STIM_001.jpg	99
2511.579	1.002	1001.5	repeat	Run3	repeat/STIM_001.jpg	100
2515.949	0.699	698.9	repeat	Run3	repeat/STIM_001.jpg	100
2519.339	0.87	870.2	repeat	Run3	repeat/STIM_001.jpg	99
2522.602	0.818	818.0	repeat	Run3	repeat/STIM_002.jpg	100
2526.517	0.747	746.7	repeat	Run3	repeat/STIM_002.jpg	99
2529.802	0.69	690.0	repeat	Run3	repeat/STIM_002.jpg	100
2533.825	0.982	982.4	repeat	Run3	repeat/STIM_002.jpg	100
2536.932	0.896	896.0	repeat	Run3	repeat/STIM_002.jpg	99
2540.17	0.94	940.4	repeat	Run3	repeat/STIM_003.jpg	99
2543.52	1.187	1186.9	repeat	Run3	repeat/STIM_003.jpg	99
2548.451	1.004	1003.9	repeat	Run3	repeat/STIM_003.jpg	100
2551.696	0.964	963.5	repeat	Run3	repeat/STIM_003.jpg	99
2555.604	1.134	1134.4	repeat	Run3	repeat/STIM_003.jpg	99
2559.936	1.105	1105.2	repeat	Run3	repeat/STIM_004.jpg	100
2564.386	0.791	791.2	repeat	Run3	repeat/STIM_004.jpg	100
2567.273	0.838	837.6	repeat	Run3	repeat/STIM_004.jpg	100
2570.779	1.177	1177.0	repeat	Run3	repeat/STIM_004.jpg	99
2574.451	1.19	1190.0	repeat	Run3	repeat/STIM_004.jpg	100
2577.74	1.1	1099.9	repeat	Run3	repeat/STIM_005.jpg	100
2581.465	0.843	843.2	repeat	Run3	repeat/STIM_005.jpg	100
2585.034	1.008	1008.3	repeat	Run3	repeat/STIM_005.jpg	100
2589.639	1.09	1089.7	repeat	Run3	repeat/STIM_005.jpg	100
2593.679	0.839	838.6	repeat	Run3	repeat/STIM_005.jpg	99
2598.181	1.047	1046.6	repeat	Run3	repeat/STIM_006.jpg	100
2601.251	0.846	845.9	repeat	Run3	repeat/STIM_006.jpg	100
2604.558	0.686	686.5	repeat	Run3	repeat/STIM_006.jpg	100
2608.027	0.802	802.2	repeat	Run3	repeat/STIM_006.jpg	99
2612.088	0.622	621.5	repeat	Run3	repeat/STIM_006.jpg	99
2615.251	1.137	1136.6	repeat	Run3	repeat/STIM_007.jpg	99
2619.736	1.031	1031.0	repeat	Run3	repeat/STIM_007.jpg	100
2623.645	0.624	623.7	repeat	Run3	repeat/STIM_007.jpg	100
2626.816	1.188	1187.8	repeat	Run3	repeat/STIM_007.jpg	99
2631.267	1.173	1173.3	repeat	Run3	repeat/STIM_007.jpg	100
2636.407	0.93	929.6	repeat	Run3	repeat/STIM_008.jpg	99
2640.244	0.854	853.7	repeat	Run3	repeat/STIM_008.jpg	99
2644.306	0.929	929.0	repeat	Run3	repeat/STIM_008.jpg	99
2647.783	0.787	786.6	repeat	Run3	repeat/STIM_008.jpg	99
2650.903	1.088	1088.0	repeat	Run3	repeat/STIM_008.jpg	99
2654.981	1.076	1075.5	repeat	Run3	repeat/STIM_009.jpg	99
2659.324	0.754	754.2	repeat	Run3	repeat/STIM_009.jpg	99
2662.215	0.873	873.0	repeat	Run3	repeat/STIM_009.jpg	100
2666.391	0.724	724.2	repeat	Run3	repeat/STIM_009.jpg	100
2669.734	0.792	792.1	repeat	Run3	repeat/STIM_009.jpg	99
2673.951	0.854	853.5	repeat	Run3	repeat/STIM_010.jpg	99
2677.727	0.939	938.7	repeat	Run3	repeat/STIM_010.jpg	99
2681.528	1.022	1022.3	repeat	Run3	repeat/STIM_010.jpg	100
2686.343	0.944	943.9	repeat	Run3	repeat/STIM_010.jpg	100
2690.617	0.994	993.8	repeat	Run3	repeat/STIM_010.jpg	99
2694.275	0.997	996.6	repeat	Run3	repeat/STIM_011.jpg	100
2698.527	0.855	855.3	repeat	Run3	repeat/STIM_011.jpg	100
2702.593	1.088	1087.9	repeat	Run3	repeat/STIM_011.jpg	100
2706.713	1.131	1131.1	repeat	Run3	repeat/STIM_011.jpg	99
2710.774	0.974	974.5	repeat	Run3	repeat/STIM_011.jpg	100
2713.805	0.765	764.6	repeat	Run3	repeat/STIM_012.jpg	99
2717.16	0.924	923.7	repeat	Run3	repeat/STIM_012.jpg	100
2720.967	0.998	998.5	repeat	Run3	repeat/STIM_012.jpg	100
2724.894	0.601	601.0	repeat	Run3	repeat/STIM_012.jpg	100
2728.244	0.723	722.6	repeat	Run3	repeat/STIM_012.jpg	100
2732.951	0.677	676.7	repeat	Run3	repeat/STIM_013.jpg	100
2735.943	0.906	905.6	repeat	Run3	repeat/STIM_013.jpg	99
2739.566	0.913	912.9	repeat	Run3	repeat/STIM_013.jpg	100
2742.783	0.885	885.4	repeat	Run3	repeat/STIM_013.jpg	100
2747.378	1.005	1005.2	repeat	Run3	repeat/STIM_013.jpg	99
2751.132	1.022	1022.1	repeat	Run3	repeat/STIM_014.jpg	100
2754.957	0.734	733.7	repeat	Run3	repeat/STIM_014.jpg	99
2759.044	0.854	853.9	repeat	Run3	repeat/STIM_014.jpg	99
2763.065	0.724	723.5	repeat	Run3	repeat/STIM_014.jpg	99
2767.16	0.786	786.4	repeat	Run3	repeat/STIM_014.jpg	100
2771.491	2.303	2302.7	generate	Run4	generate/STIM_000.jpg	99
2776.715	2.037	2036.6	generate	Run4	generate/STIM_000.jpg	100
2782.316	2.382	2381.9	generate	Run4	generate/STIM_000.jpg	100
2786.955	1.852	1851.9	generate	Run4	generate/STIM_000.jpg	100
2791.798	2.424	2424.0	generate	Run4	generate/STIM_000.jpg	100
2797.824	1.796	1796.2	generate	Run4	generate/STIM_001.jpg	100
2803.463	1.523	1523.2	generate	Run4	generate/STIM_001.jpg	99
2807.119	1.412	1412.3	generate	Run4	generate/STIM_001.jpg	100
2811.005	2.408	2407.5	generate	Run4	generate/STIM_001.jpg	99
2815.619	1.799	1799.0	generate	Run4	generate/STIM_001.jpg	99
2820.066	1.351	1351.4	generate	Run4	generate/STIM_002.jpg	100
2824.627	1.216	1215.5	generate	Run4	generate/STIM_002.jpg	99
2828.831	2.284	2283.6	generate	Run4	generate/STIM_002.jpg	100
2834.084	1.971	1970.8	generate	Run4	generate/STIM_002.jpg	100
2838.64	1.318	1317.8	generate	Run4	generate/STIM_002.jpg	100
2842.251	2.339	2338.9	generate	Run4	generate/STIM_003.jpg	99
2847.45	1.516	1516.0	generate	Run4	generate/STIM_003.jpg	100
2852.099	1.623	1623.1	generate	Run4	generate/STIM_003.jpg	100
2856.064	2.459	2458.9	generate	Run4	generate/STIM_003.jpg	100
2861.663	1.289	1288.6	generate	Run4	generate/STIM_003.jpg	100
2865.486	1.49	1489.7	generate	Run4	generate/STIM_004.jpg	99
2869.277	1.729	1728.8	generate	Run4	generate/STIM_004.jpg	100
2873.482	1.955	1954.7	generate	Run4	generate/STIM_004.jpg	100
2878.85	2.123	2123.2	generate	Run4	generate/STIM_004.jpg	100
2884.238	1.401	1400.7	generate	Run4	generate/STIM_004.jpg	99
2889.583	2.176	2176.3	generate	Run4	generate/STIM_005.jpg	100
2895.263	1.97	1970.3	generate	Run4	generate/STIM_005.jpg	100
2899.366	1.047	1046.9	generate	Run4	generate/STIM_005.jpg	99
2904.124	2.043	2043.2	generate	Run4	generate/STIM_005.jpg	99
2909.688	2.466	2465.5	generate	Run4	generate/STIM_005.jpg	100
2914.874	1.336	1335.6	generate	Run4	generate/STIM_006.jpg	100
2919.011	1.83	1830.0	generate	Run4	generate/STIM_006.jpg	99
2924.794	2.04	2040.4	generate	Run4	generate/STIM_006.jpg	99
2928.836	2.496	2495.6	generate	Run4	generate/STIM_006.jpg	100
2933.833	2.265	2265.3	generate	Run4	generate/STIM_006.jpg	99
2940.011	2.493	2493.2	generate	Run4	generate/STIM_007.jpg	99
2944.923	2.128	2127.5	generate	Run4	generate/STIM_007.jpg	99
2949.286	1.46	1459.7	generate	Run4	generate/STIM_007.jpg	99
2954.016	1.518	1517.9	generate	Run4	generate/STIM_007.jpg	99
2957.846	1.685	1685.3	generate	Run4	generate/STIM_007.jpg	100
2962.646	2.144	2143.9	generate	Run4	generate/STIM_008.jpg	99
2967.13	2.05	2049.8	generate	Run4	generate/STIM_008.jpg	100
2971.234	1.219	1219.3	generate	Run4	generate/STIM_008.jpg	99
2976.143	2.164	2163.7	generate	Run4	generate/STIM_008.jpg	100
2980.596	1.693	1693.3	generate	Run4	generate/STIM_008.jpg	100
2984.523	2.416	2415.8	generate	Run4	generate/STIM_009.jpg	100
2989.536	2.397	2396.6	generate	Run4	generate/STIM_009.jpg	100
2995.845	1.297	1297.0	generate	Run4	generate/STIM_009.jpg	100
3000.966	2.465	2464.8	generate	Run4	generate/STIM_009.jpg	100
3006.183	1.216	1216.3	generate	Run4	generate/STIM_009.jpg	99
3010.216	1.115	1115.4	generate	Run4	generate/STIM_010.jpg	100
3014.143	2.138	2138.3	generate	Run4	generate/STIM_010.jpg	100
3019.599	1.123	1123.0	generate	Run4	generate/STIM_010.jpg	100
3023.098	1.456	1456.3	generate	Run4	generate/STIM_010.jpg	100
3026.735	1.07	1069.6	generate	Run4	generate/STIM_010.jpg	100
3030.79	2.197	2196.9	generate	Run4	generate/STIM_011.jpg	99
3035.578	1.869	1869.2	generate	Run4	generate/STIM_011.jpg	99
3041.261	2.1	2099.5	generate	Run4	generate/STIM_011.jpg	100
3046.655	1.916	1915.5	generate	Run4	generate/STIM_011.jpg	99
3051.277	2.349	2348.6	generate	Run4	generate/STIM_011.jpg	99
3056.487	2.153	2153.0	generate	Run4	generate/STIM_012.jpg	99
3061.0	1.736	1736.0	generate	Run4	generate/STIM_012.jpg	100
3064.938	1.087	1087.4	generate	Run4	generate/STIM_012.jpg	100
3068.458	2.34	2340.4	generate	Run4	generate/STIM_012.jpg	100
3073.557	1.436	1435.5	generate	Run4	generate/STIM_012.jpg	99
3077.551	1.009	1009.4	generate	Run4	generate/STIM_013.jpg	100
3082.352	1.437	1437.3	generate	Run4	generate/STIM_013.jpg	99
3086.178	1.162	1162.2	generate	Run4	generate/STIM_013.jpg	100
3090.899	1.929	1928.6	generate	Run4	generate/STIM_013.jpg	99
3096.201	2.184	2184.5	generate	Run4	generate/STIM_013.jpg	100
3102.201	1.008	1007.9	generate	Run4	generate/STIM_014.jpg	99
3105.541	2.11	2109.7	generate	Run4	generate/STIM_014.jpg	99
3110.434	2.285	2285.0	generate	Run4	generate/STIM_014.jpg	99
3115.094	1.81	1809.6	generate	Run4	generate/STIM_014.jpg	100
3120.872	2.122	2122.3	generate	Run4	generate/STIM_014.jpg	99
3125.439	1.577	1576.8	generate	Run4	generate/STIM_015.jpg	100
3130.614	1.108	1107.8	generate	Run4	generate/STIM_015.jpg	99
3134.958	2.412	2412.2	generate	Run4	generate/STIM_015.jpg	100
3141.242	1.816	1816.5	generate	Run4	generate/STIM_015.jpg	99
3146.333	1.203	1202.8	generate	Run4	generate/STIM_015.jpg	99
3149.771	2.276	2276.5	generate	Run4	generate/STIM_016.jpg	99
3154.499	2.065	2064.6	generate	Run4	generate/STIM_016.jpg	99
3158.742	2.327	2327.2	generate	Run4	generate/STIM_016.jpg	99
3163.473	2.084	2084.4	generate	Run4	generate/STIM_016.jpg	100
3169.063	1.38	1379.6	generate	Run4	generate/STIM_016.jpg	99
3173.161	1.957	1957.3	generate	Run4	generate/STIM_017.jpg	99
3178.987	2.169	2168.6	generate	Run4	generate/STIM_017.jpg	99
3184.223	1.331	1331.3	generate	Run4	generate/STIM_017.jpg	99
3188.211	2.305	2305.2	generate	Run4	generate/STIM_017.jpg	99
3193.889	1.771	1770.7	generate	Run4	generate/STIM_017.jpg	99
3198.043	1.274	1274.3	generate	Run4	generate/STIM_018.jpg	99
3201.365	2.148	2147.9	generate	Run4	generate/STIM_018.jpg	99
3205.535	1.589	1589.1	generate	Run4	generate/STIM_018.jpg	99
3211.078	1.812	1811.7	generate	Run4	generate/STIM_018.jpg	99
3216.724	1.917	1917.3	generate	Run4	generate/STIM_018.jpg	100
3220.743	2.368	2368.5	generate	Run4	generate/STIM_019.jpg	99
3226.786	2.332	2331.7	generate	Run4	generate/STIM_019.jpg	100
3231.27	1.865	1865.0	generate	Run4	generate/STIM_019.jpg	100
3235.909	1.566	1566.1	generate	Run4	generate/STIM_019.jpg	100
3240.228	1.704	1703.5	generate	Run4	generate/STIM_019.jpg	99
3245.609	1.714	1713.5	generate	Run4	generate/STIM_020.jpg	100
3249.64	1.73	1729.9	generate	Run4	generate/STIM_020.jpg	99
3254.288	2.075	2075.0	generate	Run4	generate/STIM_020.jpg	99
3260.238	1.232	1231.5	generate	Run4	generate/STIM_020.jpg	100
3263.619	2.449	2448.9	generate	Run4	generate/STIM_020.jpg	99
3269.317	2.479	2479.2	generate	Run4	generate/STIM_021.jpg	99
3274.13	1.251	1251.2	generate	Run4	generate/STIM_021.jpg	99
3277.388	2.162	2161.6	generate	Run4	generate/STIM_021.jpg	99
3282.622	1.626	1626.3	generate	Run4	generate/STIM_021.jpg	99
3286.393	1.129	1129.3	generate	Run4	generate/STIM_021.jpg	100
3291.386	1.063	1063.1	generate	Run4	generate/STIM_022.jpg	100
3296.281	2.429	2428.7	generate	Run4	generate/STIM_022.jpg	100
3301.508	1.39	1389.5	generate	Run4	generate/STIM_022.jpg	99
3305.391	1.176	1175.9	generate	Run4	generate/STIM_022.jpg	100
3309.88	2.236	2235.5	generate	Run4	generate/STIM_022.jpg	100
3314.855	1.711	1710.9	generate	Run4	generate/STIM_023.jpg	100
3320.198	1.242	1241.9	generate	Run4	generate/STIM_023.jpg	100
3323.503	1.274	1273.7	generate	Run4	generate/STIM_023.jpg	99
3327.22	2.466	2465.7	generate	Run4	generate/STIM_023.jpg	100
3332.644	1.788	1787.5	generate	Run4	generate/STIM_023.jpg	100
3337.45	2.209	2208.8	generate	Run4	generate/STIM_024.jpg	99
3342.855	1.77	1769.5	generate	Run4	generate/STIM_024.jpg	99
3347.173	1.386	1385.5	generate	Run4	generate/STIM_024.jpg	99
3351.033	1.048	1047.7	generate	Run4	generate/STIM_024.jpg	99
3356.075	1.89	1889.7	generate	Run4	generate/STIM_024.jpg	99
3360.392	1.186	1185.9	repeat	Run4	repeat/STIM_000.jpg	99
3365.182	1.116	1115.6	repeat	Run4	repeat/STIM_000.jpg	100
3369.315	0.89	889.7	repeat	Run4	repeat/STIM_000.jpg	99
3374.128	1.178	1177.6	repeat	Run4	repeat/STIM_000.jpg	100
3379.236	1.083	1082.6	repeat	Run4	repeat/STIM_000.jpg	100
3382.884	1.073	1073.1	repeat	Run4	repeat/STIM_001.jpg	99
3386.677	0.769	769.4	repeat	Run4	repeat/STIM_001.jpg	100
3390.629	0.818	817.8	repeat	Run4	repeat/STIM_001.jpg	99
3394.29	1.122	1121.6	repeat	Run4	repeat/STIM_001.jpg	100
3397.638	0.953	952.6	repeat	Run4	repeat/STIM_001.jpg	99
3400.619	0.666	666.3	repeat	Run4	repeat/STIM_002.jpg	100
3403.74	0.861	860.8	repeat	Run4	repeat/STIM_002.jpg	100
3408.136	1.133	1133.0	repeat	Run4	repeat/STIM_002.jpg	99
3411.739	0.74	740.3	repeat	Run4	repeat/STIM_002.jpg	100
3415.964	0.615	614.8	repeat	Run4	repeat/STIM_002.jpg	100
3419.842	0.713	713.2	repeat	Run4	repeat/STIM_003.jpg	100
3424.497	1.093	1093.2	repeat	Run4	repeat/STIM_003.jpg	99
3428.744	0.84	840.5	repeat	Run4	repeat/STIM_003.jpg	99
3433.15	0.639	638.8	repeat	Run4	repeat/STIM_003.jpg	99
3437.318	0.967	966.6	repeat	Run4	repeat/STIM_003.jpg	100
3441.211	0.87	869.9	repeat	Run4	repeat/STIM_004.jpg	99
3444.79	0.998	997.5	repeat	Run4	repeat/STIM_004.jpg	99
3449.136	1.117	1117.4	repeat	Run4	repeat/STIM_004.jpg	100
3453.414	1.019	1018.6	repeat	Run4	repeat/STIM_004.jpg	99
3458.331	0.976	975.7	repeat	Run4	repeat/STIM_004.jpg	99
3462.636	0.774	773.8	repeat	Run4	repeat/STIM_005.jpg	100
3465.66	0.653	653.4	repeat	Run4	repeat/STIM_005.jpg	100
3469.093	1.109	1109.2	repeat	Run4	repeat/STIM_005.jpg	100
3473.476	1.014	1014.3	repeat	Run4	repeat/STIM_005.jpg	100
3478.469	0.709	708.9	repeat	Run4	repeat/STIM_005.jpg	99
3481.626	1.073	1073.0	repeat	Run4	repeat/STIM_006.jpg	99
3485.353	1.134	1133.8	repeat	Run4	repeat/STIM_006.jpg	100
3489.062	0.825	825.2	repeat	Run4	repeat/STIM_006.jpg	100
3492.44	0.876	875.8	repeat	Run4	repeat/STIM_006.jpg	99
3497.292	0.905	904.9	repeat	Run4	repeat/STIM_006.jpg	99
3500.823	1.107	1106.6	repeat	Run4	repeat/STIM_007.jpg	100
3504.277	0.918	917.7	repeat	Run4	repeat/STIM_007.jpg	99
3508.145	1.054	1054.5	repeat	Run4	repeat/STIM_007.jpg	100
3512.969	0.762	761.6	repeat	Run4	repeat/STIM_007.jpg	100
3516.178	1.012	1012.5	repeat	Run4	repeat/STIM_007.jpg	99
3520.658	1.143	1142.8	repeat	Run4	repeat/STIM_008.jpg	99
3524.309	1.069	1069.3	repeat	Run4	repeat/STIM_008.jpg	99
3527.897	0.699	698.7	repeat	Run4	repeat/STIM_008.jpg	99
3531.345	1.143	1142.6	repeat	Run4	repeat/STIM_008.jpg	99
3535.498	0.715	715.2	repeat	Run4	repeat/STIM_008.jpg	99
3538.69	1.156	1155.7	repeat	Run4	repeat/STIM_009.jpg	99
3543.795	0.774	774.1	repeat	Run4	repeat/STIM_009.jpg	100
3548.149	0.715	715.2	repeat	Run4	repeat/STIM_009.jpg	100
3552.027	0.607	606.8	repeat	Run4	repeat/STIM_009.jpg	100
3554.746	0.801	801.1	repeat	Run4	repeat/STIM_009.jpg	100
3558.48	1.184	1184.4	repeat	Run4	repeat/STIM_010.jpg	100
3562.888	0.744	744.0	repeat	Run4	repeat/STIM_010.jpg	99
3567.5	0.614	614.4	repeat	Run4	repeat/STIM_010.jpg	99
3570.889	1.168	1168.1	repeat	Run4	repeat/STIM_010.jpg	100
3575.127	1.025	1024.6	repeat	Run4	repeat/STIM_010.jpg	100
3579.609	0.601	600.7	repeat	Run4	repeat/STIM_011.jpg	99
3583.655	0.983	983.4	repeat	Run4	repeat/STIM_011.jpg	99
3587.082	1.069	1068.9	repeat	Run4	repeat/STIM_011.jpg	100
3590.212	0.704	704.1	repeat	Run4	repeat/STIM_011.jpg	99
3593.544	0.623	622.9	repeat	Run4	repeat/STIM_011.jpg	99
3596.613	0.658	658.3	repeat	Run4	repeat/STIM_012.jpg	99
3599.591	0.996	996.3	repeat	Run4	repeat/STIM_012.jpg	100
3603.595	1.0	1000.3	repeat	Run4	repeat/STIM_012.jpg	99
3606.708	0.929	928.6	repeat	Run4	repeat/STIM_012.jpg	99
3611.454	0.846	845.6	repeat	Run4	repeat/STIM_012.jpg	99
3615.054	0.658	658.1	repeat	Run4	repeat/STIM_013.jpg	99
3618.456	1.055	1055.1	repeat	Run4	repeat/STIM_013.jpg	100
3623.098	0.808	808.2	repeat	Run4	repeat/STIM_013.jpg	99
3626.877	0.852	852.1	repeat	Run4	repeat/STIM_013.jpg	99
3630.308	0.725	724.6	repeat	Run4	repeat/STIM_013.jpg	99
3634.954	0.736	735.9	repeat	Run4	repeat/STIM_014.jpg	99
3639.426	1.02	1019.5	repeat	Run4	repeat/STIM_014.jpg	99
3644.059	0.647	646.9	repeat	Run4	repeat/STIM_014.jpg	99
3648.632	1.097	1097.2	repeat	Run4	repeat/STIM_014.jpg	99
3652.807	0.829	829.0	repeat	Run4	repeat/STIM_014.jpg	100
