onset	duration	accuracy	trial_type	learning_stage	stimulus
0.0	3.498	correct	generate	Run1	generate/STIM_000.jpg
7.217	3.018	incorrect	generate	Run1	generate/STIM_000.jpg
13.53	1.581	correct	generate	Run1	generate/STIM_000.jpg
18.965	1.526	incorrect	generate	Run1	generate/STIM_000.jpg
23.516	1.484	correct	generate	Run1	generate/STIM_000.jpg
27.557	3.076	correct	generate	Run1	generate/STIM_001.jpg
33.824	2.348	incorrect	generate	Run1	generate/STIM_001.jpg
38.248	2.337	correct	generate	Run1	generate/STIM_001.jpg
43.919	1.344	correct	generate	Run1	generate/STIM_001.jpg
47.743	2.525	correct	generate	Run1	generate/STIM_001.jpg
53.927	1.695	correct	generate	Run1	generate/STIM_002.jpg
59.191	1.808	correct	generate	Run1	generate/STIM_002.jpg
64.522	1.554	correct	generate	Run1	generate/STIM_002.jpg
69.003	2.235	correct	generate	Run1	generate/STIM_002.jpg
74.792	2.224	incorrect	generate	Run1	generate/STIM_002.jpg
80.001	3.237	correct	generate	Run1	generate/STIM_003.jpg
86.134	1.77	correct	generate	Run1	generate/STIM_003.jpg
91.627	1.559	correct	generate	Run1	generate/STIM_003.jpg
95.886	1.799	incorrect	generate	Run1	generate/STIM_003.jpg
100.688	2.742	incorrect	generate	Run1	generate/STIM_003.jpg
107.311	2.136	incorrect	generate	Run1	generate/STIM_004.jpg
112.207	2.754	correct	generate	Run1	generate/STIM_004.jpg
118.006	1.439	correct	generate	Run1	generate/STIM_004.jpg
122.243	2.481	correct	generate	Run1	generate/STIM_004.jpg
128.037	2.531	correct	generate	Run1	generate/STIM_004.jpg
133.228	2.22	correct	generate	Run1	generate/STIM_005.jpg
138.94	3.074	correct	generate	Run1	generate/STIM_005.jpg
145.648	2.681	incorrect	generate	Run1	generate/STIM_005.jpg
151.976	2.423	correct	generate	Run1	generate/STIM_005.jpg
156.551	1.648	correct	generate	Run1	generate/STIM_005.jpg
161.032	3.53	correct	generate	Run1	generate/STIM_006.jpg
167.087	1.534	correct	generate	Run1	generate/STIM_006.jpg
171.836	1.354	incorrect	generate	Run1	generate/STIM_006.jpg
175.538	2.964	correct	generate	Run1	generate/STIM_006.jpg
180.636	2.432	correct	generate	Run1	generate/STIM_006.jpg
185.995	3.124	incorrect	generate	Run1	generate/STIM_007.jpg
192.932	1.438	correct	generate	Run1	generate/STIM_007.jpg
196.592	3.039	correct	generate	Run1	generate/STIM_007.jpg
202.696	1.471	correct	generate	Run1	generate/STIM_007.jpg
207.892	2.078	incorrect	generate	Run1	generate/STIM_007.jpg
212.724	1.963	correct	generate	Run1	generate/STIM_008.jpg
217.451	2.207	correct	generate	Run1	generate/STIM_008.jpg
223.294	2.816	correct	generate	Run1	generate/STIM_008.jpg
229.562	2.858	correct	generate	Run1	generate/STIM_008.jpg
235.582	1.961	correct	generate	Run1	generate/STIM_008.jpg
241.493	1.871	correct	generate	Run1	generate/STIM_009.jpg
246.849	2.946	correct	generate	Run1	generate/STIM_009.jpg
253.698	2.803	correct	generate	Run1	generate/STIM_009.jpg
259.226	1.239	incorrect	generate	Run1	generate/STIM_009.jpg
263.816	2.556	correct	generate	Run1	generate/STIM_009.jpg
270.169	1.681	correct	generate	Run1	generate/STIM_010.jpg
273.995	2.867	correct	generate	Run1	generate/STIM_010.jpg
280.293	2.844	correct	generate	Run1	generate/STIM_010.jpg
286.996	2.433	correct	generate	Run1	generate/STIM_010.jpg
291.609	2.114	correct	generate	Run1	generate/STIM_010.jpg
296.236	1.668	incorrect	generate	Run1	generate/STIM_011.jpg
300.679	2.592	correct	generate	Run1	generate/STIM_011.jpg
306.387	2.313	correct	generate	Run1	generate/STIM_011.jpg
310.765	2.024	correct	generate	Run1	generate/STIM_011.jpg
316.403	1.347	correct	generate	Run1	generate/STIM_011.jpg
321.537	2.958	correct	generate	Run1	generate/STIM_012.jpg
327.246	1.563	correct	generate	Run1	generate/STIM_012.jpg
332.713	3.125	correct	generate	Run1	generate/STIM_012.jpg
338.726	1.503	correct	generate	Run1	generate/STIM_012.jpg
342.84	2.295	correct	generate	Run1	generate/STIM_012.jpg
348.69	1.656	correct	generate	Run1	generate/STIM_013.jpg
353.453	3.392	incorrect	generate	Run1	generate/STIM_013.jpg
359.685	2.716	correct	generate	Run1	generate/STIM_013.jpg
365.356	2.953	correct	generate	Run1	generate/STIM_013.jpg
370.682	1.624	correct	generate	Run1	generate/STIM_013.jpg
376.148	2.329	correct	generate	Run1	generate/STIM_014.jpg
382.172	2.411	correct	generate	Run1	generate/STIM_014.jpg
387.48	1.77	correct	generate	Run1	generate/STIM_014.jpg
392.94	1.976	correct	generate	Run1	generate/STIM_014.jpg
398.635	1.376	correct	generate	Run1	generate/STIM_014.jpg
403.661	2.264	incorrect	generate	Run1	generate/STIM_015.jpg
408.807	2.657	correct	generate	Run1	generate/STIM_015.jpg
414.376	1.728	incorrect	generate	Run1	generate/STIM_015.jpg
419.875	2.372	correct	generate	Run1	generate/STIM_015.jpg
425.412	2.457	correct	generate	Run1	generate/STIM_015.jpg
429.94	1.627	incorrect	generate	Run1	generate/STIM_016.jpg
435.498	3.069	incorrect	generate	Run1	generate/STIM_016.jpg
440.788	3.046	incorrect	generate	Run1	generate/STIM_016.jpg
447.26	2.628	correct	generate	Run1	generate/STIM_016.jpg
452.904	1.442	correct	generate	Run1	generate/STIM_016.jpg
456.709	2.309	incorrect	generate	Run1	generate/STIM_017.jpg
462.555	3.104	correct	generate	Run1	generate/STIM_017.jpg
467.941	1.918	correct	generate	Run1	generate/STIM_017.jpg
472.058	1.979	correct	generate	Run1	generate/STIM_017.jpg
476.733	1.278	correct	generate	Run1	generate/STIM_017.jpg
481.72	1.617	correct	generate	Run1	generate/STIM_018.jpg
485.464	2.103	correct	generate	Run1	generate/STIM_018.jpg
491.525	2.69	incorrect	generate	Run1	generate/STIM_018.jpg
497.124	2.381	incorrect	generate	Run1	generate/STIM_018.jpg
502.09	2.301	correct	generate	Run1	generate/STIM_018.jpg
507.845	2.562	correct	generate	Run1	generate/STIM_019.jpg
514.158	2.92	correct	generate	Run1	generate/STIM_019.jpg
520.829	2.096	correct	generate	Run1	generate/STIM_019.jpg
525.358	2.74	correct	generate	Run1	generate/STIM_019.jpg
531.745	2.022	correct	generate	Run1	generate/STIM_019.jpg
535.887	2.472	incorrect	generate	Run1	generate/STIM_020.jpg
542.098	1.968	correct	generate	Run1	generate/STIM_020.jpg
546.84	1.566	correct	generate	Run1	generate/STIM_020.jpg
551.675	2.979	correct	generate	Run1	generate/STIM_020.jpg
557.244	2.542	correct	generate	Run1	generate/STIM_020.jpg
563.464	3.111	correct	generate	Run1	generate/STIM_021.jpg
569.305	2.359	correct	generate	Run1	generate/STIM_021.jpg
575.264	3.031	correct	generate	Run1	generate/STIM_021.jpg
580.639	1.971	incorrect	generate	Run1	generate/STIM_021.jpg
585.479	1.217	correct	generate	Run1	generate/STIM_021.jpg
589.187	2.635	incorrect	generate	Run1	generate/STIM_022.jpg
594.594	3.319	incorrect	generate	Run1	generate/STIM_022.jpg
601.242	2.82	correct	generate	Run1	generate/STIM_022.jpg
606.164	2.359	correct	generate	Run1	generate/STIM_022.jpg
612.024	1.581	correct	generate	Run1	generate/STIM_022.jpg
615.647	3.302	correct	generate	Run1	generate/STIM_023.jpg
621.957	2.822	correct	generate	Run1	generate/STIM_023.jpg
627.732	1.312	incorrect	generate	Run1	generate/STIM_023.jpg
633.022	1.225	correct	generate	Run1	generate/STIM_023.jpg
638.214	1.994	correct	generate	Run1	generate/STIM_023.jpg
642.938	2.907	correct	generate	Run1	generate/STIM_024.jpg
648.235	2.822	correct	generate	Run1	generate/STIM_024.jpg
654.822	1.473	correct	generate	Run1	generate/STIM_024.jpg
660.072	2.649	correct	generate	Run1	generate/STIM_024.jpg
665.05	2.695	correct	generate	Run1	generate/STIM_024.jpg
669.982	1.171	correct	repeat	Run1	repeat/STIM_000.jpg
675.148	0.662	correct	repeat	Run1	repeat/STIM_000.jpg
679.803	0.915	correct	repeat	Run1	repeat/STIM_000.jpg
684.217	0.619	correct	repeat	Run1	repeat/STIM_000.jpg
688.401	0.768	correct	repeat	Run1	repeat/STIM_000.jpg
692.546	0.852	correct	repeat	Run1	repeat/STIM_001.jpg
695.733	1.156	correct	repeat	Run1	repeat/STIM_001.jpg
700.041	1.105	correct	repeat	Run1	repeat/STIM_001.jpg
703.413	0.941	correct	repeat	Run1	repeat/STIM_001.jpg
707.908	0.667	correct	repeat	Run1	repeat/STIM_001.jpg
711.474	1.065	correct	repeat	Run1	repeat/STIM_002.jpg
716.198	1.145	correct	repeat	Run1	repeat/STIM_002.jpg
719.989	1.05	correct	repeat	Run1	repeat/STIM_002.jpg
724.188	1.066	correct	repeat	Run1	repeat/STIM_002.jpg
728.348	0.626	correct	repeat	Run1	repeat/STIM_002.jpg
732.914	1.176	correct	repeat	Run1	repeat/STIM_003.jpg
737.828	0.875	correct	repeat	Run1	repeat/STIM_003.jpg
742.012	0.605	correct	repeat	Run1	repeat/STIM_003.jpg
745.021	1.174	correct	repeat	Run1	repeat/STIM_003.jpg
749.76	0.925	correct	repeat	Run1	repeat/STIM_003.jpg
753.603	0.604	correct	repeat	Run1	repeat/STIM_004.jpg
757.715	0.926	correct	repeat	Run1	repeat/STIM_004.jpg
760.945	0.598	correct	repeat	Run1	repeat/STIM_004.jpg
763.576	0.615	correct	repeat	Run1	repeat/STIM_004.jpg
768.131	1.116	correct	repeat	Run1	repeat/STIM_004.jpg
773.233	0.93	correct	repeat	Run1	repeat/STIM_005.jpg
777.505	0.623	correct	repeat	Run1	repeat/STIM_005.jpg
781.803	0.809	correct	repeat	Run1	repeat/STIM_005.jpg
786.305	0.632	correct	repeat	Run1	repeat/STIM_005.jpg
789.926	1.16	correct	repeat	Run1	repeat/STIM_005.jpg
793.905	0.883	correct	repeat	Run1	repeat/STIM_006.jpg
796.835	0.966	correct	repeat	Run1	repeat/STIM_006.jpg
801.038	0.793	incorrect	repeat	Run1	repeat/STIM_006.jpg
803.853	0.844	correct	repeat	Run1	repeat/STIM_006.jpg
807.026	1.179	correct	repeat	Run1	repeat/STIM_006.jpg
811.688	1.129	correct	repeat	Run1	repeat/STIM_007.jpg
816.733	0.919	incorrect	repeat	Run1	repeat/STIM_007.jpg
820.282	1.182	correct	repeat	Run1	repeat/STIM_007.jpg
824.92	0.757	correct	repeat	Run1	repeat/STIM_007.jpg
828.364	1.008	correct	repeat	Run1	repeat/STIM_007.jpg
831.868	0.806	correct	repeat	Run1	repeat/STIM_008.jpg
835.559	0.917	correct	repeat	Run1	repeat/STIM_008.jpg
838.929	0.899	incorrect	repeat	Run1	repeat/STIM_008.jpg
843.812	0.85	correct	repeat	Run1	repeat/STIM_008.jpg
847.677	1.079	correct	repeat	Run1	repeat/STIM_008.jpg
851.57	0.807	correct	repeat	Run1	repeat/STIM_009.jpg
854.421	0.901	correct	repeat	Run1	repeat/STIM_009.jpg
859.111	0.945	correct	repeat	Run1	repeat/STIM_009.jpg
863.453	1.085	correct	repeat	Run1	repeat/STIM_009.jpg
867.862	0.769	correct	repeat	Run1	repeat/STIM_009.jpg
870.771	1.041	correct	repeat	Run1	repeat/STIM_010.jpg
874.111	1.008	correct	repeat	Run1	repeat/STIM_010.jpg
877.498	1.19	correct	repeat	Run1	repeat/STIM_010.jpg
881.714	0.985	correct	repeat	Run1	repeat/STIM_010.jpg
885.408	0.706	correct	repeat	Run1	repeat/STIM_010.jpg
889.743	0.895	correct	repeat	Run1	repeat/STIM_011.jpg
893.997	1.152	correct	repeat	Run1	repeat/STIM_011.jpg
899.114	0.774	correct	repeat	Run1	repeat/STIM_011.jpg
903.341	0.646	correct	repeat	Run1	repeat/STIM_011.jpg
907.775	0.73	correct	repeat	Run1	repeat/STIM_011.jpg
912.468	0.776	correct	repeat	Run1	repeat/STIM_012.jpg
915.596	1.057	correct	repeat	Run1	repeat/STIM_012.jpg
920.379	0.75	correct	repeat	Run1	repeat/STIM_012.jpg
923.395	0.739	correct	repeat	Run1	repeat/STIM_012.jpg
926.942	1.156	correct	repeat	Run1	repeat/STIM_012.jpg
930.369	0.935	correct	repeat	Run1	repeat/STIM_013.jpg
933.624	0.982	correct	repeat	Run1	repeat/STIM_013.jpg
938.265	0.977	correct	repeat	Run1	repeat/STIM_013.jpg
943.168	0.929	correct	repeat	Run1	repeat/STIM_013.jpg
947.338	0.805	correct	repeat	Run1	repeat/STIM_013.jpg
952.114	0.795	correct	repeat	Run1	repeat/STIM_014.jpg
956.357	0.796	correct	repeat	Run1	repeat/STIM_014.jpg
960.263	1.018	correct	repeat	Run1	repeat/STIM_014.jpg
963.72	1.033	correct	repeat	Run1	repeat/STIM_014.jpg
968.712	0.65	correct	repeat	Run1	repeat/STIM_014.jpg
971.653	2.463	correct	generate	Run2	generate/STIM_000.jpg
976.535	1.475	correct	generate	Run2	generate/STIM_000.jpg
981.38	2.351	correct	generate	Run2	generate/STIM_000.jpg
987.465	1.756	correct	generate	Run2	generate/STIM_000.jpg
992.592	1.387	correct	generate	Run2	generate/STIM_000.jpg
997.848	1.936	correct	generate	Run2	generate/STIM_001.jpg
1002.841	2.715	correct	generate	Run2	generate/STIM_001.jpg
1008.165	2.607	correct	generate	Run2	generate/STIM_001.jpg
1014.346	2.352	incorrect	generate	Run2	generate/STIM_001.jpg
1019.24	1.867	correct	generate	Run2	generate/STIM_001.jpg
1023.649	1.712	incorrect	generate	Run2	generate/STIM_002.jpg
1029.172	2.563	incorrect	generate	Run2	generate/STIM_002.jpg
1034.283	1.543	correct	generate	Run2	generate/STIM_002.jpg
1038.015	1.552	correct	generate	Run2	generate/STIM_002.jpg
1042.297	2.087	correct	generate	Run2	generate/STIM_002.jpg
1047.613	2.675	incorrect	generate	Run2	generate/STIM_003.jpg
1053.339	2.174	correct	generate	Run2	generate/STIM_003.jpg
1059.319	1.384	correct	generate	Run2	generate/STIM_003.jpg
1062.731	1.228	correct	generate	Run2	generate/STIM_003.jpg
1067.235	1.788	correct	generate	Run2	generate/STIM_003.jpg
1071.263	2.536	correct	generate	Run2	generate/STIM_004.jpg
1077.024	2.362	correct	generate	Run2	generate/STIM_004.jpg
1082.551	2.361	correct	generate	Run2	generate/STIM_004.jpg
1088.755	2.264	incorrect	generate	Run2	generate/STIM_004.jpg
1094.561	1.838	correct	generate	Run2	generate/STIM_004.jpg
1099.966	2.692	correct	generate	Run2	generate/STIM_005.jpg
1105.797	2.202	incorrect	generate	Run2	generate/STIM_005.jpg
1110.793	2.252	correct	generate	Run2	generate/STIM_005.jpg
1115.267	1.955	correct	generate	Run2	generate/STIM_005.jpg
1119.245	2.3	correct	generate	Run2	generate/STIM_005.jpg
1125.53	1.227	correct	generate	Run2	generate/STIM_006.jpg
1129.567	1.696	correct	generate	Run2	generate/STIM_006.jpg
1133.891	1.784	correct	generate	Run2	generate/STIM_006.jpg
1137.915	2.438	correct	generate	Run2	generate/STIM_006.jpg
1143.629	2.256	correct	generate	Run2	generate/STIM_006.jpg
1148.548	2.405	correct	generate	Run2	generate/STIM_007.jpg
1154.242	1.813	correct	generate	Run2	generate/STIM_007.jpg
1158.064	1.245	incorrect	generate	Run2	generate/STIM_007.jpg
1162.816	2.434	incorrect	generate	Run2	generate/STIM_007.jpg
1169.089	2.334	correct	generate	Run2	generate/STIM_007.jpg
1174.391	1.61	incorrect	generate	Run2	generate/STIM_008.jpg
1179.953	1.395	incorrect	generate	Run2	generate/STIM_008.jpg
1184.342	1.398	correct	generate	Run2	generate/STIM_008.jpg
1188.629	1.682	incorrect	generate	Run2	generate/STIM_008.jpg
1194.077	1.135	correct	generate	Run2	generate/STIM_008.jpg
1198.281	2.181	correct	generate	Run2	generate/STIM_009.jpg
1203.295	1.176	incorrect	generate	Run2	generate/STIM_009.jpg
1206.983	2.332	correct	generate	Run2	generate/STIM_009.jpg
1211.442	2.352	correct	generate	Run2	generate/STIM_009.jpg
1216.326	2.499	correct	generate	Run2	generate/STIM_009.jpg
1221.788	2.907	incorrect	generate	Run2	generate/STIM_010.jpg
1226.824	2.059	correct	generate	Run2	generate/STIM_010.jpg
1231.557	2.329	incorrect	generate	Run2	generate/STIM_010.jpg
1235.964	2.363	correct	generate	Run2	generate/STIM_010.jpg
1242.065	2.422	correct	generate	Run2	generate/STIM_010.jpg
1246.664	2.564	correct	generate	Run2	generate/STIM_011.jpg
1252.777	1.936	correct	generate	Run2	generate/STIM_011.jpg
1256.99	2.469	incorrect	generate	Run2	generate/STIM_011.jpg
1261.627	1.038	incorrect	generate	Run2	generate/STIM_011.jpg
1265.63	1.42	correct	generate	Run2	generate/STIM_011.jpg
1270.827	2.005	correct	generate	Run2	generate/STIM_012.jpg
1276.066	1.155	correct	generate	Run2	generate/STIM_012.jpg
1279.924	1.439	correct	generate	Run2	generate/STIM_012.jpg
1283.566	1.788	correct	generate	Run2	generate/STIM_012.jpg
1289.347	1.236	correct	generate	Run2	generate/STIM_012.jpg
1294.341	2.023	correct	generate	Run2	generate/STIM_013.jpg
1300.209	1.528	correct	generate	Run2	generate/STIM_013.jpg
1305.378	1.837	correct	generate	Run2	generate/STIM_013.jpg
1310.24	1.812	incorrect	generate	Run2	generate/STIM_013.jpg
1314.664	1.352	correct	generate	Run2	generate/STIM_013.jpg
1319.904	2.306	correct	generate	Run2	generate/STIM_014.jpg
1325.633	1.331	correct	generate	Run2	generate/STIM_014.jpg
1329.924	1.598	correct	generate	Run2	generate/STIM_014.jpg
1335.097	2.4	correct	generate	Run2	generate/STIM_014.jpg
1339.527	2.304	incorrect	generate	Run2	generate/STIM_014.jpg
1344.915	1.466	correct	generate	Run2	generate/STIM_015.jpg
1348.391	1.565	correct	generate	Run2	generate/STIM_015.jpg
1352.094	2.476	correct	generate	Run2	generate/STIM_015.jpg
1356.936	1.075	correct	generate	Run2	generate/STIM_015.jpg
1360.398	1.644	correct	generate	Run2	generate/STIM_015.jpg
1364.994	2.534	correct	generate	Run2	generate/STIM_016.jpg
1370.751	1.973	correct	generate	Run2	generate/STIM_016.jpg
1375.655	1.852	correct	generate	Run2	generate/STIM_016.jpg
1380.396	1.226	correct	generate	Run2	generate/STIM_016.jpg
1383.979	2.41	correct	generate	Run2	generate/STIM_016.jpg
1388.504	2.207	correct	generate	Run2	generate/STIM_017.jpg
1394.103	1.384	incorrect	generate	Run2	generate/STIM_017.jpg
1398.167	1.428	correct	generate	Run2	generate/STIM_017.jpg
1401.751	1.627	correct	generate	Run2	generate/STIM_017.jpg
1406.516	1.371	correct	generate	Run2	generate/STIM_017.jpg
1411.388	1.234	incorrect	generate	Run2	generate/STIM_018.jpg
1414.943	2.444	correct	generate	Run2	generate/STIM_018.jpg
1419.756	1.958	correct	generate	Run2	generate/STIM_018.jpg
1425.578	2.002	incorrect	generate	Run2	generate/STIM_018.jpg
1430.039	2.034	correct	generate	Run2	generate/STIM_018.jpg
1436.059	2.765	incorrect	generate	Run2	generate/STIM_019.jpg
1442.441	1.962	incorrect	generate	Run2	generate/STIM_019.jpg
1447.949	2.516	correct	generate	Run2	generate/STIM_019.jpg
1453.327	2.289	incorrect	generate	Run2	generate/STIM_019.jpg
1458.307	1.723	correct	generate	Run2	generate/STIM_019.jpg
1463.342	2.983	correct	generate	Run2	generate/STIM_020.jpg
1469.403	1.746	correct	generate	Run2	generate/STIM_020.jpg
1474.874	2.433	correct	generate	Run2	generate/STIM_020.jpg
1481.042	1.069	correct	generate	Run2	generate/STIM_020.jpg
1484.733	1.195	correct	generate	Run2	generate/STIM_020.jpg
1488.678	2.383	correct	generate	Run2	generate/STIM_021.jpg
1493.156	1.36	correct	generate	Run2	generate/STIM_021.jpg
1496.689	2.2	correct	generate	Run2	generate/STIM_021.jpg
1502.282	1.647	correct	generate	Run2	generate/STIM_021.jpg
1506.285	1.993	incorrect	generate	Run2	generate/STIM_021.jpg
1510.285	1.727	correct	generate	Run2	generate/STIM_022.jpg
1515.707	1.861	incorrect	generate	Run2	generate/STIM_022.jpg
1521.492	1.123	correct	generate	Run2	generate/STIM_022.jpg
1526.146	1.759	correct	generate	Run2	generate/STIM_022.jpg
1530.938	1.384	incorrect	generate	Run2	generate/STIM_022.jpg
1536.073	1.955	incorrect	generate	Run2	generate/STIM_023.jpg
1540.611	1.48	correct	generate	Run2	generate/STIM_023.jpg
1545.673	2.332	correct	generate	Run2	generate/STIM_023.jpg
1550.444	1.095	correct	generate	Run2	generate/STIM_023.jpg
1555.346	2.438	incorrect	generate	Run2	generate/STIM_023.jpg
1561.02	2.888	correct	generate	Run2	generate/STIM_024.jpg
1567.533	2.837	correct	generate	Run2	generate/STIM_024.jpg
1574.169	2.076	correct	generate	Run2	generate/STIM_024.jpg
1579.671	2.457	correct	generate	Run2	generate/STIM_024.jpg
1584.99	1.416	correct	generate	Run2	generate/STIM_024.jpg
1589.956	1.087	correct	repeat	Run2	repeat/STIM_000.jpg
1593.067	0.777	correct	repeat	Run2	repeat/STIM_000.jpg
1597.733	1.11	incorrect	repeat	Run2	repeat/STIM_000.jpg
1602.146	0.959	correct	repeat	Run2	repeat/STIM_000.jpg
1606.505	0.797	correct	repeat	Run2	repeat/STIM_000.jpg
1610.65	1.192	correct	repeat	Run2	repeat/STIM_001.jpg
1614.956	1.078	correct	repeat	Run2	repeat/STIM_001.jpg
1619.407	1.054	correct	repeat	Run2	repeat/STIM_001.jpg
1622.592	0.758	incorrect	repeat	Run2	repeat/STIM_001.jpg
1627.212	0.622	correct	repeat	Run2	repeat/STIM_001.jpg
1630.524	1.132	correct	repeat	Run2	repeat/STIM_002.jpg
1634.269	0.988	correct	repeat	Run2	repeat/STIM_002.jpg
1638.531	0.909	correct	repeat	Run2	repeat/STIM_002.jpg
1641.552	1.07	correct	repeat	Run2	repeat/STIM_002.jpg
1645.009	0.962	correct	repeat	Run2	repeat/STIM_002.jpg
1649.856	0.748	correct	repeat	Run2	repeat/STIM_003.jpg
1653.805	0.696	correct	repeat	Run2	repeat/STIM_003.jpg
1657.084	0.659	correct	repeat	Run2	repeat/STIM_003.jpg
1661.67	0.941	correct	repeat	Run2	repeat/STIM_003.jpg
1664.63	0.675	correct	repeat	Run2	repeat/STIM_003.jpg
1668.979	0.658	correct	repeat	Run2	repeat/STIM_004.jpg
1672.928	0.837	correct	repeat	Run2	repeat/STIM_004.jpg
1675.976	0.944	correct	repeat	Run2	repeat/STIM_004.jpg
1679.094	0.889	correct	repeat	Run2	repeat/STIM_004.jpg
1683.25	1.103	correct	repeat	Run2	repeat/STIM_004.jpg
1686.958	0.983	correct	repeat	Run2	repeat/STIM_005.jpg
1691.571	1.153	correct	repeat	Run2	repeat/STIM_005.jpg
1694.767	0.954	correct	repeat	Run2	repeat/STIM_005.jpg
1699.462	0.957	correct	repeat	Run2	repeat/STIM_005.jpg
1702.468	1.077	correct	repeat	Run2	repeat/STIM_005.jpg
1705.842	0.627	correct	repeat	Run2	repeat/STIM_006.jpg
1708.655	0.657	correct	repeat	Run2	repeat/STIM_006.jpg
1711.685	0.776	correct	repeat	Run2	repeat/STIM_006.jpg
1714.893	1.018	correct	repeat	Run2	repeat/STIM_006.jpg
1718.174	1.124	correct	repeat	Run2	repeat/STIM_006.jpg
1721.731	0.966	correct	repeat	Run2	repeat/STIM_007.jpg
1725.835	0.821	correct	repeat	Run2	repeat/STIM_007.jpg
1728.934	0.887	correct	repeat	Run2	repeat/STIM_007.jpg
1732.267	0.99	correct	repeat	Run2	repeat/STIM_007.jpg
1735.73	0.597	correct	repeat	Run2	repeat/STIM_007.jpg
1738.587	0.761	correct	repeat	Run2	repeat/STIM_008.jpg
1742.272	0.859	correct	repeat	Run2	repeat/STIM_008.jpg
1746.472	1.095	correct	repeat	Run2	repeat/STIM_008.jpg
1750.698	1.173	correct	repeat	Run2	repeat/STIM_008.jpg
1755.553	1.013	correct	repeat	Run2	repeat/STIM_008.jpg
1759.013	1.131	correct	repeat	Run2	repeat/STIM_009.jpg
1763.811	0.83	correct	repeat	Run2	repeat/STIM_009.jpg
1767.284	1.018	correct	repeat	Run2	repeat/STIM_009.jpg
1770.394	0.761	correct	repeat	Run2	repeat/STIM_009.jpg
1773.43	0.634	correct	repeat	Run2	repeat/STIM_009.jpg
1776.303	1.113	correct	repeat	Run2	repeat/STIM_010.jpg
1780.284	0.61	correct	repeat	Run2	repeat/STIM_010.jpg
1784.13	0.712	correct	repeat	Run2	repeat/STIM_010.jpg
1787.554	0.908	correct	repeat	Run2	repeat/STIM_010.jpg
1791.534	0.945	correct	repeat	Run2	repeat/STIM_010.jpg
1795.923	0.987	correct	repeat	Run2	repeat/STIM_011.jpg
1799.784	0.883	correct	repeat	Run2	repeat/STIM_011.jpg
1804.099	0.631	correct	repeat	Run2	repeat/STIM_011.jpg
1807.558	0.774	correct	repeat	Run2	repeat/STIM_011.jpg
1811.896	0.943	correct	repeat	Run2	repeat/STIM_011.jpg
1816.784	0.904	correct	repeat	Run2	repeat/STIM_012.jpg
1820.223	1.066	correct	repeat	Run2	repeat/STIM_012.jpg
1823.712	0.642	correct	repeat	Run2	repeat/STIM_012.jpg
1827.539	0.611	correct	repeat	Run2	repeat/STIM_012.jpg
1830.254	0.762	correct	repeat	Run2	repeat/STIM_012.jpg
1834.368	0.885	correct	repeat	Run2	repeat/STIM_013.jpg
1837.976	0.649	correct	repeat	Run2	repeat/STIM_013.jpg
1841.718	0.882	correct	repeat	Run2	repeat/STIM_013.jpg
1846.04	1.071	correct	repeat	Run2	repeat/STIM_013.jpg
1850.358	1.022	correct	repeat	Run2	repeat/STIM_013.jpg
1855.295	0.807	correct	repeat	Run2	repeat/STIM_014.jpg
1858.545	0.648	correct	repeat	Run2	repeat/STIM_014.jpg
1862.796	1.022	correct	repeat	Run2	repeat/STIM_014.jpg
1866.519	1.173	correct	repeat	Run2	repeat/STIM_014.jpg
1870.932	0.985	correct	repeat	Run2	repeat/STIM_014.jpg
1874.448	1.248	correct	generate	Run3	generate/STIM_000.jpg
1878.874	1.914	correct	generate	Run3	generate/STIM_000.jpg
1884.115	1.422	correct	generate	Run3	generate/STIM_000.jpg
1888.287	1.208	correct	generate	Run3	generate/STIM_000.jpg
1892.582	2.324	correct	generate	Run3	generate/STIM_000.jpg
1898.766	1.991	correct	generate	Run3	generate/STIM_001.jpg
1903.735	2.468	correct	generate	Run3	generate/STIM_001.jpg
1909.103	1.142	correct	generate	Run3	generate/STIM_001.jpg
1912.372	2.303	correct	generate	Run3	generate/STIM_001.jpg
1918.05	1.388	correct	generate	Run3	generate/STIM_001.jpg
1923.134	1.639	correct	generate	Run3	generate/STIM_002.jpg
1928.497	1.037	correct	generate	Run3	generate/STIM_002.jpg
1932.679	1.083	correct	generate	Run3	generate/STIM_002.jpg
1937.446	2.291	correct	generate	Run3	generate/STIM_002.jpg
1942.259	1.498	correct	generate	Run3	generate/STIM_002.jpg
1945.967	1.136	correct	generate	Run3	generate/STIM_003.jpg
1950.462	2.265	correct	generate	Run3	generate/STIM_003.jpg
1956.229	2.118	correct	generate	Run3	generate/STIM_003.jpg
1960.766	2.455	correct	generate	Run3	generate/STIM_003.jpg
1965.745	1.853	correct	generate	Run3	generate/STIM_003.jpg
1969.656	1.116	correct	generate	Run3	generate/STIM_004.jpg
1973.11	2.121	correct	generate	Run3	generate/STIM_004.jpg
1979.116	1.026	correct	generate	Run3	generate/STIM_004.jpg
1982.862	1.981	correct	generate	Run3	generate/STIM_004.jpg
1988.771	1.2	correct	generate	Run3	generate/STIM_004.jpg
1991.983	2.243	correct	generate	Run3	generate/STIM_005.jpg
1998.111	1.397	correct	generate	Run3	generate/STIM_005.jpg
2002.655	2.281	incorrect	generate	Run3	generate/STIM_005.jpg
2007.793	1.482	correct	generate	Run3	generate/STIM_005.jpg
2011.441	1.144	correct	generate	Run3	generate/STIM_005.jpg
2016.484	2.068	correct	generate	Run3	generate/STIM_006.jpg
2021.064	1.762	correct	generate	Run3	generate/STIM_006.jpg
2025.176	2.126	correct	generate	Run3	generate/STIM_006.jpg
2030.782	1.997	correct	generate	Run3	generate/STIM_006.jpg
2036.702	2.44	correct	generate	Run3	generate/STIM_006.jpg
2042.182	1.267	correct	generate	Run3	generate/STIM_007.jpg
2045.886	1.094	correct	generate	Run3	generate/STIM_007.jpg
2049.899	1.966	correct	generate	Run3	generate/STIM_007.jpg
2054.257	2.065	correct	generate	Run3	generate/STIM_007.jpg
2059.309	2.131	correct	generate	Run3	generate/STIM_007.jpg
2064.042	1.582	correct	generate	Run3	generate/STIM_008.jpg
2068.916	1.696	incorrect	generate	Run3	generate/STIM_008.jpg
2074.184	1.442	correct	generate	Run3	generate/STIM_008.jpg
2079.494	2.143	correct	generate	Run3	generate/STIM_008.jpg
2085.028	1.256	correct	generate	Run3	generate/STIM_008.jpg
2088.462	2.305	correct	generate	Run3	generate/STIM_009.jpg
2094.747	1.778	correct	generate	Run3	generate/STIM_009.jpg
2100.018	2.118	correct	generate	Run3	generate/STIM_009.jpg
2105.863	1.699	correct	generate	Run3	generate/STIM_009.jpg
2109.665	1.2	correct	generate	Run3	generate/STIM_009.jpg
2113.484	1.236	incorrect	generate	Run3	generate/STIM_010.jpg
2117.178	2.248	correct	generate	Run3	generate/STIM_010.jpg
2122.332	2.201	correct	generate	Run3	generate/STIM_010.jpg
2127.5	1.124	correct	generate	Run3	generate/STIM_010.jpg
2132.581	1.654	correct	generate	Run3	generate/STIM_010.jpg
2136.397	1.407	correct	generate	Run3	generate/STIM_011.jpg
2141.474	2.164	incorrect	generate	Run3	generate/STIM_011.jpg
2147.467	1.149	correct	generate	Run3	generate/STIM_011.jpg
2151.65	2.285	correct	generate	Run3	generate/STIM_011.jpg
2157.396	1.284	correct	generate	Run3	generate/STIM_011.jpg
2161.936	1.47	correct	generate	Run3	generate/STIM_012.jpg
2166.566	2.013	correct	generate	Run3	generate/STIM_012.jpg
2171.959	2.303	correct	generate	Run3	generate/STIM_012.jpg
2176.675	1.252	correct	generate	Run3	generate/STIM_012.jpg
2180.617	2.077	correct	generate	Run3	generate/STIM_012.jpg
2186.413	1.799	correct	generate	Run3	generate/STIM_013.jpg
2190.604	1.685	correct	generate	Run3	generate/STIM_013.jpg
2195.518	1.877	correct	generate	Run3	generate/STIM_013.jpg
2201.051	2.178	correct	generate	Run3	generate/STIM_013.jpg
2205.429	2.179	correct	generate	Run3	generate/STIM_013.jpg
2210.989	2.104	correct	generate	Run3	generate/STIM_014.jpg
2216.33	1.702	correct	generate	Run3	generate/STIM_014.jpg
2221.938	1.657	correct	generate	Run3	generate/STIM_014.jpg
2227.568	1.568	correct	generate	Run3	generate/STIM_014.jpg
2232.489	1.366	correct	generate	Run3	generate/STIM_014.jpg
2236.962	1.774	correct	generate	Run3	generate/STIM_015.jpg
2242.429	2.406	incorrect	generate	Run3	generate/STIM_015.jpg
2247.584	1.963	correct	generate	Run3	generate/STIM_015.jpg
2252.32	1.489	correct	generate	Run3	generate/STIM_015.jpg
2257.162	1.077	correct	generate	Run3	generate/STIM_015.jpg
2261.6	1.251	correct	generate	Run3	generate/STIM_016.jpg
2264.961	1.511	incorrect	generate	Run3	generate/STIM_016.jpg
2269.697	1.383	correct	generate	Run3	generate/STIM_016.jpg
2273.09	2.337	correct	generate	Run3	generate/STIM_016.jpg
2277.474	1.644	correct	generate	Run3	generate/STIM_016.jpg
2282.685	1.103	correct	generate	Run3	generate/STIM_017.jpg
2286.064	2.422	correct	generate	Run3	generate/STIM_017.jpg
2290.754	2.038	correct	generate	Run3	generate/STIM_017.jpg
2296.03	1.116	correct	generate	Run3	generate/STIM_017.jpg
2300.115	1.616	correct	generate	Run3	generate/STIM_017.jpg
2304.714	1.889	correct	generate	Run3	generate/STIM_018.jpg
2310.299	1.964	correct	generate	Run3	generate/STIM_018.jpg
2314.615	1.17	correct	generate	Run3	generate/STIM_018.jpg
2319.088	1.461	correct	generate	Run3	generate/STIM_018.jpg
2322.763	1.4	correct	generate	Run3	generate/STIM_018.jpg
2327.707	1.304	correct	generate	Run3	generate/STIM_019.jpg
2332.463	2.383	incorrect	generate	Run3	generate/STIM_019.jpg
2338.745	1.936	correct	generate	Run3	generate/STIM_019.jpg
2344.581	2.397	correct	generate	Run3	generate/STIM_019.jpg
2349.7	2.477	correct	generate	Run3	generate/STIM_019.jpg
2355.095	1.987	correct	generate	Run3	generate/STIM_020.jpg
2361.002	1.55	correct	generate	Run3	generate/STIM_020.jpg
2366.296	1.885	incorrect	generate	Run3	generate/STIM_020.jpg
2371.961	2.146	correct	generate	Run3	generate/STIM_020.jpg
2376.987	2.23	correct	generate	Run3	generate/STIM_020.jpg
2383.08	2.022	correct	generate	Run3	generate/STIM_021.jpg
2388.949	2.028	correct	generate	Run3	generate/STIM_021.jpg
2394.025	1.509	correct	generate	Run3	generate/STIM_021.jpg
2398.392	1.712	correct	generate	Run3	generate/STIM_021.jpg
2402.217	1.816	correct	generate	Run3	generate/STIM_021.jpg
2407.759	1.674	correct	generate	Run3	generate/STIM_022.jpg
2413.373	1.266	correct	generate	Run3	generate/STIM_022.jpg
2417.002	1.592	correct	generate	Run3	generate/STIM_022.jpg
2422.121	1.61	correct	generate	Run3	generate/STIM_022.jpg
2427.663	1.91	correct	generate	Run3	generate/STIM_022.jpg
2432.964	1.509	correct	generate	Run3	generate/STIM_023.jpg
2436.688	1.282	correct	generate	Run3	generate/STIM_023.jpg
2440.15	1.394	correct	generate	Run3	generate/STIM_023.jpg
2445.372	1.215	correct	generate	Run3	generate/STIM_023.jpg
2450.339	1.564	correct	generate	Run3	generate/STIM_023.jpg
2455.864	1.661	correct	generate	Run3	generate/STIM_024.jpg
2460.699	2.22	correct	generate	Run3	generate/STIM_024.jpg
2465.951	2.147	correct	generate	Run3	generate/STIM_024.jpg
2471.577	2.148	correct	generate	Run3	generate/STIM_024.jpg
2477.363	1.901	correct	generate	Run3	generate/STIM_024.jpg
2481.85	1.096	correct	repeat	Run3	repeat/STIM_000.jpg
2486.47	0.854	correct	repeat	Run3	repeat/STIM_000.jpg
2490.865	0.996	correct	repeat	Run3	repeat/STIM_000.jpg
2495.56	1.157	correct	repeat	Run3	repeat/STIM_000.jpg
2498.882	0.936	correct	repeat	Run3	repeat/STIM_000.jpg
2503.119	0.701	correct	repeat	Run3	repeat/STIM_001.jpg
2507.624	0.87	correct	repeat	Run3	repeat/STIM_001.jpg
2511.579	1.002	correct	repeat	Run3	repeat/STIM_001.jpg
2515.949	0.699	correct	repeat	Run3	repeat/STIM_001.jpg
2519.339	0.87	correct	repeat	Run3	repeat/STIM_001.jpg
2522.602	0.818	correct	repeat	Run3	repeat/STIM_002.jpg
2526.517	0.747	correct	repeat	Run3	repeat/STIM_002.jpg
2529.802	0.69	correct	repeat	Run3	repeat/STIM_002.jpg
2533.825	0.982	correct	repeat	Run3	repeat/STIM_002.jpg
2536.932	0.896	correct	repeat	Run3	repeat/STIM_002.jpg
2540.17	0.94	correct	repeat	Run3	repeat/STIM_003.jpg
2543.52	1.187	correct	repeat	Run3	repeat/STIM_003.jpg
2548.451	1.004	correct	repeat	Run3	repeat/STIM_003.jpg
2551.696	0.964	correct	repeat	Run3	repeat/STIM_003.jpg
2555.604	1.134	correct	repeat	Run3	repeat/STIM_003.jpg
2559.936	1.105	correct	repeat	Run3	repeat/STIM_004.jpg
2564.386	0.791	correct	repeat	Run3	repeat/STIM_004.jpg
2567.273	0.838	correct	repeat	Run3	repeat/STIM_004.jpg
2570.779	1.177	correct	repeat	Run3	repeat/STIM_004.jpg
2574.451	1.19	correct	repeat	Run3	repeat/STIM_004.jpg
2577.74	1.1	correct	repeat	Run3	repeat/STIM_005.jpg
2581.465	0.843	correct	repeat	Run3	repeat/STIM_005.jpg
2585.034	1.008	correct	repeat	Run3	repeat/STIM_005.jpg
2589.639	1.09	correct	repeat	Run3	repeat/STIM_005.jpg
2593.679	0.839	correct	repeat	Run3	repeat/STIM_005.jpg
2598.181	1.047	correct	repeat	Run3	repeat/STIM_006.jpg
2601.251	0.846	correct	repeat	Run3	repeat/STIM_006.jpg
2604.558	0.686	correct	repeat	Run3	repeat/STIM_006.jpg
2608.027	0.802	correct	repeat	Run3	repeat/STIM_006.jpg
2612.088	0.622	correct	repeat	Run3	repeat/STIM_006.jpg
2615.251	1.137	correct	repeat	Run3	repeat/STIM_007.jpg
2619.736	1.031	correct	repeat	Run3	repeat/STIM_007.jpg
2623.645	0.624	correct	repeat	Run3	repeat/STIM_007.jpg
2626.816	1.188	correct	repeat	Run3	repeat/STIM_007.jpg
2631.267	1.173	correct	repeat	Run3	repeat/STIM_007.jpg
2636.407	0.93	correct	repeat	Run3	repeat/STIM_008.jpg
2640.244	0.854	correct	repeat	Run3	repeat/STIM_008.jpg
2644.306	0.929	correct	repeat	Run3	repeat/STIM_008.jpg
2647.783	0.787	correct	repeat	Run3	repeat/STIM_008.jpg
2650.903	1.088	correct	repeat	Run3	repeat/STIM_008.jpg
2654.981	1.076	correct	repeat	Run3	repeat/STIM_009.jpg
2659.324	0.754	correct	repeat	Run3	repeat/STIM_009.jpg
2662.215	0.873	correct	repeat	Run3	repeat/STIM_009.jpg
2666.391	0.724	correct	repeat	Run3	repeat/STIM_009.jpg
2669.734	0.792	correct	repeat	Run3	repeat/STIM_009.jpg
2673.951	0.854	correct	repeat	Run3	repeat/STIM_010.jpg
2677.727	0.939	correct	repeat	Run3	repeat/STIM_010.jpg
2681.528	1.022	correct	repeat	Run3	repeat/STIM_010.jpg
2686.343	0.944	correct	repeat	Run3	repeat/STIM_010.jpg
2690.617	0.994	correct	repeat	Run3	repeat/STIM_010.jpg
2694.275	0.997	correct	repeat	Run3	repeat/STIM_011.jpg
2698.527	0.855	correct	repeat	Run3	repeat/STIM_011.jpg
2702.593	1.088	correct	repeat	Run3	repeat/STIM_011.jpg
2706.713	1.131	correct	repeat	Run3	repeat/STIM_011.jpg
2710.774	0.974	correct	repeat	Run3	repeat/STIM_011.jpg
2713.805	0.765	correct	repeat	Run3	repeat/STIM_012.jpg
2717.16	0.924	correct	repeat	Run3	repeat/STIM_012.jpg
2720.967	0.998	correct	repeat	Run3	repeat/STIM_012.jpg
2724.894	0.601	correct	repeat	Run3	repeat/STIM_012.jpg
2728.244	0.723	correct	repeat	Run3	repeat/STIM_012.jpg
2732.951	0.677	correct	repeat	Run3	repeat/STIM_013.jpg
2735.943	0.906	correct	repeat	Run3	repeat/STIM_013.jpg
2739.566	0.913	correct	repeat	Run3	repeat/STIM_013.jpg
2742.783	0.885	correct	repeat	Run3	repeat/STIM_013.jpg
2747.378	1.005	correct	repeat	Run3	repeat/STIM_013.jpg
2751.132	1.022	correct	repeat	Run3	repeat/STIM_014.jpg
2754.957	0.734	correct	repeat	Run3	repeat/STIM_014.jpg
2759.044	0.854	correct	repeat	Run3	repeat/STIM_014.jpg
2763.065	0.724	correct	repeat	Run3	repeat/STIM_014.jpg
2767.16	0.786	correct	repeat	Run3	repeat/STIM_014.jpg
2771.491	2.303	correct	generate	Run4	generate/STIM_000.jpg
2776.715	2.037	correct	generate	Run4	generate/STIM_000.jpg
2782.316	2.382	correct	generate	Run4	generate/STIM_000.jpg
2786.955	1.852	correct	generate	Run4	generate/STIM_000.jpg
2791.798	2.424	correct	generate	Run4	generate/STIM_000.jpg
2797.824	1.796	correct	generate	Run4	generate/STIM_001.jpg
2803.463	1.523	correct	generate	Run4	generate/STIM_001.jpg
2807.119	1.412	correct	generate	Run4	generate/STIM_001.jpg
2811.005	2.408	correct	generate	Run4	generate/STIM_001.jpg
2815.619	1.799	correct	generate	Run4	generate/STIM_001.jpg
2820.066	1.351	correct	generate	Run4	generate/STIM_002.jpg
2824.627	1.216	correct	generate	Run4	generate/STIM_002.jpg
2828.831	2.284	correct	generate	Run4	generate/STIM_002.jpg
2834.084	1.971	correct	generate	Run4	generate/STIM_002.jpg
2838.64	1.318	correct	generate	Run4	generate/STIM_002.jpg
2842.251	2.339	correct	generate	Run4	generate/STIM_003.jpg
2847.45	1.516	correct	generate	Run4	generate/STIM_003.jpg
2852.099	1.623	correct	generate	Run4	generate/STIM_003.jpg
2856.064	2.459	correct	generate	Run4	generate/STIM_003.jpg
2861.663	1.289	correct	generate	Run4	generate/STIM_003.jpg
2865.486	1.49	correct	generate	Run4	generate/STIM_004.jpg
2869.277	1.729	correct	generate	Run4	generate/STIM_004.jpg
2873.482	1.955	correct	generate	Run4	generate/STIM_004.jpg
2878.85	2.123	correct	generate	Run4	generate/STIM_004.jpg
2884.238	1.401	correct	generate	Run4	generate/STIM_004.jpg
2889.583	2.176	correct	generate	Run4	generate/STIM_005.jpg
2895.263	1.97	correct	generate	Run4	generate/STIM_005.jpg
2899.366	1.047	correct	generate	Run4	generate/STIM_005.jpg
2904.124	2.043	correct	generate	Run4	generate/STIM_005.jpg
2909.688	2.466	correct	generate	Run4	generate/STIM_005.jpg
2914.874	1.336	correct	generate	Run4	generate/STIM_006.jpg
2919.011	1.83	correct	generate	Run4	generate/STIM_006.jpg
2924.794	2.04	correct	generate	Run4	generate/STIM_006.jpg
2928.836	2.496	correct	generate	Run4	generate/STIM_006.jpg
2933.833	2.265	correct	generate	Run4	generate/STIM_006.jpg
2940.011	2.493	correct	generate	Run4	generate/STIM_007.jpg
2944.923	2.128	correct	generate	Run4	generate/STIM_007.jpg
2949.286	1.46	correct	generate	Run4	generate/STIM_007.jpg
2954.016	1.518	correct	generate	Run4	generate/STIM_007.jpg
2957.846	1.685	correct	generate	Run4	generate/STIM_007.jpg
2962.646	2.144	correct	generate	Run4	generate/STIM_008.jpg
2967.13	2.05	correct	generate	Run4	generate/STIM_008.jpg
2971.234	1.219	correct	generate	Run4	generate/STIM_008.jpg
2976.143	2.164	correct	generate	Run4	generate/STIM_008.jpg
2980.596	1.693	correct	generate	Run4	generate/STIM_008.jpg
2984.523	2.416	correct	generate	Run4	generate/STIM_009.jpg
2989.536	2.397	correct	generate	Run4	generate/STIM_009.jpg
2995.845	1.297	correct	generate	Run4	generate/STIM_009.jpg
3000.966	2.465	correct	generate	Run4	generate/STIM_009.jpg
3006.183	1.216	correct	generate	Run4	generate/STIM_009.jpg
3010.216	1.115	correct	generate	Run4	generate/STIM_010.jpg
3014.143	2.138	correct	generate	Run4	generate/STIM_010.jpg
3019.599	1.123	correct	generate	Run4	generate/STIM_010.jpg
3023.098	1.456	correct	generate	Run4	generate/STIM_010.jpg
3026.735	1.07	correct	generate	Run4	generate/STIM_010.jpg
3030.79	2.197	correct	generate	Run4	generate/STIM_011.jpg
3035.578	1.869	correct	generate	Run4	generate/STIM_011.jpg
3041.261	2.1	correct	generate	Run4	generate/STIM_011.jpg
3046.655	1.916	correct	generate	Run4	generate/STIM_011.jpg
3051.277	2.349	correct	generate	Run4	generate/STIM_011.jpg
3056.487	2.153	correct	generate	Run4	generate/STIM_012.jpg
3061.0	1.736	correct	generate	Run4	generate/STIM_012.jpg
3064.938	1.087	correct	generate	Run4	generate/STIM_012.jpg
3068.458	2.34	correct	generate	Run4	generate/STIM_012.jpg
3073.557	1.436	correct	generate	Run4	generate/STIM_012.jpg
3077.551	1.009	correct	generate	Run4	generate/STIM_013.jpg
3082.352	1.437	incorrect	generate	Run4	generate/STIM_013.jpg
3086.178	1.162	correct	generate	Run4	generate/STIM_013.jpg
3090.899	1.929	correct	generate	Run4	generate/STIM_013.jpg
3096.201	2.184	correct	generate	Run4	generate/STIM_013.jpg
3102.201	1.008	correct	generate	Run4	generate/STIM_014.jpg
3105.541	2.11	correct	generate	Run4	generate/STIM_014.jpg
3110.434	2.285	correct	generate	Run4	generate/STIM_014.jpg
3115.094	1.81	correct	generate	Run4	generate/STIM_014.jpg
3120.872	2.122	correct	generate	Run4	generate/STIM_014.jpg
3125.439	1.577	correct	generate	Run4	generate/STIM_015.jpg
3130.614	1.108	correct	generate	Run4	generate/STIM_015.jpg
3134.958	2.412	correct	generate	Run4	generate/STIM_015.jpg
3141.242	1.816	correct	generate	Run4	generate/STIM_015.jpg
3146.333	1.203	correct	generate	Run4	generate/STIM_015.jpg
3149.771	2.276	correct	generate	Run4	generate/STIM_016.jpg
3154.499	2.065	correct	generate	Run4	generate/STIM_016.jpg
3158.742	2.327	correct	generate	Run4	generate/STIM_016.jpg
3163.473	2.084	correct	generate	Run4	generate/STIM_016.jpg
3169.063	1.38	correct	generate	Run4	generate/STIM_016.jpg
3173.161	1.957	correct	generate	Run4	generate/STIM_017.jpg
3178.987	2.169	correct	generate	Run4	generate/STIM_017.jpg
3184.223	1.331	correct	generate	Run4	generate/STIM_017.jpg
3188.211	2.305	correct	generate	Run4	generate/STIM_017.jpg
3193.889	1.771	correct	generate	Run4	generate/STIM_017.jpg
3198.043	1.274	correct	generate	Run4	generate/STIM_018.jpg
3201.365	2.148	correct	generate	Run4	generate/STIM_018.jpg
3205.535	1.589	correct	generate	Run4	generate/STIM_018.jpg
3211.078	1.812	correct	generate	Run4	generate/STIM_018.jpg
3216.724	1.917	correct	generate	Run4	generate/STIM_018.jpg
3220.743	2.368	correct	generate	Run4	generate/STIM_019.jpg
3226.786	2.332	correct	generate	Run4	generate/STIM_019.jpg
3231.27	1.865	correct	generate	Run4	generate/STIM_019.jpg
3235.909	1.566	correct	generate	Run4	generate/STIM_019.jpg
3240.228	1.704	correct	generate	Run4	generate/STIM_019.jpg
3245.609	1.714	correct	generate	Run4	generate/STIM_020.jpg
3249.64	1.73	correct	generate	Run4	generate/STIM_020.jpg
3254.288	2.075	correct	generate	Run4	generate/STIM_020.jpg
3260.238	1.232	correct	generate	Run4	generate/STIM_020.jpg
3263.619	2.449	correct	generate	Run4	generate/STIM_020.jpg
3269.317	2.479	correct	generate	Run4	generate/STIM_021.jpg
3274.13	1.251	correct	generate	Run4	generate/STIM_021.jpg
3277.388	2.162	correct	generate	Run4	generate/STIM_021.jpg
3282.622	1.626	correct	generate	Run4	generate/STIM_021.jpg
3286.393	1.129	correct	generate	Run4	generate/STIM_021.jpg
3291.386	1.063	correct	generate	Run4	generate/STIM_022.jpg
3296.281	2.429	correct	generate	Run4	generate/STIM_022.jpg
3301.508	1.39	correct	generate	Run4	generate/STIM_022.jpg
3305.391	1.176	correct	generate	Run4	generate/STIM_022.jpg
3309.88	2.236	incorrect	generate	Run4	generate/STIM_022.jpg
3314.855	1.711	correct	generate	Run4	generate/STIM_023.jpg
3320.198	1.242	correct	generate	Run4	generate/STIM_023.jpg
3323.503	1.274	correct	generate	Run4	generate/STIM_023.jpg
3327.22	2.466	correct	generate	Run4	generate/STIM_023.jpg
3332.644	1.788	correct	generate	Run4	generate/STIM_023.jpg
3337.45	2.209	correct	generate	Run4	generate/STIM_024.jpg
3342.855	1.77	incorrect	generate	Run4	generate/STIM_024.jpg
3347.173	1.386	correct	generate	Run4	generate/STIM_024.jpg
3351.033	1.048	correct	generate	Run4	generate/STIM_024.jpg
3356.075	1.89	correct	generate	Run4	generate/STIM_024.jpg
3360.392	1.186	correct	repeat	Run4	repeat/STIM_000.jpg
3365.182	1.116	correct	repeat	Run4	repeat/STIM_000.jpg
3369.315	0.89	correct	repeat	Run4	repeat/STIM_000.jpg
3374.128	1.178	correct	repeat	Run4	repeat/STIM_000.jpg
3379.236	1.083	correct	repeat	Run4	repeat/STIM_000.jpg
3382.884	1.073	correct	repeat	Run4	repeat/STIM_001.jpg
3386.677	0.769	correct	repeat	Run4	repeat/STIM_001.jpg
3390.629	0.818	correct	repeat	Run4	repeat/STIM_001.jpg
3394.29	1.122	correct	repeat	Run4	repeat/STIM_001.jpg
3397.638	0.953	correct	repeat	Run4	repeat/STIM_001.jpg
3400.619	0.666	correct	repeat	Run4	repeat/STIM_002.jpg
3403.74	0.861	correct	repeat	Run4	repeat/STIM_002.jpg
3408.136	1.133	correct	repeat	Run4	repeat/STIM_002.jpg
3411.739	0.74	correct	repeat	Run4	repeat/STIM_002.jpg
3415.964	0.615	correct	repeat	Run4	repeat/STIM_002.jpg
3419.842	0.713	correct	repeat	Run4	repeat/STIM_003.jpg
3424.497	1.093	correct	repeat	Run4	repeat/STIM_003.jpg
3428.744	0.84	correct	repeat	Run4	repeat/STIM_003.jpg
3433.15	0.639	correct	repeat	Run4	repeat/STIM_003.jpg
3437.318	0.967	correct	repeat	Run4	repeat/STIM_003.jpg
3441.211	0.87	correct	repeat	Run4	repeat/STIM_004.jpg
3444.79	0.998	correct	repeat	Run4	repeat/STIM_004.jpg
3449.136	1.117	correct	repeat	Run4	repeat/STIM_004.jpg
3453.414	1.019	correct	repeat	Run4	repeat/STIM_004.jpg
3458.331	0.976	correct	repeat	Run4	repeat/STIM_004.jpg
3462.636	0.774	correct	repeat	Run4	repeat/STIM_005.jpg
3465.66	0.653	correct	repeat	Run4	repeat/STIM_005.jpg
3469.093	1.109	correct	repeat	Run4	repeat/STIM_005.jpg
3473.476	1.014	correct	repeat	Run4	repeat/STIM_005.jpg
3478.469	0.709	correct	repeat	Run4	repeat/STIM_005.jpg
3481.626	1.073	correct	repeat	Run4	repeat/STIM_006.jpg
3485.353	1.134	correct	repeat	Run4	repeat/STIM_006.jpg
3489.062	0.825	correct	repeat	Run4	repeat/STIM_006.jpg
3492.44	0.876	correct	repeat	Run4	repeat/STIM_006.jpg
3497.292	0.905	correct	repeat	Run4	repeat/STIM_006.jpg
3500.823	1.107	correct	repeat	Run4	repeat/STIM_007.jpg
3504.277	0.918	correct	repeat	Run4	repeat/STIM_007.jpg
3508.145	1.054	correct	repeat	Run4	repeat/STIM_007.jpg
3512.969	0.762	incorrect	repeat	Run4	repeat/STIM_007.jpg
3516.178	1.012	correct	repeat	Run4	repeat/STIM_007.jpg
3520.658	1.143	correct	repeat	Run4	repeat/STIM_008.jpg
3524.309	1.069	correct	repeat	Run4	repeat/STIM_008.jpg
3527.897	0.699	correct	repeat	Run4	repeat/STIM_008.jpg
3531.345	1.143	correct	repeat	Run4	repeat/STIM_008.jpg
3535.498	0.715	correct	repeat	Run4	repeat/STIM_008.jpg
3538.69	1.156	correct	repeat	Run4	repeat/STIM_009.jpg
3543.795	0.774	correct	repeat	Run4	repeat/STIM_009.jpg
3548.149	0.715	correct	repeat	Run4	repeat/STIM_009.jpg
3552.027	0.607	correct	repeat	Run4	repeat/STIM_009.jpg
3554.746	0.801	correct	repeat	Run4	repeat/STIM_009.jpg
3558.48	1.184	correct	repeat	Run4	repeat/STIM_010.jpg
3562.888	0.744	correct	repeat	Run4	repeat/STIM_010.jpg
3567.5	0.614	correct	repeat	Run4	repeat/STIM_010.jpg
3570.889	1.168	correct	repeat	Run4	repeat/STIM_010.jpg
3575.127	1.025	correct	repeat	Run4	repeat/STIM_010.jpg
3579.609	0.601	correct	repeat	Run4	repeat/STIM_011.jpg
3583.655	0.983	correct	repeat	Run4	repeat/STIM_011.jpg
3587.082	1.069	correct	repeat	Run4	repeat/STIM_011.jpg
3590.212	0.704	incorrect	repeat	Run4	repeat/STIM_011.jpg
3593.544	0.623	correct	repeat	Run4	repeat/STIM_011.jpg
3596.613	0.658	correct	repeat	Run4	repeat/STIM_012.jpg
3599.591	0.996	correct	repeat	Run4	repeat/STIM_012.jpg
3603.595	1.0	correct	repeat	Run4	repeat/STIM_012.jpg
3606.708	0.929	correct	repeat	Run4	repeat/STIM_012.jpg
3611.454	0.846	correct	repeat	Run4	repeat/STIM_012.jpg
3615.054	0.658	correct	repeat	Run4	repeat/STIM_013.jpg
3618.456	1.055	correct	repeat	Run4	repeat/STIM_013.jpg
3623.098	0.808	correct	repeat	Run4	repeat/STIM_013.jpg
3626.877	0.852	correct	repeat	Run4	repeat/STIM_013.jpg
3630.308	0.725	correct	repeat	Run4	repeat/STIM_013.jpg
3634.954	0.736	correct	repeat	Run4	repeat/STIM_014.jpg
3639.426	1.02	correct	repeat	Run4	repeat/STIM_014.jpg
3644.059	0.647	correct	repeat	Run4	repeat/STIM_014.jpg
3648.632	1.097	correct	repeat	Run4	repeat/STIM_014.jpg
3652.807	0.829	correct	repeat	Run4	repeat/STIM_014.jpg
