onset	duration	response_time_ms	trial_type	learning_stage	stimulus	response_port
0.0	1.32	1320.2	study	Phase1	study/STIM_000.jpg	100
4.609	1.399	1399.1	study	Phase1	study/STIM_000.jpg	99
8.866	1.423	1423.3	study	Phase1	study/STIM_000.jpg	99
12.93	1.836	1835.7	study	Phase1	study/STIM_001.jpg	99
18.04	1.469	1469.0	study	Phase1	study/STIM_001.jpg	99
21.876	1.369	1368.7	study	Phase1	study/STIM_001.jpg	99
26.002	1.412	1412.0	study	Phase1	study/STIM_002.jpg	100
30.874	1.273	1273.1	study	Phase1	study/STIM_002.jpg	99
35.73	1.444	1444.3	study	Phase1	study/STIM_002.jpg	99
39.806	1.867	1866.6	study	Phase1	study/STIM_003.jpg	99
44.253	1.386	1386.5	study	Phase1	study/STIM_003.jpg	100
48.043	1.61	1610.5	study	Phase1	study/STIM_003.jpg	99
52.129	1.252	1251.7	study	Phase1	study/STIM_004.jpg	100
55.608	0.964	963.6	study	Phase1	study/STIM_004.jpg	99
59.897	0.899	899.0	study	Phase1	study/STIM_004.jpg	100
63.109	1.291	1291.0	study	Phase1	study/STIM_005.jpg	99
66.956	1.471	1470.8	study	Phase1	study/STIM_005.jpg	100
71.902	1.55	1550.1	study	Phase1	study/STIM_005.jpg	100
75.499	1.015	1014.7	study	Phase1	study/STIM_006.jpg	100
79.278	1.189	1188.6	study	Phase1	study/STIM_006.jpg	100
82.79	1.235	1235.2	study	Phase1	study/STIM_006.jpg	99
87.987	0.927	926.8	study	Phase1	study/STIM_007.jpg	100
92.042	0.895	895.0	study	Phase1	study/STIM_007.jpg	99
96.576	1.211	1211.2	study	Phase1	study/STIM_007.jpg	99
101.269	1.022	1021.6	study	Phase1	study/STIM_008.jpg	99
106.039	1.165	1164.8	study	Phase1	study/STIM_008.jpg	99
110.998	1.519	1519.2	study	Phase1	study/STIM_008.jpg	99
114.707	1.947	1946.6	study	Phase1	study/STIM_009.jpg	99
119.942	1.776	1776.5	study	Phase1	study/STIM_009.jpg	99
124.572	1.343	1343.1	study	Phase1	study/STIM_009.jpg	100
129.164	1.803	1803.0	study	Phase1	study/STIM_010.jpg	100
134.576	1.844	1844.2	study	Phase1	study/STIM_010.jpg	99
139.494	1.632	1632.1	study	Phase1	study/STIM_010.jpg	99
144.761	1.308	1308.4	study	Phase1	study/STIM_011.jpg	99
148.548	0.884	883.5	study	Phase1	study/STIM_011.jpg	99
152.051	1.28	1280.5	study	Phase1	study/STIM_011.jpg	99
155.458	1.828	1827.7	study	Phase1	study/STIM_012.jpg	99
160.592	1.186	1186.2	study	Phase1	study/STIM_012.jpg	99
165.292	1.473	1473.0	study	Phase1	study/STIM_012.jpg	99
170.695	0.9	899.6	study	Phase1	study/STIM_013.jpg	99
174.72	1.201	1201.1	study	Phase1	study/STIM_013.jpg	99
179.72	1.471	1471.4	study	Phase1	study/STIM_013.jpg	100
184.667	0.993	993.4	study	Phase1	study/STIM_014.jpg	100
188.475	1.161	1160.8	study	Phase1	study/STIM_014.jpg	99
193.245	1.192	1191.9	study	Phase1	study/STIM_014.jpg	99
197.615	1.874	1874.3	study	Phase1	study/STIM_015.jpg	99
203.129	1.704	1703.6	study	Phase1	study/STIM_015.jpg	100
207.809	1.114	1114.1	study	Phase1	study/STIM_015.jpg	99
211.422	1.811	1811.1	study	Phase1	study/STIM_016.jpg	100
215.748	1.759	1759.3	study	Phase1	study/STIM_016.jpg	100
219.718	1.126	1126.2	study	Phase1	study/STIM_016.jpg	100
223.656	1.336	1335.9	study	Phase1	study/STIM_017.jpg	99
227.437	1.27	1270.0	study	Phase1	study/STIM_017.jpg	99
231.408	1.31	1309.6	study	Phase1	study/STIM_017.jpg	99
235.985	1.502	1502.3	study	Phase1	study/STIM_018.jpg	100
240.51	1.468	1467.7	study	Phase1	study/STIM_018.jpg	99
245.776	1.367	1366.8	study	Phase1	study/STIM_018.jpg	99
249.952	1.305	1304.6	study	Phase1	study/STIM_019.jpg	100
254.715	1.368	1368.2	study	Phase1	study/STIM_019.jpg	100
258.877	1.532	1532.2	study	Phase1	study/STIM_019.jpg	100
264.31	1.377	1377.0	study	Phase1	study/STIM_020.jpg	100
269.378	1.758	1757.9	study	Phase1	study/STIM_020.jpg	99
274.395	1.699	1698.9	study	Phase1	study/STIM_020.jpg	100
279.677	1.388	1388.4	study	Phase1	study/STIM_021.jpg	100
285.063	1.227	1226.9	study	Phase1	study/STIM_021.jpg	99
288.588	1.411	1410.6	study	Phase1	study/STIM_021.jpg	99
293.731	1.266	1266.5	study	Phase1	study/STIM_022.jpg	100
298.959	1.054	1053.5	study	Phase1	study/STIM_022.jpg	99
303.74	1.096	1095.8	study	Phase1	study/STIM_022.jpg	100
308.628	1.55	1550.4	study	Phase1	study/STIM_023.jpg	100
312.731	1.66	1659.6	study	Phase1	study/STIM_023.jpg	100
317.856	1.354	1353.7	study	Phase1	study/STIM_023.jpg	99
322.852	1.296	1296.3	study	Phase1	study/STIM_024.jpg	100
327.158	0.996	996.2	study	Phase1	study/STIM_024.jpg	99
331.622	1.157	1157.2	study	Phase1	study/STIM_024.jpg	99
335.989	1.728	1728.1	study	Phase1	study/STIM_025.jpg	99
340.615	1.63	1630.4	study	Phase1	study/STIM_025.jpg	100
344.273	1.431	1431.2	study	Phase1	study/STIM_025.jpg	99
348.74	1.049	1048.7	study	Phase1	study/STIM_026.jpg	99
352.574	1.074	1073.5	study	Phase1	study/STIM_026.jpg	99
356.261	0.981	981.4	study	Phase1	study/STIM_026.jpg	99
359.605	1.723	1722.6	study	Phase1	study/STIM_027.jpg	100
364.761	0.999	998.6	study	Phase1	study/STIM_027.jpg	100
368.444	1.72	1720.2	study	Phase1	study/STIM_027.jpg	100
372.335	1.24	1240.5	study	Phase1	study/STIM_028.jpg	100
375.998	1.282	1282.0	study	Phase1	study/STIM_028.jpg	100
379.479	1.446	1446.5	study	Phase1	study/STIM_028.jpg	100
384.21	1.618	1618.4	study	Phase1	study/STIM_029.jpg	100
389.552	1.763	1763.4	study	Phase1	study/STIM_029.jpg	100
394.278	0.83	829.8	study	Phase1	study/STIM_029.jpg	100
398.31	1.064	1064.0	test	Phase1	test/STIM_000.jpg	99
402.743	1.416	1415.7	test	Phase1	test/STIM_000.jpg	100
407.758	0.878	877.8	test	Phase1	test/STIM_000.jpg	100
411.062	1.047	1047.3	test	Phase1	test/STIM_001.jpg	100
414.187	0.947	947.2	test	Phase1	test/STIM_001.jpg	99
418.036	1.405	1404.6	test	Phase1	test/STIM_001.jpg	99
422.472	0.755	754.8	test	Phase1	test/STIM_002.jpg	99
425.937	1.03	1029.7	test	Phase1	test/STIM_002.jpg	99
429.88	0.674	673.9	test	Phase1	test/STIM_002.jpg	100
432.604	1.357	1357.0	test	Phase1	test/STIM_003.jpg	100
436.06	0.883	883.3	test	Phase1	test/STIM_003.jpg	99
439.659	0.702	702.3	test	Phase1	test/STIM_003.jpg	99
443.762	0.958	958.3	test	Phase1	test/STIM_004.jpg	100
447.27	1.059	1058.8	test	Phase1	test/STIM_004.jpg	99
450.544	1.303	1302.7	test	Phase1	test/STIM_004.jpg	99
455.745	1.048	1048.1	test	Phase1	test/STIM_005.jpg	99
459.499	1.144	1144.4	test	Phase1	test/STIM_005.jpg	100
463.347	1.211	1210.6	test	Phase1	test/STIM_005.jpg	100
466.683	1.035	1035.1	test	Phase1	test/STIM_006.jpg	100
471.12	0.663	663.4	test	Phase1	test/STIM_006.jpg	99
475.556	0.674	674.5	test	Phase1	test/STIM_006.jpg	99
478.677	0.952	951.5	test	Phase1	test/STIM_007.jpg	100
482.354	1.072	1072.3	test	Phase1	test/STIM_007.jpg	99
486.075	0.764	763.6	test	Phase1	test/STIM_007.jpg	100
489.759	0.858	857.5	test	Phase1	test/STIM_008.jpg	100
492.923	1.286	1286.4	test	Phase1	test/STIM_008.jpg	100
497.903	1.02	1019.9	test	Phase1	test/STIM_008.jpg	100
502.417	1.093	1093.1	test	Phase1	test/STIM_009.jpg	100
506.841	1.292	1291.8	test	Phase1	test/STIM_009.jpg	99
510.963	0.764	764.5	test	Phase1	test/STIM_009.jpg	100
514.262	0.75	749.7	test	Phase1	test/STIM_010.jpg	100
518.513	1.171	1171.3	test	Phase1	test/STIM_010.jpg	99
522.745	0.772	772.0	test	Phase1	test/STIM_010.jpg	100
527.082	0.83	829.5	test	Phase1	test/STIM_011.jpg	100
530.298	0.962	961.5	test	Phase1	test/STIM_011.jpg	99
534.704	1.259	1258.6	test	Phase1	test/STIM_011.jpg	100
538.5	1.084	1083.5	test	Phase1	test/STIM_012.jpg	100
543.502	0.885	885.1	test	Phase1	test/STIM_012.jpg	100
546.751	0.687	686.7	test	Phase1	test/STIM_012.jpg	99
550.395	0.714	714.0	test	Phase1	test/STIM_013.jpg	99
553.136	0.89	889.5	test	Phase1	test/STIM_013.jpg	100
557.356	1.42	1419.5	test	Phase1	test/STIM_013.jpg	100
560.997	1.403	1403.3	test	Phase1	test/STIM_014.jpg	99
565.148	0.844	844.1	test	Phase1	test/STIM_014.jpg	99
569.905	0.976	975.9	test	Phase1	test/STIM_014.jpg	99
574.554	1.392	1392.2	test	Phase1	test/STIM_015.jpg	99
579.927	0.713	713.0	test	Phase1	test/STIM_015.jpg	100
584.54	1.084	1084.2	test	Phase1	test/STIM_015.jpg	99
588.963	0.925	925.0	test	Phase1	test/STIM_016.jpg	100
592.021	1.329	1328.9	test	Phase1	test/STIM_016.jpg	100
596.738	0.909	909.1	test	Phase1	test/STIM_016.jpg	99
600.347	0.678	678.0	test	Phase1	test/STIM_017.jpg	100
604.725	1.325	1324.9	test	Phase1	test/STIM_017.jpg	100
609.049	1.387	1386.6	test	Phase1	test/STIM_017.jpg	100
612.744	1.039	1039.1	test	Phase1	test/STIM_018.jpg	99
617.354	0.987	987.1	test	Phase1	test/STIM_018.jpg	100
621.503	1.367	1367.2	test	Phase1	test/STIM_018.jpg	100
626.525	0.768	767.9	test	Phase1	test/STIM_019.jpg	100
630.679	0.739	738.8	test	Phase1	test/STIM_019.jpg	99
635.272	1.043	1043.3	test	Phase1	test/STIM_019.jpg	99
638.431	0.72	719.5	test	Phase1	test/STIM_020.jpg	100
642.705	1.318	1318.1	test	Phase1	test/STIM_020.jpg	100
646.68	1.134	1133.5	test	Phase1	test/STIM_020.jpg	100
649.883	1.373	1373.0	test	Phase1	test/STIM_021.jpg	100
653.269	1.389	1388.9	test	Phase1	test/STIM_021.jpg	100
658.55	1.335	1334.8	test	Phase1	test/STIM_021.jpg	100
663.839	1.238	1237.8	test	Phase1	test/STIM_022.jpg	99
668.962	0.947	946.6	test	Phase1	test/STIM_022.jpg	99
673.12	1.098	1098.2	test	Phase1	test/STIM_022.jpg	99
677.726	0.995	995.4	test	Phase1	test/STIM_023.jpg	99
680.899	1.354	1353.9	test	Phase1	test/STIM_023.jpg	100
686.073	0.937	937.2	test	Phase1	test/STIM_023.jpg	99
690.242	1.291	1290.7	test	Phase1	test/STIM_024.jpg	99
695.367	1.362	1361.9	test	Phase1	test/STIM_024.jpg	99
699.53	1.095	1095.0	test	Phase1	test/STIM_024.jpg	99
703.617	1.341	1340.9	test	Phase1	test/STIM_025.jpg	100
708.43	1.132	1131.7	test	Phase1	test/STIM_025.jpg	100
712.625	1.307	1307.1	test	Phase1	test/STIM_025.jpg	99
717.326	1.248	1248.1	test	Phase1	test/STIM_026.jpg	100
720.676	0.743	743.2	test	Phase1	test/STIM_026.jpg	100
725.043	0.988	988.3	test	Phase1	test/STIM_026.jpg	99
729.094	1.239	1238.9	test	Phase1	test/STIM_027.jpg	100
733.022	0.804	803.9	test	Phase1	test/STIM_027.jpg	99
736.1	1.252	1252.4	test	Phase1	test/STIM_027.jpg	99
739.469	1.352	1351.6	test	Phase1	test/STIM_028.jpg	100
743.826	0.732	732.5	test	Phase1	test/STIM_028.jpg	99
747.004	1.298	1297.7	test	Phase1	test/STIM_028.jpg	100
751.628	1.253	1252.6	test	Phase1	test/STIM_029.jpg	99
755.788	0.722	721.5	test	Phase1	test/STIM_029.jpg	100
759.168	1.284	1284.3	test	Phase1	test/STIM_029.jpg	99
763.301	1.64	1640.3	study	Phase2	study/STIM_000.jpg	100
767.879	1.566	1566.1	study	Phase2	study/STIM_000.jpg	100
771.957	1.027	1026.6	study	Phase2	study/STIM_000.jpg	99
775.279	1.048	1047.9	study	Phase2	study/STIM_001.jpg	99
780.027	1.428	1428.2	study	Phase2	study/STIM_001.jpg	100
784.325	1.189	1189.0	study	Phase2	study/STIM_001.jpg	100
789.281	1.217	1217.0	study	Phase2	study/STIM_002.jpg	99
793.292	1.487	1486.8	study	Phase2	study/STIM_002.jpg	100
797.064	0.813	813.2	study	Phase2	study/STIM_002.jpg	99
800.328	1.501	1501.2	study	Phase2	study/STIM_003.jpg	99
805.04	0.835	835.2	study	Phase2	study/STIM_003.jpg	99
809.71	0.828	827.7	study	Phase2	study/STIM_003.jpg	99
813.864	1.209	1209.4	study	Phase2	study/STIM_004.jpg	99
818.421	1.473	1473.4	study	Phase2	study/STIM_004.jpg	99
821.907	1.262	1261.5	study	Phase2	study/STIM_004.jpg	99
826.174	1.166	1166.0	study	Phase2	study/STIM_005.jpg	99
830.089	0.771	770.9	study	Phase2	study/STIM_005.jpg	99
833.796	1.331	1331.0	study	Phase2	study/STIM_005.jpg	99
837.47	1.479	1479.3	study	Phase2	study/STIM_006.jpg	100
842.399	0.914	913.9	study	Phase2	study/STIM_006.jpg	99
846.899	1.023	1023.3	study	Phase2	study/STIM_006.jpg	99
851.366	0.858	858.2	study	Phase2	study/STIM_007.jpg	99
856.199	0.988	987.8	study	Phase2	study/STIM_007.jpg	100
860.03	0.678	678.0	study	Phase2	study/STIM_007.jpg	100
862.992	0.812	812.2	study	Phase2	study/STIM_008.jpg	99
865.872	1.3	1300.0	study	Phase2	study/STIM_008.jpg	99
869.985	0.711	711.3	study	Phase2	study/STIM_008.jpg	100
874.592	1.175	1174.7	study	Phase2	study/STIM_009.jpg	100
878.079	1.501	1501.0	study	Phase2	study/STIM_009.jpg	100
882.638	1.127	1127.1	study	Phase2	study/STIM_009.jpg	99
886.171	1.617	1617.4	study	Phase2	study/STIM_010.jpg	100
890.183	0.71	709.8	study	Phase2	study/STIM_010.jpg	100
893.751	0.805	805.2	study	Phase2	study/STIM_010.jpg	99
898.532	1.605	1605.3	study	Phase2	study/STIM_011.jpg	100
902.823	0.954	954.2	study	Phase2	study/STIM_011.jpg	99
905.974	1.134	1133.7	study	Phase2	study/STIM_011.jpg	100
910.624	1.329	1328.8	study	Phase2	study/STIM_012.jpg	99
914.149	1.37	1369.5	study	Phase2	study/STIM_012.jpg	99
918.066	0.863	863.0	study	Phase2	study/STIM_012.jpg	99
921.957	1.002	1002.3	study	Phase2	study/STIM_013.jpg	99
925.832	1.2	1200.1	study	Phase2	study/STIM_013.jpg	100
929.316	1.112	1112.1	study	Phase2	study/STIM_013.jpg	99
933.824	1.337	1337.1	study	Phase2	study/STIM_014.jpg	99
938.111	0.862	862.2	study	Phase2	study/STIM_014.jpg	99
941.021	0.968	967.7	study	Phase2	study/STIM_014.jpg	99
944.666	1.292	1292.0	study	Phase2	study/STIM_015.jpg	99
948.226	1.154	1154.1	study	Phase2	study/STIM_015.jpg	99
953.189	1.292	1291.9	study	Phase2	study/STIM_015.jpg	99
958.467	1.419	1419.4	study	Phase2	study/STIM_016.jpg	100
962.943	0.89	889.9	study	Phase2	study/STIM_016.jpg	100
966.372	1.188	1187.7	study	Phase2	study/STIM_016.jpg	99
970.688	1.358	1357.9	study	Phase2	study/STIM_017.jpg	100
975.567	1.523	1523.4	study	Phase2	study/STIM_017.jpg	100
979.333	1.163	1162.9	study	Phase2	study/STIM_017.jpg	100
983.334	0.883	883.4	study	Phase2	study/STIM_018.jpg	100
987.792	1.369	1368.6	study	Phase2	study/STIM_018.jpg	99
991.585	1.404	1404.1	study	Phase2	study/STIM_018.jpg	99
996.404	1.377	1377.4	study	Phase2	study/STIM_019.jpg	100
1000.538	1.523	1523.2	study	Phase2	study/STIM_019.jpg	100
1004.413	0.669	669.0	study	Phase2	study/STIM_019.jpg	99
1008.87	0.915	915.4	study	Phase2	study/STIM_020.jpg	100
1012.274	1.471	1471.0	study	Phase2	study/STIM_020.jpg	100
1015.947	0.676	675.7	study	Phase2	study/STIM_020.jpg	100
1018.894	1.578	1578.5	study	Phase2	study/STIM_021.jpg	99
1023.262	1.072	1071.6	study	Phase2	study/STIM_021.jpg	100
1027.017	1.319	1319.4	study	Phase2	study/STIM_021.jpg	100
1032.319	1.223	1223.3	study	Phase2	study/STIM_022.jpg	99
1037.032	1.049	1049.4	study	Phase2	study/STIM_022.jpg	100
1040.392	0.822	821.8	study	Phase2	study/STIM_022.jpg	99
1044.637	1.34	1340.3	study	Phase2	study/STIM_023.jpg	99
1048.252	1.025	1024.7	study	Phase2	study/STIM_023.jpg	100
1051.729	1.178	1177.7	study	Phase2	study/STIM_023.jpg	99
1055.102	1.044	1043.7	study	Phase2	study/STIM_024.jpg	99
1059.767	1.122	1121.5	study	Phase2	study/STIM_024.jpg	100
1064.52	0.875	875.4	study	Phase2	study/STIM_024.jpg	100
1068.478	1.645	1644.6	study	Phase2	study/STIM_025.jpg	100
1072.413	0.925	924.8	study	Phase2	study/STIM_025.jpg	100
1075.773	0.934	934.2	study	Phase2	study/STIM_025.jpg	100
1078.94	1.62	1620.2	study	Phase2	study/STIM_026.jpg	99
1083.527	1.016	1016.2	study	Phase2	study/STIM_026.jpg	100
1087.51	1.054	1053.6	study	Phase2	study/STIM_026.jpg	100
1092.259	1.505	1504.6	study	Phase2	study/STIM_027.jpg	100
1096.437	1.135	1134.9	study	Phase2	study/STIM_027.jpg	100
1099.573	0.946	945.5	study	Phase2	study/STIM_027.jpg	100
1102.6	0.77	770.0	study	Phase2	study/STIM_028.jpg	99
1105.657	0.921	921.2	study	Phase2	study/STIM_028.jpg	100
1109.637	0.755	755.3	study	Phase2	study/STIM_028.jpg	99
1112.855	1.618	1617.7	study	Phase2	study/STIM_029.jpg	100
1116.478	1.548	1548.1	study	Phase2	study/STIM_029.jpg	99
1121.783	1.257	1256.8	study	Phase2	study/STIM_029.jpg	99
1126.731	0.694	694.3	test	Phase2	test/STIM_000.jpg	100
1129.933	0.932	931.7	test	Phase2	test/STIM_000.jpg	100
1134.232	0.992	991.7	test	Phase2	test/STIM_000.jpg	100
1137.303	1.192	1192.1	test	Phase2	test/STIM_001.jpg	99
1142.19	0.749	748.7	test	Phase2	test/STIM_001.jpg	99
1146.159	1.158	1158.0	test	Phase2	test/STIM_001.jpg	99
1151.088	0.832	831.9	test	Phase2	test/STIM_002.jpg	100
1155.749	1.207	1207.4	test	Phase2	test/STIM_002.jpg	99
1159.627	1.135	1135.3	test	Phase2	test/STIM_002.jpg	99
1163.962	1.218	1218.1	test	Phase2	test/STIM_003.jpg	99
1169.145	1.031	1031.4	test	Phase2	test/STIM_003.jpg	100
1172.503	1.392	1392.4	test	Phase2	test/STIM_003.jpg	100
1176.136	0.774	774.4	test	Phase2	test/STIM_004.jpg	99
1179.363	1.41	1409.6	test	Phase2	test/STIM_004.jpg	99
1183.273	1.166	1165.7	test	Phase2	test/STIM_004.jpg	99
1188.375	1.213	1213.1	test	Phase2	test/STIM_005.jpg	100
1193.559	1.229	1228.8	test	Phase2	test/STIM_005.jpg	100
1197.31	1.389	1389.2	test	Phase2	test/STIM_005.jpg	99
1201.155	0.93	929.7	test	Phase2	test/STIM_006.jpg	99
1204.944	0.893	893.2	test	Phase2	test/STIM_006.jpg	100
1208.087	1.073	1072.9	test	Phase2	test/STIM_006.jpg	100
1211.823	0.661	661.2	test	Phase2	test/STIM_007.jpg	100
1215.877	1.364	1364.4	test	Phase2	test/STIM_007.jpg	100
1221.08	0.931	931.4	test	Phase2	test/STIM_007.jpg	99
1225.805	1.39	1390.2	test	Phase2	test/STIM_008.jpg	100
1229.716	0.991	991.3	test	Phase2	test/STIM_008.jpg	100
1234.089	1.184	1184.2	test	Phase2	test/STIM_008.jpg	100
1238.497	0.784	783.6	test	Phase2	test/STIM_009.jpg	100
1243.234	1.245	1244.6	test	Phase2	test/STIM_009.jpg	100
1246.633	0.796	796.4	test	Phase2	test/STIM_009.jpg	99
1251.296	0.908	908.2	test	Phase2	test/STIM_010.jpg	100
1254.412	1.161	1161.4	test	Phase2	test/STIM_010.jpg	100
1258.659	1.242	1241.5	test	Phase2	test/STIM_010.jpg	100
1262.855	1.317	1317.0	test	Phase2	test/STIM_011.jpg	100
1267.023	1.068	1068.0	test	Phase2	test/STIM_011.jpg	100
1271.121	0.903	903.1	test	Phase2	test/STIM_011.jpg	99
1275.178	0.907	907.3	test	Phase2	test/STIM_012.jpg	100
1278.905	0.971	971.0	test	Phase2	test/STIM_012.jpg	99
1282.559	0.756	755.8	test	Phase2	test/STIM_012.jpg	99
1287.149	0.828	828.4	test	Phase2	test/STIM_013.jpg	100
1290.967	0.688	688.5	test	Phase2	test/STIM_013.jpg	99
1295.353	0.958	958.5	test	Phase2	test/STIM_013.jpg	100
1298.593	1.299	1299.1	test	Phase2	test/STIM_014.jpg	99
1302.081	1.369	1369.0	test	Phase2	test/STIM_014.jpg	100
1306.599	0.736	736.4	test	Phase2	test/STIM_014.jpg	99
1311.177	1.123	1123.4	test	Phase2	test/STIM_015.jpg	99
1316.112	1.317	1316.9	test	Phase2	test/STIM_015.jpg	100
1321.133	0.698	698.4	test	Phase2	test/STIM_015.jpg	100
1324.188	1.296	1295.6	test	Phase2	test/STIM_016.jpg	100
1329.345	1.04	1040.1	test	Phase2	test/STIM_016.jpg	99
1334.201	1.207	1207.1	test	Phase2	test/STIM_016.jpg	100
1337.665	1.383	1382.9	test	Phase2	test/STIM_017.jpg	100
1341.423	1.218	1217.6	test	Phase2	test/STIM_017.jpg	100
1345.053	0.848	847.5	test	Phase2	test/STIM_017.jpg	99
1347.927	1.349	1349.4	test	Phase2	test/STIM_018.jpg	100
1351.467	1.314	1314.5	test	Phase2	test/STIM_018.jpg	100
1355.231	1.301	1300.6	test	Phase2	test/STIM_018.jpg	100
1359.233	1.201	1201.3	test	Phase2	test/STIM_019.jpg	99
1364.16	0.746	746.5	test	Phase2	test/STIM_019.jpg	99
1368.263	0.744	744.3	test	Phase2	test/STIM_019.jpg	99
1371.071	0.916	916.4	test	Phase2	test/STIM_020.jpg	100
1375.11	0.801	801.4	test	Phase2	test/STIM_020.jpg	100
1378.154	1.235	1234.6	test	Phase2	test/STIM_020.jpg	99
1382.273	1.189	1189.3	test	Phase2	test/STIM_021.jpg	99
1386.967	1.384	1384.2	test	Phase2	test/STIM_021.jpg	100
1390.352	1.02	1019.8	test	Phase2	test/STIM_021.jpg	99
1394.701	1.193	1192.9	test	Phase2	test/STIM_022.jpg	99
1399.711	0.751	750.7	test	Phase2	test/STIM_022.jpg	99
1404.241	1.248	1248.4	test	Phase2	test/STIM_022.jpg	99
1409.239	0.88	880.1	test	Phase2	test/STIM_023.jpg	99
1412.49	1.332	1332.0	test	Phase2	test/STIM_023.jpg	100
1417.81	0.907	906.6	test	Phase2	test/STIM_023.jpg	99
1420.974	1.028	1028.3	test	Phase2	test/STIM_024.jpg	100
1425.759	0.997	996.6	test	Phase2	test/STIM_024.jpg	100
1430.545	0.708	707.7	test	Phase2	test/STIM_024.jpg	100
1433.632	0.708	708.0	test	Phase2	test/STIM_025.jpg	99
1436.568	1.031	1031.4	test	Phase2	test/STIM_025.jpg	100
1439.995	1.055	1055.1	test	Phase2	test/STIM_025.jpg	100
1443.057	1.038	1038.1	test	Phase2	test/STIM_026.jpg	99
1447.452	1.305	1305.0	test	Phase2	test/STIM_026.jpg	99
1452.003	1.024	1023.6	test	Phase2	test/STIM_026.jpg	99
1455.28	1.121	1120.9	test	Phase2	test/STIM_027.jpg	100
1458.957	0.731	731.3	test	Phase2	test/STIM_027.jpg	99
1461.689	1.078	1078.5	test	Phase2	test/STIM_027.jpg	99
1466.63	1.32	1320.3	test	Phase2	test/STIM_028.jpg	100
1470.244	1.384	1384.2	test	Phase2	test/STIM_028.jpg	99
1475.512	0.911	911.0	test	Phase2	test/STIM_028.jpg	99
1479.654	1.394	1394.3	test	Phase2	test/STIM_029.jpg	99
1484.686	0.93	930.2	test	Phase2	test/STIM_029.jpg	99
1488.534	1.029	1028.9	test	Phase2	test/STIM_029.jpg	99
1492.512	1.107	1106.6	study	Phase3	study/STIM_000.jpg	99
1495.816	1.282	1281.7	study	Phase3	study/STIM_000.jpg	99
1500.414	1.034	1034.1	study	Phase3	study/STIM_000.jpg	99
1503.526	0.758	758.0	study	Phase3	study/STIM_001.jpg	100
1506.939	0.871	870.6	study	Phase3	study/STIM_001.jpg	99
1510.838	0.7	700.5	study	Phase3	study/STIM_001.jpg	100
1513.605	1.322	1321.9	study	Phase3	study/STIM_002.jpg	99
1517.494	0.98	980.3	study	Phase3	study/STIM_002.jpg	100
1521.287	0.757	757.3	study	Phase3	study/STIM_002.jpg	100
1525.892	0.725	725.3	study	Phase3	study/STIM_003.jpg	100
1529.939	1.313	1313.4	study	Phase3	study/STIM_003.jpg	100
1533.747	1.333	1332.6	study	Phase3	study/STIM_003.jpg	100
1538.87	0.683	682.8	study	Phase3	study/STIM_004.jpg	99
1541.711	0.84	840.2	study	Phase3	study/STIM_004.jpg	100
1544.869	0.784	783.5	study	Phase3	study/STIM_004.jpg	99
1548.202	0.626	625.9	study	Phase3	study/STIM_005.jpg	99
1552.781	0.954	954.2	study	Phase3	study/STIM_005.jpg	100
1556.878	0.623	623.0	study	Phase3	study/STIM_005.jpg	100
1561.394	1.035	1034.8	study	Phase3	study/STIM_006.jpg	99
1565.769	1.277	1277.4	study	Phase3	study/STIM_006.jpg	100
1569.859	0.64	639.9	study	Phase3	study/STIM_006.jpg	100
1573.797	1.085	1084.8	study	Phase3	study/STIM_007.jpg	99
1578.319	0.825	825.4	study	Phase3	study/STIM_007.jpg	100
1581.267	1.032	1032.3	study	Phase3	study/STIM_007.jpg	99
1585.938	1.224	1224.3	study	Phase3	study/STIM_008.jpg	100
1589.482	0.857	857.0	study	Phase3	study/STIM_008.jpg	100
1593.024	0.879	879.4	study	Phase3	study/STIM_008.jpg	100
1596.574	0.971	971.2	study	Phase3	study/STIM_009.jpg	100
1601.222	1.218	1217.8	study	Phase3	study/STIM_009.jpg	99
1605.16	1.267	1266.7	study	Phase3	study/STIM_009.jpg	100
1609.612	0.808	808.2	study	Phase3	study/STIM_010.jpg	100
1613.449	1.296	1295.9	study	Phase3	study/STIM_010.jpg	100
1617.074	1.371	1370.7	study	Phase3	study/STIM_010.jpg	99
1620.946	0.863	863.3	study	Phase3	study/STIM_011.jpg	99
1623.957	0.956	956.1	study	Phase3	study/STIM_011.jpg	99
1627.159	1.302	1301.7	study	Phase3	study/STIM_011.jpg	99
1632.074	1.154	1154.4	study	Phase3	study/STIM_012.jpg	99
1635.471	1.052	1051.7	study	Phase3	study/STIM_012.jpg	100
1638.733	1.226	1226.1	study	Phase3	study/STIM_012.jpg	99
1643.449	0.978	978.2	study	Phase3	study/STIM_013.jpg	100
1647.852	0.8	800.4	study	Phase3	study/STIM_013.jpg	100
1651.494	1.153	1153.2	study	Phase3	study/STIM_013.jpg	99
1656.052	0.645	644.9	study	Phase3	study/STIM_014.jpg	99
1660.271	1.12	1119.8	study	Phase3	study/STIM_014.jpg	100
1665.076	1.198	1198.5	study	Phase3	study/STIM_014.jpg	100
1668.67	0.746	745.8	study	Phase3	study/STIM_015.jpg	99
1672.982	1.158	1157.8	study	Phase3	study/STIM_015.jpg	100
1676.549	0.794	794.5	study	Phase3	study/STIM_015.jpg	99
1679.697	0.621	621.4	study	Phase3	study/STIM_016.jpg	99
1683.495	1.367	1366.9	study	Phase3	study/STIM_016.jpg	100
1687.354	1.153	1152.8	study	Phase3	study/STIM_016.jpg	99
1692.479	1.081	1081.3	study	Phase3	study/STIM_017.jpg	99
1696.558	1.331	1330.7	study	Phase3	study/STIM_017.jpg	99
1700.486	0.914	914.4	study	Phase3	study/STIM_017.jpg	99
1705.201	1.311	1310.8	study	Phase3	study/STIM_018.jpg	100
1709.512	1.27	1270.2	study	Phase3	study/STIM_018.jpg	99
1714.459	0.877	877.2	study	Phase3	study/STIM_018.jpg	100
1718.273	1.294	1294.2	study	Phase3	study/STIM_019.jpg	100
1723.465	0.965	964.9	study	Phase3	study/STIM_019.jpg	100
1728.085	1.121	1120.9	study	Phase3	study/STIM_019.jpg	100
1732.299	1.039	1038.7	study	Phase3	study/STIM_020.jpg	99
1737.191	0.771	771.1	study	Phase3	study/STIM_020.jpg	99
1741.213	1.33	1329.7	study	Phase3	study/STIM_020.jpg	100
1746.008	0.684	683.5	study	Phase3	study/STIM_021.jpg	99
1748.987	0.811	810.8	study	Phase3	study/STIM_021.jpg	99
1752.13	1.37	1369.8	study	Phase3	study/STIM_021.jpg	100
1756.63	0.627	627.0	study	Phase3	study/STIM_022.jpg	100
1760.618	0.786	786.5	study	Phase3	study/STIM_022.jpg	99
1763.953	1.092	1092.1	study	Phase3	study/STIM_022.jpg	100
1767.196	0.924	924.5	study	Phase3	study/STIM_023.jpg	100
1771.384	0.745	745.1	study	Phase3	study/STIM_023.jpg	99
1775.001	0.725	725.0	study	Phase3	study/STIM_023.jpg	99
1778.567	1.23	1230.1	study	Phase3	study/STIM_024.jpg	99
1782.08	0.985	985.2	study	Phase3	study/STIM_024.jpg	99
1786.068	0.911	910.6	study	Phase3	study/STIM_024.jpg	99
1790.586	1.289	1289.3	study	Phase3	study/STIM_025.jpg	99
1794.586	0.954	954.4	study	Phase3	study/STIM_025.jpg	100
1797.98	1.148	1148.1	study	Phase3	study/STIM_025.jpg	99
1802.441	0.866	866.4	study	Phase3	study/STIM_026.jpg	100
1805.703	0.757	756.6	study	Phase3	study/STIM_026.jpg	99
1809.218	1.028	1027.9	study	Phase3	study/STIM_026.jpg	100
1812.718	1.208	1207.8	study	Phase3	study/STIM_027.jpg	100
1817.598	1.265	1264.8	study	Phase3	study/STIM_027.jpg	100
1822.481	0.876	876.1	study	Phase3	study/STIM_027.jpg	99
1826.736	0.764	763.7	study	Phase3	study/STIM_028.jpg	100
1829.827	0.911	910.9	study	Phase3	study/STIM_028.jpg	99
1833.965	0.725	724.8	study	Phase3	study/STIM_028.jpg	99
1838.385	0.739	738.8	study	Phase3	study/STIM_029.jpg	100
1842.222	1.074	1073.6	study	Phase3	study/STIM_029.jpg	99
1845.369	1.1	1099.9	study	Phase3	study/STIM_029.jpg	100
1850.048	1.34	1340.4	test	Phase3	test/STIM_000.jpg	100
1853.44	1.386	1385.9	test	Phase3	test/STIM_000.jpg	100
1858.673	1.374	1373.7	test	Phase3	test/STIM_000.jpg	99
1864.001	1.337	1337.4	test	Phase3	test/STIM_001.jpg	100
1868.964	1.2	1199.9	test	Phase3	test/STIM_001.jpg	99
1873.64	1.026	1026.0	test	Phase3	test/STIM_001.jpg	100
1878.303	1.376	1375.7	test	Phase3	test/STIM_002.jpg	99
1883.099	0.944	943.6	test	Phase3	test/STIM_002.jpg	100
1887.248	1.034	1034.2	test	Phase3	test/STIM_002.jpg	99
1891.496	0.977	976.7	test	Phase3	test/STIM_003.jpg	100
1896.451	1.191	1190.7	test	Phase3	test/STIM_003.jpg	100
1901.379	0.829	828.9	test	Phase3	test/STIM_003.jpg	100
1905.93	0.75	749.8	test	Phase3	test/STIM_004.jpg	100
1908.845	1.414	1414.0	test	Phase3	test/STIM_004.jpg	99
1913.238	0.914	914.0	test	Phase3	test/STIM_004.jpg	99
1917.703	1.356	1356.1	test	Phase3	test/STIM_005.jpg	100
1921.659	0.8	799.9	test	Phase3	test/STIM_005.jpg	99
1925.52	1.207	1206.7	test	Phase3	test/STIM_005.jpg	99
1929.81	1.029	1028.9	test	Phase3	test/STIM_006.jpg	100
1934.616	1.151	1151.1	test	Phase3	test/STIM_006.jpg	100
1939.206	1.361	1361.3	test	Phase3	test/STIM_006.jpg	100
1943.25	1.308	1308.4	test	Phase3	test/STIM_007.jpg	99
1948.253	1.348	1347.7	test	Phase3	test/STIM_007.jpg	100
1953.038	0.763	763.2	test	Phase3	test/STIM_007.jpg	100
1956.917	0.658	658.0	test	Phase3	test/STIM_008.jpg	100
1960.314	1.208	1208.3	test	Phase3	test/STIM_008.jpg	100
1964.618	1.259	1259.4	test	Phase3	test/STIM_008.jpg	100
1968.598	1.279	1279.2	test	Phase3	test/STIM_009.jpg	99
1972.197	1.246	1246.1	test	Phase3	test/STIM_009.jpg	99
1976.013	1.299	1299.0	test	Phase3	test/STIM_009.jpg	100
1980.417	0.918	917.6	test	Phase3	test/STIM_010.jpg	99
1984.497	1.015	1014.8	test	Phase3	test/STIM_010.jpg	99
1988.726	1.131	1131.1	test	Phase3	test/STIM_010.jpg	100
1992.522	1.327	1327.1	test	Phase3	test/STIM_011.jpg	99
1996.719	1.371	1370.8	test	Phase3	test/STIM_011.jpg	100
2000.285	1.312	1311.9	test	Phase3	test/STIM_011.jpg	100
2003.946	0.713	712.9	test	Phase3	test/STIM_012.jpg	99
2007.949	1.232	1231.5	test	Phase3	test/STIM_012.jpg	99
2011.536	1.13	1130.2	test	Phase3	test/STIM_012.jpg	99
2014.769	1.37	1370.4	test	Phase3	test/STIM_013.jpg	100
2018.857	1.065	1065.4	test	Phase3	test/STIM_013.jpg	99
2022.833	1.111	1111.1	test	Phase3	test/STIM_013.jpg	100
2027.185	1.011	1010.9	test	Phase3	test/STIM_014.jpg	100
2030.721	0.786	786.2	test	Phase3	test/STIM_014.jpg	99
2034.711	1.405	1405.1	test	Phase3	test/STIM_014.jpg	100
2038.541	0.665	665.3	test	Phase3	test/STIM_015.jpg	99
2043.192	1.407	1407.4	test	Phase3	test/STIM_015.jpg	99
2048.232	0.788	787.8	test	Phase3	test/STIM_015.jpg	99
2052.727	0.661	661.2	test	Phase3	test/STIM_016.jpg	100
2055.501	1.037	1036.7	test	Phase3	test/STIM_016.jpg	100
2059.79	1.082	1082.1	test	Phase3	test/STIM_016.jpg	99
2063.796	1.412	1412.2	test	Phase3	test/STIM_017.jpg	100
2068.67	1.149	1148.6	test	Phase3	test/STIM_017.jpg	99
2072.51	0.821	820.8	test	Phase3	test/STIM_017.jpg	100
2077.156	1.401	1401.4	test	Phase3	test/STIM_018.jpg	100
2081.409	0.922	922.0	test	Phase3	test/STIM_018.jpg	100
2084.842	1.048	1047.5	test	Phase3	test/STIM_018.jpg	99
2089.641	0.871	871.4	test	Phase3	test/STIM_019.jpg	100
2093.689	0.906	906.3	test	Phase3	test/STIM_019.jpg	99
2098.203	1.046	1045.6	test	Phase3	test/STIM_019.jpg	99
2103.173	0.96	959.6	test	Phase3	test/STIM_020.jpg	100
2107.41	1.109	1109.0	test	Phase3	test/STIM_020.jpg	100
2112.344	0.83	830.0	test	Phase3	test/STIM_020.jpg	100
2116.678	1.055	1054.6	test	Phase3	test/STIM_021.jpg	100
2121.631	0.671	670.9	test	Phase3	test/STIM_021.jpg	100
2124.75	1.113	1113.2	test	Phase3	test/STIM_021.jpg	99
2129.708	1.153	1153.2	test	Phase3	test/STIM_022.jpg	100
2134.285	1.18	1180.4	test	Phase3	test/STIM_022.jpg	99
2138.146	0.824	824.3	test	Phase3	test/STIM_022.jpg	99
2141.067	1.395	1394.6	test	Phase3	test/STIM_023.jpg	100
2144.889	0.851	850.8	test	Phase3	test/STIM_023.jpg	99
2149.276	0.981	980.7	test	Phase3	test/STIM_023.jpg	100
2152.337	1.167	1167.0	test	Phase3	test/STIM_024.jpg	99
2155.72	0.657	657.1	test	Phase3	test/STIM_024.jpg	99
2159.712	1.362	1361.5	test	Phase3	test/STIM_024.jpg	100
2164.45	1.278	1277.6	test	Phase3	test/STIM_025.jpg	99
2168.218	0.75	750.2	test	Phase3	test/STIM_025.jpg	99
2172.894	1.366	1366.2	test	Phase3	test/STIM_025.jpg	99
2177.2	0.941	940.7	test	Phase3	test/STIM_026.jpg	100
2180.798	0.87	869.8	test	Phase3	test/STIM_026.jpg	99
2185.562	0.81	810.3	test	Phase3	test/STIM_026.jpg	100
2189.21	1.195	1195.2	test	Phase3	test/STIM_027.jpg	100
2193.341	1.298	1298.1	test	Phase3	test/STIM_027.jpg	99
2196.735	1.348	1348.5	test	Phase3	test/STIM_027.jpg	99
2201.481	0.722	722.0	test	Phase3	test/STIM_028.jpg	100
2204.814	0.817	817.0	test	Phase3	test/STIM_028.jpg	99
2209.476	1.416	1415.6	test	Phase3	test/STIM_028.jpg	99
2214.803	1.002	1001.9	test	Phase3	test/STIM_029.jpg	99
2218.356	0.886	886.0	test	Phase3	test/STIM_029.jpg	100
2221.491	0.789	789.0	test	Phase3	test/STIM_029.jpg	99
