onset	duration	response_time_ms	trial_type	learning_stage	stimulus	response_port
0.0	1.289	1288.9	incongruent	Block1	incongruent/STIM_000.jpg	100
3.842	1.297	1297.1	incongruent	Block1	incongruent/STIM_000.jpg	100
8.16	1.338	1338.3	incongruent	Block1	incongruent/STIM_000.jpg	100
12.679	1.161	1161.0	incongruent	Block1	incongruent/STIM_000.jpg	100
15.887	0.865	864.6	incongruent	Block1	incongruent/STIM_000.jpg	99
19.36	1.025	1025.0	incongruent	Block1	incongruent/STIM_001.jpg	99
22.69	1.369	1368.6	incongruent	Block1	incongruent/STIM_001.jpg	99
27.91	0.782	781.6	incongruent	Block1	incongruent/STIM_001.jpg	100
32.581	0.734	733.8	incongruent	Block1	incongruent/STIM_001.jpg	100
36.485	1.098	1097.9	incongruent	Block1	incongruent/STIM_001.jpg	99
39.931	1.072	1071.9	incongruent	Block1	incongruent/STIM_002.jpg	100
44.357	1.114	1114.5	incongruent	Block1	incongruent/STIM_002.jpg	100
49.168	0.943	943.4	incongruent	Block1	incongruent/STIM_002.jpg	100
54.071	1.162	1162.4	incongruent	Block1	incongruent/STIM_002.jpg	100
57.411	0.674	673.5	incongruent	Block1	incongruent/STIM_002.jpg	99
61.09	1.375	1375.1	incongruent	Block1	incongruent/STIM_003.jpg	99
65.566	1.113	1113.2	incongruent	Block1	incongruent/STIM_003.jpg	100
70.175	0.657	657.3	incongruent	Block1	incongruent/STIM_003.jpg	100
74.783	0.643	642.7	incongruent	Block1	incongruent/STIM_003.jpg	99
78.145	0.927	927.3	incongruent	Block1	incongruent/STIM_003.jpg	99
81.446	0.955	954.7	incongruent	Block1	incongruent/STIM_004.jpg	99
86.081	0.876	875.5	incongruent	Block1	incongruent/STIM_004.jpg	100
89.302	1.095	1095.3	incongruent	Block1	incongruent/STIM_004.jpg	100
93.459	0.764	763.5	incongruent	Block1	incongruent/STIM_004.jpg	100
98.13	0.627	627.0	incongruent	Block1	incongruent/STIM_004.jpg	99
101.032	1.187	1186.7	incongruent	Block1	incongruent/STIM_005.jpg	100
106.189	1.444	1444.0	incongruent	Block1	incongruent/STIM_005.jpg	100
111.519	1.139	1138.7	incongruent	Block1	incongruent/STIM_005.jpg	99
116.189	0.676	676.5	incongruent	Block1	incongruent/STIM_005.jpg	99
120.465	0.971	971.1	incongruent	Block1	incongruent/STIM_005.jpg	100
124.913	0.88	879.7	incongruent	Block1	incongruent/STIM_006.jpg	99
129.151	1.205	1204.7	incongruent	Block1	incongruent/STIM_006.jpg	100
133.118	0.677	676.6	incongruent	Block1	incongruent/STIM_006.jpg	99
136.188	0.687	686.8	incongruent	Block1	incongruent/STIM_006.jpg	99
140.824	1.071	1070.7	incongruent	Block1	incongruent/STIM_006.jpg	100
144.612	1.27	1270.0	incongruent	Block1	incongruent/STIM_007.jpg	100
149.409	1.201	1201.1	incongruent	Block1	incongruent/STIM_007.jpg	100
152.946	1.299	1299.2	incongruent	Block1	incongruent/STIM_007.jpg	99
158.188	0.712	712.5	incongruent	Block1	incongruent/STIM_007.jpg	100
162.52	0.723	723.0	incongruent	Block1	incongruent/STIM_007.jpg	100
166.323	1.426	1426.0	incongruent	Block1	incongruent/STIM_008.jpg	99
170.71	0.707	706.8	incongruent	Block1	incongruent/STIM_008.jpg	99
174.507	1.008	1007.8	incongruent	Block1	incongruent/STIM_008.jpg	99
177.805	1.214	1214.0	incongruent	Block1	incongruent/STIM_008.jpg	100
182.158	1.041	1041.1	incongruent	Block1	incongruent/STIM_008.jpg	100
185.603	1.512	1512.3	incongruent	Block1	incongruent/STIM_009.jpg	100
189.304	1.204	1204.5	incongruent	Block1	incongruent/STIM_009.jpg	100
194.251	1.004	1003.8	incongruent	Block1	incongruent/STIM_009.jpg	100
197.342	0.732	732.0	incongruent	Block1	incongruent/STIM_009.jpg	99
201.303	1.158	1158.1	incongruent	Block1	incongruent/STIM_009.jpg	100
205.028	0.929	929.2	incongruent	Block1	incongruent/STIM_010.jpg	99
208.309	1.335	1335.1	incongruent	Block1	incongruent/STIM_010.jpg	100
212.483	1.365	1364.8	incongruent	Block1	incongruent/STIM_010.jpg	100
216.271	1.206	1205.6	incongruent	Block1	incongruent/STIM_010.jpg	100
221.445	1.015	1015.2	incongruent	Block1	incongruent/STIM_010.jpg	100
225.683	0.92	920.2	incongruent	Block1	incongruent/STIM_011.jpg	100
230.273	1.231	1231.2	incongruent	Block1	incongruent/STIM_011.jpg	99
234.88	1.314	1313.9	incongruent	Block1	incongruent/STIM_011.jpg	100
239.503	0.849	848.6	incongruent	Block1	incongruent/STIM_011.jpg	99
244.114	0.62	620.5	incongruent	Block1	incongruent/STIM_011.jpg	100
248.321	0.837	836.6	incongruent	Block1	incongruent/STIM_012.jpg	99
252.146	0.877	877.2	incongruent	Block1	incongruent/STIM_012.jpg	100
255.548	0.922	921.7	incongruent	Block1	incongruent/STIM_012.jpg	100
259.367	1.232	1231.8	incongruent	Block1	incongruent/STIM_012.jpg	99
263.932	0.881	880.7	incongruent	Block1	incongruent/STIM_012.jpg	99
267.9	1.458	1457.8	incongruent	Block1	incongruent/STIM_013.jpg	99
272.877	0.929	929.4	incongruent	Block1	incongruent/STIM_013.jpg	99
277.395	1.389	1388.6	incongruent	Block1	incongruent/STIM_013.jpg	100
282.063	1.279	1278.7	incongruent	Block1	incongruent/STIM_013.jpg	99
286.934	0.977	977.4	incongruent	Block1	incongruent/STIM_013.jpg	99
290.812	1.551	1551.3	incongruent	Block1	incongruent/STIM_014.jpg	100
296.087	1.384	1383.6	incongruent	Block1	incongruent/STIM_014.jpg	99
299.725	0.978	977.9	incongruent	Block1	incongruent/STIM_014.jpg	99
304.519	0.803	803.0	incongruent	Block1	incongruent/STIM_014.jpg	99
308.315	0.974	973.8	incongruent	Block1	incongruent/STIM_014.jpg	100
311.337	0.932	931.6	incongruent	Block1	incongruent/STIM_015.jpg	100
315.798	1.057	1057.3	incongruent	Block1	incongruent/STIM_015.jpg	100
319.385	0.805	805.2	incongruent	Block1	incongruent/STIM_015.jpg	100
324.028	0.873	873.4	incongruent	Block1	incongruent/STIM_015.jpg	100
327.915	0.674	673.6	incongruent	Block1	incongruent/STIM_015.jpg	99
331.11	1.306	1306.3	incongruent	Block1	incongruent/STIM_016.jpg	100
335.894	1.031	1031.0	incongruent	Block1	incongruent/STIM_016.jpg	99
339.57	1.071	1071.2	incongruent	Block1	incongruent/STIM_016.jpg	100
342.789	1.257	1256.7	incongruent	Block1	incongruent/STIM_016.jpg	100
346.56	1.054	1053.5	incongruent	Block1	incongruent/STIM_016.jpg	99
349.785	1.16	1159.9	incongruent	Block1	incongruent/STIM_017.jpg	100
353.881	1.018	1017.8	incongruent	Block1	incongruent/STIM_017.jpg	100
358.604	1.338	1338.3	incongruent	Block1	incongruent/STIM_017.jpg	100
363.77	1.156	1156.3	incongruent	Block1	incongruent/STIM_017.jpg	99
367.148	0.929	929.4	incongruent	Block1	incongruent/STIM_017.jpg	100
370.861	0.923	922.8	incongruent	Block1	incongruent/STIM_018.jpg	100
375.603	0.947	946.6	incongruent	Block1	incongruent/STIM_018.jpg	99
380.351	0.836	836.0	incongruent	Block1	incongruent/STIM_018.jpg	100
384.267	1.003	1002.9	incongruent	Block1	incongruent/STIM_018.jpg	100
387.527	0.654	653.5	incongruent	Block1	incongruent/STIM_018.jpg	99
390.226	0.756	755.5	incongruent	Block1	incongruent/STIM_019.jpg	100
394.368	1.099	1098.6	incongruent	Block1	incongruent/STIM_019.jpg	100
397.611	0.717	717.2	incongruent	Block1	incongruent/STIM_019.jpg	100
401.793	0.961	961.1	incongruent	Block1	incongruent/STIM_019.jpg	99
406.471	1.173	1173.1	incongruent	Block1	incongruent/STIM_019.jpg	99
411.369	1.386	1385.7	incongruent	Block1	incongruent/STIM_020.jpg	100
415.805	1.046	1046.2	incongruent	Block1	incongruent/STIM_020.jpg	99
420.766	0.801	800.6	incongruent	Block1	incongruent/STIM_020.jpg	99
425.176	0.977	977.2	incongruent	Block1	incongruent/STIM_020.jpg	100
428.683	1.069	1069.1	incongruent	Block1	incongruent/STIM_020.jpg	100
432.253	1.326	1326.1	incongruent	Block1	incongruent/STIM_021.jpg	99
437.061	0.698	698.5	incongruent	Block1	incongruent/STIM_021.jpg	100
439.897	1.009	1009.0	incongruent	Block1	incongruent/STIM_021.jpg	99
444.788	0.646	646.5	incongruent	Block1	incongruent/STIM_021.jpg	100
448.382	0.839	839.3	incongruent	Block1	incongruent/STIM_021.jpg	99
451.875	0.925	925.1	incongruent	Block1	incongruent/STIM_022.jpg	99
456.066	1.447	1447.1	incongruent	Block1	incongruent/STIM_022.jpg	99
460.52	0.879	879.0	incongruent	Block1	incongruent/STIM_022.jpg	99
464.299	0.768	768.4	incongruent	Block1	incongruent/STIM_022.jpg	99
468.648	1.069	1069.1	incongruent	Block1	incongruent/STIM_022.jpg	100
471.824	1.154	1154.0	incongruent	Block1	incongruent/STIM_023.jpg	99
475.08	0.844	844.5	incongruent	Block1	incongruent/STIM_023.jpg	99
478.535	1.048	1047.7	incongruent	Block1	incongruent/STIM_023.jpg	99
482.663	0.874	874.3	incongruent	Block1	incongruent/STIM_023.jpg	99
485.91	0.79	790.5	incongruent	Block1	incongruent/STIM_023.jpg	100
489.596	0.956	956.0	incongruent	Block1	incongruent/STIM_024.jpg	99
493.423	1.413	1413.1	incongruent	Block1	incongruent/STIM_024.jpg	99
497.174	1.273	1273.3	incongruent	Block1	incongruent/STIM_024.jpg	100
500.951	0.73	730.1	incongruent	Block1	incongruent/STIM_024.jpg	99
505.534	1.124	1124.1	incongruent	Block1	incongruent/STIM_024.jpg	99
510.469	0.824	824.3	incongruent	Block1	incongruent/STIM_025.jpg	99
514.466	0.7	700.4	incongruent	Block1	incongruent/STIM_025.jpg	100
518.602	0.958	958.1	incongruent	Block1	incongruent/STIM_025.jpg	99
523.554	0.981	981.0	incongruent	Block1	incongruent/STIM_025.jpg	100
528.176	0.623	623.2	incongruent	Block1	incongruent/STIM_025.jpg	99
531.768	0.962	962.2	incongruent	Block1	incongruent/STIM_026.jpg	100
535.177	0.789	789.1	incongruent	Block1	incongruent/STIM_026.jpg	99
538.292	1.252	1251.9	incongruent	Block1	incongruent/STIM_026.jpg	99
542.779	0.676	675.5	incongruent	Block1	incongruent/STIM_026.jpg	100
545.71	1.025	1025.4	incongruent	Block1	incongruent/STIM_026.jpg	99
550.678	1.199	1198.9	incongruent	Block1	incongruent/STIM_027.jpg	99
555.33	0.953	952.8	incongruent	Block1	incongruent/STIM_027.jpg	99
559.995	0.66	659.9	incongruent	Block1	incongruent/STIM_027.jpg	99
564.484	0.708	707.7	incongruent	Block1	incongruent/STIM_027.jpg	100
567.752	1.141	1141.2	incongruent	Block1	incongruent/STIM_027.jpg	100
572.058	1.381	1380.7	incongruent	Block1	incongruent/STIM_028.jpg	99
575.792	1.075	1075.1	incongruent	Block1	incongruent/STIM_028.jpg	100
579.535	1.195	1194.8	incongruent	Block1	incongruent/STIM_028.jpg	100
582.908	0.651	651.1	incongruent	Block1	incongruent/STIM_028.jpg	100
586.562	0.812	811.8	incongruent	Block1	incongruent/STIM_028.jpg	99
590.57	0.844	844.4	incongruent	Block1	incongruent/STIM_029.jpg	100
593.555	1.002	1002.5	incongruent	Block1	incongruent/STIM_029.jpg	100
597.86	0.898	898.2	incongruent	Block1	incongruent/STIM_029.jpg	100
601.707	1.132	1131.6	incongruent	Block1	incongruent/STIM_029.jpg	100
606.76	1.225	1224.6	incongruent	Block1	incongruent/STIM_029.jpg	100
610.028	0.603	603.4	congruent	Block1	congruent/STIM_000.jpg	100
613.733	0.874	874.1	congruent	Block1	congruent/STIM_000.jpg	99
616.715	0.635	635.0	congruent	Block1	congruent/STIM_000.jpg	99
620.422	0.575	574.7	congruent	Block1	congruent/STIM_000.jpg	100
624.872	0.627	626.6	congruent	Block1	congruent/STIM_000.jpg	100
628.835	0.633	632.8	congruent	Block1	congruent/STIM_001.jpg	99
632.142	0.686	686.4	congruent	Block1	congruent/STIM_001.jpg	99
635.722	0.745	745.1	congruent	Block1	congruent/STIM_001.jpg	99
638.601	0.787	786.6	congruent	Block1	congruent/STIM_001.jpg	99
642.775	0.875	875.3	congruent	Block1	congruent/STIM_001.jpg	100
646.414	0.52	520.1	congruent	Block1	congruent/STIM_002.jpg	100
650.033	0.567	566.9	congruent	Block1	congruent/STIM_002.jpg	99
653.643	0.709	709.3	congruent	Block1	congruent/STIM_002.jpg	100
656.914	0.572	572.2	congruent	Block1	congruent/STIM_002.jpg	99
659.502	0.799	798.7	congruent	Block1	congruent/STIM_002.jpg	99
663.102	0.858	858.2	congruent	Block1	congruent/STIM_003.jpg	99
666.443	0.627	627.4	congruent	Block1	congruent/STIM_003.jpg	99
669.826	0.925	924.6	congruent	Block1	congruent/STIM_003.jpg	100
674.624	0.75	749.7	congruent	Block1	congruent/STIM_003.jpg	99
677.445	0.553	552.8	congruent	Block1	congruent/STIM_003.jpg	99
680.455	0.854	853.5	congruent	Block1	congruent/STIM_004.jpg	99
684.996	0.728	727.7	congruent	Block1	congruent/STIM_004.jpg	99
688.675	0.666	665.7	congruent	Block1	congruent/STIM_004.jpg	99
692.84	0.631	630.9	congruent	Block1	congruent/STIM_004.jpg	100
697.462	0.762	761.6	congruent	Block1	congruent/STIM_004.jpg	100
700.447	0.865	864.7	congruent	Block1	congruent/STIM_005.jpg	99
704.142	0.534	533.6	congruent	Block1	congruent/STIM_005.jpg	99
708.096	0.721	721.2	congruent	Block1	congruent/STIM_005.jpg	100
711.406	0.929	928.7	congruent	Block1	congruent/STIM_005.jpg	99
714.42	0.774	774.5	congruent	Block1	congruent/STIM_005.jpg	100
718.801	0.712	712.4	congruent	Block1	congruent/STIM_006.jpg	100
723.147	0.725	725.4	congruent	Block1	congruent/STIM_006.jpg	100
726.343	0.661	661.0	congruent	Block1	congruent/STIM_006.jpg	100
730.577	0.538	538.2	congruent	Block1	congruent/STIM_006.jpg	99
734.88	0.829	829.0	congruent	Block1	congruent/STIM_006.jpg	100
739.627	0.856	856.1	congruent	Block1	congruent/STIM_007.jpg	100
743.389	0.882	882.3	congruent	Block1	congruent/STIM_007.jpg	99
748.1	0.905	905.2	congruent	Block1	congruent/STIM_007.jpg	100
751.083	0.601	601.0	congruent	Block1	congruent/STIM_007.jpg	99
755.053	0.814	814.2	congruent	Block1	congruent/STIM_007.jpg	99
758.87	0.721	721.4	congruent	Block1	congruent/STIM_008.jpg	100
762.624	0.665	664.8	congruent	Block1	congruent/STIM_008.jpg	100
766.223	0.766	766.1	congruent	Block1	congruent/STIM_008.jpg	100
769.501	0.862	862.3	congruent	Block1	congruent/STIM_008.jpg	100
773.627	0.672	672.2	congruent	Block1	congruent/STIM_008.jpg	99
777.365	0.593	593.3	congruent	Block1	congruent/STIM_009.jpg	100
781.207	0.78	780.2	congruent	Block1	congruent/STIM_009.jpg	99
784.232	0.595	594.9	congruent	Block1	congruent/STIM_009.jpg	100
788.29	0.651	650.7	congruent	Block1	congruent/STIM_009.jpg	99
791.706	0.751	751.4	congruent	Block1	congruent/STIM_009.jpg	100
795.412	0.692	692.1	congruent	Block1	congruent/STIM_010.jpg	99
799.684	0.808	807.8	congruent	Block1	congruent/STIM_010.jpg	99
803.666	0.665	665.3	congruent	Block1	congruent/STIM_010.jpg	100
808.037	0.773	773.3	congruent	Block1	congruent/STIM_010.jpg	99
811.036	0.686	686.4	congruent	Block1	congruent/STIM_010.jpg	100
814.712	0.923	923.0	congruent	Block1	congruent/STIM_011.jpg	100
819.484	0.898	898.3	congruent	Block1	congruent/STIM_011.jpg	100
822.449	0.862	861.8	congruent	Block1	congruent/STIM_011.jpg	100
826.932	0.874	873.7	congruent	Block1	congruent/STIM_011.jpg	99
830.108	0.704	704.5	congruent	Block1	congruent/STIM_011.jpg	99
834.447	0.535	534.9	congruent	Block1	congruent/STIM_012.jpg	99
838.169	0.831	830.7	congruent	Block1	congruent/STIM_012.jpg	99
842.57	0.685	684.9	congruent	Block1	congruent/STIM_012.jpg	99
846.031	0.926	926.1	congruent	Block1	congruent/STIM_012.jpg	99
850.744	0.668	668.2	congruent	Block1	congruent/STIM_012.jpg	99
855.328	0.634	634.3	congruent	Block1	congruent/STIM_013.jpg	100
859.115	0.558	557.7	congruent	Block1	congruent/STIM_013.jpg	100
862.389	0.576	575.8	congruent	Block1	congruent/STIM_013.jpg	100
866.768	0.722	722.2	congruent	Block1	congruent/STIM_013.jpg	100
870.634	0.786	785.6	congruent	Block1	congruent/STIM_013.jpg	99
874.408	0.57	570.3	congruent	Block1	congruent/STIM_014.jpg	100
878.916	0.631	630.7	congruent	Block1	congruent/STIM_014.jpg	100
882.925	0.864	864.4	congruent	Block1	congruent/STIM_014.jpg	99
887.742	0.808	808.0	congruent	Block1	congruent/STIM_014.jpg	99
891.984	0.599	598.8	congruent	Block1	congruent/STIM_014.jpg	99
895.176	0.684	683.8	congruent	Block1	congruent/STIM_015.jpg	99
898.672	0.748	747.7	congruent	Block1	congruent/STIM_015.jpg	100
902.689	0.535	534.9	congruent	Block1	congruent/STIM_015.jpg	99
905.781	0.759	758.8	congruent	Block1	congruent/STIM_015.jpg	99
908.677	0.666	666.2	congruent	Block1	congruent/STIM_015.jpg	100
912.23	0.697	697.1	congruent	Block1	congruent/STIM_016.jpg	99
916.191	0.714	714.3	congruent	Block1	congruent/STIM_016.jpg	100
919.543	0.749	748.9	congruent	Block1	congruent/STIM_016.jpg	99
922.301	0.924	924.1	congruent	Block1	congruent/STIM_016.jpg	99
926.769	0.576	576.4	congruent	Block1	congruent/STIM_016.jpg	100
929.513	0.6	600.4	congruent	Block1	congruent/STIM_017.jpg	100
932.756	0.902	901.6	congruent	Block1	congruent/STIM_017.jpg	100
937.513	0.744	743.9	congruent	Block1	congruent/STIM_017.jpg	99
940.412	0.795	794.8	congruent	Block1	congruent/STIM_017.jpg	100
944.393	0.653	653.2	congruent	Block1	congruent/STIM_017.jpg	99
947.551	0.73	730.4	congruent	Block1	congruent/STIM_018.jpg	100
951.417	0.848	848.2	congruent	Block1	congruent/STIM_018.jpg	100
955.81	0.521	520.9	congruent	Block1	congruent/STIM_018.jpg	100
959.409	0.678	677.6	congruent	Block1	congruent/STIM_018.jpg	99
963.166	0.653	653.3	congruent	Block1	congruent/STIM_018.jpg	99
966.289	0.703	703.2	congruent	Block1	congruent/STIM_019.jpg	99
969.378	0.824	824.5	congruent	Block1	congruent/STIM_019.jpg	99
973.809	0.549	548.8	congruent	Block1	congruent/STIM_019.jpg	99
977.527	0.564	564.5	congruent	Block1	congruent/STIM_019.jpg	99
981.536	0.626	626.5	congruent	Block1	congruent/STIM_019.jpg	99
986.152	0.77	770.2	congruent	Block1	congruent/STIM_020.jpg	100
990.868	0.615	615.2	congruent	Block1	congruent/STIM_020.jpg	99
994.518	0.672	672.5	congruent	Block1	congruent/STIM_020.jpg	99
998.861	0.808	807.9	congruent	Block1	congruent/STIM_020.jpg	99
1002.141	0.759	759.3	congruent	Block1	congruent/STIM_020.jpg	99
1005.69	0.693	692.6	congruent	Block1	congruent/STIM_021.jpg	100
1009.367	0.593	592.7	congruent	Block1	congruent/STIM_021.jpg	100
1013.019	0.713	713.3	congruent	Block1	congruent/STIM_021.jpg	100
1016.922	0.567	567.2	congruent	Block1	congruent/STIM_021.jpg	100
1020.803	0.687	686.6	congruent	Block1	congruent/STIM_021.jpg	99
1025.272	0.902	901.5	congruent	Block1	congruent/STIM_022.jpg	100
1028.405	0.722	722.3	congruent	Block1	congruent/STIM_022.jpg	100
1032.089	0.688	687.5	congruent	Block1	congruent/STIM_022.jpg	100
1034.888	0.608	607.5	congruent	Block1	congruent/STIM_022.jpg	100
1038.768	0.576	576.3	congruent	Block1	congruent/STIM_022.jpg	99
1042.38	0.815	814.9	congruent	Block1	congruent/STIM_023.jpg	99
1045.283	0.788	787.6	congruent	Block1	congruent/STIM_023.jpg	99
1048.829	0.744	743.7	congruent	Block1	congruent/STIM_023.jpg	99
1052.555	0.562	562.1	congruent	Block1	congruent/STIM_023.jpg	100
1056.724	0.672	671.5	congruent	Block1	congruent/STIM_023.jpg	99
1061.097	0.809	808.6	congruent	Block1	congruent/STIM_024.jpg	100
1065.331	0.74	740.1	congruent	Block1	congruent/STIM_024.jpg	99
1068.238	0.572	572.1	congruent	Block1	congruent/STIM_024.jpg	100
1071.587	0.571	571.1	congruent	Block1	congruent/STIM_024.jpg	100
1076.052	0.726	726.2	congruent	Block1	congruent/STIM_024.jpg	99
1080.071	0.638	638.1	congruent	Block1	congruent/STIM_025.jpg	99
1084.384	0.908	908.4	congruent	Block1	congruent/STIM_025.jpg	99
1087.556	0.52	519.5	congruent	Block1	congruent/STIM_025.jpg	99
1090.548	0.674	674.2	congruent	Block1	congruent/STIM_025.jpg	99
1093.676	0.639	638.7	congruent	Block1	congruent/STIM_025.jpg	99
1096.457	0.735	735.0	congruent	Block1	congruent/STIM_026.jpg	99
1099.302	0.776	775.6	congruent	Block1	congruent/STIM_026.jpg	100
1103.483	0.644	643.5	congruent	Block1	congruent/STIM_026.jpg	99
1106.161	0.702	702.1	congruent	Block1	congruent/STIM_026.jpg	100
1110.502	0.833	833.4	congruent	Block1	congruent/STIM_026.jpg	100
1115.223	0.862	862.2	congruent	Block1	congruent/STIM_027.jpg	99
1118.933	0.666	666.1	congruent	Block1	congruent/STIM_027.jpg	100
1123.505	0.658	658.3	congruent	Block1	congruent/STIM_027.jpg	99
1126.473	0.526	525.8	congruent	Block1	congruent/STIM_027.jpg	100
1130.654	0.604	603.6	congruent	Block1	congruent/STIM_027.jpg	99
1134.268	0.809	808.7	congruent	Block1	congruent/STIM_028.jpg	99
1138.939	0.522	521.9	congruent	Block1	congruent/STIM_028.jpg	100
1141.575	0.668	668.0	congruent	Block1	congruent/STIM_028.jpg	100
1145.062	0.549	549.1	congruent	Block1	congruent/STIM_028.jpg	99
1147.948	0.578	578.5	congruent	Block1	congruent/STIM_028.jpg	100
1151.15	0.556	555.7	congruent	Block1	congruent/STIM_029.jpg	100
1155.321	0.735	735.1	congruent	Block1	congruent/STIM_029.jpg	100
1158.835	0.639	638.6	congruent	Block1	congruent/STIM_029.jpg	99
1163.414	0.929	928.6	congruent	Block1	congruent/STIM_029.jpg	99
1168.135	0.678	677.7	congruent	Block1	congruent/STIM_029.jpg	100
1170.98	0.782	782.2	incongruent	Block2	incongruent/STIM_000.jpg	99
1175.548	0.79	789.5	incongruent	Block2	incongruent/STIM_000.jpg	99
1179.895	0.789	788.6	incongruent	Block2	incongruent/STIM_000.jpg	100
1183.576	1.077	1076.8	incongruent	Block2	incongruent/STIM_000.jpg	100
1187.74	0.7	699.7	incongruent	Block2	incongruent/STIM_000.jpg	99
1191.304	1.254	1254.4	incongruent	Block2	incongruent/STIM_001.jpg	99
1195.92	0.932	932.0	incongruent	Block2	incongruent/STIM_001.jpg	99
1200.719	1.088	1088.0	incongruent	Block2	incongruent/STIM_001.jpg	100
1204.727	0.641	641.2	incongruent	Block2	incongruent/STIM_001.jpg	100
1208.358	0.512	511.6	incongruent	Block2	incongruent/STIM_001.jpg	99
1212.023	0.969	968.9	incongruent	Block2	incongruent/STIM_002.jpg	99
1215.555	0.833	833.4	incongruent	Block2	incongruent/STIM_002.jpg	99
1218.945	1.039	1039.3	incongruent	Block2	incongruent/STIM_002.jpg	100
1222.846	0.876	876.5	incongruent	Block2	incongruent/STIM_002.jpg	99
1227.706	1.055	1054.7	incongruent	Block2	incongruent/STIM_002.jpg	100
1232.469	0.79	790.4	incongruent	Block2	incongruent/STIM_003.jpg	100
1235.341	0.58	580.0	incongruent	Block2	incongruent/STIM_003.jpg	100
1238.263	1.124	1124.4	incongruent	Block2	incongruent/STIM_003.jpg	99
1243.114	0.536	536.0	incongruent	Block2	incongruent/STIM_003.jpg	100
1247.611	0.989	989.4	incongruent	Block2	incongruent/STIM_003.jpg	99
1251.163	0.786	785.7	incongruent	Block2	incongruent/STIM_004.jpg	99
1254.73	0.584	583.6	incongruent	Block2	incongruent/STIM_004.jpg	100
1258.872	0.653	653.3	incongruent	Block2	incongruent/STIM_004.jpg	99
1261.534	0.712	712.4	incongruent	Block2	incongruent/STIM_004.jpg	99
1264.592	0.994	993.7	incongruent	Block2	incongruent/STIM_004.jpg	99
1268.466	0.944	943.6	incongruent	Block2	incongruent/STIM_005.jpg	100
1271.872	0.943	942.8	incongruent	Block2	incongruent/STIM_005.jpg	100
1275.063	0.777	777.3	incongruent	Block2	incongruent/STIM_005.jpg	99
1277.997	0.529	528.9	incongruent	Block2	incongruent/STIM_005.jpg	99
1280.653	0.892	891.9	incongruent	Block2	incongruent/STIM_005.jpg	100
1284.068	0.962	962.2	incongruent	Block2	incongruent/STIM_006.jpg	99
1288.196	0.637	637.3	incongruent	Block2	incongruent/STIM_006.jpg	100
1291.683	0.776	775.9	incongruent	Block2	incongruent/STIM_006.jpg	100
1295.294	0.539	538.6	incongruent	Block2	incongruent/STIM_006.jpg	100
1299.614	0.718	717.6	incongruent	Block2	incongruent/STIM_006.jpg	100
1302.694	1.073	1072.8	incongruent	Block2	incongruent/STIM_007.jpg	99
1306.783	0.89	889.9	incongruent	Block2	incongruent/STIM_007.jpg	100
1310.486	0.928	927.9	incongruent	Block2	incongruent/STIM_007.jpg	99
1314.422	0.976	976.4	incongruent	Block2	incongruent/STIM_007.jpg	100
1318.934	1.01	1009.8	incongruent	Block2	incongruent/STIM_007.jpg	99
1322.612	0.791	791.1	incongruent	Block2	incongruent/STIM_008.jpg	99
1325.954	1.156	1156.4	incongruent	Block2	incongruent/STIM_008.jpg	99
1330.28	0.787	786.8	incongruent	Block2	incongruent/STIM_008.jpg	100
1333.552	0.592	592.2	incongruent	Block2	incongruent/STIM_008.jpg	99
1337.131	1.061	1060.8	incongruent	Block2	incongruent/STIM_008.jpg	100
1342.173	0.948	947.7	incongruent	Block2	incongruent/STIM_009.jpg	100
1346.204	1.148	1147.7	incongruent	Block2	incongruent/STIM_009.jpg	99
1350.013	0.781	781.0	incongruent	Block2	incongruent/STIM_009.jpg	99
1353.361	0.641	640.7	incongruent	Block2	incongruent/STIM_009.jpg	99
1356.295	0.885	884.6	incongruent	Block2	incongruent/STIM_009.jpg	99
1359.473	0.94	940.1	incongruent	Block2	incongruent/STIM_010.jpg	100
1363.934	1.083	1083.4	incongruent	Block2	incongruent/STIM_010.jpg	99
1367.177	0.781	781.0	incongruent	Block2	incongruent/STIM_010.jpg	100
1371.657	0.831	830.7	incongruent	Block2	incongruent/STIM_010.jpg	100
1375.959	0.509	509.5	incongruent	Block2	incongruent/STIM_010.jpg	99
1380.191	0.95	949.6	incongruent	Block2	incongruent/STIM_011.jpg	100
1384.947	0.723	723.1	incongruent	Block2	incongruent/STIM_011.jpg	99
1388.511	0.972	971.5	incongruent	Block2	incongruent/STIM_011.jpg	100
1392.297	1.056	1056.4	incongruent	Block2	incongruent/STIM_011.jpg	99
1396.645	0.911	910.9	incongruent	Block2	incongruent/STIM_011.jpg	100
1400.367	1.175	1174.8	incongruent	Block2	incongruent/STIM_012.jpg	99
1404.109	0.71	710.0	incongruent	Block2	incongruent/STIM_012.jpg	99
1407.639	1.142	1141.7	incongruent	Block2	incongruent/STIM_012.jpg	99
1411.247	0.966	965.7	incongruent	Block2	incongruent/STIM_012.jpg	100
1415.797	0.637	637.2	incongruent	Block2	incongruent/STIM_012.jpg	100
1419.973	1.062	1062.4	incongruent	Block2	incongruent/STIM_013.jpg	100
1424.088	0.606	605.7	incongruent	Block2	incongruent/STIM_013.jpg	100
1427.702	0.601	600.7	incongruent	Block2	incongruent/STIM_013.jpg	100
1431.01	1.012	1012.1	incongruent	Block2	incongruent/STIM_013.jpg	99
1435.498	1.002	1002.4	incongruent	Block2	incongruent/STIM_013.jpg	100
1439.978	0.791	791.4	incongruent	Block2	incongruent/STIM_014.jpg	99
1444.205	0.614	614.0	incongruent	Block2	incongruent/STIM_014.jpg	100
1448.266	0.771	771.2	incongruent	Block2	incongruent/STIM_014.jpg	99
1451.685	0.642	641.8	incongruent	Block2	incongruent/STIM_014.jpg	100
1455.511	0.833	833.3	incongruent	Block2	incongruent/STIM_014.jpg	100
1458.587	0.812	812.4	incongruent	Block2	incongruent/STIM_015.jpg	99
1462.215	0.813	812.6	incongruent	Block2	incongruent/STIM_015.jpg	99
1466.419	0.621	621.1	incongruent	Block2	incongruent/STIM_015.jpg	100
1470.665	0.912	911.6	incongruent	Block2	incongruent/STIM_015.jpg	100
1475.261	0.641	641.0	incongruent	Block2	incongruent/STIM_015.jpg	99
1479.646	0.993	993.4	incongruent	Block2	incongruent/STIM_016.jpg	99
1483.082	0.628	628.3	incongruent	Block2	incongruent/STIM_016.jpg	99
1486.821	0.993	993.4	incongruent	Block2	incongruent/STIM_016.jpg	100
1490.343	0.657	656.8	incongruent	Block2	incongruent/STIM_016.jpg	99
1493.371	0.888	888.5	incongruent	Block2	incongruent/STIM_016.jpg	99
1497.374	0.634	634.2	incongruent	Block2	incongruent/STIM_017.jpg	99
1500.885	1.168	1168.3	incongruent	Block2	incongruent/STIM_017.jpg	100
1504.834	0.938	938.2	incongruent	Block2	incongruent/STIM_017.jpg	99
1508.767	0.981	981.2	incongruent	Block2	incongruent/STIM_017.jpg	100
1513.296	1.029	1029.0	incongruent	Block2	incongruent/STIM_017.jpg	99
1516.923	1.122	1121.6	incongruent	Block2	incongruent/STIM_018.jpg	99
1521.297	0.959	959.2	incongruent	Block2	incongruent/STIM_018.jpg	99
1525.412	1.01	1009.7	incongruent	Block2	incongruent/STIM_018.jpg	99
1528.563	0.856	856.1	incongruent	Block2	incongruent/STIM_018.jpg	100
1531.494	1.033	1033.0	incongruent	Block2	incongruent/STIM_018.jpg	99
1535.012	1.097	1097.0	incongruent	Block2	incongruent/STIM_019.jpg	100
1539.871	0.939	939.1	incongruent	Block2	incongruent/STIM_019.jpg	100
1543.087	1.044	1044.1	incongruent	Block2	incongruent/STIM_019.jpg	99
1546.663	0.677	676.8	incongruent	Block2	incongruent/STIM_019.jpg	100
1550.112	0.922	921.9	incongruent	Block2	incongruent/STIM_019.jpg	99
1554.794	1.182	1181.6	incongruent	Block2	incongruent/STIM_020.jpg	99
1558.36	1.138	1137.8	incongruent	Block2	incongruent/STIM_020.jpg	99
1563.164	0.913	913.0	incongruent	Block2	incongruent/STIM_020.jpg	99
1566.665	0.624	624.0	incongruent	Block2	incongruent/STIM_020.jpg	99
1569.945	0.801	800.7	incongruent	Block2	incongruent/STIM_020.jpg	99
1574.711	1.141	1140.8	incongruent	Block2	incongruent/STIM_021.jpg	99
1579.275	0.863	863.3	incongruent	Block2	incongruent/STIM_021.jpg	100
1583.351	0.549	549.4	incongruent	Block2	incongruent/STIM_021.jpg	100
1586.772	0.778	777.6	incongruent	Block2	incongruent/STIM_021.jpg	100
1589.665	0.718	717.6	incongruent	Block2	incongruent/STIM_021.jpg	100
1594.298	0.903	903.2	incongruent	Block2	incongruent/STIM_022.jpg	99
1597.502	1.039	1038.8	incongruent	Block2	incongruent/STIM_022.jpg	100
1601.673	0.794	793.8	incongruent	Block2	incongruent/STIM_022.jpg	100
1605.853	0.611	610.8	incongruent	Block2	incongruent/STIM_022.jpg	100
1610.296	0.752	752.4	incongruent	Block2	incongruent/STIM_022.jpg	100
1614.054	1.034	1033.9	incongruent	Block2	incongruent/STIM_023.jpg	99
1619.014	0.886	886.5	incongruent	Block2	incongruent/STIM_023.jpg	99
1622.263	1.115	1115.3	incongruent	Block2	incongruent/STIM_023.jpg	99
1627.236	0.624	624.0	incongruent	Block2	incongruent/STIM_023.jpg	100
1630.254	1.04	1039.6	incongruent	Block2	incongruent/STIM_023.jpg	99
1635.241	0.699	699.0	incongruent	Block2	incongruent/STIM_024.jpg	99
1638.525	1.068	1068.4	incongruent	Block2	incongruent/STIM_024.jpg	100
1642.648	0.629	629.3	incongruent	Block2	incongruent/STIM_024.jpg	100
1646.504	1.004	1004.3	incongruent	Block2	incongruent/STIM_024.jpg	99
1650.133	0.828	828.0	incongruent	Block2	incongruent/STIM_024.jpg	99
1654.088	1.267	1266.8	incongruent	Block2	incongruent/STIM_025.jpg	99
1658.88	0.616	616.2	incongruent	Block2	incongruent/STIM_025.jpg	100
1662.768	0.932	931.5	incongruent	Block2	incongruent/STIM_025.jpg	100
1665.891	0.984	983.7	incongruent	Block2	incongruent/STIM_025.jpg	99
1670.417	0.711	710.7	incongruent	Block2	incongruent/STIM_025.jpg	99
1673.525	0.913	913.1	incongruent	Block2	incongruent/STIM_026.jpg	99
1677.328	1.196	1196.1	incongruent	Block2	incongruent/STIM_026.jpg	100
1681.985	0.762	761.8	incongruent	Block2	incongruent/STIM_026.jpg	99
1685.122	0.817	817.1	incongruent	Block2	incongruent/STIM_026.jpg	99
1689.624	0.536	536.1	incongruent	Block2	incongruent/STIM_026.jpg	99
1692.466	0.616	616.4	incongruent	Block2	incongruent/STIM_027.jpg	100
1696.743	1.113	1112.9	incongruent	Block2	incongruent/STIM_027.jpg	99
1699.868	0.892	892.3	incongruent	Block2	incongruent/STIM_027.jpg	99
1704.686	0.541	541.3	incongruent	Block2	incongruent/STIM_027.jpg	99
1708.744	0.765	764.6	incongruent	Block2	incongruent/STIM_027.jpg	99
1713.287	0.945	944.9	incongruent	Block2	incongruent/STIM_028.jpg	100
1716.788	0.613	612.6	incongruent	Block2	incongruent/STIM_028.jpg	100
1720.175	0.931	931.2	incongruent	Block2	incongruent/STIM_028.jpg	99
1725.094	1.0	1000.0	incongruent	Block2	incongruent/STIM_028.jpg	100
1729.296	0.722	722.2	incongruent	Block2	incongruent/STIM_028.jpg	99
1733.0	0.822	821.6	incongruent	Block2	incongruent/STIM_029.jpg	99
1735.96	0.728	727.7	incongruent	Block2	incongruent/STIM_029.jpg	100
1738.741	1.046	1045.6	incongruent	Block2	incongruent/STIM_029.jpg	100
1741.989	0.923	923.0	incongruent	Block2	incongruent/STIM_029.jpg	99
1746.029	0.896	896.4	incongruent	Block2	incongruent/STIM_029.jpg	99
1750.058	0.71	709.7	congruent	Block2	congruent/STIM_000.jpg	99
1754.75	0.815	815.3	congruent	Block2	congruent/STIM_000.jpg	100
1758.935	0.726	725.8	congruent	Block2	congruent/STIM_000.jpg	99
1762.963	0.637	637.2	congruent	Block2	congruent/STIM_000.jpg	99
1766.254	0.741	741.4	congruent	Block2	congruent/STIM_000.jpg	100
1770.072	0.912	912.1	congruent	Block2	congruent/STIM_001.jpg	100
1774.908	0.647	646.9	congruent	Block2	congruent/STIM_001.jpg	100
1777.576	0.609	609.4	congruent	Block2	congruent/STIM_001.jpg	100
1781.639	0.841	841.3	congruent	Block2	congruent/STIM_001.jpg	100
1784.621	0.59	589.5	congruent	Block2	congruent/STIM_001.jpg	99
1788.12	0.699	698.7	congruent	Block2	congruent/STIM_002.jpg	99
1792.14	0.624	624.1	congruent	Block2	congruent/STIM_002.jpg	99
1796.006	0.637	637.4	congruent	Block2	congruent/STIM_002.jpg	100
1799.684	0.64	640.1	congruent	Block2	congruent/STIM_002.jpg	99
1802.787	0.584	584.0	congruent	Block2	congruent/STIM_002.jpg	100
1805.416	0.638	638.1	congruent	Block2	congruent/STIM_003.jpg	99
1808.565	0.68	680.5	congruent	Block2	congruent/STIM_003.jpg	99
1812.433	0.687	686.6	congruent	Block2	congruent/STIM_003.jpg	100
1816.964	0.663	663.1	congruent	Block2	congruent/STIM_003.jpg	100
1821.098	0.565	564.6	congruent	Block2	congruent/STIM_003.jpg	100
1824.801	0.576	576.0	congruent	Block2	congruent/STIM_004.jpg	99
1827.823	0.848	847.7	congruent	Block2	congruent/STIM_004.jpg	99
1832.292	0.785	785.0	congruent	Block2	congruent/STIM_004.jpg	100
1836.22	0.628	628.4	congruent	Block2	congruent/STIM_004.jpg	99
1839.28	0.755	754.8	congruent	Block2	congruent/STIM_004.jpg	99
1842.539	0.875	874.8	congruent	Block2	congruent/STIM_005.jpg	100
1846.754	0.788	788.4	congruent	Block2	congruent/STIM_005.jpg	99
1850.583	0.714	713.6	congruent	Block2	congruent/STIM_005.jpg	100
1853.812	0.634	633.9	congruent	Block2	congruent/STIM_005.jpg	99
1857.516	0.574	573.8	congruent	Block2	congruent/STIM_005.jpg	99
1861.806	0.871	870.9	congruent	Block2	congruent/STIM_006.jpg	100
1865.038	0.867	866.6	congruent	Block2	congruent/STIM_006.jpg	99
1868.817	0.579	578.8	congruent	Block2	congruent/STIM_006.jpg	99
1873.039	0.744	743.5	congruent	Block2	congruent/STIM_006.jpg	100
1877.262	0.699	699.1	congruent	Block2	congruent/STIM_006.jpg	100
1880.864	0.887	887.2	congruent	Block2	congruent/STIM_007.jpg	99
1884.308	0.705	705.1	congruent	Block2	congruent/STIM_007.jpg	100
1888.352	0.91	909.7	congruent	Block2	congruent/STIM_007.jpg	99
1891.868	0.902	902.1	congruent	Block2	congruent/STIM_007.jpg	99
1895.059	0.564	564.1	congruent	Block2	congruent/STIM_007.jpg	99
1898.829	0.648	647.8	congruent	Block2	congruent/STIM_008.jpg	99
1902.864	0.612	612.2	congruent	Block2	congruent/STIM_008.jpg	99
1905.931	0.555	554.8	congruent	Block2	congruent/STIM_008.jpg	100
1909.487	0.928	927.8	congruent	Block2	congruent/STIM_008.jpg	100
1912.592	0.616	615.9	congruent	Block2	congruent/STIM_008.jpg	99
1915.404	0.869	868.9	congruent	Block2	congruent/STIM_009.jpg	100
1918.865	0.855	854.7	congruent	Block2	congruent/STIM_009.jpg	99
1923.511	0.564	563.9	congruent	Block2	congruent/STIM_009.jpg	99
1928.055	0.576	575.6	congruent	Block2	congruent/STIM_009.jpg	99
1931.075	0.623	622.6	congruent	Block2	congruent/STIM_009.jpg	99
1934.593	0.522	521.7	congruent	Block2	congruent/STIM_010.jpg	99
1937.799	0.693	693.2	congruent	Block2	congruent/STIM_010.jpg	99
1941.388	0.69	690.0	congruent	Block2	congruent/STIM_010.jpg	99
1944.745	0.931	930.7	congruent	Block2	congruent/STIM_010.jpg	99
1947.889	0.573	573.2	congruent	Block2	congruent/STIM_010.jpg	99
1951.473	0.727	727.3	congruent	Block2	congruent/STIM_011.jpg	100
1955.62	0.54	539.6	congruent	Block2	congruent/STIM_011.jpg	100
1958.799	0.909	909.4	congruent	Block2	congruent/STIM_011.jpg	99
1963.243	0.583	583.3	congruent	Block2	congruent/STIM_011.jpg	99
1967.664	0.879	878.9	congruent	Block2	congruent/STIM_011.jpg	100
1971.894	0.885	884.6	congruent	Block2	congruent/STIM_012.jpg	100
1975.309	0.74	740.5	congruent	Block2	congruent/STIM_012.jpg	100
1978.743	0.924	924.2	congruent	Block2	congruent/STIM_012.jpg	100
1982.82	0.848	847.6	congruent	Block2	congruent/STIM_012.jpg	100
1986.536	0.7	700.1	congruent	Block2	congruent/STIM_012.jpg	100
1991.127	0.526	526.5	congruent	Block2	congruent/STIM_013.jpg	100
1994.668	0.784	784.1	congruent	Block2	congruent/STIM_013.jpg	100
1997.9	0.807	806.9	congruent	Block2	congruent/STIM_013.jpg	99
2001.994	0.864	864.0	congruent	Block2	congruent/STIM_013.jpg	99
2006.612	0.736	736.1	congruent	Block2	congruent/STIM_013.jpg	99
2011.009	0.903	902.7	congruent	Block2	congruent/STIM_014.jpg	100
2014.587	0.904	904.5	congruent	Block2	congruent/STIM_014.jpg	99
2018.589	0.819	819.3	congruent	Block2	congruent/STIM_014.jpg	99
2022.53	0.681	681.1	congruent	Block2	congruent/STIM_014.jpg	100
2025.69	0.902	902.1	congruent	Block2	congruent/STIM_014.jpg	99
2028.765	0.623	622.8	congruent	Block2	congruent/STIM_015.jpg	100
2032.299	0.652	651.8	congruent	Block2	congruent/STIM_015.jpg	100
2035.389	0.696	695.9	congruent	Block2	congruent/STIM_015.jpg	100
2039.848	0.694	693.6	congruent	Block2	congruent/STIM_015.jpg	99
2043.934	0.589	589.4	congruent	Block2	congruent/STIM_015.jpg	99
2047.115	0.715	714.9	congruent	Block2	congruent/STIM_016.jpg	99
2051.621	0.6	599.8	congruent	Block2	congruent/STIM_016.jpg	99
2054.268	0.698	697.7	congruent	Block2	congruent/STIM_016.jpg	99
2057.641	0.917	916.7	congruent	Block2	congruent/STIM_016.jpg	100
2061.912	0.717	716.6	congruent	Block2	congruent/STIM_016.jpg	99
2065.656	0.657	657.1	congruent	Block2	congruent/STIM_017.jpg	100
2068.611	0.773	773.0	congruent	Block2	congruent/STIM_017.jpg	100
2072.76	0.926	925.9	congruent	Block2	congruent/STIM_017.jpg	99
2077.263	0.712	711.7	congruent	Block2	congruent/STIM_017.jpg	100
2081.483	0.838	838.1	congruent	Block2	congruent/STIM_017.jpg	100
2084.891	0.643	642.7	congruent	Block2	congruent/STIM_018.jpg	99
2087.949	0.869	868.9	congruent	Block2	congruent/STIM_018.jpg	99
2092.777	0.919	919.1	congruent	Block2	congruent/STIM_018.jpg	100
2097.454	0.628	628.0	congruent	Block2	congruent/STIM_018.jpg	99
2100.182	0.918	917.5	congruent	Block2	congruent/STIM_018.jpg	100
2104.464	0.685	684.6	congruent	Block2	congruent/STIM_019.jpg	99
2107.169	0.905	905.2	congruent	Block2	congruent/STIM_019.jpg	99
2110.664	0.66	660.1	congruent	Block2	congruent/STIM_019.jpg	100
2115.137	0.794	793.5	congruent	Block2	congruent/STIM_019.jpg	99
2118.767	0.518	517.9	congruent	Block2	congruent/STIM_019.jpg	100
2121.362	0.752	751.7	congruent	Block2	congruent/STIM_020.jpg	100
2124.63	0.856	856.1	congruent	Block2	congruent/STIM_020.jpg	99
2128.609	0.527	527.1	congruent	Block2	congruent/STIM_020.jpg	100
2131.855	0.928	928.2	congruent	Block2	congruent/STIM_020.jpg	100
2136.503	0.924	923.6	congruent	Block2	congruent/STIM_020.jpg	99
2141.251	0.844	843.7	congruent	Block2	congruent/STIM_021.jpg	99
2145.172	0.743	742.6	congruent	Block2	congruent/STIM_021.jpg	99
2148.098	0.521	520.6	congruent	Block2	congruent/STIM_021.jpg	100
2150.827	0.612	612.2	congruent	Block2	congruent/STIM_021.jpg	100
2155.076	0.742	742.5	congruent	Block2	congruent/STIM_021.jpg	100
2158.089	0.581	580.7	congruent	Block2	congruent/STIM_022.jpg	100
2162.303	0.746	746.2	congruent	Block2	congruent/STIM_022.jpg	99
2165.926	0.774	773.8	congruent	Block2	congruent/STIM_022.jpg	99
2168.917	0.921	920.9	congruent	Block2	congruent/STIM_022.jpg	100
2173.375	0.904	903.8	congruent	Block2	congruent/STIM_022.jpg	99
2177.15	0.841	841.0	congruent	Block2	congruent/STIM_023.jpg	99
2180.524	0.817	817.3	congruent	Block2	congruent/STIM_023.jpg	100
2184.861	0.859	858.9	congruent	Block2	congruent/STIM_023.jpg	99
2187.96	0.775	775.2	congruent	Block2	congruent/STIM_023.jpg	99
2192.179	0.647	646.9	congruent	Block2	congruent/STIM_023.jpg	99
2196.824	0.555	554.7	congruent	Block2	congruent/STIM_024.jpg	100
2200.025	0.722	722.2	congruent	Block2	congruent/STIM_024.jpg	99
2203.502	0.562	562.0	congruent	Block2	congruent/STIM_024.jpg	100
2206.21	0.923	922.8	congruent	Block2	congruent/STIM_024.jpg	99
2210.01	0.616	616.0	congruent	Block2	congruent/STIM_024.jpg	100
2212.858	0.636	635.9	congruent	Block2	congruent/STIM_025.jpg	99
2216.822	0.564	564.3	congruent	Block2	congruent/STIM_025.jpg	99
2220.877	0.913	913.2	congruent	Block2	congruent/STIM_025.jpg	100
2224.938	0.893	893.3	congruent	Block2	congruent/STIM_025.jpg	99
2228.38	0.711	711.0	congruent	Block2	congruent/STIM_025.jpg	100
2231.953	0.899	898.8	congruent	Block2	congruent/STIM_026.jpg	99
2236.419	0.64	640.2	congruent	Block2	congruent/STIM_026.jpg	99
2239.867	0.603	603.3	congruent	Block2	congruent/STIM_026.jpg	99
2243.051	0.664	664.3	congruent	Block2	congruent/STIM_026.jpg	99
2247.127	0.625	625.1	congruent	Block2	congruent/STIM_026.jpg	99
2250.74	0.623	623.4	congruent	Block2	congruent/STIM_027.jpg	100
2253.388	0.677	677.0	congruent	Block2	congruent/STIM_027.jpg	99
2257.865	0.613	613.4	congruent	Block2	congruent/STIM_027.jpg	99
2261.473	0.73	729.5	congruent	Block2	congruent/STIM_027.jpg	99
2264.757	0.721	721.3	congruent	Block2	congruent/STIM_027.jpg	100
2268.077	0.611	610.6	congruent	Block2	congruent/STIM_028.jpg	99
2272.299	0.837	836.9	congruent	Block2	congruent/STIM_028.jpg	100
2275.468	0.672	672.0	congruent	Block2	congruent/STIM_028.jpg	100
2278.818	0.765	765.3	congruent	Block2	congruent/STIM_028.jpg	99
2283.457	0.914	914.5	congruent	Block2	congruent/STIM_028.jpg	100
2288.019	0.93	929.5	congruent	Block2	congruent/STIM_029.jpg	99
2292.362	0.855	855.3	congruent	Block2	congruent/STIM_029.jpg	99
2296.398	0.863	863.4	congruent	Block2	congruent/STIM_029.jpg	100
2300.372	0.523	522.9	congruent	Block2	congruent/STIM_029.jpg	99
2304.561	0.703	703.0	congruent	Block2	congruent/STIM_029.jpg	100
2307.768	1.068	1068.0	incongruent	Block3	incongruent/STIM_000.jpg	100
2310.876	0.924	924.4	incongruent	Block3	incongruent/STIM_000.jpg	100
2315.101	0.663	663.0	incongruent	Block3	incongruent/STIM_000.jpg	100
2318.061	0.539	539.3	incongruent	Block3	incongruent/STIM_000.jpg	100
2322.283	0.623	623.4	incongruent	Block3	incongruent/STIM_000.jpg	100
2326.091	0.51	509.8	incongruent	Block3	incongruent/STIM_001.jpg	100
2330.402	0.974	974.1	incongruent	Block3	incongruent/STIM_001.jpg	100
2333.554	0.922	922.1	incongruent	Block3	incongruent/STIM_001.jpg	100
2337.058	0.969	969.1	incongruent	Block3	incongruent/STIM_001.jpg	99
2340.464	0.967	966.7	incongruent	Block3	incongruent/STIM_001.jpg	100
2343.521	0.745	744.9	incongruent	Block3	incongruent/STIM_002.jpg	100
2347.42	1.041	1041.3	incongruent	Block3	incongruent/STIM_002.jpg	100
2352.071	0.847	846.6	incongruent	Block3	incongruent/STIM_002.jpg	99
2355.683	1.086	1085.8	incongruent	Block3	incongruent/STIM_002.jpg	100
2359.829	0.789	788.9	incongruent	Block3	incongruent/STIM_002.jpg	100
2364.18	0.765	765.0	incongruent	Block3	incongruent/STIM_003.jpg	99
2368.088	0.57	569.6	incongruent	Block3	incongruent/STIM_003.jpg	100
2372.593	1.074	1073.5	incongruent	Block3	incongruent/STIM_003.jpg	99
2377.504	1.029	1029.0	incongruent	Block3	incongruent/STIM_003.jpg	99
2380.635	0.881	881.3	incongruent	Block3	incongruent/STIM_003.jpg	100
2384.527	0.615	615.1	incongruent	Block3	incongruent/STIM_004.jpg	99
2388.299	0.693	692.9	incongruent	Block3	incongruent/STIM_004.jpg	99
2392.093	0.619	619.4	incongruent	Block3	incongruent/STIM_004.jpg	100
2396.655	1.034	1033.6	incongruent	Block3	incongruent/STIM_004.jpg	99
2399.882	0.71	709.7	incongruent	Block3	incongruent/STIM_004.jpg	100
2402.658	0.542	541.5	incongruent	Block3	incongruent/STIM_005.jpg	99
2406.72	0.61	610.1	incongruent	Block3	incongruent/STIM_005.jpg	100
2410.729	1.072	1071.7	incongruent	Block3	incongruent/STIM_005.jpg	100
2414.975	0.814	813.8	incongruent	Block3	incongruent/STIM_005.jpg	99
2418.953	0.873	873.3	incongruent	Block3	incongruent/STIM_005.jpg	100
2422.909	0.615	614.6	incongruent	Block3	incongruent/STIM_006.jpg	100
2426.748	0.919	918.6	incongruent	Block3	incongruent/STIM_006.jpg	99
2431.118	0.532	531.7	incongruent	Block3	incongruent/STIM_006.jpg	100
2434.177	0.814	813.5	incongruent	Block3	incongruent/STIM_006.jpg	100
2437.44	0.647	647.4	incongruent	Block3	incongruent/STIM_006.jpg	100
2440.377	0.892	892.1	incongruent	Block3	incongruent/STIM_007.jpg	99
2443.733	0.523	523.2	incongruent	Block3	incongruent/STIM_007.jpg	100
2448.067	0.639	639.3	incongruent	Block3	incongruent/STIM_007.jpg	100
2451.212	0.884	884.3	incongruent	Block3	incongruent/STIM_007.jpg	99
2454.573	1.03	1030.4	incongruent	Block3	incongruent/STIM_007.jpg	99
2457.633	0.978	978.2	incongruent	Block3	incongruent/STIM_008.jpg	99
2462.233	0.718	717.8	incongruent	Block3	incongruent/STIM_008.jpg	100
2465.494	1.074	1074.1	incongruent	Block3	incongruent/STIM_008.jpg	100
2468.959	1.039	1039.4	incongruent	Block3	incongruent/STIM_008.jpg	100
2473.197	0.853	853.4	incongruent	Block3	incongruent/STIM_008.jpg	100
2478.037	0.932	931.7	incongruent	Block3	incongruent/STIM_009.jpg	100
2481.288	0.695	694.9	incongruent	Block3	incongruent/STIM_009.jpg	100
2485.535	0.968	967.5	incongruent	Block3	incongruent/STIM_009.jpg	99
2489.992	0.783	783.0	incongruent	Block3	incongruent/STIM_009.jpg	99
2494.121	0.626	625.9	incongruent	Block3	incongruent/STIM_009.jpg	99
2497.845	0.837	836.7	incongruent	Block3	incongruent/STIM_010.jpg	99
2502.412	0.786	785.5	incongruent	Block3	incongruent/STIM_010.jpg	99
2506.522	0.994	993.9	incongruent	Block3	incongruent/STIM_010.jpg	99
2510.144	1.046	1045.5	incongruent	Block3	incongruent/STIM_010.jpg	99
2513.531	0.855	854.7	incongruent	Block3	incongruent/STIM_010.jpg	99
2516.948	0.596	595.6	incongruent	Block3	incongruent/STIM_011.jpg	99
2520.712	0.882	881.5	incongruent	Block3	incongruent/STIM_011.jpg	100
2523.886	1.005	1004.8	incongruent	Block3	incongruent/STIM_011.jpg	100
2527.003	0.778	777.7	incongruent	Block3	incongruent/STIM_011.jpg	99
2530.476	0.95	950.0	incongruent	Block3	incongruent/STIM_011.jpg	99
2534.595	0.856	856.5	incongruent	Block3	incongruent/STIM_012.jpg	100
2538.605	0.613	612.9	incongruent	Block3	incongruent/STIM_012.jpg	100
2542.362	0.875	875.3	incongruent	Block3	incongruent/STIM_012.jpg	99
2546.681	0.637	636.7	incongruent	Block3	incongruent/STIM_012.jpg	99
2551.063	0.926	925.6	incongruent	Block3	incongruent/STIM_012.jpg	99
2554.083	0.603	603.2	incongruent	Block3	incongruent/STIM_013.jpg	99
2557.884	0.673	672.7	incongruent	Block3	incongruent/STIM_013.jpg	100
2561.323	0.817	817.3	incongruent	Block3	incongruent/STIM_013.jpg	100
2565.563	0.792	792.3	incongruent	Block3	incongruent/STIM_013.jpg	100
2569.567	0.998	997.7	incongruent	Block3	incongruent/STIM_013.jpg	99
2572.689	0.668	668.0	incongruent	Block3	incongruent/STIM_014.jpg	99
2575.393	0.517	517.0	incongruent	Block3	incongruent/STIM_014.jpg	100
2579.32	0.772	771.7	incongruent	Block3	incongruent/STIM_014.jpg	99
2582.456	0.896	896.1	incongruent	Block3	incongruent/STIM_014.jpg	99
2586.358	0.675	674.8	incongruent	Block3	incongruent/STIM_014.jpg	100
2591.027	0.967	967.3	incongruent	Block3	incongruent/STIM_015.jpg	100
2594.532	0.934	934.5	incongruent	Block3	incongruent/STIM_015.jpg	100
2598.45	0.969	968.6	incongruent	Block3	incongruent/STIM_015.jpg	99
2602.0	0.821	820.9	incongruent	Block3	incongruent/STIM_015.jpg	99
2606.215	0.965	964.8	incongruent	Block3	incongruent/STIM_015.jpg	99
2609.761	0.678	678.0	incongruent	Block3	incongruent/STIM_016.jpg	99
2612.6	0.772	772.4	incongruent	Block3	incongruent/STIM_016.jpg	99
2616.573	0.774	773.6	incongruent	Block3	incongruent/STIM_016.jpg	100
2620.558	0.874	874.4	incongruent	Block3	incongruent/STIM_016.jpg	100
2623.999	0.967	966.9	incongruent	Block3	incongruent/STIM_016.jpg	99
2627.904	0.588	588.4	incongruent	Block3	incongruent/STIM_017.jpg	100
2630.805	0.877	877.4	incongruent	Block3	incongruent/STIM_017.jpg	99
2634.492	0.674	673.5	incongruent	Block3	incongruent/STIM_017.jpg	99
2638.007	1.02	1020.5	incongruent	Block3	incongruent/STIM_017.jpg	100
2642.032	0.892	891.9	incongruent	Block3	incongruent/STIM_017.jpg	100
2645.024	0.611	611.0	incongruent	Block3	incongruent/STIM_018.jpg	99
2648.73	0.837	836.9	incongruent	Block3	incongruent/STIM_018.jpg	99
2653.289	0.57	569.7	incongruent	Block3	incongruent/STIM_018.jpg	100
2657.241	0.571	570.7	incongruent	Block3	incongruent/STIM_018.jpg	99
2661.467	0.707	707.1	incongruent	Block3	incongruent/STIM_018.jpg	100
2665.272	0.943	943.2	incongruent	Block3	incongruent/STIM_019.jpg	99
2669.399	0.932	932.0	incongruent	Block3	incongruent/STIM_019.jpg	100
2674.027	0.757	756.9	incongruent	Block3	incongruent/STIM_019.jpg	100
2676.908	0.509	509.4	incongruent	Block3	incongruent/STIM_019.jpg	99
2681.046	1.029	1029.0	incongruent	Block3	incongruent/STIM_019.jpg	99
2684.204	0.966	966.3	incongruent	Block3	incongruent/STIM_020.jpg	99
2687.845	0.797	797.1	incongruent	Block3	incongruent/STIM_020.jpg	99
2691.333	1.056	1055.9	incongruent	Block3	incongruent/STIM_020.jpg	100
2695.72	0.86	860.4	incongruent	Block3	incongruent/STIM_020.jpg	99
2700.226	0.911	911.1	incongruent	Block3	incongruent/STIM_020.jpg	100
2703.728	0.614	614.4	incongruent	Block3	incongruent/STIM_021.jpg	100
2708.162	0.576	575.7	incongruent	Block3	incongruent/STIM_021.jpg	99
2711.917	0.762	762.3	incongruent	Block3	incongruent/STIM_021.jpg	100
2715.106	0.707	707.3	incongruent	Block3	incongruent/STIM_021.jpg	99
2719.663	1.011	1011.0	incongruent	Block3	incongruent/STIM_021.jpg	99
2724.447	0.902	901.6	incongruent	Block3	incongruent/STIM_022.jpg	100
2729.279	0.688	687.9	incongruent	Block3	incongruent/STIM_022.jpg	99
2732.115	1.048	1047.6	incongruent	Block3	incongruent/STIM_022.jpg	99
2736.063	0.984	983.5	incongruent	Block3	incongruent/STIM_022.jpg	100
2739.897	0.824	823.5	incongruent	Block3	incongruent/STIM_022.jpg	100
2743.628	0.534	534.3	incongruent	Block3	incongruent/STIM_023.jpg	99
2747.308	0.89	890.5	incongruent	Block3	incongruent/STIM_023.jpg	100
2751.823	0.959	959.3	incongruent	Block3	incongruent/STIM_023.jpg	99
2755.835	0.746	746.0	incongruent	Block3	incongruent/STIM_023.jpg	99
2759.424	0.564	564.0	incongruent	Block3	incongruent/STIM_023.jpg	99
2762.407	0.998	997.6	incongruent	Block3	incongruent/STIM_024.jpg	100
2767.151	0.53	529.5	incongruent	Block3	incongruent/STIM_024.jpg	99
2769.727	0.64	640.3	incongruent	Block3	incongruent/STIM_024.jpg	100
2773.363	0.513	513.1	incongruent	Block3	incongruent/STIM_024.jpg	99
2775.928	0.849	848.9	incongruent	Block3	incongruent/STIM_024.jpg	99
2779.219	0.723	722.7	incongruent	Block3	incongruent/STIM_025.jpg	100
2782.757	1.073	1072.9	incongruent	Block3	incongruent/STIM_025.jpg	100
2785.918	0.891	891.0	incongruent	Block3	incongruent/STIM_025.jpg	100
2789.679	0.986	986.4	incongruent	Block3	incongruent/STIM_025.jpg	99
2793.659	0.589	588.7	incongruent	Block3	incongruent/STIM_025.jpg	100
2797.181	0.878	878.4	incongruent	Block3	incongruent/STIM_026.jpg	100
2800.245	1.076	1075.8	incongruent	Block3	incongruent/STIM_026.jpg	100
2804.535	0.78	780.3	incongruent	Block3	incongruent/STIM_026.jpg	99
2808.124	0.68	680.5	incongruent	Block3	incongruent/STIM_026.jpg	99
2811.793	1.022	1022.4	incongruent	Block3	incongruent/STIM_026.jpg	100
2815.338	1.056	1056.5	incongruent	Block3	incongruent/STIM_027.jpg	99
2818.564	1.062	1062.4	incongruent	Block3	incongruent/STIM_027.jpg	100
2822.049	0.594	594.0	incongruent	Block3	incongruent/STIM_027.jpg	99
2826.164	1.043	1042.6	incongruent	Block3	incongruent/STIM_027.jpg	100
2830.104	0.802	802.4	incongruent	Block3	incongruent/STIM_027.jpg	99
2833.229	0.786	785.6	incongruent	Block3	incongruent/STIM_028.jpg	100
2836.789	1.035	1034.8	incongruent	Block3	incongruent/STIM_028.jpg	99
2841.074	0.585	584.6	incongruent	Block3	incongruent/STIM_028.jpg	99
2843.947	1.076	1075.8	incongruent	Block3	incongruent/STIM_028.jpg	99
2848.978	0.804	804.0	incongruent	Block3	incongruent/STIM_028.jpg	99
2851.858	0.957	956.7	incongruent	Block3	incongruent/STIM_029.jpg	100
2855.416	1.014	1013.5	incongruent	Block3	incongruent/STIM_029.jpg	99
2858.802	0.916	916.0	incongruent	Block3	incongruent/STIM_029.jpg	100
2861.972	0.861	860.9	incongruent	Block3	incongruent/STIM_029.jpg	99
2866.374	0.932	932.4	incongruent	Block3	incongruent/STIM_029.jpg	100
2869.887	0.723	723.3	congruent	Block3	congruent/STIM_000.jpg	99
2873.913	0.647	646.8	congruent	Block3	congruent/STIM_000.jpg	100
2877.411	0.593	593.4	congruent	Block3	congruent/STIM_000.jpg	99
2881.319	0.534	534.3	congruent	Block3	congruent/STIM_000.jpg	100
2884.775	0.809	809.2	congruent	Block3	congruent/STIM_000.jpg	99
2888.581	0.842	842.4	congruent	Block3	congruent/STIM_001.jpg	100
2891.98	0.592	591.9	congruent	Block3	congruent/STIM_001.jpg	100
2896.385	0.663	662.6	congruent	Block3	congruent/STIM_001.jpg	99
2900.099	0.838	837.9	congruent	Block3	congruent/STIM_001.jpg	100
2903.836	0.89	889.7	congruent	Block3	congruent/STIM_001.jpg	99
2907.055	0.767	766.7	congruent	Block3	congruent/STIM_002.jpg	99
2910.698	0.576	576.0	congruent	Block3	congruent/STIM_002.jpg	100
2915.121	0.895	895.1	congruent	Block3	congruent/STIM_002.jpg	99
2918.112	0.585	585.2	congruent	Block3	congruent/STIM_002.jpg	100
2921.332	0.527	527.2	congruent	Block3	congruent/STIM_002.jpg	100
2924.374	0.786	785.8	congruent	Block3	congruent/STIM_003.jpg	99
2927.587	0.912	912.3	congruent	Block3	congruent/STIM_003.jpg	99
2931.957	0.713	712.8	congruent	Block3	congruent/STIM_003.jpg	100
2934.692	0.8	800.0	congruent	Block3	congruent/STIM_003.jpg	99
2939.265	0.816	815.5	congruent	Block3	congruent/STIM_003.jpg	99
2943.346	0.608	607.5	congruent	Block3	congruent/STIM_004.jpg	100
2946.822	0.884	884.5	congruent	Block3	congruent/STIM_004.jpg	100
2950.33	0.876	875.5	congruent	Block3	congruent/STIM_004.jpg	99
2954.953	0.569	568.6	congruent	Block3	congruent/STIM_004.jpg	99
2959.41	0.721	720.7	congruent	Block3	congruent/STIM_004.jpg	100
2964.021	0.824	824.2	congruent	Block3	congruent/STIM_005.jpg	100
2968.373	0.596	595.9	congruent	Block3	congruent/STIM_005.jpg	100
2972.23	0.659	658.8	congruent	Block3	congruent/STIM_005.jpg	99
2976.829	0.913	913.2	congruent	Block3	congruent/STIM_005.jpg	100
2980.128	0.593	592.6	congruent	Block3	congruent/STIM_005.jpg	99
2982.744	0.814	814.3	congruent	Block3	congruent/STIM_006.jpg	100
2986.931	0.679	679.2	congruent	Block3	congruent/STIM_006.jpg	99
2990.403	0.892	891.7	congruent	Block3	congruent/STIM_006.jpg	100
2995.045	0.66	660.2	congruent	Block3	congruent/STIM_006.jpg	99
2999.67	0.897	897.4	congruent	Block3	congruent/STIM_006.jpg	99
3002.639	0.925	924.8	congruent	Block3	congruent/STIM_007.jpg	100
3005.939	0.62	620.2	congruent	Block3	congruent/STIM_007.jpg	99
3009.588	0.702	701.8	congruent	Block3	congruent/STIM_007.jpg	100
3014.278	0.885	885.3	congruent	Block3	congruent/STIM_007.jpg	99
3018.239	0.893	892.9	congruent	Block3	congruent/STIM_007.jpg	100
3022.846	0.712	711.7	congruent	Block3	congruent/STIM_008.jpg	99
3026.646	0.708	707.8	congruent	Block3	congruent/STIM_008.jpg	99
3030.924	0.717	716.9	congruent	Block3	congruent/STIM_008.jpg	99
3035.146	0.547	547.1	congruent	Block3	congruent/STIM_008.jpg	100
3037.886	0.634	633.7	congruent	Block3	congruent/STIM_008.jpg	99
3040.664	0.724	724.2	congruent	Block3	congruent/STIM_009.jpg	99
3043.806	0.63	629.5	congruent	Block3	congruent/STIM_009.jpg	100
3047.117	0.864	863.7	congruent	Block3	congruent/STIM_009.jpg	100
3051.311	0.572	572.5	congruent	Block3	congruent/STIM_009.jpg	100
3055.304	0.739	738.9	congruent	Block3	congruent/STIM_009.jpg	100
3059.083	0.853	853.0	congruent	Block3	congruent/STIM_010.jpg	99
3063.163	0.922	922.5	congruent	Block3	congruent/STIM_010.jpg	99
3067.438	0.789	788.6	congruent	Block3	congruent/STIM_010.jpg	100
3070.899	0.761	761.2	congruent	Block3	congruent/STIM_010.jpg	99
3075.354	0.867	866.9	congruent	Block3	congruent/STIM_010.jpg	100
3078.886	0.559	558.7	congruent	Block3	congruent/STIM_011.jpg	100
3081.642	0.708	708.4	congruent	Block3	congruent/STIM_011.jpg	99
3084.415	0.652	651.8	congruent	Block3	congruent/STIM_011.jpg	100
3088.684	0.895	895.4	congruent	Block3	congruent/STIM_011.jpg	99
3091.602	0.914	913.7	congruent	Block3	congruent/STIM_011.jpg	100
3095.531	0.79	789.8	congruent	Block3	congruent/STIM_012.jpg	100
3099.814	0.637	636.8	congruent	Block3	congruent/STIM_012.jpg	99
3103.881	0.788	788.3	congruent	Block3	congruent/STIM_012.jpg	99
3108.325	0.832	831.7	congruent	Block3	congruent/STIM_012.jpg	99
3112.877	0.71	709.6	congruent	Block3	congruent/STIM_012.jpg	100
3115.82	0.794	794.0	congruent	Block3	congruent/STIM_013.jpg	100
3119.968	0.783	783.1	congruent	Block3	congruent/STIM_013.jpg	99
3123.025	0.566	565.8	congruent	Block3	congruent/STIM_013.jpg	99
3125.804	0.892	892.5	congruent	Block3	congruent/STIM_013.jpg	99
3128.702	0.705	704.8	congruent	Block3	congruent/STIM_013.jpg	100
3133.334	0.535	535.3	congruent	Block3	congruent/STIM_014.jpg	99
3136.781	0.741	741.2	congruent	Block3	congruent/STIM_014.jpg	99
3139.843	0.559	559.3	congruent	Block3	congruent/STIM_014.jpg	100
3143.444	0.6	599.7	congruent	Block3	congruent/STIM_014.jpg	99
3147.94	0.899	899.0	congruent	Block3	congruent/STIM_014.jpg	100
3150.999	0.899	898.9	congruent	Block3	congruent/STIM_015.jpg	100
3154.947	0.585	584.7	congruent	Block3	congruent/STIM_015.jpg	99
3157.77	0.697	697.2	congruent	Block3	congruent/STIM_015.jpg	100
3161.897	0.664	663.5	congruent	Block3	congruent/STIM_015.jpg	100
3165.406	0.894	894.3	congruent	Block3	congruent/STIM_015.jpg	100
3169.689	0.756	756.4	congruent	Block3	congruent/STIM_016.jpg	100
3172.641	0.766	765.7	congruent	Block3	congruent/STIM_016.jpg	100
3175.413	0.584	584.3	congruent	Block3	congruent/STIM_016.jpg	100
3179.716	0.788	788.3	congruent	Block3	congruent/STIM_016.jpg	100
3183.991	0.678	678.2	congruent	Block3	congruent/STIM_016.jpg	100
3188.109	0.652	652.2	congruent	Block3	congruent/STIM_017.jpg	100
3191.57	0.867	866.8	congruent	Block3	congruent/STIM_017.jpg	100
3194.951	0.572	572.2	congruent	Block3	congruent/STIM_017.jpg	99
3199.322	0.607	606.6	congruent	Block3	congruent/STIM_017.jpg	100
3203.21	0.599	599.1	congruent	Block3	congruent/STIM_017.jpg	100
3206.757	0.691	691.1	congruent	Block3	congruent/STIM_018.jpg	100
3210.966	0.903	902.8	congruent	Block3	congruent/STIM_018.jpg	99
3214.611	0.549	549.0	congruent	Block3	congruent/STIM_018.jpg	99
3217.255	0.785	785.4	congruent	Block3	congruent/STIM_018.jpg	100
3221.776	0.717	717.1	congruent	Block3	congruent/STIM_018.jpg	99
3226.035	0.68	680.3	congruent	Block3	congruent/STIM_019.jpg	100
3230.71	0.803	803.0	congruent	Block3	congruent/STIM_019.jpg	99
3234.634	0.621	621.3	congruent	Block3	congruent/STIM_019.jpg	100
3237.419	0.929	929.2	congruent	Block3	congruent/STIM_019.jpg	99
3241.133	0.881	881.3	congruent	Block3	congruent/STIM_019.jpg	100
3245.478	0.809	809.2	congruent	Block3	congruent/STIM_020.jpg	99
3250.159	0.588	588.1	congruent	Block3	congruent/STIM_020.jpg	100
3252.926	0.688	688.2	congruent	Block3	congruent/STIM_020.jpg	100
3257.201	0.88	879.9	congruent	Block3	congruent/STIM_020.jpg	100
3260.427	0.687	686.8	congruent	Block3	congruent/STIM_020.jpg	99
3263.799	0.661	661.2	congruent	Block3	congruent/STIM_021.jpg	99
3266.993	0.601	601.3	congruent	Block3	congruent/STIM_021.jpg	100
3270.432	0.804	803.5	congruent	Block3	congruent/STIM_021.jpg	99
3274.189	0.518	517.7	congruent	Block3	congruent/STIM_021.jpg	99
3277.367	0.842	841.5	congruent	Block3	congruent/STIM_021.jpg	99
3281.684	0.871	870.8	congruent	Block3	congruent/STIM_022.jpg	99
3286.058	0.557	556.7	congruent	Block3	congruent/STIM_022.jpg	100
3289.585	0.571	571.3	congruent	Block3	congruent/STIM_022.jpg	99
3294.048	0.906	906.5	congruent	Block3	congruent/STIM_022.jpg	100
3297.61	0.899	898.6	congruent	Block3	congruent/STIM_022.jpg	99
3301.167	0.711	710.9	congruent	Block3	congruent/STIM_023.jpg	99
3304.284	0.717	716.7	congruent	Block3	congruent/STIM_023.jpg	100
3307.513	0.644	643.7	congruent	Block3	congruent/STIM_023.jpg	99
3311.828	0.546	545.9	congruent	Block3	congruent/STIM_023.jpg	100
3316.126	0.724	724.2	congruent	Block3	congruent/STIM_023.jpg	100
3319.744	0.671	670.7	congruent	Block3	congruent/STIM_024.jpg	99
3322.69	0.907	907.0	congruent	Block3	congruent/STIM_024.jpg	100
3325.635	0.788	787.9	congruent	Block3	congruent/STIM_024.jpg	99
3330.073	0.762	762.0	congruent	Block3	congruent/STIM_024.jpg	100
3334.63	0.645	645.2	congruent	Block3	congruent/STIM_024.jpg	100
3338.396	0.616	615.8	congruent	Block3	congruent/STIM_025.jpg	99
3341.522	0.879	879.1	congruent	Block3	congruent/STIM_025.jpg	99
3344.889	0.809	809.2	congruent	Block3	congruent/STIM_025.jpg	99
3349.496	0.92	920.0	congruent	Block3	congruent/STIM_025.jpg	99
3353.785	0.743	742.7	congruent	Block3	congruent/STIM_025.jpg	99
3357.689	0.851	851.2	congruent	Block3	congruent/STIM_026.jpg	99
3362.324	0.691	690.7	congruent	Block3	congruent/STIM_026.jpg	100
3366.822	0.696	695.8	congruent	Block3	congruent/STIM_026.jpg	99
3371.498	0.829	828.7	congruent	Block3	congruent/STIM_026.jpg	99
3375.12	0.718	718.4	congruent	Block3	congruent/STIM_026.jpg	99
3379.413	0.616	615.8	congruent	Block3	congruent/STIM_027.jpg	100
3383.991	0.699	698.6	congruent	Block3	congruent/STIM_027.jpg	100
3387.017	0.886	885.5	congruent	Block3	congruent/STIM_027.jpg	99
3391.435	0.874	874.5	congruent	Block3	congruent/STIM_027.jpg	99
3395.128	0.569	568.8	congruent	Block3	congruent/STIM_027.jpg	99
3398.728	0.709	709.3	congruent	Block3	congruent/STIM_028.jpg	100
3401.731	0.833	832.8	congruent	Block3	congruent/STIM_028.jpg	100
3404.847	0.528	527.6	congruent	Block3	congruent/STIM_028.jpg	100
3408.852	0.541	541.1	congruent	Block3	congruent/STIM_028.jpg	99
3413.066	0.729	729.1	congruent	Block3	congruent/STIM_028.jpg	99
3416.523	0.674	673.5	congruent	Block3	congruent/STIM_029.jpg	99
3420.557	0.657	656.8	congruent	Block3	congruent/STIM_029.jpg	100
3425.169	0.741	740.8	congruent	Block3	congruent/STIM_029.jpg	99
3428.939	0.737	736.9	congruent	Block3	congruent/STIM_029.jpg	100
3432.334	0.838	837.9	congruent	Block3	congruent/STIM_029.jpg	99
