onset	duration	response_time_ms	trial_type	learning_stage	stimulus	response_port
0.0	1.519	1518.6	incongruent	Block1	incongruent/STIM_000.jpg	100
3.703	1.177	1177.1	incongruent	Block1	incongruent/STIM_000.jpg	100
7.368	1.268	1267.9	incongruent	Block1	incongruent/STIM_000.jpg	100
10.879	0.857	857.3	incongruent	Block1	incongruent/STIM_000.jpg	100
15.276	0.793	792.6	incongruent	Block1	incongruent/STIM_000.jpg	99
19.857	1.399	1398.6	incongruent	Block1	incongruent/STIM_001.jpg	99
25.182	1.224	1223.6	incongruent	Block1	incongruent/STIM_001.jpg	99
28.798	1.23	1229.5	incongruent	Block1	incongruent/STIM_001.jpg	100
33.651	1.14	1139.5	incongruent	Block1	incongruent/STIM_001.jpg	100
37.859	0.919	919.0	incongruent	Block1	incongruent/STIM_001.jpg	99
41.954	1.407	1407.4	incongruent	Block1	incongruent/STIM_002.jpg	100
45.403	1.337	1336.9	incongruent	Block1	incongruent/STIM_002.jpg	100
49.486	1.328	1328.4	incongruent	Block1	incongruent/STIM_002.jpg	100
53.834	0.774	773.5	incongruent	Block1	incongruent/STIM_002.jpg	100
58.085	0.689	689.3	incongruent	Block1	incongruent/STIM_002.jpg	99
61.083	1.143	1143.4	incongruent	Block1	incongruent/STIM_003.jpg	99
65.085	0.713	712.9	incongruent	Block1	incongruent/STIM_003.jpg	100
69.158	1.069	1068.7	incongruent	Block1	incongruent/STIM_003.jpg	100
74.136	0.94	940.0	incongruent	Block1	incongruent/STIM_003.jpg	99
78.553	0.622	621.7	incongruent	Block1	incongruent/STIM_003.jpg	99
82.371	0.854	853.8	incongruent	Block1	incongruent/STIM_004.jpg	99
85.928	0.84	840.2	incongruent	Block1	incongruent/STIM_004.jpg	100
90.042	1.095	1095.2	incongruent	Block1	incongruent/STIM_004.jpg	100
94.447	1.038	1038.5	incongruent	Block1	incongruent/STIM_004.jpg	100
97.794	0.851	851.1	incongruent	Block1	incongruent/STIM_004.jpg	99
101.232	1.052	1051.8	incongruent	Block1	incongruent/STIM_005.jpg	100
104.586	1.133	1133.1	incongruent	Block1	incongruent/STIM_005.jpg	100
108.861	1.128	1127.7	incongruent	Block1	incongruent/STIM_005.jpg	99
113.068	1.181	1180.7	incongruent	Block1	incongruent/STIM_005.jpg	99
117.706	0.933	932.9	incongruent	Block1	incongruent/STIM_005.jpg	100
122.283	0.998	997.8	incongruent	Block1	incongruent/STIM_006.jpg	99
126.695	1.306	1306.5	incongruent	Block1	incongruent/STIM_006.jpg	100
131.903	0.947	946.9	incongruent	Block1	incongruent/STIM_006.jpg	99
135.041	1.036	1035.7	incongruent	Block1	incongruent/STIM_006.jpg	99
139.051	1.228	1228.0	incongruent	Block1	incongruent/STIM_006.jpg	100
142.482	1.093	1093.1	incongruent	Block1	incongruent/STIM_007.jpg	100
146.877	0.888	887.6	incongruent	Block1	incongruent/STIM_007.jpg	100
151.014	0.671	670.6	incongruent	Block1	incongruent/STIM_007.jpg	99
154.521	1.268	1267.8	incongruent	Block1	incongruent/STIM_007.jpg	100
157.815	0.96	959.7	incongruent	Block1	incongruent/STIM_007.jpg	100
161.825	0.932	931.8	incongruent	Block1	incongruent/STIM_008.jpg	99
166.694	1.362	1362.0	incongruent	Block1	incongruent/STIM_008.jpg	99
170.113	1.383	1383.4	incongruent	Block1	incongruent/STIM_008.jpg	99
175.159	1.051	1051.1	incongruent	Block1	incongruent/STIM_008.jpg	100
178.803	1.189	1189.3	incongruent	Block1	incongruent/STIM_008.jpg	100
182.506	1.088	1087.6	incongruent	Block1	incongruent/STIM_009.jpg	100
187.257	1.284	1284.2	incongruent	Block1	incongruent/STIM_009.jpg	100
192.369	1.247	1246.7	incongruent	Block1	incongruent/STIM_009.jpg	100
196.14	1.235	1234.7	incongruent	Block1	incongruent/STIM_009.jpg	99
200.414	1.078	1077.7	incongruent	Block1	incongruent/STIM_009.jpg	100
204.592	1.132	1131.7	incongruent	Block1	incongruent/STIM_010.jpg	99
209.654	1.18	1179.7	incongruent	Block1	incongruent/STIM_010.jpg	100
214.364	0.68	680.0	incongruent	Block1	incongruent/STIM_010.jpg	100
218.416	1.084	1084.1	incongruent	Block1	incongruent/STIM_010.jpg	100
223.066	0.807	806.6	incongruent	Block1	incongruent/STIM_010.jpg	100
226.707	1.001	1000.8	incongruent	Block1	incongruent/STIM_011.jpg	100
230.142	1.396	1395.7	incongruent	Block1	incongruent/STIM_011.jpg	99
234.984	0.81	810.1	incongruent	Block1	incongruent/STIM_011.jpg	100
239.117	1.034	1033.9	incongruent	Block1	incongruent/STIM_011.jpg	99
242.781	0.943	943.1	incongruent	Block1	incongruent/STIM_011.jpg	100
246.522	1.411	1411.2	incongruent	Block1	incongruent/STIM_012.jpg	99
250.064	0.702	702.5	incongruent	Block1	incongruent/STIM_012.jpg	100
254.15	1.016	1015.5	incongruent	Block1	incongruent/STIM_012.jpg	100
258.103	1.236	1236.2	incongruent	Block1	incongruent/STIM_012.jpg	99
263.134	0.593	593.0	incongruent	Block1	incongruent/STIM_012.jpg	99
265.971	0.856	855.7	incongruent	Block1	incongruent/STIM_013.jpg	99
270.448	1.468	1468.1	incongruent	Block1	incongruent/STIM_013.jpg	99
275.788	1.133	1132.6	incongruent	Block1	incongruent/STIM_013.jpg	100
279.519	1.273	1273.2	incongruent	Block1	incongruent/STIM_013.jpg	99
283.818	0.694	694.5	incongruent	Block1	incongruent/STIM_013.jpg	99
286.665	0.839	838.9	incongruent	Block1	incongruent/STIM_014.jpg	100
291.135	1.316	1316.0	incongruent	Block1	incongruent/STIM_014.jpg	99
295.242	0.94	939.6	incongruent	Block1	incongruent/STIM_014.jpg	99
298.532	1.25	1250.1	incongruent	Block1	incongruent/STIM_014.jpg	99
303.708	0.657	656.7	incongruent	Block1	incongruent/STIM_014.jpg	100
306.802	0.844	844.5	incongruent	Block1	incongruent/STIM_015.jpg	100
311.524	1.445	1445.3	incongruent	Block1	incongruent/STIM_015.jpg	100
315.312	1.046	1046.0	incongruent	Block1	incongruent/STIM_015.jpg	100
319.232	1.266	1265.7	incongruent	Block1	incongruent/STIM_015.jpg	100
322.754	0.649	648.7	incongruent	Block1	incongruent/STIM_015.jpg	99
326.992	1.386	1385.6	incongruent	Block1	incongruent/STIM_016.jpg	100
331.328	0.832	831.6	incongruent	Block1	incongruent/STIM_016.jpg	99
335.412	1.107	1106.6	incongruent	Block1	incongruent/STIM_016.jpg	100
339.125	0.675	675.0	incongruent	Block1	incongruent/STIM_016.jpg	100
341.779	0.75	749.9	incongruent	Block1	incongruent/STIM_016.jpg	99
344.842	1.55	1550.2	incongruent	Block1	incongruent/STIM_017.jpg	100
349.121	0.724	724.0	incongruent	Block1	incongruent/STIM_017.jpg	100
351.839	1.175	1175.3	incongruent	Block1	incongruent/STIM_017.jpg	100
355.357	0.729	728.7	incongruent	Block1	incongruent/STIM_017.jpg	99
358.669	0.651	650.9	incongruent	Block1	incongruent/STIM_017.jpg	100
362.737	1.138	1137.7	incongruent	Block1	incongruent/STIM_018.jpg	100
367.359	0.747	747.3	incongruent	Block1	incongruent/STIM_018.jpg	99
371.694	1.055	1055.0	incongruent	Block1	incongruent/STIM_018.jpg	100
375.862	1.192	1191.8	incongruent	Block1	incongruent/STIM_018.jpg	100
380.886	0.794	793.5	incongruent	Block1	incongruent/STIM_018.jpg	99
384.668	0.744	744.5	incongruent	Block1	incongruent/STIM_019.jpg	100
387.751	1.001	1000.9	incongruent	Block1	incongruent/STIM_019.jpg	100
392.138	1.037	1037.1	incongruent	Block1	incongruent/STIM_019.jpg	100
395.834	1.147	1147.2	incongruent	Block1	incongruent/STIM_019.jpg	99
399.597	0.598	598.4	incongruent	Block1	incongruent/STIM_019.jpg	99
403.809	1.264	1264.1	incongruent	Block1	incongruent/STIM_020.jpg	100
407.618	1.007	1006.9	incongruent	Block1	incongruent/STIM_020.jpg	99
410.78	1.098	1097.7	incongruent	Block1	incongruent/STIM_020.jpg	99
414.191	1.24	1239.8	incongruent	Block1	incongruent/STIM_020.jpg	100
417.511	0.606	605.7	incongruent	Block1	incongruent/STIM_020.jpg	100
420.889	1.137	1137.1	incongruent	Block1	incongruent/STIM_021.jpg	99
424.597	0.788	788.4	incongruent	Block1	incongruent/STIM_021.jpg	100
427.397	1.314	1314.4	incongruent	Block1	incongruent/STIM_021.jpg	99
431.34	0.998	997.5	incongruent	Block1	incongruent/STIM_021.jpg	100
435.522	1.193	1193.4	incongruent	Block1	incongruent/STIM_021.jpg	99
440.215	1.291	1290.8	incongruent	Block1	incongruent/STIM_022.jpg	99
443.503	0.848	847.7	incongruent	Block1	incongruent/STIM_022.jpg	99
447.838	0.659	658.6	incongruent	Block1	incongruent/STIM_022.jpg	99
451.972	1.079	1079.2	incongruent	Block1	incongruent/STIM_022.jpg	99
455.894	0.718	718.2	incongruent	Block1	incongruent/STIM_022.jpg	100
460.352	1.089	1089.3	incongruent	Block1	incongruent/STIM_023.jpg	99
463.645	1.21	1209.8	incongruent	Block1	incongruent/STIM_023.jpg	99
468.671	1.065	1065.2	incongruent	Block1	incongruent/STIM_023.jpg	99
471.709	0.901	901.1	incongruent	Block1	incongruent/STIM_023.jpg	99
476.457	1.116	1115.5	incongruent	Block1	incongruent/STIM_023.jpg	100
479.862	1.176	1176.3	incongruent	Block1	incongruent/STIM_024.jpg	99
484.616	0.891	891.2	incongruent	Block1	incongruent/STIM_024.jpg	99
488.016	0.766	765.5	incongruent	Block1	incongruent/STIM_024.jpg	100
490.932	0.827	827.2	incongruent	Block1	incongruent/STIM_024.jpg	99
494.711	0.933	932.7	incongruent	Block1	incongruent/STIM_024.jpg	99
498.024	1.18	1180.2	incongruent	Block1	incongruent/STIM_025.jpg	99
501.571	1.09	1089.5	incongruent	Block1	incongruent/STIM_025.jpg	100
506.02	1.294	1293.5	incongruent	Block1	incongruent/STIM_025.jpg	99
509.945	0.727	727.2	incongruent	Block1	incongruent/STIM_025.jpg	100
514.136	1.021	1020.6	incongruent	Block1	incongruent/STIM_025.jpg	99
518.966	1.251	1250.6	incongruent	Block1	incongruent/STIM_026.jpg	100
523.114	1.258	1257.7	incongruent	Block1	incongruent/STIM_026.jpg	99
526.698	1.243	1243.2	incongruent	Block1	incongruent/STIM_026.jpg	99
531.05	0.838	837.6	incongruent	Block1	incongruent/STIM_026.jpg	100
533.889	0.616	615.6	incongruent	Block1	incongruent/STIM_026.jpg	99
537.88	0.817	817.0	incongruent	Block1	incongruent/STIM_027.jpg	99
542.099	1.125	1124.8	incongruent	Block1	incongruent/STIM_027.jpg	99
545.815	1.381	1381.3	incongruent	Block1	incongruent/STIM_027.jpg	99
549.961	0.896	895.7	incongruent	Block1	incongruent/STIM_027.jpg	100
553.674	1.151	1151.2	incongruent	Block1	incongruent/STIM_027.jpg	100
557.958	0.849	849.3	incongruent	Block1	incongruent/STIM_028.jpg	99
561.047	0.756	756.1	incongruent	Block1	incongruent/STIM_028.jpg	100
565.524	1.103	1103.2	incongruent	Block1	incongruent/STIM_028.jpg	100
570.173	1.094	1094.5	incongruent	Block1	incongruent/STIM_028.jpg	100
574.485	0.92	919.7	incongruent	Block1	incongruent/STIM_028.jpg	99
578.103	1.13	1130.2	incongruent	Block1	incongruent/STIM_029.jpg	100
581.95	0.846	846.1	incongruent	Block1	incongruent/STIM_029.jpg	100
586.502	1.381	1381.2	incongruent	Block1	incongruent/STIM_029.jpg	100
590.888	1.141	1140.6	incongruent	Block1	incongruent/STIM_029.jpg	100
595.014	0.724	724.3	incongruent	Block1	incongruent/STIM_029.jpg	100
599.665	0.664	664.4	congruent	Block1	congruent/STIM_000.jpg	100
603.57	0.738	738.4	congruent	Block1	congruent/STIM_000.jpg	99
608.125	0.846	846.0	congruent	Block1	congruent/STIM_000.jpg	99
612.084	0.723	722.6	congruent	Block1	congruent/STIM_000.jpg	100
616.416	0.727	727.1	congruent	Block1	congruent/STIM_000.jpg	100
620.748	0.629	629.2	congruent	Block1	congruent/STIM_001.jpg	99
624.069	0.823	822.9	congruent	Block1	congruent/STIM_001.jpg	99
627.916	0.682	682.3	congruent	Block1	congruent/STIM_001.jpg	99
631.438	0.671	671.1	congruent	Block1	congruent/STIM_001.jpg	99
634.903	0.831	831.0	congruent	Block1	congruent/STIM_001.jpg	100
639.434	0.834	834.0	congruent	Block1	congruent/STIM_002.jpg	100
643.644	0.608	607.6	congruent	Block1	congruent/STIM_002.jpg	99
647.509	0.6	599.7	congruent	Block1	congruent/STIM_002.jpg	100
650.441	0.573	572.9	congruent	Block1	congruent/STIM_002.jpg	99
653.715	0.701	701.1	congruent	Block1	congruent/STIM_002.jpg	99
657.37	0.685	684.9	congruent	Block1	congruent/STIM_003.jpg	99
660.282	0.579	578.8	congruent	Block1	congruent/STIM_003.jpg	99
664.754	0.635	635.2	congruent	Block1	congruent/STIM_003.jpg	100
667.608	0.603	603.2	congruent	Block1	congruent/STIM_003.jpg	99
670.962	0.671	670.9	congruent	Block1	congruent/STIM_003.jpg	99
675.23	0.612	612.3	congruent	Block1	congruent/STIM_004.jpg	99
678.839	0.882	882.0	congruent	Block1	congruent/STIM_004.jpg	99
682.988	0.722	721.6	congruent	Block1	congruent/STIM_004.jpg	99
686.861	0.737	737.3	congruent	Block1	congruent/STIM_004.jpg	100
691.014	0.827	826.9	congruent	Block1	congruent/STIM_004.jpg	100
695.788	0.728	728.4	congruent	Block1	congruent/STIM_005.jpg	99
699.353	0.884	884.3	congruent	Block1	congruent/STIM_005.jpg	99
703.265	0.685	684.6	congruent	Block1	congruent/STIM_005.jpg	100
706.495	0.69	689.7	congruent	Block1	congruent/STIM_005.jpg	99
709.71	0.906	905.6	congruent	Block1	congruent/STIM_005.jpg	100
713.626	0.886	885.6	congruent	Block1	congruent/STIM_006.jpg	100
717.375	0.758	758.5	congruent	Block1	congruent/STIM_006.jpg	100
720.609	0.68	680.3	congruent	Block1	congruent/STIM_006.jpg	100
723.297	0.75	750.0	congruent	Block1	congruent/STIM_006.jpg	99
726.846	0.892	891.5	congruent	Block1	congruent/STIM_006.jpg	100
730.267	0.649	649.0	congruent	Block1	congruent/STIM_007.jpg	100
734.532	0.916	916.0	congruent	Block1	congruent/STIM_007.jpg	99
737.477	0.827	827.1	congruent	Block1	congruent/STIM_007.jpg	100
742.155	0.713	713.4	congruent	Block1	congruent/STIM_007.jpg	99
745.401	0.808	807.9	congruent	Block1	congruent/STIM_007.jpg	99
749.358	0.839	838.9	congruent	Block1	congruent/STIM_008.jpg	100
752.986	0.833	833.4	congruent	Block1	congruent/STIM_008.jpg	100
756.885	0.871	871.3	congruent	Block1	congruent/STIM_008.jpg	100
761.195	0.547	546.7	congruent	Block1	congruent/STIM_008.jpg	100
763.769	0.768	768.2	congruent	Block1	congruent/STIM_008.jpg	99
767.753	0.574	573.8	congruent	Block1	congruent/STIM_009.jpg	100
772.015	0.606	606.1	congruent	Block1	congruent/STIM_009.jpg	99
774.843	0.719	718.7	congruent	Block1	congruent/STIM_009.jpg	100
779.105	0.732	732.2	congruent	Block1	congruent/STIM_009.jpg	99
782.648	0.565	565.0	congruent	Block1	congruent/STIM_009.jpg	100
785.435	0.808	808.5	congruent	Block1	congruent/STIM_010.jpg	99
789.05	0.734	734.1	congruent	Block1	congruent/STIM_010.jpg	99
793.413	0.681	681.2	congruent	Block1	congruent/STIM_010.jpg	100
796.842	0.579	578.7	congruent	Block1	congruent/STIM_010.jpg	99
800.229	0.654	654.1	congruent	Block1	congruent/STIM_010.jpg	100
803.028	0.615	615.0	congruent	Block1	congruent/STIM_011.jpg	100
807.046	0.661	661.3	congruent	Block1	congruent/STIM_011.jpg	100
809.933	0.587	587.0	congruent	Block1	congruent/STIM_011.jpg	100
812.868	0.72	719.6	congruent	Block1	congruent/STIM_011.jpg	99
815.975	0.598	597.8	congruent	Block1	congruent/STIM_011.jpg	99
820.303	0.545	545.3	congruent	Block1	congruent/STIM_012.jpg	99
824.056	0.783	782.9	congruent	Block1	congruent/STIM_012.jpg	99
828.282	0.619	619.0	congruent	Block1	congruent/STIM_012.jpg	99
831.374	0.611	611.2	congruent	Block1	congruent/STIM_012.jpg	99
834.117	0.75	750.4	congruent	Block1	congruent/STIM_012.jpg	99
838.783	0.71	709.8	congruent	Block1	congruent/STIM_013.jpg	100
842.34	0.835	834.7	congruent	Block1	congruent/STIM_013.jpg	100
845.933	0.866	866.5	congruent	Block1	congruent/STIM_013.jpg	100
848.791	0.877	877.3	congruent	Block1	congruent/STIM_013.jpg	100
852.643	0.919	918.8	congruent	Block1	congruent/STIM_013.jpg	99
855.978	0.871	871.4	congruent	Block1	congruent/STIM_014.jpg	100
859.247	0.548	547.6	congruent	Block1	congruent/STIM_014.jpg	100
862.311	0.78	780.3	congruent	Block1	congruent/STIM_014.jpg	99
865.474	0.667	666.9	congruent	Block1	congruent/STIM_014.jpg	99
869.276	0.726	725.7	congruent	Block1	congruent/STIM_014.jpg	99
872.254	0.675	675.3	congruent	Block1	congruent/STIM_015.jpg	99
876.441	0.925	924.8	congruent	Block1	congruent/STIM_015.jpg	100
880.496	0.572	571.8	congruent	Block1	congruent/STIM_015.jpg	99
884.034	0.668	668.4	congruent	Block1	congruent/STIM_015.jpg	99
887.99	0.747	747.2	congruent	Block1	congruent/STIM_015.jpg	100
892.664	0.902	901.9	congruent	Block1	congruent/STIM_016.jpg	99
897.027	0.526	526.3	congruent	Block1	congruent/STIM_016.jpg	100
899.986	0.709	709.4	congruent	Block1	congruent/STIM_016.jpg	99
904.304	0.75	750.3	congruent	Block1	congruent/STIM_016.jpg	99
907.704	0.889	889.4	congruent	Block1	congruent/STIM_016.jpg	100
910.618	0.915	915.3	congruent	Block1	congruent/STIM_017.jpg	100
915.129	0.536	536.3	congruent	Block1	congruent/STIM_017.jpg	100
919.272	0.672	672.1	congruent	Block1	congruent/STIM_017.jpg	99
922.268	0.828	828.2	congruent	Block1	congruent/STIM_017.jpg	100
926.001	0.802	802.1	congruent	Block1	congruent/STIM_017.jpg	99
929.171	0.79	789.6	congruent	Block1	congruent/STIM_018.jpg	100
933.05	0.614	613.8	congruent	Block1	congruent/STIM_018.jpg	100
935.648	0.623	623.3	congruent	Block1	congruent/STIM_018.jpg	100
938.964	0.789	789.4	congruent	Block1	congruent/STIM_018.jpg	99
942.783	0.764	764.3	congruent	Block1	congruent/STIM_018.jpg	99
947.298	0.72	719.6	congruent	Block1	congruent/STIM_019.jpg	99
950.754	0.646	646.4	congruent	Block1	congruent/STIM_019.jpg	99
954.411	0.848	847.6	congruent	Block1	congruent/STIM_019.jpg	99
959.143	0.802	801.6	congruent	Block1	congruent/STIM_019.jpg	99
963.712	0.807	806.7	congruent	Block1	congruent/STIM_019.jpg	99
968.36	0.7	700.3	congruent	Block1	congruent/STIM_020.jpg	100
972.92	0.682	682.0	congruent	Block1	congruent/STIM_020.jpg	99
976.114	0.666	666.2	congruent	Block1	congruent/STIM_020.jpg	99
980.271	0.869	869.0	congruent	Block1	congruent/STIM_020.jpg	99
984.047	0.804	803.5	congruent	Block1	congruent/STIM_020.jpg	99
987.547	0.727	726.7	congruent	Block1	congruent/STIM_021.jpg	100
992.082	0.594	594.2	congruent	Block1	congruent/STIM_021.jpg	100
995.499	0.825	825.1	congruent	Block1	congruent/STIM_021.jpg	100
998.791	0.885	885.1	congruent	Block1	congruent/STIM_021.jpg	100
1003.151	0.867	867.0	congruent	Block1	congruent/STIM_021.jpg	99
1007.363	0.78	779.5	congruent	Block1	congruent/STIM_022.jpg	100
1011.907	0.77	769.8	congruent	Block1	congruent/STIM_022.jpg	100
1016.244	0.859	859.0	congruent	Block1	congruent/STIM_022.jpg	100
1020.394	0.641	640.6	congruent	Block1	congruent/STIM_022.jpg	100
1024.132	0.76	760.3	congruent	Block1	congruent/STIM_022.jpg	99
1027.372	0.805	805.0	congruent	Block1	congruent/STIM_023.jpg	99
1031.621	0.686	686.5	congruent	Block1	congruent/STIM_023.jpg	99
1034.884	0.81	810.3	congruent	Block1	congruent/STIM_023.jpg	99
1038.22	0.706	705.7	congruent	Block1	congruent/STIM_023.jpg	100
1042.509	0.533	532.6	congruent	Block1	congruent/STIM_023.jpg	99
1045.532	0.734	733.7	congruent	Block1	congruent/STIM_024.jpg	100
1049.626	0.667	667.2	congruent	Block1	congruent/STIM_024.jpg	99
1054.096	0.84	840.4	congruent	Block1	congruent/STIM_024.jpg	100
1057.19	0.92	920.2	congruent	Block1	congruent/STIM_024.jpg	100
1060.332	0.585	585.3	congruent	Block1	congruent/STIM_024.jpg	99
1063.834	0.857	856.9	congruent	Block1	congruent/STIM_025.jpg	99
1066.711	0.804	803.9	congruent	Block1	congruent/STIM_025.jpg	99
1070.963	0.699	699.1	congruent	Block1	congruent/STIM_025.jpg	99
1074.511	0.899	898.8	congruent	Block1	congruent/STIM_025.jpg	99
1079.33	0.695	694.8	congruent	Block1	congruent/STIM_025.jpg	99
1083.655	0.64	639.8	congruent	Block1	congruent/STIM_026.jpg	99
1087.602	0.687	687.4	congruent	Block1	congruent/STIM_026.jpg	100
1091.769	0.936	936.1	congruent	Block1	congruent/STIM_026.jpg	99
1095.757	0.735	735.0	congruent	Block1	congruent/STIM_026.jpg	100
1099.301	0.575	574.9	congruent	Block1	congruent/STIM_026.jpg	100
1102.13	0.706	705.6	congruent	Block1	congruent/STIM_027.jpg	99
1105.792	0.533	533.4	congruent	Block1	congruent/STIM_027.jpg	100
1108.639	0.714	714.2	congruent	Block1	congruent/STIM_027.jpg	99
1112.102	0.817	817.2	congruent	Block1	congruent/STIM_027.jpg	100
1116.23	0.912	911.5	congruent	Block1	congruent/STIM_027.jpg	99
1120.958	0.521	520.7	congruent	Block1	congruent/STIM_028.jpg	99
1123.569	0.621	621.0	congruent	Block1	congruent/STIM_028.jpg	100
1128.119	0.756	755.7	congruent	Block1	congruent/STIM_028.jpg	100
1132.339	0.773	773.0	congruent	Block1	congruent/STIM_028.jpg	99
1136.861	0.755	755.3	congruent	Block1	congruent/STIM_028.jpg	100
1140.867	0.577	577.4	congruent	Block1	congruent/STIM_029.jpg	100
1144.055	0.65	649.9	congruent	Block1	congruent/STIM_029.jpg	100
1148.044	0.618	617.6	congruent	Block1	congruent/STIM_029.jpg	99
1151.944	0.716	715.8	congruent	Block1	congruent/STIM_029.jpg	99
1156.278	0.817	817.0	congruent	Block1	congruent/STIM_029.jpg	100
1160.373	1.266	1265.6	incongruent	Block2	incongruent/STIM_000.jpg	99
1164.635	0.8	799.7	incongruent	Block2	incongruent/STIM_000.jpg	99
1168.455	0.737	736.7	incongruent	Block2	incongruent/STIM_000.jpg	100
1171.69	0.9	900.1	incongruent	Block2	incongruent/STIM_000.jpg	100
1175.105	0.854	854.3	incongruent	Block2	incongruent/STIM_000.jpg	99
1178.718	0.868	868.4	incongruent	Block2	incongruent/STIM_001.jpg	99
1183.095	0.876	875.7	incongruent	Block2	incongruent/STIM_001.jpg	99
1186.62	0.572	572.3	incongruent	Block2	incongruent/STIM_001.jpg	100
1189.411	0.612	612.0	incongruent	Block2	incongruent/STIM_001.jpg	100
1193.232	0.897	897.0	incongruent	Block2	incongruent/STIM_001.jpg	99
1197.55	0.929	929.0	incongruent	Block2	incongruent/STIM_002.jpg	99
1202.265	0.842	842.2	incongruent	Block2	incongruent/STIM_002.jpg	99
1205.583	0.957	956.7	incongruent	Block2	incongruent/STIM_002.jpg	100
1209.71	0.516	515.9	incongruent	Block2	incongruent/STIM_002.jpg	99
1213.737	0.824	823.6	incongruent	Block2	incongruent/STIM_002.jpg	100
1217.585	1.324	1323.5	incongruent	Block2	incongruent/STIM_003.jpg	100
1221.445	0.894	893.8	incongruent	Block2	incongruent/STIM_003.jpg	100
1225.303	1.169	1168.6	incongruent	Block2	incongruent/STIM_003.jpg	99
1230.399	0.592	592.0	incongruent	Block2	incongruent/STIM_003.jpg	100
1234.292	0.615	615.0	incongruent	Block2	incongruent/STIM_003.jpg	99
1237.707	1.131	1130.8	incongruent	Block2	incongruent/STIM_004.jpg	99
1242.027	0.642	641.9	incongruent	Block2	incongruent/STIM_004.jpg	100
1245.78	0.679	678.8	incongruent	Block2	incongruent/STIM_004.jpg	99
1249.659	0.832	831.8	incongruent	Block2	incongruent/STIM_004.jpg	99
1254.077	0.922	922.4	incongruent	Block2	incongruent/STIM_004.jpg	99
1257.689	1.136	1135.6	incongruent	Block2	incongruent/STIM_005.jpg	100
1262.432	0.912	912.2	incongruent	Block2	incongruent/STIM_005.jpg	100
1265.729	1.12	1119.8	incongruent	Block2	incongruent/STIM_005.jpg	99
1270.373	0.614	614.0	incongruent	Block2	incongruent/STIM_005.jpg	99
1273.674	0.988	987.6	incongruent	Block2	incongruent/STIM_005.jpg	100
1277.933	0.858	857.5	incongruent	Block2	incongruent/STIM_006.jpg	99
1281.843	0.776	775.8	incongruent	Block2	incongruent/STIM_006.jpg	100
1286.352	0.763	762.8	incongruent	Block2	incongruent/STIM_006.jpg	100
1290.077	0.578	577.6	incongruent	Block2	incongruent/STIM_006.jpg	100
1294.077	0.563	562.9	incongruent	Block2	incongruent/STIM_006.jpg	100
1296.921	0.7	700.0	incongruent	Block2	incongruent/STIM_007.jpg	99
1300.754	1.094	1093.5	incongruent	Block2	incongruent/STIM_007.jpg	100
1305.061	0.682	681.8	incongruent	Block2	incongruent/STIM_007.jpg	99
1308.518	0.651	651.3	incongruent	Block2	incongruent/STIM_007.jpg	100
1312.813	0.557	556.7	incongruent	Block2	incongruent/STIM_007.jpg	99
1316.185	1.212	1212.1	incongruent	Block2	incongruent/STIM_008.jpg	99
1320.544	0.875	875.4	incongruent	Block2	incongruent/STIM_008.jpg	99
1324.73	0.73	730.2	incongruent	Block2	incongruent/STIM_008.jpg	100
1328.061	0.866	865.6	incongruent	Block2	incongruent/STIM_008.jpg	99
1331.978	0.517	517.1	incongruent	Block2	incongruent/STIM_008.jpg	100
1335.27	1.234	1233.7	incongruent	Block2	incongruent/STIM_009.jpg	100
1339.945	0.626	626.4	incongruent	Block2	incongruent/STIM_009.jpg	99
1343.589	0.771	771.0	incongruent	Block2	incongruent/STIM_009.jpg	99
1347.942	0.976	976.4	incongruent	Block2	incongruent/STIM_009.jpg	99
1352.232	0.956	955.8	incongruent	Block2	incongruent/STIM_009.jpg	99
1355.943	1.304	1304.3	incongruent	Block2	incongruent/STIM_010.jpg	100
1359.278	1.116	1116.4	incongruent	Block2	incongruent/STIM_010.jpg	99
1363.614	1.159	1159.3	incongruent	Block2	incongruent/STIM_010.jpg	100
1366.892	0.903	903.2	incongruent	Block2	incongruent/STIM_010.jpg	100
1370.907	0.896	895.5	incongruent	Block2	incongruent/STIM_010.jpg	99
1374.353	0.96	960.4	incongruent	Block2	incongruent/STIM_011.jpg	100
1378.06	0.995	995.3	incongruent	Block2	incongruent/STIM_011.jpg	99
1381.124	0.583	582.9	incongruent	Block2	incongruent/STIM_011.jpg	100
1384.203	0.776	776.1	incongruent	Block2	incongruent/STIM_011.jpg	99
1387.223	0.91	909.9	incongruent	Block2	incongruent/STIM_011.jpg	100
1390.967	0.635	634.6	incongruent	Block2	incongruent/STIM_012.jpg	99
1394.233	1.103	1103.4	incongruent	Block2	incongruent/STIM_012.jpg	99
1398.622	0.579	578.9	incongruent	Block2	incongruent/STIM_012.jpg	99
1401.912	0.592	592.0	incongruent	Block2	incongruent/STIM_012.jpg	100
1406.402	0.93	930.0	incongruent	Block2	incongruent/STIM_012.jpg	100
1410.122	1.028	1028.5	incongruent	Block2	incongruent/STIM_013.jpg	100
1413.8	0.608	608.5	incongruent	Block2	incongruent/STIM_013.jpg	100
1417.318	0.89	890.3	incongruent	Block2	incongruent/STIM_013.jpg	100
1420.374	0.742	741.8	incongruent	Block2	incongruent/STIM_013.jpg	99
1423.139	0.663	662.8	incongruent	Block2	incongruent/STIM_013.jpg	100
1425.936	1.326	1326.1	incongruent	Block2	incongruent/STIM_014.jpg	99
1429.326	0.653	652.7	incongruent	Block2	incongruent/STIM_014.jpg	100
1432.669	0.784	784.3	incongruent	Block2	incongruent/STIM_014.jpg	99
1437.04	0.665	665.2	incongruent	Block2	incongruent/STIM_014.jpg	100
1440.496	1.06	1060.2	incongruent	Block2	incongruent/STIM_014.jpg	100
1443.788	0.988	988.4	incongruent	Block2	incongruent/STIM_015.jpg	99
1447.276	1.086	1086.4	incongruent	Block2	incongruent/STIM_015.jpg	99
1451.176	0.974	974.5	incongruent	Block2	incongruent/STIM_015.jpg	100
1454.848	0.728	728.1	incongruent	Block2	incongruent/STIM_015.jpg	100
1458.307	0.851	850.7	incongruent	Block2	incongruent/STIM_015.jpg	99
1462.055	0.681	681.1	incongruent	Block2	incongruent/STIM_016.jpg	99
1464.872	1.083	1083.3	incongruent	Block2	incongruent/STIM_016.jpg	99
1469.64	0.757	757.1	incongruent	Block2	incongruent/STIM_016.jpg	100
1472.802	0.708	708.2	incongruent	Block2	incongruent/STIM_016.jpg	99
1475.964	1.048	1047.8	incongruent	Block2	incongruent/STIM_016.jpg	99
1480.041	0.857	857.1	incongruent	Block2	incongruent/STIM_017.jpg	99
1484.258	1.184	1183.9	incongruent	Block2	incongruent/STIM_017.jpg	100
1489.032	1.109	1109.3	incongruent	Block2	incongruent/STIM_017.jpg	99
1492.871	1.005	1005.4	incongruent	Block2	incongruent/STIM_017.jpg	100
1496.303	0.8	799.6	incongruent	Block2	incongruent/STIM_017.jpg	99
1500.883	1.277	1276.8	incongruent	Block2	incongruent/STIM_018.jpg	99
1505.968	0.606	606.5	incongruent	Block2	incongruent/STIM_018.jpg	99
1508.702	0.769	769.1	incongruent	Block2	incongruent/STIM_018.jpg	99
1512.989	0.54	540.2	incongruent	Block2	incongruent/STIM_018.jpg	100
1517.356	0.809	809.1	incongruent	Block2	incongruent/STIM_018.jpg	99
1521.059	1.07	1069.8	incongruent	Block2	incongruent/STIM_019.jpg	100
1525.931	0.915	915.4	incongruent	Block2	incongruent/STIM_019.jpg	100
1529.216	1.114	1114.3	incongruent	Block2	incongruent/STIM_019.jpg	99
1532.66	0.898	898.1	incongruent	Block2	incongruent/STIM_019.jpg	100
1535.948	1.066	1066.2	incongruent	Block2	incongruent/STIM_019.jpg	99
1540.966	0.837	836.8	incongruent	Block2	incongruent/STIM_020.jpg	99
1544.023	1.191	1191.4	incongruent	Block2	incongruent/STIM_020.jpg	99
1548.289	1.015	1014.9	incongruent	Block2	incongruent/STIM_020.jpg	99
1552.126	0.611	610.9	incongruent	Block2	incongruent/STIM_020.jpg	99
1554.975	0.926	926.4	incongruent	Block2	incongruent/STIM_020.jpg	99
1558.424	1.201	1200.7	incongruent	Block2	incongruent/STIM_021.jpg	99
1562.094	0.82	820.5	incongruent	Block2	incongruent/STIM_021.jpg	100
1565.327	1.09	1090.4	incongruent	Block2	incongruent/STIM_021.jpg	100
1569.478	0.793	793.4	incongruent	Block2	incongruent/STIM_021.jpg	100
1573.353	0.618	618.1	incongruent	Block2	incongruent/STIM_021.jpg	100
1576.686	1.001	1001.0	incongruent	Block2	incongruent/STIM_022.jpg	99
1579.924	0.768	768.3	incongruent	Block2	incongruent/STIM_022.jpg	100
1583.022	0.584	584.1	incongruent	Block2	incongruent/STIM_022.jpg	100
1585.631	0.565	565.2	incongruent	Block2	incongruent/STIM_022.jpg	100
1588.735	0.587	587.1	incongruent	Block2	incongruent/STIM_022.jpg	100
1592.166	1.024	1023.7	incongruent	Block2	incongruent/STIM_023.jpg	99
1595.477	0.72	720.2	incongruent	Block2	incongruent/STIM_023.jpg	99
1598.941	0.913	913.3	incongruent	Block2	incongruent/STIM_023.jpg	99
1603.455	0.794	793.7	incongruent	Block2	incongruent/STIM_023.jpg	100
1606.875	0.861	860.7	incongruent	Block2	incongruent/STIM_023.jpg	99
1611.025	1.227	1227.2	incongruent	Block2	incongruent/STIM_024.jpg	99
1615.828	1.212	1212.1	incongruent	Block2	incongruent/STIM_024.jpg	100
1619.459	0.984	984.2	incongruent	Block2	incongruent/STIM_024.jpg	100
1622.732	0.722	722.4	incongruent	Block2	incongruent/STIM_024.jpg	99
1626.328	1.046	1046.3	incongruent	Block2	incongruent/STIM_024.jpg	99
1630.121	1.183	1183.1	incongruent	Block2	incongruent/STIM_025.jpg	99
1634.419	0.84	839.5	incongruent	Block2	incongruent/STIM_025.jpg	100
1637.697	0.994	993.6	incongruent	Block2	incongruent/STIM_025.jpg	100
1642.299	1.011	1011.3	incongruent	Block2	incongruent/STIM_025.jpg	99
1645.856	0.985	985.3	incongruent	Block2	incongruent/STIM_025.jpg	99
1650.115	0.897	897.4	incongruent	Block2	incongruent/STIM_026.jpg	99
1653.345	0.929	928.8	incongruent	Block2	incongruent/STIM_026.jpg	100
1658.225	1.156	1155.9	incongruent	Block2	incongruent/STIM_026.jpg	99
1662.326	0.612	611.5	incongruent	Block2	incongruent/STIM_026.jpg	99
1665.027	0.745	744.7	incongruent	Block2	incongruent/STIM_026.jpg	99
1669.092	1.121	1121.1	incongruent	Block2	incongruent/STIM_027.jpg	100
1673.927	1.107	1107.2	incongruent	Block2	incongruent/STIM_027.jpg	99
1677.239	0.744	744.0	incongruent	Block2	incongruent/STIM_027.jpg	99
1681.63	0.861	861.1	incongruent	Block2	incongruent/STIM_027.jpg	99
1686.208	0.634	633.7	incongruent	Block2	incongruent/STIM_027.jpg	99
1689.273	0.929	929.2	incongruent	Block2	incongruent/STIM_028.jpg	100
1693.708	0.951	951.0	incongruent	Block2	incongruent/STIM_028.jpg	100
1697.444	0.616	616.5	incongruent	Block2	incongruent/STIM_028.jpg	99
1701.267	0.562	561.5	incongruent	Block2	incongruent/STIM_028.jpg	100
1704.145	0.898	897.6	incongruent	Block2	incongruent/STIM_028.jpg	99
1708.554	1.118	1117.9	incongruent	Block2	incongruent/STIM_029.jpg	99
1713.526	0.934	934.2	incongruent	Block2	incongruent/STIM_029.jpg	100
1717.55	0.875	875.3	incongruent	Block2	incongruent/STIM_029.jpg	100
1721.841	0.884	884.2	incongruent	Block2	incongruent/STIM_029.jpg	99
1726.681	0.987	986.8	incongruent	Block2	incongruent/STIM_029.jpg	99
1730.71	0.794	793.8	congruent	Block2	congruent/STIM_000.jpg	99
1733.497	0.882	881.9	congruent	Block2	congruent/STIM_000.jpg	100
1736.993	0.792	791.8	congruent	Block2	congruent/STIM_000.jpg	99
1741.042	0.89	889.8	congruent	Block2	congruent/STIM_000.jpg	99
1744.286	0.78	779.8	congruent	Block2	congruent/STIM_000.jpg	100
1748.668	0.83	830.1	congruent	Block2	congruent/STIM_001.jpg	100
1752.572	0.7	699.8	congruent	Block2	congruent/STIM_001.jpg	100
1755.628	0.53	529.5	congruent	Block2	congruent/STIM_001.jpg	100
1758.152	0.656	656.3	congruent	Block2	congruent/STIM_001.jpg	100
1761.927	0.573	572.7	congruent	Block2	congruent/STIM_001.jpg	99
1766.423	0.886	886.5	congruent	Block2	congruent/STIM_002.jpg	99
1770.488	0.637	637.1	congruent	Block2	congruent/STIM_002.jpg	99
1774.599	0.569	568.9	congruent	Block2	congruent/STIM_002.jpg	100
1777.33	0.898	897.7	congruent	Block2	congruent/STIM_002.jpg	99
1780.466	0.623	623.1	congruent	Block2	congruent/STIM_002.jpg	100
1783.59	0.838	837.7	congruent	Block2	congruent/STIM_003.jpg	99
1787.971	0.644	644.5	congruent	Block2	congruent/STIM_003.jpg	99
1791.866	0.893	893.0	congruent	Block2	congruent/STIM_003.jpg	100
1794.869	0.762	762.5	congruent	Block2	congruent/STIM_003.jpg	100
1798.171	0.529	529.4	congruent	Block2	congruent/STIM_003.jpg	100
1802.22	0.574	573.5	congruent	Block2	congruent/STIM_004.jpg	99
1806.755	0.669	668.8	congruent	Block2	congruent/STIM_004.jpg	99
1809.871	0.615	614.6	congruent	Block2	congruent/STIM_004.jpg	100
1813.955	0.741	741.0	congruent	Block2	congruent/STIM_004.jpg	99
1817.807	0.711	710.6	congruent	Block2	congruent/STIM_004.jpg	99
1820.77	0.738	738.5	congruent	Block2	congruent/STIM_005.jpg	100
1823.541	0.821	821.3	congruent	Block2	congruent/STIM_005.jpg	99
1827.732	0.788	787.8	congruent	Block2	congruent/STIM_005.jpg	100
1832.153	0.647	647.3	congruent	Block2	congruent/STIM_005.jpg	99
1834.992	0.815	815.3	congruent	Block2	congruent/STIM_005.jpg	99
1839.515	0.638	638.2	congruent	Block2	congruent/STIM_006.jpg	100
1844.048	0.692	692.4	congruent	Block2	congruent/STIM_006.jpg	99
1847.255	0.713	713.1	congruent	Block2	congruent/STIM_006.jpg	99
1849.963	0.574	574.5	congruent	Block2	congruent/STIM_006.jpg	100
1852.614	0.569	568.7	congruent	Block2	congruent/STIM_006.jpg	100
1855.982	0.566	566.1	congruent	Block2	congruent/STIM_007.jpg	99
1858.906	0.637	637.2	congruent	Block2	congruent/STIM_007.jpg	100
1862.364	0.735	735.3	congruent	Block2	congruent/STIM_007.jpg	99
1866.977	0.858	858.1	congruent	Block2	congruent/STIM_007.jpg	99
1871.13	0.637	636.8	congruent	Block2	congruent/STIM_007.jpg	99
1874.95	0.839	838.9	congruent	Block2	congruent/STIM_008.jpg	99
1879.022	0.789	789.4	congruent	Block2	congruent/STIM_008.jpg	99
1883.604	0.747	746.7	congruent	Block2	congruent/STIM_008.jpg	100
1887.974	0.816	816.3	congruent	Block2	congruent/STIM_008.jpg	100
1892.292	0.57	570.1	congruent	Block2	congruent/STIM_008.jpg	99
1895.3	0.626	625.8	congruent	Block2	congruent/STIM_009.jpg	100
1899.158	0.903	902.9	congruent	Block2	congruent/STIM_009.jpg	99
1903.486	0.704	703.5	congruent	Block2	congruent/STIM_009.jpg	99
1906.49	0.607	606.8	congruent	Block2	congruent/STIM_009.jpg	99
1910.451	0.596	595.7	congruent	Block2	congruent/STIM_009.jpg	99
1914.226	0.607	606.8	congruent	Block2	congruent/STIM_010.jpg	99
1918.086	0.712	711.9	congruent	Block2	congruent/STIM_010.jpg	99
1920.946	0.888	888.5	congruent	Block2	congruent/STIM_010.jpg	99
1925.637	0.797	796.7	congruent	Block2	congruent/STIM_010.jpg	99
1929.721	0.765	765.4	congruent	Block2	congruent/STIM_010.jpg	99
1933.059	0.678	677.5	congruent	Block2	congruent/STIM_011.jpg	100
1936.569	0.682	681.7	congruent	Block2	congruent/STIM_011.jpg	100
1941.165	0.859	859.4	congruent	Block2	congruent/STIM_011.jpg	99
1944.088	0.538	538.2	congruent	Block2	congruent/STIM_011.jpg	99
1946.938	0.668	667.7	congruent	Block2	congruent/STIM_011.jpg	100
1951.199	0.925	925.1	congruent	Block2	congruent/STIM_012.jpg	100
1954.322	0.884	884.2	congruent	Block2	congruent/STIM_012.jpg	100
1958.652	0.748	747.6	congruent	Block2	congruent/STIM_012.jpg	100
1962.372	0.658	658.4	congruent	Block2	congruent/STIM_012.jpg	100
1966.079	0.749	748.8	congruent	Block2	congruent/STIM_012.jpg	100
1969.269	0.725	725.0	congruent	Block2	congruent/STIM_013.jpg	100
1972.968	0.908	907.7	congruent	Block2	congruent/STIM_013.jpg	100
1976.818	0.701	700.9	congruent	Block2	congruent/STIM_013.jpg	99
1980.416	0.84	839.7	congruent	Block2	congruent/STIM_013.jpg	99
1984.434	0.914	914.0	congruent	Block2	congruent/STIM_013.jpg	99
1988.171	0.605	604.7	congruent	Block2	congruent/STIM_014.jpg	100
1992.388	0.548	547.5	congruent	Block2	congruent/STIM_014.jpg	99
1996.901	0.582	582.2	congruent	Block2	congruent/STIM_014.jpg	99
2001.211	0.908	908.5	congruent	Block2	congruent/STIM_014.jpg	100
2005.776	0.746	745.7	congruent	Block2	congruent/STIM_014.jpg	99
2008.631	0.616	616.2	congruent	Block2	congruent/STIM_015.jpg	100
2012.904	0.88	880.0	congruent	Block2	congruent/STIM_015.jpg	100
2016.812	0.857	857.1	congruent	Block2	congruent/STIM_015.jpg	100
2021.493	0.651	651.4	congruent	Block2	congruent/STIM_015.jpg	99
2025.128	0.562	562.2	congruent	Block2	congruent/STIM_015.jpg	99
2028.441	0.779	779.3	congruent	Block2	congruent/STIM_016.jpg	99
2033.082	0.816	816.0	congruent	Block2	congruent/STIM_016.jpg	99
2036.386	0.521	521.0	congruent	Block2	congruent/STIM_016.jpg	99
2040.097	0.554	553.8	congruent	Block2	congruent/STIM_016.jpg	100
2044.29	0.832	832.5	congruent	Block2	congruent/STIM_016.jpg	99
2047.936	0.573	572.9	congruent	Block2	congruent/STIM_017.jpg	100
2052.053	0.917	917.2	congruent	Block2	congruent/STIM_017.jpg	100
2056.107	0.655	655.2	congruent	Block2	congruent/STIM_017.jpg	99
2058.985	0.736	735.7	congruent	Block2	congruent/STIM_017.jpg	100
2062.907	0.698	698.0	congruent	Block2	congruent/STIM_017.jpg	100
2065.881	0.874	873.8	congruent	Block2	congruent/STIM_018.jpg	99
2070.568	0.791	790.8	congruent	Block2	congruent/STIM_018.jpg	99
2075.06	0.879	878.9	congruent	Block2	congruent/STIM_018.jpg	100
2077.987	0.616	616.4	congruent	Block2	congruent/STIM_018.jpg	99
2081.256	0.886	886.4	congruent	Block2	congruent/STIM_018.jpg	100
2085.098	0.712	712.2	congruent	Block2	congruent/STIM_019.jpg	99
2088.016	0.616	615.6	congruent	Block2	congruent/STIM_019.jpg	99
2090.882	0.538	537.7	congruent	Block2	congruent/STIM_019.jpg	100
2095.053	0.643	643.2	congruent	Block2	congruent/STIM_019.jpg	99
2098.09	0.664	663.6	congruent	Block2	congruent/STIM_019.jpg	100
2102.279	0.915	914.9	congruent	Block2	congruent/STIM_020.jpg	100
2105.709	0.527	527.1	congruent	Block2	congruent/STIM_020.jpg	99
2108.663	0.603	602.6	congruent	Block2	congruent/STIM_020.jpg	100
2113.17	0.736	735.7	congruent	Block2	congruent/STIM_020.jpg	100
2117.107	0.806	806.1	congruent	Block2	congruent/STIM_020.jpg	99
2121.246	0.781	781.0	congruent	Block2	congruent/STIM_021.jpg	99
2125.284	0.712	711.9	congruent	Block2	congruent/STIM_021.jpg	99
2129.136	0.7	699.6	congruent	Block2	congruent/STIM_021.jpg	100
2133.557	0.753	753.0	congruent	Block2	congruent/STIM_021.jpg	100
2138.061	0.725	725.0	congruent	Block2	congruent/STIM_021.jpg	100
2142.166	0.637	636.7	congruent	Block2	congruent/STIM_022.jpg	100
2145.01	0.902	901.9	congruent	Block2	congruent/STIM_022.jpg	99
2148.081	0.692	692.2	congruent	Block2	congruent/STIM_022.jpg	99
2151.092	0.531	530.7	congruent	Block2	congruent/STIM_022.jpg	100
2154.215	0.55	549.7	congruent	Block2	congruent/STIM_022.jpg	99
2157.758	0.542	542.1	congruent	Block2	congruent/STIM_023.jpg	99
2160.859	0.562	562.2	congruent	Block2	congruent/STIM_023.jpg	100
2165.334	0.817	817.3	congruent	Block2	congruent/STIM_023.jpg	99
2169.622	0.728	727.7	congruent	Block2	congruent/STIM_023.jpg	99
2173.314	0.864	864.3	congruent	Block2	congruent/STIM_023.jpg	99
2177.772	0.65	649.9	congruent	Block2	congruent/STIM_024.jpg	100
2181.013	0.7	699.7	congruent	Block2	congruent/STIM_024.jpg	99
2185.52	0.552	551.6	congruent	Block2	congruent/STIM_024.jpg	100
2188.519	0.902	902.3	congruent	Block2	congruent/STIM_024.jpg	99
2192.984	0.884	884.2	congruent	Block2	congruent/STIM_024.jpg	100
2196.523	0.616	616.1	congruent	Block2	congruent/STIM_025.jpg	99
2199.476	0.739	738.6	congruent	Block2	congruent/STIM_025.jpg	99
2202.863	0.732	732.3	congruent	Block2	congruent/STIM_025.jpg	100
2206.907	0.67	669.5	congruent	Block2	congruent/STIM_025.jpg	99
2211.44	0.738	737.6	congruent	Block2	congruent/STIM_025.jpg	100
2215.212	0.551	551.0	congruent	Block2	congruent/STIM_026.jpg	99
2218.717	0.813	812.9	congruent	Block2	congruent/STIM_026.jpg	99
2223.464	0.741	740.6	congruent	Block2	congruent/STIM_026.jpg	99
2226.228	0.862	861.5	congruent	Block2	congruent/STIM_026.jpg	99
2230.38	0.684	684.0	congruent	Block2	congruent/STIM_026.jpg	99
2234.251	0.706	706.3	congruent	Block2	congruent/STIM_027.jpg	100
2237.027	0.838	838.2	congruent	Block2	congruent/STIM_027.jpg	99
2241.581	0.665	665.4	congruent	Block2	congruent/STIM_027.jpg	99
2245.938	0.537	537.0	congruent	Block2	congruent/STIM_027.jpg	99
2249.59	0.565	564.6	congruent	Block2	congruent/STIM_027.jpg	100
2253.349	0.866	865.9	congruent	Block2	congruent/STIM_028.jpg	99
2256.224	0.864	863.5	congruent	Block2	congruent/STIM_028.jpg	100
2259.151	0.896	896.1	congruent	Block2	congruent/STIM_028.jpg	100
2262.296	0.64	640.3	congruent	Block2	congruent/STIM_028.jpg	99
2266.756	0.542	541.6	congruent	Block2	congruent/STIM_028.jpg	100
2270.451	0.547	547.4	congruent	Block2	congruent/STIM_029.jpg	99
2273.439	0.812	811.8	congruent	Block2	congruent/STIM_029.jpg	99
2276.448	0.746	746.4	congruent	Block2	congruent/STIM_029.jpg	100
2280.997	0.585	584.9	congruent	Block2	congruent/STIM_029.jpg	99
2283.862	0.745	745.2	congruent	Block2	congruent/STIM_029.jpg	100
2287.358	0.651	650.7	incongruent	Block3	incongruent/STIM_000.jpg	100
2291.096	0.95	949.7	incongruent	Block3	incongruent/STIM_000.jpg	100
2294.568	0.652	652.0	incongruent	Block3	incongruent/STIM_000.jpg	100
2297.225	0.68	680.5	incongruent	Block3	incongruent/STIM_000.jpg	100
2300.227	0.938	938.4	incongruent	Block3	incongruent/STIM_000.jpg	100
2303.911	1.006	1006.1	incongruent	Block3	incongruent/STIM_001.jpg	100
2308.58	0.542	542.4	incongruent	Block3	incongruent/STIM_001.jpg	100
2313.053	0.843	843.0	incongruent	Block3	incongruent/STIM_001.jpg	100
2315.95	0.611	611.3	incongruent	Block3	incongruent/STIM_001.jpg	99
2318.837	0.87	869.5	incongruent	Block3	incongruent/STIM_001.jpg	100
2323.109	0.785	784.6	incongruent	Block3	incongruent/STIM_002.jpg	100
2327.155	0.823	822.7	incongruent	Block3	incongruent/STIM_002.jpg	100
2331.435	0.791	790.6	incongruent	Block3	incongruent/STIM_002.jpg	99
2334.346	0.685	685.3	incongruent	Block3	incongruent/STIM_002.jpg	100
2337.381	0.998	997.8	incongruent	Block3	incongruent/STIM_002.jpg	100
2341.063	1.08	1079.8	incongruent	Block3	incongruent/STIM_003.jpg	99
2345.511	0.559	558.7	incongruent	Block3	incongruent/STIM_003.jpg	100
2348.873	0.724	724.0	incongruent	Block3	incongruent/STIM_003.jpg	99
2352.34	1.033	1032.9	incongruent	Block3	incongruent/STIM_003.jpg	99
2355.45	0.967	966.9	incongruent	Block3	incongruent/STIM_003.jpg	100
2358.828	0.576	575.7	incongruent	Block3	incongruent/STIM_004.jpg	99
2362.075	0.555	554.8	incongruent	Block3	incongruent/STIM_004.jpg	99
2365.909	0.67	669.6	incongruent	Block3	incongruent/STIM_004.jpg	100
2369.981	0.662	662.5	incongruent	Block3	incongruent/STIM_004.jpg	99
2374.012	0.675	674.8	incongruent	Block3	incongruent/STIM_004.jpg	100
2377.666	0.7	699.8	incongruent	Block3	incongruent/STIM_005.jpg	99
2381.406	0.959	958.8	incongruent	Block3	incongruent/STIM_005.jpg	100
2385.036	0.75	749.9	incongruent	Block3	incongruent/STIM_005.jpg	100
2388.227	0.712	712.4	incongruent	Block3	incongruent/STIM_005.jpg	99
2391.825	0.905	905.1	incongruent	Block3	incongruent/STIM_005.jpg	100
2395.857	0.81	809.6	incongruent	Block3	incongruent/STIM_006.jpg	100
2399.401	0.745	745.1	incongruent	Block3	incongruent/STIM_006.jpg	99
2403.566	0.62	620.3	incongruent	Block3	incongruent/STIM_006.jpg	100
2407.459	0.943	943.0	incongruent	Block3	incongruent/STIM_006.jpg	100
2412.198	0.939	939.4	incongruent	Block3	incongruent/STIM_006.jpg	100
2417.066	0.776	776.0	incongruent	Block3	incongruent/STIM_007.jpg	99
2420.177	0.673	672.6	incongruent	Block3	incongruent/STIM_007.jpg	100
2423.031	0.762	761.5	incongruent	Block3	incongruent/STIM_007.jpg	100
2426.404	0.728	727.8	incongruent	Block3	incongruent/STIM_007.jpg	99
2430.991	0.678	677.8	incongruent	Block3	incongruent/STIM_007.jpg	99
2434.392	0.708	707.8	incongruent	Block3	incongruent/STIM_008.jpg	99
2438.136	0.974	974.0	incongruent	Block3	incongruent/STIM_008.jpg	100
2443.024	0.652	652.0	incongruent	Block3	incongruent/STIM_008.jpg	100
2446.633	0.904	903.8	incongruent	Block3	incongruent/STIM_008.jpg	100
2450.931	0.872	872.2	incongruent	Block3	incongruent/STIM_008.jpg	100
2455.213	0.775	774.7	incongruent	Block3	incongruent/STIM_009.jpg	100
2459.17	0.949	949.4	incongruent	Block3	incongruent/STIM_009.jpg	100
2463.045	0.605	604.8	incongruent	Block3	incongruent/STIM_009.jpg	99
2465.945	0.611	611.2	incongruent	Block3	incongruent/STIM_009.jpg	99
2469.993	0.743	743.4	incongruent	Block3	incongruent/STIM_009.jpg	99
2473.591	1.033	1032.9	incongruent	Block3	incongruent/STIM_010.jpg	99
2477.271	0.952	952.5	incongruent	Block3	incongruent/STIM_010.jpg	99
2480.881	0.529	529.4	incongruent	Block3	incongruent/STIM_010.jpg	99
2483.977	0.532	531.9	incongruent	Block3	incongruent/STIM_010.jpg	99
2487.904	0.673	672.7	incongruent	Block3	incongruent/STIM_010.jpg	99
2491.432	0.755	754.7	incongruent	Block3	incongruent/STIM_011.jpg	99
2495.423	1.077	1076.6	incongruent	Block3	incongruent/STIM_011.jpg	100
2499.129	0.597	597.2	incongruent	Block3	incongruent/STIM_011.jpg	100
2502.392	0.838	838.0	incongruent	Block3	incongruent/STIM_011.jpg	99
2506.406	1.06	1060.2	incongruent	Block3	incongruent/STIM_011.jpg	99
2511.273	0.724	724.0	incongruent	Block3	incongruent/STIM_012.jpg	100
2514.635	0.628	628.5	incongruent	Block3	incongruent/STIM_012.jpg	100
2518.387	1.079	1079.0	incongruent	Block3	incongruent/STIM_012.jpg	99
2522.337	0.931	930.7	incongruent	Block3	incongruent/STIM_012.jpg	99
2527.116	0.644	644.1	incongruent	Block3	incongruent/STIM_012.jpg	99
2530.929	0.984	984.0	incongruent	Block3	incongruent/STIM_013.jpg	99
2534.034	0.875	875.4	incongruent	Block3	incongruent/STIM_013.jpg	100
2537.566	0.751	750.8	incongruent	Block3	incongruent/STIM_013.jpg	100
2540.689	1.084	1084.3	incongruent	Block3	incongruent/STIM_013.jpg	100
2545.638	0.992	991.7	incongruent	Block3	incongruent/STIM_013.jpg	99
2550.563	1.034	1034.4	incongruent	Block3	incongruent/STIM_014.jpg	99
2553.652	0.614	613.6	incongruent	Block3	incongruent/STIM_014.jpg	100
2556.853	0.824	824.3	incongruent	Block3	incongruent/STIM_014.jpg	99
2559.652	0.691	690.7	incongruent	Block3	incongruent/STIM_014.jpg	99
2563.042	1.016	1016.0	incongruent	Block3	incongruent/STIM_014.jpg	100
2566.356	1.039	1038.8	incongruent	Block3	incongruent/STIM_015.jpg	100
2569.694	0.613	613.1	incongruent	Block3	incongruent/STIM_015.jpg	100
2573.191	0.89	890.0	incongruent	Block3	incongruent/STIM_015.jpg	99
2576.47	1.013	1012.6	incongruent	Block3	incongruent/STIM_015.jpg	99
2580.402	1.093	1092.7	incongruent	Block3	incongruent/STIM_015.jpg	99
2583.653	0.804	803.5	incongruent	Block3	incongruent/STIM_016.jpg	99
2586.584	0.983	982.6	incongruent	Block3	incongruent/STIM_016.jpg	99
2590.526	0.954	953.5	incongruent	Block3	incongruent/STIM_016.jpg	100
2593.447	1.024	1024.2	incongruent	Block3	incongruent/STIM_016.jpg	100
2597.909	0.941	940.7	incongruent	Block3	incongruent/STIM_016.jpg	99
2602.431	0.731	730.9	incongruent	Block3	incongruent/STIM_017.jpg	100
2605.524	0.715	715.3	incongruent	Block3	incongruent/STIM_017.jpg	99
2609.971	0.811	811.0	incongruent	Block3	incongruent/STIM_017.jpg	99
2613.253	0.516	516.4	incongruent	Block3	incongruent/STIM_017.jpg	100
2616.656	0.983	982.7	incongruent	Block3	incongruent/STIM_017.jpg	100
2620.354	0.849	849.4	incongruent	Block3	incongruent/STIM_018.jpg	99
2623.364	0.965	964.6	incongruent	Block3	incongruent/STIM_018.jpg	99
2628.004	0.802	801.6	incongruent	Block3	incongruent/STIM_018.jpg	100
2632.037	0.763	763.0	incongruent	Block3	incongruent/STIM_018.jpg	99
2635.939	0.973	973.1	incongruent	Block3	incongruent/STIM_018.jpg	100
2640.585	0.552	552.3	incongruent	Block3	incongruent/STIM_019.jpg	99
2644.931	0.911	911.4	incongruent	Block3	incongruent/STIM_019.jpg	100
2649.161	0.854	854.5	incongruent	Block3	incongruent/STIM_019.jpg	100
2653.023	0.646	646.0	incongruent	Block3	incongruent/STIM_019.jpg	99
2655.904	1.011	1010.7	incongruent	Block3	incongruent/STIM_019.jpg	99
2659.757	0.535	535.4	incongruent	Block3	incongruent/STIM_020.jpg	99
2663.52	0.993	992.6	incongruent	Block3	incongruent/STIM_020.jpg	99
2667.269	0.833	833.4	incongruent	Block3	incongruent/STIM_020.jpg	100
2671.613	0.696	695.6	incongruent	Block3	incongruent/STIM_020.jpg	99
2675.158	0.735	734.8	incongruent	Block3	incongruent/STIM_020.jpg	100
2677.948	0.761	761.3	incongruent	Block3	incongruent/STIM_021.jpg	100
2682.097	0.606	605.9	incongruent	Block3	incongruent/STIM_021.jpg	99
2685.398	0.571	570.7	incongruent	Block3	incongruent/STIM_021.jpg	100
2688.121	0.629	628.7	incongruent	Block3	incongruent/STIM_021.jpg	99
2691.247	0.573	573.2	incongruent	Block3	incongruent/STIM_021.jpg	99
2695.643	0.848	847.5	incongruent	Block3	incongruent/STIM_022.jpg	100
2699.877	1.045	1045.4	incongruent	Block3	incongruent/STIM_022.jpg	99
2704.046	0.512	511.6	incongruent	Block3	incongruent/STIM_022.jpg	99
2707.005	1.092	1092.0	incongruent	Block3	incongruent/STIM_022.jpg	100
2711.062	0.716	716.4	incongruent	Block3	incongruent/STIM_022.jpg	100
2714.417	1.055	1055.4	incongruent	Block3	incongruent/STIM_023.jpg	99
2718.035	1.021	1021.3	incongruent	Block3	incongruent/STIM_023.jpg	100
2721.544	0.957	957.1	incongruent	Block3	incongruent/STIM_023.jpg	99
2726.042	0.738	738.1	incongruent	Block3	incongruent/STIM_023.jpg	99
2729.594	0.744	743.7	incongruent	Block3	incongruent/STIM_023.jpg	99
2733.072	0.747	746.8	incongruent	Block3	incongruent/STIM_024.jpg	100
2736.019	0.659	659.1	incongruent	Block3	incongruent/STIM_024.jpg	99
2740.435	0.557	557.4	incongruent	Block3	incongruent/STIM_024.jpg	100
2743.577	0.94	939.8	incongruent	Block3	incongruent/STIM_024.jpg	99
2748.423	0.978	977.9	incongruent	Block3	incongruent/STIM_024.jpg	99
2752.207	0.845	844.6	incongruent	Block3	incongruent/STIM_025.jpg	100
2755.777	0.803	803.3	incongruent	Block3	incongruent/STIM_025.jpg	100
2759.227	0.592	592.5	incongruent	Block3	incongruent/STIM_025.jpg	100
2762.233	0.742	742.4	incongruent	Block3	incongruent/STIM_025.jpg	99
2765.445	1.045	1044.9	incongruent	Block3	incongruent/STIM_025.jpg	100
2769.658	0.893	892.6	incongruent	Block3	incongruent/STIM_026.jpg	100
2773.582	0.531	530.9	incongruent	Block3	incongruent/STIM_026.jpg	100
2776.187	1.088	1088.0	incongruent	Block3	incongruent/STIM_026.jpg	99
2780.089	0.912	912.3	incongruent	Block3	incongruent/STIM_026.jpg	99
2784.246	0.912	912.5	incongruent	Block3	incongruent/STIM_026.jpg	100
2787.939	0.52	520.3	incongruent	Block3	incongruent/STIM_027.jpg	99
2791.071	0.859	859.4	incongruent	Block3	incongruent/STIM_027.jpg	100
2795.486	0.908	908.1	incongruent	Block3	incongruent/STIM_027.jpg	99
2799.179	0.762	762.0	incongruent	Block3	incongruent/STIM_027.jpg	100
2801.926	0.82	819.9	incongruent	Block3	incongruent/STIM_027.jpg	99
2805.747	0.694	693.8	incongruent	Block3	incongruent/STIM_028.jpg	100
2809.059	0.959	959.4	incongruent	Block3	incongruent/STIM_028.jpg	99
2812.234	0.594	593.9	incongruent	Block3	incongruent/STIM_028.jpg	99
2815.603	0.87	869.7	incongruent	Block3	incongruent/STIM_028.jpg	99
2819.355	1.006	1005.8	incongruent	Block3	incongruent/STIM_028.jpg	99
2823.957	0.811	811.3	incongruent	Block3	incongruent/STIM_029.jpg	100
2826.788	0.726	726.1	incongruent	Block3	incongruent/STIM_029.jpg	99
2830.299	1.023	1023.2	incongruent	Block3	incongruent/STIM_029.jpg	100
2834.185	0.556	555.9	incongruent	Block3	incongruent/STIM_029.jpg	99
2838.671	1.021	1021.3	incongruent	Block3	incongruent/STIM_029.jpg	100
2842.598	0.789	789.3	congruent	Block3	congruent/STIM_000.jpg	99
2847.253	0.701	700.6	congruent	Block3	congruent/STIM_000.jpg	100
2851.918	0.818	817.7	congruent	Block3	congruent/STIM_000.jpg	99
2855.174	0.549	549.0	congruent	Block3	congruent/STIM_000.jpg	100
2859.277	0.754	753.7	congruent	Block3	congruent/STIM_000.jpg	99
2863.27	0.63	629.5	congruent	Block3	congruent/STIM_001.jpg	100
2867.529	0.816	816.4	congruent	Block3	congruent/STIM_001.jpg	100
2871.054	0.894	893.9	congruent	Block3	congruent/STIM_001.jpg	99
2875.181	0.632	632.3	congruent	Block3	congruent/STIM_001.jpg	100
2878.592	0.768	767.8	congruent	Block3	congruent/STIM_001.jpg	99
2883.037	0.879	878.6	congruent	Block3	congruent/STIM_002.jpg	99
2887.733	0.656	655.7	congruent	Block3	congruent/STIM_002.jpg	100
2890.543	0.894	894.4	congruent	Block3	congruent/STIM_002.jpg	99
2895.334	0.55	550.4	congruent	Block3	congruent/STIM_002.jpg	100
2899.127	0.724	723.8	congruent	Block3	congruent/STIM_002.jpg	100
2902.815	0.854	853.8	congruent	Block3	congruent/STIM_003.jpg	99
2906.562	0.577	577.4	congruent	Block3	congruent/STIM_003.jpg	99
2910.162	0.551	551.4	congruent	Block3	congruent/STIM_003.jpg	100
2913.41	0.731	731.3	congruent	Block3	congruent/STIM_003.jpg	99
2917.011	0.654	653.6	congruent	Block3	congruent/STIM_003.jpg	99
2919.868	0.887	886.9	congruent	Block3	congruent/STIM_004.jpg	100
2923.507	0.829	829.3	congruent	Block3	congruent/STIM_004.jpg	100
2927.884	0.884	884.0	congruent	Block3	congruent/STIM_004.jpg	99
2931.414	0.911	911.1	congruent	Block3	congruent/STIM_004.jpg	99
2935.026	0.686	686.4	congruent	Block3	congruent/STIM_004.jpg	100
2939.103	0.533	532.6	congruent	Block3	congruent/STIM_005.jpg	100
2942.422	0.563	562.6	congruent	Block3	congruent/STIM_005.jpg	100
2946.247	0.715	715.4	congruent	Block3	congruent/STIM_005.jpg	99
2949.705	0.921	921.3	congruent	Block3	congruent/STIM_005.jpg	100
2953.9	0.643	643.1	congruent	Block3	congruent/STIM_005.jpg	99
2956.527	0.699	698.7	congruent	Block3	congruent/STIM_006.jpg	100
2960.215	0.729	729.4	congruent	Block3	congruent/STIM_006.jpg	99
2964.492	0.65	650.1	congruent	Block3	congruent/STIM_006.jpg	100
2967.472	0.608	607.9	congruent	Block3	congruent/STIM_006.jpg	99
2971.546	0.568	567.5	congruent	Block3	congruent/STIM_006.jpg	99
2974.217	0.689	689.0	congruent	Block3	congruent/STIM_007.jpg	100
2978.198	0.875	875.3	congruent	Block3	congruent/STIM_007.jpg	99
2982.273	0.808	808.3	congruent	Block3	congruent/STIM_007.jpg	100
2985.278	0.737	737.1	congruent	Block3	congruent/STIM_007.jpg	99
2989.574	0.697	696.8	congruent	Block3	congruent/STIM_007.jpg	100
2992.489	0.919	918.7	congruent	Block3	congruent/STIM_008.jpg	99
2995.797	0.802	802.3	congruent	Block3	congruent/STIM_008.jpg	99
2999.161	0.895	895.0	congruent	Block3	congruent/STIM_008.jpg	99
3002.617	0.721	721.3	congruent	Block3	congruent/STIM_008.jpg	100
3006.188	0.697	697.4	congruent	Block3	congruent/STIM_008.jpg	99
3010.35	0.55	550.1	congruent	Block3	congruent/STIM_009.jpg	99
3014.633	0.645	644.7	congruent	Block3	congruent/STIM_009.jpg	100
3018.741	0.803	802.9	congruent	Block3	congruent/STIM_009.jpg	100
3023.148	0.632	632.2	congruent	Block3	congruent/STIM_009.jpg	100
3026.342	0.7	699.8	congruent	Block3	congruent/STIM_009.jpg	100
3029.588	0.777	777.1	congruent	Block3	congruent/STIM_010.jpg	99
3033.225	0.556	556.1	congruent	Block3	congruent/STIM_010.jpg	99
3037.105	0.901	901.3	congruent	Block3	congruent/STIM_010.jpg	100
3040.064	0.772	771.8	congruent	Block3	congruent/STIM_010.jpg	99
3044.226	0.82	820.5	congruent	Block3	congruent/STIM_010.jpg	100
3048.6	0.704	703.8	congruent	Block3	congruent/STIM_011.jpg	100
3051.918	0.827	827.0	congruent	Block3	congruent/STIM_011.jpg	99
3056.541	0.874	873.7	congruent	Block3	congruent/STIM_011.jpg	100
3061.133	0.624	624.0	congruent	Block3	congruent/STIM_011.jpg	99
3065.693	0.817	817.3	congruent	Block3	congruent/STIM_011.jpg	100
3069.654	0.925	925.0	congruent	Block3	congruent/STIM_012.jpg	100
3072.792	0.658	657.7	congruent	Block3	congruent/STIM_012.jpg	99
3076.128	0.612	612.3	congruent	Block3	congruent/STIM_012.jpg	99
3078.847	0.764	764.4	congruent	Block3	congruent/STIM_012.jpg	99
3081.885	0.796	795.6	congruent	Block3	congruent/STIM_012.jpg	100
3085.539	0.638	638.1	congruent	Block3	congruent/STIM_013.jpg	100
3089.551	0.81	809.8	congruent	Block3	congruent/STIM_013.jpg	99
3093.158	0.825	824.8	congruent	Block3	congruent/STIM_013.jpg	99
3097.227	0.587	587.3	congruent	Block3	congruent/STIM_013.jpg	99
3100.419	0.639	638.7	congruent	Block3	congruent/STIM_013.jpg	100
3103.425	0.767	767.2	congruent	Block3	congruent/STIM_014.jpg	99
3106.896	0.78	779.7	congruent	Block3	congruent/STIM_014.jpg	99
3111.533	0.541	541.3	congruent	Block3	congruent/STIM_014.jpg	100
3115.814	0.584	583.6	congruent	Block3	congruent/STIM_014.jpg	99
3120.316	0.847	846.9	congruent	Block3	congruent/STIM_014.jpg	100
3124.69	0.831	830.7	congruent	Block3	congruent/STIM_015.jpg	100
3127.894	0.88	880.0	congruent	Block3	congruent/STIM_015.jpg	99
3132.521	0.752	751.8	congruent	Block3	congruent/STIM_015.jpg	100
3137.184	0.756	756.3	congruent	Block3	congruent/STIM_015.jpg	100
3141.164	0.789	788.7	congruent	Block3	congruent/STIM_015.jpg	100
3145.091	0.858	858.3	congruent	Block3	congruent/STIM_016.jpg	100
3148.776	0.851	851.3	congruent	Block3	congruent/STIM_016.jpg	100
3153.371	0.714	714.4	congruent	Block3	congruent/STIM_016.jpg	100
3157.399	0.526	526.4	congruent	Block3	congruent/STIM_016.jpg	100
3160.269	0.66	659.7	congruent	Block3	congruent/STIM_016.jpg	100
3163.597	0.756	755.6	congruent	Block3	congruent/STIM_017.jpg	100
3167.278	0.835	835.0	congruent	Block3	congruent/STIM_017.jpg	100
3171.2	0.634	634.3	congruent	Block3	congruent/STIM_017.jpg	99
3173.927	0.588	588.3	congruent	Block3	congruent/STIM_017.jpg	100
3177.116	0.666	666.1	congruent	Block3	congruent/STIM_017.jpg	100
3180.669	0.823	822.9	congruent	Block3	congruent/STIM_018.jpg	100
3183.491	0.537	537.2	congruent	Block3	congruent/STIM_018.jpg	99
3186.909	0.536	535.7	congruent	Block3	congruent/STIM_018.jpg	99
3191.18	0.774	773.9	congruent	Block3	congruent/STIM_018.jpg	100
3195.493	0.927	927.0	congruent	Block3	congruent/STIM_018.jpg	99
3200.166	0.915	915.1	congruent	Block3	congruent/STIM_019.jpg	100
3204.533	0.82	820.2	congruent	Block3	congruent/STIM_019.jpg	99
3207.9	0.642	642.1	congruent	Block3	congruent/STIM_019.jpg	100
3211.562	0.529	529.4	congruent	Block3	congruent/STIM_019.jpg	99
3215.47	0.835	834.7	congruent	Block3	congruent/STIM_019.jpg	100
3218.893	0.794	793.5	congruent	Block3	congruent/STIM_020.jpg	99
3222.249	0.617	617.1	congruent	Block3	congruent/STIM_020.jpg	100
3225.023	0.528	527.8	congruent	Block3	congruent/STIM_020.jpg	100
3227.921	0.707	707.2	congruent	Block3	congruent/STIM_020.jpg	100
3231.066	0.86	860.0	congruent	Block3	congruent/STIM_020.jpg	99
3235.753	0.716	716.4	congruent	Block3	congruent/STIM_021.jpg	99
3239.271	0.703	703.1	congruent	Block3	congruent/STIM_021.jpg	100
3242.713	0.816	815.6	congruent	Block3	congruent/STIM_021.jpg	99
3245.761	0.823	823.0	congruent	Block3	congruent/STIM_021.jpg	99
3249.234	0.691	690.8	congruent	Block3	congruent/STIM_021.jpg	99
3252.263	0.61	610.2	congruent	Block3	congruent/STIM_022.jpg	99
3256.136	0.923	923.2	congruent	Block3	congruent/STIM_022.jpg	100
3260.864	0.753	753.4	congruent	Block3	congruent/STIM_022.jpg	99
3263.862	0.69	689.6	congruent	Block3	congruent/STIM_022.jpg	100
3266.637	0.927	926.9	congruent	Block3	congruent/STIM_022.jpg	99
3269.599	0.896	896.5	congruent	Block3	congruent/STIM_023.jpg	99
3273.673	0.763	763.2	congruent	Block3	congruent/STIM_023.jpg	100
3276.575	0.864	863.7	congruent	Block3	congruent/STIM_023.jpg	99
3280.019	0.534	533.7	congruent	Block3	congruent/STIM_023.jpg	100
3283.389	0.854	853.6	congruent	Block3	congruent/STIM_023.jpg	100
3286.736	0.675	675.2	congruent	Block3	congruent/STIM_024.jpg	99
3290.135	0.864	863.5	congruent	Block3	congruent/STIM_024.jpg	100
3293.492	0.774	773.9	congruent	Block3	congruent/STIM_024.jpg	99
3296.647	0.643	642.9	congruent	Block3	congruent/STIM_024.jpg	100
3299.74	0.612	611.7	congruent	Block3	congruent/STIM_024.jpg	100
3303.806	0.638	638.1	congruent	Block3	congruent/STIM_025.jpg	99
3307.989	0.719	719.4	congruent	Block3	congruent/STIM_025.jpg	99
3311.106	0.881	880.8	congruent	Block3	congruent/STIM_025.jpg	99
3315.642	0.907	907.4	congruent	Block3	congruent/STIM_025.jpg	99
3319.252	0.781	781.0	congruent	Block3	congruent/STIM_025.jpg	99
3322.523	0.847	847.4	congruent	Block3	congruent/STIM_026.jpg	99
3326.985	0.531	531.2	congruent	Block3	congruent/STIM_026.jpg	100
3330.385	0.714	714.3	congruent	Block3	congruent/STIM_026.jpg	99
3334.948	0.733	733.3	congruent	Block3	congruent/STIM_026.jpg	99
3337.837	0.909	909.4	congruent	Block3	congruent/STIM_026.jpg	99
3342.238	0.79	790.1	congruent	Block3	congruent/STIM_027.jpg	100
3346.333	0.767	766.9	congruent	Block3	congruent/STIM_027.jpg	100
3349.658	0.586	585.9	congruent	Block3	congruent/STIM_027.jpg	99
3352.75	0.694	693.9	congruent	Block3	congruent/STIM_027.jpg	99
3356.344	0.678	678.2	congruent	Block3	congruent/STIM_027.jpg	99
3359.814	0.89	889.6	congruent	Block3	congruent/STIM_028.jpg	100
3362.814	0.68	680.0	congruent	Block3	congruent/STIM_028.jpg	100
3365.593	0.717	716.9	congruent	Block3	congruent/STIM_028.jpg	100
3370.005	0.875	874.9	congruent	Block3	congruent/STIM_028.jpg	99
3373.976	0.931	930.9	congruent	Block3	congruent/STIM_028.jpg	99
3377.878	0.542	542.1	congruent	Block3	congruent/STIM_029.jpg	99
3380.504	0.92	919.6	congruent	Block3	congruent/STIM_029.jpg	100
3383.802	0.642	642.4	congruent	Block3	congruent/STIM_029.jpg	99
3387.07	0.619	618.9	congruent	Block3	congruent/STIM_029.jpg	100
3389.987	0.814	813.5	congruent	Block3	congruent/STIM_029.jpg	99
