onset	duration	accuracy	trial_type	learning_stage	stimulus
0.0	1.519	correct	incongruent	Block1	incongruent/STIM_000.jpg
3.703	1.177	correct	incongruent	Block1	incongruent/STIM_000.jpg
7.368	1.268	correct	incongruent	Block1	incongruent/STIM_000.jpg
10.879	0.857	correct	incongruent	Block1	incongruent/STIM_000.jpg
15.276	0.793	correct	incongruent	Block1	incongruent/STIM_000.jpg
19.857	1.399	correct	incongruent	Block1	incongruent/STIM_001.jpg
25.182	1.224	correct	incongruent	Block1	incongruent/STIM_001.jpg
28.798	1.23	correct	incongruent	Block1	incongruent/STIM_001.jpg
33.651	1.14	correct	incongruent	Block1	incongruent/STIM_001.jpg
37.859	0.919	correct	incongruent	Block1	incongruent/STIM_001.jpg
41.954	1.407	correct	incongruent	Block1	incongruent/STIM_002.jpg
45.403	1.337	correct	incongruent	Block1	incongruent/STIM_002.jpg
49.486	1.328	correct	incongruent	Block1	incongruent/STIM_002.jpg
53.834	0.774	correct	incongruent	Block1	incongruent/STIM_002.jpg
58.085	0.689	incorrect	incongruent	Block1	incongruent/STIM_002.jpg
61.083	1.143	correct	incongruent	Block1	incongruent/STIM_003.jpg
65.085	0.713	correct	incongruent	Block1	incongruent/STIM_003.jpg
69.158	1.069	correct	incongruent	Block1	incongruent/STIM_003.jpg
74.136	0.94	incorrect	incongruent	Block1	incongruent/STIM_003.jpg
78.553	0.622	correct	incongruent	Block1	incongruent/STIM_003.jpg
82.371	0.854	correct	incongruent	Block1	incongruent/STIM_004.jpg
85.928	0.84	correct	incongruent	Block1	incongruent/STIM_004.jpg
90.042	1.095	correct	incongruent	Block1	incongruent/STIM_004.jpg
94.447	1.038	correct	incongruent	Block1	incongruent/STIM_004.jpg
97.794	0.851	correct	incongruent	Block1	incongruent/STIM_004.jpg
101.232	1.052	correct	incongruent	Block1	incongruent/STIM_005.jpg
104.586	1.133	correct	incongruent	Block1	incongruent/STIM_005.jpg
108.861	1.128	correct	incongruent	Block1	incongruent/STIM_005.jpg
113.068	1.181	incorrect	incongruent	Block1	incongruent/STIM_005.jpg
117.706	0.933	correct	incongruent	Block1	incongruent/STIM_005.jpg
122.283	0.998	correct	incongruent	Block1	incongruent/STIM_006.jpg
126.695	1.306	correct	incongruent	Block1	incongruent/STIM_006.jpg
131.903	0.947	correct	incongruent	Block1	incongruent/STIM_006.jpg
135.041	1.036	correct	incongruent	Block1	incongruent/STIM_006.jpg
139.051	1.228	correct	incongruent	Block1	incongruent/STIM_006.jpg
142.482	1.093	incorrect	incongruent	Block1	incongruent/STIM_007.jpg
146.877	0.888	correct	incongruent	Block1	incongruent/STIM_007.jpg
151.014	0.671	correct	incongruent	Block1	incongruent/STIM_007.jpg
154.521	1.268	correct	incongruent	Block1	incongruent/STIM_007.jpg
157.815	0.96	correct	incongruent	Block1	incongruent/STIM_007.jpg
161.825	0.932	correct	incongruent	Block1	incongruent/STIM_008.jpg
166.694	1.362	correct	incongruent	Block1	incongruent/STIM_008.jpg
170.113	1.383	correct	incongruent	Block1	incongruent/STIM_008.jpg
175.159	1.051	correct	incongruent	Block1	incongruent/STIM_008.jpg
178.803	1.189	correct	incongruent	Block1	incongruent/STIM_008.jpg
182.506	1.088	incorrect	incongruent	Block1	incongruent/STIM_009.jpg
187.257	1.284	correct	incongruent	Block1	incongruent/STIM_009.jpg
192.369	1.247	correct	incongruent	Block1	incongruent/STIM_009.jpg
196.14	1.235	correct	incongruent	Block1	incongruent/STIM_009.jpg
200.414	1.078	correct	incongruent	Block1	incongruent/STIM_009.jpg
204.592	1.132	correct	incongruent	Block1	incongruent/STIM_010.jpg
209.654	1.18	correct	incongruent	Block1	incongruent/STIM_010.jpg
214.364	0.68	correct	incongruent	Block1	incongruent/STIM_010.jpg
218.416	1.084	correct	incongruent	Block1	incongruent/STIM_010.jpg
223.066	0.807	correct	incongruent	Block1	incongruent/STIM_010.jpg
226.707	1.001	correct	incongruent	Block1	incongruent/STIM_011.jpg
230.142	1.396	correct	incongruent	Block1	incongruent/STIM_011.jpg
234.984	0.81	correct	incongruent	Block1	incongruent/STIM_011.jpg
239.117	1.034	correct	incongruent	Block1	incongruent/STIM_011.jpg
242.781	0.943	correct	incongruent	Block1	incongruent/STIM_011.jpg
246.522	1.411	correct	incongruent	Block1	incongruent/STIM_012.jpg
250.064	0.702	incorrect	incongruent	Block1	incongruent/STIM_012.jpg
254.15	1.016	correct	incongruent	Block1	incongruent/STIM_012.jpg
258.103	1.236	correct	incongruent	Block1	incongruent/STIM_012.jpg
263.134	0.593	correct	incongruent	Block1	incongruent/STIM_012.jpg
265.971	0.856	correct	incongruent	Block1	incongruent/STIM_013.jpg
270.448	1.468	correct	incongruent	Block1	incongruent/STIM_013.jpg
275.788	1.133	correct	incongruent	Block1	incongruent/STIM_013.jpg
279.519	1.273	correct	incongruent	Block1	incongruent/STIM_013.jpg
283.818	0.694	correct	incongruent	Block1	incongruent/STIM_013.jpg
286.665	0.839	correct	incongruent	Block1	incongruent/STIM_014.jpg
291.135	1.316	correct	incongruent	Block1	incongruent/STIM_014.jpg
295.242	0.94	correct	incongruent	Block1	incongruent/STIM_014.jpg
298.532	1.25	correct	incongruent	Block1	incongruent/STIM_014.jpg
303.708	0.657	correct	incongruent	Block1	incongruent/STIM_014.jpg
306.802	0.844	correct	incongruent	Block1	incongruent/STIM_015.jpg
311.524	1.445	correct	incongruent	Block1	incongruent/STIM_015.jpg
315.312	1.046	correct	incongruent	Block1	incongruent/STIM_015.jpg
319.232	1.266	correct	incongruent	Block1	incongruent/STIM_015.jpg
322.754	0.649	correct	incongruent	Block1	incongruent/STIM_015.jpg
326.992	1.386	correct	incongruent	Block1	incongruent/STIM_016.jpg
331.328	0.832	correct	incongruent	Block1	incongruent/STIM_016.jpg
335.412	1.107	correct	incongruent	Block1	incongruent/STIM_016.jpg
339.125	0.675	incorrect	incongruent	Block1	incongruent/STIM_016.jpg
341.779	0.75	correct	incongruent	Block1	incongruent/STIM_016.jpg
344.842	1.55	correct	incongruent	Block1	incongruent/STIM_017.jpg
349.121	0.724	correct	incongruent	Block1	incongruent/STIM_017.jpg
351.839	1.175	correct	incongruent	Block1	incongruent/STIM_017.jpg
355.357	0.729	correct	incongruent	Block1	incongruent/STIM_017.jpg
358.669	0.651	correct	incongruent	Block1	incongruent/STIM_017.jpg
362.737	1.138	incorrect	incongruent	Block1	incongruent/STIM_018.jpg
367.359	0.747	correct	incongruent	Block1	incongruent/STIM_018.jpg
371.694	1.055	incorrect	incongruent	Block1	incongruent/STIM_018.jpg
375.862	1.192	correct	incongruent	Block1	incongruent/STIM_018.jpg
380.886	0.794	correct	incongruent	Block1	incongruent/STIM_018.jpg
384.668	0.744	correct	incongruent	Block1	incongruent/STIM_019.jpg
387.751	1.001	incorrect	incongruent	Block1	incongruent/STIM_019.jpg
392.138	1.037	correct	incongruent	Block1	incongruent/STIM_019.jpg
395.834	1.147	correct	incongruent	Block1	incongruent/STIM_019.jpg
399.597	0.598	correct	incongruent	Block1	incongruent/STIM_019.jpg
403.809	1.264	correct	incongruent	Block1	incongruent/STIM_020.jpg
407.618	1.007	incorrect	incongruent	Block1	incongruent/STIM_020.jpg
410.78	1.098	correct	incongruent	Block1	incongruent/STIM_020.jpg
414.191	1.24	correct	incongruent	Block1	incongruent/STIM_020.jpg
417.511	0.606	correct	incongruent	Block1	incongruent/STIM_020.jpg
420.889	1.137	correct	incongruent	Block1	incongruent/STIM_021.jpg
424.597	0.788	correct	incongruent	Block1	incongruent/STIM_021.jpg
427.397	1.314	incorrect	incongruent	Block1	incongruent/STIM_021.jpg
431.34	0.998	correct	incongruent	Block1	incongruent/STIM_021.jpg
435.522	1.193	correct	incongruent	Block1	incongruent/STIM_021.jpg
440.215	1.291	correct	incongruent	Block1	incongruent/STIM_022.jpg
443.503	0.848	correct	incongruent	Block1	incongruent/STIM_022.jpg
447.838	0.659	correct	incongruent	Block1	incongruent/STIM_022.jpg
451.972	1.079	correct	incongruent	Block1	incongruent/STIM_022.jpg
455.894	0.718	correct	incongruent	Block1	incongruent/STIM_022.jpg
460.352	1.089	correct	incongruent	Block1	incongruent/STIM_023.jpg
463.645	1.21	incorrect	incongruent	Block1	incongruent/STIM_023.jpg
468.671	1.065	correct	incongruent	Block1	incongruent/STIM_023.jpg
471.709	0.901	correct	incongruent	Block1	incongruent/STIM_023.jpg
476.457	1.116	incorrect	incongruent	Block1	incongruent/STIM_023.jpg
479.862	1.176	correct	incongruent	Block1	incongruent/STIM_024.jpg
484.616	0.891	correct	incongruent	Block1	incongruent/STIM_024.jpg
488.016	0.766	correct	incongruent	Block1	incongruent/STIM_024.jpg
490.932	0.827	correct	incongruent	Block1	incongruent/STIM_024.jpg
494.711	0.933	correct	incongruent	Block1	incongruent/STIM_024.jpg
498.024	1.18	correct	incongruent	Block1	incongruent/STIM_025.jpg
501.571	1.09	correct	incongruent	Block1	incongruent/STIM_025.jpg
506.02	1.294	incorrect	incongruent	Block1	incongruent/STIM_025.jpg
509.945	0.727	correct	incongruent	Block1	incongruent/STIM_025.jpg
514.136	1.021	correct	incongruent	Block1	incongruent/STIM_025.jpg
518.966	1.251	correct	incongruent	Block1	incongruent/STIM_026.jpg
523.114	1.258	correct	incongruent	Block1	incongruent/STIM_026.jpg
526.698	1.243	correct	incongruent	Block1	incongruent/STIM_026.jpg
531.05	0.838	correct	incongruent	Block1	incongruent/STIM_026.jpg
533.889	0.616	correct	incongruent	Block1	incongruent/STIM_026.jpg
537.88	0.817	correct	incongruent	Block1	incongruent/STIM_027.jpg
542.099	1.125	correct	incongruent	Block1	incongruent/STIM_027.jpg
545.815	1.381	correct	incongruent	Block1	incongruent/STIM_027.jpg
549.961	0.896	correct	incongruent	Block1	incongruent/STIM_027.jpg
553.674	1.151	correct	incongruent	Block1	incongruent/STIM_027.jpg
557.958	0.849	correct	incongruent	Block1	incongruent/STIM_028.jpg
561.047	0.756	correct	incongruent	Block1	incongruent/STIM_028.jpg
565.524	1.103	correct	incongruent	Block1	incongruent/STIM_028.jpg
570.173	1.094	incorrect	incongruent	Block1	incongruent/STIM_028.jpg
574.485	0.92	correct	incongruent	Block1	incongruent/STIM_028.jpg
578.103	1.13	correct	incongruent	Block1	incongruent/STIM_029.jpg
581.95	0.846	correct	incongruent	Block1	incongruent/STIM_029.jpg
586.502	1.381	correct	incongruent	Block1	incongruent/STIM_029.jpg
590.888	1.141	correct	incongruent	Block1	incongruent/STIM_029.jpg
595.014	0.724	correct	incongruent	Block1	incongruent/STIM_029.jpg
599.665	0.664	correct	congruent	Block1	congruent/STIM_000.jpg
603.57	0.738	correct	congruent	Block1	congruent/STIM_000.jpg
608.125	0.846	correct	congruent	Block1	congruent/STIM_000.jpg
612.084	0.723	correct	congruent	Block1	congruent/STIM_000.jpg
616.416	0.727	correct	congruent	Block1	congruent/STIM_000.jpg
620.748	0.629	correct	congruent	Block1	congruent/STIM_001.jpg
624.069	0.823	correct	congruent	Block1	congruent/STIM_001.jpg
627.916	0.682	correct	congruent	Block1	congruent/STIM_001.jpg
631.438	0.671	correct	congruent	Block1	congruent/STIM_001.jpg
634.903	0.831	correct	congruent	Block1	congruent/STIM_001.jpg
639.434	0.834	correct	congruent	Block1	congruent/STIM_002.jpg
643.644	0.608	correct	congruent	Block1	congruent/STIM_002.jpg
647.509	0.6	correct	congruent	Block1	congruent/STIM_002.jpg
650.441	0.573	correct	congruent	Block1	congruent/STIM_002.jpg
653.715	0.701	correct	congruent	Block1	congruent/STIM_002.jpg
657.37	0.685	correct	congruent	Block1	congruent/STIM_003.jpg
660.282	0.579	correct	congruent	Block1	congruent/STIM_003.jpg
664.754	0.635	correct	congruent	Block1	congruent/STIM_003.jpg
667.608	0.603	correct	congruent	Block1	congruent/STIM_003.jpg
670.962	0.671	correct	congruent	Block1	congruent/STIM_003.jpg
675.23	0.612	correct	congruent	Block1	congruent/STIM_004.jpg
678.839	0.882	correct	congruent	Block1	congruent/STIM_004.jpg
682.988	0.722	incorrect	congruent	Block1	congruent/STIM_004.jpg
686.861	0.737	correct	congruent	Block1	congruent/STIM_004.jpg
691.014	0.827	correct	congruent	Block1	congruent/STIM_004.jpg
695.788	0.728	correct	congruent	Block1	congruent/STIM_005.jpg
699.353	0.884	correct	congruent	Block1	congruent/STIM_005.jpg
703.265	0.685	correct	congruent	Block1	congruent/STIM_005.jpg
706.495	0.69	correct	congruent	Block1	congruent/STIM_005.jpg
709.71	0.906	correct	congruent	Block1	congruent/STIM_005.jpg
713.626	0.886	correct	congruent	Block1	congruent/STIM_006.jpg
717.375	0.758	correct	congruent	Block1	congruent/STIM_006.jpg
720.609	0.68	correct	congruent	Block1	congruent/STIM_006.jpg
723.297	0.75	correct	congruent	Block1	congruent/STIM_006.jpg
726.846	0.892	correct	congruent	Block1	congruent/STIM_006.jpg
730.267	0.649	correct	congruent	Block1	congruent/STIM_007.jpg
734.532	0.916	correct	congruent	Block1	congruent/STIM_007.jpg
737.477	0.827	correct	congruent	Block1	congruent/STIM_007.jpg
742.155	0.713	correct	congruent	Block1	congruent/STIM_007.jpg
745.401	0.808	correct	congruent	Block1	congruent/STIM_007.jpg
749.358	0.839	correct	congruent	Block1	congruent/STIM_008.jpg
752.986	0.833	correct	congruent	Block1	congruent/STIM_008.jpg
756.885	0.871	correct	congruent	Block1	congruent/STIM_008.jpg
761.195	0.547	correct	congruent	Block1	congruent/STIM_008.jpg
763.769	0.768	correct	congruent	Block1	congruent/STIM_008.jpg
767.753	0.574	correct	congruent	Block1	congruent/STIM_009.jpg
772.015	0.606	correct	congruent	Block1	congruent/STIM_009.jpg
774.843	0.719	correct	congruent	Block1	congruent/STIM_009.jpg
779.105	0.732	incorrect	congruent	Block1	congruent/STIM_009.jpg
782.648	0.565	correct	congruent	Block1	congruent/STIM_009.jpg
785.435	0.808	correct	congruent	Block1	congruent/STIM_010.jpg
789.05	0.734	correct	congruent	Block1	congruent/STIM_010.jpg
793.413	0.681	correct	congruent	Block1	congruent/STIM_010.jpg
796.842	0.579	correct	congruent	Block1	congruent/STIM_010.jpg
800.229	0.654	correct	congruent	Block1	congruent/STIM_010.jpg
803.028	0.615	correct	congruent	Block1	congruent/STIM_011.jpg
807.046	0.661	correct	congruent	Block1	congruent/STIM_011.jpg
809.933	0.587	correct	congruent	Block1	congruent/STIM_011.jpg
812.868	0.72	correct	congruent	Block1	congruent/STIM_011.jpg
815.975	0.598	correct	congruent	Block1	congruent/STIM_011.jpg
820.303	0.545	correct	congruent	Block1	congruent/STIM_012.jpg
824.056	0.783	correct	congruent	Block1	congruent/STIM_012.jpg
828.282	0.619	correct	congruent	Block1	congruent/STIM_012.jpg
831.374	0.611	correct	congruent	Block1	congruent/STIM_012.jpg
834.117	0.75	correct	congruent	Block1	congruent/STIM_012.jpg
838.783	0.71	correct	congruent	Block1	congruent/STIM_013.jpg
842.34	0.835	correct	congruent	Block1	congruent/STIM_013.jpg
845.933	0.866	correct	congruent	Block1	congruent/STIM_013.jpg
848.791	0.877	correct	congruent	Block1	congruent/STIM_013.jpg
852.643	0.919	correct	congruent	Block1	congruent/STIM_013.jpg
855.978	0.871	correct	congruent	Block1	congruent/STIM_014.jpg
859.247	0.548	correct	congruent	Block1	congruent/STIM_014.jpg
862.311	0.78	correct	congruent	Block1	congruent/STIM_014.jpg
865.474	0.667	correct	congruent	Block1	congruent/STIM_014.jpg
869.276	0.726	correct	congruent	Block1	congruent/STIM_014.jpg
872.254	0.675	correct	congruent	Block1	congruent/STIM_015.jpg
876.441	0.925	correct	congruent	Block1	congruent/STIM_015.jpg
880.496	0.572	correct	congruent	Block1	congruent/STIM_015.jpg
884.034	0.668	incorrect	congruent	Block1	congruent/STIM_015.jpg
887.99	0.747	correct	congruent	Block1	congruent/STIM_015.jpg
892.664	0.902	correct	congruent	Block1	congruent/STIM_016.jpg
897.027	0.526	correct	congruent	Block1	congruent/STIM_016.jpg
899.986	0.709	correct	congruent	Block1	congruent/STIM_016.jpg
904.304	0.75	correct	congruent	Block1	congruent/STIM_016.jpg
907.704	0.889	correct	congruent	Block1	congruent/STIM_016.jpg
910.618	0.915	correct	congruent	Block1	congruent/STIM_017.jpg
915.129	0.536	correct	congruent	Block1	congruent/STIM_017.jpg
919.272	0.672	correct	congruent	Block1	congruent/STIM_017.jpg
922.268	0.828	correct	congruent	Block1	congruent/STIM_017.jpg
926.001	0.802	correct	congruent	Block1	congruent/STIM_017.jpg
929.171	0.79	correct	congruent	Block1	congruent/STIM_018.jpg
933.05	0.614	correct	congruent	Block1	congruent/STIM_018.jpg
935.648	0.623	incorrect	congruent	Block1	congruent/STIM_018.jpg
938.964	0.789	correct	congruent	Block1	congruent/STIM_018.jpg
942.783	0.764	correct	congruent	Block1	congruent/STIM_018.jpg
947.298	0.72	correct	congruent	Block1	congruent/STIM_019.jpg
950.754	0.646	correct	congruent	Block1	congruent/STIM_019.jpg
954.411	0.848	correct	congruent	Block1	congruent/STIM_019.jpg
959.143	0.802	correct	congruent	Block1	congruent/STIM_019.jpg
963.712	0.807	correct	congruent	Block1	congruent/STIM_019.jpg
968.36	0.7	correct	congruent	Block1	congruent/STIM_020.jpg
972.92	0.682	correct	congruent	Block1	congruent/STIM_020.jpg
976.114	0.666	correct	congruent	Block1	congruent/STIM_020.jpg
980.271	0.869	correct	congruent	Block1	congruent/STIM_020.jpg
984.047	0.804	correct	congruent	Block1	congruent/STIM_020.jpg
987.547	0.727	correct	congruent	Block1	congruent/STIM_021.jpg
992.082	0.594	correct	congruent	Block1	congruent/STIM_021.jpg
995.499	0.825	correct	congruent	Block1	congruent/STIM_021.jpg
998.791	0.885	correct	congruent	Block1	congruent/STIM_021.jpg
1003.151	0.867	correct	congruent	Block1	congruent/STIM_021.jpg
1007.363	0.78	correct	congruent	Block1	congruent/STIM_022.jpg
1011.907	0.77	correct	congruent	Block1	congruent/STIM_022.jpg
1016.244	0.859	correct	congruent	Block1	congruent/STIM_022.jpg
1020.394	0.641	correct	congruent	Block1	congruent/STIM_022.jpg
1024.132	0.76	correct	congruent	Block1	congruent/STIM_022.jpg
1027.372	0.805	incorrect	congruent	Block1	congruent/STIM_023.jpg
1031.621	0.686	correct	congruent	Block1	congruent/STIM_023.jpg
1034.884	0.81	correct	congruent	Block1	congruent/STIM_023.jpg
1038.22	0.706	correct	congruent	Block1	congruent/STIM_023.jpg
1042.509	0.533	correct	congruent	Block1	congruent/STIM_023.jpg
1045.532	0.734	correct	congruent	Block1	congruent/STIM_024.jpg
1049.626	0.667	correct	congruent	Block1	congruent/STIM_024.jpg
1054.096	0.84	incorrect	congruent	Block1	congruent/STIM_024.jpg
1057.19	0.92	correct	congruent	Block1	congruent/STIM_024.jpg
1060.332	0.585	correct	congruent	Block1	congruent/STIM_024.jpg
1063.834	0.857	correct	congruent	Block1	congruent/STIM_025.jpg
1066.711	0.804	incorrect	congruent	Block1	congruent/STIM_025.jpg
1070.963	0.699	correct	congruent	Block1	congruent/STIM_025.jpg
1074.511	0.899	correct	congruent	Block1	congruent/STIM_025.jpg
1079.33	0.695	correct	congruent	Block1	congruent/STIM_025.jpg
1083.655	0.64	correct	congruent	Block1	congruent/STIM_026.jpg
1087.602	0.687	correct	congruent	Block1	congruent/STIM_026.jpg
1091.769	0.936	correct	congruent	Block1	congruent/STIM_026.jpg
1095.757	0.735	correct	congruent	Block1	congruent/STIM_026.jpg
1099.301	0.575	correct	congruent	Block1	congruent/STIM_026.jpg
1102.13	0.706	correct	congruent	Block1	congruent/STIM_027.jpg
1105.792	0.533	correct	congruent	Block1	congruent/STIM_027.jpg
1108.639	0.714	correct	congruent	Block1	congruent/STIM_027.jpg
1112.102	0.817	correct	congruent	Block1	congruent/STIM_027.jpg
1116.23	0.912	correct	congruent	Block1	congruent/STIM_027.jpg
1120.958	0.521	correct	congruent	Block1	congruent/STIM_028.jpg
1123.569	0.621	correct	congruent	Block1	congruent/STIM_028.jpg
1128.119	0.756	correct	congruent	Block1	congruent/STIM_028.jpg
1132.339	0.773	correct	congruent	Block1	congruent/STIM_028.jpg
1136.861	0.755	correct	congruent	Block1	congruent/STIM_028.jpg
1140.867	0.577	correct	congruent	Block1	congruent/STIM_029.jpg
1144.055	0.65	correct	congruent	Block1	congruent/STIM_029.jpg
1148.044	0.618	correct	congruent	Block1	congruent/STIM_029.jpg
1151.944	0.716	correct	congruent	Block1	congruent/STIM_029.jpg
1156.278	0.817	correct	congruent	Block1	congruent/STIM_029.jpg
1160.373	1.266	correct	incongruent	Block2	incongruent/STIM_000.jpg
1164.635	0.8	correct	incongruent	Block2	incongruent/STIM_000.jpg
1168.455	0.737	correct	incongruent	Block2	incongruent/STIM_000.jpg
1171.69	0.9	correct	incongruent	Block2	incongruent/STIM_000.jpg
1175.105	0.854	correct	incongruent	Block2	incongruent/STIM_000.jpg
1178.718	0.868	correct	incongruent	Block2	incongruent/STIM_001.jpg
1183.095	0.876	incorrect	incongruent	Block2	incongruent/STIM_001.jpg
1186.62	0.572	correct	incongruent	Block2	incongruent/STIM_001.jpg
1189.411	0.612	correct	incongruent	Block2	incongruent/STIM_001.jpg
1193.232	0.897	correct	incongruent	Block2	incongruent/STIM_001.jpg
1197.55	0.929	incorrect	incongruent	Block2	incongruent/STIM_002.jpg
1202.265	0.842	correct	incongruent	Block2	incongruent/STIM_002.jpg
1205.583	0.957	correct	incongruent	Block2	incongruent/STIM_002.jpg
1209.71	0.516	correct	incongruent	Block2	incongruent/STIM_002.jpg
1213.737	0.824	correct	incongruent	Block2	incongruent/STIM_002.jpg
1217.585	1.324	correct	incongruent	Block2	incongruent/STIM_003.jpg
1221.445	0.894	correct	incongruent	Block2	incongruent/STIM_003.jpg
1225.303	1.169	correct	incongruent	Block2	incongruent/STIM_003.jpg
1230.399	0.592	correct	incongruent	Block2	incongruent/STIM_003.jpg
1234.292	0.615	correct	incongruent	Block2	incongruent/STIM_003.jpg
1237.707	1.131	correct	incongruent	Block2	incongruent/STIM_004.jpg
1242.027	0.642	correct	incongruent	Block2	incongruent/STIM_004.jpg
1245.78	0.679	correct	incongruent	Block2	incongruent/STIM_004.jpg
1249.659	0.832	correct	incongruent	Block2	incongruent/STIM_004.jpg
1254.077	0.922	correct	incongruent	Block2	incongruent/STIM_004.jpg
1257.689	1.136	correct	incongruent	Block2	incongruent/STIM_005.jpg
1262.432	0.912	correct	incongruent	Block2	incongruent/STIM_005.jpg
1265.729	1.12	correct	incongruent	Block2	incongruent/STIM_005.jpg
1270.373	0.614	correct	incongruent	Block2	incongruent/STIM_005.jpg
1273.674	0.988	correct	incongruent	Block2	incongruent/STIM_005.jpg
1277.933	0.858	correct	incongruent	Block2	incongruent/STIM_006.jpg
1281.843	0.776	correct	incongruent	Block2	incongruent/STIM_006.jpg
1286.352	0.763	correct	incongruent	Block2	incongruent/STIM_006.jpg
1290.077	0.578	correct	incongruent	Block2	incongruent/STIM_006.jpg
1294.077	0.563	correct	incongruent	Block2	incongruent/STIM_006.jpg
1296.921	0.7	incorrect	incongruent	Block2	incongruent/STIM_007.jpg
1300.754	1.094	correct	incongruent	Block2	incongruent/STIM_007.jpg
1305.061	0.682	correct	incongruent	Block2	incongruent/STIM_007.jpg
1308.518	0.651	correct	incongruent	Block2	incongruent/STIM_007.jpg
1312.813	0.557	correct	incongruent	Block2	incongruent/STIM_007.jpg
1316.185	1.212	correct	incongruent	Block2	incongruent/STIM_008.jpg
1320.544	0.875	correct	incongruent	Block2	incongruent/STIM_008.jpg
1324.73	0.73	correct	incongruent	Block2	incongruent/STIM_008.jpg
1328.061	0.866	correct	incongruent	Block2	incongruent/STIM_008.jpg
1331.978	0.517	correct	incongruent	Block2	incongruent/STIM_008.jpg
1335.27	1.234	correct	incongruent	Block2	incongruent/STIM_009.jpg
1339.945	0.626	correct	incongruent	Block2	incongruent/STIM_009.jpg
1343.589	0.771	correct	incongruent	Block2	incongruent/STIM_009.jpg
1347.942	0.976	correct	incongruent	Block2	incongruent/STIM_009.jpg
1352.232	0.956	correct	incongruent	Block2	incongruent/STIM_009.jpg
1355.943	1.304	incorrect	incongruent	Block2	incongruent/STIM_010.jpg
1359.278	1.116	correct	incongruent	Block2	incongruent/STIM_010.jpg
1363.614	1.159	correct	incongruent	Block2	incongruent/STIM_010.jpg
1366.892	0.903	correct	incongruent	Block2	incongruent/STIM_010.jpg
1370.907	0.896	correct	incongruent	Block2	incongruent/STIM_010.jpg
1374.353	0.96	correct	incongruent	Block2	incongruent/STIM_011.jpg
1378.06	0.995	correct	incongruent	Block2	incongruent/STIM_011.jpg
1381.124	0.583	correct	incongruent	Block2	incongruent/STIM_011.jpg
1384.203	0.776	correct	incongruent	Block2	incongruent/STIM_011.jpg
1387.223	0.91	correct	incongruent	Block2	incongruent/STIM_011.jpg
1390.967	0.635	correct	incongruent	Block2	incongruent/STIM_012.jpg
1394.233	1.103	incorrect	incongruent	Block2	incongruent/STIM_012.jpg
1398.622	0.579	correct	incongruent	Block2	incongruent/STIM_012.jpg
1401.912	0.592	correct	incongruent	Block2	incongruent/STIM_012.jpg
1406.402	0.93	correct	incongruent	Block2	incongruent/STIM_012.jpg
1410.122	1.028	incorrect	incongruent	Block2	incongruent/STIM_013.jpg
1413.8	0.608	correct	incongruent	Block2	incongruent/STIM_013.jpg
1417.318	0.89	correct	incongruent	Block2	incongruent/STIM_013.jpg
1420.374	0.742	correct	incongruent	Block2	incongruent/STIM_013.jpg
1423.139	0.663	correct	incongruent	Block2	incongruent/STIM_013.jpg
1425.936	1.326	correct	incongruent	Block2	incongruent/STIM_014.jpg
1429.326	0.653	correct	incongruent	Block2	incongruent/STIM_014.jpg
1432.669	0.784	correct	incongruent	Block2	incongruent/STIM_014.jpg
1437.04	0.665	correct	incongruent	Block2	incongruent/STIM_014.jpg
1440.496	1.06	correct	incongruent	Block2	incongruent/STIM_014.jpg
1443.788	0.988	correct	incongruent	Block2	incongruent/STIM_015.jpg
1447.276	1.086	correct	incongruent	Block2	incongruent/STIM_015.jpg
1451.176	0.974	correct	incongruent	Block2	incongruent/STIM_015.jpg
1454.848	0.728	correct	incongruent	Block2	incongruent/STIM_015.jpg
1458.307	0.851	correct	incongruent	Block2	incongruent/STIM_015.jpg
1462.055	0.681	correct	incongruent	Block2	incongruent/STIM_016.jpg
1464.872	1.083	correct	incongruent	Block2	incongruent/STIM_016.jpg
1469.64	0.757	correct	incongruent	Block2	incongruent/STIM_016.jpg
1472.802	0.708	correct	incongruent	Block2	incongruent/STIM_016.jpg
1475.964	1.048	correct	incongruent	Block2	incongruent/STIM_016.jpg
1480.041	0.857	correct	incongruent	Block2	incongruent/STIM_017.jpg
1484.258	1.184	correct	incongruent	Block2	incongruent/STIM_017.jpg
1489.032	1.109	correct	incongruent	Block2	incongruent/STIM_017.jpg
1492.871	1.005	correct	incongruent	Block2	incongruent/STIM_017.jpg
1496.303	0.8	correct	incongruent	Block2	incongruent/STIM_017.jpg
1500.883	1.277	correct	incongruent	Block2	incongruent/STIM_018.jpg
1505.968	0.606	correct	incongruent	Block2	incongruent/STIM_018.jpg
1508.702	0.769	correct	incongruent	Block2	incongruent/STIM_018.jpg
1512.989	0.54	correct	incongruent	Block2	incongruent/STIM_018.jpg
1517.356	0.809	correct	incongruent	Block2	incongruent/STIM_018.jpg
1521.059	1.07	correct	incongruent	Block2	incongruent/STIM_019.jpg
1525.931	0.915	correct	incongruent	Block2	incongruent/STIM_019.jpg
1529.216	1.114	correct	incongruent	Block2	incongruent/STIM_019.jpg
1532.66	0.898	correct	incongruent	Block2	incongruent/STIM_019.jpg
1535.948	1.066	correct	incongruent	Block2	incongruent/STIM_019.jpg
1540.966	0.837	correct	incongruent	Block2	incongruent/STIM_020.jpg
1544.023	1.191	correct	incongruent	Block2	incongruent/STIM_020.jpg
1548.289	1.015	correct	incongruent	Block2	incongruent/STIM_020.jpg
1552.126	0.611	correct	incongruent	Block2	incongruent/STIM_020.jpg
1554.975	0.926	correct	incongruent	Block2	incongruent/STIM_020.jpg
1558.424	1.201	correct	incongruent	Block2	incongruent/STIM_021.jpg
1562.094	0.82	correct	incongruent	Block2	incongruent/STIM_021.jpg
1565.327	1.09	correct	incongruent	Block2	incongruent/STIM_021.jpg
1569.478	0.793	correct	incongruent	Block2	incongruent/STIM_021.jpg
1573.353	0.618	correct	incongruent	Block2	incongruent/STIM_021.jpg
1576.686	1.001	correct	incongruent	Block2	incongruent/STIM_022.jpg
1579.924	0.768	correct	incongruent	Block2	incongruent/STIM_022.jpg
1583.022	0.584	correct	incongruent	Block2	incongruent/STIM_022.jpg
1585.631	0.565	correct	incongruent	Block2	incongruent/STIM_022.jpg
1588.735	0.587	correct	incongruent	Block2	incongruent/STIM_022.jpg
1592.166	1.024	correct	incongruent	Block2	incongruent/STIM_023.jpg
1595.477	0.72	correct	incongruent	Block2	incongruent/STIM_023.jpg
1598.941	0.913	correct	incongruent	Block2	incongruent/STIM_023.jpg
1603.455	0.794	correct	incongruent	Block2	incongruent/STIM_023.jpg
1606.875	0.861	correct	incongruent	Block2	incongruent/STIM_023.jpg
1611.025	1.227	incorrect	incongruent	Block2	incongruent/STIM_024.jpg
1615.828	1.212	correct	incongruent	Block2	incongruent/STIM_024.jpg
1619.459	0.984	correct	incongruent	Block2	incongruent/STIM_024.jpg
1622.732	0.722	correct	incongruent	Block2	incongruent/STIM_024.jpg
1626.328	1.046	correct	incongruent	Block2	incongruent/STIM_024.jpg
1630.121	1.183	correct	incongruent	Block2	incongruent/STIM_025.jpg
1634.419	0.84	correct	incongruent	Block2	incongruent/STIM_025.jpg
1637.697	0.994	correct	incongruent	Block2	incongruent/STIM_025.jpg
1642.299	1.011	correct	incongruent	Block2	incongruent/STIM_025.jpg
1645.856	0.985	correct	incongruent	Block2	incongruent/STIM_025.jpg
1650.115	0.897	correct	incongruent	Block2	incongruent/STIM_026.jpg
1653.345	0.929	correct	incongruent	Block2	incongruent/STIM_026.jpg
1658.225	1.156	correct	incongruent	Block2	incongruent/STIM_026.jpg
1662.326	0.612	correct	incongruent	Block2	incongruent/STIM_026.jpg
1665.027	0.745	correct	incongruent	Block2	incongruent/STIM_026.jpg
1669.092	1.121	correct	incongruent	Block2	incongruent/STIM_027.jpg
1673.927	1.107	correct	incongruent	Block2	incongruent/STIM_027.jpg
1677.239	0.744	correct	incongruent	Block2	incongruent/STIM_027.jpg
1681.63	0.861	correct	incongruent	Block2	incongruent/STIM_027.jpg
1686.208	0.634	correct	incongruent	Block2	incongruent/STIM_027.jpg
1689.273	0.929	correct	incongruent	Block2	incongruent/STIM_028.jpg
1693.708	0.951	correct	incongruent	Block2	incongruent/STIM_028.jpg
1697.444	0.616	correct	incongruent	Block2	incongruent/STIM_028.jpg
1701.267	0.562	correct	incongruent	Block2	incongruent/STIM_028.jpg
1704.145	0.898	correct	incongruent	Block2	incongruent/STIM_028.jpg
1708.554	1.118	correct	incongruent	Block2	incongruent/STIM_029.jpg
1713.526	0.934	correct	incongruent	Block2	incongruent/STIM_029.jpg
1717.55	0.875	correct	incongruent	Block2	incongruent/STIM_029.jpg
1721.841	0.884	correct	incongruent	Block2	incongruent/STIM_029.jpg
1726.681	0.987	correct	incongruent	Block2	incongruent/STIM_029.jpg
1730.71	0.794	correct	congruent	Block2	congruent/STIM_000.jpg
1733.497	0.882	correct	congruent	Block2	congruent/STIM_000.jpg
1736.993	0.792	correct	congruent	Block2	congruent/STIM_000.jpg
1741.042	0.89	correct	congruent	Block2	congruent/STIM_000.jpg
1744.286	0.78	correct	congruent	Block2	congruent/STIM_000.jpg
1748.668	0.83	correct	congruent	Block2	congruent/STIM_001.jpg
1752.572	0.7	correct	congruent	Block2	congruent/STIM_001.jpg
1755.628	0.53	correct	congruent	Block2	congruent/STIM_001.jpg
1758.152	0.656	correct	congruent	Block2	congruent/STIM_001.jpg
1761.927	0.573	correct	congruent	Block2	congruent/STIM_001.jpg
1766.423	0.886	correct	congruent	Block2	congruent/STIM_002.jpg
1770.488	0.637	correct	congruent	Block2	congruent/STIM_002.jpg
1774.599	0.569	correct	congruent	Block2	congruent/STIM_002.jpg
1777.33	0.898	correct	congruent	Block2	congruent/STIM_002.jpg
1780.466	0.623	correct	congruent	Block2	congruent/STIM_002.jpg
1783.59	0.838	incorrect	congruent	Block2	congruent/STIM_003.jpg
1787.971	0.644	correct	congruent	Block2	congruent/STIM_003.jpg
1791.866	0.893	correct	congruent	Block2	congruent/STIM_003.jpg
1794.869	0.762	correct	congruent	Block2	congruent/STIM_003.jpg
1798.171	0.529	correct	congruent	Block2	congruent/STIM_003.jpg
1802.22	0.574	incorrect	congruent	Block2	congruent/STIM_004.jpg
1806.755	0.669	correct	congruent	Block2	congruent/STIM_004.jpg
1809.871	0.615	correct	congruent	Block2	congruent/STIM_004.jpg
1813.955	0.741	correct	congruent	Block2	congruent/STIM_004.jpg
1817.807	0.711	correct	congruent	Block2	congruent/STIM_004.jpg
1820.77	0.738	correct	congruent	Block2	congruent/STIM_005.jpg
1823.541	0.821	correct	congruent	Block2	congruent/STIM_005.jpg
1827.732	0.788	correct	congruent	Block2	congruent/STIM_005.jpg
1832.153	0.647	correct	congruent	Block2	congruent/STIM_005.jpg
1834.992	0.815	incorrect	congruent	Block2	congruent/STIM_005.jpg
1839.515	0.638	correct	congruent	Block2	congruent/STIM_006.jpg
1844.048	0.692	correct	congruent	Block2	congruent/STIM_006.jpg
1847.255	0.713	correct	congruent	Block2	congruent/STIM_006.jpg
1849.963	0.574	correct	congruent	Block2	congruent/STIM_006.jpg
1852.614	0.569	correct	congruent	Block2	congruent/STIM_006.jpg
1855.982	0.566	correct	congruent	Block2	congruent/STIM_007.jpg
1858.906	0.637	correct	congruent	Block2	congruent/STIM_007.jpg
1862.364	0.735	correct	congruent	Block2	congruent/STIM_007.jpg
1866.977	0.858	correct	congruent	Block2	congruent/STIM_007.jpg
1871.13	0.637	correct	congruent	Block2	congruent/STIM_007.jpg
1874.95	0.839	correct	congruent	Block2	congruent/STIM_008.jpg
1879.022	0.789	correct	congruent	Block2	congruent/STIM_008.jpg
1883.604	0.747	incorrect	congruent	Block2	congruent/STIM_008.jpg
1887.974	0.816	correct	congruent	Block2	congruent/STIM_008.jpg
1892.292	0.57	correct	congruent	Block2	congruent/STIM_008.jpg
1895.3	0.626	correct	congruent	Block2	congruent/STIM_009.jpg
1899.158	0.903	correct	congruent	Block2	congruent/STIM_009.jpg
1903.486	0.704	correct	congruent	Block2	congruent/STIM_009.jpg
1906.49	0.607	correct	congruent	Block2	congruent/STIM_009.jpg
1910.451	0.596	incorrect	congruent	Block2	congruent/STIM_009.jpg
1914.226	0.607	correct	congruent	Block2	congruent/STIM_010.jpg
1918.086	0.712	correct	congruent	Block2	congruent/STIM_010.jpg
1920.946	0.888	correct	congruent	Block2	congruent/STIM_010.jpg
1925.637	0.797	correct	congruent	Block2	congruent/STIM_010.jpg
1929.721	0.765	correct	congruent	Block2	congruent/STIM_010.jpg
1933.059	0.678	correct	congruent	Block2	congruent/STIM_011.jpg
1936.569	0.682	correct	congruent	Block2	congruent/STIM_011.jpg
1941.165	0.859	correct	congruent	Block2	congruent/STIM_011.jpg
1944.088	0.538	correct	congruent	Block2	congruent/STIM_011.jpg
1946.938	0.668	correct	congruent	Block2	congruent/STIM_011.jpg
1951.199	0.925	correct	congruent	Block2	congruent/STIM_012.jpg
1954.322	0.884	correct	congruent	Block2	congruent/STIM_012.jpg
1958.652	0.748	correct	congruent	Block2	congruent/STIM_012.jpg
1962.372	0.658	correct	congruent	Block2	congruent/STIM_012.jpg
1966.079	0.749	correct	congruent	Block2	congruent/STIM_012.jpg
1969.269	0.725	correct	congruent	Block2	congruent/STIM_013.jpg
1972.968	0.908	correct	congruent	Block2	congruent/STIM_013.jpg
1976.818	0.701	correct	congruent	Block2	congruent/STIM_013.jpg
1980.416	0.84	correct	congruent	Block2	congruent/STIM_013.jpg
1984.434	0.914	correct	congruent	Block2	congruent/STIM_013.jpg
1988.171	0.605	correct	congruent	Block2	congruent/STIM_014.jpg
1992.388	0.548	correct	congruent	Block2	congruent/STIM_014.jpg
1996.901	0.582	correct	congruent	Block2	congruent/STIM_014.jpg
2001.211	0.908	correct	congruent	Block2	congruent/STIM_014.jpg
2005.776	0.746	correct	congruent	Block2	congruent/STIM_014.jpg
2008.631	0.616	correct	congruent	Block2	congruent/STIM_015.jpg
2012.904	0.88	correct	congruent	Block2	congruent/STIM_015.jpg
2016.812	0.857	correct	congruent	Block2	congruent/STIM_015.jpg
2021.493	0.651	correct	congruent	Block2	congruent/STIM_015.jpg
2025.128	0.562	correct	congruent	Block2	congruent/STIM_015.jpg
2028.441	0.779	correct	congruent	Block2	congruent/STIM_016.jpg
2033.082	0.816	correct	congruent	Block2	congruent/STIM_016.jpg
2036.386	0.521	correct	congruent	Block2	congruent/STIM_016.jpg
2040.097	0.554	correct	congruent	Block2	congruent/STIM_016.jpg
2044.29	0.832	correct	congruent	Block2	congruent/STIM_016.jpg
2047.936	0.573	correct	congruent	Block2	congruent/STIM_017.jpg
2052.053	0.917	correct	congruent	Block2	congruent/STIM_017.jpg
2056.107	0.655	correct	congruent	Block2	congruent/STIM_017.jpg
2058.985	0.736	correct	congruent	Block2	congruent/STIM_017.jpg
2062.907	0.698	correct	congruent	Block2	congruent/STIM_017.jpg
2065.881	0.874	correct	congruent	Block2	congruent/STIM_018.jpg
2070.568	0.791	correct	congruent	Block2	congruent/STIM_018.jpg
2075.06	0.879	correct	congruent	Block2	congruent/STIM_018.jpg
2077.987	0.616	correct	congruent	Block2	congruent/STIM_018.jpg
2081.256	0.886	correct	congruent	Block2	congruent/STIM_018.jpg
2085.098	0.712	correct	congruent	Block2	congruent/STIM_019.jpg
2088.016	0.616	correct	congruent	Block2	congruent/STIM_019.jpg
2090.882	0.538	correct	congruent	Block2	congruent/STIM_019.jpg
2095.053	0.643	correct	congruent	Block2	congruent/STIM_019.jpg
2098.09	0.664	correct	congruent	Block2	congruent/STIM_019.jpg
2102.279	0.915	correct	congruent	Block2	congruent/STIM_020.jpg
2105.709	0.527	correct	congruent	Block2	congruent/STIM_020.jpg
2108.663	0.603	correct	congruent	Block2	congruent/STIM_020.jpg
2113.17	0.736	correct	congruent	Block2	congruent/STIM_020.jpg
2117.107	0.806	correct	congruent	Block2	congruent/STIM_020.jpg
2121.246	0.781	correct	congruent	Block2	congruent/STIM_021.jpg
2125.284	0.712	correct	congruent	Block2	congruent/STIM_021.jpg
2129.136	0.7	correct	congruent	Block2	congruent/STIM_021.jpg
2133.557	0.753	correct	congruent	Block2	congruent/STIM_021.jpg
2138.061	0.725	correct	congruent	Block2	congruent/STIM_021.jpg
2142.166	0.637	correct	congruent	Block2	congruent/STIM_022.jpg
2145.01	0.902	correct	congruent	Block2	congruent/STIM_022.jpg
2148.081	0.692	correct	congruent	Block2	congruent/STIM_022.jpg
2151.092	0.531	correct	congruent	Block2	congruent/STIM_022.jpg
2154.215	0.55	correct	congruent	Block2	congruent/STIM_022.jpg
2157.758	0.542	correct	congruent	Block2	congruent/STIM_023.jpg
2160.859	0.562	correct	congruent	Block2	congruent/STIM_023.jpg
2165.334	0.817	correct	congruent	Block2	congruent/STIM_023.jpg
2169.622	0.728	correct	congruent	Block2	congruent/STIM_023.jpg
2173.314	0.864	correct	congruent	Block2	congruent/STIM_023.jpg
2177.772	0.65	correct	congruent	Block2	congruent/STIM_024.jpg
2181.013	0.7	correct	congruent	Block2	congruent/STIM_024.jpg
2185.52	0.552	correct	congruent	Block2	congruent/STIM_024.jpg
2188.519	0.902	correct	congruent	Block2	congruent/STIM_024.jpg
2192.984	0.884	correct	congruent	Block2	congruent/STIM_024.jpg
2196.523	0.616	correct	congruent	Block2	congruent/STIM_025.jpg
2199.476	0.739	correct	congruent	Block2	congruent/STIM_025.jpg
2202.863	0.732	correct	congruent	Block2	congruent/STIM_025.jpg
2206.907	0.67	correct	congruent	Block2	congruent/STIM_025.jpg
2211.44	0.738	correct	congruent	Block2	congruent/STIM_025.jpg
2215.212	0.551	correct	congruent	Block2	congruent/STIM_026.jpg
2218.717	0.813	correct	congruent	Block2	congruent/STIM_026.jpg
2223.464	0.741	correct	congruent	Block2	congruent/STIM_026.jpg
2226.228	0.862	correct	congruent	Block2	congruent/STIM_026.jpg
2230.38	0.684	correct	congruent	Block2	congruent/STIM_026.jpg
2234.251	0.706	correct	congruent	Block2	congruent/STIM_027.jpg
2237.027	0.838	correct	congruent	Block2	congruent/STIM_027.jpg
2241.581	0.665	correct	congruent	Block2	congruent/STIM_027.jpg
2245.938	0.537	correct	congruent	Block2	congruent/STIM_027.jpg
2249.59	0.565	correct	congruent	Block2	congruent/STIM_027.jpg
2253.349	0.866	correct	congruent	Block2	congruent/STIM_028.jpg
2256.224	0.864	correct	congruent	Block2	congruent/STIM_028.jpg
2259.151	0.896	correct	congruent	Block2	congruent/STIM_028.jpg
2262.296	0.64	correct	congruent	Block2	congruent/STIM_028.jpg
2266.756	0.542	correct	congruent	Block2	congruent/STIM_028.jpg
2270.451	0.547	correct	congruent	Block2	congruent/STIM_029.jpg
2273.439	0.812	correct	congruent	Block2	congruent/STIM_029.jpg
2276.448	0.746	correct	congruent	Block2	congruent/STIM_029.jpg
2280.997	0.585	correct	congruent	Block2	congruent/STIM_029.jpg
2283.862	0.745	correct	congruent	Block2	congruent/STIM_029.jpg
2287.358	0.651	correct	incongruent	Block3	incongruent/STIM_000.jpg
2291.096	0.95	correct	incongruent	Block3	incongruent/STIM_000.jpg
2294.568	0.652	correct	incongruent	Block3	incongruent/STIM_000.jpg
2297.225	0.68	correct	incongruent	Block3	incongruent/STIM_000.jpg
2300.227	0.938	correct	incongruent	Block3	incongruent/STIM_000.jpg
2303.911	1.006	correct	incongruent	Block3	incongruent/STIM_001.jpg
2308.58	0.542	correct	incongruent	Block3	incongruent/STIM_001.jpg
2313.053	0.843	correct	incongruent	Block3	incongruent/STIM_001.jpg
2315.95	0.611	correct	incongruent	Block3	incongruent/STIM_001.jpg
2318.837	0.87	correct	incongruent	Block3	incongruent/STIM_001.jpg
2323.109	0.785	correct	incongruent	Block3	incongruent/STIM_002.jpg
2327.155	0.823	correct	incongruent	Block3	incongruent/STIM_002.jpg
2331.435	0.791	correct	incongruent	Block3	incongruent/STIM_002.jpg
2334.346	0.685	correct	incongruent	Block3	incongruent/STIM_002.jpg
2337.381	0.998	correct	incongruent	Block3	incongruent/STIM_002.jpg
2341.063	1.08	correct	incongruent	Block3	incongruent/STIM_003.jpg
2345.511	0.559	correct	incongruent	Block3	incongruent/STIM_003.jpg
2348.873	0.724	correct	incongruent	Block3	incongruent/STIM_003.jpg
2352.34	1.033	correct	incongruent	Block3	incongruent/STIM_003.jpg
2355.45	0.967	correct	incongruent	Block3	incongruent/STIM_003.jpg
2358.828	0.576	correct	incongruent	Block3	incongruent/STIM_004.jpg
2362.075	0.555	correct	incongruent	Block3	incongruent/STIM_004.jpg
2365.909	0.67	correct	incongruent	Block3	incongruent/STIM_004.jpg
2369.981	0.662	correct	incongruent	Block3	incongruent/STIM_004.jpg
2374.012	0.675	correct	incongruent	Block3	incongruent/STIM_004.jpg
2377.666	0.7	correct	incongruent	Block3	incongruent/STIM_005.jpg
2381.406	0.959	correct	incongruent	Block3	incongruent/STIM_005.jpg
2385.036	0.75	correct	incongruent	Block3	incongruent/STIM_005.jpg
2388.227	0.712	correct	incongruent	Block3	incongruent/STIM_005.jpg
2391.825	0.905	correct	incongruent	Block3	incongruent/STIM_005.jpg
2395.857	0.81	correct	incongruent	Block3	incongruent/STIM_006.jpg
2399.401	0.745	correct	incongruent	Block3	incongruent/STIM_006.jpg
2403.566	0.62	correct	incongruent	Block3	incongruent/STIM_006.jpg
2407.459	0.943	correct	incongruent	Block3	incongruent/STIM_006.jpg
2412.198	0.939	correct	incongruent	Block3	incongruent/STIM_006.jpg
2417.066	0.776	correct	incongruent	Block3	incongruent/STIM_007.jpg
2420.177	0.673	incorrect	incongruent	Block3	incongruent/STIM_007.jpg
2423.031	0.762	correct	incongruent	Block3	incongruent/STIM_007.jpg
2426.404	0.728	correct	incongruent	Block3	incongruent/STIM_007.jpg
2430.991	0.678	correct	incongruent	Block3	incongruent/STIM_007.jpg
2434.392	0.708	correct	incongruent	Block3	incongruent/STIM_008.jpg
2438.136	0.974	correct	incongruent	Block3	incongruent/STIM_008.jpg
2443.024	0.652	correct	incongruent	Block3	incongruent/STIM_008.jpg
2446.633	0.904	correct	incongruent	Block3	incongruent/STIM_008.jpg
2450.931	0.872	correct	incongruent	Block3	incongruent/STIM_008.jpg
2455.213	0.775	correct	incongruent	Block3	incongruent/STIM_009.jpg
2459.17	0.949	correct	incongruent	Block3	incongruent/STIM_009.jpg
2463.045	0.605	correct	incongruent	Block3	incongruent/STIM_009.jpg
2465.945	0.611	correct	incongruent	Block3	incongruent/STIM_009.jpg
2469.993	0.743	correct	incongruent	Block3	incongruent/STIM_009.jpg
2473.591	1.033	correct	incongruent	Block3	incongruent/STIM_010.jpg
2477.271	0.952	correct	incongruent	Block3	incongruent/STIM_010.jpg
2480.881	0.529	correct	incongruent	Block3	incongruent/STIM_010.jpg
2483.977	0.532	correct	incongruent	Block3	incongruent/STIM_010.jpg
2487.904	0.673	correct	incongruent	Block3	incongruent/STIM_010.jpg
2491.432	0.755	correct	incongruent	Block3	incongruent/STIM_011.jpg
2495.423	1.077	correct	incongruent	Block3	incongruent/STIM_011.jpg
2499.129	0.597	correct	incongruent	Block3	incongruent/STIM_011.jpg
2502.392	0.838	correct	incongruent	Block3	incongruent/STIM_011.jpg
2506.406	1.06	correct	incongruent	Block3	incongruent/STIM_011.jpg
2511.273	0.724	correct	incongruent	Block3	incongruent/STIM_012.jpg
2514.635	0.628	correct	incongruent	Block3	incongruent/STIM_012.jpg
2518.387	1.079	correct	incongruent	Block3	incongruent/STIM_012.jpg
2522.337	0.931	correct	incongruent	Block3	incongruent/STIM_012.jpg
2527.116	0.644	correct	incongruent	Block3	incongruent/STIM_012.jpg
2530.929	0.984	correct	incongruent	Block3	incongruent/STIM_013.jpg
2534.034	0.875	correct	incongruent	Block3	incongruent/STIM_013.jpg
2537.566	0.751	correct	incongruent	Block3	incongruent/STIM_013.jpg
2540.689	1.084	correct	incongruent	Block3	incongruent/STIM_013.jpg
2545.638	0.992	correct	incongruent	Block3	incongruent/STIM_013.jpg
2550.563	1.034	correct	incongruent	Block3	incongruent/STIM_014.jpg
2553.652	0.614	correct	incongruent	Block3	incongruent/STIM_014.jpg
2556.853	0.824	correct	incongruent	Block3	incongruent/STIM_014.jpg
2559.652	0.691	correct	incongruent	Block3	incongruent/STIM_014.jpg
2563.042	1.016	correct	incongruent	Block3	incongruent/STIM_014.jpg
2566.356	1.039	correct	incongruent	Block3	incongruent/STIM_015.jpg
2569.694	0.613	correct	incongruent	Block3	incongruent/STIM_015.jpg
2573.191	0.89	correct	incongruent	Block3	incongruent/STIM_015.jpg
2576.47	1.013	correct	incongruent	Block3	incongruent/STIM_015.jpg
2580.402	1.093	correct	incongruent	Block3	incongruent/STIM_015.jpg
2583.653	0.804	correct	incongruent	Block3	incongruent/STIM_016.jpg
2586.584	0.983	correct	incongruent	Block3	incongruent/STIM_016.jpg
2590.526	0.954	correct	incongruent	Block3	incongruent/STIM_016.jpg
2593.447	1.024	correct	incongruent	Block3	incongruent/STIM_016.jpg
2597.909	0.941	correct	incongruent	Block3	incongruent/STIM_016.jpg
2602.431	0.731	correct	incongruent	Block3	incongruent/STIM_017.jpg
2605.524	0.715	correct	incongruent	Block3	incongruent/STIM_017.jpg
2609.971	0.811	correct	incongruent	Block3	incongruent/STIM_017.jpg
2613.253	0.516	correct	incongruent	Block3	incongruent/STIM_017.jpg
2616.656	0.983	correct	incongruent	Block3	incongruent/STIM_017.jpg
2620.354	0.849	correct	incongruent	Block3	incongruent/STIM_018.jpg
2623.364	0.965	incorrect	incongruent	Block3	incongruent/STIM_018.jpg
2628.004	0.802	correct	incongruent	Block3	incongruent/STIM_018.jpg
2632.037	0.763	correct	incongruent	Block3	incongruent/STIM_018.jpg
2635.939	0.973	correct	incongruent	Block3	incongruent/STIM_018.jpg
2640.585	0.552	correct	incongruent	Block3	incongruent/STIM_019.jpg
2644.931	0.911	correct	incongruent	Block3	incongruent/STIM_019.jpg
2649.161	0.854	correct	incongruent	Block3	incongruent/STIM_019.jpg
2653.023	0.646	correct	incongruent	Block3	incongruent/STIM_019.jpg
2655.904	1.011	correct	incongruent	Block3	incongruent/STIM_019.jpg
2659.757	0.535	correct	incongruent	Block3	incongruent/STIM_020.jpg
2663.52	0.993	correct	incongruent	Block3	incongruent/STIM_020.jpg
2667.269	0.833	correct	incongruent	Block3	incongruent/STIM_020.jpg
2671.613	0.696	correct	incongruent	Block3	incongruent/STIM_020.jpg
2675.158	0.735	correct	incongruent	Block3	incongruent/STIM_020.jpg
2677.948	0.761	correct	incongruent	Block3	incongruent/STIM_021.jpg
2682.097	0.606	correct	incongruent	Block3	incongruent/STIM_021.jpg
2685.398	0.571	correct	incongruent	Block3	incongruent/STIM_021.jpg
2688.121	0.629	correct	incongruent	Block3	incongruent/STIM_021.jpg
2691.247	0.573	correct	incongruent	Block3	incongruent/STIM_021.jpg
2695.643	0.848	correct	incongruent	Block3	incongruent/STIM_022.jpg
2699.877	1.045	correct	incongruent	Block3	incongruent/STIM_022.jpg
2704.046	0.512	correct	incongruent	Block3	incongruent/STIM_022.jpg
2707.005	1.092	correct	incongruent	Block3	incongruent/STIM_022.jpg
2711.062	0.716	correct	incongruent	Block3	incongruent/STIM_022.jpg
2714.417	1.055	incorrect	incongruent	Block3	incongruent/STIM_023.jpg
2718.035	1.021	correct	incongruent	Block3	incongruent/STIM_023.jpg
2721.544	0.957	correct	incongruent	Block3	incongruent/STIM_023.jpg
2726.042	0.738	correct	incongruent	Block3	incongruent/STIM_023.jpg
2729.594	0.744	correct	incongruent	Block3	incongruent/STIM_023.jpg
2733.072	0.747	correct	incongruent	Block3	incongruent/STIM_024.jpg
2736.019	0.659	correct	incongruent	Block3	incongruent/STIM_024.jpg
2740.435	0.557	correct	incongruent	Block3	incongruent/STIM_024.jpg
2743.577	0.94	correct	incongruent	Block3	incongruent/STIM_024.jpg
2748.423	0.978	correct	incongruent	Block3	incongruent/STIM_024.jpg
2752.207	0.845	incorrect	incongruent	Block3	incongruent/STIM_025.jpg
2755.777	0.803	correct	incongruent	Block3	incongruent/STIM_025.jpg
2759.227	0.592	correct	incongruent	Block3	incongruent/STIM_025.jpg
2762.233	0.742	correct	incongruent	Block3	incongruent/STIM_025.jpg
2765.445	1.045	correct	incongruent	Block3	incongruent/STIM_025.jpg
2769.658	0.893	correct	incongruent	Block3	incongruent/STIM_026.jpg
2773.582	0.531	correct	incongruent	Block3	incongruent/STIM_026.jpg
2776.187	1.088	correct	incongruent	Block3	incongruent/STIM_026.jpg
2780.089	0.912	correct	incongruent	Block3	incongruent/STIM_026.jpg
2784.246	0.912	correct	incongruent	Block3	incongruent/STIM_026.jpg
2787.939	0.52	correct	incongruent	Block3	incongruent/STIM_027.jpg
2791.071	0.859	correct	incongruent	Block3	incongruent/STIM_027.jpg
2795.486	0.908	correct	incongruent	Block3	incongruent/STIM_027.jpg
2799.179	0.762	correct	incongruent	Block3	incongruent/STIM_027.jpg
2801.926	0.82	correct	incongruent	Block3	incongruent/STIM_027.jpg
2805.747	0.694	correct	incongruent	Block3	incongruent/STIM_028.jpg
2809.059	0.959	correct	incongruent	Block3	incongruent/STIM_028.jpg
2812.234	0.594	correct	incongruent	Block3	incongruent/STIM_028.jpg
2815.603	0.87	correct	incongruent	Block3	incongruent/STIM_028.jpg
2819.355	1.006	correct	incongruent	Block3	incongruent/STIM_028.jpg
2823.957	0.811	correct	incongruent	Block3	incongruent/STIM_029.jpg
2826.788	0.726	correct	incongruent	Block3	incongruent/STIM_029.jpg
2830.299	1.023	correct	incongruent	Block3	incongruent/STIM_029.jpg
2834.185	0.556	correct	incongruent	Block3	incongruent/STIM_029.jpg
2838.671	1.021	correct	incongruent	Block3	incongruent/STIM_029.jpg
2842.598	0.789	correct	congruent	Block3	congruent/STIM_000.jpg
2847.253	0.701	correct	congruent	Block3	congruent/STIM_000.jpg
2851.918	0.818	correct	congruent	Block3	congruent/STIM_000.jpg
2855.174	0.549	correct	congruent	Block3	congruent/STIM_000.jpg
2859.277	0.754	correct	congruent	Block3	congruent/STIM_000.jpg
2863.27	0.63	correct	congruent	Block3	congruent/STIM_001.jpg
2867.529	0.816	correct	congruent	Block3	congruent/STIM_001.jpg
2871.054	0.894	correct	congruent	Block3	congruent/STIM_001.jpg
2875.181	0.632	correct	congruent	Block3	congruent/STIM_001.jpg
2878.592	0.768	correct	congruent	Block3	congruent/STIM_001.jpg
2883.037	0.879	correct	congruent	Block3	congruent/STIM_002.jpg
2887.733	0.656	correct	congruent	Block3	congruent/STIM_002.jpg
2890.543	0.894	correct	congruent	Block3	congruent/STIM_002.jpg
2895.334	0.55	correct	congruent	Block3	congruent/STIM_002.jpg
2899.127	0.724	correct	congruent	Block3	congruent/STIM_002.jpg
2902.815	0.854	correct	congruent	Block3	congruent/STIM_003.jpg
2906.562	0.577	correct	congruent	Block3	congruent/STIM_003.jpg
2910.162	0.551	correct	congruent	Block3	congruent/STIM_003.jpg
2913.41	0.731	correct	congruent	Block3	congruent/STIM_003.jpg
2917.011	0.654	correct	congruent	Block3	congruent/STIM_003.jpg
2919.868	0.887	correct	congruent	Block3	congruent/STIM_004.jpg
2923.507	0.829	correct	congruent	Block3	congruent/STIM_004.jpg
2927.884	0.884	correct	congruent	Block3	congruent/STIM_004.jpg
2931.414	0.911	correct	congruent	Block3	congruent/STIM_004.jpg
2935.026	0.686	correct	congruent	Block3	congruent/STIM_004.jpg
2939.103	0.533	incorrect	congruent	Block3	congruent/STIM_005.jpg
2942.422	0.563	correct	congruent	Block3	congruent/STIM_005.jpg
2946.247	0.715	correct	congruent	Block3	congruent/STIM_005.jpg
2949.705	0.921	correct	congruent	Block3	congruent/STIM_005.jpg
2953.9	0.643	correct	congruent	Block3	congruent/STIM_005.jpg
2956.527	0.699	correct	congruent	Block3	congruent/STIM_006.jpg
2960.215	0.729	correct	congruent	Block3	congruent/STIM_006.jpg
2964.492	0.65	correct	congruent	Block3	congruent/STIM_006.jpg
2967.472	0.608	correct	congruent	Block3	congruent/STIM_006.jpg
2971.546	0.568	correct	congruent	Block3	congruent/STIM_006.jpg
2974.217	0.689	correct	congruent	Block3	congruent/STIM_007.jpg
2978.198	0.875	correct	congruent	Block3	congruent/STIM_007.jpg
2982.273	0.808	correct	congruent	Block3	congruent/STIM_007.jpg
2985.278	0.737	incorrect	congruent	Block3	congruent/STIM_007.jpg
2989.574	0.697	correct	congruent	Block3	congruent/STIM_007.jpg
2992.489	0.919	correct	congruent	Block3	congruent/STIM_008.jpg
2995.797	0.802	correct	congruent	Block3	congruent/STIM_008.jpg
2999.161	0.895	correct	congruent	Block3	congruent/STIM_008.jpg
3002.617	0.721	correct	congruent	Block3	congruent/STIM_008.jpg
3006.188	0.697	correct	congruent	Block3	congruent/STIM_008.jpg
3010.35	0.55	correct	congruent	Block3	congruent/STIM_009.jpg
3014.633	0.645	correct	congruent	Block3	congruent/STIM_009.jpg
3018.741	0.803	correct	congruent	Block3	congruent/STIM_009.jpg
3023.148	0.632	correct	congruent	Block3	congruent/STIM_009.jpg
3026.342	0.7	correct	congruent	Block3	congruent/STIM_009.jpg
3029.588	0.777	correct	congruent	Block3	congruent/STIM_010.jpg
3033.225	0.556	correct	congruent	Block3	congruent/STIM_010.jpg
3037.105	0.901	correct	congruent	Block3	congruent/STIM_010.jpg
3040.064	0.772	correct	congruent	Block3	congruent/STIM_010.jpg
3044.226	0.82	incorrect	congruent	Block3	congruent/STIM_010.jpg
3048.6	0.704	correct	congruent	Block3	congruent/STIM_011.jpg
3051.918	0.827	correct	congruent	Block3	congruent/STIM_011.jpg
3056.541	0.874	correct	congruent	Block3	congruent/STIM_011.jpg
3061.133	0.624	correct	congruent	Block3	congruent/STIM_011.jpg
3065.693	0.817	correct	congruent	Block3	congruent/STIM_011.jpg
3069.654	0.925	incorrect	congruent	Block3	congruent/STIM_012.jpg
3072.792	0.658	correct	congruent	Block3	congruent/STIM_012.jpg
3076.128	0.612	correct	congruent	Block3	congruent/STIM_012.jpg
3078.847	0.764	incorrect	congruent	Block3	congruent/STIM_012.jpg
3081.885	0.796	correct	congruent	Block3	congruent/STIM_012.jpg
3085.539	0.638	correct	congruent	Block3	congruent/STIM_013.jpg
3089.551	0.81	correct	congruent	Block3	congruent/STIM_013.jpg
3093.158	0.825	correct	congruent	Block3	congruent/STIM_013.jpg
3097.227	0.587	correct	congruent	Block3	congruent/STIM_013.jpg
3100.419	0.639	correct	congruent	Block3	congruent/STIM_013.jpg
3103.425	0.767	correct	congruent	Block3	congruent/STIM_014.jpg
3106.896	0.78	correct	congruent	Block3	congruent/STIM_014.jpg
3111.533	0.541	correct	congruent	Block3	congruent/STIM_014.jpg
3115.814	0.584	correct	congruent	Block3	congruent/STIM_014.jpg
3120.316	0.847	correct	congruent	Block3	congruent/STIM_014.jpg
3124.69	0.831	correct	congruent	Block3	congruent/STIM_015.jpg
3127.894	0.88	correct	congruent	Block3	congruent/STIM_015.jpg
3132.521	0.752	correct	congruent	Block3	congruent/STIM_015.jpg
3137.184	0.756	correct	congruent	Block3	congruent/STIM_015.jpg
3141.164	0.789	correct	congruent	Block3	congruent/STIM_015.jpg
3145.091	0.858	correct	congruent	Block3	congruent/STIM_016.jpg
3148.776	0.851	correct	congruent	Block3	congruent/STIM_016.jpg
3153.371	0.714	correct	congruent	Block3	congruent/STIM_016.jpg
3157.399	0.526	correct	congruent	Block3	congruent/STIM_016.jpg
3160.269	0.66	correct	congruent	Block3	congruent/STIM_016.jpg
3163.597	0.756	correct	congruent	Block3	congruent/STIM_017.jpg
3167.278	0.835	incorrect	congruent	Block3	congruent/STIM_017.jpg
3171.2	0.634	correct	congruent	Block3	congruent/STIM_017.jpg
3173.927	0.588	correct	congruent	Block3	congruent/STIM_017.jpg
3177.116	0.666	correct	congruent	Block3	congruent/STIM_017.jpg
3180.669	0.823	correct	congruent	Block3	congruent/STIM_018.jpg
3183.491	0.537	correct	congruent	Block3	congruent/STIM_018.jpg
3186.909	0.536	correct	congruent	Block3	congruent/STIM_018.jpg
3191.18	0.774	correct	congruent	Block3	congruent/STIM_018.jpg
3195.493	0.927	correct	congruent	Block3	congruent/STIM_018.jpg
3200.166	0.915	correct	congruent	Block3	congruent/STIM_019.jpg
3204.533	0.82	correct	congruent	Block3	congruent/STIM_019.jpg
3207.9	0.642	correct	congruent	Block3	congruent/STIM_019.jpg
3211.562	0.529	correct	congruent	Block3	congruent/STIM_019.jpg
3215.47	0.835	correct	congruent	Block3	congruent/STIM_019.jpg
3218.893	0.794	correct	congruent	Block3	congruent/STIM_020.jpg
3222.249	0.617	correct	congruent	Block3	congruent/STIM_020.jpg
3225.023	0.528	correct	congruent	Block3	congruent/STIM_020.jpg
3227.921	0.707	correct	congruent	Block3	congruent/STIM_020.jpg
3231.066	0.86	correct	congruent	Block3	congruent/STIM_020.jpg
3235.753	0.716	correct	congruent	Block3	congruent/STIM_021.jpg
3239.271	0.703	correct	congruent	Block3	congruent/STIM_021.jpg
3242.713	0.816	correct	congruent	Block3	congruent/STIM_021.jpg
3245.761	0.823	correct	congruent	Block3	congruent/STIM_021.jpg
3249.234	0.691	correct	congruent	Block3	congruent/STIM_021.jpg
3252.263	0.61	correct	congruent	Block3	congruent/STIM_022.jpg
3256.136	0.923	correct	congruent	Block3	congruent/STIM_022.jpg
3260.864	0.753	correct	congruent	Block3	congruent/STIM_022.jpg
3263.862	0.69	correct	congruent	Block3	congruent/STIM_022.jpg
3266.637	0.927	correct	congruent	Block3	congruent/STIM_022.jpg
3269.599	0.896	correct	congruent	Block3	congruent/STIM_023.jpg
3273.673	0.763	correct	congruent	Block3	congruent/STIM_023.jpg
3276.575	0.864	correct	congruent	Block3	congruent/STIM_023.jpg
3280.019	0.534	correct	congruent	Block3	congruent/STIM_023.jpg
3283.389	0.854	correct	congruent	Block3	congruent/STIM_023.jpg
3286.736	0.675	correct	congruent	Block3	congruent/STIM_024.jpg
3290.135	0.864	correct	congruent	Block3	congruent/STIM_024.jpg
3293.492	0.774	correct	congruent	Block3	congruent/STIM_024.jpg
3296.647	0.643	correct	congruent	Block3	congruent/STIM_024.jpg
3299.74	0.612	correct	congruent	Block3	congruent/STIM_024.jpg
3303.806	0.638	correct	congruent	Block3	congruent/STIM_025.jpg
3307.989	0.719	correct	congruent	Block3	congruent/STIM_025.jpg
3311.106	0.881	correct	congruent	Block3	congruent/STIM_025.jpg
3315.642	0.907	correct	congruent	Block3	congruent/STIM_025.jpg
3319.252	0.781	correct	congruent	Block3	congruent/STIM_025.jpg
3322.523	0.847	correct	congruent	Block3	congruent/STIM_026.jpg
3326.985	0.531	correct	congruent	Block3	congruent/STIM_026.jpg
3330.385	0.714	correct	congruent	Block3	congruent/STIM_026.jpg
3334.948	0.733	correct	congruent	Block3	congruent/STIM_026.jpg
3337.837	0.909	correct	congruent	Block3	congruent/STIM_026.jpg
3342.238	0.79	correct	congruent	Block3	congruent/STIM_027.jpg
3346.333	0.767	correct	congruent	Block3	congruent/STIM_027.jpg
3349.658	0.586	correct	congruent	Block3	congruent/STIM_027.jpg
3352.75	0.694	correct	congruent	Block3	congruent/STIM_027.jpg
3356.344	0.678	correct	congruent	Block3	congruent/STIM_027.jpg
3359.814	0.89	correct	congruent	Block3	congruent/STIM_028.jpg
3362.814	0.68	correct	congruent	Block3	congruent/STIM_028.jpg
3365.593	0.717	correct	congruent	Block3	congruent/STIM_028.jpg
3370.005	0.875	correct	congruent	Block3	congruent/STIM_028.jpg
3373.976	0.931	correct	congruent	Block3	congruent/STIM_028.jpg
3377.878	0.542	correct	congruent	Block3	congruent/STIM_029.jpg
3380.504	0.92	correct	congruent	Block3	congruent/STIM_029.jpg
3383.802	0.642	correct	congruent	Block3	congruent/STIM_029.jpg
3387.07	0.619	correct	congruent	Block3	congruent/STIM_029.jpg
3389.987	0.814	correct	congruent	Block3	congruent/STIM_029.jpg
