onset	duration	response_time_ms	trial_type	learning_stage	stimulus	response_port
0.0	1.251	1251.1	incongruent	Block1	incongruent/STIM_000.jpg	99
5.04	1.104	1103.5	incongruent	Block1	incongruent/STIM_000.jpg	99
8.404	1.167	1166.7	incongruent	Block1	incongruent/STIM_000.jpg	99
13.501	0.549	549.0	incongruent	Block1	incongruent/STIM_000.jpg	100
16.215	0.994	994.3	incongruent	Block1	incongruent/STIM_000.jpg	100
20.146	0.81	809.8	incongruent	Block1	incongruent/STIM_001.jpg	100
24.578	0.609	609.2	incongruent	Block1	incongruent/STIM_001.jpg	100
27.256	0.762	761.9	incongruent	Block1	incongruent/STIM_001.jpg	99
31.893	1.122	1121.8	incongruent	Block1	incongruent/STIM_001.jpg	100
36.895	0.62	619.6	incongruent	Block1	incongruent/STIM_001.jpg	99
40.268	0.802	802.5	incongruent	Block1	incongruent/STIM_002.jpg	99
44.693	1.13	1129.9	incongruent	Block1	incongruent/STIM_002.jpg	100
48.549	0.771	771.2	incongruent	Block1	incongruent/STIM_002.jpg	99
51.509	0.615	615.1	incongruent	Block1	incongruent/STIM_002.jpg	99
55.634	0.699	698.6	incongruent	Block1	incongruent/STIM_002.jpg	99
59.141	0.993	992.9	incongruent	Block1	incongruent/STIM_003.jpg	100
63.293	0.9	899.8	incongruent	Block1	incongruent/STIM_003.jpg	99
67.304	0.753	752.7	incongruent	Block1	incongruent/STIM_003.jpg	99
70.794	1.064	1063.5	incongruent	Block1	incongruent/STIM_003.jpg	100
74.563	0.984	983.9	incongruent	Block1	incongruent/STIM_003.jpg	99
78.318	0.707	707.4	incongruent	Block1	incongruent/STIM_004.jpg	100
82.763	0.613	612.9	incongruent	Block1	incongruent/STIM_004.jpg	99
87.207	0.778	778.5	incongruent	Block1	incongruent/STIM_004.jpg	100
91.544	0.852	852.3	incongruent	Block1	incongruent/STIM_004.jpg	100
95.814	0.77	770.5	incongruent	Block1	incongruent/STIM_004.jpg	100
98.859	0.652	651.6	incongruent	Block1	incongruent/STIM_005.jpg	100
101.962	0.855	854.6	incongruent	Block1	incongruent/STIM_005.jpg	100
104.862	0.908	907.5	incongruent	Block1	incongruent/STIM_005.jpg	100
109.145	0.568	567.9	incongruent	Block1	incongruent/STIM_005.jpg	99
112.84	0.876	875.7	incongruent	Block1	incongruent/STIM_005.jpg	99
117.577	0.776	776.4	incongruent	Block1	incongruent/STIM_006.jpg	100
121.179	1.181	1181.1	incongruent	Block1	incongruent/STIM_006.jpg	99
125.293	0.725	724.8	incongruent	Block1	incongruent/STIM_006.jpg	99
128.353	0.563	563.1	incongruent	Block1	incongruent/STIM_006.jpg	100
131.562	0.777	776.6	incongruent	Block1	incongruent/STIM_006.jpg	99
134.475	1.054	1053.9	incongruent	Block1	incongruent/STIM_007.jpg	99
137.918	0.744	743.5	incongruent	Block1	incongruent/STIM_007.jpg	100
141.138	1.103	1103.2	incongruent	Block1	incongruent/STIM_007.jpg	100
145.948	0.547	547.0	incongruent	Block1	incongruent/STIM_007.jpg	99
150.311	0.723	722.7	incongruent	Block1	incongruent/STIM_007.jpg	99
153.513	0.952	951.8	incongruent	Block1	incongruent/STIM_008.jpg	100
156.949	1.107	1107.4	incongruent	Block1	incongruent/STIM_008.jpg	100
160.802	0.698	698.3	incongruent	Block1	incongruent/STIM_008.jpg	100
164.468	0.939	939.4	incongruent	Block1	incongruent/STIM_008.jpg	100
169.376	0.647	647.4	incongruent	Block1	incongruent/STIM_008.jpg	100
173.769	0.908	908.5	incongruent	Block1	incongruent/STIM_009.jpg	99
176.936	0.594	594.4	incongruent	Block1	incongruent/STIM_009.jpg	99
179.723	0.675	675.2	incongruent	Block1	incongruent/STIM_009.jpg	99
183.391	0.609	609.1	incongruent	Block1	incongruent/STIM_009.jpg	100
187.98	0.674	674.3	incongruent	Block1	incongruent/STIM_009.jpg	100
191.783	0.671	670.7	incongruent	Block1	incongruent/STIM_010.jpg	100
195.112	1.16	1159.9	incongruent	Block1	incongruent/STIM_010.jpg	100
199.83	0.6	600.1	incongruent	Block1	incongruent/STIM_010.jpg	99
202.809	0.861	860.6	incongruent	Block1	incongruent/STIM_010.jpg	99
207.625	1.053	1052.6	incongruent	Block1	incongruent/STIM_010.jpg	100
212.099	0.936	936.3	incongruent	Block1	incongruent/STIM_011.jpg	100
215.339	0.601	601.1	incongruent	Block1	incongruent/STIM_011.jpg	99
218.673	1.05	1049.6	incongruent	Block1	incongruent/STIM_011.jpg	100
222.072	1.036	1036.2	incongruent	Block1	incongruent/STIM_011.jpg	99
226.126	0.954	954.1	incongruent	Block1	incongruent/STIM_011.jpg	99
230.48	0.743	743.1	incongruent	Block1	incongruent/STIM_012.jpg	99
233.525	0.92	919.5	incongruent	Block1	incongruent/STIM_012.jpg	99
238.087	0.846	846.5	incongruent	Block1	incongruent/STIM_012.jpg	99
241.313	0.944	944.1	incongruent	Block1	incongruent/STIM_012.jpg	99
244.907	1.052	1051.6	incongruent	Block1	incongruent/STIM_012.jpg	100
249.402	0.811	811.1	incongruent	Block1	incongruent/STIM_013.jpg	99
252.874	1.057	1056.6	incongruent	Block1	incongruent/STIM_013.jpg	100
257.257	1.202	1201.7	incongruent	Block1	incongruent/STIM_013.jpg	100
261.48	0.722	721.8	incongruent	Block1	incongruent/STIM_013.jpg	99
264.25	0.859	859.3	incongruent	Block1	incongruent/STIM_013.jpg	100
267.571	0.748	747.7	incongruent	Block1	incongruent/STIM_014.jpg	99
270.947	1.16	1160.0	incongruent	Block1	incongruent/STIM_014.jpg	99
274.765	0.797	797.4	incongruent	Block1	incongruent/STIM_014.jpg	99
277.768	0.842	841.6	incongruent	Block1	incongruent/STIM_014.jpg	99
280.755	0.637	636.8	incongruent	Block1	incongruent/STIM_014.jpg	99
283.819	1.033	1033.3	incongruent	Block1	incongruent/STIM_015.jpg	99
288.464	0.653	653.4	incongruent	Block1	incongruent/STIM_015.jpg	100
292.547	1.116	1115.8	incongruent	Block1	incongruent/STIM_015.jpg	99
296.749	0.88	879.8	incongruent	Block1	incongruent/STIM_015.jpg	100
300.137	0.811	811.1	incongruent	Block1	incongruent/STIM_015.jpg	100
304.416	1.154	1153.7	incongruent	Block1	incongruent/STIM_016.jpg	100
307.749	0.746	745.5	incongruent	Block1	incongruent/STIM_016.jpg	99
310.749	0.851	850.7	incongruent	Block1	incongruent/STIM_016.jpg	100
314.352	1.01	1010.0	incongruent	Block1	incongruent/STIM_016.jpg	100
318.566	0.648	648.2	incongruent	Block1	incongruent/STIM_016.jpg	100
321.523	0.646	645.7	incongruent	Block1	incongruent/STIM_017.jpg	99
325.46	1.146	1145.7	incongruent	Block1	incongruent/STIM_017.jpg	99
329.6	0.917	917.1	incongruent	Block1	incongruent/STIM_017.jpg	100
333.811	1.063	1063.1	incongruent	Block1	incongruent/STIM_017.jpg	100
338.496	1.016	1015.9	incongruent	Block1	incongruent/STIM_017.jpg	100
343.12	1.196	1195.5	incongruent	Block1	incongruent/STIM_018.jpg	100
346.434	1.266	1265.6	incongruent	Block1	incongruent/STIM_018.jpg	100
351.425	0.921	920.6	incongruent	Block1	incongruent/STIM_018.jpg	100
355.058	0.618	618.5	incongruent	Block1	incongruent/STIM_018.jpg	100
358.783	0.65	650.0	incongruent	Block1	incongruent/STIM_018.jpg	100
362.89	0.903	903.2	incongruent	Block1	incongruent/STIM_019.jpg	99
367.405	0.854	854.2	incongruent	Block1	incongruent/STIM_019.jpg	100
371.478	0.92	920.2	incongruent	Block1	incongruent/STIM_019.jpg	99
375.807	1.11	1110.1	incongruent	Block1	incongruent/STIM_019.jpg	99
380.439	0.889	889.3	incongruent	Block1	incongruent/STIM_019.jpg	99
383.949	1.3	1300.1	incongruent	Block1	incongruent/STIM_020.jpg	99
387.759	0.817	816.7	incongruent	Block1	incongruent/STIM_020.jpg	99
391.381	0.825	825.3	incongruent	Block1	incongruent/STIM_020.jpg	99
395.232	0.66	659.7	incongruent	Block1	incongruent/STIM_020.jpg	99
399.307	0.827	827.2	incongruent	Block1	incongruent/STIM_020.jpg	99
403.328	1.224	1223.5	incongruent	Block1	incongruent/STIM_021.jpg	100
407.953	0.961	960.6	incongruent	Block1	incongruent/STIM_021.jpg	100
412.203	0.978	977.8	incongruent	Block1	incongruent/STIM_021.jpg	100
415.419	0.608	608.1	incongruent	Block1	incongruent/STIM_021.jpg	99
418.365	0.927	926.9	incongruent	Block1	incongruent/STIM_021.jpg	100
421.546	0.939	939.4	incongruent	Block1	incongruent/STIM_022.jpg	100
425.193	1.001	1000.6	incongruent	Block1	incongruent/STIM_022.jpg	100
429.339	1.122	1121.6	incongruent	Block1	incongruent/STIM_022.jpg	99
434.395	0.925	924.8	incongruent	Block1	incongruent/STIM_022.jpg	100
438.345	0.734	734.4	incongruent	Block1	incongruent/STIM_022.jpg	100
441.475	1.202	1201.8	incongruent	Block1	incongruent/STIM_023.jpg	100
446.037	1.2	1200.5	incongruent	Block1	incongruent/STIM_023.jpg	100
449.454	0.656	655.7	incongruent	Block1	incongruent/STIM_023.jpg	100
453.477	1.033	1033.3	incongruent	Block1	incongruent/STIM_023.jpg	99
458.207	0.748	748.4	incongruent	Block1	incongruent/STIM_023.jpg	100
461.864	1.264	1264.3	incongruent	Block1	incongruent/STIM_024.jpg	100
465.251	1.11	1109.9	incongruent	Block1	incongruent/STIM_024.jpg	100
468.636	0.969	968.8	incongruent	Block1	incongruent/STIM_024.jpg	100
472.841	1.009	1008.9	incongruent	Block1	incongruent/STIM_024.jpg	99
477.618	0.797	797.3	incongruent	Block1	incongruent/STIM_024.jpg	100
480.656	1.267	1266.9	incongruent	Block1	incongruent/STIM_025.jpg	100
485.829	1.202	1202.1	incongruent	Block1	incongruent/STIM_025.jpg	99
489.295	0.652	652.4	incongruent	Block1	incongruent/STIM_025.jpg	100
493.916	1.082	1082.0	incongruent	Block1	incongruent/STIM_025.jpg	99
498.456	0.786	785.7	incongruent	Block1	incongruent/STIM_025.jpg	100
501.954	1.097	1096.6	incongruent	Block1	incongruent/STIM_026.jpg	99
505.756	1.133	1132.6	incongruent	Block1	incongruent/STIM_026.jpg	99
509.451	1.174	1174.5	incongruent	Block1	incongruent/STIM_026.jpg	100
513.863	0.794	794.1	incongruent	Block1	incongruent/STIM_026.jpg	99
517.718	1.028	1028.0	incongruent	Block1	incongruent/STIM_026.jpg	100
522.709	0.627	626.8	incongruent	Block1	incongruent/STIM_027.jpg	100
527.24	1.193	1193.3	incongruent	Block1	incongruent/STIM_027.jpg	99
530.619	1.166	1165.9	incongruent	Block1	incongruent/STIM_027.jpg	100
534.502	1.099	1099.1	incongruent	Block1	incongruent/STIM_027.jpg	100
537.698	0.761	760.6	incongruent	Block1	incongruent/STIM_027.jpg	100
541.447	1.27	1269.6	incongruent	Block1	incongruent/STIM_028.jpg	99
545.933	0.723	723.0	incongruent	Block1	incongruent/STIM_028.jpg	100
549.807	0.835	835.3	incongruent	Block1	incongruent/STIM_028.jpg	100
552.82	0.985	984.8	incongruent	Block1	incongruent/STIM_028.jpg	99
556.855	0.626	625.7	incongruent	Block1	incongruent/STIM_028.jpg	100
560.847	1.252	1252.2	incongruent	Block1	incongruent/STIM_029.jpg	99
565.864	1.017	1017.0	incongruent	Block1	incongruent/STIM_029.jpg	100
570.524	1.044	1044.3	incongruent	Block1	incongruent/STIM_029.jpg	100
574.834	0.789	789.4	incongruent	Block1	incongruent/STIM_029.jpg	100
579.418	0.65	649.8	incongruent	Block1	incongruent/STIM_029.jpg	99
582.239	0.747	747.2	congruent	Block1	congruent/STIM_000.jpg	99
585.468	0.584	583.9	congruent	Block1	congruent/STIM_000.jpg	100
589.917	0.664	664.5	congruent	Block1	congruent/STIM_000.jpg	100
593.922	0.613	613.0	congruent	Block1	congruent/STIM_000.jpg	99
597.662	0.615	614.9	congruent	Block1	congruent/STIM_000.jpg	100
601.035	0.721	721.3	congruent	Block1	congruent/STIM_001.jpg	99
604.325	0.576	576.3	congruent	Block1	congruent/STIM_001.jpg	100
607.873	0.578	577.7	congruent	Block1	congruent/STIM_001.jpg	99
612.139	0.515	514.7	congruent	Block1	congruent/STIM_001.jpg	99
615.515	0.65	649.8	congruent	Block1	congruent/STIM_001.jpg	100
619.342	0.463	462.7	congruent	Block1	congruent/STIM_002.jpg	99
623.744	0.79	790.3	congruent	Block1	congruent/STIM_002.jpg	100
628.368	0.653	653.3	congruent	Block1	congruent/STIM_002.jpg	99
632.002	0.772	771.6	congruent	Block1	congruent/STIM_002.jpg	99
635.915	0.642	641.6	congruent	Block1	congruent/STIM_002.jpg	100
640.063	0.531	531.0	congruent	Block1	congruent/STIM_003.jpg	100
643.193	0.61	610.1	congruent	Block1	congruent/STIM_003.jpg	99
646.011	0.51	509.8	congruent	Block1	congruent/STIM_003.jpg	99
650.081	0.64	639.7	congruent	Block1	congruent/STIM_003.jpg	99
653.08	0.592	591.8	congruent	Block1	congruent/STIM_003.jpg	99
657.597	0.624	623.5	congruent	Block1	congruent/STIM_004.jpg	100
660.921	0.775	774.7	congruent	Block1	congruent/STIM_004.jpg	100
663.796	0.518	518.1	congruent	Block1	congruent/STIM_004.jpg	99
666.363	0.785	784.8	congruent	Block1	congruent/STIM_004.jpg	100
669.37	0.507	506.9	congruent	Block1	congruent/STIM_004.jpg	99
672.179	0.626	626.2	congruent	Block1	congruent/STIM_005.jpg	99
675.398	0.645	644.8	congruent	Block1	congruent/STIM_005.jpg	100
678.938	0.676	675.5	congruent	Block1	congruent/STIM_005.jpg	99
682.17	0.711	711.4	congruent	Block1	congruent/STIM_005.jpg	100
686.852	0.678	678.4	congruent	Block1	congruent/STIM_005.jpg	99
690.225	0.52	520.3	congruent	Block1	congruent/STIM_006.jpg	100
692.981	0.581	581.2	congruent	Block1	congruent/STIM_006.jpg	99
696.127	0.757	756.6	congruent	Block1	congruent/STIM_006.jpg	100
699.132	0.515	514.8	congruent	Block1	congruent/STIM_006.jpg	99
701.891	0.596	596.4	congruent	Block1	congruent/STIM_006.jpg	99
706.22	0.502	502.4	congruent	Block1	congruent/STIM_007.jpg	100
708.95	0.579	579.4	congruent	Block1	congruent/STIM_007.jpg	99
712.134	0.536	536.4	congruent	Block1	congruent/STIM_007.jpg	99
715.921	0.661	660.8	congruent	Block1	congruent/STIM_007.jpg	99
719.246	0.707	706.7	congruent	Block1	congruent/STIM_007.jpg	100
722.127	0.53	530.2	congruent	Block1	congruent/STIM_008.jpg	100
726.038	0.779	779.2	congruent	Block1	congruent/STIM_008.jpg	100
729.891	0.688	688.3	congruent	Block1	congruent/STIM_008.jpg	100
733.631	0.672	672.3	congruent	Block1	congruent/STIM_008.jpg	100
736.318	0.661	661.4	congruent	Block1	congruent/STIM_008.jpg	99
740.075	0.776	776.3	congruent	Block1	congruent/STIM_009.jpg	99
744.74	0.73	730.5	congruent	Block1	congruent/STIM_009.jpg	99
748.065	0.746	746.2	congruent	Block1	congruent/STIM_009.jpg	100
752.266	0.499	499.3	congruent	Block1	congruent/STIM_009.jpg	99
755.325	0.66	659.5	congruent	Block1	congruent/STIM_009.jpg	99
758.99	0.783	783.2	congruent	Block1	congruent/STIM_010.jpg	99
763.198	0.588	588.1	congruent	Block1	congruent/STIM_010.jpg	100
766.344	0.458	458.0	congruent	Block1	congruent/STIM_010.jpg	99
769.642	0.628	628.5	congruent	Block1	congruent/STIM_010.jpg	99
773.779	0.558	558.4	congruent	Block1	congruent/STIM_010.jpg	99
777.455	0.686	685.6	congruent	Block1	congruent/STIM_011.jpg	100
780.656	0.757	757.1	congruent	Block1	congruent/STIM_011.jpg	99
784.94	0.632	632.2	congruent	Block1	congruent/STIM_011.jpg	99
788.455	0.725	725.2	congruent	Block1	congruent/STIM_011.jpg	100
792.682	0.513	513.4	congruent	Block1	congruent/STIM_011.jpg	99
797.118	0.759	759.2	congruent	Block1	congruent/STIM_012.jpg	100
800.96	0.651	650.8	congruent	Block1	congruent/STIM_012.jpg	99
805.201	0.45	449.8	congruent	Block1	congruent/STIM_012.jpg	100
809.468	0.69	690.5	congruent	Block1	congruent/STIM_012.jpg	99
813.535	0.566	566.4	congruent	Block1	congruent/STIM_012.jpg	99
816.287	0.708	708.1	congruent	Block1	congruent/STIM_013.jpg	99
819.904	0.693	693.0	congruent	Block1	congruent/STIM_013.jpg	100
823.107	0.676	676.4	congruent	Block1	congruent/STIM_013.jpg	100
826.529	0.801	800.6	congruent	Block1	congruent/STIM_013.jpg	99
829.808	0.57	570.0	congruent	Block1	congruent/STIM_013.jpg	99
833.963	0.753	752.6	congruent	Block1	congruent/STIM_014.jpg	100
837.504	0.744	744.0	congruent	Block1	congruent/STIM_014.jpg	100
840.673	0.634	634.4	congruent	Block1	congruent/STIM_014.jpg	99
844.003	0.689	688.7	congruent	Block1	congruent/STIM_014.jpg	99
846.745	0.503	503.4	congruent	Block1	congruent/STIM_014.jpg	99
849.448	0.511	511.1	congruent	Block1	congruent/STIM_015.jpg	100
852.021	0.594	594.2	congruent	Block1	congruent/STIM_015.jpg	100
854.698	0.705	705.0	congruent	Block1	congruent/STIM_015.jpg	99
858.503	0.541	541.2	congruent	Block1	congruent/STIM_015.jpg	100
861.62	0.573	573.1	congruent	Block1	congruent/STIM_015.jpg	99
865.467	0.638	637.6	congruent	Block1	congruent/STIM_016.jpg	100
868.68	0.653	653.4	congruent	Block1	congruent/STIM_016.jpg	99
872.659	0.529	529.2	congruent	Block1	congruent/STIM_016.jpg	100
875.658	0.461	460.9	congruent	Block1	congruent/STIM_016.jpg	99
879.267	0.559	559.2	congruent	Block1	congruent/STIM_016.jpg	100
883.202	0.786	785.9	congruent	Block1	congruent/STIM_017.jpg	100
886.673	0.458	458.4	congruent	Block1	congruent/STIM_017.jpg	99
889.67	0.582	582.2	congruent	Block1	congruent/STIM_017.jpg	100
893.588	0.795	795.2	congruent	Block1	congruent/STIM_017.jpg	99
897.058	0.709	709.3	congruent	Block1	congruent/STIM_017.jpg	99
901.155	0.583	583.1	congruent	Block1	congruent/STIM_018.jpg	100
904.822	0.668	667.9	congruent	Block1	congruent/STIM_018.jpg	100
908.313	0.792	792.0	congruent	Block1	congruent/STIM_018.jpg	99
912.166	0.502	502.1	congruent	Block1	congruent/STIM_018.jpg	99
915.288	0.556	556.5	congruent	Block1	congruent/STIM_018.jpg	99
919.461	0.514	513.8	congruent	Block1	congruent/STIM_019.jpg	99
923.597	0.511	511.2	congruent	Block1	congruent/STIM_019.jpg	99
926.863	0.691	690.8	congruent	Block1	congruent/STIM_019.jpg	99
931.378	0.529	528.8	congruent	Block1	congruent/STIM_019.jpg	99
935.837	0.706	706.4	congruent	Block1	congruent/STIM_019.jpg	100
938.685	0.536	536.0	congruent	Block1	congruent/STIM_020.jpg	100
942.209	0.616	616.5	congruent	Block1	congruent/STIM_020.jpg	99
946.551	0.607	606.7	congruent	Block1	congruent/STIM_020.jpg	99
950.857	0.694	694.3	congruent	Block1	congruent/STIM_020.jpg	99
953.727	0.706	706.5	congruent	Block1	congruent/STIM_020.jpg	100
957.863	0.714	714.1	congruent	Block1	congruent/STIM_021.jpg	100
961.949	0.76	760.4	congruent	Block1	congruent/STIM_021.jpg	100
964.733	0.495	494.7	congruent	Block1	congruent/STIM_021.jpg	99
967.431	0.606	605.9	congruent	Block1	congruent/STIM_021.jpg	100
970.995	0.584	584.2	congruent	Block1	congruent/STIM_021.jpg	99
975.293	0.45	449.9	congruent	Block1	congruent/STIM_022.jpg	99
978.941	0.509	509.5	congruent	Block1	congruent/STIM_022.jpg	99
983.444	0.487	487.4	congruent	Block1	congruent/STIM_022.jpg	100
987.252	0.587	586.9	congruent	Block1	congruent/STIM_022.jpg	100
991.481	0.674	673.6	congruent	Block1	congruent/STIM_022.jpg	99
995.065	0.768	767.8	congruent	Block1	congruent/STIM_023.jpg	99
999.055	0.58	579.5	congruent	Block1	congruent/STIM_023.jpg	100
1001.844	0.798	797.7	congruent	Block1	congruent/STIM_023.jpg	99
1005.461	0.611	611.4	congruent	Block1	congruent/STIM_023.jpg	99
1009.556	0.663	663.1	congruent	Block1	congruent/STIM_023.jpg	100
1013.658	0.667	666.8	congruent	Block1	congruent/STIM_024.jpg	100
1017.028	0.621	621.4	congruent	Block1	congruent/STIM_024.jpg	99
1020.91	0.657	656.9	congruent	Block1	congruent/STIM_024.jpg	99
1025.314	0.508	507.8	congruent	Block1	congruent/STIM_024.jpg	99
1029.069	0.487	486.9	congruent	Block1	congruent/STIM_024.jpg	99
1032.349	0.768	768.4	congruent	Block1	congruent/STIM_025.jpg	99
1036.183	0.75	750.4	congruent	Block1	congruent/STIM_025.jpg	99
1039.188	0.655	655.0	congruent	Block1	congruent/STIM_025.jpg	100
1042.667	0.653	653.4	congruent	Block1	congruent/STIM_025.jpg	99
1046.922	0.656	655.6	congruent	Block1	congruent/STIM_025.jpg	100
1051.024	0.614	613.7	congruent	Block1	congruent/STIM_026.jpg	100
1054.181	0.718	717.9	congruent	Block1	congruent/STIM_026.jpg	99
1058.497	0.706	706.4	congruent	Block1	congruent/STIM_026.jpg	99
1062.463	0.48	480.5	congruent	Block1	congruent/STIM_026.jpg	99
1065.766	0.725	724.9	congruent	Block1	congruent/STIM_026.jpg	99
1069.853	0.504	503.7	congruent	Block1	congruent/STIM_027.jpg	100
1073.341	0.755	754.7	congruent	Block1	congruent/STIM_027.jpg	100
1077.161	0.57	570.3	congruent	Block1	congruent/STIM_027.jpg	100
1080.101	0.488	488.3	congruent	Block1	congruent/STIM_027.jpg	99
1084.55	0.654	654.2	congruent	Block1	congruent/STIM_027.jpg	100
1087.603	0.774	773.9	congruent	Block1	congruent/STIM_028.jpg	100
1091.834	0.618	618.1	congruent	Block1	congruent/STIM_028.jpg	99
1095.476	0.733	732.8	congruent	Block1	congruent/STIM_028.jpg	100
1098.897	0.631	631.2	congruent	Block1	congruent/STIM_028.jpg	100
1102.494	0.581	581.1	congruent	Block1	congruent/STIM_028.jpg	100
1105.866	0.534	533.7	congruent	Block1	congruent/STIM_029.jpg	100
1108.576	0.45	450.2	congruent	Block1	congruent/STIM_029.jpg	100
1111.434	0.571	570.9	congruent	Block1	congruent/STIM_029.jpg	100
1115.549	0.577	577.1	congruent	Block1	congruent/STIM_029.jpg	100
1119.16	0.618	618.2	congruent	Block1	congruent/STIM_029.jpg	100
1123.556	0.595	594.9	incongruent	Block2	incongruent/STIM_000.jpg	99
1127.3	0.692	692.1	incongruent	Block2	incongruent/STIM_000.jpg	99
1130.254	0.849	849.3	incongruent	Block2	incongruent/STIM_000.jpg	100
1134.55	0.921	920.9	incongruent	Block2	incongruent/STIM_000.jpg	100
1138.889	0.763	763.0	incongruent	Block2	incongruent/STIM_000.jpg	100
1142.789	0.604	603.9	incongruent	Block2	incongruent/STIM_001.jpg	99
1146.165	1.044	1043.6	incongruent	Block2	incongruent/STIM_001.jpg	99
1151.11	0.536	535.9	incongruent	Block2	incongruent/STIM_001.jpg	99
1154.444	0.673	672.8	incongruent	Block2	incongruent/STIM_001.jpg	99
1158.618	0.446	445.7	incongruent	Block2	incongruent/STIM_001.jpg	100
1161.454	1.115	1114.7	incongruent	Block2	incongruent/STIM_002.jpg	100
1164.76	0.773	772.7	incongruent	Block2	incongruent/STIM_002.jpg	100
1168.198	0.754	753.7	incongruent	Block2	incongruent/STIM_002.jpg	100
1172.156	0.636	636.4	incongruent	Block2	incongruent/STIM_002.jpg	99
1175.389	0.621	620.8	incongruent	Block2	incongruent/STIM_002.jpg	99
1179.43	0.819	819.1	incongruent	Block2	incongruent/STIM_003.jpg	99
1183.307	0.697	697.4	incongruent	Block2	incongruent/STIM_003.jpg	99
1187.221	0.799	799.2	incongruent	Block2	incongruent/STIM_003.jpg	100
1191.876	0.706	705.7	incongruent	Block2	incongruent/STIM_003.jpg	99
1195.365	0.447	446.7	incongruent	Block2	incongruent/STIM_003.jpg	100
1198.303	0.693	692.7	incongruent	Block2	incongruent/STIM_004.jpg	99
1201.563	0.873	873.3	incongruent	Block2	incongruent/STIM_004.jpg	100
1204.713	0.618	618.4	incongruent	Block2	incongruent/STIM_004.jpg	100
1208.655	0.863	863.2	incongruent	Block2	incongruent/STIM_004.jpg	99
1213.475	0.472	472.0	incongruent	Block2	incongruent/STIM_004.jpg	99
1217.741	0.91	910.5	incongruent	Block2	incongruent/STIM_005.jpg	99
1221.292	0.898	897.7	incongruent	Block2	incongruent/STIM_005.jpg	99
1225.713	0.967	966.9	incongruent	Block2	incongruent/STIM_005.jpg	99
1229.09	0.755	754.6	incongruent	Block2	incongruent/STIM_005.jpg	99
1233.488	0.456	456.1	incongruent	Block2	incongruent/STIM_005.jpg	99
1236.299	1.124	1124.1	incongruent	Block2	incongruent/STIM_006.jpg	100
1240.212	0.95	950.3	incongruent	Block2	incongruent/STIM_006.jpg	100
1243.362	0.614	613.9	incongruent	Block2	incongruent/STIM_006.jpg	99
1246.679	0.547	547.0	incongruent	Block2	incongruent/STIM_006.jpg	100
1250.664	0.833	832.9	incongruent	Block2	incongruent/STIM_006.jpg	99
1255.493	0.672	671.6	incongruent	Block2	incongruent/STIM_007.jpg	99
1258.947	0.711	711.2	incongruent	Block2	incongruent/STIM_007.jpg	100
1263.64	0.583	583.1	incongruent	Block2	incongruent/STIM_007.jpg	99
1267.335	0.509	509.3	incongruent	Block2	incongruent/STIM_007.jpg	99
1271.388	0.868	868.1	incongruent	Block2	incongruent/STIM_007.jpg	99
1275.992	1.035	1035.0	incongruent	Block2	incongruent/STIM_008.jpg	100
1280.646	0.958	957.5	incongruent	Block2	incongruent/STIM_008.jpg	99
1283.847	0.707	707.2	incongruent	Block2	incongruent/STIM_008.jpg	100
1286.983	0.584	584.0	incongruent	Block2	incongruent/STIM_008.jpg	99
1289.685	0.532	532.0	incongruent	Block2	incongruent/STIM_008.jpg	100
1292.873	0.684	683.5	incongruent	Block2	incongruent/STIM_009.jpg	100
1297.164	0.609	608.6	incongruent	Block2	incongruent/STIM_009.jpg	99
1299.889	0.561	561.4	incongruent	Block2	incongruent/STIM_009.jpg	100
1302.91	0.875	875.2	incongruent	Block2	incongruent/STIM_009.jpg	99
1307.275	0.932	932.2	incongruent	Block2	incongruent/STIM_009.jpg	99
1311.73	0.915	915.2	incongruent	Block2	incongruent/STIM_010.jpg	99
1316.125	1.066	1066.3	incongruent	Block2	incongruent/STIM_010.jpg	100
1319.307	0.608	608.4	incongruent	Block2	incongruent/STIM_010.jpg	100
1323.483	0.537	537.3	incongruent	Block2	incongruent/STIM_010.jpg	99
1327.762	0.609	609.3	incongruent	Block2	incongruent/STIM_010.jpg	100
1330.787	0.805	805.4	incongruent	Block2	incongruent/STIM_011.jpg	100
1334.407	0.858	858.3	incongruent	Block2	incongruent/STIM_011.jpg	99
1338.265	0.949	949.2	incongruent	Block2	incongruent/STIM_011.jpg	99
1342.443	0.692	692.4	incongruent	Block2	incongruent/STIM_011.jpg	100
1346.95	0.726	726.1	incongruent	Block2	incongruent/STIM_011.jpg	99
1349.798	0.731	730.8	incongruent	Block2	incongruent/STIM_012.jpg	100
1352.586	0.916	915.5	incongruent	Block2	incongruent/STIM_012.jpg	99
1356.901	0.653	653.1	incongruent	Block2	incongruent/STIM_012.jpg	99
1360.951	0.622	622.2	incongruent	Block2	incongruent/STIM_012.jpg	99
1364.096	0.832	831.7	incongruent	Block2	incongruent/STIM_012.jpg	99
1368.573	1.135	1134.9	incongruent	Block2	incongruent/STIM_013.jpg	99
1371.863	0.788	787.9	incongruent	Block2	incongruent/STIM_013.jpg	99
1375.013	0.748	747.7	incongruent	Block2	incongruent/STIM_013.jpg	100
1378.386	0.692	692.1	incongruent	Block2	incongruent/STIM_013.jpg	100
1383.056	0.881	880.8	incongruent	Block2	incongruent/STIM_013.jpg	99
1386.548	0.914	914.3	incongruent	Block2	incongruent/STIM_014.jpg	99
1391.425	0.855	855.0	incongruent	Block2	incongruent/STIM_014.jpg	99
1394.669	0.774	773.7	incongruent	Block2	incongruent/STIM_014.jpg	100
1398.082	0.57	569.8	incongruent	Block2	incongruent/STIM_014.jpg	99
1402.076	0.602	601.6	incongruent	Block2	incongruent/STIM_014.jpg	100
1405.01	1.131	1131.4	incongruent	Block2	incongruent/STIM_015.jpg	99
1408.771	0.522	521.8	incongruent	Block2	incongruent/STIM_015.jpg	100
1413.069	0.656	656.4	incongruent	Block2	incongruent/STIM_015.jpg	99
1416.339	0.47	469.8	incongruent	Block2	incongruent/STIM_015.jpg	99
1419.799	0.777	777.4	incongruent	Block2	incongruent/STIM_015.jpg	99
1423.104	1.023	1023.4	incongruent	Block2	incongruent/STIM_016.jpg	100
1427.343	0.998	997.5	incongruent	Block2	incongruent/STIM_016.jpg	99
1432.178	0.663	663.2	incongruent	Block2	incongruent/STIM_016.jpg	100
1435.106	0.746	745.5	incongruent	Block2	incongruent/STIM_016.jpg	99
1438.658	0.802	802.2	incongruent	Block2	incongruent/STIM_016.jpg	100
1441.95	0.783	782.6	incongruent	Block2	incongruent/STIM_017.jpg	99
1446.06	0.704	704.2	incongruent	Block2	incongruent/STIM_017.jpg	99
1449.842	0.98	980.2	incongruent	Block2	incongruent/STIM_017.jpg	100
1453.231	0.787	787.1	incongruent	Block2	incongruent/STIM_017.jpg	99
1456.489	0.922	921.6	incongruent	Block2	incongruent/STIM_017.jpg	99
1459.807	0.766	765.5	incongruent	Block2	incongruent/STIM_018.jpg	100
1463.676	0.977	977.4	incongruent	Block2	incongruent/STIM_018.jpg	99
1467.086	0.671	670.8	incongruent	Block2	incongruent/STIM_018.jpg	100
1471.698	0.549	548.6	incongruent	Block2	incongruent/STIM_018.jpg	100
1475.773	0.876	875.8	incongruent	Block2	incongruent/STIM_018.jpg	100
1478.933	0.999	998.6	incongruent	Block2	incongruent/STIM_019.jpg	100
1482.434	0.838	838.3	incongruent	Block2	incongruent/STIM_019.jpg	99
1485.798	0.626	626.2	incongruent	Block2	incongruent/STIM_019.jpg	99
1490.276	0.616	616.3	incongruent	Block2	incongruent/STIM_019.jpg	99
1494.323	0.867	867.2	incongruent	Block2	incongruent/STIM_019.jpg	99
1497.853	1.12	1120.5	incongruent	Block2	incongruent/STIM_020.jpg	99
1501.535	0.708	708.5	incongruent	Block2	incongruent/STIM_020.jpg	100
1504.702	0.772	772.2	incongruent	Block2	incongruent/STIM_020.jpg	100
1509.296	0.849	848.8	incongruent	Block2	incongruent/STIM_020.jpg	100
1512.431	0.545	545.3	incongruent	Block2	incongruent/STIM_020.jpg	100
1515.272	1.035	1035.0	incongruent	Block2	incongruent/STIM_021.jpg	100
1519.571	0.523	522.9	incongruent	Block2	incongruent/STIM_021.jpg	100
1523.842	0.555	555.0	incongruent	Block2	incongruent/STIM_021.jpg	99
1527.699	0.46	459.5	incongruent	Block2	incongruent/STIM_021.jpg	99
1530.807	0.574	574.4	incongruent	Block2	incongruent/STIM_021.jpg	99
1534.697	0.551	551.4	incongruent	Block2	incongruent/STIM_022.jpg	99
1538.489	0.811	810.8	incongruent	Block2	incongruent/STIM_022.jpg	100
1541.67	0.728	728.0	incongruent	Block2	incongruent/STIM_022.jpg	100
1545.899	0.855	855.1	incongruent	Block2	incongruent/STIM_022.jpg	100
1549.911	0.784	784.5	incongruent	Block2	incongruent/STIM_022.jpg	100
1552.942	1.014	1014.0	incongruent	Block2	incongruent/STIM_023.jpg	99
1557.796	0.8	799.6	incongruent	Block2	incongruent/STIM_023.jpg	100
1560.804	0.621	621.1	incongruent	Block2	incongruent/STIM_023.jpg	100
1564.335	0.512	511.6	incongruent	Block2	incongruent/STIM_023.jpg	100
1567.839	0.607	607.1	incongruent	Block2	incongruent/STIM_023.jpg	99
1572.217	0.827	826.7	incongruent	Block2	incongruent/STIM_024.jpg	99
1575.573	0.823	823.1	incongruent	Block2	incongruent/STIM_024.jpg	100
1578.862	0.701	701.4	incongruent	Block2	incongruent/STIM_024.jpg	99
1583.48	0.757	757.3	incongruent	Block2	incongruent/STIM_024.jpg	99
1587.164	0.562	562.0	incongruent	Block2	incongruent/STIM_024.jpg	100
1590.363	1.097	1097.1	incongruent	Block2	incongruent/STIM_025.jpg	99
1594.101	0.606	606.0	incongruent	Block2	incongruent/STIM_025.jpg	100
1598.697	0.941	941.4	incongruent	Block2	incongruent/STIM_025.jpg	100
1603.278	0.826	825.7	incongruent	Block2	incongruent/STIM_025.jpg	99
1606.578	0.463	463.2	incongruent	Block2	incongruent/STIM_025.jpg	99
1609.834	0.894	894.5	incongruent	Block2	incongruent/STIM_026.jpg	100
1614.476	0.501	500.8	incongruent	Block2	incongruent/STIM_026.jpg	100
1618.902	0.839	838.6	incongruent	Block2	incongruent/STIM_026.jpg	99
1623.325	0.465	465.2	incongruent	Block2	incongruent/STIM_026.jpg	100
1626.835	0.875	874.7	incongruent	Block2	incongruent/STIM_026.jpg	99
1630.356	0.668	668.4	incongruent	Block2	incongruent/STIM_027.jpg	100
1634.425	0.782	782.1	incongruent	Block2	incongruent/STIM_027.jpg	99
1637.615	0.599	598.8	incongruent	Block2	incongruent/STIM_027.jpg	100
1642.125	0.52	520.4	incongruent	Block2	incongruent/STIM_027.jpg	100
1644.892	0.886	886.4	incongruent	Block2	incongruent/STIM_027.jpg	100
1648.989	0.68	679.5	incongruent	Block2	incongruent/STIM_028.jpg	100
1652.015	1.024	1024.3	incongruent	Block2	incongruent/STIM_028.jpg	100
1656.186	0.984	984.0	incongruent	Block2	incongruent/STIM_028.jpg	100
1659.411	0.841	840.6	incongruent	Block2	incongruent/STIM_028.jpg	100
1663.134	0.633	633.1	incongruent	Block2	incongruent/STIM_028.jpg	99
1665.994	0.917	917.0	incongruent	Block2	incongruent/STIM_029.jpg	99
1670.007	0.946	946.5	incongruent	Block2	incongruent/STIM_029.jpg	100
1674.82	0.514	514.4	incongruent	Block2	incongruent/STIM_029.jpg	100
1678.732	0.634	634.3	incongruent	Block2	incongruent/STIM_029.jpg	100
1682.943	0.82	819.8	incongruent	Block2	incongruent/STIM_029.jpg	100
1687.421	0.469	468.6	congruent	Block2	congruent/STIM_000.jpg	99
1691.792	0.644	643.5	congruent	Block2	congruent/STIM_000.jpg	100
1695.279	0.706	705.7	congruent	Block2	congruent/STIM_000.jpg	99
1699.803	0.526	525.9	congruent	Block2	congruent/STIM_000.jpg	100
1703.537	0.478	478.3	congruent	Block2	congruent/STIM_000.jpg	99
1707.261	0.558	558.5	congruent	Block2	congruent/STIM_001.jpg	100
1709.891	0.614	613.6	congruent	Block2	congruent/STIM_001.jpg	100
1713.138	0.526	526.3	congruent	Block2	congruent/STIM_001.jpg	99
1715.974	0.509	508.8	congruent	Block2	congruent/STIM_001.jpg	100
1720.232	0.732	732.1	congruent	Block2	congruent/STIM_001.jpg	100
1724.178	0.775	775.2	congruent	Block2	congruent/STIM_002.jpg	100
1728.572	0.531	531.3	congruent	Block2	congruent/STIM_002.jpg	99
1731.666	0.475	475.4	congruent	Block2	congruent/STIM_002.jpg	99
1735.859	0.736	736.0	congruent	Block2	congruent/STIM_002.jpg	99
1739.392	0.564	564.4	congruent	Block2	congruent/STIM_002.jpg	100
1742.8	0.546	546.0	congruent	Block2	congruent/STIM_003.jpg	99
1746.511	0.668	667.7	congruent	Block2	congruent/STIM_003.jpg	100
1751.063	0.57	570.2	congruent	Block2	congruent/STIM_003.jpg	99
1754.36	0.468	468.2	congruent	Block2	congruent/STIM_003.jpg	100
1758.511	0.512	512.2	congruent	Block2	congruent/STIM_003.jpg	99
1761.545	0.561	561.2	congruent	Block2	congruent/STIM_004.jpg	99
1765.199	0.752	751.9	congruent	Block2	congruent/STIM_004.jpg	99
1769.237	0.614	613.6	congruent	Block2	congruent/STIM_004.jpg	99
1773.413	0.791	790.7	congruent	Block2	congruent/STIM_004.jpg	99
1777.848	0.487	487.4	congruent	Block2	congruent/STIM_004.jpg	100
1780.823	0.581	580.7	congruent	Block2	congruent/STIM_005.jpg	99
1784.937	0.735	734.8	congruent	Block2	congruent/STIM_005.jpg	100
1788.947	0.562	562.5	congruent	Block2	congruent/STIM_005.jpg	99
1792.819	0.606	606.1	congruent	Block2	congruent/STIM_005.jpg	100
1797.001	0.708	707.6	congruent	Block2	congruent/STIM_005.jpg	100
1799.778	0.644	643.9	congruent	Block2	congruent/STIM_006.jpg	99
1802.911	0.746	746.2	congruent	Block2	congruent/STIM_006.jpg	99
1807.142	0.726	726.0	congruent	Block2	congruent/STIM_006.jpg	99
1810.029	0.492	492.5	congruent	Block2	congruent/STIM_006.jpg	99
1813.167	0.498	498.1	congruent	Block2	congruent/STIM_006.jpg	100
1815.795	0.769	768.8	congruent	Block2	congruent/STIM_007.jpg	100
1820.024	0.629	628.7	congruent	Block2	congruent/STIM_007.jpg	100
1824.503	0.639	639.1	congruent	Block2	congruent/STIM_007.jpg	100
1827.893	0.45	450.5	congruent	Block2	congruent/STIM_007.jpg	100
1830.923	0.457	456.9	congruent	Block2	congruent/STIM_007.jpg	99
1834.448	0.601	600.6	congruent	Block2	congruent/STIM_008.jpg	99
1837.76	0.726	725.7	congruent	Block2	congruent/STIM_008.jpg	100
1841.779	0.56	560.4	congruent	Block2	congruent/STIM_008.jpg	100
1846.115	0.777	777.0	congruent	Block2	congruent/STIM_008.jpg	100
1850.643	0.792	792.4	congruent	Block2	congruent/STIM_008.jpg	99
1854.365	0.523	522.9	congruent	Block2	congruent/STIM_009.jpg	100
1858.431	0.47	470.0	congruent	Block2	congruent/STIM_009.jpg	99
1861.912	0.47	470.5	congruent	Block2	congruent/STIM_009.jpg	99
1865.603	0.479	478.9	congruent	Block2	congruent/STIM_009.jpg	100
1868.732	0.585	584.9	congruent	Block2	congruent/STIM_009.jpg	100
1871.432	0.581	580.7	congruent	Block2	congruent/STIM_010.jpg	99
1875.911	0.747	747.0	congruent	Block2	congruent/STIM_010.jpg	100
1879.254	0.673	672.8	congruent	Block2	congruent/STIM_010.jpg	100
1882.036	0.692	692.0	congruent	Block2	congruent/STIM_010.jpg	100
1886.367	0.578	578.3	congruent	Block2	congruent/STIM_010.jpg	100
1889.75	0.675	674.8	congruent	Block2	congruent/STIM_011.jpg	99
1893.313	0.58	580.1	congruent	Block2	congruent/STIM_011.jpg	100
1896.669	0.787	786.7	congruent	Block2	congruent/STIM_011.jpg	100
1900.148	0.791	791.2	congruent	Block2	congruent/STIM_011.jpg	100
1904.068	0.533	532.6	congruent	Block2	congruent/STIM_011.jpg	99
1907.7	0.764	764.2	congruent	Block2	congruent/STIM_012.jpg	99
1911.567	0.727	726.9	congruent	Block2	congruent/STIM_012.jpg	100
1915.618	0.62	619.8	congruent	Block2	congruent/STIM_012.jpg	99
1920.23	0.54	539.5	congruent	Block2	congruent/STIM_012.jpg	100
1923.54	0.745	745.2	congruent	Block2	congruent/STIM_012.jpg	100
1927.702	0.535	534.7	congruent	Block2	congruent/STIM_013.jpg	99
1932.108	0.694	694.3	congruent	Block2	congruent/STIM_013.jpg	99
1935.217	0.462	461.7	congruent	Block2	congruent/STIM_013.jpg	99
1938.665	0.553	552.8	congruent	Block2	congruent/STIM_013.jpg	99
1941.749	0.658	658.0	congruent	Block2	congruent/STIM_013.jpg	100
1946.394	0.546	546.4	congruent	Block2	congruent/STIM_014.jpg	99
1949.413	0.485	484.7	congruent	Block2	congruent/STIM_014.jpg	99
1952.06	0.641	641.1	congruent	Block2	congruent/STIM_014.jpg	100
1955.248	0.458	457.6	congruent	Block2	congruent/STIM_014.jpg	100
1959.191	0.614	613.9	congruent	Block2	congruent/STIM_014.jpg	100
1962.211	0.598	598.3	congruent	Block2	congruent/STIM_015.jpg	99
1965.959	0.468	468.0	congruent	Block2	congruent/STIM_015.jpg	99
1970.166	0.446	445.9	congruent	Block2	congruent/STIM_015.jpg	99
1974.212	0.793	792.9	congruent	Block2	congruent/STIM_015.jpg	100
1977.555	0.732	732.1	congruent	Block2	congruent/STIM_015.jpg	99
1980.525	0.765	765.0	congruent	Block2	congruent/STIM_016.jpg	99
1984.847	0.572	572.1	congruent	Block2	congruent/STIM_016.jpg	100
1987.979	0.725	725.4	congruent	Block2	congruent/STIM_016.jpg	100
1991.342	0.521	521.4	congruent	Block2	congruent/STIM_016.jpg	99
1995.075	0.542	541.6	congruent	Block2	congruent/STIM_016.jpg	99
1998.774	0.784	784.0	congruent	Block2	congruent/STIM_017.jpg	100
2002.882	0.752	751.5	congruent	Block2	congruent/STIM_017.jpg	99
2006.498	0.554	554.2	congruent	Block2	congruent/STIM_017.jpg	99
2009.7	0.602	602.5	congruent	Block2	congruent/STIM_017.jpg	100
2013.822	0.532	531.8	congruent	Block2	congruent/STIM_017.jpg	100
2018.002	0.556	556.2	congruent	Block2	congruent/STIM_018.jpg	99
2021.503	0.628	627.9	congruent	Block2	congruent/STIM_018.jpg	99
2025.509	0.489	489.1	congruent	Block2	congruent/STIM_018.jpg	99
2029.136	0.598	598.1	congruent	Block2	congruent/STIM_018.jpg	99
2032.982	0.486	486.0	congruent	Block2	congruent/STIM_018.jpg	99
2036.437	0.585	585.4	congruent	Block2	congruent/STIM_019.jpg	99
2041.015	0.705	705.3	congruent	Block2	congruent/STIM_019.jpg	99
2044.517	0.775	774.9	congruent	Block2	congruent/STIM_019.jpg	99
2047.99	0.606	606.3	congruent	Block2	congruent/STIM_019.jpg	100
2052.435	0.554	554.0	congruent	Block2	congruent/STIM_019.jpg	99
2055.543	0.777	776.9	congruent	Block2	congruent/STIM_020.jpg	99
2059.415	0.794	794.0	congruent	Block2	congruent/STIM_020.jpg	100
2062.217	0.607	606.7	congruent	Block2	congruent/STIM_020.jpg	100
2064.837	0.527	527.1	congruent	Block2	congruent/STIM_020.jpg	99
2067.46	0.568	567.5	congruent	Block2	congruent/STIM_020.jpg	100
2070.879	0.713	713.0	congruent	Block2	congruent/STIM_021.jpg	100
2074.992	0.753	752.8	congruent	Block2	congruent/STIM_021.jpg	100
2079.047	0.468	468.2	congruent	Block2	congruent/STIM_021.jpg	100
2082.014	0.695	694.8	congruent	Block2	congruent/STIM_021.jpg	100
2085.699	0.654	653.5	congruent	Block2	congruent/STIM_021.jpg	99
2090.021	0.517	516.8	congruent	Block2	congruent/STIM_022.jpg	100
2094.066	0.672	672.4	congruent	Block2	congruent/STIM_022.jpg	100
2098.386	0.494	493.6	congruent	Block2	congruent/STIM_022.jpg	99
2101.892	0.505	504.8	congruent	Block2	congruent/STIM_022.jpg	100
2105.793	0.782	782.4	congruent	Block2	congruent/STIM_022.jpg	100
2109.893	0.655	655.1	congruent	Block2	congruent/STIM_023.jpg	100
2114.447	0.622	622.1	congruent	Block2	congruent/STIM_023.jpg	100
2118.751	0.466	465.7	congruent	Block2	congruent/STIM_023.jpg	100
2121.703	0.787	786.8	congruent	Block2	congruent/STIM_023.jpg	99
2124.968	0.588	588.5	congruent	Block2	congruent/STIM_023.jpg	100
2128.562	0.59	589.8	congruent	Block2	congruent/STIM_024.jpg	100
2132.218	0.705	705.3	congruent	Block2	congruent/STIM_024.jpg	100
2136.183	0.71	710.2	congruent	Block2	congruent/STIM_024.jpg	100
2140.148	0.593	592.6	congruent	Block2	congruent/STIM_024.jpg	100
2144.669	0.662	662.5	congruent	Block2	congruent/STIM_024.jpg	100
2147.752	0.706	705.6	congruent	Block2	congruent/STIM_025.jpg	100
2151.987	0.742	741.5	congruent	Block2	congruent/STIM_025.jpg	100
2156.274	0.454	454.5	congruent	Block2	congruent/STIM_025.jpg	100
2160.485	0.626	626.2	congruent	Block2	congruent/STIM_025.jpg	99
2164.532	0.762	762.5	congruent	Block2	congruent/STIM_025.jpg	100
2167.361	0.754	753.6	congruent	Block2	congruent/STIM_026.jpg	100
2171.651	0.53	529.8	congruent	Block2	congruent/STIM_026.jpg	100
2175.334	0.801	801.0	congruent	Block2	congruent/STIM_026.jpg	99
2179.192	0.475	474.6	congruent	Block2	congruent/STIM_026.jpg	100
2182.641	0.483	482.6	congruent	Block2	congruent/STIM_026.jpg	100
2185.407	0.461	461.4	congruent	Block2	congruent/STIM_027.jpg	99
2187.974	0.794	794.5	congruent	Block2	congruent/STIM_027.jpg	100
2191.239	0.723	723.0	congruent	Block2	congruent/STIM_027.jpg	100
2194.076	0.68	679.7	congruent	Block2	congruent/STIM_027.jpg	100
2198.02	0.565	564.7	congruent	Block2	congruent/STIM_027.jpg	99
2201.588	0.785	785.4	congruent	Block2	congruent/STIM_028.jpg	99
2206.241	0.666	665.6	congruent	Block2	congruent/STIM_028.jpg	99
2209.422	0.467	466.6	congruent	Block2	congruent/STIM_028.jpg	99
2212.001	0.784	784.2	congruent	Block2	congruent/STIM_028.jpg	100
2215.782	0.602	602.5	congruent	Block2	congruent/STIM_028.jpg	100
2218.458	0.52	520.2	congruent	Block2	congruent/STIM_029.jpg	100
2221.766	0.596	595.7	congruent	Block2	congruent/STIM_029.jpg	100
2226.246	0.511	510.9	congruent	Block2	congruent/STIM_029.jpg	99
2228.807	0.576	575.5	congruent	Block2	congruent/STIM_029.jpg	100
2232.535	0.569	568.8	congruent	Block2	congruent/STIM_029.jpg	99
2236.84	0.921	920.6	incongruent	Block3	incongruent/STIM_000.jpg	100
2241.743	0.9	900.0	incongruent	Block3	incongruent/STIM_000.jpg	99
2244.661	0.594	594.0	incongruent	Block3	incongruent/STIM_000.jpg	100
2247.48	0.712	711.5	incongruent	Block3	incongruent/STIM_000.jpg	100
2252.075	0.521	521.2	incongruent	Block3	incongruent/STIM_000.jpg	100
2254.668	0.55	550.5	incongruent	Block3	incongruent/STIM_001.jpg	100
2258.992	0.45	450.3	incongruent	Block3	incongruent/STIM_001.jpg	99
2261.514	0.81	809.5	incongruent	Block3	incongruent/STIM_001.jpg	99
2264.881	0.78	780.3	incongruent	Block3	incongruent/STIM_001.jpg	100
2269.523	0.692	691.8	incongruent	Block3	incongruent/STIM_001.jpg	100
2272.865	0.72	719.6	incongruent	Block3	incongruent/STIM_002.jpg	100
2276.095	0.571	570.8	incongruent	Block3	incongruent/STIM_002.jpg	100
2280.531	0.826	826.2	incongruent	Block3	incongruent/STIM_002.jpg	99
2283.756	0.829	829.2	incongruent	Block3	incongruent/STIM_002.jpg	100
2287.766	0.475	475.1	incongruent	Block3	incongruent/STIM_002.jpg	100
2291.984	0.834	834.3	incongruent	Block3	incongruent/STIM_003.jpg	99
2295.813	0.909	909.1	incongruent	Block3	incongruent/STIM_003.jpg	99
2300.094	0.513	513.3	incongruent	Block3	incongruent/STIM_003.jpg	99
2303.881	0.861	860.8	incongruent	Block3	incongruent/STIM_003.jpg	100
2308.439	0.771	770.6	incongruent	Block3	incongruent/STIM_003.jpg	99
2311.305	0.904	903.9	incongruent	Block3	incongruent/STIM_004.jpg	99
2314.32	0.766	765.9	incongruent	Block3	incongruent/STIM_004.jpg	100
2317.267	0.597	596.9	incongruent	Block3	incongruent/STIM_004.jpg	99
2321.471	0.597	597.3	incongruent	Block3	incongruent/STIM_004.jpg	100
2325.517	0.891	891.0	incongruent	Block3	incongruent/STIM_004.jpg	100
2328.944	0.844	844.3	incongruent	Block3	incongruent/STIM_005.jpg	100
2332.304	0.551	550.9	incongruent	Block3	incongruent/STIM_005.jpg	100
2335.308	0.755	755.2	incongruent	Block3	incongruent/STIM_005.jpg	100
2338.649	0.807	807.1	incongruent	Block3	incongruent/STIM_005.jpg	100
2341.526	0.513	513.3	incongruent	Block3	incongruent/STIM_005.jpg	99
2345.349	0.653	653.1	incongruent	Block3	incongruent/STIM_006.jpg	99
2348.959	0.727	727.2	incongruent	Block3	incongruent/STIM_006.jpg	100
2351.904	0.76	760.1	incongruent	Block3	incongruent/STIM_006.jpg	100
2354.788	0.518	518.3	incongruent	Block3	incongruent/STIM_006.jpg	100
2358.561	0.738	737.9	incongruent	Block3	incongruent/STIM_006.jpg	99
2361.346	0.592	591.8	incongruent	Block3	incongruent/STIM_007.jpg	99
2364.894	0.531	530.7	incongruent	Block3	incongruent/STIM_007.jpg	99
2369.024	0.83	830.2	incongruent	Block3	incongruent/STIM_007.jpg	100
2373.155	0.555	555.0	incongruent	Block3	incongruent/STIM_007.jpg	100
2377.521	0.525	525.4	incongruent	Block3	incongruent/STIM_007.jpg	100
2380.968	0.777	777.2	incongruent	Block3	incongruent/STIM_008.jpg	99
2385.647	0.608	607.8	incongruent	Block3	incongruent/STIM_008.jpg	100
2388.484	0.486	486.5	incongruent	Block3	incongruent/STIM_008.jpg	100
2392.839	0.711	710.6	incongruent	Block3	incongruent/STIM_008.jpg	100
2396.439	0.651	651.1	incongruent	Block3	incongruent/STIM_008.jpg	99
2399.474	0.787	786.9	incongruent	Block3	incongruent/STIM_009.jpg	99
2403.83	0.784	784.5	incongruent	Block3	incongruent/STIM_009.jpg	99
2407.593	0.932	931.5	incongruent	Block3	incongruent/STIM_009.jpg	100
2410.749	0.572	571.5	incongruent	Block3	incongruent/STIM_009.jpg	100
2414.966	0.644	643.8	incongruent	Block3	incongruent/STIM_009.jpg	99
2418.25	0.783	783.3	incongruent	Block3	incongruent/STIM_010.jpg	99
2422.859	0.529	529.4	incongruent	Block3	incongruent/STIM_010.jpg	99
2426.374	0.792	792.1	incongruent	Block3	incongruent/STIM_010.jpg	99
2429.767	0.903	902.6	incongruent	Block3	incongruent/STIM_010.jpg	100
2433.69	0.897	897.0	incongruent	Block3	incongruent/STIM_010.jpg	100
2436.802	0.692	691.7	incongruent	Block3	incongruent/STIM_011.jpg	100
2441.188	0.698	697.8	incongruent	Block3	incongruent/STIM_011.jpg	100
2443.959	0.491	490.8	incongruent	Block3	incongruent/STIM_011.jpg	99
2446.883	0.75	750.3	incongruent	Block3	incongruent/STIM_011.jpg	99
2451.159	0.7	700.4	incongruent	Block3	incongruent/STIM_011.jpg	100
2455.691	0.46	459.7	incongruent	Block3	incongruent/STIM_012.jpg	99
2458.902	0.721	721.4	incongruent	Block3	incongruent/STIM_012.jpg	99
2462.91	0.704	703.8	incongruent	Block3	incongruent/STIM_012.jpg	100
2466.259	0.889	888.9	incongruent	Block3	incongruent/STIM_012.jpg	99
2470.583	0.536	535.6	incongruent	Block3	incongruent/STIM_012.jpg	100
2474.336	0.742	741.5	incongruent	Block3	incongruent/STIM_013.jpg	99
2478.603	0.594	594.0	incongruent	Block3	incongruent/STIM_013.jpg	99
2481.354	0.498	498.5	incongruent	Block3	incongruent/STIM_013.jpg	99
2485.692	0.557	557.3	incongruent	Block3	incongruent/STIM_013.jpg	100
2490.013	0.759	759.2	incongruent	Block3	incongruent/STIM_013.jpg	99
2493.694	0.762	761.6	incongruent	Block3	incongruent/STIM_014.jpg	100
2497.772	0.812	811.5	incongruent	Block3	incongruent/STIM_014.jpg	100
2501.39	0.797	797.1	incongruent	Block3	incongruent/STIM_014.jpg	100
2504.758	0.758	757.9	incongruent	Block3	incongruent/STIM_014.jpg	99
2508.308	0.709	709.4	incongruent	Block3	incongruent/STIM_014.jpg	100
2512.248	0.902	902.0	incongruent	Block3	incongruent/STIM_015.jpg	100
2516.742	0.56	560.1	incongruent	Block3	incongruent/STIM_015.jpg	99
2520.702	0.924	923.6	incongruent	Block3	incongruent/STIM_015.jpg	100
2525.527	0.762	761.5	incongruent	Block3	incongruent/STIM_015.jpg	100
2528.331	0.857	857.1	incongruent	Block3	incongruent/STIM_015.jpg	99
2531.329	0.849	849.2	incongruent	Block3	incongruent/STIM_016.jpg	100
2536.138	0.559	558.9	incongruent	Block3	incongruent/STIM_016.jpg	99
2539.263	0.861	861.4	incongruent	Block3	incongruent/STIM_016.jpg	100
2542.31	0.542	542.2	incongruent	Block3	incongruent/STIM_016.jpg	100
2545.79	0.686	686.5	incongruent	Block3	incongruent/STIM_016.jpg	100
2549.449	0.926	925.8	incongruent	Block3	incongruent/STIM_017.jpg	99
2552.835	0.494	493.7	incongruent	Block3	incongruent/STIM_017.jpg	99
2557.174	0.902	902.4	incongruent	Block3	incongruent/STIM_017.jpg	99
2561.053	0.547	546.7	incongruent	Block3	incongruent/STIM_017.jpg	99
2564.871	0.527	526.6	incongruent	Block3	incongruent/STIM_017.jpg	100
2568.198	0.817	816.7	incongruent	Block3	incongruent/STIM_018.jpg	100
2572.172	0.689	689.3	incongruent	Block3	incongruent/STIM_018.jpg	100
2575.468	0.58	579.9	incongruent	Block3	incongruent/STIM_018.jpg	100
2579.526	0.848	847.5	incongruent	Block3	incongruent/STIM_018.jpg	100
2583.837	0.571	571.3	incongruent	Block3	incongruent/STIM_018.jpg	100
2588.106	0.846	845.9	incongruent	Block3	incongruent/STIM_019.jpg	100
2591.002	0.792	791.5	incongruent	Block3	incongruent/STIM_019.jpg	99
2595.555	0.598	598.2	incongruent	Block3	incongruent/STIM_019.jpg	100
2599.933	0.481	480.8	incongruent	Block3	incongruent/STIM_019.jpg	100
2602.84	0.482	482.1	incongruent	Block3	incongruent/STIM_019.jpg	100
2606.234	0.9	899.6	incongruent	Block3	incongruent/STIM_020.jpg	99
2609.53	0.624	624.0	incongruent	Block3	incongruent/STIM_020.jpg	99
2613.987	0.738	738.0	incongruent	Block3	incongruent/STIM_020.jpg	100
2617.191	0.77	769.7	incongruent	Block3	incongruent/STIM_020.jpg	100
2621.495	0.766	765.6	incongruent	Block3	incongruent/STIM_020.jpg	100
2625.209	0.54	540.4	incongruent	Block3	incongruent/STIM_021.jpg	99
2629.092	0.562	562.0	incongruent	Block3	incongruent/STIM_021.jpg	99
2632.362	0.561	560.9	incongruent	Block3	incongruent/STIM_021.jpg	99
2635.434	0.644	643.7	incongruent	Block3	incongruent/STIM_021.jpg	99
2639.361	0.565	565.0	incongruent	Block3	incongruent/STIM_021.jpg	99
2642.84	0.906	905.8	incongruent	Block3	incongruent/STIM_022.jpg	99
2646.329	0.797	797.4	incongruent	Block3	incongruent/STIM_022.jpg	100
2649.733	0.549	549.0	incongruent	Block3	incongruent/STIM_022.jpg	100
2652.923	0.909	908.6	incongruent	Block3	incongruent/STIM_022.jpg	99
2655.917	0.53	529.7	incongruent	Block3	incongruent/STIM_022.jpg	100
2659.527	0.441	440.8	incongruent	Block3	incongruent/STIM_023.jpg	100
2663.452	0.728	728.0	incongruent	Block3	incongruent/STIM_023.jpg	100
2666.557	0.536	535.8	incongruent	Block3	incongruent/STIM_023.jpg	99
2670.985	0.575	574.6	incongruent	Block3	incongruent/STIM_023.jpg	100
2673.967	0.875	875.3	incongruent	Block3	incongruent/STIM_023.jpg	100
2678.779	0.543	542.8	incongruent	Block3	incongruent/STIM_024.jpg	99
2682.272	0.662	662.1	incongruent	Block3	incongruent/STIM_024.jpg	100
2686.069	0.491	490.9	incongruent	Block3	incongruent/STIM_024.jpg	99
2689.962	0.666	666.3	incongruent	Block3	incongruent/STIM_024.jpg	99
2693.09	0.554	554.0	incongruent	Block3	incongruent/STIM_024.jpg	99
2696.545	0.792	792.3	incongruent	Block3	incongruent/STIM_025.jpg	99
2699.414	0.634	634.3	incongruent	Block3	incongruent/STIM_025.jpg	100
2703.282	0.83	829.5	incongruent	Block3	incongruent/STIM_025.jpg	100
2706.512	0.576	575.9	incongruent	Block3	incongruent/STIM_025.jpg	100
2709.625	0.649	649.2	incongruent	Block3	incongruent/STIM_025.jpg	99
2712.819	0.917	916.7	incongruent	Block3	incongruent/STIM_026.jpg	100
2717.588	0.516	516.2	incongruent	Block3	incongruent/STIM_026.jpg	100
2720.734	0.742	741.6	incongruent	Block3	incongruent/STIM_026.jpg	99
2725.464	0.518	518.3	incongruent	Block3	incongruent/STIM_026.jpg	99
2728.468	0.461	461.4	incongruent	Block3	incongruent/STIM_026.jpg	99
2731.093	0.925	924.7	incongruent	Block3	incongruent/STIM_027.jpg	100
2734.543	0.652	651.8	incongruent	Block3	incongruent/STIM_027.jpg	99
2738.067	0.777	776.7	incongruent	Block3	incongruent/STIM_027.jpg	100
2741.351	0.849	848.7	incongruent	Block3	incongruent/STIM_027.jpg	99
2744.527	0.739	739.0	incongruent	Block3	incongruent/STIM_027.jpg	100
2747.874	0.8	799.8	incongruent	Block3	incongruent/STIM_028.jpg	100
2751.471	0.708	707.9	incongruent	Block3	incongruent/STIM_028.jpg	99
2755.618	0.598	598.1	incongruent	Block3	incongruent/STIM_028.jpg	100
2758.57	0.657	656.7	incongruent	Block3	incongruent/STIM_028.jpg	99
2762.722	0.824	823.9	incongruent	Block3	incongruent/STIM_028.jpg	100
2766.512	0.883	883.0	incongruent	Block3	incongruent/STIM_029.jpg	100
2771.135	0.835	834.9	incongruent	Block3	incongruent/STIM_029.jpg	99
2774.607	0.638	637.5	incongruent	Block3	incongruent/STIM_029.jpg	99
2777.528	0.829	828.9	incongruent	Block3	incongruent/STIM_029.jpg	99
2780.449	0.852	852.1	incongruent	Block3	incongruent/STIM_029.jpg	100
2783.999	0.699	698.8	congruent	Block3	congruent/STIM_000.jpg	100
2787.174	0.517	516.8	congruent	Block3	congruent/STIM_000.jpg	100
2791.179	0.79	789.7	congruent	Block3	congruent/STIM_000.jpg	100
2794.563	0.735	735.1	congruent	Block3	congruent/STIM_000.jpg	99
2798.821	0.563	562.6	congruent	Block3	congruent/STIM_000.jpg	100
2803.277	0.514	514.4	congruent	Block3	congruent/STIM_001.jpg	99
2807.722	0.658	658.2	congruent	Block3	congruent/STIM_001.jpg	100
2810.499	0.637	637.2	congruent	Block3	congruent/STIM_001.jpg	99
2814.447	0.78	779.5	congruent	Block3	congruent/STIM_001.jpg	100
2819.127	0.708	707.7	congruent	Block3	congruent/STIM_001.jpg	100
2823.324	0.632	631.9	congruent	Block3	congruent/STIM_002.jpg	100
2827.531	0.552	552.5	congruent	Block3	congruent/STIM_002.jpg	99
2831.626	0.515	515.2	congruent	Block3	congruent/STIM_002.jpg	99
2834.593	0.8	799.8	congruent	Block3	congruent/STIM_002.jpg	99
2838.633	0.673	673.2	congruent	Block3	congruent/STIM_002.jpg	99
2843.18	0.648	648.3	congruent	Block3	congruent/STIM_003.jpg	99
2846.404	0.743	742.7	congruent	Block3	congruent/STIM_003.jpg	99
2849.4	0.62	620.3	congruent	Block3	congruent/STIM_003.jpg	99
2853.583	0.738	738.1	congruent	Block3	congruent/STIM_003.jpg	100
2857.996	0.775	775.3	congruent	Block3	congruent/STIM_003.jpg	100
2861.061	0.458	457.8	congruent	Block3	congruent/STIM_004.jpg	100
2864.894	0.77	770.2	congruent	Block3	congruent/STIM_004.jpg	100
2868.568	0.607	607.3	congruent	Block3	congruent/STIM_004.jpg	99
2872.595	0.672	672.3	congruent	Block3	congruent/STIM_004.jpg	99
2876.504	0.704	704.2	congruent	Block3	congruent/STIM_004.jpg	100
2880.657	0.622	622.4	congruent	Block3	congruent/STIM_005.jpg	99
2883.366	0.522	522.1	congruent	Block3	congruent/STIM_005.jpg	99
2887.661	0.474	473.7	congruent	Block3	congruent/STIM_005.jpg	99
2891.413	0.544	543.9	congruent	Block3	congruent/STIM_005.jpg	100
2894.562	0.713	712.7	congruent	Block3	congruent/STIM_005.jpg	99
2898.331	0.682	681.8	congruent	Block3	congruent/STIM_006.jpg	99
2901.283	0.51	509.8	congruent	Block3	congruent/STIM_006.jpg	100
2903.8	0.473	472.8	congruent	Block3	congruent/STIM_006.jpg	99
2907.442	0.632	631.5	congruent	Block3	congruent/STIM_006.jpg	99
2910.145	0.751	750.7	congruent	Block3	congruent/STIM_006.jpg	99
2914.314	0.447	446.7	congruent	Block3	congruent/STIM_007.jpg	100
2917.346	0.635	634.9	congruent	Block3	congruent/STIM_007.jpg	100
2921.219	0.636	635.6	congruent	Block3	congruent/STIM_007.jpg	100
2925.427	0.687	686.9	congruent	Block3	congruent/STIM_007.jpg	99
2929.678	0.696	696.3	congruent	Block3	congruent/STIM_007.jpg	99
2932.621	0.726	726.2	congruent	Block3	congruent/STIM_008.jpg	99
2936.629	0.478	477.9	congruent	Block3	congruent/STIM_008.jpg	99
2939.674	0.658	658.5	congruent	Block3	congruent/STIM_008.jpg	100
2943.493	0.638	638.5	congruent	Block3	congruent/STIM_008.jpg	99
2946.351	0.568	568.5	congruent	Block3	congruent/STIM_008.jpg	100
2950.76	0.727	727.1	congruent	Block3	congruent/STIM_009.jpg	99
2954.437	0.45	449.9	congruent	Block3	congruent/STIM_009.jpg	99
2957.808	0.688	688.2	congruent	Block3	congruent/STIM_009.jpg	100
2960.91	0.717	716.6	congruent	Block3	congruent/STIM_009.jpg	100
2964.989	0.677	676.6	congruent	Block3	congruent/STIM_009.jpg	100
2968.53	0.689	688.9	congruent	Block3	congruent/STIM_010.jpg	99
2972.028	0.633	632.8	congruent	Block3	congruent/STIM_010.jpg	99
2975.232	0.491	490.9	congruent	Block3	congruent/STIM_010.jpg	99
2978.248	0.449	448.8	congruent	Block3	congruent/STIM_010.jpg	100
2981.411	0.629	628.7	congruent	Block3	congruent/STIM_010.jpg	99
2985.271	0.556	556.3	congruent	Block3	congruent/STIM_011.jpg	100
2989.386	0.74	740.4	congruent	Block3	congruent/STIM_011.jpg	99
2992.712	0.755	754.6	congruent	Block3	congruent/STIM_011.jpg	99
2996.962	0.609	608.7	congruent	Block3	congruent/STIM_011.jpg	99
3001.189	0.625	624.7	congruent	Block3	congruent/STIM_011.jpg	100
3004.013	0.634	633.7	congruent	Block3	congruent/STIM_012.jpg	99
3006.76	0.758	757.9	congruent	Block3	congruent/STIM_012.jpg	99
3010.926	0.793	793.2	congruent	Block3	congruent/STIM_012.jpg	99
3014.574	0.739	738.9	congruent	Block3	congruent/STIM_012.jpg	99
3017.785	0.712	712.2	congruent	Block3	congruent/STIM_012.jpg	99
3021.182	0.713	712.6	congruent	Block3	congruent/STIM_013.jpg	100
3025.783	0.474	473.9	congruent	Block3	congruent/STIM_013.jpg	99
3029.865	0.54	540.5	congruent	Block3	congruent/STIM_013.jpg	99
3034.173	0.725	725.4	congruent	Block3	congruent/STIM_013.jpg	99
3038.086	0.62	620.5	congruent	Block3	congruent/STIM_013.jpg	99
3040.8	0.697	697.3	congruent	Block3	congruent/STIM_014.jpg	100
3044.902	0.538	538.5	congruent	Block3	congruent/STIM_014.jpg	100
3049.093	0.678	677.7	congruent	Block3	congruent/STIM_014.jpg	99
3053.36	0.673	673.1	congruent	Block3	congruent/STIM_014.jpg	100
3057.403	0.553	552.8	congruent	Block3	congruent/STIM_014.jpg	99
3060.566	0.495	494.7	congruent	Block3	congruent/STIM_015.jpg	99
3064.655	0.675	675.1	congruent	Block3	congruent/STIM_015.jpg	99
3068.718	0.503	503.4	congruent	Block3	congruent/STIM_015.jpg	100
3072.862	0.721	720.6	congruent	Block3	congruent/STIM_015.jpg	99
3077.015	0.678	678.5	congruent	Block3	congruent/STIM_015.jpg	99
3080.133	0.712	711.6	congruent	Block3	congruent/STIM_016.jpg	99
3084.567	0.455	454.8	congruent	Block3	congruent/STIM_016.jpg	100
3088.58	0.529	529.3	congruent	Block3	congruent/STIM_016.jpg	99
3093.057	0.802	801.8	congruent	Block3	congruent/STIM_016.jpg	100
3097.655	0.578	578.3	congruent	Block3	congruent/STIM_016.jpg	100
3101.956	0.719	719.3	congruent	Block3	congruent/STIM_017.jpg	100
3105.319	0.517	517.0	congruent	Block3	congruent/STIM_017.jpg	100
3108.631	0.76	759.8	congruent	Block3	congruent/STIM_017.jpg	100
3111.651	0.71	710.0	congruent	Block3	congruent/STIM_017.jpg	99
3114.903	0.586	586.2	congruent	Block3	congruent/STIM_017.jpg	100
3117.709	0.518	518.0	congruent	Block3	congruent/STIM_018.jpg	99
3121.44	0.484	484.3	congruent	Block3	congruent/STIM_018.jpg	99
3125.676	0.474	474.4	congruent	Block3	congruent/STIM_018.jpg	99
3129.586	0.682	681.6	congruent	Block3	congruent/STIM_018.jpg	99
3132.473	0.598	598.1	congruent	Block3	congruent/STIM_018.jpg	99
3135.376	0.698	697.5	congruent	Block3	congruent/STIM_019.jpg	100
3140.054	0.53	529.9	congruent	Block3	congruent/STIM_019.jpg	100
3144.339	0.556	555.8	congruent	Block3	congruent/STIM_019.jpg	100
3147.049	0.61	610.3	congruent	Block3	congruent/STIM_019.jpg	100
3151.208	0.509	508.9	congruent	Block3	congruent/STIM_019.jpg	100
3154.632	0.504	504.1	congruent	Block3	congruent/STIM_020.jpg	99
3157.974	0.614	614.5	congruent	Block3	congruent/STIM_020.jpg	100
3161.752	0.68	679.5	congruent	Block3	congruent/STIM_020.jpg	99
3166.158	0.46	459.9	congruent	Block3	congruent/STIM_020.jpg	99
3169.224	0.471	470.6	congruent	Block3	congruent/STIM_020.jpg	99
3173.436	0.521	520.6	congruent	Block3	congruent/STIM_021.jpg	99
3177.896	0.504	504.2	congruent	Block3	congruent/STIM_021.jpg	100
3181.235	0.513	512.8	congruent	Block3	congruent/STIM_021.jpg	99
3185.228	0.488	488.0	congruent	Block3	congruent/STIM_021.jpg	99
3188.571	0.451	450.8	congruent	Block3	congruent/STIM_021.jpg	99
3191.881	0.496	496.0	congruent	Block3	congruent/STIM_022.jpg	99
3196.149	0.647	647.0	congruent	Block3	congruent/STIM_022.jpg	99
3199.865	0.458	458.4	congruent	Block3	congruent/STIM_022.jpg	99
3203.068	0.611	611.0	congruent	Block3	congruent/STIM_022.jpg	99
3205.781	0.479	478.7	congruent	Block3	congruent/STIM_022.jpg	100
3209.979	0.723	722.7	congruent	Block3	congruent/STIM_023.jpg	99
3214.391	0.512	512.1	congruent	Block3	congruent/STIM_023.jpg	100
3217.911	0.602	602.1	congruent	Block3	congruent/STIM_023.jpg	99
3222.39	0.51	510.3	congruent	Block3	congruent/STIM_023.jpg	100
3225.356	0.616	616.5	congruent	Block3	congruent/STIM_023.jpg	100
3228.989	0.484	484.0	congruent	Block3	congruent/STIM_024.jpg	100
3231.61	0.595	595.4	congruent	Block3	congruent/STIM_024.jpg	99
3235.144	0.67	669.8	congruent	Block3	congruent/STIM_024.jpg	100
3239.798	0.527	527.1	congruent	Block3	congruent/STIM_024.jpg	100
3242.95	0.541	540.9	congruent	Block3	congruent/STIM_024.jpg	100
3246.027	0.595	595.4	congruent	Block3	congruent/STIM_025.jpg	99
3250.16	0.768	768.0	congruent	Block3	congruent/STIM_025.jpg	100
3253.696	0.777	777.1	congruent	Block3	congruent/STIM_025.jpg	99
3257.242	0.615	614.7	congruent	Block3	congruent/STIM_025.jpg	99
3260.742	0.792	791.8	congruent	Block3	congruent/STIM_025.jpg	99
3264.624	0.737	737.1	congruent	Block3	congruent/STIM_026.jpg	99
3267.807	0.66	659.7	congruent	Block3	congruent/STIM_026.jpg	99
3271.564	0.718	717.9	congruent	Block3	congruent/STIM_026.jpg	100
3275.743	0.752	752.4	congruent	Block3	congruent/STIM_026.jpg	99
3279.635	0.624	623.8	congruent	Block3	congruent/STIM_026.jpg	100
3282.915	0.765	765.3	congruent	Block3	congruent/STIM_027.jpg	99
3287.322	0.768	767.9	congruent	Block3	congruent/STIM_027.jpg	100
3290.219	0.764	763.7	congruent	Block3	congruent/STIM_027.jpg	100
3294.614	0.7	700.5	congruent	Block3	congruent/STIM_027.jpg	100
3297.964	0.541	541.4	congruent	Block3	congruent/STIM_027.jpg	100
3301.205	0.732	732.2	congruent	Block3	congruent/STIM_028.jpg	100
3305.431	0.624	623.9	congruent	Block3	congruent/STIM_028.jpg	99
3308.809	0.726	726.2	congruent	Block3	congruent/STIM_028.jpg	100
3312.344	0.685	684.8	congruent	Block3	congruent/STIM_028.jpg	100
3315.667	0.647	646.6	congruent	Block3	congruent/STIM_028.jpg	99
3318.335	0.502	502.2	congruent	Block3	congruent/STIM_029.jpg	99
3321.737	0.751	750.7	congruent	Block3	congruent/STIM_029.jpg	99
3325.543	0.746	745.7	congruent	Block3	congruent/STIM_029.jpg	100
3329.647	0.468	467.9	congruent	Block3	congruent/STIM_029.jpg	100
3333.318	0.537	537.1	congruent	Block3	congruent/STIM_029.jpg	99
