onset	duration	accuracy	trial_type	learning_stage	stimulus
0.0	1.053	correct	incongruent	Block1	incongruent/STIM_000.jpg
3.854	0.606	incorrect	incongruent	Block1	incongruent/STIM_000.jpg
8.189	1.459	incorrect	incongruent	Block1	incongruent/STIM_000.jpg
13.436	1.366	correct	incongruent	Block1	incongruent/STIM_000.jpg
17.482	0.599	correct	incongruent	Block1	incongruent/STIM_000.jpg
20.524	1.429	correct	incongruent	Block1	incongruent/STIM_001.jpg
24.259	1.346	correct	incongruent	Block1	incongruent/STIM_001.jpg
29.232	0.862	correct	incongruent	Block1	incongruent/STIM_001.jpg
32.886	0.893	correct	incongruent	Block1	incongruent/STIM_001.jpg
36.195	0.59	correct	incongruent	Block1	incongruent/STIM_001.jpg
40.557	1.364	incorrect	incongruent	Block1	incongruent/STIM_002.jpg
45.707	0.891	correct	incongruent	Block1	incongruent/STIM_002.jpg
50.516	0.856	correct	incongruent	Block1	incongruent/STIM_002.jpg
54.985	0.905	correct	incongruent	Block1	incongruent/STIM_002.jpg
58.382	0.81	correct	incongruent	Block1	incongruent/STIM_002.jpg
61.819	1.035	incorrect	incongruent	Block1	incongruent/STIM_003.jpg
64.996	1.209	correct	incongruent	Block1	incongruent/STIM_003.jpg
68.678	0.97	correct	incongruent	Block1	incongruent/STIM_003.jpg
72.172	1.304	correct	incongruent	Block1	incongruent/STIM_003.jpg
75.751	0.91	correct	incongruent	Block1	incongruent/STIM_003.jpg
78.936	1.566	correct	incongruent	Block1	incongruent/STIM_004.jpg
82.719	1.025	correct	incongruent	Block1	incongruent/STIM_004.jpg
87.275	1.169	correct	incongruent	Block1	incongruent/STIM_004.jpg
92.002	1.088	correct	incongruent	Block1	incongruent/STIM_004.jpg
95.408	0.912	correct	incongruent	Block1	incongruent/STIM_004.jpg
99.287	0.999	correct	incongruent	Block1	incongruent/STIM_005.jpg
102.616	1.232	correct	incongruent	Block1	incongruent/STIM_005.jpg
106.411	1.19	correct	incongruent	Block1	incongruent/STIM_005.jpg
110.319	0.704	correct	incongruent	Block1	incongruent/STIM_005.jpg
114.649	1.157	correct	incongruent	Block1	incongruent/STIM_005.jpg
117.962	0.797	correct	incongruent	Block1	incongruent/STIM_006.jpg
122.035	1.02	incorrect	incongruent	Block1	incongruent/STIM_006.jpg
126.512	0.804	correct	incongruent	Block1	incongruent/STIM_006.jpg
130.113	1.295	correct	incongruent	Block1	incongruent/STIM_006.jpg
134.808	0.678	incorrect	incongruent	Block1	incongruent/STIM_006.jpg
139.241	1.193	correct	incongruent	Block1	incongruent/STIM_007.jpg
144.007	1.28	correct	incongruent	Block1	incongruent/STIM_007.jpg
147.403	0.737	correct	incongruent	Block1	incongruent/STIM_007.jpg
150.733	0.87	correct	incongruent	Block1	incongruent/STIM_007.jpg
154.747	0.925	correct	incongruent	Block1	incongruent/STIM_007.jpg
159.03	1.311	correct	incongruent	Block1	incongruent/STIM_008.jpg
163.116	1.104	correct	incongruent	Block1	incongruent/STIM_008.jpg
166.63	0.706	correct	incongruent	Block1	incongruent/STIM_008.jpg
169.369	1.112	correct	incongruent	Block1	incongruent/STIM_008.jpg
173.141	1.045	correct	incongruent	Block1	incongruent/STIM_008.jpg
177.26	1.566	correct	incongruent	Block1	incongruent/STIM_009.jpg
181.707	1.385	incorrect	incongruent	Block1	incongruent/STIM_009.jpg
186.95	1.386	correct	incongruent	Block1	incongruent/STIM_009.jpg
192.032	1.099	incorrect	incongruent	Block1	incongruent/STIM_009.jpg
196.554	0.764	correct	incongruent	Block1	incongruent/STIM_009.jpg
201.226	0.781	correct	incongruent	Block1	incongruent/STIM_010.jpg
205.672	0.958	correct	incongruent	Block1	incongruent/STIM_010.jpg
208.597	0.671	correct	incongruent	Block1	incongruent/STIM_010.jpg
212.485	1.27	correct	incongruent	Block1	incongruent/STIM_010.jpg
215.998	0.705	correct	incongruent	Block1	incongruent/STIM_010.jpg
220.349	0.99	correct	incongruent	Block1	incongruent/STIM_011.jpg
224.981	1.073	correct	incongruent	Block1	incongruent/STIM_011.jpg
229.415	0.873	correct	incongruent	Block1	incongruent/STIM_011.jpg
234.022	0.612	correct	incongruent	Block1	incongruent/STIM_011.jpg
237.653	1.047	correct	incongruent	Block1	incongruent/STIM_011.jpg
242.457	1.441	correct	incongruent	Block1	incongruent/STIM_012.jpg
245.948	1.402	correct	incongruent	Block1	incongruent/STIM_012.jpg
249.799	0.986	correct	incongruent	Block1	incongruent/STIM_012.jpg
253.215	1.129	correct	incongruent	Block1	incongruent/STIM_012.jpg
258.181	0.944	correct	incongruent	Block1	incongruent/STIM_012.jpg
262.52	1.026	correct	incongruent	Block1	incongruent/STIM_013.jpg
267.25	1.066	correct	incongruent	Block1	incongruent/STIM_013.jpg
270.54	1.074	correct	incongruent	Block1	incongruent/STIM_013.jpg
274.702	0.779	correct	incongruent	Block1	incongruent/STIM_013.jpg
279.072	0.794	correct	incongruent	Block1	incongruent/STIM_013.jpg
283.752	1.199	correct	incongruent	Block1	incongruent/STIM_014.jpg
288.121	0.784	correct	incongruent	Block1	incongruent/STIM_014.jpg
292.638	1.297	correct	incongruent	Block1	incongruent/STIM_014.jpg
296.082	0.761	correct	incongruent	Block1	incongruent/STIM_014.jpg
299.369	1.187	correct	incongruent	Block1	incongruent/STIM_014.jpg
302.672	1.479	correct	incongruent	Block1	incongruent/STIM_015.jpg
307.484	1.226	correct	incongruent	Block1	incongruent/STIM_015.jpg
310.94	0.832	correct	incongruent	Block1	incongruent/STIM_015.jpg
314.674	1.16	correct	incongruent	Block1	incongruent/STIM_015.jpg
319.748	0.711	correct	incongruent	Block1	incongruent/STIM_015.jpg
322.762	1.536	correct	incongruent	Block1	incongruent/STIM_016.jpg
327.111	0.985	correct	incongruent	Block1	incongruent/STIM_016.jpg
331.088	0.976	correct	incongruent	Block1	incongruent/STIM_016.jpg
335.76	1.285	correct	incongruent	Block1	incongruent/STIM_016.jpg
339.593	0.672	correct	incongruent	Block1	incongruent/STIM_016.jpg
343.955	0.716	correct	incongruent	Block1	incongruent/STIM_017.jpg
347.103	1.31	correct	incongruent	Block1	incongruent/STIM_017.jpg
351.12	0.897	correct	incongruent	Block1	incongruent/STIM_017.jpg
354.02	1.093	correct	incongruent	Block1	incongruent/STIM_017.jpg
358.448	0.794	correct	incongruent	Block1	incongruent/STIM_017.jpg
361.454	0.869	correct	incongruent	Block1	incongruent/STIM_018.jpg
364.324	0.914	correct	incongruent	Block1	incongruent/STIM_018.jpg
367.649	1.236	correct	incongruent	Block1	incongruent/STIM_018.jpg
371.738	1.138	correct	incongruent	Block1	incongruent/STIM_018.jpg
375.898	0.867	correct	incongruent	Block1	incongruent/STIM_018.jpg
379.372	1.116	correct	incongruent	Block1	incongruent/STIM_019.jpg
383.51	0.912	correct	incongruent	Block1	incongruent/STIM_019.jpg
387.299	0.993	correct	incongruent	Block1	incongruent/STIM_019.jpg
390.972	1.211	correct	incongruent	Block1	incongruent/STIM_019.jpg
395.672	1.046	correct	incongruent	Block1	incongruent/STIM_019.jpg
398.98	1.271	incorrect	incongruent	Block1	incongruent/STIM_020.jpg
403.886	1.386	correct	incongruent	Block1	incongruent/STIM_020.jpg
407.276	1.285	correct	incongruent	Block1	incongruent/STIM_020.jpg
410.952	0.767	correct	incongruent	Block1	incongruent/STIM_020.jpg
414.394	1.158	correct	incongruent	Block1	incongruent/STIM_020.jpg
418.109	0.943	incorrect	incongruent	Block1	incongruent/STIM_021.jpg
422.131	1.183	correct	incongruent	Block1	incongruent/STIM_021.jpg
426.336	1.036	correct	incongruent	Block1	incongruent/STIM_021.jpg
429.719	0.824	correct	incongruent	Block1	incongruent/STIM_021.jpg
434.187	0.879	correct	incongruent	Block1	incongruent/STIM_021.jpg
437.808	1.14	correct	incongruent	Block1	incongruent/STIM_022.jpg
442.527	1.43	correct	incongruent	Block1	incongruent/STIM_022.jpg
446.699	1.349	correct	incongruent	Block1	incongruent/STIM_022.jpg
451.175	0.895	correct	incongruent	Block1	incongruent/STIM_022.jpg
454.585	0.644	correct	incongruent	Block1	incongruent/STIM_022.jpg
457.529	1.439	correct	incongruent	Block1	incongruent/STIM_023.jpg
461.197	1.056	correct	incongruent	Block1	incongruent/STIM_023.jpg
465.255	1.412	correct	incongruent	Block1	incongruent/STIM_023.jpg
468.836	0.866	correct	incongruent	Block1	incongruent/STIM_023.jpg
472.375	1.149	correct	incongruent	Block1	incongruent/STIM_023.jpg
476.631	1.433	correct	incongruent	Block1	incongruent/STIM_024.jpg
481.958	1.168	correct	incongruent	Block1	incongruent/STIM_024.jpg
486.339	0.928	correct	incongruent	Block1	incongruent/STIM_024.jpg
489.495	0.808	correct	incongruent	Block1	incongruent/STIM_024.jpg
493.354	0.899	correct	incongruent	Block1	incongruent/STIM_024.jpg
496.815	0.962	correct	incongruent	Block1	incongruent/STIM_025.jpg
499.985	1.274	correct	incongruent	Block1	incongruent/STIM_025.jpg
503.592	1.139	correct	incongruent	Block1	incongruent/STIM_025.jpg
506.686	1.23	correct	incongruent	Block1	incongruent/STIM_025.jpg
511.774	1.302	correct	incongruent	Block1	incongruent/STIM_025.jpg
516.651	1.506	correct	incongruent	Block1	incongruent/STIM_026.jpg
521.484	0.803	correct	incongruent	Block1	incongruent/STIM_026.jpg
525.467	1.421	correct	incongruent	Block1	incongruent/STIM_026.jpg
529.698	0.668	correct	incongruent	Block1	incongruent/STIM_026.jpg
532.636	0.869	correct	incongruent	Block1	incongruent/STIM_026.jpg
536.68	1.179	incorrect	incongruent	Block1	incongruent/STIM_027.jpg
540.962	0.926	correct	incongruent	Block1	incongruent/STIM_027.jpg
544.99	1.184	correct	incongruent	Block1	incongruent/STIM_027.jpg
549.516	1.214	correct	incongruent	Block1	incongruent/STIM_027.jpg
553.494	0.899	correct	incongruent	Block1	incongruent/STIM_027.jpg
556.678	1.306	incorrect	incongruent	Block1	incongruent/STIM_028.jpg
561.068	1.411	correct	incongruent	Block1	incongruent/STIM_028.jpg
565.63	1.235	correct	incongruent	Block1	incongruent/STIM_028.jpg
568.833	1.153	correct	incongruent	Block1	incongruent/STIM_028.jpg
572.577	0.659	correct	incongruent	Block1	incongruent/STIM_028.jpg
577.049	1.624	correct	incongruent	Block1	incongruent/STIM_029.jpg
581.091	0.913	incorrect	incongruent	Block1	incongruent/STIM_029.jpg
584.155	1.033	correct	incongruent	Block1	incongruent/STIM_029.jpg
588.32	0.987	correct	incongruent	Block1	incongruent/STIM_029.jpg
592.796	1.047	correct	incongruent	Block1	incongruent/STIM_029.jpg
597.707	0.828	correct	congruent	Block1	congruent/STIM_000.jpg
600.849	0.721	correct	congruent	Block1	congruent/STIM_000.jpg
604.26	0.893	correct	congruent	Block1	congruent/STIM_000.jpg
608.424	0.516	correct	congruent	Block1	congruent/STIM_000.jpg
612.257	0.535	correct	congruent	Block1	congruent/STIM_000.jpg
616.537	0.788	correct	congruent	Block1	congruent/STIM_001.jpg
619.971	0.693	correct	congruent	Block1	congruent/STIM_001.jpg
624.153	0.677	correct	congruent	Block1	congruent/STIM_001.jpg
628.404	0.463	correct	congruent	Block1	congruent/STIM_001.jpg
632.816	0.66	correct	congruent	Block1	congruent/STIM_001.jpg
637.262	0.982	correct	congruent	Block1	congruent/STIM_002.jpg
641.08	0.786	correct	congruent	Block1	congruent/STIM_002.jpg
645.838	0.862	correct	congruent	Block1	congruent/STIM_002.jpg
650.447	0.88	correct	congruent	Block1	congruent/STIM_002.jpg
654.35	0.718	correct	congruent	Block1	congruent/STIM_002.jpg
658.94	0.724	correct	congruent	Block1	congruent/STIM_003.jpg
661.735	0.837	correct	congruent	Block1	congruent/STIM_003.jpg
665.91	0.982	correct	congruent	Block1	congruent/STIM_003.jpg
669.443	0.621	correct	congruent	Block1	congruent/STIM_003.jpg
673.95	0.963	correct	congruent	Block1	congruent/STIM_003.jpg
677.133	0.574	correct	congruent	Block1	congruent/STIM_004.jpg
680.458	0.553	correct	congruent	Block1	congruent/STIM_004.jpg
684.099	0.946	incorrect	congruent	Block1	congruent/STIM_004.jpg
688.0	0.995	correct	congruent	Block1	congruent/STIM_004.jpg
690.975	0.948	correct	congruent	Block1	congruent/STIM_004.jpg
693.957	0.632	correct	congruent	Block1	congruent/STIM_005.jpg
697.931	1.027	correct	congruent	Block1	congruent/STIM_005.jpg
701.936	0.804	correct	congruent	Block1	congruent/STIM_005.jpg
705.063	0.92	correct	congruent	Block1	congruent/STIM_005.jpg
709.086	0.836	correct	congruent	Block1	congruent/STIM_005.jpg
712.085	0.516	correct	congruent	Block1	congruent/STIM_006.jpg
714.699	0.943	correct	congruent	Block1	congruent/STIM_006.jpg
718.251	0.91	correct	congruent	Block1	congruent/STIM_006.jpg
722.221	0.897	correct	congruent	Block1	congruent/STIM_006.jpg
726.769	0.838	correct	congruent	Block1	congruent/STIM_006.jpg
730.616	0.688	correct	congruent	Block1	congruent/STIM_007.jpg
734.129	0.883	correct	congruent	Block1	congruent/STIM_007.jpg
737.277	0.901	correct	congruent	Block1	congruent/STIM_007.jpg
741.902	0.729	correct	congruent	Block1	congruent/STIM_007.jpg
745.603	0.969	correct	congruent	Block1	congruent/STIM_007.jpg
750.285	0.533	incorrect	congruent	Block1	congruent/STIM_008.jpg
754.465	0.677	correct	congruent	Block1	congruent/STIM_008.jpg
757.85	0.893	correct	congruent	Block1	congruent/STIM_008.jpg
760.816	0.721	incorrect	congruent	Block1	congruent/STIM_008.jpg
764.824	0.737	correct	congruent	Block1	congruent/STIM_008.jpg
767.514	0.748	correct	congruent	Block1	congruent/STIM_009.jpg
770.213	0.745	correct	congruent	Block1	congruent/STIM_009.jpg
774.32	0.952	correct	congruent	Block1	congruent/STIM_009.jpg
777.439	0.908	correct	congruent	Block1	congruent/STIM_009.jpg
781.473	0.52	correct	congruent	Block1	congruent/STIM_009.jpg
784.807	0.685	correct	congruent	Block1	congruent/STIM_010.jpg
787.536	0.927	correct	congruent	Block1	congruent/STIM_010.jpg
790.759	0.958	correct	congruent	Block1	congruent/STIM_010.jpg
793.668	0.667	correct	congruent	Block1	congruent/STIM_010.jpg
797.331	0.735	correct	congruent	Block1	congruent/STIM_010.jpg
801.196	0.771	correct	congruent	Block1	congruent/STIM_011.jpg
804.811	0.77	correct	congruent	Block1	congruent/STIM_011.jpg
807.707	0.677	correct	congruent	Block1	congruent/STIM_011.jpg
811.085	0.84	correct	congruent	Block1	congruent/STIM_011.jpg
814.828	0.772	correct	congruent	Block1	congruent/STIM_011.jpg
817.888	0.856	correct	congruent	Block1	congruent/STIM_012.jpg
821.423	0.554	correct	congruent	Block1	congruent/STIM_012.jpg
825.215	0.639	correct	congruent	Block1	congruent/STIM_012.jpg
828.649	0.876	incorrect	congruent	Block1	congruent/STIM_012.jpg
831.939	0.913	correct	congruent	Block1	congruent/STIM_012.jpg
835.06	0.652	correct	congruent	Block1	congruent/STIM_013.jpg
838.364	0.982	correct	congruent	Block1	congruent/STIM_013.jpg
841.599	0.952	correct	congruent	Block1	congruent/STIM_013.jpg
845.304	0.941	correct	congruent	Block1	congruent/STIM_013.jpg
849.699	0.7	correct	congruent	Block1	congruent/STIM_013.jpg
853.736	0.744	correct	congruent	Block1	congruent/STIM_014.jpg
857.714	0.626	correct	congruent	Block1	congruent/STIM_014.jpg
861.892	0.598	correct	congruent	Block1	congruent/STIM_014.jpg
864.867	0.606	correct	congruent	Block1	congruent/STIM_014.jpg
868.06	0.605	correct	congruent	Block1	congruent/STIM_014.jpg
872.494	0.842	correct	congruent	Block1	congruent/STIM_015.jpg
875.393	0.771	correct	congruent	Block1	congruent/STIM_015.jpg
879.243	0.532	correct	congruent	Block1	congruent/STIM_015.jpg
883.713	0.867	correct	congruent	Block1	congruent/STIM_015.jpg
888.312	0.908	correct	congruent	Block1	congruent/STIM_015.jpg
892.686	0.724	correct	congruent	Block1	congruent/STIM_016.jpg
895.807	0.919	correct	congruent	Block1	congruent/STIM_016.jpg
900.097	0.752	correct	congruent	Block1	congruent/STIM_016.jpg
903.364	0.732	correct	congruent	Block1	congruent/STIM_016.jpg
907.545	0.532	incorrect	congruent	Block1	congruent/STIM_016.jpg
911.079	0.787	correct	congruent	Block1	congruent/STIM_017.jpg
913.797	0.535	correct	congruent	Block1	congruent/STIM_017.jpg
916.704	0.726	correct	congruent	Block1	congruent/STIM_017.jpg
921.119	0.858	incorrect	congruent	Block1	congruent/STIM_017.jpg
924.556	0.863	correct	congruent	Block1	congruent/STIM_017.jpg
928.229	0.83	correct	congruent	Block1	congruent/STIM_018.jpg
931.536	0.777	incorrect	congruent	Block1	congruent/STIM_018.jpg
936.086	0.67	correct	congruent	Block1	congruent/STIM_018.jpg
938.816	0.623	correct	congruent	Block1	congruent/STIM_018.jpg
942.286	0.623	correct	congruent	Block1	congruent/STIM_018.jpg
944.848	0.943	correct	congruent	Block1	congruent/STIM_019.jpg
948.255	0.833	correct	congruent	Block1	congruent/STIM_019.jpg
951.912	0.869	correct	congruent	Block1	congruent/STIM_019.jpg
956.125	0.477	correct	congruent	Block1	congruent/STIM_019.jpg
960.213	0.928	correct	congruent	Block1	congruent/STIM_019.jpg
963.644	0.668	correct	congruent	Block1	congruent/STIM_020.jpg
968.0	0.815	correct	congruent	Block1	congruent/STIM_020.jpg
971.706	0.888	correct	congruent	Block1	congruent/STIM_020.jpg
975.825	0.825	correct	congruent	Block1	congruent/STIM_020.jpg
979.309	0.839	correct	congruent	Block1	congruent/STIM_020.jpg
982.346	0.656	correct	congruent	Block1	congruent/STIM_021.jpg
986.102	0.953	correct	congruent	Block1	congruent/STIM_021.jpg
989.533	0.757	correct	congruent	Block1	congruent/STIM_021.jpg
993.307	0.639	correct	congruent	Block1	congruent/STIM_021.jpg
997.401	0.691	correct	congruent	Block1	congruent/STIM_021.jpg
1001.964	0.638	correct	congruent	Block1	congruent/STIM_022.jpg
1005.011	1.001	correct	congruent	Block1	congruent/STIM_022.jpg
1008.781	0.566	correct	congruent	Block1	congruent/STIM_022.jpg
1011.568	0.849	correct	congruent	Block1	congruent/STIM_022.jpg
1014.389	0.591	correct	congruent	Block1	congruent/STIM_022.jpg
1018.616	0.638	correct	congruent	Block1	congruent/STIM_023.jpg
1022.19	0.871	correct	congruent	Block1	congruent/STIM_023.jpg
1025.691	0.761	correct	congruent	Block1	congruent/STIM_023.jpg
1030.048	0.664	correct	congruent	Block1	congruent/STIM_023.jpg
1034.572	0.831	correct	congruent	Block1	congruent/STIM_023.jpg
1038.076	0.931	incorrect	congruent	Block1	congruent/STIM_024.jpg
1042.14	0.841	correct	congruent	Block1	congruent/STIM_024.jpg
1045.334	0.753	correct	congruent	Block1	congruent/STIM_024.jpg
1049.725	0.652	correct	congruent	Block1	congruent/STIM_024.jpg
1053.413	0.876	correct	congruent	Block1	congruent/STIM_024.jpg
1057.454	0.838	correct	congruent	Block1	congruent/STIM_025.jpg
1061.64	0.764	correct	congruent	Block1	congruent/STIM_025.jpg
1066.294	0.596	correct	congruent	Block1	congruent/STIM_025.jpg
1070.474	0.748	correct	congruent	Block1	congruent/STIM_025.jpg
1073.63	0.929	correct	congruent	Block1	congruent/STIM_025.jpg
1078.433	0.784	correct	congruent	Block1	congruent/STIM_026.jpg
1081.521	0.817	correct	congruent	Block1	congruent/STIM_026.jpg
1085.814	0.612	correct	congruent	Block1	congruent/STIM_026.jpg
1089.162	0.759	correct	congruent	Block1	congruent/STIM_026.jpg
1093.711	0.819	correct	congruent	Block1	congruent/STIM_026.jpg
1096.523	0.966	correct	congruent	Block1	congruent/STIM_027.jpg
1099.995	0.794	correct	congruent	Block1	congruent/STIM_027.jpg
1103.596	0.757	correct	congruent	Block1	congruent/STIM_027.jpg
1108.254	0.896	correct	congruent	Block1	congruent/STIM_027.jpg
1111.321	0.783	incorrect	congruent	Block1	congruent/STIM_027.jpg
1115.993	0.616	correct	congruent	Block1	congruent/STIM_028.jpg
1120.475	0.671	correct	congruent	Block1	congruent/STIM_028.jpg
1124.475	1.015	correct	congruent	Block1	congruent/STIM_028.jpg
1129.266	0.584	correct	congruent	Block1	congruent/STIM_028.jpg
1133.193	0.799	correct	congruent	Block1	congruent/STIM_028.jpg
1137.138	0.572	correct	congruent	Block1	congruent/STIM_029.jpg
1141.114	0.762	correct	congruent	Block1	congruent/STIM_029.jpg
1145.54	0.899	correct	congruent	Block1	congruent/STIM_029.jpg
1148.52	0.937	correct	congruent	Block1	congruent/STIM_029.jpg
1153.018	0.605	correct	congruent	Block1	congruent/STIM_029.jpg
1156.19	1.275	correct	incongruent	Block2	incongruent/STIM_000.jpg
1161.154	1.096	correct	incongruent	Block2	incongruent/STIM_000.jpg
1165.674	0.696	correct	incongruent	Block2	incongruent/STIM_000.jpg
1168.831	0.841	correct	incongruent	Block2	incongruent/STIM_000.jpg
1172.725	0.712	correct	incongruent	Block2	incongruent/STIM_000.jpg
1175.972	0.615	correct	incongruent	Block2	incongruent/STIM_001.jpg
1179.723	0.835	correct	incongruent	Block2	incongruent/STIM_001.jpg
1183.19	0.693	correct	incongruent	Block2	incongruent/STIM_001.jpg
1185.981	0.738	correct	incongruent	Block2	incongruent/STIM_001.jpg
1189.481	0.777	correct	incongruent	Block2	incongruent/STIM_001.jpg
1193.845	0.86	correct	incongruent	Block2	incongruent/STIM_002.jpg
1198.39	1.076	correct	incongruent	Block2	incongruent/STIM_002.jpg
1202.33	0.7	correct	incongruent	Block2	incongruent/STIM_002.jpg
1206.719	0.792	correct	incongruent	Block2	incongruent/STIM_002.jpg
1210.486	0.683	correct	incongruent	Block2	incongruent/STIM_002.jpg
1214.392	1.08	correct	incongruent	Block2	incongruent/STIM_003.jpg
1218.82	0.778	correct	incongruent	Block2	incongruent/STIM_003.jpg
1222.489	0.666	correct	incongruent	Block2	incongruent/STIM_003.jpg
1226.153	0.666	correct	incongruent	Block2	incongruent/STIM_003.jpg
1230.229	0.836	correct	incongruent	Block2	incongruent/STIM_003.jpg
1234.479	1.225	correct	incongruent	Block2	incongruent/STIM_004.jpg
1239.394	1.022	correct	incongruent	Block2	incongruent/STIM_004.jpg
1244.202	0.982	incorrect	incongruent	Block2	incongruent/STIM_004.jpg
1248.062	0.599	correct	incongruent	Block2	incongruent/STIM_004.jpg
1252.104	0.538	correct	incongruent	Block2	incongruent/STIM_004.jpg
1256.55	0.844	correct	incongruent	Block2	incongruent/STIM_005.jpg
1260.686	0.693	correct	incongruent	Block2	incongruent/STIM_005.jpg
1263.798	1.029	correct	incongruent	Block2	incongruent/STIM_005.jpg
1266.914	0.646	correct	incongruent	Block2	incongruent/STIM_005.jpg
1271.32	0.664	correct	incongruent	Block2	incongruent/STIM_005.jpg
1275.561	1.322	correct	incongruent	Block2	incongruent/STIM_006.jpg
1279.613	1.254	correct	incongruent	Block2	incongruent/STIM_006.jpg
1283.777	1.116	correct	incongruent	Block2	incongruent/STIM_006.jpg
1287.434	1.154	correct	incongruent	Block2	incongruent/STIM_006.jpg
1290.924	0.746	correct	incongruent	Block2	incongruent/STIM_006.jpg
1294.552	0.78	correct	incongruent	Block2	incongruent/STIM_007.jpg
1298.239	0.641	correct	incongruent	Block2	incongruent/STIM_007.jpg
1301.818	0.882	correct	incongruent	Block2	incongruent/STIM_007.jpg
1305.133	0.632	correct	incongruent	Block2	incongruent/STIM_007.jpg
1309.057	0.703	correct	incongruent	Block2	incongruent/STIM_007.jpg
1312.085	0.957	correct	incongruent	Block2	incongruent/STIM_008.jpg
1316.953	1.183	correct	incongruent	Block2	incongruent/STIM_008.jpg
1321.083	0.652	correct	incongruent	Block2	incongruent/STIM_008.jpg
1323.725	0.915	correct	incongruent	Block2	incongruent/STIM_008.jpg
1327.738	0.722	correct	incongruent	Block2	incongruent/STIM_008.jpg
1330.446	0.879	correct	incongruent	Block2	incongruent/STIM_009.jpg
1333.35	0.946	correct	incongruent	Block2	incongruent/STIM_009.jpg
1337.662	0.599	correct	incongruent	Block2	incongruent/STIM_009.jpg
1341.615	0.604	correct	incongruent	Block2	incongruent/STIM_009.jpg
1346.025	1.046	correct	incongruent	Block2	incongruent/STIM_009.jpg
1350.816	0.967	correct	incongruent	Block2	incongruent/STIM_010.jpg
1354.584	0.882	correct	incongruent	Block2	incongruent/STIM_010.jpg
1358.546	0.795	correct	incongruent	Block2	incongruent/STIM_010.jpg
1362.959	0.682	correct	incongruent	Block2	incongruent/STIM_010.jpg
1366.46	0.628	correct	incongruent	Block2	incongruent/STIM_010.jpg
1369.371	0.92	correct	incongruent	Block2	incongruent/STIM_011.jpg
1373.404	0.886	correct	incongruent	Block2	incongruent/STIM_011.jpg
1376.328	1.199	correct	incongruent	Block2	incongruent/STIM_011.jpg
1379.823	0.988	correct	incongruent	Block2	incongruent/STIM_011.jpg
1383.461	1.09	correct	incongruent	Block2	incongruent/STIM_011.jpg
1386.761	1.27	correct	incongruent	Block2	incongruent/STIM_012.jpg
1390.621	1.209	correct	incongruent	Block2	incongruent/STIM_012.jpg
1394.588	0.889	correct	incongruent	Block2	incongruent/STIM_012.jpg
1399.011	0.839	correct	incongruent	Block2	incongruent/STIM_012.jpg
1401.82	0.921	correct	incongruent	Block2	incongruent/STIM_012.jpg
1406.165	1.245	correct	incongruent	Block2	incongruent/STIM_013.jpg
1410.452	0.784	correct	incongruent	Block2	incongruent/STIM_013.jpg
1414.382	0.752	correct	incongruent	Block2	incongruent/STIM_013.jpg
1417.983	0.8	correct	incongruent	Block2	incongruent/STIM_013.jpg
1420.897	0.765	correct	incongruent	Block2	incongruent/STIM_013.jpg
1425.485	1.244	correct	incongruent	Block2	incongruent/STIM_014.jpg
1429.879	0.68	correct	incongruent	Block2	incongruent/STIM_014.jpg
1434.117	0.63	correct	incongruent	Block2	incongruent/STIM_014.jpg
1438.452	0.838	correct	incongruent	Block2	incongruent/STIM_014.jpg
1441.72	0.561	correct	incongruent	Block2	incongruent/STIM_014.jpg
1445.133	0.815	correct	incongruent	Block2	incongruent/STIM_015.jpg
1448.811	0.666	correct	incongruent	Block2	incongruent/STIM_015.jpg
1452.941	0.656	correct	incongruent	Block2	incongruent/STIM_015.jpg
1456.146	0.613	correct	incongruent	Block2	incongruent/STIM_015.jpg
1458.855	1.183	correct	incongruent	Block2	incongruent/STIM_015.jpg
1462.798	1.392	correct	incongruent	Block2	incongruent/STIM_016.jpg
1468.02	0.944	correct	incongruent	Block2	incongruent/STIM_016.jpg
1471.72	0.99	incorrect	incongruent	Block2	incongruent/STIM_016.jpg
1475.138	0.79	correct	incongruent	Block2	incongruent/STIM_016.jpg
1479.367	0.779	correct	incongruent	Block2	incongruent/STIM_016.jpg
1482.444	1.12	correct	incongruent	Block2	incongruent/STIM_017.jpg
1485.607	0.689	correct	incongruent	Block2	incongruent/STIM_017.jpg
1488.671	0.727	incorrect	incongruent	Block2	incongruent/STIM_017.jpg
1491.385	0.89	correct	incongruent	Block2	incongruent/STIM_017.jpg
1494.515	0.832	correct	incongruent	Block2	incongruent/STIM_017.jpg
1498.024	1.026	correct	incongruent	Block2	incongruent/STIM_018.jpg
1501.776	0.698	correct	incongruent	Block2	incongruent/STIM_018.jpg
1504.459	1.082	correct	incongruent	Block2	incongruent/STIM_018.jpg
1508.633	0.758	correct	incongruent	Block2	incongruent/STIM_018.jpg
1512.422	1.107	correct	incongruent	Block2	incongruent/STIM_018.jpg
1515.677	1.111	correct	incongruent	Block2	incongruent/STIM_019.jpg
1519.314	1.251	correct	incongruent	Block2	incongruent/STIM_019.jpg
1524.203	1.085	correct	incongruent	Block2	incongruent/STIM_019.jpg
1528.292	1.04	correct	incongruent	Block2	incongruent/STIM_019.jpg
1531.324	1.074	correct	incongruent	Block2	incongruent/STIM_019.jpg
1534.907	0.666	correct	incongruent	Block2	incongruent/STIM_020.jpg
1538.838	1.025	correct	incongruent	Block2	incongruent/STIM_020.jpg
1542.769	1.021	correct	incongruent	Block2	incongruent/STIM_020.jpg
1545.827	0.564	correct	incongruent	Block2	incongruent/STIM_020.jpg
1548.99	0.721	correct	incongruent	Block2	incongruent/STIM_020.jpg
1553.345	1.331	correct	incongruent	Block2	incongruent/STIM_021.jpg
1557.407	1.1	correct	incongruent	Block2	incongruent/STIM_021.jpg
1561.588	0.62	correct	incongruent	Block2	incongruent/STIM_021.jpg
1565.283	0.729	correct	incongruent	Block2	incongruent/STIM_021.jpg
1569.506	0.73	correct	incongruent	Block2	incongruent/STIM_021.jpg
1573.711	0.73	correct	incongruent	Block2	incongruent/STIM_022.jpg
1577.098	1.208	correct	incongruent	Block2	incongruent/STIM_022.jpg
1580.416	0.922	correct	incongruent	Block2	incongruent/STIM_022.jpg
1584.544	1.022	correct	incongruent	Block2	incongruent/STIM_022.jpg
1588.513	0.454	correct	incongruent	Block2	incongruent/STIM_022.jpg
1592.407	1.237	correct	incongruent	Block2	incongruent/STIM_023.jpg
1596.691	0.784	correct	incongruent	Block2	incongruent/STIM_023.jpg
1601.136	1.136	incorrect	incongruent	Block2	incongruent/STIM_023.jpg
1605.276	0.696	correct	incongruent	Block2	incongruent/STIM_023.jpg
1609.315	0.503	correct	incongruent	Block2	incongruent/STIM_023.jpg
1613.22	0.792	correct	incongruent	Block2	incongruent/STIM_024.jpg
1617.783	1.071	correct	incongruent	Block2	incongruent/STIM_024.jpg
1620.813	0.687	correct	incongruent	Block2	incongruent/STIM_024.jpg
1624.325	0.645	correct	incongruent	Block2	incongruent/STIM_024.jpg
1628.471	1.027	correct	incongruent	Block2	incongruent/STIM_024.jpg
1631.988	1.05	correct	incongruent	Block2	incongruent/STIM_025.jpg
1635.618	0.653	correct	incongruent	Block2	incongruent/STIM_025.jpg
1639.487	0.985	correct	incongruent	Block2	incongruent/STIM_025.jpg
1642.597	0.662	correct	incongruent	Block2	incongruent/STIM_025.jpg
1645.692	0.879	correct	incongruent	Block2	incongruent/STIM_025.jpg
1649.735	1.206	correct	incongruent	Block2	incongruent/STIM_026.jpg
1653.884	1.344	correct	incongruent	Block2	incongruent/STIM_026.jpg
1657.517	0.671	correct	incongruent	Block2	incongruent/STIM_026.jpg
1661.398	0.708	correct	incongruent	Block2	incongruent/STIM_026.jpg
1664.254	0.673	correct	incongruent	Block2	incongruent/STIM_026.jpg
1668.255	1.247	correct	incongruent	Block2	incongruent/STIM_027.jpg
1672.991	1.05	correct	incongruent	Block2	incongruent/STIM_027.jpg
1677.984	0.746	correct	incongruent	Block2	incongruent/STIM_027.jpg
1682.548	1.175	correct	incongruent	Block2	incongruent/STIM_027.jpg
1686.884	0.749	correct	incongruent	Block2	incongruent/STIM_027.jpg
1690.041	1.067	correct	incongruent	Block2	incongruent/STIM_028.jpg
1693.315	0.893	correct	incongruent	Block2	incongruent/STIM_028.jpg
1696.829	0.787	correct	incongruent	Block2	incongruent/STIM_028.jpg
1700.634	1.068	correct	incongruent	Block2	incongruent/STIM_028.jpg
1704.766	0.85	correct	incongruent	Block2	incongruent/STIM_028.jpg
1709.235	0.935	correct	incongruent	Block2	incongruent/STIM_029.jpg
1713.051	1.056	correct	incongruent	Block2	incongruent/STIM_029.jpg
1717.115	1.177	correct	incongruent	Block2	incongruent/STIM_029.jpg
1721.848	0.517	correct	incongruent	Block2	incongruent/STIM_029.jpg
1726.027	0.754	correct	incongruent	Block2	incongruent/STIM_029.jpg
1729.713	0.933	correct	congruent	Block2	congruent/STIM_000.jpg
1734.045	0.691	correct	congruent	Block2	congruent/STIM_000.jpg
1737.054	0.593	incorrect	congruent	Block2	congruent/STIM_000.jpg
1739.962	0.931	correct	congruent	Block2	congruent/STIM_000.jpg
1744.128	0.842	correct	congruent	Block2	congruent/STIM_000.jpg
1747.323	0.573	correct	congruent	Block2	congruent/STIM_001.jpg
1751.111	0.911	correct	congruent	Block2	congruent/STIM_001.jpg
1754.463	0.974	correct	congruent	Block2	congruent/STIM_001.jpg
1757.525	0.904	correct	congruent	Block2	congruent/STIM_001.jpg
1760.871	0.647	incorrect	congruent	Block2	congruent/STIM_001.jpg
1765.167	0.898	correct	congruent	Block2	congruent/STIM_002.jpg
1769.915	0.824	correct	congruent	Block2	congruent/STIM_002.jpg
1773.508	0.874	correct	congruent	Block2	congruent/STIM_002.jpg
1777.663	0.538	correct	congruent	Block2	congruent/STIM_002.jpg
1781.325	0.726	correct	congruent	Block2	congruent/STIM_002.jpg
1784.103	0.743	correct	congruent	Block2	congruent/STIM_003.jpg
1788.372	0.952	correct	congruent	Block2	congruent/STIM_003.jpg
1791.709	0.564	correct	congruent	Block2	congruent/STIM_003.jpg
1794.872	0.738	correct	congruent	Block2	congruent/STIM_003.jpg
1798.379	0.9	correct	congruent	Block2	congruent/STIM_003.jpg
1801.494	0.764	correct	congruent	Block2	congruent/STIM_004.jpg
1805.307	0.621	correct	congruent	Block2	congruent/STIM_004.jpg
1808.029	0.73	correct	congruent	Block2	congruent/STIM_004.jpg
1811.927	0.532	correct	congruent	Block2	congruent/STIM_004.jpg
1816.025	1.005	correct	congruent	Block2	congruent/STIM_004.jpg
1818.974	0.621	correct	congruent	Block2	congruent/STIM_005.jpg
1821.766	0.813	correct	congruent	Block2	congruent/STIM_005.jpg
1825.212	0.901	correct	congruent	Block2	congruent/STIM_005.jpg
1828.216	0.823	correct	congruent	Block2	congruent/STIM_005.jpg
1832.239	0.637	correct	congruent	Block2	congruent/STIM_005.jpg
1834.986	1.023	correct	congruent	Block2	congruent/STIM_006.jpg
1839.386	0.598	correct	congruent	Block2	congruent/STIM_006.jpg
1842.866	0.774	correct	congruent	Block2	congruent/STIM_006.jpg
1846.021	0.653	correct	congruent	Block2	congruent/STIM_006.jpg
1850.2	0.626	correct	congruent	Block2	congruent/STIM_006.jpg
1853.402	0.954	correct	congruent	Block2	congruent/STIM_007.jpg
1856.642	0.761	correct	congruent	Block2	congruent/STIM_007.jpg
1860.299	0.57	correct	congruent	Block2	congruent/STIM_007.jpg
1863.233	0.784	correct	congruent	Block2	congruent/STIM_007.jpg
1866.152	0.755	correct	congruent	Block2	congruent/STIM_007.jpg
1869.884	0.857	correct	congruent	Block2	congruent/STIM_008.jpg
1874.375	0.716	correct	congruent	Block2	congruent/STIM_008.jpg
1878.619	0.623	correct	congruent	Block2	congruent/STIM_008.jpg
1881.497	0.89	correct	congruent	Block2	congruent/STIM_008.jpg
1885.618	0.817	correct	congruent	Block2	congruent/STIM_008.jpg
1889.872	0.844	correct	congruent	Block2	congruent/STIM_009.jpg
1894.118	0.801	correct	congruent	Block2	congruent/STIM_009.jpg
1897.984	0.524	correct	congruent	Block2	congruent/STIM_009.jpg
1900.965	0.871	correct	congruent	Block2	congruent/STIM_009.jpg
1905.074	0.806	correct	congruent	Block2	congruent/STIM_009.jpg
1908.732	0.722	correct	congruent	Block2	congruent/STIM_010.jpg
1911.497	0.826	correct	congruent	Block2	congruent/STIM_010.jpg
1915.536	0.738	correct	congruent	Block2	congruent/STIM_010.jpg
1920.024	0.624	correct	congruent	Block2	congruent/STIM_010.jpg
1923.986	0.518	correct	congruent	Block2	congruent/STIM_010.jpg
1927.259	0.794	correct	congruent	Block2	congruent/STIM_011.jpg
1931.282	0.76	correct	congruent	Block2	congruent/STIM_011.jpg
1935.915	0.754	correct	congruent	Block2	congruent/STIM_011.jpg
1940.093	0.581	correct	congruent	Block2	congruent/STIM_011.jpg
1942.689	0.862	correct	congruent	Block2	congruent/STIM_011.jpg
1945.534	0.747	correct	congruent	Block2	congruent/STIM_012.jpg
1948.721	0.772	correct	congruent	Block2	congruent/STIM_012.jpg
1952.317	0.643	correct	congruent	Block2	congruent/STIM_012.jpg
1954.97	0.824	correct	congruent	Block2	congruent/STIM_012.jpg
1959.219	0.578	correct	congruent	Block2	congruent/STIM_012.jpg
1963.724	0.622	correct	congruent	Block2	congruent/STIM_013.jpg
1966.825	0.991	correct	congruent	Block2	congruent/STIM_013.jpg
1971.286	0.657	correct	congruent	Block2	congruent/STIM_013.jpg
1975.7	0.786	correct	congruent	Block2	congruent/STIM_013.jpg
1978.945	0.858	correct	congruent	Block2	congruent/STIM_013.jpg
1982.327	0.845	correct	congruent	Block2	congruent/STIM_014.jpg
1985.123	0.657	correct	congruent	Block2	congruent/STIM_014.jpg
1988.464	0.75	incorrect	congruent	Block2	congruent/STIM_014.jpg
1991.389	0.848	correct	congruent	Block2	congruent/STIM_014.jpg
1995.242	0.62	correct	congruent	Block2	congruent/STIM_014.jpg
1998.045	0.717	correct	congruent	Block2	congruent/STIM_015.jpg
2002.146	0.673	correct	congruent	Block2	congruent/STIM_015.jpg
2005.385	0.698	correct	congruent	Block2	congruent/STIM_015.jpg
2008.477	0.634	correct	congruent	Block2	congruent/STIM_015.jpg
2012.446	0.948	correct	congruent	Block2	congruent/STIM_015.jpg
2015.354	0.986	correct	congruent	Block2	congruent/STIM_016.jpg
2019.082	0.685	correct	congruent	Block2	congruent/STIM_016.jpg
2022.469	0.732	correct	congruent	Block2	congruent/STIM_016.jpg
2026.161	0.823	incorrect	congruent	Block2	congruent/STIM_016.jpg
2029.416	0.651	correct	congruent	Block2	congruent/STIM_016.jpg
2032.272	0.93	correct	congruent	Block2	congruent/STIM_017.jpg
2036.823	0.64	incorrect	congruent	Block2	congruent/STIM_017.jpg
2039.941	0.758	correct	congruent	Block2	congruent/STIM_017.jpg
2042.669	0.531	correct	congruent	Block2	congruent/STIM_017.jpg
2047.078	0.838	correct	congruent	Block2	congruent/STIM_017.jpg
2049.907	0.879	correct	congruent	Block2	congruent/STIM_018.jpg
2053.404	0.705	correct	congruent	Block2	congruent/STIM_018.jpg
2057.241	0.914	correct	congruent	Block2	congruent/STIM_018.jpg
2061.346	0.922	correct	congruent	Block2	congruent/STIM_018.jpg
2065.354	0.685	correct	congruent	Block2	congruent/STIM_018.jpg
2068.475	0.933	correct	congruent	Block2	congruent/STIM_019.jpg
2071.962	0.656	correct	congruent	Block2	congruent/STIM_019.jpg
2074.836	0.753	correct	congruent	Block2	congruent/STIM_019.jpg
2078.285	0.565	correct	congruent	Block2	congruent/STIM_019.jpg
2081.515	0.699	correct	congruent	Block2	congruent/STIM_019.jpg
2084.435	0.912	correct	congruent	Block2	congruent/STIM_020.jpg
2087.922	0.786	correct	congruent	Block2	congruent/STIM_020.jpg
2091.794	0.849	incorrect	congruent	Block2	congruent/STIM_020.jpg
2094.967	0.779	correct	congruent	Block2	congruent/STIM_020.jpg
2097.813	0.804	correct	congruent	Block2	congruent/STIM_020.jpg
2101.0	0.605	correct	congruent	Block2	congruent/STIM_021.jpg
2104.237	0.696	correct	congruent	Block2	congruent/STIM_021.jpg
2108.623	0.66	correct	congruent	Block2	congruent/STIM_021.jpg
2111.555	0.896	correct	congruent	Block2	congruent/STIM_021.jpg
2114.974	0.712	correct	congruent	Block2	congruent/STIM_021.jpg
2117.697	0.796	correct	congruent	Block2	congruent/STIM_022.jpg
2121.145	0.696	correct	congruent	Block2	congruent/STIM_022.jpg
2125.692	0.618	correct	congruent	Block2	congruent/STIM_022.jpg
2130.118	0.826	correct	congruent	Block2	congruent/STIM_022.jpg
2133.077	0.897	correct	congruent	Block2	congruent/STIM_022.jpg
2136.165	0.713	correct	congruent	Block2	congruent/STIM_023.jpg
2139.766	0.983	correct	congruent	Block2	congruent/STIM_023.jpg
2143.372	0.528	incorrect	congruent	Block2	congruent/STIM_023.jpg
2146.624	0.918	correct	congruent	Block2	congruent/STIM_023.jpg
2151.13	1.046	correct	congruent	Block2	congruent/STIM_023.jpg
2154.34	0.865	correct	congruent	Block2	congruent/STIM_024.jpg
2157.383	0.895	correct	congruent	Block2	congruent/STIM_024.jpg
2160.565	0.889	correct	congruent	Block2	congruent/STIM_024.jpg
2165.096	0.738	correct	congruent	Block2	congruent/STIM_024.jpg
2169.276	0.711	correct	congruent	Block2	congruent/STIM_024.jpg
2173.414	0.828	correct	congruent	Block2	congruent/STIM_025.jpg
2176.673	0.598	correct	congruent	Block2	congruent/STIM_025.jpg
2179.592	0.78	correct	congruent	Block2	congruent/STIM_025.jpg
2183.637	0.618	correct	congruent	Block2	congruent/STIM_025.jpg
2186.73	0.784	correct	congruent	Block2	congruent/STIM_025.jpg
2191.195	0.711	correct	congruent	Block2	congruent/STIM_026.jpg
2194.979	0.934	correct	congruent	Block2	congruent/STIM_026.jpg
2199.571	0.569	correct	congruent	Block2	congruent/STIM_026.jpg
2203.71	0.828	correct	congruent	Block2	congruent/STIM_026.jpg
2208.13	0.817	correct	congruent	Block2	congruent/STIM_026.jpg
2212.924	0.976	incorrect	congruent	Block2	congruent/STIM_027.jpg
2216.152	0.776	correct	congruent	Block2	congruent/STIM_027.jpg
2219.379	0.858	correct	congruent	Block2	congruent/STIM_027.jpg
2222.794	0.616	correct	congruent	Block2	congruent/STIM_027.jpg
2226.823	0.789	correct	congruent	Block2	congruent/STIM_027.jpg
2230.126	0.939	correct	congruent	Block2	congruent/STIM_028.jpg
2234.294	0.919	correct	congruent	Block2	congruent/STIM_028.jpg
2238.12	0.569	correct	congruent	Block2	congruent/STIM_028.jpg
2240.775	0.761	correct	congruent	Block2	congruent/STIM_028.jpg
2244.547	0.894	correct	congruent	Block2	congruent/STIM_028.jpg
2248.989	0.62	correct	congruent	Block2	congruent/STIM_029.jpg
2253.468	0.986	correct	congruent	Block2	congruent/STIM_029.jpg
2256.863	0.685	correct	congruent	Block2	congruent/STIM_029.jpg
2261.239	0.843	correct	congruent	Block2	congruent/STIM_029.jpg
2264.949	0.902	correct	congruent	Block2	congruent/STIM_029.jpg
2269.731	1.071	correct	incongruent	Block3	incongruent/STIM_000.jpg
2274.452	0.563	correct	incongruent	Block3	incongruent/STIM_000.jpg
2278.844	1.058	correct	incongruent	Block3	incongruent/STIM_000.jpg
2283.591	0.653	correct	incongruent	Block3	incongruent/STIM_000.jpg
2286.742	0.731	correct	incongruent	Block3	incongruent/STIM_000.jpg
2290.935	1.115	correct	incongruent	Block3	incongruent/STIM_001.jpg
2295.72	0.589	correct	incongruent	Block3	incongruent/STIM_001.jpg
2299.275	0.561	correct	incongruent	Block3	incongruent/STIM_001.jpg
2302.597	1.02	correct	incongruent	Block3	incongruent/STIM_001.jpg
2305.916	0.689	correct	incongruent	Block3	incongruent/STIM_001.jpg
2309.586	0.832	incorrect	incongruent	Block3	incongruent/STIM_002.jpg
2312.465	1.092	correct	incongruent	Block3	incongruent/STIM_002.jpg
2316.176	0.56	correct	incongruent	Block3	incongruent/STIM_002.jpg
2320.005	1.146	correct	incongruent	Block3	incongruent/STIM_002.jpg
2324.642	0.645	correct	incongruent	Block3	incongruent/STIM_002.jpg
2327.568	1.095	correct	incongruent	Block3	incongruent/STIM_003.jpg
2331.507	0.559	correct	incongruent	Block3	incongruent/STIM_003.jpg
2334.809	0.784	correct	incongruent	Block3	incongruent/STIM_003.jpg
2337.729	0.842	correct	incongruent	Block3	incongruent/STIM_003.jpg
2340.657	0.913	correct	incongruent	Block3	incongruent/STIM_003.jpg
2343.71	1.022	correct	incongruent	Block3	incongruent/STIM_004.jpg
2346.833	1.068	correct	incongruent	Block3	incongruent/STIM_004.jpg
2350.785	0.586	correct	incongruent	Block3	incongruent/STIM_004.jpg
2354.953	0.77	correct	incongruent	Block3	incongruent/STIM_004.jpg
2357.847	0.578	correct	incongruent	Block3	incongruent/STIM_004.jpg
2361.977	0.901	correct	incongruent	Block3	incongruent/STIM_005.jpg
2365.087	0.933	correct	incongruent	Block3	incongruent/STIM_005.jpg
2368.464	0.788	correct	incongruent	Block3	incongruent/STIM_005.jpg
2371.897	0.541	correct	incongruent	Block3	incongruent/STIM_005.jpg
2374.44	1.06	correct	incongruent	Block3	incongruent/STIM_005.jpg
2378.771	0.86	correct	incongruent	Block3	incongruent/STIM_006.jpg
2383.103	0.76	correct	incongruent	Block3	incongruent/STIM_006.jpg
2386.285	0.924	correct	incongruent	Block3	incongruent/STIM_006.jpg
2389.52	0.932	correct	incongruent	Block3	incongruent/STIM_006.jpg
2392.556	1.062	correct	incongruent	Block3	incongruent/STIM_006.jpg
2397.06	1.171	correct	incongruent	Block3	incongruent/STIM_007.jpg
2400.947	1.059	correct	incongruent	Block3	incongruent/STIM_007.jpg
2404.235	0.468	correct	incongruent	Block3	incongruent/STIM_007.jpg
2407.547	1.082	correct	incongruent	Block3	incongruent/STIM_007.jpg
2411.33	0.775	incorrect	incongruent	Block3	incongruent/STIM_007.jpg
2414.778	0.715	correct	incongruent	Block3	incongruent/STIM_008.jpg
2418.619	0.47	correct	incongruent	Block3	incongruent/STIM_008.jpg
2421.888	0.747	correct	incongruent	Block3	incongruent/STIM_008.jpg
2426.52	0.611	correct	incongruent	Block3	incongruent/STIM_008.jpg
2430.282	0.745	correct	incongruent	Block3	incongruent/STIM_008.jpg
2434.441	0.567	correct	incongruent	Block3	incongruent/STIM_009.jpg
2437.296	1.074	correct	incongruent	Block3	incongruent/STIM_009.jpg
2440.332	0.95	correct	incongruent	Block3	incongruent/STIM_009.jpg
2443.675	0.643	correct	incongruent	Block3	incongruent/STIM_009.jpg
2446.971	1.057	correct	incongruent	Block3	incongruent/STIM_009.jpg
2451.776	0.792	correct	incongruent	Block3	incongruent/STIM_010.jpg
2455.773	0.956	correct	incongruent	Block3	incongruent/STIM_010.jpg
2459.723	0.965	correct	incongruent	Block3	incongruent/STIM_010.jpg
2463.506	0.579	correct	incongruent	Block3	incongruent/STIM_010.jpg
2467.565	0.9	correct	incongruent	Block3	incongruent/STIM_010.jpg
2472.281	1.09	correct	incongruent	Block3	incongruent/STIM_011.jpg
2477.169	1.05	correct	incongruent	Block3	incongruent/STIM_011.jpg
2481.417	0.864	correct	incongruent	Block3	incongruent/STIM_011.jpg
2484.387	0.722	correct	incongruent	Block3	incongruent/STIM_011.jpg
2487.28	1.054	correct	incongruent	Block3	incongruent/STIM_011.jpg
2491.048	1.135	correct	incongruent	Block3	incongruent/STIM_012.jpg
2494.86	0.895	correct	incongruent	Block3	incongruent/STIM_012.jpg
2498.765	0.952	correct	incongruent	Block3	incongruent/STIM_012.jpg
2502.364	0.728	correct	incongruent	Block3	incongruent/STIM_012.jpg
2506.442	1.156	correct	incongruent	Block3	incongruent/STIM_012.jpg
2511.442	0.726	correct	incongruent	Block3	incongruent/STIM_013.jpg
2515.987	1.079	correct	incongruent	Block3	incongruent/STIM_013.jpg
2519.336	0.497	correct	incongruent	Block3	incongruent/STIM_013.jpg
2522.717	0.758	correct	incongruent	Block3	incongruent/STIM_013.jpg
2526.439	0.945	correct	incongruent	Block3	incongruent/STIM_013.jpg
2530.391	1.093	correct	incongruent	Block3	incongruent/STIM_014.jpg
2534.018	0.891	correct	incongruent	Block3	incongruent/STIM_014.jpg
2538.128	1.247	correct	incongruent	Block3	incongruent/STIM_014.jpg
2543.108	0.936	correct	incongruent	Block3	incongruent/STIM_014.jpg
2547.288	0.512	correct	incongruent	Block3	incongruent/STIM_014.jpg
2551.412	0.624	correct	incongruent	Block3	incongruent/STIM_015.jpg
2556.032	0.511	correct	incongruent	Block3	incongruent/STIM_015.jpg
2559.743	0.761	correct	incongruent	Block3	incongruent/STIM_015.jpg
2563.931	0.792	incorrect	incongruent	Block3	incongruent/STIM_015.jpg
2567.371	0.559	correct	incongruent	Block3	incongruent/STIM_015.jpg
2571.373	0.832	correct	incongruent	Block3	incongruent/STIM_016.jpg
2575.022	1.08	correct	incongruent	Block3	incongruent/STIM_016.jpg
2579.855	0.647	correct	incongruent	Block3	incongruent/STIM_016.jpg
2582.561	0.717	correct	incongruent	Block3	incongruent/STIM_016.jpg
2587.149	0.59	correct	incongruent	Block3	incongruent/STIM_016.jpg
2591.428	0.779	correct	incongruent	Block3	incongruent/STIM_017.jpg
2595.565	1.063	correct	incongruent	Block3	incongruent/STIM_017.jpg
2599.149	0.855	correct	incongruent	Block3	incongruent/STIM_017.jpg
2603.719	0.714	correct	incongruent	Block3	incongruent/STIM_017.jpg
2608.164	1.148	correct	incongruent	Block3	incongruent/STIM_017.jpg
2611.652	0.746	correct	incongruent	Block3	incongruent/STIM_018.jpg
2614.451	0.543	incorrect	incongruent	Block3	incongruent/STIM_018.jpg
2617.155	0.975	correct	incongruent	Block3	incongruent/STIM_018.jpg
2620.7	0.632	correct	incongruent	Block3	incongruent/STIM_018.jpg
2624.475	0.574	correct	incongruent	Block3	incongruent/STIM_018.jpg
2627.032	0.942	correct	incongruent	Block3	incongruent/STIM_019.jpg
2631.687	0.812	correct	incongruent	Block3	incongruent/STIM_019.jpg
2635.618	1.01	correct	incongruent	Block3	incongruent/STIM_019.jpg
2640.029	0.73	correct	incongruent	Block3	incongruent/STIM_019.jpg
2644.714	0.677	correct	incongruent	Block3	incongruent/STIM_019.jpg
2647.888	0.89	correct	incongruent	Block3	incongruent/STIM_020.jpg
2652.633	0.826	correct	incongruent	Block3	incongruent/STIM_020.jpg
2655.443	0.53	correct	incongruent	Block3	incongruent/STIM_020.jpg
2658.454	1.136	correct	incongruent	Block3	incongruent/STIM_020.jpg
2661.766	0.628	correct	incongruent	Block3	incongruent/STIM_020.jpg
2665.606	0.748	correct	incongruent	Block3	incongruent/STIM_021.jpg
2668.768	0.757	correct	incongruent	Block3	incongruent/STIM_021.jpg
2673.131	0.468	correct	incongruent	Block3	incongruent/STIM_021.jpg
2677.079	0.586	correct	incongruent	Block3	incongruent/STIM_021.jpg
2680.912	0.753	correct	incongruent	Block3	incongruent/STIM_021.jpg
2684.595	0.937	correct	incongruent	Block3	incongruent/STIM_022.jpg
2688.049	0.778	correct	incongruent	Block3	incongruent/STIM_022.jpg
2692.712	0.682	correct	incongruent	Block3	incongruent/STIM_022.jpg
2696.881	0.879	correct	incongruent	Block3	incongruent/STIM_022.jpg
2699.871	0.85	correct	incongruent	Block3	incongruent/STIM_022.jpg
2703.266	0.666	correct	incongruent	Block3	incongruent/STIM_023.jpg
2707.329	0.681	correct	incongruent	Block3	incongruent/STIM_023.jpg
2710.42	0.75	correct	incongruent	Block3	incongruent/STIM_023.jpg
2713.556	1.124	correct	incongruent	Block3	incongruent/STIM_023.jpg
2717.785	0.602	correct	incongruent	Block3	incongruent/STIM_023.jpg
2721.469	0.836	correct	incongruent	Block3	incongruent/STIM_024.jpg
2725.567	0.553	correct	incongruent	Block3	incongruent/STIM_024.jpg
2729.392	0.633	correct	incongruent	Block3	incongruent/STIM_024.jpg
2733.786	0.834	correct	incongruent	Block3	incongruent/STIM_024.jpg
2736.866	0.768	correct	incongruent	Block3	incongruent/STIM_024.jpg
2741.024	1.032	correct	incongruent	Block3	incongruent/STIM_025.jpg
2744.05	0.583	correct	incongruent	Block3	incongruent/STIM_025.jpg
2746.696	0.55	correct	incongruent	Block3	incongruent/STIM_025.jpg
2749.609	0.964	correct	incongruent	Block3	incongruent/STIM_025.jpg
2753.879	0.75	correct	incongruent	Block3	incongruent/STIM_025.jpg
2757.2	0.917	correct	incongruent	Block3	incongruent/STIM_026.jpg
2761.857	0.951	correct	incongruent	Block3	incongruent/STIM_026.jpg
2765.429	1.172	correct	incongruent	Block3	incongruent/STIM_026.jpg
2769.976	0.664	correct	incongruent	Block3	incongruent/STIM_026.jpg
2774.33	0.874	correct	incongruent	Block3	incongruent/STIM_026.jpg
2777.269	0.595	correct	incongruent	Block3	incongruent/STIM_027.jpg
2779.86	1.004	correct	incongruent	Block3	incongruent/STIM_027.jpg
2783.619	0.646	correct	incongruent	Block3	incongruent/STIM_027.jpg
2787.664	0.952	correct	incongruent	Block3	incongruent/STIM_027.jpg
2792.457	1.068	correct	incongruent	Block3	incongruent/STIM_027.jpg
2796.619	1.078	correct	incongruent	Block3	incongruent/STIM_028.jpg
2799.638	0.891	correct	incongruent	Block3	incongruent/STIM_028.jpg
2803.727	0.838	correct	incongruent	Block3	incongruent/STIM_028.jpg
2806.804	0.936	incorrect	incongruent	Block3	incongruent/STIM_028.jpg
2810.451	0.642	correct	incongruent	Block3	incongruent/STIM_028.jpg
2814.591	1.136	correct	incongruent	Block3	incongruent/STIM_029.jpg
2818.134	0.746	correct	incongruent	Block3	incongruent/STIM_029.jpg
2822.083	0.815	correct	incongruent	Block3	incongruent/STIM_029.jpg
2825.069	0.668	correct	incongruent	Block3	incongruent/STIM_029.jpg
2827.941	0.78	correct	incongruent	Block3	incongruent/STIM_029.jpg
2830.743	0.697	correct	congruent	Block3	congruent/STIM_000.jpg
2834.445	0.897	correct	congruent	Block3	congruent/STIM_000.jpg
2838.19	0.762	correct	congruent	Block3	congruent/STIM_000.jpg
2842.549	0.794	correct	congruent	Block3	congruent/STIM_000.jpg
2845.375	0.745	correct	congruent	Block3	congruent/STIM_000.jpg
2848.341	0.925	correct	congruent	Block3	congruent/STIM_001.jpg
2852.599	0.618	correct	congruent	Block3	congruent/STIM_001.jpg
2855.495	0.852	correct	congruent	Block3	congruent/STIM_001.jpg
2860.026	0.511	correct	congruent	Block3	congruent/STIM_001.jpg
2864.345	0.718	correct	congruent	Block3	congruent/STIM_001.jpg
2868.806	0.908	correct	congruent	Block3	congruent/STIM_002.jpg
2873.327	0.789	correct	congruent	Block3	congruent/STIM_002.jpg
2876.479	0.871	correct	congruent	Block3	congruent/STIM_002.jpg
2879.445	0.861	correct	congruent	Block3	congruent/STIM_002.jpg
2882.983	0.914	correct	congruent	Block3	congruent/STIM_002.jpg
2886.066	0.814	correct	congruent	Block3	congruent/STIM_003.jpg
2890.178	0.867	correct	congruent	Block3	congruent/STIM_003.jpg
2893.39	0.704	correct	congruent	Block3	congruent/STIM_003.jpg
2896.199	0.779	correct	congruent	Block3	congruent/STIM_003.jpg
2899.055	0.614	correct	congruent	Block3	congruent/STIM_003.jpg
2903.224	0.888	correct	congruent	Block3	congruent/STIM_004.jpg
2907.797	0.63	correct	congruent	Block3	congruent/STIM_004.jpg
2911.433	0.612	correct	congruent	Block3	congruent/STIM_004.jpg
2915.379	1.019	correct	congruent	Block3	congruent/STIM_004.jpg
2919.595	0.909	correct	congruent	Block3	congruent/STIM_004.jpg
2923.328	0.944	correct	congruent	Block3	congruent/STIM_005.jpg
2927.604	0.609	correct	congruent	Block3	congruent/STIM_005.jpg
2930.569	0.71	correct	congruent	Block3	congruent/STIM_005.jpg
2934.473	0.564	correct	congruent	Block3	congruent/STIM_005.jpg
2937.171	0.872	correct	congruent	Block3	congruent/STIM_005.jpg
2941.975	0.712	correct	congruent	Block3	congruent/STIM_006.jpg
2944.9	0.571	correct	congruent	Block3	congruent/STIM_006.jpg
2947.579	0.753	correct	congruent	Block3	congruent/STIM_006.jpg
2952.007	0.758	correct	congruent	Block3	congruent/STIM_006.jpg
2955.203	0.669	correct	congruent	Block3	congruent/STIM_006.jpg
2959.446	0.749	correct	congruent	Block3	congruent/STIM_007.jpg
2962.439	0.845	correct	congruent	Block3	congruent/STIM_007.jpg
2966.323	0.962	correct	congruent	Block3	congruent/STIM_007.jpg
2969.612	0.726	correct	congruent	Block3	congruent/STIM_007.jpg
2972.71	0.741	correct	congruent	Block3	congruent/STIM_007.jpg
2976.493	0.835	correct	congruent	Block3	congruent/STIM_008.jpg
2981.314	0.947	correct	congruent	Block3	congruent/STIM_008.jpg
2984.644	0.734	correct	congruent	Block3	congruent/STIM_008.jpg
2987.41	0.654	correct	congruent	Block3	congruent/STIM_008.jpg
2990.057	0.845	correct	congruent	Block3	congruent/STIM_008.jpg
2993.68	0.894	correct	congruent	Block3	congruent/STIM_009.jpg
2997.293	0.764	correct	congruent	Block3	congruent/STIM_009.jpg
3001.752	0.598	correct	congruent	Block3	congruent/STIM_009.jpg
3004.954	0.671	correct	congruent	Block3	congruent/STIM_009.jpg
3009.298	0.797	correct	congruent	Block3	congruent/STIM_009.jpg
3013.984	0.793	correct	congruent	Block3	congruent/STIM_010.jpg
3017.528	0.73	correct	congruent	Block3	congruent/STIM_010.jpg
3020.179	0.597	correct	congruent	Block3	congruent/STIM_010.jpg
3023.933	0.853	correct	congruent	Block3	congruent/STIM_010.jpg
3028.757	0.542	correct	congruent	Block3	congruent/STIM_010.jpg
3032.551	0.855	correct	congruent	Block3	congruent/STIM_011.jpg
3035.573	0.632	correct	congruent	Block3	congruent/STIM_011.jpg
3040.206	0.702	correct	congruent	Block3	congruent/STIM_011.jpg
3043.592	0.809	correct	congruent	Block3	congruent/STIM_011.jpg
3046.519	0.647	correct	congruent	Block3	congruent/STIM_011.jpg
3049.566	0.655	correct	congruent	Block3	congruent/STIM_012.jpg
3052.607	0.82	correct	congruent	Block3	congruent/STIM_012.jpg
3056.559	0.613	correct	congruent	Block3	congruent/STIM_012.jpg
3059.566	0.718	correct	congruent	Block3	congruent/STIM_012.jpg
3063.41	0.575	correct	congruent	Block3	congruent/STIM_012.jpg
3066.816	0.931	correct	congruent	Block3	congruent/STIM_013.jpg
3071.506	0.798	correct	congruent	Block3	congruent/STIM_013.jpg
3075.443	0.8	correct	congruent	Block3	congruent/STIM_013.jpg
3079.487	0.683	correct	congruent	Block3	congruent/STIM_013.jpg
3083.633	0.782	correct	congruent	Block3	congruent/STIM_013.jpg
3088.009	0.922	correct	congruent	Block3	congruent/STIM_014.jpg
3090.95	0.63	correct	congruent	Block3	congruent/STIM_014.jpg
3094.229	0.595	correct	congruent	Block3	congruent/STIM_014.jpg
3097.367	0.884	correct	congruent	Block3	congruent/STIM_014.jpg
3101.447	0.698	correct	congruent	Block3	congruent/STIM_014.jpg
3104.99	0.666	correct	congruent	Block3	congruent/STIM_015.jpg
3109.278	0.694	correct	congruent	Block3	congruent/STIM_015.jpg
3112.229	0.558	correct	congruent	Block3	congruent/STIM_015.jpg
3114.778	0.86	correct	congruent	Block3	congruent/STIM_015.jpg
3119.332	0.836	correct	congruent	Block3	congruent/STIM_015.jpg
3122.897	0.707	correct	congruent	Block3	congruent/STIM_016.jpg
3125.535	0.778	correct	congruent	Block3	congruent/STIM_016.jpg
3128.443	1.037	correct	congruent	Block3	congruent/STIM_016.jpg
3131.49	0.567	correct	congruent	Block3	congruent/STIM_016.jpg
3135.534	0.915	correct	congruent	Block3	congruent/STIM_016.jpg
3138.86	0.698	correct	congruent	Block3	congruent/STIM_017.jpg
3143.41	0.681	correct	congruent	Block3	congruent/STIM_017.jpg
3147.655	0.715	correct	congruent	Block3	congruent/STIM_017.jpg
3150.95	0.611	correct	congruent	Block3	congruent/STIM_017.jpg
3155.367	0.519	correct	congruent	Block3	congruent/STIM_017.jpg
3159.053	0.708	correct	congruent	Block3	congruent/STIM_018.jpg
3163.465	0.656	correct	congruent	Block3	congruent/STIM_018.jpg
3166.929	0.849	incorrect	congruent	Block3	congruent/STIM_018.jpg
3171.088	0.547	correct	congruent	Block3	congruent/STIM_018.jpg
3175.309	0.669	correct	congruent	Block3	congruent/STIM_018.jpg
3177.913	0.462	correct	congruent	Block3	congruent/STIM_019.jpg
3182.279	0.776	correct	congruent	Block3	congruent/STIM_019.jpg
3185.417	0.679	correct	congruent	Block3	congruent/STIM_019.jpg
3188.173	0.674	correct	congruent	Block3	congruent/STIM_019.jpg
3191.748	0.742	correct	congruent	Block3	congruent/STIM_019.jpg
3195.582	0.75	correct	congruent	Block3	congruent/STIM_020.jpg
3198.945	0.634	correct	congruent	Block3	congruent/STIM_020.jpg
3203.389	0.439	correct	congruent	Block3	congruent/STIM_020.jpg
3207.389	0.741	correct	congruent	Block3	congruent/STIM_020.jpg
3210.765	0.938	correct	congruent	Block3	congruent/STIM_020.jpg
3215.316	0.568	correct	congruent	Block3	congruent/STIM_021.jpg
3219.727	0.895	correct	congruent	Block3	congruent/STIM_021.jpg
3223.627	0.58	correct	congruent	Block3	congruent/STIM_021.jpg
3226.375	0.919	correct	congruent	Block3	congruent/STIM_021.jpg
3230.181	0.69	correct	congruent	Block3	congruent/STIM_021.jpg
3234.175	0.618	incorrect	congruent	Block3	congruent/STIM_022.jpg
3238.244	0.743	correct	congruent	Block3	congruent/STIM_022.jpg
3242.092	0.535	correct	congruent	Block3	congruent/STIM_022.jpg
3246.444	0.995	correct	congruent	Block3	congruent/STIM_022.jpg
3249.368	0.861	correct	congruent	Block3	congruent/STIM_022.jpg
3253.545	0.922	correct	congruent	Block3	congruent/STIM_023.jpg
3257.339	0.544	correct	congruent	Block3	congruent/STIM_023.jpg
3261.74	0.554	correct	congruent	Block3	congruent/STIM_023.jpg
3264.653	0.666	correct	congruent	Block3	congruent/STIM_023.jpg
3268.067	0.834	correct	congruent	Block3	congruent/STIM_023.jpg
3271.767	0.618	correct	congruent	Block3	congruent/STIM_024.jpg
3276.277	0.908	correct	congruent	Block3	congruent/STIM_024.jpg
3279.474	0.68	correct	congruent	Block3	congruent/STIM_024.jpg
3283.713	0.902	correct	congruent	Block3	congruent/STIM_024.jpg
3288.069	0.602	incorrect	congruent	Block3	congruent/STIM_024.jpg
3291.351	0.918	correct	congruent	Block3	congruent/STIM_025.jpg
3296.009	0.903	correct	congruent	Block3	congruent/STIM_025.jpg
3299.458	0.821	correct	congruent	Block3	congruent/STIM_025.jpg
3302.91	0.686	correct	congruent	Block3	congruent/STIM_025.jpg
3307.042	0.973	correct	congruent	Block3	congruent/STIM_025.jpg
3311.216	0.573	incorrect	congruent	Block3	congruent/STIM_026.jpg
3314.764	0.565	correct	congruent	Block3	congruent/STIM_026.jpg
3318.528	0.672	correct	congruent	Block3	congruent/STIM_026.jpg
3323.071	0.739	correct	congruent	Block3	congruent/STIM_026.jpg
3326.466	0.992	correct	congruent	Block3	congruent/STIM_026.jpg
3329.582	0.66	correct	congruent	Block3	congruent/STIM_027.jpg
3332.834	0.684	correct	congruent	Block3	congruent/STIM_027.jpg
3336.814	0.994	correct	congruent	Block3	congruent/STIM_027.jpg
3340.661	0.805	correct	congruent	Block3	congruent/STIM_027.jpg
3344.791	0.68	correct	congruent	Block3	congruent/STIM_027.jpg
3348.999	0.838	correct	congruent	Block3	congruent/STIM_028.jpg
3351.722	0.555	correct	congruent	Block3	congruent/STIM_028.jpg
3354.725	0.621	correct	congruent	Block3	congruent/STIM_028.jpg
3357.415	0.81	correct	congruent	Block3	congruent/STIM_028.jpg
3360.221	0.726	correct	congruent	Block3	congruent/STIM_028.jpg
3363.44	0.888	correct	congruent	Block3	congruent/STIM_029.jpg
3367.514	0.689	correct	congruent	Block3	congruent/STIM_029.jpg
3371.201	0.496	correct	congruent	Block3	congruent/STIM_029.jpg
3373.899	0.911	correct	congruent	Block3	congruent/STIM_029.jpg
3378.148	0.813	correct	congruent	Block3	congruent/STIM_029.jpg
