onset	duration	accuracy	trial_type	learning_stage	stimulus
0.0	1.251	correct	incongruent	Block1	incongruent/STIM_000.jpg
5.04	1.104	incorrect	incongruent	Block1	incongruent/STIM_000.jpg
8.404	1.167	incorrect	incongruent	Block1	incongruent/STIM_000.jpg
13.501	0.549	correct	incongruent	Block1	incongruent/STIM_000.jpg
16.215	0.994	correct	incongruent	Block1	incongruent/STIM_000.jpg
20.146	0.81	incorrect	incongruent	Block1	incongruent/STIM_001.jpg
24.578	0.609	incorrect	incongruent	Block1	incongruent/STIM_001.jpg
27.256	0.762	correct	incongruent	Block1	incongruent/STIM_001.jpg
31.893	1.122	correct	incongruent	Block1	incongruent/STIM_001.jpg
36.895	0.62	correct	incongruent	Block1	incongruent/STIM_001.jpg
40.268	0.802	incorrect	incongruent	Block1	incongruent/STIM_002.jpg
44.693	1.13	correct	incongruent	Block1	incongruent/STIM_002.jpg
48.549	0.771	correct	incongruent	Block1	incongruent/STIM_002.jpg
51.509	0.615	correct	incongruent	Block1	incongruent/STIM_002.jpg
55.634	0.699	correct	incongruent	Block1	incongruent/STIM_002.jpg
59.141	0.993	incorrect	incongruent	Block1	incongruent/STIM_003.jpg
63.293	0.9	incorrect	incongruent	Block1	incongruent/STIM_003.jpg
67.304	0.753	correct	incongruent	Block1	incongruent/STIM_003.jpg
70.794	1.064	correct	incongruent	Block1	incongruent/STIM_003.jpg
74.563	0.984	correct	incongruent	Block1	incongruent/STIM_003.jpg
78.318	0.707	correct	incongruent	Block1	incongruent/STIM_004.jpg
82.763	0.613	incorrect	incongruent	Block1	incongruent/STIM_004.jpg
87.207	0.778	correct	incongruent	Block1	incongruent/STIM_004.jpg
91.544	0.852	correct	incongruent	Block1	incongruent/STIM_004.jpg
95.814	0.77	correct	incongruent	Block1	incongruent/STIM_004.jpg
98.859	0.652	correct	incongruent	Block1	incongruent/STIM_005.jpg
101.962	0.855	correct	incongruent	Block1	incongruent/STIM_005.jpg
104.862	0.908	correct	incongruent	Block1	incongruent/STIM_005.jpg
109.145	0.568	correct	incongruent	Block1	incongruent/STIM_005.jpg
112.84	0.876	incorrect	incongruent	Block1	incongruent/STIM_005.jpg
117.577	0.776	correct	incongruent	Block1	incongruent/STIM_006.jpg
121.179	1.181	incorrect	incongruent	Block1	incongruent/STIM_006.jpg
125.293	0.725	correct	incongruent	Block1	incongruent/STIM_006.jpg
128.353	0.563	correct	incongruent	Block1	incongruent/STIM_006.jpg
131.562	0.777	incorrect	incongruent	Block1	incongruent/STIM_006.jpg
134.475	1.054	correct	incongruent	Block1	incongruent/STIM_007.jpg
137.918	0.744	correct	incongruent	Block1	incongruent/STIM_007.jpg
141.138	1.103	incorrect	incongruent	Block1	incongruent/STIM_007.jpg
145.948	0.547	correct	incongruent	Block1	incongruent/STIM_007.jpg
150.311	0.723	correct	incongruent	Block1	incongruent/STIM_007.jpg
153.513	0.952	correct	incongruent	Block1	incongruent/STIM_008.jpg
156.949	1.107	correct	incongruent	Block1	incongruent/STIM_008.jpg
160.802	0.698	correct	incongruent	Block1	incongruent/STIM_008.jpg
164.468	0.939	incorrect	incongruent	Block1	incongruent/STIM_008.jpg
169.376	0.647	correct	incongruent	Block1	incongruent/STIM_008.jpg
173.769	0.908	correct	incongruent	Block1	incongruent/STIM_009.jpg
176.936	0.594	incorrect	incongruent	Block1	incongruent/STIM_009.jpg
179.723	0.675	correct	incongruent	Block1	incongruent/STIM_009.jpg
183.391	0.609	incorrect	incongruent	Block1	incongruent/STIM_009.jpg
187.98	0.674	correct	incongruent	Block1	incongruent/STIM_009.jpg
191.783	0.671	correct	incongruent	Block1	incongruent/STIM_010.jpg
195.112	1.16	correct	incongruent	Block1	incongruent/STIM_010.jpg
199.83	0.6	incorrect	incongruent	Block1	incongruent/STIM_010.jpg
202.809	0.861	incorrect	incongruent	Block1	incongruent/STIM_010.jpg
207.625	1.053	correct	incongruent	Block1	incongruent/STIM_010.jpg
212.099	0.936	correct	incongruent	Block1	incongruent/STIM_011.jpg
215.339	0.601	correct	incongruent	Block1	incongruent/STIM_011.jpg
218.673	1.05	correct	incongruent	Block1	incongruent/STIM_011.jpg
222.072	1.036	correct	incongruent	Block1	incongruent/STIM_011.jpg
226.126	0.954	correct	incongruent	Block1	incongruent/STIM_011.jpg
230.48	0.743	correct	incongruent	Block1	incongruent/STIM_012.jpg
233.525	0.92	correct	incongruent	Block1	incongruent/STIM_012.jpg
238.087	0.846	correct	incongruent	Block1	incongruent/STIM_012.jpg
241.313	0.944	correct	incongruent	Block1	incongruent/STIM_012.jpg
244.907	1.052	correct	incongruent	Block1	incongruent/STIM_012.jpg
249.402	0.811	correct	incongruent	Block1	incongruent/STIM_013.jpg
252.874	1.057	correct	incongruent	Block1	incongruent/STIM_013.jpg
257.257	1.202	correct	incongruent	Block1	incongruent/STIM_013.jpg
261.48	0.722	correct	incongruent	Block1	incongruent/STIM_013.jpg
264.25	0.859	correct	incongruent	Block1	incongruent/STIM_013.jpg
267.571	0.748	correct	incongruent	Block1	incongruent/STIM_014.jpg
270.947	1.16	correct	incongruent	Block1	incongruent/STIM_014.jpg
274.765	0.797	correct	incongruent	Block1	incongruent/STIM_014.jpg
277.768	0.842	incorrect	incongruent	Block1	incongruent/STIM_014.jpg
280.755	0.637	correct	incongruent	Block1	incongruent/STIM_014.jpg
283.819	1.033	correct	incongruent	Block1	incongruent/STIM_015.jpg
288.464	0.653	incorrect	incongruent	Block1	incongruent/STIM_015.jpg
292.547	1.116	correct	incongruent	Block1	incongruent/STIM_015.jpg
296.749	0.88	correct	incongruent	Block1	incongruent/STIM_015.jpg
300.137	0.811	correct	incongruent	Block1	incongruent/STIM_015.jpg
304.416	1.154	correct	incongruent	Block1	incongruent/STIM_016.jpg
307.749	0.746	correct	incongruent	Block1	incongruent/STIM_016.jpg
310.749	0.851	correct	incongruent	Block1	incongruent/STIM_016.jpg
314.352	1.01	correct	incongruent	Block1	incongruent/STIM_016.jpg
318.566	0.648	correct	incongruent	Block1	incongruent/STIM_016.jpg
321.523	0.646	correct	incongruent	Block1	incongruent/STIM_017.jpg
325.46	1.146	correct	incongruent	Block1	incongruent/STIM_017.jpg
329.6	0.917	correct	incongruent	Block1	incongruent/STIM_017.jpg
333.811	1.063	correct	incongruent	Block1	incongruent/STIM_017.jpg
338.496	1.016	correct	incongruent	Block1	incongruent/STIM_017.jpg
343.12	1.196	incorrect	incongruent	Block1	incongruent/STIM_018.jpg
346.434	1.266	correct	incongruent	Block1	incongruent/STIM_018.jpg
351.425	0.921	correct	incongruent	Block1	incongruent/STIM_018.jpg
355.058	0.618	correct	incongruent	Block1	incongruent/STIM_018.jpg
358.783	0.65	correct	incongruent	Block1	incongruent/STIM_018.jpg
362.89	0.903	correct	incongruent	Block1	incongruent/STIM_019.jpg
367.405	0.854	correct	incongruent	Block1	incongruent/STIM_019.jpg
371.478	0.92	correct	incongruent	Block1	incongruent/STIM_019.jpg
375.807	1.11	correct	incongruent	Block1	incongruent/STIM_019.jpg
380.439	0.889	incorrect	incongruent	Block1	incongruent/STIM_019.jpg
383.949	1.3	incorrect	incongruent	Block1	incongruent/STIM_020.jpg
387.759	0.817	correct	incongruent	Block1	incongruent/STIM_020.jpg
391.381	0.825	correct	incongruent	Block1	incongruent/STIM_020.jpg
395.232	0.66	incorrect	incongruent	Block1	incongruent/STIM_020.jpg
399.307	0.827	incorrect	incongruent	Block1	incongruent/STIM_020.jpg
403.328	1.224	incorrect	incongruent	Block1	incongruent/STIM_021.jpg
407.953	0.961	correct	incongruent	Block1	incongruent/STIM_021.jpg
412.203	0.978	incorrect	incongruent	Block1	incongruent/STIM_021.jpg
415.419	0.608	correct	incongruent	Block1	incongruent/STIM_021.jpg
418.365	0.927	correct	incongruent	Block1	incongruent/STIM_021.jpg
421.546	0.939	incorrect	incongruent	Block1	incongruent/STIM_022.jpg
425.193	1.001	correct	incongruent	Block1	incongruent/STIM_022.jpg
429.339	1.122	correct	incongruent	Block1	incongruent/STIM_022.jpg
434.395	0.925	correct	incongruent	Block1	incongruent/STIM_022.jpg
438.345	0.734	incorrect	incongruent	Block1	incongruent/STIM_022.jpg
441.475	1.202	correct	incongruent	Block1	incongruent/STIM_023.jpg
446.037	1.2	correct	incongruent	Block1	incongruent/STIM_023.jpg
449.454	0.656	correct	incongruent	Block1	incongruent/STIM_023.jpg
453.477	1.033	correct	incongruent	Block1	incongruent/STIM_023.jpg
458.207	0.748	correct	incongruent	Block1	incongruent/STIM_023.jpg
461.864	1.264	correct	incongruent	Block1	incongruent/STIM_024.jpg
465.251	1.11	correct	incongruent	Block1	incongruent/STIM_024.jpg
468.636	0.969	incorrect	incongruent	Block1	incongruent/STIM_024.jpg
472.841	1.009	correct	incongruent	Block1	incongruent/STIM_024.jpg
477.618	0.797	correct	incongruent	Block1	incongruent/STIM_024.jpg
480.656	1.267	correct	incongruent	Block1	incongruent/STIM_025.jpg
485.829	1.202	correct	incongruent	Block1	incongruent/STIM_025.jpg
489.295	0.652	correct	incongruent	Block1	incongruent/STIM_025.jpg
493.916	1.082	correct	incongruent	Block1	incongruent/STIM_025.jpg
498.456	0.786	correct	incongruent	Block1	incongruent/STIM_025.jpg
501.954	1.097	correct	incongruent	Block1	incongruent/STIM_026.jpg
505.756	1.133	correct	incongruent	Block1	incongruent/STIM_026.jpg
509.451	1.174	correct	incongruent	Block1	incongruent/STIM_026.jpg
513.863	0.794	incorrect	incongruent	Block1	incongruent/STIM_026.jpg
517.718	1.028	correct	incongruent	Block1	incongruent/STIM_026.jpg
522.709	0.627	incorrect	incongruent	Block1	incongruent/STIM_027.jpg
527.24	1.193	correct	incongruent	Block1	incongruent/STIM_027.jpg
530.619	1.166	correct	incongruent	Block1	incongruent/STIM_027.jpg
534.502	1.099	incorrect	incongruent	Block1	incongruent/STIM_027.jpg
537.698	0.761	correct	incongruent	Block1	incongruent/STIM_027.jpg
541.447	1.27	incorrect	incongruent	Block1	incongruent/STIM_028.jpg
545.933	0.723	correct	incongruent	Block1	incongruent/STIM_028.jpg
549.807	0.835	correct	incongruent	Block1	incongruent/STIM_028.jpg
552.82	0.985	correct	incongruent	Block1	incongruent/STIM_028.jpg
556.855	0.626	incorrect	incongruent	Block1	incongruent/STIM_028.jpg
560.847	1.252	correct	incongruent	Block1	incongruent/STIM_029.jpg
565.864	1.017	incorrect	incongruent	Block1	incongruent/STIM_029.jpg
570.524	1.044	incorrect	incongruent	Block1	incongruent/STIM_029.jpg
574.834	0.789	correct	incongruent	Block1	incongruent/STIM_029.jpg
579.418	0.65	correct	incongruent	Block1	incongruent/STIM_029.jpg
582.239	0.747	correct	congruent	Block1	congruent/STIM_000.jpg
585.468	0.584	correct	congruent	Block1	congruent/STIM_000.jpg
589.917	0.664	correct	congruent	Block1	congruent/STIM_000.jpg
593.922	0.613	correct	congruent	Block1	congruent/STIM_000.jpg
597.662	0.615	correct	congruent	Block1	congruent/STIM_000.jpg
601.035	0.721	correct	congruent	Block1	congruent/STIM_001.jpg
604.325	0.576	correct	congruent	Block1	congruent/STIM_001.jpg
607.873	0.578	correct	congruent	Block1	congruent/STIM_001.jpg
612.139	0.515	correct	congruent	Block1	congruent/STIM_001.jpg
615.515	0.65	correct	congruent	Block1	congruent/STIM_001.jpg
619.342	0.463	correct	congruent	Block1	congruent/STIM_002.jpg
623.744	0.79	correct	congruent	Block1	congruent/STIM_002.jpg
628.368	0.653	correct	congruent	Block1	congruent/STIM_002.jpg
632.002	0.772	correct	congruent	Block1	congruent/STIM_002.jpg
635.915	0.642	correct	congruent	Block1	congruent/STIM_002.jpg
640.063	0.531	correct	congruent	Block1	congruent/STIM_003.jpg
643.193	0.61	correct	congruent	Block1	congruent/STIM_003.jpg
646.011	0.51	incorrect	congruent	Block1	congruent/STIM_003.jpg
650.081	0.64	correct	congruent	Block1	congruent/STIM_003.jpg
653.08	0.592	correct	congruent	Block1	congruent/STIM_003.jpg
657.597	0.624	correct	congruent	Block1	congruent/STIM_004.jpg
660.921	0.775	correct	congruent	Block1	congruent/STIM_004.jpg
663.796	0.518	incorrect	congruent	Block1	congruent/STIM_004.jpg
666.363	0.785	correct	congruent	Block1	congruent/STIM_004.jpg
669.37	0.507	correct	congruent	Block1	congruent/STIM_004.jpg
672.179	0.626	correct	congruent	Block1	congruent/STIM_005.jpg
675.398	0.645	incorrect	congruent	Block1	congruent/STIM_005.jpg
678.938	0.676	correct	congruent	Block1	congruent/STIM_005.jpg
682.17	0.711	correct	congruent	Block1	congruent/STIM_005.jpg
686.852	0.678	correct	congruent	Block1	congruent/STIM_005.jpg
690.225	0.52	correct	congruent	Block1	congruent/STIM_006.jpg
692.981	0.581	correct	congruent	Block1	congruent/STIM_006.jpg
696.127	0.757	correct	congruent	Block1	congruent/STIM_006.jpg
699.132	0.515	correct	congruent	Block1	congruent/STIM_006.jpg
701.891	0.596	correct	congruent	Block1	congruent/STIM_006.jpg
706.22	0.502	correct	congruent	Block1	congruent/STIM_007.jpg
708.95	0.579	correct	congruent	Block1	congruent/STIM_007.jpg
712.134	0.536	correct	congruent	Block1	congruent/STIM_007.jpg
715.921	0.661	incorrect	congruent	Block1	congruent/STIM_007.jpg
719.246	0.707	correct	congruent	Block1	congruent/STIM_007.jpg
722.127	0.53	incorrect	congruent	Block1	congruent/STIM_008.jpg
726.038	0.779	correct	congruent	Block1	congruent/STIM_008.jpg
729.891	0.688	correct	congruent	Block1	congruent/STIM_008.jpg
733.631	0.672	incorrect	congruent	Block1	congruent/STIM_008.jpg
736.318	0.661	correct	congruent	Block1	congruent/STIM_008.jpg
740.075	0.776	correct	congruent	Block1	congruent/STIM_009.jpg
744.74	0.73	correct	congruent	Block1	congruent/STIM_009.jpg
748.065	0.746	correct	congruent	Block1	congruent/STIM_009.jpg
752.266	0.499	correct	congruent	Block1	congruent/STIM_009.jpg
755.325	0.66	correct	congruent	Block1	congruent/STIM_009.jpg
758.99	0.783	correct	congruent	Block1	congruent/STIM_010.jpg
763.198	0.588	correct	congruent	Block1	congruent/STIM_010.jpg
766.344	0.458	incorrect	congruent	Block1	congruent/STIM_010.jpg
769.642	0.628	correct	congruent	Block1	congruent/STIM_010.jpg
773.779	0.558	correct	congruent	Block1	congruent/STIM_010.jpg
777.455	0.686	correct	congruent	Block1	congruent/STIM_011.jpg
780.656	0.757	correct	congruent	Block1	congruent/STIM_011.jpg
784.94	0.632	correct	congruent	Block1	congruent/STIM_011.jpg
788.455	0.725	correct	congruent	Block1	congruent/STIM_011.jpg
792.682	0.513	correct	congruent	Block1	congruent/STIM_011.jpg
797.118	0.759	incorrect	congruent	Block1	congruent/STIM_012.jpg
800.96	0.651	correct	congruent	Block1	congruent/STIM_012.jpg
805.201	0.45	correct	congruent	Block1	congruent/STIM_012.jpg
809.468	0.69	incorrect	congruent	Block1	congruent/STIM_012.jpg
813.535	0.566	correct	congruent	Block1	congruent/STIM_012.jpg
816.287	0.708	correct	congruent	Block1	congruent/STIM_013.jpg
819.904	0.693	incorrect	congruent	Block1	congruent/STIM_013.jpg
823.107	0.676	correct	congruent	Block1	congruent/STIM_013.jpg
826.529	0.801	correct	congruent	Block1	congruent/STIM_013.jpg
829.808	0.57	incorrect	congruent	Block1	congruent/STIM_013.jpg
833.963	0.753	correct	congruent	Block1	congruent/STIM_014.jpg
837.504	0.744	incorrect	congruent	Block1	congruent/STIM_014.jpg
840.673	0.634	correct	congruent	Block1	congruent/STIM_014.jpg
844.003	0.689	correct	congruent	Block1	congruent/STIM_014.jpg
846.745	0.503	correct	congruent	Block1	congruent/STIM_014.jpg
849.448	0.511	correct	congruent	Block1	congruent/STIM_015.jpg
852.021	0.594	correct	congruent	Block1	congruent/STIM_015.jpg
854.698	0.705	correct	congruent	Block1	congruent/STIM_015.jpg
858.503	0.541	correct	congruent	Block1	congruent/STIM_015.jpg
861.62	0.573	correct	congruent	Block1	congruent/STIM_015.jpg
865.467	0.638	correct	congruent	Block1	congruent/STIM_016.jpg
868.68	0.653	correct	congruent	Block1	congruent/STIM_016.jpg
872.659	0.529	correct	congruent	Block1	congruent/STIM_016.jpg
875.658	0.461	correct	congruent	Block1	congruent/STIM_016.jpg
879.267	0.559	incorrect	congruent	Block1	congruent/STIM_016.jpg
883.202	0.786	correct	congruent	Block1	congruent/STIM_017.jpg
886.673	0.458	correct	congruent	Block1	congruent/STIM_017.jpg
889.67	0.582	correct	congruent	Block1	congruent/STIM_017.jpg
893.588	0.795	incorrect	congruent	Block1	congruent/STIM_017.jpg
897.058	0.709	incorrect	congruent	Block1	congruent/STIM_017.jpg
901.155	0.583	correct	congruent	Block1	congruent/STIM_018.jpg
904.822	0.668	incorrect	congruent	Block1	congruent/STIM_018.jpg
908.313	0.792	correct	congruent	Block1	congruent/STIM_018.jpg
912.166	0.502	correct	congruent	Block1	congruent/STIM_018.jpg
915.288	0.556	correct	congruent	Block1	congruent/STIM_018.jpg
919.461	0.514	incorrect	congruent	Block1	congruent/STIM_019.jpg
923.597	0.511	correct	congruent	Block1	congruent/STIM_019.jpg
926.863	0.691	incorrect	congruent	Block1	congruent/STIM_019.jpg
931.378	0.529	incorrect	congruent	Block1	congruent/STIM_019.jpg
935.837	0.706	correct	congruent	Block1	congruent/STIM_019.jpg
938.685	0.536	incorrect	congruent	Block1	congruent/STIM_020.jpg
942.209	0.616	correct	congruent	Block1	congruent/STIM_020.jpg
946.551	0.607	incorrect	congruent	Block1	congruent/STIM_020.jpg
950.857	0.694	correct	congruent	Block1	congruent/STIM_020.jpg
953.727	0.706	correct	congruent	Block1	congruent/STIM_020.jpg
957.863	0.714	correct	congruent	Block1	congruent/STIM_021.jpg
961.949	0.76	correct	congruent	Block1	congruent/STIM_021.jpg
964.733	0.495	correct	congruent	Block1	congruent/STIM_021.jpg
967.431	0.606	correct	congruent	Block1	congruent/STIM_021.jpg
970.995	0.584	correct	congruent	Block1	congruent/STIM_021.jpg
975.293	0.45	correct	congruent	Block1	congruent/STIM_022.jpg
978.941	0.509	correct	congruent	Block1	congruent/STIM_022.jpg
983.444	0.487	correct	congruent	Block1	congruent/STIM_022.jpg
987.252	0.587	correct	congruent	Block1	congruent/STIM_022.jpg
991.481	0.674	correct	congruent	Block1	congruent/STIM_022.jpg
995.065	0.768	correct	congruent	Block1	congruent/STIM_023.jpg
999.055	0.58	correct	congruent	Block1	congruent/STIM_023.jpg
1001.844	0.798	correct	congruent	Block1	congruent/STIM_023.jpg
1005.461	0.611	correct	congruent	Block1	congruent/STIM_023.jpg
1009.556	0.663	correct	congruent	Block1	congruent/STIM_023.jpg
1013.658	0.667	incorrect	congruent	Block1	congruent/STIM_024.jpg
1017.028	0.621	incorrect	congruent	Block1	congruent/STIM_024.jpg
1020.91	0.657	correct	congruent	Block1	congruent/STIM_024.jpg
1025.314	0.508	correct	congruent	Block1	congruent/STIM_024.jpg
1029.069	0.487	correct	congruent	Block1	congruent/STIM_024.jpg
1032.349	0.768	correct	congruent	Block1	congruent/STIM_025.jpg
1036.183	0.75	correct	congruent	Block1	congruent/STIM_025.jpg
1039.188	0.655	correct	congruent	Block1	congruent/STIM_025.jpg
1042.667	0.653	correct	congruent	Block1	congruent/STIM_025.jpg
1046.922	0.656	correct	congruent	Block1	congruent/STIM_025.jpg
1051.024	0.614	correct	congruent	Block1	congruent/STIM_026.jpg
1054.181	0.718	correct	congruent	Block1	congruent/STIM_026.jpg
1058.497	0.706	correct	congruent	Block1	congruent/STIM_026.jpg
1062.463	0.48	correct	congruent	Block1	congruent/STIM_026.jpg
1065.766	0.725	correct	congruent	Block1	congruent/STIM_026.jpg
1069.853	0.504	correct	congruent	Block1	congruent/STIM_027.jpg
1073.341	0.755	incorrect	congruent	Block1	congruent/STIM_027.jpg
1077.161	0.57	correct	congruent	Block1	congruent/STIM_027.jpg
1080.101	0.488	correct	congruent	Block1	congruent/STIM_027.jpg
1084.55	0.654	incorrect	congruent	Block1	congruent/STIM_027.jpg
1087.603	0.774	correct	congruent	Block1	congruent/STIM_028.jpg
1091.834	0.618	correct	congruent	Block1	congruent/STIM_028.jpg
1095.476	0.733	correct	congruent	Block1	congruent/STIM_028.jpg
1098.897	0.631	correct	congruent	Block1	congruent/STIM_028.jpg
1102.494	0.581	correct	congruent	Block1	congruent/STIM_028.jpg
1105.866	0.534	correct	congruent	Block1	congruent/STIM_029.jpg
1108.576	0.45	correct	congruent	Block1	congruent/STIM_029.jpg
1111.434	0.571	correct	congruent	Block1	congruent/STIM_029.jpg
1115.549	0.577	correct	congruent	Block1	congruent/STIM_029.jpg
1119.16	0.618	correct	congruent	Block1	congruent/STIM_029.jpg
1123.556	0.595	correct	incongruent	Block2	incongruent/STIM_000.jpg
1127.3	0.692	correct	incongruent	Block2	incongruent/STIM_000.jpg
1130.254	0.849	correct	incongruent	Block2	incongruent/STIM_000.jpg
1134.55	0.921	correct	incongruent	Block2	incongruent/STIM_000.jpg
1138.889	0.763	correct	incongruent	Block2	incongruent/STIM_000.jpg
1142.789	0.604	incorrect	incongruent	Block2	incongruent/STIM_001.jpg
1146.165	1.044	incorrect	incongruent	Block2	incongruent/STIM_001.jpg
1151.11	0.536	correct	incongruent	Block2	incongruent/STIM_001.jpg
1154.444	0.673	incorrect	incongruent	Block2	incongruent/STIM_001.jpg
1158.618	0.446	correct	incongruent	Block2	incongruent/STIM_001.jpg
1161.454	1.115	incorrect	incongruent	Block2	incongruent/STIM_002.jpg
1164.76	0.773	correct	incongruent	Block2	incongruent/STIM_002.jpg
1168.198	0.754	correct	incongruent	Block2	incongruent/STIM_002.jpg
1172.156	0.636	correct	incongruent	Block2	incongruent/STIM_002.jpg
1175.389	0.621	correct	incongruent	Block2	incongruent/STIM_002.jpg
1179.43	0.819	correct	incongruent	Block2	incongruent/STIM_003.jpg
1183.307	0.697	correct	incongruent	Block2	incongruent/STIM_003.jpg
1187.221	0.799	correct	incongruent	Block2	incongruent/STIM_003.jpg
1191.876	0.706	correct	incongruent	Block2	incongruent/STIM_003.jpg
1195.365	0.447	correct	incongruent	Block2	incongruent/STIM_003.jpg
1198.303	0.693	correct	incongruent	Block2	incongruent/STIM_004.jpg
1201.563	0.873	correct	incongruent	Block2	incongruent/STIM_004.jpg
1204.713	0.618	incorrect	incongruent	Block2	incongruent/STIM_004.jpg
1208.655	0.863	correct	incongruent	Block2	incongruent/STIM_004.jpg
1213.475	0.472	correct	incongruent	Block2	incongruent/STIM_004.jpg
1217.741	0.91	correct	incongruent	Block2	incongruent/STIM_005.jpg
1221.292	0.898	correct	incongruent	Block2	incongruent/STIM_005.jpg
1225.713	0.967	incorrect	incongruent	Block2	incongruent/STIM_005.jpg
1229.09	0.755	incorrect	incongruent	Block2	incongruent/STIM_005.jpg
1233.488	0.456	correct	incongruent	Block2	incongruent/STIM_005.jpg
1236.299	1.124	correct	incongruent	Block2	incongruent/STIM_006.jpg
1240.212	0.95	correct	incongruent	Block2	incongruent/STIM_006.jpg
1243.362	0.614	correct	incongruent	Block2	incongruent/STIM_006.jpg
1246.679	0.547	correct	incongruent	Block2	incongruent/STIM_006.jpg
1250.664	0.833	correct	incongruent	Block2	incongruent/STIM_006.jpg
1255.493	0.672	correct	incongruent	Block2	incongruent/STIM_007.jpg
1258.947	0.711	correct	incongruent	Block2	incongruent/STIM_007.jpg
1263.64	0.583	correct	incongruent	Block2	incongruent/STIM_007.jpg
1267.335	0.509	correct	incongruent	Block2	incongruent/STIM_007.jpg
1271.388	0.868	correct	incongruent	Block2	incongruent/STIM_007.jpg
1275.992	1.035	incorrect	incongruent	Block2	incongruent/STIM_008.jpg
1280.646	0.958	correct	incongruent	Block2	incongruent/STIM_008.jpg
1283.847	0.707	correct	incongruent	Block2	incongruent/STIM_008.jpg
1286.983	0.584	correct	incongruent	Block2	incongruent/STIM_008.jpg
1289.685	0.532	correct	incongruent	Block2	incongruent/STIM_008.jpg
1292.873	0.684	correct	incongruent	Block2	incongruent/STIM_009.jpg
1297.164	0.609	correct	incongruent	Block2	incongruent/STIM_009.jpg
1299.889	0.561	correct	incongruent	Block2	incongruent/STIM_009.jpg
1302.91	0.875	correct	incongruent	Block2	incongruent/STIM_009.jpg
1307.275	0.932	correct	incongruent	Block2	incongruent/STIM_009.jpg
1311.73	0.915	correct	incongruent	Block2	incongruent/STIM_010.jpg
1316.125	1.066	correct	incongruent	Block2	incongruent/STIM_010.jpg
1319.307	0.608	correct	incongruent	Block2	incongruent/STIM_010.jpg
1323.483	0.537	correct	incongruent	Block2	incongruent/STIM_010.jpg
1327.762	0.609	incorrect	incongruent	Block2	incongruent/STIM_010.jpg
1330.787	0.805	correct	incongruent	Block2	incongruent/STIM_011.jpg
1334.407	0.858	correct	incongruent	Block2	incongruent/STIM_011.jpg
1338.265	0.949	correct	incongruent	Block2	incongruent/STIM_011.jpg
1342.443	0.692	incorrect	incongruent	Block2	incongruent/STIM_011.jpg
1346.95	0.726	correct	incongruent	Block2	incongruent/STIM_011.jpg
1349.798	0.731	correct	incongruent	Block2	incongruent/STIM_012.jpg
1352.586	0.916	correct	incongruent	Block2	incongruent/STIM_012.jpg
1356.901	0.653	correct	incongruent	Block2	incongruent/STIM_012.jpg
1360.951	0.622	correct	incongruent	Block2	incongruent/STIM_012.jpg
1364.096	0.832	correct	incongruent	Block2	incongruent/STIM_012.jpg
1368.573	1.135	incorrect	incongruent	Block2	incongruent/STIM_013.jpg
1371.863	0.788	correct	incongruent	Block2	incongruent/STIM_013.jpg
1375.013	0.748	correct	incongruent	Block2	incongruent/STIM_013.jpg
1378.386	0.692	correct	incongruent	Block2	incongruent/STIM_013.jpg
1383.056	0.881	correct	incongruent	Block2	incongruent/STIM_013.jpg
1386.548	0.914	correct	incongruent	Block2	incongruent/STIM_014.jpg
1391.425	0.855	correct	incongruent	Block2	incongruent/STIM_014.jpg
1394.669	0.774	correct	incongruent	Block2	incongruent/STIM_014.jpg
1398.082	0.57	correct	incongruent	Block2	incongruent/STIM_014.jpg
1402.076	0.602	correct	incongruent	Block2	incongruent/STIM_014.jpg
1405.01	1.131	correct	incongruent	Block2	incongruent/STIM_015.jpg
1408.771	0.522	incorrect	incongruent	Block2	incongruent/STIM_015.jpg
1413.069	0.656	correct	incongruent	Block2	incongruent/STIM_015.jpg
1416.339	0.47	correct	incongruent	Block2	incongruent/STIM_015.jpg
1419.799	0.777	correct	incongruent	Block2	incongruent/STIM_015.jpg
1423.104	1.023	correct	incongruent	Block2	incongruent/STIM_016.jpg
1427.343	0.998	correct	incongruent	Block2	incongruent/STIM_016.jpg
1432.178	0.663	incorrect	incongruent	Block2	incongruent/STIM_016.jpg
1435.106	0.746	correct	incongruent	Block2	incongruent/STIM_016.jpg
1438.658	0.802	incorrect	incongruent	Block2	incongruent/STIM_016.jpg
1441.95	0.783	correct	incongruent	Block2	incongruent/STIM_017.jpg
1446.06	0.704	correct	incongruent	Block2	incongruent/STIM_017.jpg
1449.842	0.98	incorrect	incongruent	Block2	incongruent/STIM_017.jpg
1453.231	0.787	correct	incongruent	Block2	incongruent/STIM_017.jpg
1456.489	0.922	correct	incongruent	Block2	incongruent/STIM_017.jpg
1459.807	0.766	incorrect	incongruent	Block2	incongruent/STIM_018.jpg
1463.676	0.977	correct	incongruent	Block2	incongruent/STIM_018.jpg
1467.086	0.671	correct	incongruent	Block2	incongruent/STIM_018.jpg
1471.698	0.549	correct	incongruent	Block2	incongruent/STIM_018.jpg
1475.773	0.876	correct	incongruent	Block2	incongruent/STIM_018.jpg
1478.933	0.999	correct	incongruent	Block2	incongruent/STIM_019.jpg
1482.434	0.838	correct	incongruent	Block2	incongruent/STIM_019.jpg
1485.798	0.626	correct	incongruent	Block2	incongruent/STIM_019.jpg
1490.276	0.616	correct	incongruent	Block2	incongruent/STIM_019.jpg
1494.323	0.867	correct	incongruent	Block2	incongruent/STIM_019.jpg
1497.853	1.12	correct	incongruent	Block2	incongruent/STIM_020.jpg
1501.535	0.708	correct	incongruent	Block2	incongruent/STIM_020.jpg
1504.702	0.772	correct	incongruent	Block2	incongruent/STIM_020.jpg
1509.296	0.849	correct	incongruent	Block2	incongruent/STIM_020.jpg
1512.431	0.545	correct	incongruent	Block2	incongruent/STIM_020.jpg
1515.272	1.035	correct	incongruent	Block2	incongruent/STIM_021.jpg
1519.571	0.523	correct	incongruent	Block2	incongruent/STIM_021.jpg
1523.842	0.555	correct	incongruent	Block2	incongruent/STIM_021.jpg
1527.699	0.46	correct	incongruent	Block2	incongruent/STIM_021.jpg
1530.807	0.574	correct	incongruent	Block2	incongruent/STIM_021.jpg
1534.697	0.551	correct	incongruent	Block2	incongruent/STIM_022.jpg
1538.489	0.811	incorrect	incongruent	Block2	incongruent/STIM_022.jpg
1541.67	0.728	correct	incongruent	Block2	incongruent/STIM_022.jpg
1545.899	0.855	correct	incongruent	Block2	incongruent/STIM_022.jpg
1549.911	0.784	correct	incongruent	Block2	incongruent/STIM_022.jpg
1552.942	1.014	incorrect	incongruent	Block2	incongruent/STIM_023.jpg
1557.796	0.8	correct	incongruent	Block2	incongruent/STIM_023.jpg
1560.804	0.621	incorrect	incongruent	Block2	incongruent/STIM_023.jpg
1564.335	0.512	correct	incongruent	Block2	incongruent/STIM_023.jpg
1567.839	0.607	incorrect	incongruent	Block2	incongruent/STIM_023.jpg
1572.217	0.827	correct	incongruent	Block2	incongruent/STIM_024.jpg
1575.573	0.823	correct	incongruent	Block2	incongruent/STIM_024.jpg
1578.862	0.701	correct	incongruent	Block2	incongruent/STIM_024.jpg
1583.48	0.757	incorrect	incongruent	Block2	incongruent/STIM_024.jpg
1587.164	0.562	correct	incongruent	Block2	incongruent/STIM_024.jpg
1590.363	1.097	correct	incongruent	Block2	incongruent/STIM_025.jpg
1594.101	0.606	correct	incongruent	Block2	incongruent/STIM_025.jpg
1598.697	0.941	correct	incongruent	Block2	incongruent/STIM_025.jpg
1603.278	0.826	incorrect	incongruent	Block2	incongruent/STIM_025.jpg
1606.578	0.463	correct	incongruent	Block2	incongruent/STIM_025.jpg
1609.834	0.894	incorrect	incongruent	Block2	incongruent/STIM_026.jpg
1614.476	0.501	correct	incongruent	Block2	incongruent/STIM_026.jpg
1618.902	0.839	correct	incongruent	Block2	incongruent/STIM_026.jpg
1623.325	0.465	incorrect	incongruent	Block2	incongruent/STIM_026.jpg
1626.835	0.875	correct	incongruent	Block2	incongruent/STIM_026.jpg
1630.356	0.668	correct	incongruent	Block2	incongruent/STIM_027.jpg
1634.425	0.782	correct	incongruent	Block2	incongruent/STIM_027.jpg
1637.615	0.599	incorrect	incongruent	Block2	incongruent/STIM_027.jpg
1642.125	0.52	correct	incongruent	Block2	incongruent/STIM_027.jpg
1644.892	0.886	correct	incongruent	Block2	incongruent/STIM_027.jpg
1648.989	0.68	correct	incongruent	Block2	incongruent/STIM_028.jpg
1652.015	1.024	correct	incongruent	Block2	incongruent/STIM_028.jpg
1656.186	0.984	correct	incongruent	Block2	incongruent/STIM_028.jpg
1659.411	0.841	correct	incongruent	Block2	incongruent/STIM_028.jpg
1663.134	0.633	incorrect	incongruent	Block2	incongruent/STIM_028.jpg
1665.994	0.917	correct	incongruent	Block2	incongruent/STIM_029.jpg
1670.007	0.946	correct	incongruent	Block2	incongruent/STIM_029.jpg
1674.82	0.514	incorrect	incongruent	Block2	incongruent/STIM_029.jpg
1678.732	0.634	correct	incongruent	Block2	incongruent/STIM_029.jpg
1682.943	0.82	correct	incongruent	Block2	incongruent/STIM_029.jpg
1687.421	0.469	correct	congruent	Block2	congruent/STIM_000.jpg
1691.792	0.644	correct	congruent	Block2	congruent/STIM_000.jpg
1695.279	0.706	incorrect	congruent	Block2	congruent/STIM_000.jpg
1699.803	0.526	correct	congruent	Block2	congruent/STIM_000.jpg
1703.537	0.478	correct	congruent	Block2	congruent/STIM_000.jpg
1707.261	0.558	correct	congruent	Block2	congruent/STIM_001.jpg
1709.891	0.614	correct	congruent	Block2	congruent/STIM_001.jpg
1713.138	0.526	incorrect	congruent	Block2	congruent/STIM_001.jpg
1715.974	0.509	correct	congruent	Block2	congruent/STIM_001.jpg
1720.232	0.732	incorrect	congruent	Block2	congruent/STIM_001.jpg
1724.178	0.775	correct	congruent	Block2	congruent/STIM_002.jpg
1728.572	0.531	correct	congruent	Block2	congruent/STIM_002.jpg
1731.666	0.475	correct	congruent	Block2	congruent/STIM_002.jpg
1735.859	0.736	incorrect	congruent	Block2	congruent/STIM_002.jpg
1739.392	0.564	correct	congruent	Block2	congruent/STIM_002.jpg
1742.8	0.546	correct	congruent	Block2	congruent/STIM_003.jpg
1746.511	0.668	correct	congruent	Block2	congruent/STIM_003.jpg
1751.063	0.57	correct	congruent	Block2	congruent/STIM_003.jpg
1754.36	0.468	correct	congruent	Block2	congruent/STIM_003.jpg
1758.511	0.512	correct	congruent	Block2	congruent/STIM_003.jpg
1761.545	0.561	correct	congruent	Block2	congruent/STIM_004.jpg
1765.199	0.752	correct	congruent	Block2	congruent/STIM_004.jpg
1769.237	0.614	correct	congruent	Block2	congruent/STIM_004.jpg
1773.413	0.791	correct	congruent	Block2	congruent/STIM_004.jpg
1777.848	0.487	correct	congruent	Block2	congruent/STIM_004.jpg
1780.823	0.581	correct	congruent	Block2	congruent/STIM_005.jpg
1784.937	0.735	correct	congruent	Block2	congruent/STIM_005.jpg
1788.947	0.562	correct	congruent	Block2	congruent/STIM_005.jpg
1792.819	0.606	correct	congruent	Block2	congruent/STIM_005.jpg
1797.001	0.708	correct	congruent	Block2	congruent/STIM_005.jpg
1799.778	0.644	correct	congruent	Block2	congruent/STIM_006.jpg
1802.911	0.746	incorrect	congruent	Block2	congruent/STIM_006.jpg
1807.142	0.726	correct	congruent	Block2	congruent/STIM_006.jpg
1810.029	0.492	correct	congruent	Block2	congruent/STIM_006.jpg
1813.167	0.498	correct	congruent	Block2	congruent/STIM_006.jpg
1815.795	0.769	incorrect	congruent	Block2	congruent/STIM_007.jpg
1820.024	0.629	correct	congruent	Block2	congruent/STIM_007.jpg
1824.503	0.639	incorrect	congruent	Block2	congruent/STIM_007.jpg
1827.893	0.45	correct	congruent	Block2	congruent/STIM_007.jpg
1830.923	0.457	correct	congruent	Block2	congruent/STIM_007.jpg
1834.448	0.601	correct	congruent	Block2	congruent/STIM_008.jpg
1837.76	0.726	correct	congruent	Block2	congruent/STIM_008.jpg
1841.779	0.56	correct	congruent	Block2	congruent/STIM_008.jpg
1846.115	0.777	correct	congruent	Block2	congruent/STIM_008.jpg
1850.643	0.792	incorrect	congruent	Block2	congruent/STIM_008.jpg
1854.365	0.523	incorrect	congruent	Block2	congruent/STIM_009.jpg
1858.431	0.47	correct	congruent	Block2	congruent/STIM_009.jpg
1861.912	0.47	correct	congruent	Block2	congruent/STIM_009.jpg
1865.603	0.479	incorrect	congruent	Block2	congruent/STIM_009.jpg
1868.732	0.585	correct	congruent	Block2	congruent/STIM_009.jpg
1871.432	0.581	correct	congruent	Block2	congruent/STIM_010.jpg
1875.911	0.747	correct	congruent	Block2	congruent/STIM_010.jpg
1879.254	0.673	correct	congruent	Block2	congruent/STIM_010.jpg
1882.036	0.692	correct	congruent	Block2	congruent/STIM_010.jpg
1886.367	0.578	correct	congruent	Block2	congruent/STIM_010.jpg
1889.75	0.675	correct	congruent	Block2	congruent/STIM_011.jpg
1893.313	0.58	correct	congruent	Block2	congruent/STIM_011.jpg
1896.669	0.787	correct	congruent	Block2	congruent/STIM_011.jpg
1900.148	0.791	correct	congruent	Block2	congruent/STIM_011.jpg
1904.068	0.533	correct	congruent	Block2	congruent/STIM_011.jpg
1907.7	0.764	correct	congruent	Block2	congruent/STIM_012.jpg
1911.567	0.727	correct	congruent	Block2	congruent/STIM_012.jpg
1915.618	0.62	correct	congruent	Block2	congruent/STIM_012.jpg
1920.23	0.54	correct	congruent	Block2	congruent/STIM_012.jpg
1923.54	0.745	correct	congruent	Block2	congruent/STIM_012.jpg
1927.702	0.535	incorrect	congruent	Block2	congruent/STIM_013.jpg
1932.108	0.694	incorrect	congruent	Block2	congruent/STIM_013.jpg
1935.217	0.462	correct	congruent	Block2	congruent/STIM_013.jpg
1938.665	0.553	incorrect	congruent	Block2	congruent/STIM_013.jpg
1941.749	0.658	incorrect	congruent	Block2	congruent/STIM_013.jpg
1946.394	0.546	correct	congruent	Block2	congruent/STIM_014.jpg
1949.413	0.485	correct	congruent	Block2	congruent/STIM_014.jpg
1952.06	0.641	incorrect	congruent	Block2	congruent/STIM_014.jpg
1955.248	0.458	incorrect	congruent	Block2	congruent/STIM_014.jpg
1959.191	0.614	incorrect	congruent	Block2	congruent/STIM_014.jpg
1962.211	0.598	correct	congruent	Block2	congruent/STIM_015.jpg
1965.959	0.468	correct	congruent	Block2	congruent/STIM_015.jpg
1970.166	0.446	correct	congruent	Block2	congruent/STIM_015.jpg
1974.212	0.793	correct	congruent	Block2	congruent/STIM_015.jpg
1977.555	0.732	correct	congruent	Block2	congruent/STIM_015.jpg
1980.525	0.765	incorrect	congruent	Block2	congruent/STIM_016.jpg
1984.847	0.572	correct	congruent	Block2	congruent/STIM_016.jpg
1987.979	0.725	correct	congruent	Block2	congruent/STIM_016.jpg
1991.342	0.521	incorrect	congruent	Block2	congruent/STIM_016.jpg
1995.075	0.542	correct	congruent	Block2	congruent/STIM_016.jpg
1998.774	0.784	correct	congruent	Block2	congruent/STIM_017.jpg
2002.882	0.752	incorrect	congruent	Block2	congruent/STIM_017.jpg
2006.498	0.554	correct	congruent	Block2	congruent/STIM_017.jpg
2009.7	0.602	correct	congruent	Block2	congruent/STIM_017.jpg
2013.822	0.532	correct	congruent	Block2	congruent/STIM_017.jpg
2018.002	0.556	correct	congruent	Block2	congruent/STIM_018.jpg
2021.503	0.628	correct	congruent	Block2	congruent/STIM_018.jpg
2025.509	0.489	correct	congruent	Block2	congruent/STIM_018.jpg
2029.136	0.598	incorrect	congruent	Block2	congruent/STIM_018.jpg
2032.982	0.486	correct	congruent	Block2	congruent/STIM_018.jpg
2036.437	0.585	correct	congruent	Block2	congruent/STIM_019.jpg
2041.015	0.705	incorrect	congruent	Block2	congruent/STIM_019.jpg
2044.517	0.775	correct	congruent	Block2	congruent/STIM_019.jpg
2047.99	0.606	correct	congruent	Block2	congruent/STIM_019.jpg
2052.435	0.554	correct	congruent	Block2	congruent/STIM_019.jpg
2055.543	0.777	correct	congruent	Block2	congruent/STIM_020.jpg
2059.415	0.794	correct	congruent	Block2	congruent/STIM_020.jpg
2062.217	0.607	incorrect	congruent	Block2	congruent/STIM_020.jpg
2064.837	0.527	correct	congruent	Block2	congruent/STIM_020.jpg
2067.46	0.568	correct	congruent	Block2	congruent/STIM_020.jpg
2070.879	0.713	incorrect	congruent	Block2	congruent/STIM_021.jpg
2074.992	0.753	correct	congruent	Block2	congruent/STIM_021.jpg
2079.047	0.468	correct	congruent	Block2	congruent/STIM_021.jpg
2082.014	0.695	correct	congruent	Block2	congruent/STIM_021.jpg
2085.699	0.654	incorrect	congruent	Block2	congruent/STIM_021.jpg
2090.021	0.517	correct	congruent	Block2	congruent/STIM_022.jpg
2094.066	0.672	incorrect	congruent	Block2	congruent/STIM_022.jpg
2098.386	0.494	correct	congruent	Block2	congruent/STIM_022.jpg
2101.892	0.505	correct	congruent	Block2	congruent/STIM_022.jpg
2105.793	0.782	correct	congruent	Block2	congruent/STIM_022.jpg
2109.893	0.655	incorrect	congruent	Block2	congruent/STIM_023.jpg
2114.447	0.622	incorrect	congruent	Block2	congruent/STIM_023.jpg
2118.751	0.466	incorrect	congruent	Block2	congruent/STIM_023.jpg
2121.703	0.787	correct	congruent	Block2	congruent/STIM_023.jpg
2124.968	0.588	correct	congruent	Block2	congruent/STIM_023.jpg
2128.562	0.59	correct	congruent	Block2	congruent/STIM_024.jpg
2132.218	0.705	correct	congruent	Block2	congruent/STIM_024.jpg
2136.183	0.71	incorrect	congruent	Block2	congruent/STIM_024.jpg
2140.148	0.593	correct	congruent	Block2	congruent/STIM_024.jpg
2144.669	0.662	correct	congruent	Block2	congruent/STIM_024.jpg
2147.752	0.706	correct	congruent	Block2	congruent/STIM_025.jpg
2151.987	0.742	correct	congruent	Block2	congruent/STIM_025.jpg
2156.274	0.454	incorrect	congruent	Block2	congruent/STIM_025.jpg
2160.485	0.626	correct	congruent	Block2	congruent/STIM_025.jpg
2164.532	0.762	correct	congruent	Block2	congruent/STIM_025.jpg
2167.361	0.754	incorrect	congruent	Block2	congruent/STIM_026.jpg
2171.651	0.53	incorrect	congruent	Block2	congruent/STIM_026.jpg
2175.334	0.801	incorrect	congruent	Block2	congruent/STIM_026.jpg
2179.192	0.475	correct	congruent	Block2	congruent/STIM_026.jpg
2182.641	0.483	incorrect	congruent	Block2	congruent/STIM_026.jpg
2185.407	0.461	incorrect	congruent	Block2	congruent/STIM_027.jpg
2187.974	0.794	correct	congruent	Block2	congruent/STIM_027.jpg
2191.239	0.723	correct	congruent	Block2	congruent/STIM_027.jpg
2194.076	0.68	incorrect	congruent	Block2	congruent/STIM_027.jpg
2198.02	0.565	correct	congruent	Block2	congruent/STIM_027.jpg
2201.588	0.785	correct	congruent	Block2	congruent/STIM_028.jpg
2206.241	0.666	correct	congruent	Block2	congruent/STIM_028.jpg
2209.422	0.467	correct	congruent	Block2	congruent/STIM_028.jpg
2212.001	0.784	correct	congruent	Block2	congruent/STIM_028.jpg
2215.782	0.602	correct	congruent	Block2	congruent/STIM_028.jpg
2218.458	0.52	correct	congruent	Block2	congruent/STIM_029.jpg
2221.766	0.596	correct	congruent	Block2	congruent/STIM_029.jpg
2226.246	0.511	correct	congruent	Block2	congruent/STIM_029.jpg
2228.807	0.576	incorrect	congruent	Block2	congruent/STIM_029.jpg
2232.535	0.569	correct	congruent	Block2	congruent/STIM_029.jpg
2236.84	0.921	correct	incongruent	Block3	incongruent/STIM_000.jpg
2241.743	0.9	correct	incongruent	Block3	incongruent/STIM_000.jpg
2244.661	0.594	correct	incongruent	Block3	incongruent/STIM_000.jpg
2247.48	0.712	correct	incongruent	Block3	incongruent/STIM_000.jpg
2252.075	0.521	correct	incongruent	Block3	incongruent/STIM_000.jpg
2254.668	0.55	correct	incongruent	Block3	incongruent/STIM_001.jpg
2258.992	0.45	correct	incongruent	Block3	incongruent/STIM_001.jpg
2261.514	0.81	correct	incongruent	Block3	incongruent/STIM_001.jpg
2264.881	0.78	incorrect	incongruent	Block3	incongruent/STIM_001.jpg
2269.523	0.692	correct	incongruent	Block3	incongruent/STIM_001.jpg
2272.865	0.72	incorrect	incongruent	Block3	incongruent/STIM_002.jpg
2276.095	0.571	correct	incongruent	Block3	incongruent/STIM_002.jpg
2280.531	0.826	correct	incongruent	Block3	incongruent/STIM_002.jpg
2283.756	0.829	correct	incongruent	Block3	incongruent/STIM_002.jpg
2287.766	0.475	correct	incongruent	Block3	incongruent/STIM_002.jpg
2291.984	0.834	incorrect	incongruent	Block3	incongruent/STIM_003.jpg
2295.813	0.909	correct	incongruent	Block3	incongruent/STIM_003.jpg
2300.094	0.513	correct	incongruent	Block3	incongruent/STIM_003.jpg
2303.881	0.861	correct	incongruent	Block3	incongruent/STIM_003.jpg
2308.439	0.771	correct	incongruent	Block3	incongruent/STIM_003.jpg
2311.305	0.904	correct	incongruent	Block3	incongruent/STIM_004.jpg
2314.32	0.766	correct	incongruent	Block3	incongruent/STIM_004.jpg
2317.267	0.597	correct	incongruent	Block3	incongruent/STIM_004.jpg
2321.471	0.597	correct	incongruent	Block3	incongruent/STIM_004.jpg
2325.517	0.891	correct	incongruent	Block3	incongruent/STIM_004.jpg
2328.944	0.844	correct	incongruent	Block3	incongruent/STIM_005.jpg
2332.304	0.551	incorrect	incongruent	Block3	incongruent/STIM_005.jpg
2335.308	0.755	correct	incongruent	Block3	incongruent/STIM_005.jpg
2338.649	0.807	correct	incongruent	Block3	incongruent/STIM_005.jpg
2341.526	0.513	correct	incongruent	Block3	incongruent/STIM_005.jpg
2345.349	0.653	correct	incongruent	Block3	incongruent/STIM_006.jpg
2348.959	0.727	correct	incongruent	Block3	incongruent/STIM_006.jpg
2351.904	0.76	correct	incongruent	Block3	incongruent/STIM_006.jpg
2354.788	0.518	correct	incongruent	Block3	incongruent/STIM_006.jpg
2358.561	0.738	correct	incongruent	Block3	incongruent/STIM_006.jpg
2361.346	0.592	correct	incongruent	Block3	incongruent/STIM_007.jpg
2364.894	0.531	incorrect	incongruent	Block3	incongruent/STIM_007.jpg
2369.024	0.83	correct	incongruent	Block3	incongruent/STIM_007.jpg
2373.155	0.555	correct	incongruent	Block3	incongruent/STIM_007.jpg
2377.521	0.525	incorrect	incongruent	Block3	incongruent/STIM_007.jpg
2380.968	0.777	correct	incongruent	Block3	incongruent/STIM_008.jpg
2385.647	0.608	incorrect	incongruent	Block3	incongruent/STIM_008.jpg
2388.484	0.486	correct	incongruent	Block3	incongruent/STIM_008.jpg
2392.839	0.711	correct	incongruent	Block3	incongruent/STIM_008.jpg
2396.439	0.651	incorrect	incongruent	Block3	incongruent/STIM_008.jpg
2399.474	0.787	correct	incongruent	Block3	incongruent/STIM_009.jpg
2403.83	0.784	incorrect	incongruent	Block3	incongruent/STIM_009.jpg
2407.593	0.932	correct	incongruent	Block3	incongruent/STIM_009.jpg
2410.749	0.572	incorrect	incongruent	Block3	incongruent/STIM_009.jpg
2414.966	0.644	correct	incongruent	Block3	incongruent/STIM_009.jpg
2418.25	0.783	correct	incongruent	Block3	incongruent/STIM_010.jpg
2422.859	0.529	correct	incongruent	Block3	incongruent/STIM_010.jpg
2426.374	0.792	correct	incongruent	Block3	incongruent/STIM_010.jpg
2429.767	0.903	correct	incongruent	Block3	incongruent/STIM_010.jpg
2433.69	0.897	correct	incongruent	Block3	incongruent/STIM_010.jpg
2436.802	0.692	correct	incongruent	Block3	incongruent/STIM_011.jpg
2441.188	0.698	correct	incongruent	Block3	incongruent/STIM_011.jpg
2443.959	0.491	incorrect	incongruent	Block3	incongruent/STIM_011.jpg
2446.883	0.75	correct	incongruent	Block3	incongruent/STIM_011.jpg
2451.159	0.7	correct	incongruent	Block3	incongruent/STIM_011.jpg
2455.691	0.46	correct	incongruent	Block3	incongruent/STIM_012.jpg
2458.902	0.721	correct	incongruent	Block3	incongruent/STIM_012.jpg
2462.91	0.704	correct	incongruent	Block3	incongruent/STIM_012.jpg
2466.259	0.889	correct	incongruent	Block3	incongruent/STIM_012.jpg
2470.583	0.536	correct	incongruent	Block3	incongruent/STIM_012.jpg
2474.336	0.742	correct	incongruent	Block3	incongruent/STIM_013.jpg
2478.603	0.594	correct	incongruent	Block3	incongruent/STIM_013.jpg
2481.354	0.498	correct	incongruent	Block3	incongruent/STIM_013.jpg
2485.692	0.557	correct	incongruent	Block3	incongruent/STIM_013.jpg
2490.013	0.759	correct	incongruent	Block3	incongruent/STIM_013.jpg
2493.694	0.762	correct	incongruent	Block3	incongruent/STIM_014.jpg
2497.772	0.812	correct	incongruent	Block3	incongruent/STIM_014.jpg
2501.39	0.797	correct	incongruent	Block3	incongruent/STIM_014.jpg
2504.758	0.758	correct	incongruent	Block3	incongruent/STIM_014.jpg
2508.308	0.709	correct	incongruent	Block3	incongruent/STIM_014.jpg
2512.248	0.902	correct	incongruent	Block3	incongruent/STIM_015.jpg
2516.742	0.56	correct	incongruent	Block3	incongruent/STIM_015.jpg
2520.702	0.924	correct	incongruent	Block3	incongruent/STIM_015.jpg
2525.527	0.762	incorrect	incongruent	Block3	incongruent/STIM_015.jpg
2528.331	0.857	correct	incongruent	Block3	incongruent/STIM_015.jpg
2531.329	0.849	correct	incongruent	Block3	incongruent/STIM_016.jpg
2536.138	0.559	correct	incongruent	Block3	incongruent/STIM_016.jpg
2539.263	0.861	correct	incongruent	Block3	incongruent/STIM_016.jpg
2542.31	0.542	correct	incongruent	Block3	incongruent/STIM_016.jpg
2545.79	0.686	correct	incongruent	Block3	incongruent/STIM_016.jpg
2549.449	0.926	correct	incongruent	Block3	incongruent/STIM_017.jpg
2552.835	0.494	correct	incongruent	Block3	incongruent/STIM_017.jpg
2557.174	0.902	correct	incongruent	Block3	incongruent/STIM_017.jpg
2561.053	0.547	correct	incongruent	Block3	incongruent/STIM_017.jpg
2564.871	0.527	correct	incongruent	Block3	incongruent/STIM_017.jpg
2568.198	0.817	correct	incongruent	Block3	incongruent/STIM_018.jpg
2572.172	0.689	incorrect	incongruent	Block3	incongruent/STIM_018.jpg
2575.468	0.58	correct	incongruent	Block3	incongruent/STIM_018.jpg
2579.526	0.848	correct	incongruent	Block3	incongruent/STIM_018.jpg
2583.837	0.571	correct	incongruent	Block3	incongruent/STIM_018.jpg
2588.106	0.846	correct	incongruent	Block3	incongruent/STIM_019.jpg
2591.002	0.792	correct	incongruent	Block3	incongruent/STIM_019.jpg
2595.555	0.598	correct	incongruent	Block3	incongruent/STIM_019.jpg
2599.933	0.481	correct	incongruent	Block3	incongruent/STIM_019.jpg
2602.84	0.482	correct	incongruent	Block3	incongruent/STIM_019.jpg
2606.234	0.9	correct	incongruent	Block3	incongruent/STIM_020.jpg
2609.53	0.624	correct	incongruent	Block3	incongruent/STIM_020.jpg
2613.987	0.738	correct	incongruent	Block3	incongruent/STIM_020.jpg
2617.191	0.77	correct	incongruent	Block3	incongruent/STIM_020.jpg
2621.495	0.766	correct	incongruent	Block3	incongruent/STIM_020.jpg
2625.209	0.54	correct	incongruent	Block3	incongruent/STIM_021.jpg
2629.092	0.562	correct	incongruent	Block3	incongruent/STIM_021.jpg
2632.362	0.561	correct	incongruent	Block3	incongruent/STIM_021.jpg
2635.434	0.644	correct	incongruent	Block3	incongruent/STIM_021.jpg
2639.361	0.565	correct	incongruent	Block3	incongruent/STIM_021.jpg
2642.84	0.906	correct	incongruent	Block3	incongruent/STIM_022.jpg
2646.329	0.797	correct	incongruent	Block3	incongruent/STIM_022.jpg
2649.733	0.549	correct	incongruent	Block3	incongruent/STIM_022.jpg
2652.923	0.909	correct	incongruent	Block3	incongruent/STIM_022.jpg
2655.917	0.53	incorrect	incongruent	Block3	incongruent/STIM_022.jpg
2659.527	0.441	correct	incongruent	Block3	incongruent/STIM_023.jpg
2663.452	0.728	correct	incongruent	Block3	incongruent/STIM_023.jpg
2666.557	0.536	correct	incongruent	Block3	incongruent/STIM_023.jpg
2670.985	0.575	correct	incongruent	Block3	incongruent/STIM_023.jpg
2673.967	0.875	correct	incongruent	Block3	incongruent/STIM_023.jpg
2678.779	0.543	correct	incongruent	Block3	incongruent/STIM_024.jpg
2682.272	0.662	correct	incongruent	Block3	incongruent/STIM_024.jpg
2686.069	0.491	correct	incongruent	Block3	incongruent/STIM_024.jpg
2689.962	0.666	correct	incongruent	Block3	incongruent/STIM_024.jpg
2693.09	0.554	correct	incongruent	Block3	incongruent/STIM_024.jpg
2696.545	0.792	correct	incongruent	Block3	incongruent/STIM_025.jpg
2699.414	0.634	correct	incongruent	Block3	incongruent/STIM_025.jpg
2703.282	0.83	correct	incongruent	Block3	incongruent/STIM_025.jpg
2706.512	0.576	correct	incongruent	Block3	incongruent/STIM_025.jpg
2709.625	0.649	correct	incongruent	Block3	incongruent/STIM_025.jpg
2712.819	0.917	correct	incongruent	Block3	incongruent/STIM_026.jpg
2717.588	0.516	correct	incongruent	Block3	incongruent/STIM_026.jpg
2720.734	0.742	correct	incongruent	Block3	incongruent/STIM_026.jpg
2725.464	0.518	correct	incongruent	Block3	incongruent/STIM_026.jpg
2728.468	0.461	correct	incongruent	Block3	incongruent/STIM_026.jpg
2731.093	0.925	correct	incongruent	Block3	incongruent/STIM_027.jpg
2734.543	0.652	correct	incongruent	Block3	incongruent/STIM_027.jpg
2738.067	0.777	correct	incongruent	Block3	incongruent/STIM_027.jpg
2741.351	0.849	correct	incongruent	Block3	incongruent/STIM_027.jpg
2744.527	0.739	correct	incongruent	Block3	incongruent/STIM_027.jpg
2747.874	0.8	correct	incongruent	Block3	incongruent/STIM_028.jpg
2751.471	0.708	correct	incongruent	Block3	incongruent/STIM_028.jpg
2755.618	0.598	correct	incongruent	Block3	incongruent/STIM_028.jpg
2758.57	0.657	incorrect	incongruent	Block3	incongruent/STIM_028.jpg
2762.722	0.824	correct	incongruent	Block3	incongruent/STIM_028.jpg
2766.512	0.883	correct	incongruent	Block3	incongruent/STIM_029.jpg
2771.135	0.835	correct	incongruent	Block3	incongruent/STIM_029.jpg
2774.607	0.638	correct	incongruent	Block3	incongruent/STIM_029.jpg
2777.528	0.829	correct	incongruent	Block3	incongruent/STIM_029.jpg
2780.449	0.852	correct	incongruent	Block3	incongruent/STIM_029.jpg
2783.999	0.699	correct	congruent	Block3	congruent/STIM_000.jpg
2787.174	0.517	correct	congruent	Block3	congruent/STIM_000.jpg
2791.179	0.79	correct	congruent	Block3	congruent/STIM_000.jpg
2794.563	0.735	incorrect	congruent	Block3	congruent/STIM_000.jpg
2798.821	0.563	correct	congruent	Block3	congruent/STIM_000.jpg
2803.277	0.514	correct	congruent	Block3	congruent/STIM_001.jpg
2807.722	0.658	correct	congruent	Block3	congruent/STIM_001.jpg
2810.499	0.637	correct	congruent	Block3	congruent/STIM_001.jpg
2814.447	0.78	incorrect	congruent	Block3	congruent/STIM_001.jpg
2819.127	0.708	correct	congruent	Block3	congruent/STIM_001.jpg
2823.324	0.632	incorrect	congruent	Block3	congruent/STIM_002.jpg
2827.531	0.552	correct	congruent	Block3	congruent/STIM_002.jpg
2831.626	0.515	incorrect	congruent	Block3	congruent/STIM_002.jpg
2834.593	0.8	correct	congruent	Block3	congruent/STIM_002.jpg
2838.633	0.673	correct	congruent	Block3	congruent/STIM_002.jpg
2843.18	0.648	correct	congruent	Block3	congruent/STIM_003.jpg
2846.404	0.743	correct	congruent	Block3	congruent/STIM_003.jpg
2849.4	0.62	correct	congruent	Block3	congruent/STIM_003.jpg
2853.583	0.738	incorrect	congruent	Block3	congruent/STIM_003.jpg
2857.996	0.775	correct	congruent	Block3	congruent/STIM_003.jpg
2861.061	0.458	correct	congruent	Block3	congruent/STIM_004.jpg
2864.894	0.77	correct	congruent	Block3	congruent/STIM_004.jpg
2868.568	0.607	correct	congruent	Block3	congruent/STIM_004.jpg
2872.595	0.672	correct	congruent	Block3	congruent/STIM_004.jpg
2876.504	0.704	correct	congruent	Block3	congruent/STIM_004.jpg
2880.657	0.622	correct	congruent	Block3	congruent/STIM_005.jpg
2883.366	0.522	correct	congruent	Block3	congruent/STIM_005.jpg
2887.661	0.474	correct	congruent	Block3	congruent/STIM_005.jpg
2891.413	0.544	correct	congruent	Block3	congruent/STIM_005.jpg
2894.562	0.713	correct	congruent	Block3	congruent/STIM_005.jpg
2898.331	0.682	incorrect	congruent	Block3	congruent/STIM_006.jpg
2901.283	0.51	correct	congruent	Block3	congruent/STIM_006.jpg
2903.8	0.473	incorrect	congruent	Block3	congruent/STIM_006.jpg
2907.442	0.632	correct	congruent	Block3	congruent/STIM_006.jpg
2910.145	0.751	incorrect	congruent	Block3	congruent/STIM_006.jpg
2914.314	0.447	correct	congruent	Block3	congruent/STIM_007.jpg
2917.346	0.635	correct	congruent	Block3	congruent/STIM_007.jpg
2921.219	0.636	correct	congruent	Block3	congruent/STIM_007.jpg
2925.427	0.687	correct	congruent	Block3	congruent/STIM_007.jpg
2929.678	0.696	correct	congruent	Block3	congruent/STIM_007.jpg
2932.621	0.726	correct	congruent	Block3	congruent/STIM_008.jpg
2936.629	0.478	correct	congruent	Block3	congruent/STIM_008.jpg
2939.674	0.658	correct	congruent	Block3	congruent/STIM_008.jpg
2943.493	0.638	correct	congruent	Block3	congruent/STIM_008.jpg
2946.351	0.568	correct	congruent	Block3	congruent/STIM_008.jpg
2950.76	0.727	correct	congruent	Block3	congruent/STIM_009.jpg
2954.437	0.45	correct	congruent	Block3	congruent/STIM_009.jpg
2957.808	0.688	correct	congruent	Block3	congruent/STIM_009.jpg
2960.91	0.717	correct	congruent	Block3	congruent/STIM_009.jpg
2964.989	0.677	incorrect	congruent	Block3	congruent/STIM_009.jpg
2968.53	0.689	incorrect	congruent	Block3	congruent/STIM_010.jpg
2972.028	0.633	correct	congruent	Block3	congruent/STIM_010.jpg
2975.232	0.491	correct	congruent	Block3	congruent/STIM_010.jpg
2978.248	0.449	correct	congruent	Block3	congruent/STIM_010.jpg
2981.411	0.629	correct	congruent	Block3	congruent/STIM_010.jpg
2985.271	0.556	correct	congruent	Block3	congruent/STIM_011.jpg
2989.386	0.74	incorrect	congruent	Block3	congruent/STIM_011.jpg
2992.712	0.755	incorrect	congruent	Block3	congruent/STIM_011.jpg
2996.962	0.609	correct	congruent	Block3	congruent/STIM_011.jpg
3001.189	0.625	correct	congruent	Block3	congruent/STIM_011.jpg
3004.013	0.634	correct	congruent	Block3	congruent/STIM_012.jpg
3006.76	0.758	correct	congruent	Block3	congruent/STIM_012.jpg
3010.926	0.793	correct	congruent	Block3	congruent/STIM_012.jpg
3014.574	0.739	correct	congruent	Block3	congruent/STIM_012.jpg
3017.785	0.712	incorrect	congruent	Block3	congruent/STIM_012.jpg
3021.182	0.713	incorrect	congruent	Block3	congruent/STIM_013.jpg
3025.783	0.474	correct	congruent	Block3	congruent/STIM_013.jpg
3029.865	0.54	incorrect	congruent	Block3	congruent/STIM_013.jpg
3034.173	0.725	correct	congruent	Block3	congruent/STIM_013.jpg
3038.086	0.62	correct	congruent	Block3	congruent/STIM_013.jpg
3040.8	0.697	correct	congruent	Block3	congruent/STIM_014.jpg
3044.902	0.538	correct	congruent	Block3	congruent/STIM_014.jpg
3049.093	0.678	correct	congruent	Block3	congruent/STIM_014.jpg
3053.36	0.673	correct	congruent	Block3	congruent/STIM_014.jpg
3057.403	0.553	correct	congruent	Block3	congruent/STIM_014.jpg
3060.566	0.495	correct	congruent	Block3	congruent/STIM_015.jpg
3064.655	0.675	correct	congruent	Block3	congruent/STIM_015.jpg
3068.718	0.503	correct	congruent	Block3	congruent/STIM_015.jpg
3072.862	0.721	correct	congruent	Block3	congruent/STIM_015.jpg
3077.015	0.678	correct	congruent	Block3	congruent/STIM_015.jpg
3080.133	0.712	correct	congruent	Block3	congruent/STIM_016.jpg
3084.567	0.455	correct	congruent	Block3	congruent/STIM_016.jpg
3088.58	0.529	correct	congruent	Block3	congruent/STIM_016.jpg
3093.057	0.802	correct	congruent	Block3	congruent/STIM_016.jpg
3097.655	0.578	correct	congruent	Block3	congruent/STIM_016.jpg
3101.956	0.719	correct	congruent	Block3	congruent/STIM_017.jpg
3105.319	0.517	correct	congruent	Block3	congruent/STIM_017.jpg
3108.631	0.76	correct	congruent	Block3	congruent/STIM_017.jpg
3111.651	0.71	incorrect	congruent	Block3	congruent/STIM_017.jpg
3114.903	0.586	correct	congruent	Block3	congruent/STIM_017.jpg
3117.709	0.518	correct	congruent	Block3	congruent/STIM_018.jpg
3121.44	0.484	correct	congruent	Block3	congruent/STIM_018.jpg
3125.676	0.474	incorrect	congruent	Block3	congruent/STIM_018.jpg
3129.586	0.682	correct	congruent	Block3	congruent/STIM_018.jpg
3132.473	0.598	correct	congruent	Block3	congruent/STIM_018.jpg
3135.376	0.698	correct	congruent	Block3	congruent/STIM_019.jpg
3140.054	0.53	correct	congruent	Block3	congruent/STIM_019.jpg
3144.339	0.556	correct	congruent	Block3	congruent/STIM_019.jpg
3147.049	0.61	correct	congruent	Block3	congruent/STIM_019.jpg
3151.208	0.509	correct	congruent	Block3	congruent/STIM_019.jpg
3154.632	0.504	correct	congruent	Block3	congruent/STIM_020.jpg
3157.974	0.614	correct	congruent	Block3	congruent/STIM_020.jpg
3161.752	0.68	incorrect	congruent	Block3	congruent/STIM_020.jpg
3166.158	0.46	correct	congruent	Block3	congruent/STIM_020.jpg
3169.224	0.471	correct	congruent	Block3	congruent/STIM_020.jpg
3173.436	0.521	correct	congruent	Block3	congruent/STIM_021.jpg
3177.896	0.504	incorrect	congruent	Block3	congruent/STIM_021.jpg
3181.235	0.513	correct	congruent	Block3	congruent/STIM_021.jpg
3185.228	0.488	correct	congruent	Block3	congruent/STIM_021.jpg
3188.571	0.451	correct	congruent	Block3	congruent/STIM_021.jpg
3191.881	0.496	incorrect	congruent	Block3	congruent/STIM_022.jpg
3196.149	0.647	correct	congruent	Block3	congruent/STIM_022.jpg
3199.865	0.458	correct	congruent	Block3	congruent/STIM_022.jpg
3203.068	0.611	correct	congruent	Block3	congruent/STIM_022.jpg
3205.781	0.479	correct	congruent	Block3	congruent/STIM_022.jpg
3209.979	0.723	correct	congruent	Block3	congruent/STIM_023.jpg
3214.391	0.512	correct	congruent	Block3	congruent/STIM_023.jpg
3217.911	0.602	correct	congruent	Block3	congruent/STIM_023.jpg
3222.39	0.51	correct	congruent	Block3	congruent/STIM_023.jpg
3225.356	0.616	correct	congruent	Block3	congruent/STIM_023.jpg
3228.989	0.484	correct	congruent	Block3	congruent/STIM_024.jpg
3231.61	0.595	correct	congruent	Block3	congruent/STIM_024.jpg
3235.144	0.67	correct	congruent	Block3	congruent/STIM_024.jpg
3239.798	0.527	correct	congruent	Block3	congruent/STIM_024.jpg
3242.95	0.541	incorrect	congruent	Block3	congruent/STIM_024.jpg
3246.027	0.595	correct	congruent	Block3	congruent/STIM_025.jpg
3250.16	0.768	correct	congruent	Block3	congruent/STIM_025.jpg
3253.696	0.777	correct	congruent	Block3	congruent/STIM_025.jpg
3257.242	0.615	correct	congruent	Block3	congruent/STIM_025.jpg
3260.742	0.792	correct	congruent	Block3	congruent/STIM_025.jpg
3264.624	0.737	incorrect	congruent	Block3	congruent/STIM_026.jpg
3267.807	0.66	correct	congruent	Block3	congruent/STIM_026.jpg
3271.564	0.718	correct	congruent	Block3	congruent/STIM_026.jpg
3275.743	0.752	correct	congruent	Block3	congruent/STIM_026.jpg
3279.635	0.624	correct	congruent	Block3	congruent/STIM_026.jpg
3282.915	0.765	correct	congruent	Block3	congruent/STIM_027.jpg
3287.322	0.768	correct	congruent	Block3	congruent/STIM_027.jpg
3290.219	0.764	correct	congruent	Block3	congruent/STIM_027.jpg
3294.614	0.7	correct	congruent	Block3	congruent/STIM_027.jpg
3297.964	0.541	correct	congruent	Block3	congruent/STIM_027.jpg
3301.205	0.732	correct	congruent	Block3	congruent/STIM_028.jpg
3305.431	0.624	correct	congruent	Block3	congruent/STIM_028.jpg
3308.809	0.726	correct	congruent	Block3	congruent/STIM_028.jpg
3312.344	0.685	correct	congruent	Block3	congruent/STIM_028.jpg
3315.667	0.647	correct	congruent	Block3	congruent/STIM_028.jpg
3318.335	0.502	incorrect	congruent	Block3	congruent/STIM_029.jpg
3321.737	0.751	correct	congruent	Block3	congruent/STIM_029.jpg
3325.543	0.746	correct	congruent	Block3	congruent/STIM_029.jpg
3329.647	0.468	correct	congruent	Block3	congruent/STIM_029.jpg
3333.318	0.537	correct	congruent	Block3	congruent/STIM_029.jpg
