onset	duration	accuracy_binary	trial_type	learning_stage	stimulus
0.0	0.93	0	2back	Block1	2back/STIM_000.jpg
4.603	0.996	1	2back	Block1	2back/STIM_000.jpg
8.574	0.983	1	2back	Block1	2back/STIM_000.jpg
13.567	0.895	1	2back	Block1	2back/STIM_001.jpg
18.566	0.828	1	2back	Block1	2back/STIM_001.jpg
23.117	0.757	1	2back	Block1	2back/STIM_001.jpg
27.745	0.605	1	2back	Block1	2back/STIM_002.jpg
32.248	0.773	1	2back	Block1	2back/STIM_002.jpg
36.921	0.9	1	2back	Block1	2back/STIM_002.jpg
41.487	0.855	1	2back	Block1	2back/STIM_003.jpg
45.791	0.544	1	2back	Block1	2back/STIM_003.jpg
49.448	1.013	0	2back	Block1	2back/STIM_003.jpg
54.038	1.017	1	2back	Block1	2back/STIM_004.jpg
58.37	0.812	1	2back	Block1	2back/STIM_004.jpg
63.003	0.852	1	2back	Block1	2back/STIM_004.jpg
67.792	0.862	1	2back	Block1	2back/STIM_005.jpg
71.826	0.603	1	2back	Block1	2back/STIM_005.jpg
75.481	0.965	1	2back	Block1	2back/STIM_005.jpg
79.179	0.544	0	2back	Block1	2back/STIM_006.jpg
82.831	0.772	1	2back	Block1	2back/STIM_006.jpg
86.058	1.084	1	2back	Block1	2back/STIM_006.jpg
90.212	1.169	1	2back	Block1	2back/STIM_007.jpg
94.39	1.068	1	2back	Block1	2back/STIM_007.jpg
98.444	0.756	1	2back	Block1	2back/STIM_007.jpg
101.935	0.803	1	2back	Block1	2back/STIM_008.jpg
105.377	1.014	1	2back	Block1	2back/STIM_008.jpg
110.368	0.535	1	2back	Block1	2back/STIM_008.jpg
113.987	0.695	1	2back	Block1	2back/STIM_009.jpg
117.45	0.691	1	2back	Block1	2back/STIM_009.jpg
122.065	0.531	1	2back	Block1	2back/STIM_009.jpg
126.621	0.684	1	2back	Block1	2back/STIM_010.jpg
130.108	0.876	1	2back	Block1	2back/STIM_010.jpg
134.83	1.082	1	2back	Block1	2back/STIM_010.jpg
138.08	1.151	1	2back	Block1	2back/STIM_011.jpg
141.735	1.036	1	2back	Block1	2back/STIM_011.jpg
145.41	0.821	0	2back	Block1	2back/STIM_011.jpg
149.435	0.716	1	2back	Block1	2back/STIM_012.jpg
152.652	0.863	0	2back	Block1	2back/STIM_012.jpg
156.034	0.673	1	2back	Block1	2back/STIM_012.jpg
158.928	0.623	0	2back	Block1	2back/STIM_013.jpg
161.861	0.742	1	2back	Block1	2back/STIM_013.jpg
164.806	0.587	1	2back	Block1	2back/STIM_013.jpg
167.937	1.176	1	2back	Block1	2back/STIM_014.jpg
172.598	0.572	1	2back	Block1	2back/STIM_014.jpg
176.041	0.746	1	2back	Block1	2back/STIM_014.jpg
179.829	0.618	0	2back	Block1	2back/STIM_015.jpg
183.653	0.504	1	2back	Block1	2back/STIM_015.jpg
186.273	0.925	0	2back	Block1	2back/STIM_015.jpg
189.988	0.991	1	2back	Block1	2back/STIM_016.jpg
193.83	0.52	1	2back	Block1	2back/STIM_016.jpg
196.942	0.483	1	2back	Block1	2back/STIM_016.jpg
200.706	1.001	1	2back	Block1	2back/STIM_017.jpg
205.614	0.649	1	2back	Block1	2back/STIM_017.jpg
208.528	0.788	1	2back	Block1	2back/STIM_017.jpg
211.848	0.991	1	2back	Block1	2back/STIM_018.jpg
216.029	0.68	0	2back	Block1	2back/STIM_018.jpg
219.706	0.952	1	2back	Block1	2back/STIM_018.jpg
224.317	1.173	1	2back	Block1	2back/STIM_019.jpg
229.109	0.803	1	2back	Block1	2back/STIM_019.jpg
233.201	0.879	1	2back	Block1	2back/STIM_019.jpg
237.467	0.831	1	2back	Block1	2back/STIM_020.jpg
242.407	1.123	1	2back	Block1	2back/STIM_020.jpg
247.649	0.847	1	2back	Block1	2back/STIM_020.jpg
252.175	1.028	0	2back	Block1	2back/STIM_021.jpg
257.05	1.13	1	2back	Block1	2back/STIM_021.jpg
260.82	0.503	1	2back	Block1	2back/STIM_021.jpg
263.454	0.99	1	2back	Block1	2back/STIM_022.jpg
267.448	1.087	1	2back	Block1	2back/STIM_022.jpg
271.442	1.015	1	2back	Block1	2back/STIM_022.jpg
274.682	0.802	0	2back	Block1	2back/STIM_023.jpg
279.361	0.602	1	2back	Block1	2back/STIM_023.jpg
282.156	0.485	1	2back	Block1	2back/STIM_023.jpg
285.64	0.592	0	2back	Block1	2back/STIM_024.jpg
289.174	0.905	1	2back	Block1	2back/STIM_024.jpg
292.416	0.88	1	2back	Block1	2back/STIM_024.jpg
295.544	0.607	1	2back	Block1	2back/STIM_025.jpg
298.323	0.896	1	2back	Block1	2back/STIM_025.jpg
302.134	1.068	1	2back	Block1	2back/STIM_025.jpg
306.55	0.562	1	2back	Block1	2back/STIM_026.jpg
309.779	0.603	1	2back	Block1	2back/STIM_026.jpg
312.993	0.77	1	2back	Block1	2back/STIM_026.jpg
316.575	0.708	1	2back	Block1	2back/STIM_027.jpg
319.615	0.894	1	2back	Block1	2back/STIM_027.jpg
324.597	0.783	1	2back	Block1	2back/STIM_027.jpg
327.652	1.076	1	2back	Block1	2back/STIM_028.jpg
331.199	0.779	1	2back	Block1	2back/STIM_028.jpg
334.135	0.716	1	2back	Block1	2back/STIM_028.jpg
337.434	0.957	1	2back	Block1	2back/STIM_029.jpg
342.133	0.623	0	2back	Block1	2back/STIM_029.jpg
345.592	0.74	1	2back	Block1	2back/STIM_029.jpg
350.17	0.7	0	2back	Block1	2back/STIM_030.jpg
353.512	0.734	1	2back	Block1	2back/STIM_030.jpg
356.477	0.631	1	2back	Block1	2back/STIM_030.jpg
361.175	0.933	1	2back	Block1	2back/STIM_031.jpg
364.44	1.072	1	2back	Block1	2back/STIM_031.jpg
369.528	0.868	1	2back	Block1	2back/STIM_031.jpg
373.216	0.837	0	2back	Block1	2back/STIM_032.jpg
377.601	0.873	0	2back	Block1	2back/STIM_032.jpg
381.81	0.837	1	2back	Block1	2back/STIM_032.jpg
384.905	0.72	1	2back	Block1	2back/STIM_033.jpg
389.644	0.506	1	2back	Block1	2back/STIM_033.jpg
392.295	0.955	0	2back	Block1	2back/STIM_033.jpg
395.533	0.777	0	2back	Block1	2back/STIM_034.jpg
399.547	0.609	1	2back	Block1	2back/STIM_034.jpg
402.864	0.801	0	2back	Block1	2back/STIM_034.jpg
407.119	0.608	1	2back	Block1	2back/STIM_035.jpg
411.492	1.034	1	2back	Block1	2back/STIM_035.jpg
415.229	1.005	1	2back	Block1	2back/STIM_035.jpg
419.84	0.703	0	2back	Block1	2back/STIM_036.jpg
423.388	0.68	1	2back	Block1	2back/STIM_036.jpg
426.541	0.749	1	2back	Block1	2back/STIM_036.jpg
431.394	1.2	1	2back	Block1	2back/STIM_037.jpg
436.289	0.703	1	2back	Block1	2back/STIM_037.jpg
440.084	0.888	1	2back	Block1	2back/STIM_037.jpg
444.445	0.849	1	2back	Block1	2back/STIM_038.jpg
449.223	0.813	1	2back	Block1	2back/STIM_038.jpg
453.3	0.54	1	2back	Block1	2back/STIM_038.jpg
457.905	0.68	1	2back	Block1	2back/STIM_039.jpg
461.459	1.022	1	2back	Block1	2back/STIM_039.jpg
464.791	0.706	1	2back	Block1	2back/STIM_039.jpg
468.933	0.358	1	0back	Block1	0back/STIM_000.jpg
472.603	0.392	1	0back	Block1	0back/STIM_000.jpg
477.014	0.656	1	0back	Block1	0back/STIM_000.jpg
480.48	0.671	1	0back	Block1	0back/STIM_001.jpg
483.926	0.676	1	0back	Block1	0back/STIM_001.jpg
487.718	0.506	1	0back	Block1	0back/STIM_001.jpg
491.823	0.42	1	0back	Block1	0back/STIM_002.jpg
496.141	0.571	1	0back	Block1	0back/STIM_002.jpg
500.732	0.431	1	0back	Block1	0back/STIM_002.jpg
503.825	0.581	1	0back	Block1	0back/STIM_003.jpg
507.228	0.691	1	0back	Block1	0back/STIM_003.jpg
511.29	0.348	0	0back	Block1	0back/STIM_003.jpg
515.491	0.514	1	0back	Block1	0back/STIM_004.jpg
519.92	0.614	1	0back	Block1	0back/STIM_004.jpg
523.034	0.411	1	0back	Block1	0back/STIM_004.jpg
526.198	0.621	1	0back	Block1	0back/STIM_005.jpg
529.345	0.672	1	0back	Block1	0back/STIM_005.jpg
533.986	0.616	1	0back	Block1	0back/STIM_005.jpg
537.947	0.582	1	0back	Block1	0back/STIM_006.jpg
542.384	0.516	1	0back	Block1	0back/STIM_006.jpg
545.174	0.365	1	0back	Block1	0back/STIM_006.jpg
548.13	0.355	1	0back	Block1	0back/STIM_007.jpg
552.25	0.659	1	0back	Block1	0back/STIM_007.jpg
555.199	0.379	1	0back	Block1	0back/STIM_007.jpg
558.563	0.546	1	0back	Block1	0back/STIM_008.jpg
561.582	0.545	1	0back	Block1	0back/STIM_008.jpg
566.15	0.49	1	0back	Block1	0back/STIM_008.jpg
569.255	0.634	1	0back	Block1	0back/STIM_009.jpg
572.315	0.49	1	0back	Block1	0back/STIM_009.jpg
574.886	0.585	1	0back	Block1	0back/STIM_009.jpg
579.208	0.532	1	0back	Block1	0back/STIM_010.jpg
583.352	0.58	1	0back	Block1	0back/STIM_010.jpg
587.589	0.661	0	0back	Block1	0back/STIM_010.jpg
592.054	0.67	1	0back	Block1	0back/STIM_011.jpg
595.518	0.486	1	0back	Block1	0back/STIM_011.jpg
599.793	0.559	1	0back	Block1	0back/STIM_011.jpg
602.604	0.529	1	0back	Block1	0back/STIM_012.jpg
606.905	0.592	1	0back	Block1	0back/STIM_012.jpg
609.815	0.426	1	0back	Block1	0back/STIM_012.jpg
613.824	0.501	1	0back	Block1	0back/STIM_013.jpg
617.458	0.672	1	0back	Block1	0back/STIM_013.jpg
621.084	0.464	1	0back	Block1	0back/STIM_013.jpg
625.213	0.461	1	0back	Block1	0back/STIM_014.jpg
629.298	0.669	1	0back	Block1	0back/STIM_014.jpg
632.197	0.613	1	0back	Block1	0back/STIM_014.jpg
636.568	0.611	1	0back	Block1	0back/STIM_015.jpg
639.704	0.416	1	0back	Block1	0back/STIM_015.jpg
642.396	0.436	0	0back	Block1	0back/STIM_015.jpg
645.544	0.655	1	0back	Block1	0back/STIM_016.jpg
648.342	0.588	1	0back	Block1	0back/STIM_016.jpg
651.289	0.371	1	0back	Block1	0back/STIM_016.jpg
655.531	0.45	1	0back	Block1	0back/STIM_017.jpg
659.292	0.648	1	0back	Block1	0back/STIM_017.jpg
663.913	0.561	0	0back	Block1	0back/STIM_017.jpg
667.832	0.616	1	0back	Block1	0back/STIM_018.jpg
672.455	0.609	1	0back	Block1	0back/STIM_018.jpg
676.366	0.554	1	0back	Block1	0back/STIM_018.jpg
679.659	0.542	1	0back	Block1	0back/STIM_019.jpg
682.699	0.362	1	0back	Block1	0back/STIM_019.jpg
685.37	0.532	1	0back	Block1	0back/STIM_019.jpg
688.757	0.823	1	2back	Block2	2back/STIM_000.jpg
692.897	0.63	0	2back	Block2	2back/STIM_000.jpg
697.542	0.853	1	2back	Block2	2back/STIM_000.jpg
700.851	0.571	1	2back	Block2	2back/STIM_001.jpg
703.702	0.448	1	2back	Block2	2back/STIM_001.jpg
706.731	0.676	1	2back	Block2	2back/STIM_001.jpg
711.401	0.776	0	2back	Block2	2back/STIM_002.jpg
714.541	0.929	1	2back	Block2	2back/STIM_002.jpg
718.683	0.778	1	2back	Block2	2back/STIM_002.jpg
722.15	0.484	1	2back	Block2	2back/STIM_003.jpg
726.639	0.905	0	2back	Block2	2back/STIM_003.jpg
731.45	0.669	1	2back	Block2	2back/STIM_003.jpg
734.857	0.601	1	2back	Block2	2back/STIM_004.jpg
739.223	0.78	1	2back	Block2	2back/STIM_004.jpg
743.247	0.558	1	2back	Block2	2back/STIM_004.jpg
746.92	0.878	1	2back	Block2	2back/STIM_005.jpg
751.424	0.544	1	2back	Block2	2back/STIM_005.jpg
754.707	0.678	1	2back	Block2	2back/STIM_005.jpg
757.639	0.685	1	2back	Block2	2back/STIM_006.jpg
761.018	0.842	1	2back	Block2	2back/STIM_006.jpg
765.942	0.851	1	2back	Block2	2back/STIM_006.jpg
769.386	0.579	1	2back	Block2	2back/STIM_007.jpg
773.641	0.918	1	2back	Block2	2back/STIM_007.jpg
777.67	0.874	1	2back	Block2	2back/STIM_007.jpg
781.278	0.521	1	2back	Block2	2back/STIM_008.jpg
784.008	0.932	1	2back	Block2	2back/STIM_008.jpg
788.65	0.56	1	2back	Block2	2back/STIM_008.jpg
793.279	0.571	1	2back	Block2	2back/STIM_009.jpg
796.583	0.87	1	2back	Block2	2back/STIM_009.jpg
801.513	0.476	1	2back	Block2	2back/STIM_009.jpg
804.837	0.776	0	2back	Block2	2back/STIM_010.jpg
807.743	0.603	1	2back	Block2	2back/STIM_010.jpg
811.69	0.421	1	2back	Block2	2back/STIM_010.jpg
814.982	0.81	1	2back	Block2	2back/STIM_011.jpg
819.242	0.635	1	2back	Block2	2back/STIM_011.jpg
823.226	0.817	1	2back	Block2	2back/STIM_011.jpg
827.323	0.54	0	2back	Block2	2back/STIM_012.jpg
830.484	0.477	1	2back	Block2	2back/STIM_012.jpg
833.811	0.824	1	2back	Block2	2back/STIM_012.jpg
837.606	0.578	1	2back	Block2	2back/STIM_013.jpg
841.463	0.48	1	2back	Block2	2back/STIM_013.jpg
844.07	0.55	1	2back	Block2	2back/STIM_013.jpg
847.557	0.862	1	2back	Block2	2back/STIM_014.jpg
851.8	0.442	1	2back	Block2	2back/STIM_014.jpg
854.414	0.826	1	2back	Block2	2back/STIM_014.jpg
857.421	0.697	1	2back	Block2	2back/STIM_015.jpg
861.237	0.78	1	2back	Block2	2back/STIM_015.jpg
864.773	0.477	1	2back	Block2	2back/STIM_015.jpg
869.186	0.933	1	2back	Block2	2back/STIM_016.jpg
873.137	0.569	1	2back	Block2	2back/STIM_016.jpg
877.078	0.712	1	2back	Block2	2back/STIM_016.jpg
880.403	0.679	1	2back	Block2	2back/STIM_017.jpg
884.669	0.894	1	2back	Block2	2back/STIM_017.jpg
889.55	0.408	1	2back	Block2	2back/STIM_017.jpg
892.312	0.657	1	2back	Block2	2back/STIM_018.jpg
896.322	0.959	0	2back	Block2	2back/STIM_018.jpg
900.822	0.7	1	2back	Block2	2back/STIM_018.jpg
904.245	0.674	1	2back	Block2	2back/STIM_019.jpg
909.004	0.829	1	2back	Block2	2back/STIM_019.jpg
912.862	0.566	1	2back	Block2	2back/STIM_019.jpg
915.981	0.536	0	2back	Block2	2back/STIM_020.jpg
919.43	0.651	1	2back	Block2	2back/STIM_020.jpg
923.069	0.475	1	2back	Block2	2back/STIM_020.jpg
927.186	0.458	1	2back	Block2	2back/STIM_021.jpg
931.713	0.759	1	2back	Block2	2back/STIM_021.jpg
934.703	0.799	1	2back	Block2	2back/STIM_021.jpg
939.291	0.945	0	2back	Block2	2back/STIM_022.jpg
943.116	0.864	1	2back	Block2	2back/STIM_022.jpg
947.275	0.793	1	2back	Block2	2back/STIM_022.jpg
950.828	0.547	1	2back	Block2	2back/STIM_023.jpg
954.767	0.782	1	2back	Block2	2back/STIM_023.jpg
958.983	0.598	1	2back	Block2	2back/STIM_023.jpg
962.928	0.981	1	2back	Block2	2back/STIM_024.jpg
966.13	0.641	1	2back	Block2	2back/STIM_024.jpg
969.237	0.839	1	2back	Block2	2back/STIM_024.jpg
973.629	0.893	1	2back	Block2	2back/STIM_025.jpg
977.463	0.455	0	2back	Block2	2back/STIM_025.jpg
980.669	0.448	1	2back	Block2	2back/STIM_025.jpg
984.796	0.779	1	2back	Block2	2back/STIM_026.jpg
989.646	0.766	1	2back	Block2	2back/STIM_026.jpg
993.609	0.66	1	2back	Block2	2back/STIM_026.jpg
997.364	0.983	1	2back	Block2	2back/STIM_027.jpg
1000.577	0.536	1	2back	Block2	2back/STIM_027.jpg
1004.273	0.52	1	2back	Block2	2back/STIM_027.jpg
1008.786	0.562	1	2back	Block2	2back/STIM_028.jpg
1012.847	0.777	1	2back	Block2	2back/STIM_028.jpg
1017.27	0.808	1	2back	Block2	2back/STIM_028.jpg
1021.267	0.644	1	2back	Block2	2back/STIM_029.jpg
1025.879	0.885	1	2back	Block2	2back/STIM_029.jpg
1030.198	0.436	1	2back	Block2	2back/STIM_029.jpg
1034.012	0.583	0	2back	Block2	2back/STIM_030.jpg
1037.496	0.599	1	2back	Block2	2back/STIM_030.jpg
1041.235	0.73	0	2back	Block2	2back/STIM_030.jpg
1044.767	1.03	1	2back	Block2	2back/STIM_031.jpg
1049.16	0.46	1	2back	Block2	2back/STIM_031.jpg
1052.732	0.392	1	2back	Block2	2back/STIM_031.jpg
1057.051	0.561	1	2back	Block2	2back/STIM_032.jpg
1061.128	0.721	1	2back	Block2	2back/STIM_032.jpg
1065.343	0.443	1	2back	Block2	2back/STIM_032.jpg
1067.885	0.49	1	2back	Block2	2back/STIM_033.jpg
1071.488	0.601	1	2back	Block2	2back/STIM_033.jpg
1075.588	0.437	1	2back	Block2	2back/STIM_033.jpg
1078.754	1.015	1	2back	Block2	2back/STIM_034.jpg
1083.644	0.829	1	2back	Block2	2back/STIM_034.jpg
1088.387	0.657	1	2back	Block2	2back/STIM_034.jpg
1092.419	0.981	1	2back	Block2	2back/STIM_035.jpg
1097.518	0.912	1	2back	Block2	2back/STIM_035.jpg
1100.789	0.751	1	2back	Block2	2back/STIM_035.jpg
1103.836	0.456	1	2back	Block2	2back/STIM_036.jpg
1108.304	0.418	1	2back	Block2	2back/STIM_036.jpg
1112.401	0.709	1	2back	Block2	2back/STIM_036.jpg
1117.098	0.593	1	2back	Block2	2back/STIM_037.jpg
1120.024	0.879	1	2back	Block2	2back/STIM_037.jpg
1124.34	0.559	0	2back	Block2	2back/STIM_037.jpg
1128.6	0.749	1	2back	Block2	2back/STIM_038.jpg
1131.554	0.891	1	2back	Block2	2back/STIM_038.jpg
1136.509	0.661	1	2back	Block2	2back/STIM_038.jpg
1139.423	0.754	1	2back	Block2	2back/STIM_039.jpg
1142.937	0.726	1	2back	Block2	2back/STIM_039.jpg
1147.172	0.644	1	2back	Block2	2back/STIM_039.jpg
1151.712	0.403	1	0back	Block2	0back/STIM_000.jpg
1155.971	0.543	1	0back	Block2	0back/STIM_000.jpg
1159.822	0.501	1	0back	Block2	0back/STIM_000.jpg
1163.983	0.607	1	0back	Block2	0back/STIM_001.jpg
1168.655	0.662	1	0back	Block2	0back/STIM_001.jpg
1172.681	0.566	1	0back	Block2	0back/STIM_001.jpg
1176.443	0.366	1	0back	Block2	0back/STIM_002.jpg
1179.891	0.523	1	0back	Block2	0back/STIM_002.jpg
1183.496	0.574	1	0back	Block2	0back/STIM_002.jpg
1186.42	0.564	1	0back	Block2	0back/STIM_003.jpg
1190.593	0.449	1	0back	Block2	0back/STIM_003.jpg
1194.51	0.434	1	0back	Block2	0back/STIM_003.jpg
1198.079	0.396	1	0back	Block2	0back/STIM_004.jpg
1202.225	0.486	0	0back	Block2	0back/STIM_004.jpg
1206.304	0.525	1	0back	Block2	0back/STIM_004.jpg
1210.523	0.52	1	0back	Block2	0back/STIM_005.jpg
1213.312	0.473	1	0back	Block2	0back/STIM_005.jpg
1216.224	0.526	1	0back	Block2	0back/STIM_005.jpg
1219.115	0.398	1	0back	Block2	0back/STIM_006.jpg
1221.868	0.667	1	0back	Block2	0back/STIM_006.jpg
1226.388	0.592	1	0back	Block2	0back/STIM_006.jpg
1229.549	0.402	1	0back	Block2	0back/STIM_007.jpg
1233.321	0.398	1	0back	Block2	0back/STIM_007.jpg
1236.447	0.524	1	0back	Block2	0back/STIM_007.jpg
1240.586	0.56	1	0back	Block2	0back/STIM_008.jpg
1244.195	0.56	1	0back	Block2	0back/STIM_008.jpg
1247.664	0.356	1	0back	Block2	0back/STIM_008.jpg
1251.932	0.633	1	0back	Block2	0back/STIM_009.jpg
1255.68	0.402	1	0back	Block2	0back/STIM_009.jpg
1259.594	0.449	1	0back	Block2	0back/STIM_009.jpg
1263.729	0.459	1	0back	Block2	0back/STIM_010.jpg
1268.02	0.477	1	0back	Block2	0back/STIM_010.jpg
1270.866	0.364	1	0back	Block2	0back/STIM_010.jpg
1274.731	0.506	1	0back	Block2	0back/STIM_011.jpg
1277.322	0.42	1	0back	Block2	0back/STIM_011.jpg
1281.221	0.391	1	0back	Block2	0back/STIM_011.jpg
1284.008	0.433	1	0back	Block2	0back/STIM_012.jpg
1286.994	0.502	1	0back	Block2	0back/STIM_012.jpg
1289.755	0.445	1	0back	Block2	0back/STIM_012.jpg
1293.797	0.488	1	0back	Block2	0back/STIM_013.jpg
1297.456	0.563	1	0back	Block2	0back/STIM_013.jpg
1300.115	0.406	1	0back	Block2	0back/STIM_013.jpg
1302.647	0.643	1	0back	Block2	0back/STIM_014.jpg
1306.619	0.47	1	0back	Block2	0back/STIM_014.jpg
1310.785	0.457	1	0back	Block2	0back/STIM_014.jpg
1314.593	0.648	1	0back	Block2	0back/STIM_015.jpg
1318.468	0.532	1	0back	Block2	0back/STIM_015.jpg
1321.497	0.659	1	0back	Block2	0back/STIM_015.jpg
1324.549	0.384	1	0back	Block2	0back/STIM_016.jpg
1328.173	0.52	1	0back	Block2	0back/STIM_016.jpg
1332.334	0.387	1	0back	Block2	0back/STIM_016.jpg
1335.256	0.641	1	0back	Block2	0back/STIM_017.jpg
1339.536	0.662	1	0back	Block2	0back/STIM_017.jpg
1343.744	0.664	1	0back	Block2	0back/STIM_017.jpg
1346.75	0.614	1	0back	Block2	0back/STIM_018.jpg
1349.627	0.638	1	0back	Block2	0back/STIM_018.jpg
1354.022	0.648	1	0back	Block2	0back/STIM_018.jpg
1358.463	0.406	1	0back	Block2	0back/STIM_019.jpg
1362.119	0.41	1	0back	Block2	0back/STIM_019.jpg
1365.722	0.601	1	0back	Block2	0back/STIM_019.jpg
1369.171	0.65	1	2back	Block3	2back/STIM_000.jpg
1373.049	0.623	1	2back	Block3	2back/STIM_000.jpg
1377.379	0.437	1	2back	Block3	2back/STIM_000.jpg
1381.865	0.598	1	2back	Block3	2back/STIM_001.jpg
1386.188	0.713	1	2back	Block3	2back/STIM_001.jpg
1389.899	0.408	1	2back	Block3	2back/STIM_001.jpg
1393.384	0.459	1	2back	Block3	2back/STIM_002.jpg
1396.975	0.414	1	2back	Block3	2back/STIM_002.jpg
1401.23	0.436	0	2back	Block3	2back/STIM_002.jpg
1403.983	0.404	1	2back	Block3	2back/STIM_003.jpg
1407.779	0.542	0	2back	Block3	2back/STIM_003.jpg
1411.232	0.48	1	2back	Block3	2back/STIM_003.jpg
1415.66	0.809	1	2back	Block3	2back/STIM_004.jpg
1419.011	0.507	1	2back	Block3	2back/STIM_004.jpg
1422.838	0.525	1	2back	Block3	2back/STIM_004.jpg
1426.844	0.46	1	2back	Block3	2back/STIM_005.jpg
1430.687	0.495	1	2back	Block3	2back/STIM_005.jpg
1434.702	0.761	1	2back	Block3	2back/STIM_005.jpg
1437.618	0.742	1	2back	Block3	2back/STIM_006.jpg
1441.196	0.442	1	2back	Block3	2back/STIM_006.jpg
1444.027	0.691	1	2back	Block3	2back/STIM_006.jpg
1448.052	0.698	1	2back	Block3	2back/STIM_007.jpg
1451.182	0.754	1	2back	Block3	2back/STIM_007.jpg
1455.626	0.427	1	2back	Block3	2back/STIM_007.jpg
1459.506	0.744	1	2back	Block3	2back/STIM_008.jpg
1462.381	0.49	1	2back	Block3	2back/STIM_008.jpg
1465.545	0.57	1	2back	Block3	2back/STIM_008.jpg
1470.045	0.769	1	2back	Block3	2back/STIM_009.jpg
1473.047	0.812	1	2back	Block3	2back/STIM_009.jpg
1476.893	0.41	1	2back	Block3	2back/STIM_009.jpg
1479.871	0.467	1	2back	Block3	2back/STIM_010.jpg
1483.935	0.603	1	2back	Block3	2back/STIM_010.jpg
1487.868	0.798	1	2back	Block3	2back/STIM_010.jpg
1490.797	0.551	1	2back	Block3	2back/STIM_011.jpg
1494.218	0.844	1	2back	Block3	2back/STIM_011.jpg
1498.376	0.701	1	2back	Block3	2back/STIM_011.jpg
1501.218	0.547	1	2back	Block3	2back/STIM_012.jpg
1505.269	0.726	1	2back	Block3	2back/STIM_012.jpg
1509.423	0.517	1	2back	Block3	2back/STIM_012.jpg
1512.627	0.567	1	2back	Block3	2back/STIM_013.jpg
1515.995	0.447	1	2back	Block3	2back/STIM_013.jpg
1519.264	0.452	1	2back	Block3	2back/STIM_013.jpg
1522.613	0.635	1	2back	Block3	2back/STIM_014.jpg
1526.949	0.402	1	2back	Block3	2back/STIM_014.jpg
1529.506	0.382	1	2back	Block3	2back/STIM_014.jpg
1533.146	0.781	1	2back	Block3	2back/STIM_015.jpg
1536.594	0.818	1	2back	Block3	2back/STIM_015.jpg
1539.864	0.446	1	2back	Block3	2back/STIM_015.jpg
1543.755	0.418	1	2back	Block3	2back/STIM_016.jpg
1546.713	0.404	0	2back	Block3	2back/STIM_016.jpg
1549.29	0.734	1	2back	Block3	2back/STIM_016.jpg
1553.543	0.689	1	2back	Block3	2back/STIM_017.jpg
1556.726	0.789	1	2back	Block3	2back/STIM_017.jpg
1559.974	0.715	1	2back	Block3	2back/STIM_017.jpg
1563.807	0.393	1	2back	Block3	2back/STIM_018.jpg
1567.757	0.662	1	2back	Block3	2back/STIM_018.jpg
1572.085	0.543	0	2back	Block3	2back/STIM_018.jpg
1575.338	0.485	1	2back	Block3	2back/STIM_019.jpg
1579.878	0.532	1	2back	Block3	2back/STIM_019.jpg
1583.87	0.811	1	2back	Block3	2back/STIM_019.jpg
1588.752	0.49	1	2back	Block3	2back/STIM_020.jpg
1591.669	0.61	1	2back	Block3	2back/STIM_020.jpg
1596.229	0.538	1	2back	Block3	2back/STIM_020.jpg
1600.321	0.565	1	2back	Block3	2back/STIM_021.jpg
1603.018	0.588	1	2back	Block3	2back/STIM_021.jpg
1606.904	0.598	1	2back	Block3	2back/STIM_021.jpg
1610.84	0.561	1	2back	Block3	2back/STIM_022.jpg
1613.922	0.786	1	2back	Block3	2back/STIM_022.jpg
1617.204	0.58	1	2back	Block3	2back/STIM_022.jpg
1621.823	0.415	1	2back	Block3	2back/STIM_023.jpg
1624.461	0.646	1	2back	Block3	2back/STIM_023.jpg
1628.184	0.848	1	2back	Block3	2back/STIM_023.jpg
1632.363	0.769	1	2back	Block3	2back/STIM_024.jpg
1635.929	0.448	1	2back	Block3	2back/STIM_024.jpg
1639.943	0.425	1	2back	Block3	2back/STIM_024.jpg
1642.946	0.527	1	2back	Block3	2back/STIM_025.jpg
1647.17	0.526	1	2back	Block3	2back/STIM_025.jpg
1651.598	0.807	1	2back	Block3	2back/STIM_025.jpg
1654.983	0.759	1	2back	Block3	2back/STIM_026.jpg
1659.273	0.553	1	2back	Block3	2back/STIM_026.jpg
1662.75	0.387	0	2back	Block3	2back/STIM_026.jpg
1666.568	0.556	0	2back	Block3	2back/STIM_027.jpg
1671.007	0.384	1	2back	Block3	2back/STIM_027.jpg
1673.851	0.62	1	2back	Block3	2back/STIM_027.jpg
1676.798	0.788	1	2back	Block3	2back/STIM_028.jpg
1681.553	0.824	1	2back	Block3	2back/STIM_028.jpg
1685.132	0.535	1	2back	Block3	2back/STIM_028.jpg
1689.192	0.667	1	2back	Block3	2back/STIM_029.jpg
1693.046	0.842	1	2back	Block3	2back/STIM_029.jpg
1698.01	0.534	1	2back	Block3	2back/STIM_029.jpg
1701.413	0.701	1	2back	Block3	2back/STIM_030.jpg
1705.563	0.388	1	2back	Block3	2back/STIM_030.jpg
1708.636	0.758	1	2back	Block3	2back/STIM_030.jpg
1712.12	0.749	1	2back	Block3	2back/STIM_031.jpg
1716.545	0.437	1	2back	Block3	2back/STIM_031.jpg
1720.832	0.649	1	2back	Block3	2back/STIM_031.jpg
1724.847	0.596	1	2back	Block3	2back/STIM_032.jpg
1728.137	0.398	1	2back	Block3	2back/STIM_032.jpg
1731.615	0.554	1	2back	Block3	2back/STIM_032.jpg
1734.542	0.745	1	2back	Block3	2back/STIM_033.jpg
1738.163	0.544	1	2back	Block3	2back/STIM_033.jpg
1741.399	0.654	1	2back	Block3	2back/STIM_033.jpg
1745.66	0.661	1	2back	Block3	2back/STIM_034.jpg
1749.568	0.571	1	2back	Block3	2back/STIM_034.jpg
1753.529	0.403	1	2back	Block3	2back/STIM_034.jpg
1756.212	0.448	1	2back	Block3	2back/STIM_035.jpg
1759.681	0.673	1	2back	Block3	2back/STIM_035.jpg
1763.2	0.547	1	2back	Block3	2back/STIM_035.jpg
1766.399	0.714	1	2back	Block3	2back/STIM_036.jpg
1769.399	0.478	1	2back	Block3	2back/STIM_036.jpg
1773.242	0.393	1	2back	Block3	2back/STIM_036.jpg
1776.333	0.643	1	2back	Block3	2back/STIM_037.jpg
1779.508	0.704	1	2back	Block3	2back/STIM_037.jpg
1782.881	0.499	1	2back	Block3	2back/STIM_037.jpg
1785.511	0.614	1	2back	Block3	2back/STIM_038.jpg
1789.599	0.769	1	2back	Block3	2back/STIM_038.jpg
1792.785	0.829	1	2back	Block3	2back/STIM_038.jpg
1796.175	0.732	1	2back	Block3	2back/STIM_039.jpg
1800.086	0.702	1	2back	Block3	2back/STIM_039.jpg
1804.032	0.669	1	2back	Block3	2back/STIM_039.jpg
1807.514	0.455	1	0back	Block3	0back/STIM_000.jpg
1810.985	0.668	1	0back	Block3	0back/STIM_000.jpg
1814.357	0.68	1	0back	Block3	0back/STIM_000.jpg
1818.595	0.657	1	0back	Block3	0back/STIM_001.jpg
1821.698	0.578	1	0back	Block3	0back/STIM_001.jpg
1826.258	0.585	1	0back	Block3	0back/STIM_001.jpg
1829.906	0.554	1	0back	Block3	0back/STIM_002.jpg
1832.83	0.407	1	0back	Block3	0back/STIM_002.jpg
1836.638	0.432	1	0back	Block3	0back/STIM_002.jpg
1840.957	0.598	1	0back	Block3	0back/STIM_003.jpg
1845.257	0.392	0	0back	Block3	0back/STIM_003.jpg
1848.896	0.663	1	0back	Block3	0back/STIM_003.jpg
1851.916	0.481	1	0back	Block3	0back/STIM_004.jpg
1855.562	0.604	1	0back	Block3	0back/STIM_004.jpg
1858.564	0.688	1	0back	Block3	0back/STIM_004.jpg
1861.961	0.454	1	0back	Block3	0back/STIM_005.jpg
1866.057	0.647	1	0back	Block3	0back/STIM_005.jpg
1869.651	0.65	1	0back	Block3	0back/STIM_005.jpg
1872.849	0.67	1	0back	Block3	0back/STIM_006.jpg
1877.509	0.685	1	0back	Block3	0back/STIM_006.jpg
1880.863	0.461	1	0back	Block3	0back/STIM_006.jpg
1885.051	0.425	1	0back	Block3	0back/STIM_007.jpg
1889.441	0.483	1	0back	Block3	0back/STIM_007.jpg
1893.071	0.547	1	0back	Block3	0back/STIM_007.jpg
1896.962	0.476	1	0back	Block3	0back/STIM_008.jpg
1899.756	0.652	1	0back	Block3	0back/STIM_008.jpg
1902.74	0.414	1	0back	Block3	0back/STIM_008.jpg
1906.02	0.38	1	0back	Block3	0back/STIM_009.jpg
1910.13	0.541	1	0back	Block3	0back/STIM_009.jpg
1913.037	0.68	1	0back	Block3	0back/STIM_009.jpg
1915.973	0.577	1	0back	Block3	0back/STIM_010.jpg
1919.537	0.492	1	0back	Block3	0back/STIM_010.jpg
1922.514	0.383	1	0back	Block3	0back/STIM_010.jpg
1926.718	0.655	1	0back	Block3	0back/STIM_011.jpg
1930.903	0.468	1	0back	Block3	0back/STIM_011.jpg
1934.795	0.678	1	0back	Block3	0back/STIM_011.jpg
1938.65	0.581	1	0back	Block3	0back/STIM_012.jpg
1942.11	0.399	1	0back	Block3	0back/STIM_012.jpg
1945.579	0.376	1	0back	Block3	0back/STIM_012.jpg
1948.576	0.484	1	0back	Block3	0back/STIM_013.jpg
1951.617	0.431	1	0back	Block3	0back/STIM_013.jpg
1955.203	0.408	1	0back	Block3	0back/STIM_013.jpg
1958.538	0.415	1	0back	Block3	0back/STIM_014.jpg
1961.761	0.423	1	0back	Block3	0back/STIM_014.jpg
1965.13	0.551	1	0back	Block3	0back/STIM_014.jpg
1968.057	0.522	1	0back	Block3	0back/STIM_015.jpg
1972.28	0.597	1	0back	Block3	0back/STIM_015.jpg
1975.023	0.356	1	0back	Block3	0back/STIM_015.jpg
1978.444	0.639	1	0back	Block3	0back/STIM_016.jpg
1981.218	0.471	1	0back	Block3	0back/STIM_016.jpg
1983.981	0.595	1	0back	Block3	0back/STIM_016.jpg
1988.371	0.641	1	0back	Block3	0back/STIM_017.jpg
1992.961	0.383	1	0back	Block3	0back/STIM_017.jpg
1997.269	0.663	1	0back	Block3	0back/STIM_017.jpg
2000.453	0.509	1	0back	Block3	0back/STIM_018.jpg
2004.415	0.648	1	0back	Block3	0back/STIM_018.jpg
2008.671	0.351	1	0back	Block3	0back/STIM_018.jpg
2012.626	0.434	1	0back	Block3	0back/STIM_019.jpg
2015.998	0.418	1	0back	Block3	0back/STIM_019.jpg
2020.427	0.666	1	0back	Block3	0back/STIM_019.jpg
2024.629	0.406	1	2back	Block4	2back/STIM_000.jpg
2028.587	0.398	1	2back	Block4	2back/STIM_000.jpg
2031.837	0.622	1	2back	Block4	2back/STIM_000.jpg
2034.938	0.519	1	2back	Block4	2back/STIM_001.jpg
2037.641	0.708	1	2back	Block4	2back/STIM_001.jpg
2040.64	0.538	1	2back	Block4	2back/STIM_001.jpg
2044.145	0.381	1	2back	Block4	2back/STIM_002.jpg
2046.911	0.841	1	2back	Block4	2back/STIM_002.jpg
2050.995	0.652	1	2back	Block4	2back/STIM_002.jpg
2055.432	0.54	1	2back	Block4	2back/STIM_003.jpg
2058.372	0.716	1	2back	Block4	2back/STIM_003.jpg
2062.67	0.374	1	2back	Block4	2back/STIM_003.jpg
2065.775	0.463	1	2back	Block4	2back/STIM_004.jpg
2069.789	0.485	1	2back	Block4	2back/STIM_004.jpg
2072.609	0.777	1	2back	Block4	2back/STIM_004.jpg
2076.75	0.508	1	2back	Block4	2back/STIM_005.jpg
2080.48	0.665	1	2back	Block4	2back/STIM_005.jpg
2084.195	0.455	1	2back	Block4	2back/STIM_005.jpg
2087.333	0.49	1	2back	Block4	2back/STIM_006.jpg
2090.526	0.413	1	2back	Block4	2back/STIM_006.jpg
2094.598	0.751	1	2back	Block4	2back/STIM_006.jpg
2097.897	0.555	1	2back	Block4	2back/STIM_007.jpg
2102.35	0.413	1	2back	Block4	2back/STIM_007.jpg
2105.43	0.778	1	2back	Block4	2back/STIM_007.jpg
2110.309	0.57	1	2back	Block4	2back/STIM_008.jpg
2114.726	0.587	1	2back	Block4	2back/STIM_008.jpg
2118.983	0.433	1	2back	Block4	2back/STIM_008.jpg
2123.086	0.836	1	2back	Block4	2back/STIM_009.jpg
2127.461	0.689	1	2back	Block4	2back/STIM_009.jpg
2131.206	0.543	1	2back	Block4	2back/STIM_009.jpg
2134.873	0.381	1	2back	Block4	2back/STIM_010.jpg
2137.85	0.735	1	2back	Block4	2back/STIM_010.jpg
2140.781	0.603	1	2back	Block4	2back/STIM_010.jpg
2144.733	0.369	1	2back	Block4	2back/STIM_011.jpg
2147.165	0.788	1	2back	Block4	2back/STIM_011.jpg
2150.95	0.732	1	2back	Block4	2back/STIM_011.jpg
2155.666	0.743	1	2back	Block4	2back/STIM_012.jpg
2159.026	0.442	1	2back	Block4	2back/STIM_012.jpg
2162.405	0.757	1	2back	Block4	2back/STIM_012.jpg
2165.797	0.379	1	2back	Block4	2back/STIM_013.jpg
2169.87	0.582	1	2back	Block4	2back/STIM_013.jpg
2172.705	0.795	1	2back	Block4	2back/STIM_013.jpg
2176.926	0.786	1	2back	Block4	2back/STIM_014.jpg
2181.791	0.848	1	2back	Block4	2back/STIM_014.jpg
2186.071	0.759	1	2back	Block4	2back/STIM_014.jpg
2189.326	0.76	1	2back	Block4	2back/STIM_015.jpg
2193.454	0.459	1	2back	Block4	2back/STIM_015.jpg
2196.141	0.551	1	2back	Block4	2back/STIM_015.jpg
2199.09	0.716	1	2back	Block4	2back/STIM_016.jpg
2202.109	0.465	1	2back	Block4	2back/STIM_016.jpg
2205.277	0.754	0	2back	Block4	2back/STIM_016.jpg
2209.825	0.689	1	2back	Block4	2back/STIM_017.jpg
2214.282	0.438	1	2back	Block4	2back/STIM_017.jpg
2217.249	0.771	1	2back	Block4	2back/STIM_017.jpg
2220.279	0.602	1	2back	Block4	2back/STIM_018.jpg
2223.165	0.77	1	2back	Block4	2back/STIM_018.jpg
2226.906	0.542	0	2back	Block4	2back/STIM_018.jpg
2231.508	0.552	1	2back	Block4	2back/STIM_019.jpg
2234.904	0.61	1	2back	Block4	2back/STIM_019.jpg
2239.564	0.551	1	2back	Block4	2back/STIM_019.jpg
2244.199	0.821	1	2back	Block4	2back/STIM_020.jpg
2248.397	0.546	1	2back	Block4	2back/STIM_020.jpg
2251.462	0.473	1	2back	Block4	2back/STIM_020.jpg
2254.394	0.629	1	2back	Block4	2back/STIM_021.jpg
2257.217	0.745	1	2back	Block4	2back/STIM_021.jpg
2261.942	0.82	1	2back	Block4	2back/STIM_021.jpg
2265.768	0.573	1	2back	Block4	2back/STIM_022.jpg
2270.123	0.734	1	2back	Block4	2back/STIM_022.jpg
2274.957	0.647	1	2back	Block4	2back/STIM_022.jpg
2279.486	0.78	1	2back	Block4	2back/STIM_023.jpg
2283.595	0.618	1	2back	Block4	2back/STIM_023.jpg
2287.854	0.815	1	2back	Block4	2back/STIM_023.jpg
2292.346	0.46	0	2back	Block4	2back/STIM_024.jpg
2295.659	0.796	1	2back	Block4	2back/STIM_024.jpg
2300.25	0.6	1	2back	Block4	2back/STIM_024.jpg
2303.563	0.472	1	2back	Block4	2back/STIM_025.jpg
2306.787	0.435	1	2back	Block4	2back/STIM_025.jpg
2310.686	0.458	1	2back	Block4	2back/STIM_025.jpg
2313.734	0.478	1	2back	Block4	2back/STIM_026.jpg
2318.259	0.723	1	2back	Block4	2back/STIM_026.jpg
2322.961	0.437	1	2back	Block4	2back/STIM_026.jpg
2326.716	0.515	1	2back	Block4	2back/STIM_027.jpg
2330.316	0.843	1	2back	Block4	2back/STIM_027.jpg
2334.249	0.721	1	2back	Block4	2back/STIM_027.jpg
2337.429	0.71	1	2back	Block4	2back/STIM_028.jpg
2341.714	0.404	1	2back	Block4	2back/STIM_028.jpg
2345.667	0.571	1	2back	Block4	2back/STIM_028.jpg
2349.735	0.573	1	2back	Block4	2back/STIM_029.jpg
2353.539	0.386	1	2back	Block4	2back/STIM_029.jpg
2357.139	0.724	1	2back	Block4	2back/STIM_029.jpg
2361.192	0.415	1	2back	Block4	2back/STIM_030.jpg
2364.531	0.688	1	2back	Block4	2back/STIM_030.jpg
2367.485	0.386	1	2back	Block4	2back/STIM_030.jpg
2371.085	0.739	1	2back	Block4	2back/STIM_031.jpg
2374.35	0.591	1	2back	Block4	2back/STIM_031.jpg
2377.364	0.492	1	2back	Block4	2back/STIM_031.jpg
2381.605	0.594	1	2back	Block4	2back/STIM_032.jpg
2385.227	0.516	1	2back	Block4	2back/STIM_032.jpg
2388.779	0.448	1	2back	Block4	2back/STIM_032.jpg
2393.164	0.772	0	2back	Block4	2back/STIM_033.jpg
2396.939	0.611	1	2back	Block4	2back/STIM_033.jpg
2401.114	0.593	1	2back	Block4	2back/STIM_033.jpg
2403.901	0.653	1	2back	Block4	2back/STIM_034.jpg
2407.419	0.69	1	2back	Block4	2back/STIM_034.jpg
2410.527	0.421	1	2back	Block4	2back/STIM_034.jpg
2414.278	0.482	1	2back	Block4	2back/STIM_035.jpg
2417.004	0.575	1	2back	Block4	2back/STIM_035.jpg
2420.591	0.727	1	2back	Block4	2back/STIM_035.jpg
2424.341	0.776	1	2back	Block4	2back/STIM_036.jpg
2428.447	0.656	1	2back	Block4	2back/STIM_036.jpg
2432.623	0.771	1	2back	Block4	2back/STIM_036.jpg
2436.616	0.529	1	2back	Block4	2back/STIM_037.jpg
2439.412	0.74	1	2back	Block4	2back/STIM_037.jpg
2444.007	0.719	1	2back	Block4	2back/STIM_037.jpg
2448.135	0.768	1	2back	Block4	2back/STIM_038.jpg
2451.479	0.524	1	2back	Block4	2back/STIM_038.jpg
2455.686	0.712	1	2back	Block4	2back/STIM_038.jpg
2458.664	0.627	1	2back	Block4	2back/STIM_039.jpg
2462.369	0.732	1	2back	Block4	2back/STIM_039.jpg
2466.063	0.832	1	2back	Block4	2back/STIM_039.jpg
2470.916	0.594	1	0back	Block4	0back/STIM_000.jpg
2475.322	0.537	1	0back	Block4	0back/STIM_000.jpg
2478.573	0.464	1	0back	Block4	0back/STIM_000.jpg
2481.874	0.678	1	0back	Block4	0back/STIM_001.jpg
2485.026	0.375	1	0back	Block4	0back/STIM_001.jpg
2488.143	0.386	1	0back	Block4	0back/STIM_001.jpg
2492.414	0.507	1	0back	Block4	0back/STIM_002.jpg
2496.361	0.611	0	0back	Block4	0back/STIM_002.jpg
2500.47	0.673	1	0back	Block4	0back/STIM_002.jpg
2504.89	0.68	1	0back	Block4	0back/STIM_003.jpg
2507.69	0.43	1	0back	Block4	0back/STIM_003.jpg
2511.597	0.378	1	0back	Block4	0back/STIM_003.jpg
2515.427	0.425	1	0back	Block4	0back/STIM_004.jpg
2517.971	0.418	1	0back	Block4	0back/STIM_004.jpg
2522.145	0.581	1	0back	Block4	0back/STIM_004.jpg
2525.934	0.41	1	0back	Block4	0back/STIM_005.jpg
2529.6	0.69	1	0back	Block4	0back/STIM_005.jpg
2533.37	0.479	1	0back	Block4	0back/STIM_005.jpg
2536.826	0.646	1	0back	Block4	0back/STIM_006.jpg
2539.922	0.616	1	0back	Block4	0back/STIM_006.jpg
2542.651	0.665	1	0back	Block4	0back/STIM_006.jpg
2545.705	0.452	0	0back	Block4	0back/STIM_007.jpg
2548.777	0.488	1	0back	Block4	0back/STIM_007.jpg
2552.646	0.448	1	0back	Block4	0back/STIM_007.jpg
2555.352	0.354	1	0back	Block4	0back/STIM_008.jpg
2559.093	0.604	1	0back	Block4	0back/STIM_008.jpg
2563.182	0.412	1	0back	Block4	0back/STIM_008.jpg
2566.461	0.595	1	0back	Block4	0back/STIM_009.jpg
2570.288	0.465	1	0back	Block4	0back/STIM_009.jpg
2574.459	0.562	0	0back	Block4	0back/STIM_009.jpg
2578.733	0.579	1	0back	Block4	0back/STIM_010.jpg
2581.609	0.365	1	0back	Block4	0back/STIM_010.jpg
2585.283	0.64	1	0back	Block4	0back/STIM_010.jpg
2588.366	0.683	1	0back	Block4	0back/STIM_011.jpg
2591.966	0.39	1	0back	Block4	0back/STIM_011.jpg
2595.893	0.543	1	0back	Block4	0back/STIM_011.jpg
2599.506	0.673	1	0back	Block4	0back/STIM_012.jpg
2603.03	0.473	1	0back	Block4	0back/STIM_012.jpg
2607.099	0.501	1	0back	Block4	0back/STIM_012.jpg
2611.0	0.392	1	0back	Block4	0back/STIM_013.jpg
2614.914	0.643	1	0back	Block4	0back/STIM_013.jpg
2617.681	0.597	1	0back	Block4	0back/STIM_013.jpg
2621.723	0.367	1	0back	Block4	0back/STIM_014.jpg
2624.801	0.522	1	0back	Block4	0back/STIM_014.jpg
2627.595	0.402	1	0back	Block4	0back/STIM_014.jpg
2631.563	0.59	1	0back	Block4	0back/STIM_015.jpg
2636.008	0.426	1	0back	Block4	0back/STIM_015.jpg
2639.393	0.639	1	0back	Block4	0back/STIM_015.jpg
2642.288	0.644	1	0back	Block4	0back/STIM_016.jpg
2646.96	0.675	1	0back	Block4	0back/STIM_016.jpg
2650.224	0.545	1	0back	Block4	0back/STIM_016.jpg
2654.347	0.693	1	0back	Block4	0back/STIM_017.jpg
2658.021	0.652	1	0back	Block4	0back/STIM_017.jpg
2662.075	0.554	1	0back	Block4	0back/STIM_017.jpg
2665.768	0.574	1	0back	Block4	0back/STIM_018.jpg
2668.616	0.405	1	0back	Block4	0back/STIM_018.jpg
2671.134	0.601	1	0back	Block4	0back/STIM_018.jpg
2675.261	0.679	1	0back	Block4	0back/STIM_019.jpg
2678.212	0.543	1	0back	Block4	0back/STIM_019.jpg
2681.689	0.465	1	0back	Block4	0back/STIM_019.jpg
