onset	duration	accuracy_binary	trial_type	learning_stage	stimulus
0.0	1.957	0	generate	Run1	generate/STIM_000.jpg
4.926	2.828	1	generate	Run1	generate/STIM_000.jpg
10.454	2.655	1	generate	Run1	generate/STIM_000.jpg
14.9	1.901	0	generate	Run1	generate/STIM_000.jpg
18.86	1.085	1	generate	Run1	generate/STIM_000.jpg
23.605	1.843	1	generate	Run1	generate/STIM_001.jpg
28.424	1.85	1	generate	Run1	generate/STIM_001.jpg
33.378	2.482	0	generate	Run1	generate/STIM_001.jpg
38.936	1.8	1	generate	Run1	generate/STIM_001.jpg
43.835	1.315	1	generate	Run1	generate/STIM_001.jpg
48.38	2.62	1	generate	Run1	generate/STIM_002.jpg
52.892	2.359	1	generate	Run1	generate/STIM_002.jpg
57.739	2.765	1	generate	Run1	generate/STIM_002.jpg
62.691	2.292	1	generate	Run1	generate/STIM_002.jpg
67.087	1.784	1	generate	Run1	generate/STIM_002.jpg
71.623	1.884	0	generate	Run1	generate/STIM_003.jpg
75.974	2.919	1	generate	Run1	generate/STIM_003.jpg
82.149	2.844	1	generate	Run1	generate/STIM_003.jpg
88.419	1.846	1	generate	Run1	generate/STIM_003.jpg
92.286	2.572	1	generate	Run1	generate/STIM_003.jpg
98.496	2.286	0	generate	Run1	generate/STIM_004.jpg
103.404	1.344	1	generate	Run1	generate/STIM_004.jpg
107.91	1.399	1	generate	Run1	generate/STIM_004.jpg
111.496	1.829	1	generate	Run1	generate/STIM_004.jpg
115.747	1.516	1	generate	Run1	generate/STIM_004.jpg
119.84	1.404	1	generate	Run1	generate/STIM_005.jpg
123.247	1.372	1	generate	Run1	generate/STIM_005.jpg
128.439	1.272	0	generate	Run1	generate/STIM_005.jpg
131.643	1.87	0	generate	Run1	generate/STIM_005.jpg
137.103	1.251	1	generate	Run1	generate/STIM_005.jpg
141.468	2.723	0	generate	Run1	generate/STIM_006.jpg
147.303	2.182	1	generate	Run1	generate/STIM_006.jpg
152.404	2.232	0	generate	Run1	generate/STIM_006.jpg
158.075	1.421	1	generate	Run1	generate/STIM_006.jpg
162.251	1.088	1	generate	Run1	generate/STIM_006.jpg
165.885	3.348	0	generate	Run1	generate/STIM_007.jpg
172.249	1.408	0	generate	Run1	generate/STIM_007.jpg
176.623	1.375	1	generate	Run1	generate/STIM_007.jpg
180.932	1.187	1	generate	Run1	generate/STIM_007.jpg
184.986	2.278	1	generate	Run1	generate/STIM_007.jpg
190.189	1.901	1	generate	Run1	generate/STIM_008.jpg
195.646	2.538	1	generate	Run1	generate/STIM_008.jpg
201.833	2.526	1	generate	Run1	generate/STIM_008.jpg
206.131	2.565	0	generate	Run1	generate/STIM_008.jpg
211.744	1.982	1	generate	Run1	generate/STIM_008.jpg
215.968	1.871	0	generate	Run1	generate/STIM_009.jpg
220.202	1.367	1	generate	Run1	generate/STIM_009.jpg
224.05	2.735	1	generate	Run1	generate/STIM_009.jpg
228.547	1.158	1	generate	Run1	generate/STIM_009.jpg
233.212	2.384	1	generate	Run1	generate/STIM_009.jpg
238.113	1.931	1	generate	Run1	generate/STIM_010.jpg
243.671	3.152	1	generate	Run1	generate/STIM_010.jpg
249.094	1.461	1	generate	Run1	generate/STIM_010.jpg
253.581	2.026	1	generate	Run1	generate/STIM_010.jpg
259.224	1.952	1	generate	Run1	generate/STIM_010.jpg
264.674	1.767	1	generate	Run1	generate/STIM_011.jpg
269.187	1.778	0	generate	Run1	generate/STIM_011.jpg
272.924	1.647	0	generate	Run1	generate/STIM_011.jpg
278.135	1.812	0	generate	Run1	generate/STIM_011.jpg
282.635	1.568	1	generate	Run1	generate/STIM_011.jpg
287.398	2.341	1	generate	Run1	generate/STIM_012.jpg
292.003	2.768	1	generate	Run1	generate/STIM_012.jpg
297.196	1.607	1	generate	Run1	generate/STIM_012.jpg
301.173	1.904	1	generate	Run1	generate/STIM_012.jpg
306.293	1.909	1	generate	Run1	generate/STIM_012.jpg
311.405	1.438	1	generate	Run1	generate/STIM_013.jpg
315.276	2.067	0	generate	Run1	generate/STIM_013.jpg
319.305	2.876	1	generate	Run1	generate/STIM_013.jpg
324.087	2.473	1	generate	Run1	generate/STIM_013.jpg
328.655	1.825	1	generate	Run1	generate/STIM_013.jpg
333.792	2.556	0	generate	Run1	generate/STIM_014.jpg
339.508	2.534	1	generate	Run1	generate/STIM_014.jpg
344.723	2.101	0	generate	Run1	generate/STIM_014.jpg
349.811	1.902	1	generate	Run1	generate/STIM_014.jpg
353.581	1.812	1	generate	Run1	generate/STIM_014.jpg
357.626	2.723	1	generate	Run1	generate/STIM_015.jpg
363.224	2.152	1	generate	Run1	generate/STIM_015.jpg
367.993	2.198	1	generate	Run1	generate/STIM_015.jpg
372.341	2.194	1	generate	Run1	generate/STIM_015.jpg
378.004	1.492	1	generate	Run1	generate/STIM_015.jpg
382.863	1.852	1	generate	Run1	generate/STIM_016.jpg
387.856	2.299	1	generate	Run1	generate/STIM_016.jpg
392.124	1.226	0	generate	Run1	generate/STIM_016.jpg
397.148	1.843	1	generate	Run1	generate/STIM_016.jpg
402.054	2.391	1	generate	Run1	generate/STIM_016.jpg
407.064	3.314	1	generate	Run1	generate/STIM_017.jpg
412.921	2.902	0	generate	Run1	generate/STIM_017.jpg
417.613	2.583	0	generate	Run1	generate/STIM_017.jpg
422.044	1.749	0	generate	Run1	generate/STIM_017.jpg
425.96	2.488	1	generate	Run1	generate/STIM_017.jpg
430.786	2.381	1	generate	Run1	generate/STIM_018.jpg
435.042	2.094	1	generate	Run1	generate/STIM_018.jpg
439.728	1.382	1	generate	Run1	generate/STIM_018.jpg
443.474	2.175	1	generate	Run1	generate/STIM_018.jpg
448.389	1.296	1	generate	Run1	generate/STIM_018.jpg
452.478	2.548	1	generate	Run1	generate/STIM_019.jpg
458.755	1.8	1	generate	Run1	generate/STIM_019.jpg
462.74	1.212	1	generate	Run1	generate/STIM_019.jpg
466.702	1.241	1	generate	Run1	generate/STIM_019.jpg
469.955	1.891	1	generate	Run1	generate/STIM_019.jpg
473.929	1.349	1	generate	Run1	generate/STIM_020.jpg
478.535	1.358	1	generate	Run1	generate/STIM_020.jpg
481.916	2.194	1	generate	Run1	generate/STIM_020.jpg
487.368	1.283	1	generate	Run1	generate/STIM_020.jpg
491.592	1.253	1	generate	Run1	generate/STIM_020.jpg
495.273	2.537	1	generate	Run1	generate/STIM_021.jpg
500.455	1.663	1	generate	Run1	generate/STIM_021.jpg
505.688	1.414	1	generate	Run1	generate/STIM_021.jpg
509.824	2.285	1	generate	Run1	generate/STIM_021.jpg
514.295	2.465	0	generate	Run1	generate/STIM_021.jpg
519.768	1.514	1	generate	Run1	generate/STIM_022.jpg
524.335	1.743	0	generate	Run1	generate/STIM_022.jpg
529.468	2.601	1	generate	Run1	generate/STIM_022.jpg
535.348	1.714	0	generate	Run1	generate/STIM_022.jpg
539.132	2.644	1	generate	Run1	generate/STIM_022.jpg
544.984	1.761	1	generate	Run1	generate/STIM_023.jpg
549.668	1.672	0	generate	Run1	generate/STIM_023.jpg
553.236	2.983	1	generate	Run1	generate/STIM_023.jpg
558.347	1.536	0	generate	Run1	generate/STIM_023.jpg
563.459	2.142	1	generate	Run1	generate/STIM_023.jpg
568.474	3.245	0	generate	Run1	generate/STIM_024.jpg
575.33	1.33	0	generate	Run1	generate/STIM_024.jpg
579.743	2.939	1	generate	Run1	generate/STIM_024.jpg
584.395	2.294	1	generate	Run1	generate/STIM_024.jpg
590.095	2.306	1	generate	Run1	generate/STIM_024.jpg
594.343	0.587	1	repeat	Run1	repeat/STIM_000.jpg
598.832	0.702	0	repeat	Run1	repeat/STIM_000.jpg
602.518	0.591	1	repeat	Run1	repeat/STIM_000.jpg
605.714	0.98	1	repeat	Run1	repeat/STIM_000.jpg
608.729	0.688	1	repeat	Run1	repeat/STIM_000.jpg
612.337	1.018	1	repeat	Run1	repeat/STIM_001.jpg
616.465	0.987	1	repeat	Run1	repeat/STIM_001.jpg
621.265	0.994	1	repeat	Run1	repeat/STIM_001.jpg
625.084	0.717	1	repeat	Run1	repeat/STIM_001.jpg
628.065	0.972	0	repeat	Run1	repeat/STIM_001.jpg
630.938	1.066	1	repeat	Run1	repeat/STIM_002.jpg
635.777	0.985	1	repeat	Run1	repeat/STIM_002.jpg
638.68	0.808	1	repeat	Run1	repeat/STIM_002.jpg
641.41	0.869	1	repeat	Run1	repeat/STIM_002.jpg
644.626	1.068	1	repeat	Run1	repeat/STIM_002.jpg
648.087	0.937	1	repeat	Run1	repeat/STIM_003.jpg
651.106	0.992	1	repeat	Run1	repeat/STIM_003.jpg
655.862	1.092	1	repeat	Run1	repeat/STIM_003.jpg
659.337	0.825	0	repeat	Run1	repeat/STIM_003.jpg
662.687	0.73	1	repeat	Run1	repeat/STIM_003.jpg
666.032	0.888	1	repeat	Run1	repeat/STIM_004.jpg
670.615	0.624	1	repeat	Run1	repeat/STIM_004.jpg
675.102	0.908	0	repeat	Run1	repeat/STIM_004.jpg
679.201	0.985	1	repeat	Run1	repeat/STIM_004.jpg
683.365	0.792	1	repeat	Run1	repeat/STIM_004.jpg
687.717	1.095	1	repeat	Run1	repeat/STIM_005.jpg
692.112	0.922	1	repeat	Run1	repeat/STIM_005.jpg
695.393	0.995	1	repeat	Run1	repeat/STIM_005.jpg
699.909	0.947	1	repeat	Run1	repeat/STIM_005.jpg
704.281	0.598	1	repeat	Run1	repeat/STIM_005.jpg
707.158	1.07	1	repeat	Run1	repeat/STIM_006.jpg
710.799	0.675	1	repeat	Run1	repeat/STIM_006.jpg
715.372	0.986	1	repeat	Run1	repeat/STIM_006.jpg
719.689	0.801	1	repeat	Run1	repeat/STIM_006.jpg
722.842	0.936	1	repeat	Run1	repeat/STIM_006.jpg
726.374	0.728	1	repeat	Run1	repeat/STIM_007.jpg
730.907	0.775	1	repeat	Run1	repeat/STIM_007.jpg
735.478	0.981	1	repeat	Run1	repeat/STIM_007.jpg
739.645	0.853	1	repeat	Run1	repeat/STIM_007.jpg
742.694	0.796	1	repeat	Run1	repeat/STIM_007.jpg
745.485	0.589	1	repeat	Run1	repeat/STIM_008.jpg
748.656	0.627	1	repeat	Run1	repeat/STIM_008.jpg
753.077	0.575	1	repeat	Run1	repeat/STIM_008.jpg
757.223	0.632	1	repeat	Run1	repeat/STIM_008.jpg
760.158	1.018	1	repeat	Run1	repeat/STIM_008.jpg
765.003	0.761	1	repeat	Run1	repeat/STIM_009.jpg
769.656	0.909	1	repeat	Run1	repeat/STIM_009.jpg
773.729	0.952	1	repeat	Run1	repeat/STIM_009.jpg
776.636	0.734	1	repeat	Run1	repeat/STIM_009.jpg
780.476	0.968	1	repeat	Run1	repeat/STIM_009.jpg
785.34	0.92	1	repeat	Run1	repeat/STIM_010.jpg
789.501	0.68	1	repeat	Run1	repeat/STIM_010.jpg
792.125	0.619	1	repeat	Run1	repeat/STIM_010.jpg
795.32	1.064	1	repeat	Run1	repeat/STIM_010.jpg
799.157	1.111	1	repeat	Run1	repeat/STIM_010.jpg
803.12	0.957	1	repeat	Run1	repeat/STIM_011.jpg
806.749	0.595	1	repeat	Run1	repeat/STIM_011.jpg
809.968	1.087	1	repeat	Run1	repeat/STIM_011.jpg
813.832	1.042	1	repeat	Run1	repeat/STIM_011.jpg
818.301	1.06	1	repeat	Run1	repeat/STIM_011.jpg
821.988	0.958	1	repeat	Run1	repeat/STIM_012.jpg
826.375	0.939	1	repeat	Run1	repeat/STIM_012.jpg
830.754	0.71	1	repeat	Run1	repeat/STIM_012.jpg
835.021	0.79	1	repeat	Run1	repeat/STIM_012.jpg
839.225	0.646	1	repeat	Run1	repeat/STIM_012.jpg
843.558	1.013	1	repeat	Run1	repeat/STIM_013.jpg
847.034	1.071	0	repeat	Run1	repeat/STIM_013.jpg
850.76	0.967	1	repeat	Run1	repeat/STIM_013.jpg
854.318	1.045	1	repeat	Run1	repeat/STIM_013.jpg
858.877	0.68	1	repeat	Run1	repeat/STIM_013.jpg
861.601	0.666	1	repeat	Run1	repeat/STIM_014.jpg
864.724	0.696	1	repeat	Run1	repeat/STIM_014.jpg
867.353	0.894	1	repeat	Run1	repeat/STIM_014.jpg
871.195	1.055	1	repeat	Run1	repeat/STIM_014.jpg
875.957	0.566	1	repeat	Run1	repeat/STIM_014.jpg
879.708	2.604	1	generate	Run2	generate/STIM_000.jpg
885.431	2.356	1	generate	Run2	generate/STIM_000.jpg
890.984	2.276	1	generate	Run2	generate/STIM_000.jpg
896.006	1.735	0	generate	Run2	generate/STIM_000.jpg
899.564	1.376	1	generate	Run2	generate/STIM_000.jpg
904.705	1.771	1	generate	Run2	generate/STIM_001.jpg
909.391	2.543	1	generate	Run2	generate/STIM_001.jpg
914.811	1.295	1	generate	Run2	generate/STIM_001.jpg
918.977	1.17	1	generate	Run2	generate/STIM_001.jpg
923.146	1.043	1	generate	Run2	generate/STIM_001.jpg
926.977	2.795	1	generate	Run2	generate/STIM_002.jpg
932.456	2.089	0	generate	Run2	generate/STIM_002.jpg
937.668	1.635	1	generate	Run2	generate/STIM_002.jpg
941.826	1.501	1	generate	Run2	generate/STIM_002.jpg
947.007	1.81	1	generate	Run2	generate/STIM_002.jpg
951.221	1.76	1	generate	Run2	generate/STIM_003.jpg
956.051	1.778	1	generate	Run2	generate/STIM_003.jpg
960.078	1.316	1	generate	Run2	generate/STIM_003.jpg
964.697	1.133	1	generate	Run2	generate/STIM_003.jpg
968.222	1.235	1	generate	Run2	generate/STIM_003.jpg
972.257	2.388	0	generate	Run2	generate/STIM_004.jpg
978.226	1.17	1	generate	Run2	generate/STIM_004.jpg
981.916	2.232	1	generate	Run2	generate/STIM_004.jpg
987.276	0.968	1	generate	Run2	generate/STIM_004.jpg
990.763	2.197	1	generate	Run2	generate/STIM_004.jpg
996.479	1.548	1	generate	Run2	generate/STIM_005.jpg
1001.362	1.936	1	generate	Run2	generate/STIM_005.jpg
1007.043	1.633	1	generate	Run2	generate/STIM_005.jpg
1012.237	1.032	1	generate	Run2	generate/STIM_005.jpg
1015.904	1.158	0	generate	Run2	generate/STIM_005.jpg
1019.193	2.672	1	generate	Run2	generate/STIM_006.jpg
1024.189	2.284	1	generate	Run2	generate/STIM_006.jpg
1028.597	1.717	0	generate	Run2	generate/STIM_006.jpg
1033.099	1.549	0	generate	Run2	generate/STIM_006.jpg
1036.598	1.416	1	generate	Run2	generate/STIM_006.jpg
1040.857	2.348	1	generate	Run2	generate/STIM_007.jpg
1046.401	1.715	1	generate	Run2	generate/STIM_007.jpg
1051.337	2.269	1	generate	Run2	generate/STIM_007.jpg
1055.852	1.846	1	generate	Run2	generate/STIM_007.jpg
1061.493	1.774	1	generate	Run2	generate/STIM_007.jpg
1066.597	2.813	1	generate	Run2	generate/STIM_008.jpg
1071.18	1.63	1	generate	Run2	generate/STIM_008.jpg
1075.891	2.424	1	generate	Run2	generate/STIM_008.jpg
1080.074	1.788	1	generate	Run2	generate/STIM_008.jpg
1084.534	2.339	1	generate	Run2	generate/STIM_008.jpg
1089.215	1.195	1	generate	Run2	generate/STIM_009.jpg
1093.089	2.041	0	generate	Run2	generate/STIM_009.jpg
1097.959	1.968	1	generate	Run2	generate/STIM_009.jpg
1102.835	1.199	1	generate	Run2	generate/STIM_009.jpg
1106.893	1.155	1	generate	Run2	generate/STIM_009.jpg
1111.553	1.302	1	generate	Run2	generate/STIM_010.jpg
1114.872	1.601	1	generate	Run2	generate/STIM_010.jpg
1119.463	1.055	0	generate	Run2	generate/STIM_010.jpg
1123.271	1.074	1	generate	Run2	generate/STIM_010.jpg
1126.661	1.348	1	generate	Run2	generate/STIM_010.jpg
1130.739	1.547	1	generate	Run2	generate/STIM_011.jpg
1135.434	2.553	0	generate	Run2	generate/STIM_011.jpg
1141.462	1.076	1	generate	Run2	generate/STIM_011.jpg
1145.018	1.64	1	generate	Run2	generate/STIM_011.jpg
1148.929	1.811	1	generate	Run2	generate/STIM_011.jpg
1152.999	2.626	1	generate	Run2	generate/STIM_012.jpg
1157.576	2.106	1	generate	Run2	generate/STIM_012.jpg
1161.9	1.898	1	generate	Run2	generate/STIM_012.jpg
1165.707	2.297	1	generate	Run2	generate/STIM_012.jpg
1170.467	1.361	1	generate	Run2	generate/STIM_012.jpg
1175.444	1.2	1	generate	Run2	generate/STIM_013.jpg
1179.328	2.197	1	generate	Run2	generate/STIM_013.jpg
1183.405	1.885	1	generate	Run2	generate/STIM_013.jpg
1188.722	1.313	1	generate	Run2	generate/STIM_013.jpg
1193.392	0.957	1	generate	Run2	generate/STIM_013.jpg
1196.387	1.918	1	generate	Run2	generate/STIM_014.jpg
1201.309	2.171	1	generate	Run2	generate/STIM_014.jpg
1206.567	2.112	1	generate	Run2	generate/STIM_014.jpg
1211.148	2.005	1	generate	Run2	generate/STIM_014.jpg
1216.662	2.171	1	generate	Run2	generate/STIM_014.jpg
1220.918	2.356	1	generate	Run2	generate/STIM_015.jpg
1225.52	2.218	1	generate	Run2	generate/STIM_015.jpg
1230.021	1.628	0	generate	Run2	generate/STIM_015.jpg
1233.824	1.217	1	generate	Run2	generate/STIM_015.jpg
1238.811	1.618	1	generate	Run2	generate/STIM_015.jpg
1243.679	2.347	0	generate	Run2	generate/STIM_016.jpg
1248.614	1.474	1	generate	Run2	generate/STIM_016.jpg
1253.156	1.986	0	generate	Run2	generate/STIM_016.jpg
1257.839	1.489	1	generate	Run2	generate/STIM_016.jpg
1261.305	1.005	0	generate	Run2	generate/STIM_016.jpg
1264.708	2.178	1	generate	Run2	generate/STIM_017.jpg
1268.797	2.509	1	generate	Run2	generate/STIM_017.jpg
1273.717	1.394	1	generate	Run2	generate/STIM_017.jpg
1277.201	1.356	1	generate	Run2	generate/STIM_017.jpg
1281.793	1.148	1	generate	Run2	generate/STIM_017.jpg
1285.357	1.472	0	generate	Run2	generate/STIM_018.jpg
1289.242	1.762	1	generate	Run2	generate/STIM_018.jpg
1294.21	1.993	1	generate	Run2	generate/STIM_018.jpg
1298.709	1.722	1	generate	Run2	generate/STIM_018.jpg
1303.079	2.248	1	generate	Run2	generate/STIM_018.jpg
1307.767	1.162	0	generate	Run2	generate/STIM_019.jpg
1312.767	2.276	0	generate	Run2	generate/STIM_019.jpg
1318.505	1.883	0	generate	Run2	generate/STIM_019.jpg
1322.589	1.006	0	generate	Run2	generate/STIM_019.jpg
1327.139	1.543	1	generate	Run2	generate/STIM_019.jpg
1332.229	1.932	1	generate	Run2	generate/STIM_020.jpg
1336.071	2.525	1	generate	Run2	generate/STIM_020.jpg
1341.886	1.738	1	generate	Run2	generate/STIM_020.jpg
1347.048	1.031	1	generate	Run2	generate/STIM_020.jpg
1350.418	2.065	1	generate	Run2	generate/STIM_020.jpg
1354.91	1.94	0	generate	Run2	generate/STIM_021.jpg
1359.267	2.622	1	generate	Run2	generate/STIM_021.jpg
1364.787	2.403	1	generate	Run2	generate/STIM_021.jpg
1370.096	1.175	0	generate	Run2	generate/STIM_021.jpg
1373.554	2.146	1	generate	Run2	generate/STIM_021.jpg
1379.401	1.411	0	generate	Run2	generate/STIM_022.jpg
1383.419	2.529	1	generate	Run2	generate/STIM_022.jpg
1388.769	1.366	1	generate	Run2	generate/STIM_022.jpg
1393.289	1.324	1	generate	Run2	generate/STIM_022.jpg
1398.173	2.027	1	generate	Run2	generate/STIM_022.jpg
1402.794	2.312	1	generate	Run2	generate/STIM_023.jpg
1408.683	2.498	1	generate	Run2	generate/STIM_023.jpg
1414.629	2.335	1	generate	Run2	generate/STIM_023.jpg
1419.352	1.696	1	generate	Run2	generate/STIM_023.jpg
1422.965	2.022	1	generate	Run2	generate/STIM_023.jpg
1428.664	1.212	1	generate	Run2	generate/STIM_024.jpg
1432.602	2.19	1	generate	Run2	generate/STIM_024.jpg
1436.975	1.16	1	generate	Run2	generate/STIM_024.jpg
1441.045	2.156	1	generate	Run2	generate/STIM_024.jpg
1446.36	1.829	1	generate	Run2	generate/STIM_024.jpg
1450.899	0.563	1	repeat	Run2	repeat/STIM_000.jpg
1454.19	0.8	1	repeat	Run2	repeat/STIM_000.jpg
1457.984	0.603	1	repeat	Run2	repeat/STIM_000.jpg
1461.651	0.658	1	repeat	Run2	repeat/STIM_000.jpg
1465.422	0.752	1	repeat	Run2	repeat/STIM_000.jpg
1469.911	0.585	1	repeat	Run2	repeat/STIM_001.jpg
1473.936	1.067	1	repeat	Run2	repeat/STIM_001.jpg
1478.571	0.712	0	repeat	Run2	repeat/STIM_001.jpg
1482.31	0.843	1	repeat	Run2	repeat/STIM_001.jpg
1486.282	0.597	1	repeat	Run2	repeat/STIM_001.jpg
1490.722	0.607	1	repeat	Run2	repeat/STIM_002.jpg
1494.572	0.673	1	repeat	Run2	repeat/STIM_002.jpg
1499.158	1.053	1	repeat	Run2	repeat/STIM_002.jpg
1502.495	1.085	1	repeat	Run2	repeat/STIM_002.jpg
1506.698	0.943	1	repeat	Run2	repeat/STIM_002.jpg
1509.858	0.75	0	repeat	Run2	repeat/STIM_003.jpg
1514.248	0.615	1	repeat	Run2	repeat/STIM_003.jpg
1518.347	0.699	1	repeat	Run2	repeat/STIM_003.jpg
1521.0	0.603	1	repeat	Run2	repeat/STIM_003.jpg
1523.967	0.675	1	repeat	Run2	repeat/STIM_003.jpg
1528.269	0.872	1	repeat	Run2	repeat/STIM_004.jpg
1531.74	0.581	1	repeat	Run2	repeat/STIM_004.jpg
1535.581	1.006	1	repeat	Run2	repeat/STIM_004.jpg
1538.604	0.707	1	repeat	Run2	repeat/STIM_004.jpg
1541.792	1.079	1	repeat	Run2	repeat/STIM_004.jpg
1545.319	0.615	1	repeat	Run2	repeat/STIM_005.jpg
1548.225	0.997	0	repeat	Run2	repeat/STIM_005.jpg
1551.962	0.834	1	repeat	Run2	repeat/STIM_005.jpg
1555.801	0.904	1	repeat	Run2	repeat/STIM_005.jpg
1560.048	0.764	1	repeat	Run2	repeat/STIM_005.jpg
1563.524	0.588	1	repeat	Run2	repeat/STIM_006.jpg
1566.215	1.054	1	repeat	Run2	repeat/STIM_006.jpg
1570.796	0.897	1	repeat	Run2	repeat/STIM_006.jpg
1574.983	1.057	1	repeat	Run2	repeat/STIM_006.jpg
1577.958	0.756	1	repeat	Run2	repeat/STIM_006.jpg
1582.052	0.634	1	repeat	Run2	repeat/STIM_007.jpg
1584.963	0.625	1	repeat	Run2	repeat/STIM_007.jpg
1588.39	0.661	1	repeat	Run2	repeat/STIM_007.jpg
1591.192	1.033	1	repeat	Run2	repeat/STIM_007.jpg
1594.194	0.627	1	repeat	Run2	repeat/STIM_007.jpg
1597.621	1.107	1	repeat	Run2	repeat/STIM_008.jpg
1601.873	1.072	1	repeat	Run2	repeat/STIM_008.jpg
1605.885	1.098	0	repeat	Run2	repeat/STIM_008.jpg
1609.339	0.764	1	repeat	Run2	repeat/STIM_008.jpg
1613.672	0.731	1	repeat	Run2	repeat/STIM_008.jpg
1616.725	1.025	1	repeat	Run2	repeat/STIM_009.jpg
1620.03	1.047	1	repeat	Run2	repeat/STIM_009.jpg
1624.475	0.829	1	repeat	Run2	repeat/STIM_009.jpg
1628.674	0.84	1	repeat	Run2	repeat/STIM_009.jpg
1632.814	1.053	1	repeat	Run2	repeat/STIM_009.jpg
1637.482	1.072	1	repeat	Run2	repeat/STIM_010.jpg
1641.763	0.779	1	repeat	Run2	repeat/STIM_010.jpg
1644.925	0.952	1	repeat	Run2	repeat/STIM_010.jpg
1648.71	0.675	1	repeat	Run2	repeat/STIM_010.jpg
1651.386	0.914	1	repeat	Run2	repeat/STIM_010.jpg
1655.776	0.962	1	repeat	Run2	repeat/STIM_011.jpg
1659.832	0.851	1	repeat	Run2	repeat/STIM_011.jpg
1663.416	0.823	1	repeat	Run2	repeat/STIM_011.jpg
1667.086	1.068	1	repeat	Run2	repeat/STIM_011.jpg
1671.319	1.025	1	repeat	Run2	repeat/STIM_011.jpg
1674.491	1.081	1	repeat	Run2	repeat/STIM_012.jpg
1678.395	0.699	1	repeat	Run2	repeat/STIM_012.jpg
1682.962	0.991	1	repeat	Run2	repeat/STIM_012.jpg
1687.027	0.62	1	repeat	Run2	repeat/STIM_012.jpg
1690.09	0.622	1	repeat	Run2	repeat/STIM_012.jpg
1693.847	0.838	1	repeat	Run2	repeat/STIM_013.jpg
1696.913	0.976	0	repeat	Run2	repeat/STIM_013.jpg
1700.012	0.642	1	repeat	Run2	repeat/STIM_013.jpg
1702.735	0.802	1	repeat	Run2	repeat/STIM_013.jpg
1705.561	0.812	1	repeat	Run2	repeat/STIM_013.jpg
1708.526	0.831	1	repeat	Run2	repeat/STIM_014.jpg
1712.063	0.79	1	repeat	Run2	repeat/STIM_014.jpg
1716.236	0.899	1	repeat	Run2	repeat/STIM_014.jpg
1719.075	0.863	1	repeat	Run2	repeat/STIM_014.jpg
1722.757	0.952	1	repeat	Run2	repeat/STIM_014.jpg
1727.556	1.711	1	generate	Run3	generate/STIM_000.jpg
1732.801	1.75	1	generate	Run3	generate/STIM_000.jpg
1738.107	2.042	1	generate	Run3	generate/STIM_000.jpg
1743.165	2.284	1	generate	Run3	generate/STIM_000.jpg
1749.086	1.608	1	generate	Run3	generate/STIM_000.jpg
1754.453	1.099	1	generate	Run3	generate/STIM_001.jpg
1758.735	1.437	1	generate	Run3	generate/STIM_001.jpg
1762.497	1.808	1	generate	Run3	generate/STIM_001.jpg
1767.489	2.281	1	generate	Run3	generate/STIM_001.jpg
1771.976	1.058	1	generate	Run3	generate/STIM_001.jpg
1775.779	1.102	1	generate	Run3	generate/STIM_002.jpg
1778.805	1.928	1	generate	Run3	generate/STIM_002.jpg
1783.491	1.736	1	generate	Run3	generate/STIM_002.jpg
1788.961	1.011	1	generate	Run3	generate/STIM_002.jpg
1792.654	1.929	1	generate	Run3	generate/STIM_002.jpg
1797.715	1.295	1	generate	Run3	generate/STIM_003.jpg
1801.333	1.216	1	generate	Run3	generate/STIM_003.jpg
1805.921	1.436	1	generate	Run3	generate/STIM_003.jpg
1810.113	1.495	1	generate	Run3	generate/STIM_003.jpg
1813.749	1.146	1	generate	Run3	generate/STIM_003.jpg
1817.452	2.076	1	generate	Run3	generate/STIM_004.jpg
1822.921	1.681	1	generate	Run3	generate/STIM_004.jpg
1827.55	0.958	1	generate	Run3	generate/STIM_004.jpg
1832.233	1.333	1	generate	Run3	generate/STIM_004.jpg
1835.929	2.126	1	generate	Run3	generate/STIM_004.jpg
1840.08	1.875	1	generate	Run3	generate/STIM_005.jpg
1844.782	2.196	0	generate	Run3	generate/STIM_005.jpg
1850.522	1.56	1	generate	Run3	generate/STIM_005.jpg
1855.621	1.49	1	generate	Run3	generate/STIM_005.jpg
1859.201	2.286	1	generate	Run3	generate/STIM_005.jpg
1865.216	1.932	1	generate	Run3	generate/STIM_006.jpg
1869.633	1.791	1	generate	Run3	generate/STIM_006.jpg
1873.741	1.673	0	generate	Run3	generate/STIM_006.jpg
1878.827	1.302	1	generate	Run3	generate/STIM_006.jpg
1882.872	1.19	1	generate	Run3	generate/STIM_006.jpg
1886.502	1.124	1	generate	Run3	generate/STIM_007.jpg
1890.968	2.251	1	generate	Run3	generate/STIM_007.jpg
1895.335	2.166	1	generate	Run3	generate/STIM_007.jpg
1899.76	1.544	1	generate	Run3	generate/STIM_007.jpg
1904.352	2.32	1	generate	Run3	generate/STIM_007.jpg
1910.104	2.086	1	generate	Run3	generate/STIM_008.jpg
1915.076	1.086	1	generate	Run3	generate/STIM_008.jpg
1919.376	1.358	1	generate	Run3	generate/STIM_008.jpg
1924.333	0.949	1	generate	Run3	generate/STIM_008.jpg
1927.372	1.709	1	generate	Run3	generate/STIM_008.jpg
1931.876	2.029	1	generate	Run3	generate/STIM_009.jpg
1936.762	1.41	1	generate	Run3	generate/STIM_009.jpg
1940.992	1.506	1	generate	Run3	generate/STIM_009.jpg
1945.866	1.775	1	generate	Run3	generate/STIM_009.jpg
1949.585	2.181	1	generate	Run3	generate/STIM_009.jpg
1953.55	1.474	1	generate	Run3	generate/STIM_010.jpg
1958.775	1.244	1	generate	Run3	generate/STIM_010.jpg
1963.691	1.366	1	generate	Run3	generate/STIM_010.jpg
1967.506	1.052	1	generate	Run3	generate/STIM_010.jpg
1970.525	1.524	1	generate	Run3	generate/STIM_010.jpg
1975.197	0.991	1	generate	Run3	generate/STIM_011.jpg
1979.508	1.994	1	generate	Run3	generate/STIM_011.jpg
1983.456	1.291	1	generate	Run3	generate/STIM_011.jpg
1986.614	1.17	1	generate	Run3	generate/STIM_011.jpg
1991.006	1.481	1	generate	Run3	generate/STIM_011.jpg
1994.576	2.187	1	generate	Run3	generate/STIM_012.jpg
1998.786	1.441	1	generate	Run3	generate/STIM_012.jpg
2002.977	1.878	1	generate	Run3	generate/STIM_012.jpg
2008.298	1.204	1	generate	Run3	generate/STIM_012.jpg
2012.007	2.183	1	generate	Run3	generate/STIM_012.jpg
2017.424	1.795	1	generate	Run3	generate/STIM_013.jpg
2021.314	1.842	1	generate	Run3	generate/STIM_013.jpg
2026.319	1.728	0	generate	Run3	generate/STIM_013.jpg
2031.29	1.179	1	generate	Run3	generate/STIM_013.jpg
2035.812	1.967	1	generate	Run3	generate/STIM_013.jpg
2040.928	1.382	0	generate	Run3	generate/STIM_014.jpg
2044.572	1.731	1	generate	Run3	generate/STIM_014.jpg
2048.567	1.776	1	generate	Run3	generate/STIM_014.jpg
2053.21	1.152	1	generate	Run3	generate/STIM_014.jpg
2057.118	2.311	1	generate	Run3	generate/STIM_014.jpg
2062.307	1.246	1	generate	Run3	generate/STIM_015.jpg
2067.161	1.643	1	generate	Run3	generate/STIM_015.jpg
2072.429	1.412	1	generate	Run3	generate/STIM_015.jpg
2076.25	1.938	1	generate	Run3	generate/STIM_015.jpg
2080.088	1.742	1	generate	Run3	generate/STIM_015.jpg
2084.969	1.371	1	generate	Run3	generate/STIM_016.jpg
2090.145	2.034	1	generate	Run3	generate/STIM_016.jpg
2095.283	1.607	1	generate	Run3	generate/STIM_016.jpg
2099.081	1.83	1	generate	Run3	generate/STIM_016.jpg
2104.182	1.663	1	generate	Run3	generate/STIM_016.jpg
2109.2	2.002	1	generate	Run3	generate/STIM_017.jpg
2114.426	1.318	1	generate	Run3	generate/STIM_017.jpg
2118.119	1.522	1	generate	Run3	generate/STIM_017.jpg
2122.443	1.496	1	generate	Run3	generate/STIM_017.jpg
2125.81	1.793	1	generate	Run3	generate/STIM_017.jpg
2130.911	1.462	1	generate	Run3	generate/STIM_018.jpg
2136.045	1.084	1	generate	Run3	generate/STIM_018.jpg
2140.866	1.353	1	generate	Run3	generate/STIM_018.jpg
2145.777	1.672	1	generate	Run3	generate/STIM_018.jpg
2149.341	1.927	1	generate	Run3	generate/STIM_018.jpg
2155.026	1.155	0	generate	Run3	generate/STIM_019.jpg
2158.473	0.958	1	generate	Run3	generate/STIM_019.jpg
2163.101	1.903	1	generate	Run3	generate/STIM_019.jpg
2167.786	1.769	1	generate	Run3	generate/STIM_019.jpg
2172.069	1.385	1	generate	Run3	generate/STIM_019.jpg
2176.888	1.076	1	generate	Run3	generate/STIM_020.jpg
2180.233	2.276	1	generate	Run3	generate/STIM_020.jpg
2186.063	1.072	1	generate	Run3	generate/STIM_020.jpg
2190.821	1.125	1	generate	Run3	generate/STIM_020.jpg
2195.773	2.184	1	generate	Run3	generate/STIM_020.jpg
2199.985	1.574	1	generate	Run3	generate/STIM_021.jpg
2204.878	1.11	1	generate	Run3	generate/STIM_021.jpg
2209.073	2.246	1	generate	Run3	generate/STIM_021.jpg
2215.019	2.254	1	generate	Run3	generate/STIM_021.jpg
2220.759	1.872	1	generate	Run3	generate/STIM_021.jpg
2225.579	2.261	0	generate	Run3	generate/STIM_022.jpg
2231.404	1.736	1	generate	Run3	generate/STIM_022.jpg
2235.918	1.145	1	generate	Run3	generate/STIM_022.jpg
2239.999	1.341	1	generate	Run3	generate/STIM_022.jpg
2245.153	2.05	1	generate	Run3	generate/STIM_022.jpg
2250.424	2.169	1	generate	Run3	generate/STIM_023.jpg
2255.24	1.209	1	generate	Run3	generate/STIM_023.jpg
2260.017	1.181	1	generate	Run3	generate/STIM_023.jpg
2264.712	1.728	1	generate	Run3	generate/STIM_023.jpg
2269.446	2.135	1	generate	Run3	generate/STIM_023.jpg
2275.06	1.731	1	generate	Run3	generate/STIM_024.jpg
2280.28	1.988	1	generate	Run3	generate/STIM_024.jpg
2285.177	1.58	1	generate	Run3	generate/STIM_024.jpg
2289.594	2.003	1	generate	Run3	generate/STIM_024.jpg
2294.239	2.075	1	generate	Run3	generate/STIM_024.jpg
2299.667	1.041	1	repeat	Run3	repeat/STIM_000.jpg
2302.716	1.036	1	repeat	Run3	repeat/STIM_000.jpg
2307.009	1.108	1	repeat	Run3	repeat/STIM_000.jpg
2311.504	0.86	1	repeat	Run3	repeat/STIM_000.jpg
2316.071	0.668	1	repeat	Run3	repeat/STIM_000.jpg
2319.782	1.024	1	repeat	Run3	repeat/STIM_001.jpg
2324.066	1.086	1	repeat	Run3	repeat/STIM_001.jpg
2328.512	1.028	1	repeat	Run3	repeat/STIM_001.jpg
2333.271	0.603	1	repeat	Run3	repeat/STIM_001.jpg
2336.725	0.898	1	repeat	Run3	repeat/STIM_001.jpg
2340.251	0.887	1	repeat	Run3	repeat/STIM_002.jpg
2344.693	1.002	1	repeat	Run3	repeat/STIM_002.jpg
2348.842	0.827	1	repeat	Run3	repeat/STIM_002.jpg
2353.303	1.054	0	repeat	Run3	repeat/STIM_002.jpg
2356.882	0.729	1	repeat	Run3	repeat/STIM_002.jpg
2360.526	0.725	1	repeat	Run3	repeat/STIM_003.jpg
2364.048	0.565	1	repeat	Run3	repeat/STIM_003.jpg
2367.979	0.81	1	repeat	Run3	repeat/STIM_003.jpg
2370.831	0.95	1	repeat	Run3	repeat/STIM_003.jpg
2373.749	0.866	1	repeat	Run3	repeat/STIM_003.jpg
2377.928	0.84	1	repeat	Run3	repeat/STIM_004.jpg
2381.196	0.624	1	repeat	Run3	repeat/STIM_004.jpg
2385.154	0.64	1	repeat	Run3	repeat/STIM_004.jpg
2389.629	0.93	1	repeat	Run3	repeat/STIM_004.jpg
2393.567	0.784	1	repeat	Run3	repeat/STIM_004.jpg
2396.323	0.94	1	repeat	Run3	repeat/STIM_005.jpg
2399.533	1.095	1	repeat	Run3	repeat/STIM_005.jpg
2403.937	0.589	1	repeat	Run3	repeat/STIM_005.jpg
2407.528	0.914	1	repeat	Run3	repeat/STIM_005.jpg
2411.323	0.752	1	repeat	Run3	repeat/STIM_005.jpg
2415.36	1.09	1	repeat	Run3	repeat/STIM_006.jpg
2419.237	0.69	1	repeat	Run3	repeat/STIM_006.jpg
2423.85	0.895	1	repeat	Run3	repeat/STIM_006.jpg
2427.132	1.088	1	repeat	Run3	repeat/STIM_006.jpg
2432.076	0.789	1	repeat	Run3	repeat/STIM_006.jpg
2435.789	0.611	1	repeat	Run3	repeat/STIM_007.jpg
2439.364	0.734	1	repeat	Run3	repeat/STIM_007.jpg
2442.527	0.56	1	repeat	Run3	repeat/STIM_007.jpg
2446.554	0.979	1	repeat	Run3	repeat/STIM_007.jpg
2449.847	0.668	1	repeat	Run3	repeat/STIM_007.jpg
2453.695	0.813	1	repeat	Run3	repeat/STIM_008.jpg
2456.827	0.645	1	repeat	Run3	repeat/STIM_008.jpg
2460.137	0.882	1	repeat	Run3	repeat/STIM_008.jpg
2463.857	1.055	1	repeat	Run3	repeat/STIM_008.jpg
2468.315	0.88	1	repeat	Run3	repeat/STIM_008.jpg
2471.142	0.898	0	repeat	Run3	repeat/STIM_009.jpg
2474.352	1.018	1	repeat	Run3	repeat/STIM_009.jpg
2478.193	0.822	1	repeat	Run3	repeat/STIM_009.jpg
2481.825	0.64	1	repeat	Run3	repeat/STIM_009.jpg
2485.179	0.634	1	repeat	Run3	repeat/STIM_009.jpg
2488.396	0.768	1	repeat	Run3	repeat/STIM_010.jpg
2492.138	0.68	1	repeat	Run3	repeat/STIM_010.jpg
2495.249	1.089	1	repeat	Run3	repeat/STIM_010.jpg
2499.753	0.97	1	repeat	Run3	repeat/STIM_010.jpg
2503.486	0.852	1	repeat	Run3	repeat/STIM_010.jpg
2508.202	1.115	1	repeat	Run3	repeat/STIM_011.jpg
2512.724	0.674	1	repeat	Run3	repeat/STIM_011.jpg
2517.039	1.106	0	repeat	Run3	repeat/STIM_011.jpg
2521.631	1.051	1	repeat	Run3	repeat/STIM_011.jpg
2525.647	0.572	1	repeat	Run3	repeat/STIM_011.jpg
2528.382	1.043	1	repeat	Run3	repeat/STIM_012.jpg
2531.55	1.111	1	repeat	Run3	repeat/STIM_012.jpg
2534.547	0.628	1	repeat	Run3	repeat/STIM_012.jpg
2537.492	0.982	1	repeat	Run3	repeat/STIM_012.jpg
2540.519	0.771	0	repeat	Run3	repeat/STIM_012.jpg
2544.868	0.612	1	repeat	Run3	repeat/STIM_013.jpg
2547.66	0.908	1	repeat	Run3	repeat/STIM_013.jpg
2551.838	0.581	1	repeat	Run3	repeat/STIM_013.jpg
2555.353	0.752	1	repeat	Run3	repeat/STIM_013.jpg
2558.261	0.608	1	repeat	Run3	repeat/STIM_013.jpg
2562.06	0.611	1	repeat	Run3	repeat/STIM_014.jpg
2565.211	0.75	1	repeat	Run3	repeat/STIM_014.jpg
2567.932	1.03	1	repeat	Run3	repeat/STIM_014.jpg
2571.492	0.643	1	repeat	Run3	repeat/STIM_014.jpg
2575.259	1.035	1	repeat	Run3	repeat/STIM_014.jpg
2580.114	1.485	1	generate	Run4	generate/STIM_000.jpg
2584.647	1.915	1	generate	Run4	generate/STIM_000.jpg
2589.715	1.898	1	generate	Run4	generate/STIM_000.jpg
2594.652	1.617	1	generate	Run4	generate/STIM_000.jpg
2599.585	1.069	1	generate	Run4	generate/STIM_000.jpg
2602.938	1.003	1	generate	Run4	generate/STIM_001.jpg
2607.174	1.202	1	generate	Run4	generate/STIM_001.jpg
2611.447	1.18	1	generate	Run4	generate/STIM_001.jpg
2615.639	1.333	1	generate	Run4	generate/STIM_001.jpg
2620.645	2.036	1	generate	Run4	generate/STIM_001.jpg
2625.458	1.225	1	generate	Run4	generate/STIM_002.jpg
2629.9	1.495	1	generate	Run4	generate/STIM_002.jpg
2633.685	1.696	1	generate	Run4	generate/STIM_002.jpg
2637.988	2.033	1	generate	Run4	generate/STIM_002.jpg
2643.352	2.014	1	generate	Run4	generate/STIM_002.jpg
2648.957	1.723	1	generate	Run4	generate/STIM_003.jpg
2652.506	2.178	1	generate	Run4	generate/STIM_003.jpg
2656.733	1.838	1	generate	Run4	generate/STIM_003.jpg
2661.521	2.039	1	generate	Run4	generate/STIM_003.jpg
2665.692	2.254	1	generate	Run4	generate/STIM_003.jpg
2670.689	2.01	1	generate	Run4	generate/STIM_004.jpg
2674.801	1.99	0	generate	Run4	generate/STIM_004.jpg
2679.908	1.366	1	generate	Run4	generate/STIM_004.jpg
2683.942	1.392	1	generate	Run4	generate/STIM_004.jpg
2688.36	1.778	1	generate	Run4	generate/STIM_004.jpg
2693.169	1.361	1	generate	Run4	generate/STIM_005.jpg
2696.901	1.664	1	generate	Run4	generate/STIM_005.jpg
2701.885	1.265	1	generate	Run4	generate/STIM_005.jpg
2705.698	1.28	1	generate	Run4	generate/STIM_005.jpg
2709.855	2.069	1	generate	Run4	generate/STIM_005.jpg
2715.433	1.468	1	generate	Run4	generate/STIM_006.jpg
2720.704	1.306	1	generate	Run4	generate/STIM_006.jpg
2724.989	1.928	1	generate	Run4	generate/STIM_006.jpg
2730.177	1.642	1	generate	Run4	generate/STIM_006.jpg
2733.87	2.32	1	generate	Run4	generate/STIM_006.jpg
2739.291	2.153	1	generate	Run4	generate/STIM_007.jpg
2744.936	1.787	1	generate	Run4	generate/STIM_007.jpg
2750.046	2.076	1	generate	Run4	generate/STIM_007.jpg
2753.955	1.84	0	generate	Run4	generate/STIM_007.jpg
2759.153	1.402	1	generate	Run4	generate/STIM_007.jpg
2762.56	2.334	1	generate	Run4	generate/STIM_008.jpg
2767.325	1.991	1	generate	Run4	generate/STIM_008.jpg
2772.651	1.168	1	generate	Run4	generate/STIM_008.jpg
2777.195	1.482	1	generate	Run4	generate/STIM_008.jpg
2781.644	2.277	1	generate	Run4	generate/STIM_008.jpg
2786.638	1.205	1	generate	Run4	generate/STIM_009.jpg
2790.597	1.516	1	generate	Run4	generate/STIM_009.jpg
2795.302	1.224	1	generate	Run4	generate/STIM_009.jpg
2799.608	2.148	1	generate	Run4	generate/STIM_009.jpg
2805.338	1.783	1	generate	Run4	generate/STIM_009.jpg
2809.344	1.885	1	generate	Run4	generate/STIM_010.jpg
2814.171	2.212	1	generate	Run4	generate/STIM_010.jpg
2819.079	2.096	1	generate	Run4	generate/STIM_010.jpg
2824.934	1.121	0	generate	Run4	generate/STIM_010.jpg
2828.592	1.322	1	generate	Run4	generate/STIM_010.jpg
2832.337	1.608	1	generate	Run4	generate/STIM_011.jpg
2837.421	1.861	1	generate	Run4	generate/STIM_011.jpg
2842.573	1.168	1	generate	Run4	generate/STIM_011.jpg
2846.51	1.924	1	generate	Run4	generate/STIM_011.jpg
2850.63	1.947	1	generate	Run4	generate/STIM_011.jpg
2855.407	1.11	1	generate	Run4	generate/STIM_012.jpg
2859.186	1.741	1	generate	Run4	generate/STIM_012.jpg
2864.077	2.186	1	generate	Run4	generate/STIM_012.jpg
2868.094	2.0	1	generate	Run4	generate/STIM_012.jpg
2872.376	1.979	1	generate	Run4	generate/STIM_012.jpg
2877.964	2.221	1	generate	Run4	generate/STIM_013.jpg
2883.371	1.72	1	generate	Run4	generate/STIM_013.jpg
2888.734	1.361	1	generate	Run4	generate/STIM_013.jpg
2893.643	1.929	1	generate	Run4	generate/STIM_013.jpg
2897.749	2.066	1	generate	Run4	generate/STIM_013.jpg
2902.359	2.275	1	generate	Run4	generate/STIM_014.jpg
2908.086	2.144	1	generate	Run4	generate/STIM_014.jpg
2912.853	1.012	1	generate	Run4	generate/STIM_014.jpg
2916.823	1.855	1	generate	Run4	generate/STIM_014.jpg
2921.293	1.908	1	generate	Run4	generate/STIM_014.jpg
2925.915	1.671	1	generate	Run4	generate/STIM_015.jpg
2929.94	1.864	1	generate	Run4	generate/STIM_015.jpg
2934.883	0.974	1	generate	Run4	generate/STIM_015.jpg
2939.031	1.189	1	generate	Run4	generate/STIM_015.jpg
2943.637	1.416	1	generate	Run4	generate/STIM_015.jpg
2948.291	1.995	1	generate	Run4	generate/STIM_016.jpg
2953.19	1.963	1	generate	Run4	generate/STIM_016.jpg
2957.864	1.335	1	generate	Run4	generate/STIM_016.jpg
2962.708	1.141	1	generate	Run4	generate/STIM_016.jpg
2967.675	1.951	1	generate	Run4	generate/STIM_016.jpg
2971.469	1.728	1	generate	Run4	generate/STIM_017.jpg
2976.066	1.349	0	generate	Run4	generate/STIM_017.jpg
2980.296	1.033	1	generate	Run4	generate/STIM_017.jpg
2983.528	1.269	1	generate	Run4	generate/STIM_017.jpg
2988.192	1.852	1	generate	Run4	generate/STIM_017.jpg
2993.767	2.292	1	generate	Run4	generate/STIM_018.jpg
2999.604	2.13	1	generate	Run4	generate/STIM_018.jpg
3004.394	1.342	1	generate	Run4	generate/STIM_018.jpg
3007.862	1.542	1	generate	Run4	generate/STIM_018.jpg
3012.376	1.593	1	generate	Run4	generate/STIM_018.jpg
3017.097	2.298	1	generate	Run4	generate/STIM_019.jpg
3023.147	1.428	1	generate	Run4	generate/STIM_019.jpg
3027.063	1.669	1	generate	Run4	generate/STIM_019.jpg
3031.919	1.997	1	generate	Run4	generate/STIM_019.jpg
3036.04	1.143	1	generate	Run4	generate/STIM_019.jpg
3040.735	0.995	1	generate	Run4	generate/STIM_020.jpg
3044.282	1.146	1	generate	Run4	generate/STIM_020.jpg
3048.871	1.577	1	generate	Run4	generate/STIM_020.jpg
3053.263	1.89	1	generate	Run4	generate/STIM_020.jpg
3057.312	1.123	1	generate	Run4	generate/STIM_020.jpg
3062.166	1.486	1	generate	Run4	generate/STIM_021.jpg
3065.821	1.427	1	generate	Run4	generate/STIM_021.jpg
3069.365	2.291	1	generate	Run4	generate/STIM_021.jpg
3073.727	1.953	1	generate	Run4	generate/STIM_021.jpg
3078.885	1.801	1	generate	Run4	generate/STIM_021.jpg
3083.667	1.579	1	generate	Run4	generate/STIM_022.jpg
3088.644	1.566	1	generate	Run4	generate/STIM_022.jpg
3093.066	2.228	1	generate	Run4	generate/STIM_022.jpg
3097.342	1.123	1	generate	Run4	generate/STIM_022.jpg
3101.86	0.994	1	generate	Run4	generate/STIM_022.jpg
3106.241	1.514	1	generate	Run4	generate/STIM_023.jpg
3109.911	1.531	1	generate	Run4	generate/STIM_023.jpg
3113.393	1.42	1	generate	Run4	generate/STIM_023.jpg
3117.851	1.059	1	generate	Run4	generate/STIM_023.jpg
3122.263	1.648	1	generate	Run4	generate/STIM_023.jpg
3125.773	1.864	1	generate	Run4	generate/STIM_024.jpg
3129.85	1.159	1	generate	Run4	generate/STIM_024.jpg
3133.626	1.204	1	generate	Run4	generate/STIM_024.jpg
3138.282	1.718	1	generate	Run4	generate/STIM_024.jpg
3142.904	1.423	1	generate	Run4	generate/STIM_024.jpg
3148.099	1.054	1	repeat	Run4	repeat/STIM_000.jpg
3151.473	0.732	1	repeat	Run4	repeat/STIM_000.jpg
3155.695	0.926	1	repeat	Run4	repeat/STIM_000.jpg
3159.76	0.946	1	repeat	Run4	repeat/STIM_000.jpg
3162.69	1.075	1	repeat	Run4	repeat/STIM_000.jpg
3166.054	0.693	1	repeat	Run4	repeat/STIM_001.jpg
3170.082	0.802	1	repeat	Run4	repeat/STIM_001.jpg
3173.14	0.576	1	repeat	Run4	repeat/STIM_001.jpg
3176.684	0.84	1	repeat	Run4	repeat/STIM_001.jpg
3179.777	0.761	1	repeat	Run4	repeat/STIM_001.jpg
3184.207	0.558	1	repeat	Run4	repeat/STIM_002.jpg
3187.191	0.749	1	repeat	Run4	repeat/STIM_002.jpg
3190.395	0.566	0	repeat	Run4	repeat/STIM_002.jpg
3193.21	0.632	1	repeat	Run4	repeat/STIM_002.jpg
3196.138	1.03	1	repeat	Run4	repeat/STIM_002.jpg
3199.179	0.721	1	repeat	Run4	repeat/STIM_003.jpg
3203.024	1.1	1	repeat	Run4	repeat/STIM_003.jpg
3206.316	1.069	1	repeat	Run4	repeat/STIM_003.jpg
3210.745	0.619	1	repeat	Run4	repeat/STIM_003.jpg
3214.071	0.961	1	repeat	Run4	repeat/STIM_003.jpg
3217.826	0.65	1	repeat	Run4	repeat/STIM_004.jpg
3222.232	0.866	1	repeat	Run4	repeat/STIM_004.jpg
3225.92	0.818	1	repeat	Run4	repeat/STIM_004.jpg
3229.943	0.581	1	repeat	Run4	repeat/STIM_004.jpg
3233.964	0.901	1	repeat	Run4	repeat/STIM_004.jpg
3237.347	0.593	1	repeat	Run4	repeat/STIM_005.jpg
3240.679	1.026	1	repeat	Run4	repeat/STIM_005.jpg
3244.234	0.785	1	repeat	Run4	repeat/STIM_005.jpg
3248.25	1.079	1	repeat	Run4	repeat/STIM_005.jpg
3251.605	1.091	1	repeat	Run4	repeat/STIM_005.jpg
3254.81	0.96	1	repeat	Run4	repeat/STIM_006.jpg
3258.377	0.863	1	repeat	Run4	repeat/STIM_006.jpg
3262.268	1.029	1	repeat	Run4	repeat/STIM_006.jpg
3266.584	0.595	1	repeat	Run4	repeat/STIM_006.jpg
3270.2	1.101	1	repeat	Run4	repeat/STIM_006.jpg
3274.452	0.897	1	repeat	Run4	repeat/STIM_007.jpg
3277.797	1.108	1	repeat	Run4	repeat/STIM_007.jpg
3280.797	0.636	1	repeat	Run4	repeat/STIM_007.jpg
3284.758	1.013	1	repeat	Run4	repeat/STIM_007.jpg
3288.815	0.818	1	repeat	Run4	repeat/STIM_007.jpg
3292.76	0.801	1	repeat	Run4	repeat/STIM_008.jpg
3295.59	0.972	1	repeat	Run4	repeat/STIM_008.jpg
3298.499	0.999	1	repeat	Run4	repeat/STIM_008.jpg
3301.657	0.733	1	repeat	Run4	repeat/STIM_008.jpg
3304.328	1.045	1	repeat	Run4	repeat/STIM_008.jpg
3308.099	1.107	1	repeat	Run4	repeat/STIM_009.jpg
3311.42	1.068	1	repeat	Run4	repeat/STIM_009.jpg
3315.201	0.829	1	repeat	Run4	repeat/STIM_009.jpg
3318.276	0.995	1	repeat	Run4	repeat/STIM_009.jpg
3322.466	1.052	1	repeat	Run4	repeat/STIM_009.jpg
3326.451	1.077	1	repeat	Run4	repeat/STIM_010.jpg
3331.284	0.69	1	repeat	Run4	repeat/STIM_010.jpg
3334.954	0.844	1	repeat	Run4	repeat/STIM_010.jpg
3338.606	0.829	1	repeat	Run4	repeat/STIM_010.jpg
3343.125	0.84	1	repeat	Run4	repeat/STIM_010.jpg
3346.619	1.059	1	repeat	Run4	repeat/STIM_011.jpg
3350.258	0.67	1	repeat	Run4	repeat/STIM_011.jpg
3354.266	0.884	0	repeat	Run4	repeat/STIM_011.jpg
3357.112	0.876	1	repeat	Run4	repeat/STIM_011.jpg
3361.407	0.588	1	repeat	Run4	repeat/STIM_011.jpg
3364.064	0.726	1	repeat	Run4	repeat/STIM_012.jpg
3368.692	0.562	1	repeat	Run4	repeat/STIM_012.jpg
3371.535	0.992	1	repeat	Run4	repeat/STIM_012.jpg
3376.332	0.618	1	repeat	Run4	repeat/STIM_012.jpg
3380.88	0.582	1	repeat	Run4	repeat/STIM_012.jpg
3383.862	1.025	1	repeat	Run4	repeat/STIM_013.jpg
3387.059	0.728	1	repeat	Run4	repeat/STIM_013.jpg
3390.573	1.008	1	repeat	Run4	repeat/STIM_013.jpg
3394.856	0.942	1	repeat	Run4	repeat/STIM_013.jpg
3398.968	0.744	1	repeat	Run4	repeat/STIM_013.jpg
3402.941	0.912	1	repeat	Run4	repeat/STIM_014.jpg
3407.04	0.66	1	repeat	Run4	repeat/STIM_014.jpg
3410.092	0.938	1	repeat	Run4	repeat/STIM_014.jpg
3413.993	1.011	1	repeat	Run4	repeat/STIM_014.jpg
3418.493	0.934	1	repeat	Run4	repeat/STIM_014.jpg
