onset	duration	accuracy	trial_type	learning_stage	stimulus
0.0	2.923	incorrect	generate	Run1	generate/STIM_000.jpg
5.893	1.557	correct	generate	Run1	generate/STIM_000.jpg
11.422	2.159	correct	generate	Run1	generate/STIM_000.jpg
17.15	2.075	incorrect	generate	Run1	generate/STIM_000.jpg
22.641	1.577	incorrect	generate	Run1	generate/STIM_000.jpg
27.404	1.972	correct	generate	Run1	generate/STIM_001.jpg
32.146	1.254	correct	generate	Run1	generate/STIM_001.jpg
37.4	2.504	incorrect	generate	Run1	generate/STIM_001.jpg
43.66	1.622	correct	generate	Run1	generate/STIM_001.jpg
47.391	1.96	incorrect	generate	Run1	generate/STIM_001.jpg
51.541	1.704	correct	generate	Run1	generate/STIM_002.jpg
55.406	1.911	correct	generate	Run1	generate/STIM_002.jpg
60.383	2.167	correct	generate	Run1	generate/STIM_002.jpg
64.597	1.565	correct	generate	Run1	generate/STIM_002.jpg
69.539	1.172	correct	generate	Run1	generate/STIM_002.jpg
73.097	2.684	correct	generate	Run1	generate/STIM_003.jpg
79.516	2.542	correct	generate	Run1	generate/STIM_003.jpg
85.123	2.392	correct	generate	Run1	generate/STIM_003.jpg
89.521	1.642	correct	generate	Run1	generate/STIM_003.jpg
93.439	2.176	correct	generate	Run1	generate/STIM_003.jpg
97.831	1.223	incorrect	generate	Run1	generate/STIM_004.jpg
101.881	2.447	correct	generate	Run1	generate/STIM_004.jpg
106.516	1.671	correct	generate	Run1	generate/STIM_004.jpg
111.675	1.793	correct	generate	Run1	generate/STIM_004.jpg
117.445	1.805	correct	generate	Run1	generate/STIM_004.jpg
121.557	2.551	correct	generate	Run1	generate/STIM_005.jpg
127.548	2.548	correct	generate	Run1	generate/STIM_005.jpg
132.129	1.451	correct	generate	Run1	generate/STIM_005.jpg
137.414	1.331	incorrect	generate	Run1	generate/STIM_005.jpg
141.065	2.201	correct	generate	Run1	generate/STIM_005.jpg
146.71	2.836	incorrect	generate	Run1	generate/STIM_006.jpg
151.761	2.242	correct	generate	Run1	generate/STIM_006.jpg
157.485	1.313	correct	generate	Run1	generate/STIM_006.jpg
162.135	1.891	correct	generate	Run1	generate/STIM_006.jpg
167.879	1.219	correct	generate	Run1	generate/STIM_006.jpg
172.324	1.226	correct	generate	Run1	generate/STIM_007.jpg
176.377	1.878	incorrect	generate	Run1	generate/STIM_007.jpg
181.972	2.502	correct	generate	Run1	generate/STIM_007.jpg
187.258	1.741	correct	generate	Run1	generate/STIM_007.jpg
191.611	0.953	correct	generate	Run1	generate/STIM_007.jpg
195.724	2.013	correct	generate	Run1	generate/STIM_008.jpg
200.04	2.756	correct	generate	Run1	generate/STIM_008.jpg
205.981	1.91	incorrect	generate	Run1	generate/STIM_008.jpg
210.712	1.94	incorrect	generate	Run1	generate/STIM_008.jpg
215.897	1.461	correct	generate	Run1	generate/STIM_008.jpg
219.433	2.436	correct	generate	Run1	generate/STIM_009.jpg
225.763	2.384	correct	generate	Run1	generate/STIM_009.jpg
230.304	2.223	correct	generate	Run1	generate/STIM_009.jpg
235.124	2.352	incorrect	generate	Run1	generate/STIM_009.jpg
240.993	2.035	correct	generate	Run1	generate/STIM_009.jpg
246.847	2.929	correct	generate	Run1	generate/STIM_010.jpg
253.144	1.934	correct	generate	Run1	generate/STIM_010.jpg
259.017	1.973	correct	generate	Run1	generate/STIM_010.jpg
264.374	2.026	correct	generate	Run1	generate/STIM_010.jpg
269.418	1.683	correct	generate	Run1	generate/STIM_010.jpg
273.378	1.6	correct	generate	Run1	generate/STIM_011.jpg
277.48	1.419	correct	generate	Run1	generate/STIM_011.jpg
282.503	2.407	incorrect	generate	Run1	generate/STIM_011.jpg
288.849	2.103	incorrect	generate	Run1	generate/STIM_011.jpg
293.769	1.802	correct	generate	Run1	generate/STIM_011.jpg
298.684	1.552	correct	generate	Run1	generate/STIM_012.jpg
303.286	1.89	correct	generate	Run1	generate/STIM_012.jpg
307.994	2.57	correct	generate	Run1	generate/STIM_012.jpg
314.274	2.156	correct	generate	Run1	generate/STIM_012.jpg
318.487	1.131	correct	generate	Run1	generate/STIM_012.jpg
323.402	2.235	correct	generate	Run1	generate/STIM_013.jpg
329.392	1.402	incorrect	generate	Run1	generate/STIM_013.jpg
334.63	1.82	correct	generate	Run1	generate/STIM_013.jpg
339.998	1.55	correct	generate	Run1	generate/STIM_013.jpg
343.672	1.653	correct	generate	Run1	generate/STIM_013.jpg
348.232	1.848	incorrect	generate	Run1	generate/STIM_014.jpg
353.371	1.19	correct	generate	Run1	generate/STIM_014.jpg
357.315	2.295	incorrect	generate	Run1	generate/STIM_014.jpg
362.169	1.51	correct	generate	Run1	generate/STIM_014.jpg
367.371	1.447	correct	generate	Run1	generate/STIM_014.jpg
372.516	2.787	correct	generate	Run1	generate/STIM_015.jpg
378.396	1.153	correct	generate	Run1	generate/STIM_015.jpg
381.913	2.367	correct	generate	Run1	generate/STIM_015.jpg
387.456	2.026	correct	generate	Run1	generate/STIM_015.jpg
392.917	1.424	correct	generate	Run1	generate/STIM_015.jpg
397.609	2.174	correct	generate	Run1	generate/STIM_016.jpg
402.73	1.532	correct	generate	Run1	generate/STIM_016.jpg
407.464	2.62	incorrect	generate	Run1	generate/STIM_016.jpg
412.26	2.181	correct	generate	Run1	generate/STIM_016.jpg
417.279	1.632	incorrect	generate	Run1	generate/STIM_016.jpg
421.703	1.851	incorrect	generate	Run1	generate/STIM_017.jpg
426.003	1.559	incorrect	generate	Run1	generate/STIM_017.jpg
429.708	1.128	incorrect	generate	Run1	generate/STIM_017.jpg
433.637	1.468	incorrect	generate	Run1	generate/STIM_017.jpg
438.669	1.509	correct	generate	Run1	generate/STIM_017.jpg
443.852	1.35	incorrect	generate	Run1	generate/STIM_018.jpg
448.63	2.532	correct	generate	Run1	generate/STIM_018.jpg
453.513	1.308	correct	generate	Run1	generate/STIM_018.jpg
457.722	1.997	correct	generate	Run1	generate/STIM_018.jpg
463.226	1.376	correct	generate	Run1	generate/STIM_018.jpg
467.054	1.97	correct	generate	Run1	generate/STIM_019.jpg
472.601	1.207	correct	generate	Run1	generate/STIM_019.jpg
476.85	1.419	correct	generate	Run1	generate/STIM_019.jpg
480.855	1.317	correct	generate	Run1	generate/STIM_019.jpg
484.351	0.988	incorrect	generate	Run1	generate/STIM_019.jpg
487.463	1.713	correct	generate	Run1	generate/STIM_020.jpg
491.265	2.018	correct	generate	Run1	generate/STIM_020.jpg
496.461	1.458	correct	generate	Run1	generate/STIM_020.jpg
500.392	1.497	correct	generate	Run1	generate/STIM_020.jpg
505.727	1.492	correct	generate	Run1	generate/STIM_020.jpg
509.431	1.215	correct	generate	Run1	generate/STIM_021.jpg
514.408	2.413	correct	generate	Run1	generate/STIM_021.jpg
520.478	1.59	correct	generate	Run1	generate/STIM_021.jpg
524.278	1.172	correct	generate	Run1	generate/STIM_021.jpg
529.313	2.135	correct	generate	Run1	generate/STIM_021.jpg
534.63	2.076	correct	generate	Run1	generate/STIM_022.jpg
539.066	2.246	incorrect	generate	Run1	generate/STIM_022.jpg
543.513	1.243	correct	generate	Run1	generate/STIM_022.jpg
547.91	1.142	incorrect	generate	Run1	generate/STIM_022.jpg
552.888	1.977	correct	generate	Run1	generate/STIM_022.jpg
556.87	2.469	correct	generate	Run1	generate/STIM_023.jpg
561.756	2.049	incorrect	generate	Run1	generate/STIM_023.jpg
567.525	2.505	correct	generate	Run1	generate/STIM_023.jpg
572.579	1.097	correct	generate	Run1	generate/STIM_023.jpg
577.621	1.91	incorrect	generate	Run1	generate/STIM_023.jpg
583.147	2.123	incorrect	generate	Run1	generate/STIM_024.jpg
588.165	1.193	incorrect	generate	Run1	generate/STIM_024.jpg
592.023	1.87	correct	generate	Run1	generate/STIM_024.jpg
596.049	1.606	correct	generate	Run1	generate/STIM_024.jpg
601.2	1.027	correct	generate	Run1	generate/STIM_024.jpg
605.967	0.503	correct	repeat	Run1	repeat/STIM_000.jpg
609.674	0.854	correct	repeat	Run1	repeat/STIM_000.jpg
612.553	0.682	correct	repeat	Run1	repeat/STIM_000.jpg
616.434	0.802	correct	repeat	Run1	repeat/STIM_000.jpg
619.749	0.672	correct	repeat	Run1	repeat/STIM_000.jpg
622.689	0.841	correct	repeat	Run1	repeat/STIM_001.jpg
626.955	0.545	correct	repeat	Run1	repeat/STIM_001.jpg
630.022	0.956	correct	repeat	Run1	repeat/STIM_001.jpg
633.546	0.802	correct	repeat	Run1	repeat/STIM_001.jpg
637.528	0.825	correct	repeat	Run1	repeat/STIM_001.jpg
642.223	0.706	correct	repeat	Run1	repeat/STIM_002.jpg
645.595	0.594	correct	repeat	Run1	repeat/STIM_002.jpg
649.83	0.8	correct	repeat	Run1	repeat/STIM_002.jpg
652.656	0.916	correct	repeat	Run1	repeat/STIM_002.jpg
657.293	0.965	correct	repeat	Run1	repeat/STIM_002.jpg
661.465	0.554	correct	repeat	Run1	repeat/STIM_003.jpg
665.031	0.661	correct	repeat	Run1	repeat/STIM_003.jpg
669.631	0.963	correct	repeat	Run1	repeat/STIM_003.jpg
674.451	0.529	incorrect	repeat	Run1	repeat/STIM_003.jpg
678.173	0.741	correct	repeat	Run1	repeat/STIM_003.jpg
681.168	0.497	correct	repeat	Run1	repeat/STIM_004.jpg
683.992	0.619	correct	repeat	Run1	repeat/STIM_004.jpg
687.726	0.844	correct	repeat	Run1	repeat/STIM_004.jpg
692.298	0.7	correct	repeat	Run1	repeat/STIM_004.jpg
695.18	0.937	correct	repeat	Run1	repeat/STIM_004.jpg
698.638	0.688	correct	repeat	Run1	repeat/STIM_005.jpg
703.004	0.679	correct	repeat	Run1	repeat/STIM_005.jpg
707.51	0.811	correct	repeat	Run1	repeat/STIM_005.jpg
710.823	0.804	correct	repeat	Run1	repeat/STIM_005.jpg
714.938	0.747	correct	repeat	Run1	repeat/STIM_005.jpg
719.042	0.742	correct	repeat	Run1	repeat/STIM_006.jpg
723.775	0.701	correct	repeat	Run1	repeat/STIM_006.jpg
727.643	0.955	incorrect	repeat	Run1	repeat/STIM_006.jpg
732.245	0.737	correct	repeat	Run1	repeat/STIM_006.jpg
736.061	0.781	correct	repeat	Run1	repeat/STIM_006.jpg
740.548	0.898	correct	repeat	Run1	repeat/STIM_007.jpg
743.465	0.731	correct	repeat	Run1	repeat/STIM_007.jpg
747.217	0.79	correct	repeat	Run1	repeat/STIM_007.jpg
750.375	0.639	correct	repeat	Run1	repeat/STIM_007.jpg
754.49	0.978	correct	repeat	Run1	repeat/STIM_007.jpg
758.328	0.897	correct	repeat	Run1	repeat/STIM_008.jpg
762.487	0.836	correct	repeat	Run1	repeat/STIM_008.jpg
765.511	0.901	correct	repeat	Run1	repeat/STIM_008.jpg
770.41	0.518	correct	repeat	Run1	repeat/STIM_008.jpg
774.413	0.884	correct	repeat	Run1	repeat/STIM_008.jpg
778.226	0.63	correct	repeat	Run1	repeat/STIM_009.jpg
782.345	0.658	correct	repeat	Run1	repeat/STIM_009.jpg
785.959	0.586	correct	repeat	Run1	repeat/STIM_009.jpg
789.836	0.811	correct	repeat	Run1	repeat/STIM_009.jpg
794.197	0.928	correct	repeat	Run1	repeat/STIM_009.jpg
797.87	0.542	correct	repeat	Run1	repeat/STIM_010.jpg
801.268	0.954	correct	repeat	Run1	repeat/STIM_010.jpg
804.898	0.666	correct	repeat	Run1	repeat/STIM_010.jpg
808.571	0.855	correct	repeat	Run1	repeat/STIM_010.jpg
813.2	0.957	correct	repeat	Run1	repeat/STIM_010.jpg
817.704	0.828	correct	repeat	Run1	repeat/STIM_011.jpg
822.121	0.728	correct	repeat	Run1	repeat/STIM_011.jpg
826.538	0.754	correct	repeat	Run1	repeat/STIM_011.jpg
829.588	0.712	correct	repeat	Run1	repeat/STIM_011.jpg
833.348	0.554	correct	repeat	Run1	repeat/STIM_011.jpg
837.456	0.636	correct	repeat	Run1	repeat/STIM_012.jpg
841.453	0.55	correct	repeat	Run1	repeat/STIM_012.jpg
845.528	0.556	correct	repeat	Run1	repeat/STIM_012.jpg
848.194	0.889	correct	repeat	Run1	repeat/STIM_012.jpg
852.729	0.693	correct	repeat	Run1	repeat/STIM_012.jpg
856.922	0.859	correct	repeat	Run1	repeat/STIM_013.jpg
860.275	0.722	correct	repeat	Run1	repeat/STIM_013.jpg
863.342	0.807	correct	repeat	Run1	repeat/STIM_013.jpg
867.77	0.675	correct	repeat	Run1	repeat/STIM_013.jpg
871.861	0.539	correct	repeat	Run1	repeat/STIM_013.jpg
874.623	0.597	correct	repeat	Run1	repeat/STIM_014.jpg
877.841	0.948	correct	repeat	Run1	repeat/STIM_014.jpg
881.908	0.803	correct	repeat	Run1	repeat/STIM_014.jpg
884.778	0.967	correct	repeat	Run1	repeat/STIM_014.jpg
887.915	0.802	correct	repeat	Run1	repeat/STIM_014.jpg
891.114	2.096	correct	generate	Run2	generate/STIM_000.jpg
896.834	1.399	correct	generate	Run2	generate/STIM_000.jpg
900.524	1.917	correct	generate	Run2	generate/STIM_000.jpg
906.14	1.536	incorrect	generate	Run2	generate/STIM_000.jpg
909.769	1.175	correct	generate	Run2	generate/STIM_000.jpg
913.83	1.604	correct	generate	Run2	generate/STIM_001.jpg
918.526	2.028	correct	generate	Run2	generate/STIM_001.jpg
922.989	1.841	correct	generate	Run2	generate/STIM_001.jpg
926.972	2.039	correct	generate	Run2	generate/STIM_001.jpg
931.235	1.467	correct	generate	Run2	generate/STIM_001.jpg
936.011	2.321	correct	generate	Run2	generate/STIM_002.jpg
940.924	1.089	incorrect	generate	Run2	generate/STIM_002.jpg
944.133	1.807	incorrect	generate	Run2	generate/STIM_002.jpg
948.774	0.884	correct	generate	Run2	generate/STIM_002.jpg
951.68	1.206	correct	generate	Run2	generate/STIM_002.jpg
956.769	2.106	correct	generate	Run2	generate/STIM_003.jpg
961.851	2.108	correct	generate	Run2	generate/STIM_003.jpg
966.814	0.943	correct	generate	Run2	generate/STIM_003.jpg
971.036	1.816	correct	generate	Run2	generate/STIM_003.jpg
975.931	1.206	correct	generate	Run2	generate/STIM_003.jpg
980.502	1.563	incorrect	generate	Run2	generate/STIM_004.jpg
985.171	1.596	incorrect	generate	Run2	generate/STIM_004.jpg
990.207	1.984	correct	generate	Run2	generate/STIM_004.jpg
995.052	1.268	correct	generate	Run2	generate/STIM_004.jpg
1000.065	1.285	correct	generate	Run2	generate/STIM_004.jpg
1004.198	2.5	correct	generate	Run2	generate/STIM_005.jpg
1009.562	1.757	correct	generate	Run2	generate/STIM_005.jpg
1013.597	1.49	correct	generate	Run2	generate/STIM_005.jpg
1018.905	1.333	correct	generate	Run2	generate/STIM_005.jpg
1022.827	1.06	correct	generate	Run2	generate/STIM_005.jpg
1027.011	1.401	correct	generate	Run2	generate/STIM_006.jpg
1030.815	2.216	correct	generate	Run2	generate/STIM_006.jpg
1036.485	2.203	incorrect	generate	Run2	generate/STIM_006.jpg
1042.674	1.735	incorrect	generate	Run2	generate/STIM_006.jpg
1048.377	1.812	correct	generate	Run2	generate/STIM_006.jpg
1053.742	2.202	correct	generate	Run2	generate/STIM_007.jpg
1059.861	1.594	correct	generate	Run2	generate/STIM_007.jpg
1064.576	0.982	correct	generate	Run2	generate/STIM_007.jpg
1069.042	1.233	correct	generate	Run2	generate/STIM_007.jpg
1073.682	1.554	correct	generate	Run2	generate/STIM_007.jpg
1077.532	1.337	correct	generate	Run2	generate/STIM_008.jpg
1080.928	2.179	correct	generate	Run2	generate/STIM_008.jpg
1085.951	1.891	correct	generate	Run2	generate/STIM_008.jpg
1090.38	0.912	correct	generate	Run2	generate/STIM_008.jpg
1094.239	1.167	correct	generate	Run2	generate/STIM_008.jpg
1098.38	1.871	correct	generate	Run2	generate/STIM_009.jpg
1103.485	1.191	incorrect	generate	Run2	generate/STIM_009.jpg
1108.138	0.901	correct	generate	Run2	generate/STIM_009.jpg
1112.111	1.244	correct	generate	Run2	generate/STIM_009.jpg
1116.877	1.159	correct	generate	Run2	generate/STIM_009.jpg
1121.086	1.379	correct	generate	Run2	generate/STIM_010.jpg
1125.073	1.535	correct	generate	Run2	generate/STIM_010.jpg
1130.0	1.789	correct	generate	Run2	generate/STIM_010.jpg
1135.7	1.681	correct	generate	Run2	generate/STIM_010.jpg
1139.466	2.036	correct	generate	Run2	generate/STIM_010.jpg
1143.551	1.381	correct	generate	Run2	generate/STIM_011.jpg
1148.806	2.234	incorrect	generate	Run2	generate/STIM_011.jpg
1153.182	1.293	correct	generate	Run2	generate/STIM_011.jpg
1157.975	1.099	correct	generate	Run2	generate/STIM_011.jpg
1161.137	1.953	correct	generate	Run2	generate/STIM_011.jpg
1166.799	2.494	correct	generate	Run2	generate/STIM_012.jpg
1173.055	0.972	correct	generate	Run2	generate/STIM_012.jpg
1177.29	1.656	correct	generate	Run2	generate/STIM_012.jpg
1181.025	0.962	correct	generate	Run2	generate/STIM_012.jpg
1184.254	1.729	correct	generate	Run2	generate/STIM_012.jpg
1187.993	1.642	correct	generate	Run2	generate/STIM_013.jpg
1192.439	1.652	correct	generate	Run2	generate/STIM_013.jpg
1196.267	1.519	correct	generate	Run2	generate/STIM_013.jpg
1200.938	2.025	correct	generate	Run2	generate/STIM_013.jpg
1206.385	1.327	correct	generate	Run2	generate/STIM_013.jpg
1211.407	1.5	correct	generate	Run2	generate/STIM_014.jpg
1215.139	1.034	correct	generate	Run2	generate/STIM_014.jpg
1219.448	1.155	correct	generate	Run2	generate/STIM_014.jpg
1223.854	1.4	correct	generate	Run2	generate/STIM_014.jpg
1228.507	1.483	correct	generate	Run2	generate/STIM_014.jpg
1232.433	1.172	correct	generate	Run2	generate/STIM_015.jpg
1237.385	1.077	correct	generate	Run2	generate/STIM_015.jpg
1242.017	1.308	incorrect	generate	Run2	generate/STIM_015.jpg
1245.896	1.611	correct	generate	Run2	generate/STIM_015.jpg
1251.215	1.366	correct	generate	Run2	generate/STIM_015.jpg
1256.349	1.853	correct	generate	Run2	generate/STIM_016.jpg
1260.981	1.296	correct	generate	Run2	generate/STIM_016.jpg
1265.576	1.945	incorrect	generate	Run2	generate/STIM_016.jpg
1269.704	1.529	correct	generate	Run2	generate/STIM_016.jpg
1275.136	1.602	incorrect	generate	Run2	generate/STIM_016.jpg
1278.842	2.48	correct	generate	Run2	generate/STIM_017.jpg
1284.145	1.79	correct	generate	Run2	generate/STIM_017.jpg
1288.516	1.702	correct	generate	Run2	generate/STIM_017.jpg
1293.169	1.007	correct	generate	Run2	generate/STIM_017.jpg
1296.978	1.743	correct	generate	Run2	generate/STIM_017.jpg
1302.627	1.669	incorrect	generate	Run2	generate/STIM_018.jpg
1307.602	1.952	correct	generate	Run2	generate/STIM_018.jpg
1311.944	0.983	correct	generate	Run2	generate/STIM_018.jpg
1316.846	1.824	correct	generate	Run2	generate/STIM_018.jpg
1321.664	1.466	correct	generate	Run2	generate/STIM_018.jpg
1325.29	1.655	incorrect	generate	Run2	generate/STIM_019.jpg
1330.682	1.082	correct	generate	Run2	generate/STIM_019.jpg
1334.624	1.84	incorrect	generate	Run2	generate/STIM_019.jpg
1339.164	1.52	incorrect	generate	Run2	generate/STIM_019.jpg
1344.657	1.504	correct	generate	Run2	generate/STIM_019.jpg
1348.223	2.387	correct	generate	Run2	generate/STIM_020.jpg
1353.611	2.078	correct	generate	Run2	generate/STIM_020.jpg
1358.882	1.494	correct	generate	Run2	generate/STIM_020.jpg
1362.831	1.046	correct	generate	Run2	generate/STIM_020.jpg
1366.109	1.037	correct	generate	Run2	generate/STIM_020.jpg
1369.278	1.309	incorrect	generate	Run2	generate/STIM_021.jpg
1373.692	1.761	correct	generate	Run2	generate/STIM_021.jpg
1378.361	2.096	correct	generate	Run2	generate/STIM_021.jpg
1383.217	0.922	correct	generate	Run2	generate/STIM_021.jpg
1387.526	0.868	correct	generate	Run2	generate/STIM_021.jpg
1391.319	2.407	incorrect	generate	Run2	generate/STIM_022.jpg
1397.005	1.006	correct	generate	Run2	generate/STIM_022.jpg
1400.317	1.99	correct	generate	Run2	generate/STIM_022.jpg
1406.208	2.032	correct	generate	Run2	generate/STIM_022.jpg
1411.919	1.338	correct	generate	Run2	generate/STIM_022.jpg
1416.485	1.38	correct	generate	Run2	generate/STIM_023.jpg
1421.319	1.588	correct	generate	Run2	generate/STIM_023.jpg
1426.809	1.794	correct	generate	Run2	generate/STIM_023.jpg
1431.711	1.982	correct	generate	Run2	generate/STIM_023.jpg
1437.025	1.396	correct	generate	Run2	generate/STIM_023.jpg
1441.906	2.152	correct	generate	Run2	generate/STIM_024.jpg
1447.904	1.716	correct	generate	Run2	generate/STIM_024.jpg
1453.338	0.956	correct	generate	Run2	generate/STIM_024.jpg
1456.493	1.22	correct	generate	Run2	generate/STIM_024.jpg
1459.973	1.463	correct	generate	Run2	generate/STIM_024.jpg
1463.683	0.708	correct	repeat	Run2	repeat/STIM_000.jpg
1467.587	0.52	correct	repeat	Run2	repeat/STIM_000.jpg
1471.732	0.874	correct	repeat	Run2	repeat/STIM_000.jpg
1474.709	0.94	correct	repeat	Run2	repeat/STIM_000.jpg
1477.781	0.61	correct	repeat	Run2	repeat/STIM_000.jpg
1480.633	0.693	correct	repeat	Run2	repeat/STIM_001.jpg
1483.552	0.842	correct	repeat	Run2	repeat/STIM_001.jpg
1486.865	0.905	incorrect	repeat	Run2	repeat/STIM_001.jpg
1490.383	0.574	correct	repeat	Run2	repeat/STIM_001.jpg
1494.405	0.947	correct	repeat	Run2	repeat/STIM_001.jpg
1497.555	0.957	correct	repeat	Run2	repeat/STIM_002.jpg
1501.431	0.571	correct	repeat	Run2	repeat/STIM_002.jpg
1504.26	0.631	correct	repeat	Run2	repeat/STIM_002.jpg
1508.107	0.69	correct	repeat	Run2	repeat/STIM_002.jpg
1512.369	0.929	correct	repeat	Run2	repeat/STIM_002.jpg
1516.853	0.808	correct	repeat	Run2	repeat/STIM_003.jpg
1521.559	0.558	correct	repeat	Run2	repeat/STIM_003.jpg
1525.202	0.652	correct	repeat	Run2	repeat/STIM_003.jpg
1528.247	0.757	correct	repeat	Run2	repeat/STIM_003.jpg
1531.909	0.842	correct	repeat	Run2	repeat/STIM_003.jpg
1535.843	0.733	correct	repeat	Run2	repeat/STIM_004.jpg
1540.478	0.867	correct	repeat	Run2	repeat/STIM_004.jpg
1544.484	0.779	correct	repeat	Run2	repeat/STIM_004.jpg
1547.7	0.766	correct	repeat	Run2	repeat/STIM_004.jpg
1552.176	0.89	correct	repeat	Run2	repeat/STIM_004.jpg
1556.55	0.9	correct	repeat	Run2	repeat/STIM_005.jpg
1559.706	0.544	correct	repeat	Run2	repeat/STIM_005.jpg
1562.346	0.779	correct	repeat	Run2	repeat/STIM_005.jpg
1566.068	0.931	correct	repeat	Run2	repeat/STIM_005.jpg
1570.55	0.844	correct	repeat	Run2	repeat/STIM_005.jpg
1574.644	0.858	correct	repeat	Run2	repeat/STIM_006.jpg
1579.288	0.966	correct	repeat	Run2	repeat/STIM_006.jpg
1583.412	0.644	correct	repeat	Run2	repeat/STIM_006.jpg
1587.42	0.623	correct	repeat	Run2	repeat/STIM_006.jpg
1591.228	0.91	correct	repeat	Run2	repeat/STIM_006.jpg
1595.99	0.837	correct	repeat	Run2	repeat/STIM_007.jpg
1598.886	0.782	correct	repeat	Run2	repeat/STIM_007.jpg
1602.719	0.816	correct	repeat	Run2	repeat/STIM_007.jpg
1607.154	0.498	correct	repeat	Run2	repeat/STIM_007.jpg
1609.935	0.745	correct	repeat	Run2	repeat/STIM_007.jpg
1613.538	0.822	correct	repeat	Run2	repeat/STIM_008.jpg
1618.225	0.736	correct	repeat	Run2	repeat/STIM_008.jpg
1622.171	0.982	incorrect	repeat	Run2	repeat/STIM_008.jpg
1627.009	0.946	correct	repeat	Run2	repeat/STIM_008.jpg
1630.532	0.533	correct	repeat	Run2	repeat/STIM_008.jpg
1634.256	0.576	correct	repeat	Run2	repeat/STIM_009.jpg
1637.303	0.876	correct	repeat	Run2	repeat/STIM_009.jpg
1641.984	0.553	correct	repeat	Run2	repeat/STIM_009.jpg
1646.413	0.934	correct	repeat	Run2	repeat/STIM_009.jpg
1649.882	0.702	correct	repeat	Run2	repeat/STIM_009.jpg
1654.184	0.974	correct	repeat	Run2	repeat/STIM_010.jpg
1658.343	0.774	correct	repeat	Run2	repeat/STIM_010.jpg
1661.426	0.662	correct	repeat	Run2	repeat/STIM_010.jpg
1665.549	0.823	correct	repeat	Run2	repeat/STIM_010.jpg
1669.411	0.539	correct	repeat	Run2	repeat/STIM_010.jpg
1672.904	0.888	correct	repeat	Run2	repeat/STIM_011.jpg
1675.856	0.661	correct	repeat	Run2	repeat/STIM_011.jpg
1679.268	0.842	correct	repeat	Run2	repeat/STIM_011.jpg
1683.821	0.71	correct	repeat	Run2	repeat/STIM_011.jpg
1688.445	0.801	correct	repeat	Run2	repeat/STIM_011.jpg
1691.768	0.871	correct	repeat	Run2	repeat/STIM_012.jpg
1695.7	0.566	correct	repeat	Run2	repeat/STIM_012.jpg
1699.883	0.764	correct	repeat	Run2	repeat/STIM_012.jpg
1703.561	0.938	correct	repeat	Run2	repeat/STIM_012.jpg
1708.384	0.804	correct	repeat	Run2	repeat/STIM_012.jpg
1712.125	0.796	correct	repeat	Run2	repeat/STIM_013.jpg
1714.926	0.744	incorrect	repeat	Run2	repeat/STIM_013.jpg
1718.856	0.684	correct	repeat	Run2	repeat/STIM_013.jpg
1722.417	0.59	correct	repeat	Run2	repeat/STIM_013.jpg
1725.98	0.911	correct	repeat	Run2	repeat/STIM_013.jpg
1729.906	0.631	correct	repeat	Run2	repeat/STIM_014.jpg
1732.705	0.737	correct	repeat	Run2	repeat/STIM_014.jpg
1736.035	0.863	correct	repeat	Run2	repeat/STIM_014.jpg
1739.972	0.614	correct	repeat	Run2	repeat/STIM_014.jpg
1743.439	0.641	correct	repeat	Run2	repeat/STIM_014.jpg
1746.423	1.195	correct	generate	Run3	generate/STIM_000.jpg
1749.835	2.059	correct	generate	Run3	generate/STIM_000.jpg
1754.258	2.054	correct	generate	Run3	generate/STIM_000.jpg
1759.028	1.798	correct	generate	Run3	generate/STIM_000.jpg
1763.915	1.24	correct	generate	Run3	generate/STIM_000.jpg
1768.993	1.884	correct	generate	Run3	generate/STIM_001.jpg
1773.214	1.227	correct	generate	Run3	generate/STIM_001.jpg
1776.447	1.138	correct	generate	Run3	generate/STIM_001.jpg
1781.358	2.017	correct	generate	Run3	generate/STIM_001.jpg
1786.244	1.095	correct	generate	Run3	generate/STIM_001.jpg
1790.901	1.37	correct	generate	Run3	generate/STIM_002.jpg
1794.753	1.747	correct	generate	Run3	generate/STIM_002.jpg
1800.232	1.737	correct	generate	Run3	generate/STIM_002.jpg
1804.708	1.509	correct	generate	Run3	generate/STIM_002.jpg
1810.045	1.89	correct	generate	Run3	generate/STIM_002.jpg
1815.232	1.202	correct	generate	Run3	generate/STIM_003.jpg
1819.396	1.757	correct	generate	Run3	generate/STIM_003.jpg
1823.997	1.718	correct	generate	Run3	generate/STIM_003.jpg
1829.241	1.046	correct	generate	Run3	generate/STIM_003.jpg
1833.399	1.205	correct	generate	Run3	generate/STIM_003.jpg
1838.354	1.458	correct	generate	Run3	generate/STIM_004.jpg
1842.279	1.238	correct	generate	Run3	generate/STIM_004.jpg
1846.528	1.977	correct	generate	Run3	generate/STIM_004.jpg
1850.826	1.149	correct	generate	Run3	generate/STIM_004.jpg
1854.276	1.189	correct	generate	Run3	generate/STIM_004.jpg
1859.134	1.957	correct	generate	Run3	generate/STIM_005.jpg
1863.505	1.104	incorrect	generate	Run3	generate/STIM_005.jpg
1868.608	0.956	correct	generate	Run3	generate/STIM_005.jpg
1872.574	1.804	correct	generate	Run3	generate/STIM_005.jpg
1876.423	1.164	correct	generate	Run3	generate/STIM_005.jpg
1881.454	1.204	correct	generate	Run3	generate/STIM_006.jpg
1886.156	1.029	correct	generate	Run3	generate/STIM_006.jpg
1890.345	1.044	correct	generate	Run3	generate/STIM_006.jpg
1894.137	1.626	correct	generate	Run3	generate/STIM_006.jpg
1899.346	1.396	correct	generate	Run3	generate/STIM_006.jpg
1902.897	1.411	correct	generate	Run3	generate/STIM_007.jpg
1907.305	1.73	correct	generate	Run3	generate/STIM_007.jpg
1911.11	1.874	correct	generate	Run3	generate/STIM_007.jpg
1916.44	1.7	correct	generate	Run3	generate/STIM_007.jpg
1921.759	1.942	correct	generate	Run3	generate/STIM_007.jpg
1926.169	1.142	correct	generate	Run3	generate/STIM_008.jpg
1930.215	0.912	correct	generate	Run3	generate/STIM_008.jpg
1933.614	1.266	correct	generate	Run3	generate/STIM_008.jpg
1938.599	1.423	correct	generate	Run3	generate/STIM_008.jpg
1942.436	1.761	correct	generate	Run3	generate/STIM_008.jpg
1946.95	0.922	correct	generate	Run3	generate/STIM_009.jpg
1950.969	2.053	correct	generate	Run3	generate/STIM_009.jpg
1956.968	0.928	correct	generate	Run3	generate/STIM_009.jpg
1961.583	0.955	correct	generate	Run3	generate/STIM_009.jpg
1966.265	1.504	correct	generate	Run3	generate/STIM_009.jpg
1969.777	1.977	incorrect	generate	Run3	generate/STIM_010.jpg
1975.57	1.16	correct	generate	Run3	generate/STIM_010.jpg
1980.493	1.909	correct	generate	Run3	generate/STIM_010.jpg
1985.99	1.482	correct	generate	Run3	generate/STIM_010.jpg
1991.429	1.681	correct	generate	Run3	generate/STIM_010.jpg
1996.722	1.766	correct	generate	Run3	generate/STIM_011.jpg
2002.4	1.616	correct	generate	Run3	generate/STIM_011.jpg
2006.933	1.537	correct	generate	Run3	generate/STIM_011.jpg
2011.392	1.134	correct	generate	Run3	generate/STIM_011.jpg
2016.442	1.775	correct	generate	Run3	generate/STIM_011.jpg
2021.874	1.998	correct	generate	Run3	generate/STIM_012.jpg
2026.836	0.891	correct	generate	Run3	generate/STIM_012.jpg
2031.058	1.709	correct	generate	Run3	generate/STIM_012.jpg
2036.412	0.905	correct	generate	Run3	generate/STIM_012.jpg
2039.384	1.165	correct	generate	Run3	generate/STIM_012.jpg
2043.705	1.129	correct	generate	Run3	generate/STIM_013.jpg
2048.324	1.439	correct	generate	Run3	generate/STIM_013.jpg
2051.931	1.74	correct	generate	Run3	generate/STIM_013.jpg
2056.743	1.51	correct	generate	Run3	generate/STIM_013.jpg
2060.76	1.777	correct	generate	Run3	generate/STIM_013.jpg
2066.338	1.742	incorrect	generate	Run3	generate/STIM_014.jpg
2071.112	1.112	correct	generate	Run3	generate/STIM_014.jpg
2074.477	1.73	correct	generate	Run3	generate/STIM_014.jpg
2080.034	1.857	correct	generate	Run3	generate/STIM_014.jpg
2085.216	1.319	correct	generate	Run3	generate/STIM_014.jpg
2090.117	1.363	correct	generate	Run3	generate/STIM_015.jpg
2093.83	1.038	incorrect	generate	Run3	generate/STIM_015.jpg
2097.969	1.7	correct	generate	Run3	generate/STIM_015.jpg
2101.985	1.011	correct	generate	Run3	generate/STIM_015.jpg
2106.951	1.289	correct	generate	Run3	generate/STIM_015.jpg
2110.732	1.12	correct	generate	Run3	generate/STIM_016.jpg
2114.543	1.617	incorrect	generate	Run3	generate/STIM_016.jpg
2118.911	1.134	correct	generate	Run3	generate/STIM_016.jpg
2122.996	1.608	correct	generate	Run3	generate/STIM_016.jpg
2127.567	1.751	correct	generate	Run3	generate/STIM_016.jpg
2132.29	1.57	correct	generate	Run3	generate/STIM_017.jpg
2137.174	0.892	correct	generate	Run3	generate/STIM_017.jpg
2141.767	1.668	correct	generate	Run3	generate/STIM_017.jpg
2146.16	1.461	correct	generate	Run3	generate/STIM_017.jpg
2149.685	1.011	correct	generate	Run3	generate/STIM_017.jpg
2153.358	0.979	correct	generate	Run3	generate/STIM_018.jpg
2158.099	1.885	correct	generate	Run3	generate/STIM_018.jpg
2163.771	1.679	correct	generate	Run3	generate/STIM_018.jpg
2169.012	1.893	correct	generate	Run3	generate/STIM_018.jpg
2174.679	1.263	correct	generate	Run3	generate/STIM_018.jpg
2178.712	1.635	correct	generate	Run3	generate/STIM_019.jpg
2182.561	1.16	incorrect	generate	Run3	generate/STIM_019.jpg
2186.512	0.852	correct	generate	Run3	generate/STIM_019.jpg
2189.947	1.059	correct	generate	Run3	generate/STIM_019.jpg
2193.236	0.955	correct	generate	Run3	generate/STIM_019.jpg
2196.574	2.01	correct	generate	Run3	generate/STIM_020.jpg
2201.923	1.795	correct	generate	Run3	generate/STIM_020.jpg
2207.165	1.486	correct	generate	Run3	generate/STIM_020.jpg
2212.034	1.788	correct	generate	Run3	generate/STIM_020.jpg
2215.905	1.586	correct	generate	Run3	generate/STIM_020.jpg
2220.837	0.87	correct	generate	Run3	generate/STIM_021.jpg
2225.596	1.001	correct	generate	Run3	generate/STIM_021.jpg
2229.754	0.97	correct	generate	Run3	generate/STIM_021.jpg
2232.774	1.768	correct	generate	Run3	generate/STIM_021.jpg
2238.483	0.912	correct	generate	Run3	generate/STIM_021.jpg
2241.661	1.06	correct	generate	Run3	generate/STIM_022.jpg
2245.263	1.908	correct	generate	Run3	generate/STIM_022.jpg
2249.255	0.963	correct	generate	Run3	generate/STIM_022.jpg
2253.886	1.706	correct	generate	Run3	generate/STIM_022.jpg
2258.298	1.194	correct	generate	Run3	generate/STIM_022.jpg
2262.469	1.297	correct	generate	Run3	generate/STIM_023.jpg
2267.107	2.002	correct	generate	Run3	generate/STIM_023.jpg
2273.101	1.631	correct	generate	Run3	generate/STIM_023.jpg
2277.471	1.336	correct	generate	Run3	generate/STIM_023.jpg
2281.63	1.736	correct	generate	Run3	generate/STIM_023.jpg
2285.955	1.915	correct	generate	Run3	generate/STIM_024.jpg
2290.17	1.426	correct	generate	Run3	generate/STIM_024.jpg
2294.049	1.598	correct	generate	Run3	generate/STIM_024.jpg
2298.692	1.478	correct	generate	Run3	generate/STIM_024.jpg
2303.883	1.635	correct	generate	Run3	generate/STIM_024.jpg
2309.364	0.532	correct	repeat	Run3	repeat/STIM_000.jpg
2313.131	0.862	correct	repeat	Run3	repeat/STIM_000.jpg
2316.456	0.746	correct	repeat	Run3	repeat/STIM_000.jpg
2320.401	0.515	correct	repeat	Run3	repeat/STIM_000.jpg
2324.632	0.764	correct	repeat	Run3	repeat/STIM_000.jpg
2329.16	0.943	correct	repeat	Run3	repeat/STIM_001.jpg
2333.408	0.668	correct	repeat	Run3	repeat/STIM_001.jpg
2336.897	0.818	correct	repeat	Run3	repeat/STIM_001.jpg
2339.893	0.577	correct	repeat	Run3	repeat/STIM_001.jpg
2344.437	0.568	correct	repeat	Run3	repeat/STIM_001.jpg
2347.567	0.751	correct	repeat	Run3	repeat/STIM_002.jpg
2351.388	0.964	correct	repeat	Run3	repeat/STIM_002.jpg
2355.912	0.811	correct	repeat	Run3	repeat/STIM_002.jpg
2359.56	0.63	correct	repeat	Run3	repeat/STIM_002.jpg
2363.919	0.523	correct	repeat	Run3	repeat/STIM_002.jpg
2367.27	0.911	correct	repeat	Run3	repeat/STIM_003.jpg
2370.784	0.509	correct	repeat	Run3	repeat/STIM_003.jpg
2374.456	0.604	correct	repeat	Run3	repeat/STIM_003.jpg
2378.756	0.789	correct	repeat	Run3	repeat/STIM_003.jpg
2382.0	0.892	correct	repeat	Run3	repeat/STIM_003.jpg
2384.949	0.62	correct	repeat	Run3	repeat/STIM_004.jpg
2387.653	0.61	correct	repeat	Run3	repeat/STIM_004.jpg
2391.074	0.531	correct	repeat	Run3	repeat/STIM_004.jpg
2393.673	0.567	correct	repeat	Run3	repeat/STIM_004.jpg
2397.657	0.918	correct	repeat	Run3	repeat/STIM_004.jpg
2401.039	0.751	correct	repeat	Run3	repeat/STIM_005.jpg
2404.081	0.646	correct	repeat	Run3	repeat/STIM_005.jpg
2407.593	0.961	correct	repeat	Run3	repeat/STIM_005.jpg
2410.712	0.705	correct	repeat	Run3	repeat/STIM_005.jpg
2415.03	0.807	correct	repeat	Run3	repeat/STIM_005.jpg
2418.104	0.829	correct	repeat	Run3	repeat/STIM_006.jpg
2421.687	0.984	correct	repeat	Run3	repeat/STIM_006.jpg
2425.142	0.629	correct	repeat	Run3	repeat/STIM_006.jpg
2428.932	0.503	correct	repeat	Run3	repeat/STIM_006.jpg
2432.541	0.593	correct	repeat	Run3	repeat/STIM_006.jpg
2436.612	0.586	correct	repeat	Run3	repeat/STIM_007.jpg
2439.964	0.561	correct	repeat	Run3	repeat/STIM_007.jpg
2443.577	0.869	correct	repeat	Run3	repeat/STIM_007.jpg
2446.734	0.711	correct	repeat	Run3	repeat/STIM_007.jpg
2449.716	0.665	correct	repeat	Run3	repeat/STIM_007.jpg
2453.046	0.953	correct	repeat	Run3	repeat/STIM_008.jpg
2457.442	0.611	correct	repeat	Run3	repeat/STIM_008.jpg
2461.358	0.804	correct	repeat	Run3	repeat/STIM_008.jpg
2466.066	0.886	correct	repeat	Run3	repeat/STIM_008.jpg
2469.496	0.623	correct	repeat	Run3	repeat/STIM_008.jpg
2472.671	0.586	correct	repeat	Run3	repeat/STIM_009.jpg
2477.217	0.745	correct	repeat	Run3	repeat/STIM_009.jpg
2480.458	0.826	correct	repeat	Run3	repeat/STIM_009.jpg
2483.889	0.666	correct	repeat	Run3	repeat/STIM_009.jpg
2487.77	0.964	correct	repeat	Run3	repeat/STIM_009.jpg
2491.891	0.709	correct	repeat	Run3	repeat/STIM_010.jpg
2495.812	0.882	correct	repeat	Run3	repeat/STIM_010.jpg
2498.874	0.537	correct	repeat	Run3	repeat/STIM_010.jpg
2501.451	0.92	correct	repeat	Run3	repeat/STIM_010.jpg
2506.338	0.898	correct	repeat	Run3	repeat/STIM_010.jpg
2510.725	0.674	correct	repeat	Run3	repeat/STIM_011.jpg
2515.359	0.672	correct	repeat	Run3	repeat/STIM_011.jpg
2518.464	0.572	incorrect	repeat	Run3	repeat/STIM_011.jpg
2522.412	0.535	correct	repeat	Run3	repeat/STIM_011.jpg
2525.893	0.579	correct	repeat	Run3	repeat/STIM_011.jpg
2529.325	0.738	correct	repeat	Run3	repeat/STIM_012.jpg
2533.971	0.497	correct	repeat	Run3	repeat/STIM_012.jpg
2536.673	0.971	correct	repeat	Run3	repeat/STIM_012.jpg
2540.404	0.646	correct	repeat	Run3	repeat/STIM_012.jpg
2544.542	0.615	incorrect	repeat	Run3	repeat/STIM_012.jpg
2547.924	0.841	correct	repeat	Run3	repeat/STIM_013.jpg
2552.017	0.668	incorrect	repeat	Run3	repeat/STIM_013.jpg
2556.306	0.565	correct	repeat	Run3	repeat/STIM_013.jpg
2558.956	0.665	correct	repeat	Run3	repeat/STIM_013.jpg
2562.14	0.719	correct	repeat	Run3	repeat/STIM_013.jpg
2566.243	0.933	correct	repeat	Run3	repeat/STIM_014.jpg
2570.165	0.956	correct	repeat	Run3	repeat/STIM_014.jpg
2575.028	0.706	correct	repeat	Run3	repeat/STIM_014.jpg
2579.529	0.82	incorrect	repeat	Run3	repeat/STIM_014.jpg
2584.144	0.494	correct	repeat	Run3	repeat/STIM_014.jpg
2587.675	1.055	correct	generate	Run4	generate/STIM_000.jpg
2590.758	1.506	correct	generate	Run4	generate/STIM_000.jpg
2595.65	1.056	correct	generate	Run4	generate/STIM_000.jpg
2599.607	1.139	correct	generate	Run4	generate/STIM_000.jpg
2602.965	1.784	correct	generate	Run4	generate/STIM_000.jpg
2607.597	1.248	correct	generate	Run4	generate/STIM_001.jpg
2611.073	1.092	correct	generate	Run4	generate/STIM_001.jpg
2616.107	2.051	correct	generate	Run4	generate/STIM_001.jpg
2620.878	0.837	correct	generate	Run4	generate/STIM_001.jpg
2624.727	1.886	correct	generate	Run4	generate/STIM_001.jpg
2630.156	1.065	correct	generate	Run4	generate/STIM_002.jpg
2633.771	1.833	correct	generate	Run4	generate/STIM_002.jpg
2639.425	1.102	correct	generate	Run4	generate/STIM_002.jpg
2642.62	1.554	correct	generate	Run4	generate/STIM_002.jpg
2646.275	1.08	correct	generate	Run4	generate/STIM_002.jpg
2650.58	1.107	correct	generate	Run4	generate/STIM_003.jpg
2655.31	1.263	correct	generate	Run4	generate/STIM_003.jpg
2658.992	1.19	correct	generate	Run4	generate/STIM_003.jpg
2662.385	1.343	correct	generate	Run4	generate/STIM_003.jpg
2666.391	1.809	correct	generate	Run4	generate/STIM_003.jpg
2671.549	1.906	correct	generate	Run4	generate/STIM_004.jpg
2676.057	0.916	correct	generate	Run4	generate/STIM_004.jpg
2680.274	1.833	correct	generate	Run4	generate/STIM_004.jpg
2684.736	1.904	correct	generate	Run4	generate/STIM_004.jpg
2688.913	1.55	correct	generate	Run4	generate/STIM_004.jpg
2692.725	1.624	correct	generate	Run4	generate/STIM_005.jpg
2696.699	1.056	correct	generate	Run4	generate/STIM_005.jpg
2700.089	1.518	correct	generate	Run4	generate/STIM_005.jpg
2704.042	1.726	correct	generate	Run4	generate/STIM_005.jpg
2709.014	1.819	correct	generate	Run4	generate/STIM_005.jpg
2714.193	1.487	correct	generate	Run4	generate/STIM_006.jpg
2718.031	1.143	correct	generate	Run4	generate/STIM_006.jpg
2722.374	0.971	correct	generate	Run4	generate/STIM_006.jpg
2727.052	1.008	correct	generate	Run4	generate/STIM_006.jpg
2731.594	1.88	correct	generate	Run4	generate/STIM_006.jpg
2736.643	1.774	correct	generate	Run4	generate/STIM_007.jpg
2742.025	1.833	correct	generate	Run4	generate/STIM_007.jpg
2747.345	1.448	correct	generate	Run4	generate/STIM_007.jpg
2752.04	1.781	correct	generate	Run4	generate/STIM_007.jpg
2756.178	0.979	correct	generate	Run4	generate/STIM_007.jpg
2759.334	1.897	correct	generate	Run4	generate/STIM_008.jpg
2763.59	1.061	correct	generate	Run4	generate/STIM_008.jpg
2767.52	1.78	correct	generate	Run4	generate/STIM_008.jpg
2773.126	1.691	correct	generate	Run4	generate/STIM_008.jpg
2778.145	1.746	correct	generate	Run4	generate/STIM_008.jpg
2782.084	1.336	correct	generate	Run4	generate/STIM_009.jpg
2786.836	0.948	correct	generate	Run4	generate/STIM_009.jpg
2791.177	0.923	correct	generate	Run4	generate/STIM_009.jpg
2794.811	1.752	correct	generate	Run4	generate/STIM_009.jpg
2799.459	1.347	correct	generate	Run4	generate/STIM_009.jpg
2803.473	2.048	correct	generate	Run4	generate/STIM_010.jpg
2808.923	1.799	correct	generate	Run4	generate/STIM_010.jpg
2814.262	1.335	correct	generate	Run4	generate/STIM_010.jpg
2819.402	2.038	incorrect	generate	Run4	generate/STIM_010.jpg
2823.489	1.559	correct	generate	Run4	generate/STIM_010.jpg
2828.327	0.979	correct	generate	Run4	generate/STIM_011.jpg
2832.221	1.824	correct	generate	Run4	generate/STIM_011.jpg
2836.664	1.432	correct	generate	Run4	generate/STIM_011.jpg
2841.34	0.927	correct	generate	Run4	generate/STIM_011.jpg
2844.324	1.079	correct	generate	Run4	generate/STIM_011.jpg
2848.123	1.083	correct	generate	Run4	generate/STIM_012.jpg
2851.263	1.762	correct	generate	Run4	generate/STIM_012.jpg
2855.905	1.026	correct	generate	Run4	generate/STIM_012.jpg
2860.431	1.364	correct	generate	Run4	generate/STIM_012.jpg
2864.57	1.628	correct	generate	Run4	generate/STIM_012.jpg
2869.956	1.925	correct	generate	Run4	generate/STIM_013.jpg
2874.045	0.879	correct	generate	Run4	generate/STIM_013.jpg
2878.177	1.213	correct	generate	Run4	generate/STIM_013.jpg
2883.262	1.028	correct	generate	Run4	generate/STIM_013.jpg
2887.357	1.725	correct	generate	Run4	generate/STIM_013.jpg
2893.024	0.926	correct	generate	Run4	generate/STIM_014.jpg
2897.547	1.027	correct	generate	Run4	generate/STIM_014.jpg
2902.372	0.97	correct	generate	Run4	generate/STIM_014.jpg
2907.172	1.196	correct	generate	Run4	generate/STIM_014.jpg
2911.631	1.324	correct	generate	Run4	generate/STIM_014.jpg
2916.625	1.849	correct	generate	Run4	generate/STIM_015.jpg
2922.107	1.388	correct	generate	Run4	generate/STIM_015.jpg
2926.029	1.225	correct	generate	Run4	generate/STIM_015.jpg
2930.794	1.351	correct	generate	Run4	generate/STIM_015.jpg
2935.555	0.989	correct	generate	Run4	generate/STIM_015.jpg
2938.714	1.39	correct	generate	Run4	generate/STIM_016.jpg
2943.237	1.06	correct	generate	Run4	generate/STIM_016.jpg
2946.721	1.372	correct	generate	Run4	generate/STIM_016.jpg
2951.762	1.482	correct	generate	Run4	generate/STIM_016.jpg
2955.843	0.976	correct	generate	Run4	generate/STIM_016.jpg
2960.217	1.487	correct	generate	Run4	generate/STIM_017.jpg
2964.351	1.732	incorrect	generate	Run4	generate/STIM_017.jpg
2969.823	1.709	correct	generate	Run4	generate/STIM_017.jpg
2975.087	0.891	correct	generate	Run4	generate/STIM_017.jpg
2978.799	1.833	correct	generate	Run4	generate/STIM_017.jpg
2983.856	1.01	correct	generate	Run4	generate/STIM_018.jpg
2988.378	1.691	correct	generate	Run4	generate/STIM_018.jpg
2992.544	1.04	correct	generate	Run4	generate/STIM_018.jpg
2995.77	1.626	correct	generate	Run4	generate/STIM_018.jpg
3001.055	1.5	correct	generate	Run4	generate/STIM_018.jpg
3004.583	1.497	correct	generate	Run4	generate/STIM_019.jpg
3009.195	0.866	correct	generate	Run4	generate/STIM_019.jpg
3012.066	1.765	correct	generate	Run4	generate/STIM_019.jpg
3016.866	1.784	correct	generate	Run4	generate/STIM_019.jpg
3021.685	1.139	correct	generate	Run4	generate/STIM_019.jpg
3026.472	0.889	correct	generate	Run4	generate/STIM_020.jpg
3030.266	1.496	correct	generate	Run4	generate/STIM_020.jpg
3034.073	1.294	correct	generate	Run4	generate/STIM_020.jpg
3039.29	1.329	correct	generate	Run4	generate/STIM_020.jpg
3044.403	1.62	correct	generate	Run4	generate/STIM_020.jpg
3048.409	1.379	correct	generate	Run4	generate/STIM_021.jpg
3052.681	1.975	correct	generate	Run4	generate/STIM_021.jpg
3057.61	1.659	correct	generate	Run4	generate/STIM_021.jpg
3062.238	1.574	correct	generate	Run4	generate/STIM_021.jpg
3067.52	1.243	correct	generate	Run4	generate/STIM_021.jpg
3071.721	1.844	correct	generate	Run4	generate/STIM_022.jpg
3076.815	1.152	correct	generate	Run4	generate/STIM_022.jpg
3081.34	1.348	correct	generate	Run4	generate/STIM_022.jpg
3086.649	1.269	correct	generate	Run4	generate/STIM_022.jpg
3090.321	2.004	correct	generate	Run4	generate/STIM_022.jpg
3094.836	2.051	correct	generate	Run4	generate/STIM_023.jpg
3099.615	1.072	correct	generate	Run4	generate/STIM_023.jpg
3104.657	1.172	correct	generate	Run4	generate/STIM_023.jpg
3108.174	1.489	correct	generate	Run4	generate/STIM_023.jpg
3113.078	1.036	correct	generate	Run4	generate/STIM_023.jpg
3117.83	1.165	correct	generate	Run4	generate/STIM_024.jpg
3122.054	1.305	correct	generate	Run4	generate/STIM_024.jpg
3125.373	1.008	correct	generate	Run4	generate/STIM_024.jpg
3128.859	1.853	correct	generate	Run4	generate/STIM_024.jpg
3133.319	1.244	correct	generate	Run4	generate/STIM_024.jpg
3138.532	0.66	correct	repeat	Run4	repeat/STIM_000.jpg
3141.306	0.701	correct	repeat	Run4	repeat/STIM_000.jpg
3145.105	0.529	correct	repeat	Run4	repeat/STIM_000.jpg
3148.384	0.744	correct	repeat	Run4	repeat/STIM_000.jpg
3152.344	0.68	correct	repeat	Run4	repeat/STIM_000.jpg
3156.399	0.971	correct	repeat	Run4	repeat/STIM_001.jpg
3160.22	0.51	correct	repeat	Run4	repeat/STIM_001.jpg
3164.563	0.959	correct	repeat	Run4	repeat/STIM_001.jpg
3168.109	0.729	correct	repeat	Run4	repeat/STIM_001.jpg
3172.024	0.583	correct	repeat	Run4	repeat/STIM_001.jpg
3176.012	0.817	correct	repeat	Run4	repeat/STIM_002.jpg
3179.547	0.762	correct	repeat	Run4	repeat/STIM_002.jpg
3182.464	0.648	incorrect	repeat	Run4	repeat/STIM_002.jpg
3186.857	0.518	correct	repeat	Run4	repeat/STIM_002.jpg
3189.698	0.753	correct	repeat	Run4	repeat/STIM_002.jpg
3194.164	0.612	correct	repeat	Run4	repeat/STIM_003.jpg
3197.903	0.824	correct	repeat	Run4	repeat/STIM_003.jpg
3201.362	0.74	correct	repeat	Run4	repeat/STIM_003.jpg
3204.655	0.684	correct	repeat	Run4	repeat/STIM_003.jpg
3207.889	0.661	correct	repeat	Run4	repeat/STIM_003.jpg
3211.831	0.895	correct	repeat	Run4	repeat/STIM_004.jpg
3216.435	0.937	correct	repeat	Run4	repeat/STIM_004.jpg
3220.17	0.923	correct	repeat	Run4	repeat/STIM_004.jpg
3224.345	0.591	correct	repeat	Run4	repeat/STIM_004.jpg
3227.787	0.858	correct	repeat	Run4	repeat/STIM_004.jpg
3230.75	0.877	correct	repeat	Run4	repeat/STIM_005.jpg
3234.167	0.633	correct	repeat	Run4	repeat/STIM_005.jpg
3238.72	0.914	correct	repeat	Run4	repeat/STIM_005.jpg
3242.905	0.877	correct	repeat	Run4	repeat/STIM_005.jpg
3246.09	0.788	correct	repeat	Run4	repeat/STIM_005.jpg
3248.981	0.522	correct	repeat	Run4	repeat/STIM_006.jpg
3253.491	0.515	correct	repeat	Run4	repeat/STIM_006.jpg
3257.734	0.889	correct	repeat	Run4	repeat/STIM_006.jpg
3262.094	0.957	correct	repeat	Run4	repeat/STIM_006.jpg
3266.103	0.924	correct	repeat	Run4	repeat/STIM_006.jpg
3269.781	0.981	correct	repeat	Run4	repeat/STIM_007.jpg
3272.763	0.581	correct	repeat	Run4	repeat/STIM_007.jpg
3277.067	0.682	correct	repeat	Run4	repeat/STIM_007.jpg
3279.875	0.952	correct	repeat	Run4	repeat/STIM_007.jpg
3282.959	0.846	correct	repeat	Run4	repeat/STIM_007.jpg
3286.981	0.817	correct	repeat	Run4	repeat/STIM_008.jpg
3290.487	0.685	correct	repeat	Run4	repeat/STIM_008.jpg
3293.81	0.64	correct	repeat	Run4	repeat/STIM_008.jpg
3298.222	0.834	correct	repeat	Run4	repeat/STIM_008.jpg
3302.168	0.7	correct	repeat	Run4	repeat/STIM_008.jpg
3306.194	0.909	correct	repeat	Run4	repeat/STIM_009.jpg
3309.483	0.767	correct	repeat	Run4	repeat/STIM_009.jpg
3312.271	0.892	correct	repeat	Run4	repeat/STIM_009.jpg
3315.34	0.964	correct	repeat	Run4	repeat/STIM_009.jpg
3318.475	0.64	correct	repeat	Run4	repeat/STIM_009.jpg
3321.496	0.616	correct	repeat	Run4	repeat/STIM_010.jpg
3324.143	0.534	correct	repeat	Run4	repeat/STIM_010.jpg
3327.634	0.873	correct	repeat	Run4	repeat/STIM_010.jpg
3331.459	0.756	correct	repeat	Run4	repeat/STIM_010.jpg
3335.563	0.649	correct	repeat	Run4	repeat/STIM_010.jpg
3339.028	0.679	correct	repeat	Run4	repeat/STIM_011.jpg
3343.342	0.78	correct	repeat	Run4	repeat/STIM_011.jpg
3346.757	0.942	correct	repeat	Run4	repeat/STIM_011.jpg
3351.449	0.862	correct	repeat	Run4	repeat/STIM_011.jpg
3355.393	0.749	correct	repeat	Run4	repeat/STIM_011.jpg
3358.202	0.92	correct	repeat	Run4	repeat/STIM_012.jpg
3361.937	0.893	correct	repeat	Run4	repeat/STIM_012.jpg
3365.777	0.676	correct	repeat	Run4	repeat/STIM_012.jpg
3368.886	0.649	correct	repeat	Run4	repeat/STIM_012.jpg
3371.536	0.873	correct	repeat	Run4	repeat/STIM_012.jpg
3375.934	0.892	correct	repeat	Run4	repeat/STIM_013.jpg
3380.31	0.955	correct	repeat	Run4	repeat/STIM_013.jpg
3383.797	0.497	correct	repeat	Run4	repeat/STIM_013.jpg
3386.387	0.587	correct	repeat	Run4	repeat/STIM_013.jpg
3388.994	0.688	correct	repeat	Run4	repeat/STIM_013.jpg
3391.723	0.845	correct	repeat	Run4	repeat/STIM_014.jpg
3395.875	0.716	correct	repeat	Run4	repeat/STIM_014.jpg
3399.192	0.68	correct	repeat	Run4	repeat/STIM_014.jpg
3402.985	0.688	correct	repeat	Run4	repeat/STIM_014.jpg
3407.391	0.56	correct	repeat	Run4	repeat/STIM_014.jpg
