onset	duration	response_time_ms	trial_type	learning_stage	stimulus	response_port
0.0	2.923	2923.4	generate	Run1	generate/STIM_000.jpg	100
5.893	1.557	1556.7	generate	Run1	generate/STIM_000.jpg	100
11.422	2.159	2158.6	generate	Run1	generate/STIM_000.jpg	99
17.15	2.075	2075.0	generate	Run1	generate/STIM_000.jpg	100
22.641	1.577	1576.7	generate	Run1	generate/STIM_000.jpg	100
27.404	1.972	1972.0	generate	Run1	generate/STIM_001.jpg	100
32.146	1.254	1254.1	generate	Run1	generate/STIM_001.jpg	99
37.4	2.504	2504.0	generate	Run1	generate/STIM_001.jpg	99
43.66	1.622	1622.2	generate	Run1	generate/STIM_001.jpg	99
47.391	1.96	1960.1	generate	Run1	generate/STIM_001.jpg	99
51.541	1.704	1704.4	generate	Run1	generate/STIM_002.jpg	100
55.406	1.911	1910.6	generate	Run1	generate/STIM_002.jpg	99
60.383	2.167	2167.4	generate	Run1	generate/STIM_002.jpg	100
64.597	1.565	1565.0	generate	Run1	generate/STIM_002.jpg	100
69.539	1.172	1171.7	generate	Run1	generate/STIM_002.jpg	100
73.097	2.684	2684.3	generate	Run1	generate/STIM_003.jpg	100
79.516	2.542	2542.2	generate	Run1	generate/STIM_003.jpg	100
85.123	2.392	2392.3	generate	Run1	generate/STIM_003.jpg	100
89.521	1.642	1641.8	generate	Run1	generate/STIM_003.jpg	100
93.439	2.176	2175.6	generate	Run1	generate/STIM_003.jpg	100
97.831	1.223	1222.7	generate	Run1	generate/STIM_004.jpg	100
101.881	2.447	2446.8	generate	Run1	generate/STIM_004.jpg	100
106.516	1.671	1671.1	generate	Run1	generate/STIM_004.jpg	100
111.675	1.793	1792.8	generate	Run1	generate/STIM_004.jpg	99
117.445	1.805	1805.4	generate	Run1	generate/STIM_004.jpg	99
121.557	2.551	2551.0	generate	Run1	generate/STIM_005.jpg	99
127.548	2.548	2547.8	generate	Run1	generate/STIM_005.jpg	99
132.129	1.451	1451.2	generate	Run1	generate/STIM_005.jpg	100
137.414	1.331	1330.6	generate	Run1	generate/STIM_005.jpg	99
141.065	2.201	2201.4	generate	Run1	generate/STIM_005.jpg	99
146.71	2.836	2836.5	generate	Run1	generate/STIM_006.jpg	99
151.761	2.242	2241.9	generate	Run1	generate/STIM_006.jpg	100
157.485	1.313	1313.3	generate	Run1	generate/STIM_006.jpg	99
162.135	1.891	1891.0	generate	Run1	generate/STIM_006.jpg	99
167.879	1.219	1218.9	generate	Run1	generate/STIM_006.jpg	100
172.324	1.226	1226.5	generate	Run1	generate/STIM_007.jpg	100
176.377	1.878	1877.8	generate	Run1	generate/STIM_007.jpg	100
181.972	2.502	2501.9	generate	Run1	generate/STIM_007.jpg	99
187.258	1.741	1740.9	generate	Run1	generate/STIM_007.jpg	99
191.611	0.953	952.8	generate	Run1	generate/STIM_007.jpg	99
195.724	2.013	2013.1	generate	Run1	generate/STIM_008.jpg	99
200.04	2.756	2756.0	generate	Run1	generate/STIM_008.jpg	99
205.981	1.91	1910.2	generate	Run1	generate/STIM_008.jpg	100
210.712	1.94	1939.7	generate	Run1	generate/STIM_008.jpg	100
215.897	1.461	1461.0	generate	Run1	generate/STIM_008.jpg	99
219.433	2.436	2436.4	generate	Run1	generate/STIM_009.jpg	99
225.763	2.384	2383.5	generate	Run1	generate/STIM_009.jpg	100
230.304	2.223	2222.7	generate	Run1	generate/STIM_009.jpg	100
235.124	2.352	2352.3	generate	Run1	generate/STIM_009.jpg	99
240.993	2.035	2034.9	generate	Run1	generate/STIM_009.jpg	99
246.847	2.929	2929.2	generate	Run1	generate/STIM_010.jpg	100
253.144	1.934	1934.5	generate	Run1	generate/STIM_010.jpg	99
259.017	1.973	1972.9	generate	Run1	generate/STIM_010.jpg	100
264.374	2.026	2025.7	generate	Run1	generate/STIM_010.jpg	99
269.418	1.683	1683.2	generate	Run1	generate/STIM_010.jpg	99
273.378	1.6	1599.8	generate	Run1	generate/STIM_011.jpg	100
277.48	1.419	1418.8	generate	Run1	generate/STIM_011.jpg	99
282.503	2.407	2407.0	generate	Run1	generate/STIM_011.jpg	99
288.849	2.103	2102.9	generate	Run1	generate/STIM_011.jpg	100
293.769	1.802	1802.2	generate	Run1	generate/STIM_011.jpg	100
298.684	1.552	1552.3	generate	Run1	generate/STIM_012.jpg	100
303.286	1.89	1890.4	generate	Run1	generate/STIM_012.jpg	100
307.994	2.57	2570.2	generate	Run1	generate/STIM_012.jpg	100
314.274	2.156	2156.2	generate	Run1	generate/STIM_012.jpg	100
318.487	1.131	1130.6	generate	Run1	generate/STIM_012.jpg	100
323.402	2.235	2235.0	generate	Run1	generate/STIM_013.jpg	99
329.392	1.402	1402.3	generate	Run1	generate/STIM_013.jpg	100
334.63	1.82	1819.6	generate	Run1	generate/STIM_013.jpg	100
339.998	1.55	1549.7	generate	Run1	generate/STIM_013.jpg	99
343.672	1.653	1653.2	generate	Run1	generate/STIM_013.jpg	99
348.232	1.848	1847.8	generate	Run1	generate/STIM_014.jpg	100
353.371	1.19	1189.7	generate	Run1	generate/STIM_014.jpg	100
357.315	2.295	2294.7	generate	Run1	generate/STIM_014.jpg	100
362.169	1.51	1509.8	generate	Run1	generate/STIM_014.jpg	100
367.371	1.447	1447.3	generate	Run1	generate/STIM_014.jpg	99
372.516	2.787	2786.6	generate	Run1	generate/STIM_015.jpg	99
378.396	1.153	1152.7	generate	Run1	generate/STIM_015.jpg	99
381.913	2.367	2367.0	generate	Run1	generate/STIM_015.jpg	99
387.456	2.026	2025.8	generate	Run1	generate/STIM_015.jpg	99
392.917	1.424	1424.2	generate	Run1	generate/STIM_015.jpg	99
397.609	2.174	2173.9	generate	Run1	generate/STIM_016.jpg	100
402.73	1.532	1531.5	generate	Run1	generate/STIM_016.jpg	99
407.464	2.62	2620.4	generate	Run1	generate/STIM_016.jpg	99
412.26	2.181	2181.0	generate	Run1	generate/STIM_016.jpg	100
417.279	1.632	1631.9	generate	Run1	generate/STIM_016.jpg	100
421.703	1.851	1851.1	generate	Run1	generate/STIM_017.jpg	99
426.003	1.559	1558.6	generate	Run1	generate/STIM_017.jpg	100
429.708	1.128	1128.0	generate	Run1	generate/STIM_017.jpg	99
433.637	1.468	1467.7	generate	Run1	generate/STIM_017.jpg	100
438.669	1.509	1508.6	generate	Run1	generate/STIM_017.jpg	99
443.852	1.35	1350.1	generate	Run1	generate/STIM_018.jpg	100
448.63	2.532	2532.4	generate	Run1	generate/STIM_018.jpg	100
453.513	1.308	1307.6	generate	Run1	generate/STIM_018.jpg	99
457.722	1.997	1997.3	generate	Run1	generate/STIM_018.jpg	99
463.226	1.376	1376.2	generate	Run1	generate/STIM_018.jpg	99
467.054	1.97	1970.1	generate	Run1	generate/STIM_019.jpg	99
472.601	1.207	1207.4	generate	Run1	generate/STIM_019.jpg	100
476.85	1.419	1418.9	generate	Run1	generate/STIM_019.jpg	99
480.855	1.317	1316.6	generate	Run1	generate/STIM_019.jpg	99
484.351	0.988	988.3	generate	Run1	generate/STIM_019.jpg	100
487.463	1.713	1712.8	generate	Run1	generate/STIM_020.jpg	100
491.265	2.018	2017.8	generate	Run1	generate/STIM_020.jpg	100
496.461	1.458	1458.1	generate	Run1	generate/STIM_020.jpg	100
500.392	1.497	1497.1	generate	Run1	generate/STIM_020.jpg	100
505.727	1.492	1491.8	generate	Run1	generate/STIM_020.jpg	100
509.431	1.215	1215.3	generate	Run1	generate/STIM_021.jpg	100
514.408	2.413	2413.2	generate	Run1	generate/STIM_021.jpg	99
520.478	1.59	1589.7	generate	Run1	generate/STIM_021.jpg	99
524.278	1.172	1172.2	generate	Run1	generate/STIM_021.jpg	99
529.313	2.135	2134.7	generate	Run1	generate/STIM_021.jpg	99
534.63	2.076	2076.3	generate	Run1	generate/STIM_022.jpg	100
539.066	2.246	2246.5	generate	Run1	generate/STIM_022.jpg	100
543.513	1.243	1243.4	generate	Run1	generate/STIM_022.jpg	100
547.91	1.142	1141.9	generate	Run1	generate/STIM_022.jpg	100
552.888	1.977	1977.4	generate	Run1	generate/STIM_022.jpg	100
556.87	2.469	2468.6	generate	Run1	generate/STIM_023.jpg	99
561.756	2.049	2048.7	generate	Run1	generate/STIM_023.jpg	99
567.525	2.505	2505.1	generate	Run1	generate/STIM_023.jpg	100
572.579	1.097	1096.9	generate	Run1	generate/STIM_023.jpg	99
577.621	1.91	1910.2	generate	Run1	generate/STIM_023.jpg	99
583.147	2.123	2123.4	generate	Run1	generate/STIM_024.jpg	100
588.165	1.193	1192.9	generate	Run1	generate/STIM_024.jpg	99
592.023	1.87	1870.3	generate	Run1	generate/STIM_024.jpg	100
596.049	1.606	1606.0	generate	Run1	generate/STIM_024.jpg	99
601.2	1.027	1027.1	generate	Run1	generate/STIM_024.jpg	100
605.967	0.503	503.3	repeat	Run1	repeat/STIM_000.jpg	99
609.674	0.854	854.1	repeat	Run1	repeat/STIM_000.jpg	100
612.553	0.682	682.3	repeat	Run1	repeat/STIM_000.jpg	100
616.434	0.802	801.6	repeat	Run1	repeat/STIM_000.jpg	99
619.749	0.672	671.8	repeat	Run1	repeat/STIM_000.jpg	99
622.689	0.841	840.9	repeat	Run1	repeat/STIM_001.jpg	99
626.955	0.545	544.6	repeat	Run1	repeat/STIM_001.jpg	99
630.022	0.956	955.6	repeat	Run1	repeat/STIM_001.jpg	99
633.546	0.802	802.3	repeat	Run1	repeat/STIM_001.jpg	100
637.528	0.825	824.7	repeat	Run1	repeat/STIM_001.jpg	99
642.223	0.706	706.4	repeat	Run1	repeat/STIM_002.jpg	100
645.595	0.594	594.2	repeat	Run1	repeat/STIM_002.jpg	100
649.83	0.8	800.4	repeat	Run1	repeat/STIM_002.jpg	99
652.656	0.916	916.5	repeat	Run1	repeat/STIM_002.jpg	100
657.293	0.965	964.7	repeat	Run1	repeat/STIM_002.jpg	99
661.465	0.554	554.1	repeat	Run1	repeat/STIM_003.jpg	100
665.031	0.661	661.4	repeat	Run1	repeat/STIM_003.jpg	99
669.631	0.963	963.4	repeat	Run1	repeat/STIM_003.jpg	99
674.451	0.529	529.1	repeat	Run1	repeat/STIM_003.jpg	100
678.173	0.741	740.8	repeat	Run1	repeat/STIM_003.jpg	100
681.168	0.497	497.0	repeat	Run1	repeat/STIM_004.jpg	99
683.992	0.619	618.7	repeat	Run1	repeat/STIM_004.jpg	99
687.726	0.844	844.3	repeat	Run1	repeat/STIM_004.jpg	100
692.298	0.7	699.8	repeat	Run1	repeat/STIM_004.jpg	99
695.18	0.937	937.3	repeat	Run1	repeat/STIM_004.jpg	99
698.638	0.688	687.6	repeat	Run1	repeat/STIM_005.jpg	100
703.004	0.679	679.4	repeat	Run1	repeat/STIM_005.jpg	100
707.51	0.811	811.1	repeat	Run1	repeat/STIM_005.jpg	99
710.823	0.804	804.1	repeat	Run1	repeat/STIM_005.jpg	99
714.938	0.747	746.8	repeat	Run1	repeat/STIM_005.jpg	100
719.042	0.742	742.0	repeat	Run1	repeat/STIM_006.jpg	100
723.775	0.701	701.0	repeat	Run1	repeat/STIM_006.jpg	100
727.643	0.955	954.6	repeat	Run1	repeat/STIM_006.jpg	100
732.245	0.737	736.8	repeat	Run1	repeat/STIM_006.jpg	100
736.061	0.781	781.3	repeat	Run1	repeat/STIM_006.jpg	100
740.548	0.898	897.5	repeat	Run1	repeat/STIM_007.jpg	100
743.465	0.731	731.1	repeat	Run1	repeat/STIM_007.jpg	100
747.217	0.79	790.0	repeat	Run1	repeat/STIM_007.jpg	99
750.375	0.639	639.4	repeat	Run1	repeat/STIM_007.jpg	99
754.49	0.978	977.8	repeat	Run1	repeat/STIM_007.jpg	99
758.328	0.897	897.4	repeat	Run1	repeat/STIM_008.jpg	100
762.487	0.836	836.1	repeat	Run1	repeat/STIM_008.jpg	99
765.511	0.901	901.2	repeat	Run1	repeat/STIM_008.jpg	100
770.41	0.518	518.5	repeat	Run1	repeat/STIM_008.jpg	100
774.413	0.884	884.1	repeat	Run1	repeat/STIM_008.jpg	99
778.226	0.63	630.4	repeat	Run1	repeat/STIM_009.jpg	99
782.345	0.658	657.7	repeat	Run1	repeat/STIM_009.jpg	100
785.959	0.586	586.5	repeat	Run1	repeat/STIM_009.jpg	99
789.836	0.811	810.6	repeat	Run1	repeat/STIM_009.jpg	100
794.197	0.928	928.3	repeat	Run1	repeat/STIM_009.jpg	100
797.87	0.542	542.4	repeat	Run1	repeat/STIM_010.jpg	99
801.268	0.954	953.8	repeat	Run1	repeat/STIM_010.jpg	99
804.898	0.666	665.9	repeat	Run1	repeat/STIM_010.jpg	100
808.571	0.855	854.6	repeat	Run1	repeat/STIM_010.jpg	100
813.2	0.957	957.3	repeat	Run1	repeat/STIM_010.jpg	99
817.704	0.828	828.2	repeat	Run1	repeat/STIM_011.jpg	100
822.121	0.728	727.6	repeat	Run1	repeat/STIM_011.jpg	100
826.538	0.754	754.5	repeat	Run1	repeat/STIM_011.jpg	99
829.588	0.712	711.7	repeat	Run1	repeat/STIM_011.jpg	99
833.348	0.554	554.1	repeat	Run1	repeat/STIM_011.jpg	100
837.456	0.636	636.4	repeat	Run1	repeat/STIM_012.jpg	99
841.453	0.55	549.9	repeat	Run1	repeat/STIM_012.jpg	99
845.528	0.556	556.4	repeat	Run1	repeat/STIM_012.jpg	100
848.194	0.889	888.9	repeat	Run1	repeat/STIM_012.jpg	99
852.729	0.693	693.1	repeat	Run1	repeat/STIM_012.jpg	99
856.922	0.859	858.8	repeat	Run1	repeat/STIM_013.jpg	100
860.275	0.722	721.5	repeat	Run1	repeat/STIM_013.jpg	100
863.342	0.807	807.3	repeat	Run1	repeat/STIM_013.jpg	100
867.77	0.675	674.6	repeat	Run1	repeat/STIM_013.jpg	99
871.861	0.539	538.8	repeat	Run1	repeat/STIM_013.jpg	100
874.623	0.597	597.3	repeat	Run1	repeat/STIM_014.jpg	99
877.841	0.948	947.9	repeat	Run1	repeat/STIM_014.jpg	100
881.908	0.803	803.4	repeat	Run1	repeat/STIM_014.jpg	100
884.778	0.967	966.8	repeat	Run1	repeat/STIM_014.jpg	100
887.915	0.802	802.3	repeat	Run1	repeat/STIM_014.jpg	100
891.114	2.096	2095.6	generate	Run2	generate/STIM_000.jpg	100
896.834	1.399	1399.4	generate	Run2	generate/STIM_000.jpg	100
900.524	1.917	1917.2	generate	Run2	generate/STIM_000.jpg	100
906.14	1.536	1536.0	generate	Run2	generate/STIM_000.jpg	99
909.769	1.175	1174.6	generate	Run2	generate/STIM_000.jpg	100
913.83	1.604	1603.6	generate	Run2	generate/STIM_001.jpg	100
918.526	2.028	2027.9	generate	Run2	generate/STIM_001.jpg	99
922.989	1.841	1840.8	generate	Run2	generate/STIM_001.jpg	100
926.972	2.039	2039.2	generate	Run2	generate/STIM_001.jpg	100
931.235	1.467	1467.3	generate	Run2	generate/STIM_001.jpg	100
936.011	2.321	2320.6	generate	Run2	generate/STIM_002.jpg	99
940.924	1.089	1088.9	generate	Run2	generate/STIM_002.jpg	100
944.133	1.807	1806.9	generate	Run2	generate/STIM_002.jpg	100
948.774	0.884	883.5	generate	Run2	generate/STIM_002.jpg	100
951.68	1.206	1205.6	generate	Run2	generate/STIM_002.jpg	100
956.769	2.106	2106.1	generate	Run2	generate/STIM_003.jpg	99
961.851	2.108	2108.2	generate	Run2	generate/STIM_003.jpg	99
966.814	0.943	942.6	generate	Run2	generate/STIM_003.jpg	99
971.036	1.816	1815.6	generate	Run2	generate/STIM_003.jpg	99
975.931	1.206	1205.9	generate	Run2	generate/STIM_003.jpg	99
980.502	1.563	1563.0	generate	Run2	generate/STIM_004.jpg	99
985.171	1.596	1596.0	generate	Run2	generate/STIM_004.jpg	99
990.207	1.984	1984.2	generate	Run2	generate/STIM_004.jpg	100
995.052	1.268	1268.3	generate	Run2	generate/STIM_004.jpg	100
1000.065	1.285	1285.1	generate	Run2	generate/STIM_004.jpg	100
1004.198	2.5	2500.5	generate	Run2	generate/STIM_005.jpg	99
1009.562	1.757	1756.6	generate	Run2	generate/STIM_005.jpg	100
1013.597	1.49	1489.6	generate	Run2	generate/STIM_005.jpg	100
1018.905	1.333	1333.3	generate	Run2	generate/STIM_005.jpg	100
1022.827	1.06	1059.9	generate	Run2	generate/STIM_005.jpg	99
1027.011	1.401	1400.6	generate	Run2	generate/STIM_006.jpg	100
1030.815	2.216	2216.5	generate	Run2	generate/STIM_006.jpg	100
1036.485	2.203	2202.9	generate	Run2	generate/STIM_006.jpg	100
1042.674	1.735	1735.3	generate	Run2	generate/STIM_006.jpg	99
1048.377	1.812	1812.3	generate	Run2	generate/STIM_006.jpg	100
1053.742	2.202	2202.5	generate	Run2	generate/STIM_007.jpg	100
1059.861	1.594	1593.7	generate	Run2	generate/STIM_007.jpg	100
1064.576	0.982	982.0	generate	Run2	generate/STIM_007.jpg	99
1069.042	1.233	1233.1	generate	Run2	generate/STIM_007.jpg	99
1073.682	1.554	1553.8	generate	Run2	generate/STIM_007.jpg	100
1077.532	1.337	1337.0	generate	Run2	generate/STIM_008.jpg	99
1080.928	2.179	2179.0	generate	Run2	generate/STIM_008.jpg	100
1085.951	1.891	1891.2	generate	Run2	generate/STIM_008.jpg	100
1090.38	0.912	911.5	generate	Run2	generate/STIM_008.jpg	99
1094.239	1.167	1166.6	generate	Run2	generate/STIM_008.jpg	99
1098.38	1.871	1870.6	generate	Run2	generate/STIM_009.jpg	100
1103.485	1.191	1190.6	generate	Run2	generate/STIM_009.jpg	100
1108.138	0.901	900.7	generate	Run2	generate/STIM_009.jpg	99
1112.111	1.244	1244.4	generate	Run2	generate/STIM_009.jpg	99
1116.877	1.159	1159.1	generate	Run2	generate/STIM_009.jpg	99
1121.086	1.379	1378.7	generate	Run2	generate/STIM_010.jpg	100
1125.073	1.535	1535.0	generate	Run2	generate/STIM_010.jpg	100
1130.0	1.789	1789.4	generate	Run2	generate/STIM_010.jpg	100
1135.7	1.681	1680.6	generate	Run2	generate/STIM_010.jpg	100
1139.466	2.036	2035.9	generate	Run2	generate/STIM_010.jpg	99
1143.551	1.381	1381.2	generate	Run2	generate/STIM_011.jpg	99
1148.806	2.234	2233.9	generate	Run2	generate/STIM_011.jpg	100
1153.182	1.293	1292.9	generate	Run2	generate/STIM_011.jpg	99
1157.975	1.099	1099.2	generate	Run2	generate/STIM_011.jpg	99
1161.137	1.953	1952.6	generate	Run2	generate/STIM_011.jpg	100
1166.799	2.494	2494.4	generate	Run2	generate/STIM_012.jpg	99
1173.055	0.972	972.0	generate	Run2	generate/STIM_012.jpg	99
1177.29	1.656	1656.3	generate	Run2	generate/STIM_012.jpg	99
1181.025	0.962	962.1	generate	Run2	generate/STIM_012.jpg	99
1184.254	1.729	1728.8	generate	Run2	generate/STIM_012.jpg	100
1187.993	1.642	1641.7	generate	Run2	generate/STIM_013.jpg	99
1192.439	1.652	1651.6	generate	Run2	generate/STIM_013.jpg	99
1196.267	1.519	1518.8	generate	Run2	generate/STIM_013.jpg	99
1200.938	2.025	2024.8	generate	Run2	generate/STIM_013.jpg	99
1206.385	1.327	1327.2	generate	Run2	generate/STIM_013.jpg	100
1211.407	1.5	1499.9	generate	Run2	generate/STIM_014.jpg	100
1215.139	1.034	1033.6	generate	Run2	generate/STIM_014.jpg	99
1219.448	1.155	1154.6	generate	Run2	generate/STIM_014.jpg	100
1223.854	1.4	1400.5	generate	Run2	generate/STIM_014.jpg	100
1228.507	1.483	1482.8	generate	Run2	generate/STIM_014.jpg	100
1232.433	1.172	1171.6	generate	Run2	generate/STIM_015.jpg	100
1237.385	1.077	1077.0	generate	Run2	generate/STIM_015.jpg	99
1242.017	1.308	1307.7	generate	Run2	generate/STIM_015.jpg	99
1245.896	1.611	1610.9	generate	Run2	generate/STIM_015.jpg	100
1251.215	1.366	1366.5	generate	Run2	generate/STIM_015.jpg	99
1256.349	1.853	1853.4	generate	Run2	generate/STIM_016.jpg	99
1260.981	1.296	1296.1	generate	Run2	generate/STIM_016.jpg	100
1265.576	1.945	1944.6	generate	Run2	generate/STIM_016.jpg	99
1269.704	1.529	1528.8	generate	Run2	generate/STIM_016.jpg	100
1275.136	1.602	1601.5	generate	Run2	generate/STIM_016.jpg	99
1278.842	2.48	2479.6	generate	Run2	generate/STIM_017.jpg	100
1284.145	1.79	1789.8	generate	Run2	generate/STIM_017.jpg	99
1288.516	1.702	1701.8	generate	Run2	generate/STIM_017.jpg	99
1293.169	1.007	1006.8	generate	Run2	generate/STIM_017.jpg	100
1296.978	1.743	1743.1	generate	Run2	generate/STIM_017.jpg	100
1302.627	1.669	1669.0	generate	Run2	generate/STIM_018.jpg	100
1307.602	1.952	1951.5	generate	Run2	generate/STIM_018.jpg	99
1311.944	0.983	982.9	generate	Run2	generate/STIM_018.jpg	99
1316.846	1.824	1824.1	generate	Run2	generate/STIM_018.jpg	100
1321.664	1.466	1466.4	generate	Run2	generate/STIM_018.jpg	99
1325.29	1.655	1654.6	generate	Run2	generate/STIM_019.jpg	99
1330.682	1.082	1081.7	generate	Run2	generate/STIM_019.jpg	100
1334.624	1.84	1840.5	generate	Run2	generate/STIM_019.jpg	100
1339.164	1.52	1519.6	generate	Run2	generate/STIM_019.jpg	99
1344.657	1.504	1503.9	generate	Run2	generate/STIM_019.jpg	100
1348.223	2.387	2387.0	generate	Run2	generate/STIM_020.jpg	99
1353.611	2.078	2078.1	generate	Run2	generate/STIM_020.jpg	100
1358.882	1.494	1493.7	generate	Run2	generate/STIM_020.jpg	100
1362.831	1.046	1046.1	generate	Run2	generate/STIM_020.jpg	100
1366.109	1.037	1036.8	generate	Run2	generate/STIM_020.jpg	99
1369.278	1.309	1309.0	generate	Run2	generate/STIM_021.jpg	99
1373.692	1.761	1760.9	generate	Run2	generate/STIM_021.jpg	100
1378.361	2.096	2095.6	generate	Run2	generate/STIM_021.jpg	99
1383.217	0.922	921.5	generate	Run2	generate/STIM_021.jpg	99
1387.526	0.868	868.1	generate	Run2	generate/STIM_021.jpg	100
1391.319	2.407	2407.3	generate	Run2	generate/STIM_022.jpg	99
1397.005	1.006	1005.8	generate	Run2	generate/STIM_022.jpg	99
1400.317	1.99	1990.2	generate	Run2	generate/STIM_022.jpg	99
1406.208	2.032	2032.0	generate	Run2	generate/STIM_022.jpg	100
1411.919	1.338	1338.3	generate	Run2	generate/STIM_022.jpg	100
1416.485	1.38	1380.1	generate	Run2	generate/STIM_023.jpg	100
1421.319	1.588	1587.8	generate	Run2	generate/STIM_023.jpg	99
1426.809	1.794	1794.2	generate	Run2	generate/STIM_023.jpg	99
1431.711	1.982	1982.4	generate	Run2	generate/STIM_023.jpg	99
1437.025	1.396	1396.5	generate	Run2	generate/STIM_023.jpg	99
1441.906	2.152	2152.0	generate	Run2	generate/STIM_024.jpg	99
1447.904	1.716	1716.0	generate	Run2	generate/STIM_024.jpg	99
1453.338	0.956	956.2	generate	Run2	generate/STIM_024.jpg	99
1456.493	1.22	1219.8	generate	Run2	generate/STIM_024.jpg	99
1459.973	1.463	1462.7	generate	Run2	generate/STIM_024.jpg	100
1463.683	0.708	708.3	repeat	Run2	repeat/STIM_000.jpg	100
1467.587	0.52	519.7	repeat	Run2	repeat/STIM_000.jpg	100
1471.732	0.874	873.8	repeat	Run2	repeat/STIM_000.jpg	100
1474.709	0.94	939.9	repeat	Run2	repeat/STIM_000.jpg	100
1477.781	0.61	610.3	repeat	Run2	repeat/STIM_000.jpg	99
1480.633	0.693	693.4	repeat	Run2	repeat/STIM_001.jpg	100
1483.552	0.842	841.9	repeat	Run2	repeat/STIM_001.jpg	99
1486.865	0.905	905.4	repeat	Run2	repeat/STIM_001.jpg	99
1490.383	0.574	574.5	repeat	Run2	repeat/STIM_001.jpg	99
1494.405	0.947	947.1	repeat	Run2	repeat/STIM_001.jpg	100
1497.555	0.957	956.7	repeat	Run2	repeat/STIM_002.jpg	99
1501.431	0.571	571.4	repeat	Run2	repeat/STIM_002.jpg	99
1504.26	0.631	630.6	repeat	Run2	repeat/STIM_002.jpg	100
1508.107	0.69	690.5	repeat	Run2	repeat/STIM_002.jpg	99
1512.369	0.929	929.4	repeat	Run2	repeat/STIM_002.jpg	99
1516.853	0.808	808.2	repeat	Run2	repeat/STIM_003.jpg	100
1521.559	0.558	558.4	repeat	Run2	repeat/STIM_003.jpg	99
1525.202	0.652	651.9	repeat	Run2	repeat/STIM_003.jpg	100
1528.247	0.757	756.9	repeat	Run2	repeat/STIM_003.jpg	99
1531.909	0.842	841.5	repeat	Run2	repeat/STIM_003.jpg	100
1535.843	0.733	732.9	repeat	Run2	repeat/STIM_004.jpg	99
1540.478	0.867	866.8	repeat	Run2	repeat/STIM_004.jpg	99
1544.484	0.779	778.6	repeat	Run2	repeat/STIM_004.jpg	99
1547.7	0.766	765.9	repeat	Run2	repeat/STIM_004.jpg	100
1552.176	0.89	889.8	repeat	Run2	repeat/STIM_004.jpg	99
1556.55	0.9	900.5	repeat	Run2	repeat/STIM_005.jpg	99
1559.706	0.544	543.9	repeat	Run2	repeat/STIM_005.jpg	99
1562.346	0.779	779.1	repeat	Run2	repeat/STIM_005.jpg	99
1566.068	0.931	931.2	repeat	Run2	repeat/STIM_005.jpg	99
1570.55	0.844	844.2	repeat	Run2	repeat/STIM_005.jpg	99
1574.644	0.858	857.8	repeat	Run2	repeat/STIM_006.jpg	99
1579.288	0.966	966.3	repeat	Run2	repeat/STIM_006.jpg	99
1583.412	0.644	644.5	repeat	Run2	repeat/STIM_006.jpg	100
1587.42	0.623	622.9	repeat	Run2	repeat/STIM_006.jpg	100
1591.228	0.91	909.9	repeat	Run2	repeat/STIM_006.jpg	100
1595.99	0.837	837.3	repeat	Run2	repeat/STIM_007.jpg	100
1598.886	0.782	781.5	repeat	Run2	repeat/STIM_007.jpg	99
1602.719	0.816	815.8	repeat	Run2	repeat/STIM_007.jpg	99
1607.154	0.498	497.9	repeat	Run2	repeat/STIM_007.jpg	100
1609.935	0.745	744.7	repeat	Run2	repeat/STIM_007.jpg	99
1613.538	0.822	822.0	repeat	Run2	repeat/STIM_008.jpg	99
1618.225	0.736	736.3	repeat	Run2	repeat/STIM_008.jpg	100
1622.171	0.982	982.1	repeat	Run2	repeat/STIM_008.jpg	100
1627.009	0.946	946.1	repeat	Run2	repeat/STIM_008.jpg	100
1630.532	0.533	533.3	repeat	Run2	repeat/STIM_008.jpg	100
1634.256	0.576	576.1	repeat	Run2	repeat/STIM_009.jpg	100
1637.303	0.876	876.5	repeat	Run2	repeat/STIM_009.jpg	99
1641.984	0.553	552.7	repeat	Run2	repeat/STIM_009.jpg	100
1646.413	0.934	934.0	repeat	Run2	repeat/STIM_009.jpg	99
1649.882	0.702	702.0	repeat	Run2	repeat/STIM_009.jpg	100
1654.184	0.974	974.4	repeat	Run2	repeat/STIM_010.jpg	99
1658.343	0.774	773.6	repeat	Run2	repeat/STIM_010.jpg	100
1661.426	0.662	662.2	repeat	Run2	repeat/STIM_010.jpg	99
1665.549	0.823	823.1	repeat	Run2	repeat/STIM_010.jpg	99
1669.411	0.539	539.0	repeat	Run2	repeat/STIM_010.jpg	99
1672.904	0.888	888.2	repeat	Run2	repeat/STIM_011.jpg	99
1675.856	0.661	661.4	repeat	Run2	repeat/STIM_011.jpg	100
1679.268	0.842	841.7	repeat	Run2	repeat/STIM_011.jpg	100
1683.821	0.71	709.5	repeat	Run2	repeat/STIM_011.jpg	100
1688.445	0.801	800.8	repeat	Run2	repeat/STIM_011.jpg	100
1691.768	0.871	871.3	repeat	Run2	repeat/STIM_012.jpg	99
1695.7	0.566	565.5	repeat	Run2	repeat/STIM_012.jpg	100
1699.883	0.764	763.7	repeat	Run2	repeat/STIM_012.jpg	100
1703.561	0.938	938.0	repeat	Run2	repeat/STIM_012.jpg	100
1708.384	0.804	803.9	repeat	Run2	repeat/STIM_012.jpg	99
1712.125	0.796	796.2	repeat	Run2	repeat/STIM_013.jpg	100
1714.926	0.744	743.6	repeat	Run2	repeat/STIM_013.jpg	99
1718.856	0.684	683.6	repeat	Run2	repeat/STIM_013.jpg	99
1722.417	0.59	589.6	repeat	Run2	repeat/STIM_013.jpg	99
1725.98	0.911	910.7	repeat	Run2	repeat/STIM_013.jpg	99
1729.906	0.631	630.6	repeat	Run2	repeat/STIM_014.jpg	99
1732.705	0.737	736.9	repeat	Run2	repeat/STIM_014.jpg	99
1736.035	0.863	862.6	repeat	Run2	repeat/STIM_014.jpg	100
1739.972	0.614	613.9	repeat	Run2	repeat/STIM_014.jpg	100
1743.439	0.641	641.4	repeat	Run2	repeat/STIM_014.jpg	100
1746.423	1.195	1195.3	generate	Run3	generate/STIM_000.jpg	100
1749.835	2.059	2059.3	generate	Run3	generate/STIM_000.jpg	100
1754.258	2.054	2054.5	generate	Run3	generate/STIM_000.jpg	100
1759.028	1.798	1797.8	generate	Run3	generate/STIM_000.jpg	100
1763.915	1.24	1239.6	generate	Run3	generate/STIM_000.jpg	99
1768.993	1.884	1883.8	generate	Run3	generate/STIM_001.jpg	100
1773.214	1.227	1226.8	generate	Run3	generate/STIM_001.jpg	100
1776.447	1.138	1137.5	generate	Run3	generate/STIM_001.jpg	99
1781.358	2.017	2016.6	generate	Run3	generate/STIM_001.jpg	99
1786.244	1.095	1095.1	generate	Run3	generate/STIM_001.jpg	100
1790.901	1.37	1369.8	generate	Run3	generate/STIM_002.jpg	99
1794.753	1.747	1747.2	generate	Run3	generate/STIM_002.jpg	99
1800.232	1.737	1737.0	generate	Run3	generate/STIM_002.jpg	100
1804.708	1.509	1509.0	generate	Run3	generate/STIM_002.jpg	99
1810.045	1.89	1890.0	generate	Run3	generate/STIM_002.jpg	100
1815.232	1.202	1202.4	generate	Run3	generate/STIM_003.jpg	100
1819.396	1.757	1757.1	generate	Run3	generate/STIM_003.jpg	99
1823.997	1.718	1717.9	generate	Run3	generate/STIM_003.jpg	100
1829.241	1.046	1045.9	generate	Run3	generate/STIM_003.jpg	100
1833.399	1.205	1205.4	generate	Run3	generate/STIM_003.jpg	99
1838.354	1.458	1457.8	generate	Run3	generate/STIM_004.jpg	99
1842.279	1.238	1237.9	generate	Run3	generate/STIM_004.jpg	100
1846.528	1.977	1977.0	generate	Run3	generate/STIM_004.jpg	99
1850.826	1.149	1148.8	generate	Run3	generate/STIM_004.jpg	99
1854.276	1.189	1189.3	generate	Run3	generate/STIM_004.jpg	100
1859.134	1.957	1956.6	generate	Run3	generate/STIM_005.jpg	100
1863.505	1.104	1103.9	generate	Run3	generate/STIM_005.jpg	100
1868.608	0.956	956.5	generate	Run3	generate/STIM_005.jpg	99
1872.574	1.804	1803.9	generate	Run3	generate/STIM_005.jpg	99
1876.423	1.164	1164.0	generate	Run3	generate/STIM_005.jpg	99
1881.454	1.204	1204.5	generate	Run3	generate/STIM_006.jpg	99
1886.156	1.029	1029.2	generate	Run3	generate/STIM_006.jpg	100
1890.345	1.044	1043.8	generate	Run3	generate/STIM_006.jpg	99
1894.137	1.626	1626.4	generate	Run3	generate/STIM_006.jpg	100
1899.346	1.396	1396.0	generate	Run3	generate/STIM_006.jpg	100
1902.897	1.411	1410.9	generate	Run3	generate/STIM_007.jpg	100
1907.305	1.73	1729.9	generate	Run3	generate/STIM_007.jpg	99
1911.11	1.874	1873.6	generate	Run3	generate/STIM_007.jpg	100
1916.44	1.7	1700.3	generate	Run3	generate/STIM_007.jpg	100
1921.759	1.942	1942.1	generate	Run3	generate/STIM_007.jpg	99
1926.169	1.142	1142.5	generate	Run3	generate/STIM_008.jpg	99
1930.215	0.912	911.9	generate	Run3	generate/STIM_008.jpg	99
1933.614	1.266	1265.6	generate	Run3	generate/STIM_008.jpg	100
1938.599	1.423	1422.8	generate	Run3	generate/STIM_008.jpg	99
1942.436	1.761	1761.2	generate	Run3	generate/STIM_008.jpg	99
1946.95	0.922	921.8	generate	Run3	generate/STIM_009.jpg	99
1950.969	2.053	2053.3	generate	Run3	generate/STIM_009.jpg	100
1956.968	0.928	927.5	generate	Run3	generate/STIM_009.jpg	100
1961.583	0.955	955.4	generate	Run3	generate/STIM_009.jpg	100
1966.265	1.504	1504.4	generate	Run3	generate/STIM_009.jpg	99
1969.777	1.977	1977.3	generate	Run3	generate/STIM_010.jpg	100
1975.57	1.16	1159.6	generate	Run3	generate/STIM_010.jpg	99
1980.493	1.909	1909.2	generate	Run3	generate/STIM_010.jpg	99
1985.99	1.482	1482.4	generate	Run3	generate/STIM_010.jpg	99
1991.429	1.681	1681.1	generate	Run3	generate/STIM_010.jpg	99
1996.722	1.766	1766.3	generate	Run3	generate/STIM_011.jpg	100
2002.4	1.616	1616.3	generate	Run3	generate/STIM_011.jpg	99
2006.933	1.537	1536.7	generate	Run3	generate/STIM_011.jpg	100
2011.392	1.134	1133.8	generate	Run3	generate/STIM_011.jpg	100
2016.442	1.775	1775.1	generate	Run3	generate/STIM_011.jpg	99
2021.874	1.998	1998.1	generate	Run3	generate/STIM_012.jpg	100
2026.836	0.891	891.2	generate	Run3	generate/STIM_012.jpg	99
2031.058	1.709	1709.3	generate	Run3	generate/STIM_012.jpg	100
2036.412	0.905	905.4	generate	Run3	generate/STIM_012.jpg	99
2039.384	1.165	1164.9	generate	Run3	generate/STIM_012.jpg	100
2043.705	1.129	1129.0	generate	Run3	generate/STIM_013.jpg	99
2048.324	1.439	1439.2	generate	Run3	generate/STIM_013.jpg	99
2051.931	1.74	1739.9	generate	Run3	generate/STIM_013.jpg	99
2056.743	1.51	1509.7	generate	Run3	generate/STIM_013.jpg	100
2060.76	1.777	1777.4	generate	Run3	generate/STIM_013.jpg	100
2066.338	1.742	1742.4	generate	Run3	generate/STIM_014.jpg	99
2071.112	1.112	1112.0	generate	Run3	generate/STIM_014.jpg	100
2074.477	1.73	1730.4	generate	Run3	generate/STIM_014.jpg	100
2080.034	1.857	1857.1	generate	Run3	generate/STIM_014.jpg	99
2085.216	1.319	1318.8	generate	Run3	generate/STIM_014.jpg	100
2090.117	1.363	1363.2	generate	Run3	generate/STIM_015.jpg	100
2093.83	1.038	1037.6	generate	Run3	generate/STIM_015.jpg	100
2097.969	1.7	1700.2	generate	Run3	generate/STIM_015.jpg	100
2101.985	1.011	1011.3	generate	Run3	generate/STIM_015.jpg	100
2106.951	1.289	1288.8	generate	Run3	generate/STIM_015.jpg	99
2110.732	1.12	1120.1	generate	Run3	generate/STIM_016.jpg	99
2114.543	1.617	1616.8	generate	Run3	generate/STIM_016.jpg	99
2118.911	1.134	1133.6	generate	Run3	generate/STIM_016.jpg	99
2122.996	1.608	1608.0	generate	Run3	generate/STIM_016.jpg	99
2127.567	1.751	1751.1	generate	Run3	generate/STIM_016.jpg	100
2132.29	1.57	1569.9	generate	Run3	generate/STIM_017.jpg	99
2137.174	0.892	891.5	generate	Run3	generate/STIM_017.jpg	99
2141.767	1.668	1668.5	generate	Run3	generate/STIM_017.jpg	99
2146.16	1.461	1460.6	generate	Run3	generate/STIM_017.jpg	99
2149.685	1.011	1011.4	generate	Run3	generate/STIM_017.jpg	99
2153.358	0.979	978.9	generate	Run3	generate/STIM_018.jpg	100
2158.099	1.885	1884.7	generate	Run3	generate/STIM_018.jpg	100
2163.771	1.679	1679.4	generate	Run3	generate/STIM_018.jpg	100
2169.012	1.893	1893.1	generate	Run3	generate/STIM_018.jpg	100
2174.679	1.263	1262.9	generate	Run3	generate/STIM_018.jpg	100
2178.712	1.635	1635.1	generate	Run3	generate/STIM_019.jpg	100
2182.561	1.16	1159.7	generate	Run3	generate/STIM_019.jpg	100
2186.512	0.852	852.3	generate	Run3	generate/STIM_019.jpg	100
2189.947	1.059	1059.0	generate	Run3	generate/STIM_019.jpg	100
2193.236	0.955	955.2	generate	Run3	generate/STIM_019.jpg	99
2196.574	2.01	2009.6	generate	Run3	generate/STIM_020.jpg	100
2201.923	1.795	1795.4	generate	Run3	generate/STIM_020.jpg	99
2207.165	1.486	1486.1	generate	Run3	generate/STIM_020.jpg	99
2212.034	1.788	1787.6	generate	Run3	generate/STIM_020.jpg	99
2215.905	1.586	1586.4	generate	Run3	generate/STIM_020.jpg	99
2220.837	0.87	869.8	generate	Run3	generate/STIM_021.jpg	100
2225.596	1.001	1001.4	generate	Run3	generate/STIM_021.jpg	100
2229.754	0.97	969.9	generate	Run3	generate/STIM_021.jpg	100
2232.774	1.768	1768.5	generate	Run3	generate/STIM_021.jpg	100
2238.483	0.912	912.4	generate	Run3	generate/STIM_021.jpg	99
2241.661	1.06	1059.6	generate	Run3	generate/STIM_022.jpg	99
2245.263	1.908	1907.8	generate	Run3	generate/STIM_022.jpg	99
2249.255	0.963	962.7	generate	Run3	generate/STIM_022.jpg	99
2253.886	1.706	1705.9	generate	Run3	generate/STIM_022.jpg	100
2258.298	1.194	1194.2	generate	Run3	generate/STIM_022.jpg	99
2262.469	1.297	1297.1	generate	Run3	generate/STIM_023.jpg	100
2267.107	2.002	2001.5	generate	Run3	generate/STIM_023.jpg	100
2273.101	1.631	1631.2	generate	Run3	generate/STIM_023.jpg	99
2277.471	1.336	1336.5	generate	Run3	generate/STIM_023.jpg	99
2281.63	1.736	1736.0	generate	Run3	generate/STIM_023.jpg	100
2285.955	1.915	1915.3	generate	Run3	generate/STIM_024.jpg	100
2290.17	1.426	1426.3	generate	Run3	generate/STIM_024.jpg	100
2294.049	1.598	1597.9	generate	Run3	generate/STIM_024.jpg	100
2298.692	1.478	1478.5	generate	Run3	generate/STIM_024.jpg	99
2303.883	1.635	1635.0	generate	Run3	generate/STIM_024.jpg	100
2309.364	0.532	532.4	repeat	Run3	repeat/STIM_000.jpg	99
2313.131	0.862	861.8	repeat	Run3	repeat/STIM_000.jpg	100
2316.456	0.746	745.5	repeat	Run3	repeat/STIM_000.jpg	99
2320.401	0.515	514.8	repeat	Run3	repeat/STIM_000.jpg	99
2324.632	0.764	763.6	repeat	Run3	repeat/STIM_000.jpg	99
2329.16	0.943	943.1	repeat	Run3	repeat/STIM_001.jpg	99
2333.408	0.668	668.1	repeat	Run3	repeat/STIM_001.jpg	99
2336.897	0.818	817.5	repeat	Run3	repeat/STIM_001.jpg	99
2339.893	0.577	576.6	repeat	Run3	repeat/STIM_001.jpg	100
2344.437	0.568	568.4	repeat	Run3	repeat/STIM_001.jpg	100
2347.567	0.751	750.6	repeat	Run3	repeat/STIM_002.jpg	99
2351.388	0.964	964.1	repeat	Run3	repeat/STIM_002.jpg	100
2355.912	0.811	810.6	repeat	Run3	repeat/STIM_002.jpg	99
2359.56	0.63	629.9	repeat	Run3	repeat/STIM_002.jpg	99
2363.919	0.523	523.2	repeat	Run3	repeat/STIM_002.jpg	100
2367.27	0.911	911.3	repeat	Run3	repeat/STIM_003.jpg	99
2370.784	0.509	508.9	repeat	Run3	repeat/STIM_003.jpg	99
2374.456	0.604	603.6	repeat	Run3	repeat/STIM_003.jpg	100
2378.756	0.789	789.0	repeat	Run3	repeat/STIM_003.jpg	99
2382.0	0.892	892.4	repeat	Run3	repeat/STIM_003.jpg	100
2384.949	0.62	620.5	repeat	Run3	repeat/STIM_004.jpg	100
2387.653	0.61	610.5	repeat	Run3	repeat/STIM_004.jpg	100
2391.074	0.531	530.6	repeat	Run3	repeat/STIM_004.jpg	100
2393.673	0.567	566.9	repeat	Run3	repeat/STIM_004.jpg	99
2397.657	0.918	917.5	repeat	Run3	repeat/STIM_004.jpg	99
2401.039	0.751	751.3	repeat	Run3	repeat/STIM_005.jpg	99
2404.081	0.646	645.5	repeat	Run3	repeat/STIM_005.jpg	99
2407.593	0.961	961.3	repeat	Run3	repeat/STIM_005.jpg	99
2410.712	0.705	705.0	repeat	Run3	repeat/STIM_005.jpg	99
2415.03	0.807	806.6	repeat	Run3	repeat/STIM_005.jpg	99
2418.104	0.829	829.1	repeat	Run3	repeat/STIM_006.jpg	100
2421.687	0.984	984.0	repeat	Run3	repeat/STIM_006.jpg	100
2425.142	0.629	628.7	repeat	Run3	repeat/STIM_006.jpg	100
2428.932	0.503	502.9	repeat	Run3	repeat/STIM_006.jpg	99
2432.541	0.593	592.6	repeat	Run3	repeat/STIM_006.jpg	100
2436.612	0.586	585.5	repeat	Run3	repeat/STIM_007.jpg	99
2439.964	0.561	560.6	repeat	Run3	repeat/STIM_007.jpg	99
2443.577	0.869	869.0	repeat	Run3	repeat/STIM_007.jpg	100
2446.734	0.711	710.9	repeat	Run3	repeat/STIM_007.jpg	100
2449.716	0.665	665.2	repeat	Run3	repeat/STIM_007.jpg	99
2453.046	0.953	953.4	repeat	Run3	repeat/STIM_008.jpg	99
2457.442	0.611	610.6	repeat	Run3	repeat/STIM_008.jpg	99
2461.358	0.804	804.3	repeat	Run3	repeat/STIM_008.jpg	99
2466.066	0.886	885.8	repeat	Run3	repeat/STIM_008.jpg	99
2469.496	0.623	623.0	repeat	Run3	repeat/STIM_008.jpg	99
2472.671	0.586	585.6	repeat	Run3	repeat/STIM_009.jpg	99
2477.217	0.745	744.6	repeat	Run3	repeat/STIM_009.jpg	100
2480.458	0.826	825.5	repeat	Run3	repeat/STIM_009.jpg	100
2483.889	0.666	666.4	repeat	Run3	repeat/STIM_009.jpg	100
2487.77	0.964	963.6	repeat	Run3	repeat/STIM_009.jpg	99
2491.891	0.709	709.2	repeat	Run3	repeat/STIM_010.jpg	99
2495.812	0.882	882.2	repeat	Run3	repeat/STIM_010.jpg	100
2498.874	0.537	536.9	repeat	Run3	repeat/STIM_010.jpg	99
2501.451	0.92	919.7	repeat	Run3	repeat/STIM_010.jpg	100
2506.338	0.898	897.8	repeat	Run3	repeat/STIM_010.jpg	100
2510.725	0.674	674.5	repeat	Run3	repeat/STIM_011.jpg	100
2515.359	0.672	672.2	repeat	Run3	repeat/STIM_011.jpg	100
2518.464	0.572	571.6	repeat	Run3	repeat/STIM_011.jpg	99
2522.412	0.535	534.6	repeat	Run3	repeat/STIM_011.jpg	100
2525.893	0.579	579.4	repeat	Run3	repeat/STIM_011.jpg	99
2529.325	0.738	738.5	repeat	Run3	repeat/STIM_012.jpg	99
2533.971	0.497	496.9	repeat	Run3	repeat/STIM_012.jpg	100
2536.673	0.971	970.8	repeat	Run3	repeat/STIM_012.jpg	99
2540.404	0.646	645.7	repeat	Run3	repeat/STIM_012.jpg	100
2544.542	0.615	615.4	repeat	Run3	repeat/STIM_012.jpg	100
2547.924	0.841	841.1	repeat	Run3	repeat/STIM_013.jpg	100
2552.017	0.668	667.9	repeat	Run3	repeat/STIM_013.jpg	100
2556.306	0.565	565.1	repeat	Run3	repeat/STIM_013.jpg	100
2558.956	0.665	665.1	repeat	Run3	repeat/STIM_013.jpg	99
2562.14	0.719	718.6	repeat	Run3	repeat/STIM_013.jpg	100
2566.243	0.933	933.4	repeat	Run3	repeat/STIM_014.jpg	100
2570.165	0.956	955.9	repeat	Run3	repeat/STIM_014.jpg	99
2575.028	0.706	706.5	repeat	Run3	repeat/STIM_014.jpg	99
2579.529	0.82	819.6	repeat	Run3	repeat/STIM_014.jpg	99
2584.144	0.494	494.5	repeat	Run3	repeat/STIM_014.jpg	99
2587.675	1.055	1055.1	generate	Run4	generate/STIM_000.jpg	99
2590.758	1.506	1505.9	generate	Run4	generate/STIM_000.jpg	100
2595.65	1.056	1056.5	generate	Run4	generate/STIM_000.jpg	99
2599.607	1.139	1138.7	generate	Run4	generate/STIM_000.jpg	100
2602.965	1.784	1783.7	generate	Run4	generate/STIM_000.jpg	100
2607.597	1.248	1248.3	generate	Run4	generate/STIM_001.jpg	100
2611.073	1.092	1091.7	generate	Run4	generate/STIM_001.jpg	100
2616.107	2.051	2051.4	generate	Run4	generate/STIM_001.jpg	100
2620.878	0.837	836.8	generate	Run4	generate/STIM_001.jpg	100
2624.727	1.886	1885.9	generate	Run4	generate/STIM_001.jpg	100
2630.156	1.065	1065.0	generate	Run4	generate/STIM_002.jpg	99
2633.771	1.833	1833.0	generate	Run4	generate/STIM_002.jpg	100
2639.425	1.102	1102.3	generate	Run4	generate/STIM_002.jpg	99
2642.62	1.554	1553.7	generate	Run4	generate/STIM_002.jpg	100
2646.275	1.08	1080.0	generate	Run4	generate/STIM_002.jpg	99
2650.58	1.107	1106.6	generate	Run4	generate/STIM_003.jpg	99
2655.31	1.263	1262.6	generate	Run4	generate/STIM_003.jpg	100
2658.992	1.19	1189.6	generate	Run4	generate/STIM_003.jpg	99
2662.385	1.343	1342.6	generate	Run4	generate/STIM_003.jpg	100
2666.391	1.809	1809.0	generate	Run4	generate/STIM_003.jpg	100
2671.549	1.906	1906.1	generate	Run4	generate/STIM_004.jpg	99
2676.057	0.916	915.6	generate	Run4	generate/STIM_004.jpg	100
2680.274	1.833	1833.2	generate	Run4	generate/STIM_004.jpg	99
2684.736	1.904	1904.0	generate	Run4	generate/STIM_004.jpg	100
2688.913	1.55	1550.3	generate	Run4	generate/STIM_004.jpg	100
2692.725	1.624	1623.5	generate	Run4	generate/STIM_005.jpg	99
2696.699	1.056	1056.3	generate	Run4	generate/STIM_005.jpg	100
2700.089	1.518	1517.8	generate	Run4	generate/STIM_005.jpg	100
2704.042	1.726	1725.9	generate	Run4	generate/STIM_005.jpg	100
2709.014	1.819	1818.7	generate	Run4	generate/STIM_005.jpg	99
2714.193	1.487	1486.7	generate	Run4	generate/STIM_006.jpg	100
2718.031	1.143	1143.3	generate	Run4	generate/STIM_006.jpg	99
2722.374	0.971	971.4	generate	Run4	generate/STIM_006.jpg	100
2727.052	1.008	1008.3	generate	Run4	generate/STIM_006.jpg	100
2731.594	1.88	1879.7	generate	Run4	generate/STIM_006.jpg	100
2736.643	1.774	1773.8	generate	Run4	generate/STIM_007.jpg	99
2742.025	1.833	1832.6	generate	Run4	generate/STIM_007.jpg	99
2747.345	1.448	1448.2	generate	Run4	generate/STIM_007.jpg	100
2752.04	1.781	1781.1	generate	Run4	generate/STIM_007.jpg	100
2756.178	0.979	978.6	generate	Run4	generate/STIM_007.jpg	100
2759.334	1.897	1897.3	generate	Run4	generate/STIM_008.jpg	99
2763.59	1.061	1060.7	generate	Run4	generate/STIM_008.jpg	100
2767.52	1.78	1779.5	generate	Run4	generate/STIM_008.jpg	100
2773.126	1.691	1690.9	generate	Run4	generate/STIM_008.jpg	99
2778.145	1.746	1745.8	generate	Run4	generate/STIM_008.jpg	100
2782.084	1.336	1335.8	generate	Run4	generate/STIM_009.jpg	99
2786.836	0.948	947.6	generate	Run4	generate/STIM_009.jpg	100
2791.177	0.923	922.8	generate	Run4	generate/STIM_009.jpg	100
2794.811	1.752	1752.1	generate	Run4	generate/STIM_009.jpg	100
2799.459	1.347	1346.7	generate	Run4	generate/STIM_009.jpg	99
2803.473	2.048	2048.1	generate	Run4	generate/STIM_010.jpg	100
2808.923	1.799	1799.0	generate	Run4	generate/STIM_010.jpg	100
2814.262	1.335	1334.6	generate	Run4	generate/STIM_010.jpg	99
2819.402	2.038	2037.6	generate	Run4	generate/STIM_010.jpg	99
2823.489	1.559	1559.4	generate	Run4	generate/STIM_010.jpg	100
2828.327	0.979	978.9	generate	Run4	generate/STIM_011.jpg	100
2832.221	1.824	1823.6	generate	Run4	generate/STIM_011.jpg	99
2836.664	1.432	1431.7	generate	Run4	generate/STIM_011.jpg	99
2841.34	0.927	926.6	generate	Run4	generate/STIM_011.jpg	100
2844.324	1.079	1078.6	generate	Run4	generate/STIM_011.jpg	99
2848.123	1.083	1082.7	generate	Run4	generate/STIM_012.jpg	99
2851.263	1.762	1761.5	generate	Run4	generate/STIM_012.jpg	99
2855.905	1.026	1026.2	generate	Run4	generate/STIM_012.jpg	100
2860.431	1.364	1364.1	generate	Run4	generate/STIM_012.jpg	99
2864.57	1.628	1628.4	generate	Run4	generate/STIM_012.jpg	100
2869.956	1.925	1925.0	generate	Run4	generate/STIM_013.jpg	99
2874.045	0.879	879.0	generate	Run4	generate/STIM_013.jpg	99
2878.177	1.213	1213.0	generate	Run4	generate/STIM_013.jpg	99
2883.262	1.028	1028.3	generate	Run4	generate/STIM_013.jpg	100
2887.357	1.725	1724.8	generate	Run4	generate/STIM_013.jpg	99
2893.024	0.926	925.8	generate	Run4	generate/STIM_014.jpg	100
2897.547	1.027	1027.3	generate	Run4	generate/STIM_014.jpg	100
2902.372	0.97	970.3	generate	Run4	generate/STIM_014.jpg	99
2907.172	1.196	1196.2	generate	Run4	generate/STIM_014.jpg	100
2911.631	1.324	1324.3	generate	Run4	generate/STIM_014.jpg	100
2916.625	1.849	1849.3	generate	Run4	generate/STIM_015.jpg	99
2922.107	1.388	1388.2	generate	Run4	generate/STIM_015.jpg	99
2926.029	1.225	1225.2	generate	Run4	generate/STIM_015.jpg	99
2930.794	1.351	1351.0	generate	Run4	generate/STIM_015.jpg	100
2935.555	0.989	989.2	generate	Run4	generate/STIM_015.jpg	100
2938.714	1.39	1389.5	generate	Run4	generate/STIM_016.jpg	100
2943.237	1.06	1060.4	generate	Run4	generate/STIM_016.jpg	99
2946.721	1.372	1372.2	generate	Run4	generate/STIM_016.jpg	100
2951.762	1.482	1482.5	generate	Run4	generate/STIM_016.jpg	99
2955.843	0.976	975.8	generate	Run4	generate/STIM_016.jpg	99
2960.217	1.487	1487.1	generate	Run4	generate/STIM_017.jpg	99
2964.351	1.732	1732.3	generate	Run4	generate/STIM_017.jpg	99
2969.823	1.709	1708.6	generate	Run4	generate/STIM_017.jpg	100
2975.087	0.891	891.4	generate	Run4	generate/STIM_017.jpg	99
2978.799	1.833	1832.9	generate	Run4	generate/STIM_017.jpg	99
2983.856	1.01	1010.0	generate	Run4	generate/STIM_018.jpg	100
2988.378	1.691	1691.0	generate	Run4	generate/STIM_018.jpg	100
2992.544	1.04	1039.5	generate	Run4	generate/STIM_018.jpg	99
2995.77	1.626	1626.5	generate	Run4	generate/STIM_018.jpg	100
3001.055	1.5	1499.9	generate	Run4	generate/STIM_018.jpg	100
3004.583	1.497	1497.0	generate	Run4	generate/STIM_019.jpg	99
3009.195	0.866	865.6	generate	Run4	generate/STIM_019.jpg	99
3012.066	1.765	1764.8	generate	Run4	generate/STIM_019.jpg	100
3016.866	1.784	1783.7	generate	Run4	generate/STIM_019.jpg	100
3021.685	1.139	1139.2	generate	Run4	generate/STIM_019.jpg	100
3026.472	0.889	889.3	generate	Run4	generate/STIM_020.jpg	100
3030.266	1.496	1496.4	generate	Run4	generate/STIM_020.jpg	100
3034.073	1.294	1293.7	generate	Run4	generate/STIM_020.jpg	100
3039.29	1.329	1329.4	generate	Run4	generate/STIM_020.jpg	99
3044.403	1.62	1619.5	generate	Run4	generate/STIM_020.jpg	100
3048.409	1.379	1378.9	generate	Run4	generate/STIM_021.jpg	100
3052.681	1.975	1975.4	generate	Run4	generate/STIM_021.jpg	100
3057.61	1.659	1658.9	generate	Run4	generate/STIM_021.jpg	99
3062.238	1.574	1573.5	generate	Run4	generate/STIM_021.jpg	99
3067.52	1.243	1242.7	generate	Run4	generate/STIM_021.jpg	99
3071.721	1.844	1843.9	generate	Run4	generate/STIM_022.jpg	100
3076.815	1.152	1152.3	generate	Run4	generate/STIM_022.jpg	100
3081.34	1.348	1347.5	generate	Run4	generate/STIM_022.jpg	99
3086.649	1.269	1268.8	generate	Run4	generate/STIM_022.jpg	99
3090.321	2.004	2003.9	generate	Run4	generate/STIM_022.jpg	100
3094.836	2.051	2051.0	generate	Run4	generate/STIM_023.jpg	100
3099.615	1.072	1072.1	generate	Run4	generate/STIM_023.jpg	100
3104.657	1.172	1172.1	generate	Run4	generate/STIM_023.jpg	99
3108.174	1.489	1488.7	generate	Run4	generate/STIM_023.jpg	100
3113.078	1.036	1036.5	generate	Run4	generate/STIM_023.jpg	99
3117.83	1.165	1164.9	generate	Run4	generate/STIM_024.jpg	99
3122.054	1.305	1305.0	generate	Run4	generate/STIM_024.jpg	99
3125.373	1.008	1008.4	generate	Run4	generate/STIM_024.jpg	99
3128.859	1.853	1853.4	generate	Run4	generate/STIM_024.jpg	99
3133.319	1.244	1244.1	generate	Run4	generate/STIM_024.jpg	100
3138.532	0.66	660.4	repeat	Run4	repeat/STIM_000.jpg	99
3141.306	0.701	701.4	repeat	Run4	repeat/STIM_000.jpg	100
3145.105	0.529	528.8	repeat	Run4	repeat/STIM_000.jpg	99
3148.384	0.744	744.4	repeat	Run4	repeat/STIM_000.jpg	100
3152.344	0.68	680.1	repeat	Run4	repeat/STIM_000.jpg	100
3156.399	0.971	971.0	repeat	Run4	repeat/STIM_001.jpg	99
3160.22	0.51	510.4	repeat	Run4	repeat/STIM_001.jpg	100
3164.563	0.959	958.9	repeat	Run4	repeat/STIM_001.jpg	99
3168.109	0.729	728.7	repeat	Run4	repeat/STIM_001.jpg	99
3172.024	0.583	583.1	repeat	Run4	repeat/STIM_001.jpg	99
3176.012	0.817	817.0	repeat	Run4	repeat/STIM_002.jpg	99
3179.547	0.762	761.8	repeat	Run4	repeat/STIM_002.jpg	99
3182.464	0.648	648.2	repeat	Run4	repeat/STIM_002.jpg	100
3186.857	0.518	518.2	repeat	Run4	repeat/STIM_002.jpg	100
3189.698	0.753	753.2	repeat	Run4	repeat/STIM_002.jpg	99
3194.164	0.612	612.5	repeat	Run4	repeat/STIM_003.jpg	100
3197.903	0.824	823.8	repeat	Run4	repeat/STIM_003.jpg	99
3201.362	0.74	739.6	repeat	Run4	repeat/STIM_003.jpg	100
3204.655	0.684	684.1	repeat	Run4	repeat/STIM_003.jpg	99
3207.889	0.661	661.2	repeat	Run4	repeat/STIM_003.jpg	99
3211.831	0.895	895.3	repeat	Run4	repeat/STIM_004.jpg	99
3216.435	0.937	936.8	repeat	Run4	repeat/STIM_004.jpg	100
3220.17	0.923	922.9	repeat	Run4	repeat/STIM_004.jpg	99
3224.345	0.591	590.6	repeat	Run4	repeat/STIM_004.jpg	99
3227.787	0.858	858.2	repeat	Run4	repeat/STIM_004.jpg	99
3230.75	0.877	877.2	repeat	Run4	repeat/STIM_005.jpg	100
3234.167	0.633	632.8	repeat	Run4	repeat/STIM_005.jpg	99
3238.72	0.914	914.0	repeat	Run4	repeat/STIM_005.jpg	99
3242.905	0.877	876.6	repeat	Run4	repeat/STIM_005.jpg	99
3246.09	0.788	788.5	repeat	Run4	repeat/STIM_005.jpg	99
3248.981	0.522	522.0	repeat	Run4	repeat/STIM_006.jpg	100
3253.491	0.515	514.7	repeat	Run4	repeat/STIM_006.jpg	100
3257.734	0.889	889.3	repeat	Run4	repeat/STIM_006.jpg	99
3262.094	0.957	956.8	repeat	Run4	repeat/STIM_006.jpg	100
3266.103	0.924	924.5	repeat	Run4	repeat/STIM_006.jpg	99
3269.781	0.981	980.7	repeat	Run4	repeat/STIM_007.jpg	99
3272.763	0.581	580.9	repeat	Run4	repeat/STIM_007.jpg	100
3277.067	0.682	682.4	repeat	Run4	repeat/STIM_007.jpg	100
3279.875	0.952	952.0	repeat	Run4	repeat/STIM_007.jpg	100
3282.959	0.846	845.9	repeat	Run4	repeat/STIM_007.jpg	99
3286.981	0.817	817.0	repeat	Run4	repeat/STIM_008.jpg	99
3290.487	0.685	684.8	repeat	Run4	repeat/STIM_008.jpg	99
3293.81	0.64	639.9	repeat	Run4	repeat/STIM_008.jpg	99
3298.222	0.834	834.3	repeat	Run4	repeat/STIM_008.jpg	100
3302.168	0.7	699.9	repeat	Run4	repeat/STIM_008.jpg	100
3306.194	0.909	908.9	repeat	Run4	repeat/STIM_009.jpg	100
3309.483	0.767	767.2	repeat	Run4	repeat/STIM_009.jpg	99
3312.271	0.892	891.9	repeat	Run4	repeat/STIM_009.jpg	99
3315.34	0.964	964.1	repeat	Run4	repeat/STIM_009.jpg	99
3318.475	0.64	639.6	repeat	Run4	repeat/STIM_009.jpg	99
3321.496	0.616	615.8	repeat	Run4	repeat/STIM_010.jpg	99
3324.143	0.534	534.1	repeat	Run4	repeat/STIM_010.jpg	99
3327.634	0.873	872.7	repeat	Run4	repeat/STIM_010.jpg	99
3331.459	0.756	756.3	repeat	Run4	repeat/STIM_010.jpg	100
3335.563	0.649	649.2	repeat	Run4	repeat/STIM_010.jpg	100
3339.028	0.679	679.4	repeat	Run4	repeat/STIM_011.jpg	100
3343.342	0.78	779.8	repeat	Run4	repeat/STIM_011.jpg	100
3346.757	0.942	942.5	repeat	Run4	repeat/STIM_011.jpg	99
3351.449	0.862	862.2	repeat	Run4	repeat/STIM_011.jpg	99
3355.393	0.749	749.1	repeat	Run4	repeat/STIM_011.jpg	100
3358.202	0.92	919.8	repeat	Run4	repeat/STIM_012.jpg	100
3361.937	0.893	893.4	repeat	Run4	repeat/STIM_012.jpg	100
3365.777	0.676	675.9	repeat	Run4	repeat/STIM_012.jpg	99
3368.886	0.649	649.4	repeat	Run4	repeat/STIM_012.jpg	100
3371.536	0.873	873.4	repeat	Run4	repeat/STIM_012.jpg	99
3375.934	0.892	892.0	repeat	Run4	repeat/STIM_013.jpg	99
3380.31	0.955	955.4	repeat	Run4	repeat/STIM_013.jpg	100
3383.797	0.497	496.6	repeat	Run4	repeat/STIM_013.jpg	100
3386.387	0.587	586.9	repeat	Run4	repeat/STIM_013.jpg	99
3388.994	0.688	688.5	repeat	Run4	repeat/STIM_013.jpg	99
3391.723	0.845	844.9	repeat	Run4	repeat/STIM_014.jpg	100
3395.875	0.716	716.1	repeat	Run4	repeat/STIM_014.jpg	100
3399.192	0.68	680.0	repeat	Run4	repeat/STIM_014.jpg	100
3402.985	0.688	687.7	repeat	Run4	repeat/STIM_014.jpg	100
3407.391	0.56	559.6	repeat	Run4	repeat/STIM_014.jpg	99
