onset	duration	response_time_ms	trial_type	learning_stage	stimulus	response_port
0.0	1.957	1957.3	generate	Run1	generate/STIM_000.jpg	100
4.926	2.828	2828.4	generate	Run1	generate/STIM_000.jpg	100
10.454	2.655	2654.8	generate	Run1	generate/STIM_000.jpg	99
14.9	1.901	1900.6	generate	Run1	generate/STIM_000.jpg	100
18.86	1.085	1084.7	generate	Run1	generate/STIM_000.jpg	100
23.605	1.843	1843.0	generate	Run1	generate/STIM_001.jpg	100
28.424	1.85	1849.7	generate	Run1	generate/STIM_001.jpg	99
33.378	2.482	2481.6	generate	Run1	generate/STIM_001.jpg	99
38.936	1.8	1800.4	generate	Run1	generate/STIM_001.jpg	99
43.835	1.315	1315.4	generate	Run1	generate/STIM_001.jpg	99
48.38	2.62	2620.0	generate	Run1	generate/STIM_002.jpg	100
52.892	2.359	2359.3	generate	Run1	generate/STIM_002.jpg	99
57.739	2.765	2765.0	generate	Run1	generate/STIM_002.jpg	100
62.691	2.292	2291.9	generate	Run1	generate/STIM_002.jpg	100
67.087	1.784	1783.8	generate	Run1	generate/STIM_002.jpg	100
71.623	1.884	1884.0	generate	Run1	generate/STIM_003.jpg	100
75.974	2.919	2918.7	generate	Run1	generate/STIM_003.jpg	100
82.149	2.844	2844.4	generate	Run1	generate/STIM_003.jpg	100
88.419	1.846	1846.3	generate	Run1	generate/STIM_003.jpg	100
92.286	2.572	2572.0	generate	Run1	generate/STIM_003.jpg	100
98.496	2.286	2286.0	generate	Run1	generate/STIM_004.jpg	100
103.404	1.344	1344.3	generate	Run1	generate/STIM_004.jpg	100
107.91	1.399	1398.7	generate	Run1	generate/STIM_004.jpg	100
111.496	1.829	1828.6	generate	Run1	generate/STIM_004.jpg	99
115.747	1.516	1516.4	generate	Run1	generate/STIM_004.jpg	99
119.84	1.404	1404.3	generate	Run1	generate/STIM_005.jpg	99
123.247	1.372	1372.5	generate	Run1	generate/STIM_005.jpg	99
128.439	1.272	1272.5	generate	Run1	generate/STIM_005.jpg	100
131.643	1.87	1869.5	generate	Run1	generate/STIM_005.jpg	99
137.103	1.251	1251.0	generate	Run1	generate/STIM_005.jpg	99
141.468	2.723	2723.3	generate	Run1	generate/STIM_006.jpg	99
147.303	2.182	2182.1	generate	Run1	generate/STIM_006.jpg	100
152.404	2.232	2232.0	generate	Run1	generate/STIM_006.jpg	99
158.075	1.421	1421.0	generate	Run1	generate/STIM_006.jpg	99
162.251	1.088	1088.3	generate	Run1	generate/STIM_006.jpg	100
165.885	3.348	3347.5	generate	Run1	generate/STIM_007.jpg	100
172.249	1.408	1407.5	generate	Run1	generate/STIM_007.jpg	100
176.623	1.375	1374.8	generate	Run1	generate/STIM_007.jpg	99
180.932	1.187	1187.0	generate	Run1	generate/STIM_007.jpg	99
184.986	2.278	2277.5	generate	Run1	generate/STIM_007.jpg	99
190.189	1.901	1901.3	generate	Run1	generate/STIM_008.jpg	99
195.646	2.538	2538.5	generate	Run1	generate/STIM_008.jpg	99
201.833	2.526	2525.8	generate	Run1	generate/STIM_008.jpg	100
206.131	2.565	2564.9	generate	Run1	generate/STIM_008.jpg	100
211.744	1.982	1981.8	generate	Run1	generate/STIM_008.jpg	99
215.968	1.871	1871.3	generate	Run1	generate/STIM_009.jpg	99
220.202	1.367	1366.8	generate	Run1	generate/STIM_009.jpg	100
224.05	2.735	2734.8	generate	Run1	generate/STIM_009.jpg	100
228.547	1.158	1158.4	generate	Run1	generate/STIM_009.jpg	99
233.212	2.384	2384.0	generate	Run1	generate/STIM_009.jpg	99
238.113	1.931	1931.2	generate	Run1	generate/STIM_010.jpg	100
243.671	3.152	3151.7	generate	Run1	generate/STIM_010.jpg	99
249.094	1.461	1461.3	generate	Run1	generate/STIM_010.jpg	100
253.581	2.026	2025.8	generate	Run1	generate/STIM_010.jpg	99
259.224	1.952	1952.4	generate	Run1	generate/STIM_010.jpg	99
264.674	1.767	1767.4	generate	Run1	generate/STIM_011.jpg	100
269.187	1.778	1777.9	generate	Run1	generate/STIM_011.jpg	99
272.924	1.647	1647.2	generate	Run1	generate/STIM_011.jpg	99
278.135	1.812	1812.0	generate	Run1	generate/STIM_011.jpg	100
282.635	1.568	1567.7	generate	Run1	generate/STIM_011.jpg	100
287.398	2.341	2341.4	generate	Run1	generate/STIM_012.jpg	100
292.003	2.768	2768.2	generate	Run1	generate/STIM_012.jpg	100
297.196	1.607	1607.2	generate	Run1	generate/STIM_012.jpg	100
301.173	1.904	1904.4	generate	Run1	generate/STIM_012.jpg	100
306.293	1.909	1909.4	generate	Run1	generate/STIM_012.jpg	100
311.405	1.438	1438.0	generate	Run1	generate/STIM_013.jpg	99
315.276	2.067	2066.9	generate	Run1	generate/STIM_013.jpg	100
319.305	2.876	2876.4	generate	Run1	generate/STIM_013.jpg	100
324.087	2.473	2472.8	generate	Run1	generate/STIM_013.jpg	99
328.655	1.825	1824.7	generate	Run1	generate/STIM_013.jpg	99
333.792	2.556	2556.3	generate	Run1	generate/STIM_014.jpg	100
339.508	2.534	2534.5	generate	Run1	generate/STIM_014.jpg	100
344.723	2.101	2101.3	generate	Run1	generate/STIM_014.jpg	100
349.811	1.902	1901.9	generate	Run1	generate/STIM_014.jpg	100
353.581	1.812	1812.4	generate	Run1	generate/STIM_014.jpg	99
357.626	2.723	2723.0	generate	Run1	generate/STIM_015.jpg	99
363.224	2.152	2152.5	generate	Run1	generate/STIM_015.jpg	99
367.993	2.198	2197.6	generate	Run1	generate/STIM_015.jpg	99
372.341	2.194	2194.3	generate	Run1	generate/STIM_015.jpg	99
378.004	1.492	1491.5	generate	Run1	generate/STIM_015.jpg	99
382.863	1.852	1851.5	generate	Run1	generate/STIM_016.jpg	100
387.856	2.299	2298.7	generate	Run1	generate/STIM_016.jpg	99
392.124	1.226	1225.6	generate	Run1	generate/STIM_016.jpg	99
397.148	1.843	1842.8	generate	Run1	generate/STIM_016.jpg	100
402.054	2.391	2390.8	generate	Run1	generate/STIM_016.jpg	100
407.064	3.314	3314.2	generate	Run1	generate/STIM_017.jpg	99
412.921	2.902	2902.3	generate	Run1	generate/STIM_017.jpg	100
417.613	2.583	2582.6	generate	Run1	generate/STIM_017.jpg	99
422.044	1.749	1748.7	generate	Run1	generate/STIM_017.jpg	100
425.96	2.488	2487.5	generate	Run1	generate/STIM_017.jpg	99
430.786	2.381	2381.1	generate	Run1	generate/STIM_018.jpg	100
435.042	2.094	2093.7	generate	Run1	generate/STIM_018.jpg	100
439.728	1.382	1381.9	generate	Run1	generate/STIM_018.jpg	99
443.474	2.175	2175.3	generate	Run1	generate/STIM_018.jpg	99
448.389	1.296	1295.8	generate	Run1	generate/STIM_018.jpg	99
452.478	2.548	2548.4	generate	Run1	generate/STIM_019.jpg	99
458.755	1.8	1800.3	generate	Run1	generate/STIM_019.jpg	100
462.74	1.212	1211.6	generate	Run1	generate/STIM_019.jpg	99
466.702	1.241	1241.2	generate	Run1	generate/STIM_019.jpg	99
469.955	1.891	1891.2	generate	Run1	generate/STIM_019.jpg	100
473.929	1.349	1348.7	generate	Run1	generate/STIM_020.jpg	100
478.535	1.358	1358.3	generate	Run1	generate/STIM_020.jpg	100
481.916	2.194	2193.6	generate	Run1	generate/STIM_020.jpg	100
487.368	1.283	1283.1	generate	Run1	generate/STIM_020.jpg	100
491.592	1.253	1253.1	generate	Run1	generate/STIM_020.jpg	100
495.273	2.537	2537.1	generate	Run1	generate/STIM_021.jpg	100
500.455	1.663	1663.0	generate	Run1	generate/STIM_021.jpg	99
505.688	1.414	1414.5	generate	Run1	generate/STIM_021.jpg	99
509.824	2.285	2285.2	generate	Run1	generate/STIM_021.jpg	99
514.295	2.465	2465.2	generate	Run1	generate/STIM_021.jpg	99
519.768	1.514	1513.6	generate	Run1	generate/STIM_022.jpg	100
524.335	1.743	1743.3	generate	Run1	generate/STIM_022.jpg	100
529.468	2.601	2601.3	generate	Run1	generate/STIM_022.jpg	100
535.348	1.714	1713.9	generate	Run1	generate/STIM_022.jpg	100
539.132	2.644	2644.2	generate	Run1	generate/STIM_022.jpg	100
544.984	1.761	1760.9	generate	Run1	generate/STIM_023.jpg	99
549.668	1.672	1672.5	generate	Run1	generate/STIM_023.jpg	99
553.236	2.983	2982.6	generate	Run1	generate/STIM_023.jpg	100
558.347	1.536	1535.5	generate	Run1	generate/STIM_023.jpg	99
563.459	2.142	2142.2	generate	Run1	generate/STIM_023.jpg	99
568.474	3.245	3244.8	generate	Run1	generate/STIM_024.jpg	100
575.33	1.33	1330.3	generate	Run1	generate/STIM_024.jpg	99
579.743	2.939	2939.1	generate	Run1	generate/STIM_024.jpg	100
584.395	2.294	2294.5	generate	Run1	generate/STIM_024.jpg	99
590.095	2.306	2306.0	generate	Run1	generate/STIM_024.jpg	100
594.343	0.587	587.0	repeat	Run1	repeat/STIM_000.jpg	99
598.832	0.702	701.9	repeat	Run1	repeat/STIM_000.jpg	100
602.518	0.591	591.4	repeat	Run1	repeat/STIM_000.jpg	100
605.714	0.98	979.8	repeat	Run1	repeat/STIM_000.jpg	99
608.729	0.688	687.7	repeat	Run1	repeat/STIM_000.jpg	99
612.337	1.018	1017.5	repeat	Run1	repeat/STIM_001.jpg	99
616.465	0.987	987.0	repeat	Run1	repeat/STIM_001.jpg	99
621.265	0.994	993.5	repeat	Run1	repeat/STIM_001.jpg	99
625.084	0.717	717.2	repeat	Run1	repeat/STIM_001.jpg	100
628.065	0.972	972.2	repeat	Run1	repeat/STIM_001.jpg	99
630.938	1.066	1066.2	repeat	Run1	repeat/STIM_002.jpg	100
635.777	0.985	984.9	repeat	Run1	repeat/STIM_002.jpg	100
638.68	0.808	808.4	repeat	Run1	repeat/STIM_002.jpg	99
641.41	0.869	868.7	repeat	Run1	repeat/STIM_002.jpg	100
644.626	1.068	1068.2	repeat	Run1	repeat/STIM_002.jpg	99
648.087	0.937	936.8	repeat	Run1	repeat/STIM_003.jpg	100
651.106	0.992	991.8	repeat	Run1	repeat/STIM_003.jpg	99
655.862	1.092	1091.8	repeat	Run1	repeat/STIM_003.jpg	99
659.337	0.825	825.2	repeat	Run1	repeat/STIM_003.jpg	100
662.687	0.73	730.1	repeat	Run1	repeat/STIM_003.jpg	100
666.032	0.888	888.2	repeat	Run1	repeat/STIM_004.jpg	99
670.615	0.624	624.0	repeat	Run1	repeat/STIM_004.jpg	99
675.102	0.908	908.2	repeat	Run1	repeat/STIM_004.jpg	100
679.201	0.985	984.8	repeat	Run1	repeat/STIM_004.jpg	99
683.365	0.792	792.2	repeat	Run1	repeat/STIM_004.jpg	99
687.717	1.095	1094.8	repeat	Run1	repeat/STIM_005.jpg	100
692.112	0.922	921.6	repeat	Run1	repeat/STIM_005.jpg	100
695.393	0.995	995.4	repeat	Run1	repeat/STIM_005.jpg	99
699.909	0.947	947.4	repeat	Run1	repeat/STIM_005.jpg	99
704.281	0.598	597.6	repeat	Run1	repeat/STIM_005.jpg	100
707.158	1.07	1069.7	repeat	Run1	repeat/STIM_006.jpg	100
710.799	0.675	675.1	repeat	Run1	repeat/STIM_006.jpg	100
715.372	0.986	986.4	repeat	Run1	repeat/STIM_006.jpg	100
719.689	0.801	800.6	repeat	Run1	repeat/STIM_006.jpg	100
722.842	0.936	936.0	repeat	Run1	repeat/STIM_006.jpg	100
726.374	0.728	728.4	repeat	Run1	repeat/STIM_007.jpg	100
730.907	0.775	774.9	repeat	Run1	repeat/STIM_007.jpg	100
735.478	0.981	980.7	repeat	Run1	repeat/STIM_007.jpg	99
739.645	0.853	853.1	repeat	Run1	repeat/STIM_007.jpg	99
742.694	0.796	796.1	repeat	Run1	repeat/STIM_007.jpg	99
745.485	0.589	588.7	repeat	Run1	repeat/STIM_008.jpg	100
748.656	0.627	627.2	repeat	Run1	repeat/STIM_008.jpg	99
753.077	0.575	575.0	repeat	Run1	repeat/STIM_008.jpg	100
757.223	0.632	631.7	repeat	Run1	repeat/STIM_008.jpg	100
760.158	1.018	1017.5	repeat	Run1	repeat/STIM_008.jpg	99
765.003	0.761	761.4	repeat	Run1	repeat/STIM_009.jpg	99
769.656	0.909	908.7	repeat	Run1	repeat/STIM_009.jpg	100
773.729	0.952	952.0	repeat	Run1	repeat/STIM_009.jpg	99
776.636	0.734	733.9	repeat	Run1	repeat/STIM_009.jpg	100
780.476	0.968	968.0	repeat	Run1	repeat/STIM_009.jpg	100
785.34	0.92	920.2	repeat	Run1	repeat/STIM_010.jpg	99
789.501	0.68	679.8	repeat	Run1	repeat/STIM_010.jpg	99
792.125	0.619	619.4	repeat	Run1	repeat/STIM_010.jpg	100
795.32	1.064	1064.5	repeat	Run1	repeat/STIM_010.jpg	100
799.157	1.111	1110.8	repeat	Run1	repeat/STIM_010.jpg	99
803.12	0.957	957.4	repeat	Run1	repeat/STIM_011.jpg	100
806.749	0.595	594.9	repeat	Run1	repeat/STIM_011.jpg	100
809.968	1.087	1087.4	repeat	Run1	repeat/STIM_011.jpg	99
813.832	1.042	1041.6	repeat	Run1	repeat/STIM_011.jpg	99
818.301	1.06	1059.6	repeat	Run1	repeat/STIM_011.jpg	100
821.988	0.958	957.5	repeat	Run1	repeat/STIM_012.jpg	99
826.375	0.939	938.6	repeat	Run1	repeat/STIM_012.jpg	99
830.754	0.71	709.9	repeat	Run1	repeat/STIM_012.jpg	100
835.021	0.79	789.9	repeat	Run1	repeat/STIM_012.jpg	99
839.225	0.646	646.1	repeat	Run1	repeat/STIM_012.jpg	99
843.558	1.013	1012.9	repeat	Run1	repeat/STIM_013.jpg	100
847.034	1.071	1070.7	repeat	Run1	repeat/STIM_013.jpg	100
850.76	0.967	967.1	repeat	Run1	repeat/STIM_013.jpg	100
854.318	1.045	1044.7	repeat	Run1	repeat/STIM_013.jpg	99
858.877	0.68	679.8	repeat	Run1	repeat/STIM_013.jpg	100
861.601	0.666	665.7	repeat	Run1	repeat/STIM_014.jpg	99
864.724	0.696	696.2	repeat	Run1	repeat/STIM_014.jpg	100
867.353	0.894	894.3	repeat	Run1	repeat/STIM_014.jpg	100
871.195	1.055	1055.0	repeat	Run1	repeat/STIM_014.jpg	100
875.957	0.566	565.7	repeat	Run1	repeat/STIM_014.jpg	100
879.708	2.604	2603.7	generate	Run2	generate/STIM_000.jpg	100
885.431	2.356	2356.4	generate	Run2	generate/STIM_000.jpg	100
890.984	2.276	2275.8	generate	Run2	generate/STIM_000.jpg	100
896.006	1.735	1735.2	generate	Run2	generate/STIM_000.jpg	99
899.564	1.376	1376.1	generate	Run2	generate/STIM_000.jpg	100
904.705	1.771	1770.6	generate	Run2	generate/STIM_001.jpg	100
909.391	2.543	2543.2	generate	Run2	generate/STIM_001.jpg	99
914.811	1.295	1295.1	generate	Run2	generate/STIM_001.jpg	100
918.977	1.17	1169.7	generate	Run2	generate/STIM_001.jpg	100
923.146	1.043	1042.8	generate	Run2	generate/STIM_001.jpg	100
926.977	2.795	2795.1	generate	Run2	generate/STIM_002.jpg	99
932.456	2.089	2089.0	generate	Run2	generate/STIM_002.jpg	100
937.668	1.635	1634.7	generate	Run2	generate/STIM_002.jpg	100
941.826	1.501	1500.9	generate	Run2	generate/STIM_002.jpg	100
947.007	1.81	1810.3	generate	Run2	generate/STIM_002.jpg	100
951.221	1.76	1760.0	generate	Run2	generate/STIM_003.jpg	99
956.051	1.778	1777.5	generate	Run2	generate/STIM_003.jpg	99
960.078	1.316	1315.8	generate	Run2	generate/STIM_003.jpg	99
964.697	1.133	1133.1	generate	Run2	generate/STIM_003.jpg	99
968.222	1.235	1235.0	generate	Run2	generate/STIM_003.jpg	99
972.257	2.388	2388.4	generate	Run2	generate/STIM_004.jpg	99
978.226	1.17	1170.3	generate	Run2	generate/STIM_004.jpg	99
981.916	2.232	2232.3	generate	Run2	generate/STIM_004.jpg	100
987.276	0.968	968.1	generate	Run2	generate/STIM_004.jpg	100
990.763	2.197	2197.1	generate	Run2	generate/STIM_004.jpg	100
996.479	1.548	1548.0	generate	Run2	generate/STIM_005.jpg	99
1001.362	1.936	1936.1	generate	Run2	generate/STIM_005.jpg	100
1007.043	1.633	1632.8	generate	Run2	generate/STIM_005.jpg	100
1012.237	1.032	1032.3	generate	Run2	generate/STIM_005.jpg	100
1015.904	1.158	1157.6	generate	Run2	generate/STIM_005.jpg	99
1019.193	2.672	2672.1	generate	Run2	generate/STIM_006.jpg	100
1024.189	2.284	2283.9	generate	Run2	generate/STIM_006.jpg	100
1028.597	1.717	1716.7	generate	Run2	generate/STIM_006.jpg	100
1033.099	1.549	1549.1	generate	Run2	generate/STIM_006.jpg	99
1036.598	1.416	1415.6	generate	Run2	generate/STIM_006.jpg	100
1040.857	2.348	2348.0	generate	Run2	generate/STIM_007.jpg	100
1046.401	1.715	1715.0	generate	Run2	generate/STIM_007.jpg	100
1051.337	2.269	2269.0	generate	Run2	generate/STIM_007.jpg	99
1055.852	1.846	1845.6	generate	Run2	generate/STIM_007.jpg	99
1061.493	1.774	1774.2	generate	Run2	generate/STIM_007.jpg	100
1066.597	2.813	2813.0	generate	Run2	generate/STIM_008.jpg	99
1071.18	1.63	1630.4	generate	Run2	generate/STIM_008.jpg	100
1075.891	2.424	2424.0	generate	Run2	generate/STIM_008.jpg	100
1080.074	1.788	1787.9	generate	Run2	generate/STIM_008.jpg	99
1084.534	2.339	2338.7	generate	Run2	generate/STIM_008.jpg	99
1089.215	1.195	1194.9	generate	Run2	generate/STIM_009.jpg	100
1093.089	2.041	2040.8	generate	Run2	generate/STIM_009.jpg	100
1097.959	1.968	1968.1	generate	Run2	generate/STIM_009.jpg	99
1102.835	1.199	1199.2	generate	Run2	generate/STIM_009.jpg	99
1106.893	1.155	1155.4	generate	Run2	generate/STIM_009.jpg	99
1111.553	1.302	1301.9	generate	Run2	generate/STIM_010.jpg	100
1114.872	1.601	1600.8	generate	Run2	generate/STIM_010.jpg	100
1119.463	1.055	1054.7	generate	Run2	generate/STIM_010.jpg	100
1123.271	1.074	1073.9	generate	Run2	generate/STIM_010.jpg	100
1126.661	1.348	1347.9	generate	Run2	generate/STIM_010.jpg	99
1130.739	1.547	1546.7	generate	Run2	generate/STIM_011.jpg	99
1135.434	2.553	2552.8	generate	Run2	generate/STIM_011.jpg	100
1141.462	1.076	1076.1	generate	Run2	generate/STIM_011.jpg	99
1145.018	1.64	1639.8	generate	Run2	generate/STIM_011.jpg	99
1148.929	1.811	1810.7	generate	Run2	generate/STIM_011.jpg	100
1152.999	2.626	2626.5	generate	Run2	generate/STIM_012.jpg	99
1157.576	2.106	2106.2	generate	Run2	generate/STIM_012.jpg	99
1161.9	1.898	1897.8	generate	Run2	generate/STIM_012.jpg	99
1165.707	2.297	2297.1	generate	Run2	generate/STIM_012.jpg	99
1170.467	1.361	1360.6	generate	Run2	generate/STIM_012.jpg	100
1175.444	1.2	1199.5	generate	Run2	generate/STIM_013.jpg	99
1179.328	2.197	2197.0	generate	Run2	generate/STIM_013.jpg	99
1183.405	1.885	1884.7	generate	Run2	generate/STIM_013.jpg	99
1188.722	1.313	1313.2	generate	Run2	generate/STIM_013.jpg	99
1193.392	0.957	956.7	generate	Run2	generate/STIM_013.jpg	100
1196.387	1.918	1918.1	generate	Run2	generate/STIM_014.jpg	100
1201.309	2.171	2170.9	generate	Run2	generate/STIM_014.jpg	99
1206.567	2.112	2112.0	generate	Run2	generate/STIM_014.jpg	100
1211.148	2.005	2004.8	generate	Run2	generate/STIM_014.jpg	100
1216.662	2.171	2170.9	generate	Run2	generate/STIM_014.jpg	100
1220.918	2.356	2356.1	generate	Run2	generate/STIM_015.jpg	100
1225.52	2.218	2218.1	generate	Run2	generate/STIM_015.jpg	99
1230.021	1.628	1628.5	generate	Run2	generate/STIM_015.jpg	99
1233.824	1.217	1217.4	generate	Run2	generate/STIM_015.jpg	100
1238.811	1.618	1617.8	generate	Run2	generate/STIM_015.jpg	99
1243.679	2.347	2347.4	generate	Run2	generate/STIM_016.jpg	99
1248.614	1.474	1474.1	generate	Run2	generate/STIM_016.jpg	100
1253.156	1.986	1986.5	generate	Run2	generate/STIM_016.jpg	99
1257.839	1.489	1488.9	generate	Run2	generate/STIM_016.jpg	100
1261.305	1.005	1005.2	generate	Run2	generate/STIM_016.jpg	99
1264.708	2.178	2177.6	generate	Run2	generate/STIM_017.jpg	100
1268.797	2.509	2509.4	generate	Run2	generate/STIM_017.jpg	99
1273.717	1.394	1393.6	generate	Run2	generate/STIM_017.jpg	99
1277.201	1.356	1355.6	generate	Run2	generate/STIM_017.jpg	100
1281.793	1.148	1147.6	generate	Run2	generate/STIM_017.jpg	100
1285.357	1.472	1472.0	generate	Run2	generate/STIM_018.jpg	100
1289.242	1.762	1761.9	generate	Run2	generate/STIM_018.jpg	99
1294.21	1.993	1993.3	generate	Run2	generate/STIM_018.jpg	99
1298.709	1.722	1722.0	generate	Run2	generate/STIM_018.jpg	100
1303.079	2.248	2248.3	generate	Run2	generate/STIM_018.jpg	99
1307.767	1.162	1161.5	generate	Run2	generate/STIM_019.jpg	99
1312.767	2.276	2275.6	generate	Run2	generate/STIM_019.jpg	100
1318.505	1.883	1883.1	generate	Run2	generate/STIM_019.jpg	100
1322.589	1.006	1005.9	generate	Run2	generate/STIM_019.jpg	99
1327.139	1.543	1543.2	generate	Run2	generate/STIM_019.jpg	100
1332.229	1.932	1931.5	generate	Run2	generate/STIM_020.jpg	99
1336.071	2.525	2525.0	generate	Run2	generate/STIM_020.jpg	100
1341.886	1.738	1737.6	generate	Run2	generate/STIM_020.jpg	100
1347.048	1.031	1030.9	generate	Run2	generate/STIM_020.jpg	100
1350.418	2.065	2065.3	generate	Run2	generate/STIM_020.jpg	99
1354.91	1.94	1939.5	generate	Run2	generate/STIM_021.jpg	99
1359.267	2.622	2622.3	generate	Run2	generate/STIM_021.jpg	100
1364.787	2.403	2403.1	generate	Run2	generate/STIM_021.jpg	99
1370.096	1.175	1175.0	generate	Run2	generate/STIM_021.jpg	99
1373.554	2.146	2145.8	generate	Run2	generate/STIM_021.jpg	100
1379.401	1.411	1411.3	generate	Run2	generate/STIM_022.jpg	99
1383.419	2.529	2528.6	generate	Run2	generate/STIM_022.jpg	99
1388.769	1.366	1366.0	generate	Run2	generate/STIM_022.jpg	99
1393.289	1.324	1323.7	generate	Run2	generate/STIM_022.jpg	100
1398.173	2.027	2027.5	generate	Run2	generate/STIM_022.jpg	100
1402.794	2.312	2312.5	generate	Run2	generate/STIM_023.jpg	100
1408.683	2.498	2497.7	generate	Run2	generate/STIM_023.jpg	99
1414.629	2.335	2335.2	generate	Run2	generate/STIM_023.jpg	99
1419.352	1.696	1695.9	generate	Run2	generate/STIM_023.jpg	99
1422.965	2.022	2021.7	generate	Run2	generate/STIM_023.jpg	99
1428.664	1.212	1212.4	generate	Run2	generate/STIM_024.jpg	99
1432.602	2.19	2190.2	generate	Run2	generate/STIM_024.jpg	99
1436.975	1.16	1160.1	generate	Run2	generate/STIM_024.jpg	99
1441.045	2.156	2156.1	generate	Run2	generate/STIM_024.jpg	99
1446.36	1.829	1828.9	generate	Run2	generate/STIM_024.jpg	100
1450.899	0.563	563.2	repeat	Run2	repeat/STIM_000.jpg	100
1454.19	0.8	799.9	repeat	Run2	repeat/STIM_000.jpg	100
1457.984	0.603	602.8	repeat	Run2	repeat/STIM_000.jpg	100
1461.651	0.658	657.7	repeat	Run2	repeat/STIM_000.jpg	100
1465.422	0.752	752.4	repeat	Run2	repeat/STIM_000.jpg	99
1469.911	0.585	584.7	repeat	Run2	repeat/STIM_001.jpg	100
1473.936	1.067	1067.0	repeat	Run2	repeat/STIM_001.jpg	99
1478.571	0.712	712.0	repeat	Run2	repeat/STIM_001.jpg	99
1482.31	0.843	843.4	repeat	Run2	repeat/STIM_001.jpg	99
1486.282	0.597	597.0	repeat	Run2	repeat/STIM_001.jpg	100
1490.722	0.607	606.7	repeat	Run2	repeat/STIM_002.jpg	99
1494.572	0.673	673.4	repeat	Run2	repeat/STIM_002.jpg	99
1499.158	1.053	1052.7	repeat	Run2	repeat/STIM_002.jpg	100
1502.495	1.085	1085.3	repeat	Run2	repeat/STIM_002.jpg	99
1506.698	0.943	942.6	repeat	Run2	repeat/STIM_002.jpg	99
1509.858	0.75	749.7	repeat	Run2	repeat/STIM_003.jpg	100
1514.248	0.615	615.2	repeat	Run2	repeat/STIM_003.jpg	99
1518.347	0.699	699.0	repeat	Run2	repeat/STIM_003.jpg	100
1521.0	0.603	603.1	repeat	Run2	repeat/STIM_003.jpg	99
1523.967	0.675	675.1	repeat	Run2	repeat/STIM_003.jpg	100
1528.269	0.872	872.4	repeat	Run2	repeat/STIM_004.jpg	99
1531.74	0.581	581.3	repeat	Run2	repeat/STIM_004.jpg	99
1535.581	1.006	1006.2	repeat	Run2	repeat/STIM_004.jpg	99
1538.604	0.707	706.9	repeat	Run2	repeat/STIM_004.jpg	100
1541.792	1.079	1079.3	repeat	Run2	repeat/STIM_004.jpg	99
1545.319	0.615	614.9	repeat	Run2	repeat/STIM_005.jpg	99
1548.225	0.997	997.0	repeat	Run2	repeat/STIM_005.jpg	99
1551.962	0.834	833.9	repeat	Run2	repeat/STIM_005.jpg	99
1555.801	0.904	904.5	repeat	Run2	repeat/STIM_005.jpg	99
1560.048	0.764	764.2	repeat	Run2	repeat/STIM_005.jpg	99
1563.524	0.588	588.2	repeat	Run2	repeat/STIM_006.jpg	99
1566.215	1.054	1054.0	repeat	Run2	repeat/STIM_006.jpg	99
1570.796	0.897	897.0	repeat	Run2	repeat/STIM_006.jpg	100
1574.983	1.057	1057.4	repeat	Run2	repeat/STIM_006.jpg	100
1577.958	0.756	755.7	repeat	Run2	repeat/STIM_006.jpg	100
1582.052	0.634	634.3	repeat	Run2	repeat/STIM_007.jpg	100
1584.963	0.625	625.1	repeat	Run2	repeat/STIM_007.jpg	99
1588.39	0.661	661.2	repeat	Run2	repeat/STIM_007.jpg	99
1591.192	1.033	1032.7	repeat	Run2	repeat/STIM_007.jpg	100
1594.194	0.627	627.0	repeat	Run2	repeat/STIM_007.jpg	99
1597.621	1.107	1106.9	repeat	Run2	repeat/STIM_008.jpg	99
1601.873	1.072	1072.3	repeat	Run2	repeat/STIM_008.jpg	100
1605.885	1.098	1097.6	repeat	Run2	repeat/STIM_008.jpg	100
1609.339	0.764	764.0	repeat	Run2	repeat/STIM_008.jpg	100
1613.672	0.731	730.9	repeat	Run2	repeat/STIM_008.jpg	100
1616.725	1.025	1024.9	repeat	Run2	repeat/STIM_009.jpg	100
1620.03	1.047	1046.8	repeat	Run2	repeat/STIM_009.jpg	99
1624.475	0.829	828.8	repeat	Run2	repeat/STIM_009.jpg	100
1628.674	0.84	839.7	repeat	Run2	repeat/STIM_009.jpg	99
1632.814	1.053	1053.4	repeat	Run2	repeat/STIM_009.jpg	100
1637.482	1.072	1072.2	repeat	Run2	repeat/STIM_010.jpg	99
1641.763	0.779	779.3	repeat	Run2	repeat/STIM_010.jpg	100
1644.925	0.952	951.8	repeat	Run2	repeat/STIM_010.jpg	99
1648.71	0.675	675.2	repeat	Run2	repeat/STIM_010.jpg	99
1651.386	0.914	914.1	repeat	Run2	repeat/STIM_010.jpg	99
1655.776	0.962	961.6	repeat	Run2	repeat/STIM_011.jpg	99
1659.832	0.851	850.6	repeat	Run2	repeat/STIM_011.jpg	100
1663.416	0.823	823.2	repeat	Run2	repeat/STIM_011.jpg	100
1667.086	1.068	1067.5	repeat	Run2	repeat/STIM_011.jpg	100
1671.319	1.025	1025.2	repeat	Run2	repeat/STIM_011.jpg	100
1674.491	1.081	1081.0	repeat	Run2	repeat/STIM_012.jpg	99
1678.395	0.699	698.9	repeat	Run2	repeat/STIM_012.jpg	100
1682.962	0.991	991.2	repeat	Run2	repeat/STIM_012.jpg	100
1687.027	0.62	620.2	repeat	Run2	repeat/STIM_012.jpg	100
1690.09	0.622	621.8	repeat	Run2	repeat/STIM_012.jpg	99
1693.847	0.838	838.5	repeat	Run2	repeat/STIM_013.jpg	100
1696.913	0.976	975.9	repeat	Run2	repeat/STIM_013.jpg	99
1700.012	0.642	642.3	repeat	Run2	repeat/STIM_013.jpg	99
1702.735	0.802	802.2	repeat	Run2	repeat/STIM_013.jpg	99
1705.561	0.812	812.5	repeat	Run2	repeat/STIM_013.jpg	99
1708.526	0.831	830.7	repeat	Run2	repeat/STIM_014.jpg	99
1712.063	0.79	789.7	repeat	Run2	repeat/STIM_014.jpg	99
1716.236	0.899	898.9	repeat	Run2	repeat/STIM_014.jpg	100
1719.075	0.863	863.2	repeat	Run2	repeat/STIM_014.jpg	100
1722.757	0.952	951.5	repeat	Run2	repeat/STIM_014.jpg	100
1727.556	1.711	1710.9	generate	Run3	generate/STIM_000.jpg	100
1732.801	1.75	1750.3	generate	Run3	generate/STIM_000.jpg	100
1738.107	2.042	2042.1	generate	Run3	generate/STIM_000.jpg	100
1743.165	2.284	2284.3	generate	Run3	generate/STIM_000.jpg	100
1749.086	1.608	1608.2	generate	Run3	generate/STIM_000.jpg	99
1754.453	1.099	1099.2	generate	Run3	generate/STIM_001.jpg	100
1758.735	1.437	1437.3	generate	Run3	generate/STIM_001.jpg	100
1762.497	1.808	1808.2	generate	Run3	generate/STIM_001.jpg	99
1767.489	2.281	2281.0	generate	Run3	generate/STIM_001.jpg	99
1771.976	1.058	1058.3	generate	Run3	generate/STIM_001.jpg	100
1775.779	1.102	1101.5	generate	Run3	generate/STIM_002.jpg	99
1778.805	1.928	1927.9	generate	Run3	generate/STIM_002.jpg	99
1783.491	1.736	1736.3	generate	Run3	generate/STIM_002.jpg	100
1788.961	1.011	1011.4	generate	Run3	generate/STIM_002.jpg	99
1792.654	1.929	1928.7	generate	Run3	generate/STIM_002.jpg	100
1797.715	1.295	1294.9	generate	Run3	generate/STIM_003.jpg	100
1801.333	1.216	1216.2	generate	Run3	generate/STIM_003.jpg	99
1805.921	1.436	1435.9	generate	Run3	generate/STIM_003.jpg	100
1810.113	1.495	1494.7	generate	Run3	generate/STIM_003.jpg	100
1813.749	1.146	1145.6	generate	Run3	generate/STIM_003.jpg	99
1817.452	2.076	2076.2	generate	Run3	generate/STIM_004.jpg	99
1822.921	1.681	1680.9	generate	Run3	generate/STIM_004.jpg	100
1827.55	0.958	957.5	generate	Run3	generate/STIM_004.jpg	99
1832.233	1.333	1333.4	generate	Run3	generate/STIM_004.jpg	99
1835.929	2.126	2126.2	generate	Run3	generate/STIM_004.jpg	100
1840.08	1.875	1875.4	generate	Run3	generate/STIM_005.jpg	100
1844.782	2.196	2196.0	generate	Run3	generate/STIM_005.jpg	100
1850.522	1.56	1559.5	generate	Run3	generate/STIM_005.jpg	99
1855.621	1.49	1490.0	generate	Run3	generate/STIM_005.jpg	99
1859.201	2.286	2286.0	generate	Run3	generate/STIM_005.jpg	99
1865.216	1.932	1931.7	generate	Run3	generate/STIM_006.jpg	99
1869.633	1.791	1790.8	generate	Run3	generate/STIM_006.jpg	100
1873.741	1.673	1673.0	generate	Run3	generate/STIM_006.jpg	99
1878.827	1.302	1301.6	generate	Run3	generate/STIM_006.jpg	100
1882.872	1.19	1189.5	generate	Run3	generate/STIM_006.jpg	100
1886.502	1.124	1123.5	generate	Run3	generate/STIM_007.jpg	100
1890.968	2.251	2251.0	generate	Run3	generate/STIM_007.jpg	99
1895.335	2.166	2165.7	generate	Run3	generate/STIM_007.jpg	100
1899.76	1.544	1544.3	generate	Run3	generate/STIM_007.jpg	100
1904.352	2.32	2320.2	generate	Run3	generate/STIM_007.jpg	99
1910.104	2.086	2085.6	generate	Run3	generate/STIM_008.jpg	99
1915.076	1.086	1085.7	generate	Run3	generate/STIM_008.jpg	99
1919.376	1.358	1357.8	generate	Run3	generate/STIM_008.jpg	100
1924.333	0.949	948.6	generate	Run3	generate/STIM_008.jpg	99
1927.372	1.709	1709.1	generate	Run3	generate/STIM_008.jpg	99
1931.876	2.029	2028.6	generate	Run3	generate/STIM_009.jpg	99
1936.762	1.41	1409.7	generate	Run3	generate/STIM_009.jpg	100
1940.992	1.506	1506.2	generate	Run3	generate/STIM_009.jpg	100
1945.866	1.775	1774.8	generate	Run3	generate/STIM_009.jpg	100
1949.585	2.181	2181.0	generate	Run3	generate/STIM_009.jpg	99
1953.55	1.474	1474.1	generate	Run3	generate/STIM_010.jpg	100
1958.775	1.244	1243.8	generate	Run3	generate/STIM_010.jpg	99
1963.691	1.366	1365.6	generate	Run3	generate/STIM_010.jpg	99
1967.506	1.052	1051.8	generate	Run3	generate/STIM_010.jpg	99
1970.525	1.524	1523.5	generate	Run3	generate/STIM_010.jpg	99
1975.197	0.991	991.2	generate	Run3	generate/STIM_011.jpg	100
1979.508	1.994	1994.3	generate	Run3	generate/STIM_011.jpg	99
1983.456	1.291	1291.4	generate	Run3	generate/STIM_011.jpg	100
1986.614	1.17	1170.2	generate	Run3	generate/STIM_011.jpg	100
1991.006	1.481	1481.3	generate	Run3	generate/STIM_011.jpg	99
1994.576	2.187	2187.1	generate	Run3	generate/STIM_012.jpg	100
1998.786	1.441	1440.9	generate	Run3	generate/STIM_012.jpg	99
2002.977	1.878	1877.8	generate	Run3	generate/STIM_012.jpg	100
2008.298	1.204	1204.4	generate	Run3	generate/STIM_012.jpg	99
2012.007	2.183	2183.4	generate	Run3	generate/STIM_012.jpg	100
2017.424	1.795	1795.0	generate	Run3	generate/STIM_013.jpg	99
2021.314	1.842	1842.2	generate	Run3	generate/STIM_013.jpg	99
2026.319	1.728	1727.7	generate	Run3	generate/STIM_013.jpg	99
2031.29	1.179	1178.8	generate	Run3	generate/STIM_013.jpg	100
2035.812	1.967	1967.0	generate	Run3	generate/STIM_013.jpg	100
2040.928	1.382	1382.5	generate	Run3	generate/STIM_014.jpg	99
2044.572	1.731	1731.3	generate	Run3	generate/STIM_014.jpg	100
2048.567	1.776	1776.3	generate	Run3	generate/STIM_014.jpg	100
2053.21	1.152	1152.1	generate	Run3	generate/STIM_014.jpg	99
2057.118	2.311	2310.8	generate	Run3	generate/STIM_014.jpg	100
2062.307	1.246	1246.1	generate	Run3	generate/STIM_015.jpg	100
2067.161	1.643	1643.1	generate	Run3	generate/STIM_015.jpg	100
2072.429	1.412	1412.5	generate	Run3	generate/STIM_015.jpg	100
2076.25	1.938	1937.6	generate	Run3	generate/STIM_015.jpg	100
2080.088	1.742	1741.5	generate	Run3	generate/STIM_015.jpg	99
2084.969	1.371	1371.2	generate	Run3	generate/STIM_016.jpg	99
2090.145	2.034	2033.5	generate	Run3	generate/STIM_016.jpg	99
2095.283	1.607	1606.9	generate	Run3	generate/STIM_016.jpg	99
2099.081	1.83	1830.3	generate	Run3	generate/STIM_016.jpg	99
2104.182	1.663	1663.1	generate	Run3	generate/STIM_016.jpg	100
2109.2	2.002	2002.3	generate	Run3	generate/STIM_017.jpg	99
2114.426	1.318	1317.7	generate	Run3	generate/STIM_017.jpg	99
2118.119	1.522	1522.0	generate	Run3	generate/STIM_017.jpg	99
2122.443	1.496	1496.5	generate	Run3	generate/STIM_017.jpg	99
2125.81	1.793	1793.4	generate	Run3	generate/STIM_017.jpg	99
2130.911	1.462	1462.5	generate	Run3	generate/STIM_018.jpg	100
2136.045	1.084	1084.5	generate	Run3	generate/STIM_018.jpg	100
2140.866	1.353	1353.3	generate	Run3	generate/STIM_018.jpg	100
2145.777	1.672	1671.5	generate	Run3	generate/STIM_018.jpg	100
2149.341	1.927	1926.7	generate	Run3	generate/STIM_018.jpg	100
2155.026	1.155	1154.6	generate	Run3	generate/STIM_019.jpg	100
2158.473	0.958	957.8	generate	Run3	generate/STIM_019.jpg	100
2163.101	1.903	1902.8	generate	Run3	generate/STIM_019.jpg	100
2167.786	1.769	1769.1	generate	Run3	generate/STIM_019.jpg	100
2172.069	1.385	1385.3	generate	Run3	generate/STIM_019.jpg	99
2176.888	1.076	1076.5	generate	Run3	generate/STIM_020.jpg	100
2180.233	2.276	2276.5	generate	Run3	generate/STIM_020.jpg	99
2186.063	1.072	1071.6	generate	Run3	generate/STIM_020.jpg	99
2190.821	1.125	1125.1	generate	Run3	generate/STIM_020.jpg	99
2195.773	2.184	2184.5	generate	Run3	generate/STIM_020.jpg	99
2199.985	1.574	1574.5	generate	Run3	generate/STIM_021.jpg	100
2204.878	1.11	1109.8	generate	Run3	generate/STIM_021.jpg	100
2209.073	2.246	2246.1	generate	Run3	generate/STIM_021.jpg	100
2215.019	2.254	2253.9	generate	Run3	generate/STIM_021.jpg	100
2220.759	1.872	1871.5	generate	Run3	generate/STIM_021.jpg	99
2225.579	2.261	2260.9	generate	Run3	generate/STIM_022.jpg	99
2231.404	1.736	1735.7	generate	Run3	generate/STIM_022.jpg	99
2235.918	1.145	1145.3	generate	Run3	generate/STIM_022.jpg	99
2239.999	1.341	1341.4	generate	Run3	generate/STIM_022.jpg	100
2245.153	2.05	2050.3	generate	Run3	generate/STIM_022.jpg	99
2250.424	2.169	2168.7	generate	Run3	generate/STIM_023.jpg	100
2255.24	1.209	1209.4	generate	Run3	generate/STIM_023.jpg	100
2260.017	1.181	1181.2	generate	Run3	generate/STIM_023.jpg	99
2264.712	1.728	1728.2	generate	Run3	generate/STIM_023.jpg	99
2269.446	2.135	2134.9	generate	Run3	generate/STIM_023.jpg	100
2275.06	1.731	1730.8	generate	Run3	generate/STIM_024.jpg	100
2280.28	1.988	1987.9	generate	Run3	generate/STIM_024.jpg	100
2285.177	1.58	1579.8	generate	Run3	generate/STIM_024.jpg	100
2289.594	2.003	2002.8	generate	Run3	generate/STIM_024.jpg	99
2294.239	2.075	2075.1	generate	Run3	generate/STIM_024.jpg	100
2299.667	1.041	1041.1	repeat	Run3	repeat/STIM_000.jpg	99
2302.716	1.036	1035.5	repeat	Run3	repeat/STIM_000.jpg	100
2307.009	1.108	1107.8	repeat	Run3	repeat/STIM_000.jpg	99
2311.504	0.86	859.9	repeat	Run3	repeat/STIM_000.jpg	99
2316.071	0.668	668.1	repeat	Run3	repeat/STIM_000.jpg	99
2319.782	1.024	1023.8	repeat	Run3	repeat/STIM_001.jpg	99
2324.066	1.086	1085.5	repeat	Run3	repeat/STIM_001.jpg	99
2328.512	1.028	1027.5	repeat	Run3	repeat/STIM_001.jpg	99
2333.271	0.603	602.9	repeat	Run3	repeat/STIM_001.jpg	100
2336.725	0.898	897.6	repeat	Run3	repeat/STIM_001.jpg	100
2340.251	0.887	887.4	repeat	Run3	repeat/STIM_002.jpg	99
2344.693	1.002	1001.9	repeat	Run3	repeat/STIM_002.jpg	100
2348.842	0.827	827.4	repeat	Run3	repeat/STIM_002.jpg	99
2353.303	1.054	1054.1	repeat	Run3	repeat/STIM_002.jpg	99
2356.882	0.729	728.6	repeat	Run3	repeat/STIM_002.jpg	100
2360.526	0.725	724.7	repeat	Run3	repeat/STIM_003.jpg	99
2364.048	0.565	564.7	repeat	Run3	repeat/STIM_003.jpg	99
2367.979	0.81	810.1	repeat	Run3	repeat/STIM_003.jpg	100
2370.831	0.95	949.7	repeat	Run3	repeat/STIM_003.jpg	99
2373.749	0.866	866.5	repeat	Run3	repeat/STIM_003.jpg	100
2377.928	0.84	840.2	repeat	Run3	repeat/STIM_004.jpg	100
2381.196	0.624	624.3	repeat	Run3	repeat/STIM_004.jpg	100
2385.154	0.64	639.6	repeat	Run3	repeat/STIM_004.jpg	100
2389.629	0.93	930.3	repeat	Run3	repeat/STIM_004.jpg	99
2393.567	0.784	784.2	repeat	Run3	repeat/STIM_004.jpg	99
2396.323	0.94	939.5	repeat	Run3	repeat/STIM_005.jpg	99
2399.533	1.095	1095.3	repeat	Run3	repeat/STIM_005.jpg	99
2403.937	0.589	589.3	repeat	Run3	repeat/STIM_005.jpg	99
2407.528	0.914	914.2	repeat	Run3	repeat/STIM_005.jpg	99
2411.323	0.752	751.8	repeat	Run3	repeat/STIM_005.jpg	99
2415.36	1.09	1089.6	repeat	Run3	repeat/STIM_006.jpg	100
2419.237	0.69	690.4	repeat	Run3	repeat/STIM_006.jpg	100
2423.85	0.895	895.4	repeat	Run3	repeat/STIM_006.jpg	100
2427.132	1.088	1087.7	repeat	Run3	repeat/STIM_006.jpg	99
2432.076	0.789	789.1	repeat	Run3	repeat/STIM_006.jpg	100
2435.789	0.611	611.2	repeat	Run3	repeat/STIM_007.jpg	99
2439.364	0.734	734.2	repeat	Run3	repeat/STIM_007.jpg	99
2442.527	0.56	559.7	repeat	Run3	repeat/STIM_007.jpg	100
2446.554	0.979	978.7	repeat	Run3	repeat/STIM_007.jpg	100
2449.847	0.668	668.1	repeat	Run3	repeat/STIM_007.jpg	99
2453.695	0.813	813.4	repeat	Run3	repeat/STIM_008.jpg	99
2456.827	0.645	644.8	repeat	Run3	repeat/STIM_008.jpg	99
2460.137	0.882	882.5	repeat	Run3	repeat/STIM_008.jpg	99
2463.857	1.055	1055.0	repeat	Run3	repeat/STIM_008.jpg	99
2468.315	0.88	879.7	repeat	Run3	repeat/STIM_008.jpg	99
2471.142	0.898	897.6	repeat	Run3	repeat/STIM_009.jpg	99
2474.352	1.018	1018.1	repeat	Run3	repeat/STIM_009.jpg	100
2478.193	0.822	822.4	repeat	Run3	repeat/STIM_009.jpg	100
2481.825	0.64	640.4	repeat	Run3	repeat/STIM_009.jpg	100
2485.179	0.634	633.9	repeat	Run3	repeat/STIM_009.jpg	99
2488.396	0.768	768.1	repeat	Run3	repeat/STIM_010.jpg	99
2492.138	0.68	679.9	repeat	Run3	repeat/STIM_010.jpg	100
2495.249	1.089	1088.9	repeat	Run3	repeat/STIM_010.jpg	99
2499.753	0.97	969.8	repeat	Run3	repeat/STIM_010.jpg	100
2503.486	0.852	852.0	repeat	Run3	repeat/STIM_010.jpg	100
2508.202	1.115	1114.8	repeat	Run3	repeat/STIM_011.jpg	100
2512.724	0.674	674.3	repeat	Run3	repeat/STIM_011.jpg	100
2517.039	1.106	1106.4	repeat	Run3	repeat/STIM_011.jpg	99
2521.631	1.051	1050.7	repeat	Run3	repeat/STIM_011.jpg	100
2525.647	0.572	572.2	repeat	Run3	repeat/STIM_011.jpg	99
2528.382	1.043	1043.4	repeat	Run3	repeat/STIM_012.jpg	99
2531.55	1.111	1111.4	repeat	Run3	repeat/STIM_012.jpg	100
2534.547	0.628	628.1	repeat	Run3	repeat/STIM_012.jpg	99
2537.492	0.982	981.9	repeat	Run3	repeat/STIM_012.jpg	100
2540.519	0.771	771.1	repeat	Run3	repeat/STIM_012.jpg	100
2544.868	0.612	611.6	repeat	Run3	repeat/STIM_013.jpg	100
2547.66	0.908	908.4	repeat	Run3	repeat/STIM_013.jpg	100
2551.838	0.581	580.9	repeat	Run3	repeat/STIM_013.jpg	100
2555.353	0.752	751.9	repeat	Run3	repeat/STIM_013.jpg	99
2558.261	0.608	608.0	repeat	Run3	repeat/STIM_013.jpg	100
2562.06	0.611	611.2	repeat	Run3	repeat/STIM_014.jpg	100
2565.211	0.75	750.2	repeat	Run3	repeat/STIM_014.jpg	99
2567.932	1.03	1029.6	repeat	Run3	repeat/STIM_014.jpg	99
2571.492	0.643	643.1	repeat	Run3	repeat/STIM_014.jpg	99
2575.259	1.035	1034.7	repeat	Run3	repeat/STIM_014.jpg	99
2580.114	1.485	1485.0	generate	Run4	generate/STIM_000.jpg	99
2584.647	1.915	1915.3	generate	Run4	generate/STIM_000.jpg	100
2589.715	1.898	1898.0	generate	Run4	generate/STIM_000.jpg	99
2594.652	1.617	1617.1	generate	Run4	generate/STIM_000.jpg	100
2599.585	1.069	1069.0	generate	Run4	generate/STIM_000.jpg	100
2602.938	1.003	1002.9	generate	Run4	generate/STIM_001.jpg	100
2607.174	1.202	1202.4	generate	Run4	generate/STIM_001.jpg	100
2611.447	1.18	1180.3	generate	Run4	generate/STIM_001.jpg	100
2615.639	1.333	1332.9	generate	Run4	generate/STIM_001.jpg	100
2620.645	2.036	2036.4	generate	Run4	generate/STIM_001.jpg	100
2625.458	1.225	1224.9	generate	Run4	generate/STIM_002.jpg	99
2629.9	1.495	1495.3	generate	Run4	generate/STIM_002.jpg	100
2633.685	1.696	1696.3	generate	Run4	generate/STIM_002.jpg	99
2637.988	2.033	2033.4	generate	Run4	generate/STIM_002.jpg	100
2643.352	2.014	2014.2	generate	Run4	generate/STIM_002.jpg	99
2648.957	1.723	1723.2	generate	Run4	generate/STIM_003.jpg	99
2652.506	2.178	2178.3	generate	Run4	generate/STIM_003.jpg	100
2656.733	1.838	1838.5	generate	Run4	generate/STIM_003.jpg	99
2661.521	2.039	2039.1	generate	Run4	generate/STIM_003.jpg	100
2665.692	2.254	2253.9	generate	Run4	generate/STIM_003.jpg	100
2670.689	2.01	2009.9	generate	Run4	generate/STIM_004.jpg	99
2674.801	1.99	1990.1	generate	Run4	generate/STIM_004.jpg	100
2679.908	1.366	1366.1	generate	Run4	generate/STIM_004.jpg	99
2683.942	1.392	1391.8	generate	Run4	generate/STIM_004.jpg	100
2688.36	1.778	1778.0	generate	Run4	generate/STIM_004.jpg	100
2693.169	1.361	1361.3	generate	Run4	generate/STIM_005.jpg	99
2696.901	1.664	1663.5	generate	Run4	generate/STIM_005.jpg	100
2701.885	1.265	1265.0	generate	Run4	generate/STIM_005.jpg	100
2705.698	1.28	1280.5	generate	Run4	generate/STIM_005.jpg	100
2709.855	2.069	2069.0	generate	Run4	generate/STIM_005.jpg	99
2715.433	1.468	1467.5	generate	Run4	generate/STIM_006.jpg	100
2720.704	1.306	1306.5	generate	Run4	generate/STIM_006.jpg	99
2724.989	1.928	1927.9	generate	Run4	generate/STIM_006.jpg	100
2730.177	1.642	1642.0	generate	Run4	generate/STIM_006.jpg	100
2733.87	2.32	2320.2	generate	Run4	generate/STIM_006.jpg	100
2739.291	2.153	2153.3	generate	Run4	generate/STIM_007.jpg	99
2744.936	1.787	1787.3	generate	Run4	generate/STIM_007.jpg	99
2750.046	2.076	2076.0	generate	Run4	generate/STIM_007.jpg	100
2753.955	1.84	1839.9	generate	Run4	generate/STIM_007.jpg	100
2759.153	1.402	1402.4	generate	Run4	generate/STIM_007.jpg	100
2762.56	2.334	2333.9	generate	Run4	generate/STIM_008.jpg	99
2767.325	1.991	1990.8	generate	Run4	generate/STIM_008.jpg	100
2772.651	1.168	1168.4	generate	Run4	generate/STIM_008.jpg	100
2777.195	1.482	1481.9	generate	Run4	generate/STIM_008.jpg	99
2781.644	2.277	2276.6	generate	Run4	generate/STIM_008.jpg	100
2786.638	1.205	1205.3	generate	Run4	generate/STIM_009.jpg	99
2790.597	1.516	1515.5	generate	Run4	generate/STIM_009.jpg	100
2795.302	1.224	1223.7	generate	Run4	generate/STIM_009.jpg	100
2799.608	2.148	2148.0	generate	Run4	generate/STIM_009.jpg	100
2805.338	1.783	1783.3	generate	Run4	generate/STIM_009.jpg	99
2809.344	1.885	1885.4	generate	Run4	generate/STIM_010.jpg	100
2814.171	2.212	2212.0	generate	Run4	generate/STIM_010.jpg	100
2819.079	2.096	2096.5	generate	Run4	generate/STIM_010.jpg	99
2824.934	1.121	1120.6	generate	Run4	generate/STIM_010.jpg	99
2828.592	1.322	1321.6	generate	Run4	generate/STIM_010.jpg	100
2832.337	1.608	1608.1	generate	Run4	generate/STIM_011.jpg	100
2837.421	1.861	1861.2	generate	Run4	generate/STIM_011.jpg	99
2842.573	1.168	1167.5	generate	Run4	generate/STIM_011.jpg	99
2846.51	1.924	1923.6	generate	Run4	generate/STIM_011.jpg	100
2850.63	1.947	1946.8	generate	Run4	generate/STIM_011.jpg	99
2855.407	1.11	1110.2	generate	Run4	generate/STIM_012.jpg	99
2859.186	1.741	1740.8	generate	Run4	generate/STIM_012.jpg	99
2864.077	2.186	2186.3	generate	Run4	generate/STIM_012.jpg	100
2868.094	2.0	2000.0	generate	Run4	generate/STIM_012.jpg	99
2872.376	1.979	1979.3	generate	Run4	generate/STIM_012.jpg	100
2877.964	2.221	2221.0	generate	Run4	generate/STIM_013.jpg	99
2883.371	1.72	1720.5	generate	Run4	generate/STIM_013.jpg	99
2888.734	1.361	1361.1	generate	Run4	generate/STIM_013.jpg	99
2893.643	1.929	1928.8	generate	Run4	generate/STIM_013.jpg	100
2897.749	2.066	2065.7	generate	Run4	generate/STIM_013.jpg	99
2902.359	2.275	2275.4	generate	Run4	generate/STIM_014.jpg	100
2908.086	2.144	2143.8	generate	Run4	generate/STIM_014.jpg	100
2912.853	1.012	1012.3	generate	Run4	generate/STIM_014.jpg	99
2916.823	1.855	1854.7	generate	Run4	generate/STIM_014.jpg	100
2921.293	1.908	1908.5	generate	Run4	generate/STIM_014.jpg	100
2925.915	1.671	1671.0	generate	Run4	generate/STIM_015.jpg	99
2929.94	1.864	1864.2	generate	Run4	generate/STIM_015.jpg	99
2934.883	0.974	973.8	generate	Run4	generate/STIM_015.jpg	99
2939.031	1.189	1188.7	generate	Run4	generate/STIM_015.jpg	100
2943.637	1.416	1415.5	generate	Run4	generate/STIM_015.jpg	100
2948.291	1.995	1994.7	generate	Run4	generate/STIM_016.jpg	100
2953.19	1.963	1963.1	generate	Run4	generate/STIM_016.jpg	99
2957.864	1.335	1335.0	generate	Run4	generate/STIM_016.jpg	100
2962.708	1.141	1140.8	generate	Run4	generate/STIM_016.jpg	99
2967.675	1.951	1950.6	generate	Run4	generate/STIM_016.jpg	99
2971.469	1.728	1727.5	generate	Run4	generate/STIM_017.jpg	99
2976.066	1.349	1348.7	generate	Run4	generate/STIM_017.jpg	99
2980.296	1.033	1033.3	generate	Run4	generate/STIM_017.jpg	100
2983.528	1.269	1268.7	generate	Run4	generate/STIM_017.jpg	99
2988.192	1.852	1851.5	generate	Run4	generate/STIM_017.jpg	99
2993.767	2.292	2292.4	generate	Run4	generate/STIM_018.jpg	100
2999.604	2.13	2130.5	generate	Run4	generate/STIM_018.jpg	100
3004.394	1.342	1342.1	generate	Run4	generate/STIM_018.jpg	99
3007.862	1.542	1542.3	generate	Run4	generate/STIM_018.jpg	100
3012.376	1.593	1592.8	generate	Run4	generate/STIM_018.jpg	100
3017.097	2.298	2297.6	generate	Run4	generate/STIM_019.jpg	99
3023.147	1.428	1427.5	generate	Run4	generate/STIM_019.jpg	99
3027.063	1.669	1669.0	generate	Run4	generate/STIM_019.jpg	100
3031.919	1.997	1997.4	generate	Run4	generate/STIM_019.jpg	100
3036.04	1.143	1143.4	generate	Run4	generate/STIM_019.jpg	100
3040.735	0.995	994.8	generate	Run4	generate/STIM_020.jpg	100
3044.282	1.146	1145.8	generate	Run4	generate/STIM_020.jpg	100
3048.871	1.577	1576.8	generate	Run4	generate/STIM_020.jpg	100
3053.263	1.89	1889.8	generate	Run4	generate/STIM_020.jpg	99
3057.312	1.123	1123.2	generate	Run4	generate/STIM_020.jpg	100
3062.166	1.486	1486.1	generate	Run4	generate/STIM_021.jpg	100
3065.821	1.427	1427.4	generate	Run4	generate/STIM_021.jpg	100
3069.365	2.291	2291.3	generate	Run4	generate/STIM_021.jpg	99
3073.727	1.953	1953.0	generate	Run4	generate/STIM_021.jpg	99
3078.885	1.801	1800.6	generate	Run4	generate/STIM_021.jpg	99
3083.667	1.579	1578.6	generate	Run4	generate/STIM_022.jpg	100
3088.644	1.566	1565.8	generate	Run4	generate/STIM_022.jpg	100
3093.066	2.228	2227.5	generate	Run4	generate/STIM_022.jpg	99
3097.342	1.123	1123.0	generate	Run4	generate/STIM_022.jpg	99
3101.86	0.994	994.4	generate	Run4	generate/STIM_022.jpg	100
3106.241	1.514	1513.8	generate	Run4	generate/STIM_023.jpg	100
3109.911	1.531	1530.8	generate	Run4	generate/STIM_023.jpg	100
3113.393	1.42	1420.0	generate	Run4	generate/STIM_023.jpg	99
3117.851	1.059	1058.9	generate	Run4	generate/STIM_023.jpg	100
3122.263	1.648	1648.2	generate	Run4	generate/STIM_023.jpg	99
3125.773	1.864	1864.4	generate	Run4	generate/STIM_024.jpg	99
3129.85	1.159	1158.8	generate	Run4	generate/STIM_024.jpg	99
3133.626	1.204	1204.1	generate	Run4	generate/STIM_024.jpg	99
3138.282	1.718	1718.2	generate	Run4	generate/STIM_024.jpg	99
3142.904	1.423	1423.4	generate	Run4	generate/STIM_024.jpg	100
3148.099	1.054	1053.6	repeat	Run4	repeat/STIM_000.jpg	99
3151.473	0.732	731.7	repeat	Run4	repeat/STIM_000.jpg	100
3155.695	0.926	926.0	repeat	Run4	repeat/STIM_000.jpg	99
3159.76	0.946	945.9	repeat	Run4	repeat/STIM_000.jpg	100
3162.69	1.075	1074.8	repeat	Run4	repeat/STIM_000.jpg	100
3166.054	0.693	692.8	repeat	Run4	repeat/STIM_001.jpg	99
3170.082	0.802	801.7	repeat	Run4	repeat/STIM_001.jpg	100
3173.14	0.576	576.1	repeat	Run4	repeat/STIM_001.jpg	99
3176.684	0.84	840.5	repeat	Run4	repeat/STIM_001.jpg	99
3179.777	0.761	761.4	repeat	Run4	repeat/STIM_001.jpg	99
3184.207	0.558	558.3	repeat	Run4	repeat/STIM_002.jpg	99
3187.191	0.749	748.8	repeat	Run4	repeat/STIM_002.jpg	99
3190.395	0.566	566.4	repeat	Run4	repeat/STIM_002.jpg	100
3193.21	0.632	632.3	repeat	Run4	repeat/STIM_002.jpg	100
3196.138	1.03	1030.0	repeat	Run4	repeat/STIM_002.jpg	99
3199.179	0.721	720.9	repeat	Run4	repeat/STIM_003.jpg	100
3203.024	1.1	1100.4	repeat	Run4	repeat/STIM_003.jpg	99
3206.316	1.069	1069.3	repeat	Run4	repeat/STIM_003.jpg	100
3210.745	0.619	619.3	repeat	Run4	repeat/STIM_003.jpg	99
3214.071	0.961	961.3	repeat	Run4	repeat/STIM_003.jpg	99
3217.826	0.65	650.1	repeat	Run4	repeat/STIM_004.jpg	99
3222.232	0.866	865.9	repeat	Run4	repeat/STIM_004.jpg	100
3225.92	0.818	817.6	repeat	Run4	repeat/STIM_004.jpg	99
3229.943	0.581	580.7	repeat	Run4	repeat/STIM_004.jpg	99
3233.964	0.901	901.2	repeat	Run4	repeat/STIM_004.jpg	99
3237.347	0.593	592.6	repeat	Run4	repeat/STIM_005.jpg	100
3240.679	1.026	1026.1	repeat	Run4	repeat/STIM_005.jpg	99
3244.234	0.785	784.7	repeat	Run4	repeat/STIM_005.jpg	99
3248.25	1.079	1078.7	repeat	Run4	repeat/STIM_005.jpg	99
3251.605	1.091	1091.0	repeat	Run4	repeat/STIM_005.jpg	99
3254.81	0.96	960.5	repeat	Run4	repeat/STIM_006.jpg	100
3258.377	0.863	863.3	repeat	Run4	repeat/STIM_006.jpg	100
3262.268	1.029	1028.6	repeat	Run4	repeat/STIM_006.jpg	99
3266.584	0.595	594.8	repeat	Run4	repeat/STIM_006.jpg	100
3270.2	1.101	1100.6	repeat	Run4	repeat/STIM_006.jpg	99
3274.452	0.897	896.6	repeat	Run4	repeat/STIM_007.jpg	99
3277.797	1.108	1107.6	repeat	Run4	repeat/STIM_007.jpg	100
3280.797	0.636	635.7	repeat	Run4	repeat/STIM_007.jpg	100
3284.758	1.013	1012.9	repeat	Run4	repeat/STIM_007.jpg	100
3288.815	0.818	817.6	repeat	Run4	repeat/STIM_007.jpg	99
3292.76	0.801	801.2	repeat	Run4	repeat/STIM_008.jpg	99
3295.59	0.972	971.8	repeat	Run4	repeat/STIM_008.jpg	99
3298.499	0.999	998.7	repeat	Run4	repeat/STIM_008.jpg	99
3301.657	0.733	733.2	repeat	Run4	repeat/STIM_008.jpg	100
3304.328	1.045	1045.0	repeat	Run4	repeat/STIM_008.jpg	100
3308.099	1.107	1106.8	repeat	Run4	repeat/STIM_009.jpg	100
3311.42	1.068	1068.4	repeat	Run4	repeat/STIM_009.jpg	99
3315.201	0.829	828.8	repeat	Run4	repeat/STIM_009.jpg	99
3318.276	0.995	995.4	repeat	Run4	repeat/STIM_009.jpg	99
3322.466	1.052	1052.3	repeat	Run4	repeat/STIM_009.jpg	99
3326.451	1.077	1077.0	repeat	Run4	repeat/STIM_010.jpg	99
3331.284	0.69	690.1	repeat	Run4	repeat/STIM_010.jpg	99
3334.954	0.844	843.5	repeat	Run4	repeat/STIM_010.jpg	99
3338.606	0.829	829.1	repeat	Run4	repeat/STIM_010.jpg	100
3343.125	0.84	840.1	repeat	Run4	repeat/STIM_010.jpg	100
3346.619	1.059	1058.8	repeat	Run4	repeat/STIM_011.jpg	100
3350.258	0.67	670.1	repeat	Run4	repeat/STIM_011.jpg	100
3354.266	0.884	883.9	repeat	Run4	repeat/STIM_011.jpg	99
3357.112	0.876	876.1	repeat	Run4	repeat/STIM_011.jpg	99
3361.407	0.588	587.8	repeat	Run4	repeat/STIM_011.jpg	100
3364.064	0.726	726.5	repeat	Run4	repeat/STIM_012.jpg	100
3368.692	0.562	561.7	repeat	Run4	repeat/STIM_012.jpg	100
3371.535	0.992	991.8	repeat	Run4	repeat/STIM_012.jpg	99
3376.332	0.618	618.2	repeat	Run4	repeat/STIM_012.jpg	100
3380.88	0.582	581.7	repeat	Run4	repeat/STIM_012.jpg	99
3383.862	1.025	1025.0	repeat	Run4	repeat/STIM_013.jpg	99
3387.059	0.728	728.1	repeat	Run4	repeat/STIM_013.jpg	100
3390.573	1.008	1008.5	repeat	Run4	repeat/STIM_013.jpg	100
3394.856	0.942	941.8	repeat	Run4	repeat/STIM_013.jpg	99
3398.968	0.744	743.5	repeat	Run4	repeat/STIM_013.jpg	99
3402.941	0.912	911.7	repeat	Run4	repeat/STIM_014.jpg	100
3407.04	0.66	660.5	repeat	Run4	repeat/STIM_014.jpg	100
3410.092	0.938	937.6	repeat	Run4	repeat/STIM_014.jpg	100
3413.993	1.011	1010.7	repeat	Run4	repeat/STIM_014.jpg	100
3418.493	0.934	933.6	repeat	Run4	repeat/STIM_014.jpg	99
