onset	duration	response_time_ms	trial_type	learning_stage	stimulus	response_port
0.0	0.668	668.1	incongruent	Block1	incongruent/STIM_000.jpg	99
3.982	1.036	1036.1	incongruent	Block1	incongruent/STIM_000.jpg	99
7.077	1.054	1053.6	incongruent	Block1	incongruent/STIM_000.jpg	99
10.691	0.769	769.1	incongruent	Block1	incongruent/STIM_000.jpg	100
15.079	0.843	843.2	incongruent	Block1	incongruent/STIM_000.jpg	99
19.431	1.04	1040.5	incongruent	Block1	incongruent/STIM_001.jpg	100
22.713	0.792	792.2	incongruent	Block1	incongruent/STIM_001.jpg	100
25.673	0.683	683.1	incongruent	Block1	incongruent/STIM_001.jpg	100
29.896	0.651	651.2	incongruent	Block1	incongruent/STIM_001.jpg	100
34.178	0.665	665.2	incongruent	Block1	incongruent/STIM_001.jpg	100
37.11	0.678	678.2	incongruent	Block1	incongruent/STIM_002.jpg	100
41.41	0.67	669.7	incongruent	Block1	incongruent/STIM_002.jpg	99
45.886	0.622	622.3	incongruent	Block1	incongruent/STIM_002.jpg	99
49.488	0.528	528.5	incongruent	Block1	incongruent/STIM_002.jpg	100
52.604	0.894	894.2	incongruent	Block1	incongruent/STIM_002.jpg	100
57.425	1.192	1191.8	incongruent	Block1	incongruent/STIM_003.jpg	100
61.039	0.998	997.8	incongruent	Block1	incongruent/STIM_003.jpg	100
64.833	0.962	961.5	incongruent	Block1	incongruent/STIM_003.jpg	99
68.267	0.909	909.4	incongruent	Block1	incongruent/STIM_003.jpg	100
72.999	0.452	451.7	incongruent	Block1	incongruent/STIM_003.jpg	100
76.831	1.145	1144.7	incongruent	Block1	incongruent/STIM_004.jpg	99
80.648	0.596	596.3	incongruent	Block1	incongruent/STIM_004.jpg	100
85.021	0.902	902.3	incongruent	Block1	incongruent/STIM_004.jpg	99
88.329	0.971	971.1	incongruent	Block1	incongruent/STIM_004.jpg	100
92.475	0.885	885.2	incongruent	Block1	incongruent/STIM_004.jpg	100
95.521	0.886	886.2	incongruent	Block1	incongruent/STIM_005.jpg	100
99.657	0.936	935.9	incongruent	Block1	incongruent/STIM_005.jpg	99
103.862	1.076	1075.8	incongruent	Block1	incongruent/STIM_005.jpg	99
108.023	0.488	488.0	incongruent	Block1	incongruent/STIM_005.jpg	100
111.627	0.937	936.8	incongruent	Block1	incongruent/STIM_005.jpg	100
116.011	1.105	1104.6	incongruent	Block1	incongruent/STIM_006.jpg	99
119.252	1.044	1044.4	incongruent	Block1	incongruent/STIM_006.jpg	100
123.781	0.826	826.0	incongruent	Block1	incongruent/STIM_006.jpg	100
126.805	0.944	943.7	incongruent	Block1	incongruent/STIM_006.jpg	99
130.681	0.597	597.0	incongruent	Block1	incongruent/STIM_006.jpg	100
134.82	0.597	596.8	incongruent	Block1	incongruent/STIM_007.jpg	99
137.621	0.796	796.5	incongruent	Block1	incongruent/STIM_007.jpg	99
141.831	0.942	941.5	incongruent	Block1	incongruent/STIM_007.jpg	99
146.474	0.57	570.5	incongruent	Block1	incongruent/STIM_007.jpg	100
150.565	0.862	861.5	incongruent	Block1	incongruent/STIM_007.jpg	100
153.919	0.773	773.0	incongruent	Block1	incongruent/STIM_008.jpg	99
157.526	1.064	1064.3	incongruent	Block1	incongruent/STIM_008.jpg	99
160.819	0.918	917.5	incongruent	Block1	incongruent/STIM_008.jpg	99
164.038	0.826	826.5	incongruent	Block1	incongruent/STIM_008.jpg	100
168.266	0.684	683.7	incongruent	Block1	incongruent/STIM_008.jpg	100
172.296	0.765	765.4	incongruent	Block1	incongruent/STIM_009.jpg	100
176.012	0.604	603.7	incongruent	Block1	incongruent/STIM_009.jpg	100
178.878	1.071	1071.1	incongruent	Block1	incongruent/STIM_009.jpg	100
182.022	0.663	663.3	incongruent	Block1	incongruent/STIM_009.jpg	99
186.257	0.873	872.6	incongruent	Block1	incongruent/STIM_009.jpg	100
189.27	0.892	891.5	incongruent	Block1	incongruent/STIM_010.jpg	100
193.973	1.137	1136.8	incongruent	Block1	incongruent/STIM_010.jpg	100
197.985	0.927	927.1	incongruent	Block1	incongruent/STIM_010.jpg	100
201.675	0.746	745.6	incongruent	Block1	incongruent/STIM_010.jpg	99
206.399	0.855	855.4	incongruent	Block1	incongruent/STIM_010.jpg	100
211.207	0.668	668.5	incongruent	Block1	incongruent/STIM_011.jpg	99
214.663	0.542	541.8	incongruent	Block1	incongruent/STIM_011.jpg	100
217.348	0.944	944.5	incongruent	Block1	incongruent/STIM_011.jpg	99
222.111	0.758	757.8	incongruent	Block1	incongruent/STIM_011.jpg	100
225.341	0.903	903.1	incongruent	Block1	incongruent/STIM_011.jpg	100
229.566	0.801	800.7	incongruent	Block1	incongruent/STIM_012.jpg	99
233.392	0.664	664.0	incongruent	Block1	incongruent/STIM_012.jpg	100
236.559	0.873	872.8	incongruent	Block1	incongruent/STIM_012.jpg	100
240.11	0.993	993.0	incongruent	Block1	incongruent/STIM_012.jpg	100
243.144	0.682	681.7	incongruent	Block1	incongruent/STIM_012.jpg	99
246.308	0.826	825.5	incongruent	Block1	incongruent/STIM_013.jpg	100
250.183	0.779	779.4	incongruent	Block1	incongruent/STIM_013.jpg	100
254.543	0.821	820.7	incongruent	Block1	incongruent/STIM_013.jpg	99
259.086	0.723	722.6	incongruent	Block1	incongruent/STIM_013.jpg	100
261.861	0.913	913.2	incongruent	Block1	incongruent/STIM_013.jpg	99
266.155	0.885	885.0	incongruent	Block1	incongruent/STIM_014.jpg	100
270.345	0.789	789.4	incongruent	Block1	incongruent/STIM_014.jpg	100
273.843	0.869	869.4	incongruent	Block1	incongruent/STIM_014.jpg	100
277.56	1.008	1008.1	incongruent	Block1	incongruent/STIM_014.jpg	99
282.163	0.542	542.3	incongruent	Block1	incongruent/STIM_014.jpg	100
285.4	0.767	767.2	incongruent	Block1	incongruent/STIM_015.jpg	100
289.294	0.961	960.8	incongruent	Block1	incongruent/STIM_015.jpg	100
292.41	0.829	829.3	incongruent	Block1	incongruent/STIM_015.jpg	100
295.56	0.561	561.2	incongruent	Block1	incongruent/STIM_015.jpg	100
298.159	0.734	733.9	incongruent	Block1	incongruent/STIM_015.jpg	100
301.66	0.753	752.8	incongruent	Block1	incongruent/STIM_016.jpg	99
306.101	1.04	1039.9	incongruent	Block1	incongruent/STIM_016.jpg	100
309.479	1.004	1003.5	incongruent	Block1	incongruent/STIM_016.jpg	100
313.455	0.942	941.7	incongruent	Block1	incongruent/STIM_016.jpg	99
318.24	0.921	920.8	incongruent	Block1	incongruent/STIM_016.jpg	100
322.002	0.932	932.5	incongruent	Block1	incongruent/STIM_017.jpg	99
325.574	0.61	609.7	incongruent	Block1	incongruent/STIM_017.jpg	99
328.969	1.042	1042.1	incongruent	Block1	incongruent/STIM_017.jpg	99
333.379	0.984	983.7	incongruent	Block1	incongruent/STIM_017.jpg	100
338.162	0.828	828.5	incongruent	Block1	incongruent/STIM_017.jpg	100
341.525	0.653	653.1	incongruent	Block1	incongruent/STIM_018.jpg	99
345.524	1.13	1129.7	incongruent	Block1	incongruent/STIM_018.jpg	100
348.974	0.991	991.3	incongruent	Block1	incongruent/STIM_018.jpg	99
352.884	0.971	971.1	incongruent	Block1	incongruent/STIM_018.jpg	100
356.27	0.892	892.3	incongruent	Block1	incongruent/STIM_018.jpg	100
359.837	1.174	1173.7	incongruent	Block1	incongruent/STIM_019.jpg	100
363.657	0.711	710.7	incongruent	Block1	incongruent/STIM_019.jpg	99
366.469	0.716	716.5	incongruent	Block1	incongruent/STIM_019.jpg	100
369.56	0.947	946.6	incongruent	Block1	incongruent/STIM_019.jpg	99
372.782	0.587	587.3	incongruent	Block1	incongruent/STIM_019.jpg	100
375.519	0.622	622.2	incongruent	Block1	incongruent/STIM_020.jpg	100
379.284	1.041	1041.2	incongruent	Block1	incongruent/STIM_020.jpg	100
382.712	1.057	1056.7	incongruent	Block1	incongruent/STIM_020.jpg	100
387.055	0.921	921.1	incongruent	Block1	incongruent/STIM_020.jpg	99
390.579	0.518	518.2	incongruent	Block1	incongruent/STIM_020.jpg	100
393.501	0.99	989.7	incongruent	Block1	incongruent/STIM_021.jpg	100
398.366	1.103	1103.2	incongruent	Block1	incongruent/STIM_021.jpg	99
401.98	0.746	745.9	incongruent	Block1	incongruent/STIM_021.jpg	100
405.24	0.727	726.6	incongruent	Block1	incongruent/STIM_021.jpg	100
408.253	0.764	763.9	incongruent	Block1	incongruent/STIM_021.jpg	99
411.192	0.756	755.6	incongruent	Block1	incongruent/STIM_022.jpg	99
415.067	0.605	604.7	incongruent	Block1	incongruent/STIM_022.jpg	99
418.504	0.873	873.3	incongruent	Block1	incongruent/STIM_022.jpg	99
422.101	0.795	794.9	incongruent	Block1	incongruent/STIM_022.jpg	100
425.042	0.776	776.4	incongruent	Block1	incongruent/STIM_022.jpg	99
428.489	0.782	781.8	incongruent	Block1	incongruent/STIM_023.jpg	99
431.371	1.058	1057.6	incongruent	Block1	incongruent/STIM_023.jpg	99
435.427	0.925	925.0	incongruent	Block1	incongruent/STIM_023.jpg	100
440.23	0.973	972.7	incongruent	Block1	incongruent/STIM_023.jpg	99
444.524	0.772	772.3	incongruent	Block1	incongruent/STIM_023.jpg	100
448.021	0.677	676.6	incongruent	Block1	incongruent/STIM_024.jpg	100
451.421	0.861	861.3	incongruent	Block1	incongruent/STIM_024.jpg	100
454.965	0.798	797.8	incongruent	Block1	incongruent/STIM_024.jpg	100
459.717	1.0	1000.1	incongruent	Block1	incongruent/STIM_024.jpg	100
463.646	0.457	456.9	incongruent	Block1	incongruent/STIM_024.jpg	99
467.296	1.037	1037.0	incongruent	Block1	incongruent/STIM_025.jpg	99
471.897	1.111	1111.2	incongruent	Block1	incongruent/STIM_025.jpg	100
475.811	0.567	566.7	incongruent	Block1	incongruent/STIM_025.jpg	100
478.985	0.863	863.2	incongruent	Block1	incongruent/STIM_025.jpg	100
483.82	0.709	708.6	incongruent	Block1	incongruent/STIM_025.jpg	100
487.616	1.162	1162.0	incongruent	Block1	incongruent/STIM_026.jpg	100
490.953	1.104	1103.5	incongruent	Block1	incongruent/STIM_026.jpg	99
494.233	0.945	944.9	incongruent	Block1	incongruent/STIM_026.jpg	100
498.498	0.55	550.4	incongruent	Block1	incongruent/STIM_026.jpg	100
502.537	0.492	492.4	incongruent	Block1	incongruent/STIM_026.jpg	100
505.3	0.83	830.3	incongruent	Block1	incongruent/STIM_027.jpg	99
509.759	0.904	903.8	incongruent	Block1	incongruent/STIM_027.jpg	100
514.07	0.731	731.0	incongruent	Block1	incongruent/STIM_027.jpg	99
518.374	0.704	704.3	incongruent	Block1	incongruent/STIM_027.jpg	100
522.114	0.529	529.4	incongruent	Block1	incongruent/STIM_027.jpg	99
525.653	0.796	796.2	incongruent	Block1	incongruent/STIM_028.jpg	99
528.838	0.733	733.0	incongruent	Block1	incongruent/STIM_028.jpg	100
532.551	0.732	732.2	incongruent	Block1	incongruent/STIM_028.jpg	99
535.6	0.487	487.4	incongruent	Block1	incongruent/STIM_028.jpg	99
538.849	0.938	938.3	incongruent	Block1	incongruent/STIM_028.jpg	99
543.045	0.87	870.0	incongruent	Block1	incongruent/STIM_029.jpg	99
546.858	0.783	783.3	incongruent	Block1	incongruent/STIM_029.jpg	99
551.345	0.82	820.0	incongruent	Block1	incongruent/STIM_029.jpg	99
554.538	0.881	881.3	incongruent	Block1	incongruent/STIM_029.jpg	100
558.704	0.544	543.8	incongruent	Block1	incongruent/STIM_029.jpg	99
562.023	0.477	477.0	congruent	Block1	congruent/STIM_000.jpg	100
566.174	0.661	661.2	congruent	Block1	congruent/STIM_000.jpg	100
570.489	0.508	508.2	congruent	Block1	congruent/STIM_000.jpg	99
574.975	0.67	670.5	congruent	Block1	congruent/STIM_000.jpg	99
579.325	0.55	549.9	congruent	Block1	congruent/STIM_000.jpg	100
581.998	0.638	637.7	congruent	Block1	congruent/STIM_001.jpg	99
586.101	0.622	622.0	congruent	Block1	congruent/STIM_001.jpg	99
588.754	0.425	425.4	congruent	Block1	congruent/STIM_001.jpg	99
593.016	0.614	613.5	congruent	Block1	congruent/STIM_001.jpg	100
597.344	0.627	627.0	congruent	Block1	congruent/STIM_001.jpg	100
600.809	0.688	688.0	congruent	Block1	congruent/STIM_002.jpg	99
604.606	0.539	539.4	congruent	Block1	congruent/STIM_002.jpg	99
607.611	0.522	522.1	congruent	Block1	congruent/STIM_002.jpg	100
610.951	0.528	528.1	congruent	Block1	congruent/STIM_002.jpg	99
615.268	0.651	650.9	congruent	Block1	congruent/STIM_002.jpg	100
619.243	0.448	447.5	congruent	Block1	congruent/STIM_003.jpg	99
622.147	0.549	548.9	congruent	Block1	congruent/STIM_003.jpg	99
625.792	0.508	507.7	congruent	Block1	congruent/STIM_003.jpg	99
630.203	0.609	609.4	congruent	Block1	congruent/STIM_003.jpg	100
633.703	0.695	694.6	congruent	Block1	congruent/STIM_003.jpg	100
638.175	0.682	682.3	congruent	Block1	congruent/STIM_004.jpg	100
642.398	0.48	479.7	congruent	Block1	congruent/STIM_004.jpg	100
644.95	0.506	505.8	congruent	Block1	congruent/STIM_004.jpg	99
649.392	0.531	530.8	congruent	Block1	congruent/STIM_004.jpg	99
652.075	0.536	535.7	congruent	Block1	congruent/STIM_004.jpg	99
654.927	0.553	553.1	congruent	Block1	congruent/STIM_005.jpg	100
659.216	0.404	403.6	congruent	Block1	congruent/STIM_005.jpg	99
663.083	0.549	549.2	congruent	Block1	congruent/STIM_005.jpg	100
666.791	0.692	692.1	congruent	Block1	congruent/STIM_005.jpg	100
669.864	0.535	535.0	congruent	Block1	congruent/STIM_005.jpg	99
673.661	0.565	564.6	congruent	Block1	congruent/STIM_006.jpg	99
678.175	0.428	427.5	congruent	Block1	congruent/STIM_006.jpg	99
680.953	0.668	668.4	congruent	Block1	congruent/STIM_006.jpg	99
684.215	0.64	639.9	congruent	Block1	congruent/STIM_006.jpg	99
687.394	0.692	691.6	congruent	Block1	congruent/STIM_006.jpg	99
691.34	0.568	567.9	congruent	Block1	congruent/STIM_007.jpg	100
695.522	0.598	597.7	congruent	Block1	congruent/STIM_007.jpg	99
699.381	0.501	500.9	congruent	Block1	congruent/STIM_007.jpg	99
703.508	0.508	507.8	congruent	Block1	congruent/STIM_007.jpg	100
707.453	0.474	473.8	congruent	Block1	congruent/STIM_007.jpg	100
710.304	0.718	718.3	congruent	Block1	congruent/STIM_008.jpg	99
714.195	0.458	458.3	congruent	Block1	congruent/STIM_008.jpg	100
717.732	0.675	675.0	congruent	Block1	congruent/STIM_008.jpg	99
721.027	0.696	696.1	congruent	Block1	congruent/STIM_008.jpg	99
723.998	0.454	454.0	congruent	Block1	congruent/STIM_008.jpg	100
727.75	0.581	580.6	congruent	Block1	congruent/STIM_009.jpg	99
730.712	0.508	508.2	congruent	Block1	congruent/STIM_009.jpg	100
735.165	0.662	662.3	congruent	Block1	congruent/STIM_009.jpg	100
738.582	0.655	655.2	congruent	Block1	congruent/STIM_009.jpg	99
742.536	0.602	601.5	congruent	Block1	congruent/STIM_009.jpg	100
746.759	0.466	466.5	congruent	Block1	congruent/STIM_010.jpg	99
749.926	0.471	470.7	congruent	Block1	congruent/STIM_010.jpg	100
754.122	0.43	429.9	congruent	Block1	congruent/STIM_010.jpg	99
756.899	0.638	638.0	congruent	Block1	congruent/STIM_010.jpg	100
761.249	0.542	541.7	congruent	Block1	congruent/STIM_010.jpg	100
764.33	0.515	515.1	congruent	Block1	congruent/STIM_011.jpg	100
768.586	0.519	519.4	congruent	Block1	congruent/STIM_011.jpg	100
771.431	0.564	564.5	congruent	Block1	congruent/STIM_011.jpg	99
775.013	0.497	496.7	congruent	Block1	congruent/STIM_011.jpg	100
778.06	0.636	636.2	congruent	Block1	congruent/STIM_011.jpg	100
781.73	0.405	405.4	congruent	Block1	congruent/STIM_012.jpg	99
784.481	0.605	604.9	congruent	Block1	congruent/STIM_012.jpg	100
787.681	0.51	509.7	congruent	Block1	congruent/STIM_012.jpg	100
790.923	0.64	640.4	congruent	Block1	congruent/STIM_012.jpg	99
794.73	0.626	626.2	congruent	Block1	congruent/STIM_012.jpg	99
798.783	0.586	585.6	congruent	Block1	congruent/STIM_013.jpg	99
801.696	0.71	709.8	congruent	Block1	congruent/STIM_013.jpg	99
804.93	0.638	637.7	congruent	Block1	congruent/STIM_013.jpg	100
809.446	0.43	430.1	congruent	Block1	congruent/STIM_013.jpg	100
813.589	0.472	471.8	congruent	Block1	congruent/STIM_013.jpg	99
817.663	0.532	531.8	congruent	Block1	congruent/STIM_014.jpg	99
821.58	0.651	651.1	congruent	Block1	congruent/STIM_014.jpg	99
825.951	0.492	491.7	congruent	Block1	congruent/STIM_014.jpg	100
828.654	0.441	441.1	congruent	Block1	congruent/STIM_014.jpg	100
832.285	0.41	410.0	congruent	Block1	congruent/STIM_014.jpg	100
835.643	0.636	635.7	congruent	Block1	congruent/STIM_015.jpg	100
840.174	0.45	449.9	congruent	Block1	congruent/STIM_015.jpg	99
843.481	0.585	585.1	congruent	Block1	congruent/STIM_015.jpg	100
847.714	0.604	603.9	congruent	Block1	congruent/STIM_015.jpg	99
852.009	0.5	499.7	congruent	Block1	congruent/STIM_015.jpg	100
856.335	0.624	623.6	congruent	Block1	congruent/STIM_016.jpg	100
860.598	0.686	686.4	congruent	Block1	congruent/STIM_016.jpg	100
863.359	0.671	670.8	congruent	Block1	congruent/STIM_016.jpg	99
866.333	0.658	657.6	congruent	Block1	congruent/STIM_016.jpg	100
869.914	0.612	612.3	congruent	Block1	congruent/STIM_016.jpg	99
873.865	0.515	514.6	congruent	Block1	congruent/STIM_017.jpg	99
877.545	0.614	614.3	congruent	Block1	congruent/STIM_017.jpg	99
881.503	0.449	449.4	congruent	Block1	congruent/STIM_017.jpg	99
885.581	0.406	406.4	congruent	Block1	congruent/STIM_017.jpg	100
889.371	0.614	614.1	congruent	Block1	congruent/STIM_017.jpg	100
893.107	0.461	460.9	congruent	Block1	congruent/STIM_018.jpg	100
896.445	0.66	660.4	congruent	Block1	congruent/STIM_018.jpg	99
900.753	0.688	687.6	congruent	Block1	congruent/STIM_018.jpg	99
903.621	0.519	519.0	congruent	Block1	congruent/STIM_018.jpg	99
907.066	0.706	705.9	congruent	Block1	congruent/STIM_018.jpg	99
910.6	0.44	439.6	congruent	Block1	congruent/STIM_019.jpg	99
914.438	0.405	405.3	congruent	Block1	congruent/STIM_019.jpg	99
916.921	0.512	512.4	congruent	Block1	congruent/STIM_019.jpg	99
919.992	0.569	569.0	congruent	Block1	congruent/STIM_019.jpg	100
924.182	0.452	452.5	congruent	Block1	congruent/STIM_019.jpg	99
927.397	0.446	446.5	congruent	Block1	congruent/STIM_020.jpg	99
930.498	0.577	577.0	congruent	Block1	congruent/STIM_020.jpg	100
935.054	0.507	506.8	congruent	Block1	congruent/STIM_020.jpg	100
938.996	0.426	426.5	congruent	Block1	congruent/STIM_020.jpg	100
942.978	0.548	547.5	congruent	Block1	congruent/STIM_020.jpg	100
946.287	0.466	466.4	congruent	Block1	congruent/STIM_021.jpg	100
949.692	0.686	685.9	congruent	Block1	congruent/STIM_021.jpg	100
952.444	0.713	712.7	congruent	Block1	congruent/STIM_021.jpg	100
956.499	0.529	528.6	congruent	Block1	congruent/STIM_021.jpg	100
959.312	0.436	435.6	congruent	Block1	congruent/STIM_021.jpg	100
962.189	0.478	478.2	congruent	Block1	congruent/STIM_022.jpg	100
966.432	0.607	607.2	congruent	Block1	congruent/STIM_022.jpg	99
970.392	0.442	442.0	congruent	Block1	congruent/STIM_022.jpg	99
973.476	0.455	455.4	congruent	Block1	congruent/STIM_022.jpg	99
976.084	0.562	562.0	congruent	Block1	congruent/STIM_022.jpg	100
980.111	0.518	517.7	congruent	Block1	congruent/STIM_023.jpg	99
984.621	0.573	573.0	congruent	Block1	congruent/STIM_023.jpg	99
988.917	0.41	409.6	congruent	Block1	congruent/STIM_023.jpg	99
991.75	0.5	500.5	congruent	Block1	congruent/STIM_023.jpg	99
994.933	0.717	717.1	congruent	Block1	congruent/STIM_023.jpg	99
998.71	0.424	424.3	congruent	Block1	congruent/STIM_024.jpg	99
1002.656	0.691	690.8	congruent	Block1	congruent/STIM_024.jpg	100
1005.801	0.505	505.1	congruent	Block1	congruent/STIM_024.jpg	100
1008.948	0.447	447.2	congruent	Block1	congruent/STIM_024.jpg	99
1013.313	0.532	532.4	congruent	Block1	congruent/STIM_024.jpg	100
1016.394	0.598	598.5	congruent	Block1	congruent/STIM_025.jpg	99
1019.334	0.62	620.1	congruent	Block1	congruent/STIM_025.jpg	99
1022.824	0.417	417.2	congruent	Block1	congruent/STIM_025.jpg	99
1026.229	0.48	479.9	congruent	Block1	congruent/STIM_025.jpg	100
1029.831	0.416	415.9	congruent	Block1	congruent/STIM_025.jpg	99
1034.088	0.47	470.1	congruent	Block1	congruent/STIM_026.jpg	100
1036.882	0.48	480.3	congruent	Block1	congruent/STIM_026.jpg	99
1041.215	0.513	513.0	congruent	Block1	congruent/STIM_026.jpg	99
1044.63	0.618	618.4	congruent	Block1	congruent/STIM_026.jpg	100
1047.593	0.419	418.9	congruent	Block1	congruent/STIM_026.jpg	100
1051.026	0.521	521.3	congruent	Block1	congruent/STIM_027.jpg	100
1054.966	0.512	512.3	congruent	Block1	congruent/STIM_027.jpg	99
1058.49	0.663	663.4	congruent	Block1	congruent/STIM_027.jpg	100
1061.39	0.6	599.9	congruent	Block1	congruent/STIM_027.jpg	99
1065.326	0.413	412.7	congruent	Block1	congruent/STIM_027.jpg	99
1069.144	0.619	618.6	congruent	Block1	congruent/STIM_028.jpg	100
1072.118	0.516	515.6	congruent	Block1	congruent/STIM_028.jpg	99
1076.434	0.625	624.7	congruent	Block1	congruent/STIM_028.jpg	99
1081.01	0.522	522.0	congruent	Block1	congruent/STIM_028.jpg	99
1084.062	0.432	431.8	congruent	Block1	congruent/STIM_028.jpg	100
1088.292	0.488	488.1	congruent	Block1	congruent/STIM_029.jpg	100
1092.692	0.667	667.0	congruent	Block1	congruent/STIM_029.jpg	100
1097.303	0.653	653.1	congruent	Block1	congruent/STIM_029.jpg	100
1100.086	0.562	562.2	congruent	Block1	congruent/STIM_029.jpg	100
1103.105	0.698	698.2	congruent	Block1	congruent/STIM_029.jpg	99
1107.021	0.738	738.4	incongruent	Block2	incongruent/STIM_000.jpg	99
1110.042	0.767	766.6	incongruent	Block2	incongruent/STIM_000.jpg	100
1113.765	0.767	766.6	incongruent	Block2	incongruent/STIM_000.jpg	99
1117.001	0.583	583.2	incongruent	Block2	incongruent/STIM_000.jpg	100
1119.726	0.791	790.6	incongruent	Block2	incongruent/STIM_000.jpg	100
1124.315	0.915	915.2	incongruent	Block2	incongruent/STIM_001.jpg	100
1128.162	0.636	636.5	incongruent	Block2	incongruent/STIM_001.jpg	99
1132.301	0.663	662.7	incongruent	Block2	incongruent/STIM_001.jpg	100
1136.664	0.406	406.3	incongruent	Block2	incongruent/STIM_001.jpg	99
1140.309	0.587	587.4	incongruent	Block2	incongruent/STIM_001.jpg	100
1143.19	0.86	859.8	incongruent	Block2	incongruent/STIM_002.jpg	100
1147.427	0.869	869.3	incongruent	Block2	incongruent/STIM_002.jpg	100
1151.207	0.623	622.7	incongruent	Block2	incongruent/STIM_002.jpg	99
1154.911	0.839	838.9	incongruent	Block2	incongruent/STIM_002.jpg	99
1158.408	0.58	580.0	incongruent	Block2	incongruent/STIM_002.jpg	99
1161.529	0.78	780.3	incongruent	Block2	incongruent/STIM_003.jpg	99
1164.388	0.51	509.9	incongruent	Block2	incongruent/STIM_003.jpg	99
1168.406	0.881	880.7	incongruent	Block2	incongruent/STIM_003.jpg	100
1171.304	0.548	547.6	incongruent	Block2	incongruent/STIM_003.jpg	100
1174.973	0.79	789.8	incongruent	Block2	incongruent/STIM_003.jpg	100
1179.624	0.678	677.6	incongruent	Block2	incongruent/STIM_004.jpg	99
1182.642	0.772	771.8	incongruent	Block2	incongruent/STIM_004.jpg	99
1185.743	0.765	765.4	incongruent	Block2	incongruent/STIM_004.jpg	100
1188.751	0.486	486.3	incongruent	Block2	incongruent/STIM_004.jpg	100
1192.193	0.605	605.0	incongruent	Block2	incongruent/STIM_004.jpg	99
1196.654	0.798	797.8	incongruent	Block2	incongruent/STIM_005.jpg	100
1200.626	0.574	573.8	incongruent	Block2	incongruent/STIM_005.jpg	100
1203.354	0.725	725.2	incongruent	Block2	incongruent/STIM_005.jpg	100
1207.95	0.509	509.4	incongruent	Block2	incongruent/STIM_005.jpg	99
1210.939	0.555	555.4	incongruent	Block2	incongruent/STIM_005.jpg	100
1213.883	0.762	761.6	incongruent	Block2	incongruent/STIM_006.jpg	100
1218.126	0.684	684.1	incongruent	Block2	incongruent/STIM_006.jpg	99
1221.627	0.452	452.1	incongruent	Block2	incongruent/STIM_006.jpg	99
1224.329	0.539	538.7	incongruent	Block2	incongruent/STIM_006.jpg	99
1227.095	0.498	497.8	incongruent	Block2	incongruent/STIM_006.jpg	100
1229.758	0.789	789.2	incongruent	Block2	incongruent/STIM_007.jpg	100
1233.041	0.469	469.3	incongruent	Block2	incongruent/STIM_007.jpg	100
1237.04	0.809	809.0	incongruent	Block2	incongruent/STIM_007.jpg	100
1241.591	0.704	704.5	incongruent	Block2	incongruent/STIM_007.jpg	99
1245.518	0.719	719.3	incongruent	Block2	incongruent/STIM_007.jpg	99
1249.192	0.86	859.7	incongruent	Block2	incongruent/STIM_008.jpg	100
1253.775	0.63	629.6	incongruent	Block2	incongruent/STIM_008.jpg	99
1258.18	0.763	763.0	incongruent	Block2	incongruent/STIM_008.jpg	99
1261.344	0.807	806.8	incongruent	Block2	incongruent/STIM_008.jpg	100
1265.914	0.517	517.4	incongruent	Block2	incongruent/STIM_008.jpg	99
1268.84	0.524	523.9	incongruent	Block2	incongruent/STIM_009.jpg	99
1272.553	0.778	777.8	incongruent	Block2	incongruent/STIM_009.jpg	100
1276.921	0.583	583.2	incongruent	Block2	incongruent/STIM_009.jpg	99
1280.614	0.718	718.5	incongruent	Block2	incongruent/STIM_009.jpg	100
1284.576	0.692	691.7	incongruent	Block2	incongruent/STIM_009.jpg	99
1288.092	0.623	622.6	incongruent	Block2	incongruent/STIM_010.jpg	100
1292.128	0.916	916.2	incongruent	Block2	incongruent/STIM_010.jpg	99
1296.472	0.669	669.2	incongruent	Block2	incongruent/STIM_010.jpg	99
1299.778	0.562	562.5	incongruent	Block2	incongruent/STIM_010.jpg	100
1303.148	0.712	711.6	incongruent	Block2	incongruent/STIM_010.jpg	99
1306.666	0.89	889.5	incongruent	Block2	incongruent/STIM_011.jpg	99
1309.802	0.935	935.0	incongruent	Block2	incongruent/STIM_011.jpg	100
1313.805	0.762	762.4	incongruent	Block2	incongruent/STIM_011.jpg	100
1317.068	0.549	548.9	incongruent	Block2	incongruent/STIM_011.jpg	99
1320.966	0.649	648.9	incongruent	Block2	incongruent/STIM_011.jpg	100
1323.621	0.619	618.6	incongruent	Block2	incongruent/STIM_012.jpg	99
1327.596	0.682	682.3	incongruent	Block2	incongruent/STIM_012.jpg	100
1331.181	0.429	429.3	incongruent	Block2	incongruent/STIM_012.jpg	99
1334.417	0.587	586.7	incongruent	Block2	incongruent/STIM_012.jpg	100
1338.694	0.403	402.9	incongruent	Block2	incongruent/STIM_012.jpg	100
1342.227	0.499	499.0	incongruent	Block2	incongruent/STIM_013.jpg	100
1345.239	0.689	689.0	incongruent	Block2	incongruent/STIM_013.jpg	100
1348.958	0.653	652.6	incongruent	Block2	incongruent/STIM_013.jpg	99
1353.583	0.696	695.8	incongruent	Block2	incongruent/STIM_013.jpg	100
1357.283	0.809	809.0	incongruent	Block2	incongruent/STIM_013.jpg	99
1360.747	0.913	912.8	incongruent	Block2	incongruent/STIM_014.jpg	100
1364.775	0.474	473.9	incongruent	Block2	incongruent/STIM_014.jpg	100
1368.882	0.867	867.4	incongruent	Block2	incongruent/STIM_014.jpg	100
1373.236	0.77	769.7	incongruent	Block2	incongruent/STIM_014.jpg	99
1376.12	0.467	467.4	incongruent	Block2	incongruent/STIM_014.jpg	99
1378.636	0.815	814.9	incongruent	Block2	incongruent/STIM_015.jpg	100
1382.538	0.774	773.8	incongruent	Block2	incongruent/STIM_015.jpg	99
1387.138	0.815	815.1	incongruent	Block2	incongruent/STIM_015.jpg	100
1391.447	0.784	783.5	incongruent	Block2	incongruent/STIM_015.jpg	100
1395.413	0.668	668.3	incongruent	Block2	incongruent/STIM_015.jpg	99
1399.918	0.632	632.0	incongruent	Block2	incongruent/STIM_016.jpg	100
1404.311	0.537	536.8	incongruent	Block2	incongruent/STIM_016.jpg	100
1408.763	0.545	545.2	incongruent	Block2	incongruent/STIM_016.jpg	100
1412.099	0.452	452.1	incongruent	Block2	incongruent/STIM_016.jpg	99
1414.914	0.599	598.6	incongruent	Block2	incongruent/STIM_016.jpg	99
1418.807	0.745	744.9	incongruent	Block2	incongruent/STIM_017.jpg	100
1423.047	0.636	635.8	incongruent	Block2	incongruent/STIM_017.jpg	99
1427.127	0.803	803.3	incongruent	Block2	incongruent/STIM_017.jpg	100
1430.235	0.464	463.7	incongruent	Block2	incongruent/STIM_017.jpg	99
1433.459	0.822	821.5	incongruent	Block2	incongruent/STIM_017.jpg	99
1437.833	0.625	624.7	incongruent	Block2	incongruent/STIM_018.jpg	100
1442.193	0.585	585.2	incongruent	Block2	incongruent/STIM_018.jpg	100
1444.84	0.706	705.7	incongruent	Block2	incongruent/STIM_018.jpg	99
1447.896	0.74	740.3	incongruent	Block2	incongruent/STIM_018.jpg	100
1451.938	0.594	594.2	incongruent	Block2	incongruent/STIM_018.jpg	99
1455.036	0.815	814.8	incongruent	Block2	incongruent/STIM_019.jpg	99
1458.778	0.591	591.0	incongruent	Block2	incongruent/STIM_019.jpg	99
1462.173	0.887	886.7	incongruent	Block2	incongruent/STIM_019.jpg	99
1466.77	0.404	404.5	incongruent	Block2	incongruent/STIM_019.jpg	99
1470.282	0.772	772.5	incongruent	Block2	incongruent/STIM_019.jpg	99
1474.776	0.671	670.6	incongruent	Block2	incongruent/STIM_020.jpg	100
1477.955	0.615	614.8	incongruent	Block2	incongruent/STIM_020.jpg	99
1481.32	0.6	599.6	incongruent	Block2	incongruent/STIM_020.jpg	100
1485.349	0.798	798.3	incongruent	Block2	incongruent/STIM_020.jpg	100
1490.07	0.735	735.0	incongruent	Block2	incongruent/STIM_020.jpg	99
1494.423	0.485	485.4	incongruent	Block2	incongruent/STIM_021.jpg	100
1497.819	0.58	580.4	incongruent	Block2	incongruent/STIM_021.jpg	100
1502.22	0.628	627.7	incongruent	Block2	incongruent/STIM_021.jpg	99
1505.239	0.512	512.1	incongruent	Block2	incongruent/STIM_021.jpg	100
1508.954	0.721	720.6	incongruent	Block2	incongruent/STIM_021.jpg	100
1512.632	0.494	494.4	incongruent	Block2	incongruent/STIM_022.jpg	99
1515.862	0.647	646.9	incongruent	Block2	incongruent/STIM_022.jpg	99
1519.468	0.607	607.1	incongruent	Block2	incongruent/STIM_022.jpg	99
1523.756	0.561	560.7	incongruent	Block2	incongruent/STIM_022.jpg	99
1528.238	0.606	605.7	incongruent	Block2	incongruent/STIM_022.jpg	100
1531.534	0.65	649.5	incongruent	Block2	incongruent/STIM_023.jpg	100
1535.247	0.728	727.8	incongruent	Block2	incongruent/STIM_023.jpg	100
1538.828	0.75	750.0	incongruent	Block2	incongruent/STIM_023.jpg	99
1542.711	0.793	793.0	incongruent	Block2	incongruent/STIM_023.jpg	100
1547.42	0.833	832.8	incongruent	Block2	incongruent/STIM_023.jpg	100
1550.845	0.94	939.5	incongruent	Block2	incongruent/STIM_024.jpg	100
1554.043	0.565	564.7	incongruent	Block2	incongruent/STIM_024.jpg	99
1558.46	0.592	592.2	incongruent	Block2	incongruent/STIM_024.jpg	100
1561.806	0.552	552.0	incongruent	Block2	incongruent/STIM_024.jpg	99
1565.774	0.703	703.0	incongruent	Block2	incongruent/STIM_024.jpg	99
1569.506	0.723	722.7	incongruent	Block2	incongruent/STIM_025.jpg	100
1574.191	0.46	459.5	incongruent	Block2	incongruent/STIM_025.jpg	100
1578.247	0.877	877.1	incongruent	Block2	incongruent/STIM_025.jpg	99
1581.836	0.508	507.9	incongruent	Block2	incongruent/STIM_025.jpg	100
1585.972	0.639	638.6	incongruent	Block2	incongruent/STIM_025.jpg	99
1589.165	0.941	940.6	incongruent	Block2	incongruent/STIM_026.jpg	99
1592.298	0.853	852.6	incongruent	Block2	incongruent/STIM_026.jpg	100
1596.111	0.749	749.0	incongruent	Block2	incongruent/STIM_026.jpg	99
1599.374	0.752	751.9	incongruent	Block2	incongruent/STIM_026.jpg	99
1602.177	0.625	625.4	incongruent	Block2	incongruent/STIM_026.jpg	99
1606.482	0.732	731.9	incongruent	Block2	incongruent/STIM_027.jpg	99
1610.262	0.49	490.2	incongruent	Block2	incongruent/STIM_027.jpg	100
1613.114	0.674	674.5	incongruent	Block2	incongruent/STIM_027.jpg	99
1617.219	0.435	435.2	incongruent	Block2	incongruent/STIM_027.jpg	99
1621.511	0.568	568.3	incongruent	Block2	incongruent/STIM_027.jpg	99
1624.136	0.819	818.9	incongruent	Block2	incongruent/STIM_028.jpg	99
1627.688	0.754	754.4	incongruent	Block2	incongruent/STIM_028.jpg	99
1631.736	0.664	663.9	incongruent	Block2	incongruent/STIM_028.jpg	99
1635.536	0.492	492.5	incongruent	Block2	incongruent/STIM_028.jpg	100
1638.642	0.456	456.3	incongruent	Block2	incongruent/STIM_028.jpg	99
1641.341	0.572	571.9	incongruent	Block2	incongruent/STIM_029.jpg	100
1644.359	0.687	686.7	incongruent	Block2	incongruent/STIM_029.jpg	99
1647.712	0.866	865.6	incongruent	Block2	incongruent/STIM_029.jpg	100
1651.124	0.738	737.8	incongruent	Block2	incongruent/STIM_029.jpg	100
1653.933	0.477	477.1	incongruent	Block2	incongruent/STIM_029.jpg	100
1657.723	0.517	517.2	congruent	Block2	congruent/STIM_000.jpg	99
1661.58	0.532	531.8	congruent	Block2	congruent/STIM_000.jpg	100
1665.546	0.612	611.5	congruent	Block2	congruent/STIM_000.jpg	100
1670.129	0.667	667.4	congruent	Block2	congruent/STIM_000.jpg	100
1673.394	0.616	616.2	congruent	Block2	congruent/STIM_000.jpg	100
1677.564	0.644	644.5	congruent	Block2	congruent/STIM_001.jpg	100
1680.647	0.623	623.3	congruent	Block2	congruent/STIM_001.jpg	99
1684.625	0.556	556.4	congruent	Block2	congruent/STIM_001.jpg	100
1688.531	0.458	458.0	congruent	Block2	congruent/STIM_001.jpg	100
1692.691	0.448	448.0	congruent	Block2	congruent/STIM_001.jpg	100
1696.126	0.661	660.6	congruent	Block2	congruent/STIM_002.jpg	99
1698.825	0.421	420.7	congruent	Block2	congruent/STIM_002.jpg	100
1702.62	0.422	421.7	congruent	Block2	congruent/STIM_002.jpg	100
1706.906	0.443	443.1	congruent	Block2	congruent/STIM_002.jpg	99
1709.806	0.714	714.1	congruent	Block2	congruent/STIM_002.jpg	100
1714.361	0.559	559.1	congruent	Block2	congruent/STIM_003.jpg	100
1717.984	0.409	408.6	congruent	Block2	congruent/STIM_003.jpg	100
1721.954	0.575	574.9	congruent	Block2	congruent/STIM_003.jpg	99
1726.387	0.656	656.1	congruent	Block2	congruent/STIM_003.jpg	100
1730.069	0.635	634.8	congruent	Block2	congruent/STIM_003.jpg	99
1734.238	0.677	676.9	congruent	Block2	congruent/STIM_004.jpg	100
1737.813	0.541	541.3	congruent	Block2	congruent/STIM_004.jpg	100
1741.583	0.461	461.0	congruent	Block2	congruent/STIM_004.jpg	99
1745.517	0.635	634.6	congruent	Block2	congruent/STIM_004.jpg	100
1749.278	0.41	409.6	congruent	Block2	congruent/STIM_004.jpg	99
1752.193	0.543	542.6	congruent	Block2	congruent/STIM_005.jpg	100
1754.939	0.69	689.7	congruent	Block2	congruent/STIM_005.jpg	100
1759.329	0.684	683.7	congruent	Block2	congruent/STIM_005.jpg	100
1763.892	0.651	651.2	congruent	Block2	congruent/STIM_005.jpg	100
1768.456	0.566	565.9	congruent	Block2	congruent/STIM_005.jpg	99
1771.758	0.46	459.6	congruent	Block2	congruent/STIM_006.jpg	100
1774.391	0.53	530.2	congruent	Block2	congruent/STIM_006.jpg	100
1778.555	0.525	525.0	congruent	Block2	congruent/STIM_006.jpg	99
1781.92	0.645	644.8	congruent	Block2	congruent/STIM_006.jpg	100
1786.327	0.552	552.1	congruent	Block2	congruent/STIM_006.jpg	99
1788.89	0.46	460.4	congruent	Block2	congruent/STIM_007.jpg	100
1791.823	0.492	492.3	congruent	Block2	congruent/STIM_007.jpg	99
1794.889	0.462	462.0	congruent	Block2	congruent/STIM_007.jpg	100
1798.664	0.497	496.6	congruent	Block2	congruent/STIM_007.jpg	100
1802.581	0.525	525.4	congruent	Block2	congruent/STIM_007.jpg	100
1805.464	0.509	509.4	congruent	Block2	congruent/STIM_008.jpg	99
1809.073	0.496	496.3	congruent	Block2	congruent/STIM_008.jpg	99
1813.548	0.674	674.2	congruent	Block2	congruent/STIM_008.jpg	99
1817.715	0.493	493.1	congruent	Block2	congruent/STIM_008.jpg	100
1822.047	0.692	691.8	congruent	Block2	congruent/STIM_008.jpg	100
1825.707	0.528	528.1	congruent	Block2	congruent/STIM_009.jpg	100
1829.277	0.657	657.1	congruent	Block2	congruent/STIM_009.jpg	100
1833.408	0.504	504.3	congruent	Block2	congruent/STIM_009.jpg	100
1836.08	0.514	513.8	congruent	Block2	congruent/STIM_009.jpg	100
1838.728	0.44	440.4	congruent	Block2	congruent/STIM_009.jpg	99
1841.212	0.687	686.6	congruent	Block2	congruent/STIM_010.jpg	100
1845.334	0.661	660.7	congruent	Block2	congruent/STIM_010.jpg	99
1849.757	0.473	473.4	congruent	Block2	congruent/STIM_010.jpg	100
1852.62	0.717	717.0	congruent	Block2	congruent/STIM_010.jpg	100
1855.982	0.615	615.1	congruent	Block2	congruent/STIM_010.jpg	100
1859.258	0.46	459.6	congruent	Block2	congruent/STIM_011.jpg	99
1863.461	0.59	590.4	congruent	Block2	congruent/STIM_011.jpg	100
1866.231	0.462	462.5	congruent	Block2	congruent/STIM_011.jpg	100
1870.341	0.672	671.6	congruent	Block2	congruent/STIM_011.jpg	100
1873.585	0.529	529.4	congruent	Block2	congruent/STIM_011.jpg	99
1877.893	0.668	668.3	congruent	Block2	congruent/STIM_012.jpg	99
1881.884	0.707	707.1	congruent	Block2	congruent/STIM_012.jpg	99
1884.689	0.43	429.9	congruent	Block2	congruent/STIM_012.jpg	100
1889.027	0.623	623.4	congruent	Block2	congruent/STIM_012.jpg	100
1891.818	0.445	444.8	congruent	Block2	congruent/STIM_012.jpg	100
1895.436	0.504	504.1	congruent	Block2	congruent/STIM_013.jpg	100
1898.667	0.673	672.6	congruent	Block2	congruent/STIM_013.jpg	100
1901.761	0.546	546.4	congruent	Block2	congruent/STIM_013.jpg	100
1904.915	0.669	669.1	congruent	Block2	congruent/STIM_013.jpg	100
1908.065	0.501	500.7	congruent	Block2	congruent/STIM_013.jpg	100
1912.14	0.559	559.4	congruent	Block2	congruent/STIM_014.jpg	99
1916.195	0.516	516.0	congruent	Block2	congruent/STIM_014.jpg	99
1920.464	0.426	426.4	congruent	Block2	congruent/STIM_014.jpg	99
1923.789	0.702	702.5	congruent	Block2	congruent/STIM_014.jpg	100
1927.63	0.665	664.9	congruent	Block2	congruent/STIM_014.jpg	100
1930.621	0.676	676.0	congruent	Block2	congruent/STIM_015.jpg	99
1934.544	0.5	500.1	congruent	Block2	congruent/STIM_015.jpg	100
1937.355	0.447	446.9	congruent	Block2	congruent/STIM_015.jpg	100
1941.032	0.578	577.7	congruent	Block2	congruent/STIM_015.jpg	99
1944.104	0.565	564.9	congruent	Block2	congruent/STIM_015.jpg	100
1948.385	0.45	449.7	congruent	Block2	congruent/STIM_016.jpg	100
1951.964	0.688	687.7	congruent	Block2	congruent/STIM_016.jpg	99
1955.044	0.604	603.5	congruent	Block2	congruent/STIM_016.jpg	100
1958.237	0.442	441.7	congruent	Block2	congruent/STIM_016.jpg	100
1961.733	0.624	624.5	congruent	Block2	congruent/STIM_016.jpg	100
1964.821	0.514	513.7	congruent	Block2	congruent/STIM_017.jpg	99
1967.487	0.652	651.5	congruent	Block2	congruent/STIM_017.jpg	99
1972.001	0.442	441.8	congruent	Block2	congruent/STIM_017.jpg	99
1976.074	0.552	551.7	congruent	Block2	congruent/STIM_017.jpg	99
1979.724	0.52	520.3	congruent	Block2	congruent/STIM_017.jpg	100
1982.399	0.64	640.4	congruent	Block2	congruent/STIM_018.jpg	99
1985.25	0.506	506.1	congruent	Block2	congruent/STIM_018.jpg	99
1989.606	0.419	418.9	congruent	Block2	congruent/STIM_018.jpg	99
1993.563	0.574	573.7	congruent	Block2	congruent/STIM_018.jpg	100
1997.976	0.56	560.4	congruent	Block2	congruent/STIM_018.jpg	100
2001.143	0.471	471.3	congruent	Block2	congruent/STIM_019.jpg	99
2003.945	0.609	608.8	congruent	Block2	congruent/STIM_019.jpg	99
2007.641	0.679	679.4	congruent	Block2	congruent/STIM_019.jpg	100
2011.32	0.414	414.3	congruent	Block2	congruent/STIM_019.jpg	99
2015.71	0.526	526.1	congruent	Block2	congruent/STIM_019.jpg	100
2019.829	0.559	559.1	congruent	Block2	congruent/STIM_020.jpg	99
2024.363	0.435	435.4	congruent	Block2	congruent/STIM_020.jpg	100
2028.1	0.67	669.8	congruent	Block2	congruent/STIM_020.jpg	99
2031.683	0.675	674.6	congruent	Block2	congruent/STIM_020.jpg	100
2034.61	0.672	672.2	congruent	Block2	congruent/STIM_020.jpg	100
2037.445	0.539	539.3	congruent	Block2	congruent/STIM_021.jpg	100
2041.206	0.577	577.4	congruent	Block2	congruent/STIM_021.jpg	99
2044.655	0.486	486.2	congruent	Block2	congruent/STIM_021.jpg	99
2047.98	0.708	707.6	congruent	Block2	congruent/STIM_021.jpg	100
2051.318	0.426	426.5	congruent	Block2	congruent/STIM_021.jpg	99
2054.003	0.671	670.9	congruent	Block2	congruent/STIM_022.jpg	100
2058.367	0.706	706.2	congruent	Block2	congruent/STIM_022.jpg	99
2061.446	0.71	709.9	congruent	Block2	congruent/STIM_022.jpg	99
2066.145	0.447	446.7	congruent	Block2	congruent/STIM_022.jpg	99
2069.952	0.472	471.6	congruent	Block2	congruent/STIM_022.jpg	100
2073.257	0.571	571.2	congruent	Block2	congruent/STIM_023.jpg	99
2076.963	0.46	460.4	congruent	Block2	congruent/STIM_023.jpg	99
2079.742	0.475	474.7	congruent	Block2	congruent/STIM_023.jpg	99
2082.247	0.591	590.6	congruent	Block2	congruent/STIM_023.jpg	99
2085.996	0.511	511.4	congruent	Block2	congruent/STIM_023.jpg	99
2089.38	0.613	613.1	congruent	Block2	congruent/STIM_024.jpg	99
2092.339	0.54	540.0	congruent	Block2	congruent/STIM_024.jpg	99
2096.241	0.582	581.5	congruent	Block2	congruent/STIM_024.jpg	99
2100.154	0.586	585.7	congruent	Block2	congruent/STIM_024.jpg	100
2104.342	0.478	478.3	congruent	Block2	congruent/STIM_024.jpg	99
2107.232	0.548	547.7	congruent	Block2	congruent/STIM_025.jpg	100
2110.416	0.456	456.0	congruent	Block2	congruent/STIM_025.jpg	100
2113.782	0.441	441.1	congruent	Block2	congruent/STIM_025.jpg	99
2116.502	0.462	462.5	congruent	Block2	congruent/STIM_025.jpg	100
2120.63	0.627	626.9	congruent	Block2	congruent/STIM_025.jpg	99
2124.593	0.497	497.4	congruent	Block2	congruent/STIM_026.jpg	100
2127.722	0.61	610.5	congruent	Block2	congruent/STIM_026.jpg	100
2132.217	0.48	480.3	congruent	Block2	congruent/STIM_026.jpg	99
2136.257	0.587	587.3	congruent	Block2	congruent/STIM_026.jpg	100
2140.734	0.44	440.5	congruent	Block2	congruent/STIM_026.jpg	100
2143.547	0.592	592.0	congruent	Block2	congruent/STIM_027.jpg	100
2147.539	0.589	588.8	congruent	Block2	congruent/STIM_027.jpg	99
2151.02	0.46	460.2	congruent	Block2	congruent/STIM_027.jpg	100
2154.126	0.619	618.8	congruent	Block2	congruent/STIM_027.jpg	99
2158.74	0.539	538.7	congruent	Block2	congruent/STIM_027.jpg	99
2162.657	0.487	487.4	congruent	Block2	congruent/STIM_028.jpg	99
2166.625	0.682	682.3	congruent	Block2	congruent/STIM_028.jpg	99
2169.362	0.44	440.1	congruent	Block2	congruent/STIM_028.jpg	100
2172.32	0.528	528.4	congruent	Block2	congruent/STIM_028.jpg	99
2176.515	0.539	538.7	congruent	Block2	congruent/STIM_028.jpg	100
2180.631	0.547	547.2	congruent	Block2	congruent/STIM_029.jpg	99
2183.543	0.633	633.1	congruent	Block2	congruent/STIM_029.jpg	100
2188.11	0.693	692.9	congruent	Block2	congruent/STIM_029.jpg	99
2191.107	0.482	482.2	congruent	Block2	congruent/STIM_029.jpg	100
2193.946	0.48	479.8	congruent	Block2	congruent/STIM_029.jpg	99
2196.793	0.536	535.7	incongruent	Block3	incongruent/STIM_000.jpg	100
2200.324	0.559	559.0	incongruent	Block3	incongruent/STIM_000.jpg	100
2203.854	0.456	456.5	incongruent	Block3	incongruent/STIM_000.jpg	99
2207.295	0.438	437.6	incongruent	Block3	incongruent/STIM_000.jpg	100
2211.677	0.693	693.0	incongruent	Block3	incongruent/STIM_000.jpg	100
2215.541	0.707	707.2	incongruent	Block3	incongruent/STIM_001.jpg	100
2219.444	0.531	531.3	incongruent	Block3	incongruent/STIM_001.jpg	100
2223.272	0.657	656.6	incongruent	Block3	incongruent/STIM_001.jpg	99
2227.129	0.485	484.7	incongruent	Block3	incongruent/STIM_001.jpg	99
2230.968	0.75	750.1	incongruent	Block3	incongruent/STIM_001.jpg	100
2235.622	0.592	592.4	incongruent	Block3	incongruent/STIM_002.jpg	100
2239.71	0.572	572.4	incongruent	Block3	incongruent/STIM_002.jpg	100
2242.98	0.565	565.1	incongruent	Block3	incongruent/STIM_002.jpg	100
2246.572	0.483	483.4	incongruent	Block3	incongruent/STIM_002.jpg	100
2249.558	0.575	575.0	incongruent	Block3	incongruent/STIM_002.jpg	99
2253.779	0.736	736.1	incongruent	Block3	incongruent/STIM_003.jpg	99
2257.936	0.718	717.9	incongruent	Block3	incongruent/STIM_003.jpg	99
2260.878	0.726	726.4	incongruent	Block3	incongruent/STIM_003.jpg	99
2265.083	0.408	407.5	incongruent	Block3	incongruent/STIM_003.jpg	100
2269.367	0.522	522.5	incongruent	Block3	incongruent/STIM_003.jpg	99
2272.372	0.813	812.7	incongruent	Block3	incongruent/STIM_004.jpg	100
2276.049	0.627	626.8	incongruent	Block3	incongruent/STIM_004.jpg	99
2278.739	0.744	744.4	incongruent	Block3	incongruent/STIM_004.jpg	100
2281.956	0.588	587.7	incongruent	Block3	incongruent/STIM_004.jpg	99
2285.683	0.419	419.1	incongruent	Block3	incongruent/STIM_004.jpg	99
2289.803	0.532	531.6	incongruent	Block3	incongruent/STIM_005.jpg	99
2294.278	0.571	570.7	incongruent	Block3	incongruent/STIM_005.jpg	100
2297.276	0.656	656.4	incongruent	Block3	incongruent/STIM_005.jpg	100
2301.61	0.631	630.6	incongruent	Block3	incongruent/STIM_005.jpg	99
2305.439	0.403	403.0	incongruent	Block3	incongruent/STIM_005.jpg	100
2309.205	0.648	648.3	incongruent	Block3	incongruent/STIM_006.jpg	99
2313.778	0.42	420.1	incongruent	Block3	incongruent/STIM_006.jpg	100
2317.95	0.508	508.2	incongruent	Block3	incongruent/STIM_006.jpg	99
2321.943	0.449	449.4	incongruent	Block3	incongruent/STIM_006.jpg	99
2325.782	0.596	596.5	incongruent	Block3	incongruent/STIM_006.jpg	100
2328.471	0.632	631.6	incongruent	Block3	incongruent/STIM_007.jpg	99
2333.007	0.608	608.1	incongruent	Block3	incongruent/STIM_007.jpg	99
2336.773	0.787	787.0	incongruent	Block3	incongruent/STIM_007.jpg	99
2340.519	0.423	422.8	incongruent	Block3	incongruent/STIM_007.jpg	100
2344.031	0.69	689.8	incongruent	Block3	incongruent/STIM_007.jpg	99
2348.122	0.443	443.1	incongruent	Block3	incongruent/STIM_008.jpg	99
2350.862	0.687	687.4	incongruent	Block3	incongruent/STIM_008.jpg	100
2354.297	0.82	820.5	incongruent	Block3	incongruent/STIM_008.jpg	100
2357.761	0.806	806.1	incongruent	Block3	incongruent/STIM_008.jpg	100
2362.031	0.63	630.4	incongruent	Block3	incongruent/STIM_008.jpg	99
2365.973	0.673	672.8	incongruent	Block3	incongruent/STIM_009.jpg	100
2369.884	0.458	458.2	incongruent	Block3	incongruent/STIM_009.jpg	99
2373.454	0.59	589.9	incongruent	Block3	incongruent/STIM_009.jpg	99
2376.872	0.583	582.8	incongruent	Block3	incongruent/STIM_009.jpg	100
2381.444	0.805	804.8	incongruent	Block3	incongruent/STIM_009.jpg	100
2385.323	0.452	451.6	incongruent	Block3	incongruent/STIM_010.jpg	99
2388.336	0.409	409.3	incongruent	Block3	incongruent/STIM_010.jpg	100
2392.119	0.544	543.5	incongruent	Block3	incongruent/STIM_010.jpg	100
2395.548	0.42	420.2	incongruent	Block3	incongruent/STIM_010.jpg	99
2398.47	0.696	695.8	incongruent	Block3	incongruent/STIM_010.jpg	99
2402.303	0.488	487.7	incongruent	Block3	incongruent/STIM_011.jpg	100
2405.075	0.516	516.4	incongruent	Block3	incongruent/STIM_011.jpg	99
2408.306	0.557	557.0	incongruent	Block3	incongruent/STIM_011.jpg	100
2411.975	0.454	454.0	incongruent	Block3	incongruent/STIM_011.jpg	99
2414.43	0.666	666.3	incongruent	Block3	incongruent/STIM_011.jpg	100
2418.162	0.587	586.6	incongruent	Block3	incongruent/STIM_012.jpg	99
2421.401	0.464	464.3	incongruent	Block3	incongruent/STIM_012.jpg	99
2424.599	0.794	793.7	incongruent	Block3	incongruent/STIM_012.jpg	99
2428.09	0.68	680.1	incongruent	Block3	incongruent/STIM_012.jpg	99
2432.348	0.728	728.1	incongruent	Block3	incongruent/STIM_012.jpg	99
2436.649	0.642	641.6	incongruent	Block3	incongruent/STIM_013.jpg	100
2441.027	0.609	609.2	incongruent	Block3	incongruent/STIM_013.jpg	99
2444.734	0.512	512.3	incongruent	Block3	incongruent/STIM_013.jpg	99
2448.35	0.76	759.9	incongruent	Block3	incongruent/STIM_013.jpg	99
2451.273	0.814	813.5	incongruent	Block3	incongruent/STIM_013.jpg	100
2454.792	0.716	716.1	incongruent	Block3	incongruent/STIM_014.jpg	100
2457.577	0.75	750.4	incongruent	Block3	incongruent/STIM_014.jpg	99
2460.475	0.665	664.6	incongruent	Block3	incongruent/STIM_014.jpg	99
2463.434	0.511	511.3	incongruent	Block3	incongruent/STIM_014.jpg	100
2466.063	0.806	806.0	incongruent	Block3	incongruent/STIM_014.jpg	100
2469.273	0.814	813.8	incongruent	Block3	incongruent/STIM_015.jpg	99
2472.249	0.768	768.0	incongruent	Block3	incongruent/STIM_015.jpg	100
2476.689	0.746	745.7	incongruent	Block3	incongruent/STIM_015.jpg	99
2481.087	0.55	550.0	incongruent	Block3	incongruent/STIM_015.jpg	100
2484.792	0.64	640.2	incongruent	Block3	incongruent/STIM_015.jpg	100
2489.136	0.663	663.4	incongruent	Block3	incongruent/STIM_016.jpg	99
2492.56	0.581	581.3	incongruent	Block3	incongruent/STIM_016.jpg	99
2495.585	0.657	656.7	incongruent	Block3	incongruent/STIM_016.jpg	100
2500.196	0.789	788.6	incongruent	Block3	incongruent/STIM_016.jpg	100
2503.178	0.827	827.3	incongruent	Block3	incongruent/STIM_016.jpg	100
2507.859	0.432	432.2	incongruent	Block3	incongruent/STIM_017.jpg	100
2511.725	0.639	638.6	incongruent	Block3	incongruent/STIM_017.jpg	99
2514.399	0.61	610.3	incongruent	Block3	incongruent/STIM_017.jpg	99
2517.712	0.78	780.3	incongruent	Block3	incongruent/STIM_017.jpg	99
2520.862	0.392	391.9	incongruent	Block3	incongruent/STIM_017.jpg	100
2523.522	0.793	793.2	incongruent	Block3	incongruent/STIM_018.jpg	100
2528.165	0.596	595.5	incongruent	Block3	incongruent/STIM_018.jpg	100
2531.936	0.662	662.3	incongruent	Block3	incongruent/STIM_018.jpg	99
2535.632	0.797	796.9	incongruent	Block3	incongruent/STIM_018.jpg	99
2539.717	0.588	588.4	incongruent	Block3	incongruent/STIM_018.jpg	99
2542.696	0.499	498.6	incongruent	Block3	incongruent/STIM_019.jpg	100
2546.888	0.596	596.2	incongruent	Block3	incongruent/STIM_019.jpg	100
2550.64	0.799	799.0	incongruent	Block3	incongruent/STIM_019.jpg	100
2554.472	0.399	399.0	incongruent	Block3	incongruent/STIM_019.jpg	99
2557.3	0.836	835.5	incongruent	Block3	incongruent/STIM_019.jpg	99
2561.275	0.766	765.9	incongruent	Block3	incongruent/STIM_020.jpg	99
2565.383	0.419	418.8	incongruent	Block3	incongruent/STIM_020.jpg	100
2569.41	0.729	729.2	incongruent	Block3	incongruent/STIM_020.jpg	99
2572.323	0.511	510.7	incongruent	Block3	incongruent/STIM_020.jpg	100
2576.576	0.523	522.9	incongruent	Block3	incongruent/STIM_020.jpg	100
2580.418	0.639	638.8	incongruent	Block3	incongruent/STIM_021.jpg	99
2583.85	0.469	468.9	incongruent	Block3	incongruent/STIM_021.jpg	99
2587.515	0.464	464.5	incongruent	Block3	incongruent/STIM_021.jpg	100
2590.103	0.637	637.2	incongruent	Block3	incongruent/STIM_021.jpg	100
2594.475	0.6	600.5	incongruent	Block3	incongruent/STIM_021.jpg	99
2598.835	0.664	664.1	incongruent	Block3	incongruent/STIM_022.jpg	100
2603.301	0.681	680.6	incongruent	Block3	incongruent/STIM_022.jpg	99
2606.659	0.639	639.1	incongruent	Block3	incongruent/STIM_022.jpg	100
2609.507	0.646	645.8	incongruent	Block3	incongruent/STIM_022.jpg	99
2613.384	0.743	742.6	incongruent	Block3	incongruent/STIM_022.jpg	100
2616.734	0.69	690.2	incongruent	Block3	incongruent/STIM_023.jpg	99
2621.131	0.546	545.9	incongruent	Block3	incongruent/STIM_023.jpg	100
2624.524	0.574	573.6	incongruent	Block3	incongruent/STIM_023.jpg	99
2627.967	0.748	747.8	incongruent	Block3	incongruent/STIM_023.jpg	100
2631.923	0.697	696.6	incongruent	Block3	incongruent/STIM_023.jpg	99
2634.911	0.629	629.1	incongruent	Block3	incongruent/STIM_024.jpg	100
2638.426	0.772	771.7	incongruent	Block3	incongruent/STIM_024.jpg	100
2641.897	0.511	511.4	incongruent	Block3	incongruent/STIM_024.jpg	99
2645.029	0.82	820.4	incongruent	Block3	incongruent/STIM_024.jpg	99
2648.413	0.535	535.0	incongruent	Block3	incongruent/STIM_024.jpg	100
2652.165	0.748	747.8	incongruent	Block3	incongruent/STIM_025.jpg	100
2656.867	0.586	585.7	incongruent	Block3	incongruent/STIM_025.jpg	99
2661.248	0.802	801.5	incongruent	Block3	incongruent/STIM_025.jpg	100
2665.658	0.696	696.4	incongruent	Block3	incongruent/STIM_025.jpg	100
2669.557	0.829	829.4	incongruent	Block3	incongruent/STIM_025.jpg	100
2672.401	0.743	743.4	incongruent	Block3	incongruent/STIM_026.jpg	99
2676.797	0.424	424.0	incongruent	Block3	incongruent/STIM_026.jpg	100
2680.565	0.603	602.7	incongruent	Block3	incongruent/STIM_026.jpg	100
2683.756	0.399	398.8	incongruent	Block3	incongruent/STIM_026.jpg	99
2687.75	0.609	609.0	incongruent	Block3	incongruent/STIM_026.jpg	99
2691.272	0.542	541.9	incongruent	Block3	incongruent/STIM_027.jpg	100
2694.222	0.526	525.7	incongruent	Block3	incongruent/STIM_027.jpg	100
2697.402	0.43	430.4	incongruent	Block3	incongruent/STIM_027.jpg	99
2700.068	0.582	582.3	incongruent	Block3	incongruent/STIM_027.jpg	100
2704.582	0.48	480.2	incongruent	Block3	incongruent/STIM_027.jpg	100
2708.257	0.741	741.3	incongruent	Block3	incongruent/STIM_028.jpg	100
2712.939	0.819	818.6	incongruent	Block3	incongruent/STIM_028.jpg	100
2716.051	0.674	674.4	incongruent	Block3	incongruent/STIM_028.jpg	99
2719.404	0.583	583.4	incongruent	Block3	incongruent/STIM_028.jpg	100
2723.732	0.818	818.1	incongruent	Block3	incongruent/STIM_028.jpg	99
2727.329	0.807	806.7	incongruent	Block3	incongruent/STIM_029.jpg	100
2731.665	0.488	488.2	incongruent	Block3	incongruent/STIM_029.jpg	99
2736.102	0.594	594.1	incongruent	Block3	incongruent/STIM_029.jpg	99
2740.019	0.782	781.9	incongruent	Block3	incongruent/STIM_029.jpg	100
2744.38	0.683	683.0	incongruent	Block3	incongruent/STIM_029.jpg	99
2748.463	0.422	421.8	congruent	Block3	congruent/STIM_000.jpg	99
2752.174	0.716	715.8	congruent	Block3	congruent/STIM_000.jpg	100
2755.583	0.424	424.0	congruent	Block3	congruent/STIM_000.jpg	100
2759.688	0.447	447.0	congruent	Block3	congruent/STIM_000.jpg	100
2763.496	0.59	590.1	congruent	Block3	congruent/STIM_000.jpg	99
2767.002	0.547	547.0	congruent	Block3	congruent/STIM_001.jpg	100
2769.998	0.622	622.1	congruent	Block3	congruent/STIM_001.jpg	99
2772.938	0.621	620.9	congruent	Block3	congruent/STIM_001.jpg	99
2775.744	0.46	459.7	congruent	Block3	congruent/STIM_001.jpg	99
2780.041	0.603	602.6	congruent	Block3	congruent/STIM_001.jpg	99
2783.252	0.449	448.9	congruent	Block3	congruent/STIM_002.jpg	99
2787.103	0.538	537.9	congruent	Block3	congruent/STIM_002.jpg	99
2790.109	0.55	549.5	congruent	Block3	congruent/STIM_002.jpg	100
2794.638	0.598	597.9	congruent	Block3	congruent/STIM_002.jpg	100
2798.035	0.703	703.2	congruent	Block3	congruent/STIM_002.jpg	99
2802.645	0.507	506.6	congruent	Block3	congruent/STIM_003.jpg	99
2805.18	0.411	411.2	congruent	Block3	congruent/STIM_003.jpg	100
2807.787	0.669	668.6	congruent	Block3	congruent/STIM_003.jpg	100
2811.525	0.66	660.1	congruent	Block3	congruent/STIM_003.jpg	100
2815.971	0.545	544.9	congruent	Block3	congruent/STIM_003.jpg	100
2819.161	0.404	403.9	congruent	Block3	congruent/STIM_004.jpg	100
2822.605	0.715	715.1	congruent	Block3	congruent/STIM_004.jpg	99
2826.917	0.42	419.9	congruent	Block3	congruent/STIM_004.jpg	100
2830.888	0.616	616.5	congruent	Block3	congruent/STIM_004.jpg	99
2835.422	0.436	435.7	congruent	Block3	congruent/STIM_004.jpg	99
2839.656	0.538	538.4	congruent	Block3	congruent/STIM_005.jpg	99
2843.001	0.445	444.8	congruent	Block3	congruent/STIM_005.jpg	99
2847.191	0.701	700.9	congruent	Block3	congruent/STIM_005.jpg	99
2850.438	0.593	593.2	congruent	Block3	congruent/STIM_005.jpg	99
2854.861	0.431	431.0	congruent	Block3	congruent/STIM_005.jpg	99
2859.197	0.456	455.8	congruent	Block3	congruent/STIM_006.jpg	99
2863.377	0.709	708.8	congruent	Block3	congruent/STIM_006.jpg	100
2867.867	0.426	426.5	congruent	Block3	congruent/STIM_006.jpg	99
2871.732	0.508	508.3	congruent	Block3	congruent/STIM_006.jpg	99
2875.691	0.401	401.0	congruent	Block3	congruent/STIM_006.jpg	99
2879.227	0.704	703.6	congruent	Block3	congruent/STIM_007.jpg	100
2883.367	0.495	494.7	congruent	Block3	congruent/STIM_007.jpg	100
2886.181	0.662	662.1	congruent	Block3	congruent/STIM_007.jpg	99
2890.386	0.711	711.0	congruent	Block3	congruent/STIM_007.jpg	99
2893.555	0.509	508.7	congruent	Block3	congruent/STIM_007.jpg	100
2896.821	0.572	571.5	congruent	Block3	congruent/STIM_008.jpg	100
2900.959	0.441	441.0	congruent	Block3	congruent/STIM_008.jpg	100
2904.174	0.442	441.8	congruent	Block3	congruent/STIM_008.jpg	99
2907.004	0.473	472.6	congruent	Block3	congruent/STIM_008.jpg	100
2909.776	0.41	410.5	congruent	Block3	congruent/STIM_008.jpg	99
2914.112	0.607	607.1	congruent	Block3	congruent/STIM_009.jpg	99
2918.105	0.551	550.7	congruent	Block3	congruent/STIM_009.jpg	100
2922.065	0.525	525.1	congruent	Block3	congruent/STIM_009.jpg	99
2925.838	0.702	701.5	congruent	Block3	congruent/STIM_009.jpg	99
2929.962	0.539	538.6	congruent	Block3	congruent/STIM_009.jpg	99
2933.442	0.547	547.0	congruent	Block3	congruent/STIM_010.jpg	100
2936.536	0.53	530.2	congruent	Block3	congruent/STIM_010.jpg	100
2939.654	0.58	580.0	congruent	Block3	congruent/STIM_010.jpg	99
2942.776	0.627	627.3	congruent	Block3	congruent/STIM_010.jpg	99
2946.457	0.449	448.6	congruent	Block3	congruent/STIM_010.jpg	99
2949.077	0.536	536.0	congruent	Block3	congruent/STIM_011.jpg	100
2952.856	0.481	481.1	congruent	Block3	congruent/STIM_011.jpg	100
2955.872	0.657	657.4	congruent	Block3	congruent/STIM_011.jpg	99
2959.408	0.663	662.7	congruent	Block3	congruent/STIM_011.jpg	100
2963.559	0.611	611.0	congruent	Block3	congruent/STIM_011.jpg	100
2967.707	0.559	559.3	congruent	Block3	congruent/STIM_012.jpg	99
2971.654	0.448	447.9	congruent	Block3	congruent/STIM_012.jpg	100
2974.98	0.522	522.4	congruent	Block3	congruent/STIM_012.jpg	99
2977.825	0.552	551.7	congruent	Block3	congruent/STIM_012.jpg	100
2982.187	0.539	539.0	congruent	Block3	congruent/STIM_012.jpg	100
2985.703	0.48	479.9	congruent	Block3	congruent/STIM_013.jpg	99
2989.043	0.586	586.5	congruent	Block3	congruent/STIM_013.jpg	100
2991.891	0.574	573.5	congruent	Block3	congruent/STIM_013.jpg	100
2995.272	0.7	700.3	congruent	Block3	congruent/STIM_013.jpg	99
2999.41	0.633	632.9	congruent	Block3	congruent/STIM_013.jpg	99
3002.299	0.443	443.1	congruent	Block3	congruent/STIM_014.jpg	100
3005.774	0.718	717.7	congruent	Block3	congruent/STIM_014.jpg	100
3009.326	0.427	427.2	congruent	Block3	congruent/STIM_014.jpg	99
3012.334	0.494	493.8	congruent	Block3	congruent/STIM_014.jpg	99
3015.632	0.691	690.7	congruent	Block3	congruent/STIM_014.jpg	100
3020.235	0.537	536.6	congruent	Block3	congruent/STIM_015.jpg	100
3023.93	0.706	706.0	congruent	Block3	congruent/STIM_015.jpg	99
3028.532	0.508	507.7	congruent	Block3	congruent/STIM_015.jpg	100
3032.809	0.666	666.0	congruent	Block3	congruent/STIM_015.jpg	100
3036.49	0.4	399.9	congruent	Block3	congruent/STIM_015.jpg	100
3039.193	0.466	466.0	congruent	Block3	congruent/STIM_016.jpg	99
3042.172	0.651	650.7	congruent	Block3	congruent/STIM_016.jpg	100
3046.345	0.514	514.4	congruent	Block3	congruent/STIM_016.jpg	100
3050.416	0.678	677.9	congruent	Block3	congruent/STIM_016.jpg	99
3053.621	0.413	413.2	congruent	Block3	congruent/STIM_016.jpg	100
3056.274	0.534	534.5	congruent	Block3	congruent/STIM_017.jpg	99
3059.286	0.421	420.8	congruent	Block3	congruent/STIM_017.jpg	99
3062.069	0.633	633.1	congruent	Block3	congruent/STIM_017.jpg	100
3065.979	0.569	569.0	congruent	Block3	congruent/STIM_017.jpg	100
3069.156	0.578	578.3	congruent	Block3	congruent/STIM_017.jpg	99
3072.154	0.499	498.6	congruent	Block3	congruent/STIM_018.jpg	100
3074.86	0.507	506.9	congruent	Block3	congruent/STIM_018.jpg	99
3077.725	0.706	706.2	congruent	Block3	congruent/STIM_018.jpg	99
3080.622	0.694	693.5	congruent	Block3	congruent/STIM_018.jpg	99
3083.426	0.572	571.7	congruent	Block3	congruent/STIM_018.jpg	99
3086.744	0.405	404.7	congruent	Block3	congruent/STIM_019.jpg	100
3090.994	0.481	481.2	congruent	Block3	congruent/STIM_019.jpg	100
3094.468	0.45	450.4	congruent	Block3	congruent/STIM_019.jpg	100
3098.587	0.624	624.2	congruent	Block3	congruent/STIM_019.jpg	99
3101.563	0.643	643.4	congruent	Block3	congruent/STIM_019.jpg	99
3104.933	0.696	696.4	congruent	Block3	congruent/STIM_020.jpg	100
3109.18	0.643	642.9	congruent	Block3	congruent/STIM_020.jpg	99
3113.762	0.441	441.2	congruent	Block3	congruent/STIM_020.jpg	100
3117.474	0.577	577.0	congruent	Block3	congruent/STIM_020.jpg	99
3120.171	0.486	486.4	congruent	Block3	congruent/STIM_020.jpg	99
3124.334	0.512	512.1	congruent	Block3	congruent/STIM_021.jpg	99
3128.709	0.603	603.0	congruent	Block3	congruent/STIM_021.jpg	100
3132.436	0.6	600.4	congruent	Block3	congruent/STIM_021.jpg	100
3136.069	0.551	550.6	congruent	Block3	congruent/STIM_021.jpg	100
3140.278	0.516	516.0	congruent	Block3	congruent/STIM_021.jpg	99
3144.117	0.486	485.5	congruent	Block3	congruent/STIM_022.jpg	99
3147.679	0.656	655.5	congruent	Block3	congruent/STIM_022.jpg	99
3151.526	0.474	473.9	congruent	Block3	congruent/STIM_022.jpg	99
3155.69	0.559	559.1	congruent	Block3	congruent/STIM_022.jpg	100
3158.566	0.435	434.8	congruent	Block3	congruent/STIM_022.jpg	99
3162.079	0.675	675.3	congruent	Block3	congruent/STIM_023.jpg	99
3165.936	0.513	513.3	congruent	Block3	congruent/STIM_023.jpg	100
3169.878	0.581	581.0	congruent	Block3	congruent/STIM_023.jpg	99
3172.796	0.718	718.5	congruent	Block3	congruent/STIM_023.jpg	99
3176.355	0.537	537.3	congruent	Block3	congruent/STIM_023.jpg	100
3179.424	0.44	439.7	congruent	Block3	congruent/STIM_024.jpg	99
3182.894	0.469	469.3	congruent	Block3	congruent/STIM_024.jpg	99
3186.527	0.549	548.8	congruent	Block3	congruent/STIM_024.jpg	100
3190.313	0.4	399.9	congruent	Block3	congruent/STIM_024.jpg	99
3193.337	0.523	523.4	congruent	Block3	congruent/STIM_024.jpg	100
3196.106	0.528	528.1	congruent	Block3	congruent/STIM_025.jpg	99
3199.542	0.542	541.9	congruent	Block3	congruent/STIM_025.jpg	100
3202.967	0.713	712.9	congruent	Block3	congruent/STIM_025.jpg	99
3206.512	0.592	591.8	congruent	Block3	congruent/STIM_025.jpg	100
3210.065	0.546	546.5	congruent	Block3	congruent/STIM_025.jpg	100
3213.626	0.68	680.3	congruent	Block3	congruent/STIM_026.jpg	100
3217.264	0.599	598.6	congruent	Block3	congruent/STIM_026.jpg	100
3220.47	0.561	561.4	congruent	Block3	congruent/STIM_026.jpg	99
3224.521	0.683	683.0	congruent	Block3	congruent/STIM_026.jpg	99
3228.86	0.402	401.6	congruent	Block3	congruent/STIM_026.jpg	100
3231.548	0.705	705.2	congruent	Block3	congruent/STIM_027.jpg	100
3234.712	0.511	510.7	congruent	Block3	congruent/STIM_027.jpg	100
3237.546	0.401	400.6	congruent	Block3	congruent/STIM_027.jpg	99
3241.856	0.717	717.4	congruent	Block3	congruent/STIM_027.jpg	99
3246.227	0.436	435.5	congruent	Block3	congruent/STIM_027.jpg	99
3249.657	0.527	526.7	congruent	Block3	congruent/STIM_028.jpg	99
3253.026	0.519	518.6	congruent	Block3	congruent/STIM_028.jpg	100
3256.401	0.402	401.5	congruent	Block3	congruent/STIM_028.jpg	99
3260.725	0.654	653.8	congruent	Block3	congruent/STIM_028.jpg	100
3263.806	0.619	619.1	congruent	Block3	congruent/STIM_028.jpg	100
3267.363	0.557	556.7	congruent	Block3	congruent/STIM_029.jpg	99
3271.166	0.585	584.6	congruent	Block3	congruent/STIM_029.jpg	100
3273.879	0.709	708.8	congruent	Block3	congruent/STIM_029.jpg	100
3277.168	0.514	514.2	congruent	Block3	congruent/STIM_029.jpg	99
3281.191	0.667	667.4	congruent	Block3	congruent/STIM_029.jpg	99
