onset	duration	accuracy	trial_type	learning_stage	stimulus
0.0	1.092	correct	incongruent	Block1	incongruent/STIM_000.jpg
5.175	1.165	correct	incongruent	Block1	incongruent/STIM_000.jpg
9.713	1.08	incorrect	incongruent	Block1	incongruent/STIM_000.jpg
14.46	0.936	correct	incongruent	Block1	incongruent/STIM_000.jpg
17.891	0.591	correct	incongruent	Block1	incongruent/STIM_000.jpg
21.979	1.2	correct	incongruent	Block1	incongruent/STIM_001.jpg
25.355	0.92	correct	incongruent	Block1	incongruent/STIM_001.jpg
28.728	1.056	correct	incongruent	Block1	incongruent/STIM_001.jpg
33.834	0.845	correct	incongruent	Block1	incongruent/STIM_001.jpg
37.842	0.653	incorrect	incongruent	Block1	incongruent/STIM_001.jpg
41.797	0.81	correct	incongruent	Block1	incongruent/STIM_002.jpg
46.012	1.289	correct	incongruent	Block1	incongruent/STIM_002.jpg
51.231	0.931	incorrect	incongruent	Block1	incongruent/STIM_002.jpg
55.675	0.499	correct	incongruent	Block1	incongruent/STIM_002.jpg
59.324	0.96	correct	incongruent	Block1	incongruent/STIM_002.jpg
62.598	1.352	correct	incongruent	Block1	incongruent/STIM_003.jpg
66.449	1.186	correct	incongruent	Block1	incongruent/STIM_003.jpg
69.928	1.114	incorrect	incongruent	Block1	incongruent/STIM_003.jpg
74.189	0.647	correct	incongruent	Block1	incongruent/STIM_003.jpg
78.894	0.683	correct	incongruent	Block1	incongruent/STIM_003.jpg
82.186	1.163	correct	incongruent	Block1	incongruent/STIM_004.jpg
87.406	1.296	correct	incongruent	Block1	incongruent/STIM_004.jpg
90.783	0.688	incorrect	incongruent	Block1	incongruent/STIM_004.jpg
93.662	0.998	correct	incongruent	Block1	incongruent/STIM_004.jpg
96.957	0.956	correct	incongruent	Block1	incongruent/STIM_004.jpg
100.111	1.114	correct	incongruent	Block1	incongruent/STIM_005.jpg
103.806	0.663	correct	incongruent	Block1	incongruent/STIM_005.jpg
106.822	0.808	correct	incongruent	Block1	incongruent/STIM_005.jpg
109.882	0.858	correct	incongruent	Block1	incongruent/STIM_005.jpg
114.703	0.866	correct	incongruent	Block1	incongruent/STIM_005.jpg
117.634	0.841	correct	incongruent	Block1	incongruent/STIM_006.jpg
122.122	1.115	correct	incongruent	Block1	incongruent/STIM_006.jpg
125.356	1.245	correct	incongruent	Block1	incongruent/STIM_006.jpg
130.433	0.831	correct	incongruent	Block1	incongruent/STIM_006.jpg
134.27	0.792	correct	incongruent	Block1	incongruent/STIM_006.jpg
138.249	0.825	correct	incongruent	Block1	incongruent/STIM_007.jpg
143.077	1.302	correct	incongruent	Block1	incongruent/STIM_007.jpg
146.581	0.982	incorrect	incongruent	Block1	incongruent/STIM_007.jpg
150.701	1.198	correct	incongruent	Block1	incongruent/STIM_007.jpg
154.447	0.552	incorrect	incongruent	Block1	incongruent/STIM_007.jpg
157.848	1.307	correct	incongruent	Block1	incongruent/STIM_008.jpg
162.909	1.33	correct	incongruent	Block1	incongruent/STIM_008.jpg
167.902	1.315	correct	incongruent	Block1	incongruent/STIM_008.jpg
172.218	0.562	correct	incongruent	Block1	incongruent/STIM_008.jpg
175.162	0.805	incorrect	incongruent	Block1	incongruent/STIM_008.jpg
178.792	1.172	correct	incongruent	Block1	incongruent/STIM_009.jpg
183.348	1.106	correct	incongruent	Block1	incongruent/STIM_009.jpg
187.096	0.936	correct	incongruent	Block1	incongruent/STIM_009.jpg
190.038	0.633	correct	incongruent	Block1	incongruent/STIM_009.jpg
194.26	0.91	correct	incongruent	Block1	incongruent/STIM_009.jpg
197.983	1.071	correct	incongruent	Block1	incongruent/STIM_010.jpg
202.568	0.693	correct	incongruent	Block1	incongruent/STIM_010.jpg
205.687	0.746	correct	incongruent	Block1	incongruent/STIM_010.jpg
209.533	0.938	correct	incongruent	Block1	incongruent/STIM_010.jpg
212.832	0.839	correct	incongruent	Block1	incongruent/STIM_010.jpg
216.111	1.439	correct	incongruent	Block1	incongruent/STIM_011.jpg
219.961	0.687	correct	incongruent	Block1	incongruent/STIM_011.jpg
224.652	0.798	correct	incongruent	Block1	incongruent/STIM_011.jpg
228.663	1.109	correct	incongruent	Block1	incongruent/STIM_011.jpg
232.785	0.949	correct	incongruent	Block1	incongruent/STIM_011.jpg
237.004	0.909	correct	incongruent	Block1	incongruent/STIM_012.jpg
239.941	0.664	correct	incongruent	Block1	incongruent/STIM_012.jpg
242.778	0.682	correct	incongruent	Block1	incongruent/STIM_012.jpg
245.914	0.681	correct	incongruent	Block1	incongruent/STIM_012.jpg
249.56	0.608	correct	incongruent	Block1	incongruent/STIM_012.jpg
252.523	0.689	correct	incongruent	Block1	incongruent/STIM_013.jpg
257.203	1.02	correct	incongruent	Block1	incongruent/STIM_013.jpg
260.65	0.698	correct	incongruent	Block1	incongruent/STIM_013.jpg
265.126	0.872	correct	incongruent	Block1	incongruent/STIM_013.jpg
268.444	0.812	correct	incongruent	Block1	incongruent/STIM_013.jpg
272.116	0.861	incorrect	incongruent	Block1	incongruent/STIM_014.jpg
275.945	0.826	correct	incongruent	Block1	incongruent/STIM_014.jpg
279.469	0.784	correct	incongruent	Block1	incongruent/STIM_014.jpg
283.494	0.789	correct	incongruent	Block1	incongruent/STIM_014.jpg
287.228	1.038	correct	incongruent	Block1	incongruent/STIM_014.jpg
290.681	1.295	correct	incongruent	Block1	incongruent/STIM_015.jpg
295.594	0.785	correct	incongruent	Block1	incongruent/STIM_015.jpg
300.356	1.227	correct	incongruent	Block1	incongruent/STIM_015.jpg
304.135	0.701	incorrect	incongruent	Block1	incongruent/STIM_015.jpg
308.849	0.626	correct	incongruent	Block1	incongruent/STIM_015.jpg
312.193	1.076	incorrect	incongruent	Block1	incongruent/STIM_016.jpg
317.237	1.046	incorrect	incongruent	Block1	incongruent/STIM_016.jpg
321.177	0.973	correct	incongruent	Block1	incongruent/STIM_016.jpg
326.051	0.898	correct	incongruent	Block1	incongruent/STIM_016.jpg
329.491	0.595	correct	incongruent	Block1	incongruent/STIM_016.jpg
333.732	0.928	incorrect	incongruent	Block1	incongruent/STIM_017.jpg
337.04	1.205	correct	incongruent	Block1	incongruent/STIM_017.jpg
340.515	1.073	incorrect	incongruent	Block1	incongruent/STIM_017.jpg
345.453	1.006	correct	incongruent	Block1	incongruent/STIM_017.jpg
348.585	0.766	correct	incongruent	Block1	incongruent/STIM_017.jpg
352.308	1.218	correct	incongruent	Block1	incongruent/STIM_018.jpg
356.623	0.659	correct	incongruent	Block1	incongruent/STIM_018.jpg
360.533	0.792	correct	incongruent	Block1	incongruent/STIM_018.jpg
365.241	1.163	correct	incongruent	Block1	incongruent/STIM_018.jpg
368.909	0.971	correct	incongruent	Block1	incongruent/STIM_018.jpg
373.678	0.858	correct	incongruent	Block1	incongruent/STIM_019.jpg
377.212	1.078	correct	incongruent	Block1	incongruent/STIM_019.jpg
382.21	0.608	correct	incongruent	Block1	incongruent/STIM_019.jpg
385.988	1.074	correct	incongruent	Block1	incongruent/STIM_019.jpg
390.725	0.785	correct	incongruent	Block1	incongruent/STIM_019.jpg
394.978	1.032	correct	incongruent	Block1	incongruent/STIM_020.jpg
399.199	0.956	correct	incongruent	Block1	incongruent/STIM_020.jpg
402.418	0.817	incorrect	incongruent	Block1	incongruent/STIM_020.jpg
406.862	1.084	correct	incongruent	Block1	incongruent/STIM_020.jpg
411.957	1.136	correct	incongruent	Block1	incongruent/STIM_020.jpg
416.788	1.288	correct	incongruent	Block1	incongruent/STIM_021.jpg
421.183	0.838	incorrect	incongruent	Block1	incongruent/STIM_021.jpg
425.478	0.939	correct	incongruent	Block1	incongruent/STIM_021.jpg
429.06	0.98	incorrect	incongruent	Block1	incongruent/STIM_021.jpg
432.454	0.976	correct	incongruent	Block1	incongruent/STIM_021.jpg
435.825	1.398	correct	incongruent	Block1	incongruent/STIM_022.jpg
441.198	0.876	correct	incongruent	Block1	incongruent/STIM_022.jpg
444.599	0.595	incorrect	incongruent	Block1	incongruent/STIM_022.jpg
448.779	0.525	correct	incongruent	Block1	incongruent/STIM_022.jpg
451.487	0.985	correct	incongruent	Block1	incongruent/STIM_022.jpg
456.341	1.118	incorrect	incongruent	Block1	incongruent/STIM_023.jpg
460.064	1.046	correct	incongruent	Block1	incongruent/STIM_023.jpg
464.546	0.91	correct	incongruent	Block1	incongruent/STIM_023.jpg
467.684	0.891	correct	incongruent	Block1	incongruent/STIM_023.jpg
471.407	0.733	correct	incongruent	Block1	incongruent/STIM_023.jpg
475.676	1.091	correct	incongruent	Block1	incongruent/STIM_024.jpg
479.282	0.645	correct	incongruent	Block1	incongruent/STIM_024.jpg
483.032	1.001	correct	incongruent	Block1	incongruent/STIM_024.jpg
487.141	0.848	correct	incongruent	Block1	incongruent/STIM_024.jpg
491.399	0.579	correct	incongruent	Block1	incongruent/STIM_024.jpg
494.202	0.803	correct	incongruent	Block1	incongruent/STIM_025.jpg
497.536	0.985	correct	incongruent	Block1	incongruent/STIM_025.jpg
502.433	0.81	correct	incongruent	Block1	incongruent/STIM_025.jpg
506.828	0.69	correct	incongruent	Block1	incongruent/STIM_025.jpg
511.445	1.105	correct	incongruent	Block1	incongruent/STIM_025.jpg
516.355	1.366	correct	incongruent	Block1	incongruent/STIM_026.jpg
521.273	0.565	correct	incongruent	Block1	incongruent/STIM_026.jpg
525.05	0.84	correct	incongruent	Block1	incongruent/STIM_026.jpg
528.671	1.115	correct	incongruent	Block1	incongruent/STIM_026.jpg
532.225	0.907	correct	incongruent	Block1	incongruent/STIM_026.jpg
535.724	1.294	correct	incongruent	Block1	incongruent/STIM_027.jpg
540.85	0.708	correct	incongruent	Block1	incongruent/STIM_027.jpg
544.017	1.06	correct	incongruent	Block1	incongruent/STIM_027.jpg
548.605	1.122	correct	incongruent	Block1	incongruent/STIM_027.jpg
553.061	0.618	correct	incongruent	Block1	incongruent/STIM_027.jpg
555.835	1.25	correct	incongruent	Block1	incongruent/STIM_028.jpg
561.203	1.072	correct	incongruent	Block1	incongruent/STIM_028.jpg
564.922	0.893	correct	incongruent	Block1	incongruent/STIM_028.jpg
569.76	0.645	correct	incongruent	Block1	incongruent/STIM_028.jpg
572.507	0.697	correct	incongruent	Block1	incongruent/STIM_028.jpg
577.117	0.722	correct	incongruent	Block1	incongruent/STIM_029.jpg
580.865	0.956	correct	incongruent	Block1	incongruent/STIM_029.jpg
584.672	1.098	correct	incongruent	Block1	incongruent/STIM_029.jpg
589.345	1.036	incorrect	incongruent	Block1	incongruent/STIM_029.jpg
593.87	0.58	correct	incongruent	Block1	incongruent/STIM_029.jpg
598.211	0.645	correct	congruent	Block1	congruent/STIM_000.jpg
601.73	0.434	correct	congruent	Block1	congruent/STIM_000.jpg
606.132	0.479	correct	congruent	Block1	congruent/STIM_000.jpg
609.501	0.768	correct	congruent	Block1	congruent/STIM_000.jpg
614.218	0.532	incorrect	congruent	Block1	congruent/STIM_000.jpg
617.593	0.587	correct	congruent	Block1	congruent/STIM_001.jpg
621.642	0.792	correct	congruent	Block1	congruent/STIM_001.jpg
626.235	0.627	incorrect	congruent	Block1	congruent/STIM_001.jpg
629.862	0.459	correct	congruent	Block1	congruent/STIM_001.jpg
633.819	0.711	correct	congruent	Block1	congruent/STIM_001.jpg
637.958	0.472	correct	congruent	Block1	congruent/STIM_002.jpg
641.676	0.569	correct	congruent	Block1	congruent/STIM_002.jpg
645.198	0.552	correct	congruent	Block1	congruent/STIM_002.jpg
648.727	0.775	correct	congruent	Block1	congruent/STIM_002.jpg
652.672	0.543	incorrect	congruent	Block1	congruent/STIM_002.jpg
655.522	0.81	correct	congruent	Block1	congruent/STIM_003.jpg
659.147	0.757	correct	congruent	Block1	congruent/STIM_003.jpg
663.381	0.774	correct	congruent	Block1	congruent/STIM_003.jpg
666.612	0.851	correct	congruent	Block1	congruent/STIM_003.jpg
669.844	0.857	correct	congruent	Block1	congruent/STIM_003.jpg
673.65	0.754	correct	congruent	Block1	congruent/STIM_004.jpg
678.263	0.494	correct	congruent	Block1	congruent/STIM_004.jpg
682.175	0.635	incorrect	congruent	Block1	congruent/STIM_004.jpg
685.138	0.878	correct	congruent	Block1	congruent/STIM_004.jpg
688.777	0.754	correct	congruent	Block1	congruent/STIM_004.jpg
692.852	0.59	correct	congruent	Block1	congruent/STIM_005.jpg
695.543	0.672	correct	congruent	Block1	congruent/STIM_005.jpg
698.891	0.717	correct	congruent	Block1	congruent/STIM_005.jpg
703.421	0.807	correct	congruent	Block1	congruent/STIM_005.jpg
708.172	0.44	correct	congruent	Block1	congruent/STIM_005.jpg
712.541	0.58	correct	congruent	Block1	congruent/STIM_006.jpg
716.72	0.545	incorrect	congruent	Block1	congruent/STIM_006.jpg
720.745	0.803	correct	congruent	Block1	congruent/STIM_006.jpg
725.213	0.666	correct	congruent	Block1	congruent/STIM_006.jpg
728.077	0.609	correct	congruent	Block1	congruent/STIM_006.jpg
732.2	0.572	correct	congruent	Block1	congruent/STIM_007.jpg
736.06	0.622	correct	congruent	Block1	congruent/STIM_007.jpg
739.008	0.458	correct	congruent	Block1	congruent/STIM_007.jpg
741.567	0.615	correct	congruent	Block1	congruent/STIM_007.jpg
744.223	0.609	correct	congruent	Block1	congruent/STIM_007.jpg
747.336	0.542	correct	congruent	Block1	congruent/STIM_008.jpg
750.184	0.631	correct	congruent	Block1	congruent/STIM_008.jpg
753.69	0.65	correct	congruent	Block1	congruent/STIM_008.jpg
757.142	0.615	correct	congruent	Block1	congruent/STIM_008.jpg
760.451	0.685	correct	congruent	Block1	congruent/STIM_008.jpg
764.438	0.816	correct	congruent	Block1	congruent/STIM_009.jpg
767.344	0.773	correct	congruent	Block1	congruent/STIM_009.jpg
771.838	0.622	correct	congruent	Block1	congruent/STIM_009.jpg
776.402	0.605	correct	congruent	Block1	congruent/STIM_009.jpg
779.371	0.621	correct	congruent	Block1	congruent/STIM_009.jpg
784.037	0.714	correct	congruent	Block1	congruent/STIM_010.jpg
787.256	0.87	correct	congruent	Block1	congruent/STIM_010.jpg
791.865	0.449	correct	congruent	Block1	congruent/STIM_010.jpg
794.406	0.652	correct	congruent	Block1	congruent/STIM_010.jpg
798.127	0.414	correct	congruent	Block1	congruent/STIM_010.jpg
801.475	0.841	correct	congruent	Block1	congruent/STIM_011.jpg
806.12	0.641	correct	congruent	Block1	congruent/STIM_011.jpg
810.78	0.524	correct	congruent	Block1	congruent/STIM_011.jpg
815.149	0.484	correct	congruent	Block1	congruent/STIM_011.jpg
818.363	0.479	correct	congruent	Block1	congruent/STIM_011.jpg
821.485	0.723	correct	congruent	Block1	congruent/STIM_012.jpg
825.992	0.707	correct	congruent	Block1	congruent/STIM_012.jpg
830.564	0.592	correct	congruent	Block1	congruent/STIM_012.jpg
833.822	0.596	correct	congruent	Block1	congruent/STIM_012.jpg
838.229	0.534	correct	congruent	Block1	congruent/STIM_012.jpg
842.352	0.438	correct	congruent	Block1	congruent/STIM_013.jpg
846.207	0.74	correct	congruent	Block1	congruent/STIM_013.jpg
849.93	0.564	correct	congruent	Block1	congruent/STIM_013.jpg
852.527	0.543	correct	congruent	Block1	congruent/STIM_013.jpg
856.567	0.534	incorrect	congruent	Block1	congruent/STIM_013.jpg
860.396	0.655	correct	congruent	Block1	congruent/STIM_014.jpg
864.922	0.723	correct	congruent	Block1	congruent/STIM_014.jpg
869.455	0.522	correct	congruent	Block1	congruent/STIM_014.jpg
872.502	0.67	correct	congruent	Block1	congruent/STIM_014.jpg
875.849	0.602	correct	congruent	Block1	congruent/STIM_014.jpg
880.45	0.745	correct	congruent	Block1	congruent/STIM_015.jpg
883.976	0.578	correct	congruent	Block1	congruent/STIM_015.jpg
888.049	0.623	correct	congruent	Block1	congruent/STIM_015.jpg
892.26	0.52	correct	congruent	Block1	congruent/STIM_015.jpg
895.352	0.799	incorrect	congruent	Block1	congruent/STIM_015.jpg
900.046	0.778	incorrect	congruent	Block1	congruent/STIM_016.jpg
904.653	0.734	correct	congruent	Block1	congruent/STIM_016.jpg
908.71	0.812	correct	congruent	Block1	congruent/STIM_016.jpg
912.522	0.635	correct	congruent	Block1	congruent/STIM_016.jpg
916.826	0.685	correct	congruent	Block1	congruent/STIM_016.jpg
921.113	0.705	correct	congruent	Block1	congruent/STIM_017.jpg
925.693	0.5	correct	congruent	Block1	congruent/STIM_017.jpg
929.254	0.512	correct	congruent	Block1	congruent/STIM_017.jpg
933.457	0.817	correct	congruent	Block1	congruent/STIM_017.jpg
937.184	0.782	correct	congruent	Block1	congruent/STIM_017.jpg
941.201	0.472	correct	congruent	Block1	congruent/STIM_018.jpg
944.106	0.85	correct	congruent	Block1	congruent/STIM_018.jpg
947.732	0.52	correct	congruent	Block1	congruent/STIM_018.jpg
952.052	0.8	correct	congruent	Block1	congruent/STIM_018.jpg
955.827	0.754	correct	congruent	Block1	congruent/STIM_018.jpg
958.873	0.398	incorrect	congruent	Block1	congruent/STIM_019.jpg
962.571	0.542	correct	congruent	Block1	congruent/STIM_019.jpg
967.019	0.435	correct	congruent	Block1	congruent/STIM_019.jpg
971.326	0.655	correct	congruent	Block1	congruent/STIM_019.jpg
974.798	0.498	correct	congruent	Block1	congruent/STIM_019.jpg
978.388	0.559	correct	congruent	Block1	congruent/STIM_020.jpg
982.0	0.558	correct	congruent	Block1	congruent/STIM_020.jpg
985.771	0.705	correct	congruent	Block1	congruent/STIM_020.jpg
990.379	0.79	correct	congruent	Block1	congruent/STIM_020.jpg
993.519	0.456	correct	congruent	Block1	congruent/STIM_020.jpg
997.176	0.824	correct	congruent	Block1	congruent/STIM_021.jpg
1000.794	0.643	correct	congruent	Block1	congruent/STIM_021.jpg
1004.231	0.564	correct	congruent	Block1	congruent/STIM_021.jpg
1008.106	0.727	incorrect	congruent	Block1	congruent/STIM_021.jpg
1011.305	0.523	correct	congruent	Block1	congruent/STIM_021.jpg
1014.717	0.572	correct	congruent	Block1	congruent/STIM_022.jpg
1018.722	0.792	correct	congruent	Block1	congruent/STIM_022.jpg
1022.842	0.8	correct	congruent	Block1	congruent/STIM_022.jpg
1025.839	0.659	incorrect	congruent	Block1	congruent/STIM_022.jpg
1030.166	0.519	correct	congruent	Block1	congruent/STIM_022.jpg
1034.692	0.466	correct	congruent	Block1	congruent/STIM_023.jpg
1038.245	0.497	correct	congruent	Block1	congruent/STIM_023.jpg
1042.155	0.449	correct	congruent	Block1	congruent/STIM_023.jpg
1045.603	0.547	correct	congruent	Block1	congruent/STIM_023.jpg
1048.399	0.841	correct	congruent	Block1	congruent/STIM_023.jpg
1052.487	0.489	correct	congruent	Block1	congruent/STIM_024.jpg
1056.206	0.493	correct	congruent	Block1	congruent/STIM_024.jpg
1059.007	0.559	correct	congruent	Block1	congruent/STIM_024.jpg
1061.842	0.527	correct	congruent	Block1	congruent/STIM_024.jpg
1065.242	0.561	correct	congruent	Block1	congruent/STIM_024.jpg
1069.775	0.758	correct	congruent	Block1	congruent/STIM_025.jpg
1073.557	0.528	correct	congruent	Block1	congruent/STIM_025.jpg
1077.751	0.587	correct	congruent	Block1	congruent/STIM_025.jpg
1080.498	0.54	correct	congruent	Block1	congruent/STIM_025.jpg
1084.858	0.595	correct	congruent	Block1	congruent/STIM_025.jpg
1089.134	0.518	correct	congruent	Block1	congruent/STIM_026.jpg
1093.346	0.707	correct	congruent	Block1	congruent/STIM_026.jpg
1097.99	0.648	correct	congruent	Block1	congruent/STIM_026.jpg
1101.899	0.659	correct	congruent	Block1	congruent/STIM_026.jpg
1105.147	0.6	correct	congruent	Block1	congruent/STIM_026.jpg
1109.521	0.76	correct	congruent	Block1	congruent/STIM_027.jpg
1114.351	0.719	correct	congruent	Block1	congruent/STIM_027.jpg
1117.581	0.754	correct	congruent	Block1	congruent/STIM_027.jpg
1122.003	0.56	correct	congruent	Block1	congruent/STIM_027.jpg
1124.825	0.729	correct	congruent	Block1	congruent/STIM_027.jpg
1127.983	0.73	correct	congruent	Block1	congruent/STIM_028.jpg
1132.318	0.604	correct	congruent	Block1	congruent/STIM_028.jpg
1136.135	0.547	correct	congruent	Block1	congruent/STIM_028.jpg
1138.844	0.88	correct	congruent	Block1	congruent/STIM_028.jpg
1142.995	0.512	correct	congruent	Block1	congruent/STIM_028.jpg
1147.426	0.539	correct	congruent	Block1	congruent/STIM_029.jpg
1151.599	0.47	correct	congruent	Block1	congruent/STIM_029.jpg
1156.013	0.824	correct	congruent	Block1	congruent/STIM_029.jpg
1159.095	0.587	correct	congruent	Block1	congruent/STIM_029.jpg
1162.221	0.729	correct	congruent	Block1	congruent/STIM_029.jpg
1166.963	0.86	correct	incongruent	Block2	incongruent/STIM_000.jpg
1171.924	0.511	correct	incongruent	Block2	incongruent/STIM_000.jpg
1174.758	0.455	correct	incongruent	Block2	incongruent/STIM_000.jpg
1179.141	0.524	correct	incongruent	Block2	incongruent/STIM_000.jpg
1182.147	0.732	correct	incongruent	Block2	incongruent/STIM_000.jpg
1185.968	1.028	correct	incongruent	Block2	incongruent/STIM_001.jpg
1190.07	1.118	correct	incongruent	Block2	incongruent/STIM_001.jpg
1194.612	0.895	correct	incongruent	Block2	incongruent/STIM_001.jpg
1199.084	0.618	correct	incongruent	Block2	incongruent/STIM_001.jpg
1202.882	0.756	correct	incongruent	Block2	incongruent/STIM_001.jpg
1207.236	0.949	correct	incongruent	Block2	incongruent/STIM_002.jpg
1210.753	0.583	correct	incongruent	Block2	incongruent/STIM_002.jpg
1214.065	0.774	correct	incongruent	Block2	incongruent/STIM_002.jpg
1218.421	0.568	correct	incongruent	Block2	incongruent/STIM_002.jpg
1221.316	0.699	correct	incongruent	Block2	incongruent/STIM_002.jpg
1225.634	0.958	correct	incongruent	Block2	incongruent/STIM_003.jpg
1229.307	0.84	incorrect	incongruent	Block2	incongruent/STIM_003.jpg
1233.002	0.661	correct	incongruent	Block2	incongruent/STIM_003.jpg
1236.355	0.8	correct	incongruent	Block2	incongruent/STIM_003.jpg
1240.047	1.008	correct	incongruent	Block2	incongruent/STIM_003.jpg
1243.522	0.728	correct	incongruent	Block2	incongruent/STIM_004.jpg
1246.693	0.854	correct	incongruent	Block2	incongruent/STIM_004.jpg
1250.843	0.868	correct	incongruent	Block2	incongruent/STIM_004.jpg
1255.312	0.903	correct	incongruent	Block2	incongruent/STIM_004.jpg
1259.94	0.647	correct	incongruent	Block2	incongruent/STIM_004.jpg
1262.77	0.845	correct	incongruent	Block2	incongruent/STIM_005.jpg
1266.024	1.117	correct	incongruent	Block2	incongruent/STIM_005.jpg
1270.085	0.741	correct	incongruent	Block2	incongruent/STIM_005.jpg
1274.545	0.553	correct	incongruent	Block2	incongruent/STIM_005.jpg
1278.894	0.865	correct	incongruent	Block2	incongruent/STIM_005.jpg
1282.54	0.647	incorrect	incongruent	Block2	incongruent/STIM_006.jpg
1286.161	0.61	correct	incongruent	Block2	incongruent/STIM_006.jpg
1290.651	0.977	correct	incongruent	Block2	incongruent/STIM_006.jpg
1294.783	0.699	correct	incongruent	Block2	incongruent/STIM_006.jpg
1298.626	0.759	incorrect	incongruent	Block2	incongruent/STIM_006.jpg
1302.301	0.78	correct	incongruent	Block2	incongruent/STIM_007.jpg
1305.402	0.746	correct	incongruent	Block2	incongruent/STIM_007.jpg
1309.026	0.737	correct	incongruent	Block2	incongruent/STIM_007.jpg
1312.396	0.858	correct	incongruent	Block2	incongruent/STIM_007.jpg
1316.507	0.707	correct	incongruent	Block2	incongruent/STIM_007.jpg
1319.772	0.872	correct	incongruent	Block2	incongruent/STIM_008.jpg
1323.227	0.924	correct	incongruent	Block2	incongruent/STIM_008.jpg
1327.107	0.621	correct	incongruent	Block2	incongruent/STIM_008.jpg
1329.908	0.345	correct	incongruent	Block2	incongruent/STIM_008.jpg
1332.654	0.88	incorrect	incongruent	Block2	incongruent/STIM_008.jpg
1336.541	1.214	correct	incongruent	Block2	incongruent/STIM_009.jpg
1341.056	0.649	correct	incongruent	Block2	incongruent/STIM_009.jpg
1343.985	0.729	correct	incongruent	Block2	incongruent/STIM_009.jpg
1348.438	0.666	correct	incongruent	Block2	incongruent/STIM_009.jpg
1351.657	0.603	correct	incongruent	Block2	incongruent/STIM_009.jpg
1354.692	0.473	correct	incongruent	Block2	incongruent/STIM_010.jpg
1358.791	0.717	correct	incongruent	Block2	incongruent/STIM_010.jpg
1362.277	0.921	correct	incongruent	Block2	incongruent/STIM_010.jpg
1366.7	0.53	correct	incongruent	Block2	incongruent/STIM_010.jpg
1370.117	0.696	correct	incongruent	Block2	incongruent/STIM_010.jpg
1374.053	0.987	correct	incongruent	Block2	incongruent/STIM_011.jpg
1379.006	0.849	incorrect	incongruent	Block2	incongruent/STIM_011.jpg
1382.503	0.718	correct	incongruent	Block2	incongruent/STIM_011.jpg
1386.431	0.704	correct	incongruent	Block2	incongruent/STIM_011.jpg
1390.105	0.833	correct	incongruent	Block2	incongruent/STIM_011.jpg
1394.356	0.645	correct	incongruent	Block2	incongruent/STIM_012.jpg
1397.494	0.612	correct	incongruent	Block2	incongruent/STIM_012.jpg
1400.89	0.549	correct	incongruent	Block2	incongruent/STIM_012.jpg
1403.687	0.738	correct	incongruent	Block2	incongruent/STIM_012.jpg
1407.508	0.874	correct	incongruent	Block2	incongruent/STIM_012.jpg
1411.547	1.023	correct	incongruent	Block2	incongruent/STIM_013.jpg
1415.366	0.642	incorrect	incongruent	Block2	incongruent/STIM_013.jpg
1419.851	0.584	incorrect	incongruent	Block2	incongruent/STIM_013.jpg
1424.383	0.811	correct	incongruent	Block2	incongruent/STIM_013.jpg
1429.021	1.071	correct	incongruent	Block2	incongruent/STIM_013.jpg
1433.479	0.881	correct	incongruent	Block2	incongruent/STIM_014.jpg
1437.84	0.85	correct	incongruent	Block2	incongruent/STIM_014.jpg
1441.828	0.976	correct	incongruent	Block2	incongruent/STIM_014.jpg
1446.174	0.66	correct	incongruent	Block2	incongruent/STIM_014.jpg
1450.29	0.735	correct	incongruent	Block2	incongruent/STIM_014.jpg
1454.122	0.816	correct	incongruent	Block2	incongruent/STIM_015.jpg
1458.613	0.607	correct	incongruent	Block2	incongruent/STIM_015.jpg
1463.069	0.552	correct	incongruent	Block2	incongruent/STIM_015.jpg
1467.155	0.852	correct	incongruent	Block2	incongruent/STIM_015.jpg
1471.101	0.643	correct	incongruent	Block2	incongruent/STIM_015.jpg
1474.935	0.713	correct	incongruent	Block2	incongruent/STIM_016.jpg
1479.561	0.609	correct	incongruent	Block2	incongruent/STIM_016.jpg
1482.937	0.546	correct	incongruent	Block2	incongruent/STIM_016.jpg
1485.683	0.871	correct	incongruent	Block2	incongruent/STIM_016.jpg
1490.152	0.765	correct	incongruent	Block2	incongruent/STIM_016.jpg
1493.886	1.118	correct	incongruent	Block2	incongruent/STIM_017.jpg
1498.713	0.857	correct	incongruent	Block2	incongruent/STIM_017.jpg
1502.689	0.92	incorrect	incongruent	Block2	incongruent/STIM_017.jpg
1505.882	0.812	correct	incongruent	Block2	incongruent/STIM_017.jpg
1510.294	0.799	correct	incongruent	Block2	incongruent/STIM_017.jpg
1513.671	0.917	correct	incongruent	Block2	incongruent/STIM_018.jpg
1516.608	0.783	correct	incongruent	Block2	incongruent/STIM_018.jpg
1519.84	0.914	correct	incongruent	Block2	incongruent/STIM_018.jpg
1524.425	0.556	correct	incongruent	Block2	incongruent/STIM_018.jpg
1527.4	0.671	incorrect	incongruent	Block2	incongruent/STIM_018.jpg
1530.962	0.584	correct	incongruent	Block2	incongruent/STIM_019.jpg
1534.715	0.699	correct	incongruent	Block2	incongruent/STIM_019.jpg
1538.484	1.106	correct	incongruent	Block2	incongruent/STIM_019.jpg
1543.336	0.558	correct	incongruent	Block2	incongruent/STIM_019.jpg
1546.918	0.943	correct	incongruent	Block2	incongruent/STIM_019.jpg
1551.124	0.749	correct	incongruent	Block2	incongruent/STIM_020.jpg
1555.49	0.734	correct	incongruent	Block2	incongruent/STIM_020.jpg
1559.536	0.487	correct	incongruent	Block2	incongruent/STIM_020.jpg
1562.811	0.678	correct	incongruent	Block2	incongruent/STIM_020.jpg
1567.414	0.808	correct	incongruent	Block2	incongruent/STIM_020.jpg
1570.979	0.772	correct	incongruent	Block2	incongruent/STIM_021.jpg
1575.709	0.68	correct	incongruent	Block2	incongruent/STIM_021.jpg
1579.309	0.579	correct	incongruent	Block2	incongruent/STIM_021.jpg
1583.842	0.423	incorrect	incongruent	Block2	incongruent/STIM_021.jpg
1586.634	0.477	correct	incongruent	Block2	incongruent/STIM_021.jpg
1589.189	0.957	correct	incongruent	Block2	incongruent/STIM_022.jpg
1593.313	0.84	correct	incongruent	Block2	incongruent/STIM_022.jpg
1597.277	1.015	correct	incongruent	Block2	incongruent/STIM_022.jpg
1601.555	0.518	correct	incongruent	Block2	incongruent/STIM_022.jpg
1604.839	0.521	correct	incongruent	Block2	incongruent/STIM_022.jpg
1608.509	0.941	correct	incongruent	Block2	incongruent/STIM_023.jpg
1613.331	0.598	correct	incongruent	Block2	incongruent/STIM_023.jpg
1616.647	0.644	correct	incongruent	Block2	incongruent/STIM_023.jpg
1619.801	0.816	correct	incongruent	Block2	incongruent/STIM_023.jpg
1623.583	0.871	correct	incongruent	Block2	incongruent/STIM_023.jpg
1627.632	0.658	correct	incongruent	Block2	incongruent/STIM_024.jpg
1630.853	1.005	correct	incongruent	Block2	incongruent/STIM_024.jpg
1634.586	0.869	correct	incongruent	Block2	incongruent/STIM_024.jpg
1638.632	0.729	correct	incongruent	Block2	incongruent/STIM_024.jpg
1642.444	0.73	correct	incongruent	Block2	incongruent/STIM_024.jpg
1645.995	1.042	correct	incongruent	Block2	incongruent/STIM_025.jpg
1649.57	1.019	correct	incongruent	Block2	incongruent/STIM_025.jpg
1653.687	0.894	correct	incongruent	Block2	incongruent/STIM_025.jpg
1658.383	0.648	correct	incongruent	Block2	incongruent/STIM_025.jpg
1662.953	0.968	correct	incongruent	Block2	incongruent/STIM_025.jpg
1667.24	0.642	correct	incongruent	Block2	incongruent/STIM_026.jpg
1671.387	0.63	correct	incongruent	Block2	incongruent/STIM_026.jpg
1674.092	0.744	correct	incongruent	Block2	incongruent/STIM_026.jpg
1677.435	0.586	correct	incongruent	Block2	incongruent/STIM_026.jpg
1680.799	0.559	correct	incongruent	Block2	incongruent/STIM_026.jpg
1684.146	0.955	correct	incongruent	Block2	incongruent/STIM_027.jpg
1688.262	0.973	correct	incongruent	Block2	incongruent/STIM_027.jpg
1692.244	0.601	correct	incongruent	Block2	incongruent/STIM_027.jpg
1695.369	0.536	correct	incongruent	Block2	incongruent/STIM_027.jpg
1698.21	0.944	incorrect	incongruent	Block2	incongruent/STIM_027.jpg
1702.144	0.905	correct	incongruent	Block2	incongruent/STIM_028.jpg
1705.923	0.563	correct	incongruent	Block2	incongruent/STIM_028.jpg
1708.792	0.799	correct	incongruent	Block2	incongruent/STIM_028.jpg
1712.433	0.911	correct	incongruent	Block2	incongruent/STIM_028.jpg
1715.758	0.713	correct	incongruent	Block2	incongruent/STIM_028.jpg
1718.762	0.617	correct	incongruent	Block2	incongruent/STIM_029.jpg
1721.823	1.069	correct	incongruent	Block2	incongruent/STIM_029.jpg
1725.492	0.811	correct	incongruent	Block2	incongruent/STIM_029.jpg
1729.794	0.643	correct	incongruent	Block2	incongruent/STIM_029.jpg
1734.211	0.591	correct	incongruent	Block2	incongruent/STIM_029.jpg
1737.707	0.789	correct	congruent	Block2	congruent/STIM_000.jpg
1740.563	0.736	correct	congruent	Block2	congruent/STIM_000.jpg
1744.045	0.602	correct	congruent	Block2	congruent/STIM_000.jpg
1747.661	0.527	correct	congruent	Block2	congruent/STIM_000.jpg
1751.681	0.711	correct	congruent	Block2	congruent/STIM_000.jpg
1755.61	0.622	correct	congruent	Block2	congruent/STIM_001.jpg
1758.576	0.849	correct	congruent	Block2	congruent/STIM_001.jpg
1761.673	0.659	correct	congruent	Block2	congruent/STIM_001.jpg
1764.555	0.644	correct	congruent	Block2	congruent/STIM_001.jpg
1768.835	0.776	correct	congruent	Block2	congruent/STIM_001.jpg
1771.793	0.811	correct	congruent	Block2	congruent/STIM_002.jpg
1775.127	0.539	correct	congruent	Block2	congruent/STIM_002.jpg
1778.04	0.495	correct	congruent	Block2	congruent/STIM_002.jpg
1781.115	0.732	correct	congruent	Block2	congruent/STIM_002.jpg
1785.426	0.4	correct	congruent	Block2	congruent/STIM_002.jpg
1788.502	0.636	correct	congruent	Block2	congruent/STIM_003.jpg
1792.045	0.592	correct	congruent	Block2	congruent/STIM_003.jpg
1795.685	0.554	correct	congruent	Block2	congruent/STIM_003.jpg
1800.015	0.648	correct	congruent	Block2	congruent/STIM_003.jpg
1804.638	0.519	incorrect	congruent	Block2	congruent/STIM_003.jpg
1807.751	0.548	correct	congruent	Block2	congruent/STIM_004.jpg
1810.466	0.499	correct	congruent	Block2	congruent/STIM_004.jpg
1813.672	0.664	correct	congruent	Block2	congruent/STIM_004.jpg
1817.202	0.848	correct	congruent	Block2	congruent/STIM_004.jpg
1820.075	0.688	correct	congruent	Block2	congruent/STIM_004.jpg
1823.63	0.69	correct	congruent	Block2	congruent/STIM_005.jpg
1828.097	0.489	correct	congruent	Block2	congruent/STIM_005.jpg
1831.84	0.693	correct	congruent	Block2	congruent/STIM_005.jpg
1836.592	0.519	correct	congruent	Block2	congruent/STIM_005.jpg
1839.582	0.516	correct	congruent	Block2	congruent/STIM_005.jpg
1843.644	0.651	correct	congruent	Block2	congruent/STIM_006.jpg
1847.619	0.593	correct	congruent	Block2	congruent/STIM_006.jpg
1850.831	0.833	incorrect	congruent	Block2	congruent/STIM_006.jpg
1854.439	0.553	correct	congruent	Block2	congruent/STIM_006.jpg
1858.512	0.483	correct	congruent	Block2	congruent/STIM_006.jpg
1861.34	0.903	correct	congruent	Block2	congruent/STIM_007.jpg
1865.01	0.512	correct	congruent	Block2	congruent/STIM_007.jpg
1868.11	0.632	correct	congruent	Block2	congruent/STIM_007.jpg
1872.551	0.548	correct	congruent	Block2	congruent/STIM_007.jpg
1875.292	0.799	correct	congruent	Block2	congruent/STIM_007.jpg
1878.642	0.604	correct	congruent	Block2	congruent/STIM_008.jpg
1882.587	0.82	correct	congruent	Block2	congruent/STIM_008.jpg
1887.199	0.523	correct	congruent	Block2	congruent/STIM_008.jpg
1890.93	0.46	correct	congruent	Block2	congruent/STIM_008.jpg
1893.91	0.83	correct	congruent	Block2	congruent/STIM_008.jpg
1898.334	0.552	correct	congruent	Block2	congruent/STIM_009.jpg
1902.157	0.762	correct	congruent	Block2	congruent/STIM_009.jpg
1905.079	0.475	correct	congruent	Block2	congruent/STIM_009.jpg
1909.505	0.596	correct	congruent	Block2	congruent/STIM_009.jpg
1912.283	0.777	correct	congruent	Block2	congruent/STIM_009.jpg
1916.727	0.807	correct	congruent	Block2	congruent/STIM_010.jpg
1920.252	0.837	correct	congruent	Block2	congruent/STIM_010.jpg
1923.963	0.775	correct	congruent	Block2	congruent/STIM_010.jpg
1928.68	0.705	correct	congruent	Block2	congruent/STIM_010.jpg
1932.67	0.727	correct	congruent	Block2	congruent/STIM_010.jpg
1935.882	0.762	correct	congruent	Block2	congruent/STIM_011.jpg
1938.861	0.67	correct	congruent	Block2	congruent/STIM_011.jpg
1942.026	0.717	correct	congruent	Block2	congruent/STIM_011.jpg
1946.245	0.682	correct	congruent	Block2	congruent/STIM_011.jpg
1949.99	0.858	correct	congruent	Block2	congruent/STIM_011.jpg
1953.103	0.524	correct	congruent	Block2	congruent/STIM_012.jpg
1956.736	0.761	correct	congruent	Block2	congruent/STIM_012.jpg
1960.972	0.729	correct	congruent	Block2	congruent/STIM_012.jpg
1965.066	0.728	correct	congruent	Block2	congruent/STIM_012.jpg
1969.813	0.64	correct	congruent	Block2	congruent/STIM_012.jpg
1973.291	0.632	correct	congruent	Block2	congruent/STIM_013.jpg
1977.633	0.573	correct	congruent	Block2	congruent/STIM_013.jpg
1980.35	0.598	correct	congruent	Block2	congruent/STIM_013.jpg
1982.944	0.598	correct	congruent	Block2	congruent/STIM_013.jpg
1987.627	0.879	correct	congruent	Block2	congruent/STIM_013.jpg
1991.766	0.582	correct	congruent	Block2	congruent/STIM_014.jpg
1994.693	0.562	correct	congruent	Block2	congruent/STIM_014.jpg
1997.626	0.48	correct	congruent	Block2	congruent/STIM_014.jpg
2001.495	0.804	correct	congruent	Block2	congruent/STIM_014.jpg
2005.684	0.549	correct	congruent	Block2	congruent/STIM_014.jpg
2009.031	0.573	correct	congruent	Block2	congruent/STIM_015.jpg
2013.236	0.652	correct	congruent	Block2	congruent/STIM_015.jpg
2017.214	0.469	correct	congruent	Block2	congruent/STIM_015.jpg
2020.31	0.898	correct	congruent	Block2	congruent/STIM_015.jpg
2023.389	0.555	correct	congruent	Block2	congruent/STIM_015.jpg
2026.594	0.635	correct	congruent	Block2	congruent/STIM_016.jpg
2030.831	0.622	correct	congruent	Block2	congruent/STIM_016.jpg
2035.175	0.68	correct	congruent	Block2	congruent/STIM_016.jpg
2038.498	0.747	correct	congruent	Block2	congruent/STIM_016.jpg
2042.768	0.592	correct	congruent	Block2	congruent/STIM_016.jpg
2045.749	0.673	correct	congruent	Block2	congruent/STIM_017.jpg
2049.926	0.512	incorrect	congruent	Block2	congruent/STIM_017.jpg
2052.672	0.631	correct	congruent	Block2	congruent/STIM_017.jpg
2055.505	0.603	correct	congruent	Block2	congruent/STIM_017.jpg
2058.827	0.822	correct	congruent	Block2	congruent/STIM_017.jpg
2062.636	0.853	correct	congruent	Block2	congruent/STIM_018.jpg
2067.411	0.592	correct	congruent	Block2	congruent/STIM_018.jpg
2070.481	0.545	correct	congruent	Block2	congruent/STIM_018.jpg
2073.666	0.755	correct	congruent	Block2	congruent/STIM_018.jpg
2077.48	0.805	correct	congruent	Block2	congruent/STIM_018.jpg
2080.881	0.768	correct	congruent	Block2	congruent/STIM_019.jpg
2085.102	0.585	correct	congruent	Block2	congruent/STIM_019.jpg
2089.397	0.797	correct	congruent	Block2	congruent/STIM_019.jpg
2092.692	0.522	correct	congruent	Block2	congruent/STIM_019.jpg
2096.578	0.824	correct	congruent	Block2	congruent/STIM_019.jpg
2100.712	0.708	correct	congruent	Block2	congruent/STIM_020.jpg
2105.06	0.592	correct	congruent	Block2	congruent/STIM_020.jpg
2109.255	0.673	correct	congruent	Block2	congruent/STIM_020.jpg
2113.384	0.68	correct	congruent	Block2	congruent/STIM_020.jpg
2117.168	0.548	correct	congruent	Block2	congruent/STIM_020.jpg
2120.798	0.652	correct	congruent	Block2	congruent/STIM_021.jpg
2123.6	0.846	correct	congruent	Block2	congruent/STIM_021.jpg
2126.598	0.69	correct	congruent	Block2	congruent/STIM_021.jpg
2130.947	0.566	correct	congruent	Block2	congruent/STIM_021.jpg
2134.327	0.514	correct	congruent	Block2	congruent/STIM_021.jpg
2137.123	0.75	correct	congruent	Block2	congruent/STIM_022.jpg
2140.153	0.819	correct	congruent	Block2	congruent/STIM_022.jpg
2144.495	0.738	correct	congruent	Block2	congruent/STIM_022.jpg
2147.416	0.805	correct	congruent	Block2	congruent/STIM_022.jpg
2150.274	0.495	correct	congruent	Block2	congruent/STIM_022.jpg
2152.805	0.709	correct	congruent	Block2	congruent/STIM_023.jpg
2156.534	0.528	correct	congruent	Block2	congruent/STIM_023.jpg
2159.838	0.711	correct	congruent	Block2	congruent/STIM_023.jpg
2163.916	0.529	correct	congruent	Block2	congruent/STIM_023.jpg
2168.05	0.706	correct	congruent	Block2	congruent/STIM_023.jpg
2171.133	0.737	correct	congruent	Block2	congruent/STIM_024.jpg
2175.437	0.823	correct	congruent	Block2	congruent/STIM_024.jpg
2178.919	0.559	incorrect	congruent	Block2	congruent/STIM_024.jpg
2183.335	0.799	correct	congruent	Block2	congruent/STIM_024.jpg
2187.188	0.702	correct	congruent	Block2	congruent/STIM_024.jpg
2190.329	0.759	correct	congruent	Block2	congruent/STIM_025.jpg
2194.913	0.669	correct	congruent	Block2	congruent/STIM_025.jpg
2197.624	0.711	incorrect	congruent	Block2	congruent/STIM_025.jpg
2201.403	0.739	correct	congruent	Block2	congruent/STIM_025.jpg
2204.863	0.522	correct	congruent	Block2	congruent/STIM_025.jpg
2207.939	0.639	correct	congruent	Block2	congruent/STIM_026.jpg
2210.632	0.683	correct	congruent	Block2	congruent/STIM_026.jpg
2213.395	0.78	correct	congruent	Block2	congruent/STIM_026.jpg
2217.108	0.763	correct	congruent	Block2	congruent/STIM_026.jpg
2221.332	0.657	correct	congruent	Block2	congruent/STIM_026.jpg
2225.93	0.514	correct	congruent	Block2	congruent/STIM_027.jpg
2230.072	0.661	incorrect	congruent	Block2	congruent/STIM_027.jpg
2233.413	0.812	correct	congruent	Block2	congruent/STIM_027.jpg
2237.539	0.769	correct	congruent	Block2	congruent/STIM_027.jpg
2240.478	0.823	correct	congruent	Block2	congruent/STIM_027.jpg
2243.619	0.456	correct	congruent	Block2	congruent/STIM_028.jpg
2247.076	0.479	correct	congruent	Block2	congruent/STIM_028.jpg
2251.575	0.675	correct	congruent	Block2	congruent/STIM_028.jpg
2254.619	0.665	correct	congruent	Block2	congruent/STIM_028.jpg
2258.32	0.699	correct	congruent	Block2	congruent/STIM_028.jpg
2262.565	0.644	correct	congruent	Block2	congruent/STIM_029.jpg
2265.756	0.468	incorrect	congruent	Block2	congruent/STIM_029.jpg
2268.39	0.805	correct	congruent	Block2	congruent/STIM_029.jpg
2272.05	0.591	correct	congruent	Block2	congruent/STIM_029.jpg
2275.623	0.383	correct	congruent	Block2	congruent/STIM_029.jpg
2280.077	0.856	correct	incongruent	Block3	incongruent/STIM_000.jpg
2284.4	0.497	incorrect	incongruent	Block3	incongruent/STIM_000.jpg
2287.6	0.496	correct	incongruent	Block3	incongruent/STIM_000.jpg
2291.735	0.62	correct	incongruent	Block3	incongruent/STIM_000.jpg
2294.588	0.839	correct	incongruent	Block3	incongruent/STIM_000.jpg
2298.857	0.958	correct	incongruent	Block3	incongruent/STIM_001.jpg
2303.666	0.873	correct	incongruent	Block3	incongruent/STIM_001.jpg
2307.272	0.489	correct	incongruent	Block3	incongruent/STIM_001.jpg
2310.932	0.895	incorrect	incongruent	Block3	incongruent/STIM_001.jpg
2315.759	0.74	correct	incongruent	Block3	incongruent/STIM_001.jpg
2318.865	0.773	correct	incongruent	Block3	incongruent/STIM_002.jpg
2323.181	0.62	correct	incongruent	Block3	incongruent/STIM_002.jpg
2326.34	0.808	correct	incongruent	Block3	incongruent/STIM_002.jpg
2329.945	0.555	correct	incongruent	Block3	incongruent/STIM_002.jpg
2333.461	0.467	correct	incongruent	Block3	incongruent/STIM_002.jpg
2336.816	0.482	correct	incongruent	Block3	incongruent/STIM_003.jpg
2341.176	0.727	correct	incongruent	Block3	incongruent/STIM_003.jpg
2344.605	0.674	correct	incongruent	Block3	incongruent/STIM_003.jpg
2348.558	0.957	correct	incongruent	Block3	incongruent/STIM_003.jpg
2351.696	0.917	correct	incongruent	Block3	incongruent/STIM_003.jpg
2356.001	0.86	correct	incongruent	Block3	incongruent/STIM_004.jpg
2359.876	0.739	correct	incongruent	Block3	incongruent/STIM_004.jpg
2363.759	0.732	correct	incongruent	Block3	incongruent/STIM_004.jpg
2367.431	0.727	correct	incongruent	Block3	incongruent/STIM_004.jpg
2372.087	0.507	correct	incongruent	Block3	incongruent/STIM_004.jpg
2375.277	0.506	correct	incongruent	Block3	incongruent/STIM_005.jpg
2379.06	0.886	correct	incongruent	Block3	incongruent/STIM_005.jpg
2383.147	0.545	correct	incongruent	Block3	incongruent/STIM_005.jpg
2386.063	0.78	correct	incongruent	Block3	incongruent/STIM_005.jpg
2389.403	0.87	correct	incongruent	Block3	incongruent/STIM_005.jpg
2392.981	0.686	correct	incongruent	Block3	incongruent/STIM_006.jpg
2395.96	0.921	correct	incongruent	Block3	incongruent/STIM_006.jpg
2400.849	0.52	correct	incongruent	Block3	incongruent/STIM_006.jpg
2404.654	0.466	correct	incongruent	Block3	incongruent/STIM_006.jpg
2407.182	0.562	correct	incongruent	Block3	incongruent/STIM_006.jpg
2410.314	0.905	correct	incongruent	Block3	incongruent/STIM_007.jpg
2414.988	0.797	correct	incongruent	Block3	incongruent/STIM_007.jpg
2418.309	0.725	correct	incongruent	Block3	incongruent/STIM_007.jpg
2422.259	0.827	correct	incongruent	Block3	incongruent/STIM_007.jpg
2426.37	0.749	correct	incongruent	Block3	incongruent/STIM_007.jpg
2429.368	0.819	correct	incongruent	Block3	incongruent/STIM_008.jpg
2433.648	0.458	correct	incongruent	Block3	incongruent/STIM_008.jpg
2437.446	0.597	correct	incongruent	Block3	incongruent/STIM_008.jpg
2440.586	0.823	correct	incongruent	Block3	incongruent/STIM_008.jpg
2443.616	0.819	correct	incongruent	Block3	incongruent/STIM_008.jpg
2446.764	0.89	correct	incongruent	Block3	incongruent/STIM_009.jpg
2450.933	0.731	correct	incongruent	Block3	incongruent/STIM_009.jpg
2455.173	0.571	correct	incongruent	Block3	incongruent/STIM_009.jpg
2458.269	0.697	correct	incongruent	Block3	incongruent/STIM_009.jpg
2462.703	0.511	correct	incongruent	Block3	incongruent/STIM_009.jpg
2466.343	0.938	correct	incongruent	Block3	incongruent/STIM_010.jpg
2470.055	1.045	correct	incongruent	Block3	incongruent/STIM_010.jpg
2474.152	0.572	correct	incongruent	Block3	incongruent/STIM_010.jpg
2477.032	0.828	correct	incongruent	Block3	incongruent/STIM_010.jpg
2481.786	0.846	correct	incongruent	Block3	incongruent/STIM_010.jpg
2485.582	0.832	correct	incongruent	Block3	incongruent/STIM_011.jpg
2488.558	0.728	correct	incongruent	Block3	incongruent/STIM_011.jpg
2493.054	0.428	correct	incongruent	Block3	incongruent/STIM_011.jpg
2496.008	0.552	correct	incongruent	Block3	incongruent/STIM_011.jpg
2498.589	0.727	correct	incongruent	Block3	incongruent/STIM_011.jpg
2501.751	0.594	correct	incongruent	Block3	incongruent/STIM_012.jpg
2506.173	0.791	correct	incongruent	Block3	incongruent/STIM_012.jpg
2509.708	0.464	correct	incongruent	Block3	incongruent/STIM_012.jpg
2513.504	0.668	correct	incongruent	Block3	incongruent/STIM_012.jpg
2517.619	0.66	correct	incongruent	Block3	incongruent/STIM_012.jpg
2520.565	0.636	correct	incongruent	Block3	incongruent/STIM_013.jpg
2524.777	0.69	correct	incongruent	Block3	incongruent/STIM_013.jpg
2529.061	0.592	correct	incongruent	Block3	incongruent/STIM_013.jpg
2532.48	0.46	correct	incongruent	Block3	incongruent/STIM_013.jpg
2536.193	0.487	correct	incongruent	Block3	incongruent/STIM_013.jpg
2539.943	1.01	correct	incongruent	Block3	incongruent/STIM_014.jpg
2542.979	0.482	correct	incongruent	Block3	incongruent/STIM_014.jpg
2545.509	0.522	correct	incongruent	Block3	incongruent/STIM_014.jpg
2548.88	0.844	correct	incongruent	Block3	incongruent/STIM_014.jpg
2553.276	0.56	correct	incongruent	Block3	incongruent/STIM_014.jpg
2557.294	0.704	correct	incongruent	Block3	incongruent/STIM_015.jpg
2561.526	0.518	correct	incongruent	Block3	incongruent/STIM_015.jpg
2564.483	0.856	correct	incongruent	Block3	incongruent/STIM_015.jpg
2567.895	0.725	correct	incongruent	Block3	incongruent/STIM_015.jpg
2572.505	0.611	correct	incongruent	Block3	incongruent/STIM_015.jpg
2576.459	0.552	correct	incongruent	Block3	incongruent/STIM_016.jpg
2580.17	0.807	correct	incongruent	Block3	incongruent/STIM_016.jpg
2584.707	0.792	correct	incongruent	Block3	incongruent/STIM_016.jpg
2589.448	0.66	correct	incongruent	Block3	incongruent/STIM_016.jpg
2593.762	0.564	correct	incongruent	Block3	incongruent/STIM_016.jpg
2598.312	0.925	correct	incongruent	Block3	incongruent/STIM_017.jpg
2601.76	0.87	correct	incongruent	Block3	incongruent/STIM_017.jpg
2606.227	0.818	correct	incongruent	Block3	incongruent/STIM_017.jpg
2610.875	0.776	correct	incongruent	Block3	incongruent/STIM_017.jpg
2614.484	0.521	correct	incongruent	Block3	incongruent/STIM_017.jpg
2617.77	0.469	correct	incongruent	Block3	incongruent/STIM_018.jpg
2622.0	0.612	correct	incongruent	Block3	incongruent/STIM_018.jpg
2625.374	0.528	correct	incongruent	Block3	incongruent/STIM_018.jpg
2628.207	0.8	correct	incongruent	Block3	incongruent/STIM_018.jpg
2632.836	0.422	correct	incongruent	Block3	incongruent/STIM_018.jpg
2636.643	0.9	correct	incongruent	Block3	incongruent/STIM_019.jpg
2641.43	0.778	correct	incongruent	Block3	incongruent/STIM_019.jpg
2644.512	0.699	correct	incongruent	Block3	incongruent/STIM_019.jpg
2648.5	0.744	correct	incongruent	Block3	incongruent/STIM_019.jpg
2651.619	0.686	correct	incongruent	Block3	incongruent/STIM_019.jpg
2656.34	0.798	correct	incongruent	Block3	incongruent/STIM_020.jpg
2659.865	0.756	correct	incongruent	Block3	incongruent/STIM_020.jpg
2664.487	0.78	correct	incongruent	Block3	incongruent/STIM_020.jpg
2667.881	0.781	correct	incongruent	Block3	incongruent/STIM_020.jpg
2671.609	0.78	correct	incongruent	Block3	incongruent/STIM_020.jpg
2675.446	0.472	correct	incongruent	Block3	incongruent/STIM_021.jpg
2679.449	0.72	correct	incongruent	Block3	incongruent/STIM_021.jpg
2682.687	0.722	correct	incongruent	Block3	incongruent/STIM_021.jpg
2687.415	0.637	correct	incongruent	Block3	incongruent/STIM_021.jpg
2690.846	0.672	correct	incongruent	Block3	incongruent/STIM_021.jpg
2693.756	0.726	correct	incongruent	Block3	incongruent/STIM_022.jpg
2697.781	0.818	correct	incongruent	Block3	incongruent/STIM_022.jpg
2702.374	0.632	correct	incongruent	Block3	incongruent/STIM_022.jpg
2705.856	0.814	correct	incongruent	Block3	incongruent/STIM_022.jpg
2708.986	0.692	correct	incongruent	Block3	incongruent/STIM_022.jpg
2712.007	0.778	correct	incongruent	Block3	incongruent/STIM_023.jpg
2715.487	0.843	incorrect	incongruent	Block3	incongruent/STIM_023.jpg
2718.51	0.626	correct	incongruent	Block3	incongruent/STIM_023.jpg
2722.699	0.525	correct	incongruent	Block3	incongruent/STIM_023.jpg
2726.803	0.979	correct	incongruent	Block3	incongruent/STIM_023.jpg
2731.033	0.739	correct	incongruent	Block3	incongruent/STIM_024.jpg
2734.619	0.79	correct	incongruent	Block3	incongruent/STIM_024.jpg
2738.768	0.582	correct	incongruent	Block3	incongruent/STIM_024.jpg
2741.869	0.818	correct	incongruent	Block3	incongruent/STIM_024.jpg
2746.266	0.747	correct	incongruent	Block3	incongruent/STIM_024.jpg
2750.886	0.605	correct	incongruent	Block3	incongruent/STIM_025.jpg
2753.973	0.546	correct	incongruent	Block3	incongruent/STIM_025.jpg
2758.182	0.549	incorrect	incongruent	Block3	incongruent/STIM_025.jpg
2761.787	0.49	correct	incongruent	Block3	incongruent/STIM_025.jpg
2764.537	0.774	correct	incongruent	Block3	incongruent/STIM_025.jpg
2767.931	0.495	correct	incongruent	Block3	incongruent/STIM_026.jpg
2772.004	0.833	correct	incongruent	Block3	incongruent/STIM_026.jpg
2776.854	0.59	correct	incongruent	Block3	incongruent/STIM_026.jpg
2780.757	0.678	correct	incongruent	Block3	incongruent/STIM_026.jpg
2783.696	0.358	correct	incongruent	Block3	incongruent/STIM_026.jpg
2786.281	0.885	correct	incongruent	Block3	incongruent/STIM_027.jpg
2790.186	0.525	correct	incongruent	Block3	incongruent/STIM_027.jpg
2794.553	0.936	correct	incongruent	Block3	incongruent/STIM_027.jpg
2798.126	0.608	correct	incongruent	Block3	incongruent/STIM_027.jpg
2802.666	0.738	correct	incongruent	Block3	incongruent/STIM_027.jpg
2806.962	0.719	correct	incongruent	Block3	incongruent/STIM_028.jpg
2811.623	0.734	correct	incongruent	Block3	incongruent/STIM_028.jpg
2816.211	0.611	correct	incongruent	Block3	incongruent/STIM_028.jpg
2819.733	0.692	correct	incongruent	Block3	incongruent/STIM_028.jpg
2822.774	0.871	correct	incongruent	Block3	incongruent/STIM_028.jpg
2825.695	0.993	correct	incongruent	Block3	incongruent/STIM_029.jpg
2829.133	0.833	correct	incongruent	Block3	incongruent/STIM_029.jpg
2832.206	1.006	correct	incongruent	Block3	incongruent/STIM_029.jpg
2836.301	0.76	correct	incongruent	Block3	incongruent/STIM_029.jpg
2840.162	0.898	correct	incongruent	Block3	incongruent/STIM_029.jpg
2843.609	0.485	correct	congruent	Block3	congruent/STIM_000.jpg
2846.318	0.485	correct	congruent	Block3	congruent/STIM_000.jpg
2849.794	0.582	correct	congruent	Block3	congruent/STIM_000.jpg
2853.762	0.489	correct	congruent	Block3	congruent/STIM_000.jpg
2857.445	0.634	correct	congruent	Block3	congruent/STIM_000.jpg
2861.947	0.412	correct	congruent	Block3	congruent/STIM_001.jpg
2866.265	0.898	correct	congruent	Block3	congruent/STIM_001.jpg
2870.888	0.636	correct	congruent	Block3	congruent/STIM_001.jpg
2875.194	0.625	correct	congruent	Block3	congruent/STIM_001.jpg
2878.416	0.732	correct	congruent	Block3	congruent/STIM_001.jpg
2882.393	0.731	correct	congruent	Block3	congruent/STIM_002.jpg
2887.163	0.64	correct	congruent	Block3	congruent/STIM_002.jpg
2891.549	0.844	correct	congruent	Block3	congruent/STIM_002.jpg
2895.32	0.546	correct	congruent	Block3	congruent/STIM_002.jpg
2898.555	0.436	correct	congruent	Block3	congruent/STIM_002.jpg
2901.755	0.837	correct	congruent	Block3	congruent/STIM_003.jpg
2906.183	0.694	correct	congruent	Block3	congruent/STIM_003.jpg
2908.965	0.517	correct	congruent	Block3	congruent/STIM_003.jpg
2913.238	0.443	correct	congruent	Block3	congruent/STIM_003.jpg
2916.767	0.696	correct	congruent	Block3	congruent/STIM_003.jpg
2920.164	0.653	correct	congruent	Block3	congruent/STIM_004.jpg
2924.6	0.42	correct	congruent	Block3	congruent/STIM_004.jpg
2927.461	0.712	correct	congruent	Block3	congruent/STIM_004.jpg
2930.532	0.794	correct	congruent	Block3	congruent/STIM_004.jpg
2935.172	0.629	correct	congruent	Block3	congruent/STIM_004.jpg
2939.825	0.608	correct	congruent	Block3	congruent/STIM_005.jpg
2942.807	0.667	correct	congruent	Block3	congruent/STIM_005.jpg
2946.582	0.669	correct	congruent	Block3	congruent/STIM_005.jpg
2949.336	0.937	correct	congruent	Block3	congruent/STIM_005.jpg
2953.856	0.419	correct	congruent	Block3	congruent/STIM_005.jpg
2958.347	0.609	correct	congruent	Block3	congruent/STIM_006.jpg
2962.872	0.5	correct	congruent	Block3	congruent/STIM_006.jpg
2967.045	0.701	correct	congruent	Block3	congruent/STIM_006.jpg
2971.026	0.543	correct	congruent	Block3	congruent/STIM_006.jpg
2975.431	0.601	incorrect	congruent	Block3	congruent/STIM_006.jpg
2979.043	0.556	incorrect	congruent	Block3	congruent/STIM_007.jpg
2982.376	0.633	correct	congruent	Block3	congruent/STIM_007.jpg
2986.593	0.502	correct	congruent	Block3	congruent/STIM_007.jpg
2989.225	0.758	correct	congruent	Block3	congruent/STIM_007.jpg
2993.034	0.527	correct	congruent	Block3	congruent/STIM_007.jpg
2995.641	0.607	correct	congruent	Block3	congruent/STIM_008.jpg
2999.226	0.709	correct	congruent	Block3	congruent/STIM_008.jpg
3003.878	0.495	correct	congruent	Block3	congruent/STIM_008.jpg
3007.73	0.683	correct	congruent	Block3	congruent/STIM_008.jpg
3011.269	0.661	correct	congruent	Block3	congruent/STIM_008.jpg
3015.493	0.628	correct	congruent	Block3	congruent/STIM_009.jpg
3020.099	0.541	correct	congruent	Block3	congruent/STIM_009.jpg
3023.063	0.716	correct	congruent	Block3	congruent/STIM_009.jpg
3025.965	0.55	correct	congruent	Block3	congruent/STIM_009.jpg
3029.744	0.61	correct	congruent	Block3	congruent/STIM_009.jpg
3034.152	0.443	correct	congruent	Block3	congruent/STIM_010.jpg
3037.508	0.612	correct	congruent	Block3	congruent/STIM_010.jpg
3041.257	0.521	correct	congruent	Block3	congruent/STIM_010.jpg
3044.258	0.762	correct	congruent	Block3	congruent/STIM_010.jpg
3048.809	0.438	correct	congruent	Block3	congruent/STIM_010.jpg
3052.51	0.588	correct	congruent	Block3	congruent/STIM_011.jpg
3055.776	0.786	correct	congruent	Block3	congruent/STIM_011.jpg
3059.006	0.586	correct	congruent	Block3	congruent/STIM_011.jpg
3062.656	0.852	incorrect	congruent	Block3	congruent/STIM_011.jpg
3065.853	0.748	correct	congruent	Block3	congruent/STIM_011.jpg
3069.321	0.674	correct	congruent	Block3	congruent/STIM_012.jpg
3072.642	0.748	correct	congruent	Block3	congruent/STIM_012.jpg
3075.644	0.706	correct	congruent	Block3	congruent/STIM_012.jpg
3078.99	0.78	correct	congruent	Block3	congruent/STIM_012.jpg
3082.003	0.674	correct	congruent	Block3	congruent/STIM_012.jpg
3085.982	0.668	correct	congruent	Block3	congruent/STIM_013.jpg
3088.832	0.573	correct	congruent	Block3	congruent/STIM_013.jpg
3092.039	0.554	correct	congruent	Block3	congruent/STIM_013.jpg
3096.452	0.789	correct	congruent	Block3	congruent/STIM_013.jpg
3099.606	0.561	correct	congruent	Block3	congruent/STIM_013.jpg
3102.397	0.754	correct	congruent	Block3	congruent/STIM_014.jpg
3107.099	0.763	correct	congruent	Block3	congruent/STIM_014.jpg
3110.075	0.6	correct	congruent	Block3	congruent/STIM_014.jpg
3112.821	0.6	correct	congruent	Block3	congruent/STIM_014.jpg
3116.534	0.472	correct	congruent	Block3	congruent/STIM_014.jpg
3120.8	0.77	correct	congruent	Block3	congruent/STIM_015.jpg
3125.007	0.647	correct	congruent	Block3	congruent/STIM_015.jpg
3127.866	0.516	correct	congruent	Block3	congruent/STIM_015.jpg
3132.411	0.606	correct	congruent	Block3	congruent/STIM_015.jpg
3135.351	0.731	correct	congruent	Block3	congruent/STIM_015.jpg
3138.266	0.697	correct	congruent	Block3	congruent/STIM_016.jpg
3142.065	0.706	correct	congruent	Block3	congruent/STIM_016.jpg
3146.104	0.703	correct	congruent	Block3	congruent/STIM_016.jpg
3149.865	0.72	correct	congruent	Block3	congruent/STIM_016.jpg
3154.095	0.92	correct	congruent	Block3	congruent/STIM_016.jpg
3158.921	0.797	correct	congruent	Block3	congruent/STIM_017.jpg
3163.384	0.776	correct	congruent	Block3	congruent/STIM_017.jpg
3167.312	0.623	correct	congruent	Block3	congruent/STIM_017.jpg
3170.124	0.488	correct	congruent	Block3	congruent/STIM_017.jpg
3173.07	0.618	correct	congruent	Block3	congruent/STIM_017.jpg
3177.538	0.73	correct	congruent	Block3	congruent/STIM_018.jpg
3180.699	0.898	correct	congruent	Block3	congruent/STIM_018.jpg
3183.916	0.624	correct	congruent	Block3	congruent/STIM_018.jpg
3187.152	0.622	correct	congruent	Block3	congruent/STIM_018.jpg
3190.364	0.441	correct	congruent	Block3	congruent/STIM_018.jpg
3194.017	0.806	correct	congruent	Block3	congruent/STIM_019.jpg
3197.984	0.827	correct	congruent	Block3	congruent/STIM_019.jpg
3201.947	0.779	correct	congruent	Block3	congruent/STIM_019.jpg
3205.287	0.807	correct	congruent	Block3	congruent/STIM_019.jpg
3209.261	0.627	correct	congruent	Block3	congruent/STIM_019.jpg
3212.134	0.748	correct	congruent	Block3	congruent/STIM_020.jpg
3215.106	0.575	correct	congruent	Block3	congruent/STIM_020.jpg
3219.304	0.528	correct	congruent	Block3	congruent/STIM_020.jpg
3221.984	0.806	correct	congruent	Block3	congruent/STIM_020.jpg
3226.123	0.81	correct	congruent	Block3	congruent/STIM_020.jpg
3230.585	0.47	correct	congruent	Block3	congruent/STIM_021.jpg
3233.746	0.713	correct	congruent	Block3	congruent/STIM_021.jpg
3237.712	0.53	correct	congruent	Block3	congruent/STIM_021.jpg
3240.599	0.463	correct	congruent	Block3	congruent/STIM_021.jpg
3243.254	0.665	correct	congruent	Block3	congruent/STIM_021.jpg
3246.404	0.824	correct	congruent	Block3	congruent/STIM_022.jpg
3250.658	0.911	correct	congruent	Block3	congruent/STIM_022.jpg
3255.119	0.553	correct	congruent	Block3	congruent/STIM_022.jpg
3259.15	0.563	correct	congruent	Block3	congruent/STIM_022.jpg
3263.433	0.632	correct	congruent	Block3	congruent/STIM_022.jpg
3266.628	0.734	correct	congruent	Block3	congruent/STIM_023.jpg
3269.621	0.719	correct	congruent	Block3	congruent/STIM_023.jpg
3273.482	0.898	correct	congruent	Block3	congruent/STIM_023.jpg
3277.246	0.763	incorrect	congruent	Block3	congruent/STIM_023.jpg
3280.447	0.823	correct	congruent	Block3	congruent/STIM_023.jpg
3284.743	0.796	correct	congruent	Block3	congruent/STIM_024.jpg
3287.847	0.491	correct	congruent	Block3	congruent/STIM_024.jpg
3290.366	0.579	correct	congruent	Block3	congruent/STIM_024.jpg
3293.363	0.532	correct	congruent	Block3	congruent/STIM_024.jpg
3296.015	0.752	correct	congruent	Block3	congruent/STIM_024.jpg
3298.967	0.588	correct	congruent	Block3	congruent/STIM_025.jpg
3302.652	0.485	correct	congruent	Block3	congruent/STIM_025.jpg
3305.71	0.724	incorrect	congruent	Block3	congruent/STIM_025.jpg
3309.666	0.497	correct	congruent	Block3	congruent/STIM_025.jpg
3313.063	0.743	correct	congruent	Block3	congruent/STIM_025.jpg
3316.091	0.744	correct	congruent	Block3	congruent/STIM_026.jpg
3320.698	0.721	correct	congruent	Block3	congruent/STIM_026.jpg
3324.631	0.586	correct	congruent	Block3	congruent/STIM_026.jpg
3329.143	0.502	correct	congruent	Block3	congruent/STIM_026.jpg
3333.249	0.666	correct	congruent	Block3	congruent/STIM_026.jpg
3336.25	0.588	incorrect	congruent	Block3	congruent/STIM_027.jpg
3338.833	0.481	correct	congruent	Block3	congruent/STIM_027.jpg
3343.061	0.704	correct	congruent	Block3	congruent/STIM_027.jpg
3346.201	0.558	correct	congruent	Block3	congruent/STIM_027.jpg
3349.038	0.506	correct	congruent	Block3	congruent/STIM_027.jpg
3351.984	0.647	correct	congruent	Block3	congruent/STIM_028.jpg
3356.291	0.656	correct	congruent	Block3	congruent/STIM_028.jpg
3360.56	0.697	correct	congruent	Block3	congruent/STIM_028.jpg
3364.794	0.663	correct	congruent	Block3	congruent/STIM_028.jpg
3368.296	0.78	correct	congruent	Block3	congruent/STIM_028.jpg
3371.587	0.648	correct	congruent	Block3	congruent/STIM_029.jpg
3374.452	0.712	correct	congruent	Block3	congruent/STIM_029.jpg
3377.83	0.866	correct	congruent	Block3	congruent/STIM_029.jpg
3381.811	0.581	correct	congruent	Block3	congruent/STIM_029.jpg
3386.072	0.508	correct	congruent	Block3	congruent/STIM_029.jpg
