onset	duration	response_time_ms	trial_type	learning_stage	stimulus	response_port
0.0	1.631	1631.3	generate	Run1	generate/STIM_000.jpg	100
5.519	1.363	1363.1	generate	Run1	generate/STIM_000.jpg	100
9.958	1.751	1751.2	generate	Run1	generate/STIM_000.jpg	100
14.763	1.26	1259.5	generate	Run1	generate/STIM_000.jpg	100
19.125	1.346	1346.3	generate	Run1	generate/STIM_000.jpg	100
23.668	1.279	1279.0	generate	Run1	generate/STIM_001.jpg	100
27.287	1.566	1565.7	generate	Run1	generate/STIM_001.jpg	100
32.617	1.721	1720.6	generate	Run1	generate/STIM_001.jpg	100
36.944	1.396	1395.6	generate	Run1	generate/STIM_001.jpg	99
41.833	0.956	956.5	generate	Run1	generate/STIM_001.jpg	100
45.369	1.344	1344.5	generate	Run1	generate/STIM_002.jpg	100
50.348	1.792	1792.3	generate	Run1	generate/STIM_002.jpg	99
55.95	1.316	1316.3	generate	Run1	generate/STIM_002.jpg	99
61.298	1.542	1542.2	generate	Run1	generate/STIM_002.jpg	99
65.505	2.023	2022.6	generate	Run1	generate/STIM_002.jpg	100
70.34	2.164	2164.0	generate	Run1	generate/STIM_003.jpg	99
75.409	2.439	2438.9	generate	Run1	generate/STIM_003.jpg	99
82.045	1.353	1353.1	generate	Run1	generate/STIM_003.jpg	100
85.816	0.784	784.4	generate	Run1	generate/STIM_003.jpg	100
89.915	1.64	1640.1	generate	Run1	generate/STIM_003.jpg	99
93.981	1.698	1697.6	generate	Run1	generate/STIM_004.jpg	99
100.036	1.63	1629.7	generate	Run1	generate/STIM_004.jpg	100
105.063	1.226	1226.2	generate	Run1	generate/STIM_004.jpg	99
109.818	0.894	893.6	generate	Run1	generate/STIM_004.jpg	99
113.06	1.002	1001.8	generate	Run1	generate/STIM_004.jpg	99
117.698	1.659	1659.0	generate	Run1	generate/STIM_005.jpg	100
122.243	2.089	2088.7	generate	Run1	generate/STIM_005.jpg	100
127.979	1.051	1051.2	generate	Run1	generate/STIM_005.jpg	99
131.306	1.622	1622.4	generate	Run1	generate/STIM_005.jpg	99
136.657	1.709	1709.3	generate	Run1	generate/STIM_005.jpg	100
141.944	1.143	1142.6	generate	Run1	generate/STIM_006.jpg	99
146.125	2.134	2133.5	generate	Run1	generate/STIM_006.jpg	100
151.06	1.142	1142.1	generate	Run1	generate/STIM_006.jpg	100
156.236	1.441	1441.0	generate	Run1	generate/STIM_006.jpg	99
161.477	1.222	1222.1	generate	Run1	generate/STIM_006.jpg	99
165.896	2.348	2348.0	generate	Run1	generate/STIM_007.jpg	99
170.81	1.39	1390.1	generate	Run1	generate/STIM_007.jpg	99
175.144	1.354	1354.2	generate	Run1	generate/STIM_007.jpg	100
179.411	1.508	1508.2	generate	Run1	generate/STIM_007.jpg	100
183.366	1.117	1116.9	generate	Run1	generate/STIM_007.jpg	99
188.09	1.967	1966.7	generate	Run1	generate/STIM_008.jpg	100
193.495	1.938	1937.7	generate	Run1	generate/STIM_008.jpg	100
198.042	1.752	1751.5	generate	Run1	generate/STIM_008.jpg	99
203.796	0.943	943.1	generate	Run1	generate/STIM_008.jpg	100
208.675	1.484	1483.6	generate	Run1	generate/STIM_008.jpg	100
214.511	2.256	2255.5	generate	Run1	generate/STIM_009.jpg	100
219.713	2.293	2292.6	generate	Run1	generate/STIM_009.jpg	99
224.673	1.588	1587.7	generate	Run1	generate/STIM_009.jpg	99
228.534	1.553	1553.4	generate	Run1	generate/STIM_009.jpg	99
234.007	2.04	2040.3	generate	Run1	generate/STIM_009.jpg	100
239.392	1.467	1466.9	generate	Run1	generate/STIM_010.jpg	100
244.963	0.984	983.7	generate	Run1	generate/STIM_010.jpg	100
249.958	0.919	919.3	generate	Run1	generate/STIM_010.jpg	99
253.996	2.282	2281.6	generate	Run1	generate/STIM_010.jpg	99
258.998	1.28	1279.6	generate	Run1	generate/STIM_010.jpg	100
262.798	2.501	2501.3	generate	Run1	generate/STIM_011.jpg	99
268.107	1.492	1492.1	generate	Run1	generate/STIM_011.jpg	100
272.415	1.276	1276.3	generate	Run1	generate/STIM_011.jpg	99
277.473	1.078	1077.5	generate	Run1	generate/STIM_011.jpg	99
281.325	1.331	1330.9	generate	Run1	generate/STIM_011.jpg	99
285.04	1.754	1754.5	generate	Run1	generate/STIM_012.jpg	99
290.195	2.352	2351.5	generate	Run1	generate/STIM_012.jpg	100
295.346	1.502	1501.7	generate	Run1	generate/STIM_012.jpg	100
300.265	2.248	2248.2	generate	Run1	generate/STIM_012.jpg	99
306.758	1.062	1061.8	generate	Run1	generate/STIM_012.jpg	100
310.08	1.684	1683.6	generate	Run1	generate/STIM_013.jpg	99
315.335	1.108	1108.1	generate	Run1	generate/STIM_013.jpg	100
320.251	1.24	1239.6	generate	Run1	generate/STIM_013.jpg	99
323.985	2.152	2151.9	generate	Run1	generate/STIM_013.jpg	100
329.83	1.172	1172.5	generate	Run1	generate/STIM_013.jpg	99
335.169	2.599	2598.6	generate	Run1	generate/STIM_014.jpg	99
341.132	1.997	1996.6	generate	Run1	generate/STIM_014.jpg	100
347.447	1.505	1505.4	generate	Run1	generate/STIM_014.jpg	99
351.717	1.969	1969.0	generate	Run1	generate/STIM_014.jpg	100
356.286	1.141	1141.3	generate	Run1	generate/STIM_014.jpg	100
360.265	1.578	1578.4	generate	Run1	generate/STIM_015.jpg	100
365.693	1.832	1832.0	generate	Run1	generate/STIM_015.jpg	100
371.346	1.122	1121.7	generate	Run1	generate/STIM_015.jpg	99
376.73	1.433	1433.1	generate	Run1	generate/STIM_015.jpg	100
381.871	1.9	1899.6	generate	Run1	generate/STIM_015.jpg	100
386.263	1.672	1671.7	generate	Run1	generate/STIM_016.jpg	100
390.487	1.805	1805.2	generate	Run1	generate/STIM_016.jpg	99
394.501	1.831	1831.3	generate	Run1	generate/STIM_016.jpg	99
399.931	1.375	1375.4	generate	Run1	generate/STIM_016.jpg	100
404.496	1.443	1443.3	generate	Run1	generate/STIM_016.jpg	99
408.554	0.982	982.2	generate	Run1	generate/STIM_017.jpg	99
411.934	1.971	1970.9	generate	Run1	generate/STIM_017.jpg	100
417.975	0.975	974.8	generate	Run1	generate/STIM_017.jpg	100
422.304	1.269	1268.6	generate	Run1	generate/STIM_017.jpg	100
426.856	2.038	2038.4	generate	Run1	generate/STIM_017.jpg	100
431.375	1.084	1083.7	generate	Run1	generate/STIM_018.jpg	100
436.315	1.813	1813.1	generate	Run1	generate/STIM_018.jpg	100
441.478	1.67	1670.1	generate	Run1	generate/STIM_018.jpg	99
446.179	0.926	926.1	generate	Run1	generate/STIM_018.jpg	100
449.31	1.298	1298.3	generate	Run1	generate/STIM_018.jpg	99
454.261	2.444	2444.2	generate	Run1	generate/STIM_019.jpg	100
461.02	1.428	1428.0	generate	Run1	generate/STIM_019.jpg	100
466.442	1.983	1983.1	generate	Run1	generate/STIM_019.jpg	100
472.233	0.876	876.2	generate	Run1	generate/STIM_019.jpg	99
475.616	1.392	1392.5	generate	Run1	generate/STIM_019.jpg	99
479.805	1.186	1185.5	generate	Run1	generate/STIM_020.jpg	100
483.972	1.088	1087.8	generate	Run1	generate/STIM_020.jpg	99
488.562	1.107	1107.3	generate	Run1	generate/STIM_020.jpg	99
492.481	2.002	2001.8	generate	Run1	generate/STIM_020.jpg	99
497.394	1.808	1808.2	generate	Run1	generate/STIM_020.jpg	100
502.249	2.048	2048.2	generate	Run1	generate/STIM_021.jpg	99
507.404	1.584	1584.3	generate	Run1	generate/STIM_021.jpg	100
511.401	1.659	1658.9	generate	Run1	generate/STIM_021.jpg	99
515.76	1.475	1475.1	generate	Run1	generate/STIM_021.jpg	100
519.953	1.575	1575.2	generate	Run1	generate/STIM_021.jpg	99
524.933	1.272	1272.1	generate	Run1	generate/STIM_022.jpg	100
529.617	1.043	1043.1	generate	Run1	generate/STIM_022.jpg	100
533.996	1.495	1494.6	generate	Run1	generate/STIM_022.jpg	99
539.053	1.352	1352.4	generate	Run1	generate/STIM_022.jpg	99
543.138	0.977	976.6	generate	Run1	generate/STIM_022.jpg	100
546.6	1.454	1454.0	generate	Run1	generate/STIM_023.jpg	100
552.066	1.188	1188.1	generate	Run1	generate/STIM_023.jpg	100
555.796	1.707	1707.3	generate	Run1	generate/STIM_023.jpg	100
560.761	0.92	920.4	generate	Run1	generate/STIM_023.jpg	99
565.703	1.289	1289.0	generate	Run1	generate/STIM_023.jpg	99
569.613	1.488	1487.9	generate	Run1	generate/STIM_024.jpg	100
574.322	2.267	2267.2	generate	Run1	generate/STIM_024.jpg	100
579.692	1.146	1146.2	generate	Run1	generate/STIM_024.jpg	100
583.505	1.235	1235.4	generate	Run1	generate/STIM_024.jpg	99
587.674	0.876	876.3	generate	Run1	generate/STIM_024.jpg	99
591.161	0.627	626.9	repeat	Run1	repeat/STIM_000.jpg	100
594.389	0.884	884.0	repeat	Run1	repeat/STIM_000.jpg	100
598.147	0.367	367.1	repeat	Run1	repeat/STIM_000.jpg	99
601.255	0.573	572.9	repeat	Run1	repeat/STIM_000.jpg	100
604.235	0.612	612.3	repeat	Run1	repeat/STIM_000.jpg	99
608.318	0.41	410.3	repeat	Run1	repeat/STIM_001.jpg	99
612.282	0.498	497.6	repeat	Run1	repeat/STIM_001.jpg	100
616.528	0.377	376.8	repeat	Run1	repeat/STIM_001.jpg	99
619.626	0.729	728.6	repeat	Run1	repeat/STIM_001.jpg	99
623.691	0.443	443.0	repeat	Run1	repeat/STIM_001.jpg	99
627.565	0.592	591.6	repeat	Run1	repeat/STIM_002.jpg	99
631.382	0.754	754.4	repeat	Run1	repeat/STIM_002.jpg	99
634.359	0.841	840.9	repeat	Run1	repeat/STIM_002.jpg	99
637.448	0.498	497.6	repeat	Run1	repeat/STIM_002.jpg	99
640.641	0.595	595.0	repeat	Run1	repeat/STIM_002.jpg	99
644.971	0.519	518.7	repeat	Run1	repeat/STIM_003.jpg	100
648.996	0.405	405.1	repeat	Run1	repeat/STIM_003.jpg	99
652.177	0.547	546.8	repeat	Run1	repeat/STIM_003.jpg	100
655.975	0.649	648.6	repeat	Run1	repeat/STIM_003.jpg	99
659.303	0.626	625.6	repeat	Run1	repeat/STIM_003.jpg	99
662.457	0.636	636.1	repeat	Run1	repeat/STIM_004.jpg	100
666.331	0.493	493.4	repeat	Run1	repeat/STIM_004.jpg	100
669.332	0.566	565.6	repeat	Run1	repeat/STIM_004.jpg	99
673.142	0.685	684.7	repeat	Run1	repeat/STIM_004.jpg	100
677.164	0.504	503.7	repeat	Run1	repeat/STIM_004.jpg	99
681.168	0.619	618.6	repeat	Run1	repeat/STIM_005.jpg	100
685.651	0.702	701.5	repeat	Run1	repeat/STIM_005.jpg	99
690.068	0.87	870.4	repeat	Run1	repeat/STIM_005.jpg	100
694.851	0.846	846.2	repeat	Run1	repeat/STIM_005.jpg	99
699.284	0.444	443.7	repeat	Run1	repeat/STIM_005.jpg	100
703.622	0.339	339.0	repeat	Run1	repeat/STIM_006.jpg	99
707.627	0.646	646.5	repeat	Run1	repeat/STIM_006.jpg	99
712.238	0.591	591.2	repeat	Run1	repeat/STIM_006.jpg	99
714.951	0.644	643.9	repeat	Run1	repeat/STIM_006.jpg	99
718.049	0.707	707.1	repeat	Run1	repeat/STIM_006.jpg	99
722.436	0.574	573.5	repeat	Run1	repeat/STIM_007.jpg	99
727.085	0.476	476.2	repeat	Run1	repeat/STIM_007.jpg	99
730.46	0.56	560.2	repeat	Run1	repeat/STIM_007.jpg	100
734.084	0.623	623.1	repeat	Run1	repeat/STIM_007.jpg	100
738.239	0.86	860.3	repeat	Run1	repeat/STIM_007.jpg	99
742.378	0.599	599.4	repeat	Run1	repeat/STIM_008.jpg	100
746.659	0.419	419.4	repeat	Run1	repeat/STIM_008.jpg	99
751.076	0.556	556.1	repeat	Run1	repeat/STIM_008.jpg	99
755.282	0.39	389.7	repeat	Run1	repeat/STIM_008.jpg	99
758.066	0.743	742.6	repeat	Run1	repeat/STIM_008.jpg	100
761.635	0.664	664.4	repeat	Run1	repeat/STIM_009.jpg	99
764.868	0.828	827.6	repeat	Run1	repeat/STIM_009.jpg	99
769.315	0.835	834.6	repeat	Run1	repeat/STIM_009.jpg	100
773.807	0.651	651.1	repeat	Run1	repeat/STIM_009.jpg	99
778.238	0.898	897.9	repeat	Run1	repeat/STIM_009.jpg	100
781.432	0.623	622.9	repeat	Run1	repeat/STIM_010.jpg	100
785.938	0.638	637.6	repeat	Run1	repeat/STIM_010.jpg	100
790.494	0.543	543.4	repeat	Run1	repeat/STIM_010.jpg	99
794.21	0.677	677.0	repeat	Run1	repeat/STIM_010.jpg	99
798.918	0.823	823.4	repeat	Run1	repeat/STIM_010.jpg	100
802.361	0.607	606.7	repeat	Run1	repeat/STIM_011.jpg	100
805.334	0.671	671.1	repeat	Run1	repeat/STIM_011.jpg	99
808.813	0.527	526.8	repeat	Run1	repeat/STIM_011.jpg	100
811.654	0.748	748.4	repeat	Run1	repeat/STIM_011.jpg	99
815.381	0.545	544.8	repeat	Run1	repeat/STIM_011.jpg	99
818.861	0.758	757.6	repeat	Run1	repeat/STIM_012.jpg	99
822.254	0.646	645.7	repeat	Run1	repeat/STIM_012.jpg	100
826.931	0.753	753.3	repeat	Run1	repeat/STIM_012.jpg	100
831.544	0.799	799.1	repeat	Run1	repeat/STIM_012.jpg	99
835.857	0.572	572.1	repeat	Run1	repeat/STIM_012.jpg	99
839.645	0.8	800.1	repeat	Run1	repeat/STIM_013.jpg	100
843.767	0.819	819.4	repeat	Run1	repeat/STIM_013.jpg	99
848.045	0.389	389.4	repeat	Run1	repeat/STIM_013.jpg	99
850.918	0.588	587.6	repeat	Run1	repeat/STIM_013.jpg	100
854.231	0.678	678.0	repeat	Run1	repeat/STIM_013.jpg	100
857.687	0.691	690.7	repeat	Run1	repeat/STIM_014.jpg	99
862.426	0.534	533.9	repeat	Run1	repeat/STIM_014.jpg	100
865.082	0.705	705.4	repeat	Run1	repeat/STIM_014.jpg	99
869.461	0.557	556.9	repeat	Run1	repeat/STIM_014.jpg	100
873.312	0.541	541.4	repeat	Run1	repeat/STIM_014.jpg	99
876.656	1.061	1060.7	generate	Run2	generate/STIM_000.jpg	100
881.311	1.929	1928.9	generate	Run2	generate/STIM_000.jpg	99
887.185	1.292	1292.0	generate	Run2	generate/STIM_000.jpg	99
891.261	1.434	1433.6	generate	Run2	generate/STIM_000.jpg	100
896.542	1.606	1606.1	generate	Run2	generate/STIM_000.jpg	100
901.583	0.964	964.0	generate	Run2	generate/STIM_001.jpg	100
906.581	1.688	1687.5	generate	Run2	generate/STIM_001.jpg	99
912.379	1.747	1747.2	generate	Run2	generate/STIM_001.jpg	99
916.71	1.216	1216.3	generate	Run2	generate/STIM_001.jpg	99
920.542	0.801	800.8	generate	Run2	generate/STIM_001.jpg	99
924.736	0.973	973.4	generate	Run2	generate/STIM_002.jpg	99
928.042	1.657	1657.4	generate	Run2	generate/STIM_002.jpg	100
932.395	1.705	1705.2	generate	Run2	generate/STIM_002.jpg	100
937.697	1.694	1694.1	generate	Run2	generate/STIM_002.jpg	99
941.849	1.204	1203.6	generate	Run2	generate/STIM_002.jpg	99
946.213	1.591	1591.0	generate	Run2	generate/STIM_003.jpg	99
951.377	1.736	1735.5	generate	Run2	generate/STIM_003.jpg	100
956.656	1.255	1254.9	generate	Run2	generate/STIM_003.jpg	100
960.836	1.082	1082.2	generate	Run2	generate/STIM_003.jpg	99
965.743	0.979	978.6	generate	Run2	generate/STIM_003.jpg	100
970.812	1.84	1840.0	generate	Run2	generate/STIM_004.jpg	99
976.858	1.023	1023.3	generate	Run2	generate/STIM_004.jpg	100
980.43	0.864	864.5	generate	Run2	generate/STIM_004.jpg	100
983.505	1.176	1176.1	generate	Run2	generate/STIM_004.jpg	100
987.29	1.292	1291.9	generate	Run2	generate/STIM_004.jpg	100
991.833	1.228	1227.9	generate	Run2	generate/STIM_005.jpg	99
997.279	1.13	1130.5	generate	Run2	generate/STIM_005.jpg	99
1001.227	1.622	1622.2	generate	Run2	generate/STIM_005.jpg	100
1005.358	1.45	1450.2	generate	Run2	generate/STIM_005.jpg	100
1009.144	1.148	1148.0	generate	Run2	generate/STIM_005.jpg	99
1012.651	1.589	1589.4	generate	Run2	generate/STIM_006.jpg	99
1017.225	1.052	1051.9	generate	Run2	generate/STIM_006.jpg	99
1020.437	1.107	1107.1	generate	Run2	generate/STIM_006.jpg	99
1024.678	1.636	1635.8	generate	Run2	generate/STIM_006.jpg	99
1030.483	1.899	1899.2	generate	Run2	generate/STIM_006.jpg	100
1035.17	2.129	2128.7	generate	Run2	generate/STIM_007.jpg	100
1041.271	1.221	1220.7	generate	Run2	generate/STIM_007.jpg	100
1045.272	1.194	1194.1	generate	Run2	generate/STIM_007.jpg	100
1050.258	1.069	1069.3	generate	Run2	generate/STIM_007.jpg	100
1054.179	1.506	1505.5	generate	Run2	generate/STIM_007.jpg	99
1058.304	1.213	1213.1	generate	Run2	generate/STIM_008.jpg	99
1063.638	1.747	1747.1	generate	Run2	generate/STIM_008.jpg	99
1068.359	1.39	1389.5	generate	Run2	generate/STIM_008.jpg	99
1072.818	1.512	1511.7	generate	Run2	generate/STIM_008.jpg	99
1077.866	0.729	728.9	generate	Run2	generate/STIM_008.jpg	100
1081.534	1.115	1114.6	generate	Run2	generate/STIM_009.jpg	99
1085.31	1.214	1213.6	generate	Run2	generate/STIM_009.jpg	99
1088.891	0.872	872.0	generate	Run2	generate/STIM_009.jpg	99
1093.032	1.463	1463.1	generate	Run2	generate/STIM_009.jpg	99
1098.16	1.551	1550.9	generate	Run2	generate/STIM_009.jpg	99
1103.19	1.535	1534.6	generate	Run2	generate/STIM_010.jpg	99
1108.523	0.849	848.7	generate	Run2	generate/STIM_010.jpg	100
1113.29	1.857	1856.7	generate	Run2	generate/STIM_010.jpg	99
1117.687	0.96	959.5	generate	Run2	generate/STIM_010.jpg	99
1121.056	1.498	1497.6	generate	Run2	generate/STIM_010.jpg	99
1126.373	1.667	1666.6	generate	Run2	generate/STIM_011.jpg	99
1130.773	1.678	1678.1	generate	Run2	generate/STIM_011.jpg	100
1135.093	1.857	1857.3	generate	Run2	generate/STIM_011.jpg	100
1139.229	1.208	1208.5	generate	Run2	generate/STIM_011.jpg	99
1144.428	1.422	1422.5	generate	Run2	generate/STIM_011.jpg	100
1149.381	1.856	1855.8	generate	Run2	generate/STIM_012.jpg	99
1155.295	1.359	1358.6	generate	Run2	generate/STIM_012.jpg	99
1159.561	1.355	1354.8	generate	Run2	generate/STIM_012.jpg	99
1165.131	1.266	1266.2	generate	Run2	generate/STIM_012.jpg	99
1170.05	1.707	1706.8	generate	Run2	generate/STIM_012.jpg	99
1175.662	1.476	1476.2	generate	Run2	generate/STIM_013.jpg	99
1180.1	1.108	1108.4	generate	Run2	generate/STIM_013.jpg	99
1184.042	1.712	1711.6	generate	Run2	generate/STIM_013.jpg	99
1189.573	1.702	1701.5	generate	Run2	generate/STIM_013.jpg	99
1193.65	1.582	1582.5	generate	Run2	generate/STIM_013.jpg	100
1199.168	1.278	1278.0	generate	Run2	generate/STIM_014.jpg	100
1203.764	1.639	1639.2	generate	Run2	generate/STIM_014.jpg	99
1209.259	1.785	1785.3	generate	Run2	generate/STIM_014.jpg	100
1215.012	1.542	1542.0	generate	Run2	generate/STIM_014.jpg	99
1220.645	0.961	961.1	generate	Run2	generate/STIM_014.jpg	99
1224.623	2.008	2007.6	generate	Run2	generate/STIM_015.jpg	100
1230.153	1.295	1294.9	generate	Run2	generate/STIM_015.jpg	100
1235.113	1.279	1279.4	generate	Run2	generate/STIM_015.jpg	100
1239.736	1.664	1664.3	generate	Run2	generate/STIM_015.jpg	99
1245.19	0.758	757.7	generate	Run2	generate/STIM_015.jpg	99
1250.1	1.984	1983.5	generate	Run2	generate/STIM_016.jpg	99
1254.881	1.648	1647.5	generate	Run2	generate/STIM_016.jpg	100
1260.244	1.545	1544.6	generate	Run2	generate/STIM_016.jpg	99
1265.152	1.037	1037.0	generate	Run2	generate/STIM_016.jpg	100
1270.245	1.411	1410.8	generate	Run2	generate/STIM_016.jpg	100
1274.418	1.876	1875.6	generate	Run2	generate/STIM_017.jpg	100
1280.689	1.572	1572.5	generate	Run2	generate/STIM_017.jpg	100
1286.268	1.852	1852.2	generate	Run2	generate/STIM_017.jpg	100
1292.179	1.443	1443.4	generate	Run2	generate/STIM_017.jpg	100
1297.736	1.093	1092.7	generate	Run2	generate/STIM_017.jpg	100
1301.704	2.074	2074.3	generate	Run2	generate/STIM_018.jpg	99
1307.164	1.989	1988.7	generate	Run2	generate/STIM_018.jpg	100
1313.139	1.195	1195.3	generate	Run2	generate/STIM_018.jpg	99
1317.915	0.837	837.2	generate	Run2	generate/STIM_018.jpg	99
1320.993	1.067	1066.8	generate	Run2	generate/STIM_018.jpg	100
1325.297	1.908	1908.5	generate	Run2	generate/STIM_019.jpg	99
1329.648	1.075	1074.8	generate	Run2	generate/STIM_019.jpg	99
1332.93	1.679	1678.9	generate	Run2	generate/STIM_019.jpg	99
1337.39	0.781	780.6	generate	Run2	generate/STIM_019.jpg	99
1341.882	0.715	714.9	generate	Run2	generate/STIM_019.jpg	100
1345.378	1.063	1062.7	generate	Run2	generate/STIM_020.jpg	100
1349.692	1.002	1001.8	generate	Run2	generate/STIM_020.jpg	99
1353.91	1.115	1115.0	generate	Run2	generate/STIM_020.jpg	100
1358.625	0.805	804.9	generate	Run2	generate/STIM_020.jpg	100
1362.812	0.804	804.5	generate	Run2	generate/STIM_020.jpg	99
1367.283	2.056	2055.6	generate	Run2	generate/STIM_021.jpg	100
1372.244	1.252	1252.0	generate	Run2	generate/STIM_021.jpg	100
1377.303	0.815	815.0	generate	Run2	generate/STIM_021.jpg	99
1380.965	1.265	1265.2	generate	Run2	generate/STIM_021.jpg	99
1385.079	1.006	1005.5	generate	Run2	generate/STIM_021.jpg	99
1389.414	1.661	1660.8	generate	Run2	generate/STIM_022.jpg	99
1393.585	1.304	1304.2	generate	Run2	generate/STIM_022.jpg	99
1397.783	1.423	1422.8	generate	Run2	generate/STIM_022.jpg	100
1401.705	1.435	1435.2	generate	Run2	generate/STIM_022.jpg	99
1406.015	0.774	773.5	generate	Run2	generate/STIM_022.jpg	100
1410.269	1.719	1719.4	generate	Run2	generate/STIM_023.jpg	100
1415.065	1.023	1023.1	generate	Run2	generate/STIM_023.jpg	99
1418.858	0.908	907.6	generate	Run2	generate/STIM_023.jpg	99
1423.775	1.459	1458.8	generate	Run2	generate/STIM_023.jpg	99
1429.289	1.697	1696.6	generate	Run2	generate/STIM_023.jpg	100
1434.846	1.158	1158.0	generate	Run2	generate/STIM_024.jpg	99
1438.517	2.072	2071.6	generate	Run2	generate/STIM_024.jpg	99
1443.367	1.418	1418.4	generate	Run2	generate/STIM_024.jpg	99
1448.078	1.53	1529.9	generate	Run2	generate/STIM_024.jpg	99
1453.208	1.325	1325.2	generate	Run2	generate/STIM_024.jpg	99
1457.968	0.75	750.0	repeat	Run2	repeat/STIM_000.jpg	100
1462.177	0.582	582.3	repeat	Run2	repeat/STIM_000.jpg	100
1466.108	0.792	791.8	repeat	Run2	repeat/STIM_000.jpg	99
1470.98	0.6	599.8	repeat	Run2	repeat/STIM_000.jpg	100
1475.558	0.434	433.8	repeat	Run2	repeat/STIM_000.jpg	100
1479.029	0.676	676.1	repeat	Run2	repeat/STIM_001.jpg	99
1482.296	0.556	555.6	repeat	Run2	repeat/STIM_001.jpg	99
1486.006	0.589	588.6	repeat	Run2	repeat/STIM_001.jpg	99
1489.962	0.586	586.3	repeat	Run2	repeat/STIM_001.jpg	99
1494.288	0.76	760.3	repeat	Run2	repeat/STIM_001.jpg	99
1498.66	0.808	807.9	repeat	Run2	repeat/STIM_002.jpg	100
1501.677	0.631	630.9	repeat	Run2	repeat/STIM_002.jpg	99
1504.576	0.47	470.5	repeat	Run2	repeat/STIM_002.jpg	99
1507.905	0.611	611.1	repeat	Run2	repeat/STIM_002.jpg	100
1511.955	0.876	876.0	repeat	Run2	repeat/STIM_002.jpg	99
1515.036	0.487	486.8	repeat	Run2	repeat/STIM_003.jpg	100
1519.508	0.505	505.2	repeat	Run2	repeat/STIM_003.jpg	99
1523.508	0.456	455.5	repeat	Run2	repeat/STIM_003.jpg	100
1527.14	0.528	528.2	repeat	Run2	repeat/STIM_003.jpg	99
1531.714	0.716	715.7	repeat	Run2	repeat/STIM_003.jpg	99
1534.521	0.56	559.8	repeat	Run2	repeat/STIM_004.jpg	99
1537.534	0.663	662.7	repeat	Run2	repeat/STIM_004.jpg	100
1541.787	0.61	610.0	repeat	Run2	repeat/STIM_004.jpg	99
1544.625	0.732	732.0	repeat	Run2	repeat/STIM_004.jpg	100
1548.305	0.634	633.5	repeat	Run2	repeat/STIM_004.jpg	99
1551.632	0.795	795.4	repeat	Run2	repeat/STIM_005.jpg	100
1556.222	0.6	600.1	repeat	Run2	repeat/STIM_005.jpg	100
1559.754	0.487	486.7	repeat	Run2	repeat/STIM_005.jpg	99
1562.461	0.664	663.6	repeat	Run2	repeat/STIM_005.jpg	99
1566.991	0.636	636.3	repeat	Run2	repeat/STIM_005.jpg	100
1570.714	0.499	498.6	repeat	Run2	repeat/STIM_006.jpg	99
1573.439	0.737	736.9	repeat	Run2	repeat/STIM_006.jpg	99
1577.535	0.485	485.0	repeat	Run2	repeat/STIM_006.jpg	100
1581.636	0.764	763.7	repeat	Run2	repeat/STIM_006.jpg	99
1585.208	0.702	702.3	repeat	Run2	repeat/STIM_006.jpg	99
1589.114	0.778	777.7	repeat	Run2	repeat/STIM_007.jpg	100
1593.67	0.66	659.5	repeat	Run2	repeat/STIM_007.jpg	100
1596.651	0.516	516.0	repeat	Run2	repeat/STIM_007.jpg	100
1599.365	0.854	853.7	repeat	Run2	repeat/STIM_007.jpg	99
1604.091	0.597	596.7	repeat	Run2	repeat/STIM_007.jpg	99
1607.805	0.819	819.2	repeat	Run2	repeat/STIM_008.jpg	100
1611.108	0.728	727.7	repeat	Run2	repeat/STIM_008.jpg	99
1614.751	0.856	856.2	repeat	Run2	repeat/STIM_008.jpg	100
1618.659	0.731	730.8	repeat	Run2	repeat/STIM_008.jpg	99
1622.083	0.678	677.5	repeat	Run2	repeat/STIM_008.jpg	99
1625.667	0.656	655.7	repeat	Run2	repeat/STIM_009.jpg	100
1630.01	0.878	878.2	repeat	Run2	repeat/STIM_009.jpg	99
1634.632	0.567	566.8	repeat	Run2	repeat/STIM_009.jpg	99
1638.385	0.734	734.1	repeat	Run2	repeat/STIM_009.jpg	99
1642.171	0.391	391.3	repeat	Run2	repeat/STIM_009.jpg	100
1644.717	0.751	751.1	repeat	Run2	repeat/STIM_010.jpg	100
1647.908	0.829	829.2	repeat	Run2	repeat/STIM_010.jpg	100
1652.333	0.935	934.8	repeat	Run2	repeat/STIM_010.jpg	99
1655.895	0.5	499.7	repeat	Run2	repeat/STIM_010.jpg	99
1659.878	0.879	878.9	repeat	Run2	repeat/STIM_010.jpg	100
1664.169	0.627	627.1	repeat	Run2	repeat/STIM_011.jpg	99
1668.556	0.571	570.6	repeat	Run2	repeat/STIM_011.jpg	100
1672.156	0.653	653.2	repeat	Run2	repeat/STIM_011.jpg	99
1675.612	0.848	848.4	repeat	Run2	repeat/STIM_011.jpg	99
1679.204	0.544	544.3	repeat	Run2	repeat/STIM_011.jpg	100
1681.75	0.681	681.4	repeat	Run2	repeat/STIM_012.jpg	100
1685.577	0.385	384.9	repeat	Run2	repeat/STIM_012.jpg	99
1689.73	0.584	583.5	repeat	Run2	repeat/STIM_012.jpg	99
1693.029	0.826	826.0	repeat	Run2	repeat/STIM_012.jpg	100
1697.507	0.876	875.9	repeat	Run2	repeat/STIM_012.jpg	100
1701.755	0.582	582.1	repeat	Run2	repeat/STIM_013.jpg	99
1706.165	0.844	844.5	repeat	Run2	repeat/STIM_013.jpg	100
1709.409	0.518	518.2	repeat	Run2	repeat/STIM_013.jpg	100
1713.285	0.481	480.7	repeat	Run2	repeat/STIM_013.jpg	99
1716.429	0.451	450.6	repeat	Run2	repeat/STIM_013.jpg	99
1720.43	0.889	889.3	repeat	Run2	repeat/STIM_014.jpg	100
1725.335	0.892	892.5	repeat	Run2	repeat/STIM_014.jpg	99
1729.663	0.553	553.4	repeat	Run2	repeat/STIM_014.jpg	99
1732.72	0.39	390.2	repeat	Run2	repeat/STIM_014.jpg	100
1736.436	0.848	847.7	repeat	Run2	repeat/STIM_014.jpg	99
1740.448	1.33	1330.5	generate	Run3	generate/STIM_000.jpg	99
1744.24	0.862	862.5	generate	Run3	generate/STIM_000.jpg	100
1748.967	0.985	984.9	generate	Run3	generate/STIM_000.jpg	99
1752.283	1.089	1089.4	generate	Run3	generate/STIM_000.jpg	100
1755.642	1.235	1234.7	generate	Run3	generate/STIM_000.jpg	99
1759.817	1.43	1430.1	generate	Run3	generate/STIM_001.jpg	100
1764.812	1.12	1119.6	generate	Run3	generate/STIM_001.jpg	100
1769.049	1.636	1636.4	generate	Run3	generate/STIM_001.jpg	99
1773.981	1.118	1117.8	generate	Run3	generate/STIM_001.jpg	100
1778.917	1.575	1575.1	generate	Run3	generate/STIM_001.jpg	100
1784.045	0.738	737.6	generate	Run3	generate/STIM_002.jpg	99
1788.831	1.073	1073.1	generate	Run3	generate/STIM_002.jpg	99
1792.632	1.143	1143.3	generate	Run3	generate/STIM_002.jpg	99
1797.506	1.237	1237.1	generate	Run3	generate/STIM_002.jpg	99
1802.722	1.784	1783.8	generate	Run3	generate/STIM_002.jpg	99
1808.532	0.701	701.3	generate	Run3	generate/STIM_003.jpg	100
1811.737	1.348	1347.7	generate	Run3	generate/STIM_003.jpg	100
1816.194	1.498	1498.4	generate	Run3	generate/STIM_003.jpg	99
1821.715	1.128	1128.0	generate	Run3	generate/STIM_003.jpg	99
1825.694	0.775	774.7	generate	Run3	generate/STIM_003.jpg	100
1829.737	0.898	897.8	generate	Run3	generate/STIM_004.jpg	100
1834.604	1.758	1758.3	generate	Run3	generate/STIM_004.jpg	99
1839.601	1.463	1463.4	generate	Run3	generate/STIM_004.jpg	100
1843.334	1.102	1102.5	generate	Run3	generate/STIM_004.jpg	100
1847.542	0.963	962.6	generate	Run3	generate/STIM_004.jpg	99
1851.175	1.672	1671.6	generate	Run3	generate/STIM_005.jpg	99
1855.38	0.916	916.5	generate	Run3	generate/STIM_005.jpg	100
1860.129	0.784	784.4	generate	Run3	generate/STIM_005.jpg	100
1863.111	1.57	1569.9	generate	Run3	generate/STIM_005.jpg	99
1868.435	0.848	848.5	generate	Run3	generate/STIM_005.jpg	100
1872.541	0.744	744.0	generate	Run3	generate/STIM_006.jpg	100
1877.222	1.245	1245.1	generate	Run3	generate/STIM_006.jpg	99
1880.693	1.104	1103.6	generate	Run3	generate/STIM_006.jpg	99
1885.063	1.638	1638.5	generate	Run3	generate/STIM_006.jpg	100
1890.602	0.946	946.5	generate	Run3	generate/STIM_006.jpg	99
1894.314	1.573	1573.3	generate	Run3	generate/STIM_007.jpg	100
1899.528	0.843	842.6	generate	Run3	generate/STIM_007.jpg	100
1903.848	1.455	1455.4	generate	Run3	generate/STIM_007.jpg	99
1907.699	1.256	1255.7	generate	Run3	generate/STIM_007.jpg	99
1911.841	0.808	808.3	generate	Run3	generate/STIM_007.jpg	99
1916.163	0.861	861.2	generate	Run3	generate/STIM_008.jpg	99
1920.928	1.825	1825.4	generate	Run3	generate/STIM_008.jpg	99
1925.032	1.513	1513.3	generate	Run3	generate/STIM_008.jpg	99
1930.18	1.025	1024.9	generate	Run3	generate/STIM_008.jpg	100
1934.769	0.768	767.5	generate	Run3	generate/STIM_008.jpg	100
1937.972	0.838	837.5	generate	Run3	generate/STIM_009.jpg	100
1942.374	1.008	1007.8	generate	Run3	generate/STIM_009.jpg	100
1945.773	1.373	1372.7	generate	Run3	generate/STIM_009.jpg	99
1950.117	1.677	1677.0	generate	Run3	generate/STIM_009.jpg	99
1954.729	1.439	1438.9	generate	Run3	generate/STIM_009.jpg	99
1960.223	1.065	1065.0	generate	Run3	generate/STIM_010.jpg	99
1964.058	0.695	695.3	generate	Run3	generate/STIM_010.jpg	100
1967.653	1.374	1374.2	generate	Run3	generate/STIM_010.jpg	99
1972.236	1.59	1589.9	generate	Run3	generate/STIM_010.jpg	100
1976.929	0.959	959.1	generate	Run3	generate/STIM_010.jpg	99
1981.463	1.535	1534.7	generate	Run3	generate/STIM_011.jpg	100
1985.943	1.057	1056.9	generate	Run3	generate/STIM_011.jpg	100
1990.409	0.738	737.7	generate	Run3	generate/STIM_011.jpg	99
1993.648	1.368	1368.2	generate	Run3	generate/STIM_011.jpg	100
1997.616	1.28	1279.6	generate	Run3	generate/STIM_011.jpg	99
2002.485	0.913	913.1	generate	Run3	generate/STIM_012.jpg	100
2006.56	1.626	1625.5	generate	Run3	generate/STIM_012.jpg	99
2011.611	1.633	1633.2	generate	Run3	generate/STIM_012.jpg	100
2017.17	1.762	1762.3	generate	Run3	generate/STIM_012.jpg	100
2022.964	1.356	1356.5	generate	Run3	generate/STIM_012.jpg	100
2028.471	1.165	1165.1	generate	Run3	generate/STIM_013.jpg	99
2033.017	1.322	1322.5	generate	Run3	generate/STIM_013.jpg	99
2036.828	1.678	1678.4	generate	Run3	generate/STIM_013.jpg	100
2042.583	1.064	1064.2	generate	Run3	generate/STIM_013.jpg	99
2046.709	1.338	1338.1	generate	Run3	generate/STIM_013.jpg	100
2050.443	1.169	1169.1	generate	Run3	generate/STIM_014.jpg	100
2055.293	1.296	1295.7	generate	Run3	generate/STIM_014.jpg	100
2059.166	1.513	1513.2	generate	Run3	generate/STIM_014.jpg	100
2063.561	1.583	1583.3	generate	Run3	generate/STIM_014.jpg	100
2069.145	0.72	720.0	generate	Run3	generate/STIM_014.jpg	100
2072.557	1.7	1700.2	generate	Run3	generate/STIM_015.jpg	100
2078.444	1.398	1398.0	generate	Run3	generate/STIM_015.jpg	100
2083.749	0.708	707.7	generate	Run3	generate/STIM_015.jpg	100
2087.727	1.329	1329.0	generate	Run3	generate/STIM_015.jpg	99
2092.809	1.476	1476.3	generate	Run3	generate/STIM_015.jpg	99
2096.723	0.802	802.0	generate	Run3	generate/STIM_016.jpg	100
2101.357	0.691	690.6	generate	Run3	generate/STIM_016.jpg	99
2105.69	1.253	1252.6	generate	Run3	generate/STIM_016.jpg	99
2109.72	1.21	1209.9	generate	Run3	generate/STIM_016.jpg	100
2114.917	1.053	1052.6	generate	Run3	generate/STIM_016.jpg	99
2118.569	0.779	778.6	generate	Run3	generate/STIM_017.jpg	100
2123.157	1.134	1134.5	generate	Run3	generate/STIM_017.jpg	99
2127.483	1.604	1603.6	generate	Run3	generate/STIM_017.jpg	100
2133.17	1.169	1169.4	generate	Run3	generate/STIM_017.jpg	100
2137.244	1.825	1825.2	generate	Run3	generate/STIM_017.jpg	100
2142.208	1.354	1353.5	generate	Run3	generate/STIM_018.jpg	100
2146.099	0.926	926.0	generate	Run3	generate/STIM_018.jpg	100
2149.421	1.09	1089.8	generate	Run3	generate/STIM_018.jpg	100
2153.057	1.285	1285.2	generate	Run3	generate/STIM_018.jpg	99
2156.611	0.687	687.4	generate	Run3	generate/STIM_018.jpg	99
2160.682	0.965	964.6	generate	Run3	generate/STIM_019.jpg	99
2164.733	1.144	1143.8	generate	Run3	generate/STIM_019.jpg	99
2169.777	1.263	1262.9	generate	Run3	generate/STIM_019.jpg	99
2175.149	1.442	1442.3	generate	Run3	generate/STIM_019.jpg	100
2179.204	0.928	928.5	generate	Run3	generate/STIM_019.jpg	99
2183.685	1.57	1570.2	generate	Run3	generate/STIM_020.jpg	99
2188.796	1.142	1141.9	generate	Run3	generate/STIM_020.jpg	100
2193.61	1.028	1027.6	generate	Run3	generate/STIM_020.jpg	99
2197.868	1.704	1704.1	generate	Run3	generate/STIM_020.jpg	100
2203.209	0.768	768.4	generate	Run3	generate/STIM_020.jpg	100
2207.649	1.133	1133.2	generate	Run3	generate/STIM_021.jpg	99
2212.42	1.511	1511.2	generate	Run3	generate/STIM_021.jpg	99
2218.071	1.3	1299.8	generate	Run3	generate/STIM_021.jpg	100
2222.164	1.023	1022.7	generate	Run3	generate/STIM_021.jpg	100
2227.147	1.668	1668.4	generate	Run3	generate/STIM_021.jpg	100
2232.562	1.366	1365.9	generate	Run3	generate/STIM_022.jpg	100
2238.004	1.373	1373.1	generate	Run3	generate/STIM_022.jpg	100
2242.33	0.844	843.8	generate	Run3	generate/STIM_022.jpg	100
2245.678	1.262	1262.0	generate	Run3	generate/STIM_022.jpg	99
2249.392	1.103	1103.1	generate	Run3	generate/STIM_022.jpg	100
2254.489	0.967	967.0	generate	Run3	generate/STIM_023.jpg	99
2258.203	1.409	1409.2	generate	Run3	generate/STIM_023.jpg	100
2262.048	1.539	1539.2	generate	Run3	generate/STIM_023.jpg	99
2267.776	1.357	1357.2	generate	Run3	generate/STIM_023.jpg	99
2272.973	1.098	1097.8	generate	Run3	generate/STIM_023.jpg	100
2276.385	1.15	1150.0	generate	Run3	generate/STIM_024.jpg	100
2279.864	1.331	1330.6	generate	Run3	generate/STIM_024.jpg	99
2283.786	1.702	1702.5	generate	Run3	generate/STIM_024.jpg	99
2288.624	1.353	1353.3	generate	Run3	generate/STIM_024.jpg	99
2293.629	1.137	1136.6	generate	Run3	generate/STIM_024.jpg	100
2298.675	0.687	686.6	repeat	Run3	repeat/STIM_000.jpg	100
2302.141	0.809	809.1	repeat	Run3	repeat/STIM_000.jpg	100
2305.109	0.858	858.5	repeat	Run3	repeat/STIM_000.jpg	99
2308.513	0.737	736.9	repeat	Run3	repeat/STIM_000.jpg	100
2312.056	0.835	835.4	repeat	Run3	repeat/STIM_000.jpg	99
2316.271	0.655	655.1	repeat	Run3	repeat/STIM_001.jpg	99
2321.05	0.847	847.3	repeat	Run3	repeat/STIM_001.jpg	100
2325.822	0.901	900.8	repeat	Run3	repeat/STIM_001.jpg	99
2330.023	0.692	691.9	repeat	Run3	repeat/STIM_001.jpg	99
2334.234	0.656	655.6	repeat	Run3	repeat/STIM_001.jpg	99
2338.023	0.758	757.6	repeat	Run3	repeat/STIM_002.jpg	99
2341.588	0.686	686.3	repeat	Run3	repeat/STIM_002.jpg	99
2344.952	0.569	569.4	repeat	Run3	repeat/STIM_002.jpg	100
2348.555	0.612	612.1	repeat	Run3	repeat/STIM_002.jpg	100
2351.441	0.605	605.3	repeat	Run3	repeat/STIM_002.jpg	99
2355.787	0.684	684.0	repeat	Run3	repeat/STIM_003.jpg	99
2359.284	0.742	742.0	repeat	Run3	repeat/STIM_003.jpg	100
2364.055	0.622	622.5	repeat	Run3	repeat/STIM_003.jpg	100
2366.992	0.62	620.3	repeat	Run3	repeat/STIM_003.jpg	100
2370.095	0.662	662.1	repeat	Run3	repeat/STIM_003.jpg	99
2373.559	0.632	631.9	repeat	Run3	repeat/STIM_004.jpg	99
2376.732	0.45	450.0	repeat	Run3	repeat/STIM_004.jpg	100
2380.564	0.828	827.7	repeat	Run3	repeat/STIM_004.jpg	100
2384.681	0.823	822.6	repeat	Run3	repeat/STIM_004.jpg	100
2389.023	0.454	454.4	repeat	Run3	repeat/STIM_004.jpg	100
2393.309	0.636	635.7	repeat	Run3	repeat/STIM_005.jpg	99
2396.295	0.89	889.6	repeat	Run3	repeat/STIM_005.jpg	99
2399.337	0.684	684.0	repeat	Run3	repeat/STIM_005.jpg	100
2402.541	0.764	763.6	repeat	Run3	repeat/STIM_005.jpg	100
2406.655	0.503	503.4	repeat	Run3	repeat/STIM_005.jpg	99
2410.98	0.896	895.9	repeat	Run3	repeat/STIM_006.jpg	99
2414.181	0.448	447.6	repeat	Run3	repeat/STIM_006.jpg	99
2417.948	0.876	876.3	repeat	Run3	repeat/STIM_006.jpg	99
2422.741	0.884	883.7	repeat	Run3	repeat/STIM_006.jpg	100
2426.821	0.638	637.7	repeat	Run3	repeat/STIM_006.jpg	100
2430.541	0.705	704.9	repeat	Run3	repeat/STIM_007.jpg	99
2433.905	0.908	908.0	repeat	Run3	repeat/STIM_007.jpg	100
2438.156	0.481	481.3	repeat	Run3	repeat/STIM_007.jpg	100
2440.9	0.767	767.2	repeat	Run3	repeat/STIM_007.jpg	100
2444.968	0.632	631.6	repeat	Run3	repeat/STIM_007.jpg	100
2448.272	0.814	814.1	repeat	Run3	repeat/STIM_008.jpg	100
2451.86	0.663	663.0	repeat	Run3	repeat/STIM_008.jpg	100
2455.792	0.629	629.4	repeat	Run3	repeat/STIM_008.jpg	100
2459.428	0.453	453.0	repeat	Run3	repeat/STIM_008.jpg	99
2462.409	0.422	422.5	repeat	Run3	repeat/STIM_008.jpg	100
2464.957	0.487	487.2	repeat	Run3	repeat/STIM_009.jpg	100
2469.458	0.628	627.5	repeat	Run3	repeat/STIM_009.jpg	100
2472.566	0.764	764.3	repeat	Run3	repeat/STIM_009.jpg	99
2475.592	0.525	525.2	repeat	Run3	repeat/STIM_009.jpg	100
2479.805	0.399	398.7	repeat	Run3	repeat/STIM_009.jpg	99
2483.145	0.804	804.1	repeat	Run3	repeat/STIM_010.jpg	100
2485.979	0.727	726.6	repeat	Run3	repeat/STIM_010.jpg	100
2489.571	0.722	721.6	repeat	Run3	repeat/STIM_010.jpg	99
2492.751	0.482	482.2	repeat	Run3	repeat/STIM_010.jpg	99
2496.321	0.721	720.8	repeat	Run3	repeat/STIM_010.jpg	100
2499.972	0.569	569.1	repeat	Run3	repeat/STIM_011.jpg	100
2502.83	0.839	839.4	repeat	Run3	repeat/STIM_011.jpg	99
2507.193	0.635	635.1	repeat	Run3	repeat/STIM_011.jpg	100
2510.979	0.826	826.3	repeat	Run3	repeat/STIM_011.jpg	100
2515.264	0.425	425.2	repeat	Run3	repeat/STIM_011.jpg	100
2519.17	0.875	875.0	repeat	Run3	repeat/STIM_012.jpg	99
2522.98	0.538	538.2	repeat	Run3	repeat/STIM_012.jpg	100
2527.122	0.755	755.3	repeat	Run3	repeat/STIM_012.jpg	99
2530.957	0.788	788.2	repeat	Run3	repeat/STIM_012.jpg	99
2534.349	0.581	581.3	repeat	Run3	repeat/STIM_012.jpg	99
2538.821	0.761	761.4	repeat	Run3	repeat/STIM_013.jpg	100
2541.897	0.638	637.7	repeat	Run3	repeat/STIM_013.jpg	99
2545.153	0.696	695.9	repeat	Run3	repeat/STIM_013.jpg	99
2549.227	0.8	800.3	repeat	Run3	repeat/STIM_013.jpg	99
2554.028	0.663	662.8	repeat	Run3	repeat/STIM_013.jpg	100
2556.825	0.444	443.9	repeat	Run3	repeat/STIM_014.jpg	99
2559.65	0.489	489.1	repeat	Run3	repeat/STIM_014.jpg	99
2563.778	0.649	648.9	repeat	Run3	repeat/STIM_014.jpg	99
2568.348	0.74	740.2	repeat	Run3	repeat/STIM_014.jpg	100
2572.541	0.706	705.9	repeat	Run3	repeat/STIM_014.jpg	99
2576.135	1.321	1321.3	generate	Run4	generate/STIM_000.jpg	100
2580.308	1.308	1307.8	generate	Run4	generate/STIM_000.jpg	99
2585.159	1.587	1587.4	generate	Run4	generate/STIM_000.jpg	99
2590.302	1.781	1781.1	generate	Run4	generate/STIM_000.jpg	100
2594.837	0.915	915.2	generate	Run4	generate/STIM_000.jpg	100
2598.044	0.875	875.3	generate	Run4	generate/STIM_001.jpg	100
2601.444	0.822	821.8	generate	Run4	generate/STIM_001.jpg	100
2604.691	0.883	883.1	generate	Run4	generate/STIM_001.jpg	99
2607.931	0.982	981.9	generate	Run4	generate/STIM_001.jpg	99
2611.202	0.927	927.1	generate	Run4	generate/STIM_001.jpg	100
2615.781	1.501	1500.9	generate	Run4	generate/STIM_002.jpg	100
2620.424	0.9	899.5	generate	Run4	generate/STIM_002.jpg	99
2625.291	1.586	1585.9	generate	Run4	generate/STIM_002.jpg	99
2630.615	1.244	1244.0	generate	Run4	generate/STIM_002.jpg	99
2634.215	1.363	1362.8	generate	Run4	generate/STIM_002.jpg	99
2638.956	1.194	1194.0	generate	Run4	generate/STIM_003.jpg	99
2643.262	1.407	1406.7	generate	Run4	generate/STIM_003.jpg	99
2647.553	0.993	992.9	generate	Run4	generate/STIM_003.jpg	99
2650.925	1.688	1688.1	generate	Run4	generate/STIM_003.jpg	99
2656.559	1.494	1493.7	generate	Run4	generate/STIM_003.jpg	100
2661.609	1.344	1343.7	generate	Run4	generate/STIM_004.jpg	99
2667.011	1.218	1218.4	generate	Run4	generate/STIM_004.jpg	100
2670.788	1.209	1208.7	generate	Run4	generate/STIM_004.jpg	100
2675.352	1.228	1228.2	generate	Run4	generate/STIM_004.jpg	100
2680.2	1.042	1042.1	generate	Run4	generate/STIM_004.jpg	99
2685.044	1.227	1226.9	generate	Run4	generate/STIM_005.jpg	100
2690.309	0.888	888.0	generate	Run4	generate/STIM_005.jpg	100
2693.888	0.767	766.8	generate	Run4	generate/STIM_005.jpg	100
2698.334	0.827	827.3	generate	Run4	generate/STIM_005.jpg	99
2703.326	0.886	886.4	generate	Run4	generate/STIM_005.jpg	99
2706.625	1.765	1764.7	generate	Run4	generate/STIM_006.jpg	100
2712.545	1.607	1607.3	generate	Run4	generate/STIM_006.jpg	100
2716.721	0.831	831.1	generate	Run4	generate/STIM_006.jpg	99
2721.094	1.401	1400.6	generate	Run4	generate/STIM_006.jpg	100
2726.655	1.592	1592.0	generate	Run4	generate/STIM_006.jpg	100
2730.603	0.946	946.2	generate	Run4	generate/STIM_007.jpg	100
2735.099	1.668	1668.4	generate	Run4	generate/STIM_007.jpg	99
2739.343	1.097	1097.1	generate	Run4	generate/STIM_007.jpg	99
2743.257	1.142	1141.5	generate	Run4	generate/STIM_007.jpg	100
2746.648	1.701	1701.3	generate	Run4	generate/STIM_007.jpg	100
2752.557	1.588	1587.5	generate	Run4	generate/STIM_008.jpg	99
2757.125	1.342	1341.7	generate	Run4	generate/STIM_008.jpg	100
2761.239	1.546	1545.5	generate	Run4	generate/STIM_008.jpg	100
2766.872	1.584	1584.3	generate	Run4	generate/STIM_008.jpg	100
2771.882	1.532	1532.4	generate	Run4	generate/STIM_008.jpg	100
2775.644	0.802	802.2	generate	Run4	generate/STIM_009.jpg	99
2779.409	0.724	724.2	generate	Run4	generate/STIM_009.jpg	100
2784.253	1.404	1404.1	generate	Run4	generate/STIM_009.jpg	100
2789.113	0.71	710.0	generate	Run4	generate/STIM_009.jpg	100
2792.409	0.991	991.1	generate	Run4	generate/STIM_009.jpg	99
2796.872	0.869	868.8	generate	Run4	generate/STIM_010.jpg	100
2800.288	1.288	1287.6	generate	Run4	generate/STIM_010.jpg	99
2804.688	1.61	1609.7	generate	Run4	generate/STIM_010.jpg	99
2809.219	1.543	1542.8	generate	Run4	generate/STIM_010.jpg	99
2814.995	1.445	1445.0	generate	Run4	generate/STIM_010.jpg	100
2818.667	1.369	1368.8	generate	Run4	generate/STIM_011.jpg	100
2824.219	0.708	708.2	generate	Run4	generate/STIM_011.jpg	99
2827.852	1.746	1746.5	generate	Run4	generate/STIM_011.jpg	99
2833.008	1.373	1372.8	generate	Run4	generate/STIM_011.jpg	100
2836.727	1.368	1368.2	generate	Run4	generate/STIM_011.jpg	100
2841.425	0.961	961.3	generate	Run4	generate/STIM_012.jpg	99
2845.024	1.058	1058.4	generate	Run4	generate/STIM_012.jpg	99
2849.757	0.902	902.3	generate	Run4	generate/STIM_012.jpg	99
2852.825	1.408	1407.7	generate	Run4	generate/STIM_012.jpg	99
2857.719	1.558	1557.6	generate	Run4	generate/STIM_012.jpg	99
2862.135	1.421	1420.9	generate	Run4	generate/STIM_013.jpg	99
2865.989	1.613	1612.7	generate	Run4	generate/STIM_013.jpg	99
2871.853	1.539	1539.1	generate	Run4	generate/STIM_013.jpg	99
2875.786	1.246	1246.5	generate	Run4	generate/STIM_013.jpg	100
2880.13	0.818	817.9	generate	Run4	generate/STIM_013.jpg	99
2885.008	1.576	1576.5	generate	Run4	generate/STIM_014.jpg	99
2889.746	1.642	1641.9	generate	Run4	generate/STIM_014.jpg	99
2895.662	0.901	900.6	generate	Run4	generate/STIM_014.jpg	100
2899.305	1.173	1173.1	generate	Run4	generate/STIM_014.jpg	99
2903.806	1.594	1593.6	generate	Run4	generate/STIM_014.jpg	99
2908.076	1.295	1295.2	generate	Run4	generate/STIM_015.jpg	100
2912.121	1.423	1422.9	generate	Run4	generate/STIM_015.jpg	100
2916.627	0.788	788.3	generate	Run4	generate/STIM_015.jpg	99
2920.592	1.129	1129.2	generate	Run4	generate/STIM_015.jpg	99
2924.569	1.295	1294.8	generate	Run4	generate/STIM_015.jpg	100
2928.409	1.48	1479.7	generate	Run4	generate/STIM_016.jpg	100
2934.085	1.498	1498.1	generate	Run4	generate/STIM_016.jpg	100
2939.481	1.382	1381.8	generate	Run4	generate/STIM_016.jpg	100
2943.544	1.011	1010.7	generate	Run4	generate/STIM_016.jpg	99
2948.585	1.341	1341.1	generate	Run4	generate/STIM_016.jpg	100
2952.279	1.208	1208.3	generate	Run4	generate/STIM_017.jpg	100
2957.459	1.238	1238.5	generate	Run4	generate/STIM_017.jpg	100
2961.897	1.732	1731.5	generate	Run4	generate/STIM_017.jpg	99
2967.44	1.141	1141.3	generate	Run4	generate/STIM_017.jpg	99
2971.431	0.855	855.2	generate	Run4	generate/STIM_017.jpg	99
2974.493	1.651	1650.7	generate	Run4	generate/STIM_018.jpg	100
2979.048	1.258	1258.1	generate	Run4	generate/STIM_018.jpg	99
2984.383	1.3	1299.6	generate	Run4	generate/STIM_018.jpg	99
2989.149	1.154	1154.2	generate	Run4	generate/STIM_018.jpg	99
2993.83	1.707	1707.3	generate	Run4	generate/STIM_018.jpg	99
2999.372	1.456	1456.2	generate	Run4	generate/STIM_019.jpg	99
3004.55	1.118	1117.8	generate	Run4	generate/STIM_019.jpg	99
3009.33	1.795	1795.1	generate	Run4	generate/STIM_019.jpg	100
3013.86	1.196	1195.5	generate	Run4	generate/STIM_019.jpg	100
3018.042	0.999	999.0	generate	Run4	generate/STIM_019.jpg	100
3022.11	1.725	1725.3	generate	Run4	generate/STIM_020.jpg	99
3027.61	1.206	1206.1	generate	Run4	generate/STIM_020.jpg	99
3032.115	1.146	1145.6	generate	Run4	generate/STIM_020.jpg	99
3036.919	1.644	1643.7	generate	Run4	generate/STIM_020.jpg	100
3040.943	1.315	1315.1	generate	Run4	generate/STIM_020.jpg	99
3045.834	1.031	1030.8	generate	Run4	generate/STIM_021.jpg	99
3051.011	1.615	1615.0	generate	Run4	generate/STIM_021.jpg	99
3055.954	1.422	1422.4	generate	Run4	generate/STIM_021.jpg	100
3060.586	1.185	1184.8	generate	Run4	generate/STIM_021.jpg	100
3064.07	1.088	1088.2	generate	Run4	generate/STIM_021.jpg	99
3068.307	1.492	1492.0	generate	Run4	generate/STIM_022.jpg	100
3073.49	0.724	723.8	generate	Run4	generate/STIM_022.jpg	99
3077.322	0.907	907.3	generate	Run4	generate/STIM_022.jpg	100
3080.957	1.315	1315.2	generate	Run4	generate/STIM_022.jpg	100
3085.277	1.77	1769.7	generate	Run4	generate/STIM_022.jpg	99
3090.436	1.274	1274.0	generate	Run4	generate/STIM_023.jpg	100
3095.178	1.584	1584.2	generate	Run4	generate/STIM_023.jpg	99
3100.083	1.677	1677.0	generate	Run4	generate/STIM_023.jpg	100
3105.173	0.939	939.3	generate	Run4	generate/STIM_023.jpg	100
3108.719	1.356	1356.5	generate	Run4	generate/STIM_023.jpg	100
3113.46	1.488	1488.3	generate	Run4	generate/STIM_024.jpg	99
3118.764	1.053	1053.2	generate	Run4	generate/STIM_024.jpg	99
3123.364	1.485	1484.7	generate	Run4	generate/STIM_024.jpg	100
3127.239	1.526	1526.4	generate	Run4	generate/STIM_024.jpg	99
3131.948	1.0	999.8	generate	Run4	generate/STIM_024.jpg	100
3136.886	0.762	762.1	repeat	Run4	repeat/STIM_000.jpg	100
3139.913	0.593	593.2	repeat	Run4	repeat/STIM_000.jpg	100
3143.992	0.594	594.1	repeat	Run4	repeat/STIM_000.jpg	99
3147.527	0.827	826.9	repeat	Run4	repeat/STIM_000.jpg	100
3152.157	0.815	815.0	repeat	Run4	repeat/STIM_000.jpg	100
3156.468	0.714	713.5	repeat	Run4	repeat/STIM_001.jpg	100
3159.983	0.733	733.2	repeat	Run4	repeat/STIM_001.jpg	100
3163.79	0.753	752.6	repeat	Run4	repeat/STIM_001.jpg	99
3167.295	0.524	524.0	repeat	Run4	repeat/STIM_001.jpg	100
3170.018	0.672	672.0	repeat	Run4	repeat/STIM_001.jpg	100
3173.569	0.752	752.0	repeat	Run4	repeat/STIM_002.jpg	99
3177.033	0.759	759.1	repeat	Run4	repeat/STIM_002.jpg	100
3180.277	0.604	604.3	repeat	Run4	repeat/STIM_002.jpg	99
3183.626	0.614	613.6	repeat	Run4	repeat/STIM_002.jpg	100
3187.607	0.775	774.9	repeat	Run4	repeat/STIM_002.jpg	99
3190.642	0.789	788.6	repeat	Run4	repeat/STIM_003.jpg	99
3193.593	0.681	681.1	repeat	Run4	repeat/STIM_003.jpg	100
3197.599	0.618	618.4	repeat	Run4	repeat/STIM_003.jpg	100
3201.65	0.671	671.3	repeat	Run4	repeat/STIM_003.jpg	99
3205.01	0.746	746.3	repeat	Run4	repeat/STIM_003.jpg	100
3209.429	0.701	700.6	repeat	Run4	repeat/STIM_004.jpg	100
3213.691	0.835	834.6	repeat	Run4	repeat/STIM_004.jpg	99
3218.213	0.751	751.2	repeat	Run4	repeat/STIM_004.jpg	100
3221.819	0.554	553.5	repeat	Run4	repeat/STIM_004.jpg	99
3224.651	0.794	794.1	repeat	Run4	repeat/STIM_004.jpg	100
3228.37	0.576	576.1	repeat	Run4	repeat/STIM_005.jpg	100
3231.785	0.576	576.5	repeat	Run4	repeat/STIM_005.jpg	100
3236.103	0.615	615.2	repeat	Run4	repeat/STIM_005.jpg	99
3239.629	0.492	491.6	repeat	Run4	repeat/STIM_005.jpg	99
3242.161	0.541	541.4	repeat	Run4	repeat/STIM_005.jpg	99
3246.528	0.516	516.4	repeat	Run4	repeat/STIM_006.jpg	99
3249.926	0.751	750.9	repeat	Run4	repeat/STIM_006.jpg	99
3253.597	0.486	486.4	repeat	Run4	repeat/STIM_006.jpg	99
3257.748	0.717	716.9	repeat	Run4	repeat/STIM_006.jpg	99
3261.458	0.866	865.9	repeat	Run4	repeat/STIM_006.jpg	100
3264.471	0.477	477.1	repeat	Run4	repeat/STIM_007.jpg	99
3268.024	0.799	798.7	repeat	Run4	repeat/STIM_007.jpg	99
3271.675	0.767	766.8	repeat	Run4	repeat/STIM_007.jpg	100
3276.227	0.542	542.2	repeat	Run4	repeat/STIM_007.jpg	100
3280.722	0.489	489.3	repeat	Run4	repeat/STIM_007.jpg	100
3283.975	0.716	715.5	repeat	Run4	repeat/STIM_008.jpg	100
3287.245	0.644	644.4	repeat	Run4	repeat/STIM_008.jpg	99
3290.462	0.75	750.0	repeat	Run4	repeat/STIM_008.jpg	99
3295.149	0.673	673.3	repeat	Run4	repeat/STIM_008.jpg	100
3299.661	0.828	828.0	repeat	Run4	repeat/STIM_008.jpg	99
3303.395	0.835	834.9	repeat	Run4	repeat/STIM_009.jpg	100
3308.296	0.742	741.5	repeat	Run4	repeat/STIM_009.jpg	100
3312.251	0.769	768.8	repeat	Run4	repeat/STIM_009.jpg	99
3316.325	0.717	716.7	repeat	Run4	repeat/STIM_009.jpg	100
3320.124	0.657	656.7	repeat	Run4	repeat/STIM_009.jpg	99
3324.611	0.658	658.5	repeat	Run4	repeat/STIM_010.jpg	100
3328.206	0.602	601.9	repeat	Run4	repeat/STIM_010.jpg	99
3332.187	0.436	435.6	repeat	Run4	repeat/STIM_010.jpg	99
3335.62	0.657	656.8	repeat	Run4	repeat/STIM_010.jpg	100
3340.253	0.494	494.5	repeat	Run4	repeat/STIM_010.jpg	99
3344.055	0.894	894.1	repeat	Run4	repeat/STIM_011.jpg	99
3347.835	0.714	713.9	repeat	Run4	repeat/STIM_011.jpg	100
3352.04	0.462	462.1	repeat	Run4	repeat/STIM_011.jpg	100
3354.869	0.728	728.2	repeat	Run4	repeat/STIM_011.jpg	100
3358.615	0.574	574.2	repeat	Run4	repeat/STIM_011.jpg	100
3362.186	0.634	633.5	repeat	Run4	repeat/STIM_012.jpg	100
3365.193	0.8	800.1	repeat	Run4	repeat/STIM_012.jpg	99
3369.691	0.702	701.8	repeat	Run4	repeat/STIM_012.jpg	99
3373.021	0.86	859.5	repeat	Run4	repeat/STIM_012.jpg	99
3377.972	0.759	759.3	repeat	Run4	repeat/STIM_012.jpg	100
3382.26	0.636	636.5	repeat	Run4	repeat/STIM_013.jpg	100
3385.073	0.785	785.3	repeat	Run4	repeat/STIM_013.jpg	99
3389.897	0.704	704.5	repeat	Run4	repeat/STIM_013.jpg	99
3394.33	0.551	551.4	repeat	Run4	repeat/STIM_013.jpg	99
3398.818	0.386	386.5	repeat	Run4	repeat/STIM_013.jpg	100
3401.466	0.747	747.4	repeat	Run4	repeat/STIM_014.jpg	100
3404.502	0.839	839.1	repeat	Run4	repeat/STIM_014.jpg	100
3408.977	0.613	612.9	repeat	Run4	repeat/STIM_014.jpg	99
3413.014	0.619	618.6	repeat	Run4	repeat/STIM_014.jpg	99
3416.874	0.566	566.3	repeat	Run4	repeat/STIM_014.jpg	99
