onset	duration	accuracy_binary	trial_type	learning_stage	stimulus
0.0	1.631	1	generate	Run1	generate/STIM_000.jpg
5.519	1.363	1	generate	Run1	generate/STIM_000.jpg
9.958	1.751	1	generate	Run1	generate/STIM_000.jpg
14.763	1.26	1	generate	Run1	generate/STIM_000.jpg
19.125	1.346	0	generate	Run1	generate/STIM_000.jpg
23.668	1.279	1	generate	Run1	generate/STIM_001.jpg
27.287	1.566	1	generate	Run1	generate/STIM_001.jpg
32.617	1.721	1	generate	Run1	generate/STIM_001.jpg
36.944	1.396	1	generate	Run1	generate/STIM_001.jpg
41.833	0.956	1	generate	Run1	generate/STIM_001.jpg
45.369	1.344	1	generate	Run1	generate/STIM_002.jpg
50.348	1.792	1	generate	Run1	generate/STIM_002.jpg
55.95	1.316	1	generate	Run1	generate/STIM_002.jpg
61.298	1.542	1	generate	Run1	generate/STIM_002.jpg
65.505	2.023	1	generate	Run1	generate/STIM_002.jpg
70.34	2.164	1	generate	Run1	generate/STIM_003.jpg
75.409	2.439	1	generate	Run1	generate/STIM_003.jpg
82.045	1.353	1	generate	Run1	generate/STIM_003.jpg
85.816	0.784	0	generate	Run1	generate/STIM_003.jpg
89.915	1.64	1	generate	Run1	generate/STIM_003.jpg
93.981	1.698	1	generate	Run1	generate/STIM_004.jpg
100.036	1.63	0	generate	Run1	generate/STIM_004.jpg
105.063	1.226	1	generate	Run1	generate/STIM_004.jpg
109.818	0.894	1	generate	Run1	generate/STIM_004.jpg
113.06	1.002	1	generate	Run1	generate/STIM_004.jpg
117.698	1.659	1	generate	Run1	generate/STIM_005.jpg
122.243	2.089	1	generate	Run1	generate/STIM_005.jpg
127.979	1.051	1	generate	Run1	generate/STIM_005.jpg
131.306	1.622	0	generate	Run1	generate/STIM_005.jpg
136.657	1.709	1	generate	Run1	generate/STIM_005.jpg
141.944	1.143	0	generate	Run1	generate/STIM_006.jpg
146.125	2.134	0	generate	Run1	generate/STIM_006.jpg
151.06	1.142	1	generate	Run1	generate/STIM_006.jpg
156.236	1.441	1	generate	Run1	generate/STIM_006.jpg
161.477	1.222	0	generate	Run1	generate/STIM_006.jpg
165.896	2.348	1	generate	Run1	generate/STIM_007.jpg
170.81	1.39	1	generate	Run1	generate/STIM_007.jpg
175.144	1.354	1	generate	Run1	generate/STIM_007.jpg
179.411	1.508	1	generate	Run1	generate/STIM_007.jpg
183.366	1.117	1	generate	Run1	generate/STIM_007.jpg
188.09	1.967	1	generate	Run1	generate/STIM_008.jpg
193.495	1.938	0	generate	Run1	generate/STIM_008.jpg
198.042	1.752	1	generate	Run1	generate/STIM_008.jpg
203.796	0.943	1	generate	Run1	generate/STIM_008.jpg
208.675	1.484	1	generate	Run1	generate/STIM_008.jpg
214.511	2.256	1	generate	Run1	generate/STIM_009.jpg
219.713	2.293	1	generate	Run1	generate/STIM_009.jpg
224.673	1.588	0	generate	Run1	generate/STIM_009.jpg
228.534	1.553	1	generate	Run1	generate/STIM_009.jpg
234.007	2.04	1	generate	Run1	generate/STIM_009.jpg
239.392	1.467	1	generate	Run1	generate/STIM_010.jpg
244.963	0.984	0	generate	Run1	generate/STIM_010.jpg
249.958	0.919	1	generate	Run1	generate/STIM_010.jpg
253.996	2.282	0	generate	Run1	generate/STIM_010.jpg
258.998	1.28	1	generate	Run1	generate/STIM_010.jpg
262.798	2.501	1	generate	Run1	generate/STIM_011.jpg
268.107	1.492	1	generate	Run1	generate/STIM_011.jpg
272.415	1.276	1	generate	Run1	generate/STIM_011.jpg
277.473	1.078	1	generate	Run1	generate/STIM_011.jpg
281.325	1.331	1	generate	Run1	generate/STIM_011.jpg
285.04	1.754	1	generate	Run1	generate/STIM_012.jpg
290.195	2.352	1	generate	Run1	generate/STIM_012.jpg
295.346	1.502	1	generate	Run1	generate/STIM_012.jpg
300.265	2.248	1	generate	Run1	generate/STIM_012.jpg
306.758	1.062	1	generate	Run1	generate/STIM_012.jpg
310.08	1.684	0	generate	Run1	generate/STIM_013.jpg
315.335	1.108	1	generate	Run1	generate/STIM_013.jpg
320.251	1.24	1	generate	Run1	generate/STIM_013.jpg
323.985	2.152	1	generate	Run1	generate/STIM_013.jpg
329.83	1.172	1	generate	Run1	generate/STIM_013.jpg
335.169	2.599	1	generate	Run1	generate/STIM_014.jpg
341.132	1.997	1	generate	Run1	generate/STIM_014.jpg
347.447	1.505	1	generate	Run1	generate/STIM_014.jpg
351.717	1.969	1	generate	Run1	generate/STIM_014.jpg
356.286	1.141	1	generate	Run1	generate/STIM_014.jpg
360.265	1.578	1	generate	Run1	generate/STIM_015.jpg
365.693	1.832	0	generate	Run1	generate/STIM_015.jpg
371.346	1.122	1	generate	Run1	generate/STIM_015.jpg
376.73	1.433	1	generate	Run1	generate/STIM_015.jpg
381.871	1.9	1	generate	Run1	generate/STIM_015.jpg
386.263	1.672	1	generate	Run1	generate/STIM_016.jpg
390.487	1.805	0	generate	Run1	generate/STIM_016.jpg
394.501	1.831	1	generate	Run1	generate/STIM_016.jpg
399.931	1.375	0	generate	Run1	generate/STIM_016.jpg
404.496	1.443	1	generate	Run1	generate/STIM_016.jpg
408.554	0.982	1	generate	Run1	generate/STIM_017.jpg
411.934	1.971	1	generate	Run1	generate/STIM_017.jpg
417.975	0.975	1	generate	Run1	generate/STIM_017.jpg
422.304	1.269	1	generate	Run1	generate/STIM_017.jpg
426.856	2.038	1	generate	Run1	generate/STIM_017.jpg
431.375	1.084	0	generate	Run1	generate/STIM_018.jpg
436.315	1.813	1	generate	Run1	generate/STIM_018.jpg
441.478	1.67	0	generate	Run1	generate/STIM_018.jpg
446.179	0.926	1	generate	Run1	generate/STIM_018.jpg
449.31	1.298	1	generate	Run1	generate/STIM_018.jpg
454.261	2.444	1	generate	Run1	generate/STIM_019.jpg
461.02	1.428	0	generate	Run1	generate/STIM_019.jpg
466.442	1.983	0	generate	Run1	generate/STIM_019.jpg
472.233	0.876	1	generate	Run1	generate/STIM_019.jpg
475.616	1.392	1	generate	Run1	generate/STIM_019.jpg
479.805	1.186	1	generate	Run1	generate/STIM_020.jpg
483.972	1.088	1	generate	Run1	generate/STIM_020.jpg
488.562	1.107	1	generate	Run1	generate/STIM_020.jpg
492.481	2.002	1	generate	Run1	generate/STIM_020.jpg
497.394	1.808	1	generate	Run1	generate/STIM_020.jpg
502.249	2.048	1	generate	Run1	generate/STIM_021.jpg
507.404	1.584	1	generate	Run1	generate/STIM_021.jpg
511.401	1.659	0	generate	Run1	generate/STIM_021.jpg
515.76	1.475	0	generate	Run1	generate/STIM_021.jpg
519.953	1.575	0	generate	Run1	generate/STIM_021.jpg
524.933	1.272	1	generate	Run1	generate/STIM_022.jpg
529.617	1.043	1	generate	Run1	generate/STIM_022.jpg
533.996	1.495	1	generate	Run1	generate/STIM_022.jpg
539.053	1.352	1	generate	Run1	generate/STIM_022.jpg
543.138	0.977	1	generate	Run1	generate/STIM_022.jpg
546.6	1.454	1	generate	Run1	generate/STIM_023.jpg
552.066	1.188	1	generate	Run1	generate/STIM_023.jpg
555.796	1.707	1	generate	Run1	generate/STIM_023.jpg
560.761	0.92	1	generate	Run1	generate/STIM_023.jpg
565.703	1.289	1	generate	Run1	generate/STIM_023.jpg
569.613	1.488	1	generate	Run1	generate/STIM_024.jpg
574.322	2.267	1	generate	Run1	generate/STIM_024.jpg
579.692	1.146	1	generate	Run1	generate/STIM_024.jpg
583.505	1.235	1	generate	Run1	generate/STIM_024.jpg
587.674	0.876	1	generate	Run1	generate/STIM_024.jpg
591.161	0.627	1	repeat	Run1	repeat/STIM_000.jpg
594.389	0.884	1	repeat	Run1	repeat/STIM_000.jpg
598.147	0.367	1	repeat	Run1	repeat/STIM_000.jpg
601.255	0.573	1	repeat	Run1	repeat/STIM_000.jpg
604.235	0.612	1	repeat	Run1	repeat/STIM_000.jpg
608.318	0.41	1	repeat	Run1	repeat/STIM_001.jpg
612.282	0.498	1	repeat	Run1	repeat/STIM_001.jpg
616.528	0.377	1	repeat	Run1	repeat/STIM_001.jpg
619.626	0.729	1	repeat	Run1	repeat/STIM_001.jpg
623.691	0.443	0	repeat	Run1	repeat/STIM_001.jpg
627.565	0.592	1	repeat	Run1	repeat/STIM_002.jpg
631.382	0.754	1	repeat	Run1	repeat/STIM_002.jpg
634.359	0.841	1	repeat	Run1	repeat/STIM_002.jpg
637.448	0.498	1	repeat	Run1	repeat/STIM_002.jpg
640.641	0.595	1	repeat	Run1	repeat/STIM_002.jpg
644.971	0.519	1	repeat	Run1	repeat/STIM_003.jpg
648.996	0.405	1	repeat	Run1	repeat/STIM_003.jpg
652.177	0.547	1	repeat	Run1	repeat/STIM_003.jpg
655.975	0.649	1	repeat	Run1	repeat/STIM_003.jpg
659.303	0.626	1	repeat	Run1	repeat/STIM_003.jpg
662.457	0.636	1	repeat	Run1	repeat/STIM_004.jpg
666.331	0.493	0	repeat	Run1	repeat/STIM_004.jpg
669.332	0.566	1	repeat	Run1	repeat/STIM_004.jpg
673.142	0.685	1	repeat	Run1	repeat/STIM_004.jpg
677.164	0.504	1	repeat	Run1	repeat/STIM_004.jpg
681.168	0.619	1	repeat	Run1	repeat/STIM_005.jpg
685.651	0.702	1	repeat	Run1	repeat/STIM_005.jpg
690.068	0.87	1	repeat	Run1	repeat/STIM_005.jpg
694.851	0.846	1	repeat	Run1	repeat/STIM_005.jpg
699.284	0.444	1	repeat	Run1	repeat/STIM_005.jpg
703.622	0.339	1	repeat	Run1	repeat/STIM_006.jpg
707.627	0.646	1	repeat	Run1	repeat/STIM_006.jpg
712.238	0.591	1	repeat	Run1	repeat/STIM_006.jpg
714.951	0.644	1	repeat	Run1	repeat/STIM_006.jpg
718.049	0.707	0	repeat	Run1	repeat/STIM_006.jpg
722.436	0.574	1	repeat	Run1	repeat/STIM_007.jpg
727.085	0.476	1	repeat	Run1	repeat/STIM_007.jpg
730.46	0.56	1	repeat	Run1	repeat/STIM_007.jpg
734.084	0.623	1	repeat	Run1	repeat/STIM_007.jpg
738.239	0.86	1	repeat	Run1	repeat/STIM_007.jpg
742.378	0.599	1	repeat	Run1	repeat/STIM_008.jpg
746.659	0.419	1	repeat	Run1	repeat/STIM_008.jpg
751.076	0.556	1	repeat	Run1	repeat/STIM_008.jpg
755.282	0.39	1	repeat	Run1	repeat/STIM_008.jpg
758.066	0.743	1	repeat	Run1	repeat/STIM_008.jpg
761.635	0.664	1	repeat	Run1	repeat/STIM_009.jpg
764.868	0.828	1	repeat	Run1	repeat/STIM_009.jpg
769.315	0.835	1	repeat	Run1	repeat/STIM_009.jpg
773.807	0.651	1	repeat	Run1	repeat/STIM_009.jpg
778.238	0.898	1	repeat	Run1	repeat/STIM_009.jpg
781.432	0.623	1	repeat	Run1	repeat/STIM_010.jpg
785.938	0.638	1	repeat	Run1	repeat/STIM_010.jpg
790.494	0.543	1	repeat	Run1	repeat/STIM_010.jpg
794.21	0.677	1	repeat	Run1	repeat/STIM_010.jpg
798.918	0.823	1	repeat	Run1	repeat/STIM_010.jpg
802.361	0.607	1	repeat	Run1	repeat/STIM_011.jpg
805.334	0.671	1	repeat	Run1	repeat/STIM_011.jpg
808.813	0.527	0	repeat	Run1	repeat/STIM_011.jpg
811.654	0.748	1	repeat	Run1	repeat/STIM_011.jpg
815.381	0.545	1	repeat	Run1	repeat/STIM_011.jpg
818.861	0.758	1	repeat	Run1	repeat/STIM_012.jpg
822.254	0.646	1	repeat	Run1	repeat/STIM_012.jpg
826.931	0.753	1	repeat	Run1	repeat/STIM_012.jpg
831.544	0.799	1	repeat	Run1	repeat/STIM_012.jpg
835.857	0.572	1	repeat	Run1	repeat/STIM_012.jpg
839.645	0.8	1	repeat	Run1	repeat/STIM_013.jpg
843.767	0.819	1	repeat	Run1	repeat/STIM_013.jpg
848.045	0.389	1	repeat	Run1	repeat/STIM_013.jpg
850.918	0.588	1	repeat	Run1	repeat/STIM_013.jpg
854.231	0.678	1	repeat	Run1	repeat/STIM_013.jpg
857.687	0.691	1	repeat	Run1	repeat/STIM_014.jpg
862.426	0.534	1	repeat	Run1	repeat/STIM_014.jpg
865.082	0.705	1	repeat	Run1	repeat/STIM_014.jpg
869.461	0.557	1	repeat	Run1	repeat/STIM_014.jpg
873.312	0.541	1	repeat	Run1	repeat/STIM_014.jpg
876.656	1.061	1	generate	Run2	generate/STIM_000.jpg
881.311	1.929	1	generate	Run2	generate/STIM_000.jpg
887.185	1.292	1	generate	Run2	generate/STIM_000.jpg
891.261	1.434	1	generate	Run2	generate/STIM_000.jpg
896.542	1.606	1	generate	Run2	generate/STIM_000.jpg
901.583	0.964	1	generate	Run2	generate/STIM_001.jpg
906.581	1.688	0	generate	Run2	generate/STIM_001.jpg
912.379	1.747	0	generate	Run2	generate/STIM_001.jpg
916.71	1.216	1	generate	Run2	generate/STIM_001.jpg
920.542	0.801	1	generate	Run2	generate/STIM_001.jpg
924.736	0.973	1	generate	Run2	generate/STIM_002.jpg
928.042	1.657	1	generate	Run2	generate/STIM_002.jpg
932.395	1.705	1	generate	Run2	generate/STIM_002.jpg
937.697	1.694	0	generate	Run2	generate/STIM_002.jpg
941.849	1.204	1	generate	Run2	generate/STIM_002.jpg
946.213	1.591	1	generate	Run2	generate/STIM_003.jpg
951.377	1.736	1	generate	Run2	generate/STIM_003.jpg
956.656	1.255	1	generate	Run2	generate/STIM_003.jpg
960.836	1.082	1	generate	Run2	generate/STIM_003.jpg
965.743	0.979	1	generate	Run2	generate/STIM_003.jpg
970.812	1.84	1	generate	Run2	generate/STIM_004.jpg
976.858	1.023	0	generate	Run2	generate/STIM_004.jpg
980.43	0.864	1	generate	Run2	generate/STIM_004.jpg
983.505	1.176	1	generate	Run2	generate/STIM_004.jpg
987.29	1.292	1	generate	Run2	generate/STIM_004.jpg
991.833	1.228	1	generate	Run2	generate/STIM_005.jpg
997.279	1.13	1	generate	Run2	generate/STIM_005.jpg
1001.227	1.622	1	generate	Run2	generate/STIM_005.jpg
1005.358	1.45	1	generate	Run2	generate/STIM_005.jpg
1009.144	1.148	1	generate	Run2	generate/STIM_005.jpg
1012.651	1.589	1	generate	Run2	generate/STIM_006.jpg
1017.225	1.052	0	generate	Run2	generate/STIM_006.jpg
1020.437	1.107	1	generate	Run2	generate/STIM_006.jpg
1024.678	1.636	1	generate	Run2	generate/STIM_006.jpg
1030.483	1.899	1	generate	Run2	generate/STIM_006.jpg
1035.17	2.129	1	generate	Run2	generate/STIM_007.jpg
1041.271	1.221	1	generate	Run2	generate/STIM_007.jpg
1045.272	1.194	1	generate	Run2	generate/STIM_007.jpg
1050.258	1.069	0	generate	Run2	generate/STIM_007.jpg
1054.179	1.506	1	generate	Run2	generate/STIM_007.jpg
1058.304	1.213	1	generate	Run2	generate/STIM_008.jpg
1063.638	1.747	0	generate	Run2	generate/STIM_008.jpg
1068.359	1.39	0	generate	Run2	generate/STIM_008.jpg
1072.818	1.512	0	generate	Run2	generate/STIM_008.jpg
1077.866	0.729	0	generate	Run2	generate/STIM_008.jpg
1081.534	1.115	1	generate	Run2	generate/STIM_009.jpg
1085.31	1.214	1	generate	Run2	generate/STIM_009.jpg
1088.891	0.872	1	generate	Run2	generate/STIM_009.jpg
1093.032	1.463	1	generate	Run2	generate/STIM_009.jpg
1098.16	1.551	1	generate	Run2	generate/STIM_009.jpg
1103.19	1.535	1	generate	Run2	generate/STIM_010.jpg
1108.523	0.849	1	generate	Run2	generate/STIM_010.jpg
1113.29	1.857	1	generate	Run2	generate/STIM_010.jpg
1117.687	0.96	1	generate	Run2	generate/STIM_010.jpg
1121.056	1.498	0	generate	Run2	generate/STIM_010.jpg
1126.373	1.667	1	generate	Run2	generate/STIM_011.jpg
1130.773	1.678	1	generate	Run2	generate/STIM_011.jpg
1135.093	1.857	1	generate	Run2	generate/STIM_011.jpg
1139.229	1.208	1	generate	Run2	generate/STIM_011.jpg
1144.428	1.422	1	generate	Run2	generate/STIM_011.jpg
1149.381	1.856	0	generate	Run2	generate/STIM_012.jpg
1155.295	1.359	1	generate	Run2	generate/STIM_012.jpg
1159.561	1.355	0	generate	Run2	generate/STIM_012.jpg
1165.131	1.266	1	generate	Run2	generate/STIM_012.jpg
1170.05	1.707	0	generate	Run2	generate/STIM_012.jpg
1175.662	1.476	1	generate	Run2	generate/STIM_013.jpg
1180.1	1.108	1	generate	Run2	generate/STIM_013.jpg
1184.042	1.712	1	generate	Run2	generate/STIM_013.jpg
1189.573	1.702	1	generate	Run2	generate/STIM_013.jpg
1193.65	1.582	1	generate	Run2	generate/STIM_013.jpg
1199.168	1.278	0	generate	Run2	generate/STIM_014.jpg
1203.764	1.639	1	generate	Run2	generate/STIM_014.jpg
1209.259	1.785	0	generate	Run2	generate/STIM_014.jpg
1215.012	1.542	0	generate	Run2	generate/STIM_014.jpg
1220.645	0.961	1	generate	Run2	generate/STIM_014.jpg
1224.623	2.008	0	generate	Run2	generate/STIM_015.jpg
1230.153	1.295	1	generate	Run2	generate/STIM_015.jpg
1235.113	1.279	0	generate	Run2	generate/STIM_015.jpg
1239.736	1.664	1	generate	Run2	generate/STIM_015.jpg
1245.19	0.758	1	generate	Run2	generate/STIM_015.jpg
1250.1	1.984	1	generate	Run2	generate/STIM_016.jpg
1254.881	1.648	0	generate	Run2	generate/STIM_016.jpg
1260.244	1.545	1	generate	Run2	generate/STIM_016.jpg
1265.152	1.037	1	generate	Run2	generate/STIM_016.jpg
1270.245	1.411	0	generate	Run2	generate/STIM_016.jpg
1274.418	1.876	1	generate	Run2	generate/STIM_017.jpg
1280.689	1.572	1	generate	Run2	generate/STIM_017.jpg
1286.268	1.852	1	generate	Run2	generate/STIM_017.jpg
1292.179	1.443	1	generate	Run2	generate/STIM_017.jpg
1297.736	1.093	1	generate	Run2	generate/STIM_017.jpg
1301.704	2.074	1	generate	Run2	generate/STIM_018.jpg
1307.164	1.989	0	generate	Run2	generate/STIM_018.jpg
1313.139	1.195	1	generate	Run2	generate/STIM_018.jpg
1317.915	0.837	1	generate	Run2	generate/STIM_018.jpg
1320.993	1.067	1	generate	Run2	generate/STIM_018.jpg
1325.297	1.908	0	generate	Run2	generate/STIM_019.jpg
1329.648	1.075	1	generate	Run2	generate/STIM_019.jpg
1332.93	1.679	1	generate	Run2	generate/STIM_019.jpg
1337.39	0.781	1	generate	Run2	generate/STIM_019.jpg
1341.882	0.715	1	generate	Run2	generate/STIM_019.jpg
1345.378	1.063	1	generate	Run2	generate/STIM_020.jpg
1349.692	1.002	1	generate	Run2	generate/STIM_020.jpg
1353.91	1.115	1	generate	Run2	generate/STIM_020.jpg
1358.625	0.805	1	generate	Run2	generate/STIM_020.jpg
1362.812	0.804	1	generate	Run2	generate/STIM_020.jpg
1367.283	2.056	0	generate	Run2	generate/STIM_021.jpg
1372.244	1.252	1	generate	Run2	generate/STIM_021.jpg
1377.303	0.815	1	generate	Run2	generate/STIM_021.jpg
1380.965	1.265	1	generate	Run2	generate/STIM_021.jpg
1385.079	1.006	0	generate	Run2	generate/STIM_021.jpg
1389.414	1.661	1	generate	Run2	generate/STIM_022.jpg
1393.585	1.304	0	generate	Run2	generate/STIM_022.jpg
1397.783	1.423	1	generate	Run2	generate/STIM_022.jpg
1401.705	1.435	1	generate	Run2	generate/STIM_022.jpg
1406.015	0.774	1	generate	Run2	generate/STIM_022.jpg
1410.269	1.719	1	generate	Run2	generate/STIM_023.jpg
1415.065	1.023	1	generate	Run2	generate/STIM_023.jpg
1418.858	0.908	1	generate	Run2	generate/STIM_023.jpg
1423.775	1.459	0	generate	Run2	generate/STIM_023.jpg
1429.289	1.697	1	generate	Run2	generate/STIM_023.jpg
1434.846	1.158	0	generate	Run2	generate/STIM_024.jpg
1438.517	2.072	1	generate	Run2	generate/STIM_024.jpg
1443.367	1.418	1	generate	Run2	generate/STIM_024.jpg
1448.078	1.53	1	generate	Run2	generate/STIM_024.jpg
1453.208	1.325	1	generate	Run2	generate/STIM_024.jpg
1457.968	0.75	1	repeat	Run2	repeat/STIM_000.jpg
1462.177	0.582	1	repeat	Run2	repeat/STIM_000.jpg
1466.108	0.792	1	repeat	Run2	repeat/STIM_000.jpg
1470.98	0.6	1	repeat	Run2	repeat/STIM_000.jpg
1475.558	0.434	1	repeat	Run2	repeat/STIM_000.jpg
1479.029	0.676	1	repeat	Run2	repeat/STIM_001.jpg
1482.296	0.556	1	repeat	Run2	repeat/STIM_001.jpg
1486.006	0.589	1	repeat	Run2	repeat/STIM_001.jpg
1489.962	0.586	1	repeat	Run2	repeat/STIM_001.jpg
1494.288	0.76	1	repeat	Run2	repeat/STIM_001.jpg
1498.66	0.808	1	repeat	Run2	repeat/STIM_002.jpg
1501.677	0.631	1	repeat	Run2	repeat/STIM_002.jpg
1504.576	0.47	1	repeat	Run2	repeat/STIM_002.jpg
1507.905	0.611	0	repeat	Run2	repeat/STIM_002.jpg
1511.955	0.876	1	repeat	Run2	repeat/STIM_002.jpg
1515.036	0.487	1	repeat	Run2	repeat/STIM_003.jpg
1519.508	0.505	1	repeat	Run2	repeat/STIM_003.jpg
1523.508	0.456	1	repeat	Run2	repeat/STIM_003.jpg
1527.14	0.528	1	repeat	Run2	repeat/STIM_003.jpg
1531.714	0.716	1	repeat	Run2	repeat/STIM_003.jpg
1534.521	0.56	1	repeat	Run2	repeat/STIM_004.jpg
1537.534	0.663	1	repeat	Run2	repeat/STIM_004.jpg
1541.787	0.61	0	repeat	Run2	repeat/STIM_004.jpg
1544.625	0.732	1	repeat	Run2	repeat/STIM_004.jpg
1548.305	0.634	0	repeat	Run2	repeat/STIM_004.jpg
1551.632	0.795	0	repeat	Run2	repeat/STIM_005.jpg
1556.222	0.6	1	repeat	Run2	repeat/STIM_005.jpg
1559.754	0.487	1	repeat	Run2	repeat/STIM_005.jpg
1562.461	0.664	1	repeat	Run2	repeat/STIM_005.jpg
1566.991	0.636	1	repeat	Run2	repeat/STIM_005.jpg
1570.714	0.499	1	repeat	Run2	repeat/STIM_006.jpg
1573.439	0.737	1	repeat	Run2	repeat/STIM_006.jpg
1577.535	0.485	1	repeat	Run2	repeat/STIM_006.jpg
1581.636	0.764	1	repeat	Run2	repeat/STIM_006.jpg
1585.208	0.702	1	repeat	Run2	repeat/STIM_006.jpg
1589.114	0.778	1	repeat	Run2	repeat/STIM_007.jpg
1593.67	0.66	1	repeat	Run2	repeat/STIM_007.jpg
1596.651	0.516	1	repeat	Run2	repeat/STIM_007.jpg
1599.365	0.854	1	repeat	Run2	repeat/STIM_007.jpg
1604.091	0.597	1	repeat	Run2	repeat/STIM_007.jpg
1607.805	0.819	1	repeat	Run2	repeat/STIM_008.jpg
1611.108	0.728	1	repeat	Run2	repeat/STIM_008.jpg
1614.751	0.856	1	repeat	Run2	repeat/STIM_008.jpg
1618.659	0.731	1	repeat	Run2	repeat/STIM_008.jpg
1622.083	0.678	1	repeat	Run2	repeat/STIM_008.jpg
1625.667	0.656	1	repeat	Run2	repeat/STIM_009.jpg
1630.01	0.878	1	repeat	Run2	repeat/STIM_009.jpg
1634.632	0.567	1	repeat	Run2	repeat/STIM_009.jpg
1638.385	0.734	1	repeat	Run2	repeat/STIM_009.jpg
1642.171	0.391	1	repeat	Run2	repeat/STIM_009.jpg
1644.717	0.751	1	repeat	Run2	repeat/STIM_010.jpg
1647.908	0.829	1	repeat	Run2	repeat/STIM_010.jpg
1652.333	0.935	1	repeat	Run2	repeat/STIM_010.jpg
1655.895	0.5	1	repeat	Run2	repeat/STIM_010.jpg
1659.878	0.879	1	repeat	Run2	repeat/STIM_010.jpg
1664.169	0.627	0	repeat	Run2	repeat/STIM_011.jpg
1668.556	0.571	1	repeat	Run2	repeat/STIM_011.jpg
1672.156	0.653	1	repeat	Run2	repeat/STIM_011.jpg
1675.612	0.848	1	repeat	Run2	repeat/STIM_011.jpg
1679.204	0.544	1	repeat	Run2	repeat/STIM_011.jpg
1681.75	0.681	1	repeat	Run2	repeat/STIM_012.jpg
1685.577	0.385	1	repeat	Run2	repeat/STIM_012.jpg
1689.73	0.584	1	repeat	Run2	repeat/STIM_012.jpg
1693.029	0.826	0	repeat	Run2	repeat/STIM_012.jpg
1697.507	0.876	1	repeat	Run2	repeat/STIM_012.jpg
1701.755	0.582	1	repeat	Run2	repeat/STIM_013.jpg
1706.165	0.844	1	repeat	Run2	repeat/STIM_013.jpg
1709.409	0.518	1	repeat	Run2	repeat/STIM_013.jpg
1713.285	0.481	1	repeat	Run2	repeat/STIM_013.jpg
1716.429	0.451	1	repeat	Run2	repeat/STIM_013.jpg
1720.43	0.889	1	repeat	Run2	repeat/STIM_014.jpg
1725.335	0.892	0	repeat	Run2	repeat/STIM_014.jpg
1729.663	0.553	1	repeat	Run2	repeat/STIM_014.jpg
1732.72	0.39	1	repeat	Run2	repeat/STIM_014.jpg
1736.436	0.848	1	repeat	Run2	repeat/STIM_014.jpg
1740.448	1.33	1	generate	Run3	generate/STIM_000.jpg
1744.24	0.862	1	generate	Run3	generate/STIM_000.jpg
1748.967	0.985	1	generate	Run3	generate/STIM_000.jpg
1752.283	1.089	0	generate	Run3	generate/STIM_000.jpg
1755.642	1.235	1	generate	Run3	generate/STIM_000.jpg
1759.817	1.43	1	generate	Run3	generate/STIM_001.jpg
1764.812	1.12	1	generate	Run3	generate/STIM_001.jpg
1769.049	1.636	1	generate	Run3	generate/STIM_001.jpg
1773.981	1.118	1	generate	Run3	generate/STIM_001.jpg
1778.917	1.575	1	generate	Run3	generate/STIM_001.jpg
1784.045	0.738	1	generate	Run3	generate/STIM_002.jpg
1788.831	1.073	1	generate	Run3	generate/STIM_002.jpg
1792.632	1.143	1	generate	Run3	generate/STIM_002.jpg
1797.506	1.237	1	generate	Run3	generate/STIM_002.jpg
1802.722	1.784	1	generate	Run3	generate/STIM_002.jpg
1808.532	0.701	1	generate	Run3	generate/STIM_003.jpg
1811.737	1.348	1	generate	Run3	generate/STIM_003.jpg
1816.194	1.498	1	generate	Run3	generate/STIM_003.jpg
1821.715	1.128	1	generate	Run3	generate/STIM_003.jpg
1825.694	0.775	1	generate	Run3	generate/STIM_003.jpg
1829.737	0.898	1	generate	Run3	generate/STIM_004.jpg
1834.604	1.758	1	generate	Run3	generate/STIM_004.jpg
1839.601	1.463	1	generate	Run3	generate/STIM_004.jpg
1843.334	1.102	1	generate	Run3	generate/STIM_004.jpg
1847.542	0.963	1	generate	Run3	generate/STIM_004.jpg
1851.175	1.672	0	generate	Run3	generate/STIM_005.jpg
1855.38	0.916	1	generate	Run3	generate/STIM_005.jpg
1860.129	0.784	1	generate	Run3	generate/STIM_005.jpg
1863.111	1.57	1	generate	Run3	generate/STIM_005.jpg
1868.435	0.848	1	generate	Run3	generate/STIM_005.jpg
1872.541	0.744	1	generate	Run3	generate/STIM_006.jpg
1877.222	1.245	1	generate	Run3	generate/STIM_006.jpg
1880.693	1.104	1	generate	Run3	generate/STIM_006.jpg
1885.063	1.638	0	generate	Run3	generate/STIM_006.jpg
1890.602	0.946	1	generate	Run3	generate/STIM_006.jpg
1894.314	1.573	1	generate	Run3	generate/STIM_007.jpg
1899.528	0.843	1	generate	Run3	generate/STIM_007.jpg
1903.848	1.455	1	generate	Run3	generate/STIM_007.jpg
1907.699	1.256	1	generate	Run3	generate/STIM_007.jpg
1911.841	0.808	1	generate	Run3	generate/STIM_007.jpg
1916.163	0.861	1	generate	Run3	generate/STIM_008.jpg
1920.928	1.825	1	generate	Run3	generate/STIM_008.jpg
1925.032	1.513	1	generate	Run3	generate/STIM_008.jpg
1930.18	1.025	1	generate	Run3	generate/STIM_008.jpg
1934.769	0.768	1	generate	Run3	generate/STIM_008.jpg
1937.972	0.838	0	generate	Run3	generate/STIM_009.jpg
1942.374	1.008	0	generate	Run3	generate/STIM_009.jpg
1945.773	1.373	1	generate	Run3	generate/STIM_009.jpg
1950.117	1.677	1	generate	Run3	generate/STIM_009.jpg
1954.729	1.439	1	generate	Run3	generate/STIM_009.jpg
1960.223	1.065	1	generate	Run3	generate/STIM_010.jpg
1964.058	0.695	0	generate	Run3	generate/STIM_010.jpg
1967.653	1.374	1	generate	Run3	generate/STIM_010.jpg
1972.236	1.59	1	generate	Run3	generate/STIM_010.jpg
1976.929	0.959	1	generate	Run3	generate/STIM_010.jpg
1981.463	1.535	1	generate	Run3	generate/STIM_011.jpg
1985.943	1.057	1	generate	Run3	generate/STIM_011.jpg
1990.409	0.738	1	generate	Run3	generate/STIM_011.jpg
1993.648	1.368	0	generate	Run3	generate/STIM_011.jpg
1997.616	1.28	1	generate	Run3	generate/STIM_011.jpg
2002.485	0.913	1	generate	Run3	generate/STIM_012.jpg
2006.56	1.626	1	generate	Run3	generate/STIM_012.jpg
2011.611	1.633	1	generate	Run3	generate/STIM_012.jpg
2017.17	1.762	0	generate	Run3	generate/STIM_012.jpg
2022.964	1.356	1	generate	Run3	generate/STIM_012.jpg
2028.471	1.165	1	generate	Run3	generate/STIM_013.jpg
2033.017	1.322	1	generate	Run3	generate/STIM_013.jpg
2036.828	1.678	1	generate	Run3	generate/STIM_013.jpg
2042.583	1.064	1	generate	Run3	generate/STIM_013.jpg
2046.709	1.338	1	generate	Run3	generate/STIM_013.jpg
2050.443	1.169	1	generate	Run3	generate/STIM_014.jpg
2055.293	1.296	1	generate	Run3	generate/STIM_014.jpg
2059.166	1.513	1	generate	Run3	generate/STIM_014.jpg
2063.561	1.583	1	generate	Run3	generate/STIM_014.jpg
2069.145	0.72	1	generate	Run3	generate/STIM_014.jpg
2072.557	1.7	1	generate	Run3	generate/STIM_015.jpg
2078.444	1.398	1	generate	Run3	generate/STIM_015.jpg
2083.749	0.708	1	generate	Run3	generate/STIM_015.jpg
2087.727	1.329	1	generate	Run3	generate/STIM_015.jpg
2092.809	1.476	1	generate	Run3	generate/STIM_015.jpg
2096.723	0.802	1	generate	Run3	generate/STIM_016.jpg
2101.357	0.691	1	generate	Run3	generate/STIM_016.jpg
2105.69	1.253	1	generate	Run3	generate/STIM_016.jpg
2109.72	1.21	1	generate	Run3	generate/STIM_016.jpg
2114.917	1.053	1	generate	Run3	generate/STIM_016.jpg
2118.569	0.779	1	generate	Run3	generate/STIM_017.jpg
2123.157	1.134	1	generate	Run3	generate/STIM_017.jpg
2127.483	1.604	1	generate	Run3	generate/STIM_017.jpg
2133.17	1.169	1	generate	Run3	generate/STIM_017.jpg
2137.244	1.825	0	generate	Run3	generate/STIM_017.jpg
2142.208	1.354	1	generate	Run3	generate/STIM_018.jpg
2146.099	0.926	1	generate	Run3	generate/STIM_018.jpg
2149.421	1.09	1	generate	Run3	generate/STIM_018.jpg
2153.057	1.285	1	generate	Run3	generate/STIM_018.jpg
2156.611	0.687	1	generate	Run3	generate/STIM_018.jpg
2160.682	0.965	1	generate	Run3	generate/STIM_019.jpg
2164.733	1.144	1	generate	Run3	generate/STIM_019.jpg
2169.777	1.263	0	generate	Run3	generate/STIM_019.jpg
2175.149	1.442	1	generate	Run3	generate/STIM_019.jpg
2179.204	0.928	1	generate	Run3	generate/STIM_019.jpg
2183.685	1.57	0	generate	Run3	generate/STIM_020.jpg
2188.796	1.142	1	generate	Run3	generate/STIM_020.jpg
2193.61	1.028	1	generate	Run3	generate/STIM_020.jpg
2197.868	1.704	1	generate	Run3	generate/STIM_020.jpg
2203.209	0.768	1	generate	Run3	generate/STIM_020.jpg
2207.649	1.133	1	generate	Run3	generate/STIM_021.jpg
2212.42	1.511	1	generate	Run3	generate/STIM_021.jpg
2218.071	1.3	1	generate	Run3	generate/STIM_021.jpg
2222.164	1.023	1	generate	Run3	generate/STIM_021.jpg
2227.147	1.668	1	generate	Run3	generate/STIM_021.jpg
2232.562	1.366	1	generate	Run3	generate/STIM_022.jpg
2238.004	1.373	1	generate	Run3	generate/STIM_022.jpg
2242.33	0.844	1	generate	Run3	generate/STIM_022.jpg
2245.678	1.262	1	generate	Run3	generate/STIM_022.jpg
2249.392	1.103	1	generate	Run3	generate/STIM_022.jpg
2254.489	0.967	1	generate	Run3	generate/STIM_023.jpg
2258.203	1.409	1	generate	Run3	generate/STIM_023.jpg
2262.048	1.539	1	generate	Run3	generate/STIM_023.jpg
2267.776	1.357	1	generate	Run3	generate/STIM_023.jpg
2272.973	1.098	1	generate	Run3	generate/STIM_023.jpg
2276.385	1.15	1	generate	Run3	generate/STIM_024.jpg
2279.864	1.331	1	generate	Run3	generate/STIM_024.jpg
2283.786	1.702	1	generate	Run3	generate/STIM_024.jpg
2288.624	1.353	1	generate	Run3	generate/STIM_024.jpg
2293.629	1.137	0	generate	Run3	generate/STIM_024.jpg
2298.675	0.687	1	repeat	Run3	repeat/STIM_000.jpg
2302.141	0.809	1	repeat	Run3	repeat/STIM_000.jpg
2305.109	0.858	1	repeat	Run3	repeat/STIM_000.jpg
2308.513	0.737	1	repeat	Run3	repeat/STIM_000.jpg
2312.056	0.835	1	repeat	Run3	repeat/STIM_000.jpg
2316.271	0.655	1	repeat	Run3	repeat/STIM_001.jpg
2321.05	0.847	1	repeat	Run3	repeat/STIM_001.jpg
2325.822	0.901	1	repeat	Run3	repeat/STIM_001.jpg
2330.023	0.692	1	repeat	Run3	repeat/STIM_001.jpg
2334.234	0.656	1	repeat	Run3	repeat/STIM_001.jpg
2338.023	0.758	1	repeat	Run3	repeat/STIM_002.jpg
2341.588	0.686	0	repeat	Run3	repeat/STIM_002.jpg
2344.952	0.569	1	repeat	Run3	repeat/STIM_002.jpg
2348.555	0.612	1	repeat	Run3	repeat/STIM_002.jpg
2351.441	0.605	1	repeat	Run3	repeat/STIM_002.jpg
2355.787	0.684	1	repeat	Run3	repeat/STIM_003.jpg
2359.284	0.742	1	repeat	Run3	repeat/STIM_003.jpg
2364.055	0.622	1	repeat	Run3	repeat/STIM_003.jpg
2366.992	0.62	1	repeat	Run3	repeat/STIM_003.jpg
2370.095	0.662	1	repeat	Run3	repeat/STIM_003.jpg
2373.559	0.632	1	repeat	Run3	repeat/STIM_004.jpg
2376.732	0.45	1	repeat	Run3	repeat/STIM_004.jpg
2380.564	0.828	1	repeat	Run3	repeat/STIM_004.jpg
2384.681	0.823	1	repeat	Run3	repeat/STIM_004.jpg
2389.023	0.454	1	repeat	Run3	repeat/STIM_004.jpg
2393.309	0.636	1	repeat	Run3	repeat/STIM_005.jpg
2396.295	0.89	1	repeat	Run3	repeat/STIM_005.jpg
2399.337	0.684	1	repeat	Run3	repeat/STIM_005.jpg
2402.541	0.764	1	repeat	Run3	repeat/STIM_005.jpg
2406.655	0.503	1	repeat	Run3	repeat/STIM_005.jpg
2410.98	0.896	1	repeat	Run3	repeat/STIM_006.jpg
2414.181	0.448	1	repeat	Run3	repeat/STIM_006.jpg
2417.948	0.876	1	repeat	Run3	repeat/STIM_006.jpg
2422.741	0.884	1	repeat	Run3	repeat/STIM_006.jpg
2426.821	0.638	1	repeat	Run3	repeat/STIM_006.jpg
2430.541	0.705	1	repeat	Run3	repeat/STIM_007.jpg
2433.905	0.908	1	repeat	Run3	repeat/STIM_007.jpg
2438.156	0.481	1	repeat	Run3	repeat/STIM_007.jpg
2440.9	0.767	1	repeat	Run3	repeat/STIM_007.jpg
2444.968	0.632	1	repeat	Run3	repeat/STIM_007.jpg
2448.272	0.814	1	repeat	Run3	repeat/STIM_008.jpg
2451.86	0.663	1	repeat	Run3	repeat/STIM_008.jpg
2455.792	0.629	1	repeat	Run3	repeat/STIM_008.jpg
2459.428	0.453	0	repeat	Run3	repeat/STIM_008.jpg
2462.409	0.422	1	repeat	Run3	repeat/STIM_008.jpg
2464.957	0.487	1	repeat	Run3	repeat/STIM_009.jpg
2469.458	0.628	1	repeat	Run3	repeat/STIM_009.jpg
2472.566	0.764	1	repeat	Run3	repeat/STIM_009.jpg
2475.592	0.525	1	repeat	Run3	repeat/STIM_009.jpg
2479.805	0.399	0	repeat	Run3	repeat/STIM_009.jpg
2483.145	0.804	1	repeat	Run3	repeat/STIM_010.jpg
2485.979	0.727	1	repeat	Run3	repeat/STIM_010.jpg
2489.571	0.722	1	repeat	Run3	repeat/STIM_010.jpg
2492.751	0.482	1	repeat	Run3	repeat/STIM_010.jpg
2496.321	0.721	0	repeat	Run3	repeat/STIM_010.jpg
2499.972	0.569	1	repeat	Run3	repeat/STIM_011.jpg
2502.83	0.839	1	repeat	Run3	repeat/STIM_011.jpg
2507.193	0.635	1	repeat	Run3	repeat/STIM_011.jpg
2510.979	0.826	1	repeat	Run3	repeat/STIM_011.jpg
2515.264	0.425	1	repeat	Run3	repeat/STIM_011.jpg
2519.17	0.875	1	repeat	Run3	repeat/STIM_012.jpg
2522.98	0.538	1	repeat	Run3	repeat/STIM_012.jpg
2527.122	0.755	1	repeat	Run3	repeat/STIM_012.jpg
2530.957	0.788	1	repeat	Run3	repeat/STIM_012.jpg
2534.349	0.581	1	repeat	Run3	repeat/STIM_012.jpg
2538.821	0.761	1	repeat	Run3	repeat/STIM_013.jpg
2541.897	0.638	1	repeat	Run3	repeat/STIM_013.jpg
2545.153	0.696	1	repeat	Run3	repeat/STIM_013.jpg
2549.227	0.8	1	repeat	Run3	repeat/STIM_013.jpg
2554.028	0.663	1	repeat	Run3	repeat/STIM_013.jpg
2556.825	0.444	1	repeat	Run3	repeat/STIM_014.jpg
2559.65	0.489	1	repeat	Run3	repeat/STIM_014.jpg
2563.778	0.649	1	repeat	Run3	repeat/STIM_014.jpg
2568.348	0.74	1	repeat	Run3	repeat/STIM_014.jpg
2572.541	0.706	1	repeat	Run3	repeat/STIM_014.jpg
2576.135	1.321	1	generate	Run4	generate/STIM_000.jpg
2580.308	1.308	1	generate	Run4	generate/STIM_000.jpg
2585.159	1.587	1	generate	Run4	generate/STIM_000.jpg
2590.302	1.781	1	generate	Run4	generate/STIM_000.jpg
2594.837	0.915	1	generate	Run4	generate/STIM_000.jpg
2598.044	0.875	1	generate	Run4	generate/STIM_001.jpg
2601.444	0.822	1	generate	Run4	generate/STIM_001.jpg
2604.691	0.883	1	generate	Run4	generate/STIM_001.jpg
2607.931	0.982	1	generate	Run4	generate/STIM_001.jpg
2611.202	0.927	1	generate	Run4	generate/STIM_001.jpg
2615.781	1.501	1	generate	Run4	generate/STIM_002.jpg
2620.424	0.9	1	generate	Run4	generate/STIM_002.jpg
2625.291	1.586	1	generate	Run4	generate/STIM_002.jpg
2630.615	1.244	1	generate	Run4	generate/STIM_002.jpg
2634.215	1.363	1	generate	Run4	generate/STIM_002.jpg
2638.956	1.194	1	generate	Run4	generate/STIM_003.jpg
2643.262	1.407	1	generate	Run4	generate/STIM_003.jpg
2647.553	0.993	1	generate	Run4	generate/STIM_003.jpg
2650.925	1.688	1	generate	Run4	generate/STIM_003.jpg
2656.559	1.494	1	generate	Run4	generate/STIM_003.jpg
2661.609	1.344	1	generate	Run4	generate/STIM_004.jpg
2667.011	1.218	1	generate	Run4	generate/STIM_004.jpg
2670.788	1.209	1	generate	Run4	generate/STIM_004.jpg
2675.352	1.228	1	generate	Run4	generate/STIM_004.jpg
2680.2	1.042	1	generate	Run4	generate/STIM_004.jpg
2685.044	1.227	1	generate	Run4	generate/STIM_005.jpg
2690.309	0.888	1	generate	Run4	generate/STIM_005.jpg
2693.888	0.767	1	generate	Run4	generate/STIM_005.jpg
2698.334	0.827	1	generate	Run4	generate/STIM_005.jpg
2703.326	0.886	1	generate	Run4	generate/STIM_005.jpg
2706.625	1.765	1	generate	Run4	generate/STIM_006.jpg
2712.545	1.607	0	generate	Run4	generate/STIM_006.jpg
2716.721	0.831	1	generate	Run4	generate/STIM_006.jpg
2721.094	1.401	1	generate	Run4	generate/STIM_006.jpg
2726.655	1.592	1	generate	Run4	generate/STIM_006.jpg
2730.603	0.946	1	generate	Run4	generate/STIM_007.jpg
2735.099	1.668	1	generate	Run4	generate/STIM_007.jpg
2739.343	1.097	1	generate	Run4	generate/STIM_007.jpg
2743.257	1.142	1	generate	Run4	generate/STIM_007.jpg
2746.648	1.701	1	generate	Run4	generate/STIM_007.jpg
2752.557	1.588	1	generate	Run4	generate/STIM_008.jpg
2757.125	1.342	1	generate	Run4	generate/STIM_008.jpg
2761.239	1.546	1	generate	Run4	generate/STIM_008.jpg
2766.872	1.584	1	generate	Run4	generate/STIM_008.jpg
2771.882	1.532	1	generate	Run4	generate/STIM_008.jpg
2775.644	0.802	1	generate	Run4	generate/STIM_009.jpg
2779.409	0.724	1	generate	Run4	generate/STIM_009.jpg
2784.253	1.404	1	generate	Run4	generate/STIM_009.jpg
2789.113	0.71	1	generate	Run4	generate/STIM_009.jpg
2792.409	0.991	1	generate	Run4	generate/STIM_009.jpg
2796.872	0.869	1	generate	Run4	generate/STIM_010.jpg
2800.288	1.288	1	generate	Run4	generate/STIM_010.jpg
2804.688	1.61	1	generate	Run4	generate/STIM_010.jpg
2809.219	1.543	1	generate	Run4	generate/STIM_010.jpg
2814.995	1.445	1	generate	Run4	generate/STIM_010.jpg
2818.667	1.369	1	generate	Run4	generate/STIM_011.jpg
2824.219	0.708	1	generate	Run4	generate/STIM_011.jpg
2827.852	1.746	1	generate	Run4	generate/STIM_011.jpg
2833.008	1.373	1	generate	Run4	generate/STIM_011.jpg
2836.727	1.368	1	generate	Run4	generate/STIM_011.jpg
2841.425	0.961	1	generate	Run4	generate/STIM_012.jpg
2845.024	1.058	1	generate	Run4	generate/STIM_012.jpg
2849.757	0.902	1	generate	Run4	generate/STIM_012.jpg
2852.825	1.408	1	generate	Run4	generate/STIM_012.jpg
2857.719	1.558	1	generate	Run4	generate/STIM_012.jpg
2862.135	1.421	1	generate	Run4	generate/STIM_013.jpg
2865.989	1.613	1	generate	Run4	generate/STIM_013.jpg
2871.853	1.539	1	generate	Run4	generate/STIM_013.jpg
2875.786	1.246	1	generate	Run4	generate/STIM_013.jpg
2880.13	0.818	1	generate	Run4	generate/STIM_013.jpg
2885.008	1.576	1	generate	Run4	generate/STIM_014.jpg
2889.746	1.642	1	generate	Run4	generate/STIM_014.jpg
2895.662	0.901	1	generate	Run4	generate/STIM_014.jpg
2899.305	1.173	1	generate	Run4	generate/STIM_014.jpg
2903.806	1.594	1	generate	Run4	generate/STIM_014.jpg
2908.076	1.295	1	generate	Run4	generate/STIM_015.jpg
2912.121	1.423	1	generate	Run4	generate/STIM_015.jpg
2916.627	0.788	1	generate	Run4	generate/STIM_015.jpg
2920.592	1.129	1	generate	Run4	generate/STIM_015.jpg
2924.569	1.295	1	generate	Run4	generate/STIM_015.jpg
2928.409	1.48	1	generate	Run4	generate/STIM_016.jpg
2934.085	1.498	1	generate	Run4	generate/STIM_016.jpg
2939.481	1.382	1	generate	Run4	generate/STIM_016.jpg
2943.544	1.011	1	generate	Run4	generate/STIM_016.jpg
2948.585	1.341	1	generate	Run4	generate/STIM_016.jpg
2952.279	1.208	1	generate	Run4	generate/STIM_017.jpg
2957.459	1.238	1	generate	Run4	generate/STIM_017.jpg
2961.897	1.732	1	generate	Run4	generate/STIM_017.jpg
2967.44	1.141	1	generate	Run4	generate/STIM_017.jpg
2971.431	0.855	1	generate	Run4	generate/STIM_017.jpg
2974.493	1.651	1	generate	Run4	generate/STIM_018.jpg
2979.048	1.258	1	generate	Run4	generate/STIM_018.jpg
2984.383	1.3	1	generate	Run4	generate/STIM_018.jpg
2989.149	1.154	1	generate	Run4	generate/STIM_018.jpg
2993.83	1.707	1	generate	Run4	generate/STIM_018.jpg
2999.372	1.456	0	generate	Run4	generate/STIM_019.jpg
3004.55	1.118	1	generate	Run4	generate/STIM_019.jpg
3009.33	1.795	1	generate	Run4	generate/STIM_019.jpg
3013.86	1.196	1	generate	Run4	generate/STIM_019.jpg
3018.042	0.999	1	generate	Run4	generate/STIM_019.jpg
3022.11	1.725	1	generate	Run4	generate/STIM_020.jpg
3027.61	1.206	1	generate	Run4	generate/STIM_020.jpg
3032.115	1.146	1	generate	Run4	generate/STIM_020.jpg
3036.919	1.644	1	generate	Run4	generate/STIM_020.jpg
3040.943	1.315	1	generate	Run4	generate/STIM_020.jpg
3045.834	1.031	1	generate	Run4	generate/STIM_021.jpg
3051.011	1.615	1	generate	Run4	generate/STIM_021.jpg
3055.954	1.422	1	generate	Run4	generate/STIM_021.jpg
3060.586	1.185	1	generate	Run4	generate/STIM_021.jpg
3064.07	1.088	1	generate	Run4	generate/STIM_021.jpg
3068.307	1.492	1	generate	Run4	generate/STIM_022.jpg
3073.49	0.724	0	generate	Run4	generate/STIM_022.jpg
3077.322	0.907	1	generate	Run4	generate/STIM_022.jpg
3080.957	1.315	1	generate	Run4	generate/STIM_022.jpg
3085.277	1.77	1	generate	Run4	generate/STIM_022.jpg
3090.436	1.274	1	generate	Run4	generate/STIM_023.jpg
3095.178	1.584	1	generate	Run4	generate/STIM_023.jpg
3100.083	1.677	1	generate	Run4	generate/STIM_023.jpg
3105.173	0.939	1	generate	Run4	generate/STIM_023.jpg
3108.719	1.356	1	generate	Run4	generate/STIM_023.jpg
3113.46	1.488	1	generate	Run4	generate/STIM_024.jpg
3118.764	1.053	1	generate	Run4	generate/STIM_024.jpg
3123.364	1.485	1	generate	Run4	generate/STIM_024.jpg
3127.239	1.526	1	generate	Run4	generate/STIM_024.jpg
3131.948	1.0	1	generate	Run4	generate/STIM_024.jpg
3136.886	0.762	1	repeat	Run4	repeat/STIM_000.jpg
3139.913	0.593	1	repeat	Run4	repeat/STIM_000.jpg
3143.992	0.594	1	repeat	Run4	repeat/STIM_000.jpg
3147.527	0.827	1	repeat	Run4	repeat/STIM_000.jpg
3152.157	0.815	1	repeat	Run4	repeat/STIM_000.jpg
3156.468	0.714	1	repeat	Run4	repeat/STIM_001.jpg
3159.983	0.733	1	repeat	Run4	repeat/STIM_001.jpg
3163.79	0.753	1	repeat	Run4	repeat/STIM_001.jpg
3167.295	0.524	1	repeat	Run4	repeat/STIM_001.jpg
3170.018	0.672	1	repeat	Run4	repeat/STIM_001.jpg
3173.569	0.752	1	repeat	Run4	repeat/STIM_002.jpg
3177.033	0.759	1	repeat	Run4	repeat/STIM_002.jpg
3180.277	0.604	1	repeat	Run4	repeat/STIM_002.jpg
3183.626	0.614	1	repeat	Run4	repeat/STIM_002.jpg
3187.607	0.775	1	repeat	Run4	repeat/STIM_002.jpg
3190.642	0.789	1	repeat	Run4	repeat/STIM_003.jpg
3193.593	0.681	1	repeat	Run4	repeat/STIM_003.jpg
3197.599	0.618	1	repeat	Run4	repeat/STIM_003.jpg
3201.65	0.671	1	repeat	Run4	repeat/STIM_003.jpg
3205.01	0.746	1	repeat	Run4	repeat/STIM_003.jpg
3209.429	0.701	1	repeat	Run4	repeat/STIM_004.jpg
3213.691	0.835	1	repeat	Run4	repeat/STIM_004.jpg
3218.213	0.751	1	repeat	Run4	repeat/STIM_004.jpg
3221.819	0.554	1	repeat	Run4	repeat/STIM_004.jpg
3224.651	0.794	1	repeat	Run4	repeat/STIM_004.jpg
3228.37	0.576	1	repeat	Run4	repeat/STIM_005.jpg
3231.785	0.576	1	repeat	Run4	repeat/STIM_005.jpg
3236.103	0.615	1	repeat	Run4	repeat/STIM_005.jpg
3239.629	0.492	1	repeat	Run4	repeat/STIM_005.jpg
3242.161	0.541	1	repeat	Run4	repeat/STIM_005.jpg
3246.528	0.516	1	repeat	Run4	repeat/STIM_006.jpg
3249.926	0.751	1	repeat	Run4	repeat/STIM_006.jpg
3253.597	0.486	1	repeat	Run4	repeat/STIM_006.jpg
3257.748	0.717	1	repeat	Run4	repeat/STIM_006.jpg
3261.458	0.866	1	repeat	Run4	repeat/STIM_006.jpg
3264.471	0.477	1	repeat	Run4	repeat/STIM_007.jpg
3268.024	0.799	1	repeat	Run4	repeat/STIM_007.jpg
3271.675	0.767	1	repeat	Run4	repeat/STIM_007.jpg
3276.227	0.542	1	repeat	Run4	repeat/STIM_007.jpg
3280.722	0.489	1	repeat	Run4	repeat/STIM_007.jpg
3283.975	0.716	1	repeat	Run4	repeat/STIM_008.jpg
3287.245	0.644	1	repeat	Run4	repeat/STIM_008.jpg
3290.462	0.75	1	repeat	Run4	repeat/STIM_008.jpg
3295.149	0.673	1	repeat	Run4	repeat/STIM_008.jpg
3299.661	0.828	1	repeat	Run4	repeat/STIM_008.jpg
3303.395	0.835	1	repeat	Run4	repeat/STIM_009.jpg
3308.296	0.742	1	repeat	Run4	repeat/STIM_009.jpg
3312.251	0.769	1	repeat	Run4	repeat/STIM_009.jpg
3316.325	0.717	1	repeat	Run4	repeat/STIM_009.jpg
3320.124	0.657	1	repeat	Run4	repeat/STIM_009.jpg
3324.611	0.658	1	repeat	Run4	repeat/STIM_010.jpg
3328.206	0.602	1	repeat	Run4	repeat/STIM_010.jpg
3332.187	0.436	1	repeat	Run4	repeat/STIM_010.jpg
3335.62	0.657	1	repeat	Run4	repeat/STIM_010.jpg
3340.253	0.494	1	repeat	Run4	repeat/STIM_010.jpg
3344.055	0.894	1	repeat	Run4	repeat/STIM_011.jpg
3347.835	0.714	1	repeat	Run4	repeat/STIM_011.jpg
3352.04	0.462	1	repeat	Run4	repeat/STIM_011.jpg
3354.869	0.728	1	repeat	Run4	repeat/STIM_011.jpg
3358.615	0.574	1	repeat	Run4	repeat/STIM_011.jpg
3362.186	0.634	1	repeat	Run4	repeat/STIM_012.jpg
3365.193	0.8	1	repeat	Run4	repeat/STIM_012.jpg
3369.691	0.702	1	repeat	Run4	repeat/STIM_012.jpg
3373.021	0.86	1	repeat	Run4	repeat/STIM_012.jpg
3377.972	0.759	1	repeat	Run4	repeat/STIM_012.jpg
3382.26	0.636	1	repeat	Run4	repeat/STIM_013.jpg
3385.073	0.785	1	repeat	Run4	repeat/STIM_013.jpg
3389.897	0.704	1	repeat	Run4	repeat/STIM_013.jpg
3394.33	0.551	1	repeat	Run4	repeat/STIM_013.jpg
3398.818	0.386	1	repeat	Run4	repeat/STIM_013.jpg
3401.466	0.747	1	repeat	Run4	repeat/STIM_014.jpg
3404.502	0.839	1	repeat	Run4	repeat/STIM_014.jpg
3408.977	0.613	1	repeat	Run4	repeat/STIM_014.jpg
3413.014	0.619	1	repeat	Run4	repeat/STIM_014.jpg
3416.874	0.566	1	repeat	Run4	repeat/STIM_014.jpg
