onset	duration	accuracy_binary	trial_type	learning_stage	stimulus
0.0	1.345	1	generate	Run1	generate/STIM_000.jpg
4.737	1.58	1	generate	Run1	generate/STIM_000.jpg
9.313	2.038	1	generate	Run1	generate/STIM_000.jpg
14.717	2.25	1	generate	Run1	generate/STIM_000.jpg
19.588	0.945	1	generate	Run1	generate/STIM_000.jpg
24.526	2.524	0	generate	Run1	generate/STIM_001.jpg
30.339	1.634	1	generate	Run1	generate/STIM_001.jpg
35.458	2.015	1	generate	Run1	generate/STIM_001.jpg
41.695	0.922	1	generate	Run1	generate/STIM_001.jpg
46.607	1.237	1	generate	Run1	generate/STIM_001.jpg
51.068	2.066	1	generate	Run1	generate/STIM_002.jpg
56.333	1.119	0	generate	Run1	generate/STIM_002.jpg
60.028	1.43	1	generate	Run1	generate/STIM_002.jpg
65.423	1.649	0	generate	Run1	generate/STIM_002.jpg
70.426	1.043	1	generate	Run1	generate/STIM_002.jpg
73.772	2.492	1	generate	Run1	generate/STIM_003.jpg
80.275	2.007	1	generate	Run1	generate/STIM_003.jpg
85.706	1.629	0	generate	Run1	generate/STIM_003.jpg
90.328	1.012	1	generate	Run1	generate/STIM_003.jpg
95.152	0.836	1	generate	Run1	generate/STIM_003.jpg
99.563	2.15	0	generate	Run1	generate/STIM_004.jpg
104.212	1.651	1	generate	Run1	generate/STIM_004.jpg
109.29	1.807	1	generate	Run1	generate/STIM_004.jpg
114.912	1.446	1	generate	Run1	generate/STIM_004.jpg
120.083	1.303	1	generate	Run1	generate/STIM_004.jpg
125.088	1.62	1	generate	Run1	generate/STIM_005.jpg
129.215	1.804	1	generate	Run1	generate/STIM_005.jpg
133.56	1.53	1	generate	Run1	generate/STIM_005.jpg
137.355	1.78	1	generate	Run1	generate/STIM_005.jpg
141.581	1.836	1	generate	Run1	generate/STIM_005.jpg
147.351	2.097	1	generate	Run1	generate/STIM_006.jpg
152.421	2.544	1	generate	Run1	generate/STIM_006.jpg
157.287	2.404	0	generate	Run1	generate/STIM_006.jpg
162.92	1.218	1	generate	Run1	generate/STIM_006.jpg
168.011	2.175	1	generate	Run1	generate/STIM_006.jpg
173.465	1.387	1	generate	Run1	generate/STIM_007.jpg
177.98	2.589	1	generate	Run1	generate/STIM_007.jpg
182.902	2.383	0	generate	Run1	generate/STIM_007.jpg
187.488	1.631	1	generate	Run1	generate/STIM_007.jpg
192.246	1.267	1	generate	Run1	generate/STIM_007.jpg
196.265	2.144	1	generate	Run1	generate/STIM_008.jpg
201.439	1.211	1	generate	Run1	generate/STIM_008.jpg
205.525	1.21	1	generate	Run1	generate/STIM_008.jpg
210.552	1.744	1	generate	Run1	generate/STIM_008.jpg
215.408	1.081	1	generate	Run1	generate/STIM_008.jpg
219.267	1.465	1	generate	Run1	generate/STIM_009.jpg
224.555	2.606	0	generate	Run1	generate/STIM_009.jpg
230.911	2.068	0	generate	Run1	generate/STIM_009.jpg
236.0	1.548	1	generate	Run1	generate/STIM_009.jpg
241.016	0.895	1	generate	Run1	generate/STIM_009.jpg
244.186	1.266	0	generate	Run1	generate/STIM_010.jpg
248.403	2.102	0	generate	Run1	generate/STIM_010.jpg
253.915	0.975	0	generate	Run1	generate/STIM_010.jpg
257.938	1.485	1	generate	Run1	generate/STIM_010.jpg
263.578	1.595	1	generate	Run1	generate/STIM_010.jpg
267.921	1.673	0	generate	Run1	generate/STIM_011.jpg
273.139	2.111	1	generate	Run1	generate/STIM_011.jpg
277.48	2.358	1	generate	Run1	generate/STIM_011.jpg
283.38	1.491	1	generate	Run1	generate/STIM_011.jpg
288.686	0.891	1	generate	Run1	generate/STIM_011.jpg
293.307	1.744	1	generate	Run1	generate/STIM_012.jpg
298.746	1.224	1	generate	Run1	generate/STIM_012.jpg
303.872	1.579	1	generate	Run1	generate/STIM_012.jpg
308.52	2.187	0	generate	Run1	generate/STIM_012.jpg
314.522	1.062	1	generate	Run1	generate/STIM_012.jpg
318.466	1.269	1	generate	Run1	generate/STIM_013.jpg
322.491	2.295	1	generate	Run1	generate/STIM_013.jpg
327.483	1.094	1	generate	Run1	generate/STIM_013.jpg
332.59	0.994	0	generate	Run1	generate/STIM_013.jpg
337.483	1.281	1	generate	Run1	generate/STIM_013.jpg
342.75	2.118	1	generate	Run1	generate/STIM_014.jpg
348.957	2.578	1	generate	Run1	generate/STIM_014.jpg
355.246	1.083	0	generate	Run1	generate/STIM_014.jpg
359.319	1.724	1	generate	Run1	generate/STIM_014.jpg
364.236	1.362	1	generate	Run1	generate/STIM_014.jpg
368.883	1.405	1	generate	Run1	generate/STIM_015.jpg
372.559	2.015	0	generate	Run1	generate/STIM_015.jpg
378.092	2.411	1	generate	Run1	generate/STIM_015.jpg
383.386	1.142	1	generate	Run1	generate/STIM_015.jpg
388.374	1.998	1	generate	Run1	generate/STIM_015.jpg
392.78	2.75	0	generate	Run1	generate/STIM_016.jpg
398.253	2.63	1	generate	Run1	generate/STIM_016.jpg
403.851	1.589	1	generate	Run1	generate/STIM_016.jpg
408.504	1.557	1	generate	Run1	generate/STIM_016.jpg
412.861	1.135	1	generate	Run1	generate/STIM_016.jpg
417.106	2.234	1	generate	Run1	generate/STIM_017.jpg
421.718	2.0	1	generate	Run1	generate/STIM_017.jpg
427.185	1.433	1	generate	Run1	generate/STIM_017.jpg
431.098	1.439	0	generate	Run1	generate/STIM_017.jpg
435.372	1.423	0	generate	Run1	generate/STIM_017.jpg
440.107	2.717	1	generate	Run1	generate/STIM_018.jpg
445.241	1.153	1	generate	Run1	generate/STIM_018.jpg
450.036	1.564	1	generate	Run1	generate/STIM_018.jpg
454.895	1.628	1	generate	Run1	generate/STIM_018.jpg
460.232	1.184	1	generate	Run1	generate/STIM_018.jpg
464.232	1.4	1	generate	Run1	generate/STIM_019.jpg
469.64	1.896	1	generate	Run1	generate/STIM_019.jpg
473.774	2.344	1	generate	Run1	generate/STIM_019.jpg
479.396	1.657	1	generate	Run1	generate/STIM_019.jpg
484.382	1.423	1	generate	Run1	generate/STIM_019.jpg
488.614	1.93	1	generate	Run1	generate/STIM_020.jpg
493.627	1.722	1	generate	Run1	generate/STIM_020.jpg
498.092	1.046	1	generate	Run1	generate/STIM_020.jpg
502.188	1.77	1	generate	Run1	generate/STIM_020.jpg
507.969	1.962	1	generate	Run1	generate/STIM_020.jpg
513.908	1.376	1	generate	Run1	generate/STIM_021.jpg
517.547	2.284	0	generate	Run1	generate/STIM_021.jpg
522.388	1.252	1	generate	Run1	generate/STIM_021.jpg
526.341	1.172	1	generate	Run1	generate/STIM_021.jpg
529.534	2.137	1	generate	Run1	generate/STIM_021.jpg
535.061	2.76	1	generate	Run1	generate/STIM_022.jpg
540.088	2.551	1	generate	Run1	generate/STIM_022.jpg
546.007	1.273	1	generate	Run1	generate/STIM_022.jpg
550.213	1.424	0	generate	Run1	generate/STIM_022.jpg
554.289	1.858	1	generate	Run1	generate/STIM_022.jpg
558.759	1.93	1	generate	Run1	generate/STIM_023.jpg
563.71	1.308	1	generate	Run1	generate/STIM_023.jpg
568.62	1.016	1	generate	Run1	generate/STIM_023.jpg
572.149	1.844	1	generate	Run1	generate/STIM_023.jpg
577.484	1.468	1	generate	Run1	generate/STIM_023.jpg
581.491	1.502	1	generate	Run1	generate/STIM_024.jpg
585.829	1.519	1	generate	Run1	generate/STIM_024.jpg
590.736	1.304	1	generate	Run1	generate/STIM_024.jpg
595.095	1.358	1	generate	Run1	generate/STIM_024.jpg
600.282	1.321	1	generate	Run1	generate/STIM_024.jpg
604.121	0.394	1	repeat	Run1	repeat/STIM_000.jpg
606.717	0.75	1	repeat	Run1	repeat/STIM_000.jpg
611.175	0.771	1	repeat	Run1	repeat/STIM_000.jpg
614.224	0.488	1	repeat	Run1	repeat/STIM_000.jpg
617.267	0.989	1	repeat	Run1	repeat/STIM_000.jpg
621.622	0.746	1	repeat	Run1	repeat/STIM_001.jpg
624.749	0.699	1	repeat	Run1	repeat/STIM_001.jpg
629.196	0.611	1	repeat	Run1	repeat/STIM_001.jpg
631.877	0.573	1	repeat	Run1	repeat/STIM_001.jpg
634.996	0.535	1	repeat	Run1	repeat/STIM_001.jpg
639.355	0.664	0	repeat	Run1	repeat/STIM_002.jpg
642.538	0.436	1	repeat	Run1	repeat/STIM_002.jpg
646.818	0.749	1	repeat	Run1	repeat/STIM_002.jpg
650.812	0.56	1	repeat	Run1	repeat/STIM_002.jpg
655.203	0.542	1	repeat	Run1	repeat/STIM_002.jpg
658.683	0.793	1	repeat	Run1	repeat/STIM_003.jpg
662.68	0.596	1	repeat	Run1	repeat/STIM_003.jpg
666.237	0.706	1	repeat	Run1	repeat/STIM_003.jpg
669.127	0.814	1	repeat	Run1	repeat/STIM_003.jpg
672.729	0.806	1	repeat	Run1	repeat/STIM_003.jpg
677.031	0.765	1	repeat	Run1	repeat/STIM_004.jpg
681.629	0.902	1	repeat	Run1	repeat/STIM_004.jpg
685.642	0.568	1	repeat	Run1	repeat/STIM_004.jpg
689.743	0.591	1	repeat	Run1	repeat/STIM_004.jpg
692.873	0.526	1	repeat	Run1	repeat/STIM_004.jpg
695.763	0.577	1	repeat	Run1	repeat/STIM_005.jpg
698.334	0.879	1	repeat	Run1	repeat/STIM_005.jpg
702.675	0.846	1	repeat	Run1	repeat/STIM_005.jpg
707.009	0.523	1	repeat	Run1	repeat/STIM_005.jpg
710.271	0.68	1	repeat	Run1	repeat/STIM_005.jpg
713.76	0.628	1	repeat	Run1	repeat/STIM_006.jpg
718.346	0.9	1	repeat	Run1	repeat/STIM_006.jpg
722.135	0.877	1	repeat	Run1	repeat/STIM_006.jpg
726.443	0.779	1	repeat	Run1	repeat/STIM_006.jpg
729.654	0.624	1	repeat	Run1	repeat/STIM_006.jpg
733.585	0.513	1	repeat	Run1	repeat/STIM_007.jpg
737.183	0.5	1	repeat	Run1	repeat/STIM_007.jpg
740.417	0.772	1	repeat	Run1	repeat/STIM_007.jpg
743.557	0.554	0	repeat	Run1	repeat/STIM_007.jpg
746.49	0.817	1	repeat	Run1	repeat/STIM_007.jpg
750.957	0.466	1	repeat	Run1	repeat/STIM_008.jpg
754.942	0.537	1	repeat	Run1	repeat/STIM_008.jpg
758.282	0.884	1	repeat	Run1	repeat/STIM_008.jpg
761.421	0.801	1	repeat	Run1	repeat/STIM_008.jpg
765.824	0.562	1	repeat	Run1	repeat/STIM_008.jpg
769.923	0.659	1	repeat	Run1	repeat/STIM_009.jpg
774.151	0.442	0	repeat	Run1	repeat/STIM_009.jpg
777.241	0.823	1	repeat	Run1	repeat/STIM_009.jpg
780.138	0.886	1	repeat	Run1	repeat/STIM_009.jpg
784.78	0.656	1	repeat	Run1	repeat/STIM_009.jpg
788.864	0.636	1	repeat	Run1	repeat/STIM_010.jpg
792.239	0.77	1	repeat	Run1	repeat/STIM_010.jpg
796.871	0.659	1	repeat	Run1	repeat/STIM_010.jpg
799.7	0.785	1	repeat	Run1	repeat/STIM_010.jpg
803.675	0.703	1	repeat	Run1	repeat/STIM_010.jpg
807.419	0.879	1	repeat	Run1	repeat/STIM_011.jpg
811.206	0.674	1	repeat	Run1	repeat/STIM_011.jpg
814.754	0.676	1	repeat	Run1	repeat/STIM_011.jpg
817.888	0.844	1	repeat	Run1	repeat/STIM_011.jpg
821.977	0.745	1	repeat	Run1	repeat/STIM_011.jpg
826.676	0.429	1	repeat	Run1	repeat/STIM_012.jpg
829.466	0.664	1	repeat	Run1	repeat/STIM_012.jpg
833.326	0.811	1	repeat	Run1	repeat/STIM_012.jpg
837.275	0.606	1	repeat	Run1	repeat/STIM_012.jpg
840.683	0.824	1	repeat	Run1	repeat/STIM_012.jpg
845.39	0.73	1	repeat	Run1	repeat/STIM_013.jpg
849.318	0.648	1	repeat	Run1	repeat/STIM_013.jpg
853.933	0.795	1	repeat	Run1	repeat/STIM_013.jpg
858.039	0.584	1	repeat	Run1	repeat/STIM_013.jpg
861.562	0.914	1	repeat	Run1	repeat/STIM_013.jpg
865.652	0.644	1	repeat	Run1	repeat/STIM_014.jpg
869.145	0.498	1	repeat	Run1	repeat/STIM_014.jpg
872.916	0.864	1	repeat	Run1	repeat/STIM_014.jpg
877.776	0.797	1	repeat	Run1	repeat/STIM_014.jpg
881.627	0.754	1	repeat	Run1	repeat/STIM_014.jpg
885.501	1.964	1	generate	Run2	generate/STIM_000.jpg
891.055	1.493	1	generate	Run2	generate/STIM_000.jpg
894.836	1.284	1	generate	Run2	generate/STIM_000.jpg
899.61	1.022	0	generate	Run2	generate/STIM_000.jpg
903.074	1.021	1	generate	Run2	generate/STIM_000.jpg
906.91	1.366	1	generate	Run2	generate/STIM_001.jpg
910.76	2.063	1	generate	Run2	generate/STIM_001.jpg
915.996	1.677	1	generate	Run2	generate/STIM_001.jpg
921.516	1.144	1	generate	Run2	generate/STIM_001.jpg
924.711	1.018	1	generate	Run2	generate/STIM_001.jpg
928.361	2.099	1	generate	Run2	generate/STIM_002.jpg
933.783	1.692	1	generate	Run2	generate/STIM_002.jpg
939.139	0.979	0	generate	Run2	generate/STIM_002.jpg
943.962	1.065	1	generate	Run2	generate/STIM_002.jpg
949.047	1.642	1	generate	Run2	generate/STIM_002.jpg
954.176	2.12	1	generate	Run2	generate/STIM_003.jpg
959.254	1.952	1	generate	Run2	generate/STIM_003.jpg
964.151	0.867	1	generate	Run2	generate/STIM_003.jpg
968.988	1.332	1	generate	Run2	generate/STIM_003.jpg
973.211	1.288	1	generate	Run2	generate/STIM_003.jpg
977.715	0.906	1	generate	Run2	generate/STIM_004.jpg
981.384	0.995	1	generate	Run2	generate/STIM_004.jpg
986.065	1.263	1	generate	Run2	generate/STIM_004.jpg
989.754	1.574	1	generate	Run2	generate/STIM_004.jpg
994.758	1.59	1	generate	Run2	generate/STIM_004.jpg
998.835	1.866	1	generate	Run2	generate/STIM_005.jpg
1004.288	1.57	1	generate	Run2	generate/STIM_005.jpg
1007.913	1.094	1	generate	Run2	generate/STIM_005.jpg
1013.004	1.094	1	generate	Run2	generate/STIM_005.jpg
1017.154	1.611	1	generate	Run2	generate/STIM_005.jpg
1021.141	2.224	1	generate	Run2	generate/STIM_006.jpg
1027.031	1.391	1	generate	Run2	generate/STIM_006.jpg
1032.078	1.863	1	generate	Run2	generate/STIM_006.jpg
1037.121	1.741	1	generate	Run2	generate/STIM_006.jpg
1042.268	1.206	1	generate	Run2	generate/STIM_006.jpg
1046.242	1.574	1	generate	Run2	generate/STIM_007.jpg
1051.173	1.642	1	generate	Run2	generate/STIM_007.jpg
1055.51	2.008	0	generate	Run2	generate/STIM_007.jpg
1060.859	0.851	1	generate	Run2	generate/STIM_007.jpg
1065.144	1.858	1	generate	Run2	generate/STIM_007.jpg
1070.64	1.138	1	generate	Run2	generate/STIM_008.jpg
1074.437	1.061	0	generate	Run2	generate/STIM_008.jpg
1078.805	1.167	1	generate	Run2	generate/STIM_008.jpg
1083.038	1.532	1	generate	Run2	generate/STIM_008.jpg
1087.331	1.098	1	generate	Run2	generate/STIM_008.jpg
1091.096	1.837	1	generate	Run2	generate/STIM_009.jpg
1096.173	1.278	1	generate	Run2	generate/STIM_009.jpg
1099.954	1.412	1	generate	Run2	generate/STIM_009.jpg
1105.105	0.92	1	generate	Run2	generate/STIM_009.jpg
1109.961	1.047	1	generate	Run2	generate/STIM_009.jpg
1113.458	2.353	1	generate	Run2	generate/STIM_010.jpg
1119.305	1.943	1	generate	Run2	generate/STIM_010.jpg
1123.709	1.753	1	generate	Run2	generate/STIM_010.jpg
1129.282	0.861	1	generate	Run2	generate/STIM_010.jpg
1133.153	1.03	1	generate	Run2	generate/STIM_010.jpg
1137.696	1.171	1	generate	Run2	generate/STIM_011.jpg
1140.899	0.996	1	generate	Run2	generate/STIM_011.jpg
1145.86	1.525	1	generate	Run2	generate/STIM_011.jpg
1150.132	1.276	1	generate	Run2	generate/STIM_011.jpg
1154.767	1.851	1	generate	Run2	generate/STIM_011.jpg
1159.577	1.715	1	generate	Run2	generate/STIM_012.jpg
1164.569	1.652	1	generate	Run2	generate/STIM_012.jpg
1170.252	1.195	1	generate	Run2	generate/STIM_012.jpg
1174.221	1.053	1	generate	Run2	generate/STIM_012.jpg
1178.375	1.24	0	generate	Run2	generate/STIM_012.jpg
1183.73	1.405	1	generate	Run2	generate/STIM_013.jpg
1188.457	1.182	1	generate	Run2	generate/STIM_013.jpg
1193.309	2.097	1	generate	Run2	generate/STIM_013.jpg
1199.067	1.273	1	generate	Run2	generate/STIM_013.jpg
1203.477	1.813	1	generate	Run2	generate/STIM_013.jpg
1208.966	1.419	1	generate	Run2	generate/STIM_014.jpg
1212.908	2.002	1	generate	Run2	generate/STIM_014.jpg
1218.283	0.893	1	generate	Run2	generate/STIM_014.jpg
1223.156	1.619	0	generate	Run2	generate/STIM_014.jpg
1227.679	1.534	1	generate	Run2	generate/STIM_014.jpg
1231.881	2.147	1	generate	Run2	generate/STIM_015.jpg
1237.587	1.092	1	generate	Run2	generate/STIM_015.jpg
1241.169	2.074	1	generate	Run2	generate/STIM_015.jpg
1247.335	1.337	0	generate	Run2	generate/STIM_015.jpg
1251.368	0.972	1	generate	Run2	generate/STIM_015.jpg
1255.294	2.084	1	generate	Run2	generate/STIM_016.jpg
1259.855	2.044	0	generate	Run2	generate/STIM_016.jpg
1264.164	1.961	1	generate	Run2	generate/STIM_016.jpg
1268.874	1.615	1	generate	Run2	generate/STIM_016.jpg
1274.036	1.46	1	generate	Run2	generate/STIM_016.jpg
1278.208	1.276	0	generate	Run2	generate/STIM_017.jpg
1282.601	1.986	0	generate	Run2	generate/STIM_017.jpg
1288.247	1.2	1	generate	Run2	generate/STIM_017.jpg
1291.803	1.74	1	generate	Run2	generate/STIM_017.jpg
1296.966	1.337	0	generate	Run2	generate/STIM_017.jpg
1301.128	2.087	1	generate	Run2	generate/STIM_018.jpg
1305.54	1.976	1	generate	Run2	generate/STIM_018.jpg
1311.655	1.144	1	generate	Run2	generate/STIM_018.jpg
1316.477	1.571	1	generate	Run2	generate/STIM_018.jpg
1321.995	1.415	1	generate	Run2	generate/STIM_018.jpg
1326.945	1.258	1	generate	Run2	generate/STIM_019.jpg
1330.301	2.126	1	generate	Run2	generate/STIM_019.jpg
1335.916	0.972	1	generate	Run2	generate/STIM_019.jpg
1340.895	1.148	1	generate	Run2	generate/STIM_019.jpg
1345.187	0.846	1	generate	Run2	generate/STIM_019.jpg
1348.567	1.671	1	generate	Run2	generate/STIM_020.jpg
1352.905	1.944	0	generate	Run2	generate/STIM_020.jpg
1357.188	0.955	1	generate	Run2	generate/STIM_020.jpg
1360.984	1.879	1	generate	Run2	generate/STIM_020.jpg
1365.869	0.927	1	generate	Run2	generate/STIM_020.jpg
1370.531	1.687	1	generate	Run2	generate/STIM_021.jpg
1374.971	1.91	1	generate	Run2	generate/STIM_021.jpg
1380.605	0.835	1	generate	Run2	generate/STIM_021.jpg
1384.911	1.902	0	generate	Run2	generate/STIM_021.jpg
1389.161	0.939	1	generate	Run2	generate/STIM_021.jpg
1394.123	2.036	1	generate	Run2	generate/STIM_022.jpg
1399.413	1.837	1	generate	Run2	generate/STIM_022.jpg
1404.555	1.431	1	generate	Run2	generate/STIM_022.jpg
1408.199	1.697	1	generate	Run2	generate/STIM_022.jpg
1413.662	1.907	1	generate	Run2	generate/STIM_022.jpg
1418.28	1.891	1	generate	Run2	generate/STIM_023.jpg
1422.51	2.028	1	generate	Run2	generate/STIM_023.jpg
1428.004	1.835	1	generate	Run2	generate/STIM_023.jpg
1433.297	0.902	1	generate	Run2	generate/STIM_023.jpg
1436.926	1.3	1	generate	Run2	generate/STIM_023.jpg
1440.594	2.25	0	generate	Run2	generate/STIM_024.jpg
1445.801	0.97	1	generate	Run2	generate/STIM_024.jpg
1450.23	1.344	0	generate	Run2	generate/STIM_024.jpg
1454.642	1.42	1	generate	Run2	generate/STIM_024.jpg
1458.68	1.185	1	generate	Run2	generate/STIM_024.jpg
1461.95	0.834	1	repeat	Run2	repeat/STIM_000.jpg
1466.198	0.969	1	repeat	Run2	repeat/STIM_000.jpg
1470.748	0.489	1	repeat	Run2	repeat/STIM_000.jpg
1474.554	0.53	1	repeat	Run2	repeat/STIM_000.jpg
1478.329	0.774	1	repeat	Run2	repeat/STIM_000.jpg
1482.583	0.476	1	repeat	Run2	repeat/STIM_001.jpg
1485.764	0.825	1	repeat	Run2	repeat/STIM_001.jpg
1490.523	0.777	1	repeat	Run2	repeat/STIM_001.jpg
1494.537	0.454	1	repeat	Run2	repeat/STIM_001.jpg
1499.02	0.666	1	repeat	Run2	repeat/STIM_001.jpg
1503.064	0.477	1	repeat	Run2	repeat/STIM_002.jpg
1506.402	0.701	1	repeat	Run2	repeat/STIM_002.jpg
1509.464	0.652	1	repeat	Run2	repeat/STIM_002.jpg
1512.968	0.592	1	repeat	Run2	repeat/STIM_002.jpg
1517.246	0.744	1	repeat	Run2	repeat/STIM_002.jpg
1521.994	0.882	1	repeat	Run2	repeat/STIM_003.jpg
1526.624	0.682	1	repeat	Run2	repeat/STIM_003.jpg
1531.073	0.797	0	repeat	Run2	repeat/STIM_003.jpg
1534.822	0.813	1	repeat	Run2	repeat/STIM_003.jpg
1538.662	0.695	1	repeat	Run2	repeat/STIM_003.jpg
1541.619	0.569	1	repeat	Run2	repeat/STIM_004.jpg
1544.361	0.516	1	repeat	Run2	repeat/STIM_004.jpg
1548.571	0.549	1	repeat	Run2	repeat/STIM_004.jpg
1552.925	0.805	1	repeat	Run2	repeat/STIM_004.jpg
1556.133	0.705	1	repeat	Run2	repeat/STIM_004.jpg
1560.647	0.713	1	repeat	Run2	repeat/STIM_005.jpg
1563.437	0.546	1	repeat	Run2	repeat/STIM_005.jpg
1567.927	0.95	1	repeat	Run2	repeat/STIM_005.jpg
1572.414	0.547	1	repeat	Run2	repeat/STIM_005.jpg
1575.064	0.626	1	repeat	Run2	repeat/STIM_005.jpg
1577.997	0.593	0	repeat	Run2	repeat/STIM_006.jpg
1580.863	0.483	1	repeat	Run2	repeat/STIM_006.jpg
1584.025	0.594	1	repeat	Run2	repeat/STIM_006.jpg
1588.055	0.889	1	repeat	Run2	repeat/STIM_006.jpg
1592.835	0.571	1	repeat	Run2	repeat/STIM_006.jpg
1596.533	0.872	1	repeat	Run2	repeat/STIM_007.jpg
1601.154	0.746	1	repeat	Run2	repeat/STIM_007.jpg
1604.281	0.716	1	repeat	Run2	repeat/STIM_007.jpg
1608.245	0.94	1	repeat	Run2	repeat/STIM_007.jpg
1612.86	0.735	1	repeat	Run2	repeat/STIM_007.jpg
1617.584	0.583	1	repeat	Run2	repeat/STIM_008.jpg
1622.006	0.975	1	repeat	Run2	repeat/STIM_008.jpg
1626.217	0.643	1	repeat	Run2	repeat/STIM_008.jpg
1630.098	0.59	1	repeat	Run2	repeat/STIM_008.jpg
1633.99	0.525	1	repeat	Run2	repeat/STIM_008.jpg
1636.606	0.549	1	repeat	Run2	repeat/STIM_009.jpg
1639.524	0.555	0	repeat	Run2	repeat/STIM_009.jpg
1644.125	0.884	1	repeat	Run2	repeat/STIM_009.jpg
1648.099	0.85	1	repeat	Run2	repeat/STIM_009.jpg
1652.104	0.703	1	repeat	Run2	repeat/STIM_009.jpg
1655.893	0.786	1	repeat	Run2	repeat/STIM_010.jpg
1659.132	0.677	1	repeat	Run2	repeat/STIM_010.jpg
1662.341	0.555	1	repeat	Run2	repeat/STIM_010.jpg
1665.801	0.385	1	repeat	Run2	repeat/STIM_010.jpg
1669.628	0.593	1	repeat	Run2	repeat/STIM_010.jpg
1672.729	0.641	1	repeat	Run2	repeat/STIM_011.jpg
1677.082	0.702	1	repeat	Run2	repeat/STIM_011.jpg
1681.724	0.741	1	repeat	Run2	repeat/STIM_011.jpg
1684.769	0.514	1	repeat	Run2	repeat/STIM_011.jpg
1688.727	0.888	1	repeat	Run2	repeat/STIM_011.jpg
1693.328	0.521	1	repeat	Run2	repeat/STIM_012.jpg
1697.639	0.77	1	repeat	Run2	repeat/STIM_012.jpg
1701.912	0.53	1	repeat	Run2	repeat/STIM_012.jpg
1704.509	0.858	1	repeat	Run2	repeat/STIM_012.jpg
1709.253	0.67	1	repeat	Run2	repeat/STIM_012.jpg
1712.057	0.532	1	repeat	Run2	repeat/STIM_013.jpg
1715.097	0.676	1	repeat	Run2	repeat/STIM_013.jpg
1719.541	0.715	1	repeat	Run2	repeat/STIM_013.jpg
1722.639	0.513	1	repeat	Run2	repeat/STIM_013.jpg
1726.064	0.601	1	repeat	Run2	repeat/STIM_013.jpg
1729.284	0.833	1	repeat	Run2	repeat/STIM_014.jpg
1733.799	0.836	1	repeat	Run2	repeat/STIM_014.jpg
1738.232	0.753	1	repeat	Run2	repeat/STIM_014.jpg
1741.805	0.911	1	repeat	Run2	repeat/STIM_014.jpg
1746.161	0.66	1	repeat	Run2	repeat/STIM_014.jpg
1750.874	0.861	1	generate	Run3	generate/STIM_000.jpg
1754.477	1.256	1	generate	Run3	generate/STIM_000.jpg
1758.526	1.928	1	generate	Run3	generate/STIM_000.jpg
1763.333	0.959	1	generate	Run3	generate/STIM_000.jpg
1766.97	1.0	1	generate	Run3	generate/STIM_000.jpg
1771.406	1.19	1	generate	Run3	generate/STIM_001.jpg
1775.872	1.397	1	generate	Run3	generate/STIM_001.jpg
1780.218	1.933	1	generate	Run3	generate/STIM_001.jpg
1785.521	1.08	1	generate	Run3	generate/STIM_001.jpg
1790.491	1.523	1	generate	Run3	generate/STIM_001.jpg
1794.944	1.477	1	generate	Run3	generate/STIM_002.jpg
1798.568	1.118	1	generate	Run3	generate/STIM_002.jpg
1801.838	0.824	1	generate	Run3	generate/STIM_002.jpg
1805.626	0.847	1	generate	Run3	generate/STIM_002.jpg
1809.718	1.775	1	generate	Run3	generate/STIM_002.jpg
1814.505	1.635	0	generate	Run3	generate/STIM_003.jpg
1819.806	0.844	1	generate	Run3	generate/STIM_003.jpg
1822.937	1.074	1	generate	Run3	generate/STIM_003.jpg
1826.829	1.021	1	generate	Run3	generate/STIM_003.jpg
1830.74	1.123	0	generate	Run3	generate/STIM_003.jpg
1835.488	1.266	1	generate	Run3	generate/STIM_004.jpg
1839.981	1.789	1	generate	Run3	generate/STIM_004.jpg
1844.505	1.04	1	generate	Run3	generate/STIM_004.jpg
1848.463	1.579	1	generate	Run3	generate/STIM_004.jpg
1854.014	1.358	1	generate	Run3	generate/STIM_004.jpg
1859.489	0.821	1	generate	Run3	generate/STIM_005.jpg
1863.365	1.035	1	generate	Run3	generate/STIM_005.jpg
1867.919	1.626	1	generate	Run3	generate/STIM_005.jpg
1871.624	1.783	1	generate	Run3	generate/STIM_005.jpg
1877.066	1.504	1	generate	Run3	generate/STIM_005.jpg
1881.455	0.872	1	generate	Run3	generate/STIM_006.jpg
1886.404	0.955	1	generate	Run3	generate/STIM_006.jpg
1891.109	0.904	1	generate	Run3	generate/STIM_006.jpg
1894.269	1.695	1	generate	Run3	generate/STIM_006.jpg
1899.07	0.932	0	generate	Run3	generate/STIM_006.jpg
1902.66	1.76	1	generate	Run3	generate/STIM_007.jpg
1907.398	1.023	1	generate	Run3	generate/STIM_007.jpg
1912.421	1.115	1	generate	Run3	generate/STIM_007.jpg
1915.651	1.814	1	generate	Run3	generate/STIM_007.jpg
1920.791	1.191	1	generate	Run3	generate/STIM_007.jpg
1925.345	1.176	1	generate	Run3	generate/STIM_008.jpg
1929.81	1.839	1	generate	Run3	generate/STIM_008.jpg
1934.205	1.117	1	generate	Run3	generate/STIM_008.jpg
1939.162	0.804	1	generate	Run3	generate/STIM_008.jpg
1942.84	1.655	1	generate	Run3	generate/STIM_008.jpg
1948.216	1.37	1	generate	Run3	generate/STIM_009.jpg
1951.787	1.048	1	generate	Run3	generate/STIM_009.jpg
1955.592	1.52	1	generate	Run3	generate/STIM_009.jpg
1960.614	1.299	1	generate	Run3	generate/STIM_009.jpg
1965.952	1.302	1	generate	Run3	generate/STIM_009.jpg
1969.664	0.873	1	generate	Run3	generate/STIM_010.jpg
1973.168	1.864	1	generate	Run3	generate/STIM_010.jpg
1977.322	1.351	1	generate	Run3	generate/STIM_010.jpg
1981.151	1.147	1	generate	Run3	generate/STIM_010.jpg
1985.473	1.105	1	generate	Run3	generate/STIM_010.jpg
1990.048	1.764	0	generate	Run3	generate/STIM_011.jpg
1995.573	1.955	1	generate	Run3	generate/STIM_011.jpg
2001.124	1.497	1	generate	Run3	generate/STIM_011.jpg
2006.089	0.872	1	generate	Run3	generate/STIM_011.jpg
2010.282	1.434	1	generate	Run3	generate/STIM_011.jpg
2014.892	0.942	1	generate	Run3	generate/STIM_012.jpg
2018.582	0.796	1	generate	Run3	generate/STIM_012.jpg
2021.827	1.925	1	generate	Run3	generate/STIM_012.jpg
2027.523	1.456	1	generate	Run3	generate/STIM_012.jpg
2032.803	1.712	1	generate	Run3	generate/STIM_012.jpg
2037.583	1.584	1	generate	Run3	generate/STIM_013.jpg
2042.905	0.838	1	generate	Run3	generate/STIM_013.jpg
2046.092	1.817	1	generate	Run3	generate/STIM_013.jpg
2051.486	1.421	1	generate	Run3	generate/STIM_013.jpg
2055.494	1.863	1	generate	Run3	generate/STIM_013.jpg
2061.051	1.337	1	generate	Run3	generate/STIM_014.jpg
2066.306	1.413	1	generate	Run3	generate/STIM_014.jpg
2071.679	1.874	1	generate	Run3	generate/STIM_014.jpg
2076.616	1.071	0	generate	Run3	generate/STIM_014.jpg
2080.715	1.412	1	generate	Run3	generate/STIM_014.jpg
2084.478	1.632	1	generate	Run3	generate/STIM_015.jpg
2090.105	0.878	1	generate	Run3	generate/STIM_015.jpg
2094.144	0.937	0	generate	Run3	generate/STIM_015.jpg
2099.043	1.166	1	generate	Run3	generate/STIM_015.jpg
2103.979	1.715	1	generate	Run3	generate/STIM_015.jpg
2109.683	1.593	1	generate	Run3	generate/STIM_016.jpg
2114.838	1.457	1	generate	Run3	generate/STIM_016.jpg
2119.591	1.292	1	generate	Run3	generate/STIM_016.jpg
2123.582	0.974	1	generate	Run3	generate/STIM_016.jpg
2127.53	1.39	1	generate	Run3	generate/STIM_016.jpg
2132.09	0.986	0	generate	Run3	generate/STIM_017.jpg
2136.881	0.927	1	generate	Run3	generate/STIM_017.jpg
2141.607	1.499	1	generate	Run3	generate/STIM_017.jpg
2145.281	1.04	1	generate	Run3	generate/STIM_017.jpg
2149.276	0.96	1	generate	Run3	generate/STIM_017.jpg
2154.175	1.655	1	generate	Run3	generate/STIM_018.jpg
2158.72	1.268	1	generate	Run3	generate/STIM_018.jpg
2162.806	1.245	1	generate	Run3	generate/STIM_018.jpg
2166.969	1.265	1	generate	Run3	generate/STIM_018.jpg
2172.088	1.066	1	generate	Run3	generate/STIM_018.jpg
2177.076	0.779	1	generate	Run3	generate/STIM_019.jpg
2180.868	1.01	1	generate	Run3	generate/STIM_019.jpg
2184.702	1.204	1	generate	Run3	generate/STIM_019.jpg
2189.93	1.147	1	generate	Run3	generate/STIM_019.jpg
2194.616	0.862	1	generate	Run3	generate/STIM_019.jpg
2197.969	1.006	1	generate	Run3	generate/STIM_020.jpg
2201.256	1.791	1	generate	Run3	generate/STIM_020.jpg
2205.372	1.542	1	generate	Run3	generate/STIM_020.jpg
2209.614	1.113	1	generate	Run3	generate/STIM_020.jpg
2214.139	1.203	1	generate	Run3	generate/STIM_020.jpg
2218.36	1.102	1	generate	Run3	generate/STIM_021.jpg
2223.139	1.906	1	generate	Run3	generate/STIM_021.jpg
2228.796	1.652	1	generate	Run3	generate/STIM_021.jpg
2232.724	1.482	1	generate	Run3	generate/STIM_021.jpg
2237.467	1.319	1	generate	Run3	generate/STIM_021.jpg
2241.387	1.728	1	generate	Run3	generate/STIM_022.jpg
2246.402	1.062	1	generate	Run3	generate/STIM_022.jpg
2251.273	1.209	1	generate	Run3	generate/STIM_022.jpg
2256.115	1.051	1	generate	Run3	generate/STIM_022.jpg
2260.624	1.849	1	generate	Run3	generate/STIM_022.jpg
2266.043	0.957	1	generate	Run3	generate/STIM_023.jpg
2270.085	1.842	1	generate	Run3	generate/STIM_023.jpg
2275.361	0.967	1	generate	Run3	generate/STIM_023.jpg
2279.06	0.894	1	generate	Run3	generate/STIM_023.jpg
2283.967	1.635	1	generate	Run3	generate/STIM_023.jpg
2289.199	1.517	1	generate	Run3	generate/STIM_024.jpg
2293.255	1.18	1	generate	Run3	generate/STIM_024.jpg
2296.821	1.138	1	generate	Run3	generate/STIM_024.jpg
2301.254	1.248	1	generate	Run3	generate/STIM_024.jpg
2305.854	1.013	1	generate	Run3	generate/STIM_024.jpg
2310.783	0.841	1	repeat	Run3	repeat/STIM_000.jpg
2314.921	0.73	1	repeat	Run3	repeat/STIM_000.jpg
2319.281	0.598	1	repeat	Run3	repeat/STIM_000.jpg
2323.503	0.723	1	repeat	Run3	repeat/STIM_000.jpg
2326.402	0.946	1	repeat	Run3	repeat/STIM_000.jpg
2330.982	0.825	1	repeat	Run3	repeat/STIM_001.jpg
2335.114	0.803	1	repeat	Run3	repeat/STIM_001.jpg
2339.389	0.837	1	repeat	Run3	repeat/STIM_001.jpg
2343.232	0.509	1	repeat	Run3	repeat/STIM_001.jpg
2347.324	0.716	1	repeat	Run3	repeat/STIM_001.jpg
2351.826	0.538	1	repeat	Run3	repeat/STIM_002.jpg
2355.081	0.681	1	repeat	Run3	repeat/STIM_002.jpg
2358.132	0.608	1	repeat	Run3	repeat/STIM_002.jpg
2362.036	0.524	1	repeat	Run3	repeat/STIM_002.jpg
2365.264	0.855	1	repeat	Run3	repeat/STIM_002.jpg
2370.06	0.728	1	repeat	Run3	repeat/STIM_003.jpg
2373.001	0.773	1	repeat	Run3	repeat/STIM_003.jpg
2377.227	0.51	1	repeat	Run3	repeat/STIM_003.jpg
2381.157	0.564	1	repeat	Run3	repeat/STIM_003.jpg
2383.984	0.681	1	repeat	Run3	repeat/STIM_003.jpg
2387.811	0.532	1	repeat	Run3	repeat/STIM_004.jpg
2391.372	0.737	1	repeat	Run3	repeat/STIM_004.jpg
2394.566	0.563	1	repeat	Run3	repeat/STIM_004.jpg
2397.28	0.685	1	repeat	Run3	repeat/STIM_004.jpg
2401.034	0.889	1	repeat	Run3	repeat/STIM_004.jpg
2404.935	0.686	1	repeat	Run3	repeat/STIM_005.jpg
2408.71	0.882	1	repeat	Run3	repeat/STIM_005.jpg
2412.318	0.727	1	repeat	Run3	repeat/STIM_005.jpg
2415.373	0.56	1	repeat	Run3	repeat/STIM_005.jpg
2418.381	0.65	1	repeat	Run3	repeat/STIM_005.jpg
2422.741	0.897	1	repeat	Run3	repeat/STIM_006.jpg
2426.122	0.731	1	repeat	Run3	repeat/STIM_006.jpg
2429.554	0.592	1	repeat	Run3	repeat/STIM_006.jpg
2432.282	0.92	1	repeat	Run3	repeat/STIM_006.jpg
2435.287	0.928	1	repeat	Run3	repeat/STIM_006.jpg
2439.122	0.625	1	repeat	Run3	repeat/STIM_007.jpg
2442.762	0.71	1	repeat	Run3	repeat/STIM_007.jpg
2445.531	0.488	1	repeat	Run3	repeat/STIM_007.jpg
2448.901	0.754	1	repeat	Run3	repeat/STIM_007.jpg
2452.298	0.666	1	repeat	Run3	repeat/STIM_007.jpg
2455.148	0.525	1	repeat	Run3	repeat/STIM_008.jpg
2459.214	0.571	1	repeat	Run3	repeat/STIM_008.jpg
2462.924	0.678	1	repeat	Run3	repeat/STIM_008.jpg
2466.47	0.812	1	repeat	Run3	repeat/STIM_008.jpg
2470.012	0.559	1	repeat	Run3	repeat/STIM_008.jpg
2474.47	0.717	1	repeat	Run3	repeat/STIM_009.jpg
2478.602	0.486	1	repeat	Run3	repeat/STIM_009.jpg
2482.544	0.859	1	repeat	Run3	repeat/STIM_009.jpg
2485.52	0.534	1	repeat	Run3	repeat/STIM_009.jpg
2488.953	0.563	1	repeat	Run3	repeat/STIM_009.jpg
2491.68	0.945	1	repeat	Run3	repeat/STIM_010.jpg
2496.267	0.469	1	repeat	Run3	repeat/STIM_010.jpg
2499.796	0.894	1	repeat	Run3	repeat/STIM_010.jpg
2504.362	0.598	1	repeat	Run3	repeat/STIM_010.jpg
2508.811	0.753	1	repeat	Run3	repeat/STIM_010.jpg
2512.565	0.775	1	repeat	Run3	repeat/STIM_011.jpg
2515.926	0.766	1	repeat	Run3	repeat/STIM_011.jpg
2518.99	0.582	1	repeat	Run3	repeat/STIM_011.jpg
2521.73	0.962	1	repeat	Run3	repeat/STIM_011.jpg
2524.756	0.814	1	repeat	Run3	repeat/STIM_011.jpg
2529.426	0.692	0	repeat	Run3	repeat/STIM_012.jpg
2533.206	0.522	1	repeat	Run3	repeat/STIM_012.jpg
2536.66	0.697	1	repeat	Run3	repeat/STIM_012.jpg
2540.995	0.464	1	repeat	Run3	repeat/STIM_012.jpg
2544.961	0.478	1	repeat	Run3	repeat/STIM_012.jpg
2548.995	0.771	1	repeat	Run3	repeat/STIM_013.jpg
2553.688	0.763	1	repeat	Run3	repeat/STIM_013.jpg
2558.409	0.52	1	repeat	Run3	repeat/STIM_013.jpg
2561.435	0.675	1	repeat	Run3	repeat/STIM_013.jpg
2564.871	0.458	1	repeat	Run3	repeat/STIM_013.jpg
2568.685	0.87	1	repeat	Run3	repeat/STIM_014.jpg
2572.166	0.636	1	repeat	Run3	repeat/STIM_014.jpg
2575.861	0.759	1	repeat	Run3	repeat/STIM_014.jpg
2580.324	0.659	1	repeat	Run3	repeat/STIM_014.jpg
2583.323	0.877	1	repeat	Run3	repeat/STIM_014.jpg
2586.699	0.882	1	generate	Run4	generate/STIM_000.jpg
2590.744	1.062	1	generate	Run4	generate/STIM_000.jpg
2595.371	0.829	1	generate	Run4	generate/STIM_000.jpg
2598.806	1.759	1	generate	Run4	generate/STIM_000.jpg
2604.222	1.254	1	generate	Run4	generate/STIM_000.jpg
2609.48	0.967	1	generate	Run4	generate/STIM_001.jpg
2613.821	1.587	1	generate	Run4	generate/STIM_001.jpg
2617.946	1.3	1	generate	Run4	generate/STIM_001.jpg
2622.72	1.541	1	generate	Run4	generate/STIM_001.jpg
2626.978	1.515	1	generate	Run4	generate/STIM_001.jpg
2632.389	1.745	1	generate	Run4	generate/STIM_002.jpg
2637.041	1.289	1	generate	Run4	generate/STIM_002.jpg
2641.126	1.039	1	generate	Run4	generate/STIM_002.jpg
2644.775	1.025	1	generate	Run4	generate/STIM_002.jpg
2648.287	0.899	1	generate	Run4	generate/STIM_002.jpg
2651.819	1.82	1	generate	Run4	generate/STIM_003.jpg
2657.071	1.386	1	generate	Run4	generate/STIM_003.jpg
2662.022	0.771	1	generate	Run4	generate/STIM_003.jpg
2665.434	1.719	1	generate	Run4	generate/STIM_003.jpg
2669.602	1.004	1	generate	Run4	generate/STIM_003.jpg
2674.217	0.893	1	generate	Run4	generate/STIM_004.jpg
2678.671	1.578	1	generate	Run4	generate/STIM_004.jpg
2683.393	1.258	1	generate	Run4	generate/STIM_004.jpg
2686.886	1.936	1	generate	Run4	generate/STIM_004.jpg
2692.2	1.806	1	generate	Run4	generate/STIM_004.jpg
2696.191	1.633	1	generate	Run4	generate/STIM_005.jpg
2700.177	1.307	1	generate	Run4	generate/STIM_005.jpg
2705.34	1.888	0	generate	Run4	generate/STIM_005.jpg
2709.93	1.284	1	generate	Run4	generate/STIM_005.jpg
2714.441	0.93	1	generate	Run4	generate/STIM_005.jpg
2719.376	1.11	1	generate	Run4	generate/STIM_006.jpg
2724.377	0.88	1	generate	Run4	generate/STIM_006.jpg
2727.705	1.607	1	generate	Run4	generate/STIM_006.jpg
2731.682	0.85	1	generate	Run4	generate/STIM_006.jpg
2735.235	1.262	1	generate	Run4	generate/STIM_006.jpg
2740.596	1.013	1	generate	Run4	generate/STIM_007.jpg
2744.11	1.763	1	generate	Run4	generate/STIM_007.jpg
2749.768	0.786	1	generate	Run4	generate/STIM_007.jpg
2754.566	0.94	1	generate	Run4	generate/STIM_007.jpg
2758.743	1.415	1	generate	Run4	generate/STIM_007.jpg
2763.886	1.855	1	generate	Run4	generate/STIM_008.jpg
2768.043	1.609	0	generate	Run4	generate/STIM_008.jpg
2772.784	1.166	1	generate	Run4	generate/STIM_008.jpg
2777.406	1.003	1	generate	Run4	generate/STIM_008.jpg
2780.745	1.69	1	generate	Run4	generate/STIM_008.jpg
2785.185	1.247	1	generate	Run4	generate/STIM_009.jpg
2790.355	1.387	1	generate	Run4	generate/STIM_009.jpg
2794.132	1.722	1	generate	Run4	generate/STIM_009.jpg
2798.155	1.666	1	generate	Run4	generate/STIM_009.jpg
2803.301	1.85	1	generate	Run4	generate/STIM_009.jpg
2808.143	0.786	1	generate	Run4	generate/STIM_010.jpg
2811.496	1.219	1	generate	Run4	generate/STIM_010.jpg
2815.819	0.963	1	generate	Run4	generate/STIM_010.jpg
2819.386	1.727	1	generate	Run4	generate/STIM_010.jpg
2824.625	0.753	1	generate	Run4	generate/STIM_010.jpg
2828.982	1.14	0	generate	Run4	generate/STIM_011.jpg
2833.8	1.8	1	generate	Run4	generate/STIM_011.jpg
2838.389	1.968	1	generate	Run4	generate/STIM_011.jpg
2842.533	1.842	1	generate	Run4	generate/STIM_011.jpg
2847.22	1.312	1	generate	Run4	generate/STIM_011.jpg
2852.396	1.152	1	generate	Run4	generate/STIM_012.jpg
2856.906	1.812	1	generate	Run4	generate/STIM_012.jpg
2861.731	1.279	1	generate	Run4	generate/STIM_012.jpg
2866.593	1.324	1	generate	Run4	generate/STIM_012.jpg
2870.901	1.382	1	generate	Run4	generate/STIM_012.jpg
2875.367	0.994	1	generate	Run4	generate/STIM_013.jpg
2880.297	1.948	1	generate	Run4	generate/STIM_013.jpg
2885.668	1.265	1	generate	Run4	generate/STIM_013.jpg
2889.963	0.847	1	generate	Run4	generate/STIM_013.jpg
2894.086	1.185	1	generate	Run4	generate/STIM_013.jpg
2899.001	0.876	1	generate	Run4	generate/STIM_014.jpg
2903.644	1.238	1	generate	Run4	generate/STIM_014.jpg
2908.701	0.986	1	generate	Run4	generate/STIM_014.jpg
2913.18	1.15	1	generate	Run4	generate/STIM_014.jpg
2916.805	1.226	1	generate	Run4	generate/STIM_014.jpg
2920.283	1.352	1	generate	Run4	generate/STIM_015.jpg
2925.043	1.472	1	generate	Run4	generate/STIM_015.jpg
2929.127	1.818	1	generate	Run4	generate/STIM_015.jpg
2933.285	1.766	1	generate	Run4	generate/STIM_015.jpg
2938.744	1.754	1	generate	Run4	generate/STIM_015.jpg
2943.243	1.421	1	generate	Run4	generate/STIM_016.jpg
2948.104	0.815	1	generate	Run4	generate/STIM_016.jpg
2952.487	1.068	1	generate	Run4	generate/STIM_016.jpg
2955.751	0.795	1	generate	Run4	generate/STIM_016.jpg
2959.27	1.309	1	generate	Run4	generate/STIM_016.jpg
2963.162	1.935	1	generate	Run4	generate/STIM_017.jpg
2968.123	1.202	1	generate	Run4	generate/STIM_017.jpg
2971.981	1.491	1	generate	Run4	generate/STIM_017.jpg
2977.207	1.368	1	generate	Run4	generate/STIM_017.jpg
2980.782	1.607	1	generate	Run4	generate/STIM_017.jpg
2985.449	1.1	1	generate	Run4	generate/STIM_018.jpg
2989.285	1.727	1	generate	Run4	generate/STIM_018.jpg
2994.504	0.747	1	generate	Run4	generate/STIM_018.jpg
2999.177	1.215	1	generate	Run4	generate/STIM_018.jpg
3004.147	1.654	1	generate	Run4	generate/STIM_018.jpg
3008.315	1.388	1	generate	Run4	generate/STIM_019.jpg
3012.5	1.186	1	generate	Run4	generate/STIM_019.jpg
3015.899	1.581	1	generate	Run4	generate/STIM_019.jpg
3019.703	1.023	1	generate	Run4	generate/STIM_019.jpg
3023.274	1.494	1	generate	Run4	generate/STIM_019.jpg
3027.333	1.834	1	generate	Run4	generate/STIM_020.jpg
3033.177	1.08	1	generate	Run4	generate/STIM_020.jpg
3036.671	1.392	1	generate	Run4	generate/STIM_020.jpg
3041.884	0.958	1	generate	Run4	generate/STIM_020.jpg
3046.266	0.916	1	generate	Run4	generate/STIM_020.jpg
3049.796	1.232	1	generate	Run4	generate/STIM_021.jpg
3053.144	1.297	1	generate	Run4	generate/STIM_021.jpg
3057.751	1.019	1	generate	Run4	generate/STIM_021.jpg
3061.938	1.844	1	generate	Run4	generate/STIM_021.jpg
3067.227	1.716	1	generate	Run4	generate/STIM_021.jpg
3071.508	1.562	1	generate	Run4	generate/STIM_022.jpg
3076.276	1.08	1	generate	Run4	generate/STIM_022.jpg
3080.523	1.837	1	generate	Run4	generate/STIM_022.jpg
3085.112	0.986	1	generate	Run4	generate/STIM_022.jpg
3089.894	0.854	1	generate	Run4	generate/STIM_022.jpg
3094.68	1.812	1	generate	Run4	generate/STIM_023.jpg
3100.171	1.26	1	generate	Run4	generate/STIM_023.jpg
3104.653	1.656	1	generate	Run4	generate/STIM_023.jpg
3109.938	1.483	1	generate	Run4	generate/STIM_023.jpg
3114.746	1.359	1	generate	Run4	generate/STIM_023.jpg
3119.538	1.421	1	generate	Run4	generate/STIM_024.jpg
3124.896	1.248	1	generate	Run4	generate/STIM_024.jpg
3129.448	1.361	1	generate	Run4	generate/STIM_024.jpg
3134.97	1.495	1	generate	Run4	generate/STIM_024.jpg
3139.647	1.006	1	generate	Run4	generate/STIM_024.jpg
3144.067	0.891	1	repeat	Run4	repeat/STIM_000.jpg
3148.995	0.778	1	repeat	Run4	repeat/STIM_000.jpg
3152.544	0.809	1	repeat	Run4	repeat/STIM_000.jpg
3157.137	0.479	0	repeat	Run4	repeat/STIM_000.jpg
3161.248	0.604	1	repeat	Run4	repeat/STIM_000.jpg
3164.046	0.879	1	repeat	Run4	repeat/STIM_001.jpg
3167.54	0.734	1	repeat	Run4	repeat/STIM_001.jpg
3170.245	0.694	1	repeat	Run4	repeat/STIM_001.jpg
3173.391	0.527	1	repeat	Run4	repeat/STIM_001.jpg
3176.037	0.743	1	repeat	Run4	repeat/STIM_001.jpg
3178.829	0.552	1	repeat	Run4	repeat/STIM_002.jpg
3182.16	0.682	1	repeat	Run4	repeat/STIM_002.jpg
3185.143	0.555	1	repeat	Run4	repeat/STIM_002.jpg
3188.285	0.474	1	repeat	Run4	repeat/STIM_002.jpg
3192.359	0.814	1	repeat	Run4	repeat/STIM_002.jpg
3197.097	0.652	1	repeat	Run4	repeat/STIM_003.jpg
3201.553	0.755	1	repeat	Run4	repeat/STIM_003.jpg
3205.555	0.506	1	repeat	Run4	repeat/STIM_003.jpg
3209.222	0.596	1	repeat	Run4	repeat/STIM_003.jpg
3213.851	0.884	1	repeat	Run4	repeat/STIM_003.jpg
3217.988	0.718	1	repeat	Run4	repeat/STIM_004.jpg
3221.521	0.871	1	repeat	Run4	repeat/STIM_004.jpg
3225.348	0.603	1	repeat	Run4	repeat/STIM_004.jpg
3229.408	0.842	1	repeat	Run4	repeat/STIM_004.jpg
3234.202	0.698	1	repeat	Run4	repeat/STIM_004.jpg
3237.975	0.463	1	repeat	Run4	repeat/STIM_005.jpg
3241.283	0.698	1	repeat	Run4	repeat/STIM_005.jpg
3245.009	0.706	1	repeat	Run4	repeat/STIM_005.jpg
3248.771	0.622	1	repeat	Run4	repeat/STIM_005.jpg
3253.025	0.642	1	repeat	Run4	repeat/STIM_005.jpg
3255.773	0.85	1	repeat	Run4	repeat/STIM_006.jpg
3259.668	0.579	0	repeat	Run4	repeat/STIM_006.jpg
3262.622	0.533	1	repeat	Run4	repeat/STIM_006.jpg
3266.503	0.611	1	repeat	Run4	repeat/STIM_006.jpg
3269.381	0.678	1	repeat	Run4	repeat/STIM_006.jpg
3272.063	0.591	1	repeat	Run4	repeat/STIM_007.jpg
3275.548	0.706	1	repeat	Run4	repeat/STIM_007.jpg
3279.139	0.888	1	repeat	Run4	repeat/STIM_007.jpg
3282.223	0.498	1	repeat	Run4	repeat/STIM_007.jpg
3286.61	0.861	1	repeat	Run4	repeat/STIM_007.jpg
3290.382	0.51	1	repeat	Run4	repeat/STIM_008.jpg
3293.512	0.635	0	repeat	Run4	repeat/STIM_008.jpg
3296.361	0.531	1	repeat	Run4	repeat/STIM_008.jpg
3300.56	0.634	0	repeat	Run4	repeat/STIM_008.jpg
3305.282	0.672	1	repeat	Run4	repeat/STIM_008.jpg
3309.749	0.612	1	repeat	Run4	repeat/STIM_009.jpg
3312.939	0.494	1	repeat	Run4	repeat/STIM_009.jpg
3315.596	0.598	1	repeat	Run4	repeat/STIM_009.jpg
3318.727	0.575	1	repeat	Run4	repeat/STIM_009.jpg
3321.29	0.603	1	repeat	Run4	repeat/STIM_009.jpg
3324.106	0.902	1	repeat	Run4	repeat/STIM_010.jpg
3328.512	0.894	1	repeat	Run4	repeat/STIM_010.jpg
3332.033	0.721	1	repeat	Run4	repeat/STIM_010.jpg
3336.045	0.529	1	repeat	Run4	repeat/STIM_010.jpg
3338.855	0.855	1	repeat	Run4	repeat/STIM_010.jpg
3343.173	0.748	1	repeat	Run4	repeat/STIM_011.jpg
3346.221	0.798	1	repeat	Run4	repeat/STIM_011.jpg
3349.373	0.569	1	repeat	Run4	repeat/STIM_011.jpg
3353.915	0.571	1	repeat	Run4	repeat/STIM_011.jpg
3357.847	0.804	1	repeat	Run4	repeat/STIM_011.jpg
3361.044	0.741	1	repeat	Run4	repeat/STIM_012.jpg
3363.923	0.652	1	repeat	Run4	repeat/STIM_012.jpg
3367.823	0.509	1	repeat	Run4	repeat/STIM_012.jpg
3371.967	0.692	1	repeat	Run4	repeat/STIM_012.jpg
3375.873	0.934	1	repeat	Run4	repeat/STIM_012.jpg
3379.69	0.503	1	repeat	Run4	repeat/STIM_013.jpg
3382.614	0.774	1	repeat	Run4	repeat/STIM_013.jpg
3387.068	0.872	1	repeat	Run4	repeat/STIM_013.jpg
3390.835	0.988	1	repeat	Run4	repeat/STIM_013.jpg
3394.007	0.816	1	repeat	Run4	repeat/STIM_013.jpg
3397.133	0.651	1	repeat	Run4	repeat/STIM_014.jpg
3401.157	0.635	1	repeat	Run4	repeat/STIM_014.jpg
3405.789	0.907	1	repeat	Run4	repeat/STIM_014.jpg
3409.553	0.514	1	repeat	Run4	repeat/STIM_014.jpg
3413.869	0.639	0	repeat	Run4	repeat/STIM_014.jpg
