onset	duration	accuracy	trial_type	learning_stage	stimulus
0.0	3.126	correct	generate	Run1	generate/STIM_000.jpg
6.661	1.469	correct	generate	Run1	generate/STIM_000.jpg
11.847	2.711	correct	generate	Run1	generate/STIM_000.jpg
18.14	2.119	correct	generate	Run1	generate/STIM_000.jpg
23.811	2.708	correct	generate	Run1	generate/STIM_000.jpg
29.425	1.61	incorrect	generate	Run1	generate/STIM_001.jpg
34.026	3.27	correct	generate	Run1	generate/STIM_001.jpg
39.784	1.622	correct	generate	Run1	generate/STIM_001.jpg
43.666	2.862	correct	generate	Run1	generate/STIM_001.jpg
50.414	1.705	correct	generate	Run1	generate/STIM_001.jpg
56.051	2.797	correct	generate	Run1	generate/STIM_002.jpg
61.11	2.641	incorrect	generate	Run1	generate/STIM_002.jpg
67.488	1.805	correct	generate	Run1	generate/STIM_002.jpg
71.609	1.512	incorrect	generate	Run1	generate/STIM_002.jpg
75.668	1.49	correct	generate	Run1	generate/STIM_002.jpg
79.605	1.892	correct	generate	Run1	generate/STIM_003.jpg
84.551	1.42	correct	generate	Run1	generate/STIM_003.jpg
88.682	2.439	incorrect	generate	Run1	generate/STIM_003.jpg
93.85	1.949	correct	generate	Run1	generate/STIM_003.jpg
99.728	1.452	correct	generate	Run1	generate/STIM_003.jpg
103.848	1.548	incorrect	generate	Run1	generate/STIM_004.jpg
108.27	3.325	incorrect	generate	Run1	generate/STIM_004.jpg
113.596	3.2	correct	generate	Run1	generate/STIM_004.jpg
118.891	2.77	incorrect	generate	Run1	generate/STIM_004.jpg
124.228	2.576	correct	generate	Run1	generate/STIM_004.jpg
129.003	2.784	correct	generate	Run1	generate/STIM_005.jpg
135.598	2.22	correct	generate	Run1	generate/STIM_005.jpg
141.144	1.593	correct	generate	Run1	generate/STIM_005.jpg
146.087	1.25	correct	generate	Run1	generate/STIM_005.jpg
150.866	1.563	incorrect	generate	Run1	generate/STIM_005.jpg
154.813	2.206	correct	generate	Run1	generate/STIM_006.jpg
159.594	1.711	correct	generate	Run1	generate/STIM_006.jpg
165.083	1.779	incorrect	generate	Run1	generate/STIM_006.jpg
169.653	2.686	correct	generate	Run1	generate/STIM_006.jpg
175.414	1.988	incorrect	generate	Run1	generate/STIM_006.jpg
181.018	3.24	correct	generate	Run1	generate/STIM_007.jpg
188.003	3.322	correct	generate	Run1	generate/STIM_007.jpg
193.876	2.923	incorrect	generate	Run1	generate/STIM_007.jpg
199.743	2.173	correct	generate	Run1	generate/STIM_007.jpg
204.909	2.663	correct	generate	Run1	generate/STIM_007.jpg
211.274	1.624	incorrect	generate	Run1	generate/STIM_008.jpg
216.493	1.888	correct	generate	Run1	generate/STIM_008.jpg
221.789	3.288	correct	generate	Run1	generate/STIM_008.jpg
227.834	2.628	correct	generate	Run1	generate/STIM_008.jpg
233.173	2.206	correct	generate	Run1	generate/STIM_008.jpg
238.809	3.374	correct	generate	Run1	generate/STIM_009.jpg
244.638	2.856	incorrect	generate	Run1	generate/STIM_009.jpg
249.861	2.239	incorrect	generate	Run1	generate/STIM_009.jpg
255.875	1.972	correct	generate	Run1	generate/STIM_009.jpg
260.686	2.381	correct	generate	Run1	generate/STIM_009.jpg
265.536	1.942	incorrect	generate	Run1	generate/STIM_010.jpg
270.28	2.075	incorrect	generate	Run1	generate/STIM_010.jpg
275.597	3.12	correct	generate	Run1	generate/STIM_010.jpg
282.457	2.942	correct	generate	Run1	generate/STIM_010.jpg
289.323	2.244	correct	generate	Run1	generate/STIM_010.jpg
294.287	3.265	incorrect	generate	Run1	generate/STIM_011.jpg
299.854	2.149	correct	generate	Run1	generate/STIM_011.jpg
305.815	1.866	correct	generate	Run1	generate/STIM_011.jpg
311.36	2.502	correct	generate	Run1	generate/STIM_011.jpg
316.62	1.318	correct	generate	Run1	generate/STIM_011.jpg
321.839	1.559	incorrect	generate	Run1	generate/STIM_012.jpg
326.091	1.642	correct	generate	Run1	generate/STIM_012.jpg
330.861	2.134	correct	generate	Run1	generate/STIM_012.jpg
336.808	3.092	incorrect	generate	Run1	generate/STIM_012.jpg
342.352	2.929	correct	generate	Run1	generate/STIM_012.jpg
349.224	2.978	correct	generate	Run1	generate/STIM_013.jpg
354.817	2.273	correct	generate	Run1	generate/STIM_013.jpg
360.855	2.865	correct	generate	Run1	generate/STIM_013.jpg
365.905	1.735	correct	generate	Run1	generate/STIM_013.jpg
370.807	1.184	correct	generate	Run1	generate/STIM_013.jpg
374.148	2.79	correct	generate	Run1	generate/STIM_014.jpg
380.216	1.813	correct	generate	Run1	generate/STIM_014.jpg
384.354	1.658	incorrect	generate	Run1	generate/STIM_014.jpg
389.512	2.14	correct	generate	Run1	generate/STIM_014.jpg
395.109	2.31	correct	generate	Run1	generate/STIM_014.jpg
399.968	3.388	correct	generate	Run1	generate/STIM_015.jpg
405.405	2.776	incorrect	generate	Run1	generate/STIM_015.jpg
410.789	1.46	correct	generate	Run1	generate/STIM_015.jpg
415.392	2.249	correct	generate	Run1	generate/STIM_015.jpg
419.729	1.774	correct	generate	Run1	generate/STIM_015.jpg
424.677	2.937	incorrect	generate	Run1	generate/STIM_016.jpg
430.889	2.622	correct	generate	Run1	generate/STIM_016.jpg
436.961	2.391	correct	generate	Run1	generate/STIM_016.jpg
441.876	2.932	correct	generate	Run1	generate/STIM_016.jpg
447.3	1.933	correct	generate	Run1	generate/STIM_016.jpg
451.983	2.414	correct	generate	Run1	generate/STIM_017.jpg
457.25	2.405	incorrect	generate	Run1	generate/STIM_017.jpg
463.25	3.165	correct	generate	Run1	generate/STIM_017.jpg
469.29	2.336	incorrect	generate	Run1	generate/STIM_017.jpg
475.415	2.299	incorrect	generate	Run1	generate/STIM_017.jpg
481.645	3.021	correct	generate	Run1	generate/STIM_018.jpg
488.333	2.51	correct	generate	Run1	generate/STIM_018.jpg
494.462	1.823	correct	generate	Run1	generate/STIM_018.jpg
499.388	2.756	correct	generate	Run1	generate/STIM_018.jpg
506.022	1.57	correct	generate	Run1	generate/STIM_018.jpg
509.991	1.71	incorrect	generate	Run1	generate/STIM_019.jpg
515.504	1.632	correct	generate	Run1	generate/STIM_019.jpg
519.51	3.026	correct	generate	Run1	generate/STIM_019.jpg
526.159	3.07	correct	generate	Run1	generate/STIM_019.jpg
531.43	2.726	correct	generate	Run1	generate/STIM_019.jpg
537.137	1.988	correct	generate	Run1	generate/STIM_020.jpg
542.882	2.679	correct	generate	Run1	generate/STIM_020.jpg
547.609	1.959	correct	generate	Run1	generate/STIM_020.jpg
553.259	2.333	correct	generate	Run1	generate/STIM_020.jpg
559.371	2.336	correct	generate	Run1	generate/STIM_020.jpg
565.524	1.994	correct	generate	Run1	generate/STIM_021.jpg
570.518	1.883	incorrect	generate	Run1	generate/STIM_021.jpg
576.321	1.425	correct	generate	Run1	generate/STIM_021.jpg
581.176	1.379	correct	generate	Run1	generate/STIM_021.jpg
585.277	1.973	correct	generate	Run1	generate/STIM_021.jpg
589.997	1.96	correct	generate	Run1	generate/STIM_022.jpg
594.117	3.42	correct	generate	Run1	generate/STIM_022.jpg
599.736	2.142	correct	generate	Run1	generate/STIM_022.jpg
605.35	2.407	incorrect	generate	Run1	generate/STIM_022.jpg
610.816	2.274	correct	generate	Run1	generate/STIM_022.jpg
615.461	1.652	correct	generate	Run1	generate/STIM_023.jpg
621.079	2.869	correct	generate	Run1	generate/STIM_023.jpg
626.445	1.722	correct	generate	Run1	generate/STIM_023.jpg
631.749	2.784	correct	generate	Run1	generate/STIM_023.jpg
636.905	2.79	correct	generate	Run1	generate/STIM_023.jpg
642.841	3.476	correct	generate	Run1	generate/STIM_024.jpg
650.081	2.41	incorrect	generate	Run1	generate/STIM_024.jpg
654.892	3.156	incorrect	generate	Run1	generate/STIM_024.jpg
660.155	2.729	correct	generate	Run1	generate/STIM_024.jpg
665.166	2.458	correct	generate	Run1	generate/STIM_024.jpg
670.103	1.085	correct	repeat	Run1	repeat/STIM_000.jpg
674.616	1.076	correct	repeat	Run1	repeat/STIM_000.jpg
677.84	0.919	correct	repeat	Run1	repeat/STIM_000.jpg
681.97	0.945	correct	repeat	Run1	repeat/STIM_000.jpg
686.818	1.164	correct	repeat	Run1	repeat/STIM_000.jpg
691.154	0.978	correct	repeat	Run1	repeat/STIM_001.jpg
696.056	1.209	correct	repeat	Run1	repeat/STIM_001.jpg
701.171	0.811	correct	repeat	Run1	repeat/STIM_001.jpg
704.009	1.142	correct	repeat	Run1	repeat/STIM_001.jpg
708.503	1.036	correct	repeat	Run1	repeat/STIM_001.jpg
711.901	0.771	incorrect	repeat	Run1	repeat/STIM_002.jpg
716.593	0.96	correct	repeat	Run1	repeat/STIM_002.jpg
719.69	0.838	correct	repeat	Run1	repeat/STIM_002.jpg
723.451	1.026	correct	repeat	Run1	repeat/STIM_002.jpg
727.17	1.081	correct	repeat	Run1	repeat/STIM_002.jpg
731.181	1.108	correct	repeat	Run1	repeat/STIM_003.jpg
735.11	1.192	correct	repeat	Run1	repeat/STIM_003.jpg
738.857	0.646	correct	repeat	Run1	repeat/STIM_003.jpg
741.663	1.198	correct	repeat	Run1	repeat/STIM_003.jpg
745.462	0.779	correct	repeat	Run1	repeat/STIM_003.jpg
750.095	0.773	correct	repeat	Run1	repeat/STIM_004.jpg
753.17	0.92	correct	repeat	Run1	repeat/STIM_004.jpg
756.98	1.077	correct	repeat	Run1	repeat/STIM_004.jpg
761.249	1.15	correct	repeat	Run1	repeat/STIM_004.jpg
765.622	1.058	correct	repeat	Run1	repeat/STIM_004.jpg
769.668	0.895	correct	repeat	Run1	repeat/STIM_005.jpg
773.461	0.79	correct	repeat	Run1	repeat/STIM_005.jpg
776.616	1.176	correct	repeat	Run1	repeat/STIM_005.jpg
781.769	0.858	correct	repeat	Run1	repeat/STIM_005.jpg
785.274	0.752	correct	repeat	Run1	repeat/STIM_005.jpg
789.55	1.034	incorrect	repeat	Run1	repeat/STIM_006.jpg
792.608	1.172	correct	repeat	Run1	repeat/STIM_006.jpg
797.109	1.122	correct	repeat	Run1	repeat/STIM_006.jpg
801.903	1.072	correct	repeat	Run1	repeat/STIM_006.jpg
806.452	0.718	correct	repeat	Run1	repeat/STIM_006.jpg
809.568	0.895	correct	repeat	Run1	repeat/STIM_007.jpg
814.21	0.682	correct	repeat	Run1	repeat/STIM_007.jpg
817.305	1.158	correct	repeat	Run1	repeat/STIM_007.jpg
822.178	0.736	incorrect	repeat	Run1	repeat/STIM_007.jpg
825.084	0.635	correct	repeat	Run1	repeat/STIM_007.jpg
829.55	0.655	correct	repeat	Run1	repeat/STIM_008.jpg
833.686	0.634	correct	repeat	Run1	repeat/STIM_008.jpg
836.606	0.904	correct	repeat	Run1	repeat/STIM_008.jpg
840.74	0.776	correct	repeat	Run1	repeat/STIM_008.jpg
844.119	0.639	correct	repeat	Run1	repeat/STIM_008.jpg
847.274	0.639	correct	repeat	Run1	repeat/STIM_009.jpg
851.496	0.853	incorrect	repeat	Run1	repeat/STIM_009.jpg
855.375	0.839	correct	repeat	Run1	repeat/STIM_009.jpg
858.67	1.176	correct	repeat	Run1	repeat/STIM_009.jpg
863.684	1.03	correct	repeat	Run1	repeat/STIM_009.jpg
867.385	1.122	correct	repeat	Run1	repeat/STIM_010.jpg
871.646	0.798	correct	repeat	Run1	repeat/STIM_010.jpg
876.023	1.006	correct	repeat	Run1	repeat/STIM_010.jpg
879.658	0.696	correct	repeat	Run1	repeat/STIM_010.jpg
882.891	0.786	correct	repeat	Run1	repeat/STIM_010.jpg
887.581	0.987	correct	repeat	Run1	repeat/STIM_011.jpg
891.174	1.089	correct	repeat	Run1	repeat/STIM_011.jpg
894.912	1.18	correct	repeat	Run1	repeat/STIM_011.jpg
898.365	0.792	correct	repeat	Run1	repeat/STIM_011.jpg
902.317	1.035	correct	repeat	Run1	repeat/STIM_011.jpg
906.069	1.198	correct	repeat	Run1	repeat/STIM_012.jpg
910.574	1.101	correct	repeat	Run1	repeat/STIM_012.jpg
915.526	1.059	correct	repeat	Run1	repeat/STIM_012.jpg
919.872	1.022	correct	repeat	Run1	repeat/STIM_012.jpg
924.188	1.052	incorrect	repeat	Run1	repeat/STIM_012.jpg
927.88	0.976	correct	repeat	Run1	repeat/STIM_013.jpg
931.38	0.835	correct	repeat	Run1	repeat/STIM_013.jpg
934.566	0.783	correct	repeat	Run1	repeat/STIM_013.jpg
937.525	0.646	correct	repeat	Run1	repeat/STIM_013.jpg
942.154	0.88	correct	repeat	Run1	repeat/STIM_013.jpg
946.06	0.808	correct	repeat	Run1	repeat/STIM_014.jpg
949.133	0.768	correct	repeat	Run1	repeat/STIM_014.jpg
952.112	1.011	correct	repeat	Run1	repeat/STIM_014.jpg
955.78	1.003	correct	repeat	Run1	repeat/STIM_014.jpg
959.189	0.986	correct	repeat	Run1	repeat/STIM_014.jpg
964.108	2.463	correct	generate	Run2	generate/STIM_000.jpg
969.95	2.603	correct	generate	Run2	generate/STIM_000.jpg
974.821	1.576	correct	generate	Run2	generate/STIM_000.jpg
978.614	1.319	incorrect	generate	Run2	generate/STIM_000.jpg
983.606	1.411	correct	generate	Run2	generate/STIM_000.jpg
987.944	1.35	correct	generate	Run2	generate/STIM_001.jpg
992.407	2.653	correct	generate	Run2	generate/STIM_001.jpg
997.975	1.901	correct	generate	Run2	generate/STIM_001.jpg
1003.598	2.495	correct	generate	Run2	generate/STIM_001.jpg
1008.323	2.414	correct	generate	Run2	generate/STIM_001.jpg
1013.756	2.954	correct	generate	Run2	generate/STIM_002.jpg
1018.769	1.717	correct	generate	Run2	generate/STIM_002.jpg
1022.55	1.301	incorrect	generate	Run2	generate/STIM_002.jpg
1027.133	1.304	correct	generate	Run2	generate/STIM_002.jpg
1031.519	1.737	correct	generate	Run2	generate/STIM_002.jpg
1036.408	2.483	correct	generate	Run2	generate/STIM_003.jpg
1041.105	2.269	correct	generate	Run2	generate/STIM_003.jpg
1046.114	1.596	correct	generate	Run2	generate/STIM_003.jpg
1050.977	2.5	correct	generate	Run2	generate/STIM_003.jpg
1055.615	1.139	correct	generate	Run2	generate/STIM_003.jpg
1059.102	2.358	correct	generate	Run2	generate/STIM_004.jpg
1064.719	2.039	correct	generate	Run2	generate/STIM_004.jpg
1069.413	1.771	correct	generate	Run2	generate/STIM_004.jpg
1073.491	1.883	correct	generate	Run2	generate/STIM_004.jpg
1078.632	1.472	correct	generate	Run2	generate/STIM_004.jpg
1082.446	1.792	correct	generate	Run2	generate/STIM_005.jpg
1087.495	1.987	correct	generate	Run2	generate/STIM_005.jpg
1091.984	1.285	correct	generate	Run2	generate/STIM_005.jpg
1097.069	1.073	correct	generate	Run2	generate/STIM_005.jpg
1100.174	2.453	correct	generate	Run2	generate/STIM_005.jpg
1104.951	2.609	correct	generate	Run2	generate/STIM_006.jpg
1111.273	2.434	correct	generate	Run2	generate/STIM_006.jpg
1116.971	1.381	correct	generate	Run2	generate/STIM_006.jpg
1121.499	1.648	correct	generate	Run2	generate/STIM_006.jpg
1126.618	1.697	correct	generate	Run2	generate/STIM_006.jpg
1130.858	1.507	incorrect	generate	Run2	generate/STIM_007.jpg
1135.099	2.292	correct	generate	Run2	generate/STIM_007.jpg
1140.579	1.518	incorrect	generate	Run2	generate/STIM_007.jpg
1144.466	2.377	correct	generate	Run2	generate/STIM_007.jpg
1149.673	1.384	correct	generate	Run2	generate/STIM_007.jpg
1153.258	1.78	correct	generate	Run2	generate/STIM_008.jpg
1158.687	2.706	incorrect	generate	Run2	generate/STIM_008.jpg
1164.776	2.462	correct	generate	Run2	generate/STIM_008.jpg
1170.325	1.792	correct	generate	Run2	generate/STIM_008.jpg
1174.927	1.919	correct	generate	Run2	generate/STIM_008.jpg
1179.066	1.648	correct	generate	Run2	generate/STIM_009.jpg
1183.268	1.939	correct	generate	Run2	generate/STIM_009.jpg
1187.807	1.741	correct	generate	Run2	generate/STIM_009.jpg
1192.1	1.591	correct	generate	Run2	generate/STIM_009.jpg
1195.972	2.096	correct	generate	Run2	generate/STIM_009.jpg
1201.518	1.358	correct	generate	Run2	generate/STIM_010.jpg
1205.504	1.7	correct	generate	Run2	generate/STIM_010.jpg
1210.819	2.36	correct	generate	Run2	generate/STIM_010.jpg
1215.252	2.539	correct	generate	Run2	generate/STIM_010.jpg
1221.085	1.221	incorrect	generate	Run2	generate/STIM_010.jpg
1225.125	3.055	correct	generate	Run2	generate/STIM_011.jpg
1231.031	1.925	correct	generate	Run2	generate/STIM_011.jpg
1235.717	2.619	correct	generate	Run2	generate/STIM_011.jpg
1240.89	1.341	correct	generate	Run2	generate/STIM_011.jpg
1244.911	1.562	correct	generate	Run2	generate/STIM_011.jpg
1248.639	1.955	correct	generate	Run2	generate/STIM_012.jpg
1253.408	1.883	correct	generate	Run2	generate/STIM_012.jpg
1258.646	2.455	correct	generate	Run2	generate/STIM_012.jpg
1263.222	1.805	correct	generate	Run2	generate/STIM_012.jpg
1268.028	1.368	incorrect	generate	Run2	generate/STIM_012.jpg
1272.05	1.311	correct	generate	Run2	generate/STIM_013.jpg
1277.173	2.658	correct	generate	Run2	generate/STIM_013.jpg
1283.546	1.787	correct	generate	Run2	generate/STIM_013.jpg
1287.768	1.05	correct	generate	Run2	generate/STIM_013.jpg
1291.707	1.774	correct	generate	Run2	generate/STIM_013.jpg
1296.839	2.826	correct	generate	Run2	generate/STIM_014.jpg
1303.326	2.854	correct	generate	Run2	generate/STIM_014.jpg
1308.798	2.741	correct	generate	Run2	generate/STIM_014.jpg
1314.557	2.106	incorrect	generate	Run2	generate/STIM_014.jpg
1320.409	1.974	correct	generate	Run2	generate/STIM_014.jpg
1325.646	1.462	correct	generate	Run2	generate/STIM_015.jpg
1330.607	1.892	correct	generate	Run2	generate/STIM_015.jpg
1335.976	1.609	correct	generate	Run2	generate/STIM_015.jpg
1341.226	2.068	incorrect	generate	Run2	generate/STIM_015.jpg
1346.617	1.45	correct	generate	Run2	generate/STIM_015.jpg
1351.959	2.747	incorrect	generate	Run2	generate/STIM_016.jpg
1358.075	1.221	incorrect	generate	Run2	generate/STIM_016.jpg
1362.509	2.264	correct	generate	Run2	generate/STIM_016.jpg
1368.222	1.597	correct	generate	Run2	generate/STIM_016.jpg
1373.261	2.431	correct	generate	Run2	generate/STIM_016.jpg
1378.573	2.392	incorrect	generate	Run2	generate/STIM_017.jpg
1384.181	2.886	incorrect	generate	Run2	generate/STIM_017.jpg
1390.553	2.475	correct	generate	Run2	generate/STIM_017.jpg
1395.997	1.273	correct	generate	Run2	generate/STIM_017.jpg
1400.343	1.526	incorrect	generate	Run2	generate/STIM_017.jpg
1404.598	2.077	correct	generate	Run2	generate/STIM_018.jpg
1410.055	1.507	correct	generate	Run2	generate/STIM_018.jpg
1414.478	1.611	correct	generate	Run2	generate/STIM_018.jpg
1418.958	2.263	correct	generate	Run2	generate/STIM_018.jpg
1423.223	2.458	correct	generate	Run2	generate/STIM_018.jpg
1427.822	2.818	correct	generate	Run2	generate/STIM_019.jpg
1433.341	1.298	correct	generate	Run2	generate/STIM_019.jpg
1437.063	1.311	correct	generate	Run2	generate/STIM_019.jpg
1441.086	2.433	correct	generate	Run2	generate/STIM_019.jpg
1446.189	1.733	correct	generate	Run2	generate/STIM_019.jpg
1451.275	2.27	correct	generate	Run2	generate/STIM_020.jpg
1457.326	2.005	incorrect	generate	Run2	generate/STIM_020.jpg
1461.828	1.164	correct	generate	Run2	generate/STIM_020.jpg
1465.782	1.291	correct	generate	Run2	generate/STIM_020.jpg
1469.995	2.309	correct	generate	Run2	generate/STIM_020.jpg
1475.481	2.217	correct	generate	Run2	generate/STIM_021.jpg
1480.376	1.255	incorrect	generate	Run2	generate/STIM_021.jpg
1484.686	1.299	correct	generate	Run2	generate/STIM_021.jpg
1489.269	1.42	correct	generate	Run2	generate/STIM_021.jpg
1494.232	1.421	correct	generate	Run2	generate/STIM_021.jpg
1498.245	2.679	correct	generate	Run2	generate/STIM_022.jpg
1504.247	2.735	correct	generate	Run2	generate/STIM_022.jpg
1509.906	1.249	correct	generate	Run2	generate/STIM_022.jpg
1514.981	1.296	correct	generate	Run2	generate/STIM_022.jpg
1520.012	2.403	correct	generate	Run2	generate/STIM_022.jpg
1524.524	2.307	correct	generate	Run2	generate/STIM_023.jpg
1529.624	1.272	correct	generate	Run2	generate/STIM_023.jpg
1533.951	2.465	correct	generate	Run2	generate/STIM_023.jpg
1539.633	2.455	correct	generate	Run2	generate/STIM_023.jpg
1545.174	1.242	correct	generate	Run2	generate/STIM_023.jpg
1548.961	1.526	incorrect	generate	Run2	generate/STIM_024.jpg
1552.558	1.654	incorrect	generate	Run2	generate/STIM_024.jpg
1557.937	1.255	incorrect	generate	Run2	generate/STIM_024.jpg
1561.605	2.05	correct	generate	Run2	generate/STIM_024.jpg
1565.708	1.917	correct	generate	Run2	generate/STIM_024.jpg
1571.542	0.613	correct	repeat	Run2	repeat/STIM_000.jpg
1575.915	1.099	correct	repeat	Run2	repeat/STIM_000.jpg
1579.671	1.127	correct	repeat	Run2	repeat/STIM_000.jpg
1584.546	0.795	correct	repeat	Run2	repeat/STIM_000.jpg
1588.313	0.633	correct	repeat	Run2	repeat/STIM_000.jpg
1592.547	1.087	correct	repeat	Run2	repeat/STIM_001.jpg
1596.995	0.791	correct	repeat	Run2	repeat/STIM_001.jpg
1601.675	1.178	correct	repeat	Run2	repeat/STIM_001.jpg
1606.411	0.735	correct	repeat	Run2	repeat/STIM_001.jpg
1609.431	0.952	correct	repeat	Run2	repeat/STIM_001.jpg
1614.336	1.05	correct	repeat	Run2	repeat/STIM_002.jpg
1617.643	0.905	correct	repeat	Run2	repeat/STIM_002.jpg
1621.623	1.084	correct	repeat	Run2	repeat/STIM_002.jpg
1626.474	0.865	correct	repeat	Run2	repeat/STIM_002.jpg
1630.184	0.778	incorrect	repeat	Run2	repeat/STIM_002.jpg
1633.543	0.648	correct	repeat	Run2	repeat/STIM_003.jpg
1638.05	0.877	correct	repeat	Run2	repeat/STIM_003.jpg
1641.223	0.864	correct	repeat	Run2	repeat/STIM_003.jpg
1644.994	0.96	correct	repeat	Run2	repeat/STIM_003.jpg
1648.471	1.206	correct	repeat	Run2	repeat/STIM_003.jpg
1653.304	0.727	correct	repeat	Run2	repeat/STIM_004.jpg
1657.359	0.72	correct	repeat	Run2	repeat/STIM_004.jpg
1660.857	1.161	correct	repeat	Run2	repeat/STIM_004.jpg
1664.871	0.956	correct	repeat	Run2	repeat/STIM_004.jpg
1668.793	0.902	correct	repeat	Run2	repeat/STIM_004.jpg
1673.247	0.962	correct	repeat	Run2	repeat/STIM_005.jpg
1677.343	0.642	correct	repeat	Run2	repeat/STIM_005.jpg
1681.407	1.212	correct	repeat	Run2	repeat/STIM_005.jpg
1685.121	1.048	correct	repeat	Run2	repeat/STIM_005.jpg
1688.917	1.152	correct	repeat	Run2	repeat/STIM_005.jpg
1693.129	0.908	incorrect	repeat	Run2	repeat/STIM_006.jpg
1697.536	1.074	correct	repeat	Run2	repeat/STIM_006.jpg
1701.611	0.886	correct	repeat	Run2	repeat/STIM_006.jpg
1706.323	0.742	correct	repeat	Run2	repeat/STIM_006.jpg
1709.417	0.633	correct	repeat	Run2	repeat/STIM_006.jpg
1713.849	0.73	correct	repeat	Run2	repeat/STIM_007.jpg
1718.233	0.853	correct	repeat	Run2	repeat/STIM_007.jpg
1721.257	1.092	incorrect	repeat	Run2	repeat/STIM_007.jpg
1725.509	1.056	correct	repeat	Run2	repeat/STIM_007.jpg
1730.061	1.058	correct	repeat	Run2	repeat/STIM_007.jpg
1733.965	0.905	correct	repeat	Run2	repeat/STIM_008.jpg
1738.475	1.156	correct	repeat	Run2	repeat/STIM_008.jpg
1743.586	0.965	correct	repeat	Run2	repeat/STIM_008.jpg
1748.418	1.179	correct	repeat	Run2	repeat/STIM_008.jpg
1752.105	1.216	correct	repeat	Run2	repeat/STIM_008.jpg
1756.844	0.65	correct	repeat	Run2	repeat/STIM_009.jpg
1759.923	0.825	correct	repeat	Run2	repeat/STIM_009.jpg
1762.919	0.996	correct	repeat	Run2	repeat/STIM_009.jpg
1766.54	0.732	correct	repeat	Run2	repeat/STIM_009.jpg
1770.043	0.856	correct	repeat	Run2	repeat/STIM_009.jpg
1774.388	0.851	correct	repeat	Run2	repeat/STIM_010.jpg
1778.029	0.673	correct	repeat	Run2	repeat/STIM_010.jpg
1782.545	1.192	correct	repeat	Run2	repeat/STIM_010.jpg
1785.77	0.735	correct	repeat	Run2	repeat/STIM_010.jpg
1789.787	0.933	correct	repeat	Run2	repeat/STIM_010.jpg
1793.065	1.194	correct	repeat	Run2	repeat/STIM_011.jpg
1798.056	1.094	correct	repeat	Run2	repeat/STIM_011.jpg
1802.364	1.155	correct	repeat	Run2	repeat/STIM_011.jpg
1807.264	1.083	correct	repeat	Run2	repeat/STIM_011.jpg
1812.161	0.997	correct	repeat	Run2	repeat/STIM_011.jpg
1816.819	0.928	correct	repeat	Run2	repeat/STIM_012.jpg
1820.047	1.011	correct	repeat	Run2	repeat/STIM_012.jpg
1824.473	0.62	correct	repeat	Run2	repeat/STIM_012.jpg
1827.16	0.917	correct	repeat	Run2	repeat/STIM_012.jpg
1831.013	0.69	correct	repeat	Run2	repeat/STIM_012.jpg
1835.312	0.936	correct	repeat	Run2	repeat/STIM_013.jpg
1839.909	0.657	correct	repeat	Run2	repeat/STIM_013.jpg
1844.321	1.13	correct	repeat	Run2	repeat/STIM_013.jpg
1847.73	1.108	correct	repeat	Run2	repeat/STIM_013.jpg
1852.685	0.728	correct	repeat	Run2	repeat/STIM_013.jpg
1856.481	0.952	correct	repeat	Run2	repeat/STIM_014.jpg
1860.862	0.614	correct	repeat	Run2	repeat/STIM_014.jpg
1864.786	0.933	correct	repeat	Run2	repeat/STIM_014.jpg
1868.757	0.934	correct	repeat	Run2	repeat/STIM_014.jpg
1873.492	1.17	correct	repeat	Run2	repeat/STIM_014.jpg
1877.304	1.383	correct	generate	Run3	generate/STIM_000.jpg
1881.601	1.914	correct	generate	Run3	generate/STIM_000.jpg
1885.812	1.484	correct	generate	Run3	generate/STIM_000.jpg
1890.019	1.091	correct	generate	Run3	generate/STIM_000.jpg
1893.641	1.067	correct	generate	Run3	generate/STIM_000.jpg
1898.332	1.734	correct	generate	Run3	generate/STIM_001.jpg
1902.736	2.121	correct	generate	Run3	generate/STIM_001.jpg
1907.022	2.398	correct	generate	Run3	generate/STIM_001.jpg
1913.331	1.613	correct	generate	Run3	generate/STIM_001.jpg
1917.402	2.203	correct	generate	Run3	generate/STIM_001.jpg
1922.792	2.408	correct	generate	Run3	generate/STIM_002.jpg
1927.79	2.474	correct	generate	Run3	generate/STIM_002.jpg
1932.482	1.067	correct	generate	Run3	generate/STIM_002.jpg
1937.318	1.228	correct	generate	Run3	generate/STIM_002.jpg
1942.347	1.1	correct	generate	Run3	generate/STIM_002.jpg
1945.891	1.866	incorrect	generate	Run3	generate/STIM_003.jpg
1950.265	1.418	correct	generate	Run3	generate/STIM_003.jpg
1954.185	2.363	correct	generate	Run3	generate/STIM_003.jpg
1959.174	2.228	correct	generate	Run3	generate/STIM_003.jpg
1964.056	2.234	incorrect	generate	Run3	generate/STIM_003.jpg
1970.192	2.072	correct	generate	Run3	generate/STIM_004.jpg
1975.067	1.604	correct	generate	Run3	generate/STIM_004.jpg
1979.1	1.647	correct	generate	Run3	generate/STIM_004.jpg
1984.556	1.996	correct	generate	Run3	generate/STIM_004.jpg
1989.382	1.042	correct	generate	Run3	generate/STIM_004.jpg
1994.016	1.258	correct	generate	Run3	generate/STIM_005.jpg
1998.936	2.049	correct	generate	Run3	generate/STIM_005.jpg
2004.126	1.258	correct	generate	Run3	generate/STIM_005.jpg
2009.035	1.274	correct	generate	Run3	generate/STIM_005.jpg
2013.397	2.218	correct	generate	Run3	generate/STIM_005.jpg
2019.197	1.039	correct	generate	Run3	generate/STIM_006.jpg
2024.183	1.115	correct	generate	Run3	generate/STIM_006.jpg
2028.205	1.356	correct	generate	Run3	generate/STIM_006.jpg
2031.913	2.36	correct	generate	Run3	generate/STIM_006.jpg
2038.117	1.133	incorrect	generate	Run3	generate/STIM_006.jpg
2041.513	1.484	correct	generate	Run3	generate/STIM_007.jpg
2046.721	1.881	correct	generate	Run3	generate/STIM_007.jpg
2051.192	1.137	correct	generate	Run3	generate/STIM_007.jpg
2055.741	1.6	correct	generate	Run3	generate/STIM_007.jpg
2060.297	1.82	correct	generate	Run3	generate/STIM_007.jpg
2065.206	1.823	correct	generate	Run3	generate/STIM_008.jpg
2070.464	2.484	correct	generate	Run3	generate/STIM_008.jpg
2075.796	1.431	correct	generate	Run3	generate/STIM_008.jpg
2079.334	1.329	correct	generate	Run3	generate/STIM_008.jpg
2083.951	1.82	correct	generate	Run3	generate/STIM_008.jpg
2088.213	2.308	correct	generate	Run3	generate/STIM_009.jpg
2094.201	1.791	correct	generate	Run3	generate/STIM_009.jpg
2098.955	2.357	correct	generate	Run3	generate/STIM_009.jpg
2104.683	1.443	correct	generate	Run3	generate/STIM_009.jpg
2109.96	1.993	correct	generate	Run3	generate/STIM_009.jpg
2115.567	1.069	correct	generate	Run3	generate/STIM_010.jpg
2119.432	1.889	correct	generate	Run3	generate/STIM_010.jpg
2124.741	2.29	correct	generate	Run3	generate/STIM_010.jpg
2129.987	2.283	correct	generate	Run3	generate/STIM_010.jpg
2134.473	2.152	correct	generate	Run3	generate/STIM_010.jpg
2139.942	1.061	incorrect	generate	Run3	generate/STIM_011.jpg
2143.173	1.72	correct	generate	Run3	generate/STIM_011.jpg
2147.698	1.111	correct	generate	Run3	generate/STIM_011.jpg
2152.285	2.217	correct	generate	Run3	generate/STIM_011.jpg
2156.727	1.251	correct	generate	Run3	generate/STIM_011.jpg
2160.062	2.434	correct	generate	Run3	generate/STIM_012.jpg
2166.173	2.228	correct	generate	Run3	generate/STIM_012.jpg
2171.094	2.401	incorrect	generate	Run3	generate/STIM_012.jpg
2177.478	2.267	correct	generate	Run3	generate/STIM_012.jpg
2183.163	2.474	correct	generate	Run3	generate/STIM_012.jpg
2188.406	1.84	correct	generate	Run3	generate/STIM_013.jpg
2192.912	2.115	correct	generate	Run3	generate/STIM_013.jpg
2197.985	1.49	correct	generate	Run3	generate/STIM_013.jpg
2202.826	1.563	correct	generate	Run3	generate/STIM_013.jpg
2207.155	1.485	correct	generate	Run3	generate/STIM_013.jpg
2211.864	1.803	correct	generate	Run3	generate/STIM_014.jpg
2217.44	2.465	correct	generate	Run3	generate/STIM_014.jpg
2223.778	1.226	correct	generate	Run3	generate/STIM_014.jpg
2228.23	2.259	correct	generate	Run3	generate/STIM_014.jpg
2233.557	1.268	correct	generate	Run3	generate/STIM_014.jpg
2238.31	2.494	correct	generate	Run3	generate/STIM_015.jpg
2244.159	2.484	correct	generate	Run3	generate/STIM_015.jpg
2249.216	1.234	incorrect	generate	Run3	generate/STIM_015.jpg
2253.725	1.697	correct	generate	Run3	generate/STIM_015.jpg
2257.476	1.225	correct	generate	Run3	generate/STIM_015.jpg
2262.386	2.119	correct	generate	Run3	generate/STIM_016.jpg
2267.518	1.596	correct	generate	Run3	generate/STIM_016.jpg
2272.369	1.568	correct	generate	Run3	generate/STIM_016.jpg
2276.865	1.237	correct	generate	Run3	generate/STIM_016.jpg
2281.084	2.409	correct	generate	Run3	generate/STIM_016.jpg
2287.192	2.562	correct	generate	Run3	generate/STIM_017.jpg
2293.229	1.859	correct	generate	Run3	generate/STIM_017.jpg
2297.384	1.284	correct	generate	Run3	generate/STIM_017.jpg
2301.033	1.59	correct	generate	Run3	generate/STIM_017.jpg
2304.948	2.056	correct	generate	Run3	generate/STIM_017.jpg
2310.644	1.822	correct	generate	Run3	generate/STIM_018.jpg
2315.075	1.521	correct	generate	Run3	generate/STIM_018.jpg
2319.145	2.476	correct	generate	Run3	generate/STIM_018.jpg
2323.937	2.459	correct	generate	Run3	generate/STIM_018.jpg
2330.191	1.098	incorrect	generate	Run3	generate/STIM_018.jpg
2333.728	1.996	correct	generate	Run3	generate/STIM_019.jpg
2338.921	2.529	correct	generate	Run3	generate/STIM_019.jpg
2344.71	2.148	correct	generate	Run3	generate/STIM_019.jpg
2348.938	1.929	correct	generate	Run3	generate/STIM_019.jpg
2354.779	1.617	correct	generate	Run3	generate/STIM_019.jpg
2359.996	1.332	correct	generate	Run3	generate/STIM_020.jpg
2364.675	2.112	correct	generate	Run3	generate/STIM_020.jpg
2369.014	1.51	correct	generate	Run3	generate/STIM_020.jpg
2374.304	1.321	correct	generate	Run3	generate/STIM_020.jpg
2379.571	1.595	correct	generate	Run3	generate/STIM_020.jpg
2383.891	2.137	correct	generate	Run3	generate/STIM_021.jpg
2389.974	2.184	correct	generate	Run3	generate/STIM_021.jpg
2395.853	1.387	correct	generate	Run3	generate/STIM_021.jpg
2401.045	2.175	correct	generate	Run3	generate/STIM_021.jpg
2405.496	2.101	correct	generate	Run3	generate/STIM_021.jpg
2410.499	1.189	correct	generate	Run3	generate/STIM_022.jpg
2414.254	1.13	correct	generate	Run3	generate/STIM_022.jpg
2418.3	2.259	correct	generate	Run3	generate/STIM_022.jpg
2422.645	1.145	correct	generate	Run3	generate/STIM_022.jpg
2427.465	1.091	correct	generate	Run3	generate/STIM_022.jpg
2432.273	2.405	correct	generate	Run3	generate/STIM_023.jpg
2438.442	1.4	correct	generate	Run3	generate/STIM_023.jpg
2442.621	1.762	correct	generate	Run3	generate/STIM_023.jpg
2447.229	1.963	correct	generate	Run3	generate/STIM_023.jpg
2452.65	1.292	correct	generate	Run3	generate/STIM_023.jpg
2457.743	2.246	correct	generate	Run3	generate/STIM_024.jpg
2463.901	2.49	correct	generate	Run3	generate/STIM_024.jpg
2468.507	1.447	correct	generate	Run3	generate/STIM_024.jpg
2472.318	1.072	correct	generate	Run3	generate/STIM_024.jpg
2476.506	1.209	correct	generate	Run3	generate/STIM_024.jpg
2480.889	0.962	correct	repeat	Run3	repeat/STIM_000.jpg
2484.952	1.004	correct	repeat	Run3	repeat/STIM_000.jpg
2488.711	1.112	correct	repeat	Run3	repeat/STIM_000.jpg
2491.98	0.993	correct	repeat	Run3	repeat/STIM_000.jpg
2496.133	1.034	correct	repeat	Run3	repeat/STIM_000.jpg
2499.277	0.831	correct	repeat	Run3	repeat/STIM_001.jpg
2502.207	1.076	correct	repeat	Run3	repeat/STIM_001.jpg
2507.252	0.898	correct	repeat	Run3	repeat/STIM_001.jpg
2511.189	0.726	correct	repeat	Run3	repeat/STIM_001.jpg
2514.826	0.787	correct	repeat	Run3	repeat/STIM_001.jpg
2518.21	0.941	correct	repeat	Run3	repeat/STIM_002.jpg
2521.607	0.931	correct	repeat	Run3	repeat/STIM_002.jpg
2526.442	0.617	correct	repeat	Run3	repeat/STIM_002.jpg
2529.487	1.174	correct	repeat	Run3	repeat/STIM_002.jpg
2533.52	1.006	correct	repeat	Run3	repeat/STIM_002.jpg
2537.22	0.814	correct	repeat	Run3	repeat/STIM_003.jpg
2540.496	1.044	correct	repeat	Run3	repeat/STIM_003.jpg
2545.475	0.796	correct	repeat	Run3	repeat/STIM_003.jpg
2550.047	0.625	correct	repeat	Run3	repeat/STIM_003.jpg
2553.22	0.612	correct	repeat	Run3	repeat/STIM_003.jpg
2557.113	0.811	correct	repeat	Run3	repeat/STIM_004.jpg
2560.57	0.646	correct	repeat	Run3	repeat/STIM_004.jpg
2564.256	1.085	correct	repeat	Run3	repeat/STIM_004.jpg
2568.821	0.753	correct	repeat	Run3	repeat/STIM_004.jpg
2571.664	0.626	correct	repeat	Run3	repeat/STIM_004.jpg
2575.395	1.209	correct	repeat	Run3	repeat/STIM_005.jpg
2579.343	0.756	correct	repeat	Run3	repeat/STIM_005.jpg
2583.493	1.218	correct	repeat	Run3	repeat/STIM_005.jpg
2586.855	0.911	correct	repeat	Run3	repeat/STIM_005.jpg
2591.171	1.019	correct	repeat	Run3	repeat/STIM_005.jpg
2595.915	0.709	correct	repeat	Run3	repeat/STIM_006.jpg
2599.606	0.674	correct	repeat	Run3	repeat/STIM_006.jpg
2604.251	1.037	correct	repeat	Run3	repeat/STIM_006.jpg
2608.081	1.064	correct	repeat	Run3	repeat/STIM_006.jpg
2612.967	1.096	correct	repeat	Run3	repeat/STIM_006.jpg
2616.911	0.758	correct	repeat	Run3	repeat/STIM_007.jpg
2621.318	1.082	correct	repeat	Run3	repeat/STIM_007.jpg
2626.328	0.817	correct	repeat	Run3	repeat/STIM_007.jpg
2631.036	0.744	correct	repeat	Run3	repeat/STIM_007.jpg
2635.258	0.974	correct	repeat	Run3	repeat/STIM_007.jpg
2639.046	0.784	correct	repeat	Run3	repeat/STIM_008.jpg
2642.349	0.919	correct	repeat	Run3	repeat/STIM_008.jpg
2646.314	0.751	correct	repeat	Run3	repeat/STIM_008.jpg
2650.992	0.659	correct	repeat	Run3	repeat/STIM_008.jpg
2655.063	0.922	correct	repeat	Run3	repeat/STIM_008.jpg
2659.75	0.72	correct	repeat	Run3	repeat/STIM_009.jpg
2662.872	1.111	correct	repeat	Run3	repeat/STIM_009.jpg
2666.28	0.88	correct	repeat	Run3	repeat/STIM_009.jpg
2669.453	0.993	correct	repeat	Run3	repeat/STIM_009.jpg
2672.759	0.719	correct	repeat	Run3	repeat/STIM_009.jpg
2676.501	1.192	correct	repeat	Run3	repeat/STIM_010.jpg
2681.134	1.096	correct	repeat	Run3	repeat/STIM_010.jpg
2685.204	0.861	correct	repeat	Run3	repeat/STIM_010.jpg
2689.033	1.063	correct	repeat	Run3	repeat/STIM_010.jpg
2693.178	1.184	correct	repeat	Run3	repeat/STIM_010.jpg
2698.052	0.668	correct	repeat	Run3	repeat/STIM_011.jpg
2701.323	0.93	correct	repeat	Run3	repeat/STIM_011.jpg
2704.391	0.885	correct	repeat	Run3	repeat/STIM_011.jpg
2708.821	0.618	correct	repeat	Run3	repeat/STIM_011.jpg
2711.96	1.024	correct	repeat	Run3	repeat/STIM_011.jpg
2715.14	1.051	incorrect	repeat	Run3	repeat/STIM_012.jpg
2719.959	0.69	correct	repeat	Run3	repeat/STIM_012.jpg
2722.798	0.884	correct	repeat	Run3	repeat/STIM_012.jpg
2725.954	0.901	correct	repeat	Run3	repeat/STIM_012.jpg
2730.592	0.849	correct	repeat	Run3	repeat/STIM_012.jpg
2734.172	0.677	correct	repeat	Run3	repeat/STIM_013.jpg
2738.589	0.689	correct	repeat	Run3	repeat/STIM_013.jpg
2742.737	0.7	correct	repeat	Run3	repeat/STIM_013.jpg
2746.75	0.664	correct	repeat	Run3	repeat/STIM_013.jpg
2750.8	1.028	correct	repeat	Run3	repeat/STIM_013.jpg
2754.214	1.208	correct	repeat	Run3	repeat/STIM_014.jpg
2758.774	0.629	correct	repeat	Run3	repeat/STIM_014.jpg
2762.388	1.048	correct	repeat	Run3	repeat/STIM_014.jpg
2766.085	0.668	correct	repeat	Run3	repeat/STIM_014.jpg
2768.84	0.806	correct	repeat	Run3	repeat/STIM_014.jpg
2772.333	1.966	correct	generate	Run4	generate/STIM_000.jpg
2776.792	1.177	correct	generate	Run4	generate/STIM_000.jpg
2780.634	2.034	correct	generate	Run4	generate/STIM_000.jpg
2785.565	2.367	correct	generate	Run4	generate/STIM_000.jpg
2791.309	1.075	correct	generate	Run4	generate/STIM_000.jpg
2794.683	1.624	correct	generate	Run4	generate/STIM_001.jpg
2799.599	1.14	correct	generate	Run4	generate/STIM_001.jpg
2804.486	1.216	correct	generate	Run4	generate/STIM_001.jpg
2808.586	1.398	correct	generate	Run4	generate/STIM_001.jpg
2813.791	1.09	correct	generate	Run4	generate/STIM_001.jpg
2817.975	1.259	correct	generate	Run4	generate/STIM_002.jpg
2823.216	2.514	correct	generate	Run4	generate/STIM_002.jpg
2827.91	2.351	correct	generate	Run4	generate/STIM_002.jpg
2834.12	1.785	correct	generate	Run4	generate/STIM_002.jpg
2838.604	1.996	correct	generate	Run4	generate/STIM_002.jpg
2842.947	1.627	correct	generate	Run4	generate/STIM_003.jpg
2847.203	1.171	correct	generate	Run4	generate/STIM_003.jpg
2851.797	2.007	correct	generate	Run4	generate/STIM_003.jpg
2857.003	1.249	correct	generate	Run4	generate/STIM_003.jpg
2861.66	1.975	correct	generate	Run4	generate/STIM_003.jpg
2866.744	2.418	correct	generate	Run4	generate/STIM_004.jpg
2872.236	1.587	correct	generate	Run4	generate/STIM_004.jpg
2876.615	2.068	correct	generate	Run4	generate/STIM_004.jpg
2881.302	1.318	correct	generate	Run4	generate/STIM_004.jpg
2885.363	1.068	correct	generate	Run4	generate/STIM_004.jpg
2889.022	1.31	correct	generate	Run4	generate/STIM_005.jpg
2892.797	1.049	correct	generate	Run4	generate/STIM_005.jpg
2896.305	1.855	correct	generate	Run4	generate/STIM_005.jpg
2901.111	1.901	correct	generate	Run4	generate/STIM_005.jpg
2905.407	2.476	incorrect	generate	Run4	generate/STIM_005.jpg
2911.055	2.47	correct	generate	Run4	generate/STIM_006.jpg
2916.745	1.514	correct	generate	Run4	generate/STIM_006.jpg
2920.919	1.175	correct	generate	Run4	generate/STIM_006.jpg
2925.256	1.448	correct	generate	Run4	generate/STIM_006.jpg
2929.763	2.25	correct	generate	Run4	generate/STIM_006.jpg
2935.68	2.189	correct	generate	Run4	generate/STIM_007.jpg
2941.334	2.326	correct	generate	Run4	generate/STIM_007.jpg
2947.074	1.402	correct	generate	Run4	generate/STIM_007.jpg
2951.959	1.725	correct	generate	Run4	generate/STIM_007.jpg
2956.341	2.169	correct	generate	Run4	generate/STIM_007.jpg
2962.503	1.351	correct	generate	Run4	generate/STIM_008.jpg
2966.374	1.155	incorrect	generate	Run4	generate/STIM_008.jpg
2969.629	1.243	correct	generate	Run4	generate/STIM_008.jpg
2973.01	1.444	correct	generate	Run4	generate/STIM_008.jpg
2977.476	2.185	correct	generate	Run4	generate/STIM_008.jpg
2982.281	1.857	correct	generate	Run4	generate/STIM_009.jpg
2986.522	1.389	correct	generate	Run4	generate/STIM_009.jpg
2989.922	2.155	correct	generate	Run4	generate/STIM_009.jpg
2994.862	1.512	correct	generate	Run4	generate/STIM_009.jpg
2999.253	2.114	correct	generate	Run4	generate/STIM_009.jpg
3005.255	2.023	correct	generate	Run4	generate/STIM_010.jpg
3010.725	1.161	correct	generate	Run4	generate/STIM_010.jpg
3014.978	1.32	correct	generate	Run4	generate/STIM_010.jpg
3019.736	2.266	correct	generate	Run4	generate/STIM_010.jpg
3025.373	1.571	correct	generate	Run4	generate/STIM_010.jpg
3029.906	1.284	incorrect	generate	Run4	generate/STIM_011.jpg
3034.998	1.373	correct	generate	Run4	generate/STIM_011.jpg
3040.252	2.459	correct	generate	Run4	generate/STIM_011.jpg
3046.193	1.431	correct	generate	Run4	generate/STIM_011.jpg
3050.675	1.827	correct	generate	Run4	generate/STIM_011.jpg
3055.173	2.217	correct	generate	Run4	generate/STIM_012.jpg
3059.676	2.176	correct	generate	Run4	generate/STIM_012.jpg
3064.403	1.622	correct	generate	Run4	generate/STIM_012.jpg
3069.3	1.673	correct	generate	Run4	generate/STIM_012.jpg
3074.658	2.122	correct	generate	Run4	generate/STIM_012.jpg
3080.253	2.082	correct	generate	Run4	generate/STIM_013.jpg
3085.332	1.426	correct	generate	Run4	generate/STIM_013.jpg
3090.219	1.499	correct	generate	Run4	generate/STIM_013.jpg
3094.211	2.462	correct	generate	Run4	generate/STIM_013.jpg
3098.765	1.963	correct	generate	Run4	generate/STIM_013.jpg
3103.401	1.892	correct	generate	Run4	generate/STIM_014.jpg
3107.634	1.183	correct	generate	Run4	generate/STIM_014.jpg
3111.408	1.275	correct	generate	Run4	generate/STIM_014.jpg
3115.23	1.055	correct	generate	Run4	generate/STIM_014.jpg
3119.766	1.062	correct	generate	Run4	generate/STIM_014.jpg
3123.1	1.45	correct	generate	Run4	generate/STIM_015.jpg
3128.234	1.17	correct	generate	Run4	generate/STIM_015.jpg
3133.359	1.083	correct	generate	Run4	generate/STIM_015.jpg
3137.347	1.882	correct	generate	Run4	generate/STIM_015.jpg
3141.618	1.453	correct	generate	Run4	generate/STIM_015.jpg
3145.441	1.933	correct	generate	Run4	generate/STIM_016.jpg
3149.849	2.55	correct	generate	Run4	generate/STIM_016.jpg
3155.68	2.362	correct	generate	Run4	generate/STIM_016.jpg
3160.504	1.536	correct	generate	Run4	generate/STIM_016.jpg
3165.363	1.322	correct	generate	Run4	generate/STIM_016.jpg
3169.56	1.276	correct	generate	Run4	generate/STIM_017.jpg
3173.195	2.053	correct	generate	Run4	generate/STIM_017.jpg
3177.788	2.29	correct	generate	Run4	generate/STIM_017.jpg
3182.41	1.873	correct	generate	Run4	generate/STIM_017.jpg
3187.636	2.372	correct	generate	Run4	generate/STIM_017.jpg
3193.622	1.266	correct	generate	Run4	generate/STIM_018.jpg
3197.853	1.631	correct	generate	Run4	generate/STIM_018.jpg
3203.33	2.483	correct	generate	Run4	generate/STIM_018.jpg
3208.753	1.96	correct	generate	Run4	generate/STIM_018.jpg
3214.368	2.361	correct	generate	Run4	generate/STIM_018.jpg
3218.869	2.534	correct	generate	Run4	generate/STIM_019.jpg
3224.832	1.307	correct	generate	Run4	generate/STIM_019.jpg
3229.051	2.265	correct	generate	Run4	generate/STIM_019.jpg
3234.915	2.333	correct	generate	Run4	generate/STIM_019.jpg
3240.498	2.561	correct	generate	Run4	generate/STIM_019.jpg
3245.657	2.17	correct	generate	Run4	generate/STIM_020.jpg
3250.813	1.728	correct	generate	Run4	generate/STIM_020.jpg
3255.446	2.312	correct	generate	Run4	generate/STIM_020.jpg
3261.116	1.188	correct	generate	Run4	generate/STIM_020.jpg
3265.381	2.493	correct	generate	Run4	generate/STIM_020.jpg
3270.712	1.528	correct	generate	Run4	generate/STIM_021.jpg
3274.693	2.243	correct	generate	Run4	generate/STIM_021.jpg
3280.748	1.846	correct	generate	Run4	generate/STIM_021.jpg
3285.744	1.739	correct	generate	Run4	generate/STIM_021.jpg
3290.827	2.18	correct	generate	Run4	generate/STIM_021.jpg
3295.441	2.537	correct	generate	Run4	generate/STIM_022.jpg
3301.137	2.527	correct	generate	Run4	generate/STIM_022.jpg
3306.01	1.218	correct	generate	Run4	generate/STIM_022.jpg
3309.436	2.302	correct	generate	Run4	generate/STIM_022.jpg
3315.098	1.535	correct	generate	Run4	generate/STIM_022.jpg
3319.37	2.418	correct	generate	Run4	generate/STIM_023.jpg
3323.945	1.168	incorrect	generate	Run4	generate/STIM_023.jpg
3327.37	2.137	correct	generate	Run4	generate/STIM_023.jpg
3333.143	2.522	correct	generate	Run4	generate/STIM_023.jpg
3339.606	1.292	correct	generate	Run4	generate/STIM_023.jpg
3343.936	1.989	correct	generate	Run4	generate/STIM_024.jpg
3349.662	1.195	incorrect	generate	Run4	generate/STIM_024.jpg
3353.87	1.598	correct	generate	Run4	generate/STIM_024.jpg
3357.796	1.622	correct	generate	Run4	generate/STIM_024.jpg
3361.654	1.495	correct	generate	Run4	generate/STIM_024.jpg
3365.264	1.139	correct	repeat	Run4	repeat/STIM_000.jpg
3368.823	1.147	incorrect	repeat	Run4	repeat/STIM_000.jpg
3372.553	0.679	correct	repeat	Run4	repeat/STIM_000.jpg
3375.546	1.175	incorrect	repeat	Run4	repeat/STIM_000.jpg
3380.618	0.921	correct	repeat	Run4	repeat/STIM_000.jpg
3384.014	0.982	correct	repeat	Run4	repeat/STIM_001.jpg
3388.966	0.796	correct	repeat	Run4	repeat/STIM_001.jpg
3393.286	1.048	correct	repeat	Run4	repeat/STIM_001.jpg
3396.491	0.838	correct	repeat	Run4	repeat/STIM_001.jpg
3399.54	1.122	correct	repeat	Run4	repeat/STIM_001.jpg
3404.124	0.626	correct	repeat	Run4	repeat/STIM_002.jpg
3408.379	0.854	incorrect	repeat	Run4	repeat/STIM_002.jpg
3412.304	0.98	correct	repeat	Run4	repeat/STIM_002.jpg
3416.994	0.624	correct	repeat	Run4	repeat/STIM_002.jpg
3421.149	1.038	correct	repeat	Run4	repeat/STIM_002.jpg
3425.645	0.766	correct	repeat	Run4	repeat/STIM_003.jpg
3428.849	0.632	correct	repeat	Run4	repeat/STIM_003.jpg
3432.962	0.728	correct	repeat	Run4	repeat/STIM_003.jpg
3435.849	0.842	correct	repeat	Run4	repeat/STIM_003.jpg
3439.686	1.208	correct	repeat	Run4	repeat/STIM_003.jpg
3443.076	0.667	correct	repeat	Run4	repeat/STIM_004.jpg
3446.239	1.194	correct	repeat	Run4	repeat/STIM_004.jpg
3449.486	0.947	correct	repeat	Run4	repeat/STIM_004.jpg
3452.653	0.834	correct	repeat	Run4	repeat/STIM_004.jpg
3456.177	0.647	correct	repeat	Run4	repeat/STIM_004.jpg
3460.658	1.185	correct	repeat	Run4	repeat/STIM_005.jpg
3464.4	0.857	correct	repeat	Run4	repeat/STIM_005.jpg
3468.165	0.999	correct	repeat	Run4	repeat/STIM_005.jpg
3471.264	0.954	correct	repeat	Run4	repeat/STIM_005.jpg
3475.408	0.829	correct	repeat	Run4	repeat/STIM_005.jpg
3479.415	0.962	correct	repeat	Run4	repeat/STIM_006.jpg
3483.071	0.989	correct	repeat	Run4	repeat/STIM_006.jpg
3486.473	0.864	correct	repeat	Run4	repeat/STIM_006.jpg
3490.242	0.844	correct	repeat	Run4	repeat/STIM_006.jpg
3493.476	0.749	correct	repeat	Run4	repeat/STIM_006.jpg
3498.078	1.052	correct	repeat	Run4	repeat/STIM_007.jpg
3502.088	1.03	correct	repeat	Run4	repeat/STIM_007.jpg
3507.07	1.042	correct	repeat	Run4	repeat/STIM_007.jpg
3510.113	1.049	correct	repeat	Run4	repeat/STIM_007.jpg
3514.973	1.107	correct	repeat	Run4	repeat/STIM_007.jpg
3519.846	0.972	correct	repeat	Run4	repeat/STIM_008.jpg
3524.381	1.016	incorrect	repeat	Run4	repeat/STIM_008.jpg
3527.498	0.85	correct	repeat	Run4	repeat/STIM_008.jpg
3531.67	0.808	incorrect	repeat	Run4	repeat/STIM_008.jpg
3536.371	1.171	correct	repeat	Run4	repeat/STIM_008.jpg
3540.006	0.689	correct	repeat	Run4	repeat/STIM_009.jpg
3543.388	1.186	correct	repeat	Run4	repeat/STIM_009.jpg
3548.278	0.742	correct	repeat	Run4	repeat/STIM_009.jpg
3551.89	0.711	correct	repeat	Run4	repeat/STIM_009.jpg
3555.239	0.612	correct	repeat	Run4	repeat/STIM_009.jpg
3559.832	1.095	correct	repeat	Run4	repeat/STIM_010.jpg
3564.084	0.871	correct	repeat	Run4	repeat/STIM_010.jpg
3567.58	0.77	correct	repeat	Run4	repeat/STIM_010.jpg
3571.832	0.89	correct	repeat	Run4	repeat/STIM_010.jpg
3575.067	1.01	correct	repeat	Run4	repeat/STIM_010.jpg
3578.886	0.994	correct	repeat	Run4	repeat/STIM_011.jpg
3582.334	1.075	correct	repeat	Run4	repeat/STIM_011.jpg
3586.87	0.78	correct	repeat	Run4	repeat/STIM_011.jpg
3590.813	1.173	correct	repeat	Run4	repeat/STIM_011.jpg
3594.835	1.153	correct	repeat	Run4	repeat/STIM_011.jpg
3598.258	0.944	correct	repeat	Run4	repeat/STIM_012.jpg
3602.264	0.774	correct	repeat	Run4	repeat/STIM_012.jpg
3606.439	1.192	correct	repeat	Run4	repeat/STIM_012.jpg
3610.716	0.707	correct	repeat	Run4	repeat/STIM_012.jpg
3614.103	0.839	correct	repeat	Run4	repeat/STIM_012.jpg
3617.635	1.01	correct	repeat	Run4	repeat/STIM_013.jpg
3621.528	0.786	correct	repeat	Run4	repeat/STIM_013.jpg
3624.355	1.144	correct	repeat	Run4	repeat/STIM_013.jpg
3627.865	0.752	correct	repeat	Run4	repeat/STIM_013.jpg
3632.2	1.152	correct	repeat	Run4	repeat/STIM_013.jpg
3635.851	0.835	correct	repeat	Run4	repeat/STIM_014.jpg
3639.31	1.116	correct	repeat	Run4	repeat/STIM_014.jpg
3643.529	0.641	correct	repeat	Run4	repeat/STIM_014.jpg
3647.797	1.176	correct	repeat	Run4	repeat/STIM_014.jpg
3652.538	0.704	incorrect	repeat	Run4	repeat/STIM_014.jpg
