onset	duration	accuracy	trial_type	learning_stage	stimulus
0.0	1.854	correct	study	Phase1	study/STIM_000.jpg
5.374	1.518	correct	study	Phase1	study/STIM_000.jpg
10.332	0.966	correct	study	Phase1	study/STIM_000.jpg
13.343	1.43	correct	study	Phase1	study/STIM_001.jpg
17.945	1.668	correct	study	Phase1	study/STIM_001.jpg
21.778	1.416	correct	study	Phase1	study/STIM_001.jpg
25.701	1.004	correct	study	Phase1	study/STIM_002.jpg
29.63	0.872	correct	study	Phase1	study/STIM_002.jpg
32.71	1.409	incorrect	study	Phase1	study/STIM_002.jpg
37.668	1.41	correct	study	Phase1	study/STIM_003.jpg
41.731	1.453	correct	study	Phase1	study/STIM_003.jpg
45.621	0.837	correct	study	Phase1	study/STIM_003.jpg
49.044	1.093	correct	study	Phase1	study/STIM_004.jpg
52.883	1.153	correct	study	Phase1	study/STIM_004.jpg
57.971	1.36	correct	study	Phase1	study/STIM_004.jpg
63.014	1.462	correct	study	Phase1	study/STIM_005.jpg
67.913	1.866	correct	study	Phase1	study/STIM_005.jpg
73.344	1.615	correct	study	Phase1	study/STIM_005.jpg
78.68	1.319	correct	study	Phase1	study/STIM_006.jpg
82.273	1.569	correct	study	Phase1	study/STIM_006.jpg
86.663	1.345	correct	study	Phase1	study/STIM_006.jpg
91.817	1.838	correct	study	Phase1	study/STIM_007.jpg
95.791	1.102	correct	study	Phase1	study/STIM_007.jpg
99.811	1.719	correct	study	Phase1	study/STIM_007.jpg
105.151	1.606	incorrect	study	Phase1	study/STIM_008.jpg
109.785	1.775	correct	study	Phase1	study/STIM_008.jpg
114.973	1.508	correct	study	Phase1	study/STIM_008.jpg
119.615	1.925	correct	study	Phase1	study/STIM_009.jpg
124.976	1.309	correct	study	Phase1	study/STIM_009.jpg
129.156	1.843	correct	study	Phase1	study/STIM_009.jpg
133.212	1.448	correct	study	Phase1	study/STIM_010.jpg
137.258	0.882	incorrect	study	Phase1	study/STIM_010.jpg
141.318	1.495	correct	study	Phase1	study/STIM_010.jpg
146.464	1.197	correct	study	Phase1	study/STIM_011.jpg
150.053	1.369	correct	study	Phase1	study/STIM_011.jpg
154.943	1.611	correct	study	Phase1	study/STIM_011.jpg
159.4	1.712	correct	study	Phase1	study/STIM_012.jpg
163.782	1.523	correct	study	Phase1	study/STIM_012.jpg
167.452	1.554	correct	study	Phase1	study/STIM_012.jpg
172.873	1.224	correct	study	Phase1	study/STIM_013.jpg
177.852	1.667	correct	study	Phase1	study/STIM_013.jpg
182.857	0.978	correct	study	Phase1	study/STIM_013.jpg
187.23	1.288	correct	study	Phase1	study/STIM_014.jpg
190.692	1.516	correct	study	Phase1	study/STIM_014.jpg
194.496	1.742	correct	study	Phase1	study/STIM_014.jpg
200.165	1.438	correct	study	Phase1	study/STIM_015.jpg
204.741	1.103	correct	study	Phase1	study/STIM_015.jpg
208.738	1.727	correct	study	Phase1	study/STIM_015.jpg
214.092	1.846	correct	study	Phase1	study/STIM_016.jpg
218.136	1.737	correct	study	Phase1	study/STIM_016.jpg
223.826	1.088	correct	study	Phase1	study/STIM_016.jpg
227.206	1.689	correct	study	Phase1	study/STIM_017.jpg
231.06	1.366	correct	study	Phase1	study/STIM_017.jpg
236.044	1.288	correct	study	Phase1	study/STIM_017.jpg
239.594	1.002	correct	study	Phase1	study/STIM_018.jpg
244.031	1.671	correct	study	Phase1	study/STIM_018.jpg
248.151	1.32	correct	study	Phase1	study/STIM_018.jpg
253.213	1.888	correct	study	Phase1	study/STIM_019.jpg
257.24	1.347	correct	study	Phase1	study/STIM_019.jpg
262.458	1.724	correct	study	Phase1	study/STIM_019.jpg
268.08	1.712	correct	study	Phase1	study/STIM_020.jpg
273.566	1.623	correct	study	Phase1	study/STIM_020.jpg
278.29	1.658	correct	study	Phase1	study/STIM_020.jpg
283.352	1.405	correct	study	Phase1	study/STIM_021.jpg
287.561	1.797	correct	study	Phase1	study/STIM_021.jpg
292.641	1.601	correct	study	Phase1	study/STIM_021.jpg
296.772	1.698	correct	study	Phase1	study/STIM_022.jpg
301.584	1.815	correct	study	Phase1	study/STIM_022.jpg
306.149	1.61	correct	study	Phase1	study/STIM_022.jpg
310.262	1.011	correct	study	Phase1	study/STIM_023.jpg
314.558	1.378	correct	study	Phase1	study/STIM_023.jpg
318.258	0.847	correct	study	Phase1	study/STIM_023.jpg
322.913	1.025	correct	study	Phase1	study/STIM_024.jpg
327.747	1.742	correct	study	Phase1	study/STIM_024.jpg
331.68	1.151	correct	study	Phase1	study/STIM_024.jpg
335.303	1.971	correct	study	Phase1	study/STIM_025.jpg
340.98	1.327	correct	study	Phase1	study/STIM_025.jpg
345.899	1.143	correct	study	Phase1	study/STIM_025.jpg
349.391	1.339	correct	study	Phase1	study/STIM_026.jpg
354.583	1.903	correct	study	Phase1	study/STIM_026.jpg
360.007	0.835	correct	study	Phase1	study/STIM_026.jpg
364.777	1.038	correct	study	Phase1	study/STIM_027.jpg
369.299	1.097	correct	study	Phase1	study/STIM_027.jpg
372.826	1.787	correct	study	Phase1	study/STIM_027.jpg
376.629	1.607	correct	study	Phase1	study/STIM_028.jpg
381.549	1.431	correct	study	Phase1	study/STIM_028.jpg
386.164	1.67	correct	study	Phase1	study/STIM_028.jpg
390.385	0.967	correct	study	Phase1	study/STIM_029.jpg
394.659	1.109	correct	study	Phase1	study/STIM_029.jpg
399.743	1.287	correct	study	Phase1	study/STIM_029.jpg
404.519	1.206	correct	test	Phase1	test/STIM_000.jpg
409.089	1.344	correct	test	Phase1	test/STIM_000.jpg
414.237	0.876	correct	test	Phase1	test/STIM_000.jpg
418.823	0.948	correct	test	Phase1	test/STIM_001.jpg
422.152	0.851	correct	test	Phase1	test/STIM_001.jpg
425.157	0.696	correct	test	Phase1	test/STIM_001.jpg
428.773	1.25	correct	test	Phase1	test/STIM_002.jpg
433.909	1.28	correct	test	Phase1	test/STIM_002.jpg
438.1	1.051	correct	test	Phase1	test/STIM_002.jpg
442.784	1.246	correct	test	Phase1	test/STIM_003.jpg
446.589	1.103	correct	test	Phase1	test/STIM_003.jpg
450.847	1.413	correct	test	Phase1	test/STIM_003.jpg
456.255	1.081	correct	test	Phase1	test/STIM_004.jpg
461.295	0.819	correct	test	Phase1	test/STIM_004.jpg
465.567	1.069	incorrect	test	Phase1	test/STIM_004.jpg
469.894	1.469	correct	test	Phase1	test/STIM_005.jpg
474.587	1.154	correct	test	Phase1	test/STIM_005.jpg
478.317	1.264	correct	test	Phase1	test/STIM_005.jpg
483.407	0.837	correct	test	Phase1	test/STIM_006.jpg
487.121	0.759	correct	test	Phase1	test/STIM_006.jpg
491.543	1.096	correct	test	Phase1	test/STIM_006.jpg
495.167	0.761	correct	test	Phase1	test/STIM_007.jpg
498.09	1.015	correct	test	Phase1	test/STIM_007.jpg
502.225	1.136	correct	test	Phase1	test/STIM_007.jpg
507.104	0.937	correct	test	Phase1	test/STIM_008.jpg
510.668	1.343	correct	test	Phase1	test/STIM_008.jpg
514.352	1.444	correct	test	Phase1	test/STIM_008.jpg
519.407	1.435	correct	test	Phase1	test/STIM_009.jpg
523.496	0.838	correct	test	Phase1	test/STIM_009.jpg
526.53	1.065	correct	test	Phase1	test/STIM_009.jpg
531.247	0.962	correct	test	Phase1	test/STIM_010.jpg
534.505	1.141	correct	test	Phase1	test/STIM_010.jpg
539.462	1.054	correct	test	Phase1	test/STIM_010.jpg
543.252	0.908	correct	test	Phase1	test/STIM_011.jpg
547.167	1.104	correct	test	Phase1	test/STIM_011.jpg
551.389	1.152	correct	test	Phase1	test/STIM_011.jpg
555.068	1.369	correct	test	Phase1	test/STIM_012.jpg
559.131	0.74	correct	test	Phase1	test/STIM_012.jpg
563.154	1.134	correct	test	Phase1	test/STIM_012.jpg
566.848	0.724	correct	test	Phase1	test/STIM_013.jpg
570.034	0.829	correct	test	Phase1	test/STIM_013.jpg
573.931	1.365	correct	test	Phase1	test/STIM_013.jpg
578.201	0.93	correct	test	Phase1	test/STIM_014.jpg
582.481	1.472	correct	test	Phase1	test/STIM_014.jpg
586.422	1.219	correct	test	Phase1	test/STIM_014.jpg
590.912	1.055	correct	test	Phase1	test/STIM_015.jpg
595.404	0.933	correct	test	Phase1	test/STIM_015.jpg
599.677	1.071	correct	test	Phase1	test/STIM_015.jpg
603.171	1.336	correct	test	Phase1	test/STIM_016.jpg
606.854	0.73	correct	test	Phase1	test/STIM_016.jpg
611.448	0.739	correct	test	Phase1	test/STIM_016.jpg
614.933	0.909	correct	test	Phase1	test/STIM_017.jpg
617.922	1.148	correct	test	Phase1	test/STIM_017.jpg
621.153	0.983	correct	test	Phase1	test/STIM_017.jpg
624.521	1.424	correct	test	Phase1	test/STIM_018.jpg
628.464	0.69	correct	test	Phase1	test/STIM_018.jpg
632.352	0.769	correct	test	Phase1	test/STIM_018.jpg
635.21	1.287	correct	test	Phase1	test/STIM_019.jpg
639.828	1.255	correct	test	Phase1	test/STIM_019.jpg
643.322	0.791	correct	test	Phase1	test/STIM_019.jpg
646.862	1.407	correct	test	Phase1	test/STIM_020.jpg
651.142	1.026	correct	test	Phase1	test/STIM_020.jpg
654.226	1.04	correct	test	Phase1	test/STIM_020.jpg
659.011	1.273	correct	test	Phase1	test/STIM_021.jpg
662.786	0.756	correct	test	Phase1	test/STIM_021.jpg
667.255	0.961	correct	test	Phase1	test/STIM_021.jpg
670.872	1.004	correct	test	Phase1	test/STIM_022.jpg
675.264	0.722	correct	test	Phase1	test/STIM_022.jpg
678.755	0.9	correct	test	Phase1	test/STIM_022.jpg
683.46	1.388	correct	test	Phase1	test/STIM_023.jpg
687.036	0.864	correct	test	Phase1	test/STIM_023.jpg
690.086	0.833	correct	test	Phase1	test/STIM_023.jpg
693.583	1.009	correct	test	Phase1	test/STIM_024.jpg
697.408	1.375	correct	test	Phase1	test/STIM_024.jpg
702.709	1.311	correct	test	Phase1	test/STIM_024.jpg
707.407	0.822	correct	test	Phase1	test/STIM_025.jpg
710.648	1.223	correct	test	Phase1	test/STIM_025.jpg
714.051	0.84	correct	test	Phase1	test/STIM_025.jpg
717.651	0.738	correct	test	Phase1	test/STIM_026.jpg
721.988	1.293	correct	test	Phase1	test/STIM_026.jpg
727.239	1.477	correct	test	Phase1	test/STIM_026.jpg
731.72	1.08	correct	test	Phase1	test/STIM_027.jpg
735.292	1.299	correct	test	Phase1	test/STIM_027.jpg
740.494	0.783	correct	test	Phase1	test/STIM_027.jpg
744.071	1.188	correct	test	Phase1	test/STIM_028.jpg
747.499	1.431	correct	test	Phase1	test/STIM_028.jpg
751.531	1.181	correct	test	Phase1	test/STIM_028.jpg
754.793	1.316	incorrect	test	Phase1	test/STIM_029.jpg
760.021	1.384	correct	test	Phase1	test/STIM_029.jpg
763.73	0.807	correct	test	Phase1	test/STIM_029.jpg
767.457	1.235	correct	study	Phase2	study/STIM_000.jpg
771.145	0.765	correct	study	Phase2	study/STIM_000.jpg
774.049	1.36	correct	study	Phase2	study/STIM_000.jpg
778.91	0.878	correct	study	Phase2	study/STIM_001.jpg
782.364	1.322	correct	study	Phase2	study/STIM_001.jpg
786.863	1.171	correct	study	Phase2	study/STIM_001.jpg
791.0	0.917	correct	study	Phase2	study/STIM_002.jpg
795.126	0.838	correct	study	Phase2	study/STIM_002.jpg
799.209	0.83	correct	study	Phase2	study/STIM_002.jpg
802.448	0.992	correct	study	Phase2	study/STIM_003.jpg
806.932	1.268	correct	study	Phase2	study/STIM_003.jpg
812.063	0.693	correct	study	Phase2	study/STIM_003.jpg
815.843	1.289	correct	study	Phase2	study/STIM_004.jpg
820.105	1.591	correct	study	Phase2	study/STIM_004.jpg
824.615	1.418	correct	study	Phase2	study/STIM_004.jpg
829.582	1.33	correct	study	Phase2	study/STIM_005.jpg
834.732	1.474	correct	study	Phase2	study/STIM_005.jpg
838.475	1.504	correct	study	Phase2	study/STIM_005.jpg
842.886	0.846	correct	study	Phase2	study/STIM_006.jpg
846.984	1.212	correct	study	Phase2	study/STIM_006.jpg
850.34	1.164	correct	study	Phase2	study/STIM_006.jpg
853.703	0.958	correct	study	Phase2	study/STIM_007.jpg
858.274	1.428	correct	study	Phase2	study/STIM_007.jpg
861.924	0.882	correct	study	Phase2	study/STIM_007.jpg
865.356	1.679	correct	study	Phase2	study/STIM_008.jpg
869.09	1.173	correct	study	Phase2	study/STIM_008.jpg
872.39	1.204	correct	study	Phase2	study/STIM_008.jpg
875.995	1.286	correct	study	Phase2	study/STIM_009.jpg
880.838	0.888	correct	study	Phase2	study/STIM_009.jpg
884.422	1.387	correct	study	Phase2	study/STIM_009.jpg
888.559	1.554	correct	study	Phase2	study/STIM_010.jpg
892.761	1.626	correct	study	Phase2	study/STIM_010.jpg
896.511	0.996	correct	study	Phase2	study/STIM_010.jpg
901.16	1.461	correct	study	Phase2	study/STIM_011.jpg
905.468	0.818	correct	study	Phase2	study/STIM_011.jpg
908.294	0.906	correct	study	Phase2	study/STIM_011.jpg
911.244	1.472	correct	study	Phase2	study/STIM_012.jpg
915.607	0.858	correct	study	Phase2	study/STIM_012.jpg
918.863	0.688	correct	study	Phase2	study/STIM_012.jpg
923.356	1.239	correct	study	Phase2	study/STIM_013.jpg
928.477	1.14	correct	study	Phase2	study/STIM_013.jpg
931.801	0.798	correct	study	Phase2	study/STIM_013.jpg
934.694	0.809	correct	study	Phase2	study/STIM_014.jpg
937.97	0.818	correct	study	Phase2	study/STIM_014.jpg
942.265	1.038	correct	study	Phase2	study/STIM_014.jpg
946.832	1.092	correct	study	Phase2	study/STIM_015.jpg
951.647	1.105	correct	study	Phase2	study/STIM_015.jpg
955.426	1.301	correct	study	Phase2	study/STIM_015.jpg
959.35	1.329	correct	study	Phase2	study/STIM_016.jpg
963.674	0.927	correct	study	Phase2	study/STIM_016.jpg
967.89	0.978	correct	study	Phase2	study/STIM_016.jpg
971.53	1.077	correct	study	Phase2	study/STIM_017.jpg
976.419	1.6	correct	study	Phase2	study/STIM_017.jpg
981.252	0.952	correct	study	Phase2	study/STIM_017.jpg
984.791	0.833	correct	study	Phase2	study/STIM_018.jpg
988.671	0.956	correct	study	Phase2	study/STIM_018.jpg
993.447	0.718	correct	study	Phase2	study/STIM_018.jpg
997.139	0.924	correct	study	Phase2	study/STIM_019.jpg
1002.044	1.046	correct	study	Phase2	study/STIM_019.jpg
1006.262	0.847	correct	study	Phase2	study/STIM_019.jpg
1009.818	1.373	correct	study	Phase2	study/STIM_020.jpg
1015.159	1.602	correct	study	Phase2	study/STIM_020.jpg
1019.437	1.232	correct	study	Phase2	study/STIM_020.jpg
1023.435	1.694	correct	study	Phase2	study/STIM_021.jpg
1028.123	0.774	correct	study	Phase2	study/STIM_021.jpg
1032.083	1.397	correct	study	Phase2	study/STIM_021.jpg
1035.905	1.606	correct	study	Phase2	study/STIM_022.jpg
1041.281	1.516	correct	study	Phase2	study/STIM_022.jpg
1046.106	1.356	correct	study	Phase2	study/STIM_022.jpg
1051.418	1.063	correct	study	Phase2	study/STIM_023.jpg
1055.577	1.491	correct	study	Phase2	study/STIM_023.jpg
1059.897	0.985	correct	study	Phase2	study/STIM_023.jpg
1064.586	1.19	correct	study	Phase2	study/STIM_024.jpg
1068.154	1.187	correct	study	Phase2	study/STIM_024.jpg
1072.153	0.85	correct	study	Phase2	study/STIM_024.jpg
1075.876	1.652	correct	study	Phase2	study/STIM_025.jpg
1081.104	1.271	correct	study	Phase2	study/STIM_025.jpg
1086.095	1.421	correct	study	Phase2	study/STIM_025.jpg
1089.733	1.043	correct	study	Phase2	study/STIM_026.jpg
1094.388	1.363	correct	study	Phase2	study/STIM_026.jpg
1099.168	0.734	correct	study	Phase2	study/STIM_026.jpg
1102.087	0.79	correct	study	Phase2	study/STIM_027.jpg
1106.036	1.522	correct	study	Phase2	study/STIM_027.jpg
1109.928	1.094	correct	study	Phase2	study/STIM_027.jpg
1114.214	1.355	correct	study	Phase2	study/STIM_028.jpg
1117.903	1.382	correct	study	Phase2	study/STIM_028.jpg
1123.143	1.02	correct	study	Phase2	study/STIM_028.jpg
1127.242	1.269	correct	study	Phase2	study/STIM_029.jpg
1130.77	1.347	correct	study	Phase2	study/STIM_029.jpg
1134.207	1.464	correct	study	Phase2	study/STIM_029.jpg
1137.971	0.799	correct	test	Phase2	test/STIM_000.jpg
1141.235	0.794	correct	test	Phase2	test/STIM_000.jpg
1145.475	0.715	correct	test	Phase2	test/STIM_000.jpg
1149.777	1.107	correct	test	Phase2	test/STIM_001.jpg
1154.465	1.275	correct	test	Phase2	test/STIM_001.jpg
1157.909	1.284	correct	test	Phase2	test/STIM_001.jpg
1161.626	1.051	correct	test	Phase2	test/STIM_002.jpg
1166.42	1.095	correct	test	Phase2	test/STIM_002.jpg
1169.686	0.935	correct	test	Phase2	test/STIM_002.jpg
1173.182	1.142	correct	test	Phase2	test/STIM_003.jpg
1176.833	0.858	correct	test	Phase2	test/STIM_003.jpg
1181.185	0.711	correct	test	Phase2	test/STIM_003.jpg
1185.715	0.94	correct	test	Phase2	test/STIM_004.jpg
1190.234	1.245	correct	test	Phase2	test/STIM_004.jpg
1193.692	1.026	correct	test	Phase2	test/STIM_004.jpg
1197.049	0.882	correct	test	Phase2	test/STIM_005.jpg
1200.709	1.314	correct	test	Phase2	test/STIM_005.jpg
1204.769	1.353	correct	test	Phase2	test/STIM_005.jpg
1208.18	0.84	correct	test	Phase2	test/STIM_006.jpg
1211.038	1.24	correct	test	Phase2	test/STIM_006.jpg
1215.911	1.07	correct	test	Phase2	test/STIM_006.jpg
1220.318	1.283	correct	test	Phase2	test/STIM_007.jpg
1224.64	0.892	correct	test	Phase2	test/STIM_007.jpg
1228.53	0.944	correct	test	Phase2	test/STIM_007.jpg
1233.438	0.699	correct	test	Phase2	test/STIM_008.jpg
1237.134	1.248	correct	test	Phase2	test/STIM_008.jpg
1242.126	0.802	correct	test	Phase2	test/STIM_008.jpg
1246.433	0.709	correct	test	Phase2	test/STIM_009.jpg
1250.43	1.295	correct	test	Phase2	test/STIM_009.jpg
1253.831	1.066	correct	test	Phase2	test/STIM_009.jpg
1258.097	0.805	correct	test	Phase2	test/STIM_010.jpg
1261.527	1.091	correct	test	Phase2	test/STIM_010.jpg
1265.002	1.17	correct	test	Phase2	test/STIM_010.jpg
1269.399	0.802	correct	test	Phase2	test/STIM_011.jpg
1273.383	1.463	correct	test	Phase2	test/STIM_011.jpg
1278.064	1.059	correct	test	Phase2	test/STIM_011.jpg
1281.242	1.032	correct	test	Phase2	test/STIM_012.jpg
1284.762	1.273	correct	test	Phase2	test/STIM_012.jpg
1288.762	1.394	correct	test	Phase2	test/STIM_012.jpg
1293.511	0.976	correct	test	Phase2	test/STIM_013.jpg
1296.806	1.179	correct	test	Phase2	test/STIM_013.jpg
1300.316	1.27	correct	test	Phase2	test/STIM_013.jpg
1305.277	0.739	correct	test	Phase2	test/STIM_014.jpg
1309.817	0.994	correct	test	Phase2	test/STIM_014.jpg
1313.486	0.85	correct	test	Phase2	test/STIM_014.jpg
1316.767	1.179	correct	test	Phase2	test/STIM_015.jpg
1321.8	1.333	correct	test	Phase2	test/STIM_015.jpg
1325.954	1.114	correct	test	Phase2	test/STIM_015.jpg
1329.688	1.209	correct	test	Phase2	test/STIM_016.jpg
1333.506	1.207	correct	test	Phase2	test/STIM_016.jpg
1337.168	0.844	correct	test	Phase2	test/STIM_016.jpg
1341.55	1.26	correct	test	Phase2	test/STIM_017.jpg
1345.071	1.222	correct	test	Phase2	test/STIM_017.jpg
1348.912	0.985	correct	test	Phase2	test/STIM_017.jpg
1352.717	0.803	correct	test	Phase2	test/STIM_018.jpg
1355.613	0.871	correct	test	Phase2	test/STIM_018.jpg
1359.071	1.431	correct	test	Phase2	test/STIM_018.jpg
1363.269	1.4	correct	test	Phase2	test/STIM_019.jpg
1367.066	1.351	correct	test	Phase2	test/STIM_019.jpg
1371.912	1.313	correct	test	Phase2	test/STIM_019.jpg
1375.379	1.396	correct	test	Phase2	test/STIM_020.jpg
1379.118	1.315	correct	test	Phase2	test/STIM_020.jpg
1383.415	0.896	correct	test	Phase2	test/STIM_020.jpg
1387.088	0.822	correct	test	Phase2	test/STIM_021.jpg
1390.481	1.009	correct	test	Phase2	test/STIM_021.jpg
1393.685	1.158	correct	test	Phase2	test/STIM_021.jpg
1397.822	1.161	correct	test	Phase2	test/STIM_022.jpg
1401.455	0.718	incorrect	test	Phase2	test/STIM_022.jpg
1405.312	0.718	correct	test	Phase2	test/STIM_022.jpg
1409.783	0.694	correct	test	Phase2	test/STIM_023.jpg
1413.877	1.444	correct	test	Phase2	test/STIM_023.jpg
1417.756	1.109	correct	test	Phase2	test/STIM_023.jpg
1422.181	1.23	incorrect	test	Phase2	test/STIM_024.jpg
1426.6	1.229	correct	test	Phase2	test/STIM_024.jpg
1431.614	1.049	correct	test	Phase2	test/STIM_024.jpg
1434.857	1.434	correct	test	Phase2	test/STIM_025.jpg
1438.669	0.769	correct	test	Phase2	test/STIM_025.jpg
1441.82	0.873	correct	test	Phase2	test/STIM_025.jpg
1446.542	0.999	correct	test	Phase2	test/STIM_026.jpg
1451.139	1.285	correct	test	Phase2	test/STIM_026.jpg
1454.471	1.252	correct	test	Phase2	test/STIM_026.jpg
1458.492	1.094	correct	test	Phase2	test/STIM_027.jpg
1463.435	1.018	correct	test	Phase2	test/STIM_027.jpg
1466.84	0.865	correct	test	Phase2	test/STIM_027.jpg
1469.76	1.345	correct	test	Phase2	test/STIM_028.jpg
1473.317	1.341	correct	test	Phase2	test/STIM_028.jpg
1477.241	0.824	correct	test	Phase2	test/STIM_028.jpg
1481.772	1.085	correct	test	Phase2	test/STIM_029.jpg
1486.021	1.06	correct	test	Phase2	test/STIM_029.jpg
1489.399	0.862	correct	test	Phase2	test/STIM_029.jpg
1492.73	1.361	correct	study	Phase3	study/STIM_000.jpg
1497.122	0.946	correct	study	Phase3	study/STIM_000.jpg
1501.358	1.414	correct	study	Phase3	study/STIM_000.jpg
1505.355	1.423	correct	study	Phase3	study/STIM_001.jpg
1510.128	0.721	correct	study	Phase3	study/STIM_001.jpg
1513.065	1.035	correct	study	Phase3	study/STIM_001.jpg
1516.352	1.353	correct	study	Phase3	study/STIM_002.jpg
1520.96	1.213	correct	study	Phase3	study/STIM_002.jpg
1524.886	1.258	correct	study	Phase3	study/STIM_002.jpg
1529.275	1.037	correct	study	Phase3	study/STIM_003.jpg
1534.01	1.152	correct	study	Phase3	study/STIM_003.jpg
1538.029	1.31	correct	study	Phase3	study/STIM_003.jpg
1541.347	1.14	correct	study	Phase3	study/STIM_004.jpg
1546.442	0.688	correct	study	Phase3	study/STIM_004.jpg
1550.87	1.109	correct	study	Phase3	study/STIM_004.jpg
1554.981	0.762	correct	study	Phase3	study/STIM_005.jpg
1559.614	0.666	correct	study	Phase3	study/STIM_005.jpg
1563.577	1.376	correct	study	Phase3	study/STIM_005.jpg
1568.351	1.308	correct	study	Phase3	study/STIM_006.jpg
1572.207	1.089	correct	study	Phase3	study/STIM_006.jpg
1575.5	0.676	correct	study	Phase3	study/STIM_006.jpg
1579.334	1.051	correct	study	Phase3	study/STIM_007.jpg
1584.327	1.077	correct	study	Phase3	study/STIM_007.jpg
1588.604	1.145	correct	study	Phase3	study/STIM_007.jpg
1592.591	1.31	correct	study	Phase3	study/STIM_008.jpg
1597.567	1.136	correct	study	Phase3	study/STIM_008.jpg
1602.114	0.922	correct	study	Phase3	study/STIM_008.jpg
1606.601	0.893	correct	study	Phase3	study/STIM_009.jpg
1611.445	1.05	correct	study	Phase3	study/STIM_009.jpg
1615.393	0.766	correct	study	Phase3	study/STIM_009.jpg
1619.043	0.79	correct	study	Phase3	study/STIM_010.jpg
1622.112	1.329	correct	study	Phase3	study/STIM_010.jpg
1626.499	1.296	correct	study	Phase3	study/STIM_010.jpg
1631.171	0.786	correct	study	Phase3	study/STIM_011.jpg
1634.754	1.059	correct	study	Phase3	study/STIM_011.jpg
1638.245	1.097	correct	study	Phase3	study/STIM_011.jpg
1641.648	1.366	correct	study	Phase3	study/STIM_012.jpg
1645.398	1.295	correct	study	Phase3	study/STIM_012.jpg
1648.953	0.687	correct	study	Phase3	study/STIM_012.jpg
1653.338	0.982	correct	study	Phase3	study/STIM_013.jpg
1656.915	0.734	correct	study	Phase3	study/STIM_013.jpg
1660.004	0.991	correct	study	Phase3	study/STIM_013.jpg
1664.305	0.877	correct	study	Phase3	study/STIM_014.jpg
1668.586	1.009	correct	study	Phase3	study/STIM_014.jpg
1672.495	0.767	correct	study	Phase3	study/STIM_014.jpg
1677.037	1.269	correct	study	Phase3	study/STIM_015.jpg
1681.992	0.665	correct	study	Phase3	study/STIM_015.jpg
1686.053	1.214	correct	study	Phase3	study/STIM_015.jpg
1689.285	0.888	correct	study	Phase3	study/STIM_016.jpg
1693.357	0.9	correct	study	Phase3	study/STIM_016.jpg
1698.166	1.16	correct	study	Phase3	study/STIM_016.jpg
1702.49	1.078	correct	study	Phase3	study/STIM_017.jpg
1707.063	0.806	incorrect	study	Phase3	study/STIM_017.jpg
1710.587	0.796	correct	study	Phase3	study/STIM_017.jpg
1713.47	0.821	correct	study	Phase3	study/STIM_018.jpg
1717.706	0.984	correct	study	Phase3	study/STIM_018.jpg
1721.366	1.212	correct	study	Phase3	study/STIM_018.jpg
1725.226	1.279	correct	study	Phase3	study/STIM_019.jpg
1729.321	1.237	correct	study	Phase3	study/STIM_019.jpg
1733.353	1.217	correct	study	Phase3	study/STIM_019.jpg
1736.761	0.768	correct	study	Phase3	study/STIM_020.jpg
1741.515	1.381	correct	study	Phase3	study/STIM_020.jpg
1745.276	1.218	correct	study	Phase3	study/STIM_020.jpg
1750.256	0.844	correct	study	Phase3	study/STIM_021.jpg
1753.396	0.64	correct	study	Phase3	study/STIM_021.jpg
1757.681	1.033	correct	study	Phase3	study/STIM_021.jpg
1762.7	0.897	correct	study	Phase3	study/STIM_022.jpg
1766.786	0.79	correct	study	Phase3	study/STIM_022.jpg
1771.488	1.032	correct	study	Phase3	study/STIM_022.jpg
1774.821	0.67	correct	study	Phase3	study/STIM_023.jpg
1777.957	1.005	correct	study	Phase3	study/STIM_023.jpg
1782.553	0.863	correct	study	Phase3	study/STIM_023.jpg
1787.049	1.315	correct	study	Phase3	study/STIM_024.jpg
1790.746	1.124	correct	study	Phase3	study/STIM_024.jpg
1795.791	0.714	correct	study	Phase3	study/STIM_024.jpg
1798.833	1.133	correct	study	Phase3	study/STIM_025.jpg
1802.378	0.74	correct	study	Phase3	study/STIM_025.jpg
1805.312	1.33	correct	study	Phase3	study/STIM_025.jpg
1810.178	0.945	correct	study	Phase3	study/STIM_026.jpg
1813.548	1.153	correct	study	Phase3	study/STIM_026.jpg
1818.212	0.795	correct	study	Phase3	study/STIM_026.jpg
1822.488	0.972	correct	study	Phase3	study/STIM_027.jpg
1825.953	1.188	correct	study	Phase3	study/STIM_027.jpg
1831.031	1.409	correct	study	Phase3	study/STIM_027.jpg
1835.864	0.793	correct	study	Phase3	study/STIM_028.jpg
1839.426	1.163	correct	study	Phase3	study/STIM_028.jpg
1843.283	0.923	correct	study	Phase3	study/STIM_028.jpg
1847.704	0.852	correct	study	Phase3	study/STIM_029.jpg
1850.896	1.434	correct	study	Phase3	study/STIM_029.jpg
1854.781	1.143	correct	study	Phase3	study/STIM_029.jpg
1859.267	0.866	correct	test	Phase3	test/STIM_000.jpg
1862.637	1.135	correct	test	Phase3	test/STIM_000.jpg
1867.273	0.885	correct	test	Phase3	test/STIM_000.jpg
1870.907	1.058	correct	test	Phase3	test/STIM_001.jpg
1875.553	0.882	correct	test	Phase3	test/STIM_001.jpg
1878.68	1.478	correct	test	Phase3	test/STIM_001.jpg
1883.853	1.193	correct	test	Phase3	test/STIM_002.jpg
1888.041	1.048	correct	test	Phase3	test/STIM_002.jpg
1892.394	1.272	correct	test	Phase3	test/STIM_002.jpg
1896.99	0.974	correct	test	Phase3	test/STIM_003.jpg
1900.28	1.201	correct	test	Phase3	test/STIM_003.jpg
1903.604	0.808	correct	test	Phase3	test/STIM_003.jpg
1906.627	1.202	correct	test	Phase3	test/STIM_004.jpg
1910.042	1.265	correct	test	Phase3	test/STIM_004.jpg
1913.82	1.049	correct	test	Phase3	test/STIM_004.jpg
1916.913	1.248	correct	test	Phase3	test/STIM_005.jpg
1920.524	1.268	correct	test	Phase3	test/STIM_005.jpg
1925.214	1.414	correct	test	Phase3	test/STIM_005.jpg
1930.251	1.176	correct	test	Phase3	test/STIM_006.jpg
1935.227	0.912	correct	test	Phase3	test/STIM_006.jpg
1939.181	1.388	correct	test	Phase3	test/STIM_006.jpg
1943.576	1.384	correct	test	Phase3	test/STIM_007.jpg
1947.649	0.908	correct	test	Phase3	test/STIM_007.jpg
1952.091	1.184	correct	test	Phase3	test/STIM_007.jpg
1955.913	1.382	correct	test	Phase3	test/STIM_008.jpg
1959.565	1.46	correct	test	Phase3	test/STIM_008.jpg
1964.624	1.343	correct	test	Phase3	test/STIM_008.jpg
1969.209	0.794	correct	test	Phase3	test/STIM_009.jpg
1972.715	1.358	correct	test	Phase3	test/STIM_009.jpg
1977.776	0.967	correct	test	Phase3	test/STIM_009.jpg
1982.072	1.477	correct	test	Phase3	test/STIM_010.jpg
1987.397	0.972	correct	test	Phase3	test/STIM_010.jpg
1992.1	0.708	correct	test	Phase3	test/STIM_010.jpg
1995.553	1.241	correct	test	Phase3	test/STIM_011.jpg
2000.039	0.949	correct	test	Phase3	test/STIM_011.jpg
2003.706	1.312	correct	test	Phase3	test/STIM_011.jpg
2007.893	0.926	correct	test	Phase3	test/STIM_012.jpg
2012.272	1.387	incorrect	test	Phase3	test/STIM_012.jpg
2016.409	1.388	correct	test	Phase3	test/STIM_012.jpg
2021.228	1.058	correct	test	Phase3	test/STIM_013.jpg
2025.479	0.99	correct	test	Phase3	test/STIM_013.jpg
2030.125	1.015	correct	test	Phase3	test/STIM_013.jpg
2033.972	1.244	correct	test	Phase3	test/STIM_014.jpg
2038.534	1.096	correct	test	Phase3	test/STIM_014.jpg
2042.673	0.975	correct	test	Phase3	test/STIM_014.jpg
2046.678	0.932	correct	test	Phase3	test/STIM_015.jpg
2050.107	1.32	correct	test	Phase3	test/STIM_015.jpg
2053.453	0.897	correct	test	Phase3	test/STIM_015.jpg
2056.967	1.151	correct	test	Phase3	test/STIM_016.jpg
2061.438	1.441	correct	test	Phase3	test/STIM_016.jpg
2066.001	1.411	correct	test	Phase3	test/STIM_016.jpg
2069.92	0.871	correct	test	Phase3	test/STIM_017.jpg
2073.038	0.829	correct	test	Phase3	test/STIM_017.jpg
2076.234	1.367	correct	test	Phase3	test/STIM_017.jpg
2080.145	1.101	correct	test	Phase3	test/STIM_018.jpg
2084.362	1.056	correct	test	Phase3	test/STIM_018.jpg
2088.595	1.287	correct	test	Phase3	test/STIM_018.jpg
2092.455	0.792	correct	test	Phase3	test/STIM_019.jpg
2097.091	0.977	correct	test	Phase3	test/STIM_019.jpg
2100.661	0.78	correct	test	Phase3	test/STIM_019.jpg
2103.859	0.748	correct	test	Phase3	test/STIM_020.jpg
2108.311	0.76	correct	test	Phase3	test/STIM_020.jpg
2112.505	0.96	correct	test	Phase3	test/STIM_020.jpg
2116.208	1.46	correct	test	Phase3	test/STIM_021.jpg
2121.214	1.216	correct	test	Phase3	test/STIM_021.jpg
2125.243	0.688	correct	test	Phase3	test/STIM_021.jpg
2129.059	0.761	correct	test	Phase3	test/STIM_022.jpg
2132.879	0.952	correct	test	Phase3	test/STIM_022.jpg
2137.107	0.838	correct	test	Phase3	test/STIM_022.jpg
2141.418	1.315	correct	test	Phase3	test/STIM_023.jpg
2145.537	1.106	correct	test	Phase3	test/STIM_023.jpg
2150.373	1.209	correct	test	Phase3	test/STIM_023.jpg
2153.933	1.462	correct	test	Phase3	test/STIM_024.jpg
2157.86	0.903	correct	test	Phase3	test/STIM_024.jpg
2161.451	0.935	correct	test	Phase3	test/STIM_024.jpg
2165.933	1.14	correct	test	Phase3	test/STIM_025.jpg
2171.017	0.95	correct	test	Phase3	test/STIM_025.jpg
2175.847	0.696	correct	test	Phase3	test/STIM_025.jpg
2179.288	0.763	correct	test	Phase3	test/STIM_026.jpg
2182.13	0.924	correct	test	Phase3	test/STIM_026.jpg
2186.64	1.458	correct	test	Phase3	test/STIM_026.jpg
2191.201	0.766	correct	test	Phase3	test/STIM_027.jpg
2194.042	1.419	correct	test	Phase3	test/STIM_027.jpg
2198.796	1.036	correct	test	Phase3	test/STIM_027.jpg
2202.667	1.254	correct	test	Phase3	test/STIM_028.jpg
2206.552	0.87	correct	test	Phase3	test/STIM_028.jpg
2209.761	1.172	correct	test	Phase3	test/STIM_028.jpg
2213.73	1.37	correct	test	Phase3	test/STIM_029.jpg
2218.188	1.221	correct	test	Phase3	test/STIM_029.jpg
2222.71	1.186	correct	test	Phase3	test/STIM_029.jpg
