onset	duration	response_time_ms	trial_type	learning_stage	stimulus	response_port
0.0	1.854	1854.0	study	Phase1	study/STIM_000.jpg	99
5.374	1.518	1517.9	study	Phase1	study/STIM_000.jpg	100
10.332	0.966	966.3	study	Phase1	study/STIM_000.jpg	99
13.343	1.43	1430.1	study	Phase1	study/STIM_001.jpg	99
17.945	1.668	1667.9	study	Phase1	study/STIM_001.jpg	100
21.778	1.416	1416.2	study	Phase1	study/STIM_001.jpg	100
25.701	1.004	1004.4	study	Phase1	study/STIM_002.jpg	100
29.63	0.872	871.5	study	Phase1	study/STIM_002.jpg	100
32.71	1.409	1409.4	study	Phase1	study/STIM_002.jpg	100
37.668	1.41	1410.4	study	Phase1	study/STIM_003.jpg	100
41.731	1.453	1452.9	study	Phase1	study/STIM_003.jpg	100
45.621	0.837	836.8	study	Phase1	study/STIM_003.jpg	99
49.044	1.093	1092.8	study	Phase1	study/STIM_004.jpg	99
52.883	1.153	1152.7	study	Phase1	study/STIM_004.jpg	99
57.971	1.36	1359.9	study	Phase1	study/STIM_004.jpg	100
63.014	1.462	1462.2	study	Phase1	study/STIM_005.jpg	99
67.913	1.866	1866.3	study	Phase1	study/STIM_005.jpg	100
73.344	1.615	1614.8	study	Phase1	study/STIM_005.jpg	100
78.68	1.319	1318.8	study	Phase1	study/STIM_006.jpg	99
82.273	1.569	1568.7	study	Phase1	study/STIM_006.jpg	99
86.663	1.345	1345.2	study	Phase1	study/STIM_006.jpg	100
91.817	1.838	1838.5	study	Phase1	study/STIM_007.jpg	99
95.791	1.102	1101.8	study	Phase1	study/STIM_007.jpg	100
99.811	1.719	1719.0	study	Phase1	study/STIM_007.jpg	100
105.151	1.606	1605.5	study	Phase1	study/STIM_008.jpg	100
109.785	1.775	1775.1	study	Phase1	study/STIM_008.jpg	99
114.973	1.508	1508.1	study	Phase1	study/STIM_008.jpg	99
119.615	1.925	1924.6	study	Phase1	study/STIM_009.jpg	100
124.976	1.309	1309.3	study	Phase1	study/STIM_009.jpg	99
129.156	1.843	1843.3	study	Phase1	study/STIM_009.jpg	99
133.212	1.448	1447.5	study	Phase1	study/STIM_010.jpg	99
137.258	0.882	882.4	study	Phase1	study/STIM_010.jpg	100
141.318	1.495	1495.2	study	Phase1	study/STIM_010.jpg	99
146.464	1.197	1196.6	study	Phase1	study/STIM_011.jpg	100
150.053	1.369	1369.1	study	Phase1	study/STIM_011.jpg	100
154.943	1.611	1611.1	study	Phase1	study/STIM_011.jpg	99
159.4	1.712	1712.4	study	Phase1	study/STIM_012.jpg	99
163.782	1.523	1523.2	study	Phase1	study/STIM_012.jpg	99
167.452	1.554	1553.8	study	Phase1	study/STIM_012.jpg	100
172.873	1.224	1224.2	study	Phase1	study/STIM_013.jpg	100
177.852	1.667	1666.8	study	Phase1	study/STIM_013.jpg	99
182.857	0.978	977.7	study	Phase1	study/STIM_013.jpg	99
187.23	1.288	1287.6	study	Phase1	study/STIM_014.jpg	100
190.692	1.516	1516.0	study	Phase1	study/STIM_014.jpg	99
194.496	1.742	1742.1	study	Phase1	study/STIM_014.jpg	100
200.165	1.438	1437.6	study	Phase1	study/STIM_015.jpg	100
204.741	1.103	1103.2	study	Phase1	study/STIM_015.jpg	99
208.738	1.727	1726.7	study	Phase1	study/STIM_015.jpg	99
214.092	1.846	1845.5	study	Phase1	study/STIM_016.jpg	99
218.136	1.737	1736.8	study	Phase1	study/STIM_016.jpg	99
223.826	1.088	1087.6	study	Phase1	study/STIM_016.jpg	99
227.206	1.689	1688.9	study	Phase1	study/STIM_017.jpg	100
231.06	1.366	1365.5	study	Phase1	study/STIM_017.jpg	99
236.044	1.288	1288.2	study	Phase1	study/STIM_017.jpg	99
239.594	1.002	1002.4	study	Phase1	study/STIM_018.jpg	99
244.031	1.671	1670.9	study	Phase1	study/STIM_018.jpg	99
248.151	1.32	1319.7	study	Phase1	study/STIM_018.jpg	99
253.213	1.888	1888.2	study	Phase1	study/STIM_019.jpg	99
257.24	1.347	1346.6	study	Phase1	study/STIM_019.jpg	100
262.458	1.724	1723.7	study	Phase1	study/STIM_019.jpg	99
268.08	1.712	1712.0	study	Phase1	study/STIM_020.jpg	99
273.566	1.623	1622.7	study	Phase1	study/STIM_020.jpg	99
278.29	1.658	1658.2	study	Phase1	study/STIM_020.jpg	100
283.352	1.405	1404.7	study	Phase1	study/STIM_021.jpg	99
287.561	1.797	1797.1	study	Phase1	study/STIM_021.jpg	99
292.641	1.601	1601.1	study	Phase1	study/STIM_021.jpg	99
296.772	1.698	1697.6	study	Phase1	study/STIM_022.jpg	99
301.584	1.815	1815.4	study	Phase1	study/STIM_022.jpg	99
306.149	1.61	1610.0	study	Phase1	study/STIM_022.jpg	99
310.262	1.011	1011.0	study	Phase1	study/STIM_023.jpg	100
314.558	1.378	1377.6	study	Phase1	study/STIM_023.jpg	100
318.258	0.847	847.4	study	Phase1	study/STIM_023.jpg	99
322.913	1.025	1025.4	study	Phase1	study/STIM_024.jpg	100
327.747	1.742	1742.1	study	Phase1	study/STIM_024.jpg	100
331.68	1.151	1150.9	study	Phase1	study/STIM_024.jpg	100
335.303	1.971	1970.8	study	Phase1	study/STIM_025.jpg	100
340.98	1.327	1327.1	study	Phase1	study/STIM_025.jpg	99
345.899	1.143	1143.2	study	Phase1	study/STIM_025.jpg	100
349.391	1.339	1338.8	study	Phase1	study/STIM_026.jpg	99
354.583	1.903	1903.3	study	Phase1	study/STIM_026.jpg	100
360.007	0.835	835.0	study	Phase1	study/STIM_026.jpg	100
364.777	1.038	1037.5	study	Phase1	study/STIM_027.jpg	100
369.299	1.097	1097.4	study	Phase1	study/STIM_027.jpg	100
372.826	1.787	1787.0	study	Phase1	study/STIM_027.jpg	99
376.629	1.607	1607.4	study	Phase1	study/STIM_028.jpg	99
381.549	1.431	1431.4	study	Phase1	study/STIM_028.jpg	99
386.164	1.67	1669.5	study	Phase1	study/STIM_028.jpg	100
390.385	0.967	966.6	study	Phase1	study/STIM_029.jpg	99
394.659	1.109	1108.6	study	Phase1	study/STIM_029.jpg	99
399.743	1.287	1287.0	study	Phase1	study/STIM_029.jpg	99
404.519	1.206	1206.3	test	Phase1	test/STIM_000.jpg	99
409.089	1.344	1344.0	test	Phase1	test/STIM_000.jpg	99
414.237	0.876	876.5	test	Phase1	test/STIM_000.jpg	99
418.823	0.948	948.3	test	Phase1	test/STIM_001.jpg	99
422.152	0.851	851.4	test	Phase1	test/STIM_001.jpg	100
425.157	0.696	696.1	test	Phase1	test/STIM_001.jpg	99
428.773	1.25	1249.8	test	Phase1	test/STIM_002.jpg	99
433.909	1.28	1279.7	test	Phase1	test/STIM_002.jpg	99
438.1	1.051	1051.4	test	Phase1	test/STIM_002.jpg	99
442.784	1.246	1245.8	test	Phase1	test/STIM_003.jpg	100
446.589	1.103	1102.7	test	Phase1	test/STIM_003.jpg	100
450.847	1.413	1412.6	test	Phase1	test/STIM_003.jpg	100
456.255	1.081	1081.2	test	Phase1	test/STIM_004.jpg	100
461.295	0.819	818.9	test	Phase1	test/STIM_004.jpg	100
465.567	1.069	1069.2	test	Phase1	test/STIM_004.jpg	100
469.894	1.469	1469.2	test	Phase1	test/STIM_005.jpg	99
474.587	1.154	1153.7	test	Phase1	test/STIM_005.jpg	99
478.317	1.264	1264.5	test	Phase1	test/STIM_005.jpg	99
483.407	0.837	837.3	test	Phase1	test/STIM_006.jpg	99
487.121	0.759	759.2	test	Phase1	test/STIM_006.jpg	99
491.543	1.096	1095.6	test	Phase1	test/STIM_006.jpg	100
495.167	0.761	761.4	test	Phase1	test/STIM_007.jpg	100
498.09	1.015	1014.7	test	Phase1	test/STIM_007.jpg	99
502.225	1.136	1136.2	test	Phase1	test/STIM_007.jpg	100
507.104	0.937	936.6	test	Phase1	test/STIM_008.jpg	99
510.668	1.343	1343.0	test	Phase1	test/STIM_008.jpg	100
514.352	1.444	1444.5	test	Phase1	test/STIM_008.jpg	100
519.407	1.435	1435.1	test	Phase1	test/STIM_009.jpg	100
523.496	0.838	838.2	test	Phase1	test/STIM_009.jpg	100
526.53	1.065	1064.9	test	Phase1	test/STIM_009.jpg	100
531.247	0.962	962.0	test	Phase1	test/STIM_010.jpg	100
534.505	1.141	1141.4	test	Phase1	test/STIM_010.jpg	99
539.462	1.054	1054.3	test	Phase1	test/STIM_010.jpg	99
543.252	0.908	907.9	test	Phase1	test/STIM_011.jpg	99
547.167	1.104	1104.3	test	Phase1	test/STIM_011.jpg	99
551.389	1.152	1151.6	test	Phase1	test/STIM_011.jpg	99
555.068	1.369	1369.1	test	Phase1	test/STIM_012.jpg	100
559.131	0.74	740.1	test	Phase1	test/STIM_012.jpg	99
563.154	1.134	1134.2	test	Phase1	test/STIM_012.jpg	99
566.848	0.724	724.2	test	Phase1	test/STIM_013.jpg	99
570.034	0.829	828.8	test	Phase1	test/STIM_013.jpg	99
573.931	1.365	1365.1	test	Phase1	test/STIM_013.jpg	99
578.201	0.93	930.0	test	Phase1	test/STIM_014.jpg	100
582.481	1.472	1471.9	test	Phase1	test/STIM_014.jpg	99
586.422	1.219	1219.3	test	Phase1	test/STIM_014.jpg	100
590.912	1.055	1054.9	test	Phase1	test/STIM_015.jpg	100
595.404	0.933	933.1	test	Phase1	test/STIM_015.jpg	100
599.677	1.071	1071.3	test	Phase1	test/STIM_015.jpg	99
603.171	1.336	1336.5	test	Phase1	test/STIM_016.jpg	99
606.854	0.73	730.0	test	Phase1	test/STIM_016.jpg	99
611.448	0.739	739.3	test	Phase1	test/STIM_016.jpg	100
614.933	0.909	908.7	test	Phase1	test/STIM_017.jpg	99
617.922	1.148	1147.9	test	Phase1	test/STIM_017.jpg	99
621.153	0.983	982.7	test	Phase1	test/STIM_017.jpg	99
624.521	1.424	1424.3	test	Phase1	test/STIM_018.jpg	99
628.464	0.69	690.0	test	Phase1	test/STIM_018.jpg	100
632.352	0.769	769.3	test	Phase1	test/STIM_018.jpg	100
635.21	1.287	1287.2	test	Phase1	test/STIM_019.jpg	99
639.828	1.255	1255.0	test	Phase1	test/STIM_019.jpg	99
643.322	0.791	791.4	test	Phase1	test/STIM_019.jpg	99
646.862	1.407	1407.0	test	Phase1	test/STIM_020.jpg	99
651.142	1.026	1025.9	test	Phase1	test/STIM_020.jpg	99
654.226	1.04	1039.7	test	Phase1	test/STIM_020.jpg	100
659.011	1.273	1272.8	test	Phase1	test/STIM_021.jpg	99
662.786	0.756	755.9	test	Phase1	test/STIM_021.jpg	99
667.255	0.961	961.1	test	Phase1	test/STIM_021.jpg	100
670.872	1.004	1004.4	test	Phase1	test/STIM_022.jpg	100
675.264	0.722	722.5	test	Phase1	test/STIM_022.jpg	100
678.755	0.9	899.7	test	Phase1	test/STIM_022.jpg	100
683.46	1.388	1387.8	test	Phase1	test/STIM_023.jpg	99
687.036	0.864	863.9	test	Phase1	test/STIM_023.jpg	100
690.086	0.833	833.2	test	Phase1	test/STIM_023.jpg	100
693.583	1.009	1009.0	test	Phase1	test/STIM_024.jpg	100
697.408	1.375	1375.1	test	Phase1	test/STIM_024.jpg	100
702.709	1.311	1311.0	test	Phase1	test/STIM_024.jpg	100
707.407	0.822	822.2	test	Phase1	test/STIM_025.jpg	99
710.648	1.223	1223.4	test	Phase1	test/STIM_025.jpg	100
714.051	0.84	839.6	test	Phase1	test/STIM_025.jpg	100
717.651	0.738	738.4	test	Phase1	test/STIM_026.jpg	100
721.988	1.293	1292.6	test	Phase1	test/STIM_026.jpg	100
727.239	1.477	1477.1	test	Phase1	test/STIM_026.jpg	100
731.72	1.08	1080.4	test	Phase1	test/STIM_027.jpg	100
735.292	1.299	1299.1	test	Phase1	test/STIM_027.jpg	99
740.494	0.783	782.7	test	Phase1	test/STIM_027.jpg	100
744.071	1.188	1188.5	test	Phase1	test/STIM_028.jpg	99
747.499	1.431	1431.0	test	Phase1	test/STIM_028.jpg	100
751.531	1.181	1181.1	test	Phase1	test/STIM_028.jpg	100
754.793	1.316	1315.9	test	Phase1	test/STIM_029.jpg	99
760.021	1.384	1384.5	test	Phase1	test/STIM_029.jpg	100
763.73	0.807	807.4	test	Phase1	test/STIM_029.jpg	100
767.457	1.235	1235.1	study	Phase2	study/STIM_000.jpg	100
771.145	0.765	765.0	study	Phase2	study/STIM_000.jpg	100
774.049	1.36	1360.4	study	Phase2	study/STIM_000.jpg	100
778.91	0.878	878.0	study	Phase2	study/STIM_001.jpg	100
782.364	1.322	1322.3	study	Phase2	study/STIM_001.jpg	99
786.863	1.171	1171.4	study	Phase2	study/STIM_001.jpg	99
791.0	0.917	916.6	study	Phase2	study/STIM_002.jpg	99
795.126	0.838	837.6	study	Phase2	study/STIM_002.jpg	99
799.209	0.83	830.4	study	Phase2	study/STIM_002.jpg	99
802.448	0.992	992.4	study	Phase2	study/STIM_003.jpg	99
806.932	1.268	1267.6	study	Phase2	study/STIM_003.jpg	100
812.063	0.693	693.2	study	Phase2	study/STIM_003.jpg	99
815.843	1.289	1288.8	study	Phase2	study/STIM_004.jpg	100
820.105	1.591	1591.1	study	Phase2	study/STIM_004.jpg	99
824.615	1.418	1417.8	study	Phase2	study/STIM_004.jpg	100
829.582	1.33	1329.8	study	Phase2	study/STIM_005.jpg	100
834.732	1.474	1473.6	study	Phase2	study/STIM_005.jpg	99
838.475	1.504	1504.2	study	Phase2	study/STIM_005.jpg	100
842.886	0.846	846.4	study	Phase2	study/STIM_006.jpg	100
846.984	1.212	1212.2	study	Phase2	study/STIM_006.jpg	100
850.34	1.164	1163.6	study	Phase2	study/STIM_006.jpg	100
853.703	0.958	958.5	study	Phase2	study/STIM_007.jpg	100
858.274	1.428	1428.1	study	Phase2	study/STIM_007.jpg	99
861.924	0.882	882.5	study	Phase2	study/STIM_007.jpg	99
865.356	1.679	1679.2	study	Phase2	study/STIM_008.jpg	100
869.09	1.173	1172.8	study	Phase2	study/STIM_008.jpg	100
872.39	1.204	1204.2	study	Phase2	study/STIM_008.jpg	100
875.995	1.286	1285.9	study	Phase2	study/STIM_009.jpg	99
880.838	0.888	887.5	study	Phase2	study/STIM_009.jpg	99
884.422	1.387	1387.4	study	Phase2	study/STIM_009.jpg	100
888.559	1.554	1553.7	study	Phase2	study/STIM_010.jpg	100
892.761	1.626	1626.4	study	Phase2	study/STIM_010.jpg	99
896.511	0.996	995.6	study	Phase2	study/STIM_010.jpg	100
901.16	1.461	1460.8	study	Phase2	study/STIM_011.jpg	100
905.468	0.818	818.4	study	Phase2	study/STIM_011.jpg	100
908.294	0.906	905.9	study	Phase2	study/STIM_011.jpg	99
911.244	1.472	1472.3	study	Phase2	study/STIM_012.jpg	100
915.607	0.858	857.6	study	Phase2	study/STIM_012.jpg	99
918.863	0.688	688.3	study	Phase2	study/STIM_012.jpg	99
923.356	1.239	1238.6	study	Phase2	study/STIM_013.jpg	100
928.477	1.14	1139.6	study	Phase2	study/STIM_013.jpg	100
931.801	0.798	797.5	study	Phase2	study/STIM_013.jpg	99
934.694	0.809	809.0	study	Phase2	study/STIM_014.jpg	99
937.97	0.818	817.7	study	Phase2	study/STIM_014.jpg	100
942.265	1.038	1038.2	study	Phase2	study/STIM_014.jpg	100
946.832	1.092	1091.9	study	Phase2	study/STIM_015.jpg	100
951.647	1.105	1105.3	study	Phase2	study/STIM_015.jpg	99
955.426	1.301	1301.1	study	Phase2	study/STIM_015.jpg	100
959.35	1.329	1328.6	study	Phase2	study/STIM_016.jpg	99
963.674	0.927	927.2	study	Phase2	study/STIM_016.jpg	100
967.89	0.978	977.6	study	Phase2	study/STIM_016.jpg	100
971.53	1.077	1076.7	study	Phase2	study/STIM_017.jpg	99
976.419	1.6	1599.5	study	Phase2	study/STIM_017.jpg	99
981.252	0.952	952.4	study	Phase2	study/STIM_017.jpg	100
984.791	0.833	833.2	study	Phase2	study/STIM_018.jpg	99
988.671	0.956	956.0	study	Phase2	study/STIM_018.jpg	99
993.447	0.718	718.3	study	Phase2	study/STIM_018.jpg	100
997.139	0.924	923.8	study	Phase2	study/STIM_019.jpg	99
1002.044	1.046	1045.6	study	Phase2	study/STIM_019.jpg	100
1006.262	0.847	847.4	study	Phase2	study/STIM_019.jpg	99
1009.818	1.373	1372.9	study	Phase2	study/STIM_020.jpg	100
1015.159	1.602	1601.9	study	Phase2	study/STIM_020.jpg	100
1019.437	1.232	1232.5	study	Phase2	study/STIM_020.jpg	99
1023.435	1.694	1694.3	study	Phase2	study/STIM_021.jpg	100
1028.123	0.774	773.9	study	Phase2	study/STIM_021.jpg	99
1032.083	1.397	1396.7	study	Phase2	study/STIM_021.jpg	99
1035.905	1.606	1606.1	study	Phase2	study/STIM_022.jpg	99
1041.281	1.516	1515.6	study	Phase2	study/STIM_022.jpg	99
1046.106	1.356	1356.5	study	Phase2	study/STIM_022.jpg	100
1051.418	1.063	1062.9	study	Phase2	study/STIM_023.jpg	99
1055.577	1.491	1491.0	study	Phase2	study/STIM_023.jpg	100
1059.897	0.985	985.4	study	Phase2	study/STIM_023.jpg	100
1064.586	1.19	1189.7	study	Phase2	study/STIM_024.jpg	99
1068.154	1.187	1187.2	study	Phase2	study/STIM_024.jpg	100
1072.153	0.85	850.5	study	Phase2	study/STIM_024.jpg	100
1075.876	1.652	1651.8	study	Phase2	study/STIM_025.jpg	100
1081.104	1.271	1270.7	study	Phase2	study/STIM_025.jpg	100
1086.095	1.421	1421.3	study	Phase2	study/STIM_025.jpg	100
1089.733	1.043	1042.9	study	Phase2	study/STIM_026.jpg	99
1094.388	1.363	1363.4	study	Phase2	study/STIM_026.jpg	100
1099.168	0.734	733.6	study	Phase2	study/STIM_026.jpg	100
1102.087	0.79	790.1	study	Phase2	study/STIM_027.jpg	100
1106.036	1.522	1522.3	study	Phase2	study/STIM_027.jpg	100
1109.928	1.094	1094.0	study	Phase2	study/STIM_027.jpg	99
1114.214	1.355	1355.1	study	Phase2	study/STIM_028.jpg	100
1117.903	1.382	1382.5	study	Phase2	study/STIM_028.jpg	99
1123.143	1.02	1019.6	study	Phase2	study/STIM_028.jpg	99
1127.242	1.269	1268.6	study	Phase2	study/STIM_029.jpg	100
1130.77	1.347	1346.7	study	Phase2	study/STIM_029.jpg	100
1134.207	1.464	1464.5	study	Phase2	study/STIM_029.jpg	99
1137.971	0.799	799.4	test	Phase2	test/STIM_000.jpg	99
1141.235	0.794	793.9	test	Phase2	test/STIM_000.jpg	100
1145.475	0.715	715.0	test	Phase2	test/STIM_000.jpg	100
1149.777	1.107	1107.3	test	Phase2	test/STIM_001.jpg	99
1154.465	1.275	1274.9	test	Phase2	test/STIM_001.jpg	99
1157.909	1.284	1283.8	test	Phase2	test/STIM_001.jpg	100
1161.626	1.051	1051.2	test	Phase2	test/STIM_002.jpg	100
1166.42	1.095	1094.7	test	Phase2	test/STIM_002.jpg	100
1169.686	0.935	934.9	test	Phase2	test/STIM_002.jpg	99
1173.182	1.142	1141.5	test	Phase2	test/STIM_003.jpg	99
1176.833	0.858	857.9	test	Phase2	test/STIM_003.jpg	100
1181.185	0.711	711.4	test	Phase2	test/STIM_003.jpg	99
1185.715	0.94	940.3	test	Phase2	test/STIM_004.jpg	100
1190.234	1.245	1245.2	test	Phase2	test/STIM_004.jpg	99
1193.692	1.026	1025.5	test	Phase2	test/STIM_004.jpg	100
1197.049	0.882	882.3	test	Phase2	test/STIM_005.jpg	99
1200.709	1.314	1314.1	test	Phase2	test/STIM_005.jpg	100
1204.769	1.353	1352.9	test	Phase2	test/STIM_005.jpg	99
1208.18	0.84	839.5	test	Phase2	test/STIM_006.jpg	99
1211.038	1.24	1239.9	test	Phase2	test/STIM_006.jpg	100
1215.911	1.07	1069.7	test	Phase2	test/STIM_006.jpg	100
1220.318	1.283	1283.2	test	Phase2	test/STIM_007.jpg	100
1224.64	0.892	891.5	test	Phase2	test/STIM_007.jpg	99
1228.53	0.944	944.1	test	Phase2	test/STIM_007.jpg	99
1233.438	0.699	698.9	test	Phase2	test/STIM_008.jpg	100
1237.134	1.248	1248.0	test	Phase2	test/STIM_008.jpg	99
1242.126	0.802	802.0	test	Phase2	test/STIM_008.jpg	100
1246.433	0.709	709.3	test	Phase2	test/STIM_009.jpg	99
1250.43	1.295	1295.4	test	Phase2	test/STIM_009.jpg	100
1253.831	1.066	1065.9	test	Phase2	test/STIM_009.jpg	100
1258.097	0.805	804.6	test	Phase2	test/STIM_010.jpg	100
1261.527	1.091	1090.7	test	Phase2	test/STIM_010.jpg	99
1265.002	1.17	1170.2	test	Phase2	test/STIM_010.jpg	99
1269.399	0.802	801.9	test	Phase2	test/STIM_011.jpg	99
1273.383	1.463	1463.4	test	Phase2	test/STIM_011.jpg	99
1278.064	1.059	1059.4	test	Phase2	test/STIM_011.jpg	99
1281.242	1.032	1032.1	test	Phase2	test/STIM_012.jpg	99
1284.762	1.273	1273.4	test	Phase2	test/STIM_012.jpg	100
1288.762	1.394	1394.4	test	Phase2	test/STIM_012.jpg	99
1293.511	0.976	975.9	test	Phase2	test/STIM_013.jpg	99
1296.806	1.179	1178.7	test	Phase2	test/STIM_013.jpg	100
1300.316	1.27	1270.2	test	Phase2	test/STIM_013.jpg	100
1305.277	0.739	739.1	test	Phase2	test/STIM_014.jpg	100
1309.817	0.994	993.7	test	Phase2	test/STIM_014.jpg	99
1313.486	0.85	850.1	test	Phase2	test/STIM_014.jpg	99
1316.767	1.179	1178.7	test	Phase2	test/STIM_015.jpg	99
1321.8	1.333	1333.1	test	Phase2	test/STIM_015.jpg	100
1325.954	1.114	1113.8	test	Phase2	test/STIM_015.jpg	99
1329.688	1.209	1208.7	test	Phase2	test/STIM_016.jpg	100
1333.506	1.207	1206.9	test	Phase2	test/STIM_016.jpg	100
1337.168	0.844	843.7	test	Phase2	test/STIM_016.jpg	99
1341.55	1.26	1260.3	test	Phase2	test/STIM_017.jpg	100
1345.071	1.222	1222.5	test	Phase2	test/STIM_017.jpg	99
1348.912	0.985	985.2	test	Phase2	test/STIM_017.jpg	100
1352.717	0.803	803.0	test	Phase2	test/STIM_018.jpg	100
1355.613	0.871	870.7	test	Phase2	test/STIM_018.jpg	100
1359.071	1.431	1431.2	test	Phase2	test/STIM_018.jpg	99
1363.269	1.4	1400.2	test	Phase2	test/STIM_019.jpg	100
1367.066	1.351	1351.1	test	Phase2	test/STIM_019.jpg	100
1371.912	1.313	1312.6	test	Phase2	test/STIM_019.jpg	100
1375.379	1.396	1396.0	test	Phase2	test/STIM_020.jpg	100
1379.118	1.315	1315.2	test	Phase2	test/STIM_020.jpg	99
1383.415	0.896	896.2	test	Phase2	test/STIM_020.jpg	100
1387.088	0.822	821.9	test	Phase2	test/STIM_021.jpg	99
1390.481	1.009	1009.1	test	Phase2	test/STIM_021.jpg	99
1393.685	1.158	1158.5	test	Phase2	test/STIM_021.jpg	99
1397.822	1.161	1160.8	test	Phase2	test/STIM_022.jpg	99
1401.455	0.718	717.8	test	Phase2	test/STIM_022.jpg	100
1405.312	0.718	718.2	test	Phase2	test/STIM_022.jpg	99
1409.783	0.694	693.9	test	Phase2	test/STIM_023.jpg	100
1413.877	1.444	1444.1	test	Phase2	test/STIM_023.jpg	100
1417.756	1.109	1109.3	test	Phase2	test/STIM_023.jpg	100
1422.181	1.23	1230.4	test	Phase2	test/STIM_024.jpg	100
1426.6	1.229	1228.9	test	Phase2	test/STIM_024.jpg	99
1431.614	1.049	1048.8	test	Phase2	test/STIM_024.jpg	100
1434.857	1.434	1434.4	test	Phase2	test/STIM_025.jpg	100
1438.669	0.769	768.7	test	Phase2	test/STIM_025.jpg	99
1441.82	0.873	872.8	test	Phase2	test/STIM_025.jpg	99
1446.542	0.999	998.9	test	Phase2	test/STIM_026.jpg	100
1451.139	1.285	1285.1	test	Phase2	test/STIM_026.jpg	100
1454.471	1.252	1251.8	test	Phase2	test/STIM_026.jpg	100
1458.492	1.094	1093.9	test	Phase2	test/STIM_027.jpg	99
1463.435	1.018	1017.6	test	Phase2	test/STIM_027.jpg	99
1466.84	0.865	864.6	test	Phase2	test/STIM_027.jpg	99
1469.76	1.345	1345.4	test	Phase2	test/STIM_028.jpg	100
1473.317	1.341	1340.7	test	Phase2	test/STIM_028.jpg	99
1477.241	0.824	823.6	test	Phase2	test/STIM_028.jpg	99
1481.772	1.085	1085.0	test	Phase2	test/STIM_029.jpg	99
1486.021	1.06	1060.3	test	Phase2	test/STIM_029.jpg	100
1489.399	0.862	861.6	test	Phase2	test/STIM_029.jpg	99
1492.73	1.361	1360.9	study	Phase3	study/STIM_000.jpg	99
1497.122	0.946	946.1	study	Phase3	study/STIM_000.jpg	99
1501.358	1.414	1413.7	study	Phase3	study/STIM_000.jpg	100
1505.355	1.423	1422.7	study	Phase3	study/STIM_001.jpg	100
1510.128	0.721	720.8	study	Phase3	study/STIM_001.jpg	99
1513.065	1.035	1035.0	study	Phase3	study/STIM_001.jpg	99
1516.352	1.353	1353.1	study	Phase3	study/STIM_002.jpg	100
1520.96	1.213	1213.4	study	Phase3	study/STIM_002.jpg	99
1524.886	1.258	1258.1	study	Phase3	study/STIM_002.jpg	99
1529.275	1.037	1037.3	study	Phase3	study/STIM_003.jpg	99
1534.01	1.152	1151.7	study	Phase3	study/STIM_003.jpg	100
1538.029	1.31	1309.6	study	Phase3	study/STIM_003.jpg	99
1541.347	1.14	1140.2	study	Phase3	study/STIM_004.jpg	99
1546.442	0.688	688.4	study	Phase3	study/STIM_004.jpg	100
1550.87	1.109	1108.7	study	Phase3	study/STIM_004.jpg	100
1554.981	0.762	761.6	study	Phase3	study/STIM_005.jpg	100
1559.614	0.666	665.7	study	Phase3	study/STIM_005.jpg	100
1563.577	1.376	1375.6	study	Phase3	study/STIM_005.jpg	100
1568.351	1.308	1308.3	study	Phase3	study/STIM_006.jpg	100
1572.207	1.089	1088.7	study	Phase3	study/STIM_006.jpg	100
1575.5	0.676	676.2	study	Phase3	study/STIM_006.jpg	100
1579.334	1.051	1050.8	study	Phase3	study/STIM_007.jpg	99
1584.327	1.077	1077.3	study	Phase3	study/STIM_007.jpg	100
1588.604	1.145	1145.1	study	Phase3	study/STIM_007.jpg	99
1592.591	1.31	1310.0	study	Phase3	study/STIM_008.jpg	99
1597.567	1.136	1136.0	study	Phase3	study/STIM_008.jpg	99
1602.114	0.922	921.6	study	Phase3	study/STIM_008.jpg	99
1606.601	0.893	892.7	study	Phase3	study/STIM_009.jpg	100
1611.445	1.05	1050.4	study	Phase3	study/STIM_009.jpg	100
1615.393	0.766	765.8	study	Phase3	study/STIM_009.jpg	99
1619.043	0.79	789.7	study	Phase3	study/STIM_010.jpg	100
1622.112	1.329	1328.7	study	Phase3	study/STIM_010.jpg	100
1626.499	1.296	1295.8	study	Phase3	study/STIM_010.jpg	99
1631.171	0.786	786.2	study	Phase3	study/STIM_011.jpg	99
1634.754	1.059	1058.8	study	Phase3	study/STIM_011.jpg	100
1638.245	1.097	1097.3	study	Phase3	study/STIM_011.jpg	100
1641.648	1.366	1366.3	study	Phase3	study/STIM_012.jpg	100
1645.398	1.295	1295.0	study	Phase3	study/STIM_012.jpg	99
1648.953	0.687	686.6	study	Phase3	study/STIM_012.jpg	100
1653.338	0.982	981.9	study	Phase3	study/STIM_013.jpg	99
1656.915	0.734	733.7	study	Phase3	study/STIM_013.jpg	100
1660.004	0.991	991.3	study	Phase3	study/STIM_013.jpg	100
1664.305	0.877	876.7	study	Phase3	study/STIM_014.jpg	100
1668.586	1.009	1009.3	study	Phase3	study/STIM_014.jpg	100
1672.495	0.767	767.3	study	Phase3	study/STIM_014.jpg	100
1677.037	1.269	1268.6	study	Phase3	study/STIM_015.jpg	100
1681.992	0.665	664.7	study	Phase3	study/STIM_015.jpg	100
1686.053	1.214	1214.5	study	Phase3	study/STIM_015.jpg	100
1689.285	0.888	888.3	study	Phase3	study/STIM_016.jpg	100
1693.357	0.9	899.8	study	Phase3	study/STIM_016.jpg	100
1698.166	1.16	1160.5	study	Phase3	study/STIM_016.jpg	99
1702.49	1.078	1077.6	study	Phase3	study/STIM_017.jpg	99
1707.063	0.806	806.5	study	Phase3	study/STIM_017.jpg	99
1710.587	0.796	796.5	study	Phase3	study/STIM_017.jpg	99
1713.47	0.821	821.4	study	Phase3	study/STIM_018.jpg	99
1717.706	0.984	984.1	study	Phase3	study/STIM_018.jpg	100
1721.366	1.212	1212.5	study	Phase3	study/STIM_018.jpg	99
1725.226	1.279	1279.2	study	Phase3	study/STIM_019.jpg	99
1729.321	1.237	1236.9	study	Phase3	study/STIM_019.jpg	100
1733.353	1.217	1216.6	study	Phase3	study/STIM_019.jpg	99
1736.761	0.768	767.9	study	Phase3	study/STIM_020.jpg	100
1741.515	1.381	1380.9	study	Phase3	study/STIM_020.jpg	99
1745.276	1.218	1218.1	study	Phase3	study/STIM_020.jpg	100
1750.256	0.844	844.3	study	Phase3	study/STIM_021.jpg	99
1753.396	0.64	639.5	study	Phase3	study/STIM_021.jpg	100
1757.681	1.033	1033.2	study	Phase3	study/STIM_021.jpg	100
1762.7	0.897	897.4	study	Phase3	study/STIM_022.jpg	100
1766.786	0.79	789.5	study	Phase3	study/STIM_022.jpg	100
1771.488	1.032	1031.7	study	Phase3	study/STIM_022.jpg	100
1774.821	0.67	669.8	study	Phase3	study/STIM_023.jpg	99
1777.957	1.005	1004.8	study	Phase3	study/STIM_023.jpg	100
1782.553	0.863	863.0	study	Phase3	study/STIM_023.jpg	99
1787.049	1.315	1314.6	study	Phase3	study/STIM_024.jpg	100
1790.746	1.124	1124.5	study	Phase3	study/STIM_024.jpg	99
1795.791	0.714	713.9	study	Phase3	study/STIM_024.jpg	99
1798.833	1.133	1133.0	study	Phase3	study/STIM_025.jpg	100
1802.378	0.74	739.8	study	Phase3	study/STIM_025.jpg	99
1805.312	1.33	1330.0	study	Phase3	study/STIM_025.jpg	99
1810.178	0.945	945.0	study	Phase3	study/STIM_026.jpg	99
1813.548	1.153	1152.7	study	Phase3	study/STIM_026.jpg	99
1818.212	0.795	795.3	study	Phase3	study/STIM_026.jpg	99
1822.488	0.972	972.1	study	Phase3	study/STIM_027.jpg	99
1825.953	1.188	1188.2	study	Phase3	study/STIM_027.jpg	99
1831.031	1.409	1408.7	study	Phase3	study/STIM_027.jpg	99
1835.864	0.793	792.8	study	Phase3	study/STIM_028.jpg	99
1839.426	1.163	1162.9	study	Phase3	study/STIM_028.jpg	100
1843.283	0.923	922.6	study	Phase3	study/STIM_028.jpg	99
1847.704	0.852	851.6	study	Phase3	study/STIM_029.jpg	100
1850.896	1.434	1433.8	study	Phase3	study/STIM_029.jpg	100
1854.781	1.143	1143.2	study	Phase3	study/STIM_029.jpg	100
1859.267	0.866	866.4	test	Phase3	test/STIM_000.jpg	99
1862.637	1.135	1134.9	test	Phase3	test/STIM_000.jpg	99
1867.273	0.885	885.4	test	Phase3	test/STIM_000.jpg	100
1870.907	1.058	1058.2	test	Phase3	test/STIM_001.jpg	100
1875.553	0.882	882.4	test	Phase3	test/STIM_001.jpg	100
1878.68	1.478	1478.5	test	Phase3	test/STIM_001.jpg	99
1883.853	1.193	1193.4	test	Phase3	test/STIM_002.jpg	100
1888.041	1.048	1048.0	test	Phase3	test/STIM_002.jpg	100
1892.394	1.272	1272.0	test	Phase3	test/STIM_002.jpg	100
1896.99	0.974	973.8	test	Phase3	test/STIM_003.jpg	99
1900.28	1.201	1200.6	test	Phase3	test/STIM_003.jpg	100
1903.604	0.808	808.1	test	Phase3	test/STIM_003.jpg	99
1906.627	1.202	1201.5	test	Phase3	test/STIM_004.jpg	99
1910.042	1.265	1264.6	test	Phase3	test/STIM_004.jpg	100
1913.82	1.049	1048.6	test	Phase3	test/STIM_004.jpg	99
1916.913	1.248	1248.4	test	Phase3	test/STIM_005.jpg	99
1920.524	1.268	1267.7	test	Phase3	test/STIM_005.jpg	99
1925.214	1.414	1413.6	test	Phase3	test/STIM_005.jpg	100
1930.251	1.176	1175.5	test	Phase3	test/STIM_006.jpg	100
1935.227	0.912	912.4	test	Phase3	test/STIM_006.jpg	100
1939.181	1.388	1387.7	test	Phase3	test/STIM_006.jpg	100
1943.576	1.384	1383.7	test	Phase3	test/STIM_007.jpg	99
1947.649	0.908	907.7	test	Phase3	test/STIM_007.jpg	100
1952.091	1.184	1183.6	test	Phase3	test/STIM_007.jpg	99
1955.913	1.382	1382.3	test	Phase3	test/STIM_008.jpg	99
1959.565	1.46	1460.0	test	Phase3	test/STIM_008.jpg	99
1964.624	1.343	1343.2	test	Phase3	test/STIM_008.jpg	99
1969.209	0.794	793.6	test	Phase3	test/STIM_009.jpg	99
1972.715	1.358	1358.0	test	Phase3	test/STIM_009.jpg	100
1977.776	0.967	967.2	test	Phase3	test/STIM_009.jpg	99
1982.072	1.477	1476.8	test	Phase3	test/STIM_010.jpg	100
1987.397	0.972	971.7	test	Phase3	test/STIM_010.jpg	99
1992.1	0.708	708.2	test	Phase3	test/STIM_010.jpg	100
1995.553	1.241	1240.7	test	Phase3	test/STIM_011.jpg	100
2000.039	0.949	949.2	test	Phase3	test/STIM_011.jpg	99
2003.706	1.312	1312.0	test	Phase3	test/STIM_011.jpg	99
2007.893	0.926	925.5	test	Phase3	test/STIM_012.jpg	100
2012.272	1.387	1386.7	test	Phase3	test/STIM_012.jpg	100
2016.409	1.388	1388.4	test	Phase3	test/STIM_012.jpg	100
2021.228	1.058	1057.7	test	Phase3	test/STIM_013.jpg	100
2025.479	0.99	989.5	test	Phase3	test/STIM_013.jpg	100
2030.125	1.015	1015.2	test	Phase3	test/STIM_013.jpg	100
2033.972	1.244	1244.2	test	Phase3	test/STIM_014.jpg	99
2038.534	1.096	1095.6	test	Phase3	test/STIM_014.jpg	99
2042.673	0.975	975.3	test	Phase3	test/STIM_014.jpg	99
2046.678	0.932	931.8	test	Phase3	test/STIM_015.jpg	99
2050.107	1.32	1319.7	test	Phase3	test/STIM_015.jpg	99
2053.453	0.897	896.6	test	Phase3	test/STIM_015.jpg	99
2056.967	1.151	1151.3	test	Phase3	test/STIM_016.jpg	99
2061.438	1.441	1441.0	test	Phase3	test/STIM_016.jpg	100
2066.001	1.411	1411.1	test	Phase3	test/STIM_016.jpg	100
2069.92	0.871	871.2	test	Phase3	test/STIM_017.jpg	99
2073.038	0.829	828.6	test	Phase3	test/STIM_017.jpg	99
2076.234	1.367	1366.8	test	Phase3	test/STIM_017.jpg	100
2080.145	1.101	1100.9	test	Phase3	test/STIM_018.jpg	99
2084.362	1.056	1056.5	test	Phase3	test/STIM_018.jpg	99
2088.595	1.287	1287.0	test	Phase3	test/STIM_018.jpg	100
2092.455	0.792	791.6	test	Phase3	test/STIM_019.jpg	99
2097.091	0.977	977.1	test	Phase3	test/STIM_019.jpg	99
2100.661	0.78	780.2	test	Phase3	test/STIM_019.jpg	100
2103.859	0.748	747.6	test	Phase3	test/STIM_020.jpg	100
2108.311	0.76	759.8	test	Phase3	test/STIM_020.jpg	100
2112.505	0.96	960.3	test	Phase3	test/STIM_020.jpg	100
2116.208	1.46	1460.3	test	Phase3	test/STIM_021.jpg	99
2121.214	1.216	1216.5	test	Phase3	test/STIM_021.jpg	99
2125.243	0.688	688.0	test	Phase3	test/STIM_021.jpg	99
2129.059	0.761	761.4	test	Phase3	test/STIM_022.jpg	99
2132.879	0.952	952.0	test	Phase3	test/STIM_022.jpg	99
2137.107	0.838	838.2	test	Phase3	test/STIM_022.jpg	100
2141.418	1.315	1314.6	test	Phase3	test/STIM_023.jpg	100
2145.537	1.106	1105.6	test	Phase3	test/STIM_023.jpg	99
2150.373	1.209	1209.3	test	Phase3	test/STIM_023.jpg	99
2153.933	1.462	1462.1	test	Phase3	test/STIM_024.jpg	100
2157.86	0.903	903.3	test	Phase3	test/STIM_024.jpg	100
2161.451	0.935	934.6	test	Phase3	test/STIM_024.jpg	100
2165.933	1.14	1139.6	test	Phase3	test/STIM_025.jpg	99
2171.017	0.95	949.8	test	Phase3	test/STIM_025.jpg	100
2175.847	0.696	696.1	test	Phase3	test/STIM_025.jpg	99
2179.288	0.763	763.1	test	Phase3	test/STIM_026.jpg	99
2182.13	0.924	924.5	test	Phase3	test/STIM_026.jpg	100
2186.64	1.458	1457.7	test	Phase3	test/STIM_026.jpg	100
2191.201	0.766	766.4	test	Phase3	test/STIM_027.jpg	99
2194.042	1.419	1418.7	test	Phase3	test/STIM_027.jpg	99
2198.796	1.036	1036.2	test	Phase3	test/STIM_027.jpg	100
2202.667	1.254	1253.5	test	Phase3	test/STIM_028.jpg	100
2206.552	0.87	870.2	test	Phase3	test/STIM_028.jpg	100
2209.761	1.172	1172.2	test	Phase3	test/STIM_028.jpg	100
2213.73	1.37	1370.2	test	Phase3	test/STIM_029.jpg	100
2218.188	1.221	1221.1	test	Phase3	test/STIM_029.jpg	99
2222.71	1.186	1185.5	test	Phase3	test/STIM_029.jpg	100
