onset	duration	response_time_ms	trial_type	learning_stage	stimulus	response_port
0.0	3.03	3030.2	navigation	Trial1	navigation/STIM_000.jpg	99
5.831	4.728	4728.1	navigation	Trial1	navigation/STIM_000.jpg	99
14.036	2.649	2649.3	navigation	Trial1	navigation/STIM_000.jpg	100
20.167	2.09	2090.5	navigation	Trial1	navigation/STIM_000.jpg	100
25.631	2.024	2024.2	navigation	Trial1	navigation/STIM_000.jpg	100
31.183	2.171	2171.0	navigation	Trial1	navigation/STIM_000.jpg	100
35.818	3.583	3583.2	navigation	Trial1	navigation/STIM_001.jpg	99
41.509	4.874	4874.0	navigation	Trial1	navigation/STIM_001.jpg	100
47.955	3.47	3470.3	navigation	Trial1	navigation/STIM_001.jpg	100
53.244	3.598	3597.8	navigation	Trial1	navigation/STIM_001.jpg	99
59.472	3.915	3914.9	navigation	Trial1	navigation/STIM_001.jpg	99
65.777	2.987	2986.8	navigation	Trial1	navigation/STIM_001.jpg	99
71.338	3.343	3342.8	navigation	Trial1	navigation/STIM_002.jpg	99
77.522	2.712	2711.8	navigation	Trial1	navigation/STIM_002.jpg	100
83.594	4.022	4022.3	navigation	Trial1	navigation/STIM_002.jpg	100
89.961	2.434	2433.8	navigation	Trial1	navigation/STIM_002.jpg	99
95.064	3.078	3077.5	navigation	Trial1	navigation/STIM_002.jpg	100
101.106	3.401	3400.7	navigation	Trial1	navigation/STIM_002.jpg	100
107.051	4.558	4558.1	navigation	Trial1	navigation/STIM_003.jpg	100
114.356	4.308	4308.1	navigation	Trial1	navigation/STIM_003.jpg	99
122.111	4.156	4156.2	navigation	Trial1	navigation/STIM_003.jpg	100
128.78	4.63	4630.0	navigation	Trial1	navigation/STIM_003.jpg	99
136.909	3.443	3443.3	navigation	Trial1	navigation/STIM_003.jpg	99
143.113	1.965	1965.2	navigation	Trial1	navigation/STIM_003.jpg	100
148.397	4.7	4700.3	navigation	Trial1	navigation/STIM_004.jpg	99
156.337	4.759	4759.4	navigation	Trial1	navigation/STIM_004.jpg	100
164.049	3.417	3417.0	navigation	Trial1	navigation/STIM_004.jpg	99
170.814	3.348	3348.2	navigation	Trial1	navigation/STIM_004.jpg	100
177.398	2.599	2599.2	navigation	Trial1	navigation/STIM_004.jpg	99
181.819	2.703	2702.9	navigation	Trial1	navigation/STIM_004.jpg	100
187.24	2.629	2628.9	navigation	Trial1	navigation/STIM_005.jpg	99
193.155	3.194	3194.3	navigation	Trial1	navigation/STIM_005.jpg	99
198.297	3.579	3579.1	navigation	Trial1	navigation/STIM_005.jpg	99
204.441	3.933	3932.6	navigation	Trial1	navigation/STIM_005.jpg	99
210.558	3.885	3885.1	navigation	Trial1	navigation/STIM_005.jpg	99
216.344	2.952	2952.1	navigation	Trial1	navigation/STIM_005.jpg	100
221.547	3.125	3124.9	navigation	Trial1	navigation/STIM_006.jpg	99
226.617	3.179	3179.3	navigation	Trial1	navigation/STIM_006.jpg	100
233.302	4.14	4140.2	navigation	Trial1	navigation/STIM_006.jpg	100
239.263	1.94	1940.3	navigation	Trial1	navigation/STIM_006.jpg	100
244.047	3.33	3329.5	navigation	Trial1	navigation/STIM_006.jpg	99
249.831	2.146	2145.5	navigation	Trial1	navigation/STIM_006.jpg	99
254.367	4.356	4356.5	navigation	Trial1	navigation/STIM_007.jpg	99
260.892	2.306	2306.3	navigation	Trial1	navigation/STIM_007.jpg	99
265.165	4.609	4608.7	navigation	Trial1	navigation/STIM_007.jpg	99
272.117	4.091	4091.2	navigation	Trial1	navigation/STIM_007.jpg	99
278.551	4.34	4339.6	navigation	Trial1	navigation/STIM_007.jpg	99
285.014	2.602	2602.5	navigation	Trial1	navigation/STIM_007.jpg	100
290.312	5.131	5131.0	navigation	Trial1	navigation/STIM_008.jpg	100
297.258	4.223	4223.4	navigation	Trial1	navigation/STIM_008.jpg	99
304.541	2.038	2037.9	navigation	Trial1	navigation/STIM_008.jpg	99
308.829	3.734	3734.1	navigation	Trial1	navigation/STIM_008.jpg	100
314.869	4.084	4084.3	navigation	Trial1	navigation/STIM_008.jpg	100
321.246	3.774	3773.7	navigation	Trial1	navigation/STIM_008.jpg	100
327.065	5.436	5435.7	navigation	Trial1	navigation/STIM_009.jpg	99
334.761	3.951	3951.3	navigation	Trial1	navigation/STIM_009.jpg	100
340.329	2.029	2029.4	navigation	Trial1	navigation/STIM_009.jpg	99
345.814	3.229	3228.6	navigation	Trial1	navigation/STIM_009.jpg	100
351.276	4.234	4234.0	navigation	Trial1	navigation/STIM_009.jpg	99
358.265	2.778	2777.8	navigation	Trial1	navigation/STIM_009.jpg	99
364.492	5.256	5255.8	navigation	Trial1	navigation/STIM_010.jpg	99
372.297	4.11	4109.8	navigation	Trial1	navigation/STIM_010.jpg	99
379.048	4.124	4124.2	navigation	Trial1	navigation/STIM_010.jpg	100
385.242	2.915	2915.3	navigation	Trial1	navigation/STIM_010.jpg	100
391.496	3.891	3890.8	navigation	Trial1	navigation/STIM_010.jpg	100
398.015	3.502	3502.1	navigation	Trial1	navigation/STIM_010.jpg	99
404.096	2.626	2625.7	navigation	Trial1	navigation/STIM_011.jpg	99
408.684	4.722	4721.9	navigation	Trial1	navigation/STIM_011.jpg	99
415.133	3.032	3032.4	navigation	Trial1	navigation/STIM_011.jpg	100
421.729	4.238	4238.1	navigation	Trial1	navigation/STIM_011.jpg	100
427.586	2.311	2311.1	navigation	Trial1	navigation/STIM_011.jpg	100
432.425	3.913	3912.9	navigation	Trial1	navigation/STIM_011.jpg	100
438.57	0.943	943.4	pointing	Trial1	pointing/STIM_000.jpg	100
442.368	0.981	980.7	pointing	Trial1	pointing/STIM_000.jpg	99
445.431	0.978	977.8	pointing	Trial1	pointing/STIM_000.jpg	99
448.55	1.644	1644.0	pointing	Trial1	pointing/STIM_000.jpg	99
452.525	1.147	1147.0	pointing	Trial1	pointing/STIM_000.jpg	100
456.771	1.142	1142.5	pointing	Trial1	pointing/STIM_000.jpg	99
460.662	1.659	1658.9	pointing	Trial1	pointing/STIM_001.jpg	100
465.674	1.337	1336.6	pointing	Trial1	pointing/STIM_001.jpg	100
470.587	1.28	1279.5	pointing	Trial1	pointing/STIM_001.jpg	99
474.498	1.062	1062.0	pointing	Trial1	pointing/STIM_001.jpg	99
479.153	1.532	1531.8	pointing	Trial1	pointing/STIM_001.jpg	100
483.269	1.298	1297.9	pointing	Trial1	pointing/STIM_001.jpg	99
487.134	1.113	1112.7	pointing	Trial1	pointing/STIM_002.jpg	99
490.465	1.112	1111.7	pointing	Trial1	pointing/STIM_002.jpg	100
493.623	1.628	1627.9	pointing	Trial1	pointing/STIM_002.jpg	99
498.202	1.556	1556.4	pointing	Trial1	pointing/STIM_002.jpg	99
502.412	1.66	1660.4	pointing	Trial1	pointing/STIM_002.jpg	100
505.987	1.343	1343.1	pointing	Trial1	pointing/STIM_002.jpg	100
509.838	1.1	1099.5	pointing	Trial1	pointing/STIM_003.jpg	100
514.109	1.069	1069.4	pointing	Trial1	pointing/STIM_003.jpg	99
519.019	1.236	1235.9	pointing	Trial1	pointing/STIM_003.jpg	100
523.649	1.363	1363.1	pointing	Trial1	pointing/STIM_003.jpg	100
527.706	1.666	1665.6	pointing	Trial1	pointing/STIM_003.jpg	99
532.681	1.395	1395.3	pointing	Trial1	pointing/STIM_003.jpg	100
536.569	1.428	1427.9	pointing	Trial1	pointing/STIM_004.jpg	99
541.04	1.056	1056.3	pointing	Trial1	pointing/STIM_004.jpg	99
544.219	1.166	1166.4	pointing	Trial1	pointing/STIM_004.jpg	99
548.334	1.141	1141.4	pointing	Trial1	pointing/STIM_004.jpg	100
552.152	1.524	1523.5	pointing	Trial1	pointing/STIM_004.jpg	99
557.244	1.558	1558.4	pointing	Trial1	pointing/STIM_004.jpg	100
561.008	1.34	1340.1	pointing	Trial1	pointing/STIM_005.jpg	99
564.262	1.36	1360.3	pointing	Trial1	pointing/STIM_005.jpg	100
567.777	1.367	1366.8	pointing	Trial1	pointing/STIM_005.jpg	99
571.522	1.513	1513.1	pointing	Trial1	pointing/STIM_005.jpg	100
576.787	0.956	955.6	pointing	Trial1	pointing/STIM_005.jpg	99
580.397	1.147	1147.3	pointing	Trial1	pointing/STIM_005.jpg	99
585.047	1.164	1164.3	pointing	Trial1	pointing/STIM_006.jpg	99
588.945	1.184	1183.8	pointing	Trial1	pointing/STIM_006.jpg	100
593.833	1.358	1357.9	pointing	Trial1	pointing/STIM_006.jpg	99
598.061	1.144	1144.1	pointing	Trial1	pointing/STIM_006.jpg	100
602.987	0.952	952.5	pointing	Trial1	pointing/STIM_006.jpg	100
606.684	1.074	1074.1	pointing	Trial1	pointing/STIM_006.jpg	100
611.067	1.34	1340.3	pointing	Trial1	pointing/STIM_007.jpg	100
615.495	1.214	1214.3	pointing	Trial1	pointing/STIM_007.jpg	99
620.268	1.652	1652.4	pointing	Trial1	pointing/STIM_007.jpg	99
623.973	1.075	1075.3	pointing	Trial1	pointing/STIM_007.jpg	100
627.509	1.478	1477.8	pointing	Trial1	pointing/STIM_007.jpg	100
631.071	1.286	1286.3	pointing	Trial1	pointing/STIM_007.jpg	99
635.008	1.3	1300.2	pointing	Trial1	pointing/STIM_008.jpg	99
639.568	1.211	1211.0	pointing	Trial1	pointing/STIM_008.jpg	99
642.848	1.64	1640.3	pointing	Trial1	pointing/STIM_008.jpg	100
648.246	1.006	1005.6	pointing	Trial1	pointing/STIM_008.jpg	100
652.808	0.958	958.3	pointing	Trial1	pointing/STIM_008.jpg	100
656.5	1.525	1524.6	pointing	Trial1	pointing/STIM_008.jpg	99
660.137	1.06	1060.2	pointing	Trial1	pointing/STIM_009.jpg	100
665.067	1.162	1162.2	pointing	Trial1	pointing/STIM_009.jpg	99
669.513	1.072	1071.5	pointing	Trial1	pointing/STIM_009.jpg	100
674.418	1.514	1513.5	pointing	Trial1	pointing/STIM_009.jpg	100
678.549	1.343	1343.1	pointing	Trial1	pointing/STIM_009.jpg	100
683.318	1.347	1347.1	pointing	Trial1	pointing/STIM_009.jpg	100
686.958	1.342	1342.2	pointing	Trial1	pointing/STIM_010.jpg	99
690.586	1.097	1097.3	pointing	Trial1	pointing/STIM_010.jpg	99
693.863	1.537	1537.4	pointing	Trial1	pointing/STIM_010.jpg	100
698.881	0.958	958.0	pointing	Trial1	pointing/STIM_010.jpg	100
702.236	1.38	1379.8	pointing	Trial1	pointing/STIM_010.jpg	100
706.525	1.338	1338.5	pointing	Trial1	pointing/STIM_010.jpg	100
711.158	1.199	1199.1	pointing	Trial1	pointing/STIM_011.jpg	100
715.586	0.967	967.1	pointing	Trial1	pointing/STIM_011.jpg	99
719.34	0.998	998.5	pointing	Trial1	pointing/STIM_011.jpg	99
723.188	1.442	1441.7	pointing	Trial1	pointing/STIM_011.jpg	100
727.573	1.604	1603.5	pointing	Trial1	pointing/STIM_011.jpg	100
732.255	1.502	1501.5	pointing	Trial1	pointing/STIM_011.jpg	99
736.899	2.739	2738.9	navigation	Trial2	navigation/STIM_000.jpg	100
742.239	2.771	2770.8	navigation	Trial2	navigation/STIM_000.jpg	100
746.913	3.927	3927.1	navigation	Trial2	navigation/STIM_000.jpg	99
752.593	2.78	2780.2	navigation	Trial2	navigation/STIM_000.jpg	99
757.838	2.696	2696.3	navigation	Trial2	navigation/STIM_000.jpg	100
764.089	2.495	2494.7	navigation	Trial2	navigation/STIM_000.jpg	99
769.625	2.164	2164.0	navigation	Trial2	navigation/STIM_001.jpg	99
774.74	4.263	4263.0	navigation	Trial2	navigation/STIM_001.jpg	99
781.795	3.138	3138.0	navigation	Trial2	navigation/STIM_001.jpg	99
787.76	1.961	1961.3	navigation	Trial2	navigation/STIM_001.jpg	99
792.798	3.151	3150.8	navigation	Trial2	navigation/STIM_001.jpg	99
798.297	2.855	2855.4	navigation	Trial2	navigation/STIM_001.jpg	100
803.694	2.349	2349.4	navigation	Trial2	navigation/STIM_002.jpg	100
809.279	2.91	2910.2	navigation	Trial2	navigation/STIM_002.jpg	100
814.926	1.852	1851.8	navigation	Trial2	navigation/STIM_002.jpg	100
818.701	2.227	2226.6	navigation	Trial2	navigation/STIM_002.jpg	99
824.148	2.978	2977.7	navigation	Trial2	navigation/STIM_002.jpg	99
829.276	1.646	1646.4	navigation	Trial2	navigation/STIM_002.jpg	100
834.417	3.559	3558.7	navigation	Trial2	navigation/STIM_003.jpg	100
841.545	4.172	4172.3	navigation	Trial2	navigation/STIM_003.jpg	100
848.934	2.478	2478.1	navigation	Trial2	navigation/STIM_003.jpg	100
853.68	3.566	3566.0	navigation	Trial2	navigation/STIM_003.jpg	99
859.218	2.894	2893.9	navigation	Trial2	navigation/STIM_003.jpg	100
865.51	2.437	2436.9	navigation	Trial2	navigation/STIM_003.jpg	99
870.344	1.969	1969.0	navigation	Trial2	navigation/STIM_004.jpg	100
874.957	4.214	4213.7	navigation	Trial2	navigation/STIM_004.jpg	100
882.628	2.04	2040.3	navigation	Trial2	navigation/STIM_004.jpg	99
887.116	2.919	2919.0	navigation	Trial2	navigation/STIM_004.jpg	99
892.156	1.954	1954.0	navigation	Trial2	navigation/STIM_004.jpg	100
896.717	2.028	2027.6	navigation	Trial2	navigation/STIM_004.jpg	99
900.997	2.212	2212.4	navigation	Trial2	navigation/STIM_005.jpg	100
905.209	3.977	3977.0	navigation	Trial2	navigation/STIM_005.jpg	100
912.563	3.232	3232.1	navigation	Trial2	navigation/STIM_005.jpg	100
917.472	2.755	2754.6	navigation	Trial2	navigation/STIM_005.jpg	99
923.553	2.68	2680.4	navigation	Trial2	navigation/STIM_005.jpg	99
928.537	3.572	3572.1	navigation	Trial2	navigation/STIM_005.jpg	99
934.626	2.634	2633.5	navigation	Trial2	navigation/STIM_006.jpg	99
940.872	2.64	2639.8	navigation	Trial2	navigation/STIM_006.jpg	99
946.923	2.443	2443.4	navigation	Trial2	navigation/STIM_006.jpg	100
951.661	2.624	2624.2	navigation	Trial2	navigation/STIM_006.jpg	99
956.584	3.202	3202.0	navigation	Trial2	navigation/STIM_006.jpg	99
962.467	3.04	3039.5	navigation	Trial2	navigation/STIM_006.jpg	100
968.75	3.546	3545.7	navigation	Trial2	navigation/STIM_007.jpg	100
974.914	4.226	4226.0	navigation	Trial2	navigation/STIM_007.jpg	100
981.973	1.71	1710.4	navigation	Trial2	navigation/STIM_007.jpg	100
986.567	2.75	2750.3	navigation	Trial2	navigation/STIM_007.jpg	100
992.266	2.604	2603.9	navigation	Trial2	navigation/STIM_007.jpg	100
997.673	2.987	2986.7	navigation	Trial2	navigation/STIM_007.jpg	100
1002.367	3.826	3826.3	navigation	Trial2	navigation/STIM_008.jpg	100
1008.507	3.256	3256.3	navigation	Trial2	navigation/STIM_008.jpg	100
1015.371	3.352	3352.1	navigation	Trial2	navigation/STIM_008.jpg	100
1021.347	2.912	2911.5	navigation	Trial2	navigation/STIM_008.jpg	100
1027.623	2.359	2359.0	navigation	Trial2	navigation/STIM_008.jpg	99
1033.601	3.527	3527.3	navigation	Trial2	navigation/STIM_008.jpg	99
1040.429	3.612	3612.0	navigation	Trial2	navigation/STIM_009.jpg	99
1047.377	3.515	3515.2	navigation	Trial2	navigation/STIM_009.jpg	100
1053.28	3.948	3947.6	navigation	Trial2	navigation/STIM_009.jpg	100
1059.339	3.674	3673.9	navigation	Trial2	navigation/STIM_009.jpg	100
1066.052	2.976	2975.8	navigation	Trial2	navigation/STIM_009.jpg	100
1071.454	3.353	3352.8	navigation	Trial2	navigation/STIM_009.jpg	100
1077.081	3.007	3006.6	navigation	Trial2	navigation/STIM_010.jpg	100
1082.157	3.67	3670.4	navigation	Trial2	navigation/STIM_010.jpg	100
1088.282	3.882	3882.5	navigation	Trial2	navigation/STIM_010.jpg	100
1093.964	2.07	2070.2	navigation	Trial2	navigation/STIM_010.jpg	99
1097.832	1.822	1822.4	navigation	Trial2	navigation/STIM_010.jpg	100
1101.513	1.996	1996.3	navigation	Trial2	navigation/STIM_010.jpg	100
1106.92	3.214	3214.3	navigation	Trial2	navigation/STIM_011.jpg	100
1111.859	4.106	4105.8	navigation	Trial2	navigation/STIM_011.jpg	99
1117.761	2.446	2446.4	navigation	Trial2	navigation/STIM_011.jpg	100
1122.014	2.787	2787.1	navigation	Trial2	navigation/STIM_011.jpg	99
1128.119	3.244	3244.3	navigation	Trial2	navigation/STIM_011.jpg	100
1133.781	3.303	3302.6	navigation	Trial2	navigation/STIM_011.jpg	99
1139.237	1.354	1354.0	pointing	Trial2	pointing/STIM_000.jpg	100
1143.892	1.091	1090.7	pointing	Trial2	pointing/STIM_000.jpg	100
1147.985	1.209	1209.3	pointing	Trial2	pointing/STIM_000.jpg	100
1152.746	1.642	1641.7	pointing	Trial2	pointing/STIM_000.jpg	99
1156.324	1.534	1534.2	pointing	Trial2	pointing/STIM_000.jpg	100
1160.045	1.149	1148.6	pointing	Trial2	pointing/STIM_000.jpg	100
1163.427	0.901	901.1	pointing	Trial2	pointing/STIM_001.jpg	100
1167.581	1.567	1566.9	pointing	Trial2	pointing/STIM_001.jpg	100
1171.716	1.589	1589.0	pointing	Trial2	pointing/STIM_001.jpg	99
1175.771	1.493	1493.3	pointing	Trial2	pointing/STIM_001.jpg	99
1179.193	1.24	1240.5	pointing	Trial2	pointing/STIM_001.jpg	100
1184.015	1.141	1140.9	pointing	Trial2	pointing/STIM_001.jpg	100
1187.688	1.463	1462.6	pointing	Trial2	pointing/STIM_002.jpg	100
1191.929	1.48	1479.8	pointing	Trial2	pointing/STIM_002.jpg	100
1196.721	1.441	1441.1	pointing	Trial2	pointing/STIM_002.jpg	99
1200.977	1.149	1149.3	pointing	Trial2	pointing/STIM_002.jpg	100
1205.466	1.575	1575.1	pointing	Trial2	pointing/STIM_002.jpg	99
1210.494	1.43	1429.9	pointing	Trial2	pointing/STIM_002.jpg	99
1214.921	1.21	1209.7	pointing	Trial2	pointing/STIM_003.jpg	100
1218.456	0.925	924.6	pointing	Trial2	pointing/STIM_003.jpg	99
1222.129	1.636	1636.2	pointing	Trial2	pointing/STIM_003.jpg	100
1226.248	1.154	1154.1	pointing	Trial2	pointing/STIM_003.jpg	100
1230.141	1.402	1402.3	pointing	Trial2	pointing/STIM_003.jpg	99
1233.972	1.229	1229.4	pointing	Trial2	pointing/STIM_003.jpg	99
1237.609	1.464	1464.1	pointing	Trial2	pointing/STIM_004.jpg	99
1242.327	0.977	977.3	pointing	Trial2	pointing/STIM_004.jpg	99
1247.08	1.66	1660.1	pointing	Trial2	pointing/STIM_004.jpg	100
1252.223	0.96	959.7	pointing	Trial2	pointing/STIM_004.jpg	100
1255.965	1.144	1144.4	pointing	Trial2	pointing/STIM_004.jpg	99
1260.468	1.336	1336.1	pointing	Trial2	pointing/STIM_004.jpg	99
1265.465	1.348	1347.6	pointing	Trial2	pointing/STIM_005.jpg	99
1270.332	1.264	1263.9	pointing	Trial2	pointing/STIM_005.jpg	99
1274.551	1.536	1535.9	pointing	Trial2	pointing/STIM_005.jpg	100
1278.905	1.299	1299.3	pointing	Trial2	pointing/STIM_005.jpg	100
1283.142	1.095	1094.6	pointing	Trial2	pointing/STIM_005.jpg	99
1287.99	0.915	914.7	pointing	Trial2	pointing/STIM_005.jpg	99
1291.686	1.066	1065.5	pointing	Trial2	pointing/STIM_006.jpg	100
1295.68	1.494	1494.5	pointing	Trial2	pointing/STIM_006.jpg	100
1299.557	1.099	1099.4	pointing	Trial2	pointing/STIM_006.jpg	99
1303.525	0.982	982.4	pointing	Trial2	pointing/STIM_006.jpg	100
1308.381	1.029	1028.6	pointing	Trial2	pointing/STIM_006.jpg	100
1312.194	1.624	1624.0	pointing	Trial2	pointing/STIM_006.jpg	99
1316.595	1.342	1342.3	pointing	Trial2	pointing/STIM_007.jpg	100
1321.663	1.614	1614.3	pointing	Trial2	pointing/STIM_007.jpg	99
1326.277	1.297	1297.1	pointing	Trial2	pointing/STIM_007.jpg	100
1331.394	0.937	937.0	pointing	Trial2	pointing/STIM_007.jpg	100
1335.87	1.404	1404.0	pointing	Trial2	pointing/STIM_007.jpg	99
1339.363	1.634	1634.5	pointing	Trial2	pointing/STIM_007.jpg	99
1343.319	1.511	1510.8	pointing	Trial2	pointing/STIM_008.jpg	100
1347.078	1.451	1451.4	pointing	Trial2	pointing/STIM_008.jpg	100
1350.533	1.246	1246.5	pointing	Trial2	pointing/STIM_008.jpg	100
1353.958	1.018	1018.5	pointing	Trial2	pointing/STIM_008.jpg	99
1358.706	0.916	915.7	pointing	Trial2	pointing/STIM_008.jpg	100
1361.703	1.658	1658.0	pointing	Trial2	pointing/STIM_008.jpg	99
1366.332	1.048	1047.8	pointing	Trial2	pointing/STIM_009.jpg	99
1370.698	1.025	1024.6	pointing	Trial2	pointing/STIM_009.jpg	99
1374.287	1.518	1517.6	pointing	Trial2	pointing/STIM_009.jpg	100
1378.646	1.642	1642.1	pointing	Trial2	pointing/STIM_009.jpg	99
1382.335	1.234	1234.5	pointing	Trial2	pointing/STIM_009.jpg	99
1387.016	0.912	911.9	pointing	Trial2	pointing/STIM_009.jpg	100
1391.777	1.594	1593.8	pointing	Trial2	pointing/STIM_010.jpg	99
1396.136	1.315	1314.6	pointing	Trial2	pointing/STIM_010.jpg	99
1400.087	0.974	973.6	pointing	Trial2	pointing/STIM_010.jpg	100
1404.573	1.258	1258.0	pointing	Trial2	pointing/STIM_010.jpg	100
1409.103	1.043	1043.1	pointing	Trial2	pointing/STIM_010.jpg	100
1412.52	1.365	1365.0	pointing	Trial2	pointing/STIM_010.jpg	100
1417.517	1.459	1459.1	pointing	Trial2	pointing/STIM_011.jpg	100
1421.077	1.645	1645.1	pointing	Trial2	pointing/STIM_011.jpg	99
1426.529	1.304	1304.4	pointing	Trial2	pointing/STIM_011.jpg	99
1429.723	0.942	941.7	pointing	Trial2	pointing/STIM_011.jpg	100
1434.079	1.643	1643.2	pointing	Trial2	pointing/STIM_011.jpg	100
1438.773	1.129	1128.9	pointing	Trial2	pointing/STIM_011.jpg	99
1443.505	2.788	2787.8	navigation	Trial3	navigation/STIM_000.jpg	100
1448.261	3.47	3470.3	navigation	Trial3	navigation/STIM_000.jpg	100
1453.569	1.764	1763.9	navigation	Trial3	navigation/STIM_000.jpg	99
1458.519	2.634	2634.3	navigation	Trial3	navigation/STIM_000.jpg	99
1464.744	2.057	2056.9	navigation	Trial3	navigation/STIM_000.jpg	100
1469.96	1.711	1710.7	navigation	Trial3	navigation/STIM_000.jpg	99
1475.13	3.262	3261.5	navigation	Trial3	navigation/STIM_001.jpg	100
1481.036	1.824	1824.4	navigation	Trial3	navigation/STIM_001.jpg	100
1485.853	2.648	2647.5	navigation	Trial3	navigation/STIM_001.jpg	99
1491.326	2.981	2980.9	navigation	Trial3	navigation/STIM_001.jpg	100
1496.385	1.984	1984.3	navigation	Trial3	navigation/STIM_001.jpg	99
1501.212	3.152	3152.0	navigation	Trial3	navigation/STIM_001.jpg	99
1507.222	1.708	1708.4	navigation	Trial3	navigation/STIM_002.jpg	99
1512.602	3.725	3725.1	navigation	Trial3	navigation/STIM_002.jpg	99
1518.34	1.572	1571.8	navigation	Trial3	navigation/STIM_002.jpg	100
1523.293	2.452	2451.7	navigation	Trial3	navigation/STIM_002.jpg	99
1528.168	1.579	1578.8	navigation	Trial3	navigation/STIM_002.jpg	100
1532.412	2.776	2775.7	navigation	Trial3	navigation/STIM_002.jpg	100
1537.292	3.342	3341.7	navigation	Trial3	navigation/STIM_003.jpg	99
1543.279	1.707	1706.8	navigation	Trial3	navigation/STIM_003.jpg	99
1547.396	2.964	2963.6	navigation	Trial3	navigation/STIM_003.jpg	100
1552.854	2.914	2914.4	navigation	Trial3	navigation/STIM_003.jpg	99
1557.728	3.285	3284.7	navigation	Trial3	navigation/STIM_003.jpg	100
1563.286	1.991	1990.7	navigation	Trial3	navigation/STIM_003.jpg	99
1568.028	3.367	3366.8	navigation	Trial3	navigation/STIM_004.jpg	99
1573.485	2.96	2959.6	navigation	Trial3	navigation/STIM_004.jpg	99
1578.478	3.03	3029.5	navigation	Trial3	navigation/STIM_004.jpg	100
1583.431	2.532	2532.5	navigation	Trial3	navigation/STIM_004.jpg	99
1587.952	2.223	2223.3	navigation	Trial3	navigation/STIM_004.jpg	99
1593.62	2.99	2990.0	navigation	Trial3	navigation/STIM_004.jpg	100
1599.891	2.864	2864.2	navigation	Trial3	navigation/STIM_005.jpg	100
1606.235	2.75	2750.1	navigation	Trial3	navigation/STIM_005.jpg	99
1610.942	3.257	3256.7	navigation	Trial3	navigation/STIM_005.jpg	99
1617.111	2.765	2764.8	navigation	Trial3	navigation/STIM_005.jpg	100
1623.002	1.996	1995.5	navigation	Trial3	navigation/STIM_005.jpg	99
1627.85	3.333	3332.9	navigation	Trial3	navigation/STIM_005.jpg	100
1634.06	2.446	2446.2	navigation	Trial3	navigation/STIM_006.jpg	99
1638.838	1.781	1780.8	navigation	Trial3	navigation/STIM_006.jpg	99
1643.18	3.255	3254.8	navigation	Trial3	navigation/STIM_006.jpg	99
1648.828	2.513	2513.1	navigation	Trial3	navigation/STIM_006.jpg	99
1654.685	3.29	3290.4	navigation	Trial3	navigation/STIM_006.jpg	99
1660.161	2.434	2433.7	navigation	Trial3	navigation/STIM_006.jpg	100
1665.372	1.761	1761.3	navigation	Trial3	navigation/STIM_007.jpg	99
1670.078	1.676	1676.1	navigation	Trial3	navigation/STIM_007.jpg	99
1675.353	2.544	2544.4	navigation	Trial3	navigation/STIM_007.jpg	99
1680.177	2.501	2501.4	navigation	Trial3	navigation/STIM_007.jpg	100
1684.745	1.836	1836.5	navigation	Trial3	navigation/STIM_007.jpg	99
1688.874	2.954	2954.1	navigation	Trial3	navigation/STIM_007.jpg	100
1694.181	1.75	1750.3	navigation	Trial3	navigation/STIM_008.jpg	100
1699.348	3.323	3323.0	navigation	Trial3	navigation/STIM_008.jpg	99
1704.877	3.316	3315.8	navigation	Trial3	navigation/STIM_008.jpg	100
1710.309	2.994	2994.3	navigation	Trial3	navigation/STIM_008.jpg	100
1716.06	2.428	2427.5	navigation	Trial3	navigation/STIM_008.jpg	99
1721.784	3.057	3057.3	navigation	Trial3	navigation/STIM_008.jpg	99
1728.365	3.628	3628.1	navigation	Trial3	navigation/STIM_009.jpg	99
1734.996	1.62	1619.5	navigation	Trial3	navigation/STIM_009.jpg	100
1738.733	1.916	1916.5	navigation	Trial3	navigation/STIM_009.jpg	99
1743.153	3.199	3198.8	navigation	Trial3	navigation/STIM_009.jpg	99
1748.209	2.936	2936.0	navigation	Trial3	navigation/STIM_009.jpg	100
1754.413	3.045	3045.4	navigation	Trial3	navigation/STIM_009.jpg	99
1760.935	2.566	2565.9	navigation	Trial3	navigation/STIM_010.jpg	99
1766.726	2.538	2537.8	navigation	Trial3	navigation/STIM_010.jpg	100
1772.873	3.686	3685.6	navigation	Trial3	navigation/STIM_010.jpg	100
1778.476	2.985	2985.4	navigation	Trial3	navigation/STIM_010.jpg	99
1784.219	3.648	3647.9	navigation	Trial3	navigation/STIM_010.jpg	100
1790.856	2.092	2092.1	navigation	Trial3	navigation/STIM_010.jpg	99
1795.137	3.492	3492.5	navigation	Trial3	navigation/STIM_011.jpg	99
1801.278	2.691	2690.6	navigation	Trial3	navigation/STIM_011.jpg	100
1806.756	1.673	1673.2	navigation	Trial3	navigation/STIM_011.jpg	100
1810.474	2.478	2477.5	navigation	Trial3	navigation/STIM_011.jpg	100
1815.051	3.735	3735.2	navigation	Trial3	navigation/STIM_011.jpg	99
1822.352	3.29	3289.7	navigation	Trial3	navigation/STIM_011.jpg	100
1828.442	1.159	1158.9	pointing	Trial3	pointing/STIM_000.jpg	99
1831.665	1.518	1517.9	pointing	Trial3	pointing/STIM_000.jpg	99
1836.942	1.438	1438.4	pointing	Trial3	pointing/STIM_000.jpg	99
1841.92	1.06	1060.3	pointing	Trial3	pointing/STIM_000.jpg	100
1846.559	1.347	1347.3	pointing	Trial3	pointing/STIM_000.jpg	99
1851.74	0.957	957.1	pointing	Trial3	pointing/STIM_000.jpg	99
1855.757	1.513	1512.9	pointing	Trial3	pointing/STIM_001.jpg	100
1859.95	1.14	1139.7	pointing	Trial3	pointing/STIM_001.jpg	100
1863.753	1.025	1024.7	pointing	Trial3	pointing/STIM_001.jpg	100
1867.469	1.271	1270.8	pointing	Trial3	pointing/STIM_001.jpg	100
1871.661	1.368	1367.8	pointing	Trial3	pointing/STIM_001.jpg	99
1875.811	0.953	953.3	pointing	Trial3	pointing/STIM_001.jpg	99
1880.514	1.519	1518.9	pointing	Trial3	pointing/STIM_002.jpg	100
1884.662	1.6	1600.2	pointing	Trial3	pointing/STIM_002.jpg	99
1889.193	1.074	1074.4	pointing	Trial3	pointing/STIM_002.jpg	100
1892.298	1.468	1468.1	pointing	Trial3	pointing/STIM_002.jpg	99
1896.732	0.992	991.5	pointing	Trial3	pointing/STIM_002.jpg	100
1899.831	1.275	1274.8	pointing	Trial3	pointing/STIM_002.jpg	99
1903.948	1.32	1319.6	pointing	Trial3	pointing/STIM_003.jpg	99
1907.341	1.308	1308.3	pointing	Trial3	pointing/STIM_003.jpg	99
1911.575	0.92	920.0	pointing	Trial3	pointing/STIM_003.jpg	100
1914.976	1.364	1363.5	pointing	Trial3	pointing/STIM_003.jpg	100
1919.208	1.514	1514.5	pointing	Trial3	pointing/STIM_003.jpg	100
1924.252	1.5	1499.6	pointing	Trial3	pointing/STIM_003.jpg	99
1927.602	1.254	1253.5	pointing	Trial3	pointing/STIM_004.jpg	100
1932.624	1.329	1328.9	pointing	Trial3	pointing/STIM_004.jpg	100
1936.611	1.661	1661.0	pointing	Trial3	pointing/STIM_004.jpg	99
1941.782	1.011	1010.7	pointing	Trial3	pointing/STIM_004.jpg	99
1944.79	1.03	1029.9	pointing	Trial3	pointing/STIM_004.jpg	99
1948.264	1.037	1037.0	pointing	Trial3	pointing/STIM_004.jpg	100
1952.987	1.081	1080.9	pointing	Trial3	pointing/STIM_005.jpg	100
1957.657	1.454	1453.8	pointing	Trial3	pointing/STIM_005.jpg	99
1961.458	1.493	1492.8	pointing	Trial3	pointing/STIM_005.jpg	99
1965.367	0.994	994.1	pointing	Trial3	pointing/STIM_005.jpg	99
1969.334	1.552	1551.5	pointing	Trial3	pointing/STIM_005.jpg	100
1973.889	1.119	1118.8	pointing	Trial3	pointing/STIM_005.jpg	100
1978.849	1.096	1095.9	pointing	Trial3	pointing/STIM_006.jpg	99
1983.804	1.2	1200.1	pointing	Trial3	pointing/STIM_006.jpg	100
1987.331	0.98	979.9	pointing	Trial3	pointing/STIM_006.jpg	100
1991.704	1.28	1280.4	pointing	Trial3	pointing/STIM_006.jpg	100
1994.901	1.526	1526.0	pointing	Trial3	pointing/STIM_006.jpg	99
1999.345	1.572	1572.0	pointing	Trial3	pointing/STIM_006.jpg	99
2003.075	1.54	1539.5	pointing	Trial3	pointing/STIM_007.jpg	99
2008.37	1.482	1481.6	pointing	Trial3	pointing/STIM_007.jpg	100
2013.51	1.655	1655.1	pointing	Trial3	pointing/STIM_007.jpg	100
2018.909	1.004	1004.0	pointing	Trial3	pointing/STIM_007.jpg	99
2022.673	0.914	914.0	pointing	Trial3	pointing/STIM_007.jpg	100
2026.921	1.486	1486.4	pointing	Trial3	pointing/STIM_007.jpg	100
2031.275	1.553	1553.2	pointing	Trial3	pointing/STIM_008.jpg	100
2036.385	1.335	1335.3	pointing	Trial3	pointing/STIM_008.jpg	99
2040.2	1.373	1372.8	pointing	Trial3	pointing/STIM_008.jpg	99
2045.157	1.457	1457.4	pointing	Trial3	pointing/STIM_008.jpg	100
2049.902	1.057	1056.8	pointing	Trial3	pointing/STIM_008.jpg	100
2054.231	1.582	1582.5	pointing	Trial3	pointing/STIM_008.jpg	100
2059.551	1.446	1445.7	pointing	Trial3	pointing/STIM_009.jpg	99
2063.632	1.127	1126.7	pointing	Trial3	pointing/STIM_009.jpg	99
2067.372	1.097	1097.4	pointing	Trial3	pointing/STIM_009.jpg	99
2072.086	1.473	1472.6	pointing	Trial3	pointing/STIM_009.jpg	99
2077.078	1.214	1214.1	pointing	Trial3	pointing/STIM_009.jpg	99
2080.342	1.641	1641.0	pointing	Trial3	pointing/STIM_009.jpg	100
2085.368	1.589	1589.2	pointing	Trial3	pointing/STIM_010.jpg	99
2089.075	1.19	1190.5	pointing	Trial3	pointing/STIM_010.jpg	100
2093.365	1.44	1440.2	pointing	Trial3	pointing/STIM_010.jpg	100
2097.754	1.585	1584.6	pointing	Trial3	pointing/STIM_010.jpg	99
2102.046	1.619	1618.9	pointing	Trial3	pointing/STIM_010.jpg	100
2105.628	1.121	1121.0	pointing	Trial3	pointing/STIM_010.jpg	100
2109.489	1.01	1010.1	pointing	Trial3	pointing/STIM_011.jpg	99
2113.255	1.08	1080.5	pointing	Trial3	pointing/STIM_011.jpg	99
2116.568	1.102	1101.8	pointing	Trial3	pointing/STIM_011.jpg	99
2121.231	1.53	1529.8	pointing	Trial3	pointing/STIM_011.jpg	99
2126.562	1.156	1155.7	pointing	Trial3	pointing/STIM_011.jpg	99
2130.05	1.161	1160.8	pointing	Trial3	pointing/STIM_011.jpg	100
