onset	duration	accuracy	trial_type	learning_stage	stimulus
0.0	1.772	correct	generate	Run1	generate/STIM_000.jpg
4.76	2.363	correct	generate	Run1	generate/STIM_000.jpg
10.318	1.977	correct	generate	Run1	generate/STIM_000.jpg
16.153	1.48	correct	generate	Run1	generate/STIM_000.jpg
19.88	1.836	correct	generate	Run1	generate/STIM_000.jpg
24.129	1.715	correct	generate	Run1	generate/STIM_001.jpg
28.67	2.295	correct	generate	Run1	generate/STIM_001.jpg
34.623	1.34	correct	generate	Run1	generate/STIM_001.jpg
38.984	2.171	incorrect	generate	Run1	generate/STIM_001.jpg
44.26	2.103	correct	generate	Run1	generate/STIM_001.jpg
50.27	1.416	incorrect	generate	Run1	generate/STIM_002.jpg
53.935	2.538	incorrect	generate	Run1	generate/STIM_002.jpg
59.934	2.461	correct	generate	Run1	generate/STIM_002.jpg
66.05	0.999	correct	generate	Run1	generate/STIM_002.jpg
70.166	1.732	incorrect	generate	Run1	generate/STIM_002.jpg
75.211	2.509	correct	generate	Run1	generate/STIM_003.jpg
79.89	1.682	correct	generate	Run1	generate/STIM_003.jpg
84.969	1.624	correct	generate	Run1	generate/STIM_003.jpg
88.809	2.079	correct	generate	Run1	generate/STIM_003.jpg
93.186	1.751	correct	generate	Run1	generate/STIM_003.jpg
97.504	2.302	correct	generate	Run1	generate/STIM_004.jpg
101.849	1.854	incorrect	generate	Run1	generate/STIM_004.jpg
106.452	1.865	correct	generate	Run1	generate/STIM_004.jpg
111.021	1.961	correct	generate	Run1	generate/STIM_004.jpg
116.775	1.305	correct	generate	Run1	generate/STIM_004.jpg
122.083	2.306	correct	generate	Run1	generate/STIM_005.jpg
126.534	2.756	incorrect	generate	Run1	generate/STIM_005.jpg
132.721	2.352	correct	generate	Run1	generate/STIM_005.jpg
138.981	1.488	correct	generate	Run1	generate/STIM_005.jpg
142.708	1.989	correct	generate	Run1	generate/STIM_005.jpg
147.239	1.46	correct	generate	Run1	generate/STIM_006.jpg
151.165	2.403	correct	generate	Run1	generate/STIM_006.jpg
156.735	1.752	incorrect	generate	Run1	generate/STIM_006.jpg
162.121	1.496	correct	generate	Run1	generate/STIM_006.jpg
165.754	2.28	correct	generate	Run1	generate/STIM_006.jpg
170.435	1.71	correct	generate	Run1	generate/STIM_007.jpg
174.471	2.114	correct	generate	Run1	generate/STIM_007.jpg
179.31	2.018	incorrect	generate	Run1	generate/STIM_007.jpg
184.527	2.315	correct	generate	Run1	generate/STIM_007.jpg
190.145	1.229	correct	generate	Run1	generate/STIM_007.jpg
193.991	2.31	correct	generate	Run1	generate/STIM_008.jpg
199.258	2.214	correct	generate	Run1	generate/STIM_008.jpg
204.598	1.661	incorrect	generate	Run1	generate/STIM_008.jpg
210.061	1.779	correct	generate	Run1	generate/STIM_008.jpg
214.426	2.399	correct	generate	Run1	generate/STIM_008.jpg
220.459	1.962	correct	generate	Run1	generate/STIM_009.jpg
225.696	1.803	correct	generate	Run1	generate/STIM_009.jpg
231.319	2.538	correct	generate	Run1	generate/STIM_009.jpg
237.305	1.268	incorrect	generate	Run1	generate/STIM_009.jpg
240.588	1.45	correct	generate	Run1	generate/STIM_009.jpg
245.266	1.648	correct	generate	Run1	generate/STIM_010.jpg
250.118	1.436	correct	generate	Run1	generate/STIM_010.jpg
253.758	2.648	correct	generate	Run1	generate/STIM_010.jpg
258.792	1.999	incorrect	generate	Run1	generate/STIM_010.jpg
263.214	2.369	correct	generate	Run1	generate/STIM_010.jpg
268.922	2.35	correct	generate	Run1	generate/STIM_011.jpg
274.771	2.557	correct	generate	Run1	generate/STIM_011.jpg
279.878	1.682	correct	generate	Run1	generate/STIM_011.jpg
285.264	1.192	incorrect	generate	Run1	generate/STIM_011.jpg
289.751	1.416	correct	generate	Run1	generate/STIM_011.jpg
294.199	2.581	correct	generate	Run1	generate/STIM_012.jpg
299.229	1.617	correct	generate	Run1	generate/STIM_012.jpg
303.913	1.74	incorrect	generate	Run1	generate/STIM_012.jpg
309.159	1.763	correct	generate	Run1	generate/STIM_012.jpg
314.388	1.057	correct	generate	Run1	generate/STIM_012.jpg
318.833	1.583	incorrect	generate	Run1	generate/STIM_013.jpg
324.21	1.618	correct	generate	Run1	generate/STIM_013.jpg
328.087	2.098	correct	generate	Run1	generate/STIM_013.jpg
332.911	2.11	incorrect	generate	Run1	generate/STIM_013.jpg
337.891	1.092	correct	generate	Run1	generate/STIM_013.jpg
341.87	1.598	incorrect	generate	Run1	generate/STIM_014.jpg
346.704	1.966	correct	generate	Run1	generate/STIM_014.jpg
351.319	2.719	correct	generate	Run1	generate/STIM_014.jpg
356.653	2.252	correct	generate	Run1	generate/STIM_014.jpg
361.081	1.347	correct	generate	Run1	generate/STIM_014.jpg
365.725	1.694	correct	generate	Run1	generate/STIM_015.jpg
371.005	1.474	correct	generate	Run1	generate/STIM_015.jpg
375.29	2.548	incorrect	generate	Run1	generate/STIM_015.jpg
380.049	2.082	correct	generate	Run1	generate/STIM_015.jpg
385.056	1.679	correct	generate	Run1	generate/STIM_015.jpg
389.881	2.254	correct	generate	Run1	generate/STIM_016.jpg
395.823	1.258	incorrect	generate	Run1	generate/STIM_016.jpg
401.004	2.602	correct	generate	Run1	generate/STIM_016.jpg
406.234	1.904	incorrect	generate	Run1	generate/STIM_016.jpg
411.395	1.028	incorrect	generate	Run1	generate/STIM_016.jpg
416.299	2.142	correct	generate	Run1	generate/STIM_017.jpg
421.202	2.825	correct	generate	Run1	generate/STIM_017.jpg
426.878	1.275	incorrect	generate	Run1	generate/STIM_017.jpg
432.001	1.923	correct	generate	Run1	generate/STIM_017.jpg
437.644	1.724	correct	generate	Run1	generate/STIM_017.jpg
442.493	2.336	correct	generate	Run1	generate/STIM_018.jpg
447.238	1.866	correct	generate	Run1	generate/STIM_018.jpg
451.142	1.466	incorrect	generate	Run1	generate/STIM_018.jpg
454.743	2.276	correct	generate	Run1	generate/STIM_018.jpg
460.021	1.445	correct	generate	Run1	generate/STIM_018.jpg
464.951	1.727	correct	generate	Run1	generate/STIM_019.jpg
470.02	1.331	correct	generate	Run1	generate/STIM_019.jpg
474.779	2.673	incorrect	generate	Run1	generate/STIM_019.jpg
480.992	1.681	correct	generate	Run1	generate/STIM_019.jpg
486.338	1.23	correct	generate	Run1	generate/STIM_019.jpg
490.821	2.282	correct	generate	Run1	generate/STIM_020.jpg
496.931	2.228	correct	generate	Run1	generate/STIM_020.jpg
503.013	1.356	incorrect	generate	Run1	generate/STIM_020.jpg
508.133	1.504	incorrect	generate	Run1	generate/STIM_020.jpg
511.747	2.181	correct	generate	Run1	generate/STIM_020.jpg
517.778	2.176	correct	generate	Run1	generate/STIM_021.jpg
523.34	1.158	correct	generate	Run1	generate/STIM_021.jpg
526.751	1.983	incorrect	generate	Run1	generate/STIM_021.jpg
532.691	2.128	correct	generate	Run1	generate/STIM_021.jpg
538.131	1.821	correct	generate	Run1	generate/STIM_021.jpg
543.994	2.44	correct	generate	Run1	generate/STIM_022.jpg
549.317	2.673	incorrect	generate	Run1	generate/STIM_022.jpg
555.36	1.543	correct	generate	Run1	generate/STIM_022.jpg
559.211	1.53	incorrect	generate	Run1	generate/STIM_022.jpg
563.048	1.13	correct	generate	Run1	generate/STIM_022.jpg
567.542	1.442	correct	generate	Run1	generate/STIM_023.jpg
572.052	1.898	correct	generate	Run1	generate/STIM_023.jpg
577.444	2.025	correct	generate	Run1	generate/STIM_023.jpg
582.049	1.623	correct	generate	Run1	generate/STIM_023.jpg
586.986	2.135	correct	generate	Run1	generate/STIM_023.jpg
591.339	2.819	correct	generate	Run1	generate/STIM_024.jpg
597.8	2.449	correct	generate	Run1	generate/STIM_024.jpg
602.837	1.262	correct	generate	Run1	generate/STIM_024.jpg
607.173	2.052	correct	generate	Run1	generate/STIM_024.jpg
612.319	1.515	correct	generate	Run1	generate/STIM_024.jpg
617.622	0.674	correct	repeat	Run1	repeat/STIM_000.jpg
621.475	0.673	correct	repeat	Run1	repeat/STIM_000.jpg
625.694	1.095	correct	repeat	Run1	repeat/STIM_000.jpg
628.682	0.654	correct	repeat	Run1	repeat/STIM_000.jpg
632.411	0.504	correct	repeat	Run1	repeat/STIM_000.jpg
636.267	0.882	correct	repeat	Run1	repeat/STIM_001.jpg
641.032	0.864	correct	repeat	Run1	repeat/STIM_001.jpg
644.069	0.931	correct	repeat	Run1	repeat/STIM_001.jpg
647.885	0.891	correct	repeat	Run1	repeat/STIM_001.jpg
651.799	0.567	correct	repeat	Run1	repeat/STIM_001.jpg
655.313	0.629	correct	repeat	Run1	repeat/STIM_002.jpg
659.429	0.564	correct	repeat	Run1	repeat/STIM_002.jpg
664.032	0.645	correct	repeat	Run1	repeat/STIM_002.jpg
668.439	0.658	correct	repeat	Run1	repeat/STIM_002.jpg
672.031	0.479	correct	repeat	Run1	repeat/STIM_002.jpg
674.714	0.738	correct	repeat	Run1	repeat/STIM_003.jpg
677.601	0.612	correct	repeat	Run1	repeat/STIM_003.jpg
680.289	0.443	correct	repeat	Run1	repeat/STIM_003.jpg
683.166	0.57	correct	repeat	Run1	repeat/STIM_003.jpg
686.849	0.912	correct	repeat	Run1	repeat/STIM_003.jpg
691.476	0.585	correct	repeat	Run1	repeat/STIM_004.jpg
694.427	0.902	correct	repeat	Run1	repeat/STIM_004.jpg
698.133	0.847	correct	repeat	Run1	repeat/STIM_004.jpg
701.858	0.819	correct	repeat	Run1	repeat/STIM_004.jpg
705.598	0.975	correct	repeat	Run1	repeat/STIM_004.jpg
710.338	0.695	incorrect	repeat	Run1	repeat/STIM_005.jpg
714.36	0.681	correct	repeat	Run1	repeat/STIM_005.jpg
717.28	0.886	correct	repeat	Run1	repeat/STIM_005.jpg
721.731	0.814	correct	repeat	Run1	repeat/STIM_005.jpg
726.195	0.959	correct	repeat	Run1	repeat/STIM_005.jpg
731.06	0.739	correct	repeat	Run1	repeat/STIM_006.jpg
735.612	0.642	correct	repeat	Run1	repeat/STIM_006.jpg
738.429	0.754	correct	repeat	Run1	repeat/STIM_006.jpg
741.932	0.62	correct	repeat	Run1	repeat/STIM_006.jpg
745.583	0.844	correct	repeat	Run1	repeat/STIM_006.jpg
749.128	0.572	correct	repeat	Run1	repeat/STIM_007.jpg
753.502	0.902	correct	repeat	Run1	repeat/STIM_007.jpg
757.865	0.944	correct	repeat	Run1	repeat/STIM_007.jpg
761.629	0.969	correct	repeat	Run1	repeat/STIM_007.jpg
765.567	0.817	correct	repeat	Run1	repeat/STIM_007.jpg
768.328	0.535	correct	repeat	Run1	repeat/STIM_008.jpg
771.485	0.936	correct	repeat	Run1	repeat/STIM_008.jpg
775.549	0.606	correct	repeat	Run1	repeat/STIM_008.jpg
778.174	0.586	correct	repeat	Run1	repeat/STIM_008.jpg
780.887	0.645	correct	repeat	Run1	repeat/STIM_008.jpg
785.606	0.535	correct	repeat	Run1	repeat/STIM_009.jpg
789.512	0.622	correct	repeat	Run1	repeat/STIM_009.jpg
792.831	0.652	correct	repeat	Run1	repeat/STIM_009.jpg
797.471	0.455	correct	repeat	Run1	repeat/STIM_009.jpg
800.166	1.043	correct	repeat	Run1	repeat/STIM_009.jpg
804.922	0.507	correct	repeat	Run1	repeat/STIM_010.jpg
808.462	0.822	correct	repeat	Run1	repeat/STIM_010.jpg
812.994	0.78	correct	repeat	Run1	repeat/STIM_010.jpg
815.831	0.78	correct	repeat	Run1	repeat/STIM_010.jpg
819.48	0.876	correct	repeat	Run1	repeat/STIM_010.jpg
822.57	0.728	correct	repeat	Run1	repeat/STIM_011.jpg
825.486	0.645	correct	repeat	Run1	repeat/STIM_011.jpg
828.442	0.791	correct	repeat	Run1	repeat/STIM_011.jpg
831.322	0.685	correct	repeat	Run1	repeat/STIM_011.jpg
834.579	0.596	correct	repeat	Run1	repeat/STIM_011.jpg
838.059	0.775	correct	repeat	Run1	repeat/STIM_012.jpg
841.457	0.699	correct	repeat	Run1	repeat/STIM_012.jpg
844.165	0.553	correct	repeat	Run1	repeat/STIM_012.jpg
847.003	0.868	correct	repeat	Run1	repeat/STIM_012.jpg
850.36	0.573	correct	repeat	Run1	repeat/STIM_012.jpg
854.016	0.568	correct	repeat	Run1	repeat/STIM_013.jpg
858.265	0.781	correct	repeat	Run1	repeat/STIM_013.jpg
862.021	0.498	correct	repeat	Run1	repeat/STIM_013.jpg
866.346	0.816	correct	repeat	Run1	repeat/STIM_013.jpg
869.414	0.576	correct	repeat	Run1	repeat/STIM_013.jpg
872.761	0.743	correct	repeat	Run1	repeat/STIM_014.jpg
875.632	0.73	correct	repeat	Run1	repeat/STIM_014.jpg
879.804	0.879	correct	repeat	Run1	repeat/STIM_014.jpg
883.74	0.954	correct	repeat	Run1	repeat/STIM_014.jpg
887.659	0.588	correct	repeat	Run1	repeat/STIM_014.jpg
890.735	1.865	correct	generate	Run2	generate/STIM_000.jpg
895.664	1.726	correct	generate	Run2	generate/STIM_000.jpg
899.461	1.386	correct	generate	Run2	generate/STIM_000.jpg
904.348	1.89	correct	generate	Run2	generate/STIM_000.jpg
908.437	2.055	correct	generate	Run2	generate/STIM_000.jpg
913.183	1.384	incorrect	generate	Run2	generate/STIM_001.jpg
917.798	1.625	correct	generate	Run2	generate/STIM_001.jpg
922.257	1.986	correct	generate	Run2	generate/STIM_001.jpg
927.314	1.385	correct	generate	Run2	generate/STIM_001.jpg
932.284	0.953	correct	generate	Run2	generate/STIM_001.jpg
936.827	1.217	correct	generate	Run2	generate/STIM_002.jpg
940.897	1.361	incorrect	generate	Run2	generate/STIM_002.jpg
944.463	1.549	correct	generate	Run2	generate/STIM_002.jpg
948.153	1.532	correct	generate	Run2	generate/STIM_002.jpg
953.097	1.97	correct	generate	Run2	generate/STIM_002.jpg
958.177	1.142	correct	generate	Run2	generate/STIM_003.jpg
962.412	1.432	correct	generate	Run2	generate/STIM_003.jpg
967.003	1.202	correct	generate	Run2	generate/STIM_003.jpg
971.277	1.234	correct	generate	Run2	generate/STIM_003.jpg
974.692	1.472	correct	generate	Run2	generate/STIM_003.jpg
978.67	2.091	correct	generate	Run2	generate/STIM_004.jpg
983.088	1.392	correct	generate	Run2	generate/STIM_004.jpg
987.239	1.51	correct	generate	Run2	generate/STIM_004.jpg
991.953	1.912	incorrect	generate	Run2	generate/STIM_004.jpg
996.247	2.106	correct	generate	Run2	generate/STIM_004.jpg
1001.8	1.259	correct	generate	Run2	generate/STIM_005.jpg
1005.186	1.699	correct	generate	Run2	generate/STIM_005.jpg
1009.335	1.368	incorrect	generate	Run2	generate/STIM_005.jpg
1012.749	1.181	correct	generate	Run2	generate/STIM_005.jpg
1017.131	1.742	correct	generate	Run2	generate/STIM_005.jpg
1021.046	1.399	correct	generate	Run2	generate/STIM_006.jpg
1025.273	1.415	correct	generate	Run2	generate/STIM_006.jpg
1029.241	1.953	correct	generate	Run2	generate/STIM_006.jpg
1033.607	1.555	correct	generate	Run2	generate/STIM_006.jpg
1037.551	1.986	correct	generate	Run2	generate/STIM_006.jpg
1042.264	1.902	correct	generate	Run2	generate/STIM_007.jpg
1047.145	1.324	correct	generate	Run2	generate/STIM_007.jpg
1050.993	1.394	correct	generate	Run2	generate/STIM_007.jpg
1055.46	0.879	correct	generate	Run2	generate/STIM_007.jpg
1060.314	0.911	correct	generate	Run2	generate/STIM_007.jpg
1063.841	1.119	correct	generate	Run2	generate/STIM_008.jpg
1068.351	1.465	correct	generate	Run2	generate/STIM_008.jpg
1073.44	1.586	correct	generate	Run2	generate/STIM_008.jpg
1078.455	1.952	correct	generate	Run2	generate/STIM_008.jpg
1083.229	1.401	incorrect	generate	Run2	generate/STIM_008.jpg
1088.095	1.814	incorrect	generate	Run2	generate/STIM_009.jpg
1092.148	1.837	incorrect	generate	Run2	generate/STIM_009.jpg
1096.229	1.966	correct	generate	Run2	generate/STIM_009.jpg
1101.613	1.618	correct	generate	Run2	generate/STIM_009.jpg
1106.878	1.06	correct	generate	Run2	generate/STIM_009.jpg
1110.271	1.165	correct	generate	Run2	generate/STIM_010.jpg
1113.824	2.121	correct	generate	Run2	generate/STIM_010.jpg
1118.852	1.563	correct	generate	Run2	generate/STIM_010.jpg
1123.329	1.192	correct	generate	Run2	generate/STIM_010.jpg
1128.111	1.096	correct	generate	Run2	generate/STIM_010.jpg
1131.395	2.243	incorrect	generate	Run2	generate/STIM_011.jpg
1137.293	2.078	correct	generate	Run2	generate/STIM_011.jpg
1143.193	1.63	correct	generate	Run2	generate/STIM_011.jpg
1147.837	1.866	correct	generate	Run2	generate/STIM_011.jpg
1153.289	1.408	correct	generate	Run2	generate/STIM_011.jpg
1157.835	1.675	correct	generate	Run2	generate/STIM_012.jpg
1162.818	1.854	correct	generate	Run2	generate/STIM_012.jpg
1167.679	1.808	correct	generate	Run2	generate/STIM_012.jpg
1172.919	1.773	correct	generate	Run2	generate/STIM_012.jpg
1177.256	0.894	incorrect	generate	Run2	generate/STIM_012.jpg
1181.349	2.213	incorrect	generate	Run2	generate/STIM_013.jpg
1186.007	2.051	correct	generate	Run2	generate/STIM_013.jpg
1190.816	1.617	correct	generate	Run2	generate/STIM_013.jpg
1196.37	1.139	incorrect	generate	Run2	generate/STIM_013.jpg
1200.794	1.082	correct	generate	Run2	generate/STIM_013.jpg
1205.791	1.324	correct	generate	Run2	generate/STIM_014.jpg
1209.822	0.901	correct	generate	Run2	generate/STIM_014.jpg
1212.965	1.481	correct	generate	Run2	generate/STIM_014.jpg
1217.696	1.068	incorrect	generate	Run2	generate/STIM_014.jpg
1220.873	1.614	correct	generate	Run2	generate/STIM_014.jpg
1225.003	2.18	correct	generate	Run2	generate/STIM_015.jpg
1230.617	1.972	correct	generate	Run2	generate/STIM_015.jpg
1234.845	1.926	correct	generate	Run2	generate/STIM_015.jpg
1240.643	0.978	correct	generate	Run2	generate/STIM_015.jpg
1244.821	1.43	correct	generate	Run2	generate/STIM_015.jpg
1249.318	2.341	correct	generate	Run2	generate/STIM_016.jpg
1254.041	2.087	correct	generate	Run2	generate/STIM_016.jpg
1258.676	1.231	correct	generate	Run2	generate/STIM_016.jpg
1263.383	0.961	incorrect	generate	Run2	generate/STIM_016.jpg
1268.256	1.566	correct	generate	Run2	generate/STIM_016.jpg
1272.137	1.16	correct	generate	Run2	generate/STIM_017.jpg
1276.945	1.989	correct	generate	Run2	generate/STIM_017.jpg
1282.415	1.796	correct	generate	Run2	generate/STIM_017.jpg
1286.555	1.785	correct	generate	Run2	generate/STIM_017.jpg
1290.29	1.604	correct	generate	Run2	generate/STIM_017.jpg
1295.883	1.949	correct	generate	Run2	generate/STIM_018.jpg
1300.369	1.398	incorrect	generate	Run2	generate/STIM_018.jpg
1304.749	0.979	incorrect	generate	Run2	generate/STIM_018.jpg
1307.913	1.153	correct	generate	Run2	generate/STIM_018.jpg
1311.851	1.444	correct	generate	Run2	generate/STIM_018.jpg
1315.449	2.246	correct	generate	Run2	generate/STIM_019.jpg
1321.125	1.963	incorrect	generate	Run2	generate/STIM_019.jpg
1326.069	1.719	correct	generate	Run2	generate/STIM_019.jpg
1330.444	1.913	correct	generate	Run2	generate/STIM_019.jpg
1335.294	1.239	incorrect	generate	Run2	generate/STIM_019.jpg
1339.224	1.387	correct	generate	Run2	generate/STIM_020.jpg
1343.246	1.624	correct	generate	Run2	generate/STIM_020.jpg
1348.17	2.054	correct	generate	Run2	generate/STIM_020.jpg
1352.724	1.939	correct	generate	Run2	generate/STIM_020.jpg
1358.242	0.8	correct	generate	Run2	generate/STIM_020.jpg
1363.084	2.288	correct	generate	Run2	generate/STIM_021.jpg
1368.217	1.96	correct	generate	Run2	generate/STIM_021.jpg
1373.687	1.098	correct	generate	Run2	generate/STIM_021.jpg
1378.527	1.541	correct	generate	Run2	generate/STIM_021.jpg
1383.718	0.98	correct	generate	Run2	generate/STIM_021.jpg
1387.375	2.332	correct	generate	Run2	generate/STIM_022.jpg
1393.357	1.014	correct	generate	Run2	generate/STIM_022.jpg
1396.621	1.903	correct	generate	Run2	generate/STIM_022.jpg
1401.935	1.189	correct	generate	Run2	generate/STIM_022.jpg
1405.253	1.313	correct	generate	Run2	generate/STIM_022.jpg
1409.097	2.091	correct	generate	Run2	generate/STIM_023.jpg
1413.642	1.095	correct	generate	Run2	generate/STIM_023.jpg
1416.778	1.026	correct	generate	Run2	generate/STIM_023.jpg
1419.876	2.067	correct	generate	Run2	generate/STIM_023.jpg
1424.568	1.541	correct	generate	Run2	generate/STIM_023.jpg
1428.509	1.978	correct	generate	Run2	generate/STIM_024.jpg
1432.815	1.096	correct	generate	Run2	generate/STIM_024.jpg
1437.788	2.03	correct	generate	Run2	generate/STIM_024.jpg
1443.305	1.14	correct	generate	Run2	generate/STIM_024.jpg
1448.044	1.092	correct	generate	Run2	generate/STIM_024.jpg
1452.449	0.698	correct	repeat	Run2	repeat/STIM_000.jpg
1455.752	0.852	correct	repeat	Run2	repeat/STIM_000.jpg
1458.608	0.946	correct	repeat	Run2	repeat/STIM_000.jpg
1462.575	0.794	correct	repeat	Run2	repeat/STIM_000.jpg
1467.229	0.684	correct	repeat	Run2	repeat/STIM_000.jpg
1469.997	0.89	correct	repeat	Run2	repeat/STIM_001.jpg
1474.396	0.948	correct	repeat	Run2	repeat/STIM_001.jpg
1477.851	0.813	correct	repeat	Run2	repeat/STIM_001.jpg
1482.521	1.015	correct	repeat	Run2	repeat/STIM_001.jpg
1486.628	0.692	correct	repeat	Run2	repeat/STIM_001.jpg
1491.133	1.027	correct	repeat	Run2	repeat/STIM_002.jpg
1494.801	0.772	correct	repeat	Run2	repeat/STIM_002.jpg
1499.508	0.578	correct	repeat	Run2	repeat/STIM_002.jpg
1503.547	0.86	correct	repeat	Run2	repeat/STIM_002.jpg
1507.341	0.685	correct	repeat	Run2	repeat/STIM_002.jpg
1510.503	0.812	correct	repeat	Run2	repeat/STIM_003.jpg
1513.714	0.624	correct	repeat	Run2	repeat/STIM_003.jpg
1516.428	0.947	correct	repeat	Run2	repeat/STIM_003.jpg
1520.859	0.654	correct	repeat	Run2	repeat/STIM_003.jpg
1524.524	0.907	correct	repeat	Run2	repeat/STIM_003.jpg
1527.459	0.609	correct	repeat	Run2	repeat/STIM_004.jpg
1531.131	0.693	correct	repeat	Run2	repeat/STIM_004.jpg
1534.684	0.685	correct	repeat	Run2	repeat/STIM_004.jpg
1537.906	0.728	correct	repeat	Run2	repeat/STIM_004.jpg
1541.379	0.835	correct	repeat	Run2	repeat/STIM_004.jpg
1545.317	0.949	correct	repeat	Run2	repeat/STIM_005.jpg
1548.806	0.861	correct	repeat	Run2	repeat/STIM_005.jpg
1552.283	0.798	correct	repeat	Run2	repeat/STIM_005.jpg
1556.896	0.761	correct	repeat	Run2	repeat/STIM_005.jpg
1560.32	0.69	correct	repeat	Run2	repeat/STIM_005.jpg
1563.409	0.755	correct	repeat	Run2	repeat/STIM_006.jpg
1566.319	0.636	correct	repeat	Run2	repeat/STIM_006.jpg
1570.288	0.951	correct	repeat	Run2	repeat/STIM_006.jpg
1574.359	0.885	correct	repeat	Run2	repeat/STIM_006.jpg
1578.235	0.483	correct	repeat	Run2	repeat/STIM_006.jpg
1581.478	0.489	correct	repeat	Run2	repeat/STIM_007.jpg
1585.275	0.645	correct	repeat	Run2	repeat/STIM_007.jpg
1588.784	0.604	correct	repeat	Run2	repeat/STIM_007.jpg
1591.609	0.612	correct	repeat	Run2	repeat/STIM_007.jpg
1595.236	0.593	correct	repeat	Run2	repeat/STIM_007.jpg
1598.141	0.654	correct	repeat	Run2	repeat/STIM_008.jpg
1600.956	0.564	correct	repeat	Run2	repeat/STIM_008.jpg
1604.864	0.951	incorrect	repeat	Run2	repeat/STIM_008.jpg
1608.313	0.624	correct	repeat	Run2	repeat/STIM_008.jpg
1612.514	0.594	incorrect	repeat	Run2	repeat/STIM_008.jpg
1615.819	0.747	correct	repeat	Run2	repeat/STIM_009.jpg
1619.398	0.977	correct	repeat	Run2	repeat/STIM_009.jpg
1623.926	0.862	incorrect	repeat	Run2	repeat/STIM_009.jpg
1627.666	0.734	correct	repeat	Run2	repeat/STIM_009.jpg
1632.048	0.935	correct	repeat	Run2	repeat/STIM_009.jpg
1635.627	0.541	correct	repeat	Run2	repeat/STIM_010.jpg
1640.047	0.919	correct	repeat	Run2	repeat/STIM_010.jpg
1644.213	0.848	correct	repeat	Run2	repeat/STIM_010.jpg
1648.258	0.681	correct	repeat	Run2	repeat/STIM_010.jpg
1651.37	0.809	correct	repeat	Run2	repeat/STIM_010.jpg
1654.498	0.805	correct	repeat	Run2	repeat/STIM_011.jpg
1657.478	0.606	correct	repeat	Run2	repeat/STIM_011.jpg
1661.555	0.614	correct	repeat	Run2	repeat/STIM_011.jpg
1664.88	0.652	correct	repeat	Run2	repeat/STIM_011.jpg
1669.282	1.024	correct	repeat	Run2	repeat/STIM_011.jpg
1672.696	0.915	correct	repeat	Run2	repeat/STIM_012.jpg
1677.308	0.973	correct	repeat	Run2	repeat/STIM_012.jpg
1680.767	0.872	correct	repeat	Run2	repeat/STIM_012.jpg
1684.489	0.783	correct	repeat	Run2	repeat/STIM_012.jpg
1688.349	0.704	correct	repeat	Run2	repeat/STIM_012.jpg
1692.762	0.53	correct	repeat	Run2	repeat/STIM_013.jpg
1695.924	0.763	correct	repeat	Run2	repeat/STIM_013.jpg
1700.6	0.775	correct	repeat	Run2	repeat/STIM_013.jpg
1704.477	0.791	correct	repeat	Run2	repeat/STIM_013.jpg
1707.709	0.864	correct	repeat	Run2	repeat/STIM_013.jpg
1710.608	0.55	correct	repeat	Run2	repeat/STIM_014.jpg
1713.882	0.534	correct	repeat	Run2	repeat/STIM_014.jpg
1718.073	0.548	correct	repeat	Run2	repeat/STIM_014.jpg
1720.986	0.746	correct	repeat	Run2	repeat/STIM_014.jpg
1723.796	0.577	correct	repeat	Run2	repeat/STIM_014.jpg
1727.011	0.927	incorrect	generate	Run3	generate/STIM_000.jpg
1731.564	1.671	correct	generate	Run3	generate/STIM_000.jpg
1736.234	1.245	correct	generate	Run3	generate/STIM_000.jpg
1740.123	1.892	correct	generate	Run3	generate/STIM_000.jpg
1745.814	1.059	correct	generate	Run3	generate/STIM_000.jpg
1749.849	0.936	correct	generate	Run3	generate/STIM_001.jpg
1754.34	1.385	incorrect	generate	Run3	generate/STIM_001.jpg
1758.4	1.89	correct	generate	Run3	generate/STIM_001.jpg
1763.595	1.298	correct	generate	Run3	generate/STIM_001.jpg
1767.52	2.12	correct	generate	Run3	generate/STIM_001.jpg
1773.196	1.162	correct	generate	Run3	generate/STIM_002.jpg
1778.2	1.986	correct	generate	Run3	generate/STIM_002.jpg
1782.391	1.996	correct	generate	Run3	generate/STIM_002.jpg
1787.073	1.584	correct	generate	Run3	generate/STIM_002.jpg
1791.677	1.74	correct	generate	Run3	generate/STIM_002.jpg
1796.533	1.982	correct	generate	Run3	generate/STIM_003.jpg
1802.12	1.42	correct	generate	Run3	generate/STIM_003.jpg
1805.928	1.568	correct	generate	Run3	generate/STIM_003.jpg
1810.634	1.594	correct	generate	Run3	generate/STIM_003.jpg
1814.504	1.917	correct	generate	Run3	generate/STIM_003.jpg
1818.986	1.422	correct	generate	Run3	generate/STIM_004.jpg
1822.978	1.588	correct	generate	Run3	generate/STIM_004.jpg
1826.647	1.792	correct	generate	Run3	generate/STIM_004.jpg
1832.316	2.081	correct	generate	Run3	generate/STIM_004.jpg
1837.423	1.539	correct	generate	Run3	generate/STIM_004.jpg
1841.685	1.746	correct	generate	Run3	generate/STIM_005.jpg
1846.346	1.916	correct	generate	Run3	generate/STIM_005.jpg
1851.272	1.485	correct	generate	Run3	generate/STIM_005.jpg
1856.005	1.326	correct	generate	Run3	generate/STIM_005.jpg
1861.126	1.317	correct	generate	Run3	generate/STIM_005.jpg
1866.011	1.622	correct	generate	Run3	generate/STIM_006.jpg
1871.573	1.888	incorrect	generate	Run3	generate/STIM_006.jpg
1876.818	0.994	correct	generate	Run3	generate/STIM_006.jpg
1880.729	1.802	correct	generate	Run3	generate/STIM_006.jpg
1885.375	0.871	correct	generate	Run3	generate/STIM_006.jpg
1888.941	0.849	correct	generate	Run3	generate/STIM_007.jpg
1892.481	1.946	correct	generate	Run3	generate/STIM_007.jpg
1897.493	1.353	correct	generate	Run3	generate/STIM_007.jpg
1900.82	1.68	correct	generate	Run3	generate/STIM_007.jpg
1904.474	1.95	incorrect	generate	Run3	generate/STIM_007.jpg
1910.032	1.99	correct	generate	Run3	generate/STIM_008.jpg
1915.004	0.967	incorrect	generate	Run3	generate/STIM_008.jpg
1918.482	1.444	correct	generate	Run3	generate/STIM_008.jpg
1923.029	0.872	correct	generate	Run3	generate/STIM_008.jpg
1927.06	1.21	correct	generate	Run3	generate/STIM_008.jpg
1930.66	1.866	correct	generate	Run3	generate/STIM_009.jpg
1936.229	1.364	correct	generate	Run3	generate/STIM_009.jpg
1939.785	0.994	correct	generate	Run3	generate/STIM_009.jpg
1944.086	1.786	correct	generate	Run3	generate/STIM_009.jpg
1949.473	1.744	correct	generate	Run3	generate/STIM_009.jpg
1953.433	1.042	correct	generate	Run3	generate/STIM_010.jpg
1957.383	1.95	correct	generate	Run3	generate/STIM_010.jpg
1961.599	1.733	correct	generate	Run3	generate/STIM_010.jpg
1966.455	1.171	correct	generate	Run3	generate/STIM_010.jpg
1971.515	1.516	correct	generate	Run3	generate/STIM_010.jpg
1976.607	1.532	correct	generate	Run3	generate/STIM_011.jpg
1982.099	1.735	correct	generate	Run3	generate/STIM_011.jpg
1986.909	1.471	correct	generate	Run3	generate/STIM_011.jpg
1992.178	1.273	correct	generate	Run3	generate/STIM_011.jpg
1995.872	1.077	correct	generate	Run3	generate/STIM_011.jpg
2000.52	1.404	correct	generate	Run3	generate/STIM_012.jpg
2003.894	0.97	correct	generate	Run3	generate/STIM_012.jpg
2008.64	1.072	correct	generate	Run3	generate/STIM_012.jpg
2013.056	1.084	correct	generate	Run3	generate/STIM_012.jpg
2017.945	1.421	correct	generate	Run3	generate/STIM_012.jpg
2022.17	2.072	correct	generate	Run3	generate/STIM_013.jpg
2027.557	1.291	correct	generate	Run3	generate/STIM_013.jpg
2032.404	0.989	correct	generate	Run3	generate/STIM_013.jpg
2036.388	1.119	correct	generate	Run3	generate/STIM_013.jpg
2041.533	1.204	correct	generate	Run3	generate/STIM_013.jpg
2045.521	1.394	correct	generate	Run3	generate/STIM_014.jpg
2050.112	2.019	correct	generate	Run3	generate/STIM_014.jpg
2054.222	1.515	correct	generate	Run3	generate/STIM_014.jpg
2059.167	1.914	correct	generate	Run3	generate/STIM_014.jpg
2063.421	0.826	correct	generate	Run3	generate/STIM_014.jpg
2067.599	1.106	incorrect	generate	Run3	generate/STIM_015.jpg
2071.26	2.054	correct	generate	Run3	generate/STIM_015.jpg
2075.438	1.802	correct	generate	Run3	generate/STIM_015.jpg
2080.041	0.933	correct	generate	Run3	generate/STIM_015.jpg
2083.489	1.537	correct	generate	Run3	generate/STIM_015.jpg
2087.75	1.413	correct	generate	Run3	generate/STIM_016.jpg
2092.773	1.196	correct	generate	Run3	generate/STIM_016.jpg
2096.564	1.631	correct	generate	Run3	generate/STIM_016.jpg
2100.286	1.984	correct	generate	Run3	generate/STIM_016.jpg
2105.88	1.898	correct	generate	Run3	generate/STIM_016.jpg
2111.43	1.008	correct	generate	Run3	generate/STIM_017.jpg
2116.293	1.33	correct	generate	Run3	generate/STIM_017.jpg
2120.465	1.08	correct	generate	Run3	generate/STIM_017.jpg
2124.111	1.651	correct	generate	Run3	generate/STIM_017.jpg
2128.005	1.002	correct	generate	Run3	generate/STIM_017.jpg
2132.938	0.91	correct	generate	Run3	generate/STIM_018.jpg
2137.362	1.682	correct	generate	Run3	generate/STIM_018.jpg
2141.31	1.531	correct	generate	Run3	generate/STIM_018.jpg
2146.529	1.29	correct	generate	Run3	generate/STIM_018.jpg
2151.289	1.922	correct	generate	Run3	generate/STIM_018.jpg
2155.55	1.06	correct	generate	Run3	generate/STIM_019.jpg
2159.798	2.08	correct	generate	Run3	generate/STIM_019.jpg
2164.601	2.025	correct	generate	Run3	generate/STIM_019.jpg
2169.797	1.261	correct	generate	Run3	generate/STIM_019.jpg
2173.359	1.7	correct	generate	Run3	generate/STIM_019.jpg
2179.087	1.171	correct	generate	Run3	generate/STIM_020.jpg
2182.799	1.543	correct	generate	Run3	generate/STIM_020.jpg
2186.663	1.102	correct	generate	Run3	generate/STIM_020.jpg
2191.185	1.477	correct	generate	Run3	generate/STIM_020.jpg
2195.434	1.6	correct	generate	Run3	generate/STIM_020.jpg
2200.682	0.946	correct	generate	Run3	generate/STIM_021.jpg
2203.894	1.568	correct	generate	Run3	generate/STIM_021.jpg
2208.762	1.965	correct	generate	Run3	generate/STIM_021.jpg
2214.04	1.73	correct	generate	Run3	generate/STIM_021.jpg
2219.165	1.273	correct	generate	Run3	generate/STIM_021.jpg
2222.987	1.664	correct	generate	Run3	generate/STIM_022.jpg
2226.83	1.906	correct	generate	Run3	generate/STIM_022.jpg
2232.369	1.561	correct	generate	Run3	generate/STIM_022.jpg
2237.354	1.948	correct	generate	Run3	generate/STIM_022.jpg
2242.771	1.248	correct	generate	Run3	generate/STIM_022.jpg
2246.192	1.788	correct	generate	Run3	generate/STIM_023.jpg
2250.766	1.854	correct	generate	Run3	generate/STIM_023.jpg
2255.747	1.93	correct	generate	Run3	generate/STIM_023.jpg
2260.485	1.811	correct	generate	Run3	generate/STIM_023.jpg
2266.109	1.698	correct	generate	Run3	generate/STIM_023.jpg
2270.594	1.111	correct	generate	Run3	generate/STIM_024.jpg
2274.175	1.305	correct	generate	Run3	generate/STIM_024.jpg
2278.908	1.303	correct	generate	Run3	generate/STIM_024.jpg
2283.591	0.929	correct	generate	Run3	generate/STIM_024.jpg
2287.232	1.607	correct	generate	Run3	generate/STIM_024.jpg
2291.275	0.663	correct	repeat	Run3	repeat/STIM_000.jpg
2294.949	0.656	correct	repeat	Run3	repeat/STIM_000.jpg
2299.444	1.04	correct	repeat	Run3	repeat/STIM_000.jpg
2303.086	0.669	correct	repeat	Run3	repeat/STIM_000.jpg
2306.255	0.821	correct	repeat	Run3	repeat/STIM_000.jpg
2310.058	0.938	correct	repeat	Run3	repeat/STIM_001.jpg
2314.781	0.832	correct	repeat	Run3	repeat/STIM_001.jpg
2319.502	0.898	correct	repeat	Run3	repeat/STIM_001.jpg
2322.64	0.675	incorrect	repeat	Run3	repeat/STIM_001.jpg
2326.5	0.796	correct	repeat	Run3	repeat/STIM_001.jpg
2329.743	0.96	correct	repeat	Run3	repeat/STIM_002.jpg
2334.64	0.798	correct	repeat	Run3	repeat/STIM_002.jpg
2337.482	0.506	correct	repeat	Run3	repeat/STIM_002.jpg
2341.184	0.849	incorrect	repeat	Run3	repeat/STIM_002.jpg
2344.347	0.569	correct	repeat	Run3	repeat/STIM_002.jpg
2347.521	0.873	correct	repeat	Run3	repeat/STIM_003.jpg
2351.165	0.851	correct	repeat	Run3	repeat/STIM_003.jpg
2355.307	0.994	correct	repeat	Run3	repeat/STIM_003.jpg
2359.752	0.772	correct	repeat	Run3	repeat/STIM_003.jpg
2363.909	0.7	correct	repeat	Run3	repeat/STIM_003.jpg
2366.746	0.678	correct	repeat	Run3	repeat/STIM_004.jpg
2370.07	0.788	correct	repeat	Run3	repeat/STIM_004.jpg
2374.54	0.623	correct	repeat	Run3	repeat/STIM_004.jpg
2377.823	0.747	correct	repeat	Run3	repeat/STIM_004.jpg
2380.698	0.898	correct	repeat	Run3	repeat/STIM_004.jpg
2384.8	0.816	correct	repeat	Run3	repeat/STIM_005.jpg
2388.276	0.952	correct	repeat	Run3	repeat/STIM_005.jpg
2392.659	0.887	correct	repeat	Run3	repeat/STIM_005.jpg
2397.5	0.869	correct	repeat	Run3	repeat/STIM_005.jpg
2401.285	0.792	correct	repeat	Run3	repeat/STIM_005.jpg
2405.385	0.578	correct	repeat	Run3	repeat/STIM_006.jpg
2407.998	0.536	correct	repeat	Run3	repeat/STIM_006.jpg
2411.634	0.826	correct	repeat	Run3	repeat/STIM_006.jpg
2416.335	0.573	correct	repeat	Run3	repeat/STIM_006.jpg
2419.032	0.565	correct	repeat	Run3	repeat/STIM_006.jpg
2422.537	0.58	correct	repeat	Run3	repeat/STIM_007.jpg
2426.675	0.949	correct	repeat	Run3	repeat/STIM_007.jpg
2429.669	0.863	correct	repeat	Run3	repeat/STIM_007.jpg
2433.018	0.9	correct	repeat	Run3	repeat/STIM_007.jpg
2437.486	0.532	correct	repeat	Run3	repeat/STIM_007.jpg
2440.693	0.603	correct	repeat	Run3	repeat/STIM_008.jpg
2445.035	0.562	correct	repeat	Run3	repeat/STIM_008.jpg
2448.829	0.562	correct	repeat	Run3	repeat/STIM_008.jpg
2453.46	0.707	correct	repeat	Run3	repeat/STIM_008.jpg
2456.536	0.948	incorrect	repeat	Run3	repeat/STIM_008.jpg
2461.203	0.837	correct	repeat	Run3	repeat/STIM_009.jpg
2464.853	0.953	incorrect	repeat	Run3	repeat/STIM_009.jpg
2469.391	0.955	correct	repeat	Run3	repeat/STIM_009.jpg
2472.719	0.666	correct	repeat	Run3	repeat/STIM_009.jpg
2476.438	0.724	correct	repeat	Run3	repeat/STIM_009.jpg
2480.01	0.936	correct	repeat	Run3	repeat/STIM_010.jpg
2484.217	0.84	correct	repeat	Run3	repeat/STIM_010.jpg
2487.22	0.489	correct	repeat	Run3	repeat/STIM_010.jpg
2489.839	0.875	correct	repeat	Run3	repeat/STIM_010.jpg
2494.245	0.708	correct	repeat	Run3	repeat/STIM_010.jpg
2498.633	0.748	incorrect	repeat	Run3	repeat/STIM_011.jpg
2502.903	0.846	correct	repeat	Run3	repeat/STIM_011.jpg
2506.593	0.7	correct	repeat	Run3	repeat/STIM_011.jpg
2509.531	1.062	correct	repeat	Run3	repeat/STIM_011.jpg
2512.936	0.607	correct	repeat	Run3	repeat/STIM_011.jpg
2515.631	0.795	correct	repeat	Run3	repeat/STIM_012.jpg
2518.414	0.622	correct	repeat	Run3	repeat/STIM_012.jpg
2522.939	0.927	correct	repeat	Run3	repeat/STIM_012.jpg
2527.519	0.932	correct	repeat	Run3	repeat/STIM_012.jpg
2532.107	0.758	correct	repeat	Run3	repeat/STIM_012.jpg
2536.576	0.551	correct	repeat	Run3	repeat/STIM_013.jpg
2540.536	0.956	correct	repeat	Run3	repeat/STIM_013.jpg
2544.207	0.565	correct	repeat	Run3	repeat/STIM_013.jpg
2548.518	0.624	correct	repeat	Run3	repeat/STIM_013.jpg
2553.004	0.913	correct	repeat	Run3	repeat/STIM_013.jpg
2556.083	0.757	correct	repeat	Run3	repeat/STIM_014.jpg
2560.012	0.578	correct	repeat	Run3	repeat/STIM_014.jpg
2563.971	0.746	correct	repeat	Run3	repeat/STIM_014.jpg
2567.038	0.716	correct	repeat	Run3	repeat/STIM_014.jpg
2570.113	0.559	correct	repeat	Run3	repeat/STIM_014.jpg
2573.12	1.239	correct	generate	Run4	generate/STIM_000.jpg
2578.099	1.626	correct	generate	Run4	generate/STIM_000.jpg
2583.053	1.59	correct	generate	Run4	generate/STIM_000.jpg
2586.636	0.895	correct	generate	Run4	generate/STIM_000.jpg
2590.709	0.891	correct	generate	Run4	generate/STIM_000.jpg
2594.315	1.0	correct	generate	Run4	generate/STIM_001.jpg
2597.869	1.453	correct	generate	Run4	generate/STIM_001.jpg
2602.925	1.56	correct	generate	Run4	generate/STIM_001.jpg
2608.244	1.605	correct	generate	Run4	generate/STIM_001.jpg
2612.557	1.308	correct	generate	Run4	generate/STIM_001.jpg
2617.07	1.153	correct	generate	Run4	generate/STIM_002.jpg
2621.631	1.728	correct	generate	Run4	generate/STIM_002.jpg
2626.231	1.249	correct	generate	Run4	generate/STIM_002.jpg
2629.887	1.815	correct	generate	Run4	generate/STIM_002.jpg
2634.056	1.885	correct	generate	Run4	generate/STIM_002.jpg
2639.133	1.313	correct	generate	Run4	generate/STIM_003.jpg
2642.468	1.618	correct	generate	Run4	generate/STIM_003.jpg
2647.589	1.117	correct	generate	Run4	generate/STIM_003.jpg
2651.874	1.68	correct	generate	Run4	generate/STIM_003.jpg
2655.602	1.651	correct	generate	Run4	generate/STIM_003.jpg
2660.546	1.284	correct	generate	Run4	generate/STIM_004.jpg
2664.603	1.067	correct	generate	Run4	generate/STIM_004.jpg
2669.135	1.68	correct	generate	Run4	generate/STIM_004.jpg
2674.452	1.118	correct	generate	Run4	generate/STIM_004.jpg
2677.996	1.665	correct	generate	Run4	generate/STIM_004.jpg
2683.43	1.516	incorrect	generate	Run4	generate/STIM_005.jpg
2688.907	0.959	correct	generate	Run4	generate/STIM_005.jpg
2693.257	1.805	correct	generate	Run4	generate/STIM_005.jpg
2697.956	1.063	correct	generate	Run4	generate/STIM_005.jpg
2702.657	1.424	correct	generate	Run4	generate/STIM_005.jpg
2707.907	1.89	correct	generate	Run4	generate/STIM_006.jpg
2712.923	0.978	correct	generate	Run4	generate/STIM_006.jpg
2716.806	1.321	correct	generate	Run4	generate/STIM_006.jpg
2720.268	1.408	correct	generate	Run4	generate/STIM_006.jpg
2725.288	1.632	correct	generate	Run4	generate/STIM_006.jpg
2729.09	1.721	correct	generate	Run4	generate/STIM_007.jpg
2734.565	1.822	correct	generate	Run4	generate/STIM_007.jpg
2739.004	1.19	correct	generate	Run4	generate/STIM_007.jpg
2743.439	1.15	correct	generate	Run4	generate/STIM_007.jpg
2747.97	1.993	correct	generate	Run4	generate/STIM_007.jpg
2752.044	1.198	correct	generate	Run4	generate/STIM_008.jpg
2756.742	1.294	correct	generate	Run4	generate/STIM_008.jpg
2761.008	1.421	correct	generate	Run4	generate/STIM_008.jpg
2765.68	1.95	correct	generate	Run4	generate/STIM_008.jpg
2770.423	1.004	correct	generate	Run4	generate/STIM_008.jpg
2774.175	1.815	correct	generate	Run4	generate/STIM_009.jpg
2779.064	1.103	correct	generate	Run4	generate/STIM_009.jpg
2783.541	1.547	correct	generate	Run4	generate/STIM_009.jpg
2787.624	1.299	correct	generate	Run4	generate/STIM_009.jpg
2792.312	2.017	correct	generate	Run4	generate/STIM_009.jpg
2797.465	1.799	correct	generate	Run4	generate/STIM_010.jpg
2802.766	2.079	correct	generate	Run4	generate/STIM_010.jpg
2808.447	1.071	correct	generate	Run4	generate/STIM_010.jpg
2813.303	1.94	correct	generate	Run4	generate/STIM_010.jpg
2818.138	2.106	correct	generate	Run4	generate/STIM_010.jpg
2823.357	1.94	correct	generate	Run4	generate/STIM_011.jpg
2828.696	1.547	correct	generate	Run4	generate/STIM_011.jpg
2832.559	1.962	correct	generate	Run4	generate/STIM_011.jpg
2838.3	1.14	correct	generate	Run4	generate/STIM_011.jpg
2841.497	1.728	correct	generate	Run4	generate/STIM_011.jpg
2846.421	1.134	incorrect	generate	Run4	generate/STIM_012.jpg
2849.734	1.033	correct	generate	Run4	generate/STIM_012.jpg
2852.914	0.968	correct	generate	Run4	generate/STIM_012.jpg
2857.081	1.148	correct	generate	Run4	generate/STIM_012.jpg
2861.042	1.294	correct	generate	Run4	generate/STIM_012.jpg
2864.629	1.582	correct	generate	Run4	generate/STIM_013.jpg
2868.443	1.766	correct	generate	Run4	generate/STIM_013.jpg
2873.986	1.239	correct	generate	Run4	generate/STIM_013.jpg
2878.637	2.04	correct	generate	Run4	generate/STIM_013.jpg
2882.745	1.466	correct	generate	Run4	generate/STIM_013.jpg
2887.274	1.566	correct	generate	Run4	generate/STIM_014.jpg
2892.714	1.503	correct	generate	Run4	generate/STIM_014.jpg
2897.585	1.4	correct	generate	Run4	generate/STIM_014.jpg
2901.905	0.902	correct	generate	Run4	generate/STIM_014.jpg
2906.021	1.642	incorrect	generate	Run4	generate/STIM_014.jpg
2909.891	2.023	incorrect	generate	Run4	generate/STIM_015.jpg
2914.761	1.917	correct	generate	Run4	generate/STIM_015.jpg
2920.488	1.925	correct	generate	Run4	generate/STIM_015.jpg
2925.942	1.039	correct	generate	Run4	generate/STIM_015.jpg
2929.847	1.532	correct	generate	Run4	generate/STIM_015.jpg
2933.944	1.924	correct	generate	Run4	generate/STIM_016.jpg
2939.3	1.974	correct	generate	Run4	generate/STIM_016.jpg
2944.237	0.937	correct	generate	Run4	generate/STIM_016.jpg
2947.621	1.412	correct	generate	Run4	generate/STIM_016.jpg
2951.722	1.421	correct	generate	Run4	generate/STIM_016.jpg
2955.563	1.099	correct	generate	Run4	generate/STIM_017.jpg
2960.053	1.501	correct	generate	Run4	generate/STIM_017.jpg
2964.946	0.914	correct	generate	Run4	generate/STIM_017.jpg
2969.318	1.41	correct	generate	Run4	generate/STIM_017.jpg
2973.947	1.579	correct	generate	Run4	generate/STIM_017.jpg
2978.117	1.015	correct	generate	Run4	generate/STIM_018.jpg
2982.183	1.387	correct	generate	Run4	generate/STIM_018.jpg
2986.513	1.697	correct	generate	Run4	generate/STIM_018.jpg
2990.357	1.549	correct	generate	Run4	generate/STIM_018.jpg
2995.632	0.975	correct	generate	Run4	generate/STIM_018.jpg
2999.287	1.573	correct	generate	Run4	generate/STIM_019.jpg
3004.621	1.436	correct	generate	Run4	generate/STIM_019.jpg
3008.864	1.003	correct	generate	Run4	generate/STIM_019.jpg
3012.87	1.74	correct	generate	Run4	generate/STIM_019.jpg
3017.467	1.149	correct	generate	Run4	generate/STIM_019.jpg
3021.202	0.874	correct	generate	Run4	generate/STIM_020.jpg
3024.558	0.951	correct	generate	Run4	generate/STIM_020.jpg
3028.556	1.43	correct	generate	Run4	generate/STIM_020.jpg
3032.236	1.112	correct	generate	Run4	generate/STIM_020.jpg
3035.568	1.976	correct	generate	Run4	generate/STIM_020.jpg
3041.21	1.222	correct	generate	Run4	generate/STIM_021.jpg
3045.732	1.63	correct	generate	Run4	generate/STIM_021.jpg
3050.996	1.514	correct	generate	Run4	generate/STIM_021.jpg
3054.51	2.001	correct	generate	Run4	generate/STIM_021.jpg
3060.326	1.31	correct	generate	Run4	generate/STIM_021.jpg
3064.371	1.38	correct	generate	Run4	generate/STIM_022.jpg
3069.533	1.878	correct	generate	Run4	generate/STIM_022.jpg
3074.737	1.383	correct	generate	Run4	generate/STIM_022.jpg
3079.272	0.904	correct	generate	Run4	generate/STIM_022.jpg
3082.993	1.556	correct	generate	Run4	generate/STIM_022.jpg
3088.361	1.164	correct	generate	Run4	generate/STIM_023.jpg
3092.372	1.104	correct	generate	Run4	generate/STIM_023.jpg
3096.161	0.993	correct	generate	Run4	generate/STIM_023.jpg
3100.517	1.101	correct	generate	Run4	generate/STIM_023.jpg
3104.947	1.386	correct	generate	Run4	generate/STIM_023.jpg
3108.482	1.493	correct	generate	Run4	generate/STIM_024.jpg
3112.057	0.819	correct	generate	Run4	generate/STIM_024.jpg
3115.24	1.64	correct	generate	Run4	generate/STIM_024.jpg
3120.76	1.183	correct	generate	Run4	generate/STIM_024.jpg
3125.33	1.186	correct	generate	Run4	generate/STIM_024.jpg
3130.078	0.517	correct	repeat	Run4	repeat/STIM_000.jpg
3132.769	0.701	correct	repeat	Run4	repeat/STIM_000.jpg
3135.982	0.678	correct	repeat	Run4	repeat/STIM_000.jpg
3140.471	0.483	correct	repeat	Run4	repeat/STIM_000.jpg
3143.108	0.882	correct	repeat	Run4	repeat/STIM_000.jpg
3146.764	0.88	correct	repeat	Run4	repeat/STIM_001.jpg
3150.896	0.48	correct	repeat	Run4	repeat/STIM_001.jpg
3154.77	0.743	correct	repeat	Run4	repeat/STIM_001.jpg
3159.193	0.822	correct	repeat	Run4	repeat/STIM_001.jpg
3162.184	0.72	correct	repeat	Run4	repeat/STIM_001.jpg
3165.955	0.82	correct	repeat	Run4	repeat/STIM_002.jpg
3169.361	0.682	correct	repeat	Run4	repeat/STIM_002.jpg
3172.16	0.971	correct	repeat	Run4	repeat/STIM_002.jpg
3175.679	0.68	correct	repeat	Run4	repeat/STIM_002.jpg
3179.824	0.658	correct	repeat	Run4	repeat/STIM_002.jpg
3183.731	0.884	correct	repeat	Run4	repeat/STIM_003.jpg
3186.994	0.57	correct	repeat	Run4	repeat/STIM_003.jpg
3190.554	0.64	correct	repeat	Run4	repeat/STIM_003.jpg
3193.49	0.962	correct	repeat	Run4	repeat/STIM_003.jpg
3197.64	0.713	correct	repeat	Run4	repeat/STIM_003.jpg
3200.678	0.726	correct	repeat	Run4	repeat/STIM_004.jpg
3204.912	0.663	correct	repeat	Run4	repeat/STIM_004.jpg
3209.155	0.633	correct	repeat	Run4	repeat/STIM_004.jpg
3212.557	0.736	correct	repeat	Run4	repeat/STIM_004.jpg
3216.183	0.867	incorrect	repeat	Run4	repeat/STIM_004.jpg
3219.979	0.849	correct	repeat	Run4	repeat/STIM_005.jpg
3223.045	0.588	correct	repeat	Run4	repeat/STIM_005.jpg
3226.236	0.567	correct	repeat	Run4	repeat/STIM_005.jpg
3230.039	0.868	correct	repeat	Run4	repeat/STIM_005.jpg
3234.303	0.548	correct	repeat	Run4	repeat/STIM_005.jpg
3238.447	0.854	correct	repeat	Run4	repeat/STIM_006.jpg
3241.405	0.75	correct	repeat	Run4	repeat/STIM_006.jpg
3245.655	0.632	correct	repeat	Run4	repeat/STIM_006.jpg
3248.781	0.824	incorrect	repeat	Run4	repeat/STIM_006.jpg
3252.466	0.994	correct	repeat	Run4	repeat/STIM_006.jpg
3256.59	1.024	correct	repeat	Run4	repeat/STIM_007.jpg
3259.832	0.558	correct	repeat	Run4	repeat/STIM_007.jpg
3263.551	0.791	correct	repeat	Run4	repeat/STIM_007.jpg
3266.426	0.654	correct	repeat	Run4	repeat/STIM_007.jpg
3270.329	1.015	correct	repeat	Run4	repeat/STIM_007.jpg
3273.398	0.829	correct	repeat	Run4	repeat/STIM_008.jpg
3276.847	0.519	correct	repeat	Run4	repeat/STIM_008.jpg
3281.153	0.629	correct	repeat	Run4	repeat/STIM_008.jpg
3284.081	0.517	correct	repeat	Run4	repeat/STIM_008.jpg
3287.419	0.682	correct	repeat	Run4	repeat/STIM_008.jpg
3290.287	0.599	correct	repeat	Run4	repeat/STIM_009.jpg
3293.737	0.877	correct	repeat	Run4	repeat/STIM_009.jpg
3298.424	0.56	correct	repeat	Run4	repeat/STIM_009.jpg
3301.946	0.686	correct	repeat	Run4	repeat/STIM_009.jpg
3306.03	0.893	correct	repeat	Run4	repeat/STIM_009.jpg
3309.898	0.82	correct	repeat	Run4	repeat/STIM_010.jpg
3313.34	0.826	correct	repeat	Run4	repeat/STIM_010.jpg
3317.543	0.692	correct	repeat	Run4	repeat/STIM_010.jpg
3320.486	0.932	correct	repeat	Run4	repeat/STIM_010.jpg
3325.03	0.802	correct	repeat	Run4	repeat/STIM_010.jpg
3328.517	0.885	correct	repeat	Run4	repeat/STIM_011.jpg
3332.688	0.732	correct	repeat	Run4	repeat/STIM_011.jpg
3336.169	0.562	correct	repeat	Run4	repeat/STIM_011.jpg
3339.362	0.626	correct	repeat	Run4	repeat/STIM_011.jpg
3342.92	0.877	correct	repeat	Run4	repeat/STIM_011.jpg
3347.174	0.5	correct	repeat	Run4	repeat/STIM_012.jpg
3351.662	0.706	correct	repeat	Run4	repeat/STIM_012.jpg
3355.865	0.852	incorrect	repeat	Run4	repeat/STIM_012.jpg
3358.955	0.625	correct	repeat	Run4	repeat/STIM_012.jpg
3363.269	0.746	correct	repeat	Run4	repeat/STIM_012.jpg
3366.74	0.699	correct	repeat	Run4	repeat/STIM_013.jpg
3370.801	0.663	correct	repeat	Run4	repeat/STIM_013.jpg
3375.295	0.64	correct	repeat	Run4	repeat/STIM_013.jpg
3378.862	0.77	correct	repeat	Run4	repeat/STIM_013.jpg
3383.491	0.667	correct	repeat	Run4	repeat/STIM_013.jpg
3386.904	0.986	correct	repeat	Run4	repeat/STIM_014.jpg
3390.459	0.718	correct	repeat	Run4	repeat/STIM_014.jpg
3394.745	0.858	correct	repeat	Run4	repeat/STIM_014.jpg
3398.443	0.802	correct	repeat	Run4	repeat/STIM_014.jpg
3403.042	0.676	correct	repeat	Run4	repeat/STIM_014.jpg
