onset	duration	response_time_ms	trial_type	learning_stage	stimulus	response_port
0.0	2.868	2867.6	generate	Run1	generate/STIM_000.jpg	100
5.303	2.168	2168.4	generate	Run1	generate/STIM_000.jpg	100
9.801	2.107	2106.7	generate	Run1	generate/STIM_000.jpg	100
15.745	1.921	1921.2	generate	Run1	generate/STIM_000.jpg	99
21.223	1.364	1364.3	generate	Run1	generate/STIM_000.jpg	100
25.433	3.277	3276.7	generate	Run1	generate/STIM_001.jpg	99
31.81	1.714	1713.5	generate	Run1	generate/STIM_001.jpg	99
36.135	2.407	2406.7	generate	Run1	generate/STIM_001.jpg	100
42.044	2.178	2178.0	generate	Run1	generate/STIM_001.jpg	99
46.793	2.278	2277.7	generate	Run1	generate/STIM_001.jpg	99
52.586	2.22	2220.4	generate	Run1	generate/STIM_002.jpg	100
57.405	2.958	2957.9	generate	Run1	generate/STIM_002.jpg	99
62.585	2.726	2725.9	generate	Run1	generate/STIM_002.jpg	100
68.268	1.742	1741.6	generate	Run1	generate/STIM_002.jpg	99
73.402	1.898	1898.1	generate	Run1	generate/STIM_002.jpg	99
78.929	2.684	2684.4	generate	Run1	generate/STIM_003.jpg	99
83.955	3.0	3000.3	generate	Run1	generate/STIM_003.jpg	99
90.237	2.72	2719.6	generate	Run1	generate/STIM_003.jpg	99
96.363	1.213	1212.8	generate	Run1	generate/STIM_003.jpg	100
100.12	2.633	2632.9	generate	Run1	generate/STIM_003.jpg	99
105.264	1.843	1843.3	generate	Run1	generate/STIM_004.jpg	99
109.271	1.701	1700.6	generate	Run1	generate/STIM_004.jpg	99
114.562	2.558	2557.5	generate	Run1	generate/STIM_004.jpg	100
119.528	2.489	2489.1	generate	Run1	generate/STIM_004.jpg	99
124.988	2.478	2477.8	generate	Run1	generate/STIM_004.jpg	99
131.167	2.061	2061.0	generate	Run1	generate/STIM_005.jpg	99
135.502	2.043	2043.2	generate	Run1	generate/STIM_005.jpg	100
140.86	1.48	1480.5	generate	Run1	generate/STIM_005.jpg	100
145.794	1.719	1719.0	generate	Run1	generate/STIM_005.jpg	99
150.31	2.346	2345.6	generate	Run1	generate/STIM_005.jpg	99
155.206	2.384	2384.3	generate	Run1	generate/STIM_006.jpg	99
159.949	2.292	2292.5	generate	Run1	generate/STIM_006.jpg	100
165.886	2.563	2562.6	generate	Run1	generate/STIM_006.jpg	99
171.863	2.311	2311.4	generate	Run1	generate/STIM_006.jpg	100
176.337	1.266	1266.3	generate	Run1	generate/STIM_006.jpg	100
180.693	2.987	2987.1	generate	Run1	generate/STIM_007.jpg	99
186.51	2.85	2849.6	generate	Run1	generate/STIM_007.jpg	99
192.199	1.602	1602.4	generate	Run1	generate/STIM_007.jpg	100
196.878	2.641	2641.4	generate	Run1	generate/STIM_007.jpg	99
201.555	2.483	2482.7	generate	Run1	generate/STIM_007.jpg	99
207.956	2.202	2202.2	generate	Run1	generate/STIM_008.jpg	99
213.2	1.7	1699.5	generate	Run1	generate/STIM_008.jpg	99
217.41	2.604	2604.3	generate	Run1	generate/STIM_008.jpg	100
223.594	1.522	1522.2	generate	Run1	generate/STIM_008.jpg	99
228.358	1.834	1834.2	generate	Run1	generate/STIM_008.jpg	99
232.95	3.119	3119.3	generate	Run1	generate/STIM_009.jpg	99
239.852	1.38	1380.4	generate	Run1	generate/STIM_009.jpg	100
244.651	1.303	1302.6	generate	Run1	generate/STIM_009.jpg	99
248.035	2.684	2684.5	generate	Run1	generate/STIM_009.jpg	100
253.87	1.742	1742.5	generate	Run1	generate/STIM_009.jpg	99
259.554	1.77	1770.2	generate	Run1	generate/STIM_010.jpg	100
264.573	3.029	3028.8	generate	Run1	generate/STIM_010.jpg	99
271.249	1.288	1288.5	generate	Run1	generate/STIM_010.jpg	99
274.72	1.188	1188.3	generate	Run1	generate/STIM_010.jpg	100
279.776	1.602	1602.4	generate	Run1	generate/STIM_010.jpg	100
284.032	1.966	1966.1	generate	Run1	generate/STIM_011.jpg	100
288.414	1.782	1782.5	generate	Run1	generate/STIM_011.jpg	99
293.061	2.196	2196.1	generate	Run1	generate/STIM_011.jpg	99
297.344	2.398	2398.1	generate	Run1	generate/STIM_011.jpg	100
301.844	1.933	1933.4	generate	Run1	generate/STIM_011.jpg	100
306.144	1.435	1434.9	generate	Run1	generate/STIM_012.jpg	99
309.78	1.596	1596.5	generate	Run1	generate/STIM_012.jpg	99
313.405	1.419	1419.2	generate	Run1	generate/STIM_012.jpg	99
317.907	2.727	2726.9	generate	Run1	generate/STIM_012.jpg	99
324.394	2.356	2356.5	generate	Run1	generate/STIM_012.jpg	100
330.611	1.951	1950.6	generate	Run1	generate/STIM_013.jpg	100
334.73	2.406	2406.1	generate	Run1	generate/STIM_013.jpg	99
340.721	1.867	1866.7	generate	Run1	generate/STIM_013.jpg	100
346.26	2.428	2428.1	generate	Run1	generate/STIM_013.jpg	100
352.213	1.298	1297.6	generate	Run1	generate/STIM_013.jpg	100
357.39	3.185	3185.1	generate	Run1	generate/STIM_014.jpg	100
363.71	2.78	2779.6	generate	Run1	generate/STIM_014.jpg	100
369.776	2.854	2853.6	generate	Run1	generate/STIM_014.jpg	100
375.555	2.006	2005.9	generate	Run1	generate/STIM_014.jpg	100
380.569	2.476	2476.0	generate	Run1	generate/STIM_014.jpg	100
386.82	1.548	1548.0	generate	Run1	generate/STIM_015.jpg	100
391.902	3.194	3193.9	generate	Run1	generate/STIM_015.jpg	100
398.46	2.684	2683.7	generate	Run1	generate/STIM_015.jpg	99
403.465	2.744	2744.2	generate	Run1	generate/STIM_015.jpg	100
408.385	1.877	1877.3	generate	Run1	generate/STIM_015.jpg	99
414.122	1.716	1716.4	generate	Run1	generate/STIM_016.jpg	100
418.876	2.331	2331.1	generate	Run1	generate/STIM_016.jpg	100
424.839	1.39	1390.4	generate	Run1	generate/STIM_016.jpg	99
429.852	1.912	1912.1	generate	Run1	generate/STIM_016.jpg	100
433.812	2.254	2253.8	generate	Run1	generate/STIM_016.jpg	99
439.68	1.365	1364.7	generate	Run1	generate/STIM_017.jpg	99
443.479	2.313	2312.8	generate	Run1	generate/STIM_017.jpg	100
448.494	2.732	2731.8	generate	Run1	generate/STIM_017.jpg	99
454.511	2.28	2280.2	generate	Run1	generate/STIM_017.jpg	99
460.492	1.626	1626.5	generate	Run1	generate/STIM_017.jpg	99
464.664	1.652	1652.1	generate	Run1	generate/STIM_018.jpg	99
469.968	2.777	2776.6	generate	Run1	generate/STIM_018.jpg	100
476.713	2.846	2845.8	generate	Run1	generate/STIM_018.jpg	100
481.732	1.158	1158.5	generate	Run1	generate/STIM_018.jpg	99
485.558	2.636	2635.7	generate	Run1	generate/STIM_018.jpg	99
490.626	2.771	2770.8	generate	Run1	generate/STIM_019.jpg	100
495.454	2.475	2474.6	generate	Run1	generate/STIM_019.jpg	99
500.074	1.23	1230.0	generate	Run1	generate/STIM_019.jpg	100
503.818	2.361	2361.4	generate	Run1	generate/STIM_019.jpg	100
509.127	2.302	2301.8	generate	Run1	generate/STIM_019.jpg	99
513.822	2.641	2641.2	generate	Run1	generate/STIM_020.jpg	100
519.879	1.756	1756.5	generate	Run1	generate/STIM_020.jpg	100
525.248	2.521	2521.1	generate	Run1	generate/STIM_020.jpg	99
531.622	2.25	2250.3	generate	Run1	generate/STIM_020.jpg	99
537.023	1.365	1364.8	generate	Run1	generate/STIM_020.jpg	100
541.309	2.162	2161.5	generate	Run1	generate/STIM_021.jpg	100
546.903	2.076	2076.2	generate	Run1	generate/STIM_021.jpg	99
551.583	1.701	1701.2	generate	Run1	generate/STIM_021.jpg	99
555.787	2.797	2796.6	generate	Run1	generate/STIM_021.jpg	99
560.879	1.123	1122.6	generate	Run1	generate/STIM_021.jpg	99
565.172	2.069	2069.1	generate	Run1	generate/STIM_022.jpg	100
570.419	3.065	3064.8	generate	Run1	generate/STIM_022.jpg	100
577.12	1.834	1834.0	generate	Run1	generate/STIM_022.jpg	100
582.414	2.494	2493.8	generate	Run1	generate/STIM_022.jpg	99
588.82	2.686	2686.0	generate	Run1	generate/STIM_022.jpg	99
594.123	2.341	2341.3	generate	Run1	generate/STIM_023.jpg	100
600.441	2.591	2591.3	generate	Run1	generate/STIM_023.jpg	99
606.638	2.549	2548.7	generate	Run1	generate/STIM_023.jpg	99
612.977	2.191	2191.3	generate	Run1	generate/STIM_023.jpg	100
618.619	2.343	2342.9	generate	Run1	generate/STIM_023.jpg	100
624.18	1.945	1945.3	generate	Run1	generate/STIM_024.jpg	99
629.605	1.684	1683.7	generate	Run1	generate/STIM_024.jpg	100
633.432	2.372	2372.2	generate	Run1	generate/STIM_024.jpg	100
638.432	2.552	2552.3	generate	Run1	generate/STIM_024.jpg	99
644.188	1.417	1416.9	generate	Run1	generate/STIM_024.jpg	99
647.989	0.586	586.5	repeat	Run1	repeat/STIM_000.jpg	99
651.038	0.739	738.8	repeat	Run1	repeat/STIM_000.jpg	100
655.503	0.907	907.0	repeat	Run1	repeat/STIM_000.jpg	99
659.644	0.906	905.6	repeat	Run1	repeat/STIM_000.jpg	100
663.941	1.062	1061.9	repeat	Run1	repeat/STIM_000.jpg	99
668.136	1.097	1096.8	repeat	Run1	repeat/STIM_001.jpg	100
671.762	0.946	946.2	repeat	Run1	repeat/STIM_001.jpg	99
676.136	0.756	756.3	repeat	Run1	repeat/STIM_001.jpg	100
679.492	0.73	729.6	repeat	Run1	repeat/STIM_001.jpg	99
683.787	1.0	1000.5	repeat	Run1	repeat/STIM_001.jpg	99
688.031	1.098	1097.8	repeat	Run1	repeat/STIM_002.jpg	100
693.055	0.667	666.8	repeat	Run1	repeat/STIM_002.jpg	100
695.908	0.686	686.5	repeat	Run1	repeat/STIM_002.jpg	100
700.024	0.749	749.4	repeat	Run1	repeat/STIM_002.jpg	100
703.014	1.081	1081.2	repeat	Run1	repeat/STIM_002.jpg	100
707.731	0.716	715.5	repeat	Run1	repeat/STIM_003.jpg	100
710.583	1.105	1105.4	repeat	Run1	repeat/STIM_003.jpg	99
714.599	0.618	617.7	repeat	Run1	repeat/STIM_003.jpg	100
717.782	0.63	629.5	repeat	Run1	repeat/STIM_003.jpg	99
720.473	0.82	819.9	repeat	Run1	repeat/STIM_003.jpg	100
723.774	1.032	1032.3	repeat	Run1	repeat/STIM_004.jpg	100
727.875	0.844	844.4	repeat	Run1	repeat/STIM_004.jpg	99
732.022	0.759	758.9	repeat	Run1	repeat/STIM_004.jpg	100
736.671	0.72	719.9	repeat	Run1	repeat/STIM_004.jpg	100
741.363	1.009	1008.6	repeat	Run1	repeat/STIM_004.jpg	100
746.117	0.848	847.9	repeat	Run1	repeat/STIM_005.jpg	100
749.715	1.08	1079.6	repeat	Run1	repeat/STIM_005.jpg	100
753.453	0.815	815.3	repeat	Run1	repeat/STIM_005.jpg	99
757.559	0.979	978.9	repeat	Run1	repeat/STIM_005.jpg	99
761.034	0.936	935.8	repeat	Run1	repeat/STIM_005.jpg	100
765.933	0.62	619.5	repeat	Run1	repeat/STIM_006.jpg	99
770.342	0.891	890.7	repeat	Run1	repeat/STIM_006.jpg	100
773.88	0.802	802.5	repeat	Run1	repeat/STIM_006.jpg	100
776.962	0.898	897.5	repeat	Run1	repeat/STIM_006.jpg	100
780.314	0.997	996.9	repeat	Run1	repeat/STIM_006.jpg	100
784.345	0.575	575.4	repeat	Run1	repeat/STIM_007.jpg	100
787.537	0.756	756.0	repeat	Run1	repeat/STIM_007.jpg	100
791.498	0.664	664.0	repeat	Run1	repeat/STIM_007.jpg	100
795.78	0.99	990.1	repeat	Run1	repeat/STIM_007.jpg	100
798.869	0.917	916.7	repeat	Run1	repeat/STIM_007.jpg	99
803.491	0.901	901.4	repeat	Run1	repeat/STIM_008.jpg	99
807.403	0.972	972.4	repeat	Run1	repeat/STIM_008.jpg	100
812.304	1.096	1096.4	repeat	Run1	repeat/STIM_008.jpg	99
815.433	0.714	714.4	repeat	Run1	repeat/STIM_008.jpg	100
819.65	0.98	979.7	repeat	Run1	repeat/STIM_008.jpg	99
824.598	0.681	681.2	repeat	Run1	repeat/STIM_009.jpg	99
828.413	0.655	655.1	repeat	Run1	repeat/STIM_009.jpg	99
831.282	0.783	782.9	repeat	Run1	repeat/STIM_009.jpg	99
835.319	0.695	694.8	repeat	Run1	repeat/STIM_009.jpg	100
839.888	0.973	972.8	repeat	Run1	repeat/STIM_009.jpg	99
843.503	1.026	1026.3	repeat	Run1	repeat/STIM_010.jpg	99
846.971	0.967	966.8	repeat	Run1	repeat/STIM_010.jpg	100
850.459	0.612	612.1	repeat	Run1	repeat/STIM_010.jpg	100
854.553	0.988	987.8	repeat	Run1	repeat/STIM_010.jpg	99
858.831	0.587	586.8	repeat	Run1	repeat/STIM_010.jpg	100
863.082	1.052	1052.0	repeat	Run1	repeat/STIM_011.jpg	100
866.782	0.766	765.9	repeat	Run1	repeat/STIM_011.jpg	99
870.483	0.7	699.7	repeat	Run1	repeat/STIM_011.jpg	100
874.291	0.885	884.9	repeat	Run1	repeat/STIM_011.jpg	99
878.311	1.018	1018.5	repeat	Run1	repeat/STIM_011.jpg	100
882.267	0.577	577.3	repeat	Run1	repeat/STIM_012.jpg	99
885.395	1.057	1056.9	repeat	Run1	repeat/STIM_012.jpg	99
888.635	0.798	797.5	repeat	Run1	repeat/STIM_012.jpg	100
891.495	0.576	575.8	repeat	Run1	repeat/STIM_012.jpg	100
895.226	0.735	735.4	repeat	Run1	repeat/STIM_012.jpg	100
898.77	0.942	942.1	repeat	Run1	repeat/STIM_013.jpg	100
902.816	0.733	732.8	repeat	Run1	repeat/STIM_013.jpg	99
906.892	0.699	699.1	repeat	Run1	repeat/STIM_013.jpg	99
911.197	1.036	1035.5	repeat	Run1	repeat/STIM_013.jpg	99
915.483	0.686	686.4	repeat	Run1	repeat/STIM_013.jpg	99
919.884	0.658	658.5	repeat	Run1	repeat/STIM_014.jpg	100
923.621	0.835	835.4	repeat	Run1	repeat/STIM_014.jpg	100
927.383	0.644	644.1	repeat	Run1	repeat/STIM_014.jpg	99
930.474	0.766	765.8	repeat	Run1	repeat/STIM_014.jpg	100
934.051	0.586	585.8	repeat	Run1	repeat/STIM_014.jpg	100
938.124	2.454	2453.8	generate	Run2	generate/STIM_000.jpg	100
944.164	1.385	1384.9	generate	Run2	generate/STIM_000.jpg	100
948.164	2.302	2302.3	generate	Run2	generate/STIM_000.jpg	100
952.523	1.588	1588.2	generate	Run2	generate/STIM_000.jpg	100
956.568	2.085	2084.9	generate	Run2	generate/STIM_000.jpg	100
962.443	2.407	2407.2	generate	Run2	generate/STIM_001.jpg	99
968.141	1.898	1898.4	generate	Run2	generate/STIM_001.jpg	99
972.431	1.06	1059.5	generate	Run2	generate/STIM_001.jpg	99
976.143	1.74	1740.3	generate	Run2	generate/STIM_001.jpg	100
980.516	1.631	1631.3	generate	Run2	generate/STIM_001.jpg	100
984.376	1.726	1726.4	generate	Run2	generate/STIM_002.jpg	100
989.371	1.991	1991.0	generate	Run2	generate/STIM_002.jpg	99
993.932	1.165	1164.6	generate	Run2	generate/STIM_002.jpg	99
998.697	1.539	1538.9	generate	Run2	generate/STIM_002.jpg	99
1002.48	2.296	2296.1	generate	Run2	generate/STIM_002.jpg	100
1007.038	1.9	1899.5	generate	Run2	generate/STIM_003.jpg	99
1012.501	1.787	1786.9	generate	Run2	generate/STIM_003.jpg	99
1016.513	2.393	2393.0	generate	Run2	generate/STIM_003.jpg	99
1022.49	1.638	1637.7	generate	Run2	generate/STIM_003.jpg	100
1026.568	1.112	1111.6	generate	Run2	generate/STIM_003.jpg	99
1030.099	2.271	2271.1	generate	Run2	generate/STIM_004.jpg	99
1035.822	1.245	1245.3	generate	Run2	generate/STIM_004.jpg	99
1039.674	1.516	1516.3	generate	Run2	generate/STIM_004.jpg	99
1043.281	1.082	1082.1	generate	Run2	generate/STIM_004.jpg	99
1047.877	1.611	1611.3	generate	Run2	generate/STIM_004.jpg	99
1052.398	2.122	2122.4	generate	Run2	generate/STIM_005.jpg	100
1056.937	1.387	1387.4	generate	Run2	generate/STIM_005.jpg	100
1062.293	1.586	1585.8	generate	Run2	generate/STIM_005.jpg	99
1066.74	2.0	1999.9	generate	Run2	generate/STIM_005.jpg	100
1072.575	1.122	1121.6	generate	Run2	generate/STIM_005.jpg	99
1076.538	1.273	1272.7	generate	Run2	generate/STIM_006.jpg	99
1080.559	2.253	2252.7	generate	Run2	generate/STIM_006.jpg	100
1084.944	2.358	2357.7	generate	Run2	generate/STIM_006.jpg	100
1090.091	2.154	2154.1	generate	Run2	generate/STIM_006.jpg	99
1096.116	1.269	1268.9	generate	Run2	generate/STIM_006.jpg	99
1100.905	2.556	2555.5	generate	Run2	generate/STIM_007.jpg	99
1106.864	2.549	2549.3	generate	Run2	generate/STIM_007.jpg	100
1112.606	1.876	1876.3	generate	Run2	generate/STIM_007.jpg	99
1116.552	2.18	2179.9	generate	Run2	generate/STIM_007.jpg	100
1121.613	2.302	2301.7	generate	Run2	generate/STIM_007.jpg	99
1126.775	2.298	2298.0	generate	Run2	generate/STIM_008.jpg	99
1131.852	1.499	1498.8	generate	Run2	generate/STIM_008.jpg	99
1136.912	2.508	2508.4	generate	Run2	generate/STIM_008.jpg	100
1142.43	1.577	1577.4	generate	Run2	generate/STIM_008.jpg	100
1146.587	1.108	1107.8	generate	Run2	generate/STIM_008.jpg	99
1151.015	2.863	2863.1	generate	Run2	generate/STIM_009.jpg	99
1157.776	1.221	1221.2	generate	Run2	generate/STIM_009.jpg	99
1162.124	1.678	1678.4	generate	Run2	generate/STIM_009.jpg	99
1167.634	1.505	1505.1	generate	Run2	generate/STIM_009.jpg	100
1172.495	1.342	1342.1	generate	Run2	generate/STIM_009.jpg	99
1177.491	1.661	1660.8	generate	Run2	generate/STIM_010.jpg	99
1182.569	1.807	1806.8	generate	Run2	generate/STIM_010.jpg	100
1186.823	2.284	2284.0	generate	Run2	generate/STIM_010.jpg	100
1193.074	2.193	2193.0	generate	Run2	generate/STIM_010.jpg	100
1198.741	1.984	1983.9	generate	Run2	generate/STIM_010.jpg	100
1204.142	1.826	1825.5	generate	Run2	generate/STIM_011.jpg	100
1209.53	2.058	2057.5	generate	Run2	generate/STIM_011.jpg	100
1215.158	2.115	2115.1	generate	Run2	generate/STIM_011.jpg	99
1220.965	1.312	1312.3	generate	Run2	generate/STIM_011.jpg	99
1225.32	1.704	1704.1	generate	Run2	generate/STIM_011.jpg	100
1229.764	2.562	2562.2	generate	Run2	generate/STIM_012.jpg	99
1235.2	1.147	1146.7	generate	Run2	generate/STIM_012.jpg	100
1239.617	1.14	1140.3	generate	Run2	generate/STIM_012.jpg	100
1244.347	1.92	1920.0	generate	Run2	generate/STIM_012.jpg	100
1248.391	1.097	1097.2	generate	Run2	generate/STIM_012.jpg	99
1251.869	2.645	2645.0	generate	Run2	generate/STIM_013.jpg	100
1257.877	1.44	1439.8	generate	Run2	generate/STIM_013.jpg	99
1262.208	1.71	1710.0	generate	Run2	generate/STIM_013.jpg	100
1265.978	1.358	1357.8	generate	Run2	generate/STIM_013.jpg	100
1269.856	1.284	1284.2	generate	Run2	generate/STIM_013.jpg	99
1274.07	2.07	2070.1	generate	Run2	generate/STIM_014.jpg	100
1280.079	1.486	1486.0	generate	Run2	generate/STIM_014.jpg	99
1284.883	1.281	1280.8	generate	Run2	generate/STIM_014.jpg	99
1288.294	2.017	2016.6	generate	Run2	generate/STIM_014.jpg	100
1292.519	1.518	1518.0	generate	Run2	generate/STIM_014.jpg	99
1296.247	2.033	2032.8	generate	Run2	generate/STIM_015.jpg	99
1300.631	1.089	1088.9	generate	Run2	generate/STIM_015.jpg	100
1304.18	1.422	1421.9	generate	Run2	generate/STIM_015.jpg	100
1307.934	2.326	2326.1	generate	Run2	generate/STIM_015.jpg	99
1312.552	1.904	1904.4	generate	Run2	generate/STIM_015.jpg	99
1317.634	1.694	1694.2	generate	Run2	generate/STIM_016.jpg	100
1322.122	2.085	2084.7	generate	Run2	generate/STIM_016.jpg	100
1328.017	2.523	2522.6	generate	Run2	generate/STIM_016.jpg	100
1332.564	1.592	1592.5	generate	Run2	generate/STIM_016.jpg	100
1337.942	1.389	1388.8	generate	Run2	generate/STIM_016.jpg	99
1342.915	2.627	2627.0	generate	Run2	generate/STIM_017.jpg	100
1347.892	1.459	1458.6	generate	Run2	generate/STIM_017.jpg	100
1351.502	1.442	1441.7	generate	Run2	generate/STIM_017.jpg	100
1355.527	1.956	1955.7	generate	Run2	generate/STIM_017.jpg	99
1360.626	2.083	2082.7	generate	Run2	generate/STIM_017.jpg	99
1366.34	2.105	2105.2	generate	Run2	generate/STIM_018.jpg	100
1370.909	1.746	1745.9	generate	Run2	generate/STIM_018.jpg	100
1376.009	1.131	1131.2	generate	Run2	generate/STIM_018.jpg	100
1379.262	1.576	1575.5	generate	Run2	generate/STIM_018.jpg	100
1383.568	1.557	1557.1	generate	Run2	generate/STIM_018.jpg	99
1387.453	1.862	1861.8	generate	Run2	generate/STIM_019.jpg	99
1391.403	2.028	2027.9	generate	Run2	generate/STIM_019.jpg	99
1396.273	1.396	1396.1	generate	Run2	generate/STIM_019.jpg	99
1400.165	2.058	2058.3	generate	Run2	generate/STIM_019.jpg	100
1405.166	1.819	1819.3	generate	Run2	generate/STIM_019.jpg	99
1409.647	1.386	1385.8	generate	Run2	generate/STIM_020.jpg	100
1414.828	1.579	1579.0	generate	Run2	generate/STIM_020.jpg	99
1420.255	2.401	2401.3	generate	Run2	generate/STIM_020.jpg	100
1424.924	1.52	1520.5	generate	Run2	generate/STIM_020.jpg	100
1429.158	2.31	2309.9	generate	Run2	generate/STIM_020.jpg	100
1433.932	1.302	1302.5	generate	Run2	generate/STIM_021.jpg	100
1438.231	1.25	1249.8	generate	Run2	generate/STIM_021.jpg	100
1441.503	1.201	1200.9	generate	Run2	generate/STIM_021.jpg	99
1444.935	1.612	1612.1	generate	Run2	generate/STIM_021.jpg	99
1449.355	2.143	2142.8	generate	Run2	generate/STIM_021.jpg	100
1455.322	2.437	2437.0	generate	Run2	generate/STIM_022.jpg	100
1460.433	1.589	1589.4	generate	Run2	generate/STIM_022.jpg	100
1464.711	1.592	1592.1	generate	Run2	generate/STIM_022.jpg	99
1468.864	1.952	1951.8	generate	Run2	generate/STIM_022.jpg	100
1473.735	2.132	2132.3	generate	Run2	generate/STIM_022.jpg	99
1477.952	2.796	2796.0	generate	Run2	generate/STIM_023.jpg	100
1483.554	1.463	1463.3	generate	Run2	generate/STIM_023.jpg	99
1487.782	2.496	2495.8	generate	Run2	generate/STIM_023.jpg	100
1493.484	1.299	1299.2	generate	Run2	generate/STIM_023.jpg	99
1496.791	1.668	1668.1	generate	Run2	generate/STIM_023.jpg	100
1501.887	2.595	2595.4	generate	Run2	generate/STIM_024.jpg	99
1508.165	2.638	2638.0	generate	Run2	generate/STIM_024.jpg	99
1512.945	2.183	2183.1	generate	Run2	generate/STIM_024.jpg	100
1517.471	1.467	1467.1	generate	Run2	generate/STIM_024.jpg	99
1521.851	2.085	2084.9	generate	Run2	generate/STIM_024.jpg	100
1526.681	0.585	585.3	repeat	Run2	repeat/STIM_000.jpg	99
1530.424	0.828	827.5	repeat	Run2	repeat/STIM_000.jpg	99
1534.074	1.1	1100.2	repeat	Run2	repeat/STIM_000.jpg	100
1538.388	0.642	642.4	repeat	Run2	repeat/STIM_000.jpg	99
1542.192	1.073	1072.7	repeat	Run2	repeat/STIM_000.jpg	99
1546.482	0.678	678.0	repeat	Run2	repeat/STIM_001.jpg	99
1549.556	0.691	691.3	repeat	Run2	repeat/STIM_001.jpg	100
1554.204	0.798	798.0	repeat	Run2	repeat/STIM_001.jpg	100
1558.233	0.708	708.2	repeat	Run2	repeat/STIM_001.jpg	99
1562.773	1.101	1100.7	repeat	Run2	repeat/STIM_001.jpg	99
1566.611	0.714	714.0	repeat	Run2	repeat/STIM_002.jpg	100
1570.234	0.914	913.6	repeat	Run2	repeat/STIM_002.jpg	99
1573.838	1.048	1048.5	repeat	Run2	repeat/STIM_002.jpg	99
1578.616	0.804	804.5	repeat	Run2	repeat/STIM_002.jpg	100
1581.774	1.093	1093.4	repeat	Run2	repeat/STIM_002.jpg	99
1585.155	1.025	1025.2	repeat	Run2	repeat/STIM_003.jpg	99
1590.014	0.579	579.4	repeat	Run2	repeat/STIM_003.jpg	99
1593.375	0.715	715.1	repeat	Run2	repeat/STIM_003.jpg	100
1596.129	1.021	1021.1	repeat	Run2	repeat/STIM_003.jpg	99
1599.429	0.959	958.6	repeat	Run2	repeat/STIM_003.jpg	99
1603.173	0.798	798.2	repeat	Run2	repeat/STIM_004.jpg	100
1606.987	0.659	658.9	repeat	Run2	repeat/STIM_004.jpg	100
1609.754	0.691	691.0	repeat	Run2	repeat/STIM_004.jpg	99
1612.891	0.682	682.2	repeat	Run2	repeat/STIM_004.jpg	100
1617.323	1.106	1105.5	repeat	Run2	repeat/STIM_004.jpg	100
1620.783	0.893	893.3	repeat	Run2	repeat/STIM_005.jpg	100
1625.673	0.778	778.4	repeat	Run2	repeat/STIM_005.jpg	99
1628.551	0.715	714.9	repeat	Run2	repeat/STIM_005.jpg	100
1631.793	0.906	905.5	repeat	Run2	repeat/STIM_005.jpg	99
1635.175	0.789	788.7	repeat	Run2	repeat/STIM_005.jpg	100
1639.083	0.696	695.6	repeat	Run2	repeat/STIM_006.jpg	99
1642.615	0.856	856.0	repeat	Run2	repeat/STIM_006.jpg	100
1647.007	0.835	835.2	repeat	Run2	repeat/STIM_006.jpg	99
1651.483	0.644	644.0	repeat	Run2	repeat/STIM_006.jpg	99
1655.858	0.982	982.1	repeat	Run2	repeat/STIM_006.jpg	99
1659.501	1.011	1011.1	repeat	Run2	repeat/STIM_007.jpg	100
1663.873	0.999	998.8	repeat	Run2	repeat/STIM_007.jpg	100
1668.842	0.918	917.5	repeat	Run2	repeat/STIM_007.jpg	100
1673.504	0.976	975.9	repeat	Run2	repeat/STIM_007.jpg	100
1677.22	0.564	563.5	repeat	Run2	repeat/STIM_007.jpg	100
1681.256	0.796	796.1	repeat	Run2	repeat/STIM_008.jpg	99
1685.44	0.788	787.5	repeat	Run2	repeat/STIM_008.jpg	99
1689.132	0.679	679.1	repeat	Run2	repeat/STIM_008.jpg	99
1692.429	1.066	1066.4	repeat	Run2	repeat/STIM_008.jpg	100
1697.163	0.743	743.1	repeat	Run2	repeat/STIM_008.jpg	100
1700.151	0.619	619.1	repeat	Run2	repeat/STIM_009.jpg	100
1704.199	0.952	952.1	repeat	Run2	repeat/STIM_009.jpg	99
1707.21	0.95	950.0	repeat	Run2	repeat/STIM_009.jpg	100
1711.316	0.74	739.9	repeat	Run2	repeat/STIM_009.jpg	99
1715.134	1.039	1038.9	repeat	Run2	repeat/STIM_009.jpg	99
1718.29	0.874	873.6	repeat	Run2	repeat/STIM_010.jpg	99
1722.016	0.959	959.2	repeat	Run2	repeat/STIM_010.jpg	99
1726.887	0.782	782.2	repeat	Run2	repeat/STIM_010.jpg	100
1730.452	0.717	717.4	repeat	Run2	repeat/STIM_010.jpg	99
1733.733	0.741	741.0	repeat	Run2	repeat/STIM_010.jpg	100
1737.076	0.781	780.6	repeat	Run2	repeat/STIM_011.jpg	100
1740.729	0.699	698.7	repeat	Run2	repeat/STIM_011.jpg	99
1743.693	1.122	1121.9	repeat	Run2	repeat/STIM_011.jpg	99
1748.175	0.834	834.1	repeat	Run2	repeat/STIM_011.jpg	99
1752.333	0.899	899.4	repeat	Run2	repeat/STIM_011.jpg	100
1756.057	0.909	909.1	repeat	Run2	repeat/STIM_012.jpg	100
1760.646	0.882	882.2	repeat	Run2	repeat/STIM_012.jpg	100
1764.306	0.586	586.0	repeat	Run2	repeat/STIM_012.jpg	100
1768.752	1.036	1035.9	repeat	Run2	repeat/STIM_012.jpg	99
1772.307	0.61	609.9	repeat	Run2	repeat/STIM_012.jpg	100
1775.131	0.653	653.4	repeat	Run2	repeat/STIM_013.jpg	100
1779.131	0.69	690.2	repeat	Run2	repeat/STIM_013.jpg	99
1782.195	0.745	744.9	repeat	Run2	repeat/STIM_013.jpg	99
1785.045	0.853	853.4	repeat	Run2	repeat/STIM_013.jpg	99
1788.773	0.658	658.5	repeat	Run2	repeat/STIM_013.jpg	99
1792.215	0.952	951.7	repeat	Run2	repeat/STIM_014.jpg	99
1796.101	0.982	982.0	repeat	Run2	repeat/STIM_014.jpg	100
1799.388	0.924	924.0	repeat	Run2	repeat/STIM_014.jpg	99
1803.77	0.574	573.6	repeat	Run2	repeat/STIM_014.jpg	99
1806.983	0.695	695.0	repeat	Run2	repeat/STIM_014.jpg	99
1810.679	2.072	2071.6	generate	Run3	generate/STIM_000.jpg	99
1815.101	1.713	1713.2	generate	Run3	generate/STIM_000.jpg	100
1818.839	1.204	1203.6	generate	Run3	generate/STIM_000.jpg	99
1822.848	1.848	1848.5	generate	Run3	generate/STIM_000.jpg	100
1826.956	1.621	1620.9	generate	Run3	generate/STIM_000.jpg	100
1832.48	1.936	1935.9	generate	Run3	generate/STIM_001.jpg	99
1837.729	2.279	2278.6	generate	Run3	generate/STIM_001.jpg	99
1843.27	1.396	1396.3	generate	Run3	generate/STIM_001.jpg	100
1848.181	1.682	1682.4	generate	Run3	generate/STIM_001.jpg	100
1853.709	2.03	2029.9	generate	Run3	generate/STIM_001.jpg	99
1859.561	1.72	1720.4	generate	Run3	generate/STIM_002.jpg	100
1865.088	1.854	1854.1	generate	Run3	generate/STIM_002.jpg	99
1870.064	2.193	2192.8	generate	Run3	generate/STIM_002.jpg	99
1875.024	1.525	1524.9	generate	Run3	generate/STIM_002.jpg	100
1879.372	2.021	2021.4	generate	Run3	generate/STIM_002.jpg	99
1884.405	1.992	1991.5	generate	Run3	generate/STIM_003.jpg	99
1889.71	1.402	1401.9	generate	Run3	generate/STIM_003.jpg	99
1893.28	0.956	956.2	generate	Run3	generate/STIM_003.jpg	99
1897.167	1.361	1361.2	generate	Run3	generate/STIM_003.jpg	100
1901.619	1.853	1853.0	generate	Run3	generate/STIM_003.jpg	99
1906.433	2.231	2231.0	generate	Run3	generate/STIM_004.jpg	100
1911.781	1.406	1406.4	generate	Run3	generate/STIM_004.jpg	100
1915.393	1.805	1804.7	generate	Run3	generate/STIM_004.jpg	100
1920.128	2.115	2114.8	generate	Run3	generate/STIM_004.jpg	99
1924.632	1.848	1847.8	generate	Run3	generate/STIM_004.jpg	100
1929.578	0.983	983.3	generate	Run3	generate/STIM_005.jpg	100
1934.476	1.377	1376.9	generate	Run3	generate/STIM_005.jpg	99
1939.687	2.173	2172.6	generate	Run3	generate/STIM_005.jpg	99
1944.881	1.282	1282.1	generate	Run3	generate/STIM_005.jpg	100
1949.284	1.598	1597.9	generate	Run3	generate/STIM_005.jpg	100
1954.167	1.738	1737.8	generate	Run3	generate/STIM_006.jpg	100
1959.576	2.352	2351.8	generate	Run3	generate/STIM_006.jpg	99
1963.965	1.236	1235.5	generate	Run3	generate/STIM_006.jpg	99
1968.151	2.097	2096.6	generate	Run3	generate/STIM_006.jpg	99
1973.871	1.066	1065.8	generate	Run3	generate/STIM_006.jpg	100
1977.894	1.377	1377.4	generate	Run3	generate/STIM_007.jpg	99
1982.99	1.768	1768.0	generate	Run3	generate/STIM_007.jpg	99
1987.6	2.115	2114.8	generate	Run3	generate/STIM_007.jpg	100
1992.151	2.123	2123.1	generate	Run3	generate/STIM_007.jpg	100
1996.749	2.174	2174.4	generate	Run3	generate/STIM_007.jpg	99
2001.933	1.051	1050.7	generate	Run3	generate/STIM_008.jpg	100
2006.802	1.192	1191.5	generate	Run3	generate/STIM_008.jpg	100
2011.195	1.948	1947.6	generate	Run3	generate/STIM_008.jpg	100
2015.908	1.599	1598.6	generate	Run3	generate/STIM_008.jpg	100
2020.572	2.357	2357.3	generate	Run3	generate/STIM_008.jpg	100
2025.268	2.03	2029.6	generate	Run3	generate/STIM_009.jpg	99
2030.215	1.698	1697.8	generate	Run3	generate/STIM_009.jpg	100
2035.343	1.574	1574.4	generate	Run3	generate/STIM_009.jpg	100
2039.311	1.633	1633.0	generate	Run3	generate/STIM_009.jpg	100
2044.752	2.27	2270.4	generate	Run3	generate/STIM_009.jpg	100
2050.761	1.303	1302.8	generate	Run3	generate/STIM_010.jpg	99
2055.571	2.026	2026.4	generate	Run3	generate/STIM_010.jpg	99
2060.638	2.326	2325.9	generate	Run3	generate/STIM_010.jpg	100
2066.133	0.973	973.0	generate	Run3	generate/STIM_010.jpg	99
2071.081	2.072	2072.1	generate	Run3	generate/STIM_010.jpg	99
2076.017	1.9	1899.9	generate	Run3	generate/STIM_011.jpg	100
2081.311	2.144	2144.1	generate	Run3	generate/STIM_011.jpg	100
2085.808	1.837	1837.2	generate	Run3	generate/STIM_011.jpg	99
2091.49	1.124	1123.9	generate	Run3	generate/STIM_011.jpg	100
2095.888	2.246	2246.3	generate	Run3	generate/STIM_011.jpg	99
2101.355	1.696	1696.2	generate	Run3	generate/STIM_012.jpg	100
2106.563	1.032	1032.4	generate	Run3	generate/STIM_012.jpg	100
2111.069	1.421	1421.0	generate	Run3	generate/STIM_012.jpg	99
2115.678	1.186	1185.6	generate	Run3	generate/STIM_012.jpg	100
2120.647	2.302	2301.7	generate	Run3	generate/STIM_012.jpg	99
2126.098	0.947	946.8	generate	Run3	generate/STIM_013.jpg	99
2129.445	1.222	1222.0	generate	Run3	generate/STIM_013.jpg	100
2132.726	1.376	1376.2	generate	Run3	generate/STIM_013.jpg	100
2136.478	1.396	1396.0	generate	Run3	generate/STIM_013.jpg	99
2140.619	2.317	2317.2	generate	Run3	generate/STIM_013.jpg	99
2144.996	1.049	1048.7	generate	Run3	generate/STIM_014.jpg	99
2148.966	2.175	2175.3	generate	Run3	generate/STIM_014.jpg	99
2153.662	1.734	1733.9	generate	Run3	generate/STIM_014.jpg	100
2159.217	1.355	1354.6	generate	Run3	generate/STIM_014.jpg	100
2163.11	2.27	2269.8	generate	Run3	generate/STIM_014.jpg	100
2168.315	0.95	949.5	generate	Run3	generate/STIM_015.jpg	99
2172.226	1.436	1435.5	generate	Run3	generate/STIM_015.jpg	99
2176.449	2.332	2332.0	generate	Run3	generate/STIM_015.jpg	99
2181.833	1.475	1475.4	generate	Run3	generate/STIM_015.jpg	100
2187.152	1.369	1369.4	generate	Run3	generate/STIM_015.jpg	100
2191.118	1.418	1417.9	generate	Run3	generate/STIM_016.jpg	99
2194.792	1.296	1295.9	generate	Run3	generate/STIM_016.jpg	100
2199.703	2.338	2338.4	generate	Run3	generate/STIM_016.jpg	100
2204.563	2.342	2342.0	generate	Run3	generate/STIM_016.jpg	100
2209.298	1.603	1602.9	generate	Run3	generate/STIM_016.jpg	100
2214.529	1.455	1455.2	generate	Run3	generate/STIM_017.jpg	100
2218.466	1.996	1995.8	generate	Run3	generate/STIM_017.jpg	99
2223.462	2.068	2067.8	generate	Run3	generate/STIM_017.jpg	100
2228.176	0.968	968.0	generate	Run3	generate/STIM_017.jpg	99
2232.677	0.997	996.7	generate	Run3	generate/STIM_017.jpg	99
2236.205	1.586	1585.5	generate	Run3	generate/STIM_018.jpg	99
2240.648	1.947	1946.6	generate	Run3	generate/STIM_018.jpg	99
2244.659	2.094	2094.3	generate	Run3	generate/STIM_018.jpg	100
2249.351	2.064	2063.7	generate	Run3	generate/STIM_018.jpg	100
2255.239	1.088	1087.9	generate	Run3	generate/STIM_018.jpg	99
2258.871	2.294	2293.5	generate	Run3	generate/STIM_019.jpg	100
2263.516	1.423	1422.8	generate	Run3	generate/STIM_019.jpg	100
2268.93	1.375	1375.3	generate	Run3	generate/STIM_019.jpg	99
2272.859	2.063	2062.6	generate	Run3	generate/STIM_019.jpg	99
2277.053	1.989	1989.0	generate	Run3	generate/STIM_019.jpg	100
2281.864	1.986	1986.0	generate	Run3	generate/STIM_020.jpg	99
2285.882	2.157	2157.2	generate	Run3	generate/STIM_020.jpg	99
2290.767	1.309	1309.4	generate	Run3	generate/STIM_020.jpg	99
2295.949	1.529	1529.4	generate	Run3	generate/STIM_020.jpg	99
2300.434	2.293	2293.0	generate	Run3	generate/STIM_020.jpg	100
2305.313	2.3	2299.7	generate	Run3	generate/STIM_021.jpg	99
2310.697	2.053	2053.0	generate	Run3	generate/STIM_021.jpg	100
2316.121	2.276	2276.0	generate	Run3	generate/STIM_021.jpg	100
2320.918	2.178	2177.6	generate	Run3	generate/STIM_021.jpg	99
2327.009	1.967	1966.9	generate	Run3	generate/STIM_021.jpg	100
2332.323	2.091	2090.7	generate	Run3	generate/STIM_022.jpg	100
2337.793	1.449	1448.6	generate	Run3	generate/STIM_022.jpg	99
2343.227	2.148	2147.7	generate	Run3	generate/STIM_022.jpg	99
2348.777	1.382	1382.1	generate	Run3	generate/STIM_022.jpg	100
2352.283	1.912	1912.2	generate	Run3	generate/STIM_022.jpg	100
2357.061	1.816	1815.5	generate	Run3	generate/STIM_023.jpg	100
2362.267	1.615	1614.9	generate	Run3	generate/STIM_023.jpg	100
2367.879	2.292	2292.1	generate	Run3	generate/STIM_023.jpg	100
2374.054	2.068	2067.9	generate	Run3	generate/STIM_023.jpg	99
2379.258	1.435	1435.1	generate	Run3	generate/STIM_023.jpg	99
2384.15	1.033	1033.2	generate	Run3	generate/STIM_024.jpg	100
2387.468	1.441	1441.3	generate	Run3	generate/STIM_024.jpg	100
2392.588	1.597	1597.2	generate	Run3	generate/STIM_024.jpg	99
2396.459	1.478	1477.9	generate	Run3	generate/STIM_024.jpg	99
2400.457	1.519	1518.8	generate	Run3	generate/STIM_024.jpg	99
2404.564	0.9	899.8	repeat	Run3	repeat/STIM_000.jpg	100
2407.696	0.628	627.7	repeat	Run3	repeat/STIM_000.jpg	100
2410.536	0.846	846.1	repeat	Run3	repeat/STIM_000.jpg	100
2415.278	1.014	1014.1	repeat	Run3	repeat/STIM_000.jpg	99
2420.033	1.097	1097.0	repeat	Run3	repeat/STIM_000.jpg	99
2423.95	0.897	897.2	repeat	Run3	repeat/STIM_001.jpg	99
2428.782	0.732	731.5	repeat	Run3	repeat/STIM_001.jpg	99
2431.989	0.941	940.6	repeat	Run3	repeat/STIM_001.jpg	99
2435.442	1.016	1015.9	repeat	Run3	repeat/STIM_001.jpg	99
2439.072	0.756	756.3	repeat	Run3	repeat/STIM_001.jpg	99
2442.512	0.686	685.5	repeat	Run3	repeat/STIM_002.jpg	100
2446.841	0.83	830.5	repeat	Run3	repeat/STIM_002.jpg	99
2451.303	1.099	1098.8	repeat	Run3	repeat/STIM_002.jpg	100
2455.135	0.775	775.3	repeat	Run3	repeat/STIM_002.jpg	99
2459.777	0.919	919.2	repeat	Run3	repeat/STIM_002.jpg	99
2463.881	0.747	747.0	repeat	Run3	repeat/STIM_003.jpg	100
2467.301	1.107	1107.3	repeat	Run3	repeat/STIM_003.jpg	100
2471.908	0.638	638.4	repeat	Run3	repeat/STIM_003.jpg	99
2475.313	1.069	1068.9	repeat	Run3	repeat/STIM_003.jpg	100
2478.827	1.112	1112.1	repeat	Run3	repeat/STIM_003.jpg	100
2482.308	1.051	1050.9	repeat	Run3	repeat/STIM_004.jpg	100
2486.237	0.699	699.4	repeat	Run3	repeat/STIM_004.jpg	99
2489.433	0.863	862.7	repeat	Run3	repeat/STIM_004.jpg	100
2493.772	0.759	759.3	repeat	Run3	repeat/STIM_004.jpg	99
2497.805	0.563	563.1	repeat	Run3	repeat/STIM_004.jpg	100
2501.445	0.882	882.3	repeat	Run3	repeat/STIM_005.jpg	100
2505.717	0.619	618.7	repeat	Run3	repeat/STIM_005.jpg	99
2508.838	0.564	564.1	repeat	Run3	repeat/STIM_005.jpg	100
2511.902	0.586	586.0	repeat	Run3	repeat/STIM_005.jpg	100
2516.27	0.828	828.2	repeat	Run3	repeat/STIM_005.jpg	100
2519.781	0.766	766.5	repeat	Run3	repeat/STIM_006.jpg	99
2523.927	0.771	771.1	repeat	Run3	repeat/STIM_006.jpg	100
2527.333	0.915	915.2	repeat	Run3	repeat/STIM_006.jpg	99
2531.011	0.891	891.3	repeat	Run3	repeat/STIM_006.jpg	100
2535.772	0.727	727.1	repeat	Run3	repeat/STIM_006.jpg	99
2539.845	0.804	804.0	repeat	Run3	repeat/STIM_007.jpg	100
2544.072	0.645	644.7	repeat	Run3	repeat/STIM_007.jpg	100
2548.506	0.987	987.4	repeat	Run3	repeat/STIM_007.jpg	99
2552.023	1.036	1035.5	repeat	Run3	repeat/STIM_007.jpg	100
2555.093	0.817	816.8	repeat	Run3	repeat/STIM_007.jpg	100
2559.25	1.123	1123.0	repeat	Run3	repeat/STIM_008.jpg	99
2563.681	0.566	566.5	repeat	Run3	repeat/STIM_008.jpg	99
2567.64	0.768	768.5	repeat	Run3	repeat/STIM_008.jpg	100
2572.327	0.932	932.3	repeat	Run3	repeat/STIM_008.jpg	99
2576.3	0.79	789.9	repeat	Run3	repeat/STIM_008.jpg	100
2579.412	0.964	964.5	repeat	Run3	repeat/STIM_009.jpg	100
2584.217	0.871	870.9	repeat	Run3	repeat/STIM_009.jpg	100
2588.396	0.719	719.2	repeat	Run3	repeat/STIM_009.jpg	100
2592.772	0.835	835.4	repeat	Run3	repeat/STIM_009.jpg	100
2596.526	0.886	886.5	repeat	Run3	repeat/STIM_009.jpg	99
2599.803	0.984	984.3	repeat	Run3	repeat/STIM_010.jpg	99
2603.193	1.116	1116.0	repeat	Run3	repeat/STIM_010.jpg	99
2606.826	0.575	574.8	repeat	Run3	repeat/STIM_010.jpg	100
2610.81	0.778	777.8	repeat	Run3	repeat/STIM_010.jpg	100
2614.35	1.076	1075.9	repeat	Run3	repeat/STIM_010.jpg	100
2618.154	0.648	648.2	repeat	Run3	repeat/STIM_011.jpg	100
2620.994	0.838	838.2	repeat	Run3	repeat/STIM_011.jpg	100
2623.924	1.11	1110.4	repeat	Run3	repeat/STIM_011.jpg	100
2628.939	0.907	907.4	repeat	Run3	repeat/STIM_011.jpg	100
2631.997	0.72	719.7	repeat	Run3	repeat/STIM_011.jpg	99
2635.834	0.749	748.9	repeat	Run3	repeat/STIM_012.jpg	100
2640.548	1.035	1035.2	repeat	Run3	repeat/STIM_012.jpg	100
2645.255	0.758	758.4	repeat	Run3	repeat/STIM_012.jpg	100
2648.924	0.606	606.1	repeat	Run3	repeat/STIM_012.jpg	100
2653.437	1.047	1047.3	repeat	Run3	repeat/STIM_012.jpg	100
2657.979	0.705	704.9	repeat	Run3	repeat/STIM_013.jpg	99
2661.532	0.861	861.1	repeat	Run3	repeat/STIM_013.jpg	99
2665.11	0.923	922.6	repeat	Run3	repeat/STIM_013.jpg	99
2668.361	0.888	888.0	repeat	Run3	repeat/STIM_013.jpg	99
2672.35	0.605	605.2	repeat	Run3	repeat/STIM_013.jpg	100
2675.591	1.078	1077.8	repeat	Run3	repeat/STIM_014.jpg	99
2679.721	0.921	920.8	repeat	Run3	repeat/STIM_014.jpg	99
2684.407	0.842	842.4	repeat	Run3	repeat/STIM_014.jpg	100
2688.582	0.689	689.4	repeat	Run3	repeat/STIM_014.jpg	99
2691.398	1.078	1078.4	repeat	Run3	repeat/STIM_014.jpg	99
2695.523	1.2	1199.8	generate	Run4	generate/STIM_000.jpg	100
2700.153	2.001	2001.2	generate	Run4	generate/STIM_000.jpg	99
2704.168	1.791	1791.4	generate	Run4	generate/STIM_000.jpg	99
2709.755	2.178	2178.2	generate	Run4	generate/STIM_000.jpg	99
2715.014	1.758	1757.7	generate	Run4	generate/STIM_000.jpg	100
2719.655	2.284	2284.2	generate	Run4	generate/STIM_001.jpg	99
2724.672	0.954	953.9	generate	Run4	generate/STIM_001.jpg	99
2728.745	1.098	1097.6	generate	Run4	generate/STIM_001.jpg	100
2732.302	1.0	999.8	generate	Run4	generate/STIM_001.jpg	99
2735.628	1.937	1937.3	generate	Run4	generate/STIM_001.jpg	100
2740.03	1.164	1164.5	generate	Run4	generate/STIM_002.jpg	99
2743.354	2.109	2108.9	generate	Run4	generate/STIM_002.jpg	100
2749.132	2.192	2191.8	generate	Run4	generate/STIM_002.jpg	99
2754.472	1.26	1260.0	generate	Run4	generate/STIM_002.jpg	100
2758.007	1.835	1834.6	generate	Run4	generate/STIM_002.jpg	100
2763.427	2.338	2338.4	generate	Run4	generate/STIM_003.jpg	99
2768.542	1.565	1565.2	generate	Run4	generate/STIM_003.jpg	99
2773.359	1.943	1943.3	generate	Run4	generate/STIM_003.jpg	100
2778.974	2.096	2096.0	generate	Run4	generate/STIM_003.jpg	99
2785.062	2.107	2107.3	generate	Run4	generate/STIM_003.jpg	99
2789.647	2.176	2176.3	generate	Run4	generate/STIM_004.jpg	100
2795.591	2.322	2322.0	generate	Run4	generate/STIM_004.jpg	100
2801.848	1.461	1461.4	generate	Run4	generate/STIM_004.jpg	99
2806.701	1.494	1493.7	generate	Run4	generate/STIM_004.jpg	100
2812.098	2.351	2351.3	generate	Run4	generate/STIM_004.jpg	99
2817.947	1.416	1415.8	generate	Run4	generate/STIM_005.jpg	99
2823.13	1.643	1643.1	generate	Run4	generate/STIM_005.jpg	99
2828.13	2.249	2249.3	generate	Run4	generate/STIM_005.jpg	99
2833.457	1.665	1664.9	generate	Run4	generate/STIM_005.jpg	100
2837.196	1.794	1794.5	generate	Run4	generate/STIM_005.jpg	100
2841.771	1.686	1686.5	generate	Run4	generate/STIM_006.jpg	99
2846.807	2.122	2122.1	generate	Run4	generate/STIM_006.jpg	100
2851.82	1.358	1358.3	generate	Run4	generate/STIM_006.jpg	99
2855.494	1.974	1973.8	generate	Run4	generate/STIM_006.jpg	100
2860.913	1.843	1842.7	generate	Run4	generate/STIM_006.jpg	100
2865.76	2.236	2236.2	generate	Run4	generate/STIM_007.jpg	100
2870.214	1.333	1333.0	generate	Run4	generate/STIM_007.jpg	100
2873.919	1.468	1468.5	generate	Run4	generate/STIM_007.jpg	99
2878.233	1.61	1610.0	generate	Run4	generate/STIM_007.jpg	100
2883.477	1.935	1934.8	generate	Run4	generate/STIM_007.jpg	100
2887.651	2.313	2313.3	generate	Run4	generate/STIM_008.jpg	99
2893.178	1.501	1501.4	generate	Run4	generate/STIM_008.jpg	99
2898.138	1.284	1283.9	generate	Run4	generate/STIM_008.jpg	100
2901.664	2.05	2050.0	generate	Run4	generate/STIM_008.jpg	99
2907.654	2.126	2126.0	generate	Run4	generate/STIM_008.jpg	99
2912.139	1.475	1474.7	generate	Run4	generate/STIM_009.jpg	99
2916.948	1.279	1279.3	generate	Run4	generate/STIM_009.jpg	99
2920.575	2.195	2195.0	generate	Run4	generate/STIM_009.jpg	99
2926.001	1.128	1128.1	generate	Run4	generate/STIM_009.jpg	100
2929.758	1.926	1926.2	generate	Run4	generate/STIM_009.jpg	99
2935.187	2.08	2079.6	generate	Run4	generate/STIM_010.jpg	99
2941.124	2.354	2354.5	generate	Run4	generate/STIM_010.jpg	100
2947.409	1.474	1474.3	generate	Run4	generate/STIM_010.jpg	99
2952.544	1.959	1959.1	generate	Run4	generate/STIM_010.jpg	99
2956.622	2.157	2156.8	generate	Run4	generate/STIM_010.jpg	99
2962.627	2.339	2338.6	generate	Run4	generate/STIM_011.jpg	99
2967.763	1.386	1386.1	generate	Run4	generate/STIM_011.jpg	99
2972.932	1.338	1337.6	generate	Run4	generate/STIM_011.jpg	100
2978.166	2.035	2035.5	generate	Run4	generate/STIM_011.jpg	100
2983.136	1.949	1949.4	generate	Run4	generate/STIM_011.jpg	99
2988.747	2.24	2239.5	generate	Run4	generate/STIM_012.jpg	100
2993.701	1.332	1332.0	generate	Run4	generate/STIM_012.jpg	99
2997.766	1.52	1520.2	generate	Run4	generate/STIM_012.jpg	100
3002.106	1.281	1281.1	generate	Run4	generate/STIM_012.jpg	100
3006.126	1.084	1084.3	generate	Run4	generate/STIM_012.jpg	99
3009.449	2.342	2342.5	generate	Run4	generate/STIM_013.jpg	99
3014.532	1.282	1282.1	generate	Run4	generate/STIM_013.jpg	99
3019.046	1.001	1000.6	generate	Run4	generate/STIM_013.jpg	99
3023.399	2.07	2070.0	generate	Run4	generate/STIM_013.jpg	100
3028.101	1.696	1695.6	generate	Run4	generate/STIM_013.jpg	100
3031.95	2.006	2006.1	generate	Run4	generate/STIM_014.jpg	99
3036.564	1.896	1896.1	generate	Run4	generate/STIM_014.jpg	100
3040.854	1.105	1104.8	generate	Run4	generate/STIM_014.jpg	100
3045.728	1.767	1766.8	generate	Run4	generate/STIM_014.jpg	100
3051.07	1.826	1826.2	generate	Run4	generate/STIM_014.jpg	100
3055.711	1.564	1564.4	generate	Run4	generate/STIM_015.jpg	99
3061.123	2.225	2224.8	generate	Run4	generate/STIM_015.jpg	99
3066.824	1.847	1846.6	generate	Run4	generate/STIM_015.jpg	100
3072.548	1.835	1835.3	generate	Run4	generate/STIM_015.jpg	100
3077.672	1.868	1867.8	generate	Run4	generate/STIM_015.jpg	100
3083.483	1.085	1085.3	generate	Run4	generate/STIM_016.jpg	99
3086.714	1.408	1407.7	generate	Run4	generate/STIM_016.jpg	100
3091.238	1.072	1072.1	generate	Run4	generate/STIM_016.jpg	100
3095.723	1.986	1985.8	generate	Run4	generate/STIM_016.jpg	100
3100.374	1.977	1977.0	generate	Run4	generate/STIM_016.jpg	100
3105.181	1.745	1745.4	generate	Run4	generate/STIM_017.jpg	99
3110.137	1.52	1519.8	generate	Run4	generate/STIM_017.jpg	100
3114.3	2.225	2225.4	generate	Run4	generate/STIM_017.jpg	100
3119.659	1.097	1097.3	generate	Run4	generate/STIM_017.jpg	99
3123.817	1.508	1508.2	generate	Run4	generate/STIM_017.jpg	100
3128.432	1.678	1677.5	generate	Run4	generate/STIM_018.jpg	99
3132.905	1.14	1140.1	generate	Run4	generate/STIM_018.jpg	100
3137.811	1.858	1858.4	generate	Run4	generate/STIM_018.jpg	99
3142.684	1.413	1413.4	generate	Run4	generate/STIM_018.jpg	100
3147.417	1.451	1450.8	generate	Run4	generate/STIM_018.jpg	99
3152.458	1.904	1904.0	generate	Run4	generate/STIM_019.jpg	99
3157.386	1.791	1791.2	generate	Run4	generate/STIM_019.jpg	100
3161.55	2.294	2293.8	generate	Run4	generate/STIM_019.jpg	100
3167.062	1.716	1715.7	generate	Run4	generate/STIM_019.jpg	100
3171.882	1.544	1544.5	generate	Run4	generate/STIM_019.jpg	99
3176.279	2.265	2265.0	generate	Run4	generate/STIM_020.jpg	99
3181.628	1.021	1021.3	generate	Run4	generate/STIM_020.jpg	99
3185.508	1.062	1062.5	generate	Run4	generate/STIM_020.jpg	100
3190.237	1.162	1161.6	generate	Run4	generate/STIM_020.jpg	100
3193.73	1.736	1735.9	generate	Run4	generate/STIM_020.jpg	99
3198.822	1.767	1767.3	generate	Run4	generate/STIM_021.jpg	100
3204.415	2.067	2067.3	generate	Run4	generate/STIM_021.jpg	100
3210.297	2.226	2226.5	generate	Run4	generate/STIM_021.jpg	99
3216.105	1.904	1904.3	generate	Run4	generate/STIM_021.jpg	99
3220.811	1.733	1733.0	generate	Run4	generate/STIM_021.jpg	100
3225.902	2.29	2290.0	generate	Run4	generate/STIM_022.jpg	100
3230.711	1.654	1654.2	generate	Run4	generate/STIM_022.jpg	100
3236.277	1.323	1323.4	generate	Run4	generate/STIM_022.jpg	100
3240.842	1.681	1681.0	generate	Run4	generate/STIM_022.jpg	99
3245.886	1.008	1008.5	generate	Run4	generate/STIM_022.jpg	99
3249.338	2.186	2185.9	generate	Run4	generate/STIM_023.jpg	100
3254.542	2.147	2147.1	generate	Run4	generate/STIM_023.jpg	100
3260.479	2.088	2088.4	generate	Run4	generate/STIM_023.jpg	100
3265.762	1.854	1853.5	generate	Run4	generate/STIM_023.jpg	100
3269.942	2.17	2169.5	generate	Run4	generate/STIM_023.jpg	99
3274.84	1.057	1056.9	generate	Run4	generate/STIM_024.jpg	99
3279.883	1.428	1427.8	generate	Run4	generate/STIM_024.jpg	100
3283.905	1.864	1864.2	generate	Run4	generate/STIM_024.jpg	100
3288.9	2.136	2136.2	generate	Run4	generate/STIM_024.jpg	99
3293.138	1.665	1665.3	generate	Run4	generate/STIM_024.jpg	99
3297.165	0.719	718.7	repeat	Run4	repeat/STIM_000.jpg	99
3300.647	0.759	759.2	repeat	Run4	repeat/STIM_000.jpg	100
3303.487	0.864	863.9	repeat	Run4	repeat/STIM_000.jpg	99
3307.267	0.784	784.4	repeat	Run4	repeat/STIM_000.jpg	99
3310.592	0.952	952.0	repeat	Run4	repeat/STIM_000.jpg	100
3314.356	1.062	1061.8	repeat	Run4	repeat/STIM_001.jpg	100
3318.473	0.891	890.9	repeat	Run4	repeat/STIM_001.jpg	99
3322.529	1.01	1010.0	repeat	Run4	repeat/STIM_001.jpg	100
3326.755	0.772	772.0	repeat	Run4	repeat/STIM_001.jpg	99
3331.124	1.119	1118.9	repeat	Run4	repeat/STIM_001.jpg	99
3336.167	0.984	984.2	repeat	Run4	repeat/STIM_002.jpg	100
3339.27	0.871	871.4	repeat	Run4	repeat/STIM_002.jpg	100
3343.274	0.681	681.0	repeat	Run4	repeat/STIM_002.jpg	99
3346.487	0.708	708.0	repeat	Run4	repeat/STIM_002.jpg	100
3350.607	0.988	988.1	repeat	Run4	repeat/STIM_002.jpg	100
3355.39	0.823	823.3	repeat	Run4	repeat/STIM_003.jpg	100
3358.916	0.907	907.0	repeat	Run4	repeat/STIM_003.jpg	100
3362.991	1.022	1021.7	repeat	Run4	repeat/STIM_003.jpg	100
3366.352	1.119	1119.4	repeat	Run4	repeat/STIM_003.jpg	100
3370.312	0.774	773.8	repeat	Run4	repeat/STIM_003.jpg	99
3374.728	0.894	893.9	repeat	Run4	repeat/STIM_004.jpg	100
3379.296	0.938	937.9	repeat	Run4	repeat/STIM_004.jpg	100
3383.614	1.036	1035.9	repeat	Run4	repeat/STIM_004.jpg	100
3386.992	0.922	922.3	repeat	Run4	repeat/STIM_004.jpg	100
3390.59	0.893	893.4	repeat	Run4	repeat/STIM_004.jpg	99
3395.205	0.632	631.7	repeat	Run4	repeat/STIM_005.jpg	99
3398.955	0.81	810.1	repeat	Run4	repeat/STIM_005.jpg	99
3403.301	1.046	1046.5	repeat	Run4	repeat/STIM_005.jpg	99
3407.702	1.042	1042.4	repeat	Run4	repeat/STIM_005.jpg	100
3412.599	0.813	812.6	repeat	Run4	repeat/STIM_005.jpg	99
3416.838	0.632	631.9	repeat	Run4	repeat/STIM_006.jpg	99
3420.03	0.924	924.2	repeat	Run4	repeat/STIM_006.jpg	99
3424.301	1.005	1004.9	repeat	Run4	repeat/STIM_006.jpg	100
3427.431	0.795	794.7	repeat	Run4	repeat/STIM_006.jpg	100
3431.091	0.91	910.0	repeat	Run4	repeat/STIM_006.jpg	100
3435.051	0.873	873.2	repeat	Run4	repeat/STIM_007.jpg	100
3438.469	0.737	737.3	repeat	Run4	repeat/STIM_007.jpg	99
3442.192	0.743	743.2	repeat	Run4	repeat/STIM_007.jpg	100
3446.165	0.844	843.7	repeat	Run4	repeat/STIM_007.jpg	100
3450.531	0.74	739.7	repeat	Run4	repeat/STIM_007.jpg	99
3455.107	0.753	753.4	repeat	Run4	repeat/STIM_008.jpg	99
3459.161	1.096	1096.0	repeat	Run4	repeat/STIM_008.jpg	100
3464.227	1.069	1069.1	repeat	Run4	repeat/STIM_008.jpg	99
3468.9	0.673	672.8	repeat	Run4	repeat/STIM_008.jpg	99
3471.804	1.084	1083.6	repeat	Run4	repeat/STIM_008.jpg	99
3475.721	0.642	642.0	repeat	Run4	repeat/STIM_009.jpg	99
3479.564	1.016	1015.9	repeat	Run4	repeat/STIM_009.jpg	100
3483.782	1.044	1044.0	repeat	Run4	repeat/STIM_009.jpg	100
3486.889	0.791	791.4	repeat	Run4	repeat/STIM_009.jpg	100
3490.274	1.085	1084.6	repeat	Run4	repeat/STIM_009.jpg	99
3493.657	0.768	768.4	repeat	Run4	repeat/STIM_010.jpg	100
3498.153	0.989	989.1	repeat	Run4	repeat/STIM_010.jpg	100
3501.858	0.583	583.3	repeat	Run4	repeat/STIM_010.jpg	99
3504.614	1.015	1015.1	repeat	Run4	repeat/STIM_010.jpg	100
3508.938	1.066	1066.4	repeat	Run4	repeat/STIM_010.jpg	100
3513.2	0.948	948.4	repeat	Run4	repeat/STIM_011.jpg	100
3516.47	1.091	1090.7	repeat	Run4	repeat/STIM_011.jpg	100
3520.053	1.013	1012.9	repeat	Run4	repeat/STIM_011.jpg	100
3523.298	0.919	918.8	repeat	Run4	repeat/STIM_011.jpg	99
3527.987	0.727	726.7	repeat	Run4	repeat/STIM_011.jpg	99
3532.038	0.797	797.2	repeat	Run4	repeat/STIM_012.jpg	100
3536.51	0.736	736.3	repeat	Run4	repeat/STIM_012.jpg	100
3541.206	1.015	1015.4	repeat	Run4	repeat/STIM_012.jpg	100
3546.028	0.86	859.9	repeat	Run4	repeat/STIM_012.jpg	99
3549.785	0.832	831.8	repeat	Run4	repeat/STIM_012.jpg	100
3553.29	0.726	726.4	repeat	Run4	repeat/STIM_013.jpg	99
3557.583	0.677	676.6	repeat	Run4	repeat/STIM_013.jpg	100
3560.49	0.95	949.5	repeat	Run4	repeat/STIM_013.jpg	99
3564.133	1.038	1037.7	repeat	Run4	repeat/STIM_013.jpg	99
3567.932	0.953	952.9	repeat	Run4	repeat/STIM_013.jpg	99
3571.043	0.566	565.5	repeat	Run4	repeat/STIM_014.jpg	99
3574.591	0.748	748.1	repeat	Run4	repeat/STIM_014.jpg	99
3577.478	0.598	598.4	repeat	Run4	repeat/STIM_014.jpg	99
3580.265	0.608	608.4	repeat	Run4	repeat/STIM_014.jpg	99
3583.017	0.615	615.2	repeat	Run4	repeat/STIM_014.jpg	100
