onset	duration	response_time_ms	trial_type	learning_stage	stimulus	response_port
0.0	1.772	1771.6	generate	Run1	generate/STIM_000.jpg	100
4.76	2.363	2362.9	generate	Run1	generate/STIM_000.jpg	100
10.318	1.977	1976.7	generate	Run1	generate/STIM_000.jpg	100
16.153	1.48	1480.5	generate	Run1	generate/STIM_000.jpg	99
19.88	1.836	1836.3	generate	Run1	generate/STIM_000.jpg	100
24.129	1.715	1715.3	generate	Run1	generate/STIM_001.jpg	99
28.67	2.295	2294.7	generate	Run1	generate/STIM_001.jpg	99
34.623	1.34	1340.5	generate	Run1	generate/STIM_001.jpg	100
38.984	2.171	2170.9	generate	Run1	generate/STIM_001.jpg	99
44.26	2.103	2103.4	generate	Run1	generate/STIM_001.jpg	99
50.27	1.416	1416.0	generate	Run1	generate/STIM_002.jpg	100
53.935	2.538	2537.7	generate	Run1	generate/STIM_002.jpg	99
59.934	2.461	2460.6	generate	Run1	generate/STIM_002.jpg	100
66.05	0.999	998.9	generate	Run1	generate/STIM_002.jpg	99
70.166	1.732	1731.7	generate	Run1	generate/STIM_002.jpg	99
75.211	2.509	2509.4	generate	Run1	generate/STIM_003.jpg	99
79.89	1.682	1682.4	generate	Run1	generate/STIM_003.jpg	99
84.969	1.624	1623.6	generate	Run1	generate/STIM_003.jpg	99
88.809	2.079	2078.7	generate	Run1	generate/STIM_003.jpg	100
93.186	1.751	1750.8	generate	Run1	generate/STIM_003.jpg	99
97.504	2.302	2301.5	generate	Run1	generate/STIM_004.jpg	99
101.849	1.854	1854.5	generate	Run1	generate/STIM_004.jpg	99
106.452	1.865	1865.2	generate	Run1	generate/STIM_004.jpg	100
111.021	1.961	1960.7	generate	Run1	generate/STIM_004.jpg	99
116.775	1.305	1305.0	generate	Run1	generate/STIM_004.jpg	99
122.083	2.306	2306.0	generate	Run1	generate/STIM_005.jpg	99
126.534	2.756	2756.3	generate	Run1	generate/STIM_005.jpg	100
132.721	2.352	2352.2	generate	Run1	generate/STIM_005.jpg	100
138.981	1.488	1488.0	generate	Run1	generate/STIM_005.jpg	99
142.708	1.989	1989.1	generate	Run1	generate/STIM_005.jpg	99
147.239	1.46	1460.3	generate	Run1	generate/STIM_006.jpg	99
151.165	2.403	2403.2	generate	Run1	generate/STIM_006.jpg	100
156.735	1.752	1752.4	generate	Run1	generate/STIM_006.jpg	99
162.121	1.496	1496.5	generate	Run1	generate/STIM_006.jpg	100
165.754	2.28	2279.6	generate	Run1	generate/STIM_006.jpg	100
170.435	1.71	1710.2	generate	Run1	generate/STIM_007.jpg	99
174.471	2.114	2113.8	generate	Run1	generate/STIM_007.jpg	99
179.31	2.018	2018.0	generate	Run1	generate/STIM_007.jpg	100
184.527	2.315	2315.0	generate	Run1	generate/STIM_007.jpg	99
190.145	1.229	1229.4	generate	Run1	generate/STIM_007.jpg	99
193.991	2.31	2310.4	generate	Run1	generate/STIM_008.jpg	99
199.258	2.214	2214.5	generate	Run1	generate/STIM_008.jpg	99
204.598	1.661	1660.8	generate	Run1	generate/STIM_008.jpg	100
210.061	1.779	1779.3	generate	Run1	generate/STIM_008.jpg	99
214.426	2.399	2399.1	generate	Run1	generate/STIM_008.jpg	99
220.459	1.962	1962.3	generate	Run1	generate/STIM_009.jpg	99
225.696	1.803	1802.7	generate	Run1	generate/STIM_009.jpg	100
231.319	2.538	2537.9	generate	Run1	generate/STIM_009.jpg	99
237.305	1.268	1268.3	generate	Run1	generate/STIM_009.jpg	100
240.588	1.45	1450.5	generate	Run1	generate/STIM_009.jpg	99
245.266	1.648	1648.2	generate	Run1	generate/STIM_010.jpg	100
250.118	1.436	1436.5	generate	Run1	generate/STIM_010.jpg	99
253.758	2.648	2647.5	generate	Run1	generate/STIM_010.jpg	99
258.792	1.999	1999.0	generate	Run1	generate/STIM_010.jpg	100
263.214	2.369	2369.2	generate	Run1	generate/STIM_010.jpg	100
268.922	2.35	2349.5	generate	Run1	generate/STIM_011.jpg	100
274.771	2.557	2557.1	generate	Run1	generate/STIM_011.jpg	99
279.878	1.682	1681.9	generate	Run1	generate/STIM_011.jpg	99
285.264	1.192	1191.7	generate	Run1	generate/STIM_011.jpg	100
289.751	1.416	1415.9	generate	Run1	generate/STIM_011.jpg	100
294.199	2.581	2580.7	generate	Run1	generate/STIM_012.jpg	99
299.229	1.617	1617.2	generate	Run1	generate/STIM_012.jpg	99
303.913	1.74	1740.4	generate	Run1	generate/STIM_012.jpg	99
309.159	1.763	1762.6	generate	Run1	generate/STIM_012.jpg	99
314.388	1.057	1057.3	generate	Run1	generate/STIM_012.jpg	100
318.833	1.583	1583.3	generate	Run1	generate/STIM_013.jpg	100
324.21	1.618	1617.9	generate	Run1	generate/STIM_013.jpg	99
328.087	2.098	2097.6	generate	Run1	generate/STIM_013.jpg	100
332.911	2.11	2110.5	generate	Run1	generate/STIM_013.jpg	100
337.891	1.092	1092.2	generate	Run1	generate/STIM_013.jpg	100
341.87	1.598	1598.2	generate	Run1	generate/STIM_014.jpg	100
346.704	1.966	1965.8	generate	Run1	generate/STIM_014.jpg	100
351.319	2.719	2718.9	generate	Run1	generate/STIM_014.jpg	100
356.653	2.252	2252.1	generate	Run1	generate/STIM_014.jpg	100
361.081	1.347	1347.0	generate	Run1	generate/STIM_014.jpg	100
365.725	1.694	1693.7	generate	Run1	generate/STIM_015.jpg	100
371.005	1.474	1474.5	generate	Run1	generate/STIM_015.jpg	100
375.29	2.548	2548.5	generate	Run1	generate/STIM_015.jpg	99
380.049	2.082	2082.4	generate	Run1	generate/STIM_015.jpg	100
385.056	1.679	1678.7	generate	Run1	generate/STIM_015.jpg	99
389.881	2.254	2254.0	generate	Run1	generate/STIM_016.jpg	100
395.823	1.258	1257.5	generate	Run1	generate/STIM_016.jpg	100
401.004	2.602	2601.8	generate	Run1	generate/STIM_016.jpg	99
406.234	1.904	1903.7	generate	Run1	generate/STIM_016.jpg	100
411.395	1.028	1027.6	generate	Run1	generate/STIM_016.jpg	99
416.299	2.142	2141.7	generate	Run1	generate/STIM_017.jpg	99
421.202	2.825	2825.0	generate	Run1	generate/STIM_017.jpg	100
426.878	1.275	1275.4	generate	Run1	generate/STIM_017.jpg	99
432.001	1.923	1922.8	generate	Run1	generate/STIM_017.jpg	99
437.644	1.724	1724.0	generate	Run1	generate/STIM_017.jpg	99
442.493	2.336	2336.2	generate	Run1	generate/STIM_018.jpg	99
447.238	1.866	1865.9	generate	Run1	generate/STIM_018.jpg	100
451.142	1.466	1466.5	generate	Run1	generate/STIM_018.jpg	100
454.743	2.276	2275.9	generate	Run1	generate/STIM_018.jpg	99
460.021	1.445	1444.6	generate	Run1	generate/STIM_018.jpg	99
464.951	1.727	1727.2	generate	Run1	generate/STIM_019.jpg	100
470.02	1.331	1330.8	generate	Run1	generate/STIM_019.jpg	99
474.779	2.673	2672.7	generate	Run1	generate/STIM_019.jpg	100
480.992	1.681	1681.0	generate	Run1	generate/STIM_019.jpg	100
486.338	1.23	1230.0	generate	Run1	generate/STIM_019.jpg	99
490.821	2.282	2282.2	generate	Run1	generate/STIM_020.jpg	100
496.931	2.228	2228.0	generate	Run1	generate/STIM_020.jpg	100
503.013	1.356	1356.2	generate	Run1	generate/STIM_020.jpg	99
508.133	1.504	1503.5	generate	Run1	generate/STIM_020.jpg	99
511.747	2.181	2181.2	generate	Run1	generate/STIM_020.jpg	100
517.778	2.176	2175.6	generate	Run1	generate/STIM_021.jpg	100
523.34	1.158	1158.5	generate	Run1	generate/STIM_021.jpg	99
526.751	1.983	1983.0	generate	Run1	generate/STIM_021.jpg	99
532.691	2.128	2127.7	generate	Run1	generate/STIM_021.jpg	99
538.131	1.821	1821.1	generate	Run1	generate/STIM_021.jpg	99
543.994	2.44	2440.2	generate	Run1	generate/STIM_022.jpg	100
549.317	2.673	2673.2	generate	Run1	generate/STIM_022.jpg	100
555.36	1.543	1542.9	generate	Run1	generate/STIM_022.jpg	100
559.211	1.53	1530.0	generate	Run1	generate/STIM_022.jpg	99
563.048	1.13	1130.3	generate	Run1	generate/STIM_022.jpg	99
567.542	1.442	1441.8	generate	Run1	generate/STIM_023.jpg	100
572.052	1.898	1897.5	generate	Run1	generate/STIM_023.jpg	99
577.444	2.025	2024.8	generate	Run1	generate/STIM_023.jpg	99
582.049	1.623	1623.4	generate	Run1	generate/STIM_023.jpg	100
586.986	2.135	2134.8	generate	Run1	generate/STIM_023.jpg	100
591.339	2.819	2819.0	generate	Run1	generate/STIM_024.jpg	99
597.8	2.449	2448.6	generate	Run1	generate/STIM_024.jpg	100
602.837	1.262	1261.8	generate	Run1	generate/STIM_024.jpg	100
607.173	2.052	2051.7	generate	Run1	generate/STIM_024.jpg	99
612.319	1.515	1515.0	generate	Run1	generate/STIM_024.jpg	99
617.622	0.674	674.1	repeat	Run1	repeat/STIM_000.jpg	99
621.475	0.673	672.9	repeat	Run1	repeat/STIM_000.jpg	100
625.694	1.095	1095.1	repeat	Run1	repeat/STIM_000.jpg	99
628.682	0.654	653.5	repeat	Run1	repeat/STIM_000.jpg	100
632.411	0.504	503.9	repeat	Run1	repeat/STIM_000.jpg	99
636.267	0.882	881.9	repeat	Run1	repeat/STIM_001.jpg	100
641.032	0.864	864.3	repeat	Run1	repeat/STIM_001.jpg	99
644.069	0.931	931.0	repeat	Run1	repeat/STIM_001.jpg	100
647.885	0.891	890.7	repeat	Run1	repeat/STIM_001.jpg	99
651.799	0.567	566.8	repeat	Run1	repeat/STIM_001.jpg	99
655.313	0.629	628.7	repeat	Run1	repeat/STIM_002.jpg	100
659.429	0.564	564.0	repeat	Run1	repeat/STIM_002.jpg	100
664.032	0.645	645.0	repeat	Run1	repeat/STIM_002.jpg	100
668.439	0.658	657.5	repeat	Run1	repeat/STIM_002.jpg	100
672.031	0.479	479.0	repeat	Run1	repeat/STIM_002.jpg	100
674.714	0.738	738.2	repeat	Run1	repeat/STIM_003.jpg	100
677.601	0.612	611.8	repeat	Run1	repeat/STIM_003.jpg	99
680.289	0.443	442.9	repeat	Run1	repeat/STIM_003.jpg	100
683.166	0.57	570.1	repeat	Run1	repeat/STIM_003.jpg	99
686.849	0.912	911.5	repeat	Run1	repeat/STIM_003.jpg	100
691.476	0.585	585.1	repeat	Run1	repeat/STIM_004.jpg	100
694.427	0.902	901.7	repeat	Run1	repeat/STIM_004.jpg	99
698.133	0.847	847.3	repeat	Run1	repeat/STIM_004.jpg	100
701.858	0.819	818.6	repeat	Run1	repeat/STIM_004.jpg	100
705.598	0.975	974.6	repeat	Run1	repeat/STIM_004.jpg	100
710.338	0.695	694.9	repeat	Run1	repeat/STIM_005.jpg	100
714.36	0.681	680.8	repeat	Run1	repeat/STIM_005.jpg	100
717.28	0.886	886.4	repeat	Run1	repeat/STIM_005.jpg	99
721.731	0.814	814.3	repeat	Run1	repeat/STIM_005.jpg	99
726.195	0.959	959.1	repeat	Run1	repeat/STIM_005.jpg	100
731.06	0.739	739.2	repeat	Run1	repeat/STIM_006.jpg	99
735.612	0.642	642.0	repeat	Run1	repeat/STIM_006.jpg	100
738.429	0.754	753.9	repeat	Run1	repeat/STIM_006.jpg	100
741.932	0.62	620.2	repeat	Run1	repeat/STIM_006.jpg	100
745.583	0.844	844.3	repeat	Run1	repeat/STIM_006.jpg	100
749.128	0.572	572.3	repeat	Run1	repeat/STIM_007.jpg	100
753.502	0.902	902.5	repeat	Run1	repeat/STIM_007.jpg	100
757.865	0.944	944.5	repeat	Run1	repeat/STIM_007.jpg	100
761.629	0.969	969.0	repeat	Run1	repeat/STIM_007.jpg	100
765.567	0.817	816.7	repeat	Run1	repeat/STIM_007.jpg	99
768.328	0.535	534.7	repeat	Run1	repeat/STIM_008.jpg	99
771.485	0.936	935.7	repeat	Run1	repeat/STIM_008.jpg	100
775.549	0.606	606.3	repeat	Run1	repeat/STIM_008.jpg	99
778.174	0.586	586.3	repeat	Run1	repeat/STIM_008.jpg	100
780.887	0.645	644.8	repeat	Run1	repeat/STIM_008.jpg	99
785.606	0.535	535.4	repeat	Run1	repeat/STIM_009.jpg	99
789.512	0.622	622.2	repeat	Run1	repeat/STIM_009.jpg	99
792.831	0.652	652.2	repeat	Run1	repeat/STIM_009.jpg	99
797.471	0.455	455.2	repeat	Run1	repeat/STIM_009.jpg	100
800.166	1.043	1042.8	repeat	Run1	repeat/STIM_009.jpg	99
804.922	0.507	507.4	repeat	Run1	repeat/STIM_010.jpg	99
808.462	0.822	821.9	repeat	Run1	repeat/STIM_010.jpg	100
812.994	0.78	780.0	repeat	Run1	repeat/STIM_010.jpg	100
815.831	0.78	779.7	repeat	Run1	repeat/STIM_010.jpg	99
819.48	0.876	875.5	repeat	Run1	repeat/STIM_010.jpg	100
822.57	0.728	728.0	repeat	Run1	repeat/STIM_011.jpg	100
825.486	0.645	645.4	repeat	Run1	repeat/STIM_011.jpg	99
828.442	0.791	791.4	repeat	Run1	repeat/STIM_011.jpg	100
831.322	0.685	685.0	repeat	Run1	repeat/STIM_011.jpg	99
834.579	0.596	596.0	repeat	Run1	repeat/STIM_011.jpg	100
838.059	0.775	774.9	repeat	Run1	repeat/STIM_012.jpg	99
841.457	0.699	698.8	repeat	Run1	repeat/STIM_012.jpg	99
844.165	0.553	552.8	repeat	Run1	repeat/STIM_012.jpg	100
847.003	0.868	867.8	repeat	Run1	repeat/STIM_012.jpg	100
850.36	0.573	572.9	repeat	Run1	repeat/STIM_012.jpg	100
854.016	0.568	567.9	repeat	Run1	repeat/STIM_013.jpg	100
858.265	0.781	781.1	repeat	Run1	repeat/STIM_013.jpg	99
862.021	0.498	497.9	repeat	Run1	repeat/STIM_013.jpg	99
866.346	0.816	815.5	repeat	Run1	repeat/STIM_013.jpg	99
869.414	0.576	576.2	repeat	Run1	repeat/STIM_013.jpg	99
872.761	0.743	743.1	repeat	Run1	repeat/STIM_014.jpg	100
875.632	0.73	730.2	repeat	Run1	repeat/STIM_014.jpg	100
879.804	0.879	879.3	repeat	Run1	repeat/STIM_014.jpg	99
883.74	0.954	954.3	repeat	Run1	repeat/STIM_014.jpg	100
887.659	0.588	588.4	repeat	Run1	repeat/STIM_014.jpg	100
890.735	1.865	1865.0	generate	Run2	generate/STIM_000.jpg	100
895.664	1.726	1726.2	generate	Run2	generate/STIM_000.jpg	100
899.461	1.386	1386.5	generate	Run2	generate/STIM_000.jpg	100
904.348	1.89	1889.5	generate	Run2	generate/STIM_000.jpg	100
908.437	2.055	2055.1	generate	Run2	generate/STIM_000.jpg	100
913.183	1.384	1383.9	generate	Run2	generate/STIM_001.jpg	99
917.798	1.625	1625.1	generate	Run2	generate/STIM_001.jpg	99
922.257	1.986	1986.1	generate	Run2	generate/STIM_001.jpg	99
927.314	1.385	1384.7	generate	Run2	generate/STIM_001.jpg	100
932.284	0.953	952.8	generate	Run2	generate/STIM_001.jpg	100
936.827	1.217	1217.2	generate	Run2	generate/STIM_002.jpg	100
940.897	1.361	1360.9	generate	Run2	generate/STIM_002.jpg	99
944.463	1.549	1548.9	generate	Run2	generate/STIM_002.jpg	99
948.153	1.532	1532.5	generate	Run2	generate/STIM_002.jpg	99
953.097	1.97	1970.5	generate	Run2	generate/STIM_002.jpg	100
958.177	1.142	1142.1	generate	Run2	generate/STIM_003.jpg	99
962.412	1.432	1432.3	generate	Run2	generate/STIM_003.jpg	99
967.003	1.202	1202.1	generate	Run2	generate/STIM_003.jpg	99
971.277	1.234	1233.5	generate	Run2	generate/STIM_003.jpg	100
974.692	1.472	1472.1	generate	Run2	generate/STIM_003.jpg	99
978.67	2.091	2091.4	generate	Run2	generate/STIM_004.jpg	99
983.088	1.392	1392.2	generate	Run2	generate/STIM_004.jpg	99
987.239	1.51	1509.6	generate	Run2	generate/STIM_004.jpg	99
991.953	1.912	1912.1	generate	Run2	generate/STIM_004.jpg	99
996.247	2.106	2105.6	generate	Run2	generate/STIM_004.jpg	99
1001.8	1.259	1258.9	generate	Run2	generate/STIM_005.jpg	100
1005.186	1.699	1698.9	generate	Run2	generate/STIM_005.jpg	100
1009.335	1.368	1368.2	generate	Run2	generate/STIM_005.jpg	99
1012.749	1.181	1181.1	generate	Run2	generate/STIM_005.jpg	100
1017.131	1.742	1741.5	generate	Run2	generate/STIM_005.jpg	99
1021.046	1.399	1398.7	generate	Run2	generate/STIM_006.jpg	99
1025.273	1.415	1414.9	generate	Run2	generate/STIM_006.jpg	100
1029.241	1.953	1952.7	generate	Run2	generate/STIM_006.jpg	100
1033.607	1.555	1554.9	generate	Run2	generate/STIM_006.jpg	99
1037.551	1.986	1985.8	generate	Run2	generate/STIM_006.jpg	99
1042.264	1.902	1901.8	generate	Run2	generate/STIM_007.jpg	99
1047.145	1.324	1324.1	generate	Run2	generate/STIM_007.jpg	100
1050.993	1.394	1394.5	generate	Run2	generate/STIM_007.jpg	99
1055.46	0.879	878.8	generate	Run2	generate/STIM_007.jpg	100
1060.314	0.911	910.6	generate	Run2	generate/STIM_007.jpg	99
1063.841	1.119	1119.2	generate	Run2	generate/STIM_008.jpg	99
1068.351	1.465	1465.3	generate	Run2	generate/STIM_008.jpg	99
1073.44	1.586	1586.0	generate	Run2	generate/STIM_008.jpg	100
1078.455	1.952	1952.2	generate	Run2	generate/STIM_008.jpg	100
1083.229	1.401	1401.0	generate	Run2	generate/STIM_008.jpg	99
1088.095	1.814	1813.7	generate	Run2	generate/STIM_009.jpg	99
1092.148	1.837	1837.4	generate	Run2	generate/STIM_009.jpg	99
1096.229	1.966	1966.5	generate	Run2	generate/STIM_009.jpg	99
1101.613	1.618	1618.3	generate	Run2	generate/STIM_009.jpg	100
1106.878	1.06	1060.0	generate	Run2	generate/STIM_009.jpg	99
1110.271	1.165	1165.1	generate	Run2	generate/STIM_010.jpg	99
1113.824	2.121	2121.2	generate	Run2	generate/STIM_010.jpg	100
1118.852	1.563	1562.7	generate	Run2	generate/STIM_010.jpg	100
1123.329	1.192	1192.5	generate	Run2	generate/STIM_010.jpg	100
1128.111	1.096	1095.8	generate	Run2	generate/STIM_010.jpg	100
1131.395	2.243	2243.1	generate	Run2	generate/STIM_011.jpg	100
1137.293	2.078	2078.3	generate	Run2	generate/STIM_011.jpg	100
1143.193	1.63	1629.9	generate	Run2	generate/STIM_011.jpg	99
1147.837	1.866	1866.0	generate	Run2	generate/STIM_011.jpg	99
1153.289	1.408	1407.7	generate	Run2	generate/STIM_011.jpg	100
1157.835	1.675	1674.6	generate	Run2	generate/STIM_012.jpg	99
1162.818	1.854	1853.5	generate	Run2	generate/STIM_012.jpg	100
1167.679	1.808	1808.0	generate	Run2	generate/STIM_012.jpg	100
1172.919	1.773	1772.9	generate	Run2	generate/STIM_012.jpg	100
1177.256	0.894	894.3	generate	Run2	generate/STIM_012.jpg	99
1181.349	2.213	2213.3	generate	Run2	generate/STIM_013.jpg	100
1186.007	2.051	2051.1	generate	Run2	generate/STIM_013.jpg	99
1190.816	1.617	1617.0	generate	Run2	generate/STIM_013.jpg	100
1196.37	1.139	1139.3	generate	Run2	generate/STIM_013.jpg	100
1200.794	1.082	1081.5	generate	Run2	generate/STIM_013.jpg	99
1205.791	1.324	1324.1	generate	Run2	generate/STIM_014.jpg	100
1209.822	0.901	900.7	generate	Run2	generate/STIM_014.jpg	99
1212.965	1.481	1481.1	generate	Run2	generate/STIM_014.jpg	99
1217.696	1.068	1068.3	generate	Run2	generate/STIM_014.jpg	100
1220.873	1.614	1614.3	generate	Run2	generate/STIM_014.jpg	99
1225.003	2.18	2180.2	generate	Run2	generate/STIM_015.jpg	99
1230.617	1.972	1972.3	generate	Run2	generate/STIM_015.jpg	100
1234.845	1.926	1925.5	generate	Run2	generate/STIM_015.jpg	100
1240.643	0.978	978.1	generate	Run2	generate/STIM_015.jpg	99
1244.821	1.43	1429.7	generate	Run2	generate/STIM_015.jpg	99
1249.318	2.341	2341.0	generate	Run2	generate/STIM_016.jpg	100
1254.041	2.087	2086.7	generate	Run2	generate/STIM_016.jpg	100
1258.676	1.231	1231.3	generate	Run2	generate/STIM_016.jpg	100
1263.383	0.961	960.8	generate	Run2	generate/STIM_016.jpg	100
1268.256	1.566	1566.5	generate	Run2	generate/STIM_016.jpg	99
1272.137	1.16	1159.9	generate	Run2	generate/STIM_017.jpg	100
1276.945	1.989	1989.4	generate	Run2	generate/STIM_017.jpg	100
1282.415	1.796	1795.6	generate	Run2	generate/STIM_017.jpg	100
1286.555	1.785	1784.8	generate	Run2	generate/STIM_017.jpg	99
1290.29	1.604	1603.9	generate	Run2	generate/STIM_017.jpg	99
1295.883	1.949	1949.0	generate	Run2	generate/STIM_018.jpg	100
1300.369	1.398	1397.6	generate	Run2	generate/STIM_018.jpg	100
1304.749	0.979	978.9	generate	Run2	generate/STIM_018.jpg	100
1307.913	1.153	1153.4	generate	Run2	generate/STIM_018.jpg	100
1311.851	1.444	1444.3	generate	Run2	generate/STIM_018.jpg	99
1315.449	2.246	2245.8	generate	Run2	generate/STIM_019.jpg	99
1321.125	1.963	1962.7	generate	Run2	generate/STIM_019.jpg	99
1326.069	1.719	1718.9	generate	Run2	generate/STIM_019.jpg	99
1330.444	1.913	1913.4	generate	Run2	generate/STIM_019.jpg	100
1335.294	1.239	1239.1	generate	Run2	generate/STIM_019.jpg	99
1339.224	1.387	1387.2	generate	Run2	generate/STIM_020.jpg	100
1343.246	1.624	1623.5	generate	Run2	generate/STIM_020.jpg	99
1348.17	2.054	2053.6	generate	Run2	generate/STIM_020.jpg	100
1352.724	1.939	1938.9	generate	Run2	generate/STIM_020.jpg	100
1358.242	0.8	800.5	generate	Run2	generate/STIM_020.jpg	100
1363.084	2.288	2287.6	generate	Run2	generate/STIM_021.jpg	100
1368.217	1.96	1960.3	generate	Run2	generate/STIM_021.jpg	100
1373.687	1.098	1097.5	generate	Run2	generate/STIM_021.jpg	99
1378.527	1.541	1541.2	generate	Run2	generate/STIM_021.jpg	99
1383.718	0.98	980.5	generate	Run2	generate/STIM_021.jpg	100
1387.375	2.332	2332.1	generate	Run2	generate/STIM_022.jpg	100
1393.357	1.014	1014.5	generate	Run2	generate/STIM_022.jpg	100
1396.621	1.903	1902.9	generate	Run2	generate/STIM_022.jpg	99
1401.935	1.189	1188.8	generate	Run2	generate/STIM_022.jpg	100
1405.253	1.313	1312.6	generate	Run2	generate/STIM_022.jpg	99
1409.097	2.091	2091.3	generate	Run2	generate/STIM_023.jpg	100
1413.642	1.095	1094.6	generate	Run2	generate/STIM_023.jpg	99
1416.778	1.026	1025.7	generate	Run2	generate/STIM_023.jpg	100
1419.876	2.067	2067.2	generate	Run2	generate/STIM_023.jpg	99
1424.568	1.541	1541.2	generate	Run2	generate/STIM_023.jpg	100
1428.509	1.978	1977.7	generate	Run2	generate/STIM_024.jpg	99
1432.815	1.096	1095.6	generate	Run2	generate/STIM_024.jpg	99
1437.788	2.03	2030.4	generate	Run2	generate/STIM_024.jpg	100
1443.305	1.14	1139.5	generate	Run2	generate/STIM_024.jpg	99
1448.044	1.092	1092.2	generate	Run2	generate/STIM_024.jpg	100
1452.449	0.698	698.0	repeat	Run2	repeat/STIM_000.jpg	99
1455.752	0.852	851.5	repeat	Run2	repeat/STIM_000.jpg	99
1458.608	0.946	946.4	repeat	Run2	repeat/STIM_000.jpg	100
1462.575	0.794	794.2	repeat	Run2	repeat/STIM_000.jpg	99
1467.229	0.684	684.2	repeat	Run2	repeat/STIM_000.jpg	99
1469.997	0.89	889.5	repeat	Run2	repeat/STIM_001.jpg	99
1474.396	0.948	947.5	repeat	Run2	repeat/STIM_001.jpg	100
1477.851	0.813	813.4	repeat	Run2	repeat/STIM_001.jpg	100
1482.521	1.015	1014.8	repeat	Run2	repeat/STIM_001.jpg	99
1486.628	0.692	691.8	repeat	Run2	repeat/STIM_001.jpg	99
1491.133	1.027	1026.7	repeat	Run2	repeat/STIM_002.jpg	100
1494.801	0.772	772.4	repeat	Run2	repeat/STIM_002.jpg	99
1499.508	0.578	578.1	repeat	Run2	repeat/STIM_002.jpg	99
1503.547	0.86	860.1	repeat	Run2	repeat/STIM_002.jpg	100
1507.341	0.685	685.4	repeat	Run2	repeat/STIM_002.jpg	99
1510.503	0.812	811.8	repeat	Run2	repeat/STIM_003.jpg	99
1513.714	0.624	624.5	repeat	Run2	repeat/STIM_003.jpg	99
1516.428	0.947	947.0	repeat	Run2	repeat/STIM_003.jpg	100
1520.859	0.654	654.4	repeat	Run2	repeat/STIM_003.jpg	99
1524.524	0.907	907.3	repeat	Run2	repeat/STIM_003.jpg	99
1527.459	0.609	608.8	repeat	Run2	repeat/STIM_004.jpg	100
1531.131	0.693	692.8	repeat	Run2	repeat/STIM_004.jpg	100
1534.684	0.685	684.8	repeat	Run2	repeat/STIM_004.jpg	99
1537.906	0.728	728.5	repeat	Run2	repeat/STIM_004.jpg	100
1541.379	0.835	835.4	repeat	Run2	repeat/STIM_004.jpg	100
1545.317	0.949	948.6	repeat	Run2	repeat/STIM_005.jpg	100
1548.806	0.861	861.2	repeat	Run2	repeat/STIM_005.jpg	99
1552.283	0.798	798.3	repeat	Run2	repeat/STIM_005.jpg	100
1556.896	0.761	760.7	repeat	Run2	repeat/STIM_005.jpg	99
1560.32	0.69	689.6	repeat	Run2	repeat/STIM_005.jpg	100
1563.409	0.755	754.6	repeat	Run2	repeat/STIM_006.jpg	99
1566.319	0.636	635.7	repeat	Run2	repeat/STIM_006.jpg	100
1570.288	0.951	950.8	repeat	Run2	repeat/STIM_006.jpg	99
1574.359	0.885	885.1	repeat	Run2	repeat/STIM_006.jpg	99
1578.235	0.483	482.7	repeat	Run2	repeat/STIM_006.jpg	99
1581.478	0.489	488.7	repeat	Run2	repeat/STIM_007.jpg	100
1585.275	0.645	645.4	repeat	Run2	repeat/STIM_007.jpg	100
1588.784	0.604	603.9	repeat	Run2	repeat/STIM_007.jpg	100
1591.609	0.612	611.9	repeat	Run2	repeat/STIM_007.jpg	100
1595.236	0.593	593.3	repeat	Run2	repeat/STIM_007.jpg	100
1598.141	0.654	653.9	repeat	Run2	repeat/STIM_008.jpg	99
1600.956	0.564	563.6	repeat	Run2	repeat/STIM_008.jpg	99
1604.864	0.951	951.4	repeat	Run2	repeat/STIM_008.jpg	99
1608.313	0.624	624.0	repeat	Run2	repeat/STIM_008.jpg	100
1612.514	0.594	594.1	repeat	Run2	repeat/STIM_008.jpg	100
1615.819	0.747	746.7	repeat	Run2	repeat/STIM_009.jpg	100
1619.398	0.977	976.9	repeat	Run2	repeat/STIM_009.jpg	99
1623.926	0.862	861.7	repeat	Run2	repeat/STIM_009.jpg	100
1627.666	0.734	734.1	repeat	Run2	repeat/STIM_009.jpg	99
1632.048	0.935	934.6	repeat	Run2	repeat/STIM_009.jpg	99
1635.627	0.541	540.6	repeat	Run2	repeat/STIM_010.jpg	99
1640.047	0.919	919.2	repeat	Run2	repeat/STIM_010.jpg	99
1644.213	0.848	848.1	repeat	Run2	repeat/STIM_010.jpg	100
1648.258	0.681	680.8	repeat	Run2	repeat/STIM_010.jpg	99
1651.37	0.809	809.0	repeat	Run2	repeat/STIM_010.jpg	100
1654.498	0.805	805.1	repeat	Run2	repeat/STIM_011.jpg	100
1657.478	0.606	605.6	repeat	Run2	repeat/STIM_011.jpg	99
1661.555	0.614	614.5	repeat	Run2	repeat/STIM_011.jpg	99
1664.88	0.652	652.0	repeat	Run2	repeat/STIM_011.jpg	99
1669.282	1.024	1023.5	repeat	Run2	repeat/STIM_011.jpg	100
1672.696	0.915	915.0	repeat	Run2	repeat/STIM_012.jpg	100
1677.308	0.973	972.6	repeat	Run2	repeat/STIM_012.jpg	100
1680.767	0.872	872.3	repeat	Run2	repeat/STIM_012.jpg	100
1684.489	0.783	782.9	repeat	Run2	repeat/STIM_012.jpg	99
1688.349	0.704	704.2	repeat	Run2	repeat/STIM_012.jpg	100
1692.762	0.53	530.2	repeat	Run2	repeat/STIM_013.jpg	100
1695.924	0.763	763.0	repeat	Run2	repeat/STIM_013.jpg	99
1700.6	0.775	775.4	repeat	Run2	repeat/STIM_013.jpg	99
1704.477	0.791	790.6	repeat	Run2	repeat/STIM_013.jpg	99
1707.709	0.864	863.8	repeat	Run2	repeat/STIM_013.jpg	99
1710.608	0.55	550.0	repeat	Run2	repeat/STIM_014.jpg	99
1713.882	0.534	534.2	repeat	Run2	repeat/STIM_014.jpg	100
1718.073	0.548	548.2	repeat	Run2	repeat/STIM_014.jpg	99
1720.986	0.746	746.3	repeat	Run2	repeat/STIM_014.jpg	99
1723.796	0.577	577.3	repeat	Run2	repeat/STIM_014.jpg	99
1727.011	0.927	927.0	generate	Run3	generate/STIM_000.jpg	99
1731.564	1.671	1671.3	generate	Run3	generate/STIM_000.jpg	100
1736.234	1.245	1244.7	generate	Run3	generate/STIM_000.jpg	99
1740.123	1.892	1891.8	generate	Run3	generate/STIM_000.jpg	100
1745.814	1.059	1059.1	generate	Run3	generate/STIM_000.jpg	100
1749.849	0.936	936.2	generate	Run3	generate/STIM_001.jpg	99
1754.34	1.385	1385.4	generate	Run3	generate/STIM_001.jpg	99
1758.4	1.89	1889.8	generate	Run3	generate/STIM_001.jpg	100
1763.595	1.298	1298.1	generate	Run3	generate/STIM_001.jpg	100
1767.52	2.12	2119.8	generate	Run3	generate/STIM_001.jpg	99
1773.196	1.162	1162.1	generate	Run3	generate/STIM_002.jpg	100
1778.2	1.986	1985.7	generate	Run3	generate/STIM_002.jpg	99
1782.391	1.996	1996.3	generate	Run3	generate/STIM_002.jpg	99
1787.073	1.584	1583.8	generate	Run3	generate/STIM_002.jpg	100
1791.677	1.74	1739.9	generate	Run3	generate/STIM_002.jpg	99
1796.533	1.982	1982.5	generate	Run3	generate/STIM_003.jpg	99
1802.12	1.42	1420.4	generate	Run3	generate/STIM_003.jpg	99
1805.928	1.568	1568.0	generate	Run3	generate/STIM_003.jpg	99
1810.634	1.594	1593.8	generate	Run3	generate/STIM_003.jpg	100
1814.504	1.917	1917.3	generate	Run3	generate/STIM_003.jpg	99
1818.986	1.422	1421.7	generate	Run3	generate/STIM_004.jpg	100
1822.978	1.588	1587.7	generate	Run3	generate/STIM_004.jpg	100
1826.647	1.792	1792.2	generate	Run3	generate/STIM_004.jpg	100
1832.316	2.081	2080.9	generate	Run3	generate/STIM_004.jpg	99
1837.423	1.539	1538.9	generate	Run3	generate/STIM_004.jpg	100
1841.685	1.746	1745.5	generate	Run3	generate/STIM_005.jpg	100
1846.346	1.916	1915.8	generate	Run3	generate/STIM_005.jpg	99
1851.272	1.485	1485.0	generate	Run3	generate/STIM_005.jpg	99
1856.005	1.326	1325.8	generate	Run3	generate/STIM_005.jpg	100
1861.126	1.317	1316.8	generate	Run3	generate/STIM_005.jpg	100
1866.011	1.622	1622.2	generate	Run3	generate/STIM_006.jpg	100
1871.573	1.888	1887.6	generate	Run3	generate/STIM_006.jpg	99
1876.818	0.994	994.3	generate	Run3	generate/STIM_006.jpg	99
1880.729	1.802	1801.9	generate	Run3	generate/STIM_006.jpg	99
1885.375	0.871	870.6	generate	Run3	generate/STIM_006.jpg	100
1888.941	0.849	848.8	generate	Run3	generate/STIM_007.jpg	99
1892.481	1.946	1945.7	generate	Run3	generate/STIM_007.jpg	99
1897.493	1.353	1353.3	generate	Run3	generate/STIM_007.jpg	100
1900.82	1.68	1679.9	generate	Run3	generate/STIM_007.jpg	100
1904.474	1.95	1950.5	generate	Run3	generate/STIM_007.jpg	99
1910.032	1.99	1990.2	generate	Run3	generate/STIM_008.jpg	100
1915.004	0.967	966.7	generate	Run3	generate/STIM_008.jpg	100
1918.482	1.444	1443.5	generate	Run3	generate/STIM_008.jpg	100
1923.029	0.872	871.6	generate	Run3	generate/STIM_008.jpg	100
1927.06	1.21	1210.1	generate	Run3	generate/STIM_008.jpg	100
1930.66	1.866	1865.9	generate	Run3	generate/STIM_009.jpg	99
1936.229	1.364	1364.3	generate	Run3	generate/STIM_009.jpg	100
1939.785	0.994	994.4	generate	Run3	generate/STIM_009.jpg	100
1944.086	1.786	1785.6	generate	Run3	generate/STIM_009.jpg	100
1949.473	1.744	1744.3	generate	Run3	generate/STIM_009.jpg	100
1953.433	1.042	1042.5	generate	Run3	generate/STIM_010.jpg	99
1957.383	1.95	1950.4	generate	Run3	generate/STIM_010.jpg	99
1961.599	1.733	1733.0	generate	Run3	generate/STIM_010.jpg	100
1966.455	1.171	1170.6	generate	Run3	generate/STIM_010.jpg	99
1971.515	1.516	1515.6	generate	Run3	generate/STIM_010.jpg	99
1976.607	1.532	1532.3	generate	Run3	generate/STIM_011.jpg	100
1982.099	1.735	1734.9	generate	Run3	generate/STIM_011.jpg	100
1986.909	1.471	1470.9	generate	Run3	generate/STIM_011.jpg	99
1992.178	1.273	1272.7	generate	Run3	generate/STIM_011.jpg	100
1995.872	1.077	1077.2	generate	Run3	generate/STIM_011.jpg	99
2000.52	1.404	1404.2	generate	Run3	generate/STIM_012.jpg	100
2003.894	0.97	969.9	generate	Run3	generate/STIM_012.jpg	100
2008.64	1.072	1072.1	generate	Run3	generate/STIM_012.jpg	99
2013.056	1.084	1083.5	generate	Run3	generate/STIM_012.jpg	100
2017.945	1.421	1420.7	generate	Run3	generate/STIM_012.jpg	99
2022.17	2.072	2072.3	generate	Run3	generate/STIM_013.jpg	99
2027.557	1.291	1291.0	generate	Run3	generate/STIM_013.jpg	100
2032.404	0.989	989.3	generate	Run3	generate/STIM_013.jpg	100
2036.388	1.119	1119.0	generate	Run3	generate/STIM_013.jpg	99
2041.533	1.204	1204.1	generate	Run3	generate/STIM_013.jpg	99
2045.521	1.394	1394.3	generate	Run3	generate/STIM_014.jpg	99
2050.112	2.019	2019.2	generate	Run3	generate/STIM_014.jpg	99
2054.222	1.515	1514.6	generate	Run3	generate/STIM_014.jpg	100
2059.167	1.914	1914.4	generate	Run3	generate/STIM_014.jpg	100
2063.421	0.826	825.8	generate	Run3	generate/STIM_014.jpg	100
2067.599	1.106	1105.5	generate	Run3	generate/STIM_015.jpg	99
2071.26	2.054	2053.9	generate	Run3	generate/STIM_015.jpg	99
2075.438	1.802	1802.3	generate	Run3	generate/STIM_015.jpg	99
2080.041	0.933	932.8	generate	Run3	generate/STIM_015.jpg	100
2083.489	1.537	1537.1	generate	Run3	generate/STIM_015.jpg	100
2087.75	1.413	1412.8	generate	Run3	generate/STIM_016.jpg	99
2092.773	1.196	1196.1	generate	Run3	generate/STIM_016.jpg	100
2096.564	1.631	1631.2	generate	Run3	generate/STIM_016.jpg	100
2100.286	1.984	1983.7	generate	Run3	generate/STIM_016.jpg	100
2105.88	1.898	1897.8	generate	Run3	generate/STIM_016.jpg	100
2111.43	1.008	1008.2	generate	Run3	generate/STIM_017.jpg	100
2116.293	1.33	1330.2	generate	Run3	generate/STIM_017.jpg	99
2120.465	1.08	1080.1	generate	Run3	generate/STIM_017.jpg	100
2124.111	1.651	1651.2	generate	Run3	generate/STIM_017.jpg	99
2128.005	1.002	1001.9	generate	Run3	generate/STIM_017.jpg	99
2132.938	0.91	910.0	generate	Run3	generate/STIM_018.jpg	99
2137.362	1.682	1681.8	generate	Run3	generate/STIM_018.jpg	99
2141.31	1.531	1531.0	generate	Run3	generate/STIM_018.jpg	100
2146.529	1.29	1289.5	generate	Run3	generate/STIM_018.jpg	100
2151.289	1.922	1921.9	generate	Run3	generate/STIM_018.jpg	99
2155.55	1.06	1059.6	generate	Run3	generate/STIM_019.jpg	100
2159.798	2.08	2079.8	generate	Run3	generate/STIM_019.jpg	100
2164.601	2.025	2025.3	generate	Run3	generate/STIM_019.jpg	99
2169.797	1.261	1260.9	generate	Run3	generate/STIM_019.jpg	99
2173.359	1.7	1700.1	generate	Run3	generate/STIM_019.jpg	100
2179.087	1.171	1170.9	generate	Run3	generate/STIM_020.jpg	99
2182.799	1.543	1542.8	generate	Run3	generate/STIM_020.jpg	99
2186.663	1.102	1102.2	generate	Run3	generate/STIM_020.jpg	99
2191.185	1.477	1477.4	generate	Run3	generate/STIM_020.jpg	99
2195.434	1.6	1600.2	generate	Run3	generate/STIM_020.jpg	100
2200.682	0.946	945.9	generate	Run3	generate/STIM_021.jpg	99
2203.894	1.568	1567.8	generate	Run3	generate/STIM_021.jpg	100
2208.762	1.965	1965.2	generate	Run3	generate/STIM_021.jpg	100
2214.04	1.73	1730.3	generate	Run3	generate/STIM_021.jpg	99
2219.165	1.273	1273.1	generate	Run3	generate/STIM_021.jpg	100
2222.987	1.664	1663.6	generate	Run3	generate/STIM_022.jpg	100
2226.83	1.906	1906.1	generate	Run3	generate/STIM_022.jpg	99
2232.369	1.561	1560.6	generate	Run3	generate/STIM_022.jpg	99
2237.354	1.948	1948.1	generate	Run3	generate/STIM_022.jpg	100
2242.771	1.248	1247.5	generate	Run3	generate/STIM_022.jpg	100
2246.192	1.788	1787.9	generate	Run3	generate/STIM_023.jpg	100
2250.766	1.854	1854.3	generate	Run3	generate/STIM_023.jpg	100
2255.747	1.93	1929.9	generate	Run3	generate/STIM_023.jpg	100
2260.485	1.811	1811.1	generate	Run3	generate/STIM_023.jpg	99
2266.109	1.698	1698.4	generate	Run3	generate/STIM_023.jpg	99
2270.594	1.111	1110.8	generate	Run3	generate/STIM_024.jpg	100
2274.175	1.305	1305.0	generate	Run3	generate/STIM_024.jpg	100
2278.908	1.303	1303.2	generate	Run3	generate/STIM_024.jpg	99
2283.591	0.929	928.7	generate	Run3	generate/STIM_024.jpg	99
2287.232	1.607	1606.9	generate	Run3	generate/STIM_024.jpg	99
2291.275	0.663	663.0	repeat	Run3	repeat/STIM_000.jpg	100
2294.949	0.656	656.0	repeat	Run3	repeat/STIM_000.jpg	100
2299.444	1.04	1040.5	repeat	Run3	repeat/STIM_000.jpg	100
2303.086	0.669	668.7	repeat	Run3	repeat/STIM_000.jpg	99
2306.255	0.821	820.9	repeat	Run3	repeat/STIM_000.jpg	99
2310.058	0.938	938.1	repeat	Run3	repeat/STIM_001.jpg	99
2314.781	0.832	832.5	repeat	Run3	repeat/STIM_001.jpg	99
2319.502	0.898	897.5	repeat	Run3	repeat/STIM_001.jpg	99
2322.64	0.675	674.9	repeat	Run3	repeat/STIM_001.jpg	99
2326.5	0.796	795.7	repeat	Run3	repeat/STIM_001.jpg	99
2329.743	0.96	960.2	repeat	Run3	repeat/STIM_002.jpg	100
2334.64	0.798	797.5	repeat	Run3	repeat/STIM_002.jpg	99
2337.482	0.506	506.4	repeat	Run3	repeat/STIM_002.jpg	100
2341.184	0.849	849.1	repeat	Run3	repeat/STIM_002.jpg	99
2344.347	0.569	568.9	repeat	Run3	repeat/STIM_002.jpg	99
2347.521	0.873	873.2	repeat	Run3	repeat/STIM_003.jpg	100
2351.165	0.851	850.8	repeat	Run3	repeat/STIM_003.jpg	100
2355.307	0.994	993.9	repeat	Run3	repeat/STIM_003.jpg	99
2359.752	0.772	771.7	repeat	Run3	repeat/STIM_003.jpg	100
2363.909	0.7	700.0	repeat	Run3	repeat/STIM_003.jpg	100
2366.746	0.678	678.3	repeat	Run3	repeat/STIM_004.jpg	100
2370.07	0.788	788.5	repeat	Run3	repeat/STIM_004.jpg	99
2374.54	0.623	622.9	repeat	Run3	repeat/STIM_004.jpg	100
2377.823	0.747	746.7	repeat	Run3	repeat/STIM_004.jpg	99
2380.698	0.898	898.5	repeat	Run3	repeat/STIM_004.jpg	100
2384.8	0.816	816.0	repeat	Run3	repeat/STIM_005.jpg	100
2388.276	0.952	951.6	repeat	Run3	repeat/STIM_005.jpg	99
2392.659	0.887	887.3	repeat	Run3	repeat/STIM_005.jpg	100
2397.5	0.869	869.3	repeat	Run3	repeat/STIM_005.jpg	100
2401.285	0.792	792.0	repeat	Run3	repeat/STIM_005.jpg	100
2405.385	0.578	577.5	repeat	Run3	repeat/STIM_006.jpg	99
2407.998	0.536	536.2	repeat	Run3	repeat/STIM_006.jpg	100
2411.634	0.826	826.5	repeat	Run3	repeat/STIM_006.jpg	99
2416.335	0.573	573.0	repeat	Run3	repeat/STIM_006.jpg	100
2419.032	0.565	565.0	repeat	Run3	repeat/STIM_006.jpg	99
2422.537	0.58	579.7	repeat	Run3	repeat/STIM_007.jpg	100
2426.675	0.949	949.1	repeat	Run3	repeat/STIM_007.jpg	100
2429.669	0.863	862.6	repeat	Run3	repeat/STIM_007.jpg	99
2433.018	0.9	900.1	repeat	Run3	repeat/STIM_007.jpg	100
2437.486	0.532	532.0	repeat	Run3	repeat/STIM_007.jpg	100
2440.693	0.603	603.3	repeat	Run3	repeat/STIM_008.jpg	99
2445.035	0.562	562.2	repeat	Run3	repeat/STIM_008.jpg	99
2448.829	0.562	562.3	repeat	Run3	repeat/STIM_008.jpg	100
2453.46	0.707	707.0	repeat	Run3	repeat/STIM_008.jpg	99
2456.536	0.948	948.0	repeat	Run3	repeat/STIM_008.jpg	100
2461.203	0.837	837.2	repeat	Run3	repeat/STIM_009.jpg	100
2464.853	0.953	952.6	repeat	Run3	repeat/STIM_009.jpg	100
2469.391	0.955	955.2	repeat	Run3	repeat/STIM_009.jpg	100
2472.719	0.666	665.5	repeat	Run3	repeat/STIM_009.jpg	100
2476.438	0.724	723.7	repeat	Run3	repeat/STIM_009.jpg	99
2480.01	0.936	935.8	repeat	Run3	repeat/STIM_010.jpg	99
2484.217	0.84	840.1	repeat	Run3	repeat/STIM_010.jpg	99
2487.22	0.489	489.1	repeat	Run3	repeat/STIM_010.jpg	100
2489.839	0.875	875.4	repeat	Run3	repeat/STIM_010.jpg	100
2494.245	0.708	708.5	repeat	Run3	repeat/STIM_010.jpg	100
2498.633	0.748	748.0	repeat	Run3	repeat/STIM_011.jpg	100
2502.903	0.846	846.0	repeat	Run3	repeat/STIM_011.jpg	100
2506.593	0.7	700.5	repeat	Run3	repeat/STIM_011.jpg	100
2509.531	1.062	1062.4	repeat	Run3	repeat/STIM_011.jpg	100
2512.936	0.607	606.7	repeat	Run3	repeat/STIM_011.jpg	99
2515.631	0.795	795.0	repeat	Run3	repeat/STIM_012.jpg	100
2518.414	0.622	621.9	repeat	Run3	repeat/STIM_012.jpg	100
2522.939	0.927	927.3	repeat	Run3	repeat/STIM_012.jpg	100
2527.519	0.932	932.0	repeat	Run3	repeat/STIM_012.jpg	100
2532.107	0.758	758.5	repeat	Run3	repeat/STIM_012.jpg	100
2536.576	0.551	551.2	repeat	Run3	repeat/STIM_013.jpg	99
2540.536	0.956	955.6	repeat	Run3	repeat/STIM_013.jpg	99
2544.207	0.565	565.1	repeat	Run3	repeat/STIM_013.jpg	99
2548.518	0.624	624.3	repeat	Run3	repeat/STIM_013.jpg	99
2553.004	0.913	913.3	repeat	Run3	repeat/STIM_013.jpg	100
2556.083	0.757	757.0	repeat	Run3	repeat/STIM_014.jpg	99
2560.012	0.578	577.6	repeat	Run3	repeat/STIM_014.jpg	99
2563.971	0.746	746.2	repeat	Run3	repeat/STIM_014.jpg	100
2567.038	0.716	716.2	repeat	Run3	repeat/STIM_014.jpg	99
2570.113	0.559	559.1	repeat	Run3	repeat/STIM_014.jpg	99
2573.12	1.239	1238.7	generate	Run4	generate/STIM_000.jpg	100
2578.099	1.626	1626.1	generate	Run4	generate/STIM_000.jpg	99
2583.053	1.59	1589.9	generate	Run4	generate/STIM_000.jpg	99
2586.636	0.895	895.2	generate	Run4	generate/STIM_000.jpg	99
2590.709	0.891	891.1	generate	Run4	generate/STIM_000.jpg	100
2594.315	1.0	1000.0	generate	Run4	generate/STIM_001.jpg	99
2597.869	1.453	1453.3	generate	Run4	generate/STIM_001.jpg	99
2602.925	1.56	1560.0	generate	Run4	generate/STIM_001.jpg	100
2608.244	1.605	1604.7	generate	Run4	generate/STIM_001.jpg	99
2612.557	1.308	1308.3	generate	Run4	generate/STIM_001.jpg	100
2617.07	1.153	1152.8	generate	Run4	generate/STIM_002.jpg	99
2621.631	1.728	1727.6	generate	Run4	generate/STIM_002.jpg	100
2626.231	1.249	1249.1	generate	Run4	generate/STIM_002.jpg	99
2629.887	1.815	1815.1	generate	Run4	generate/STIM_002.jpg	100
2634.056	1.885	1884.9	generate	Run4	generate/STIM_002.jpg	100
2639.133	1.313	1312.8	generate	Run4	generate/STIM_003.jpg	99
2642.468	1.618	1617.9	generate	Run4	generate/STIM_003.jpg	99
2647.589	1.117	1116.8	generate	Run4	generate/STIM_003.jpg	100
2651.874	1.68	1679.8	generate	Run4	generate/STIM_003.jpg	99
2655.602	1.651	1650.7	generate	Run4	generate/STIM_003.jpg	99
2660.546	1.284	1283.6	generate	Run4	generate/STIM_004.jpg	100
2664.603	1.067	1067.4	generate	Run4	generate/STIM_004.jpg	100
2669.135	1.68	1680.3	generate	Run4	generate/STIM_004.jpg	99
2674.452	1.118	1118.2	generate	Run4	generate/STIM_004.jpg	100
2677.996	1.665	1664.8	generate	Run4	generate/STIM_004.jpg	99
2683.43	1.516	1515.6	generate	Run4	generate/STIM_005.jpg	99
2688.907	0.959	959.0	generate	Run4	generate/STIM_005.jpg	99
2693.257	1.805	1805.4	generate	Run4	generate/STIM_005.jpg	99
2697.956	1.063	1062.7	generate	Run4	generate/STIM_005.jpg	100
2702.657	1.424	1423.6	generate	Run4	generate/STIM_005.jpg	100
2707.907	1.89	1890.1	generate	Run4	generate/STIM_006.jpg	99
2712.923	0.978	978.4	generate	Run4	generate/STIM_006.jpg	100
2716.806	1.321	1321.1	generate	Run4	generate/STIM_006.jpg	99
2720.268	1.408	1408.0	generate	Run4	generate/STIM_006.jpg	100
2725.288	1.632	1632.1	generate	Run4	generate/STIM_006.jpg	100
2729.09	1.721	1721.1	generate	Run4	generate/STIM_007.jpg	100
2734.565	1.822	1821.9	generate	Run4	generate/STIM_007.jpg	100
2739.004	1.19	1189.8	generate	Run4	generate/STIM_007.jpg	99
2743.439	1.15	1149.9	generate	Run4	generate/STIM_007.jpg	100
2747.97	1.993	1993.3	generate	Run4	generate/STIM_007.jpg	100
2752.044	1.198	1197.8	generate	Run4	generate/STIM_008.jpg	99
2756.742	1.294	1294.3	generate	Run4	generate/STIM_008.jpg	99
2761.008	1.421	1420.6	generate	Run4	generate/STIM_008.jpg	100
2765.68	1.95	1949.7	generate	Run4	generate/STIM_008.jpg	99
2770.423	1.004	1004.0	generate	Run4	generate/STIM_008.jpg	99
2774.175	1.815	1814.9	generate	Run4	generate/STIM_009.jpg	99
2779.064	1.103	1103.3	generate	Run4	generate/STIM_009.jpg	99
2783.541	1.547	1546.6	generate	Run4	generate/STIM_009.jpg	99
2787.624	1.299	1299.0	generate	Run4	generate/STIM_009.jpg	100
2792.312	2.017	2017.1	generate	Run4	generate/STIM_009.jpg	99
2797.465	1.799	1799.2	generate	Run4	generate/STIM_010.jpg	99
2802.766	2.079	2078.8	generate	Run4	generate/STIM_010.jpg	100
2808.447	1.071	1070.8	generate	Run4	generate/STIM_010.jpg	99
2813.303	1.94	1940.5	generate	Run4	generate/STIM_010.jpg	99
2818.138	2.106	2106.4	generate	Run4	generate/STIM_010.jpg	99
2823.357	1.94	1940.2	generate	Run4	generate/STIM_011.jpg	99
2828.696	1.547	1547.0	generate	Run4	generate/STIM_011.jpg	99
2832.559	1.962	1961.7	generate	Run4	generate/STIM_011.jpg	100
2838.3	1.14	1140.2	generate	Run4	generate/STIM_011.jpg	100
2841.497	1.728	1728.5	generate	Run4	generate/STIM_011.jpg	99
2846.421	1.134	1134.2	generate	Run4	generate/STIM_012.jpg	100
2849.734	1.033	1032.7	generate	Run4	generate/STIM_012.jpg	99
2852.914	0.968	967.5	generate	Run4	generate/STIM_012.jpg	100
2857.081	1.148	1147.7	generate	Run4	generate/STIM_012.jpg	100
2861.042	1.294	1294.1	generate	Run4	generate/STIM_012.jpg	99
2864.629	1.582	1582.0	generate	Run4	generate/STIM_013.jpg	99
2868.443	1.766	1766.0	generate	Run4	generate/STIM_013.jpg	99
2873.986	1.239	1239.0	generate	Run4	generate/STIM_013.jpg	99
2878.637	2.04	2040.1	generate	Run4	generate/STIM_013.jpg	100
2882.745	1.466	1465.9	generate	Run4	generate/STIM_013.jpg	100
2887.274	1.566	1566.5	generate	Run4	generate/STIM_014.jpg	99
2892.714	1.503	1502.7	generate	Run4	generate/STIM_014.jpg	100
2897.585	1.4	1399.5	generate	Run4	generate/STIM_014.jpg	100
2901.905	0.902	902.3	generate	Run4	generate/STIM_014.jpg	100
2906.021	1.642	1641.6	generate	Run4	generate/STIM_014.jpg	100
2909.891	2.023	2023.2	generate	Run4	generate/STIM_015.jpg	99
2914.761	1.917	1917.0	generate	Run4	generate/STIM_015.jpg	99
2920.488	1.925	1925.2	generate	Run4	generate/STIM_015.jpg	100
2925.942	1.039	1038.9	generate	Run4	generate/STIM_015.jpg	100
2929.847	1.532	1532.3	generate	Run4	generate/STIM_015.jpg	100
2933.944	1.924	1924.2	generate	Run4	generate/STIM_016.jpg	99
2939.3	1.974	1974.1	generate	Run4	generate/STIM_016.jpg	100
2944.237	0.937	937.3	generate	Run4	generate/STIM_016.jpg	100
2947.621	1.412	1412.2	generate	Run4	generate/STIM_016.jpg	100
2951.722	1.421	1421.4	generate	Run4	generate/STIM_016.jpg	100
2955.563	1.099	1098.8	generate	Run4	generate/STIM_017.jpg	99
2960.053	1.501	1501.4	generate	Run4	generate/STIM_017.jpg	100
2964.946	0.914	914.4	generate	Run4	generate/STIM_017.jpg	100
2969.318	1.41	1410.0	generate	Run4	generate/STIM_017.jpg	99
2973.947	1.579	1579.3	generate	Run4	generate/STIM_017.jpg	100
2978.117	1.015	1014.7	generate	Run4	generate/STIM_018.jpg	99
2982.183	1.387	1387.0	generate	Run4	generate/STIM_018.jpg	100
2986.513	1.697	1697.4	generate	Run4	generate/STIM_018.jpg	99
2990.357	1.549	1549.0	generate	Run4	generate/STIM_018.jpg	100
2995.632	0.975	975.3	generate	Run4	generate/STIM_018.jpg	99
2999.287	1.573	1572.7	generate	Run4	generate/STIM_019.jpg	99
3004.621	1.436	1435.5	generate	Run4	generate/STIM_019.jpg	100
3008.864	1.003	1003.3	generate	Run4	generate/STIM_019.jpg	100
3012.87	1.74	1740.5	generate	Run4	generate/STIM_019.jpg	100
3017.467	1.149	1148.8	generate	Run4	generate/STIM_019.jpg	99
3021.202	0.874	873.9	generate	Run4	generate/STIM_020.jpg	99
3024.558	0.951	951.3	generate	Run4	generate/STIM_020.jpg	99
3028.556	1.43	1429.6	generate	Run4	generate/STIM_020.jpg	100
3032.236	1.112	1112.0	generate	Run4	generate/STIM_020.jpg	100
3035.568	1.976	1975.8	generate	Run4	generate/STIM_020.jpg	99
3041.21	1.222	1221.7	generate	Run4	generate/STIM_021.jpg	100
3045.732	1.63	1629.8	generate	Run4	generate/STIM_021.jpg	100
3050.996	1.514	1514.4	generate	Run4	generate/STIM_021.jpg	99
3054.51	2.001	2001.3	generate	Run4	generate/STIM_021.jpg	99
3060.326	1.31	1309.8	generate	Run4	generate/STIM_021.jpg	100
3064.371	1.38	1379.8	generate	Run4	generate/STIM_022.jpg	100
3069.533	1.878	1877.8	generate	Run4	generate/STIM_022.jpg	100
3074.737	1.383	1383.0	generate	Run4	generate/STIM_022.jpg	100
3079.272	0.904	903.9	generate	Run4	generate/STIM_022.jpg	99
3082.993	1.556	1555.6	generate	Run4	generate/STIM_022.jpg	99
3088.361	1.164	1163.8	generate	Run4	generate/STIM_023.jpg	100
3092.372	1.104	1104.1	generate	Run4	generate/STIM_023.jpg	100
3096.161	0.993	993.3	generate	Run4	generate/STIM_023.jpg	100
3100.517	1.101	1101.0	generate	Run4	generate/STIM_023.jpg	100
3104.947	1.386	1385.9	generate	Run4	generate/STIM_023.jpg	99
3108.482	1.493	1492.6	generate	Run4	generate/STIM_024.jpg	99
3112.057	0.819	818.9	generate	Run4	generate/STIM_024.jpg	100
3115.24	1.64	1639.6	generate	Run4	generate/STIM_024.jpg	100
3120.76	1.183	1183.1	generate	Run4	generate/STIM_024.jpg	99
3125.33	1.186	1185.9	generate	Run4	generate/STIM_024.jpg	99
3130.078	0.517	517.3	repeat	Run4	repeat/STIM_000.jpg	99
3132.769	0.701	701.2	repeat	Run4	repeat/STIM_000.jpg	100
3135.982	0.678	678.1	repeat	Run4	repeat/STIM_000.jpg	99
3140.471	0.483	482.7	repeat	Run4	repeat/STIM_000.jpg	99
3143.108	0.882	882.1	repeat	Run4	repeat/STIM_000.jpg	100
3146.764	0.88	879.6	repeat	Run4	repeat/STIM_001.jpg	100
3150.896	0.48	479.8	repeat	Run4	repeat/STIM_001.jpg	99
3154.77	0.743	743.3	repeat	Run4	repeat/STIM_001.jpg	100
3159.193	0.822	822.5	repeat	Run4	repeat/STIM_001.jpg	99
3162.184	0.72	719.7	repeat	Run4	repeat/STIM_001.jpg	99
3165.955	0.82	819.9	repeat	Run4	repeat/STIM_002.jpg	100
3169.361	0.682	681.7	repeat	Run4	repeat/STIM_002.jpg	100
3172.16	0.971	970.9	repeat	Run4	repeat/STIM_002.jpg	99
3175.679	0.68	680.5	repeat	Run4	repeat/STIM_002.jpg	100
3179.824	0.658	658.1	repeat	Run4	repeat/STIM_002.jpg	100
3183.731	0.884	884.2	repeat	Run4	repeat/STIM_003.jpg	100
3186.994	0.57	569.8	repeat	Run4	repeat/STIM_003.jpg	100
3190.554	0.64	639.5	repeat	Run4	repeat/STIM_003.jpg	100
3193.49	0.962	962.1	repeat	Run4	repeat/STIM_003.jpg	100
3197.64	0.713	713.3	repeat	Run4	repeat/STIM_003.jpg	99
3200.678	0.726	725.6	repeat	Run4	repeat/STIM_004.jpg	100
3204.912	0.663	663.3	repeat	Run4	repeat/STIM_004.jpg	100
3209.155	0.633	633.3	repeat	Run4	repeat/STIM_004.jpg	100
3212.557	0.736	736.3	repeat	Run4	repeat/STIM_004.jpg	100
3216.183	0.867	867.2	repeat	Run4	repeat/STIM_004.jpg	99
3219.979	0.849	848.9	repeat	Run4	repeat/STIM_005.jpg	99
3223.045	0.588	588.4	repeat	Run4	repeat/STIM_005.jpg	99
3226.236	0.567	567.0	repeat	Run4	repeat/STIM_005.jpg	99
3230.039	0.868	867.6	repeat	Run4	repeat/STIM_005.jpg	100
3234.303	0.548	548.4	repeat	Run4	repeat/STIM_005.jpg	99
3238.447	0.854	853.9	repeat	Run4	repeat/STIM_006.jpg	99
3241.405	0.75	749.6	repeat	Run4	repeat/STIM_006.jpg	99
3245.655	0.632	631.9	repeat	Run4	repeat/STIM_006.jpg	100
3248.781	0.824	824.2	repeat	Run4	repeat/STIM_006.jpg	100
3252.466	0.994	994.4	repeat	Run4	repeat/STIM_006.jpg	100
3256.59	1.024	1023.9	repeat	Run4	repeat/STIM_007.jpg	100
3259.832	0.558	558.5	repeat	Run4	repeat/STIM_007.jpg	99
3263.551	0.791	791.0	repeat	Run4	repeat/STIM_007.jpg	100
3266.426	0.654	654.1	repeat	Run4	repeat/STIM_007.jpg	100
3270.329	1.015	1014.7	repeat	Run4	repeat/STIM_007.jpg	99
3273.398	0.829	829.2	repeat	Run4	repeat/STIM_008.jpg	99
3276.847	0.519	519.2	repeat	Run4	repeat/STIM_008.jpg	100
3281.153	0.629	629.1	repeat	Run4	repeat/STIM_008.jpg	99
3284.081	0.517	516.9	repeat	Run4	repeat/STIM_008.jpg	99
3287.419	0.682	682.0	repeat	Run4	repeat/STIM_008.jpg	99
3290.287	0.599	598.9	repeat	Run4	repeat/STIM_009.jpg	99
3293.737	0.877	876.6	repeat	Run4	repeat/STIM_009.jpg	100
3298.424	0.56	560.4	repeat	Run4	repeat/STIM_009.jpg	100
3301.946	0.686	685.5	repeat	Run4	repeat/STIM_009.jpg	100
3306.03	0.893	893.2	repeat	Run4	repeat/STIM_009.jpg	99
3309.898	0.82	819.8	repeat	Run4	repeat/STIM_010.jpg	100
3313.34	0.826	826.2	repeat	Run4	repeat/STIM_010.jpg	100
3317.543	0.692	692.2	repeat	Run4	repeat/STIM_010.jpg	99
3320.486	0.932	931.5	repeat	Run4	repeat/STIM_010.jpg	100
3325.03	0.802	802.1	repeat	Run4	repeat/STIM_010.jpg	100
3328.517	0.885	884.7	repeat	Run4	repeat/STIM_011.jpg	100
3332.688	0.732	731.7	repeat	Run4	repeat/STIM_011.jpg	100
3336.169	0.562	561.9	repeat	Run4	repeat/STIM_011.jpg	100
3339.362	0.626	625.7	repeat	Run4	repeat/STIM_011.jpg	99
3342.92	0.877	877.4	repeat	Run4	repeat/STIM_011.jpg	99
3347.174	0.5	499.8	repeat	Run4	repeat/STIM_012.jpg	100
3351.662	0.706	706.0	repeat	Run4	repeat/STIM_012.jpg	100
3355.865	0.852	852.5	repeat	Run4	repeat/STIM_012.jpg	100
3358.955	0.625	625.4	repeat	Run4	repeat/STIM_012.jpg	99
3363.269	0.746	746.5	repeat	Run4	repeat/STIM_012.jpg	100
3366.74	0.699	699.3	repeat	Run4	repeat/STIM_013.jpg	99
3370.801	0.663	662.7	repeat	Run4	repeat/STIM_013.jpg	100
3375.295	0.64	640.3	repeat	Run4	repeat/STIM_013.jpg	99
3378.862	0.77	769.6	repeat	Run4	repeat/STIM_013.jpg	99
3383.491	0.667	667.3	repeat	Run4	repeat/STIM_013.jpg	99
3386.904	0.986	985.7	repeat	Run4	repeat/STIM_014.jpg	99
3390.459	0.718	717.7	repeat	Run4	repeat/STIM_014.jpg	99
3394.745	0.858	858.0	repeat	Run4	repeat/STIM_014.jpg	99
3398.443	0.802	802.3	repeat	Run4	repeat/STIM_014.jpg	99
3403.042	0.676	676.3	repeat	Run4	repeat/STIM_014.jpg	100
