onset	duration	accuracy_binary	trial_type	learning_stage	stimulus
0.0	2.868	1	generate	Run1	generate/STIM_000.jpg
5.303	2.168	1	generate	Run1	generate/STIM_000.jpg
9.801	2.107	1	generate	Run1	generate/STIM_000.jpg
15.745	1.921	1	generate	Run1	generate/STIM_000.jpg
21.223	1.364	1	generate	Run1	generate/STIM_000.jpg
25.433	3.277	1	generate	Run1	generate/STIM_001.jpg
31.81	1.714	1	generate	Run1	generate/STIM_001.jpg
36.135	2.407	1	generate	Run1	generate/STIM_001.jpg
42.044	2.178	1	generate	Run1	generate/STIM_001.jpg
46.793	2.278	1	generate	Run1	generate/STIM_001.jpg
52.586	2.22	0	generate	Run1	generate/STIM_002.jpg
57.405	2.958	0	generate	Run1	generate/STIM_002.jpg
62.585	2.726	1	generate	Run1	generate/STIM_002.jpg
68.268	1.742	1	generate	Run1	generate/STIM_002.jpg
73.402	1.898	0	generate	Run1	generate/STIM_002.jpg
78.929	2.684	1	generate	Run1	generate/STIM_003.jpg
83.955	3.0	1	generate	Run1	generate/STIM_003.jpg
90.237	2.72	1	generate	Run1	generate/STIM_003.jpg
96.363	1.213	1	generate	Run1	generate/STIM_003.jpg
100.12	2.633	1	generate	Run1	generate/STIM_003.jpg
105.264	1.843	1	generate	Run1	generate/STIM_004.jpg
109.271	1.701	0	generate	Run1	generate/STIM_004.jpg
114.562	2.558	1	generate	Run1	generate/STIM_004.jpg
119.528	2.489	1	generate	Run1	generate/STIM_004.jpg
124.988	2.478	1	generate	Run1	generate/STIM_004.jpg
131.167	2.061	1	generate	Run1	generate/STIM_005.jpg
135.502	2.043	0	generate	Run1	generate/STIM_005.jpg
140.86	1.48	1	generate	Run1	generate/STIM_005.jpg
145.794	1.719	1	generate	Run1	generate/STIM_005.jpg
150.31	2.346	1	generate	Run1	generate/STIM_005.jpg
155.206	2.384	1	generate	Run1	generate/STIM_006.jpg
159.949	2.292	1	generate	Run1	generate/STIM_006.jpg
165.886	2.563	1	generate	Run1	generate/STIM_006.jpg
171.863	2.311	1	generate	Run1	generate/STIM_006.jpg
176.337	1.266	1	generate	Run1	generate/STIM_006.jpg
180.693	2.987	1	generate	Run1	generate/STIM_007.jpg
186.51	2.85	1	generate	Run1	generate/STIM_007.jpg
192.199	1.602	0	generate	Run1	generate/STIM_007.jpg
196.878	2.641	1	generate	Run1	generate/STIM_007.jpg
201.555	2.483	1	generate	Run1	generate/STIM_007.jpg
207.956	2.202	1	generate	Run1	generate/STIM_008.jpg
213.2	1.7	0	generate	Run1	generate/STIM_008.jpg
217.41	2.604	0	generate	Run1	generate/STIM_008.jpg
223.594	1.522	1	generate	Run1	generate/STIM_008.jpg
228.358	1.834	1	generate	Run1	generate/STIM_008.jpg
232.95	3.119	1	generate	Run1	generate/STIM_009.jpg
239.852	1.38	1	generate	Run1	generate/STIM_009.jpg
244.651	1.303	1	generate	Run1	generate/STIM_009.jpg
248.035	2.684	1	generate	Run1	generate/STIM_009.jpg
253.87	1.742	1	generate	Run1	generate/STIM_009.jpg
259.554	1.77	1	generate	Run1	generate/STIM_010.jpg
264.573	3.029	1	generate	Run1	generate/STIM_010.jpg
271.249	1.288	0	generate	Run1	generate/STIM_010.jpg
274.72	1.188	1	generate	Run1	generate/STIM_010.jpg
279.776	1.602	1	generate	Run1	generate/STIM_010.jpg
284.032	1.966	1	generate	Run1	generate/STIM_011.jpg
288.414	1.782	1	generate	Run1	generate/STIM_011.jpg
293.061	2.196	1	generate	Run1	generate/STIM_011.jpg
297.344	2.398	0	generate	Run1	generate/STIM_011.jpg
301.844	1.933	1	generate	Run1	generate/STIM_011.jpg
306.144	1.435	1	generate	Run1	generate/STIM_012.jpg
309.78	1.596	1	generate	Run1	generate/STIM_012.jpg
313.405	1.419	0	generate	Run1	generate/STIM_012.jpg
317.907	2.727	1	generate	Run1	generate/STIM_012.jpg
324.394	2.356	1	generate	Run1	generate/STIM_012.jpg
330.611	1.951	0	generate	Run1	generate/STIM_013.jpg
334.73	2.406	1	generate	Run1	generate/STIM_013.jpg
340.721	1.867	1	generate	Run1	generate/STIM_013.jpg
346.26	2.428	0	generate	Run1	generate/STIM_013.jpg
352.213	1.298	1	generate	Run1	generate/STIM_013.jpg
357.39	3.185	0	generate	Run1	generate/STIM_014.jpg
363.71	2.78	1	generate	Run1	generate/STIM_014.jpg
369.776	2.854	1	generate	Run1	generate/STIM_014.jpg
375.555	2.006	1	generate	Run1	generate/STIM_014.jpg
380.569	2.476	1	generate	Run1	generate/STIM_014.jpg
386.82	1.548	1	generate	Run1	generate/STIM_015.jpg
391.902	3.194	1	generate	Run1	generate/STIM_015.jpg
398.46	2.684	0	generate	Run1	generate/STIM_015.jpg
403.465	2.744	0	generate	Run1	generate/STIM_015.jpg
408.385	1.877	1	generate	Run1	generate/STIM_015.jpg
414.122	1.716	1	generate	Run1	generate/STIM_016.jpg
418.876	2.331	0	generate	Run1	generate/STIM_016.jpg
424.839	1.39	1	generate	Run1	generate/STIM_016.jpg
429.852	1.912	0	generate	Run1	generate/STIM_016.jpg
433.812	2.254	0	generate	Run1	generate/STIM_016.jpg
439.68	1.365	1	generate	Run1	generate/STIM_017.jpg
443.479	2.313	1	generate	Run1	generate/STIM_017.jpg
448.494	2.732	0	generate	Run1	generate/STIM_017.jpg
454.511	2.28	1	generate	Run1	generate/STIM_017.jpg
460.492	1.626	1	generate	Run1	generate/STIM_017.jpg
464.664	1.652	1	generate	Run1	generate/STIM_018.jpg
469.968	2.777	1	generate	Run1	generate/STIM_018.jpg
476.713	2.846	0	generate	Run1	generate/STIM_018.jpg
481.732	1.158	1	generate	Run1	generate/STIM_018.jpg
485.558	2.636	1	generate	Run1	generate/STIM_018.jpg
490.626	2.771	1	generate	Run1	generate/STIM_019.jpg
495.454	2.475	1	generate	Run1	generate/STIM_019.jpg
500.074	1.23	0	generate	Run1	generate/STIM_019.jpg
503.818	2.361	1	generate	Run1	generate/STIM_019.jpg
509.127	2.302	1	generate	Run1	generate/STIM_019.jpg
513.822	2.641	1	generate	Run1	generate/STIM_020.jpg
519.879	1.756	1	generate	Run1	generate/STIM_020.jpg
525.248	2.521	1	generate	Run1	generate/STIM_020.jpg
531.622	2.25	0	generate	Run1	generate/STIM_020.jpg
537.023	1.365	1	generate	Run1	generate/STIM_020.jpg
541.309	2.162	1	generate	Run1	generate/STIM_021.jpg
546.903	2.076	1	generate	Run1	generate/STIM_021.jpg
551.583	1.701	0	generate	Run1	generate/STIM_021.jpg
555.787	2.797	1	generate	Run1	generate/STIM_021.jpg
560.879	1.123	1	generate	Run1	generate/STIM_021.jpg
565.172	2.069	1	generate	Run1	generate/STIM_022.jpg
570.419	3.065	0	generate	Run1	generate/STIM_022.jpg
577.12	1.834	1	generate	Run1	generate/STIM_022.jpg
582.414	2.494	0	generate	Run1	generate/STIM_022.jpg
588.82	2.686	1	generate	Run1	generate/STIM_022.jpg
594.123	2.341	1	generate	Run1	generate/STIM_023.jpg
600.441	2.591	1	generate	Run1	generate/STIM_023.jpg
606.638	2.549	1	generate	Run1	generate/STIM_023.jpg
612.977	2.191	1	generate	Run1	generate/STIM_023.jpg
618.619	2.343	1	generate	Run1	generate/STIM_023.jpg
624.18	1.945	1	generate	Run1	generate/STIM_024.jpg
629.605	1.684	0	generate	Run1	generate/STIM_024.jpg
633.432	2.372	1	generate	Run1	generate/STIM_024.jpg
638.432	2.552	1	generate	Run1	generate/STIM_024.jpg
644.188	1.417	1	generate	Run1	generate/STIM_024.jpg
647.989	0.586	1	repeat	Run1	repeat/STIM_000.jpg
651.038	0.739	1	repeat	Run1	repeat/STIM_000.jpg
655.503	0.907	1	repeat	Run1	repeat/STIM_000.jpg
659.644	0.906	1	repeat	Run1	repeat/STIM_000.jpg
663.941	1.062	1	repeat	Run1	repeat/STIM_000.jpg
668.136	1.097	1	repeat	Run1	repeat/STIM_001.jpg
671.762	0.946	1	repeat	Run1	repeat/STIM_001.jpg
676.136	0.756	1	repeat	Run1	repeat/STIM_001.jpg
679.492	0.73	1	repeat	Run1	repeat/STIM_001.jpg
683.787	1.0	1	repeat	Run1	repeat/STIM_001.jpg
688.031	1.098	1	repeat	Run1	repeat/STIM_002.jpg
693.055	0.667	1	repeat	Run1	repeat/STIM_002.jpg
695.908	0.686	1	repeat	Run1	repeat/STIM_002.jpg
700.024	0.749	1	repeat	Run1	repeat/STIM_002.jpg
703.014	1.081	1	repeat	Run1	repeat/STIM_002.jpg
707.731	0.716	1	repeat	Run1	repeat/STIM_003.jpg
710.583	1.105	1	repeat	Run1	repeat/STIM_003.jpg
714.599	0.618	1	repeat	Run1	repeat/STIM_003.jpg
717.782	0.63	1	repeat	Run1	repeat/STIM_003.jpg
720.473	0.82	1	repeat	Run1	repeat/STIM_003.jpg
723.774	1.032	1	repeat	Run1	repeat/STIM_004.jpg
727.875	0.844	1	repeat	Run1	repeat/STIM_004.jpg
732.022	0.759	1	repeat	Run1	repeat/STIM_004.jpg
736.671	0.72	1	repeat	Run1	repeat/STIM_004.jpg
741.363	1.009	1	repeat	Run1	repeat/STIM_004.jpg
746.117	0.848	0	repeat	Run1	repeat/STIM_005.jpg
749.715	1.08	1	repeat	Run1	repeat/STIM_005.jpg
753.453	0.815	1	repeat	Run1	repeat/STIM_005.jpg
757.559	0.979	1	repeat	Run1	repeat/STIM_005.jpg
761.034	0.936	1	repeat	Run1	repeat/STIM_005.jpg
765.933	0.62	1	repeat	Run1	repeat/STIM_006.jpg
770.342	0.891	1	repeat	Run1	repeat/STIM_006.jpg
773.88	0.802	1	repeat	Run1	repeat/STIM_006.jpg
776.962	0.898	1	repeat	Run1	repeat/STIM_006.jpg
780.314	0.997	1	repeat	Run1	repeat/STIM_006.jpg
784.345	0.575	1	repeat	Run1	repeat/STIM_007.jpg
787.537	0.756	1	repeat	Run1	repeat/STIM_007.jpg
791.498	0.664	1	repeat	Run1	repeat/STIM_007.jpg
795.78	0.99	1	repeat	Run1	repeat/STIM_007.jpg
798.869	0.917	1	repeat	Run1	repeat/STIM_007.jpg
803.491	0.901	1	repeat	Run1	repeat/STIM_008.jpg
807.403	0.972	1	repeat	Run1	repeat/STIM_008.jpg
812.304	1.096	1	repeat	Run1	repeat/STIM_008.jpg
815.433	0.714	1	repeat	Run1	repeat/STIM_008.jpg
819.65	0.98	1	repeat	Run1	repeat/STIM_008.jpg
824.598	0.681	1	repeat	Run1	repeat/STIM_009.jpg
828.413	0.655	1	repeat	Run1	repeat/STIM_009.jpg
831.282	0.783	1	repeat	Run1	repeat/STIM_009.jpg
835.319	0.695	1	repeat	Run1	repeat/STIM_009.jpg
839.888	0.973	1	repeat	Run1	repeat/STIM_009.jpg
843.503	1.026	1	repeat	Run1	repeat/STIM_010.jpg
846.971	0.967	1	repeat	Run1	repeat/STIM_010.jpg
850.459	0.612	1	repeat	Run1	repeat/STIM_010.jpg
854.553	0.988	1	repeat	Run1	repeat/STIM_010.jpg
858.831	0.587	1	repeat	Run1	repeat/STIM_010.jpg
863.082	1.052	0	repeat	Run1	repeat/STIM_011.jpg
866.782	0.766	1	repeat	Run1	repeat/STIM_011.jpg
870.483	0.7	1	repeat	Run1	repeat/STIM_011.jpg
874.291	0.885	1	repeat	Run1	repeat/STIM_011.jpg
878.311	1.018	1	repeat	Run1	repeat/STIM_011.jpg
882.267	0.577	1	repeat	Run1	repeat/STIM_012.jpg
885.395	1.057	1	repeat	Run1	repeat/STIM_012.jpg
888.635	0.798	1	repeat	Run1	repeat/STIM_012.jpg
891.495	0.576	1	repeat	Run1	repeat/STIM_012.jpg
895.226	0.735	1	repeat	Run1	repeat/STIM_012.jpg
898.77	0.942	1	repeat	Run1	repeat/STIM_013.jpg
902.816	0.733	1	repeat	Run1	repeat/STIM_013.jpg
906.892	0.699	1	repeat	Run1	repeat/STIM_013.jpg
911.197	1.036	1	repeat	Run1	repeat/STIM_013.jpg
915.483	0.686	1	repeat	Run1	repeat/STIM_013.jpg
919.884	0.658	1	repeat	Run1	repeat/STIM_014.jpg
923.621	0.835	1	repeat	Run1	repeat/STIM_014.jpg
927.383	0.644	1	repeat	Run1	repeat/STIM_014.jpg
930.474	0.766	1	repeat	Run1	repeat/STIM_014.jpg
934.051	0.586	1	repeat	Run1	repeat/STIM_014.jpg
938.124	2.454	1	generate	Run2	generate/STIM_000.jpg
944.164	1.385	1	generate	Run2	generate/STIM_000.jpg
948.164	2.302	1	generate	Run2	generate/STIM_000.jpg
952.523	1.588	1	generate	Run2	generate/STIM_000.jpg
956.568	2.085	1	generate	Run2	generate/STIM_000.jpg
962.443	2.407	0	generate	Run2	generate/STIM_001.jpg
968.141	1.898	1	generate	Run2	generate/STIM_001.jpg
972.431	1.06	1	generate	Run2	generate/STIM_001.jpg
976.143	1.74	1	generate	Run2	generate/STIM_001.jpg
980.516	1.631	1	generate	Run2	generate/STIM_001.jpg
984.376	1.726	1	generate	Run2	generate/STIM_002.jpg
989.371	1.991	0	generate	Run2	generate/STIM_002.jpg
993.932	1.165	1	generate	Run2	generate/STIM_002.jpg
998.697	1.539	1	generate	Run2	generate/STIM_002.jpg
1002.48	2.296	1	generate	Run2	generate/STIM_002.jpg
1007.038	1.9	1	generate	Run2	generate/STIM_003.jpg
1012.501	1.787	1	generate	Run2	generate/STIM_003.jpg
1016.513	2.393	1	generate	Run2	generate/STIM_003.jpg
1022.49	1.638	1	generate	Run2	generate/STIM_003.jpg
1026.568	1.112	1	generate	Run2	generate/STIM_003.jpg
1030.099	2.271	1	generate	Run2	generate/STIM_004.jpg
1035.822	1.245	1	generate	Run2	generate/STIM_004.jpg
1039.674	1.516	1	generate	Run2	generate/STIM_004.jpg
1043.281	1.082	0	generate	Run2	generate/STIM_004.jpg
1047.877	1.611	1	generate	Run2	generate/STIM_004.jpg
1052.398	2.122	1	generate	Run2	generate/STIM_005.jpg
1056.937	1.387	1	generate	Run2	generate/STIM_005.jpg
1062.293	1.586	0	generate	Run2	generate/STIM_005.jpg
1066.74	2.0	1	generate	Run2	generate/STIM_005.jpg
1072.575	1.122	1	generate	Run2	generate/STIM_005.jpg
1076.538	1.273	1	generate	Run2	generate/STIM_006.jpg
1080.559	2.253	1	generate	Run2	generate/STIM_006.jpg
1084.944	2.358	1	generate	Run2	generate/STIM_006.jpg
1090.091	2.154	1	generate	Run2	generate/STIM_006.jpg
1096.116	1.269	1	generate	Run2	generate/STIM_006.jpg
1100.905	2.556	1	generate	Run2	generate/STIM_007.jpg
1106.864	2.549	1	generate	Run2	generate/STIM_007.jpg
1112.606	1.876	1	generate	Run2	generate/STIM_007.jpg
1116.552	2.18	1	generate	Run2	generate/STIM_007.jpg
1121.613	2.302	1	generate	Run2	generate/STIM_007.jpg
1126.775	2.298	1	generate	Run2	generate/STIM_008.jpg
1131.852	1.499	1	generate	Run2	generate/STIM_008.jpg
1136.912	2.508	1	generate	Run2	generate/STIM_008.jpg
1142.43	1.577	1	generate	Run2	generate/STIM_008.jpg
1146.587	1.108	1	generate	Run2	generate/STIM_008.jpg
1151.015	2.863	0	generate	Run2	generate/STIM_009.jpg
1157.776	1.221	0	generate	Run2	generate/STIM_009.jpg
1162.124	1.678	1	generate	Run2	generate/STIM_009.jpg
1167.634	1.505	1	generate	Run2	generate/STIM_009.jpg
1172.495	1.342	1	generate	Run2	generate/STIM_009.jpg
1177.491	1.661	1	generate	Run2	generate/STIM_010.jpg
1182.569	1.807	1	generate	Run2	generate/STIM_010.jpg
1186.823	2.284	1	generate	Run2	generate/STIM_010.jpg
1193.074	2.193	1	generate	Run2	generate/STIM_010.jpg
1198.741	1.984	1	generate	Run2	generate/STIM_010.jpg
1204.142	1.826	0	generate	Run2	generate/STIM_011.jpg
1209.53	2.058	1	generate	Run2	generate/STIM_011.jpg
1215.158	2.115	1	generate	Run2	generate/STIM_011.jpg
1220.965	1.312	1	generate	Run2	generate/STIM_011.jpg
1225.32	1.704	1	generate	Run2	generate/STIM_011.jpg
1229.764	2.562	1	generate	Run2	generate/STIM_012.jpg
1235.2	1.147	1	generate	Run2	generate/STIM_012.jpg
1239.617	1.14	1	generate	Run2	generate/STIM_012.jpg
1244.347	1.92	1	generate	Run2	generate/STIM_012.jpg
1248.391	1.097	0	generate	Run2	generate/STIM_012.jpg
1251.869	2.645	0	generate	Run2	generate/STIM_013.jpg
1257.877	1.44	1	generate	Run2	generate/STIM_013.jpg
1262.208	1.71	1	generate	Run2	generate/STIM_013.jpg
1265.978	1.358	1	generate	Run2	generate/STIM_013.jpg
1269.856	1.284	1	generate	Run2	generate/STIM_013.jpg
1274.07	2.07	0	generate	Run2	generate/STIM_014.jpg
1280.079	1.486	1	generate	Run2	generate/STIM_014.jpg
1284.883	1.281	1	generate	Run2	generate/STIM_014.jpg
1288.294	2.017	0	generate	Run2	generate/STIM_014.jpg
1292.519	1.518	1	generate	Run2	generate/STIM_014.jpg
1296.247	2.033	1	generate	Run2	generate/STIM_015.jpg
1300.631	1.089	1	generate	Run2	generate/STIM_015.jpg
1304.18	1.422	1	generate	Run2	generate/STIM_015.jpg
1307.934	2.326	1	generate	Run2	generate/STIM_015.jpg
1312.552	1.904	1	generate	Run2	generate/STIM_015.jpg
1317.634	1.694	1	generate	Run2	generate/STIM_016.jpg
1322.122	2.085	1	generate	Run2	generate/STIM_016.jpg
1328.017	2.523	1	generate	Run2	generate/STIM_016.jpg
1332.564	1.592	0	generate	Run2	generate/STIM_016.jpg
1337.942	1.389	1	generate	Run2	generate/STIM_016.jpg
1342.915	2.627	1	generate	Run2	generate/STIM_017.jpg
1347.892	1.459	1	generate	Run2	generate/STIM_017.jpg
1351.502	1.442	1	generate	Run2	generate/STIM_017.jpg
1355.527	1.956	1	generate	Run2	generate/STIM_017.jpg
1360.626	2.083	1	generate	Run2	generate/STIM_017.jpg
1366.34	2.105	1	generate	Run2	generate/STIM_018.jpg
1370.909	1.746	0	generate	Run2	generate/STIM_018.jpg
1376.009	1.131	0	generate	Run2	generate/STIM_018.jpg
1379.262	1.576	1	generate	Run2	generate/STIM_018.jpg
1383.568	1.557	1	generate	Run2	generate/STIM_018.jpg
1387.453	1.862	1	generate	Run2	generate/STIM_019.jpg
1391.403	2.028	1	generate	Run2	generate/STIM_019.jpg
1396.273	1.396	1	generate	Run2	generate/STIM_019.jpg
1400.165	2.058	1	generate	Run2	generate/STIM_019.jpg
1405.166	1.819	0	generate	Run2	generate/STIM_019.jpg
1409.647	1.386	1	generate	Run2	generate/STIM_020.jpg
1414.828	1.579	1	generate	Run2	generate/STIM_020.jpg
1420.255	2.401	1	generate	Run2	generate/STIM_020.jpg
1424.924	1.52	1	generate	Run2	generate/STIM_020.jpg
1429.158	2.31	1	generate	Run2	generate/STIM_020.jpg
1433.932	1.302	1	generate	Run2	generate/STIM_021.jpg
1438.231	1.25	1	generate	Run2	generate/STIM_021.jpg
1441.503	1.201	1	generate	Run2	generate/STIM_021.jpg
1444.935	1.612	1	generate	Run2	generate/STIM_021.jpg
1449.355	2.143	1	generate	Run2	generate/STIM_021.jpg
1455.322	2.437	1	generate	Run2	generate/STIM_022.jpg
1460.433	1.589	1	generate	Run2	generate/STIM_022.jpg
1464.711	1.592	1	generate	Run2	generate/STIM_022.jpg
1468.864	1.952	1	generate	Run2	generate/STIM_022.jpg
1473.735	2.132	1	generate	Run2	generate/STIM_022.jpg
1477.952	2.796	1	generate	Run2	generate/STIM_023.jpg
1483.554	1.463	1	generate	Run2	generate/STIM_023.jpg
1487.782	2.496	1	generate	Run2	generate/STIM_023.jpg
1493.484	1.299	1	generate	Run2	generate/STIM_023.jpg
1496.791	1.668	1	generate	Run2	generate/STIM_023.jpg
1501.887	2.595	1	generate	Run2	generate/STIM_024.jpg
1508.165	2.638	1	generate	Run2	generate/STIM_024.jpg
1512.945	2.183	1	generate	Run2	generate/STIM_024.jpg
1517.471	1.467	1	generate	Run2	generate/STIM_024.jpg
1521.851	2.085	0	generate	Run2	generate/STIM_024.jpg
1526.681	0.585	1	repeat	Run2	repeat/STIM_000.jpg
1530.424	0.828	1	repeat	Run2	repeat/STIM_000.jpg
1534.074	1.1	1	repeat	Run2	repeat/STIM_000.jpg
1538.388	0.642	1	repeat	Run2	repeat/STIM_000.jpg
1542.192	1.073	1	repeat	Run2	repeat/STIM_000.jpg
1546.482	0.678	1	repeat	Run2	repeat/STIM_001.jpg
1549.556	0.691	1	repeat	Run2	repeat/STIM_001.jpg
1554.204	0.798	1	repeat	Run2	repeat/STIM_001.jpg
1558.233	0.708	1	repeat	Run2	repeat/STIM_001.jpg
1562.773	1.101	1	repeat	Run2	repeat/STIM_001.jpg
1566.611	0.714	1	repeat	Run2	repeat/STIM_002.jpg
1570.234	0.914	1	repeat	Run2	repeat/STIM_002.jpg
1573.838	1.048	1	repeat	Run2	repeat/STIM_002.jpg
1578.616	0.804	1	repeat	Run2	repeat/STIM_002.jpg
1581.774	1.093	1	repeat	Run2	repeat/STIM_002.jpg
1585.155	1.025	1	repeat	Run2	repeat/STIM_003.jpg
1590.014	0.579	1	repeat	Run2	repeat/STIM_003.jpg
1593.375	0.715	1	repeat	Run2	repeat/STIM_003.jpg
1596.129	1.021	1	repeat	Run2	repeat/STIM_003.jpg
1599.429	0.959	1	repeat	Run2	repeat/STIM_003.jpg
1603.173	0.798	1	repeat	Run2	repeat/STIM_004.jpg
1606.987	0.659	1	repeat	Run2	repeat/STIM_004.jpg
1609.754	0.691	1	repeat	Run2	repeat/STIM_004.jpg
1612.891	0.682	1	repeat	Run2	repeat/STIM_004.jpg
1617.323	1.106	1	repeat	Run2	repeat/STIM_004.jpg
1620.783	0.893	1	repeat	Run2	repeat/STIM_005.jpg
1625.673	0.778	1	repeat	Run2	repeat/STIM_005.jpg
1628.551	0.715	1	repeat	Run2	repeat/STIM_005.jpg
1631.793	0.906	1	repeat	Run2	repeat/STIM_005.jpg
1635.175	0.789	1	repeat	Run2	repeat/STIM_005.jpg
1639.083	0.696	1	repeat	Run2	repeat/STIM_006.jpg
1642.615	0.856	1	repeat	Run2	repeat/STIM_006.jpg
1647.007	0.835	1	repeat	Run2	repeat/STIM_006.jpg
1651.483	0.644	1	repeat	Run2	repeat/STIM_006.jpg
1655.858	0.982	1	repeat	Run2	repeat/STIM_006.jpg
1659.501	1.011	1	repeat	Run2	repeat/STIM_007.jpg
1663.873	0.999	1	repeat	Run2	repeat/STIM_007.jpg
1668.842	0.918	1	repeat	Run2	repeat/STIM_007.jpg
1673.504	0.976	1	repeat	Run2	repeat/STIM_007.jpg
1677.22	0.564	1	repeat	Run2	repeat/STIM_007.jpg
1681.256	0.796	0	repeat	Run2	repeat/STIM_008.jpg
1685.44	0.788	1	repeat	Run2	repeat/STIM_008.jpg
1689.132	0.679	1	repeat	Run2	repeat/STIM_008.jpg
1692.429	1.066	1	repeat	Run2	repeat/STIM_008.jpg
1697.163	0.743	0	repeat	Run2	repeat/STIM_008.jpg
1700.151	0.619	1	repeat	Run2	repeat/STIM_009.jpg
1704.199	0.952	1	repeat	Run2	repeat/STIM_009.jpg
1707.21	0.95	1	repeat	Run2	repeat/STIM_009.jpg
1711.316	0.74	1	repeat	Run2	repeat/STIM_009.jpg
1715.134	1.039	1	repeat	Run2	repeat/STIM_009.jpg
1718.29	0.874	1	repeat	Run2	repeat/STIM_010.jpg
1722.016	0.959	1	repeat	Run2	repeat/STIM_010.jpg
1726.887	0.782	1	repeat	Run2	repeat/STIM_010.jpg
1730.452	0.717	1	repeat	Run2	repeat/STIM_010.jpg
1733.733	0.741	1	repeat	Run2	repeat/STIM_010.jpg
1737.076	0.781	1	repeat	Run2	repeat/STIM_011.jpg
1740.729	0.699	0	repeat	Run2	repeat/STIM_011.jpg
1743.693	1.122	1	repeat	Run2	repeat/STIM_011.jpg
1748.175	0.834	1	repeat	Run2	repeat/STIM_011.jpg
1752.333	0.899	1	repeat	Run2	repeat/STIM_011.jpg
1756.057	0.909	1	repeat	Run2	repeat/STIM_012.jpg
1760.646	0.882	1	repeat	Run2	repeat/STIM_012.jpg
1764.306	0.586	1	repeat	Run2	repeat/STIM_012.jpg
1768.752	1.036	1	repeat	Run2	repeat/STIM_012.jpg
1772.307	0.61	1	repeat	Run2	repeat/STIM_012.jpg
1775.131	0.653	1	repeat	Run2	repeat/STIM_013.jpg
1779.131	0.69	1	repeat	Run2	repeat/STIM_013.jpg
1782.195	0.745	1	repeat	Run2	repeat/STIM_013.jpg
1785.045	0.853	1	repeat	Run2	repeat/STIM_013.jpg
1788.773	0.658	1	repeat	Run2	repeat/STIM_013.jpg
1792.215	0.952	1	repeat	Run2	repeat/STIM_014.jpg
1796.101	0.982	1	repeat	Run2	repeat/STIM_014.jpg
1799.388	0.924	1	repeat	Run2	repeat/STIM_014.jpg
1803.77	0.574	1	repeat	Run2	repeat/STIM_014.jpg
1806.983	0.695	1	repeat	Run2	repeat/STIM_014.jpg
1810.679	2.072	1	generate	Run3	generate/STIM_000.jpg
1815.101	1.713	1	generate	Run3	generate/STIM_000.jpg
1818.839	1.204	1	generate	Run3	generate/STIM_000.jpg
1822.848	1.848	1	generate	Run3	generate/STIM_000.jpg
1826.956	1.621	1	generate	Run3	generate/STIM_000.jpg
1832.48	1.936	1	generate	Run3	generate/STIM_001.jpg
1837.729	2.279	0	generate	Run3	generate/STIM_001.jpg
1843.27	1.396	1	generate	Run3	generate/STIM_001.jpg
1848.181	1.682	1	generate	Run3	generate/STIM_001.jpg
1853.709	2.03	1	generate	Run3	generate/STIM_001.jpg
1859.561	1.72	1	generate	Run3	generate/STIM_002.jpg
1865.088	1.854	1	generate	Run3	generate/STIM_002.jpg
1870.064	2.193	1	generate	Run3	generate/STIM_002.jpg
1875.024	1.525	1	generate	Run3	generate/STIM_002.jpg
1879.372	2.021	1	generate	Run3	generate/STIM_002.jpg
1884.405	1.992	1	generate	Run3	generate/STIM_003.jpg
1889.71	1.402	1	generate	Run3	generate/STIM_003.jpg
1893.28	0.956	1	generate	Run3	generate/STIM_003.jpg
1897.167	1.361	1	generate	Run3	generate/STIM_003.jpg
1901.619	1.853	1	generate	Run3	generate/STIM_003.jpg
1906.433	2.231	1	generate	Run3	generate/STIM_004.jpg
1911.781	1.406	1	generate	Run3	generate/STIM_004.jpg
1915.393	1.805	1	generate	Run3	generate/STIM_004.jpg
1920.128	2.115	1	generate	Run3	generate/STIM_004.jpg
1924.632	1.848	1	generate	Run3	generate/STIM_004.jpg
1929.578	0.983	1	generate	Run3	generate/STIM_005.jpg
1934.476	1.377	1	generate	Run3	generate/STIM_005.jpg
1939.687	2.173	1	generate	Run3	generate/STIM_005.jpg
1944.881	1.282	1	generate	Run3	generate/STIM_005.jpg
1949.284	1.598	1	generate	Run3	generate/STIM_005.jpg
1954.167	1.738	1	generate	Run3	generate/STIM_006.jpg
1959.576	2.352	0	generate	Run3	generate/STIM_006.jpg
1963.965	1.236	1	generate	Run3	generate/STIM_006.jpg
1968.151	2.097	1	generate	Run3	generate/STIM_006.jpg
1973.871	1.066	1	generate	Run3	generate/STIM_006.jpg
1977.894	1.377	1	generate	Run3	generate/STIM_007.jpg
1982.99	1.768	1	generate	Run3	generate/STIM_007.jpg
1987.6	2.115	1	generate	Run3	generate/STIM_007.jpg
1992.151	2.123	1	generate	Run3	generate/STIM_007.jpg
1996.749	2.174	0	generate	Run3	generate/STIM_007.jpg
2001.933	1.051	1	generate	Run3	generate/STIM_008.jpg
2006.802	1.192	1	generate	Run3	generate/STIM_008.jpg
2011.195	1.948	1	generate	Run3	generate/STIM_008.jpg
2015.908	1.599	1	generate	Run3	generate/STIM_008.jpg
2020.572	2.357	1	generate	Run3	generate/STIM_008.jpg
2025.268	2.03	1	generate	Run3	generate/STIM_009.jpg
2030.215	1.698	1	generate	Run3	generate/STIM_009.jpg
2035.343	1.574	1	generate	Run3	generate/STIM_009.jpg
2039.311	1.633	1	generate	Run3	generate/STIM_009.jpg
2044.752	2.27	1	generate	Run3	generate/STIM_009.jpg
2050.761	1.303	0	generate	Run3	generate/STIM_010.jpg
2055.571	2.026	1	generate	Run3	generate/STIM_010.jpg
2060.638	2.326	0	generate	Run3	generate/STIM_010.jpg
2066.133	0.973	1	generate	Run3	generate/STIM_010.jpg
2071.081	2.072	1	generate	Run3	generate/STIM_010.jpg
2076.017	1.9	1	generate	Run3	generate/STIM_011.jpg
2081.311	2.144	0	generate	Run3	generate/STIM_011.jpg
2085.808	1.837	1	generate	Run3	generate/STIM_011.jpg
2091.49	1.124	1	generate	Run3	generate/STIM_011.jpg
2095.888	2.246	1	generate	Run3	generate/STIM_011.jpg
2101.355	1.696	1	generate	Run3	generate/STIM_012.jpg
2106.563	1.032	1	generate	Run3	generate/STIM_012.jpg
2111.069	1.421	1	generate	Run3	generate/STIM_012.jpg
2115.678	1.186	1	generate	Run3	generate/STIM_012.jpg
2120.647	2.302	1	generate	Run3	generate/STIM_012.jpg
2126.098	0.947	1	generate	Run3	generate/STIM_013.jpg
2129.445	1.222	1	generate	Run3	generate/STIM_013.jpg
2132.726	1.376	1	generate	Run3	generate/STIM_013.jpg
2136.478	1.396	1	generate	Run3	generate/STIM_013.jpg
2140.619	2.317	1	generate	Run3	generate/STIM_013.jpg
2144.996	1.049	1	generate	Run3	generate/STIM_014.jpg
2148.966	2.175	1	generate	Run3	generate/STIM_014.jpg
2153.662	1.734	1	generate	Run3	generate/STIM_014.jpg
2159.217	1.355	1	generate	Run3	generate/STIM_014.jpg
2163.11	2.27	1	generate	Run3	generate/STIM_014.jpg
2168.315	0.95	1	generate	Run3	generate/STIM_015.jpg
2172.226	1.436	1	generate	Run3	generate/STIM_015.jpg
2176.449	2.332	1	generate	Run3	generate/STIM_015.jpg
2181.833	1.475	0	generate	Run3	generate/STIM_015.jpg
2187.152	1.369	1	generate	Run3	generate/STIM_015.jpg
2191.118	1.418	1	generate	Run3	generate/STIM_016.jpg
2194.792	1.296	1	generate	Run3	generate/STIM_016.jpg
2199.703	2.338	1	generate	Run3	generate/STIM_016.jpg
2204.563	2.342	1	generate	Run3	generate/STIM_016.jpg
2209.298	1.603	1	generate	Run3	generate/STIM_016.jpg
2214.529	1.455	1	generate	Run3	generate/STIM_017.jpg
2218.466	1.996	1	generate	Run3	generate/STIM_017.jpg
2223.462	2.068	1	generate	Run3	generate/STIM_017.jpg
2228.176	0.968	1	generate	Run3	generate/STIM_017.jpg
2232.677	0.997	1	generate	Run3	generate/STIM_017.jpg
2236.205	1.586	1	generate	Run3	generate/STIM_018.jpg
2240.648	1.947	1	generate	Run3	generate/STIM_018.jpg
2244.659	2.094	1	generate	Run3	generate/STIM_018.jpg
2249.351	2.064	1	generate	Run3	generate/STIM_018.jpg
2255.239	1.088	1	generate	Run3	generate/STIM_018.jpg
2258.871	2.294	1	generate	Run3	generate/STIM_019.jpg
2263.516	1.423	1	generate	Run3	generate/STIM_019.jpg
2268.93	1.375	1	generate	Run3	generate/STIM_019.jpg
2272.859	2.063	1	generate	Run3	generate/STIM_019.jpg
2277.053	1.989	1	generate	Run3	generate/STIM_019.jpg
2281.864	1.986	1	generate	Run3	generate/STIM_020.jpg
2285.882	2.157	1	generate	Run3	generate/STIM_020.jpg
2290.767	1.309	1	generate	Run3	generate/STIM_020.jpg
2295.949	1.529	1	generate	Run3	generate/STIM_020.jpg
2300.434	2.293	1	generate	Run3	generate/STIM_020.jpg
2305.313	2.3	1	generate	Run3	generate/STIM_021.jpg
2310.697	2.053	1	generate	Run3	generate/STIM_021.jpg
2316.121	2.276	1	generate	Run3	generate/STIM_021.jpg
2320.918	2.178	1	generate	Run3	generate/STIM_021.jpg
2327.009	1.967	1	generate	Run3	generate/STIM_021.jpg
2332.323	2.091	1	generate	Run3	generate/STIM_022.jpg
2337.793	1.449	1	generate	Run3	generate/STIM_022.jpg
2343.227	2.148	1	generate	Run3	generate/STIM_022.jpg
2348.777	1.382	0	generate	Run3	generate/STIM_022.jpg
2352.283	1.912	1	generate	Run3	generate/STIM_022.jpg
2357.061	1.816	1	generate	Run3	generate/STIM_023.jpg
2362.267	1.615	1	generate	Run3	generate/STIM_023.jpg
2367.879	2.292	1	generate	Run3	generate/STIM_023.jpg
2374.054	2.068	1	generate	Run3	generate/STIM_023.jpg
2379.258	1.435	1	generate	Run3	generate/STIM_023.jpg
2384.15	1.033	1	generate	Run3	generate/STIM_024.jpg
2387.468	1.441	1	generate	Run3	generate/STIM_024.jpg
2392.588	1.597	1	generate	Run3	generate/STIM_024.jpg
2396.459	1.478	1	generate	Run3	generate/STIM_024.jpg
2400.457	1.519	1	generate	Run3	generate/STIM_024.jpg
2404.564	0.9	1	repeat	Run3	repeat/STIM_000.jpg
2407.696	0.628	1	repeat	Run3	repeat/STIM_000.jpg
2410.536	0.846	1	repeat	Run3	repeat/STIM_000.jpg
2415.278	1.014	1	repeat	Run3	repeat/STIM_000.jpg
2420.033	1.097	1	repeat	Run3	repeat/STIM_000.jpg
2423.95	0.897	1	repeat	Run3	repeat/STIM_001.jpg
2428.782	0.732	1	repeat	Run3	repeat/STIM_001.jpg
2431.989	0.941	1	repeat	Run3	repeat/STIM_001.jpg
2435.442	1.016	0	repeat	Run3	repeat/STIM_001.jpg
2439.072	0.756	1	repeat	Run3	repeat/STIM_001.jpg
2442.512	0.686	0	repeat	Run3	repeat/STIM_002.jpg
2446.841	0.83	1	repeat	Run3	repeat/STIM_002.jpg
2451.303	1.099	1	repeat	Run3	repeat/STIM_002.jpg
2455.135	0.775	0	repeat	Run3	repeat/STIM_002.jpg
2459.777	0.919	1	repeat	Run3	repeat/STIM_002.jpg
2463.881	0.747	1	repeat	Run3	repeat/STIM_003.jpg
2467.301	1.107	1	repeat	Run3	repeat/STIM_003.jpg
2471.908	0.638	1	repeat	Run3	repeat/STIM_003.jpg
2475.313	1.069	1	repeat	Run3	repeat/STIM_003.jpg
2478.827	1.112	1	repeat	Run3	repeat/STIM_003.jpg
2482.308	1.051	1	repeat	Run3	repeat/STIM_004.jpg
2486.237	0.699	1	repeat	Run3	repeat/STIM_004.jpg
2489.433	0.863	1	repeat	Run3	repeat/STIM_004.jpg
2493.772	0.759	1	repeat	Run3	repeat/STIM_004.jpg
2497.805	0.563	1	repeat	Run3	repeat/STIM_004.jpg
2501.445	0.882	1	repeat	Run3	repeat/STIM_005.jpg
2505.717	0.619	1	repeat	Run3	repeat/STIM_005.jpg
2508.838	0.564	1	repeat	Run3	repeat/STIM_005.jpg
2511.902	0.586	1	repeat	Run3	repeat/STIM_005.jpg
2516.27	0.828	1	repeat	Run3	repeat/STIM_005.jpg
2519.781	0.766	0	repeat	Run3	repeat/STIM_006.jpg
2523.927	0.771	1	repeat	Run3	repeat/STIM_006.jpg
2527.333	0.915	1	repeat	Run3	repeat/STIM_006.jpg
2531.011	0.891	1	repeat	Run3	repeat/STIM_006.jpg
2535.772	0.727	1	repeat	Run3	repeat/STIM_006.jpg
2539.845	0.804	1	repeat	Run3	repeat/STIM_007.jpg
2544.072	0.645	0	repeat	Run3	repeat/STIM_007.jpg
2548.506	0.987	1	repeat	Run3	repeat/STIM_007.jpg
2552.023	1.036	1	repeat	Run3	repeat/STIM_007.jpg
2555.093	0.817	1	repeat	Run3	repeat/STIM_007.jpg
2559.25	1.123	1	repeat	Run3	repeat/STIM_008.jpg
2563.681	0.566	1	repeat	Run3	repeat/STIM_008.jpg
2567.64	0.768	1	repeat	Run3	repeat/STIM_008.jpg
2572.327	0.932	1	repeat	Run3	repeat/STIM_008.jpg
2576.3	0.79	1	repeat	Run3	repeat/STIM_008.jpg
2579.412	0.964	1	repeat	Run3	repeat/STIM_009.jpg
2584.217	0.871	1	repeat	Run3	repeat/STIM_009.jpg
2588.396	0.719	1	repeat	Run3	repeat/STIM_009.jpg
2592.772	0.835	1	repeat	Run3	repeat/STIM_009.jpg
2596.526	0.886	1	repeat	Run3	repeat/STIM_009.jpg
2599.803	0.984	1	repeat	Run3	repeat/STIM_010.jpg
2603.193	1.116	1	repeat	Run3	repeat/STIM_010.jpg
2606.826	0.575	1	repeat	Run3	repeat/STIM_010.jpg
2610.81	0.778	1	repeat	Run3	repeat/STIM_010.jpg
2614.35	1.076	1	repeat	Run3	repeat/STIM_010.jpg
2618.154	0.648	0	repeat	Run3	repeat/STIM_011.jpg
2620.994	0.838	1	repeat	Run3	repeat/STIM_011.jpg
2623.924	1.11	1	repeat	Run3	repeat/STIM_011.jpg
2628.939	0.907	1	repeat	Run3	repeat/STIM_011.jpg
2631.997	0.72	1	repeat	Run3	repeat/STIM_011.jpg
2635.834	0.749	1	repeat	Run3	repeat/STIM_012.jpg
2640.548	1.035	1	repeat	Run3	repeat/STIM_012.jpg
2645.255	0.758	1	repeat	Run3	repeat/STIM_012.jpg
2648.924	0.606	1	repeat	Run3	repeat/STIM_012.jpg
2653.437	1.047	1	repeat	Run3	repeat/STIM_012.jpg
2657.979	0.705	1	repeat	Run3	repeat/STIM_013.jpg
2661.532	0.861	1	repeat	Run3	repeat/STIM_013.jpg
2665.11	0.923	1	repeat	Run3	repeat/STIM_013.jpg
2668.361	0.888	1	repeat	Run3	repeat/STIM_013.jpg
2672.35	0.605	1	repeat	Run3	repeat/STIM_013.jpg
2675.591	1.078	1	repeat	Run3	repeat/STIM_014.jpg
2679.721	0.921	1	repeat	Run3	repeat/STIM_014.jpg
2684.407	0.842	1	repeat	Run3	repeat/STIM_014.jpg
2688.582	0.689	1	repeat	Run3	repeat/STIM_014.jpg
2691.398	1.078	1	repeat	Run3	repeat/STIM_014.jpg
2695.523	1.2	1	generate	Run4	generate/STIM_000.jpg
2700.153	2.001	1	generate	Run4	generate/STIM_000.jpg
2704.168	1.791	1	generate	Run4	generate/STIM_000.jpg
2709.755	2.178	1	generate	Run4	generate/STIM_000.jpg
2715.014	1.758	1	generate	Run4	generate/STIM_000.jpg
2719.655	2.284	1	generate	Run4	generate/STIM_001.jpg
2724.672	0.954	1	generate	Run4	generate/STIM_001.jpg
2728.745	1.098	1	generate	Run4	generate/STIM_001.jpg
2732.302	1.0	1	generate	Run4	generate/STIM_001.jpg
2735.628	1.937	1	generate	Run4	generate/STIM_001.jpg
2740.03	1.164	1	generate	Run4	generate/STIM_002.jpg
2743.354	2.109	1	generate	Run4	generate/STIM_002.jpg
2749.132	2.192	1	generate	Run4	generate/STIM_002.jpg
2754.472	1.26	0	generate	Run4	generate/STIM_002.jpg
2758.007	1.835	1	generate	Run4	generate/STIM_002.jpg
2763.427	2.338	1	generate	Run4	generate/STIM_003.jpg
2768.542	1.565	1	generate	Run4	generate/STIM_003.jpg
2773.359	1.943	1	generate	Run4	generate/STIM_003.jpg
2778.974	2.096	1	generate	Run4	generate/STIM_003.jpg
2785.062	2.107	1	generate	Run4	generate/STIM_003.jpg
2789.647	2.176	1	generate	Run4	generate/STIM_004.jpg
2795.591	2.322	1	generate	Run4	generate/STIM_004.jpg
2801.848	1.461	1	generate	Run4	generate/STIM_004.jpg
2806.701	1.494	1	generate	Run4	generate/STIM_004.jpg
2812.098	2.351	1	generate	Run4	generate/STIM_004.jpg
2817.947	1.416	0	generate	Run4	generate/STIM_005.jpg
2823.13	1.643	1	generate	Run4	generate/STIM_005.jpg
2828.13	2.249	1	generate	Run4	generate/STIM_005.jpg
2833.457	1.665	1	generate	Run4	generate/STIM_005.jpg
2837.196	1.794	1	generate	Run4	generate/STIM_005.jpg
2841.771	1.686	1	generate	Run4	generate/STIM_006.jpg
2846.807	2.122	1	generate	Run4	generate/STIM_006.jpg
2851.82	1.358	1	generate	Run4	generate/STIM_006.jpg
2855.494	1.974	1	generate	Run4	generate/STIM_006.jpg
2860.913	1.843	1	generate	Run4	generate/STIM_006.jpg
2865.76	2.236	1	generate	Run4	generate/STIM_007.jpg
2870.214	1.333	1	generate	Run4	generate/STIM_007.jpg
2873.919	1.468	1	generate	Run4	generate/STIM_007.jpg
2878.233	1.61	1	generate	Run4	generate/STIM_007.jpg
2883.477	1.935	1	generate	Run4	generate/STIM_007.jpg
2887.651	2.313	1	generate	Run4	generate/STIM_008.jpg
2893.178	1.501	1	generate	Run4	generate/STIM_008.jpg
2898.138	1.284	1	generate	Run4	generate/STIM_008.jpg
2901.664	2.05	1	generate	Run4	generate/STIM_008.jpg
2907.654	2.126	1	generate	Run4	generate/STIM_008.jpg
2912.139	1.475	1	generate	Run4	generate/STIM_009.jpg
2916.948	1.279	1	generate	Run4	generate/STIM_009.jpg
2920.575	2.195	1	generate	Run4	generate/STIM_009.jpg
2926.001	1.128	1	generate	Run4	generate/STIM_009.jpg
2929.758	1.926	1	generate	Run4	generate/STIM_009.jpg
2935.187	2.08	1	generate	Run4	generate/STIM_010.jpg
2941.124	2.354	1	generate	Run4	generate/STIM_010.jpg
2947.409	1.474	1	generate	Run4	generate/STIM_010.jpg
2952.544	1.959	1	generate	Run4	generate/STIM_010.jpg
2956.622	2.157	1	generate	Run4	generate/STIM_010.jpg
2962.627	2.339	1	generate	Run4	generate/STIM_011.jpg
2967.763	1.386	1	generate	Run4	generate/STIM_011.jpg
2972.932	1.338	1	generate	Run4	generate/STIM_011.jpg
2978.166	2.035	1	generate	Run4	generate/STIM_011.jpg
2983.136	1.949	1	generate	Run4	generate/STIM_011.jpg
2988.747	2.24	0	generate	Run4	generate/STIM_012.jpg
2993.701	1.332	1	generate	Run4	generate/STIM_012.jpg
2997.766	1.52	1	generate	Run4	generate/STIM_012.jpg
3002.106	1.281	1	generate	Run4	generate/STIM_012.jpg
3006.126	1.084	1	generate	Run4	generate/STIM_012.jpg
3009.449	2.342	1	generate	Run4	generate/STIM_013.jpg
3014.532	1.282	1	generate	Run4	generate/STIM_013.jpg
3019.046	1.001	1	generate	Run4	generate/STIM_013.jpg
3023.399	2.07	1	generate	Run4	generate/STIM_013.jpg
3028.101	1.696	1	generate	Run4	generate/STIM_013.jpg
3031.95	2.006	1	generate	Run4	generate/STIM_014.jpg
3036.564	1.896	1	generate	Run4	generate/STIM_014.jpg
3040.854	1.105	1	generate	Run4	generate/STIM_014.jpg
3045.728	1.767	1	generate	Run4	generate/STIM_014.jpg
3051.07	1.826	1	generate	Run4	generate/STIM_014.jpg
3055.711	1.564	1	generate	Run4	generate/STIM_015.jpg
3061.123	2.225	1	generate	Run4	generate/STIM_015.jpg
3066.824	1.847	1	generate	Run4	generate/STIM_015.jpg
3072.548	1.835	1	generate	Run4	generate/STIM_015.jpg
3077.672	1.868	1	generate	Run4	generate/STIM_015.jpg
3083.483	1.085	1	generate	Run4	generate/STIM_016.jpg
3086.714	1.408	1	generate	Run4	generate/STIM_016.jpg
3091.238	1.072	1	generate	Run4	generate/STIM_016.jpg
3095.723	1.986	1	generate	Run4	generate/STIM_016.jpg
3100.374	1.977	1	generate	Run4	generate/STIM_016.jpg
3105.181	1.745	1	generate	Run4	generate/STIM_017.jpg
3110.137	1.52	1	generate	Run4	generate/STIM_017.jpg
3114.3	2.225	1	generate	Run4	generate/STIM_017.jpg
3119.659	1.097	1	generate	Run4	generate/STIM_017.jpg
3123.817	1.508	1	generate	Run4	generate/STIM_017.jpg
3128.432	1.678	1	generate	Run4	generate/STIM_018.jpg
3132.905	1.14	1	generate	Run4	generate/STIM_018.jpg
3137.811	1.858	1	generate	Run4	generate/STIM_018.jpg
3142.684	1.413	1	generate	Run4	generate/STIM_018.jpg
3147.417	1.451	1	generate	Run4	generate/STIM_018.jpg
3152.458	1.904	1	generate	Run4	generate/STIM_019.jpg
3157.386	1.791	1	generate	Run4	generate/STIM_019.jpg
3161.55	2.294	1	generate	Run4	generate/STIM_019.jpg
3167.062	1.716	1	generate	Run4	generate/STIM_019.jpg
3171.882	1.544	1	generate	Run4	generate/STIM_019.jpg
3176.279	2.265	1	generate	Run4	generate/STIM_020.jpg
3181.628	1.021	1	generate	Run4	generate/STIM_020.jpg
3185.508	1.062	1	generate	Run4	generate/STIM_020.jpg
3190.237	1.162	1	generate	Run4	generate/STIM_020.jpg
3193.73	1.736	1	generate	Run4	generate/STIM_020.jpg
3198.822	1.767	1	generate	Run4	generate/STIM_021.jpg
3204.415	2.067	1	generate	Run4	generate/STIM_021.jpg
3210.297	2.226	1	generate	Run4	generate/STIM_021.jpg
3216.105	1.904	1	generate	Run4	generate/STIM_021.jpg
3220.811	1.733	1	generate	Run4	generate/STIM_021.jpg
3225.902	2.29	1	generate	Run4	generate/STIM_022.jpg
3230.711	1.654	1	generate	Run4	generate/STIM_022.jpg
3236.277	1.323	1	generate	Run4	generate/STIM_022.jpg
3240.842	1.681	1	generate	Run4	generate/STIM_022.jpg
3245.886	1.008	1	generate	Run4	generate/STIM_022.jpg
3249.338	2.186	1	generate	Run4	generate/STIM_023.jpg
3254.542	2.147	1	generate	Run4	generate/STIM_023.jpg
3260.479	2.088	1	generate	Run4	generate/STIM_023.jpg
3265.762	1.854	1	generate	Run4	generate/STIM_023.jpg
3269.942	2.17	1	generate	Run4	generate/STIM_023.jpg
3274.84	1.057	1	generate	Run4	generate/STIM_024.jpg
3279.883	1.428	1	generate	Run4	generate/STIM_024.jpg
3283.905	1.864	1	generate	Run4	generate/STIM_024.jpg
3288.9	2.136	1	generate	Run4	generate/STIM_024.jpg
3293.138	1.665	1	generate	Run4	generate/STIM_024.jpg
3297.165	0.719	1	repeat	Run4	repeat/STIM_000.jpg
3300.647	0.759	1	repeat	Run4	repeat/STIM_000.jpg
3303.487	0.864	1	repeat	Run4	repeat/STIM_000.jpg
3307.267	0.784	1	repeat	Run4	repeat/STIM_000.jpg
3310.592	0.952	1	repeat	Run4	repeat/STIM_000.jpg
3314.356	1.062	1	repeat	Run4	repeat/STIM_001.jpg
3318.473	0.891	1	repeat	Run4	repeat/STIM_001.jpg
3322.529	1.01	1	repeat	Run4	repeat/STIM_001.jpg
3326.755	0.772	1	repeat	Run4	repeat/STIM_001.jpg
3331.124	1.119	1	repeat	Run4	repeat/STIM_001.jpg
3336.167	0.984	1	repeat	Run4	repeat/STIM_002.jpg
3339.27	0.871	1	repeat	Run4	repeat/STIM_002.jpg
3343.274	0.681	1	repeat	Run4	repeat/STIM_002.jpg
3346.487	0.708	1	repeat	Run4	repeat/STIM_002.jpg
3350.607	0.988	1	repeat	Run4	repeat/STIM_002.jpg
3355.39	0.823	1	repeat	Run4	repeat/STIM_003.jpg
3358.916	0.907	1	repeat	Run4	repeat/STIM_003.jpg
3362.991	1.022	1	repeat	Run4	repeat/STIM_003.jpg
3366.352	1.119	1	repeat	Run4	repeat/STIM_003.jpg
3370.312	0.774	1	repeat	Run4	repeat/STIM_003.jpg
3374.728	0.894	1	repeat	Run4	repeat/STIM_004.jpg
3379.296	0.938	1	repeat	Run4	repeat/STIM_004.jpg
3383.614	1.036	1	repeat	Run4	repeat/STIM_004.jpg
3386.992	0.922	1	repeat	Run4	repeat/STIM_004.jpg
3390.59	0.893	0	repeat	Run4	repeat/STIM_004.jpg
3395.205	0.632	1	repeat	Run4	repeat/STIM_005.jpg
3398.955	0.81	1	repeat	Run4	repeat/STIM_005.jpg
3403.301	1.046	1	repeat	Run4	repeat/STIM_005.jpg
3407.702	1.042	1	repeat	Run4	repeat/STIM_005.jpg
3412.599	0.813	1	repeat	Run4	repeat/STIM_005.jpg
3416.838	0.632	1	repeat	Run4	repeat/STIM_006.jpg
3420.03	0.924	1	repeat	Run4	repeat/STIM_006.jpg
3424.301	1.005	1	repeat	Run4	repeat/STIM_006.jpg
3427.431	0.795	1	repeat	Run4	repeat/STIM_006.jpg
3431.091	0.91	1	repeat	Run4	repeat/STIM_006.jpg
3435.051	0.873	1	repeat	Run4	repeat/STIM_007.jpg
3438.469	0.737	1	repeat	Run4	repeat/STIM_007.jpg
3442.192	0.743	1	repeat	Run4	repeat/STIM_007.jpg
3446.165	0.844	1	repeat	Run4	repeat/STIM_007.jpg
3450.531	0.74	1	repeat	Run4	repeat/STIM_007.jpg
3455.107	0.753	1	repeat	Run4	repeat/STIM_008.jpg
3459.161	1.096	1	repeat	Run4	repeat/STIM_008.jpg
3464.227	1.069	1	repeat	Run4	repeat/STIM_008.jpg
3468.9	0.673	1	repeat	Run4	repeat/STIM_008.jpg
3471.804	1.084	1	repeat	Run4	repeat/STIM_008.jpg
3475.721	0.642	1	repeat	Run4	repeat/STIM_009.jpg
3479.564	1.016	1	repeat	Run4	repeat/STIM_009.jpg
3483.782	1.044	1	repeat	Run4	repeat/STIM_009.jpg
3486.889	0.791	1	repeat	Run4	repeat/STIM_009.jpg
3490.274	1.085	1	repeat	Run4	repeat/STIM_009.jpg
3493.657	0.768	1	repeat	Run4	repeat/STIM_010.jpg
3498.153	0.989	1	repeat	Run4	repeat/STIM_010.jpg
3501.858	0.583	1	repeat	Run4	repeat/STIM_010.jpg
3504.614	1.015	1	repeat	Run4	repeat/STIM_010.jpg
3508.938	1.066	1	repeat	Run4	repeat/STIM_010.jpg
3513.2	0.948	1	repeat	Run4	repeat/STIM_011.jpg
3516.47	1.091	1	repeat	Run4	repeat/STIM_011.jpg
3520.053	1.013	1	repeat	Run4	repeat/STIM_011.jpg
3523.298	0.919	1	repeat	Run4	repeat/STIM_011.jpg
3527.987	0.727	1	repeat	Run4	repeat/STIM_011.jpg
3532.038	0.797	1	repeat	Run4	repeat/STIM_012.jpg
3536.51	0.736	1	repeat	Run4	repeat/STIM_012.jpg
3541.206	1.015	1	repeat	Run4	repeat/STIM_012.jpg
3546.028	0.86	1	repeat	Run4	repeat/STIM_012.jpg
3549.785	0.832	1	repeat	Run4	repeat/STIM_012.jpg
3553.29	0.726	1	repeat	Run4	repeat/STIM_013.jpg
3557.583	0.677	1	repeat	Run4	repeat/STIM_013.jpg
3560.49	0.95	1	repeat	Run4	repeat/STIM_013.jpg
3564.133	1.038	1	repeat	Run4	repeat/STIM_013.jpg
3567.932	0.953	1	repeat	Run4	repeat/STIM_013.jpg
3571.043	0.566	1	repeat	Run4	repeat/STIM_014.jpg
3574.591	0.748	1	repeat	Run4	repeat/STIM_014.jpg
3577.478	0.598	1	repeat	Run4	repeat/STIM_014.jpg
3580.265	0.608	1	repeat	Run4	repeat/STIM_014.jpg
3583.017	0.615	1	repeat	Run4	repeat/STIM_014.jpg
