onset	duration	accuracy_binary	trial_type	learning_stage	stimulus
0.0	1.772	1	generate	Run1	generate/STIM_000.jpg
4.76	2.363	1	generate	Run1	generate/STIM_000.jpg
10.318	1.977	1	generate	Run1	generate/STIM_000.jpg
16.153	1.48	1	generate	Run1	generate/STIM_000.jpg
19.88	1.836	1	generate	Run1	generate/STIM_000.jpg
24.129	1.715	1	generate	Run1	generate/STIM_001.jpg
28.67	2.295	1	generate	Run1	generate/STIM_001.jpg
34.623	1.34	1	generate	Run1	generate/STIM_001.jpg
38.984	2.171	0	generate	Run1	generate/STIM_001.jpg
44.26	2.103	1	generate	Run1	generate/STIM_001.jpg
50.27	1.416	0	generate	Run1	generate/STIM_002.jpg
53.935	2.538	0	generate	Run1	generate/STIM_002.jpg
59.934	2.461	1	generate	Run1	generate/STIM_002.jpg
66.05	0.999	1	generate	Run1	generate/STIM_002.jpg
70.166	1.732	0	generate	Run1	generate/STIM_002.jpg
75.211	2.509	1	generate	Run1	generate/STIM_003.jpg
79.89	1.682	1	generate	Run1	generate/STIM_003.jpg
84.969	1.624	1	generate	Run1	generate/STIM_003.jpg
88.809	2.079	1	generate	Run1	generate/STIM_003.jpg
93.186	1.751	1	generate	Run1	generate/STIM_003.jpg
97.504	2.302	1	generate	Run1	generate/STIM_004.jpg
101.849	1.854	0	generate	Run1	generate/STIM_004.jpg
106.452	1.865	1	generate	Run1	generate/STIM_004.jpg
111.021	1.961	1	generate	Run1	generate/STIM_004.jpg
116.775	1.305	1	generate	Run1	generate/STIM_004.jpg
122.083	2.306	1	generate	Run1	generate/STIM_005.jpg
126.534	2.756	0	generate	Run1	generate/STIM_005.jpg
132.721	2.352	1	generate	Run1	generate/STIM_005.jpg
138.981	1.488	1	generate	Run1	generate/STIM_005.jpg
142.708	1.989	1	generate	Run1	generate/STIM_005.jpg
147.239	1.46	1	generate	Run1	generate/STIM_006.jpg
151.165	2.403	1	generate	Run1	generate/STIM_006.jpg
156.735	1.752	0	generate	Run1	generate/STIM_006.jpg
162.121	1.496	1	generate	Run1	generate/STIM_006.jpg
165.754	2.28	1	generate	Run1	generate/STIM_006.jpg
170.435	1.71	1	generate	Run1	generate/STIM_007.jpg
174.471	2.114	1	generate	Run1	generate/STIM_007.jpg
179.31	2.018	0	generate	Run1	generate/STIM_007.jpg
184.527	2.315	1	generate	Run1	generate/STIM_007.jpg
190.145	1.229	1	generate	Run1	generate/STIM_007.jpg
193.991	2.31	1	generate	Run1	generate/STIM_008.jpg
199.258	2.214	1	generate	Run1	generate/STIM_008.jpg
204.598	1.661	0	generate	Run1	generate/STIM_008.jpg
210.061	1.779	1	generate	Run1	generate/STIM_008.jpg
214.426	2.399	1	generate	Run1	generate/STIM_008.jpg
220.459	1.962	1	generate	Run1	generate/STIM_009.jpg
225.696	1.803	1	generate	Run1	generate/STIM_009.jpg
231.319	2.538	1	generate	Run1	generate/STIM_009.jpg
237.305	1.268	0	generate	Run1	generate/STIM_009.jpg
240.588	1.45	1	generate	Run1	generate/STIM_009.jpg
245.266	1.648	1	generate	Run1	generate/STIM_010.jpg
250.118	1.436	1	generate	Run1	generate/STIM_010.jpg
253.758	2.648	1	generate	Run1	generate/STIM_010.jpg
258.792	1.999	0	generate	Run1	generate/STIM_010.jpg
263.214	2.369	1	generate	Run1	generate/STIM_010.jpg
268.922	2.35	1	generate	Run1	generate/STIM_011.jpg
274.771	2.557	1	generate	Run1	generate/STIM_011.jpg
279.878	1.682	1	generate	Run1	generate/STIM_011.jpg
285.264	1.192	0	generate	Run1	generate/STIM_011.jpg
289.751	1.416	1	generate	Run1	generate/STIM_011.jpg
294.199	2.581	1	generate	Run1	generate/STIM_012.jpg
299.229	1.617	1	generate	Run1	generate/STIM_012.jpg
303.913	1.74	0	generate	Run1	generate/STIM_012.jpg
309.159	1.763	1	generate	Run1	generate/STIM_012.jpg
314.388	1.057	1	generate	Run1	generate/STIM_012.jpg
318.833	1.583	0	generate	Run1	generate/STIM_013.jpg
324.21	1.618	1	generate	Run1	generate/STIM_013.jpg
328.087	2.098	1	generate	Run1	generate/STIM_013.jpg
332.911	2.11	0	generate	Run1	generate/STIM_013.jpg
337.891	1.092	1	generate	Run1	generate/STIM_013.jpg
341.87	1.598	0	generate	Run1	generate/STIM_014.jpg
346.704	1.966	1	generate	Run1	generate/STIM_014.jpg
351.319	2.719	1	generate	Run1	generate/STIM_014.jpg
356.653	2.252	1	generate	Run1	generate/STIM_014.jpg
361.081	1.347	1	generate	Run1	generate/STIM_014.jpg
365.725	1.694	1	generate	Run1	generate/STIM_015.jpg
371.005	1.474	1	generate	Run1	generate/STIM_015.jpg
375.29	2.548	0	generate	Run1	generate/STIM_015.jpg
380.049	2.082	1	generate	Run1	generate/STIM_015.jpg
385.056	1.679	1	generate	Run1	generate/STIM_015.jpg
389.881	2.254	1	generate	Run1	generate/STIM_016.jpg
395.823	1.258	0	generate	Run1	generate/STIM_016.jpg
401.004	2.602	1	generate	Run1	generate/STIM_016.jpg
406.234	1.904	0	generate	Run1	generate/STIM_016.jpg
411.395	1.028	0	generate	Run1	generate/STIM_016.jpg
416.299	2.142	1	generate	Run1	generate/STIM_017.jpg
421.202	2.825	1	generate	Run1	generate/STIM_017.jpg
426.878	1.275	0	generate	Run1	generate/STIM_017.jpg
432.001	1.923	1	generate	Run1	generate/STIM_017.jpg
437.644	1.724	1	generate	Run1	generate/STIM_017.jpg
442.493	2.336	1	generate	Run1	generate/STIM_018.jpg
447.238	1.866	1	generate	Run1	generate/STIM_018.jpg
451.142	1.466	0	generate	Run1	generate/STIM_018.jpg
454.743	2.276	1	generate	Run1	generate/STIM_018.jpg
460.021	1.445	1	generate	Run1	generate/STIM_018.jpg
464.951	1.727	1	generate	Run1	generate/STIM_019.jpg
470.02	1.331	1	generate	Run1	generate/STIM_019.jpg
474.779	2.673	0	generate	Run1	generate/STIM_019.jpg
480.992	1.681	1	generate	Run1	generate/STIM_019.jpg
486.338	1.23	1	generate	Run1	generate/STIM_019.jpg
490.821	2.282	1	generate	Run1	generate/STIM_020.jpg
496.931	2.228	1	generate	Run1	generate/STIM_020.jpg
503.013	1.356	0	generate	Run1	generate/STIM_020.jpg
508.133	1.504	0	generate	Run1	generate/STIM_020.jpg
511.747	2.181	1	generate	Run1	generate/STIM_020.jpg
517.778	2.176	1	generate	Run1	generate/STIM_021.jpg
523.34	1.158	1	generate	Run1	generate/STIM_021.jpg
526.751	1.983	0	generate	Run1	generate/STIM_021.jpg
532.691	2.128	1	generate	Run1	generate/STIM_021.jpg
538.131	1.821	1	generate	Run1	generate/STIM_021.jpg
543.994	2.44	1	generate	Run1	generate/STIM_022.jpg
549.317	2.673	0	generate	Run1	generate/STIM_022.jpg
555.36	1.543	1	generate	Run1	generate/STIM_022.jpg
559.211	1.53	0	generate	Run1	generate/STIM_022.jpg
563.048	1.13	1	generate	Run1	generate/STIM_022.jpg
567.542	1.442	1	generate	Run1	generate/STIM_023.jpg
572.052	1.898	1	generate	Run1	generate/STIM_023.jpg
577.444	2.025	1	generate	Run1	generate/STIM_023.jpg
582.049	1.623	1	generate	Run1	generate/STIM_023.jpg
586.986	2.135	1	generate	Run1	generate/STIM_023.jpg
591.339	2.819	1	generate	Run1	generate/STIM_024.jpg
597.8	2.449	1	generate	Run1	generate/STIM_024.jpg
602.837	1.262	1	generate	Run1	generate/STIM_024.jpg
607.173	2.052	1	generate	Run1	generate/STIM_024.jpg
612.319	1.515	1	generate	Run1	generate/STIM_024.jpg
617.622	0.674	1	repeat	Run1	repeat/STIM_000.jpg
621.475	0.673	1	repeat	Run1	repeat/STIM_000.jpg
625.694	1.095	1	repeat	Run1	repeat/STIM_000.jpg
628.682	0.654	1	repeat	Run1	repeat/STIM_000.jpg
632.411	0.504	1	repeat	Run1	repeat/STIM_000.jpg
636.267	0.882	1	repeat	Run1	repeat/STIM_001.jpg
641.032	0.864	1	repeat	Run1	repeat/STIM_001.jpg
644.069	0.931	1	repeat	Run1	repeat/STIM_001.jpg
647.885	0.891	1	repeat	Run1	repeat/STIM_001.jpg
651.799	0.567	1	repeat	Run1	repeat/STIM_001.jpg
655.313	0.629	1	repeat	Run1	repeat/STIM_002.jpg
659.429	0.564	1	repeat	Run1	repeat/STIM_002.jpg
664.032	0.645	1	repeat	Run1	repeat/STIM_002.jpg
668.439	0.658	1	repeat	Run1	repeat/STIM_002.jpg
672.031	0.479	1	repeat	Run1	repeat/STIM_002.jpg
674.714	0.738	1	repeat	Run1	repeat/STIM_003.jpg
677.601	0.612	1	repeat	Run1	repeat/STIM_003.jpg
680.289	0.443	1	repeat	Run1	repeat/STIM_003.jpg
683.166	0.57	1	repeat	Run1	repeat/STIM_003.jpg
686.849	0.912	1	repeat	Run1	repeat/STIM_003.jpg
691.476	0.585	1	repeat	Run1	repeat/STIM_004.jpg
694.427	0.902	1	repeat	Run1	repeat/STIM_004.jpg
698.133	0.847	1	repeat	Run1	repeat/STIM_004.jpg
701.858	0.819	1	repeat	Run1	repeat/STIM_004.jpg
705.598	0.975	1	repeat	Run1	repeat/STIM_004.jpg
710.338	0.695	0	repeat	Run1	repeat/STIM_005.jpg
714.36	0.681	1	repeat	Run1	repeat/STIM_005.jpg
717.28	0.886	1	repeat	Run1	repeat/STIM_005.jpg
721.731	0.814	1	repeat	Run1	repeat/STIM_005.jpg
726.195	0.959	1	repeat	Run1	repeat/STIM_005.jpg
731.06	0.739	1	repeat	Run1	repeat/STIM_006.jpg
735.612	0.642	1	repeat	Run1	repeat/STIM_006.jpg
738.429	0.754	1	repeat	Run1	repeat/STIM_006.jpg
741.932	0.62	1	repeat	Run1	repeat/STIM_006.jpg
745.583	0.844	1	repeat	Run1	repeat/STIM_006.jpg
749.128	0.572	1	repeat	Run1	repeat/STIM_007.jpg
753.502	0.902	1	repeat	Run1	repeat/STIM_007.jpg
757.865	0.944	1	repeat	Run1	repeat/STIM_007.jpg
761.629	0.969	1	repeat	Run1	repeat/STIM_007.jpg
765.567	0.817	1	repeat	Run1	repeat/STIM_007.jpg
768.328	0.535	1	repeat	Run1	repeat/STIM_008.jpg
771.485	0.936	1	repeat	Run1	repeat/STIM_008.jpg
775.549	0.606	1	repeat	Run1	repeat/STIM_008.jpg
778.174	0.586	1	repeat	Run1	repeat/STIM_008.jpg
780.887	0.645	1	repeat	Run1	repeat/STIM_008.jpg
785.606	0.535	1	repeat	Run1	repeat/STIM_009.jpg
789.512	0.622	1	repeat	Run1	repeat/STIM_009.jpg
792.831	0.652	1	repeat	Run1	repeat/STIM_009.jpg
797.471	0.455	1	repeat	Run1	repeat/STIM_009.jpg
800.166	1.043	1	repeat	Run1	repeat/STIM_009.jpg
804.922	0.507	1	repeat	Run1	repeat/STIM_010.jpg
808.462	0.822	1	repeat	Run1	repeat/STIM_010.jpg
812.994	0.78	1	repeat	Run1	repeat/STIM_010.jpg
815.831	0.78	1	repeat	Run1	repeat/STIM_010.jpg
819.48	0.876	1	repeat	Run1	repeat/STIM_010.jpg
822.57	0.728	1	repeat	Run1	repeat/STIM_011.jpg
825.486	0.645	1	repeat	Run1	repeat/STIM_011.jpg
828.442	0.791	1	repeat	Run1	repeat/STIM_011.jpg
831.322	0.685	1	repeat	Run1	repeat/STIM_011.jpg
834.579	0.596	1	repeat	Run1	repeat/STIM_011.jpg
838.059	0.775	1	repeat	Run1	repeat/STIM_012.jpg
841.457	0.699	1	repeat	Run1	repeat/STIM_012.jpg
844.165	0.553	1	repeat	Run1	repeat/STIM_012.jpg
847.003	0.868	1	repeat	Run1	repeat/STIM_012.jpg
850.36	0.573	1	repeat	Run1	repeat/STIM_012.jpg
854.016	0.568	1	repeat	Run1	repeat/STIM_013.jpg
858.265	0.781	1	repeat	Run1	repeat/STIM_013.jpg
862.021	0.498	1	repeat	Run1	repeat/STIM_013.jpg
866.346	0.816	1	repeat	Run1	repeat/STIM_013.jpg
869.414	0.576	1	repeat	Run1	repeat/STIM_013.jpg
872.761	0.743	1	repeat	Run1	repeat/STIM_014.jpg
875.632	0.73	1	repeat	Run1	repeat/STIM_014.jpg
879.804	0.879	1	repeat	Run1	repeat/STIM_014.jpg
883.74	0.954	1	repeat	Run1	repeat/STIM_014.jpg
887.659	0.588	1	repeat	Run1	repeat/STIM_014.jpg
890.735	1.865	1	generate	Run2	generate/STIM_000.jpg
895.664	1.726	1	generate	Run2	generate/STIM_000.jpg
899.461	1.386	1	generate	Run2	generate/STIM_000.jpg
904.348	1.89	1	generate	Run2	generate/STIM_000.jpg
908.437	2.055	1	generate	Run2	generate/STIM_000.jpg
913.183	1.384	0	generate	Run2	generate/STIM_001.jpg
917.798	1.625	1	generate	Run2	generate/STIM_001.jpg
922.257	1.986	1	generate	Run2	generate/STIM_001.jpg
927.314	1.385	1	generate	Run2	generate/STIM_001.jpg
932.284	0.953	1	generate	Run2	generate/STIM_001.jpg
936.827	1.217	1	generate	Run2	generate/STIM_002.jpg
940.897	1.361	0	generate	Run2	generate/STIM_002.jpg
944.463	1.549	1	generate	Run2	generate/STIM_002.jpg
948.153	1.532	1	generate	Run2	generate/STIM_002.jpg
953.097	1.97	1	generate	Run2	generate/STIM_002.jpg
958.177	1.142	1	generate	Run2	generate/STIM_003.jpg
962.412	1.432	1	generate	Run2	generate/STIM_003.jpg
967.003	1.202	1	generate	Run2	generate/STIM_003.jpg
971.277	1.234	1	generate	Run2	generate/STIM_003.jpg
974.692	1.472	1	generate	Run2	generate/STIM_003.jpg
978.67	2.091	1	generate	Run2	generate/STIM_004.jpg
983.088	1.392	1	generate	Run2	generate/STIM_004.jpg
987.239	1.51	1	generate	Run2	generate/STIM_004.jpg
991.953	1.912	0	generate	Run2	generate/STIM_004.jpg
996.247	2.106	1	generate	Run2	generate/STIM_004.jpg
1001.8	1.259	1	generate	Run2	generate/STIM_005.jpg
1005.186	1.699	1	generate	Run2	generate/STIM_005.jpg
1009.335	1.368	0	generate	Run2	generate/STIM_005.jpg
1012.749	1.181	1	generate	Run2	generate/STIM_005.jpg
1017.131	1.742	1	generate	Run2	generate/STIM_005.jpg
1021.046	1.399	1	generate	Run2	generate/STIM_006.jpg
1025.273	1.415	1	generate	Run2	generate/STIM_006.jpg
1029.241	1.953	1	generate	Run2	generate/STIM_006.jpg
1033.607	1.555	1	generate	Run2	generate/STIM_006.jpg
1037.551	1.986	1	generate	Run2	generate/STIM_006.jpg
1042.264	1.902	1	generate	Run2	generate/STIM_007.jpg
1047.145	1.324	1	generate	Run2	generate/STIM_007.jpg
1050.993	1.394	1	generate	Run2	generate/STIM_007.jpg
1055.46	0.879	1	generate	Run2	generate/STIM_007.jpg
1060.314	0.911	1	generate	Run2	generate/STIM_007.jpg
1063.841	1.119	1	generate	Run2	generate/STIM_008.jpg
1068.351	1.465	1	generate	Run2	generate/STIM_008.jpg
1073.44	1.586	1	generate	Run2	generate/STIM_008.jpg
1078.455	1.952	1	generate	Run2	generate/STIM_008.jpg
1083.229	1.401	0	generate	Run2	generate/STIM_008.jpg
1088.095	1.814	0	generate	Run2	generate/STIM_009.jpg
1092.148	1.837	0	generate	Run2	generate/STIM_009.jpg
1096.229	1.966	1	generate	Run2	generate/STIM_009.jpg
1101.613	1.618	1	generate	Run2	generate/STIM_009.jpg
1106.878	1.06	1	generate	Run2	generate/STIM_009.jpg
1110.271	1.165	1	generate	Run2	generate/STIM_010.jpg
1113.824	2.121	1	generate	Run2	generate/STIM_010.jpg
1118.852	1.563	1	generate	Run2	generate/STIM_010.jpg
1123.329	1.192	1	generate	Run2	generate/STIM_010.jpg
1128.111	1.096	1	generate	Run2	generate/STIM_010.jpg
1131.395	2.243	0	generate	Run2	generate/STIM_011.jpg
1137.293	2.078	1	generate	Run2	generate/STIM_011.jpg
1143.193	1.63	1	generate	Run2	generate/STIM_011.jpg
1147.837	1.866	1	generate	Run2	generate/STIM_011.jpg
1153.289	1.408	1	generate	Run2	generate/STIM_011.jpg
1157.835	1.675	1	generate	Run2	generate/STIM_012.jpg
1162.818	1.854	1	generate	Run2	generate/STIM_012.jpg
1167.679	1.808	1	generate	Run2	generate/STIM_012.jpg
1172.919	1.773	1	generate	Run2	generate/STIM_012.jpg
1177.256	0.894	0	generate	Run2	generate/STIM_012.jpg
1181.349	2.213	0	generate	Run2	generate/STIM_013.jpg
1186.007	2.051	1	generate	Run2	generate/STIM_013.jpg
1190.816	1.617	1	generate	Run2	generate/STIM_013.jpg
1196.37	1.139	0	generate	Run2	generate/STIM_013.jpg
1200.794	1.082	1	generate	Run2	generate/STIM_013.jpg
1205.791	1.324	1	generate	Run2	generate/STIM_014.jpg
1209.822	0.901	1	generate	Run2	generate/STIM_014.jpg
1212.965	1.481	1	generate	Run2	generate/STIM_014.jpg
1217.696	1.068	0	generate	Run2	generate/STIM_014.jpg
1220.873	1.614	1	generate	Run2	generate/STIM_014.jpg
1225.003	2.18	1	generate	Run2	generate/STIM_015.jpg
1230.617	1.972	1	generate	Run2	generate/STIM_015.jpg
1234.845	1.926	1	generate	Run2	generate/STIM_015.jpg
1240.643	0.978	1	generate	Run2	generate/STIM_015.jpg
1244.821	1.43	1	generate	Run2	generate/STIM_015.jpg
1249.318	2.341	1	generate	Run2	generate/STIM_016.jpg
1254.041	2.087	1	generate	Run2	generate/STIM_016.jpg
1258.676	1.231	1	generate	Run2	generate/STIM_016.jpg
1263.383	0.961	0	generate	Run2	generate/STIM_016.jpg
1268.256	1.566	1	generate	Run2	generate/STIM_016.jpg
1272.137	1.16	1	generate	Run2	generate/STIM_017.jpg
1276.945	1.989	1	generate	Run2	generate/STIM_017.jpg
1282.415	1.796	1	generate	Run2	generate/STIM_017.jpg
1286.555	1.785	1	generate	Run2	generate/STIM_017.jpg
1290.29	1.604	1	generate	Run2	generate/STIM_017.jpg
1295.883	1.949	1	generate	Run2	generate/STIM_018.jpg
1300.369	1.398	0	generate	Run2	generate/STIM_018.jpg
1304.749	0.979	0	generate	Run2	generate/STIM_018.jpg
1307.913	1.153	1	generate	Run2	generate/STIM_018.jpg
1311.851	1.444	1	generate	Run2	generate/STIM_018.jpg
1315.449	2.246	1	generate	Run2	generate/STIM_019.jpg
1321.125	1.963	0	generate	Run2	generate/STIM_019.jpg
1326.069	1.719	1	generate	Run2	generate/STIM_019.jpg
1330.444	1.913	1	generate	Run2	generate/STIM_019.jpg
1335.294	1.239	0	generate	Run2	generate/STIM_019.jpg
1339.224	1.387	1	generate	Run2	generate/STIM_020.jpg
1343.246	1.624	1	generate	Run2	generate/STIM_020.jpg
1348.17	2.054	1	generate	Run2	generate/STIM_020.jpg
1352.724	1.939	1	generate	Run2	generate/STIM_020.jpg
1358.242	0.8	1	generate	Run2	generate/STIM_020.jpg
1363.084	2.288	1	generate	Run2	generate/STIM_021.jpg
1368.217	1.96	1	generate	Run2	generate/STIM_021.jpg
1373.687	1.098	1	generate	Run2	generate/STIM_021.jpg
1378.527	1.541	1	generate	Run2	generate/STIM_021.jpg
1383.718	0.98	1	generate	Run2	generate/STIM_021.jpg
1387.375	2.332	1	generate	Run2	generate/STIM_022.jpg
1393.357	1.014	1	generate	Run2	generate/STIM_022.jpg
1396.621	1.903	1	generate	Run2	generate/STIM_022.jpg
1401.935	1.189	1	generate	Run2	generate/STIM_022.jpg
1405.253	1.313	1	generate	Run2	generate/STIM_022.jpg
1409.097	2.091	1	generate	Run2	generate/STIM_023.jpg
1413.642	1.095	1	generate	Run2	generate/STIM_023.jpg
1416.778	1.026	1	generate	Run2	generate/STIM_023.jpg
1419.876	2.067	1	generate	Run2	generate/STIM_023.jpg
1424.568	1.541	1	generate	Run2	generate/STIM_023.jpg
1428.509	1.978	1	generate	Run2	generate/STIM_024.jpg
1432.815	1.096	1	generate	Run2	generate/STIM_024.jpg
1437.788	2.03	1	generate	Run2	generate/STIM_024.jpg
1443.305	1.14	1	generate	Run2	generate/STIM_024.jpg
1448.044	1.092	1	generate	Run2	generate/STIM_024.jpg
1452.449	0.698	1	repeat	Run2	repeat/STIM_000.jpg
1455.752	0.852	1	repeat	Run2	repeat/STIM_000.jpg
1458.608	0.946	1	repeat	Run2	repeat/STIM_000.jpg
1462.575	0.794	1	repeat	Run2	repeat/STIM_000.jpg
1467.229	0.684	1	repeat	Run2	repeat/STIM_000.jpg
1469.997	0.89	1	repeat	Run2	repeat/STIM_001.jpg
1474.396	0.948	1	repeat	Run2	repeat/STIM_001.jpg
1477.851	0.813	1	repeat	Run2	repeat/STIM_001.jpg
1482.521	1.015	1	repeat	Run2	repeat/STIM_001.jpg
1486.628	0.692	1	repeat	Run2	repeat/STIM_001.jpg
1491.133	1.027	1	repeat	Run2	repeat/STIM_002.jpg
1494.801	0.772	1	repeat	Run2	repeat/STIM_002.jpg
1499.508	0.578	1	repeat	Run2	repeat/STIM_002.jpg
1503.547	0.86	1	repeat	Run2	repeat/STIM_002.jpg
1507.341	0.685	1	repeat	Run2	repeat/STIM_002.jpg
1510.503	0.812	1	repeat	Run2	repeat/STIM_003.jpg
1513.714	0.624	1	repeat	Run2	repeat/STIM_003.jpg
1516.428	0.947	1	repeat	Run2	repeat/STIM_003.jpg
1520.859	0.654	1	repeat	Run2	repeat/STIM_003.jpg
1524.524	0.907	1	repeat	Run2	repeat/STIM_003.jpg
1527.459	0.609	1	repeat	Run2	repeat/STIM_004.jpg
1531.131	0.693	1	repeat	Run2	repeat/STIM_004.jpg
1534.684	0.685	1	repeat	Run2	repeat/STIM_004.jpg
1537.906	0.728	1	repeat	Run2	repeat/STIM_004.jpg
1541.379	0.835	1	repeat	Run2	repeat/STIM_004.jpg
1545.317	0.949	1	repeat	Run2	repeat/STIM_005.jpg
1548.806	0.861	1	repeat	Run2	repeat/STIM_005.jpg
1552.283	0.798	1	repeat	Run2	repeat/STIM_005.jpg
1556.896	0.761	1	repeat	Run2	repeat/STIM_005.jpg
1560.32	0.69	1	repeat	Run2	repeat/STIM_005.jpg
1563.409	0.755	1	repeat	Run2	repeat/STIM_006.jpg
1566.319	0.636	1	repeat	Run2	repeat/STIM_006.jpg
1570.288	0.951	1	repeat	Run2	repeat/STIM_006.jpg
1574.359	0.885	1	repeat	Run2	repeat/STIM_006.jpg
1578.235	0.483	1	repeat	Run2	repeat/STIM_006.jpg
1581.478	0.489	1	repeat	Run2	repeat/STIM_007.jpg
1585.275	0.645	1	repeat	Run2	repeat/STIM_007.jpg
1588.784	0.604	1	repeat	Run2	repeat/STIM_007.jpg
1591.609	0.612	1	repeat	Run2	repeat/STIM_007.jpg
1595.236	0.593	1	repeat	Run2	repeat/STIM_007.jpg
1598.141	0.654	1	repeat	Run2	repeat/STIM_008.jpg
1600.956	0.564	1	repeat	Run2	repeat/STIM_008.jpg
1604.864	0.951	0	repeat	Run2	repeat/STIM_008.jpg
1608.313	0.624	1	repeat	Run2	repeat/STIM_008.jpg
1612.514	0.594	0	repeat	Run2	repeat/STIM_008.jpg
1615.819	0.747	1	repeat	Run2	repeat/STIM_009.jpg
1619.398	0.977	1	repeat	Run2	repeat/STIM_009.jpg
1623.926	0.862	0	repeat	Run2	repeat/STIM_009.jpg
1627.666	0.734	1	repeat	Run2	repeat/STIM_009.jpg
1632.048	0.935	1	repeat	Run2	repeat/STIM_009.jpg
1635.627	0.541	1	repeat	Run2	repeat/STIM_010.jpg
1640.047	0.919	1	repeat	Run2	repeat/STIM_010.jpg
1644.213	0.848	1	repeat	Run2	repeat/STIM_010.jpg
1648.258	0.681	1	repeat	Run2	repeat/STIM_010.jpg
1651.37	0.809	1	repeat	Run2	repeat/STIM_010.jpg
1654.498	0.805	1	repeat	Run2	repeat/STIM_011.jpg
1657.478	0.606	1	repeat	Run2	repeat/STIM_011.jpg
1661.555	0.614	1	repeat	Run2	repeat/STIM_011.jpg
1664.88	0.652	1	repeat	Run2	repeat/STIM_011.jpg
1669.282	1.024	1	repeat	Run2	repeat/STIM_011.jpg
1672.696	0.915	1	repeat	Run2	repeat/STIM_012.jpg
1677.308	0.973	1	repeat	Run2	repeat/STIM_012.jpg
1680.767	0.872	1	repeat	Run2	repeat/STIM_012.jpg
1684.489	0.783	1	repeat	Run2	repeat/STIM_012.jpg
1688.349	0.704	1	repeat	Run2	repeat/STIM_012.jpg
1692.762	0.53	1	repeat	Run2	repeat/STIM_013.jpg
1695.924	0.763	1	repeat	Run2	repeat/STIM_013.jpg
1700.6	0.775	1	repeat	Run2	repeat/STIM_013.jpg
1704.477	0.791	1	repeat	Run2	repeat/STIM_013.jpg
1707.709	0.864	1	repeat	Run2	repeat/STIM_013.jpg
1710.608	0.55	1	repeat	Run2	repeat/STIM_014.jpg
1713.882	0.534	1	repeat	Run2	repeat/STIM_014.jpg
1718.073	0.548	1	repeat	Run2	repeat/STIM_014.jpg
1720.986	0.746	1	repeat	Run2	repeat/STIM_014.jpg
1723.796	0.577	1	repeat	Run2	repeat/STIM_014.jpg
1727.011	0.927	0	generate	Run3	generate/STIM_000.jpg
1731.564	1.671	1	generate	Run3	generate/STIM_000.jpg
1736.234	1.245	1	generate	Run3	generate/STIM_000.jpg
1740.123	1.892	1	generate	Run3	generate/STIM_000.jpg
1745.814	1.059	1	generate	Run3	generate/STIM_000.jpg
1749.849	0.936	1	generate	Run3	generate/STIM_001.jpg
1754.34	1.385	0	generate	Run3	generate/STIM_001.jpg
1758.4	1.89	1	generate	Run3	generate/STIM_001.jpg
1763.595	1.298	1	generate	Run3	generate/STIM_001.jpg
1767.52	2.12	1	generate	Run3	generate/STIM_001.jpg
1773.196	1.162	1	generate	Run3	generate/STIM_002.jpg
1778.2	1.986	1	generate	Run3	generate/STIM_002.jpg
1782.391	1.996	1	generate	Run3	generate/STIM_002.jpg
1787.073	1.584	1	generate	Run3	generate/STIM_002.jpg
1791.677	1.74	1	generate	Run3	generate/STIM_002.jpg
1796.533	1.982	1	generate	Run3	generate/STIM_003.jpg
1802.12	1.42	1	generate	Run3	generate/STIM_003.jpg
1805.928	1.568	1	generate	Run3	generate/STIM_003.jpg
1810.634	1.594	1	generate	Run3	generate/STIM_003.jpg
1814.504	1.917	1	generate	Run3	generate/STIM_003.jpg
1818.986	1.422	1	generate	Run3	generate/STIM_004.jpg
1822.978	1.588	1	generate	Run3	generate/STIM_004.jpg
1826.647	1.792	1	generate	Run3	generate/STIM_004.jpg
1832.316	2.081	1	generate	Run3	generate/STIM_004.jpg
1837.423	1.539	1	generate	Run3	generate/STIM_004.jpg
1841.685	1.746	1	generate	Run3	generate/STIM_005.jpg
1846.346	1.916	1	generate	Run3	generate/STIM_005.jpg
1851.272	1.485	1	generate	Run3	generate/STIM_005.jpg
1856.005	1.326	1	generate	Run3	generate/STIM_005.jpg
1861.126	1.317	1	generate	Run3	generate/STIM_005.jpg
1866.011	1.622	1	generate	Run3	generate/STIM_006.jpg
1871.573	1.888	0	generate	Run3	generate/STIM_006.jpg
1876.818	0.994	1	generate	Run3	generate/STIM_006.jpg
1880.729	1.802	1	generate	Run3	generate/STIM_006.jpg
1885.375	0.871	1	generate	Run3	generate/STIM_006.jpg
1888.941	0.849	1	generate	Run3	generate/STIM_007.jpg
1892.481	1.946	1	generate	Run3	generate/STIM_007.jpg
1897.493	1.353	1	generate	Run3	generate/STIM_007.jpg
1900.82	1.68	1	generate	Run3	generate/STIM_007.jpg
1904.474	1.95	0	generate	Run3	generate/STIM_007.jpg
1910.032	1.99	1	generate	Run3	generate/STIM_008.jpg
1915.004	0.967	0	generate	Run3	generate/STIM_008.jpg
1918.482	1.444	1	generate	Run3	generate/STIM_008.jpg
1923.029	0.872	1	generate	Run3	generate/STIM_008.jpg
1927.06	1.21	1	generate	Run3	generate/STIM_008.jpg
1930.66	1.866	1	generate	Run3	generate/STIM_009.jpg
1936.229	1.364	1	generate	Run3	generate/STIM_009.jpg
1939.785	0.994	1	generate	Run3	generate/STIM_009.jpg
1944.086	1.786	1	generate	Run3	generate/STIM_009.jpg
1949.473	1.744	1	generate	Run3	generate/STIM_009.jpg
1953.433	1.042	1	generate	Run3	generate/STIM_010.jpg
1957.383	1.95	1	generate	Run3	generate/STIM_010.jpg
1961.599	1.733	1	generate	Run3	generate/STIM_010.jpg
1966.455	1.171	1	generate	Run3	generate/STIM_010.jpg
1971.515	1.516	1	generate	Run3	generate/STIM_010.jpg
1976.607	1.532	1	generate	Run3	generate/STIM_011.jpg
1982.099	1.735	1	generate	Run3	generate/STIM_011.jpg
1986.909	1.471	1	generate	Run3	generate/STIM_011.jpg
1992.178	1.273	1	generate	Run3	generate/STIM_011.jpg
1995.872	1.077	1	generate	Run3	generate/STIM_011.jpg
2000.52	1.404	1	generate	Run3	generate/STIM_012.jpg
2003.894	0.97	1	generate	Run3	generate/STIM_012.jpg
2008.64	1.072	1	generate	Run3	generate/STIM_012.jpg
2013.056	1.084	1	generate	Run3	generate/STIM_012.jpg
2017.945	1.421	1	generate	Run3	generate/STIM_012.jpg
2022.17	2.072	1	generate	Run3	generate/STIM_013.jpg
2027.557	1.291	1	generate	Run3	generate/STIM_013.jpg
2032.404	0.989	1	generate	Run3	generate/STIM_013.jpg
2036.388	1.119	1	generate	Run3	generate/STIM_013.jpg
2041.533	1.204	1	generate	Run3	generate/STIM_013.jpg
2045.521	1.394	1	generate	Run3	generate/STIM_014.jpg
2050.112	2.019	1	generate	Run3	generate/STIM_014.jpg
2054.222	1.515	1	generate	Run3	generate/STIM_014.jpg
2059.167	1.914	1	generate	Run3	generate/STIM_014.jpg
2063.421	0.826	1	generate	Run3	generate/STIM_014.jpg
2067.599	1.106	0	generate	Run3	generate/STIM_015.jpg
2071.26	2.054	1	generate	Run3	generate/STIM_015.jpg
2075.438	1.802	1	generate	Run3	generate/STIM_015.jpg
2080.041	0.933	1	generate	Run3	generate/STIM_015.jpg
2083.489	1.537	1	generate	Run3	generate/STIM_015.jpg
2087.75	1.413	1	generate	Run3	generate/STIM_016.jpg
2092.773	1.196	1	generate	Run3	generate/STIM_016.jpg
2096.564	1.631	1	generate	Run3	generate/STIM_016.jpg
2100.286	1.984	1	generate	Run3	generate/STIM_016.jpg
2105.88	1.898	1	generate	Run3	generate/STIM_016.jpg
2111.43	1.008	1	generate	Run3	generate/STIM_017.jpg
2116.293	1.33	1	generate	Run3	generate/STIM_017.jpg
2120.465	1.08	1	generate	Run3	generate/STIM_017.jpg
2124.111	1.651	1	generate	Run3	generate/STIM_017.jpg
2128.005	1.002	1	generate	Run3	generate/STIM_017.jpg
2132.938	0.91	1	generate	Run3	generate/STIM_018.jpg
2137.362	1.682	1	generate	Run3	generate/STIM_018.jpg
2141.31	1.531	1	generate	Run3	generate/STIM_018.jpg
2146.529	1.29	1	generate	Run3	generate/STIM_018.jpg
2151.289	1.922	1	generate	Run3	generate/STIM_018.jpg
2155.55	1.06	1	generate	Run3	generate/STIM_019.jpg
2159.798	2.08	1	generate	Run3	generate/STIM_019.jpg
2164.601	2.025	1	generate	Run3	generate/STIM_019.jpg
2169.797	1.261	1	generate	Run3	generate/STIM_019.jpg
2173.359	1.7	1	generate	Run3	generate/STIM_019.jpg
2179.087	1.171	1	generate	Run3	generate/STIM_020.jpg
2182.799	1.543	1	generate	Run3	generate/STIM_020.jpg
2186.663	1.102	1	generate	Run3	generate/STIM_020.jpg
2191.185	1.477	1	generate	Run3	generate/STIM_020.jpg
2195.434	1.6	1	generate	Run3	generate/STIM_020.jpg
2200.682	0.946	1	generate	Run3	generate/STIM_021.jpg
2203.894	1.568	1	generate	Run3	generate/STIM_021.jpg
2208.762	1.965	1	generate	Run3	generate/STIM_021.jpg
2214.04	1.73	1	generate	Run3	generate/STIM_021.jpg
2219.165	1.273	1	generate	Run3	generate/STIM_021.jpg
2222.987	1.664	1	generate	Run3	generate/STIM_022.jpg
2226.83	1.906	1	generate	Run3	generate/STIM_022.jpg
2232.369	1.561	1	generate	Run3	generate/STIM_022.jpg
2237.354	1.948	1	generate	Run3	generate/STIM_022.jpg
2242.771	1.248	1	generate	Run3	generate/STIM_022.jpg
2246.192	1.788	1	generate	Run3	generate/STIM_023.jpg
2250.766	1.854	1	generate	Run3	generate/STIM_023.jpg
2255.747	1.93	1	generate	Run3	generate/STIM_023.jpg
2260.485	1.811	1	generate	Run3	generate/STIM_023.jpg
2266.109	1.698	1	generate	Run3	generate/STIM_023.jpg
2270.594	1.111	1	generate	Run3	generate/STIM_024.jpg
2274.175	1.305	1	generate	Run3	generate/STIM_024.jpg
2278.908	1.303	1	generate	Run3	generate/STIM_024.jpg
2283.591	0.929	1	generate	Run3	generate/STIM_024.jpg
2287.232	1.607	1	generate	Run3	generate/STIM_024.jpg
2291.275	0.663	1	repeat	Run3	repeat/STIM_000.jpg
2294.949	0.656	1	repeat	Run3	repeat/STIM_000.jpg
2299.444	1.04	1	repeat	Run3	repeat/STIM_000.jpg
2303.086	0.669	1	repeat	Run3	repeat/STIM_000.jpg
2306.255	0.821	1	repeat	Run3	repeat/STIM_000.jpg
2310.058	0.938	1	repeat	Run3	repeat/STIM_001.jpg
2314.781	0.832	1	repeat	Run3	repeat/STIM_001.jpg
2319.502	0.898	1	repeat	Run3	repeat/STIM_001.jpg
2322.64	0.675	0	repeat	Run3	repeat/STIM_001.jpg
2326.5	0.796	1	repeat	Run3	repeat/STIM_001.jpg
2329.743	0.96	1	repeat	Run3	repeat/STIM_002.jpg
2334.64	0.798	1	repeat	Run3	repeat/STIM_002.jpg
2337.482	0.506	1	repeat	Run3	repeat/STIM_002.jpg
2341.184	0.849	0	repeat	Run3	repeat/STIM_002.jpg
2344.347	0.569	1	repeat	Run3	repeat/STIM_002.jpg
2347.521	0.873	1	repeat	Run3	repeat/STIM_003.jpg
2351.165	0.851	1	repeat	Run3	repeat/STIM_003.jpg
2355.307	0.994	1	repeat	Run3	repeat/STIM_003.jpg
2359.752	0.772	1	repeat	Run3	repeat/STIM_003.jpg
2363.909	0.7	1	repeat	Run3	repeat/STIM_003.jpg
2366.746	0.678	1	repeat	Run3	repeat/STIM_004.jpg
2370.07	0.788	1	repeat	Run3	repeat/STIM_004.jpg
2374.54	0.623	1	repeat	Run3	repeat/STIM_004.jpg
2377.823	0.747	1	repeat	Run3	repeat/STIM_004.jpg
2380.698	0.898	1	repeat	Run3	repeat/STIM_004.jpg
2384.8	0.816	1	repeat	Run3	repeat/STIM_005.jpg
2388.276	0.952	1	repeat	Run3	repeat/STIM_005.jpg
2392.659	0.887	1	repeat	Run3	repeat/STIM_005.jpg
2397.5	0.869	1	repeat	Run3	repeat/STIM_005.jpg
2401.285	0.792	1	repeat	Run3	repeat/STIM_005.jpg
2405.385	0.578	1	repeat	Run3	repeat/STIM_006.jpg
2407.998	0.536	1	repeat	Run3	repeat/STIM_006.jpg
2411.634	0.826	1	repeat	Run3	repeat/STIM_006.jpg
2416.335	0.573	1	repeat	Run3	repeat/STIM_006.jpg
2419.032	0.565	1	repeat	Run3	repeat/STIM_006.jpg
2422.537	0.58	1	repeat	Run3	repeat/STIM_007.jpg
2426.675	0.949	1	repeat	Run3	repeat/STIM_007.jpg
2429.669	0.863	1	repeat	Run3	repeat/STIM_007.jpg
2433.018	0.9	1	repeat	Run3	repeat/STIM_007.jpg
2437.486	0.532	1	repeat	Run3	repeat/STIM_007.jpg
2440.693	0.603	1	repeat	Run3	repeat/STIM_008.jpg
2445.035	0.562	1	repeat	Run3	repeat/STIM_008.jpg
2448.829	0.562	1	repeat	Run3	repeat/STIM_008.jpg
2453.46	0.707	1	repeat	Run3	repeat/STIM_008.jpg
2456.536	0.948	0	repeat	Run3	repeat/STIM_008.jpg
2461.203	0.837	1	repeat	Run3	repeat/STIM_009.jpg
2464.853	0.953	0	repeat	Run3	repeat/STIM_009.jpg
2469.391	0.955	1	repeat	Run3	repeat/STIM_009.jpg
2472.719	0.666	1	repeat	Run3	repeat/STIM_009.jpg
2476.438	0.724	1	repeat	Run3	repeat/STIM_009.jpg
2480.01	0.936	1	repeat	Run3	repeat/STIM_010.jpg
2484.217	0.84	1	repeat	Run3	repeat/STIM_010.jpg
2487.22	0.489	1	repeat	Run3	repeat/STIM_010.jpg
2489.839	0.875	1	repeat	Run3	repeat/STIM_010.jpg
2494.245	0.708	1	repeat	Run3	repeat/STIM_010.jpg
2498.633	0.748	0	repeat	Run3	repeat/STIM_011.jpg
2502.903	0.846	1	repeat	Run3	repeat/STIM_011.jpg
2506.593	0.7	1	repeat	Run3	repeat/STIM_011.jpg
2509.531	1.062	1	repeat	Run3	repeat/STIM_011.jpg
2512.936	0.607	1	repeat	Run3	repeat/STIM_011.jpg
2515.631	0.795	1	repeat	Run3	repeat/STIM_012.jpg
2518.414	0.622	1	repeat	Run3	repeat/STIM_012.jpg
2522.939	0.927	1	repeat	Run3	repeat/STIM_012.jpg
2527.519	0.932	1	repeat	Run3	repeat/STIM_012.jpg
2532.107	0.758	1	repeat	Run3	repeat/STIM_012.jpg
2536.576	0.551	1	repeat	Run3	repeat/STIM_013.jpg
2540.536	0.956	1	repeat	Run3	repeat/STIM_013.jpg
2544.207	0.565	1	repeat	Run3	repeat/STIM_013.jpg
2548.518	0.624	1	repeat	Run3	repeat/STIM_013.jpg
2553.004	0.913	1	repeat	Run3	repeat/STIM_013.jpg
2556.083	0.757	1	repeat	Run3	repeat/STIM_014.jpg
2560.012	0.578	1	repeat	Run3	repeat/STIM_014.jpg
2563.971	0.746	1	repeat	Run3	repeat/STIM_014.jpg
2567.038	0.716	1	repeat	Run3	repeat/STIM_014.jpg
2570.113	0.559	1	repeat	Run3	repeat/STIM_014.jpg
2573.12	1.239	1	generate	Run4	generate/STIM_000.jpg
2578.099	1.626	1	generate	Run4	generate/STIM_000.jpg
2583.053	1.59	1	generate	Run4	generate/STIM_000.jpg
2586.636	0.895	1	generate	Run4	generate/STIM_000.jpg
2590.709	0.891	1	generate	Run4	generate/STIM_000.jpg
2594.315	1.0	1	generate	Run4	generate/STIM_001.jpg
2597.869	1.453	1	generate	Run4	generate/STIM_001.jpg
2602.925	1.56	1	generate	Run4	generate/STIM_001.jpg
2608.244	1.605	1	generate	Run4	generate/STIM_001.jpg
2612.557	1.308	1	generate	Run4	generate/STIM_001.jpg
2617.07	1.153	1	generate	Run4	generate/STIM_002.jpg
2621.631	1.728	1	generate	Run4	generate/STIM_002.jpg
2626.231	1.249	1	generate	Run4	generate/STIM_002.jpg
2629.887	1.815	1	generate	Run4	generate/STIM_002.jpg
2634.056	1.885	1	generate	Run4	generate/STIM_002.jpg
2639.133	1.313	1	generate	Run4	generate/STIM_003.jpg
2642.468	1.618	1	generate	Run4	generate/STIM_003.jpg
2647.589	1.117	1	generate	Run4	generate/STIM_003.jpg
2651.874	1.68	1	generate	Run4	generate/STIM_003.jpg
2655.602	1.651	1	generate	Run4	generate/STIM_003.jpg
2660.546	1.284	1	generate	Run4	generate/STIM_004.jpg
2664.603	1.067	1	generate	Run4	generate/STIM_004.jpg
2669.135	1.68	1	generate	Run4	generate/STIM_004.jpg
2674.452	1.118	1	generate	Run4	generate/STIM_004.jpg
2677.996	1.665	1	generate	Run4	generate/STIM_004.jpg
2683.43	1.516	0	generate	Run4	generate/STIM_005.jpg
2688.907	0.959	1	generate	Run4	generate/STIM_005.jpg
2693.257	1.805	1	generate	Run4	generate/STIM_005.jpg
2697.956	1.063	1	generate	Run4	generate/STIM_005.jpg
2702.657	1.424	1	generate	Run4	generate/STIM_005.jpg
2707.907	1.89	1	generate	Run4	generate/STIM_006.jpg
2712.923	0.978	1	generate	Run4	generate/STIM_006.jpg
2716.806	1.321	1	generate	Run4	generate/STIM_006.jpg
2720.268	1.408	1	generate	Run4	generate/STIM_006.jpg
2725.288	1.632	1	generate	Run4	generate/STIM_006.jpg
2729.09	1.721	1	generate	Run4	generate/STIM_007.jpg
2734.565	1.822	1	generate	Run4	generate/STIM_007.jpg
2739.004	1.19	1	generate	Run4	generate/STIM_007.jpg
2743.439	1.15	1	generate	Run4	generate/STIM_007.jpg
2747.97	1.993	1	generate	Run4	generate/STIM_007.jpg
2752.044	1.198	1	generate	Run4	generate/STIM_008.jpg
2756.742	1.294	1	generate	Run4	generate/STIM_008.jpg
2761.008	1.421	1	generate	Run4	generate/STIM_008.jpg
2765.68	1.95	1	generate	Run4	generate/STIM_008.jpg
2770.423	1.004	1	generate	Run4	generate/STIM_008.jpg
2774.175	1.815	1	generate	Run4	generate/STIM_009.jpg
2779.064	1.103	1	generate	Run4	generate/STIM_009.jpg
2783.541	1.547	1	generate	Run4	generate/STIM_009.jpg
2787.624	1.299	1	generate	Run4	generate/STIM_009.jpg
2792.312	2.017	1	generate	Run4	generate/STIM_009.jpg
2797.465	1.799	1	generate	Run4	generate/STIM_010.jpg
2802.766	2.079	1	generate	Run4	generate/STIM_010.jpg
2808.447	1.071	1	generate	Run4	generate/STIM_010.jpg
2813.303	1.94	1	generate	Run4	generate/STIM_010.jpg
2818.138	2.106	1	generate	Run4	generate/STIM_010.jpg
2823.357	1.94	1	generate	Run4	generate/STIM_011.jpg
2828.696	1.547	1	generate	Run4	generate/STIM_011.jpg
2832.559	1.962	1	generate	Run4	generate/STIM_011.jpg
2838.3	1.14	1	generate	Run4	generate/STIM_011.jpg
2841.497	1.728	1	generate	Run4	generate/STIM_011.jpg
2846.421	1.134	0	generate	Run4	generate/STIM_012.jpg
2849.734	1.033	1	generate	Run4	generate/STIM_012.jpg
2852.914	0.968	1	generate	Run4	generate/STIM_012.jpg
2857.081	1.148	1	generate	Run4	generate/STIM_012.jpg
2861.042	1.294	1	generate	Run4	generate/STIM_012.jpg
2864.629	1.582	1	generate	Run4	generate/STIM_013.jpg
2868.443	1.766	1	generate	Run4	generate/STIM_013.jpg
2873.986	1.239	1	generate	Run4	generate/STIM_013.jpg
2878.637	2.04	1	generate	Run4	generate/STIM_013.jpg
2882.745	1.466	1	generate	Run4	generate/STIM_013.jpg
2887.274	1.566	1	generate	Run4	generate/STIM_014.jpg
2892.714	1.503	1	generate	Run4	generate/STIM_014.jpg
2897.585	1.4	1	generate	Run4	generate/STIM_014.jpg
2901.905	0.902	1	generate	Run4	generate/STIM_014.jpg
2906.021	1.642	0	generate	Run4	generate/STIM_014.jpg
2909.891	2.023	0	generate	Run4	generate/STIM_015.jpg
2914.761	1.917	1	generate	Run4	generate/STIM_015.jpg
2920.488	1.925	1	generate	Run4	generate/STIM_015.jpg
2925.942	1.039	1	generate	Run4	generate/STIM_015.jpg
2929.847	1.532	1	generate	Run4	generate/STIM_015.jpg
2933.944	1.924	1	generate	Run4	generate/STIM_016.jpg
2939.3	1.974	1	generate	Run4	generate/STIM_016.jpg
2944.237	0.937	1	generate	Run4	generate/STIM_016.jpg
2947.621	1.412	1	generate	Run4	generate/STIM_016.jpg
2951.722	1.421	1	generate	Run4	generate/STIM_016.jpg
2955.563	1.099	1	generate	Run4	generate/STIM_017.jpg
2960.053	1.501	1	generate	Run4	generate/STIM_017.jpg
2964.946	0.914	1	generate	Run4	generate/STIM_017.jpg
2969.318	1.41	1	generate	Run4	generate/STIM_017.jpg
2973.947	1.579	1	generate	Run4	generate/STIM_017.jpg
2978.117	1.015	1	generate	Run4	generate/STIM_018.jpg
2982.183	1.387	1	generate	Run4	generate/STIM_018.jpg
2986.513	1.697	1	generate	Run4	generate/STIM_018.jpg
2990.357	1.549	1	generate	Run4	generate/STIM_018.jpg
2995.632	0.975	1	generate	Run4	generate/STIM_018.jpg
2999.287	1.573	1	generate	Run4	generate/STIM_019.jpg
3004.621	1.436	1	generate	Run4	generate/STIM_019.jpg
3008.864	1.003	1	generate	Run4	generate/STIM_019.jpg
3012.87	1.74	1	generate	Run4	generate/STIM_019.jpg
3017.467	1.149	1	generate	Run4	generate/STIM_019.jpg
3021.202	0.874	1	generate	Run4	generate/STIM_020.jpg
3024.558	0.951	1	generate	Run4	generate/STIM_020.jpg
3028.556	1.43	1	generate	Run4	generate/STIM_020.jpg
3032.236	1.112	1	generate	Run4	generate/STIM_020.jpg
3035.568	1.976	1	generate	Run4	generate/STIM_020.jpg
3041.21	1.222	1	generate	Run4	generate/STIM_021.jpg
3045.732	1.63	1	generate	Run4	generate/STIM_021.jpg
3050.996	1.514	1	generate	Run4	generate/STIM_021.jpg
3054.51	2.001	1	generate	Run4	generate/STIM_021.jpg
3060.326	1.31	1	generate	Run4	generate/STIM_021.jpg
3064.371	1.38	1	generate	Run4	generate/STIM_022.jpg
3069.533	1.878	1	generate	Run4	generate/STIM_022.jpg
3074.737	1.383	1	generate	Run4	generate/STIM_022.jpg
3079.272	0.904	1	generate	Run4	generate/STIM_022.jpg
3082.993	1.556	1	generate	Run4	generate/STIM_022.jpg
3088.361	1.164	1	generate	Run4	generate/STIM_023.jpg
3092.372	1.104	1	generate	Run4	generate/STIM_023.jpg
3096.161	0.993	1	generate	Run4	generate/STIM_023.jpg
3100.517	1.101	1	generate	Run4	generate/STIM_023.jpg
3104.947	1.386	1	generate	Run4	generate/STIM_023.jpg
3108.482	1.493	1	generate	Run4	generate/STIM_024.jpg
3112.057	0.819	1	generate	Run4	generate/STIM_024.jpg
3115.24	1.64	1	generate	Run4	generate/STIM_024.jpg
3120.76	1.183	1	generate	Run4	generate/STIM_024.jpg
3125.33	1.186	1	generate	Run4	generate/STIM_024.jpg
3130.078	0.517	1	repeat	Run4	repeat/STIM_000.jpg
3132.769	0.701	1	repeat	Run4	repeat/STIM_000.jpg
3135.982	0.678	1	repeat	Run4	repeat/STIM_000.jpg
3140.471	0.483	1	repeat	Run4	repeat/STIM_000.jpg
3143.108	0.882	1	repeat	Run4	repeat/STIM_000.jpg
3146.764	0.88	1	repeat	Run4	repeat/STIM_001.jpg
3150.896	0.48	1	repeat	Run4	repeat/STIM_001.jpg
3154.77	0.743	1	repeat	Run4	repeat/STIM_001.jpg
3159.193	0.822	1	repeat	Run4	repeat/STIM_001.jpg
3162.184	0.72	1	repeat	Run4	repeat/STIM_001.jpg
3165.955	0.82	1	repeat	Run4	repeat/STIM_002.jpg
3169.361	0.682	1	repeat	Run4	repeat/STIM_002.jpg
3172.16	0.971	1	repeat	Run4	repeat/STIM_002.jpg
3175.679	0.68	1	repeat	Run4	repeat/STIM_002.jpg
3179.824	0.658	1	repeat	Run4	repeat/STIM_002.jpg
3183.731	0.884	1	repeat	Run4	repeat/STIM_003.jpg
3186.994	0.57	1	repeat	Run4	repeat/STIM_003.jpg
3190.554	0.64	1	repeat	Run4	repeat/STIM_003.jpg
3193.49	0.962	1	repeat	Run4	repeat/STIM_003.jpg
3197.64	0.713	1	repeat	Run4	repeat/STIM_003.jpg
3200.678	0.726	1	repeat	Run4	repeat/STIM_004.jpg
3204.912	0.663	1	repeat	Run4	repeat/STIM_004.jpg
3209.155	0.633	1	repeat	Run4	repeat/STIM_004.jpg
3212.557	0.736	1	repeat	Run4	repeat/STIM_004.jpg
3216.183	0.867	0	repeat	Run4	repeat/STIM_004.jpg
3219.979	0.849	1	repeat	Run4	repeat/STIM_005.jpg
3223.045	0.588	1	repeat	Run4	repeat/STIM_005.jpg
3226.236	0.567	1	repeat	Run4	repeat/STIM_005.jpg
3230.039	0.868	1	repeat	Run4	repeat/STIM_005.jpg
3234.303	0.548	1	repeat	Run4	repeat/STIM_005.jpg
3238.447	0.854	1	repeat	Run4	repeat/STIM_006.jpg
3241.405	0.75	1	repeat	Run4	repeat/STIM_006.jpg
3245.655	0.632	1	repeat	Run4	repeat/STIM_006.jpg
3248.781	0.824	0	repeat	Run4	repeat/STIM_006.jpg
3252.466	0.994	1	repeat	Run4	repeat/STIM_006.jpg
3256.59	1.024	1	repeat	Run4	repeat/STIM_007.jpg
3259.832	0.558	1	repeat	Run4	repeat/STIM_007.jpg
3263.551	0.791	1	repeat	Run4	repeat/STIM_007.jpg
3266.426	0.654	1	repeat	Run4	repeat/STIM_007.jpg
3270.329	1.015	1	repeat	Run4	repeat/STIM_007.jpg
3273.398	0.829	1	repeat	Run4	repeat/STIM_008.jpg
3276.847	0.519	1	repeat	Run4	repeat/STIM_008.jpg
3281.153	0.629	1	repeat	Run4	repeat/STIM_008.jpg
3284.081	0.517	1	repeat	Run4	repeat/STIM_008.jpg
3287.419	0.682	1	repeat	Run4	repeat/STIM_008.jpg
3290.287	0.599	1	repeat	Run4	repeat/STIM_009.jpg
3293.737	0.877	1	repeat	Run4	repeat/STIM_009.jpg
3298.424	0.56	1	repeat	Run4	repeat/STIM_009.jpg
3301.946	0.686	1	repeat	Run4	repeat/STIM_009.jpg
3306.03	0.893	1	repeat	Run4	repeat/STIM_009.jpg
3309.898	0.82	1	repeat	Run4	repeat/STIM_010.jpg
3313.34	0.826	1	repeat	Run4	repeat/STIM_010.jpg
3317.543	0.692	1	repeat	Run4	repeat/STIM_010.jpg
3320.486	0.932	1	repeat	Run4	repeat/STIM_010.jpg
3325.03	0.802	1	repeat	Run4	repeat/STIM_010.jpg
3328.517	0.885	1	repeat	Run4	repeat/STIM_011.jpg
3332.688	0.732	1	repeat	Run4	repeat/STIM_011.jpg
3336.169	0.562	1	repeat	Run4	repeat/STIM_011.jpg
3339.362	0.626	1	repeat	Run4	repeat/STIM_011.jpg
3342.92	0.877	1	repeat	Run4	repeat/STIM_011.jpg
3347.174	0.5	1	repeat	Run4	repeat/STIM_012.jpg
3351.662	0.706	1	repeat	Run4	repeat/STIM_012.jpg
3355.865	0.852	0	repeat	Run4	repeat/STIM_012.jpg
3358.955	0.625	1	repeat	Run4	repeat/STIM_012.jpg
3363.269	0.746	1	repeat	Run4	repeat/STIM_012.jpg
3366.74	0.699	1	repeat	Run4	repeat/STIM_013.jpg
3370.801	0.663	1	repeat	Run4	repeat/STIM_013.jpg
3375.295	0.64	1	repeat	Run4	repeat/STIM_013.jpg
3378.862	0.77	1	repeat	Run4	repeat/STIM_013.jpg
3383.491	0.667	1	repeat	Run4	repeat/STIM_013.jpg
3386.904	0.986	1	repeat	Run4	repeat/STIM_014.jpg
3390.459	0.718	1	repeat	Run4	repeat/STIM_014.jpg
3394.745	0.858	1	repeat	Run4	repeat/STIM_014.jpg
3398.443	0.802	1	repeat	Run4	repeat/STIM_014.jpg
3403.042	0.676	1	repeat	Run4	repeat/STIM_014.jpg
