onset	duration	accuracy_binary	trial_type	learning_stage	stimulus
0.0	2.888	0	regulate	Run1	regulate/STIM_000.jpg
4.757	3.673	1	regulate	Run1	regulate/STIM_000.jpg
10.788	2.831	1	regulate	Run1	regulate/STIM_000.jpg
16.172	2.304	0	regulate	Run1	regulate/STIM_000.jpg
21.72	2.79	1	regulate	Run1	regulate/STIM_001.jpg
26.753	3.507	1	regulate	Run1	regulate/STIM_001.jpg
32.398	2.532	1	regulate	Run1	regulate/STIM_001.jpg
37.491	2.104	1	regulate	Run1	regulate/STIM_001.jpg
43.097	2.725	0	regulate	Run1	regulate/STIM_002.jpg
49.125	2.377	1	regulate	Run1	regulate/STIM_002.jpg
54.563	2.25	1	regulate	Run1	regulate/STIM_002.jpg
59.242	1.678	1	regulate	Run1	regulate/STIM_002.jpg
63.438	2.52	1	regulate	Run1	regulate/STIM_003.jpg
67.855	3.045	1	regulate	Run1	regulate/STIM_003.jpg
73.437	2.51	1	regulate	Run1	regulate/STIM_003.jpg
77.998	3.39	1	regulate	Run1	regulate/STIM_003.jpg
83.904	2.064	1	regulate	Run1	regulate/STIM_004.jpg
88.232	2.291	1	regulate	Run1	regulate/STIM_004.jpg
94.052	3.586	1	regulate	Run1	regulate/STIM_004.jpg
99.692	2.423	0	regulate	Run1	regulate/STIM_004.jpg
103.869	3.841	1	regulate	Run1	regulate/STIM_005.jpg
109.905	2.87	0	regulate	Run1	regulate/STIM_005.jpg
116.343	3.012	1	regulate	Run1	regulate/STIM_005.jpg
121.297	1.772	1	regulate	Run1	regulate/STIM_005.jpg
125.502	3.362	1	regulate	Run1	regulate/STIM_006.jpg
131.884	2.363	1	regulate	Run1	regulate/STIM_006.jpg
137.197	2.948	1	regulate	Run1	regulate/STIM_006.jpg
141.789	1.938	0	regulate	Run1	regulate/STIM_006.jpg
146.101	1.833	1	regulate	Run1	regulate/STIM_007.jpg
150.073	1.837	1	regulate	Run1	regulate/STIM_007.jpg
155.508	3.035	1	regulate	Run1	regulate/STIM_007.jpg
160.499	1.729	1	regulate	Run1	regulate/STIM_007.jpg
164.497	3.35	0	regulate	Run1	regulate/STIM_008.jpg
171.104	3.797	0	regulate	Run1	regulate/STIM_008.jpg
177.872	1.588	1	regulate	Run1	regulate/STIM_008.jpg
182.836	1.536	1	regulate	Run1	regulate/STIM_008.jpg
186.611	3.297	1	regulate	Run1	regulate/STIM_009.jpg
191.65	3.578	1	regulate	Run1	regulate/STIM_009.jpg
198.694	2.199	1	regulate	Run1	regulate/STIM_009.jpg
204.563	2.398	1	regulate	Run1	regulate/STIM_009.jpg
210.335	3.964	1	regulate	Run1	regulate/STIM_010.jpg
216.119	1.933	0	regulate	Run1	regulate/STIM_010.jpg
220.914	1.97	1	regulate	Run1	regulate/STIM_010.jpg
225.263	2.591	1	regulate	Run1	regulate/STIM_010.jpg
230.673	3.588	1	regulate	Run1	regulate/STIM_011.jpg
237.769	2.138	1	regulate	Run1	regulate/STIM_011.jpg
242.861	2.77	1	regulate	Run1	regulate/STIM_011.jpg
247.774	2.772	1	regulate	Run1	regulate/STIM_011.jpg
253.63	3.56	0	regulate	Run1	regulate/STIM_012.jpg
259.453	2.507	1	regulate	Run1	regulate/STIM_012.jpg
263.745	3.437	1	regulate	Run1	regulate/STIM_012.jpg
270.022	2.089	1	regulate	Run1	regulate/STIM_012.jpg
274.152	2.701	1	regulate	Run1	regulate/STIM_013.jpg
280.4	2.84	1	regulate	Run1	regulate/STIM_013.jpg
286.255	2.05	0	regulate	Run1	regulate/STIM_013.jpg
291.017	2.446	1	regulate	Run1	regulate/STIM_013.jpg
296.704	2.103	0	regulate	Run1	regulate/STIM_014.jpg
302.05	2.61	0	regulate	Run1	regulate/STIM_014.jpg
306.683	2.721	1	regulate	Run1	regulate/STIM_014.jpg
312.005	1.712	1	regulate	Run1	regulate/STIM_014.jpg
315.942	2.494	1	regulate	Run1	regulate/STIM_015.jpg
320.542	3.728	1	regulate	Run1	regulate/STIM_015.jpg
326.631	3.37	1	regulate	Run1	regulate/STIM_015.jpg
332.348	3.243	1	regulate	Run1	regulate/STIM_015.jpg
338.413	2.322	1	regulate	Run1	regulate/STIM_016.jpg
343.35	2.306	1	regulate	Run1	regulate/STIM_016.jpg
348.67	2.96	0	regulate	Run1	regulate/STIM_016.jpg
355.218	2.137	1	regulate	Run1	regulate/STIM_016.jpg
360.224	2.067	1	regulate	Run1	regulate/STIM_017.jpg
364.351	2.088	1	regulate	Run1	regulate/STIM_017.jpg
369.98	2.862	1	regulate	Run1	regulate/STIM_017.jpg
375.61	1.827	1	regulate	Run1	regulate/STIM_017.jpg
380.611	2.766	1	regulate	Run1	regulate/STIM_018.jpg
386.243	2.201	1	regulate	Run1	regulate/STIM_018.jpg
391.277	3.251	1	regulate	Run1	regulate/STIM_018.jpg
396.335	1.96	1	regulate	Run1	regulate/STIM_018.jpg
400.808	2.505	1	regulate	Run1	regulate/STIM_019.jpg
406.434	3.483	1	regulate	Run1	regulate/STIM_019.jpg
412.868	2.444	1	regulate	Run1	regulate/STIM_019.jpg
418.763	1.486	1	regulate	Run1	regulate/STIM_019.jpg
423.141	1.96	0	regulate	Run1	regulate/STIM_020.jpg
427.097	1.872	1	regulate	Run1	regulate/STIM_020.jpg
432.232	2.757	0	regulate	Run1	regulate/STIM_020.jpg
437.355	1.848	1	regulate	Run1	regulate/STIM_020.jpg
442.847	2.734	0	regulate	Run1	regulate/STIM_021.jpg
447.927	2.863	1	regulate	Run1	regulate/STIM_021.jpg
453.166	1.636	1	regulate	Run1	regulate/STIM_021.jpg
458.116	1.627	1	regulate	Run1	regulate/STIM_021.jpg
462.023	1.808	1	regulate	Run1	regulate/STIM_022.jpg
465.687	2.577	1	regulate	Run1	regulate/STIM_022.jpg
471.932	2.068	1	regulate	Run1	regulate/STIM_022.jpg
477.362	1.783	1	regulate	Run1	regulate/STIM_022.jpg
481.4	2.706	1	regulate	Run1	regulate/STIM_023.jpg
486.165	3.781	1	regulate	Run1	regulate/STIM_023.jpg
491.943	2.305	1	regulate	Run1	regulate/STIM_023.jpg
497.951	3.433	1	regulate	Run1	regulate/STIM_023.jpg
503.823	2.686	1	regulate	Run1	regulate/STIM_024.jpg
508.325	3.88	0	regulate	Run1	regulate/STIM_024.jpg
513.752	3.219	1	regulate	Run1	regulate/STIM_024.jpg
518.552	3.241	1	regulate	Run1	regulate/STIM_024.jpg
523.458	2.828	1	regulate	Run1	regulate/STIM_025.jpg
528.429	3.639	0	regulate	Run1	regulate/STIM_025.jpg
533.876	2.561	0	regulate	Run1	regulate/STIM_025.jpg
540.111	1.378	1	regulate	Run1	regulate/STIM_025.jpg
544.486	2.181	1	regulate	Run1	regulate/STIM_026.jpg
550.316	3.168	1	regulate	Run1	regulate/STIM_026.jpg
556.3	3.188	1	regulate	Run1	regulate/STIM_026.jpg
562.622	1.749	1	regulate	Run1	regulate/STIM_026.jpg
566.301	3.277	0	regulate	Run1	regulate/STIM_027.jpg
573.017	2.209	0	regulate	Run1	regulate/STIM_027.jpg
578.282	3.352	1	regulate	Run1	regulate/STIM_027.jpg
584.123	2.465	1	regulate	Run1	regulate/STIM_027.jpg
588.512	3.877	1	regulate	Run1	regulate/STIM_028.jpg
594.599	3.311	0	regulate	Run1	regulate/STIM_028.jpg
600.149	1.632	1	regulate	Run1	regulate/STIM_028.jpg
604.435	2.443	0	regulate	Run1	regulate/STIM_028.jpg
610.05	3.501	1	regulate	Run1	regulate/STIM_029.jpg
616.468	1.95	1	regulate	Run1	regulate/STIM_029.jpg
621.017	2.578	0	regulate	Run1	regulate/STIM_029.jpg
626.216	2.499	1	regulate	Run1	regulate/STIM_029.jpg
631.377	1.742	1	observe	Run1	observe/STIM_000.jpg
636.263	1.261	0	observe	Run1	observe/STIM_000.jpg
640.091	1.613	0	observe	Run1	observe/STIM_000.jpg
643.802	1.322	1	observe	Run1	observe/STIM_000.jpg
648.339	0.784	1	observe	Run1	observe/STIM_001.jpg
651.651	1.699	0	observe	Run1	observe/STIM_001.jpg
656.347	0.865	1	observe	Run1	observe/STIM_001.jpg
660.71	0.914	1	observe	Run1	observe/STIM_001.jpg
664.512	0.982	1	observe	Run1	observe/STIM_002.jpg
667.765	1.221	0	observe	Run1	observe/STIM_002.jpg
672.64	1.237	1	observe	Run1	observe/STIM_002.jpg
676.009	1.536	1	observe	Run1	observe/STIM_002.jpg
680.519	1.228	1	observe	Run1	observe/STIM_003.jpg
684.422	1.301	1	observe	Run1	observe/STIM_003.jpg
687.708	1.872	1	observe	Run1	observe/STIM_003.jpg
692.942	1.655	1	observe	Run1	observe/STIM_003.jpg
697.341	1.776	1	observe	Run1	observe/STIM_004.jpg
700.947	1.265	1	observe	Run1	observe/STIM_004.jpg
705.509	1.437	1	observe	Run1	observe/STIM_004.jpg
708.846	1.469	1	observe	Run1	observe/STIM_004.jpg
712.547	1.826	1	observe	Run1	observe/STIM_005.jpg
717.661	1.171	1	observe	Run1	observe/STIM_005.jpg
722.368	1.765	1	observe	Run1	observe/STIM_005.jpg
726.49	1.433	1	observe	Run1	observe/STIM_005.jpg
730.131	0.913	1	observe	Run1	observe/STIM_006.jpg
734.428	1.192	1	observe	Run1	observe/STIM_006.jpg
739.085	1.321	0	observe	Run1	observe/STIM_006.jpg
743.828	1.142	1	observe	Run1	observe/STIM_006.jpg
746.864	1.041	1	observe	Run1	observe/STIM_007.jpg
750.803	1.323	1	observe	Run1	observe/STIM_007.jpg
755.515	1.631	0	observe	Run1	observe/STIM_007.jpg
760.395	1.303	0	observe	Run1	observe/STIM_007.jpg
764.223	1.554	1	observe	Run1	observe/STIM_008.jpg
768.095	1.041	1	observe	Run1	observe/STIM_008.jpg
771.188	0.94	1	observe	Run1	observe/STIM_008.jpg
774.167	1.189	1	observe	Run1	observe/STIM_008.jpg
777.761	1.552	1	observe	Run1	observe/STIM_009.jpg
781.554	1.326	1	observe	Run1	observe/STIM_009.jpg
785.443	1.634	1	observe	Run1	observe/STIM_009.jpg
790.636	1.383	1	observe	Run1	observe/STIM_009.jpg
794.795	1.787	1	observe	Run1	observe/STIM_010.jpg
799.24	1.114	1	observe	Run1	observe/STIM_010.jpg
802.293	1.16	1	observe	Run1	observe/STIM_010.jpg
805.319	1.752	1	observe	Run1	observe/STIM_010.jpg
810.666	1.584	0	observe	Run1	observe/STIM_011.jpg
814.043	1.49	1	observe	Run1	observe/STIM_011.jpg
818.034	1.648	1	observe	Run1	observe/STIM_011.jpg
822.251	1.252	1	observe	Run1	observe/STIM_011.jpg
826.39	1.082	1	observe	Run1	observe/STIM_012.jpg
830.637	1.079	1	observe	Run1	observe/STIM_012.jpg
835.451	1.04	0	observe	Run1	observe/STIM_012.jpg
839.122	1.383	1	observe	Run1	observe/STIM_012.jpg
843.398	1.675	1	observe	Run1	observe/STIM_013.jpg
848.674	1.444	1	observe	Run1	observe/STIM_013.jpg
852.182	0.959	1	observe	Run1	observe/STIM_013.jpg
855.779	1.236	1	observe	Run1	observe/STIM_013.jpg
860.609	1.509	1	observe	Run1	observe/STIM_014.jpg
864.156	1.211	1	observe	Run1	observe/STIM_014.jpg
869.002	0.936	1	observe	Run1	observe/STIM_014.jpg
872.183	1.825	1	observe	Run1	observe/STIM_014.jpg
877.641	1.084	1	observe	Run1	observe/STIM_015.jpg
881.349	1.23	1	observe	Run1	observe/STIM_015.jpg
885.818	1.234	0	observe	Run1	observe/STIM_015.jpg
889.482	1.76	1	observe	Run1	observe/STIM_015.jpg
893.478	1.691	1	observe	Run1	observe/STIM_016.jpg
897.258	1.374	1	observe	Run1	observe/STIM_016.jpg
901.172	1.333	0	observe	Run1	observe/STIM_016.jpg
905.684	1.223	1	observe	Run1	observe/STIM_016.jpg
910.382	1.277	1	observe	Run1	observe/STIM_017.jpg
915.391	1.8	0	observe	Run1	observe/STIM_017.jpg
920.598	1.315	1	observe	Run1	observe/STIM_017.jpg
925.705	1.282	1	observe	Run1	observe/STIM_017.jpg
929.327	1.231	1	observe	Run1	observe/STIM_018.jpg
932.763	1.546	1	observe	Run1	observe/STIM_018.jpg
937.709	1.776	1	observe	Run1	observe/STIM_018.jpg
941.723	1.449	1	observe	Run1	observe/STIM_018.jpg
946.849	1.662	0	observe	Run1	observe/STIM_019.jpg
951.395	1.261	1	observe	Run1	observe/STIM_019.jpg
956.43	1.72	1	observe	Run1	observe/STIM_019.jpg
960.513	1.231	1	observe	Run1	observe/STIM_019.jpg
963.747	3.25	0	regulate	Run2	regulate/STIM_000.jpg
968.651	1.898	1	regulate	Run2	regulate/STIM_000.jpg
972.549	2.447	1	regulate	Run2	regulate/STIM_000.jpg
977.9	1.322	1	regulate	Run2	regulate/STIM_000.jpg
981.499	1.719	1	regulate	Run2	regulate/STIM_001.jpg
985.21	2.718	1	regulate	Run2	regulate/STIM_001.jpg
989.884	2.907	1	regulate	Run2	regulate/STIM_001.jpg
994.627	2.386	1	regulate	Run2	regulate/STIM_001.jpg
1000.111	2.011	1	regulate	Run2	regulate/STIM_002.jpg
1004.935	2.196	1	regulate	Run2	regulate/STIM_002.jpg
1010.251	2.439	1	regulate	Run2	regulate/STIM_002.jpg
1015.166	2.647	1	regulate	Run2	regulate/STIM_002.jpg
1020.659	3.161	1	regulate	Run2	regulate/STIM_003.jpg
1027.069	2.747	1	regulate	Run2	regulate/STIM_003.jpg
1032.917	2.042	1	regulate	Run2	regulate/STIM_003.jpg
1037.374	2.493	1	regulate	Run2	regulate/STIM_003.jpg
1042.434	2.66	1	regulate	Run2	regulate/STIM_004.jpg
1048.311	2.741	1	regulate	Run2	regulate/STIM_004.jpg
1053.464	2.546	1	regulate	Run2	regulate/STIM_004.jpg
1059.134	2.62	1	regulate	Run2	regulate/STIM_004.jpg
1064.707	1.863	1	regulate	Run2	regulate/STIM_005.jpg
1069.253	3.189	1	regulate	Run2	regulate/STIM_005.jpg
1075.748	1.484	1	regulate	Run2	regulate/STIM_005.jpg
1080.242	1.839	0	regulate	Run2	regulate/STIM_005.jpg
1085.041	2.244	1	regulate	Run2	regulate/STIM_006.jpg
1089.89	2.81	1	regulate	Run2	regulate/STIM_006.jpg
1094.519	2.188	1	regulate	Run2	regulate/STIM_006.jpg
1098.697	2.168	1	regulate	Run2	regulate/STIM_006.jpg
1104.124	3.033	1	regulate	Run2	regulate/STIM_007.jpg
1110.208	2.902	1	regulate	Run2	regulate/STIM_007.jpg
1115.54	1.764	1	regulate	Run2	regulate/STIM_007.jpg
1119.584	2.341	1	regulate	Run2	regulate/STIM_007.jpg
1125.461	3.207	1	regulate	Run2	regulate/STIM_008.jpg
1131.438	1.994	0	regulate	Run2	regulate/STIM_008.jpg
1135.619	2.487	1	regulate	Run2	regulate/STIM_008.jpg
1140.687	1.556	1	regulate	Run2	regulate/STIM_008.jpg
1144.098	1.377	1	regulate	Run2	regulate/STIM_009.jpg
1147.55	1.847	0	regulate	Run2	regulate/STIM_009.jpg
1151.227	2.593	1	regulate	Run2	regulate/STIM_009.jpg
1155.673	2.144	1	regulate	Run2	regulate/STIM_009.jpg
1160.497	1.579	1	regulate	Run2	regulate/STIM_010.jpg
1164.637	1.949	1	regulate	Run2	regulate/STIM_010.jpg
1168.586	1.364	1	regulate	Run2	regulate/STIM_010.jpg
1172.597	1.545	1	regulate	Run2	regulate/STIM_010.jpg
1177.664	2.592	1	regulate	Run2	regulate/STIM_011.jpg
1183.365	2.859	1	regulate	Run2	regulate/STIM_011.jpg
1188.595	1.54	1	regulate	Run2	regulate/STIM_011.jpg
1192.192	2.681	1	regulate	Run2	regulate/STIM_011.jpg
1197.539	2.311	1	regulate	Run2	regulate/STIM_012.jpg
1202.154	2.183	1	regulate	Run2	regulate/STIM_012.jpg
1207.915	1.738	1	regulate	Run2	regulate/STIM_012.jpg
1212.104	2.729	1	regulate	Run2	regulate/STIM_012.jpg
1217.655	3.198	1	regulate	Run2	regulate/STIM_013.jpg
1223.568	2.664	1	regulate	Run2	regulate/STIM_013.jpg
1229.54	1.622	1	regulate	Run2	regulate/STIM_013.jpg
1233.941	1.648	1	regulate	Run2	regulate/STIM_013.jpg
1237.454	1.941	1	regulate	Run2	regulate/STIM_014.jpg
1241.974	1.902	0	regulate	Run2	regulate/STIM_014.jpg
1247.479	2.172	1	regulate	Run2	regulate/STIM_014.jpg
1252.513	2.38	1	regulate	Run2	regulate/STIM_014.jpg
1256.85	3.334	1	regulate	Run2	regulate/STIM_015.jpg
1263.048	1.761	1	regulate	Run2	regulate/STIM_015.jpg
1266.807	1.865	1	regulate	Run2	regulate/STIM_015.jpg
1271.945	2.063	1	regulate	Run2	regulate/STIM_015.jpg
1276.872	2.612	1	regulate	Run2	regulate/STIM_016.jpg
1282.379	2.867	1	regulate	Run2	regulate/STIM_016.jpg
1288.662	1.74	1	regulate	Run2	regulate/STIM_016.jpg
1292.938	1.437	1	regulate	Run2	regulate/STIM_016.jpg
1297.803	2.424	0	regulate	Run2	regulate/STIM_017.jpg
1302.55	2.894	1	regulate	Run2	regulate/STIM_017.jpg
1307.912	1.792	1	regulate	Run2	regulate/STIM_017.jpg
1313.441	2.489	1	regulate	Run2	regulate/STIM_017.jpg
1318.163	1.938	1	regulate	Run2	regulate/STIM_018.jpg
1323.664	1.844	1	regulate	Run2	regulate/STIM_018.jpg
1328.12	1.556	1	regulate	Run2	regulate/STIM_018.jpg
1333.345	2.388	1	regulate	Run2	regulate/STIM_018.jpg
1339.362	3.31	1	regulate	Run2	regulate/STIM_019.jpg
1345.734	1.36	1	regulate	Run2	regulate/STIM_019.jpg
1349.68	1.616	0	regulate	Run2	regulate/STIM_019.jpg
1354.999	2.66	1	regulate	Run2	regulate/STIM_019.jpg
1359.47	2.904	1	regulate	Run2	regulate/STIM_020.jpg
1364.656	2.835	1	regulate	Run2	regulate/STIM_020.jpg
1370.115	2.34	1	regulate	Run2	regulate/STIM_020.jpg
1375.604	2.643	1	regulate	Run2	regulate/STIM_020.jpg
1381.271	3.29	0	regulate	Run2	regulate/STIM_021.jpg
1387.531	1.466	1	regulate	Run2	regulate/STIM_021.jpg
1391.995	1.824	1	regulate	Run2	regulate/STIM_021.jpg
1396.826	2.209	1	regulate	Run2	regulate/STIM_021.jpg
1401.804	1.742	1	regulate	Run2	regulate/STIM_022.jpg
1405.725	2.344	1	regulate	Run2	regulate/STIM_022.jpg
1410.926	2.425	1	regulate	Run2	regulate/STIM_022.jpg
1415.101	1.382	1	regulate	Run2	regulate/STIM_022.jpg
1418.9	2.116	1	regulate	Run2	regulate/STIM_023.jpg
1424.686	2.374	1	regulate	Run2	regulate/STIM_023.jpg
1429.051	2.837	1	regulate	Run2	regulate/STIM_023.jpg
1435.394	2.722	1	regulate	Run2	regulate/STIM_023.jpg
1441.407	2.893	1	regulate	Run2	regulate/STIM_024.jpg
1447.591	2.868	1	regulate	Run2	regulate/STIM_024.jpg
1452.711	2.161	1	regulate	Run2	regulate/STIM_024.jpg
1456.906	1.415	1	regulate	Run2	regulate/STIM_024.jpg
1460.183	1.597	1	regulate	Run2	regulate/STIM_025.jpg
1464.226	1.992	1	regulate	Run2	regulate/STIM_025.jpg
1468.473	1.42	1	regulate	Run2	regulate/STIM_025.jpg
1471.833	1.69	1	regulate	Run2	regulate/STIM_025.jpg
1476.187	2.528	0	regulate	Run2	regulate/STIM_026.jpg
1481.217	3.077	1	regulate	Run2	regulate/STIM_026.jpg
1486.047	2.426	1	regulate	Run2	regulate/STIM_026.jpg
1491.135	2.281	1	regulate	Run2	regulate/STIM_026.jpg
1496.806	3.114	1	regulate	Run2	regulate/STIM_027.jpg
1503.537	1.774	0	regulate	Run2	regulate/STIM_027.jpg
1509.167	2.51	0	regulate	Run2	regulate/STIM_027.jpg
1513.829	1.842	1	regulate	Run2	regulate/STIM_027.jpg
1518.083	3.272	1	regulate	Run2	regulate/STIM_028.jpg
1523.129	2.039	1	regulate	Run2	regulate/STIM_028.jpg
1528.019	2.021	1	regulate	Run2	regulate/STIM_028.jpg
1532.614	1.508	1	regulate	Run2	regulate/STIM_028.jpg
1537.897	2.963	1	regulate	Run2	regulate/STIM_029.jpg
1543.642	2.595	0	regulate	Run2	regulate/STIM_029.jpg
1549.033	2.393	1	regulate	Run2	regulate/STIM_029.jpg
1555.061	1.356	0	regulate	Run2	regulate/STIM_029.jpg
1559.495	1.826	1	observe	Run2	observe/STIM_000.jpg
1564.446	1.158	1	observe	Run2	observe/STIM_000.jpg
1567.745	1.631	1	observe	Run2	observe/STIM_000.jpg
1571.483	1.168	1	observe	Run2	observe/STIM_000.jpg
1575.947	1.298	1	observe	Run2	observe/STIM_001.jpg
1579.175	1.686	1	observe	Run2	observe/STIM_001.jpg
1582.72	1.269	1	observe	Run2	observe/STIM_001.jpg
1586.548	1.088	1	observe	Run2	observe/STIM_001.jpg
1590.118	1.166	1	observe	Run2	observe/STIM_002.jpg
1594.571	1.729	1	observe	Run2	observe/STIM_002.jpg
1598.687	1.76	1	observe	Run2	observe/STIM_002.jpg
1604.197	1.336	1	observe	Run2	observe/STIM_002.jpg
1607.937	1.392	1	observe	Run2	observe/STIM_003.jpg
1611.328	1.826	1	observe	Run2	observe/STIM_003.jpg
1615.067	1.359	1	observe	Run2	observe/STIM_003.jpg
1618.735	1.195	1	observe	Run2	observe/STIM_003.jpg
1623.603	0.906	1	observe	Run2	observe/STIM_004.jpg
1628.284	1.188	0	observe	Run2	observe/STIM_004.jpg
1632.318	1.296	0	observe	Run2	observe/STIM_004.jpg
1635.982	1.856	1	observe	Run2	observe/STIM_004.jpg
1641.316	0.933	1	observe	Run2	observe/STIM_005.jpg
1645.711	1.705	1	observe	Run2	observe/STIM_005.jpg
1650.672	1.44	1	observe	Run2	observe/STIM_005.jpg
1654.879	1.484	1	observe	Run2	observe/STIM_005.jpg
1659.261	1.153	1	observe	Run2	observe/STIM_006.jpg
1663.067	1.031	1	observe	Run2	observe/STIM_006.jpg
1666.293	1.467	1	observe	Run2	observe/STIM_006.jpg
1670.759	1.126	1	observe	Run2	observe/STIM_006.jpg
1674.425	1.369	1	observe	Run2	observe/STIM_007.jpg
1679.348	1.508	1	observe	Run2	observe/STIM_007.jpg
1683.235	1.532	1	observe	Run2	observe/STIM_007.jpg
1687.098	1.886	1	observe	Run2	observe/STIM_007.jpg
1691.557	1.234	1	observe	Run2	observe/STIM_008.jpg
1696.192	1.171	1	observe	Run2	observe/STIM_008.jpg
1701.015	1.816	1	observe	Run2	observe/STIM_008.jpg
1706.467	1.607	1	observe	Run2	observe/STIM_008.jpg
1709.92	1.715	1	observe	Run2	observe/STIM_009.jpg
1715.074	1.009	1	observe	Run2	observe/STIM_009.jpg
1719.029	1.543	1	observe	Run2	observe/STIM_009.jpg
1724.206	1.581	1	observe	Run2	observe/STIM_009.jpg
1727.927	1.853	1	observe	Run2	observe/STIM_010.jpg
1733.069	1.284	0	observe	Run2	observe/STIM_010.jpg
1736.357	1.056	1	observe	Run2	observe/STIM_010.jpg
1739.601	1.511	1	observe	Run2	observe/STIM_010.jpg
1744.266	1.84	1	observe	Run2	observe/STIM_011.jpg
1749.458	1.422	1	observe	Run2	observe/STIM_011.jpg
1754.108	1.684	1	observe	Run2	observe/STIM_011.jpg
1758.205	1.51	1	observe	Run2	observe/STIM_011.jpg
1763.349	1.226	0	observe	Run2	observe/STIM_012.jpg
1767.591	1.37	1	observe	Run2	observe/STIM_012.jpg
1771.777	1.402	1	observe	Run2	observe/STIM_012.jpg
1775.956	1.354	0	observe	Run2	observe/STIM_012.jpg
1779.996	0.973	1	observe	Run2	observe/STIM_013.jpg
1783.039	1.392	1	observe	Run2	observe/STIM_013.jpg
1787.607	1.92	1	observe	Run2	observe/STIM_013.jpg
1792.163	0.93	1	observe	Run2	observe/STIM_013.jpg
1796.038	1.126	1	observe	Run2	observe/STIM_014.jpg
1800.325	1.021	1	observe	Run2	observe/STIM_014.jpg
1804.465	1.762	1	observe	Run2	observe/STIM_014.jpg
1808.553	1.454	1	observe	Run2	observe/STIM_014.jpg
1812.804	0.961	1	observe	Run2	observe/STIM_015.jpg
1817.38	1.379	1	observe	Run2	observe/STIM_015.jpg
1821.191	1.85	1	observe	Run2	observe/STIM_015.jpg
1825.238	1.729	1	observe	Run2	observe/STIM_015.jpg
1829.449	1.798	0	observe	Run2	observe/STIM_016.jpg
1834.534	1.685	1	observe	Run2	observe/STIM_016.jpg
1838.724	1.143	0	observe	Run2	observe/STIM_016.jpg
1841.829	1.301	1	observe	Run2	observe/STIM_016.jpg
1845.731	1.407	1	observe	Run2	observe/STIM_017.jpg
1850.011	1.599	1	observe	Run2	observe/STIM_017.jpg
1853.92	1.185	1	observe	Run2	observe/STIM_017.jpg
1858.542	1.648	1	observe	Run2	observe/STIM_017.jpg
1863.63	1.46	1	observe	Run2	observe/STIM_018.jpg
1868.794	1.573	1	observe	Run2	observe/STIM_018.jpg
1873.448	0.969	0	observe	Run2	observe/STIM_018.jpg
1877.528	1.27	1	observe	Run2	observe/STIM_018.jpg
1881.7	0.94	1	observe	Run2	observe/STIM_019.jpg
1885.71	1.253	1	observe	Run2	observe/STIM_019.jpg
1890.421	1.827	1	observe	Run2	observe/STIM_019.jpg
1894.208	1.464	1	observe	Run2	observe/STIM_019.jpg
1897.786	1.188	1	regulate	Run3	regulate/STIM_000.jpg
1900.895	1.79	1	regulate	Run3	regulate/STIM_000.jpg
1905.332	1.634	0	regulate	Run3	regulate/STIM_000.jpg
1909.364	1.95	0	regulate	Run3	regulate/STIM_000.jpg
1913.191	2.321	1	regulate	Run3	regulate/STIM_001.jpg
1918.383	1.596	1	regulate	Run3	regulate/STIM_001.jpg
1922.175	2.516	1	regulate	Run3	regulate/STIM_001.jpg
1926.419	1.811	1	regulate	Run3	regulate/STIM_001.jpg
1930.985	2.027	1	regulate	Run3	regulate/STIM_002.jpg
1935.437	1.378	1	regulate	Run3	regulate/STIM_002.jpg
1939.051	2.289	1	regulate	Run3	regulate/STIM_002.jpg
1944.438	2.472	1	regulate	Run3	regulate/STIM_002.jpg
1950.515	2.067	1	regulate	Run3	regulate/STIM_003.jpg
1954.951	1.642	1	regulate	Run3	regulate/STIM_003.jpg
1959.528	2.253	1	regulate	Run3	regulate/STIM_003.jpg
1964.692	2.631	1	regulate	Run3	regulate/STIM_003.jpg
1970.968	1.271	1	regulate	Run3	regulate/STIM_004.jpg
1975.631	2.237	1	regulate	Run3	regulate/STIM_004.jpg
1979.735	2.591	1	regulate	Run3	regulate/STIM_004.jpg
1985.198	1.16	1	regulate	Run3	regulate/STIM_004.jpg
1989.128	1.328	1	regulate	Run3	regulate/STIM_005.jpg
1992.792	2.054	1	regulate	Run3	regulate/STIM_005.jpg
1996.755	1.826	1	regulate	Run3	regulate/STIM_005.jpg
2000.992	2.075	1	regulate	Run3	regulate/STIM_005.jpg
2005.962	1.692	1	regulate	Run3	regulate/STIM_006.jpg
2010.919	1.265	1	regulate	Run3	regulate/STIM_006.jpg
2015.931	2.672	1	regulate	Run3	regulate/STIM_006.jpg
2021.106	1.55	1	regulate	Run3	regulate/STIM_006.jpg
2024.898	2.372	1	regulate	Run3	regulate/STIM_007.jpg
2030.669	1.643	1	regulate	Run3	regulate/STIM_007.jpg
2034.554	1.875	1	regulate	Run3	regulate/STIM_007.jpg
2038.103	2.094	1	regulate	Run3	regulate/STIM_007.jpg
2043.699	2.274	1	regulate	Run3	regulate/STIM_008.jpg
2048.138	1.194	1	regulate	Run3	regulate/STIM_008.jpg
2051.306	1.587	1	regulate	Run3	regulate/STIM_008.jpg
2056.301	2.686	1	regulate	Run3	regulate/STIM_008.jpg
2061.847	1.456	1	regulate	Run3	regulate/STIM_009.jpg
2066.736	2.321	1	regulate	Run3	regulate/STIM_009.jpg
2071.699	1.458	1	regulate	Run3	regulate/STIM_009.jpg
2076.314	2.574	1	regulate	Run3	regulate/STIM_009.jpg
2082.379	1.283	1	regulate	Run3	regulate/STIM_010.jpg
2085.837	1.34	1	regulate	Run3	regulate/STIM_010.jpg
2089.187	2.632	1	regulate	Run3	regulate/STIM_010.jpg
2095.045	1.324	1	regulate	Run3	regulate/STIM_010.jpg
2098.538	1.864	1	regulate	Run3	regulate/STIM_011.jpg
2103.928	1.281	1	regulate	Run3	regulate/STIM_011.jpg
2108.747	1.895	1	regulate	Run3	regulate/STIM_011.jpg
2112.742	1.39	1	regulate	Run3	regulate/STIM_011.jpg
2117.075	1.903	1	regulate	Run3	regulate/STIM_012.jpg
2120.929	2.106	1	regulate	Run3	regulate/STIM_012.jpg
2125.829	1.394	1	regulate	Run3	regulate/STIM_012.jpg
2129.613	1.321	1	regulate	Run3	regulate/STIM_012.jpg
2133.784	2.125	1	regulate	Run3	regulate/STIM_013.jpg
2138.736	1.311	1	regulate	Run3	regulate/STIM_013.jpg
2142.68	2.24	1	regulate	Run3	regulate/STIM_013.jpg
2148.268	1.758	1	regulate	Run3	regulate/STIM_013.jpg
2152.101	2.222	1	regulate	Run3	regulate/STIM_014.jpg
2156.57	2.464	0	regulate	Run3	regulate/STIM_014.jpg
2161.638	1.901	1	regulate	Run3	regulate/STIM_014.jpg
2166.23	1.345	1	regulate	Run3	regulate/STIM_014.jpg
2169.601	1.86	1	regulate	Run3	regulate/STIM_015.jpg
2173.872	2.745	1	regulate	Run3	regulate/STIM_015.jpg
2179.11	2.294	1	regulate	Run3	regulate/STIM_015.jpg
2185.017	1.716	1	regulate	Run3	regulate/STIM_015.jpg
2190.258	1.669	1	regulate	Run3	regulate/STIM_016.jpg
2194.084	2.563	1	regulate	Run3	regulate/STIM_016.jpg
2199.19	1.303	1	regulate	Run3	regulate/STIM_016.jpg
2204.068	1.565	1	regulate	Run3	regulate/STIM_016.jpg
2207.508	2.359	1	regulate	Run3	regulate/STIM_017.jpg
2212.486	1.87	1	regulate	Run3	regulate/STIM_017.jpg
2217.555	1.649	1	regulate	Run3	regulate/STIM_017.jpg
2221.05	2.836	1	regulate	Run3	regulate/STIM_017.jpg
2225.873	1.523	1	regulate	Run3	regulate/STIM_018.jpg
2229.966	1.5	1	regulate	Run3	regulate/STIM_018.jpg
2235.239	1.895	1	regulate	Run3	regulate/STIM_018.jpg
2240.519	2.678	1	regulate	Run3	regulate/STIM_018.jpg
2244.829	2.127	1	regulate	Run3	regulate/STIM_019.jpg
2249.972	2.276	1	regulate	Run3	regulate/STIM_019.jpg
2255.035	2.572	1	regulate	Run3	regulate/STIM_019.jpg
2260.414	2.703	1	regulate	Run3	regulate/STIM_019.jpg
2265.217	2.433	1	regulate	Run3	regulate/STIM_020.jpg
2271.271	2.27	1	regulate	Run3	regulate/STIM_020.jpg
2276.938	2.045	1	regulate	Run3	regulate/STIM_020.jpg
2281.185	2.232	1	regulate	Run3	regulate/STIM_020.jpg
2285.321	2.291	1	regulate	Run3	regulate/STIM_021.jpg
2291.076	1.852	1	regulate	Run3	regulate/STIM_021.jpg
2296.529	1.822	1	regulate	Run3	regulate/STIM_021.jpg
2301.768	2.608	1	regulate	Run3	regulate/STIM_021.jpg
2307.622	2.584	1	regulate	Run3	regulate/STIM_022.jpg
2313.059	1.725	1	regulate	Run3	regulate/STIM_022.jpg
2317.356	2.547	1	regulate	Run3	regulate/STIM_022.jpg
2322.247	2.27	1	regulate	Run3	regulate/STIM_022.jpg
2327.216	2.222	1	regulate	Run3	regulate/STIM_023.jpg
2333.099	1.241	1	regulate	Run3	regulate/STIM_023.jpg
2337.793	1.473	1	regulate	Run3	regulate/STIM_023.jpg
2341.923	1.534	1	regulate	Run3	regulate/STIM_023.jpg
2345.82	2.369	1	regulate	Run3	regulate/STIM_024.jpg
2350.567	2.726	1	regulate	Run3	regulate/STIM_024.jpg
2355.275	2.069	1	regulate	Run3	regulate/STIM_024.jpg
2359.862	2.602	1	regulate	Run3	regulate/STIM_024.jpg
2365.503	1.734	1	regulate	Run3	regulate/STIM_025.jpg
2370.917	1.881	0	regulate	Run3	regulate/STIM_025.jpg
2375.451	1.308	1	regulate	Run3	regulate/STIM_025.jpg
2380.126	2.514	1	regulate	Run3	regulate/STIM_025.jpg
2384.607	2.674	1	regulate	Run3	regulate/STIM_026.jpg
2389.171	1.54	1	regulate	Run3	regulate/STIM_026.jpg
2394.332	1.275	1	regulate	Run3	regulate/STIM_026.jpg
2398.441	1.737	1	regulate	Run3	regulate/STIM_026.jpg
2403.352	1.711	1	regulate	Run3	regulate/STIM_027.jpg
2407.054	1.32	1	regulate	Run3	regulate/STIM_027.jpg
2411.016	2.392	1	regulate	Run3	regulate/STIM_027.jpg
2415.634	1.403	1	regulate	Run3	regulate/STIM_027.jpg
2420.034	2.448	1	regulate	Run3	regulate/STIM_028.jpg
2425.1	2.216	1	regulate	Run3	regulate/STIM_028.jpg
2429.325	1.524	1	regulate	Run3	regulate/STIM_028.jpg
2432.648	2.66	1	regulate	Run3	regulate/STIM_028.jpg
2438.931	2.069	1	regulate	Run3	regulate/STIM_029.jpg
2442.824	1.388	1	regulate	Run3	regulate/STIM_029.jpg
2446.679	2.803	1	regulate	Run3	regulate/STIM_029.jpg
2452.644	1.583	1	regulate	Run3	regulate/STIM_029.jpg
2456.323	1.231	1	observe	Run3	observe/STIM_000.jpg
2461.159	1.235	0	observe	Run3	observe/STIM_000.jpg
2465.321	1.535	0	observe	Run3	observe/STIM_000.jpg
2468.934	1.284	1	observe	Run3	observe/STIM_000.jpg
2472.401	1.222	1	observe	Run3	observe/STIM_001.jpg
2477.369	1.013	1	observe	Run3	observe/STIM_001.jpg
2480.881	1.619	1	observe	Run3	observe/STIM_001.jpg
2485.938	1.008	0	observe	Run3	observe/STIM_001.jpg
2488.984	1.476	1	observe	Run3	observe/STIM_002.jpg
2494.048	1.453	1	observe	Run3	observe/STIM_002.jpg
2497.611	1.775	1	observe	Run3	observe/STIM_002.jpg
2501.335	1.617	1	observe	Run3	observe/STIM_002.jpg
2505.965	1.261	1	observe	Run3	observe/STIM_003.jpg
2510.083	1.226	1	observe	Run3	observe/STIM_003.jpg
2513.422	1.617	1	observe	Run3	observe/STIM_003.jpg
2518.023	1.004	1	observe	Run3	observe/STIM_003.jpg
2522.391	1.784	0	observe	Run3	observe/STIM_004.jpg
2527.831	1.502	1	observe	Run3	observe/STIM_004.jpg
2532.944	1.686	1	observe	Run3	observe/STIM_004.jpg
2538.073	1.149	1	observe	Run3	observe/STIM_004.jpg
2542.857	1.416	1	observe	Run3	observe/STIM_005.jpg
2547.011	1.179	1	observe	Run3	observe/STIM_005.jpg
2551.316	1.64	1	observe	Run3	observe/STIM_005.jpg
2556.345	1.724	1	observe	Run3	observe/STIM_005.jpg
2561.465	1.351	1	observe	Run3	observe/STIM_006.jpg
2564.656	1.529	0	observe	Run3	observe/STIM_006.jpg
2569.908	1.133	1	observe	Run3	observe/STIM_006.jpg
2572.871	1.308	0	observe	Run3	observe/STIM_006.jpg
2577.001	1.175	1	observe	Run3	observe/STIM_007.jpg
2580.526	1.489	1	observe	Run3	observe/STIM_007.jpg
2584.472	1.32	1	observe	Run3	observe/STIM_007.jpg
2588.486	1.123	1	observe	Run3	observe/STIM_007.jpg
2592.283	1.251	0	observe	Run3	observe/STIM_008.jpg
2595.621	1.265	1	observe	Run3	observe/STIM_008.jpg
2599.754	0.934	1	observe	Run3	observe/STIM_008.jpg
2603.701	1.665	1	observe	Run3	observe/STIM_008.jpg
2608.607	1.609	1	observe	Run3	observe/STIM_009.jpg
2613.456	1.141	1	observe	Run3	observe/STIM_009.jpg
2616.909	1.576	1	observe	Run3	observe/STIM_009.jpg
2620.663	1.523	0	observe	Run3	observe/STIM_009.jpg
2625.639	1.128	1	observe	Run3	observe/STIM_010.jpg
2629.953	1.38	1	observe	Run3	observe/STIM_010.jpg
2634.314	0.95	1	observe	Run3	observe/STIM_010.jpg
2638.194	1.101	1	observe	Run3	observe/STIM_010.jpg
2642.136	1.387	0	observe	Run3	observe/STIM_011.jpg
2647.158	1.003	1	observe	Run3	observe/STIM_011.jpg
2651.725	1.052	1	observe	Run3	observe/STIM_011.jpg
2655.468	1.477	0	observe	Run3	observe/STIM_011.jpg
2659.204	0.991	1	observe	Run3	observe/STIM_012.jpg
2662.676	1.714	1	observe	Run3	observe/STIM_012.jpg
2667.423	1.497	1	observe	Run3	observe/STIM_012.jpg
2671.872	1.094	1	observe	Run3	observe/STIM_012.jpg
2674.836	1.185	1	observe	Run3	observe/STIM_013.jpg
2679.637	1.086	0	observe	Run3	observe/STIM_013.jpg
2683.091	1.494	1	observe	Run3	observe/STIM_013.jpg
2687.352	1.153	1	observe	Run3	observe/STIM_013.jpg
2692.127	1.448	0	observe	Run3	observe/STIM_014.jpg
2695.766	1.255	1	observe	Run3	observe/STIM_014.jpg
2699.768	1.375	1	observe	Run3	observe/STIM_014.jpg
2704.102	0.95	1	observe	Run3	observe/STIM_014.jpg
2707.983	1.405	1	observe	Run3	observe/STIM_015.jpg
2712.284	1.646	0	observe	Run3	observe/STIM_015.jpg
2716.083	1.653	1	observe	Run3	observe/STIM_015.jpg
2719.874	1.06	1	observe	Run3	observe/STIM_015.jpg
2724.448	1.72	1	observe	Run3	observe/STIM_016.jpg
2729.64	1.424	1	observe	Run3	observe/STIM_016.jpg
2734.805	1.236	0	observe	Run3	observe/STIM_016.jpg
2738.584	1.475	1	observe	Run3	observe/STIM_016.jpg
2743.531	1.614	0	observe	Run3	observe/STIM_017.jpg
2747.198	1.691	1	observe	Run3	observe/STIM_017.jpg
2752.69	1.545	1	observe	Run3	observe/STIM_017.jpg
2756.081	1.582	1	observe	Run3	observe/STIM_017.jpg
2761.004	1.076	1	observe	Run3	observe/STIM_018.jpg
2764.96	1.043	1	observe	Run3	observe/STIM_018.jpg
2768.415	1.438	1	observe	Run3	observe/STIM_018.jpg
2772.059	1.353	0	observe	Run3	observe/STIM_018.jpg
2776.323	1.463	1	observe	Run3	observe/STIM_019.jpg
2779.98	0.93	1	observe	Run3	observe/STIM_019.jpg
2784.712	0.986	0	observe	Run3	observe/STIM_019.jpg
2788.336	1.108	1	observe	Run3	observe/STIM_019.jpg
