onset	duration	response_time_ms	trial_type	learning_stage	stimulus	response_port
0.0	2.888	2888.2	regulate	Run1	regulate/STIM_000.jpg	100
4.757	3.673	3673.1	regulate	Run1	regulate/STIM_000.jpg	100
10.788	2.831	2831.1	regulate	Run1	regulate/STIM_000.jpg	100
16.172	2.304	2304.0	regulate	Run1	regulate/STIM_000.jpg	99
21.72	2.79	2789.7	regulate	Run1	regulate/STIM_001.jpg	99
26.753	3.507	3507.2	regulate	Run1	regulate/STIM_001.jpg	99
32.398	2.532	2532.5	regulate	Run1	regulate/STIM_001.jpg	99
37.491	2.104	2104.2	regulate	Run1	regulate/STIM_001.jpg	99
43.097	2.725	2725.4	regulate	Run1	regulate/STIM_002.jpg	99
49.125	2.377	2376.9	regulate	Run1	regulate/STIM_002.jpg	100
54.563	2.25	2249.9	regulate	Run1	regulate/STIM_002.jpg	100
59.242	1.678	1677.9	regulate	Run1	regulate/STIM_002.jpg	100
63.438	2.52	2520.2	regulate	Run1	regulate/STIM_003.jpg	100
67.855	3.045	3045.2	regulate	Run1	regulate/STIM_003.jpg	100
73.437	2.51	2510.5	regulate	Run1	regulate/STIM_003.jpg	100
77.998	3.39	3390.1	regulate	Run1	regulate/STIM_003.jpg	100
83.904	2.064	2064.4	regulate	Run1	regulate/STIM_004.jpg	99
88.232	2.291	2291.4	regulate	Run1	regulate/STIM_004.jpg	99
94.052	3.586	3585.6	regulate	Run1	regulate/STIM_004.jpg	99
99.692	2.423	2423.2	regulate	Run1	regulate/STIM_004.jpg	100
103.869	3.841	3840.6	regulate	Run1	regulate/STIM_005.jpg	99
109.905	2.87	2869.8	regulate	Run1	regulate/STIM_005.jpg	99
116.343	3.012	3011.9	regulate	Run1	regulate/STIM_005.jpg	100
121.297	1.772	1772.4	regulate	Run1	regulate/STIM_005.jpg	100
125.502	3.362	3362.4	regulate	Run1	regulate/STIM_006.jpg	99
131.884	2.363	2363.2	regulate	Run1	regulate/STIM_006.jpg	100
137.197	2.948	2948.4	regulate	Run1	regulate/STIM_006.jpg	100
141.789	1.938	1937.5	regulate	Run1	regulate/STIM_006.jpg	100
146.101	1.833	1833.3	regulate	Run1	regulate/STIM_007.jpg	100
150.073	1.837	1836.9	regulate	Run1	regulate/STIM_007.jpg	100
155.508	3.035	3035.1	regulate	Run1	regulate/STIM_007.jpg	100
160.499	1.729	1728.6	regulate	Run1	regulate/STIM_007.jpg	99
164.497	3.35	3350.3	regulate	Run1	regulate/STIM_008.jpg	100
171.104	3.797	3796.6	regulate	Run1	regulate/STIM_008.jpg	100
177.872	1.588	1587.5	regulate	Run1	regulate/STIM_008.jpg	100
182.836	1.536	1536.3	regulate	Run1	regulate/STIM_008.jpg	99
186.611	3.297	3296.6	regulate	Run1	regulate/STIM_009.jpg	100
191.65	3.578	3578.2	regulate	Run1	regulate/STIM_009.jpg	99
198.694	2.199	2198.9	regulate	Run1	regulate/STIM_009.jpg	99
204.563	2.398	2398.2	regulate	Run1	regulate/STIM_009.jpg	99
210.335	3.964	3964.0	regulate	Run1	regulate/STIM_010.jpg	100
216.119	1.933	1932.6	regulate	Run1	regulate/STIM_010.jpg	100
220.914	1.97	1969.8	regulate	Run1	regulate/STIM_010.jpg	99
225.263	2.591	2590.7	regulate	Run1	regulate/STIM_010.jpg	99
230.673	3.588	3587.5	regulate	Run1	regulate/STIM_011.jpg	99
237.769	2.138	2138.3	regulate	Run1	regulate/STIM_011.jpg	99
242.861	2.77	2770.0	regulate	Run1	regulate/STIM_011.jpg	99
247.774	2.772	2771.7	regulate	Run1	regulate/STIM_011.jpg	100
253.63	3.56	3559.7	regulate	Run1	regulate/STIM_012.jpg	99
259.453	2.507	2507.2	regulate	Run1	regulate/STIM_012.jpg	99
263.745	3.437	3437.4	regulate	Run1	regulate/STIM_012.jpg	100
270.022	2.089	2088.9	regulate	Run1	regulate/STIM_012.jpg	100
274.152	2.701	2701.3	regulate	Run1	regulate/STIM_013.jpg	99
280.4	2.84	2839.6	regulate	Run1	regulate/STIM_013.jpg	99
286.255	2.05	2050.4	regulate	Run1	regulate/STIM_013.jpg	99
291.017	2.446	2446.1	regulate	Run1	regulate/STIM_013.jpg	99
296.704	2.103	2103.2	regulate	Run1	regulate/STIM_014.jpg	99
302.05	2.61	2609.8	regulate	Run1	regulate/STIM_014.jpg	99
306.683	2.721	2720.8	regulate	Run1	regulate/STIM_014.jpg	99
312.005	1.712	1712.5	regulate	Run1	regulate/STIM_014.jpg	100
315.942	2.494	2494.1	regulate	Run1	regulate/STIM_015.jpg	99
320.542	3.728	3728.2	regulate	Run1	regulate/STIM_015.jpg	99
326.631	3.37	3370.1	regulate	Run1	regulate/STIM_015.jpg	100
332.348	3.243	3242.6	regulate	Run1	regulate/STIM_015.jpg	100
338.413	2.322	2322.2	regulate	Run1	regulate/STIM_016.jpg	99
343.35	2.306	2305.5	regulate	Run1	regulate/STIM_016.jpg	100
348.67	2.96	2960.2	regulate	Run1	regulate/STIM_016.jpg	99
355.218	2.137	2136.8	regulate	Run1	regulate/STIM_016.jpg	100
360.224	2.067	2066.7	regulate	Run1	regulate/STIM_017.jpg	99
364.351	2.088	2087.6	regulate	Run1	regulate/STIM_017.jpg	100
369.98	2.862	2862.1	regulate	Run1	regulate/STIM_017.jpg	99
375.61	1.827	1827.4	regulate	Run1	regulate/STIM_017.jpg	100
380.611	2.766	2765.8	regulate	Run1	regulate/STIM_018.jpg	99
386.243	2.201	2200.6	regulate	Run1	regulate/STIM_018.jpg	99
391.277	3.251	3250.9	regulate	Run1	regulate/STIM_018.jpg	99
396.335	1.96	1960.1	regulate	Run1	regulate/STIM_018.jpg	100
400.808	2.505	2505.2	regulate	Run1	regulate/STIM_019.jpg	99
406.434	3.483	3482.9	regulate	Run1	regulate/STIM_019.jpg	99
412.868	2.444	2444.2	regulate	Run1	regulate/STIM_019.jpg	99
418.763	1.486	1486.5	regulate	Run1	regulate/STIM_019.jpg	100
423.141	1.96	1959.5	regulate	Run1	regulate/STIM_020.jpg	100
427.097	1.872	1871.6	regulate	Run1	regulate/STIM_020.jpg	99
432.232	2.757	2756.6	regulate	Run1	regulate/STIM_020.jpg	99
437.355	1.848	1847.9	regulate	Run1	regulate/STIM_020.jpg	100
442.847	2.734	2733.9	regulate	Run1	regulate/STIM_021.jpg	100
447.927	2.863	2863.3	regulate	Run1	regulate/STIM_021.jpg	99
453.166	1.636	1636.3	regulate	Run1	regulate/STIM_021.jpg	99
458.116	1.627	1626.9	regulate	Run1	regulate/STIM_021.jpg	100
462.023	1.808	1808.0	regulate	Run1	regulate/STIM_022.jpg	99
465.687	2.577	2577.2	regulate	Run1	regulate/STIM_022.jpg	100
471.932	2.068	2068.3	regulate	Run1	regulate/STIM_022.jpg	100
477.362	1.783	1782.6	regulate	Run1	regulate/STIM_022.jpg	99
481.4	2.706	2705.7	regulate	Run1	regulate/STIM_023.jpg	99
486.165	3.781	3781.0	regulate	Run1	regulate/STIM_023.jpg	99
491.943	2.305	2305.3	regulate	Run1	regulate/STIM_023.jpg	99
497.951	3.433	3433.1	regulate	Run1	regulate/STIM_023.jpg	100
503.823	2.686	2686.2	regulate	Run1	regulate/STIM_024.jpg	99
508.325	3.88	3880.2	regulate	Run1	regulate/STIM_024.jpg	99
513.752	3.219	3218.8	regulate	Run1	regulate/STIM_024.jpg	100
518.552	3.241	3241.1	regulate	Run1	regulate/STIM_024.jpg	100
523.458	2.828	2827.6	regulate	Run1	regulate/STIM_025.jpg	100
528.429	3.639	3638.7	regulate	Run1	regulate/STIM_025.jpg	100
533.876	2.561	2560.8	regulate	Run1	regulate/STIM_025.jpg	99
540.111	1.378	1378.0	regulate	Run1	regulate/STIM_025.jpg	99
544.486	2.181	2181.2	regulate	Run1	regulate/STIM_026.jpg	99
550.316	3.168	3167.8	regulate	Run1	regulate/STIM_026.jpg	100
556.3	3.188	3187.7	regulate	Run1	regulate/STIM_026.jpg	100
562.622	1.749	1748.8	regulate	Run1	regulate/STIM_026.jpg	100
566.301	3.277	3277.0	regulate	Run1	regulate/STIM_027.jpg	99
573.017	2.209	2208.7	regulate	Run1	regulate/STIM_027.jpg	99
578.282	3.352	3351.8	regulate	Run1	regulate/STIM_027.jpg	99
584.123	2.465	2464.6	regulate	Run1	regulate/STIM_027.jpg	99
588.512	3.877	3876.6	regulate	Run1	regulate/STIM_028.jpg	99
594.599	3.311	3311.0	regulate	Run1	regulate/STIM_028.jpg	99
600.149	1.632	1631.9	regulate	Run1	regulate/STIM_028.jpg	100
604.435	2.443	2443.1	regulate	Run1	regulate/STIM_028.jpg	99
610.05	3.501	3500.9	regulate	Run1	regulate/STIM_029.jpg	99
616.468	1.95	1949.5	regulate	Run1	regulate/STIM_029.jpg	99
621.017	2.578	2578.1	regulate	Run1	regulate/STIM_029.jpg	100
626.216	2.499	2498.9	regulate	Run1	regulate/STIM_029.jpg	100
631.377	1.742	1741.5	observe	Run1	observe/STIM_000.jpg	99
636.263	1.261	1261.0	observe	Run1	observe/STIM_000.jpg	99
640.091	1.613	1613.0	observe	Run1	observe/STIM_000.jpg	100
643.802	1.322	1322.0	observe	Run1	observe/STIM_000.jpg	99
648.339	0.784	783.9	observe	Run1	observe/STIM_001.jpg	99
651.651	1.699	1699.4	observe	Run1	observe/STIM_001.jpg	100
656.347	0.865	864.9	observe	Run1	observe/STIM_001.jpg	100
660.71	0.914	914.0	observe	Run1	observe/STIM_001.jpg	100
664.512	0.982	982.1	observe	Run1	observe/STIM_002.jpg	100
667.765	1.221	1220.9	observe	Run1	observe/STIM_002.jpg	100
672.64	1.237	1237.1	observe	Run1	observe/STIM_002.jpg	100
676.009	1.536	1536.5	observe	Run1	observe/STIM_002.jpg	100
680.519	1.228	1228.3	observe	Run1	observe/STIM_003.jpg	99
684.422	1.301	1300.6	observe	Run1	observe/STIM_003.jpg	99
687.708	1.872	1871.6	observe	Run1	observe/STIM_003.jpg	99
692.942	1.655	1655.2	observe	Run1	observe/STIM_003.jpg	100
697.341	1.776	1775.5	observe	Run1	observe/STIM_004.jpg	100
700.947	1.265	1264.6	observe	Run1	observe/STIM_004.jpg	100
705.509	1.437	1437.4	observe	Run1	observe/STIM_004.jpg	99
708.846	1.469	1468.6	observe	Run1	observe/STIM_004.jpg	99
712.547	1.826	1825.5	observe	Run1	observe/STIM_005.jpg	100
717.661	1.171	1171.3	observe	Run1	observe/STIM_005.jpg	99
722.368	1.765	1764.7	observe	Run1	observe/STIM_005.jpg	99
726.49	1.433	1433.4	observe	Run1	observe/STIM_005.jpg	100
730.131	0.913	912.8	observe	Run1	observe/STIM_006.jpg	99
734.428	1.192	1192.3	observe	Run1	observe/STIM_006.jpg	99
739.085	1.321	1321.2	observe	Run1	observe/STIM_006.jpg	100
743.828	1.142	1141.8	observe	Run1	observe/STIM_006.jpg	99
746.864	1.041	1040.6	observe	Run1	observe/STIM_007.jpg	100
750.803	1.323	1322.9	observe	Run1	observe/STIM_007.jpg	99
755.515	1.631	1631.1	observe	Run1	observe/STIM_007.jpg	99
760.395	1.303	1302.9	observe	Run1	observe/STIM_007.jpg	100
764.223	1.554	1554.0	observe	Run1	observe/STIM_008.jpg	100
768.095	1.041	1040.9	observe	Run1	observe/STIM_008.jpg	99
771.188	0.94	939.9	observe	Run1	observe/STIM_008.jpg	99
774.167	1.189	1189.4	observe	Run1	observe/STIM_008.jpg	99
777.761	1.552	1552.3	observe	Run1	observe/STIM_009.jpg	99
781.554	1.326	1326.1	observe	Run1	observe/STIM_009.jpg	99
785.443	1.634	1634.1	observe	Run1	observe/STIM_009.jpg	99
790.636	1.383	1383.3	observe	Run1	observe/STIM_009.jpg	100
794.795	1.787	1787.1	observe	Run1	observe/STIM_010.jpg	99
799.24	1.114	1114.4	observe	Run1	observe/STIM_010.jpg	100
802.293	1.16	1160.0	observe	Run1	observe/STIM_010.jpg	99
805.319	1.752	1752.4	observe	Run1	observe/STIM_010.jpg	99
810.666	1.584	1584.2	observe	Run1	observe/STIM_011.jpg	100
814.043	1.49	1490.1	observe	Run1	observe/STIM_011.jpg	100
818.034	1.648	1647.6	observe	Run1	observe/STIM_011.jpg	99
822.251	1.252	1252.4	observe	Run1	observe/STIM_011.jpg	99
826.39	1.082	1081.5	observe	Run1	observe/STIM_012.jpg	100
830.637	1.079	1079.4	observe	Run1	observe/STIM_012.jpg	99
835.451	1.04	1040.5	observe	Run1	observe/STIM_012.jpg	99
839.122	1.383	1382.7	observe	Run1	observe/STIM_012.jpg	99
843.398	1.675	1674.7	observe	Run1	observe/STIM_013.jpg	100
848.674	1.444	1444.5	observe	Run1	observe/STIM_013.jpg	100
852.182	0.959	959.4	observe	Run1	observe/STIM_013.jpg	99
855.779	1.236	1236.2	observe	Run1	observe/STIM_013.jpg	99
860.609	1.509	1508.7	observe	Run1	observe/STIM_014.jpg	99
864.156	1.211	1210.7	observe	Run1	observe/STIM_014.jpg	99
869.002	0.936	935.9	observe	Run1	observe/STIM_014.jpg	99
872.183	1.825	1825.1	observe	Run1	observe/STIM_014.jpg	100
877.641	1.084	1084.5	observe	Run1	observe/STIM_015.jpg	99
881.349	1.23	1229.5	observe	Run1	observe/STIM_015.jpg	99
885.818	1.234	1234.2	observe	Run1	observe/STIM_015.jpg	99
889.482	1.76	1760.2	observe	Run1	observe/STIM_015.jpg	99
893.478	1.691	1690.8	observe	Run1	observe/STIM_016.jpg	100
897.258	1.374	1374.5	observe	Run1	observe/STIM_016.jpg	99
901.172	1.333	1332.9	observe	Run1	observe/STIM_016.jpg	99
905.684	1.223	1223.3	observe	Run1	observe/STIM_016.jpg	99
910.382	1.277	1277.3	observe	Run1	observe/STIM_017.jpg	100
915.391	1.8	1799.9	observe	Run1	observe/STIM_017.jpg	99
920.598	1.315	1315.0	observe	Run1	observe/STIM_017.jpg	99
925.705	1.282	1282.3	observe	Run1	observe/STIM_017.jpg	100
929.327	1.231	1231.4	observe	Run1	observe/STIM_018.jpg	100
932.763	1.546	1546.3	observe	Run1	observe/STIM_018.jpg	99
937.709	1.776	1775.9	observe	Run1	observe/STIM_018.jpg	99
941.723	1.449	1448.6	observe	Run1	observe/STIM_018.jpg	99
946.849	1.662	1661.7	observe	Run1	observe/STIM_019.jpg	99
951.395	1.261	1260.6	observe	Run1	observe/STIM_019.jpg	99
956.43	1.72	1720.3	observe	Run1	observe/STIM_019.jpg	99
960.513	1.231	1231.4	observe	Run1	observe/STIM_019.jpg	99
963.747	3.25	3250.0	regulate	Run2	regulate/STIM_000.jpg	99
968.651	1.898	1897.7	regulate	Run2	regulate/STIM_000.jpg	99
972.549	2.447	2446.7	regulate	Run2	regulate/STIM_000.jpg	100
977.9	1.322	1322.5	regulate	Run2	regulate/STIM_000.jpg	99
981.499	1.719	1719.3	regulate	Run2	regulate/STIM_001.jpg	100
985.21	2.718	2717.5	regulate	Run2	regulate/STIM_001.jpg	99
989.884	2.907	2907.0	regulate	Run2	regulate/STIM_001.jpg	99
994.627	2.386	2386.1	regulate	Run2	regulate/STIM_001.jpg	99
1000.111	2.011	2010.9	regulate	Run2	regulate/STIM_002.jpg	99
1004.935	2.196	2195.6	regulate	Run2	regulate/STIM_002.jpg	100
1010.251	2.439	2438.7	regulate	Run2	regulate/STIM_002.jpg	100
1015.166	2.647	2646.9	regulate	Run2	regulate/STIM_002.jpg	99
1020.659	3.161	3161.0	regulate	Run2	regulate/STIM_003.jpg	100
1027.069	2.747	2747.3	regulate	Run2	regulate/STIM_003.jpg	100
1032.917	2.042	2042.4	regulate	Run2	regulate/STIM_003.jpg	99
1037.374	2.493	2492.6	regulate	Run2	regulate/STIM_003.jpg	99
1042.434	2.66	2659.6	regulate	Run2	regulate/STIM_004.jpg	100
1048.311	2.741	2741.3	regulate	Run2	regulate/STIM_004.jpg	100
1053.464	2.546	2546.4	regulate	Run2	regulate/STIM_004.jpg	100
1059.134	2.62	2619.9	regulate	Run2	regulate/STIM_004.jpg	100
1064.707	1.863	1862.6	regulate	Run2	regulate/STIM_005.jpg	99
1069.253	3.189	3189.1	regulate	Run2	regulate/STIM_005.jpg	100
1075.748	1.484	1484.2	regulate	Run2	regulate/STIM_005.jpg	100
1080.242	1.839	1838.6	regulate	Run2	regulate/STIM_005.jpg	100
1085.041	2.244	2243.9	regulate	Run2	regulate/STIM_006.jpg	99
1089.89	2.81	2809.9	regulate	Run2	regulate/STIM_006.jpg	99
1094.519	2.188	2188.0	regulate	Run2	regulate/STIM_006.jpg	100
1098.697	2.168	2167.8	regulate	Run2	regulate/STIM_006.jpg	99
1104.124	3.033	3032.6	regulate	Run2	regulate/STIM_007.jpg	100
1110.208	2.902	2901.7	regulate	Run2	regulate/STIM_007.jpg	100
1115.54	1.764	1763.5	regulate	Run2	regulate/STIM_007.jpg	99
1119.584	2.341	2341.2	regulate	Run2	regulate/STIM_007.jpg	99
1125.461	3.207	3207.0	regulate	Run2	regulate/STIM_008.jpg	100
1131.438	1.994	1994.4	regulate	Run2	regulate/STIM_008.jpg	100
1135.619	2.487	2487.0	regulate	Run2	regulate/STIM_008.jpg	100
1140.687	1.556	1555.5	regulate	Run2	regulate/STIM_008.jpg	100
1144.098	1.377	1377.0	regulate	Run2	regulate/STIM_009.jpg	100
1147.55	1.847	1846.7	regulate	Run2	regulate/STIM_009.jpg	99
1151.227	2.593	2592.9	regulate	Run2	regulate/STIM_009.jpg	99
1155.673	2.144	2143.5	regulate	Run2	regulate/STIM_009.jpg	99
1160.497	1.579	1579.0	regulate	Run2	regulate/STIM_010.jpg	100
1164.637	1.949	1948.8	regulate	Run2	regulate/STIM_010.jpg	100
1168.586	1.364	1364.4	regulate	Run2	regulate/STIM_010.jpg	100
1172.597	1.545	1544.7	regulate	Run2	regulate/STIM_010.jpg	99
1177.664	2.592	2591.6	regulate	Run2	regulate/STIM_011.jpg	100
1183.365	2.859	2859.0	regulate	Run2	regulate/STIM_011.jpg	99
1188.595	1.54	1539.9	regulate	Run2	regulate/STIM_011.jpg	100
1192.192	2.681	2680.8	regulate	Run2	regulate/STIM_011.jpg	100
1197.539	2.311	2311.2	regulate	Run2	regulate/STIM_012.jpg	100
1202.154	2.183	2182.6	regulate	Run2	regulate/STIM_012.jpg	100
1207.915	1.738	1738.3	regulate	Run2	regulate/STIM_012.jpg	99
1212.104	2.729	2728.8	regulate	Run2	regulate/STIM_012.jpg	100
1217.655	3.198	3197.9	regulate	Run2	regulate/STIM_013.jpg	100
1223.568	2.664	2664.1	regulate	Run2	regulate/STIM_013.jpg	99
1229.54	1.622	1622.4	regulate	Run2	regulate/STIM_013.jpg	100
1233.941	1.648	1648.1	regulate	Run2	regulate/STIM_013.jpg	99
1237.454	1.941	1940.8	regulate	Run2	regulate/STIM_014.jpg	99
1241.974	1.902	1902.4	regulate	Run2	regulate/STIM_014.jpg	100
1247.479	2.172	2171.6	regulate	Run2	regulate/STIM_014.jpg	99
1252.513	2.38	2379.8	regulate	Run2	regulate/STIM_014.jpg	99
1256.85	3.334	3333.8	regulate	Run2	regulate/STIM_015.jpg	99
1263.048	1.761	1761.3	regulate	Run2	regulate/STIM_015.jpg	99
1266.807	1.865	1864.7	regulate	Run2	regulate/STIM_015.jpg	99
1271.945	2.063	2063.4	regulate	Run2	regulate/STIM_015.jpg	99
1276.872	2.612	2612.0	regulate	Run2	regulate/STIM_016.jpg	100
1282.379	2.867	2867.4	regulate	Run2	regulate/STIM_016.jpg	100
1288.662	1.74	1739.5	regulate	Run2	regulate/STIM_016.jpg	99
1292.938	1.437	1436.6	regulate	Run2	regulate/STIM_016.jpg	99
1297.803	2.424	2423.8	regulate	Run2	regulate/STIM_017.jpg	100
1302.55	2.894	2894.1	regulate	Run2	regulate/STIM_017.jpg	100
1307.912	1.792	1792.0	regulate	Run2	regulate/STIM_017.jpg	99
1313.441	2.489	2488.7	regulate	Run2	regulate/STIM_017.jpg	100
1318.163	1.938	1938.1	regulate	Run2	regulate/STIM_018.jpg	99
1323.664	1.844	1843.5	regulate	Run2	regulate/STIM_018.jpg	99
1328.12	1.556	1556.1	regulate	Run2	regulate/STIM_018.jpg	99
1333.345	2.388	2388.3	regulate	Run2	regulate/STIM_018.jpg	100
1339.362	3.31	3309.6	regulate	Run2	regulate/STIM_019.jpg	99
1345.734	1.36	1360.4	regulate	Run2	regulate/STIM_019.jpg	99
1349.68	1.616	1616.4	regulate	Run2	regulate/STIM_019.jpg	100
1354.999	2.66	2659.9	regulate	Run2	regulate/STIM_019.jpg	99
1359.47	2.904	2904.1	regulate	Run2	regulate/STIM_020.jpg	99
1364.656	2.835	2835.4	regulate	Run2	regulate/STIM_020.jpg	99
1370.115	2.34	2340.2	regulate	Run2	regulate/STIM_020.jpg	100
1375.604	2.643	2643.3	regulate	Run2	regulate/STIM_020.jpg	100
1381.271	3.29	3290.3	regulate	Run2	regulate/STIM_021.jpg	99
1387.531	1.466	1465.9	regulate	Run2	regulate/STIM_021.jpg	100
1391.995	1.824	1824.4	regulate	Run2	regulate/STIM_021.jpg	99
1396.826	2.209	2209.1	regulate	Run2	regulate/STIM_021.jpg	99
1401.804	1.742	1742.0	regulate	Run2	regulate/STIM_022.jpg	99
1405.725	2.344	2343.7	regulate	Run2	regulate/STIM_022.jpg	99
1410.926	2.425	2424.6	regulate	Run2	regulate/STIM_022.jpg	99
1415.101	1.382	1382.2	regulate	Run2	regulate/STIM_022.jpg	100
1418.9	2.116	2115.9	regulate	Run2	regulate/STIM_023.jpg	100
1424.686	2.374	2373.7	regulate	Run2	regulate/STIM_023.jpg	99
1429.051	2.837	2836.9	regulate	Run2	regulate/STIM_023.jpg	100
1435.394	2.722	2721.8	regulate	Run2	regulate/STIM_023.jpg	99
1441.407	2.893	2892.7	regulate	Run2	regulate/STIM_024.jpg	100
1447.591	2.868	2867.9	regulate	Run2	regulate/STIM_024.jpg	100
1452.711	2.161	2161.0	regulate	Run2	regulate/STIM_024.jpg	100
1456.906	1.415	1414.8	regulate	Run2	regulate/STIM_024.jpg	100
1460.183	1.597	1597.2	regulate	Run2	regulate/STIM_025.jpg	99
1464.226	1.992	1992.4	regulate	Run2	regulate/STIM_025.jpg	99
1468.473	1.42	1419.7	regulate	Run2	regulate/STIM_025.jpg	99
1471.833	1.69	1689.9	regulate	Run2	regulate/STIM_025.jpg	100
1476.187	2.528	2528.0	regulate	Run2	regulate/STIM_026.jpg	100
1481.217	3.077	3077.4	regulate	Run2	regulate/STIM_026.jpg	100
1486.047	2.426	2425.5	regulate	Run2	regulate/STIM_026.jpg	99
1491.135	2.281	2281.0	regulate	Run2	regulate/STIM_026.jpg	99
1496.806	3.114	3113.7	regulate	Run2	regulate/STIM_027.jpg	99
1503.537	1.774	1773.7	regulate	Run2	regulate/STIM_027.jpg	100
1509.167	2.51	2510.3	regulate	Run2	regulate/STIM_027.jpg	99
1513.829	1.842	1841.9	regulate	Run2	regulate/STIM_027.jpg	100
1518.083	3.272	3272.2	regulate	Run2	regulate/STIM_028.jpg	100
1523.129	2.039	2038.6	regulate	Run2	regulate/STIM_028.jpg	99
1528.019	2.021	2021.4	regulate	Run2	regulate/STIM_028.jpg	99
1532.614	1.508	1507.5	regulate	Run2	regulate/STIM_028.jpg	99
1537.897	2.963	2963.0	regulate	Run2	regulate/STIM_029.jpg	100
1543.642	2.595	2595.1	regulate	Run2	regulate/STIM_029.jpg	100
1549.033	2.393	2393.2	regulate	Run2	regulate/STIM_029.jpg	99
1555.061	1.356	1356.0	regulate	Run2	regulate/STIM_029.jpg	100
1559.495	1.826	1825.5	observe	Run2	observe/STIM_000.jpg	99
1564.446	1.158	1157.5	observe	Run2	observe/STIM_000.jpg	100
1567.745	1.631	1631.4	observe	Run2	observe/STIM_000.jpg	100
1571.483	1.168	1168.2	observe	Run2	observe/STIM_000.jpg	100
1575.947	1.298	1297.5	observe	Run2	observe/STIM_001.jpg	100
1579.175	1.686	1685.6	observe	Run2	observe/STIM_001.jpg	100
1582.72	1.269	1269.1	observe	Run2	observe/STIM_001.jpg	100
1586.548	1.088	1088.0	observe	Run2	observe/STIM_001.jpg	100
1590.118	1.166	1166.3	observe	Run2	observe/STIM_002.jpg	99
1594.571	1.729	1728.6	observe	Run2	observe/STIM_002.jpg	100
1598.687	1.76	1759.6	observe	Run2	observe/STIM_002.jpg	99
1604.197	1.336	1336.5	observe	Run2	observe/STIM_002.jpg	99
1607.937	1.392	1392.3	observe	Run2	observe/STIM_003.jpg	100
1611.328	1.826	1826.3	observe	Run2	observe/STIM_003.jpg	99
1615.067	1.359	1358.9	observe	Run2	observe/STIM_003.jpg	100
1618.735	1.195	1194.9	observe	Run2	observe/STIM_003.jpg	99
1623.603	0.906	905.8	observe	Run2	observe/STIM_004.jpg	100
1628.284	1.188	1187.6	observe	Run2	observe/STIM_004.jpg	100
1632.318	1.296	1295.8	observe	Run2	observe/STIM_004.jpg	100
1635.982	1.856	1856.3	observe	Run2	observe/STIM_004.jpg	100
1641.316	0.933	933.4	observe	Run2	observe/STIM_005.jpg	99
1645.711	1.705	1704.9	observe	Run2	observe/STIM_005.jpg	100
1650.672	1.44	1440.5	observe	Run2	observe/STIM_005.jpg	99
1654.879	1.484	1483.9	observe	Run2	observe/STIM_005.jpg	99
1659.261	1.153	1152.6	observe	Run2	observe/STIM_006.jpg	100
1663.067	1.031	1031.4	observe	Run2	observe/STIM_006.jpg	100
1666.293	1.467	1467.2	observe	Run2	observe/STIM_006.jpg	99
1670.759	1.126	1125.7	observe	Run2	observe/STIM_006.jpg	99
1674.425	1.369	1369.0	observe	Run2	observe/STIM_007.jpg	99
1679.348	1.508	1508.3	observe	Run2	observe/STIM_007.jpg	99
1683.235	1.532	1531.9	observe	Run2	observe/STIM_007.jpg	99
1687.098	1.886	1886.4	observe	Run2	observe/STIM_007.jpg	100
1691.557	1.234	1234.3	observe	Run2	observe/STIM_008.jpg	99
1696.192	1.171	1171.0	observe	Run2	observe/STIM_008.jpg	99
1701.015	1.816	1815.8	observe	Run2	observe/STIM_008.jpg	99
1706.467	1.607	1606.9	observe	Run2	observe/STIM_008.jpg	99
1709.92	1.715	1714.6	observe	Run2	observe/STIM_009.jpg	100
1715.074	1.009	1008.9	observe	Run2	observe/STIM_009.jpg	99
1719.029	1.543	1542.9	observe	Run2	observe/STIM_009.jpg	99
1724.206	1.581	1580.7	observe	Run2	observe/STIM_009.jpg	99
1727.927	1.853	1852.6	observe	Run2	observe/STIM_010.jpg	100
1733.069	1.284	1284.2	observe	Run2	observe/STIM_010.jpg	99
1736.357	1.056	1056.3	observe	Run2	observe/STIM_010.jpg	100
1739.601	1.511	1511.2	observe	Run2	observe/STIM_010.jpg	99
1744.266	1.84	1840.5	observe	Run2	observe/STIM_011.jpg	100
1749.458	1.422	1421.8	observe	Run2	observe/STIM_011.jpg	99
1754.108	1.684	1684.3	observe	Run2	observe/STIM_011.jpg	99
1758.205	1.51	1510.5	observe	Run2	observe/STIM_011.jpg	99
1763.349	1.226	1225.5	observe	Run2	observe/STIM_012.jpg	99
1767.591	1.37	1370.2	observe	Run2	observe/STIM_012.jpg	99
1771.777	1.402	1402.1	observe	Run2	observe/STIM_012.jpg	99
1775.956	1.354	1354.0	observe	Run2	observe/STIM_012.jpg	100
1779.996	0.973	972.7	observe	Run2	observe/STIM_013.jpg	99
1783.039	1.392	1391.9	observe	Run2	observe/STIM_013.jpg	99
1787.607	1.92	1919.6	observe	Run2	observe/STIM_013.jpg	100
1792.163	0.93	929.5	observe	Run2	observe/STIM_013.jpg	99
1796.038	1.126	1125.5	observe	Run2	observe/STIM_014.jpg	99
1800.325	1.021	1020.7	observe	Run2	observe/STIM_014.jpg	100
1804.465	1.762	1762.1	observe	Run2	observe/STIM_014.jpg	100
1808.553	1.454	1453.8	observe	Run2	observe/STIM_014.jpg	99
1812.804	0.961	961.4	observe	Run2	observe/STIM_015.jpg	99
1817.38	1.379	1379.0	observe	Run2	observe/STIM_015.jpg	100
1821.191	1.85	1849.6	observe	Run2	observe/STIM_015.jpg	99
1825.238	1.729	1729.4	observe	Run2	observe/STIM_015.jpg	100
1829.449	1.798	1798.3	observe	Run2	observe/STIM_016.jpg	99
1834.534	1.685	1684.7	observe	Run2	observe/STIM_016.jpg	100
1838.724	1.143	1142.6	observe	Run2	observe/STIM_016.jpg	100
1841.829	1.301	1300.6	observe	Run2	observe/STIM_016.jpg	99
1845.731	1.407	1406.6	observe	Run2	observe/STIM_017.jpg	99
1850.011	1.599	1599.4	observe	Run2	observe/STIM_017.jpg	100
1853.92	1.185	1185.1	observe	Run2	observe/STIM_017.jpg	100
1858.542	1.648	1648.4	observe	Run2	observe/STIM_017.jpg	99
1863.63	1.46	1459.6	observe	Run2	observe/STIM_018.jpg	100
1868.794	1.573	1573.0	observe	Run2	observe/STIM_018.jpg	99
1873.448	0.969	968.9	observe	Run2	observe/STIM_018.jpg	100
1877.528	1.27	1269.7	observe	Run2	observe/STIM_018.jpg	99
1881.7	0.94	940.1	observe	Run2	observe/STIM_019.jpg	99
1885.71	1.253	1253.0	observe	Run2	observe/STIM_019.jpg	100
1890.421	1.827	1826.9	observe	Run2	observe/STIM_019.jpg	100
1894.208	1.464	1464.4	observe	Run2	observe/STIM_019.jpg	99
1897.786	1.188	1187.5	regulate	Run3	regulate/STIM_000.jpg	99
1900.895	1.79	1790.2	regulate	Run3	regulate/STIM_000.jpg	99
1905.332	1.634	1633.7	regulate	Run3	regulate/STIM_000.jpg	99
1909.364	1.95	1950.2	regulate	Run3	regulate/STIM_000.jpg	100
1913.191	2.321	2320.9	regulate	Run3	regulate/STIM_001.jpg	99
1918.383	1.596	1596.2	regulate	Run3	regulate/STIM_001.jpg	100
1922.175	2.516	2515.5	regulate	Run3	regulate/STIM_001.jpg	99
1926.419	1.811	1811.4	regulate	Run3	regulate/STIM_001.jpg	100
1930.985	2.027	2027.4	regulate	Run3	regulate/STIM_002.jpg	99
1935.437	1.378	1377.9	regulate	Run3	regulate/STIM_002.jpg	100
1939.051	2.289	2289.1	regulate	Run3	regulate/STIM_002.jpg	100
1944.438	2.472	2471.8	regulate	Run3	regulate/STIM_002.jpg	100
1950.515	2.067	2067.0	regulate	Run3	regulate/STIM_003.jpg	99
1954.951	1.642	1642.5	regulate	Run3	regulate/STIM_003.jpg	99
1959.528	2.253	2253.0	regulate	Run3	regulate/STIM_003.jpg	99
1964.692	2.631	2631.1	regulate	Run3	regulate/STIM_003.jpg	99
1970.968	1.271	1271.2	regulate	Run3	regulate/STIM_004.jpg	99
1975.631	2.237	2237.3	regulate	Run3	regulate/STIM_004.jpg	99
1979.735	2.591	2591.1	regulate	Run3	regulate/STIM_004.jpg	100
1985.198	1.16	1160.5	regulate	Run3	regulate/STIM_004.jpg	99
1989.128	1.328	1327.5	regulate	Run3	regulate/STIM_005.jpg	99
1992.792	2.054	2054.3	regulate	Run3	regulate/STIM_005.jpg	100
1996.755	1.826	1826.0	regulate	Run3	regulate/STIM_005.jpg	100
2000.992	2.075	2074.9	regulate	Run3	regulate/STIM_005.jpg	99
2005.962	1.692	1691.8	regulate	Run3	regulate/STIM_006.jpg	100
2010.919	1.265	1264.8	regulate	Run3	regulate/STIM_006.jpg	100
2015.931	2.672	2672.4	regulate	Run3	regulate/STIM_006.jpg	99
2021.106	1.55	1550.1	regulate	Run3	regulate/STIM_006.jpg	100
2024.898	2.372	2372.0	regulate	Run3	regulate/STIM_007.jpg	99
2030.669	1.643	1643.3	regulate	Run3	regulate/STIM_007.jpg	100
2034.554	1.875	1875.1	regulate	Run3	regulate/STIM_007.jpg	100
2038.103	2.094	2093.5	regulate	Run3	regulate/STIM_007.jpg	99
2043.699	2.274	2274.2	regulate	Run3	regulate/STIM_008.jpg	100
2048.138	1.194	1194.5	regulate	Run3	regulate/STIM_008.jpg	99
2051.306	1.587	1586.6	regulate	Run3	regulate/STIM_008.jpg	99
2056.301	2.686	2686.3	regulate	Run3	regulate/STIM_008.jpg	100
2061.847	1.456	1456.4	regulate	Run3	regulate/STIM_009.jpg	99
2066.736	2.321	2321.0	regulate	Run3	regulate/STIM_009.jpg	99
2071.699	1.458	1458.2	regulate	Run3	regulate/STIM_009.jpg	99
2076.314	2.574	2573.7	regulate	Run3	regulate/STIM_009.jpg	100
2082.379	1.283	1282.7	regulate	Run3	regulate/STIM_010.jpg	100
2085.837	1.34	1339.8	regulate	Run3	regulate/STIM_010.jpg	99
2089.187	2.632	2632.0	regulate	Run3	regulate/STIM_010.jpg	99
2095.045	1.324	1324.0	regulate	Run3	regulate/STIM_010.jpg	100
2098.538	1.864	1864.5	regulate	Run3	regulate/STIM_011.jpg	100
2103.928	1.281	1281.0	regulate	Run3	regulate/STIM_011.jpg	99
2108.747	1.895	1894.8	regulate	Run3	regulate/STIM_011.jpg	99
2112.742	1.39	1390.2	regulate	Run3	regulate/STIM_011.jpg	99
2117.075	1.903	1902.8	regulate	Run3	regulate/STIM_012.jpg	99
2120.929	2.106	2106.5	regulate	Run3	regulate/STIM_012.jpg	100
2125.829	1.394	1393.8	regulate	Run3	regulate/STIM_012.jpg	100
2129.613	1.321	1320.6	regulate	Run3	regulate/STIM_012.jpg	100
2133.784	2.125	2125.0	regulate	Run3	regulate/STIM_013.jpg	99
2138.736	1.311	1310.6	regulate	Run3	regulate/STIM_013.jpg	99
2142.68	2.24	2239.6	regulate	Run3	regulate/STIM_013.jpg	99
2148.268	1.758	1758.2	regulate	Run3	regulate/STIM_013.jpg	100
2152.101	2.222	2221.5	regulate	Run3	regulate/STIM_014.jpg	99
2156.57	2.464	2464.3	regulate	Run3	regulate/STIM_014.jpg	99
2161.638	1.901	1901.2	regulate	Run3	regulate/STIM_014.jpg	99
2166.23	1.345	1345.0	regulate	Run3	regulate/STIM_014.jpg	100
2169.601	1.86	1859.8	regulate	Run3	regulate/STIM_015.jpg	100
2173.872	2.745	2745.3	regulate	Run3	regulate/STIM_015.jpg	99
2179.11	2.294	2294.4	regulate	Run3	regulate/STIM_015.jpg	99
2185.017	1.716	1716.3	regulate	Run3	regulate/STIM_015.jpg	99
2190.258	1.669	1669.3	regulate	Run3	regulate/STIM_016.jpg	100
2194.084	2.563	2562.9	regulate	Run3	regulate/STIM_016.jpg	100
2199.19	1.303	1303.3	regulate	Run3	regulate/STIM_016.jpg	100
2204.068	1.565	1564.9	regulate	Run3	regulate/STIM_016.jpg	99
2207.508	2.359	2359.3	regulate	Run3	regulate/STIM_017.jpg	100
2212.486	1.87	1870.0	regulate	Run3	regulate/STIM_017.jpg	100
2217.555	1.649	1648.8	regulate	Run3	regulate/STIM_017.jpg	100
2221.05	2.836	2836.5	regulate	Run3	regulate/STIM_017.jpg	99
2225.873	1.523	1523.1	regulate	Run3	regulate/STIM_018.jpg	100
2229.966	1.5	1500.3	regulate	Run3	regulate/STIM_018.jpg	100
2235.239	1.895	1894.9	regulate	Run3	regulate/STIM_018.jpg	99
2240.519	2.678	2678.1	regulate	Run3	regulate/STIM_018.jpg	99
2244.829	2.127	2126.8	regulate	Run3	regulate/STIM_019.jpg	100
2249.972	2.276	2276.4	regulate	Run3	regulate/STIM_019.jpg	100
2255.035	2.572	2572.4	regulate	Run3	regulate/STIM_019.jpg	100
2260.414	2.703	2702.9	regulate	Run3	regulate/STIM_019.jpg	99
2265.217	2.433	2433.3	regulate	Run3	regulate/STIM_020.jpg	99
2271.271	2.27	2270.3	regulate	Run3	regulate/STIM_020.jpg	100
2276.938	2.045	2045.1	regulate	Run3	regulate/STIM_020.jpg	99
2281.185	2.232	2231.6	regulate	Run3	regulate/STIM_020.jpg	100
2285.321	2.291	2291.3	regulate	Run3	regulate/STIM_021.jpg	100
2291.076	1.852	1851.9	regulate	Run3	regulate/STIM_021.jpg	99
2296.529	1.822	1822.2	regulate	Run3	regulate/STIM_021.jpg	99
2301.768	2.608	2608.4	regulate	Run3	regulate/STIM_021.jpg	99
2307.622	2.584	2583.8	regulate	Run3	regulate/STIM_022.jpg	100
2313.059	1.725	1725.2	regulate	Run3	regulate/STIM_022.jpg	99
2317.356	2.547	2547.3	regulate	Run3	regulate/STIM_022.jpg	100
2322.247	2.27	2270.1	regulate	Run3	regulate/STIM_022.jpg	99
2327.216	2.222	2222.5	regulate	Run3	regulate/STIM_023.jpg	100
2333.099	1.241	1240.8	regulate	Run3	regulate/STIM_023.jpg	99
2337.793	1.473	1473.1	regulate	Run3	regulate/STIM_023.jpg	99
2341.923	1.534	1534.3	regulate	Run3	regulate/STIM_023.jpg	100
2345.82	2.369	2368.6	regulate	Run3	regulate/STIM_024.jpg	100
2350.567	2.726	2725.5	regulate	Run3	regulate/STIM_024.jpg	100
2355.275	2.069	2069.1	regulate	Run3	regulate/STIM_024.jpg	100
2359.862	2.602	2602.4	regulate	Run3	regulate/STIM_024.jpg	100
2365.503	1.734	1733.5	regulate	Run3	regulate/STIM_025.jpg	99
2370.917	1.881	1881.3	regulate	Run3	regulate/STIM_025.jpg	100
2375.451	1.308	1308.3	regulate	Run3	regulate/STIM_025.jpg	99
2380.126	2.514	2513.5	regulate	Run3	regulate/STIM_025.jpg	99
2384.607	2.674	2673.7	regulate	Run3	regulate/STIM_026.jpg	99
2389.171	1.54	1539.6	regulate	Run3	regulate/STIM_026.jpg	99
2394.332	1.275	1274.7	regulate	Run3	regulate/STIM_026.jpg	100
2398.441	1.737	1736.6	regulate	Run3	regulate/STIM_026.jpg	99
2403.352	1.711	1710.9	regulate	Run3	regulate/STIM_027.jpg	99
2407.054	1.32	1320.4	regulate	Run3	regulate/STIM_027.jpg	100
2411.016	2.392	2391.8	regulate	Run3	regulate/STIM_027.jpg	100
2415.634	1.403	1403.4	regulate	Run3	regulate/STIM_027.jpg	99
2420.034	2.448	2448.1	regulate	Run3	regulate/STIM_028.jpg	100
2425.1	2.216	2216.0	regulate	Run3	regulate/STIM_028.jpg	100
2429.325	1.524	1523.9	regulate	Run3	regulate/STIM_028.jpg	99
2432.648	2.66	2660.0	regulate	Run3	regulate/STIM_028.jpg	100
2438.931	2.069	2068.6	regulate	Run3	regulate/STIM_029.jpg	100
2442.824	1.388	1388.3	regulate	Run3	regulate/STIM_029.jpg	99
2446.679	2.803	2802.8	regulate	Run3	regulate/STIM_029.jpg	99
2452.644	1.583	1582.7	regulate	Run3	regulate/STIM_029.jpg	99
2456.323	1.231	1230.9	observe	Run3	observe/STIM_000.jpg	100
2461.159	1.235	1235.4	observe	Run3	observe/STIM_000.jpg	99
2465.321	1.535	1534.7	observe	Run3	observe/STIM_000.jpg	100
2468.934	1.284	1284.5	observe	Run3	observe/STIM_000.jpg	100
2472.401	1.222	1221.9	observe	Run3	observe/STIM_001.jpg	100
2477.369	1.013	1012.7	observe	Run3	observe/STIM_001.jpg	99
2480.881	1.619	1618.6	observe	Run3	observe/STIM_001.jpg	99
2485.938	1.008	1007.8	observe	Run3	observe/STIM_001.jpg	99
2488.984	1.476	1475.7	observe	Run3	observe/STIM_002.jpg	100
2494.048	1.453	1453.4	observe	Run3	observe/STIM_002.jpg	100
2497.611	1.775	1775.3	observe	Run3	observe/STIM_002.jpg	99
2501.335	1.617	1616.7	observe	Run3	observe/STIM_002.jpg	99
2505.965	1.261	1261.0	observe	Run3	observe/STIM_003.jpg	99
2510.083	1.226	1226.4	observe	Run3	observe/STIM_003.jpg	100
2513.422	1.617	1617.3	observe	Run3	observe/STIM_003.jpg	100
2518.023	1.004	1004.2	observe	Run3	observe/STIM_003.jpg	99
2522.391	1.784	1783.7	observe	Run3	observe/STIM_004.jpg	100
2527.831	1.502	1501.6	observe	Run3	observe/STIM_004.jpg	99
2532.944	1.686	1685.6	observe	Run3	observe/STIM_004.jpg	99
2538.073	1.149	1149.1	observe	Run3	observe/STIM_004.jpg	99
2542.857	1.416	1416.5	observe	Run3	observe/STIM_005.jpg	99
2547.011	1.179	1179.0	observe	Run3	observe/STIM_005.jpg	99
2551.316	1.64	1640.1	observe	Run3	observe/STIM_005.jpg	100
2556.345	1.724	1723.5	observe	Run3	observe/STIM_005.jpg	99
2561.465	1.351	1350.7	observe	Run3	observe/STIM_006.jpg	99
2564.656	1.529	1528.7	observe	Run3	observe/STIM_006.jpg	99
2569.908	1.133	1132.6	observe	Run3	observe/STIM_006.jpg	99
2572.871	1.308	1307.8	observe	Run3	observe/STIM_006.jpg	100
2577.001	1.175	1175.4	observe	Run3	observe/STIM_007.jpg	99
2580.526	1.489	1488.8	observe	Run3	observe/STIM_007.jpg	100
2584.472	1.32	1320.1	observe	Run3	observe/STIM_007.jpg	100
2588.486	1.123	1122.9	observe	Run3	observe/STIM_007.jpg	99
2592.283	1.251	1250.7	observe	Run3	observe/STIM_008.jpg	99
2595.621	1.265	1265.0	observe	Run3	observe/STIM_008.jpg	99
2599.754	0.934	934.5	observe	Run3	observe/STIM_008.jpg	100
2603.701	1.665	1665.1	observe	Run3	observe/STIM_008.jpg	99
2608.607	1.609	1608.8	observe	Run3	observe/STIM_009.jpg	100
2613.456	1.141	1140.7	observe	Run3	observe/STIM_009.jpg	99
2616.909	1.576	1575.6	observe	Run3	observe/STIM_009.jpg	100
2620.663	1.523	1522.9	observe	Run3	observe/STIM_009.jpg	100
2625.639	1.128	1128.4	observe	Run3	observe/STIM_010.jpg	100
2629.953	1.38	1380.5	observe	Run3	observe/STIM_010.jpg	99
2634.314	0.95	950.1	observe	Run3	observe/STIM_010.jpg	99
2638.194	1.101	1100.7	observe	Run3	observe/STIM_010.jpg	99
2642.136	1.387	1387.1	observe	Run3	observe/STIM_011.jpg	99
2647.158	1.003	1003.2	observe	Run3	observe/STIM_011.jpg	100
2651.725	1.052	1052.1	observe	Run3	observe/STIM_011.jpg	99
2655.468	1.477	1477.3	observe	Run3	observe/STIM_011.jpg	100
2659.204	0.991	991.4	observe	Run3	observe/STIM_012.jpg	100
2662.676	1.714	1714.2	observe	Run3	observe/STIM_012.jpg	100
2667.423	1.497	1497.4	observe	Run3	observe/STIM_012.jpg	99
2671.872	1.094	1093.5	observe	Run3	observe/STIM_012.jpg	99
2674.836	1.185	1185.3	observe	Run3	observe/STIM_013.jpg	100
2679.637	1.086	1086.0	observe	Run3	observe/STIM_013.jpg	100
2683.091	1.494	1493.5	observe	Run3	observe/STIM_013.jpg	99
2687.352	1.153	1152.6	observe	Run3	observe/STIM_013.jpg	100
2692.127	1.448	1447.8	observe	Run3	observe/STIM_014.jpg	99
2695.766	1.255	1255.4	observe	Run3	observe/STIM_014.jpg	99
2699.768	1.375	1375.0	observe	Run3	observe/STIM_014.jpg	99
2704.102	0.95	950.2	observe	Run3	observe/STIM_014.jpg	100
2707.983	1.405	1405.4	observe	Run3	observe/STIM_015.jpg	100
2712.284	1.646	1645.7	observe	Run3	observe/STIM_015.jpg	100
2716.083	1.653	1653.0	observe	Run3	observe/STIM_015.jpg	99
2719.874	1.06	1059.5	observe	Run3	observe/STIM_015.jpg	100
2724.448	1.72	1720.4	observe	Run3	observe/STIM_016.jpg	99
2729.64	1.424	1424.5	observe	Run3	observe/STIM_016.jpg	100
2734.805	1.236	1235.5	observe	Run3	observe/STIM_016.jpg	100
2738.584	1.475	1474.8	observe	Run3	observe/STIM_016.jpg	100
2743.531	1.614	1613.5	observe	Run3	observe/STIM_017.jpg	99
2747.198	1.691	1691.1	observe	Run3	observe/STIM_017.jpg	100
2752.69	1.545	1545.0	observe	Run3	observe/STIM_017.jpg	99
2756.081	1.582	1582.3	observe	Run3	observe/STIM_017.jpg	99
2761.004	1.076	1075.7	observe	Run3	observe/STIM_018.jpg	100
2764.96	1.043	1043.1	observe	Run3	observe/STIM_018.jpg	99
2768.415	1.438	1438.2	observe	Run3	observe/STIM_018.jpg	100
2772.059	1.353	1353.1	observe	Run3	observe/STIM_018.jpg	99
2776.323	1.463	1462.6	observe	Run3	observe/STIM_019.jpg	100
2779.98	0.93	930.2	observe	Run3	observe/STIM_019.jpg	99
2784.712	0.986	985.6	observe	Run3	observe/STIM_019.jpg	99
2788.336	1.108	1108.4	observe	Run3	observe/STIM_019.jpg	100
