onset	duration	accuracy	trial_type	learning_stage	stimulus
0.0	0.962	correct	incongruent	Block1	incongruent/STIM_000.jpg
3.093	0.81	correct	incongruent	Block1	incongruent/STIM_000.jpg
7.66	0.837	correct	incongruent	Block1	incongruent/STIM_000.jpg
12.17	1.014	correct	incongruent	Block1	incongruent/STIM_000.jpg
16.613	0.661	correct	incongruent	Block1	incongruent/STIM_000.jpg
19.72	1.082	correct	incongruent	Block1	incongruent/STIM_001.jpg
24.696	0.796	correct	incongruent	Block1	incongruent/STIM_001.jpg
28.242	0.999	incorrect	incongruent	Block1	incongruent/STIM_001.jpg
31.38	1.028	correct	incongruent	Block1	incongruent/STIM_001.jpg
36.25	1.07	correct	incongruent	Block1	incongruent/STIM_001.jpg
40.035	1.278	correct	incongruent	Block1	incongruent/STIM_002.jpg
44.905	0.919	correct	incongruent	Block1	incongruent/STIM_002.jpg
49.159	0.643	incorrect	incongruent	Block1	incongruent/STIM_002.jpg
53.443	0.864	correct	incongruent	Block1	incongruent/STIM_002.jpg
57.623	0.545	correct	incongruent	Block1	incongruent/STIM_002.jpg
60.892	1.064	correct	incongruent	Block1	incongruent/STIM_003.jpg
64.331	0.822	correct	incongruent	Block1	incongruent/STIM_003.jpg
67.562	0.66	correct	incongruent	Block1	incongruent/STIM_003.jpg
71.93	0.848	correct	incongruent	Block1	incongruent/STIM_003.jpg
76.444	0.733	correct	incongruent	Block1	incongruent/STIM_003.jpg
79.516	1.043	correct	incongruent	Block1	incongruent/STIM_004.jpg
83.906	0.71	correct	incongruent	Block1	incongruent/STIM_004.jpg
88.123	0.858	incorrect	incongruent	Block1	incongruent/STIM_004.jpg
92.109	0.533	incorrect	incongruent	Block1	incongruent/STIM_004.jpg
94.866	0.827	incorrect	incongruent	Block1	incongruent/STIM_004.jpg
97.779	1.045	correct	incongruent	Block1	incongruent/STIM_005.jpg
101.309	0.853	incorrect	incongruent	Block1	incongruent/STIM_005.jpg
105.523	0.658	incorrect	incongruent	Block1	incongruent/STIM_005.jpg
108.287	1.008	correct	incongruent	Block1	incongruent/STIM_005.jpg
112.835	0.93	incorrect	incongruent	Block1	incongruent/STIM_005.jpg
117.515	0.675	correct	incongruent	Block1	incongruent/STIM_006.jpg
120.432	0.735	correct	incongruent	Block1	incongruent/STIM_006.jpg
124.291	0.755	incorrect	incongruent	Block1	incongruent/STIM_006.jpg
127.964	0.795	correct	incongruent	Block1	incongruent/STIM_006.jpg
132.711	0.643	correct	incongruent	Block1	incongruent/STIM_006.jpg
136.58	1.129	incorrect	incongruent	Block1	incongruent/STIM_007.jpg
141.274	0.864	correct	incongruent	Block1	incongruent/STIM_007.jpg
144.154	0.868	correct	incongruent	Block1	incongruent/STIM_007.jpg
147.525	0.622	correct	incongruent	Block1	incongruent/STIM_007.jpg
151.854	0.777	correct	incongruent	Block1	incongruent/STIM_007.jpg
154.937	0.729	incorrect	incongruent	Block1	incongruent/STIM_008.jpg
159.439	1.104	incorrect	incongruent	Block1	incongruent/STIM_008.jpg
164.422	0.709	correct	incongruent	Block1	incongruent/STIM_008.jpg
167.217	0.826	correct	incongruent	Block1	incongruent/STIM_008.jpg
171.692	1.002	incorrect	incongruent	Block1	incongruent/STIM_008.jpg
174.779	0.823	correct	incongruent	Block1	incongruent/STIM_009.jpg
179.362	1.022	correct	incongruent	Block1	incongruent/STIM_009.jpg
183.42	0.762	correct	incongruent	Block1	incongruent/STIM_009.jpg
187.381	0.78	correct	incongruent	Block1	incongruent/STIM_009.jpg
191.304	0.675	correct	incongruent	Block1	incongruent/STIM_009.jpg
194.257	1.14	correct	incongruent	Block1	incongruent/STIM_010.jpg
198.831	1.217	correct	incongruent	Block1	incongruent/STIM_010.jpg
203.805	0.991	incorrect	incongruent	Block1	incongruent/STIM_010.jpg
208.446	0.698	correct	incongruent	Block1	incongruent/STIM_010.jpg
212.195	0.501	correct	incongruent	Block1	incongruent/STIM_010.jpg
216.568	0.762	incorrect	incongruent	Block1	incongruent/STIM_011.jpg
220.153	0.842	incorrect	incongruent	Block1	incongruent/STIM_011.jpg
223.715	0.659	correct	incongruent	Block1	incongruent/STIM_011.jpg
227.573	1.003	correct	incongruent	Block1	incongruent/STIM_011.jpg
232.346	0.69	correct	incongruent	Block1	incongruent/STIM_011.jpg
235.585	1.188	incorrect	incongruent	Block1	incongruent/STIM_012.jpg
239.126	0.999	correct	incongruent	Block1	incongruent/STIM_012.jpg
243.592	0.704	incorrect	incongruent	Block1	incongruent/STIM_012.jpg
247.287	0.929	correct	incongruent	Block1	incongruent/STIM_012.jpg
251.25	0.955	correct	incongruent	Block1	incongruent/STIM_012.jpg
255.029	1.335	correct	incongruent	Block1	incongruent/STIM_013.jpg
259.48	0.879	correct	incongruent	Block1	incongruent/STIM_013.jpg
263.939	0.793	correct	incongruent	Block1	incongruent/STIM_013.jpg
268.436	1.049	correct	incongruent	Block1	incongruent/STIM_013.jpg
272.393	0.91	correct	incongruent	Block1	incongruent/STIM_013.jpg
276.562	1.031	correct	incongruent	Block1	incongruent/STIM_014.jpg
280.196	1.157	correct	incongruent	Block1	incongruent/STIM_014.jpg
283.811	0.779	correct	incongruent	Block1	incongruent/STIM_014.jpg
288.526	0.854	correct	incongruent	Block1	incongruent/STIM_014.jpg
292.606	0.752	correct	incongruent	Block1	incongruent/STIM_014.jpg
296.233	1.135	correct	incongruent	Block1	incongruent/STIM_015.jpg
299.54	0.84	incorrect	incongruent	Block1	incongruent/STIM_015.jpg
303.102	1.085	correct	incongruent	Block1	incongruent/STIM_015.jpg
306.998	0.677	correct	incongruent	Block1	incongruent/STIM_015.jpg
310.882	0.889	incorrect	incongruent	Block1	incongruent/STIM_015.jpg
315.573	1.132	correct	incongruent	Block1	incongruent/STIM_016.jpg
318.815	0.915	incorrect	incongruent	Block1	incongruent/STIM_016.jpg
323.091	0.58	incorrect	incongruent	Block1	incongruent/STIM_016.jpg
327.544	0.926	correct	incongruent	Block1	incongruent/STIM_016.jpg
331.487	0.987	correct	incongruent	Block1	incongruent/STIM_016.jpg
336.306	0.865	incorrect	incongruent	Block1	incongruent/STIM_017.jpg
340.269	0.821	correct	incongruent	Block1	incongruent/STIM_017.jpg
343.796	1.059	correct	incongruent	Block1	incongruent/STIM_017.jpg
347.809	0.695	correct	incongruent	Block1	incongruent/STIM_017.jpg
350.601	0.541	correct	incongruent	Block1	incongruent/STIM_017.jpg
353.966	1.118	correct	incongruent	Block1	incongruent/STIM_018.jpg
358.828	0.952	correct	incongruent	Block1	incongruent/STIM_018.jpg
362.33	0.996	correct	incongruent	Block1	incongruent/STIM_018.jpg
365.833	0.961	correct	incongruent	Block1	incongruent/STIM_018.jpg
370.322	0.577	correct	incongruent	Block1	incongruent/STIM_018.jpg
374.607	0.918	correct	incongruent	Block1	incongruent/STIM_019.jpg
379.218	0.974	correct	incongruent	Block1	incongruent/STIM_019.jpg
382.695	1.094	correct	incongruent	Block1	incongruent/STIM_019.jpg
386.499	1.108	incorrect	incongruent	Block1	incongruent/STIM_019.jpg
391.293	0.945	correct	incongruent	Block1	incongruent/STIM_019.jpg
394.285	0.866	correct	incongruent	Block1	incongruent/STIM_020.jpg
398.187	0.719	correct	incongruent	Block1	incongruent/STIM_020.jpg
402.499	0.979	correct	incongruent	Block1	incongruent/STIM_020.jpg
407.27	1.018	correct	incongruent	Block1	incongruent/STIM_020.jpg
410.522	0.626	correct	incongruent	Block1	incongruent/STIM_020.jpg
414.184	0.671	correct	incongruent	Block1	incongruent/STIM_021.jpg
417.368	0.963	correct	incongruent	Block1	incongruent/STIM_021.jpg
421.552	1.152	incorrect	incongruent	Block1	incongruent/STIM_021.jpg
425.033	0.663	correct	incongruent	Block1	incongruent/STIM_021.jpg
429.545	0.665	correct	incongruent	Block1	incongruent/STIM_021.jpg
432.891	0.645	correct	incongruent	Block1	incongruent/STIM_022.jpg
437.388	1.037	correct	incongruent	Block1	incongruent/STIM_022.jpg
441.764	1.182	correct	incongruent	Block1	incongruent/STIM_022.jpg
445.005	0.966	correct	incongruent	Block1	incongruent/STIM_022.jpg
448.608	0.884	correct	incongruent	Block1	incongruent/STIM_022.jpg
453.398	1.12	correct	incongruent	Block1	incongruent/STIM_023.jpg
457.64	1.022	correct	incongruent	Block1	incongruent/STIM_023.jpg
462.155	0.852	incorrect	incongruent	Block1	incongruent/STIM_023.jpg
466.551	1.029	correct	incongruent	Block1	incongruent/STIM_023.jpg
469.985	0.682	correct	incongruent	Block1	incongruent/STIM_023.jpg
472.864	0.64	correct	incongruent	Block1	incongruent/STIM_024.jpg
476.594	0.775	correct	incongruent	Block1	incongruent/STIM_024.jpg
480.288	0.894	correct	incongruent	Block1	incongruent/STIM_024.jpg
484.188	0.829	correct	incongruent	Block1	incongruent/STIM_024.jpg
487.194	0.693	correct	incongruent	Block1	incongruent/STIM_024.jpg
490.809	0.897	correct	incongruent	Block1	incongruent/STIM_025.jpg
495.204	0.853	correct	incongruent	Block1	incongruent/STIM_025.jpg
499.649	0.979	correct	incongruent	Block1	incongruent/STIM_025.jpg
504.047	1.002	correct	incongruent	Block1	incongruent/STIM_025.jpg
507.165	0.632	correct	incongruent	Block1	incongruent/STIM_025.jpg
510.373	0.771	incorrect	incongruent	Block1	incongruent/STIM_026.jpg
513.788	1.226	correct	incongruent	Block1	incongruent/STIM_026.jpg
517.522	0.606	correct	incongruent	Block1	incongruent/STIM_026.jpg
521.609	0.633	correct	incongruent	Block1	incongruent/STIM_026.jpg
526.136	0.731	correct	incongruent	Block1	incongruent/STIM_026.jpg
529.32	1.053	correct	incongruent	Block1	incongruent/STIM_027.jpg
534.185	0.614	correct	incongruent	Block1	incongruent/STIM_027.jpg
538.615	1.147	incorrect	incongruent	Block1	incongruent/STIM_027.jpg
541.801	1.09	correct	incongruent	Block1	incongruent/STIM_027.jpg
545.118	0.565	correct	incongruent	Block1	incongruent/STIM_027.jpg
548.943	0.918	incorrect	incongruent	Block1	incongruent/STIM_028.jpg
552.63	1.059	correct	incongruent	Block1	incongruent/STIM_028.jpg
557.651	0.567	incorrect	incongruent	Block1	incongruent/STIM_028.jpg
560.258	1.123	correct	incongruent	Block1	incongruent/STIM_028.jpg
564.859	0.542	correct	incongruent	Block1	incongruent/STIM_028.jpg
567.486	0.804	correct	incongruent	Block1	incongruent/STIM_029.jpg
570.699	0.781	correct	incongruent	Block1	incongruent/STIM_029.jpg
574.266	1.085	correct	incongruent	Block1	incongruent/STIM_029.jpg
578.33	0.623	correct	incongruent	Block1	incongruent/STIM_029.jpg
581.97	0.917	correct	incongruent	Block1	incongruent/STIM_029.jpg
586.033	0.478	correct	congruent	Block1	congruent/STIM_000.jpg
590.29	0.725	correct	congruent	Block1	congruent/STIM_000.jpg
593.82	0.66	correct	congruent	Block1	congruent/STIM_000.jpg
598.266	0.544	correct	congruent	Block1	congruent/STIM_000.jpg
602.132	0.55	correct	congruent	Block1	congruent/STIM_000.jpg
605.038	0.51	correct	congruent	Block1	congruent/STIM_001.jpg
609.336	0.634	correct	congruent	Block1	congruent/STIM_001.jpg
612.256	0.727	correct	congruent	Block1	congruent/STIM_001.jpg
615.404	0.55	correct	congruent	Block1	congruent/STIM_001.jpg
619.382	0.781	correct	congruent	Block1	congruent/STIM_001.jpg
623.936	0.711	correct	congruent	Block1	congruent/STIM_002.jpg
628.438	0.667	correct	congruent	Block1	congruent/STIM_002.jpg
632.593	0.528	correct	congruent	Block1	congruent/STIM_002.jpg
635.155	0.572	correct	congruent	Block1	congruent/STIM_002.jpg
638.36	0.623	correct	congruent	Block1	congruent/STIM_002.jpg
642.951	0.651	correct	congruent	Block1	congruent/STIM_003.jpg
646.225	0.764	correct	congruent	Block1	congruent/STIM_003.jpg
649.003	0.617	correct	congruent	Block1	congruent/STIM_003.jpg
653.253	0.508	correct	congruent	Block1	congruent/STIM_003.jpg
657.003	0.504	correct	congruent	Block1	congruent/STIM_003.jpg
661.072	0.799	correct	congruent	Block1	congruent/STIM_004.jpg
664.203	0.599	correct	congruent	Block1	congruent/STIM_004.jpg
667.23	0.61	correct	congruent	Block1	congruent/STIM_004.jpg
671.67	0.454	incorrect	congruent	Block1	congruent/STIM_004.jpg
674.99	0.453	correct	congruent	Block1	congruent/STIM_004.jpg
678.437	0.474	correct	congruent	Block1	congruent/STIM_005.jpg
682.192	0.545	correct	congruent	Block1	congruent/STIM_005.jpg
685.668	0.585	correct	congruent	Block1	congruent/STIM_005.jpg
689.877	0.733	correct	congruent	Block1	congruent/STIM_005.jpg
694.362	0.756	correct	congruent	Block1	congruent/STIM_005.jpg
698.459	0.769	correct	congruent	Block1	congruent/STIM_006.jpg
702.019	0.566	correct	congruent	Block1	congruent/STIM_006.jpg
705.44	0.618	correct	congruent	Block1	congruent/STIM_006.jpg
708.253	0.792	correct	congruent	Block1	congruent/STIM_006.jpg
712.003	0.673	correct	congruent	Block1	congruent/STIM_006.jpg
714.746	0.761	incorrect	congruent	Block1	congruent/STIM_007.jpg
718.764	0.499	correct	congruent	Block1	congruent/STIM_007.jpg
722.209	0.495	correct	congruent	Block1	congruent/STIM_007.jpg
726.216	0.673	correct	congruent	Block1	congruent/STIM_007.jpg
730.284	0.769	correct	congruent	Block1	congruent/STIM_007.jpg
734.413	0.497	correct	congruent	Block1	congruent/STIM_008.jpg
737.296	0.61	correct	congruent	Block1	congruent/STIM_008.jpg
741.825	0.574	correct	congruent	Block1	congruent/STIM_008.jpg
746.373	0.786	correct	congruent	Block1	congruent/STIM_008.jpg
750.386	0.587	correct	congruent	Block1	congruent/STIM_008.jpg
754.871	0.593	correct	congruent	Block1	congruent/STIM_009.jpg
757.673	0.545	incorrect	congruent	Block1	congruent/STIM_009.jpg
760.673	0.531	correct	congruent	Block1	congruent/STIM_009.jpg
764.053	0.772	correct	congruent	Block1	congruent/STIM_009.jpg
768.044	0.651	correct	congruent	Block1	congruent/STIM_009.jpg
771.419	0.546	correct	congruent	Block1	congruent/STIM_010.jpg
774.395	0.589	correct	congruent	Block1	congruent/STIM_010.jpg
777.9	0.468	correct	congruent	Block1	congruent/STIM_010.jpg
782.148	0.752	incorrect	congruent	Block1	congruent/STIM_010.jpg
785.105	0.519	correct	congruent	Block1	congruent/STIM_010.jpg
789.564	0.654	correct	congruent	Block1	congruent/STIM_011.jpg
792.74	0.594	correct	congruent	Block1	congruent/STIM_011.jpg
796.001	0.613	correct	congruent	Block1	congruent/STIM_011.jpg
800.339	0.702	correct	congruent	Block1	congruent/STIM_011.jpg
803.118	0.569	correct	congruent	Block1	congruent/STIM_011.jpg
807.666	0.794	correct	congruent	Block1	congruent/STIM_012.jpg
811.935	0.782	incorrect	congruent	Block1	congruent/STIM_012.jpg
816.515	0.77	correct	congruent	Block1	congruent/STIM_012.jpg
820.9	0.786	incorrect	congruent	Block1	congruent/STIM_012.jpg
824.248	0.764	correct	congruent	Block1	congruent/STIM_012.jpg
828.127	0.724	correct	congruent	Block1	congruent/STIM_013.jpg
832.503	0.61	correct	congruent	Block1	congruent/STIM_013.jpg
835.632	0.478	correct	congruent	Block1	congruent/STIM_013.jpg
839.501	0.715	correct	congruent	Block1	congruent/STIM_013.jpg
843.531	0.644	correct	congruent	Block1	congruent/STIM_013.jpg
847.041	0.653	correct	congruent	Block1	congruent/STIM_014.jpg
850.604	0.756	correct	congruent	Block1	congruent/STIM_014.jpg
855.135	0.549	correct	congruent	Block1	congruent/STIM_014.jpg
859.136	0.515	incorrect	congruent	Block1	congruent/STIM_014.jpg
862.515	0.472	incorrect	congruent	Block1	congruent/STIM_014.jpg
865.386	0.522	correct	congruent	Block1	congruent/STIM_015.jpg
869.278	0.694	correct	congruent	Block1	congruent/STIM_015.jpg
872.994	0.544	correct	congruent	Block1	congruent/STIM_015.jpg
877.322	0.601	incorrect	congruent	Block1	congruent/STIM_015.jpg
881.516	0.793	correct	congruent	Block1	congruent/STIM_015.jpg
885.228	0.726	correct	congruent	Block1	congruent/STIM_016.jpg
888.274	0.571	correct	congruent	Block1	congruent/STIM_016.jpg
892.448	0.674	correct	congruent	Block1	congruent/STIM_016.jpg
895.591	0.468	correct	congruent	Block1	congruent/STIM_016.jpg
900.003	0.578	correct	congruent	Block1	congruent/STIM_016.jpg
902.801	0.544	correct	congruent	Block1	congruent/STIM_017.jpg
906.245	0.625	incorrect	congruent	Block1	congruent/STIM_017.jpg
909.312	0.557	incorrect	congruent	Block1	congruent/STIM_017.jpg
912.553	0.603	correct	congruent	Block1	congruent/STIM_017.jpg
915.785	0.633	incorrect	congruent	Block1	congruent/STIM_017.jpg
919.51	0.739	correct	congruent	Block1	congruent/STIM_018.jpg
923.127	0.564	correct	congruent	Block1	congruent/STIM_018.jpg
925.911	0.532	correct	congruent	Block1	congruent/STIM_018.jpg
929.84	0.605	correct	congruent	Block1	congruent/STIM_018.jpg
932.993	0.668	correct	congruent	Block1	congruent/STIM_018.jpg
937.317	0.489	correct	congruent	Block1	congruent/STIM_019.jpg
940.622	0.673	correct	congruent	Block1	congruent/STIM_019.jpg
943.53	0.557	correct	congruent	Block1	congruent/STIM_019.jpg
947.744	0.584	correct	congruent	Block1	congruent/STIM_019.jpg
950.397	0.582	correct	congruent	Block1	congruent/STIM_019.jpg
954.415	0.784	incorrect	congruent	Block1	congruent/STIM_020.jpg
958.896	0.653	correct	congruent	Block1	congruent/STIM_020.jpg
963.04	0.572	correct	congruent	Block1	congruent/STIM_020.jpg
966.2	0.78	correct	congruent	Block1	congruent/STIM_020.jpg
969.646	0.577	correct	congruent	Block1	congruent/STIM_020.jpg
973.654	0.717	correct	congruent	Block1	congruent/STIM_021.jpg
977.055	0.62	correct	congruent	Block1	congruent/STIM_021.jpg
980.427	0.741	correct	congruent	Block1	congruent/STIM_021.jpg
984.841	0.568	correct	congruent	Block1	congruent/STIM_021.jpg
987.857	0.487	correct	congruent	Block1	congruent/STIM_021.jpg
991.524	0.694	correct	congruent	Block1	congruent/STIM_022.jpg
995.51	0.685	correct	congruent	Block1	congruent/STIM_022.jpg
998.665	0.613	correct	congruent	Block1	congruent/STIM_022.jpg
1002.803	0.57	correct	congruent	Block1	congruent/STIM_022.jpg
1006.91	0.517	correct	congruent	Block1	congruent/STIM_022.jpg
1009.921	0.588	correct	congruent	Block1	congruent/STIM_023.jpg
1013.248	0.63	correct	congruent	Block1	congruent/STIM_023.jpg
1017.738	0.654	correct	congruent	Block1	congruent/STIM_023.jpg
1022.308	0.532	incorrect	congruent	Block1	congruent/STIM_023.jpg
1024.995	0.675	correct	congruent	Block1	congruent/STIM_023.jpg
1029.119	0.636	correct	congruent	Block1	congruent/STIM_024.jpg
1033.603	0.707	correct	congruent	Block1	congruent/STIM_024.jpg
1036.321	0.578	correct	congruent	Block1	congruent/STIM_024.jpg
1040.891	0.489	correct	congruent	Block1	congruent/STIM_024.jpg
1044.308	0.502	correct	congruent	Block1	congruent/STIM_024.jpg
1048.318	0.687	correct	congruent	Block1	congruent/STIM_025.jpg
1051.319	0.799	correct	congruent	Block1	congruent/STIM_025.jpg
1055.471	0.763	correct	congruent	Block1	congruent/STIM_025.jpg
1059.978	0.55	correct	congruent	Block1	congruent/STIM_025.jpg
1063.667	0.693	correct	congruent	Block1	congruent/STIM_025.jpg
1067.673	0.804	correct	congruent	Block1	congruent/STIM_026.jpg
1071.201	0.78	correct	congruent	Block1	congruent/STIM_026.jpg
1075.515	0.505	correct	congruent	Block1	congruent/STIM_026.jpg
1079.29	0.612	correct	congruent	Block1	congruent/STIM_026.jpg
1083.02	0.782	correct	congruent	Block1	congruent/STIM_026.jpg
1087.61	0.641	correct	congruent	Block1	congruent/STIM_027.jpg
1091.844	0.578	correct	congruent	Block1	congruent/STIM_027.jpg
1095.99	0.713	incorrect	congruent	Block1	congruent/STIM_027.jpg
1099.621	0.751	incorrect	congruent	Block1	congruent/STIM_027.jpg
1103.865	0.543	correct	congruent	Block1	congruent/STIM_027.jpg
1107.009	0.594	correct	congruent	Block1	congruent/STIM_028.jpg
1110.416	0.494	correct	congruent	Block1	congruent/STIM_028.jpg
1112.936	0.734	correct	congruent	Block1	congruent/STIM_028.jpg
1116.575	0.558	correct	congruent	Block1	congruent/STIM_028.jpg
1120.224	0.655	correct	congruent	Block1	congruent/STIM_028.jpg
1124.473	0.635	correct	congruent	Block1	congruent/STIM_029.jpg
1128.422	0.786	correct	congruent	Block1	congruent/STIM_029.jpg
1132.551	0.749	incorrect	congruent	Block1	congruent/STIM_029.jpg
1135.777	0.478	correct	congruent	Block1	congruent/STIM_029.jpg
1139.589	0.801	correct	congruent	Block1	congruent/STIM_029.jpg
1142.432	1.123	correct	incongruent	Block2	incongruent/STIM_000.jpg
1146.005	0.91	incorrect	incongruent	Block2	incongruent/STIM_000.jpg
1150.349	0.99	incorrect	incongruent	Block2	incongruent/STIM_000.jpg
1153.922	0.629	correct	incongruent	Block2	incongruent/STIM_000.jpg
1158.056	0.541	correct	incongruent	Block2	incongruent/STIM_000.jpg
1161.389	0.805	incorrect	incongruent	Block2	incongruent/STIM_001.jpg
1166.178	0.825	correct	incongruent	Block2	incongruent/STIM_001.jpg
1169.398	0.668	incorrect	incongruent	Block2	incongruent/STIM_001.jpg
1172.701	0.715	correct	incongruent	Block2	incongruent/STIM_001.jpg
1176.185	0.643	correct	incongruent	Block2	incongruent/STIM_001.jpg
1179.972	0.782	correct	incongruent	Block2	incongruent/STIM_002.jpg
1183.519	0.709	correct	incongruent	Block2	incongruent/STIM_002.jpg
1187.661	0.94	correct	incongruent	Block2	incongruent/STIM_002.jpg
1191.584	0.493	correct	incongruent	Block2	incongruent/STIM_002.jpg
1194.961	0.859	incorrect	incongruent	Block2	incongruent/STIM_002.jpg
1198.769	0.888	correct	incongruent	Block2	incongruent/STIM_003.jpg
1202.692	0.56	correct	incongruent	Block2	incongruent/STIM_003.jpg
1205.327	0.684	correct	incongruent	Block2	incongruent/STIM_003.jpg
1208.428	0.519	correct	incongruent	Block2	incongruent/STIM_003.jpg
1212.512	0.744	incorrect	incongruent	Block2	incongruent/STIM_003.jpg
1215.844	0.724	correct	incongruent	Block2	incongruent/STIM_004.jpg
1219.242	1.048	correct	incongruent	Block2	incongruent/STIM_004.jpg
1222.558	0.499	correct	incongruent	Block2	incongruent/STIM_004.jpg
1226.927	0.794	correct	incongruent	Block2	incongruent/STIM_004.jpg
1230.926	0.664	correct	incongruent	Block2	incongruent/STIM_004.jpg
1235.17	0.943	correct	incongruent	Block2	incongruent/STIM_005.jpg
1239.654	0.886	correct	incongruent	Block2	incongruent/STIM_005.jpg
1242.871	0.658	correct	incongruent	Block2	incongruent/STIM_005.jpg
1247.416	0.474	incorrect	incongruent	Block2	incongruent/STIM_005.jpg
1251.802	0.57	correct	incongruent	Block2	incongruent/STIM_005.jpg
1255.928	0.559	correct	incongruent	Block2	incongruent/STIM_006.jpg
1259.168	0.789	correct	incongruent	Block2	incongruent/STIM_006.jpg
1263.443	0.763	correct	incongruent	Block2	incongruent/STIM_006.jpg
1267.508	0.445	incorrect	incongruent	Block2	incongruent/STIM_006.jpg
1270.507	0.582	correct	incongruent	Block2	incongruent/STIM_006.jpg
1274.789	0.967	correct	incongruent	Block2	incongruent/STIM_007.jpg
1277.894	0.778	incorrect	incongruent	Block2	incongruent/STIM_007.jpg
1281.679	0.964	correct	incongruent	Block2	incongruent/STIM_007.jpg
1285.997	0.556	correct	incongruent	Block2	incongruent/STIM_007.jpg
1290.395	0.618	correct	incongruent	Block2	incongruent/STIM_007.jpg
1293.042	0.649	incorrect	incongruent	Block2	incongruent/STIM_008.jpg
1296.837	0.536	correct	incongruent	Block2	incongruent/STIM_008.jpg
1300.648	0.716	correct	incongruent	Block2	incongruent/STIM_008.jpg
1303.79	0.495	correct	incongruent	Block2	incongruent/STIM_008.jpg
1308.188	0.652	correct	incongruent	Block2	incongruent/STIM_008.jpg
1311.466	0.767	correct	incongruent	Block2	incongruent/STIM_009.jpg
1315.331	0.943	correct	incongruent	Block2	incongruent/STIM_009.jpg
1318.352	0.83	correct	incongruent	Block2	incongruent/STIM_009.jpg
1322.356	0.778	correct	incongruent	Block2	incongruent/STIM_009.jpg
1326.218	0.615	correct	incongruent	Block2	incongruent/STIM_009.jpg
1329.12	0.98	correct	incongruent	Block2	incongruent/STIM_010.jpg
1332.709	0.746	correct	incongruent	Block2	incongruent/STIM_010.jpg
1337.317	0.694	correct	incongruent	Block2	incongruent/STIM_010.jpg
1341.1	0.572	correct	incongruent	Block2	incongruent/STIM_010.jpg
1344.477	0.547	correct	incongruent	Block2	incongruent/STIM_010.jpg
1348.584	0.799	correct	incongruent	Block2	incongruent/STIM_011.jpg
1352.478	0.578	incorrect	incongruent	Block2	incongruent/STIM_011.jpg
1357.047	0.958	correct	incongruent	Block2	incongruent/STIM_011.jpg
1360.958	0.48	correct	incongruent	Block2	incongruent/STIM_011.jpg
1364.076	0.579	incorrect	incongruent	Block2	incongruent/STIM_011.jpg
1366.814	1.096	correct	incongruent	Block2	incongruent/STIM_012.jpg
1371.651	1.052	correct	incongruent	Block2	incongruent/STIM_012.jpg
1375.627	0.474	incorrect	incongruent	Block2	incongruent/STIM_012.jpg
1378.558	0.454	correct	incongruent	Block2	incongruent/STIM_012.jpg
1381.65	0.559	correct	incongruent	Block2	incongruent/STIM_012.jpg
1385.234	0.908	correct	incongruent	Block2	incongruent/STIM_013.jpg
1389.198	0.986	correct	incongruent	Block2	incongruent/STIM_013.jpg
1392.89	0.735	correct	incongruent	Block2	incongruent/STIM_013.jpg
1396.159	0.801	incorrect	incongruent	Block2	incongruent/STIM_013.jpg
1400.618	0.692	correct	incongruent	Block2	incongruent/STIM_013.jpg
1403.887	1.126	correct	incongruent	Block2	incongruent/STIM_014.jpg
1408.491	0.773	correct	incongruent	Block2	incongruent/STIM_014.jpg
1411.41	0.474	correct	incongruent	Block2	incongruent/STIM_014.jpg
1415.168	0.65	correct	incongruent	Block2	incongruent/STIM_014.jpg
1418.265	0.527	correct	incongruent	Block2	incongruent/STIM_014.jpg
1422.338	0.867	correct	incongruent	Block2	incongruent/STIM_015.jpg
1426.362	0.624	correct	incongruent	Block2	incongruent/STIM_015.jpg
1429.9	0.63	correct	incongruent	Block2	incongruent/STIM_015.jpg
1432.958	0.478	correct	incongruent	Block2	incongruent/STIM_015.jpg
1436.471	0.497	correct	incongruent	Block2	incongruent/STIM_015.jpg
1439.909	0.564	correct	incongruent	Block2	incongruent/STIM_016.jpg
1442.914	0.524	correct	incongruent	Block2	incongruent/STIM_016.jpg
1447.103	0.523	correct	incongruent	Block2	incongruent/STIM_016.jpg
1450.657	0.656	correct	incongruent	Block2	incongruent/STIM_016.jpg
1454.878	0.692	correct	incongruent	Block2	incongruent/STIM_016.jpg
1458.766	1.078	incorrect	incongruent	Block2	incongruent/STIM_017.jpg
1462.879	0.654	correct	incongruent	Block2	incongruent/STIM_017.jpg
1465.717	0.779	correct	incongruent	Block2	incongruent/STIM_017.jpg
1470.031	0.761	correct	incongruent	Block2	incongruent/STIM_017.jpg
1473.434	0.84	correct	incongruent	Block2	incongruent/STIM_017.jpg
1478.137	0.804	correct	incongruent	Block2	incongruent/STIM_018.jpg
1482.515	0.519	correct	incongruent	Block2	incongruent/STIM_018.jpg
1485.893	0.835	correct	incongruent	Block2	incongruent/STIM_018.jpg
1489.139	0.55	correct	incongruent	Block2	incongruent/STIM_018.jpg
1493.021	0.815	correct	incongruent	Block2	incongruent/STIM_018.jpg
1497.718	0.582	correct	incongruent	Block2	incongruent/STIM_019.jpg
1501.28	0.832	incorrect	incongruent	Block2	incongruent/STIM_019.jpg
1505.601	0.764	correct	incongruent	Block2	incongruent/STIM_019.jpg
1508.838	0.662	correct	incongruent	Block2	incongruent/STIM_019.jpg
1511.572	0.759	incorrect	incongruent	Block2	incongruent/STIM_019.jpg
1516.05	0.818	correct	incongruent	Block2	incongruent/STIM_020.jpg
1520.123	0.653	correct	incongruent	Block2	incongruent/STIM_020.jpg
1523.234	0.804	correct	incongruent	Block2	incongruent/STIM_020.jpg
1526.191	0.52	correct	incongruent	Block2	incongruent/STIM_020.jpg
1530.527	0.555	correct	incongruent	Block2	incongruent/STIM_020.jpg
1534.069	0.954	correct	incongruent	Block2	incongruent/STIM_021.jpg
1537.905	1.002	correct	incongruent	Block2	incongruent/STIM_021.jpg
1542.816	0.736	incorrect	incongruent	Block2	incongruent/STIM_021.jpg
1545.681	0.898	incorrect	incongruent	Block2	incongruent/STIM_021.jpg
1549.573	0.464	correct	incongruent	Block2	incongruent/STIM_021.jpg
1553.844	0.613	correct	incongruent	Block2	incongruent/STIM_022.jpg
1557.755	0.858	correct	incongruent	Block2	incongruent/STIM_022.jpg
1560.842	0.77	correct	incongruent	Block2	incongruent/STIM_022.jpg
1565.37	0.871	correct	incongruent	Block2	incongruent/STIM_022.jpg
1568.644	0.833	correct	incongruent	Block2	incongruent/STIM_022.jpg
1571.998	0.976	correct	incongruent	Block2	incongruent/STIM_023.jpg
1576.44	0.74	correct	incongruent	Block2	incongruent/STIM_023.jpg
1580.282	0.648	incorrect	incongruent	Block2	incongruent/STIM_023.jpg
1583.491	0.921	correct	incongruent	Block2	incongruent/STIM_023.jpg
1588.39	0.592	correct	incongruent	Block2	incongruent/STIM_023.jpg
1591.172	0.686	correct	incongruent	Block2	incongruent/STIM_024.jpg
1594.172	1.068	correct	incongruent	Block2	incongruent/STIM_024.jpg
1598.059	0.735	correct	incongruent	Block2	incongruent/STIM_024.jpg
1601.68	0.751	correct	incongruent	Block2	incongruent/STIM_024.jpg
1606.186	0.729	correct	incongruent	Block2	incongruent/STIM_024.jpg
1610.37	0.947	incorrect	incongruent	Block2	incongruent/STIM_025.jpg
1614.274	0.592	correct	incongruent	Block2	incongruent/STIM_025.jpg
1618.831	0.569	correct	incongruent	Block2	incongruent/STIM_025.jpg
1622.188	0.68	correct	incongruent	Block2	incongruent/STIM_025.jpg
1626.523	0.502	correct	incongruent	Block2	incongruent/STIM_025.jpg
1629.375	1.029	correct	incongruent	Block2	incongruent/STIM_026.jpg
1634.032	0.807	correct	incongruent	Block2	incongruent/STIM_026.jpg
1637.31	0.51	correct	incongruent	Block2	incongruent/STIM_026.jpg
1640.824	0.881	correct	incongruent	Block2	incongruent/STIM_026.jpg
1644.047	0.596	correct	incongruent	Block2	incongruent/STIM_026.jpg
1647.666	0.669	incorrect	incongruent	Block2	incongruent/STIM_027.jpg
1651.427	1.066	correct	incongruent	Block2	incongruent/STIM_027.jpg
1656.167	0.788	correct	incongruent	Block2	incongruent/STIM_027.jpg
1659.81	0.745	correct	incongruent	Block2	incongruent/STIM_027.jpg
1664.373	0.766	incorrect	incongruent	Block2	incongruent/STIM_027.jpg
1668.544	1.139	correct	incongruent	Block2	incongruent/STIM_028.jpg
1672.709	0.793	correct	incongruent	Block2	incongruent/STIM_028.jpg
1675.977	0.922	correct	incongruent	Block2	incongruent/STIM_028.jpg
1680.864	0.444	correct	incongruent	Block2	incongruent/STIM_028.jpg
1683.991	0.617	incorrect	incongruent	Block2	incongruent/STIM_028.jpg
1688.387	0.584	correct	incongruent	Block2	incongruent/STIM_029.jpg
1692.236	0.756	incorrect	incongruent	Block2	incongruent/STIM_029.jpg
1695.116	0.483	correct	incongruent	Block2	incongruent/STIM_029.jpg
1698.737	0.901	incorrect	incongruent	Block2	incongruent/STIM_029.jpg
1701.967	0.468	incorrect	incongruent	Block2	incongruent/STIM_029.jpg
1706.012	0.557	correct	congruent	Block2	congruent/STIM_000.jpg
1710.052	0.663	correct	congruent	Block2	congruent/STIM_000.jpg
1713.389	0.555	correct	congruent	Block2	congruent/STIM_000.jpg
1716.461	0.67	correct	congruent	Block2	congruent/STIM_000.jpg
1719.36	0.726	incorrect	congruent	Block2	congruent/STIM_000.jpg
1722.668	0.793	correct	congruent	Block2	congruent/STIM_001.jpg
1727.4	0.5	correct	congruent	Block2	congruent/STIM_001.jpg
1730.207	0.669	correct	congruent	Block2	congruent/STIM_001.jpg
1732.923	0.572	correct	congruent	Block2	congruent/STIM_001.jpg
1735.932	0.681	correct	congruent	Block2	congruent/STIM_001.jpg
1739.367	0.758	incorrect	congruent	Block2	congruent/STIM_002.jpg
1742.453	0.625	correct	congruent	Block2	congruent/STIM_002.jpg
1747.026	0.533	correct	congruent	Block2	congruent/STIM_002.jpg
1751.053	0.653	correct	congruent	Block2	congruent/STIM_002.jpg
1755.21	0.507	incorrect	congruent	Block2	congruent/STIM_002.jpg
1759.401	0.754	correct	congruent	Block2	congruent/STIM_003.jpg
1763.627	0.482	incorrect	congruent	Block2	congruent/STIM_003.jpg
1767.717	0.501	correct	congruent	Block2	congruent/STIM_003.jpg
1770.589	0.65	correct	congruent	Block2	congruent/STIM_003.jpg
1774.581	0.56	correct	congruent	Block2	congruent/STIM_003.jpg
1778.947	0.739	correct	congruent	Block2	congruent/STIM_004.jpg
1783.014	0.655	correct	congruent	Block2	congruent/STIM_004.jpg
1786.808	0.776	correct	congruent	Block2	congruent/STIM_004.jpg
1790.292	0.695	correct	congruent	Block2	congruent/STIM_004.jpg
1793.828	0.785	correct	congruent	Block2	congruent/STIM_004.jpg
1797.927	0.732	correct	congruent	Block2	congruent/STIM_005.jpg
1801.155	0.742	correct	congruent	Block2	congruent/STIM_005.jpg
1804.751	0.572	correct	congruent	Block2	congruent/STIM_005.jpg
1808.562	0.456	incorrect	congruent	Block2	congruent/STIM_005.jpg
1812.861	0.609	correct	congruent	Block2	congruent/STIM_005.jpg
1817.272	0.74	incorrect	congruent	Block2	congruent/STIM_006.jpg
1820.424	0.491	incorrect	congruent	Block2	congruent/STIM_006.jpg
1824.505	0.728	incorrect	congruent	Block2	congruent/STIM_006.jpg
1829.157	0.637	incorrect	congruent	Block2	congruent/STIM_006.jpg
1831.842	0.484	correct	congruent	Block2	congruent/STIM_006.jpg
1835.466	0.503	correct	congruent	Block2	congruent/STIM_007.jpg
1839.667	0.543	correct	congruent	Block2	congruent/STIM_007.jpg
1842.707	0.554	correct	congruent	Block2	congruent/STIM_007.jpg
1846.302	0.5	correct	congruent	Block2	congruent/STIM_007.jpg
1850.567	0.701	correct	congruent	Block2	congruent/STIM_007.jpg
1854.218	0.486	correct	congruent	Block2	congruent/STIM_008.jpg
1858.513	0.778	correct	congruent	Block2	congruent/STIM_008.jpg
1862.363	0.596	correct	congruent	Block2	congruent/STIM_008.jpg
1865.802	0.598	correct	congruent	Block2	congruent/STIM_008.jpg
1869.78	0.506	correct	congruent	Block2	congruent/STIM_008.jpg
1873.226	0.696	correct	congruent	Block2	congruent/STIM_009.jpg
1877.222	0.692	correct	congruent	Block2	congruent/STIM_009.jpg
1880.377	0.653	correct	congruent	Block2	congruent/STIM_009.jpg
1883.213	0.463	correct	congruent	Block2	congruent/STIM_009.jpg
1887.069	0.575	correct	congruent	Block2	congruent/STIM_009.jpg
1891.428	0.484	correct	congruent	Block2	congruent/STIM_010.jpg
1894.283	0.699	correct	congruent	Block2	congruent/STIM_010.jpg
1897.333	0.661	correct	congruent	Block2	congruent/STIM_010.jpg
1901.225	0.6	correct	congruent	Block2	congruent/STIM_010.jpg
1904.667	0.751	correct	congruent	Block2	congruent/STIM_010.jpg
1908.996	0.592	correct	congruent	Block2	congruent/STIM_011.jpg
1913.583	0.608	correct	congruent	Block2	congruent/STIM_011.jpg
1917.873	0.596	incorrect	congruent	Block2	congruent/STIM_011.jpg
1922.118	0.519	incorrect	congruent	Block2	congruent/STIM_011.jpg
1926.367	0.59	correct	congruent	Block2	congruent/STIM_011.jpg
1930.65	0.718	correct	congruent	Block2	congruent/STIM_012.jpg
1934.292	0.691	correct	congruent	Block2	congruent/STIM_012.jpg
1937.994	0.801	incorrect	congruent	Block2	congruent/STIM_012.jpg
1941.382	0.733	correct	congruent	Block2	congruent/STIM_012.jpg
1944.484	0.729	correct	congruent	Block2	congruent/STIM_012.jpg
1947.964	0.746	incorrect	congruent	Block2	congruent/STIM_013.jpg
1951.253	0.644	correct	congruent	Block2	congruent/STIM_013.jpg
1955.013	0.76	correct	congruent	Block2	congruent/STIM_013.jpg
1957.957	0.616	correct	congruent	Block2	congruent/STIM_013.jpg
1962.523	0.534	correct	congruent	Block2	congruent/STIM_013.jpg
1965.254	0.648	correct	congruent	Block2	congruent/STIM_014.jpg
1967.971	0.504	correct	congruent	Block2	congruent/STIM_014.jpg
1971.831	0.536	correct	congruent	Block2	congruent/STIM_014.jpg
1974.688	0.685	correct	congruent	Block2	congruent/STIM_014.jpg
1978.57	0.77	correct	congruent	Block2	congruent/STIM_014.jpg
1981.778	0.671	correct	congruent	Block2	congruent/STIM_015.jpg
1986.381	0.674	correct	congruent	Block2	congruent/STIM_015.jpg
1990.379	0.488	correct	congruent	Block2	congruent/STIM_015.jpg
1993.407	0.586	correct	congruent	Block2	congruent/STIM_015.jpg
1996.824	0.624	correct	congruent	Block2	congruent/STIM_015.jpg
2000.893	0.656	correct	congruent	Block2	congruent/STIM_016.jpg
2005.354	0.686	correct	congruent	Block2	congruent/STIM_016.jpg
2009.256	0.499	correct	congruent	Block2	congruent/STIM_016.jpg
2012.405	0.651	incorrect	congruent	Block2	congruent/STIM_016.jpg
2016.824	0.749	correct	congruent	Block2	congruent/STIM_016.jpg
2020.6	0.79	correct	congruent	Block2	congruent/STIM_017.jpg
2024.736	0.549	correct	congruent	Block2	congruent/STIM_017.jpg
2028.315	0.513	incorrect	congruent	Block2	congruent/STIM_017.jpg
2031.961	0.602	correct	congruent	Block2	congruent/STIM_017.jpg
2034.989	0.523	correct	congruent	Block2	congruent/STIM_017.jpg
2037.607	0.582	incorrect	congruent	Block2	congruent/STIM_018.jpg
2041.23	0.719	correct	congruent	Block2	congruent/STIM_018.jpg
2045.324	0.496	correct	congruent	Block2	congruent/STIM_018.jpg
2048.582	0.475	correct	congruent	Block2	congruent/STIM_018.jpg
2052.276	0.698	correct	congruent	Block2	congruent/STIM_018.jpg
2056.882	0.567	correct	congruent	Block2	congruent/STIM_019.jpg
2061.167	0.602	correct	congruent	Block2	congruent/STIM_019.jpg
2064.585	0.61	incorrect	congruent	Block2	congruent/STIM_019.jpg
2068.441	0.659	correct	congruent	Block2	congruent/STIM_019.jpg
2072.681	0.708	correct	congruent	Block2	congruent/STIM_019.jpg
2075.754	0.544	correct	congruent	Block2	congruent/STIM_020.jpg
2079.01	0.675	correct	congruent	Block2	congruent/STIM_020.jpg
2083.014	0.533	correct	congruent	Block2	congruent/STIM_020.jpg
2086.966	0.531	correct	congruent	Block2	congruent/STIM_020.jpg
2090.104	0.67	incorrect	congruent	Block2	congruent/STIM_020.jpg
2094.71	0.687	correct	congruent	Block2	congruent/STIM_021.jpg
2098.476	0.751	correct	congruent	Block2	congruent/STIM_021.jpg
2102.268	0.791	correct	congruent	Block2	congruent/STIM_021.jpg
2105.132	0.69	correct	congruent	Block2	congruent/STIM_021.jpg
2109.195	0.721	correct	congruent	Block2	congruent/STIM_021.jpg
2113.518	0.54	correct	congruent	Block2	congruent/STIM_022.jpg
2117.248	0.799	correct	congruent	Block2	congruent/STIM_022.jpg
2120.211	0.613	correct	congruent	Block2	congruent/STIM_022.jpg
2123.159	0.553	correct	congruent	Block2	congruent/STIM_022.jpg
2127.506	0.701	correct	congruent	Block2	congruent/STIM_022.jpg
2131.637	0.561	correct	congruent	Block2	congruent/STIM_023.jpg
2135.797	0.66	correct	congruent	Block2	congruent/STIM_023.jpg
2138.87	0.616	correct	congruent	Block2	congruent/STIM_023.jpg
2141.802	0.479	correct	congruent	Block2	congruent/STIM_023.jpg
2146.105	0.706	correct	congruent	Block2	congruent/STIM_023.jpg
2149.484	0.595	correct	congruent	Block2	congruent/STIM_024.jpg
2153.814	0.716	correct	congruent	Block2	congruent/STIM_024.jpg
2158.454	0.768	correct	congruent	Block2	congruent/STIM_024.jpg
2162.233	0.467	correct	congruent	Block2	congruent/STIM_024.jpg
2166.341	0.549	correct	congruent	Block2	congruent/STIM_024.jpg
2169.564	0.803	correct	congruent	Block2	congruent/STIM_025.jpg
2173.998	0.733	correct	congruent	Block2	congruent/STIM_025.jpg
2177.37	0.704	correct	congruent	Block2	congruent/STIM_025.jpg
2181.716	0.534	correct	congruent	Block2	congruent/STIM_025.jpg
2184.915	0.533	incorrect	congruent	Block2	congruent/STIM_025.jpg
2189.128	0.563	incorrect	congruent	Block2	congruent/STIM_026.jpg
2193.096	0.471	correct	congruent	Block2	congruent/STIM_026.jpg
2197.444	0.461	incorrect	congruent	Block2	congruent/STIM_026.jpg
2201.667	0.462	incorrect	congruent	Block2	congruent/STIM_026.jpg
2204.61	0.55	correct	congruent	Block2	congruent/STIM_026.jpg
2208.772	0.608	correct	congruent	Block2	congruent/STIM_027.jpg
2212.491	0.698	incorrect	congruent	Block2	congruent/STIM_027.jpg
2216.865	0.477	correct	congruent	Block2	congruent/STIM_027.jpg
2219.461	0.501	incorrect	congruent	Block2	congruent/STIM_027.jpg
2222.087	0.626	correct	congruent	Block2	congruent/STIM_027.jpg
2225.224	0.698	correct	congruent	Block2	congruent/STIM_028.jpg
2228.565	0.619	correct	congruent	Block2	congruent/STIM_028.jpg
2231.185	0.7	correct	congruent	Block2	congruent/STIM_028.jpg
2234.385	0.661	incorrect	congruent	Block2	congruent/STIM_028.jpg
2238.026	0.638	correct	congruent	Block2	congruent/STIM_028.jpg
2242.638	0.578	correct	congruent	Block2	congruent/STIM_029.jpg
2246.243	0.693	correct	congruent	Block2	congruent/STIM_029.jpg
2249.239	0.695	correct	congruent	Block2	congruent/STIM_029.jpg
2253.89	0.654	correct	congruent	Block2	congruent/STIM_029.jpg
2256.938	0.494	correct	congruent	Block2	congruent/STIM_029.jpg
2260.006	0.908	correct	incongruent	Block3	incongruent/STIM_000.jpg
2264.37	0.627	correct	incongruent	Block3	incongruent/STIM_000.jpg
2267.424	0.906	correct	incongruent	Block3	incongruent/STIM_000.jpg
2270.386	0.869	correct	incongruent	Block3	incongruent/STIM_000.jpg
2273.332	0.747	correct	incongruent	Block3	incongruent/STIM_000.jpg
2276.866	0.893	incorrect	incongruent	Block3	incongruent/STIM_001.jpg
2280.178	0.524	correct	incongruent	Block3	incongruent/STIM_001.jpg
2284.587	0.917	correct	incongruent	Block3	incongruent/STIM_001.jpg
2288.338	0.56	correct	incongruent	Block3	incongruent/STIM_001.jpg
2291.518	0.82	correct	incongruent	Block3	incongruent/STIM_001.jpg
2295.329	0.852	correct	incongruent	Block3	incongruent/STIM_002.jpg
2299.067	0.552	correct	incongruent	Block3	incongruent/STIM_002.jpg
2302.49	0.702	correct	incongruent	Block3	incongruent/STIM_002.jpg
2306.63	0.879	correct	incongruent	Block3	incongruent/STIM_002.jpg
2310.64	0.712	correct	incongruent	Block3	incongruent/STIM_002.jpg
2313.779	0.781	correct	incongruent	Block3	incongruent/STIM_003.jpg
2316.957	0.739	correct	incongruent	Block3	incongruent/STIM_003.jpg
2319.896	0.626	correct	incongruent	Block3	incongruent/STIM_003.jpg
2322.867	0.937	correct	incongruent	Block3	incongruent/STIM_003.jpg
2327.527	0.556	correct	incongruent	Block3	incongruent/STIM_003.jpg
2330.79	0.538	correct	incongruent	Block3	incongruent/STIM_004.jpg
2334.518	0.626	correct	incongruent	Block3	incongruent/STIM_004.jpg
2339.144	0.787	correct	incongruent	Block3	incongruent/STIM_004.jpg
2342.501	0.798	correct	incongruent	Block3	incongruent/STIM_004.jpg
2346.099	0.47	correct	incongruent	Block3	incongruent/STIM_004.jpg
2350.227	0.674	correct	incongruent	Block3	incongruent/STIM_005.jpg
2354.078	0.804	correct	incongruent	Block3	incongruent/STIM_005.jpg
2358.162	0.536	correct	incongruent	Block3	incongruent/STIM_005.jpg
2361.02	0.853	correct	incongruent	Block3	incongruent/STIM_005.jpg
2364.417	0.507	correct	incongruent	Block3	incongruent/STIM_005.jpg
2368.514	0.489	correct	incongruent	Block3	incongruent/STIM_006.jpg
2371.784	0.824	correct	incongruent	Block3	incongruent/STIM_006.jpg
2375.652	0.807	correct	incongruent	Block3	incongruent/STIM_006.jpg
2379.373	0.662	correct	incongruent	Block3	incongruent/STIM_006.jpg
2383.816	0.694	incorrect	incongruent	Block3	incongruent/STIM_006.jpg
2386.853	0.71	correct	incongruent	Block3	incongruent/STIM_007.jpg
2390.609	0.722	correct	incongruent	Block3	incongruent/STIM_007.jpg
2394.438	0.783	correct	incongruent	Block3	incongruent/STIM_007.jpg
2397.88	0.832	correct	incongruent	Block3	incongruent/STIM_007.jpg
2401.479	0.761	correct	incongruent	Block3	incongruent/STIM_007.jpg
2404.602	0.587	correct	incongruent	Block3	incongruent/STIM_008.jpg
2408.769	0.757	correct	incongruent	Block3	incongruent/STIM_008.jpg
2411.846	0.865	correct	incongruent	Block3	incongruent/STIM_008.jpg
2415.817	0.531	correct	incongruent	Block3	incongruent/STIM_008.jpg
2418.486	0.874	correct	incongruent	Block3	incongruent/STIM_008.jpg
2422.913	0.557	correct	incongruent	Block3	incongruent/STIM_009.jpg
2425.659	0.788	correct	incongruent	Block3	incongruent/STIM_009.jpg
2429.685	0.558	incorrect	incongruent	Block3	incongruent/STIM_009.jpg
2432.404	0.52	correct	incongruent	Block3	incongruent/STIM_009.jpg
2435.592	0.564	correct	incongruent	Block3	incongruent/STIM_009.jpg
2439.441	0.804	correct	incongruent	Block3	incongruent/STIM_010.jpg
2442.269	0.838	correct	incongruent	Block3	incongruent/STIM_010.jpg
2446.263	0.544	correct	incongruent	Block3	incongruent/STIM_010.jpg
2449.005	0.502	correct	incongruent	Block3	incongruent/STIM_010.jpg
2452.852	0.723	correct	incongruent	Block3	incongruent/STIM_010.jpg
2455.93	0.785	incorrect	incongruent	Block3	incongruent/STIM_011.jpg
2460.352	0.485	correct	incongruent	Block3	incongruent/STIM_011.jpg
2464.003	0.468	correct	incongruent	Block3	incongruent/STIM_011.jpg
2467.691	0.601	correct	incongruent	Block3	incongruent/STIM_011.jpg
2470.596	0.496	correct	incongruent	Block3	incongruent/STIM_011.jpg
2474.442	0.552	correct	incongruent	Block3	incongruent/STIM_012.jpg
2478.992	0.523	correct	incongruent	Block3	incongruent/STIM_012.jpg
2481.831	0.875	correct	incongruent	Block3	incongruent/STIM_012.jpg
2486.661	0.901	correct	incongruent	Block3	incongruent/STIM_012.jpg
2491.35	0.458	correct	incongruent	Block3	incongruent/STIM_012.jpg
2494.85	0.643	correct	incongruent	Block3	incongruent/STIM_013.jpg
2497.528	0.659	correct	incongruent	Block3	incongruent/STIM_013.jpg
2501.206	0.834	correct	incongruent	Block3	incongruent/STIM_013.jpg
2504.061	0.462	correct	incongruent	Block3	incongruent/STIM_013.jpg
2507.339	0.557	correct	incongruent	Block3	incongruent/STIM_013.jpg
2511.437	0.526	correct	incongruent	Block3	incongruent/STIM_014.jpg
2514.157	0.533	correct	incongruent	Block3	incongruent/STIM_014.jpg
2518.12	0.481	correct	incongruent	Block3	incongruent/STIM_014.jpg
2521.754	0.534	correct	incongruent	Block3	incongruent/STIM_014.jpg
2525.673	0.861	incorrect	incongruent	Block3	incongruent/STIM_014.jpg
2530.447	0.522	correct	incongruent	Block3	incongruent/STIM_015.jpg
2533.084	0.571	correct	incongruent	Block3	incongruent/STIM_015.jpg
2536.668	0.775	correct	incongruent	Block3	incongruent/STIM_015.jpg
2540.485	0.771	correct	incongruent	Block3	incongruent/STIM_015.jpg
2544.362	0.748	correct	incongruent	Block3	incongruent/STIM_015.jpg
2547.139	0.585	correct	incongruent	Block3	incongruent/STIM_016.jpg
2550.524	0.533	correct	incongruent	Block3	incongruent/STIM_016.jpg
2553.895	0.808	correct	incongruent	Block3	incongruent/STIM_016.jpg
2558.383	0.632	correct	incongruent	Block3	incongruent/STIM_016.jpg
2561.629	0.873	correct	incongruent	Block3	incongruent/STIM_016.jpg
2565.509	0.872	correct	incongruent	Block3	incongruent/STIM_017.jpg
2570.162	0.458	correct	incongruent	Block3	incongruent/STIM_017.jpg
2574.219	0.631	correct	incongruent	Block3	incongruent/STIM_017.jpg
2577.612	0.547	correct	incongruent	Block3	incongruent/STIM_017.jpg
2581.067	0.497	correct	incongruent	Block3	incongruent/STIM_017.jpg
2584.874	0.462	correct	incongruent	Block3	incongruent/STIM_018.jpg
2588.539	0.453	correct	incongruent	Block3	incongruent/STIM_018.jpg
2591.554	0.93	incorrect	incongruent	Block3	incongruent/STIM_018.jpg
2596.038	0.545	correct	incongruent	Block3	incongruent/STIM_018.jpg
2598.649	0.85	correct	incongruent	Block3	incongruent/STIM_018.jpg
2601.626	0.777	correct	incongruent	Block3	incongruent/STIM_019.jpg
2605.807	0.492	correct	incongruent	Block3	incongruent/STIM_019.jpg
2609.088	0.818	correct	incongruent	Block3	incongruent/STIM_019.jpg
2613.829	0.845	incorrect	incongruent	Block3	incongruent/STIM_019.jpg
2618.482	0.697	correct	incongruent	Block3	incongruent/STIM_019.jpg
2621.98	0.614	correct	incongruent	Block3	incongruent/STIM_020.jpg
2624.733	0.448	correct	incongruent	Block3	incongruent/STIM_020.jpg
2628.003	0.848	correct	incongruent	Block3	incongruent/STIM_020.jpg
2631.348	0.517	correct	incongruent	Block3	incongruent/STIM_020.jpg
2635.57	0.691	correct	incongruent	Block3	incongruent/STIM_020.jpg
2639.318	0.784	correct	incongruent	Block3	incongruent/STIM_021.jpg
2644.076	0.908	correct	incongruent	Block3	incongruent/STIM_021.jpg
2648.617	0.649	correct	incongruent	Block3	incongruent/STIM_021.jpg
2652.624	0.724	correct	incongruent	Block3	incongruent/STIM_021.jpg
2657.259	0.649	correct	incongruent	Block3	incongruent/STIM_021.jpg
2660.652	0.767	correct	incongruent	Block3	incongruent/STIM_022.jpg
2664.16	0.858	correct	incongruent	Block3	incongruent/STIM_022.jpg
2668.692	0.672	correct	incongruent	Block3	incongruent/STIM_022.jpg
2672.615	0.665	correct	incongruent	Block3	incongruent/STIM_022.jpg
2676.533	0.594	correct	incongruent	Block3	incongruent/STIM_022.jpg
2679.314	0.827	correct	incongruent	Block3	incongruent/STIM_023.jpg
2682.387	0.556	correct	incongruent	Block3	incongruent/STIM_023.jpg
2686.233	0.748	correct	incongruent	Block3	incongruent/STIM_023.jpg
2690.479	0.827	correct	incongruent	Block3	incongruent/STIM_023.jpg
2693.749	0.705	correct	incongruent	Block3	incongruent/STIM_023.jpg
2697.923	0.877	correct	incongruent	Block3	incongruent/STIM_024.jpg
2701.563	0.481	correct	incongruent	Block3	incongruent/STIM_024.jpg
2704.052	0.59	correct	incongruent	Block3	incongruent/STIM_024.jpg
2706.673	0.546	correct	incongruent	Block3	incongruent/STIM_024.jpg
2710.367	0.757	correct	incongruent	Block3	incongruent/STIM_024.jpg
2713.438	0.921	correct	incongruent	Block3	incongruent/STIM_025.jpg
2717.547	0.736	correct	incongruent	Block3	incongruent/STIM_025.jpg
2720.39	0.691	correct	incongruent	Block3	incongruent/STIM_025.jpg
2724.975	0.667	correct	incongruent	Block3	incongruent/STIM_025.jpg
2728.873	0.476	correct	incongruent	Block3	incongruent/STIM_025.jpg
2732.753	0.526	correct	incongruent	Block3	incongruent/STIM_026.jpg
2736.263	0.929	correct	incongruent	Block3	incongruent/STIM_026.jpg
2740.184	0.796	correct	incongruent	Block3	incongruent/STIM_026.jpg
2744.445	0.758	correct	incongruent	Block3	incongruent/STIM_026.jpg
2747.374	0.728	correct	incongruent	Block3	incongruent/STIM_026.jpg
2751.384	0.616	correct	incongruent	Block3	incongruent/STIM_027.jpg
2754.204	0.879	correct	incongruent	Block3	incongruent/STIM_027.jpg
2757.891	0.651	correct	incongruent	Block3	incongruent/STIM_027.jpg
2760.991	0.764	correct	incongruent	Block3	incongruent/STIM_027.jpg
2764.257	0.854	correct	incongruent	Block3	incongruent/STIM_027.jpg
2769.079	0.473	correct	incongruent	Block3	incongruent/STIM_028.jpg
2772.208	0.827	correct	incongruent	Block3	incongruent/STIM_028.jpg
2775.137	0.938	correct	incongruent	Block3	incongruent/STIM_028.jpg
2779.444	0.618	correct	incongruent	Block3	incongruent/STIM_028.jpg
2783.687	0.469	incorrect	incongruent	Block3	incongruent/STIM_028.jpg
2786.579	0.611	correct	incongruent	Block3	incongruent/STIM_029.jpg
2790.739	0.659	correct	incongruent	Block3	incongruent/STIM_029.jpg
2795.217	0.45	correct	incongruent	Block3	incongruent/STIM_029.jpg
2799.494	0.503	correct	incongruent	Block3	incongruent/STIM_029.jpg
2803.135	0.61	correct	incongruent	Block3	incongruent/STIM_029.jpg
2807.155	0.666	correct	congruent	Block3	congruent/STIM_000.jpg
2810.061	0.481	correct	congruent	Block3	congruent/STIM_000.jpg
2812.587	0.502	correct	congruent	Block3	congruent/STIM_000.jpg
2815.946	0.604	correct	congruent	Block3	congruent/STIM_000.jpg
2818.951	0.49	correct	congruent	Block3	congruent/STIM_000.jpg
2822.173	0.76	correct	congruent	Block3	congruent/STIM_001.jpg
2826.397	0.583	correct	congruent	Block3	congruent/STIM_001.jpg
2830.651	0.632	correct	congruent	Block3	congruent/STIM_001.jpg
2833.632	0.582	correct	congruent	Block3	congruent/STIM_001.jpg
2837.627	0.745	incorrect	congruent	Block3	congruent/STIM_001.jpg
2842.014	0.751	correct	congruent	Block3	congruent/STIM_002.jpg
2846.349	0.742	correct	congruent	Block3	congruent/STIM_002.jpg
2850.843	0.667	correct	congruent	Block3	congruent/STIM_002.jpg
2855.337	0.7	correct	congruent	Block3	congruent/STIM_002.jpg
2859.575	0.677	incorrect	congruent	Block3	congruent/STIM_002.jpg
2863.538	0.663	correct	congruent	Block3	congruent/STIM_003.jpg
2867.409	0.586	incorrect	congruent	Block3	congruent/STIM_003.jpg
2870.693	0.455	correct	congruent	Block3	congruent/STIM_003.jpg
2873.358	0.506	correct	congruent	Block3	congruent/STIM_003.jpg
2877.753	0.672	correct	congruent	Block3	congruent/STIM_003.jpg
2882.342	0.783	correct	congruent	Block3	congruent/STIM_004.jpg
2886.916	0.756	correct	congruent	Block3	congruent/STIM_004.jpg
2889.895	0.604	incorrect	congruent	Block3	congruent/STIM_004.jpg
2893.54	0.452	correct	congruent	Block3	congruent/STIM_004.jpg
2896.516	0.612	correct	congruent	Block3	congruent/STIM_004.jpg
2899.643	0.62	correct	congruent	Block3	congruent/STIM_005.jpg
2902.893	0.634	correct	congruent	Block3	congruent/STIM_005.jpg
2906.961	0.656	correct	congruent	Block3	congruent/STIM_005.jpg
2911.52	0.513	correct	congruent	Block3	congruent/STIM_005.jpg
2915.509	0.596	incorrect	congruent	Block3	congruent/STIM_005.jpg
2918.765	0.604	correct	congruent	Block3	congruent/STIM_006.jpg
2922.928	0.776	correct	congruent	Block3	congruent/STIM_006.jpg
2926.96	0.631	correct	congruent	Block3	congruent/STIM_006.jpg
2931.154	0.639	incorrect	congruent	Block3	congruent/STIM_006.jpg
2934.502	0.733	incorrect	congruent	Block3	congruent/STIM_006.jpg
2937.954	0.576	correct	congruent	Block3	congruent/STIM_007.jpg
2942.354	0.597	incorrect	congruent	Block3	congruent/STIM_007.jpg
2945.22	0.726	correct	congruent	Block3	congruent/STIM_007.jpg
2948.168	0.712	correct	congruent	Block3	congruent/STIM_007.jpg
2951.508	0.744	correct	congruent	Block3	congruent/STIM_007.jpg
2955.659	0.572	correct	congruent	Block3	congruent/STIM_008.jpg
2959.847	0.523	incorrect	congruent	Block3	congruent/STIM_008.jpg
2963.76	0.551	correct	congruent	Block3	congruent/STIM_008.jpg
2966.897	0.628	correct	congruent	Block3	congruent/STIM_008.jpg
2971.322	0.532	correct	congruent	Block3	congruent/STIM_008.jpg
2974.992	0.748	correct	congruent	Block3	congruent/STIM_009.jpg
2977.974	0.574	correct	congruent	Block3	congruent/STIM_009.jpg
2981.267	0.683	incorrect	congruent	Block3	congruent/STIM_009.jpg
2985.107	0.491	correct	congruent	Block3	congruent/STIM_009.jpg
2988.197	0.621	correct	congruent	Block3	congruent/STIM_009.jpg
2992.105	0.564	correct	congruent	Block3	congruent/STIM_010.jpg
2996.472	0.674	correct	congruent	Block3	congruent/STIM_010.jpg
3000.34	0.624	correct	congruent	Block3	congruent/STIM_010.jpg
3003.807	0.504	correct	congruent	Block3	congruent/STIM_010.jpg
3007.043	0.745	correct	congruent	Block3	congruent/STIM_010.jpg
3010.547	0.525	correct	congruent	Block3	congruent/STIM_011.jpg
3013.719	0.675	correct	congruent	Block3	congruent/STIM_011.jpg
3017.851	0.692	correct	congruent	Block3	congruent/STIM_011.jpg
3022.182	0.553	correct	congruent	Block3	congruent/STIM_011.jpg
3026.691	0.726	correct	congruent	Block3	congruent/STIM_011.jpg
3030.679	0.523	correct	congruent	Block3	congruent/STIM_012.jpg
3035.121	0.65	correct	congruent	Block3	congruent/STIM_012.jpg
3039.418	0.519	incorrect	congruent	Block3	congruent/STIM_012.jpg
3042.552	0.666	correct	congruent	Block3	congruent/STIM_012.jpg
3045.278	0.706	incorrect	congruent	Block3	congruent/STIM_012.jpg
3049.785	0.451	correct	congruent	Block3	congruent/STIM_013.jpg
3053.878	0.752	incorrect	congruent	Block3	congruent/STIM_013.jpg
3057.598	0.774	correct	congruent	Block3	congruent/STIM_013.jpg
3060.718	0.571	incorrect	congruent	Block3	congruent/STIM_013.jpg
3063.551	0.502	correct	congruent	Block3	congruent/STIM_013.jpg
3067.995	0.593	correct	congruent	Block3	congruent/STIM_014.jpg
3070.784	0.478	correct	congruent	Block3	congruent/STIM_014.jpg
3075.025	0.751	correct	congruent	Block3	congruent/STIM_014.jpg
3077.838	0.794	correct	congruent	Block3	congruent/STIM_014.jpg
3082.018	0.523	correct	congruent	Block3	congruent/STIM_014.jpg
3086.257	0.721	correct	congruent	Block3	congruent/STIM_015.jpg
3089.769	0.478	correct	congruent	Block3	congruent/STIM_015.jpg
3094.04	0.545	incorrect	congruent	Block3	congruent/STIM_015.jpg
3098.307	0.645	correct	congruent	Block3	congruent/STIM_015.jpg
3102.157	0.619	correct	congruent	Block3	congruent/STIM_015.jpg
3105.565	0.597	correct	congruent	Block3	congruent/STIM_016.jpg
3109.201	0.689	correct	congruent	Block3	congruent/STIM_016.jpg
3113.266	0.699	correct	congruent	Block3	congruent/STIM_016.jpg
3117.488	0.488	incorrect	congruent	Block3	congruent/STIM_016.jpg
3121.382	0.797	correct	congruent	Block3	congruent/STIM_016.jpg
3126.097	0.631	correct	congruent	Block3	congruent/STIM_017.jpg
3130.616	0.71	correct	congruent	Block3	congruent/STIM_017.jpg
3133.342	0.597	correct	congruent	Block3	congruent/STIM_017.jpg
3136.128	0.776	correct	congruent	Block3	congruent/STIM_017.jpg
3140.612	0.732	correct	congruent	Block3	congruent/STIM_017.jpg
3144.309	0.505	correct	congruent	Block3	congruent/STIM_018.jpg
3148.012	0.528	correct	congruent	Block3	congruent/STIM_018.jpg
3152.222	0.616	correct	congruent	Block3	congruent/STIM_018.jpg
3155.315	0.525	correct	congruent	Block3	congruent/STIM_018.jpg
3158.467	0.643	correct	congruent	Block3	congruent/STIM_018.jpg
3163.06	0.476	correct	congruent	Block3	congruent/STIM_019.jpg
3166.199	0.75	correct	congruent	Block3	congruent/STIM_019.jpg
3169.233	0.641	correct	congruent	Block3	congruent/STIM_019.jpg
3173.696	0.589	incorrect	congruent	Block3	congruent/STIM_019.jpg
3176.944	0.648	correct	congruent	Block3	congruent/STIM_019.jpg
3181.471	0.602	correct	congruent	Block3	congruent/STIM_020.jpg
3185.698	0.665	incorrect	congruent	Block3	congruent/STIM_020.jpg
3188.984	0.788	correct	congruent	Block3	congruent/STIM_020.jpg
3192.666	0.578	correct	congruent	Block3	congruent/STIM_020.jpg
3196.634	0.601	correct	congruent	Block3	congruent/STIM_020.jpg
3200.246	0.662	incorrect	congruent	Block3	congruent/STIM_021.jpg
3203.18	0.751	correct	congruent	Block3	congruent/STIM_021.jpg
3207.831	0.541	correct	congruent	Block3	congruent/STIM_021.jpg
3211.614	0.518	incorrect	congruent	Block3	congruent/STIM_021.jpg
3215.244	0.615	incorrect	congruent	Block3	congruent/STIM_021.jpg
3219.777	0.508	correct	congruent	Block3	congruent/STIM_022.jpg
3222.346	0.736	correct	congruent	Block3	congruent/STIM_022.jpg
3225.568	0.619	incorrect	congruent	Block3	congruent/STIM_022.jpg
3228.733	0.804	correct	congruent	Block3	congruent/STIM_022.jpg
3231.91	0.602	correct	congruent	Block3	congruent/STIM_022.jpg
3235.163	0.451	incorrect	congruent	Block3	congruent/STIM_023.jpg
3238.43	0.503	correct	congruent	Block3	congruent/STIM_023.jpg
3241.406	0.59	incorrect	congruent	Block3	congruent/STIM_023.jpg
3245.599	0.464	correct	congruent	Block3	congruent/STIM_023.jpg
3249.894	0.707	correct	congruent	Block3	congruent/STIM_023.jpg
3253.384	0.712	incorrect	congruent	Block3	congruent/STIM_024.jpg
3258.092	0.471	incorrect	congruent	Block3	congruent/STIM_024.jpg
3261.549	0.488	correct	congruent	Block3	congruent/STIM_024.jpg
3265.828	0.611	correct	congruent	Block3	congruent/STIM_024.jpg
3270.368	0.664	correct	congruent	Block3	congruent/STIM_024.jpg
3273.336	0.586	correct	congruent	Block3	congruent/STIM_025.jpg
3276.502	0.471	correct	congruent	Block3	congruent/STIM_025.jpg
3280.776	0.486	correct	congruent	Block3	congruent/STIM_025.jpg
3284.606	0.617	correct	congruent	Block3	congruent/STIM_025.jpg
3287.919	0.567	correct	congruent	Block3	congruent/STIM_025.jpg
3291.228	0.698	correct	congruent	Block3	congruent/STIM_026.jpg
3295.169	0.665	correct	congruent	Block3	congruent/STIM_026.jpg
3298.833	0.763	correct	congruent	Block3	congruent/STIM_026.jpg
3302.546	0.472	correct	congruent	Block3	congruent/STIM_026.jpg
3305.035	0.541	correct	congruent	Block3	congruent/STIM_026.jpg
3309.262	0.702	correct	congruent	Block3	congruent/STIM_027.jpg
3312.382	0.565	correct	congruent	Block3	congruent/STIM_027.jpg
3315.402	0.66	correct	congruent	Block3	congruent/STIM_027.jpg
3319.661	0.594	correct	congruent	Block3	congruent/STIM_027.jpg
3323.224	0.583	correct	congruent	Block3	congruent/STIM_027.jpg
3326.884	0.458	correct	congruent	Block3	congruent/STIM_028.jpg
3329.525	0.69	correct	congruent	Block3	congruent/STIM_028.jpg
3333.745	0.53	correct	congruent	Block3	congruent/STIM_028.jpg
3336.859	0.794	correct	congruent	Block3	congruent/STIM_028.jpg
3341.38	0.78	incorrect	congruent	Block3	congruent/STIM_028.jpg
3344.747	0.56	correct	congruent	Block3	congruent/STIM_029.jpg
3349.014	0.478	correct	congruent	Block3	congruent/STIM_029.jpg
3353.484	0.709	correct	congruent	Block3	congruent/STIM_029.jpg
3357.715	0.554	incorrect	congruent	Block3	congruent/STIM_029.jpg
3361.334	0.545	correct	congruent	Block3	congruent/STIM_029.jpg
