onset	duration	response_time_ms	trial_type	learning_stage	stimulus	response_port
0.0	1.422	1422.4	incongruent	Block1	incongruent/STIM_000.jpg	100
4.042	1.19	1190.4	incongruent	Block1	incongruent/STIM_000.jpg	100
8.009	0.851	851.3	incongruent	Block1	incongruent/STIM_000.jpg	99
11.16	0.658	658.3	incongruent	Block1	incongruent/STIM_000.jpg	100
15.147	0.67	670.5	incongruent	Block1	incongruent/STIM_000.jpg	100
18.36	0.861	860.9	incongruent	Block1	incongruent/STIM_001.jpg	99
21.527	0.767	766.6	incongruent	Block1	incongruent/STIM_001.jpg	99
26.203	1.266	1265.9	incongruent	Block1	incongruent/STIM_001.jpg	99
29.771	1.044	1043.5	incongruent	Block1	incongruent/STIM_001.jpg	99
33.945	0.984	984.2	incongruent	Block1	incongruent/STIM_001.jpg	100
38.563	1.319	1318.6	incongruent	Block1	incongruent/STIM_002.jpg	99
42.521	1.105	1104.7	incongruent	Block1	incongruent/STIM_002.jpg	100
45.937	1.029	1029.2	incongruent	Block1	incongruent/STIM_002.jpg	99
50.741	1.231	1231.0	incongruent	Block1	incongruent/STIM_002.jpg	100
55.91	0.648	648.4	incongruent	Block1	incongruent/STIM_002.jpg	100
60.269	0.859	859.1	incongruent	Block1	incongruent/STIM_003.jpg	100
64.651	0.79	790.1	incongruent	Block1	incongruent/STIM_003.jpg	99
68.203	0.984	983.7	incongruent	Block1	incongruent/STIM_003.jpg	99
72.413	0.688	688.0	incongruent	Block1	incongruent/STIM_003.jpg	100
76.673	1.07	1069.5	incongruent	Block1	incongruent/STIM_003.jpg	100
80.767	0.893	893.2	incongruent	Block1	incongruent/STIM_004.jpg	99
84.12	1.204	1204.3	incongruent	Block1	incongruent/STIM_004.jpg	100
88.616	1.125	1125.2	incongruent	Block1	incongruent/STIM_004.jpg	99
91.86	1.217	1217.1	incongruent	Block1	incongruent/STIM_004.jpg	99
96.627	0.818	817.6	incongruent	Block1	incongruent/STIM_004.jpg	100
101.131	1.397	1396.9	incongruent	Block1	incongruent/STIM_005.jpg	100
104.595	1.271	1271.4	incongruent	Block1	incongruent/STIM_005.jpg	99
108.572	1.022	1022.0	incongruent	Block1	incongruent/STIM_005.jpg	99
112.915	0.78	780.0	incongruent	Block1	incongruent/STIM_005.jpg	100
117.515	1.007	1007.1	incongruent	Block1	incongruent/STIM_005.jpg	100
122.111	1.446	1446.3	incongruent	Block1	incongruent/STIM_006.jpg	99
127.44	1.352	1351.6	incongruent	Block1	incongruent/STIM_006.jpg	99
131.365	0.828	828.2	incongruent	Block1	incongruent/STIM_006.jpg	100
134.252	0.662	661.7	incongruent	Block1	incongruent/STIM_006.jpg	99
137.004	1.127	1126.8	incongruent	Block1	incongruent/STIM_006.jpg	99
140.986	1.38	1379.9	incongruent	Block1	incongruent/STIM_007.jpg	99
144.685	0.727	726.8	incongruent	Block1	incongruent/STIM_007.jpg	100
148.5	1.172	1172.1	incongruent	Block1	incongruent/STIM_007.jpg	100
152.832	0.999	998.7	incongruent	Block1	incongruent/STIM_007.jpg	100
157.74	0.883	883.3	incongruent	Block1	incongruent/STIM_007.jpg	99
162.499	0.958	957.9	incongruent	Block1	incongruent/STIM_008.jpg	100
165.973	0.66	659.6	incongruent	Block1	incongruent/STIM_008.jpg	100
169.43	1.048	1047.6	incongruent	Block1	incongruent/STIM_008.jpg	100
172.519	0.928	927.8	incongruent	Block1	incongruent/STIM_008.jpg	100
176.04	0.728	727.9	incongruent	Block1	incongruent/STIM_008.jpg	99
180.741	0.849	849.2	incongruent	Block1	incongruent/STIM_009.jpg	99
184.527	1.339	1338.9	incongruent	Block1	incongruent/STIM_009.jpg	100
189.325	0.725	724.9	incongruent	Block1	incongruent/STIM_009.jpg	99
192.744	0.908	907.7	incongruent	Block1	incongruent/STIM_009.jpg	100
195.965	0.952	951.6	incongruent	Block1	incongruent/STIM_009.jpg	99
199.467	0.811	811.0	incongruent	Block1	incongruent/STIM_010.jpg	100
204.204	1.284	1283.6	incongruent	Block1	incongruent/STIM_010.jpg	100
207.806	1.249	1249.4	incongruent	Block1	incongruent/STIM_010.jpg	100
211.527	1.102	1102.4	incongruent	Block1	incongruent/STIM_010.jpg	100
214.971	0.598	597.5	incongruent	Block1	incongruent/STIM_010.jpg	100
218.004	1.435	1435.0	incongruent	Block1	incongruent/STIM_011.jpg	100
222.603	1.019	1018.7	incongruent	Block1	incongruent/STIM_011.jpg	100
227.412	0.867	867.3	incongruent	Block1	incongruent/STIM_011.jpg	99
230.681	1.197	1197.4	incongruent	Block1	incongruent/STIM_011.jpg	100
235.583	0.61	609.9	incongruent	Block1	incongruent/STIM_011.jpg	100
239.929	1.305	1305.2	incongruent	Block1	incongruent/STIM_012.jpg	100
244.045	0.79	789.5	incongruent	Block1	incongruent/STIM_012.jpg	100
247.861	1.011	1010.9	incongruent	Block1	incongruent/STIM_012.jpg	99
251.952	0.818	817.5	incongruent	Block1	incongruent/STIM_012.jpg	100
255.632	0.951	950.9	incongruent	Block1	incongruent/STIM_012.jpg	100
259.451	1.275	1275.1	incongruent	Block1	incongruent/STIM_013.jpg	100
263.11	1.254	1253.8	incongruent	Block1	incongruent/STIM_013.jpg	100
266.783	0.991	991.2	incongruent	Block1	incongruent/STIM_013.jpg	99
271.577	0.698	698.4	incongruent	Block1	incongruent/STIM_013.jpg	100
275.722	0.987	986.6	incongruent	Block1	incongruent/STIM_013.jpg	100
279.903	0.722	721.7	incongruent	Block1	incongruent/STIM_014.jpg	100
284.187	1.357	1356.7	incongruent	Block1	incongruent/STIM_014.jpg	100
287.933	1.064	1064.2	incongruent	Block1	incongruent/STIM_014.jpg	99
292.356	0.692	691.8	incongruent	Block1	incongruent/STIM_014.jpg	100
295.269	0.628	627.5	incongruent	Block1	incongruent/STIM_014.jpg	99
298.907	1.373	1373.3	incongruent	Block1	incongruent/STIM_015.jpg	99
302.646	1.303	1303.1	incongruent	Block1	incongruent/STIM_015.jpg	99
306.583	0.903	903.0	incongruent	Block1	incongruent/STIM_015.jpg	99
310.832	1.129	1129.1	incongruent	Block1	incongruent/STIM_015.jpg	99
315.181	0.617	616.7	incongruent	Block1	incongruent/STIM_015.jpg	100
319.268	0.909	908.8	incongruent	Block1	incongruent/STIM_016.jpg	99
324.164	0.931	930.8	incongruent	Block1	incongruent/STIM_016.jpg	99
329.029	1.215	1214.7	incongruent	Block1	incongruent/STIM_016.jpg	99
332.966	0.654	653.5	incongruent	Block1	incongruent/STIM_016.jpg	99
336.989	0.975	974.6	incongruent	Block1	incongruent/STIM_016.jpg	99
340.31	0.698	697.5	incongruent	Block1	incongruent/STIM_017.jpg	100
343.125	0.708	708.4	incongruent	Block1	incongruent/STIM_017.jpg	100
346.016	1.157	1157.1	incongruent	Block1	incongruent/STIM_017.jpg	99
350.435	1.09	1090.1	incongruent	Block1	incongruent/STIM_017.jpg	99
354.928	0.883	883.4	incongruent	Block1	incongruent/STIM_017.jpg	100
358.425	1.057	1057.3	incongruent	Block1	incongruent/STIM_018.jpg	100
362.415	1.372	1372.3	incongruent	Block1	incongruent/STIM_018.jpg	99
366.781	0.851	851.2	incongruent	Block1	incongruent/STIM_018.jpg	100
371.157	1.155	1155.0	incongruent	Block1	incongruent/STIM_018.jpg	100
376.151	0.652	652.0	incongruent	Block1	incongruent/STIM_018.jpg	99
379.961	1.078	1077.9	incongruent	Block1	incongruent/STIM_019.jpg	100
384.891	1.2	1199.9	incongruent	Block1	incongruent/STIM_019.jpg	100
389.123	0.73	730.2	incongruent	Block1	incongruent/STIM_019.jpg	100
392.295	0.882	881.8	incongruent	Block1	incongruent/STIM_019.jpg	99
395.561	1.035	1035.4	incongruent	Block1	incongruent/STIM_019.jpg	100
400.516	1.295	1295.3	incongruent	Block1	incongruent/STIM_020.jpg	100
404.179	1.1	1099.8	incongruent	Block1	incongruent/STIM_020.jpg	99
407.76	1.019	1019.0	incongruent	Block1	incongruent/STIM_020.jpg	99
412.302	1.049	1049.4	incongruent	Block1	incongruent/STIM_020.jpg	99
416.462	0.925	924.8	incongruent	Block1	incongruent/STIM_020.jpg	100
420.82	1.347	1347.4	incongruent	Block1	incongruent/STIM_021.jpg	100
424.593	0.974	974.0	incongruent	Block1	incongruent/STIM_021.jpg	100
428.227	1.085	1084.8	incongruent	Block1	incongruent/STIM_021.jpg	99
432.913	0.609	609.1	incongruent	Block1	incongruent/STIM_021.jpg	99
437.208	0.585	584.6	incongruent	Block1	incongruent/STIM_021.jpg	100
440.619	1.058	1057.6	incongruent	Block1	incongruent/STIM_022.jpg	99
444.457	0.733	733.3	incongruent	Block1	incongruent/STIM_022.jpg	99
448.679	1.195	1195.0	incongruent	Block1	incongruent/STIM_022.jpg	100
452.766	1.211	1211.2	incongruent	Block1	incongruent/STIM_022.jpg	99
456.416	0.75	750.1	incongruent	Block1	incongruent/STIM_022.jpg	99
459.933	0.87	870.2	incongruent	Block1	incongruent/STIM_023.jpg	99
463.445	0.813	812.6	incongruent	Block1	incongruent/STIM_023.jpg	100
467.922	0.716	716.5	incongruent	Block1	incongruent/STIM_023.jpg	100
472.066	0.928	927.7	incongruent	Block1	incongruent/STIM_023.jpg	99
475.479	0.596	596.3	incongruent	Block1	incongruent/STIM_023.jpg	100
479.204	0.829	828.6	incongruent	Block1	incongruent/STIM_024.jpg	100
482.853	0.697	696.6	incongruent	Block1	incongruent/STIM_024.jpg	100
485.871	1.099	1099.1	incongruent	Block1	incongruent/STIM_024.jpg	100
489.336	0.888	888.2	incongruent	Block1	incongruent/STIM_024.jpg	100
493.129	1.066	1065.7	incongruent	Block1	incongruent/STIM_024.jpg	100
496.264	1.014	1013.5	incongruent	Block1	incongruent/STIM_025.jpg	99
500.419	0.896	896.0	incongruent	Block1	incongruent/STIM_025.jpg	100
504.032	0.959	959.1	incongruent	Block1	incongruent/STIM_025.jpg	99
508.946	1.084	1083.6	incongruent	Block1	incongruent/STIM_025.jpg	100
512.169	0.844	844.1	incongruent	Block1	incongruent/STIM_025.jpg	99
516.479	1.141	1141.3	incongruent	Block1	incongruent/STIM_026.jpg	100
519.988	1.1	1100.3	incongruent	Block1	incongruent/STIM_026.jpg	99
523.671	1.06	1059.6	incongruent	Block1	incongruent/STIM_026.jpg	99
526.757	0.852	852.4	incongruent	Block1	incongruent/STIM_026.jpg	100
531.569	0.837	836.6	incongruent	Block1	incongruent/STIM_026.jpg	100
535.691	1.11	1110.1	incongruent	Block1	incongruent/STIM_027.jpg	100
538.989	0.839	839.2	incongruent	Block1	incongruent/STIM_027.jpg	99
543.028	0.856	856.1	incongruent	Block1	incongruent/STIM_027.jpg	100
546.238	0.796	795.8	incongruent	Block1	incongruent/STIM_027.jpg	100
549.738	0.758	757.6	incongruent	Block1	incongruent/STIM_027.jpg	99
554.094	1.394	1394.2	incongruent	Block1	incongruent/STIM_028.jpg	99
558.818	1.118	1118.2	incongruent	Block1	incongruent/STIM_028.jpg	99
561.99	0.796	795.5	incongruent	Block1	incongruent/STIM_028.jpg	99
565.854	0.845	844.8	incongruent	Block1	incongruent/STIM_028.jpg	99
569.141	0.965	965.3	incongruent	Block1	incongruent/STIM_028.jpg	100
572.872	0.737	737.0	incongruent	Block1	incongruent/STIM_029.jpg	100
576.651	0.789	789.0	incongruent	Block1	incongruent/STIM_029.jpg	100
581.398	1.136	1135.8	incongruent	Block1	incongruent/STIM_029.jpg	100
585.53	1.039	1038.7	incongruent	Block1	incongruent/STIM_029.jpg	100
589.862	1.042	1042.2	incongruent	Block1	incongruent/STIM_029.jpg	100
594.478	0.682	682.3	congruent	Block1	congruent/STIM_000.jpg	99
598.06	0.496	495.8	congruent	Block1	congruent/STIM_000.jpg	99
600.61	0.607	607.0	congruent	Block1	congruent/STIM_000.jpg	99
604.007	0.496	496.0	congruent	Block1	congruent/STIM_000.jpg	100
606.585	0.529	529.1	congruent	Block1	congruent/STIM_000.jpg	99
610.147	0.693	693.3	congruent	Block1	congruent/STIM_001.jpg	99
613.753	0.87	869.5	congruent	Block1	congruent/STIM_001.jpg	100
618.555	0.692	691.9	congruent	Block1	congruent/STIM_001.jpg	99
622.455	0.634	634.3	congruent	Block1	congruent/STIM_001.jpg	99
625.237	0.617	616.6	congruent	Block1	congruent/STIM_001.jpg	99
628.371	0.858	858.2	congruent	Block1	congruent/STIM_002.jpg	99
631.764	0.854	854.2	congruent	Block1	congruent/STIM_002.jpg	99
636.634	0.831	830.7	congruent	Block1	congruent/STIM_002.jpg	100
640.542	0.521	520.6	congruent	Block1	congruent/STIM_002.jpg	100
643.14	0.878	878.4	congruent	Block1	congruent/STIM_002.jpg	99
647.259	0.719	718.9	congruent	Block1	congruent/STIM_003.jpg	99
650.757	0.837	836.9	congruent	Block1	congruent/STIM_003.jpg	100
654.155	0.699	698.7	congruent	Block1	congruent/STIM_003.jpg	100
657.172	0.828	827.6	congruent	Block1	congruent/STIM_003.jpg	100
661.422	0.839	839.1	congruent	Block1	congruent/STIM_003.jpg	99
665.076	0.775	774.7	congruent	Block1	congruent/STIM_004.jpg	100
669.43	0.858	858.3	congruent	Block1	congruent/STIM_004.jpg	99
672.711	0.526	526.1	congruent	Block1	congruent/STIM_004.jpg	99
676.019	0.842	842.1	congruent	Block1	congruent/STIM_004.jpg	100
679.04	0.576	576.1	congruent	Block1	congruent/STIM_004.jpg	100
682.027	0.842	841.8	congruent	Block1	congruent/STIM_005.jpg	99
685.272	0.509	509.1	congruent	Block1	congruent/STIM_005.jpg	100
688.319	0.796	796.2	congruent	Block1	congruent/STIM_005.jpg	99
691.939	0.67	670.4	congruent	Block1	congruent/STIM_005.jpg	99
694.731	0.552	552.2	congruent	Block1	congruent/STIM_005.jpg	100
697.931	0.746	745.9	congruent	Block1	congruent/STIM_006.jpg	99
701.258	0.593	593.0	congruent	Block1	congruent/STIM_006.jpg	99
705.072	0.734	734.4	congruent	Block1	congruent/STIM_006.jpg	99
708.363	0.522	522.4	congruent	Block1	congruent/STIM_006.jpg	99
711.589	0.766	766.5	congruent	Block1	congruent/STIM_006.jpg	99
715.057	0.563	563.2	congruent	Block1	congruent/STIM_007.jpg	99
718.633	0.791	790.6	congruent	Block1	congruent/STIM_007.jpg	100
722.493	0.683	683.2	congruent	Block1	congruent/STIM_007.jpg	100
727.189	0.552	552.0	congruent	Block1	congruent/STIM_007.jpg	99
730.852	0.538	537.9	congruent	Block1	congruent/STIM_007.jpg	99
734.94	0.496	496.5	congruent	Block1	congruent/STIM_008.jpg	100
738.404	0.713	712.8	congruent	Block1	congruent/STIM_008.jpg	100
742.084	0.576	575.8	congruent	Block1	congruent/STIM_008.jpg	99
746.641	0.871	871.1	congruent	Block1	congruent/STIM_008.jpg	99
749.545	0.841	841.3	congruent	Block1	congruent/STIM_008.jpg	100
752.703	0.762	762.0	congruent	Block1	congruent/STIM_009.jpg	99
755.788	0.545	545.2	congruent	Block1	congruent/STIM_009.jpg	99
759.629	0.836	836.1	congruent	Block1	congruent/STIM_009.jpg	99
764.003	0.717	716.8	congruent	Block1	congruent/STIM_009.jpg	99
768.058	0.687	687.1	congruent	Block1	congruent/STIM_009.jpg	100
771.575	0.628	628.5	congruent	Block1	congruent/STIM_010.jpg	99
774.852	0.859	859.2	congruent	Block1	congruent/STIM_010.jpg	99
778.18	0.756	756.3	congruent	Block1	congruent/STIM_010.jpg	100
782.849	0.766	765.9	congruent	Block1	congruent/STIM_010.jpg	99
785.728	0.644	644.3	congruent	Block1	congruent/STIM_010.jpg	99
789.747	0.75	750.1	congruent	Block1	congruent/STIM_011.jpg	99
792.654	0.751	751.4	congruent	Block1	congruent/STIM_011.jpg	99
796.776	0.5	499.8	congruent	Block1	congruent/STIM_011.jpg	99
799.394	0.606	606.3	congruent	Block1	congruent/STIM_011.jpg	100
802.166	0.559	558.8	congruent	Block1	congruent/STIM_011.jpg	99
806.553	0.662	662.2	congruent	Block1	congruent/STIM_012.jpg	99
810.957	0.795	794.7	congruent	Block1	congruent/STIM_012.jpg	100
814.32	0.645	645.0	congruent	Block1	congruent/STIM_012.jpg	100
818.826	0.655	655.1	congruent	Block1	congruent/STIM_012.jpg	100
822.363	0.558	558.2	congruent	Block1	congruent/STIM_012.jpg	100
826.03	0.52	520.0	congruent	Block1	congruent/STIM_013.jpg	99
829.771	0.666	666.1	congruent	Block1	congruent/STIM_013.jpg	100
833.205	0.511	511.2	congruent	Block1	congruent/STIM_013.jpg	100
836.266	0.53	530.0	congruent	Block1	congruent/STIM_013.jpg	100
838.832	0.848	848.0	congruent	Block1	congruent/STIM_013.jpg	100
842.889	0.578	578.2	congruent	Block1	congruent/STIM_014.jpg	100
846.591	0.735	735.0	congruent	Block1	congruent/STIM_014.jpg	99
850.211	0.85	849.6	congruent	Block1	congruent/STIM_014.jpg	99
853.25	0.608	608.4	congruent	Block1	congruent/STIM_014.jpg	99
856.799	0.843	842.9	congruent	Block1	congruent/STIM_014.jpg	99
859.957	0.579	579.0	congruent	Block1	congruent/STIM_015.jpg	99
864.195	0.551	551.3	congruent	Block1	congruent/STIM_015.jpg	99
867.39	0.554	554.2	congruent	Block1	congruent/STIM_015.jpg	100
871.605	0.532	531.6	congruent	Block1	congruent/STIM_015.jpg	99
874.479	0.523	522.9	congruent	Block1	congruent/STIM_015.jpg	99
877.198	0.767	767.1	congruent	Block1	congruent/STIM_016.jpg	100
881.299	0.872	872.0	congruent	Block1	congruent/STIM_016.jpg	100
884.64	0.563	563.1	congruent	Block1	congruent/STIM_016.jpg	99
887.929	0.557	557.2	congruent	Block1	congruent/STIM_016.jpg	100
892.044	0.494	494.3	congruent	Block1	congruent/STIM_016.jpg	99
895.613	0.69	690.4	congruent	Block1	congruent/STIM_017.jpg	100
899.495	0.877	876.7	congruent	Block1	congruent/STIM_017.jpg	100
904.366	0.741	740.7	congruent	Block1	congruent/STIM_017.jpg	99
907.127	0.7	699.9	congruent	Block1	congruent/STIM_017.jpg	99
911.134	0.77	769.5	congruent	Block1	congruent/STIM_017.jpg	100
915.815	0.683	683.1	congruent	Block1	congruent/STIM_018.jpg	99
920.015	0.702	701.9	congruent	Block1	congruent/STIM_018.jpg	99
923.65	0.854	853.8	congruent	Block1	congruent/STIM_018.jpg	100
927.644	0.653	653.3	congruent	Block1	congruent/STIM_018.jpg	100
932.018	0.698	698.3	congruent	Block1	congruent/STIM_018.jpg	100
936.667	0.522	522.5	congruent	Block1	congruent/STIM_019.jpg	100
939.909	0.55	550.0	congruent	Block1	congruent/STIM_019.jpg	100
943.463	0.876	875.5	congruent	Block1	congruent/STIM_019.jpg	100
946.822	0.603	602.8	congruent	Block1	congruent/STIM_019.jpg	100
950.656	0.83	829.5	congruent	Block1	congruent/STIM_019.jpg	100
954.043	0.529	529.1	congruent	Block1	congruent/STIM_020.jpg	100
957.753	0.503	503.1	congruent	Block1	congruent/STIM_020.jpg	100
961.025	0.816	816.4	congruent	Block1	congruent/STIM_020.jpg	100
965.695	0.638	638.4	congruent	Block1	congruent/STIM_020.jpg	99
968.886	0.785	785.4	congruent	Block1	congruent/STIM_020.jpg	100
972.005	0.505	504.8	congruent	Block1	congruent/STIM_021.jpg	99
975.618	0.69	690.3	congruent	Block1	congruent/STIM_021.jpg	100
979.455	0.617	616.8	congruent	Block1	congruent/STIM_021.jpg	99
982.602	0.592	591.7	congruent	Block1	congruent/STIM_021.jpg	100
986.577	0.57	570.1	congruent	Block1	congruent/STIM_021.jpg	99
989.329	0.542	541.7	congruent	Block1	congruent/STIM_022.jpg	99
992.496	0.878	878.0	congruent	Block1	congruent/STIM_022.jpg	100
996.761	0.532	531.8	congruent	Block1	congruent/STIM_022.jpg	100
1000.73	0.57	570.1	congruent	Block1	congruent/STIM_022.jpg	100
1003.432	0.866	865.8	congruent	Block1	congruent/STIM_022.jpg	99
1007.029	0.727	726.9	congruent	Block1	congruent/STIM_023.jpg	100
1009.906	0.63	630.5	congruent	Block1	congruent/STIM_023.jpg	100
1013.689	0.498	497.6	congruent	Block1	congruent/STIM_023.jpg	99
1018.006	0.795	794.9	congruent	Block1	congruent/STIM_023.jpg	100
1021.702	0.5	499.5	congruent	Block1	congruent/STIM_023.jpg	99
1025.669	0.64	640.2	congruent	Block1	congruent/STIM_024.jpg	100
1029.699	0.509	509.2	congruent	Block1	congruent/STIM_024.jpg	99
1032.283	0.656	656.5	congruent	Block1	congruent/STIM_024.jpg	99
1036.343	0.532	532.3	congruent	Block1	congruent/STIM_024.jpg	99
1040.381	0.653	653.0	congruent	Block1	congruent/STIM_024.jpg	99
1044.041	0.79	789.7	congruent	Block1	congruent/STIM_025.jpg	100
1046.984	0.636	636.4	congruent	Block1	congruent/STIM_025.jpg	100
1049.83	0.747	746.7	congruent	Block1	congruent/STIM_025.jpg	100
1054.084	0.752	751.7	congruent	Block1	congruent/STIM_025.jpg	99
1057.747	0.641	641.3	congruent	Block1	congruent/STIM_025.jpg	99
1060.764	0.69	690.3	congruent	Block1	congruent/STIM_026.jpg	100
1065.415	0.621	620.9	congruent	Block1	congruent/STIM_026.jpg	99
1069.173	0.748	748.2	congruent	Block1	congruent/STIM_026.jpg	99
1072.093	0.516	516.0	congruent	Block1	congruent/STIM_026.jpg	100
1075.735	0.682	681.6	congruent	Block1	congruent/STIM_026.jpg	100
1079.649	0.516	515.6	congruent	Block1	congruent/STIM_027.jpg	99
1082.677	0.649	649.0	congruent	Block1	congruent/STIM_027.jpg	100
1086.943	0.825	825.4	congruent	Block1	congruent/STIM_027.jpg	99
1091.103	0.637	636.9	congruent	Block1	congruent/STIM_027.jpg	100
1095.701	0.761	760.9	congruent	Block1	congruent/STIM_027.jpg	99
1100.136	0.636	635.9	congruent	Block1	congruent/STIM_028.jpg	99
1104.314	0.629	629.2	congruent	Block1	congruent/STIM_028.jpg	99
1108.929	0.591	590.6	congruent	Block1	congruent/STIM_028.jpg	99
1111.63	0.768	768.4	congruent	Block1	congruent/STIM_028.jpg	99
1114.978	0.511	511.5	congruent	Block1	congruent/STIM_028.jpg	100
1117.761	0.765	765.3	congruent	Block1	congruent/STIM_029.jpg	100
1120.736	0.869	869.1	congruent	Block1	congruent/STIM_029.jpg	99
1123.759	0.572	572.2	congruent	Block1	congruent/STIM_029.jpg	100
1127.235	0.778	777.8	congruent	Block1	congruent/STIM_029.jpg	99
1130.734	0.706	705.5	congruent	Block1	congruent/STIM_029.jpg	99
1133.477	0.597	597.0	incongruent	Block2	incongruent/STIM_000.jpg	100
1137.059	1.11	1110.4	incongruent	Block2	incongruent/STIM_000.jpg	100
1142.178	1.022	1022.0	incongruent	Block2	incongruent/STIM_000.jpg	100
1146.127	0.872	871.6	incongruent	Block2	incongruent/STIM_000.jpg	99
1150.02	0.531	531.0	incongruent	Block2	incongruent/STIM_000.jpg	100
1153.177	0.603	602.7	incongruent	Block2	incongruent/STIM_001.jpg	99
1155.921	0.555	555.3	incongruent	Block2	incongruent/STIM_001.jpg	100
1159.386	1.046	1046.2	incongruent	Block2	incongruent/STIM_001.jpg	100
1164.097	0.947	946.8	incongruent	Block2	incongruent/STIM_001.jpg	100
1167.309	0.491	491.4	incongruent	Block2	incongruent/STIM_001.jpg	99
1169.823	0.82	819.6	incongruent	Block2	incongruent/STIM_002.jpg	100
1172.76	1.073	1072.7	incongruent	Block2	incongruent/STIM_002.jpg	100
1176.052	0.831	831.1	incongruent	Block2	incongruent/STIM_002.jpg	99
1179.848	0.746	746.0	incongruent	Block2	incongruent/STIM_002.jpg	99
1183.7	0.609	609.3	incongruent	Block2	incongruent/STIM_002.jpg	100
1187.316	0.852	852.1	incongruent	Block2	incongruent/STIM_003.jpg	99
1192.08	0.761	761.2	incongruent	Block2	incongruent/STIM_003.jpg	99
1195.335	0.636	635.9	incongruent	Block2	incongruent/STIM_003.jpg	100
1198.333	0.867	866.8	incongruent	Block2	incongruent/STIM_003.jpg	100
1202.819	0.891	891.1	incongruent	Block2	incongruent/STIM_003.jpg	100
1207.443	0.724	723.8	incongruent	Block2	incongruent/STIM_004.jpg	99
1210.595	0.966	966.1	incongruent	Block2	incongruent/STIM_004.jpg	99
1214.743	1.074	1073.7	incongruent	Block2	incongruent/STIM_004.jpg	99
1219.114	0.524	524.5	incongruent	Block2	incongruent/STIM_004.jpg	99
1223.061	0.681	680.8	incongruent	Block2	incongruent/STIM_004.jpg	99
1226.162	0.658	658.5	incongruent	Block2	incongruent/STIM_005.jpg	99
1229.944	0.802	802.2	incongruent	Block2	incongruent/STIM_005.jpg	99
1233.784	0.555	555.0	incongruent	Block2	incongruent/STIM_005.jpg	99
1237.691	0.518	518.0	incongruent	Block2	incongruent/STIM_005.jpg	99
1241.741	0.804	804.1	incongruent	Block2	incongruent/STIM_005.jpg	100
1246.355	0.985	984.9	incongruent	Block2	incongruent/STIM_006.jpg	100
1250.625	0.825	825.4	incongruent	Block2	incongruent/STIM_006.jpg	99
1254.443	0.592	591.7	incongruent	Block2	incongruent/STIM_006.jpg	99
1258.98	0.497	496.9	incongruent	Block2	incongruent/STIM_006.jpg	100
1261.626	0.531	531.3	incongruent	Block2	incongruent/STIM_006.jpg	100
1264.705	1.125	1124.9	incongruent	Block2	incongruent/STIM_007.jpg	99
1268.247	0.853	852.6	incongruent	Block2	incongruent/STIM_007.jpg	100
1271.874	0.873	873.4	incongruent	Block2	incongruent/STIM_007.jpg	99
1276.145	0.902	902.1	incongruent	Block2	incongruent/STIM_007.jpg	100
1280.152	0.639	639.2	incongruent	Block2	incongruent/STIM_007.jpg	100
1283.348	0.804	804.4	incongruent	Block2	incongruent/STIM_008.jpg	99
1287.316	0.998	997.8	incongruent	Block2	incongruent/STIM_008.jpg	100
1292.289	0.788	788.2	incongruent	Block2	incongruent/STIM_008.jpg	99
1296.985	0.899	898.6	incongruent	Block2	incongruent/STIM_008.jpg	100
1301.713	0.886	886.2	incongruent	Block2	incongruent/STIM_008.jpg	100
1304.885	0.842	842.3	incongruent	Block2	incongruent/STIM_009.jpg	100
1308.145	0.852	852.0	incongruent	Block2	incongruent/STIM_009.jpg	99
1312.122	0.68	680.3	incongruent	Block2	incongruent/STIM_009.jpg	100
1316.206	0.653	653.4	incongruent	Block2	incongruent/STIM_009.jpg	99
1319.439	0.618	617.8	incongruent	Block2	incongruent/STIM_009.jpg	99
1323.815	0.584	584.0	incongruent	Block2	incongruent/STIM_010.jpg	99
1327.726	0.805	804.6	incongruent	Block2	incongruent/STIM_010.jpg	99
1332.028	1.046	1045.5	incongruent	Block2	incongruent/STIM_010.jpg	100
1335.537	1.012	1011.9	incongruent	Block2	incongruent/STIM_010.jpg	100
1340.033	0.535	535.4	incongruent	Block2	incongruent/STIM_010.jpg	99
1342.885	1.158	1158.3	incongruent	Block2	incongruent/STIM_011.jpg	99
1348.059	0.914	914.1	incongruent	Block2	incongruent/STIM_011.jpg	99
1352.067	0.662	661.7	incongruent	Block2	incongruent/STIM_011.jpg	100
1354.787	0.758	757.8	incongruent	Block2	incongruent/STIM_011.jpg	100
1357.996	0.583	583.3	incongruent	Block2	incongruent/STIM_011.jpg	100
1361.058	0.736	736.2	incongruent	Block2	incongruent/STIM_012.jpg	99
1364.838	0.95	950.5	incongruent	Block2	incongruent/STIM_012.jpg	100
1368.834	0.867	866.9	incongruent	Block2	incongruent/STIM_012.jpg	99
1372.13	0.586	586.0	incongruent	Block2	incongruent/STIM_012.jpg	99
1375.318	0.884	884.5	incongruent	Block2	incongruent/STIM_012.jpg	99
1378.657	1.216	1215.5	incongruent	Block2	incongruent/STIM_013.jpg	99
1382.133	0.886	885.7	incongruent	Block2	incongruent/STIM_013.jpg	100
1385.895	0.998	997.6	incongruent	Block2	incongruent/STIM_013.jpg	99
1390.78	0.492	492.5	incongruent	Block2	incongruent/STIM_013.jpg	99
1394.58	0.845	845.1	incongruent	Block2	incongruent/STIM_013.jpg	99
1398.758	0.784	784.3	incongruent	Block2	incongruent/STIM_014.jpg	99
1402.79	1.104	1104.1	incongruent	Block2	incongruent/STIM_014.jpg	99
1407.327	1.088	1088.0	incongruent	Block2	incongruent/STIM_014.jpg	100
1411.53	0.727	727.4	incongruent	Block2	incongruent/STIM_014.jpg	99
1414.699	0.781	781.2	incongruent	Block2	incongruent/STIM_014.jpg	100
1418.43	0.978	977.7	incongruent	Block2	incongruent/STIM_015.jpg	100
1422.675	1.161	1161.1	incongruent	Block2	incongruent/STIM_015.jpg	100
1427.167	1.033	1032.9	incongruent	Block2	incongruent/STIM_015.jpg	100
1430.874	0.91	909.6	incongruent	Block2	incongruent/STIM_015.jpg	100
1434.48	0.606	606.4	incongruent	Block2	incongruent/STIM_015.jpg	100
1438.356	0.848	847.9	incongruent	Block2	incongruent/STIM_016.jpg	100
1441.981	0.662	662.0	incongruent	Block2	incongruent/STIM_016.jpg	100
1444.937	0.602	601.5	incongruent	Block2	incongruent/STIM_016.jpg	100
1447.743	0.615	614.9	incongruent	Block2	incongruent/STIM_016.jpg	99
1451.668	0.48	479.6	incongruent	Block2	incongruent/STIM_016.jpg	100
1455.878	0.72	719.6	incongruent	Block2	incongruent/STIM_017.jpg	99
1460.083	0.829	829.0	incongruent	Block2	incongruent/STIM_017.jpg	100
1464.704	0.594	593.8	incongruent	Block2	incongruent/STIM_017.jpg	99
1467.946	0.851	851.0	incongruent	Block2	incongruent/STIM_017.jpg	99
1471.209	0.65	649.9	incongruent	Block2	incongruent/STIM_017.jpg	99
1475.007	0.969	968.6	incongruent	Block2	incongruent/STIM_018.jpg	99
1479.542	0.679	678.8	incongruent	Block2	incongruent/STIM_018.jpg	99
1482.536	0.805	804.9	incongruent	Block2	incongruent/STIM_018.jpg	99
1485.568	0.868	868.0	incongruent	Block2	incongruent/STIM_018.jpg	100
1490.281	0.82	820.4	incongruent	Block2	incongruent/STIM_018.jpg	100
1494.053	1.239	1239.2	incongruent	Block2	incongruent/STIM_019.jpg	100
1498.337	0.728	728.4	incongruent	Block2	incongruent/STIM_019.jpg	100
1502.667	0.929	929.1	incongruent	Block2	incongruent/STIM_019.jpg	100
1507.074	0.699	698.6	incongruent	Block2	incongruent/STIM_019.jpg	100
1511.244	0.617	616.7	incongruent	Block2	incongruent/STIM_019.jpg	100
1515.714	0.818	817.8	incongruent	Block2	incongruent/STIM_020.jpg	100
1519.182	1.115	1114.8	incongruent	Block2	incongruent/STIM_020.jpg	99
1522.812	0.93	930.0	incongruent	Block2	incongruent/STIM_020.jpg	99
1526.554	0.773	772.8	incongruent	Block2	incongruent/STIM_020.jpg	100
1530.11	0.516	515.5	incongruent	Block2	incongruent/STIM_020.jpg	100
1533.968	0.866	865.6	incongruent	Block2	incongruent/STIM_021.jpg	100
1537.319	0.989	988.8	incongruent	Block2	incongruent/STIM_021.jpg	99
1541.125	0.671	671.2	incongruent	Block2	incongruent/STIM_021.jpg	100
1544.539	0.617	617.0	incongruent	Block2	incongruent/STIM_021.jpg	100
1548.666	0.932	931.9	incongruent	Block2	incongruent/STIM_021.jpg	100
1553.112	0.776	775.6	incongruent	Block2	incongruent/STIM_022.jpg	99
1556.011	0.801	801.0	incongruent	Block2	incongruent/STIM_022.jpg	100
1560.472	0.748	747.5	incongruent	Block2	incongruent/STIM_022.jpg	100
1564.933	0.916	915.5	incongruent	Block2	incongruent/STIM_022.jpg	99
1569.81	0.762	761.6	incongruent	Block2	incongruent/STIM_022.jpg	99
1573.783	1.073	1072.6	incongruent	Block2	incongruent/STIM_023.jpg	100
1577.859	0.844	844.5	incongruent	Block2	incongruent/STIM_023.jpg	100
1582.264	0.874	874.0	incongruent	Block2	incongruent/STIM_023.jpg	99
1585.535	0.74	739.6	incongruent	Block2	incongruent/STIM_023.jpg	99
1589.251	0.782	781.6	incongruent	Block2	incongruent/STIM_023.jpg	99
1593.041	0.839	838.6	incongruent	Block2	incongruent/STIM_024.jpg	99
1596.905	0.624	623.5	incongruent	Block2	incongruent/STIM_024.jpg	100
1599.641	0.563	563.2	incongruent	Block2	incongruent/STIM_024.jpg	100
1603.761	0.833	833.1	incongruent	Block2	incongruent/STIM_024.jpg	99
1608.01	0.693	693.4	incongruent	Block2	incongruent/STIM_024.jpg	99
1612.182	0.636	636.2	incongruent	Block2	incongruent/STIM_025.jpg	100
1615.737	0.758	757.7	incongruent	Block2	incongruent/STIM_025.jpg	100
1618.85	0.526	526.5	incongruent	Block2	incongruent/STIM_025.jpg	100
1623.177	0.717	716.7	incongruent	Block2	incongruent/STIM_025.jpg	100
1626.771	0.8	799.5	incongruent	Block2	incongruent/STIM_025.jpg	99
1630.236	0.914	914.5	incongruent	Block2	incongruent/STIM_026.jpg	99
1635.154	0.797	796.9	incongruent	Block2	incongruent/STIM_026.jpg	100
1638.02	1.009	1008.8	incongruent	Block2	incongruent/STIM_026.jpg	99
1641.36	0.759	759.4	incongruent	Block2	incongruent/STIM_026.jpg	99
1645.924	0.984	984.5	incongruent	Block2	incongruent/STIM_026.jpg	100
1650.161	0.759	759.0	incongruent	Block2	incongruent/STIM_027.jpg	100
1653.586	0.829	828.9	incongruent	Block2	incongruent/STIM_027.jpg	99
1658.116	0.666	666.2	incongruent	Block2	incongruent/STIM_027.jpg	100
1662.462	0.702	701.9	incongruent	Block2	incongruent/STIM_027.jpg	99
1666.03	1.005	1004.8	incongruent	Block2	incongruent/STIM_027.jpg	99
1669.516	0.581	581.4	incongruent	Block2	incongruent/STIM_028.jpg	99
1673.11	0.57	569.9	incongruent	Block2	incongruent/STIM_028.jpg	100
1676.308	0.81	809.9	incongruent	Block2	incongruent/STIM_028.jpg	100
1680.799	0.666	666.2	incongruent	Block2	incongruent/STIM_028.jpg	100
1684.704	0.658	658.3	incongruent	Block2	incongruent/STIM_028.jpg	100
1687.608	0.698	698.4	incongruent	Block2	incongruent/STIM_029.jpg	100
1691.756	1.05	1050.0	incongruent	Block2	incongruent/STIM_029.jpg	99
1696.687	0.98	979.6	incongruent	Block2	incongruent/STIM_029.jpg	100
1700.963	0.937	937.1	incongruent	Block2	incongruent/STIM_029.jpg	99
1705.661	0.801	801.1	incongruent	Block2	incongruent/STIM_029.jpg	99
1708.798	0.692	691.9	congruent	Block2	congruent/STIM_000.jpg	99
1713.193	0.547	547.2	congruent	Block2	congruent/STIM_000.jpg	99
1716.725	0.516	515.9	congruent	Block2	congruent/STIM_000.jpg	100
1720.949	0.544	543.9	congruent	Block2	congruent/STIM_000.jpg	100
1725.447	0.666	666.3	congruent	Block2	congruent/STIM_000.jpg	99
1729.158	0.573	573.3	congruent	Block2	congruent/STIM_001.jpg	99
1733.314	0.536	536.3	congruent	Block2	congruent/STIM_001.jpg	99
1737.107	0.7	699.9	congruent	Block2	congruent/STIM_001.jpg	100
1739.9	0.785	785.1	congruent	Block2	congruent/STIM_001.jpg	99
1743.484	0.73	729.6	congruent	Block2	congruent/STIM_001.jpg	99
1746.607	0.819	819.4	congruent	Block2	congruent/STIM_002.jpg	99
1751.394	0.845	844.7	congruent	Block2	congruent/STIM_002.jpg	100
1754.688	0.702	702.1	congruent	Block2	congruent/STIM_002.jpg	100
1758.408	0.672	671.7	congruent	Block2	congruent/STIM_002.jpg	100
1761.896	0.578	577.5	congruent	Block2	congruent/STIM_002.jpg	100
1764.887	0.489	489.0	congruent	Block2	congruent/STIM_003.jpg	100
1767.635	0.635	634.7	congruent	Block2	congruent/STIM_003.jpg	100
1770.348	0.544	543.6	congruent	Block2	congruent/STIM_003.jpg	99
1774.592	0.5	500.0	congruent	Block2	congruent/STIM_003.jpg	100
1778.935	0.501	501.1	congruent	Block2	congruent/STIM_003.jpg	100
1782.613	0.807	807.4	congruent	Block2	congruent/STIM_004.jpg	100
1786.186	0.67	670.2	congruent	Block2	congruent/STIM_004.jpg	100
1789.754	0.692	691.7	congruent	Block2	congruent/STIM_004.jpg	99
1793.612	0.716	715.5	congruent	Block2	congruent/STIM_004.jpg	100
1798.182	0.797	796.9	congruent	Block2	congruent/STIM_004.jpg	99
1802.154	0.536	536.4	congruent	Block2	congruent/STIM_005.jpg	99
1806.227	0.542	542.5	congruent	Block2	congruent/STIM_005.jpg	100
1808.875	0.552	551.8	congruent	Block2	congruent/STIM_005.jpg	99
1812.134	0.698	697.5	congruent	Block2	congruent/STIM_005.jpg	99
1815.019	0.804	804.3	congruent	Block2	congruent/STIM_005.jpg	99
1818.514	0.833	832.6	congruent	Block2	congruent/STIM_006.jpg	99
1822.487	0.874	873.7	congruent	Block2	congruent/STIM_006.jpg	100
1826.692	0.816	815.8	congruent	Block2	congruent/STIM_006.jpg	100
1831.342	0.817	816.6	congruent	Block2	congruent/STIM_006.jpg	100
1835.417	0.524	523.9	congruent	Block2	congruent/STIM_006.jpg	100
1838.806	0.761	760.6	congruent	Block2	congruent/STIM_007.jpg	100
1841.81	0.577	576.6	congruent	Block2	congruent/STIM_007.jpg	100
1846.189	0.782	781.7	congruent	Block2	congruent/STIM_007.jpg	99
1849.458	0.575	575.4	congruent	Block2	congruent/STIM_007.jpg	99
1852.472	0.7	700.3	congruent	Block2	congruent/STIM_007.jpg	99
1856.451	0.637	637.0	congruent	Block2	congruent/STIM_008.jpg	100
1859.638	0.685	684.9	congruent	Block2	congruent/STIM_008.jpg	99
1863.709	0.817	817.3	congruent	Block2	congruent/STIM_008.jpg	100
1868.413	0.69	690.1	congruent	Block2	congruent/STIM_008.jpg	99
1872.361	0.779	779.1	congruent	Block2	congruent/STIM_008.jpg	100
1876.469	0.763	762.7	congruent	Block2	congruent/STIM_009.jpg	100
1880.463	0.778	778.0	congruent	Block2	congruent/STIM_009.jpg	99
1884.87	0.847	846.7	congruent	Block2	congruent/STIM_009.jpg	99
1889.491	0.654	654.5	congruent	Block2	congruent/STIM_009.jpg	100
1893.734	0.712	711.5	congruent	Block2	congruent/STIM_009.jpg	99
1897.841	0.846	845.8	congruent	Block2	congruent/STIM_010.jpg	99
1902.265	0.498	498.0	congruent	Block2	congruent/STIM_010.jpg	100
1906.665	0.582	581.8	congruent	Block2	congruent/STIM_010.jpg	100
1910.183	0.792	792.2	congruent	Block2	congruent/STIM_010.jpg	99
1913.923	0.862	862.2	congruent	Block2	congruent/STIM_010.jpg	100
1917.474	0.598	598.2	congruent	Block2	congruent/STIM_011.jpg	100
1920.777	0.587	587.0	congruent	Block2	congruent/STIM_011.jpg	99
1925.291	0.662	661.9	congruent	Block2	congruent/STIM_011.jpg	99
1929.211	0.665	665.0	congruent	Block2	congruent/STIM_011.jpg	99
1933.891	0.617	616.9	congruent	Block2	congruent/STIM_011.jpg	99
1936.646	0.709	708.9	congruent	Block2	congruent/STIM_012.jpg	99
1939.451	0.835	835.0	congruent	Block2	congruent/STIM_012.jpg	99
1942.526	0.59	589.7	congruent	Block2	congruent/STIM_012.jpg	100
1946.638	0.826	826.1	congruent	Block2	congruent/STIM_012.jpg	100
1950.353	0.867	867.3	congruent	Block2	congruent/STIM_012.jpg	99
1954.559	0.617	616.9	congruent	Block2	congruent/STIM_013.jpg	99
1959.101	0.527	527.2	congruent	Block2	congruent/STIM_013.jpg	99
1961.963	0.742	742.5	congruent	Block2	congruent/STIM_013.jpg	99
1965.591	0.521	521.4	congruent	Block2	congruent/STIM_013.jpg	99
1968.764	0.753	753.0	congruent	Block2	congruent/STIM_013.jpg	99
1973.262	0.615	614.7	congruent	Block2	congruent/STIM_014.jpg	100
1977.402	0.729	728.6	congruent	Block2	congruent/STIM_014.jpg	100
1981.793	0.764	764.0	congruent	Block2	congruent/STIM_014.jpg	99
1984.731	0.73	729.7	congruent	Block2	congruent/STIM_014.jpg	99
1988.29	0.542	541.9	congruent	Block2	congruent/STIM_014.jpg	99
1990.987	0.561	561.2	congruent	Block2	congruent/STIM_015.jpg	99
1994.851	0.663	662.9	congruent	Block2	congruent/STIM_015.jpg	100
1997.794	0.573	573.2	congruent	Block2	congruent/STIM_015.jpg	100
2000.595	0.575	574.8	congruent	Block2	congruent/STIM_015.jpg	99
2004.377	0.677	677.4	congruent	Block2	congruent/STIM_015.jpg	99
2007.517	0.72	719.5	congruent	Block2	congruent/STIM_016.jpg	100
2010.731	0.626	626.0	congruent	Block2	congruent/STIM_016.jpg	99
2013.846	0.757	756.7	congruent	Block2	congruent/STIM_016.jpg	99
2018.311	0.692	692.1	congruent	Block2	congruent/STIM_016.jpg	99
2022.625	0.652	651.6	congruent	Block2	congruent/STIM_016.jpg	99
2025.807	0.633	633.1	congruent	Block2	congruent/STIM_017.jpg	99
2029.336	0.53	529.7	congruent	Block2	congruent/STIM_017.jpg	100
2032.289	0.603	603.0	congruent	Block2	congruent/STIM_017.jpg	100
2035.885	0.584	584.0	congruent	Block2	congruent/STIM_017.jpg	100
2040.172	0.785	785.0	congruent	Block2	congruent/STIM_017.jpg	99
2044.82	0.826	826.4	congruent	Block2	congruent/STIM_018.jpg	99
2049.527	0.601	600.6	congruent	Block2	congruent/STIM_018.jpg	100
2053.805	0.529	529.3	congruent	Block2	congruent/STIM_018.jpg	99
2057.064	0.832	832.0	congruent	Block2	congruent/STIM_018.jpg	100
2061.848	0.587	586.9	congruent	Block2	congruent/STIM_018.jpg	100
2065.492	0.583	582.6	congruent	Block2	congruent/STIM_019.jpg	100
2069.048	0.868	868.4	congruent	Block2	congruent/STIM_019.jpg	99
2072.394	0.768	767.9	congruent	Block2	congruent/STIM_019.jpg	100
2076.584	0.555	555.3	congruent	Block2	congruent/STIM_019.jpg	100
2079.191	0.741	741.3	congruent	Block2	congruent/STIM_019.jpg	99
2082.918	0.551	551.4	congruent	Block2	congruent/STIM_020.jpg	100
2086.017	0.624	624.1	congruent	Block2	congruent/STIM_020.jpg	99
2089.442	0.754	753.9	congruent	Block2	congruent/STIM_020.jpg	100
2092.515	0.563	563.3	congruent	Block2	congruent/STIM_020.jpg	100
2096.469	0.689	688.9	congruent	Block2	congruent/STIM_020.jpg	100
2099.535	0.646	646.1	congruent	Block2	congruent/STIM_021.jpg	99
2102.495	0.724	724.0	congruent	Block2	congruent/STIM_021.jpg	99
2105.936	0.671	671.3	congruent	Block2	congruent/STIM_021.jpg	99
2109.808	0.516	515.6	congruent	Block2	congruent/STIM_021.jpg	100
2112.727	0.677	676.7	congruent	Block2	congruent/STIM_021.jpg	100
2115.986	0.804	803.9	congruent	Block2	congruent/STIM_022.jpg	99
2120.616	0.864	864.1	congruent	Block2	congruent/STIM_022.jpg	99
2124.721	0.794	794.5	congruent	Block2	congruent/STIM_022.jpg	99
2128.662	0.636	636.1	congruent	Block2	congruent/STIM_022.jpg	100
2132.58	0.785	785.1	congruent	Block2	congruent/STIM_022.jpg	100
2135.698	0.78	780.0	congruent	Block2	congruent/STIM_023.jpg	99
2140.205	0.58	579.7	congruent	Block2	congruent/STIM_023.jpg	100
2143.539	0.52	519.6	congruent	Block2	congruent/STIM_023.jpg	99
2146.245	0.501	500.7	congruent	Block2	congruent/STIM_023.jpg	99
2150.104	0.728	727.7	congruent	Block2	congruent/STIM_023.jpg	100
2153.796	0.614	614.5	congruent	Block2	congruent/STIM_024.jpg	99
2156.542	0.56	559.8	congruent	Block2	congruent/STIM_024.jpg	100
2159.223	0.815	815.3	congruent	Block2	congruent/STIM_024.jpg	100
2162.317	0.754	753.9	congruent	Block2	congruent/STIM_024.jpg	99
2165.352	0.837	836.7	congruent	Block2	congruent/STIM_024.jpg	99
2169.787	0.813	812.9	congruent	Block2	congruent/STIM_025.jpg	99
2173.221	0.52	520.3	congruent	Block2	congruent/STIM_025.jpg	100
2177.513	0.738	738.0	congruent	Block2	congruent/STIM_025.jpg	100
2180.673	0.835	835.2	congruent	Block2	congruent/STIM_025.jpg	100
2185.059	0.822	821.6	congruent	Block2	congruent/STIM_025.jpg	99
2189.127	0.605	604.6	congruent	Block2	congruent/STIM_026.jpg	99
2193.722	0.843	842.7	congruent	Block2	congruent/STIM_026.jpg	99
2197.22	0.689	689.3	congruent	Block2	congruent/STIM_026.jpg	100
2201.058	0.812	811.5	congruent	Block2	congruent/STIM_026.jpg	100
2204.627	0.8	799.6	congruent	Block2	congruent/STIM_026.jpg	100
2208.796	0.492	492.0	congruent	Block2	congruent/STIM_027.jpg	100
2212.418	0.864	863.9	congruent	Block2	congruent/STIM_027.jpg	99
2216.776	0.756	755.6	congruent	Block2	congruent/STIM_027.jpg	100
2220.786	0.535	534.6	congruent	Block2	congruent/STIM_027.jpg	100
2223.672	0.867	867.0	congruent	Block2	congruent/STIM_027.jpg	100
2228.441	0.841	841.4	congruent	Block2	congruent/STIM_028.jpg	100
2232.911	0.716	716.5	congruent	Block2	congruent/STIM_028.jpg	99
2236.193	0.699	698.6	congruent	Block2	congruent/STIM_028.jpg	99
2239.747	0.758	757.6	congruent	Block2	congruent/STIM_028.jpg	100
2243.437	0.716	716.3	congruent	Block2	congruent/STIM_028.jpg	100
2247.252	0.652	651.9	congruent	Block2	congruent/STIM_029.jpg	99
2251.115	0.878	878.5	congruent	Block2	congruent/STIM_029.jpg	99
2255.652	0.511	511.4	congruent	Block2	congruent/STIM_029.jpg	100
2260.127	0.803	802.6	congruent	Block2	congruent/STIM_029.jpg	100
2264.841	0.634	634.4	congruent	Block2	congruent/STIM_029.jpg	99
2268.833	0.909	909.2	incongruent	Block3	incongruent/STIM_000.jpg	99
2272.436	1.005	1004.6	incongruent	Block3	incongruent/STIM_000.jpg	99
2276.829	0.535	535.2	incongruent	Block3	incongruent/STIM_000.jpg	100
2279.877	0.876	875.5	incongruent	Block3	incongruent/STIM_000.jpg	100
2283.359	0.65	650.2	incongruent	Block3	incongruent/STIM_000.jpg	100
2286.105	0.775	774.9	incongruent	Block3	incongruent/STIM_001.jpg	100
2290.394	0.71	710.1	incongruent	Block3	incongruent/STIM_001.jpg	99
2294.88	1.018	1017.8	incongruent	Block3	incongruent/STIM_001.jpg	99
2299.776	0.505	504.8	incongruent	Block3	incongruent/STIM_001.jpg	99
2303.411	0.826	826.3	incongruent	Block3	incongruent/STIM_001.jpg	99
2307.574	0.857	856.9	incongruent	Block3	incongruent/STIM_002.jpg	99
2312.344	0.654	653.5	incongruent	Block3	incongruent/STIM_002.jpg	99
2316.298	0.611	611.1	incongruent	Block3	incongruent/STIM_002.jpg	100
2320.506	0.494	493.9	incongruent	Block3	incongruent/STIM_002.jpg	100
2323.848	0.934	934.4	incongruent	Block3	incongruent/STIM_002.jpg	100
2327.271	0.798	797.7	incongruent	Block3	incongruent/STIM_003.jpg	99
2331.579	0.683	682.6	incongruent	Block3	incongruent/STIM_003.jpg	99
2336.159	0.895	895.0	incongruent	Block3	incongruent/STIM_003.jpg	100
2340.885	0.893	892.6	incongruent	Block3	incongruent/STIM_003.jpg	99
2344.292	0.507	506.9	incongruent	Block3	incongruent/STIM_003.jpg	100
2347.905	0.513	513.4	incongruent	Block3	incongruent/STIM_004.jpg	99
2350.984	0.88	880.4	incongruent	Block3	incongruent/STIM_004.jpg	99
2354.619	0.87	869.7	incongruent	Block3	incongruent/STIM_004.jpg	99
2357.649	0.661	661.3	incongruent	Block3	incongruent/STIM_004.jpg	99
2361.649	0.622	621.8	incongruent	Block3	incongruent/STIM_004.jpg	99
2364.786	0.726	726.0	incongruent	Block3	incongruent/STIM_005.jpg	99
2369.09	0.751	750.6	incongruent	Block3	incongruent/STIM_005.jpg	100
2373.595	0.869	869.1	incongruent	Block3	incongruent/STIM_005.jpg	100
2377.354	0.978	978.0	incongruent	Block3	incongruent/STIM_005.jpg	100
2381.929	0.986	985.7	incongruent	Block3	incongruent/STIM_005.jpg	100
2385.652	0.583	583.2	incongruent	Block3	incongruent/STIM_006.jpg	99
2389.957	0.488	487.7	incongruent	Block3	incongruent/STIM_006.jpg	100
2394.359	0.573	573.1	incongruent	Block3	incongruent/STIM_006.jpg	99
2397.079	0.551	550.7	incongruent	Block3	incongruent/STIM_006.jpg	100
2400.509	0.867	867.1	incongruent	Block3	incongruent/STIM_006.jpg	99
2404.786	0.921	921.4	incongruent	Block3	incongruent/STIM_007.jpg	100
2409.545	0.77	770.4	incongruent	Block3	incongruent/STIM_007.jpg	99
2412.984	0.63	630.0	incongruent	Block3	incongruent/STIM_007.jpg	99
2417.322	0.912	912.3	incongruent	Block3	incongruent/STIM_007.jpg	100
2420.903	0.593	593.2	incongruent	Block3	incongruent/STIM_007.jpg	100
2423.791	0.952	951.7	incongruent	Block3	incongruent/STIM_008.jpg	100
2426.953	0.651	650.8	incongruent	Block3	incongruent/STIM_008.jpg	100
2430.024	0.693	693.1	incongruent	Block3	incongruent/STIM_008.jpg	100
2433.853	0.669	668.9	incongruent	Block3	incongruent/STIM_008.jpg	99
2437.682	0.875	874.6	incongruent	Block3	incongruent/STIM_008.jpg	99
2440.622	1.009	1009.4	incongruent	Block3	incongruent/STIM_009.jpg	99
2444.649	0.877	876.9	incongruent	Block3	incongruent/STIM_009.jpg	99
2448.849	0.494	493.5	incongruent	Block3	incongruent/STIM_009.jpg	99
2451.396	0.937	937.4	incongruent	Block3	incongruent/STIM_009.jpg	100
2455.657	0.48	480.1	incongruent	Block3	incongruent/STIM_009.jpg	100
2458.506	0.731	730.7	incongruent	Block3	incongruent/STIM_010.jpg	100
2462.954	0.75	750.4	incongruent	Block3	incongruent/STIM_010.jpg	99
2466.78	1.016	1016.1	incongruent	Block3	incongruent/STIM_010.jpg	99
2471.541	0.969	969.4	incongruent	Block3	incongruent/STIM_010.jpg	100
2475.019	1.006	1005.8	incongruent	Block3	incongruent/STIM_010.jpg	99
2478.585	0.666	666.0	incongruent	Block3	incongruent/STIM_011.jpg	100
2482.888	0.777	777.0	incongruent	Block3	incongruent/STIM_011.jpg	100
2486.543	0.899	898.7	incongruent	Block3	incongruent/STIM_011.jpg	100
2490.527	0.512	512.0	incongruent	Block3	incongruent/STIM_011.jpg	99
2493.134	0.766	766.2	incongruent	Block3	incongruent/STIM_011.jpg	99
2497.293	0.748	747.8	incongruent	Block3	incongruent/STIM_012.jpg	100
2500.772	0.718	717.8	incongruent	Block3	incongruent/STIM_012.jpg	99
2505.139	0.772	771.7	incongruent	Block3	incongruent/STIM_012.jpg	99
2509.007	1.007	1006.7	incongruent	Block3	incongruent/STIM_012.jpg	100
2513.167	0.666	666.2	incongruent	Block3	incongruent/STIM_012.jpg	99
2515.933	0.806	806.3	incongruent	Block3	incongruent/STIM_013.jpg	100
2520.039	0.838	837.9	incongruent	Block3	incongruent/STIM_013.jpg	100
2523.387	0.803	803.4	incongruent	Block3	incongruent/STIM_013.jpg	99
2527.011	0.545	545.1	incongruent	Block3	incongruent/STIM_013.jpg	100
2530.374	0.544	543.6	incongruent	Block3	incongruent/STIM_013.jpg	100
2534.737	0.858	858.2	incongruent	Block3	incongruent/STIM_014.jpg	100
2538.221	1.022	1021.8	incongruent	Block3	incongruent/STIM_014.jpg	99
2541.461	0.76	759.7	incongruent	Block3	incongruent/STIM_014.jpg	100
2545.116	0.651	650.8	incongruent	Block3	incongruent/STIM_014.jpg	99
2548.751	0.669	669.1	incongruent	Block3	incongruent/STIM_014.jpg	100
2552.037	0.778	777.8	incongruent	Block3	incongruent/STIM_015.jpg	100
2556.456	0.714	713.8	incongruent	Block3	incongruent/STIM_015.jpg	100
2559.517	0.845	844.6	incongruent	Block3	incongruent/STIM_015.jpg	99
2564.238	0.724	723.6	incongruent	Block3	incongruent/STIM_015.jpg	100
2567.257	0.661	661.1	incongruent	Block3	incongruent/STIM_015.jpg	99
2570.704	0.581	581.1	incongruent	Block3	incongruent/STIM_016.jpg	99
2574.864	0.536	536.3	incongruent	Block3	incongruent/STIM_016.jpg	99
2579.305	0.913	913.0	incongruent	Block3	incongruent/STIM_016.jpg	100
2583.834	0.97	970.2	incongruent	Block3	incongruent/STIM_016.jpg	100
2588.071	0.628	628.3	incongruent	Block3	incongruent/STIM_016.jpg	100
2592.681	0.785	785.2	incongruent	Block3	incongruent/STIM_017.jpg	100
2597.296	0.581	580.8	incongruent	Block3	incongruent/STIM_017.jpg	99
2599.925	0.706	706.0	incongruent	Block3	incongruent/STIM_017.jpg	99
2603.276	0.772	771.9	incongruent	Block3	incongruent/STIM_017.jpg	100
2607.456	0.705	705.4	incongruent	Block3	incongruent/STIM_017.jpg	99
2611.996	0.984	984.4	incongruent	Block3	incongruent/STIM_018.jpg	100
2615.647	0.756	755.7	incongruent	Block3	incongruent/STIM_018.jpg	99
2620.082	0.999	999.4	incongruent	Block3	incongruent/STIM_018.jpg	99
2625.018	0.967	967.0	incongruent	Block3	incongruent/STIM_018.jpg	99
2628.928	0.647	646.9	incongruent	Block3	incongruent/STIM_018.jpg	99
2632.754	0.943	942.6	incongruent	Block3	incongruent/STIM_019.jpg	99
2636.762	0.634	633.8	incongruent	Block3	incongruent/STIM_019.jpg	100
2640.746	0.618	618.5	incongruent	Block3	incongruent/STIM_019.jpg	100
2643.608	1.002	1002.1	incongruent	Block3	incongruent/STIM_019.jpg	99
2646.777	0.843	843.3	incongruent	Block3	incongruent/STIM_019.jpg	99
2651.441	0.574	574.5	incongruent	Block3	incongruent/STIM_020.jpg	99
2655.023	0.926	925.9	incongruent	Block3	incongruent/STIM_020.jpg	100
2659.789	0.832	831.6	incongruent	Block3	incongruent/STIM_020.jpg	99
2664.452	0.726	725.9	incongruent	Block3	incongruent/STIM_020.jpg	100
2667.296	0.516	515.8	incongruent	Block3	incongruent/STIM_020.jpg	100
2670.574	0.71	710.5	incongruent	Block3	incongruent/STIM_021.jpg	100
2673.778	0.604	604.2	incongruent	Block3	incongruent/STIM_021.jpg	99
2677.205	1.022	1021.9	incongruent	Block3	incongruent/STIM_021.jpg	99
2680.974	0.863	862.9	incongruent	Block3	incongruent/STIM_021.jpg	99
2685.382	0.552	551.9	incongruent	Block3	incongruent/STIM_021.jpg	100
2688.243	0.898	897.7	incongruent	Block3	incongruent/STIM_022.jpg	99
2692.915	1.009	1009.4	incongruent	Block3	incongruent/STIM_022.jpg	100
2697.256	0.835	834.7	incongruent	Block3	incongruent/STIM_022.jpg	99
2701.031	0.887	886.7	incongruent	Block3	incongruent/STIM_022.jpg	100
2705.713	0.738	738.2	incongruent	Block3	incongruent/STIM_022.jpg	100
2709.104	0.652	651.9	incongruent	Block3	incongruent/STIM_023.jpg	99
2713.316	0.503	502.6	incongruent	Block3	incongruent/STIM_023.jpg	99
2717.574	0.991	991.0	incongruent	Block3	incongruent/STIM_023.jpg	99
2722.576	0.895	894.7	incongruent	Block3	incongruent/STIM_023.jpg	99
2725.687	0.711	711.0	incongruent	Block3	incongruent/STIM_023.jpg	100
2729.014	0.736	736.5	incongruent	Block3	incongruent/STIM_024.jpg	99
2733.08	1.015	1014.7	incongruent	Block3	incongruent/STIM_024.jpg	100
2736.868	0.532	532.0	incongruent	Block3	incongruent/STIM_024.jpg	99
2740.013	0.956	955.7	incongruent	Block3	incongruent/STIM_024.jpg	99
2744.922	0.495	495.0	incongruent	Block3	incongruent/STIM_024.jpg	100
2749.153	0.886	885.6	incongruent	Block3	incongruent/STIM_025.jpg	100
2753.496	0.51	510.1	incongruent	Block3	incongruent/STIM_025.jpg	99
2756.208	0.871	870.9	incongruent	Block3	incongruent/STIM_025.jpg	99
2759.746	0.7	700.3	incongruent	Block3	incongruent/STIM_025.jpg	100
2763.913	0.485	485.1	incongruent	Block3	incongruent/STIM_025.jpg	99
2767.546	0.504	504.1	incongruent	Block3	incongruent/STIM_026.jpg	99
2771.323	0.952	952.1	incongruent	Block3	incongruent/STIM_026.jpg	100
2774.964	0.79	790.3	incongruent	Block3	incongruent/STIM_026.jpg	100
2779.554	0.513	513.4	incongruent	Block3	incongruent/STIM_026.jpg	100
2783.523	0.716	716.1	incongruent	Block3	incongruent/STIM_026.jpg	99
2788.004	0.571	570.9	incongruent	Block3	incongruent/STIM_027.jpg	100
2791.834	0.758	757.9	incongruent	Block3	incongruent/STIM_027.jpg	99
2795.969	0.968	967.5	incongruent	Block3	incongruent/STIM_027.jpg	100
2799.245	0.853	853.2	incongruent	Block3	incongruent/STIM_027.jpg	99
2802.958	0.508	508.3	incongruent	Block3	incongruent/STIM_027.jpg	100
2805.55	0.629	628.7	incongruent	Block3	incongruent/STIM_028.jpg	99
2809.249	0.514	514.3	incongruent	Block3	incongruent/STIM_028.jpg	99
2811.971	0.734	733.9	incongruent	Block3	incongruent/STIM_028.jpg	99
2816.547	0.99	989.7	incongruent	Block3	incongruent/STIM_028.jpg	99
2821.43	0.614	614.5	incongruent	Block3	incongruent/STIM_028.jpg	99
2825.217	0.869	869.3	incongruent	Block3	incongruent/STIM_029.jpg	99
2829.238	0.881	881.3	incongruent	Block3	incongruent/STIM_029.jpg	99
2833.778	0.701	700.9	incongruent	Block3	incongruent/STIM_029.jpg	100
2838.222	0.565	565.1	incongruent	Block3	incongruent/STIM_029.jpg	100
2841.518	0.502	502.1	incongruent	Block3	incongruent/STIM_029.jpg	100
2845.511	0.654	654.5	congruent	Block3	congruent/STIM_000.jpg	99
2849.745	0.818	818.1	congruent	Block3	congruent/STIM_000.jpg	100
2853.443	0.699	698.8	congruent	Block3	congruent/STIM_000.jpg	99
2857.59	0.522	521.8	congruent	Block3	congruent/STIM_000.jpg	100
2861.258	0.532	531.9	congruent	Block3	congruent/STIM_000.jpg	99
2865.707	0.597	597.2	congruent	Block3	congruent/STIM_001.jpg	100
2869.63	0.86	860.0	congruent	Block3	congruent/STIM_001.jpg	100
2874.193	0.655	655.1	congruent	Block3	congruent/STIM_001.jpg	100
2877.476	0.764	764.2	congruent	Block3	congruent/STIM_001.jpg	100
2881.055	0.696	696.2	congruent	Block3	congruent/STIM_001.jpg	99
2884.446	0.552	552.5	congruent	Block3	congruent/STIM_002.jpg	99
2887.266	0.632	632.3	congruent	Block3	congruent/STIM_002.jpg	99
2891.383	0.696	696.3	congruent	Block3	congruent/STIM_002.jpg	99
2895.745	0.821	821.0	congruent	Block3	congruent/STIM_002.jpg	100
2898.815	0.623	622.6	congruent	Block3	congruent/STIM_002.jpg	100
2902.779	0.512	512.4	congruent	Block3	congruent/STIM_003.jpg	99
2905.648	0.706	705.9	congruent	Block3	congruent/STIM_003.jpg	100
2908.902	0.827	827.4	congruent	Block3	congruent/STIM_003.jpg	99
2911.862	0.549	548.7	congruent	Block3	congruent/STIM_003.jpg	100
2915.742	0.8	799.5	congruent	Block3	congruent/STIM_003.jpg	99
2919.383	0.842	841.7	congruent	Block3	congruent/STIM_004.jpg	99
2924.137	0.774	774.0	congruent	Block3	congruent/STIM_004.jpg	99
2928.154	0.705	705.0	congruent	Block3	congruent/STIM_004.jpg	100
2932.011	0.873	873.3	congruent	Block3	congruent/STIM_004.jpg	99
2936.297	0.597	597.1	congruent	Block3	congruent/STIM_004.jpg	99
2940.158	0.544	544.4	congruent	Block3	congruent/STIM_005.jpg	99
2944.417	0.597	596.8	congruent	Block3	congruent/STIM_005.jpg	100
2948.918	0.671	671.3	congruent	Block3	congruent/STIM_005.jpg	100
2952.268	0.625	625.1	congruent	Block3	congruent/STIM_005.jpg	100
2955.582	0.552	552.4	congruent	Block3	congruent/STIM_005.jpg	99
2959.058	0.492	492.3	congruent	Block3	congruent/STIM_006.jpg	100
2962.004	0.855	855.2	congruent	Block3	congruent/STIM_006.jpg	99
2965.253	0.846	845.8	congruent	Block3	congruent/STIM_006.jpg	99
2969.471	0.641	640.6	congruent	Block3	congruent/STIM_006.jpg	99
2973.848	0.64	639.9	congruent	Block3	congruent/STIM_006.jpg	100
2976.894	0.586	586.5	congruent	Block3	congruent/STIM_007.jpg	100
2980.64	0.796	796.3	congruent	Block3	congruent/STIM_007.jpg	100
2984.845	0.818	817.8	congruent	Block3	congruent/STIM_007.jpg	99
2987.967	0.538	537.8	congruent	Block3	congruent/STIM_007.jpg	99
2992.08	0.628	628.5	congruent	Block3	congruent/STIM_007.jpg	99
2996.495	0.709	709.4	congruent	Block3	congruent/STIM_008.jpg	99
2999.385	0.684	683.9	congruent	Block3	congruent/STIM_008.jpg	99
3003.332	0.566	566.4	congruent	Block3	congruent/STIM_008.jpg	99
3007.578	0.782	782.5	congruent	Block3	congruent/STIM_008.jpg	100
3011.501	0.766	765.5	congruent	Block3	congruent/STIM_008.jpg	99
3015.537	0.689	689.2	congruent	Block3	congruent/STIM_009.jpg	100
3019.534	0.87	869.6	congruent	Block3	congruent/STIM_009.jpg	100
3022.665	0.709	708.6	congruent	Block3	congruent/STIM_009.jpg	100
3026.73	0.604	603.8	congruent	Block3	congruent/STIM_009.jpg	100
3029.848	0.728	728.3	congruent	Block3	congruent/STIM_009.jpg	99
3033.0	0.642	642.0	congruent	Block3	congruent/STIM_010.jpg	100
3037.158	0.742	741.9	congruent	Block3	congruent/STIM_010.jpg	100
3040.798	0.79	790.3	congruent	Block3	congruent/STIM_010.jpg	99
3044.452	0.696	696.0	congruent	Block3	congruent/STIM_010.jpg	99
3048.944	0.522	521.9	congruent	Block3	congruent/STIM_010.jpg	100
3051.544	0.766	766.3	congruent	Block3	congruent/STIM_011.jpg	99
3056.021	0.833	833.3	congruent	Block3	congruent/STIM_011.jpg	100
3060.348	0.698	697.8	congruent	Block3	congruent/STIM_011.jpg	99
3064.586	0.835	835.4	congruent	Block3	congruent/STIM_011.jpg	100
3069.277	0.557	556.6	congruent	Block3	congruent/STIM_011.jpg	99
3072.694	0.65	649.6	congruent	Block3	congruent/STIM_012.jpg	99
3075.865	0.531	531.3	congruent	Block3	congruent/STIM_012.jpg	99
3080.02	0.822	822.5	congruent	Block3	congruent/STIM_012.jpg	99
3084.223	0.706	705.7	congruent	Block3	congruent/STIM_012.jpg	100
3088.003	0.619	619.3	congruent	Block3	congruent/STIM_012.jpg	99
3091.617	0.565	564.7	congruent	Block3	congruent/STIM_013.jpg	99
3094.98	0.616	616.5	congruent	Block3	congruent/STIM_013.jpg	100
3097.907	0.748	747.7	congruent	Block3	congruent/STIM_013.jpg	100
3100.694	0.805	804.6	congruent	Block3	congruent/STIM_013.jpg	100
3103.57	0.692	692.2	congruent	Block3	congruent/STIM_013.jpg	99
3106.284	0.783	783.4	congruent	Block3	congruent/STIM_014.jpg	99
3109.297	0.489	489.2	congruent	Block3	congruent/STIM_014.jpg	99
3113.337	0.86	860.1	congruent	Block3	congruent/STIM_014.jpg	100
3117.807	0.776	775.5	congruent	Block3	congruent/STIM_014.jpg	99
3121.599	0.776	776.2	congruent	Block3	congruent/STIM_014.jpg	100
3125.248	0.524	524.5	congruent	Block3	congruent/STIM_015.jpg	99
3129.486	0.646	646.2	congruent	Block3	congruent/STIM_015.jpg	99
3133.275	0.873	872.6	congruent	Block3	congruent/STIM_015.jpg	99
3137.039	0.5	499.6	congruent	Block3	congruent/STIM_015.jpg	100
3141.517	0.56	560.0	congruent	Block3	congruent/STIM_015.jpg	100
3144.527	0.617	616.7	congruent	Block3	congruent/STIM_016.jpg	100
3147.594	0.758	757.7	congruent	Block3	congruent/STIM_016.jpg	99
3152.135	0.581	581.3	congruent	Block3	congruent/STIM_016.jpg	99
3155.87	0.534	534.1	congruent	Block3	congruent/STIM_016.jpg	99
3160.291	0.776	776.0	congruent	Block3	congruent/STIM_016.jpg	100
3163.506	0.535	534.8	congruent	Block3	congruent/STIM_017.jpg	99
3167.428	0.641	640.6	congruent	Block3	congruent/STIM_017.jpg	99
3171.054	0.847	846.9	congruent	Block3	congruent/STIM_017.jpg	99
3175.017	0.651	651.4	congruent	Block3	congruent/STIM_017.jpg	99
3178.853	0.853	852.6	congruent	Block3	congruent/STIM_017.jpg	100
3182.653	0.637	636.9	congruent	Block3	congruent/STIM_018.jpg	100
3185.79	0.662	661.5	congruent	Block3	congruent/STIM_018.jpg	100
3189.728	0.772	771.7	congruent	Block3	congruent/STIM_018.jpg	99
3193.668	0.756	756.4	congruent	Block3	congruent/STIM_018.jpg	99
3196.651	0.674	673.7	congruent	Block3	congruent/STIM_018.jpg	100
3201.186	0.569	568.7	congruent	Block3	congruent/STIM_019.jpg	99
3205.633	0.569	568.8	congruent	Block3	congruent/STIM_019.jpg	99
3209.377	0.638	638.0	congruent	Block3	congruent/STIM_019.jpg	99
3212.815	0.561	560.6	congruent	Block3	congruent/STIM_019.jpg	99
3217.365	0.617	616.6	congruent	Block3	congruent/STIM_019.jpg	99
3221.994	0.639	638.6	congruent	Block3	congruent/STIM_020.jpg	100
3225.272	0.733	733.0	congruent	Block3	congruent/STIM_020.jpg	99
3228.481	0.574	573.7	congruent	Block3	congruent/STIM_020.jpg	99
3232.842	0.73	730.4	congruent	Block3	congruent/STIM_020.jpg	100
3237.219	0.85	849.7	congruent	Block3	congruent/STIM_020.jpg	100
3240.6	0.49	490.0	congruent	Block3	congruent/STIM_021.jpg	100
3244.514	0.773	772.7	congruent	Block3	congruent/STIM_021.jpg	99
3248.511	0.844	844.1	congruent	Block3	congruent/STIM_021.jpg	99
3251.625	0.843	843.4	congruent	Block3	congruent/STIM_021.jpg	100
3255.471	0.728	728.4	congruent	Block3	congruent/STIM_021.jpg	100
3259.583	0.608	607.8	congruent	Block3	congruent/STIM_022.jpg	99
3262.489	0.583	582.8	congruent	Block3	congruent/STIM_022.jpg	99
3266.554	0.838	838.2	congruent	Block3	congruent/STIM_022.jpg	99
3270.394	0.501	501.4	congruent	Block3	congruent/STIM_022.jpg	99
3274.426	0.827	826.7	congruent	Block3	congruent/STIM_022.jpg	100
3277.514	0.569	569.2	congruent	Block3	congruent/STIM_023.jpg	100
3281.694	0.826	825.5	congruent	Block3	congruent/STIM_023.jpg	99
3285.892	0.582	582.5	congruent	Block3	congruent/STIM_023.jpg	99
3290.193	0.515	515.0	congruent	Block3	congruent/STIM_023.jpg	99
3292.927	0.601	601.4	congruent	Block3	congruent/STIM_023.jpg	100
3295.664	0.706	706.3	congruent	Block3	congruent/STIM_024.jpg	99
3298.807	0.758	757.6	congruent	Block3	congruent/STIM_024.jpg	99
3303.555	0.78	780.4	congruent	Block3	congruent/STIM_024.jpg	100
3306.396	0.822	821.8	congruent	Block3	congruent/STIM_024.jpg	100
3310.555	0.745	744.7	congruent	Block3	congruent/STIM_024.jpg	100
3315.185	0.795	795.0	congruent	Block3	congruent/STIM_025.jpg	100
3319.78	0.654	653.5	congruent	Block3	congruent/STIM_025.jpg	100
3323.849	0.537	536.6	congruent	Block3	congruent/STIM_025.jpg	100
3327.39	0.807	807.0	congruent	Block3	congruent/STIM_025.jpg	100
3330.99	0.689	689.3	congruent	Block3	congruent/STIM_025.jpg	100
3334.101	0.702	701.6	congruent	Block3	congruent/STIM_026.jpg	100
3338.252	0.639	638.9	congruent	Block3	congruent/STIM_026.jpg	100
3342.402	0.53	530.5	congruent	Block3	congruent/STIM_026.jpg	100
3345.032	0.729	729.1	congruent	Block3	congruent/STIM_026.jpg	99
3347.976	0.688	688.0	congruent	Block3	congruent/STIM_026.jpg	100
3351.855	0.6	599.9	congruent	Block3	congruent/STIM_027.jpg	99
3355.609	0.766	765.9	congruent	Block3	congruent/STIM_027.jpg	99
3359.369	0.623	622.7	congruent	Block3	congruent/STIM_027.jpg	99
3364.001	0.666	666.3	congruent	Block3	congruent/STIM_027.jpg	100
3367.624	0.713	713.3	congruent	Block3	congruent/STIM_027.jpg	100
3371.662	0.866	865.6	congruent	Block3	congruent/STIM_028.jpg	99
3375.929	0.61	610.0	congruent	Block3	congruent/STIM_028.jpg	99
3379.308	0.648	648.1	congruent	Block3	congruent/STIM_028.jpg	99
3382.114	0.588	588.1	congruent	Block3	congruent/STIM_028.jpg	100
3385.132	0.491	491.2	congruent	Block3	congruent/STIM_028.jpg	100
3388.592	0.819	818.6	congruent	Block3	congruent/STIM_029.jpg	99
3392.95	0.498	498.5	congruent	Block3	congruent/STIM_029.jpg	99
3396.986	0.574	574.5	congruent	Block3	congruent/STIM_029.jpg	99
3399.804	0.494	494.5	congruent	Block3	congruent/STIM_029.jpg	100
3402.872	0.708	708.2	congruent	Block3	congruent/STIM_029.jpg	100
