onset	duration	response_time_ms	trial_type	learning_stage	stimulus	response_port
0.0	0.962	962.4	incongruent	Block1	incongruent/STIM_000.jpg	100
3.093	0.81	810.3	incongruent	Block1	incongruent/STIM_000.jpg	100
7.66	0.837	837.2	incongruent	Block1	incongruent/STIM_000.jpg	99
12.17	1.014	1013.8	incongruent	Block1	incongruent/STIM_000.jpg	100
16.613	0.661	661.0	incongruent	Block1	incongruent/STIM_000.jpg	100
19.72	1.082	1082.2	incongruent	Block1	incongruent/STIM_001.jpg	99
24.696	0.796	796.0	incongruent	Block1	incongruent/STIM_001.jpg	99
28.242	0.999	999.0	incongruent	Block1	incongruent/STIM_001.jpg	99
31.38	1.028	1027.8	incongruent	Block1	incongruent/STIM_001.jpg	99
36.25	1.07	1069.5	incongruent	Block1	incongruent/STIM_001.jpg	100
40.035	1.278	1278.3	incongruent	Block1	incongruent/STIM_002.jpg	99
44.905	0.919	918.9	incongruent	Block1	incongruent/STIM_002.jpg	100
49.159	0.643	643.2	incongruent	Block1	incongruent/STIM_002.jpg	99
53.443	0.864	864.3	incongruent	Block1	incongruent/STIM_002.jpg	100
57.623	0.545	544.7	incongruent	Block1	incongruent/STIM_002.jpg	100
60.892	1.064	1063.5	incongruent	Block1	incongruent/STIM_003.jpg	100
64.331	0.822	822.4	incongruent	Block1	incongruent/STIM_003.jpg	99
67.562	0.66	660.1	incongruent	Block1	incongruent/STIM_003.jpg	99
71.93	0.848	847.6	incongruent	Block1	incongruent/STIM_003.jpg	100
76.444	0.733	732.9	incongruent	Block1	incongruent/STIM_003.jpg	100
79.516	1.043	1043.0	incongruent	Block1	incongruent/STIM_004.jpg	99
83.906	0.71	710.1	incongruent	Block1	incongruent/STIM_004.jpg	100
88.123	0.858	858.3	incongruent	Block1	incongruent/STIM_004.jpg	99
92.109	0.533	533.3	incongruent	Block1	incongruent/STIM_004.jpg	99
94.866	0.827	827.0	incongruent	Block1	incongruent/STIM_004.jpg	100
97.779	1.045	1045.3	incongruent	Block1	incongruent/STIM_005.jpg	100
101.309	0.853	853.0	incongruent	Block1	incongruent/STIM_005.jpg	99
105.523	0.658	658.0	incongruent	Block1	incongruent/STIM_005.jpg	99
108.287	1.008	1008.1	incongruent	Block1	incongruent/STIM_005.jpg	100
112.835	0.93	930.5	incongruent	Block1	incongruent/STIM_005.jpg	100
117.515	0.675	675.1	incongruent	Block1	incongruent/STIM_006.jpg	99
120.432	0.735	734.7	incongruent	Block1	incongruent/STIM_006.jpg	99
124.291	0.755	754.8	incongruent	Block1	incongruent/STIM_006.jpg	100
127.964	0.795	794.6	incongruent	Block1	incongruent/STIM_006.jpg	99
132.711	0.643	642.6	incongruent	Block1	incongruent/STIM_006.jpg	99
136.58	1.129	1129.4	incongruent	Block1	incongruent/STIM_007.jpg	99
141.274	0.864	863.8	incongruent	Block1	incongruent/STIM_007.jpg	100
144.154	0.868	868.2	incongruent	Block1	incongruent/STIM_007.jpg	100
147.525	0.622	622.3	incongruent	Block1	incongruent/STIM_007.jpg	100
151.854	0.777	777.2	incongruent	Block1	incongruent/STIM_007.jpg	99
154.937	0.729	729.3	incongruent	Block1	incongruent/STIM_008.jpg	100
159.439	1.104	1103.5	incongruent	Block1	incongruent/STIM_008.jpg	100
164.422	0.709	708.7	incongruent	Block1	incongruent/STIM_008.jpg	100
167.217	0.826	825.7	incongruent	Block1	incongruent/STIM_008.jpg	100
171.692	1.002	1002.5	incongruent	Block1	incongruent/STIM_008.jpg	99
174.779	0.823	823.1	incongruent	Block1	incongruent/STIM_009.jpg	99
179.362	1.022	1021.6	incongruent	Block1	incongruent/STIM_009.jpg	100
183.42	0.762	761.8	incongruent	Block1	incongruent/STIM_009.jpg	99
187.381	0.78	779.5	incongruent	Block1	incongruent/STIM_009.jpg	100
191.304	0.675	675.0	incongruent	Block1	incongruent/STIM_009.jpg	99
194.257	1.14	1140.4	incongruent	Block1	incongruent/STIM_010.jpg	100
198.831	1.217	1217.3	incongruent	Block1	incongruent/STIM_010.jpg	100
203.805	0.991	990.8	incongruent	Block1	incongruent/STIM_010.jpg	100
208.446	0.698	697.6	incongruent	Block1	incongruent/STIM_010.jpg	100
212.195	0.501	500.6	incongruent	Block1	incongruent/STIM_010.jpg	100
216.568	0.762	762.1	incongruent	Block1	incongruent/STIM_011.jpg	100
220.153	0.842	841.8	incongruent	Block1	incongruent/STIM_011.jpg	100
223.715	0.659	658.6	incongruent	Block1	incongruent/STIM_011.jpg	99
227.573	1.003	1002.7	incongruent	Block1	incongruent/STIM_011.jpg	100
232.346	0.69	690.4	incongruent	Block1	incongruent/STIM_011.jpg	100
235.585	1.188	1188.2	incongruent	Block1	incongruent/STIM_012.jpg	100
239.126	0.999	998.8	incongruent	Block1	incongruent/STIM_012.jpg	100
243.592	0.704	703.9	incongruent	Block1	incongruent/STIM_012.jpg	99
247.287	0.929	929.4	incongruent	Block1	incongruent/STIM_012.jpg	100
251.25	0.955	955.3	incongruent	Block1	incongruent/STIM_012.jpg	100
255.029	1.335	1335.2	incongruent	Block1	incongruent/STIM_013.jpg	100
259.48	0.879	879.0	incongruent	Block1	incongruent/STIM_013.jpg	100
263.939	0.793	792.9	incongruent	Block1	incongruent/STIM_013.jpg	99
268.436	1.049	1049.2	incongruent	Block1	incongruent/STIM_013.jpg	100
272.393	0.91	909.5	incongruent	Block1	incongruent/STIM_013.jpg	100
276.562	1.031	1030.6	incongruent	Block1	incongruent/STIM_014.jpg	100
280.196	1.157	1157.1	incongruent	Block1	incongruent/STIM_014.jpg	100
283.811	0.779	778.6	incongruent	Block1	incongruent/STIM_014.jpg	99
288.526	0.854	854.2	incongruent	Block1	incongruent/STIM_014.jpg	100
292.606	0.752	752.5	incongruent	Block1	incongruent/STIM_014.jpg	99
296.233	1.135	1134.9	incongruent	Block1	incongruent/STIM_015.jpg	99
299.54	0.84	839.5	incongruent	Block1	incongruent/STIM_015.jpg	99
303.102	1.085	1084.6	incongruent	Block1	incongruent/STIM_015.jpg	99
306.998	0.677	676.8	incongruent	Block1	incongruent/STIM_015.jpg	99
310.882	0.889	889.4	incongruent	Block1	incongruent/STIM_015.jpg	100
315.573	1.132	1132.0	incongruent	Block1	incongruent/STIM_016.jpg	99
318.815	0.915	914.7	incongruent	Block1	incongruent/STIM_016.jpg	99
323.091	0.58	579.9	incongruent	Block1	incongruent/STIM_016.jpg	99
327.544	0.926	925.9	incongruent	Block1	incongruent/STIM_016.jpg	99
331.487	0.987	987.2	incongruent	Block1	incongruent/STIM_016.jpg	99
336.306	0.865	865.3	incongruent	Block1	incongruent/STIM_017.jpg	100
340.269	0.821	821.4	incongruent	Block1	incongruent/STIM_017.jpg	100
343.796	1.059	1059.1	incongruent	Block1	incongruent/STIM_017.jpg	99
347.809	0.695	695.0	incongruent	Block1	incongruent/STIM_017.jpg	99
350.601	0.541	540.7	incongruent	Block1	incongruent/STIM_017.jpg	100
353.966	1.118	1117.8	incongruent	Block1	incongruent/STIM_018.jpg	100
358.828	0.952	952.4	incongruent	Block1	incongruent/STIM_018.jpg	99
362.33	0.996	995.6	incongruent	Block1	incongruent/STIM_018.jpg	100
365.833	0.961	960.7	incongruent	Block1	incongruent/STIM_018.jpg	100
370.322	0.577	576.6	incongruent	Block1	incongruent/STIM_018.jpg	99
374.607	0.918	918.5	incongruent	Block1	incongruent/STIM_019.jpg	100
379.218	0.974	973.6	incongruent	Block1	incongruent/STIM_019.jpg	100
382.695	1.094	1094.4	incongruent	Block1	incongruent/STIM_019.jpg	100
386.499	1.108	1107.6	incongruent	Block1	incongruent/STIM_019.jpg	99
391.293	0.945	945.0	incongruent	Block1	incongruent/STIM_019.jpg	100
394.285	0.866	866.4	incongruent	Block1	incongruent/STIM_020.jpg	100
398.187	0.719	719.4	incongruent	Block1	incongruent/STIM_020.jpg	99
402.499	0.979	978.6	incongruent	Block1	incongruent/STIM_020.jpg	99
407.27	1.018	1018.5	incongruent	Block1	incongruent/STIM_020.jpg	99
410.522	0.626	626.1	incongruent	Block1	incongruent/STIM_020.jpg	100
414.184	0.671	670.7	incongruent	Block1	incongruent/STIM_021.jpg	100
417.368	0.963	962.8	incongruent	Block1	incongruent/STIM_021.jpg	100
421.552	1.152	1151.9	incongruent	Block1	incongruent/STIM_021.jpg	99
425.033	0.663	663.1	incongruent	Block1	incongruent/STIM_021.jpg	99
429.545	0.665	664.8	incongruent	Block1	incongruent/STIM_021.jpg	100
432.891	0.645	645.0	incongruent	Block1	incongruent/STIM_022.jpg	99
437.388	1.037	1036.6	incongruent	Block1	incongruent/STIM_022.jpg	99
441.764	1.182	1182.4	incongruent	Block1	incongruent/STIM_022.jpg	100
445.005	0.966	966.3	incongruent	Block1	incongruent/STIM_022.jpg	99
448.608	0.884	884.1	incongruent	Block1	incongruent/STIM_022.jpg	99
453.398	1.12	1119.8	incongruent	Block1	incongruent/STIM_023.jpg	99
457.64	1.022	1021.9	incongruent	Block1	incongruent/STIM_023.jpg	100
462.155	0.852	852.5	incongruent	Block1	incongruent/STIM_023.jpg	100
466.551	1.029	1029.1	incongruent	Block1	incongruent/STIM_023.jpg	99
469.985	0.682	682.4	incongruent	Block1	incongruent/STIM_023.jpg	100
472.864	0.64	639.5	incongruent	Block1	incongruent/STIM_024.jpg	100
476.594	0.775	774.6	incongruent	Block1	incongruent/STIM_024.jpg	100
480.288	0.894	894.1	incongruent	Block1	incongruent/STIM_024.jpg	100
484.188	0.829	829.0	incongruent	Block1	incongruent/STIM_024.jpg	100
487.194	0.693	693.3	incongruent	Block1	incongruent/STIM_024.jpg	100
490.809	0.897	897.0	incongruent	Block1	incongruent/STIM_025.jpg	99
495.204	0.853	852.6	incongruent	Block1	incongruent/STIM_025.jpg	100
499.649	0.979	979.4	incongruent	Block1	incongruent/STIM_025.jpg	99
504.047	1.002	1002.1	incongruent	Block1	incongruent/STIM_025.jpg	100
507.165	0.632	631.5	incongruent	Block1	incongruent/STIM_025.jpg	99
510.373	0.771	771.3	incongruent	Block1	incongruent/STIM_026.jpg	100
513.788	1.226	1226.2	incongruent	Block1	incongruent/STIM_026.jpg	99
517.522	0.606	605.5	incongruent	Block1	incongruent/STIM_026.jpg	99
521.609	0.633	632.8	incongruent	Block1	incongruent/STIM_026.jpg	100
526.136	0.731	730.8	incongruent	Block1	incongruent/STIM_026.jpg	100
529.32	1.053	1053.0	incongruent	Block1	incongruent/STIM_027.jpg	100
534.185	0.614	613.9	incongruent	Block1	incongruent/STIM_027.jpg	99
538.615	1.147	1146.7	incongruent	Block1	incongruent/STIM_027.jpg	100
541.801	1.09	1090.0	incongruent	Block1	incongruent/STIM_027.jpg	100
545.118	0.565	565.2	incongruent	Block1	incongruent/STIM_027.jpg	99
548.943	0.918	917.8	incongruent	Block1	incongruent/STIM_028.jpg	99
552.63	1.059	1059.4	incongruent	Block1	incongruent/STIM_028.jpg	99
557.651	0.567	567.2	incongruent	Block1	incongruent/STIM_028.jpg	99
560.258	1.123	1123.4	incongruent	Block1	incongruent/STIM_028.jpg	99
564.859	0.542	542.4	incongruent	Block1	incongruent/STIM_028.jpg	100
567.486	0.804	803.6	incongruent	Block1	incongruent/STIM_029.jpg	100
570.699	0.781	780.8	incongruent	Block1	incongruent/STIM_029.jpg	100
574.266	1.085	1085.4	incongruent	Block1	incongruent/STIM_029.jpg	100
578.33	0.623	622.7	incongruent	Block1	incongruent/STIM_029.jpg	100
581.97	0.917	916.9	incongruent	Block1	incongruent/STIM_029.jpg	100
586.033	0.478	477.6	congruent	Block1	congruent/STIM_000.jpg	99
590.29	0.725	724.9	congruent	Block1	congruent/STIM_000.jpg	99
593.82	0.66	659.7	congruent	Block1	congruent/STIM_000.jpg	99
598.266	0.544	543.9	congruent	Block1	congruent/STIM_000.jpg	100
602.132	0.55	549.7	congruent	Block1	congruent/STIM_000.jpg	99
605.038	0.51	510.0	congruent	Block1	congruent/STIM_001.jpg	99
609.336	0.634	633.5	congruent	Block1	congruent/STIM_001.jpg	100
612.256	0.727	726.6	congruent	Block1	congruent/STIM_001.jpg	99
615.404	0.55	550.4	congruent	Block1	congruent/STIM_001.jpg	99
619.382	0.781	780.7	congruent	Block1	congruent/STIM_001.jpg	99
623.936	0.711	710.8	congruent	Block1	congruent/STIM_002.jpg	99
628.438	0.667	666.6	congruent	Block1	congruent/STIM_002.jpg	99
632.593	0.528	528.3	congruent	Block1	congruent/STIM_002.jpg	100
635.155	0.572	571.9	congruent	Block1	congruent/STIM_002.jpg	100
638.36	0.623	623.1	congruent	Block1	congruent/STIM_002.jpg	99
642.951	0.651	651.1	congruent	Block1	congruent/STIM_003.jpg	99
646.225	0.764	764.2	congruent	Block1	congruent/STIM_003.jpg	100
649.003	0.617	616.8	congruent	Block1	congruent/STIM_003.jpg	100
653.253	0.508	508.1	congruent	Block1	congruent/STIM_003.jpg	100
657.003	0.504	504.4	congruent	Block1	congruent/STIM_003.jpg	99
661.072	0.799	798.7	congruent	Block1	congruent/STIM_004.jpg	100
664.203	0.599	598.7	congruent	Block1	congruent/STIM_004.jpg	99
667.23	0.61	610.3	congruent	Block1	congruent/STIM_004.jpg	99
671.67	0.454	454.5	congruent	Block1	congruent/STIM_004.jpg	100
674.99	0.453	453.0	congruent	Block1	congruent/STIM_004.jpg	100
678.437	0.474	474.1	congruent	Block1	congruent/STIM_005.jpg	99
682.192	0.545	544.7	congruent	Block1	congruent/STIM_005.jpg	100
685.668	0.585	585.0	congruent	Block1	congruent/STIM_005.jpg	99
689.877	0.733	733.1	congruent	Block1	congruent/STIM_005.jpg	99
694.362	0.756	756.2	congruent	Block1	congruent/STIM_005.jpg	100
698.459	0.769	769.2	congruent	Block1	congruent/STIM_006.jpg	99
702.019	0.566	565.9	congruent	Block1	congruent/STIM_006.jpg	99
705.44	0.618	617.6	congruent	Block1	congruent/STIM_006.jpg	99
708.253	0.792	791.7	congruent	Block1	congruent/STIM_006.jpg	99
712.003	0.673	672.8	congruent	Block1	congruent/STIM_006.jpg	99
714.746	0.761	760.9	congruent	Block1	congruent/STIM_007.jpg	99
718.764	0.499	499.4	congruent	Block1	congruent/STIM_007.jpg	100
722.209	0.495	495.0	congruent	Block1	congruent/STIM_007.jpg	100
726.216	0.673	673.0	congruent	Block1	congruent/STIM_007.jpg	99
730.284	0.769	769.0	congruent	Block1	congruent/STIM_007.jpg	99
734.413	0.497	497.4	congruent	Block1	congruent/STIM_008.jpg	100
737.296	0.61	610.2	congruent	Block1	congruent/STIM_008.jpg	100
741.825	0.574	573.9	congruent	Block1	congruent/STIM_008.jpg	99
746.373	0.786	785.7	congruent	Block1	congruent/STIM_008.jpg	99
750.386	0.587	586.6	congruent	Block1	congruent/STIM_008.jpg	100
754.871	0.593	593.2	congruent	Block1	congruent/STIM_009.jpg	99
757.673	0.545	545.2	congruent	Block1	congruent/STIM_009.jpg	99
760.673	0.531	530.9	congruent	Block1	congruent/STIM_009.jpg	99
764.053	0.772	771.8	congruent	Block1	congruent/STIM_009.jpg	99
768.044	0.651	650.9	congruent	Block1	congruent/STIM_009.jpg	100
771.419	0.546	546.2	congruent	Block1	congruent/STIM_010.jpg	99
774.395	0.589	588.8	congruent	Block1	congruent/STIM_010.jpg	99
777.9	0.468	467.6	congruent	Block1	congruent/STIM_010.jpg	100
782.148	0.752	751.5	congruent	Block1	congruent/STIM_010.jpg	99
785.105	0.519	519.4	congruent	Block1	congruent/STIM_010.jpg	99
789.564	0.654	654.5	congruent	Block1	congruent/STIM_011.jpg	99
792.74	0.594	594.5	congruent	Block1	congruent/STIM_011.jpg	99
796.001	0.613	612.7	congruent	Block1	congruent/STIM_011.jpg	99
800.339	0.702	702.3	congruent	Block1	congruent/STIM_011.jpg	100
803.118	0.569	568.6	congruent	Block1	congruent/STIM_011.jpg	99
807.666	0.794	793.6	congruent	Block1	congruent/STIM_012.jpg	99
811.935	0.782	782.3	congruent	Block1	congruent/STIM_012.jpg	100
816.515	0.77	770.2	congruent	Block1	congruent/STIM_012.jpg	100
820.9	0.786	785.8	congruent	Block1	congruent/STIM_012.jpg	100
824.248	0.764	763.6	congruent	Block1	congruent/STIM_012.jpg	100
828.127	0.724	723.6	congruent	Block1	congruent/STIM_013.jpg	99
832.503	0.61	609.9	congruent	Block1	congruent/STIM_013.jpg	100
835.632	0.478	477.6	congruent	Block1	congruent/STIM_013.jpg	100
839.501	0.715	714.9	congruent	Block1	congruent/STIM_013.jpg	100
843.531	0.644	644.5	congruent	Block1	congruent/STIM_013.jpg	100
847.041	0.653	653.2	congruent	Block1	congruent/STIM_014.jpg	100
850.604	0.756	756.4	congruent	Block1	congruent/STIM_014.jpg	99
855.135	0.549	549.2	congruent	Block1	congruent/STIM_014.jpg	99
859.136	0.515	515.1	congruent	Block1	congruent/STIM_014.jpg	99
862.515	0.472	471.6	congruent	Block1	congruent/STIM_014.jpg	99
865.386	0.522	522.3	congruent	Block1	congruent/STIM_015.jpg	99
869.278	0.694	693.7	congruent	Block1	congruent/STIM_015.jpg	99
872.994	0.544	544.2	congruent	Block1	congruent/STIM_015.jpg	100
877.322	0.601	601.3	congruent	Block1	congruent/STIM_015.jpg	99
881.516	0.793	792.8	congruent	Block1	congruent/STIM_015.jpg	99
885.228	0.726	726.2	congruent	Block1	congruent/STIM_016.jpg	100
888.274	0.571	570.7	congruent	Block1	congruent/STIM_016.jpg	100
892.448	0.674	674.0	congruent	Block1	congruent/STIM_016.jpg	99
895.591	0.468	468.4	congruent	Block1	congruent/STIM_016.jpg	100
900.003	0.578	577.6	congruent	Block1	congruent/STIM_016.jpg	99
902.801	0.544	543.5	congruent	Block1	congruent/STIM_017.jpg	100
906.245	0.625	625.0	congruent	Block1	congruent/STIM_017.jpg	100
909.312	0.557	556.6	congruent	Block1	congruent/STIM_017.jpg	99
912.553	0.603	603.4	congruent	Block1	congruent/STIM_017.jpg	99
915.785	0.633	632.7	congruent	Block1	congruent/STIM_017.jpg	100
919.51	0.739	739.4	congruent	Block1	congruent/STIM_018.jpg	99
923.127	0.564	563.8	congruent	Block1	congruent/STIM_018.jpg	99
925.911	0.532	531.7	congruent	Block1	congruent/STIM_018.jpg	100
929.84	0.605	604.9	congruent	Block1	congruent/STIM_018.jpg	100
932.993	0.668	667.8	congruent	Block1	congruent/STIM_018.jpg	100
937.317	0.489	489.1	congruent	Block1	congruent/STIM_019.jpg	100
940.622	0.673	672.8	congruent	Block1	congruent/STIM_019.jpg	100
943.53	0.557	556.9	congruent	Block1	congruent/STIM_019.jpg	100
947.744	0.584	583.8	congruent	Block1	congruent/STIM_019.jpg	100
950.397	0.582	582.1	congruent	Block1	congruent/STIM_019.jpg	100
954.415	0.784	783.6	congruent	Block1	congruent/STIM_020.jpg	100
958.896	0.653	652.6	congruent	Block1	congruent/STIM_020.jpg	100
963.04	0.572	571.6	congruent	Block1	congruent/STIM_020.jpg	100
966.2	0.78	779.7	congruent	Block1	congruent/STIM_020.jpg	99
969.646	0.577	576.7	congruent	Block1	congruent/STIM_020.jpg	100
973.654	0.717	717.1	congruent	Block1	congruent/STIM_021.jpg	99
977.055	0.62	619.8	congruent	Block1	congruent/STIM_021.jpg	100
980.427	0.741	741.3	congruent	Block1	congruent/STIM_021.jpg	99
984.841	0.568	568.3	congruent	Block1	congruent/STIM_021.jpg	100
987.857	0.487	486.8	congruent	Block1	congruent/STIM_021.jpg	99
991.524	0.694	694.0	congruent	Block1	congruent/STIM_022.jpg	99
995.51	0.685	684.8	congruent	Block1	congruent/STIM_022.jpg	100
998.665	0.613	613.2	congruent	Block1	congruent/STIM_022.jpg	100
1002.803	0.57	569.7	congruent	Block1	congruent/STIM_022.jpg	100
1006.91	0.517	516.9	congruent	Block1	congruent/STIM_022.jpg	99
1009.921	0.588	588.3	congruent	Block1	congruent/STIM_023.jpg	100
1013.248	0.63	629.6	congruent	Block1	congruent/STIM_023.jpg	100
1017.738	0.654	654.2	congruent	Block1	congruent/STIM_023.jpg	99
1022.308	0.532	532.0	congruent	Block1	congruent/STIM_023.jpg	100
1024.995	0.675	675.4	congruent	Block1	congruent/STIM_023.jpg	99
1029.119	0.636	635.5	congruent	Block1	congruent/STIM_024.jpg	100
1033.603	0.707	707.1	congruent	Block1	congruent/STIM_024.jpg	99
1036.321	0.578	577.6	congruent	Block1	congruent/STIM_024.jpg	99
1040.891	0.489	488.8	congruent	Block1	congruent/STIM_024.jpg	99
1044.308	0.502	501.6	congruent	Block1	congruent/STIM_024.jpg	99
1048.318	0.687	687.3	congruent	Block1	congruent/STIM_025.jpg	100
1051.319	0.799	798.9	congruent	Block1	congruent/STIM_025.jpg	100
1055.471	0.763	763.1	congruent	Block1	congruent/STIM_025.jpg	100
1059.978	0.55	550.2	congruent	Block1	congruent/STIM_025.jpg	99
1063.667	0.693	692.6	congruent	Block1	congruent/STIM_025.jpg	99
1067.673	0.804	804.2	congruent	Block1	congruent/STIM_026.jpg	100
1071.201	0.78	780.1	congruent	Block1	congruent/STIM_026.jpg	99
1075.515	0.505	505.1	congruent	Block1	congruent/STIM_026.jpg	99
1079.29	0.612	612.1	congruent	Block1	congruent/STIM_026.jpg	100
1083.02	0.782	781.5	congruent	Block1	congruent/STIM_026.jpg	100
1087.61	0.641	640.8	congruent	Block1	congruent/STIM_027.jpg	99
1091.844	0.578	577.9	congruent	Block1	congruent/STIM_027.jpg	100
1095.99	0.713	713.0	congruent	Block1	congruent/STIM_027.jpg	99
1099.621	0.751	750.8	congruent	Block1	congruent/STIM_027.jpg	100
1103.865	0.543	543.0	congruent	Block1	congruent/STIM_027.jpg	99
1107.009	0.594	593.7	congruent	Block1	congruent/STIM_028.jpg	99
1110.416	0.494	493.8	congruent	Block1	congruent/STIM_028.jpg	99
1112.936	0.734	733.5	congruent	Block1	congruent/STIM_028.jpg	99
1116.575	0.558	558.4	congruent	Block1	congruent/STIM_028.jpg	99
1120.224	0.655	654.6	congruent	Block1	congruent/STIM_028.jpg	100
1124.473	0.635	635.1	congruent	Block1	congruent/STIM_029.jpg	100
1128.422	0.786	785.9	congruent	Block1	congruent/STIM_029.jpg	99
1132.551	0.749	748.8	congruent	Block1	congruent/STIM_029.jpg	100
1135.777	0.478	477.5	congruent	Block1	congruent/STIM_029.jpg	99
1139.589	0.801	801.4	congruent	Block1	congruent/STIM_029.jpg	99
1142.432	1.123	1122.9	incongruent	Block2	incongruent/STIM_000.jpg	100
1146.005	0.91	910.1	incongruent	Block2	incongruent/STIM_000.jpg	100
1150.349	0.99	990.3	incongruent	Block2	incongruent/STIM_000.jpg	100
1153.922	0.629	628.9	incongruent	Block2	incongruent/STIM_000.jpg	99
1158.056	0.541	541.1	incongruent	Block2	incongruent/STIM_000.jpg	100
1161.389	0.805	805.1	incongruent	Block2	incongruent/STIM_001.jpg	99
1166.178	0.825	824.6	incongruent	Block2	incongruent/STIM_001.jpg	100
1169.398	0.668	668.3	incongruent	Block2	incongruent/STIM_001.jpg	100
1172.701	0.715	715.3	incongruent	Block2	incongruent/STIM_001.jpg	100
1176.185	0.643	643.2	incongruent	Block2	incongruent/STIM_001.jpg	99
1179.972	0.782	782.0	incongruent	Block2	incongruent/STIM_002.jpg	100
1183.519	0.709	708.6	incongruent	Block2	incongruent/STIM_002.jpg	100
1187.661	0.94	939.8	incongruent	Block2	incongruent/STIM_002.jpg	99
1191.584	0.493	492.8	incongruent	Block2	incongruent/STIM_002.jpg	99
1194.961	0.859	859.0	incongruent	Block2	incongruent/STIM_002.jpg	100
1198.769	0.888	887.8	incongruent	Block2	incongruent/STIM_003.jpg	99
1202.692	0.56	560.4	incongruent	Block2	incongruent/STIM_003.jpg	99
1205.327	0.684	683.9	incongruent	Block2	incongruent/STIM_003.jpg	100
1208.428	0.519	518.7	incongruent	Block2	incongruent/STIM_003.jpg	100
1212.512	0.744	744.3	incongruent	Block2	incongruent/STIM_003.jpg	100
1215.844	0.724	724.0	incongruent	Block2	incongruent/STIM_004.jpg	99
1219.242	1.048	1047.7	incongruent	Block2	incongruent/STIM_004.jpg	99
1222.558	0.499	498.8	incongruent	Block2	incongruent/STIM_004.jpg	99
1226.927	0.794	794.5	incongruent	Block2	incongruent/STIM_004.jpg	99
1230.926	0.664	664.1	incongruent	Block2	incongruent/STIM_004.jpg	99
1235.17	0.943	942.9	incongruent	Block2	incongruent/STIM_005.jpg	99
1239.654	0.886	885.7	incongruent	Block2	incongruent/STIM_005.jpg	99
1242.871	0.658	658.3	incongruent	Block2	incongruent/STIM_005.jpg	99
1247.416	0.474	474.2	incongruent	Block2	incongruent/STIM_005.jpg	99
1251.802	0.57	569.9	incongruent	Block2	incongruent/STIM_005.jpg	100
1255.928	0.559	558.6	incongruent	Block2	incongruent/STIM_006.jpg	100
1259.168	0.789	789.3	incongruent	Block2	incongruent/STIM_006.jpg	99
1263.443	0.763	763.2	incongruent	Block2	incongruent/STIM_006.jpg	99
1267.508	0.445	444.9	incongruent	Block2	incongruent/STIM_006.jpg	100
1270.507	0.582	581.8	incongruent	Block2	incongruent/STIM_006.jpg	100
1274.789	0.967	967.1	incongruent	Block2	incongruent/STIM_007.jpg	99
1277.894	0.778	777.8	incongruent	Block2	incongruent/STIM_007.jpg	100
1281.679	0.964	964.1	incongruent	Block2	incongruent/STIM_007.jpg	99
1285.997	0.556	555.8	incongruent	Block2	incongruent/STIM_007.jpg	100
1290.395	0.618	617.6	incongruent	Block2	incongruent/STIM_007.jpg	100
1293.042	0.649	649.0	incongruent	Block2	incongruent/STIM_008.jpg	99
1296.837	0.536	536.4	incongruent	Block2	incongruent/STIM_008.jpg	100
1300.648	0.716	715.5	incongruent	Block2	incongruent/STIM_008.jpg	99
1303.79	0.495	495.1	incongruent	Block2	incongruent/STIM_008.jpg	100
1308.188	0.652	652.0	incongruent	Block2	incongruent/STIM_008.jpg	100
1311.466	0.767	766.6	incongruent	Block2	incongruent/STIM_009.jpg	100
1315.331	0.943	942.6	incongruent	Block2	incongruent/STIM_009.jpg	99
1318.352	0.83	830.0	incongruent	Block2	incongruent/STIM_009.jpg	100
1322.356	0.778	778.1	incongruent	Block2	incongruent/STIM_009.jpg	99
1326.218	0.615	614.6	incongruent	Block2	incongruent/STIM_009.jpg	99
1329.12	0.98	979.7	incongruent	Block2	incongruent/STIM_010.jpg	99
1332.709	0.746	745.6	incongruent	Block2	incongruent/STIM_010.jpg	99
1337.317	0.694	693.8	incongruent	Block2	incongruent/STIM_010.jpg	100
1341.1	0.572	572.4	incongruent	Block2	incongruent/STIM_010.jpg	100
1344.477	0.547	547.1	incongruent	Block2	incongruent/STIM_010.jpg	99
1348.584	0.799	799.3	incongruent	Block2	incongruent/STIM_011.jpg	99
1352.478	0.578	578.0	incongruent	Block2	incongruent/STIM_011.jpg	99
1357.047	0.958	957.8	incongruent	Block2	incongruent/STIM_011.jpg	100
1360.958	0.48	480.3	incongruent	Block2	incongruent/STIM_011.jpg	100
1364.076	0.579	579.1	incongruent	Block2	incongruent/STIM_011.jpg	100
1366.814	1.096	1095.6	incongruent	Block2	incongruent/STIM_012.jpg	99
1371.651	1.052	1052.1	incongruent	Block2	incongruent/STIM_012.jpg	100
1375.627	0.474	474.5	incongruent	Block2	incongruent/STIM_012.jpg	99
1378.558	0.454	453.9	incongruent	Block2	incongruent/STIM_012.jpg	99
1381.65	0.559	559.4	incongruent	Block2	incongruent/STIM_012.jpg	99
1385.234	0.908	907.8	incongruent	Block2	incongruent/STIM_013.jpg	99
1389.198	0.986	985.7	incongruent	Block2	incongruent/STIM_013.jpg	100
1392.89	0.735	735.3	incongruent	Block2	incongruent/STIM_013.jpg	99
1396.159	0.801	801.3	incongruent	Block2	incongruent/STIM_013.jpg	99
1400.618	0.692	692.0	incongruent	Block2	incongruent/STIM_013.jpg	99
1403.887	1.126	1126.0	incongruent	Block2	incongruent/STIM_014.jpg	99
1408.491	0.773	772.8	incongruent	Block2	incongruent/STIM_014.jpg	99
1411.41	0.474	473.8	incongruent	Block2	incongruent/STIM_014.jpg	100
1415.168	0.65	649.5	incongruent	Block2	incongruent/STIM_014.jpg	99
1418.265	0.527	526.7	incongruent	Block2	incongruent/STIM_014.jpg	100
1422.338	0.867	867.3	incongruent	Block2	incongruent/STIM_015.jpg	100
1426.362	0.624	624.3	incongruent	Block2	incongruent/STIM_015.jpg	100
1429.9	0.63	630.2	incongruent	Block2	incongruent/STIM_015.jpg	100
1432.958	0.478	477.8	incongruent	Block2	incongruent/STIM_015.jpg	100
1436.471	0.497	496.7	incongruent	Block2	incongruent/STIM_015.jpg	100
1439.909	0.564	563.8	incongruent	Block2	incongruent/STIM_016.jpg	100
1442.914	0.524	523.7	incongruent	Block2	incongruent/STIM_016.jpg	100
1447.103	0.523	522.9	incongruent	Block2	incongruent/STIM_016.jpg	100
1450.657	0.656	656.3	incongruent	Block2	incongruent/STIM_016.jpg	99
1454.878	0.692	691.8	incongruent	Block2	incongruent/STIM_016.jpg	100
1458.766	1.078	1078.0	incongruent	Block2	incongruent/STIM_017.jpg	99
1462.879	0.654	654.3	incongruent	Block2	incongruent/STIM_017.jpg	100
1465.717	0.779	778.9	incongruent	Block2	incongruent/STIM_017.jpg	99
1470.031	0.761	761.4	incongruent	Block2	incongruent/STIM_017.jpg	99
1473.434	0.84	839.6	incongruent	Block2	incongruent/STIM_017.jpg	99
1478.137	0.804	804.1	incongruent	Block2	incongruent/STIM_018.jpg	99
1482.515	0.519	519.2	incongruent	Block2	incongruent/STIM_018.jpg	99
1485.893	0.835	834.9	incongruent	Block2	incongruent/STIM_018.jpg	99
1489.139	0.55	550.4	incongruent	Block2	incongruent/STIM_018.jpg	100
1493.021	0.815	815.4	incongruent	Block2	incongruent/STIM_018.jpg	100
1497.718	0.582	581.5	incongruent	Block2	incongruent/STIM_019.jpg	100
1501.28	0.832	831.9	incongruent	Block2	incongruent/STIM_019.jpg	100
1505.601	0.764	764.0	incongruent	Block2	incongruent/STIM_019.jpg	100
1508.838	0.662	661.7	incongruent	Block2	incongruent/STIM_019.jpg	100
1511.572	0.759	759.0	incongruent	Block2	incongruent/STIM_019.jpg	100
1516.05	0.818	817.7	incongruent	Block2	incongruent/STIM_020.jpg	100
1520.123	0.653	653.2	incongruent	Block2	incongruent/STIM_020.jpg	99
1523.234	0.804	804.1	incongruent	Block2	incongruent/STIM_020.jpg	99
1526.191	0.52	519.5	incongruent	Block2	incongruent/STIM_020.jpg	100
1530.527	0.555	554.6	incongruent	Block2	incongruent/STIM_020.jpg	100
1534.069	0.954	953.9	incongruent	Block2	incongruent/STIM_021.jpg	100
1537.905	1.002	1001.7	incongruent	Block2	incongruent/STIM_021.jpg	99
1542.816	0.736	735.8	incongruent	Block2	incongruent/STIM_021.jpg	100
1545.681	0.898	897.5	incongruent	Block2	incongruent/STIM_021.jpg	100
1549.573	0.464	464.4	incongruent	Block2	incongruent/STIM_021.jpg	100
1553.844	0.613	613.1	incongruent	Block2	incongruent/STIM_022.jpg	99
1557.755	0.858	857.5	incongruent	Block2	incongruent/STIM_022.jpg	100
1560.842	0.77	769.6	incongruent	Block2	incongruent/STIM_022.jpg	100
1565.37	0.871	871.0	incongruent	Block2	incongruent/STIM_022.jpg	99
1568.644	0.833	832.8	incongruent	Block2	incongruent/STIM_022.jpg	99
1571.998	0.976	975.7	incongruent	Block2	incongruent/STIM_023.jpg	100
1576.44	0.74	739.7	incongruent	Block2	incongruent/STIM_023.jpg	100
1580.282	0.648	648.1	incongruent	Block2	incongruent/STIM_023.jpg	99
1583.491	0.921	921.0	incongruent	Block2	incongruent/STIM_023.jpg	99
1588.39	0.592	592.1	incongruent	Block2	incongruent/STIM_023.jpg	99
1591.172	0.686	686.3	incongruent	Block2	incongruent/STIM_024.jpg	99
1594.172	1.068	1067.6	incongruent	Block2	incongruent/STIM_024.jpg	100
1598.059	0.735	735.2	incongruent	Block2	incongruent/STIM_024.jpg	100
1601.68	0.751	751.4	incongruent	Block2	incongruent/STIM_024.jpg	99
1606.186	0.729	728.9	incongruent	Block2	incongruent/STIM_024.jpg	99
1610.37	0.947	947.4	incongruent	Block2	incongruent/STIM_025.jpg	100
1614.274	0.592	591.7	incongruent	Block2	incongruent/STIM_025.jpg	100
1618.831	0.569	568.8	incongruent	Block2	incongruent/STIM_025.jpg	100
1622.188	0.68	680.2	incongruent	Block2	incongruent/STIM_025.jpg	100
1626.523	0.502	502.0	incongruent	Block2	incongruent/STIM_025.jpg	99
1629.375	1.029	1029.2	incongruent	Block2	incongruent/STIM_026.jpg	99
1634.032	0.807	806.8	incongruent	Block2	incongruent/STIM_026.jpg	100
1637.31	0.51	509.6	incongruent	Block2	incongruent/STIM_026.jpg	99
1640.824	0.881	881.1	incongruent	Block2	incongruent/STIM_026.jpg	99
1644.047	0.596	596.3	incongruent	Block2	incongruent/STIM_026.jpg	100
1647.666	0.669	669.0	incongruent	Block2	incongruent/STIM_027.jpg	100
1651.427	1.066	1065.6	incongruent	Block2	incongruent/STIM_027.jpg	99
1656.167	0.788	787.5	incongruent	Block2	incongruent/STIM_027.jpg	100
1659.81	0.745	745.0	incongruent	Block2	incongruent/STIM_027.jpg	99
1664.373	0.766	766.2	incongruent	Block2	incongruent/STIM_027.jpg	99
1668.544	1.139	1139.2	incongruent	Block2	incongruent/STIM_028.jpg	99
1672.709	0.793	793.3	incongruent	Block2	incongruent/STIM_028.jpg	100
1675.977	0.922	921.7	incongruent	Block2	incongruent/STIM_028.jpg	100
1680.864	0.444	443.6	incongruent	Block2	incongruent/STIM_028.jpg	100
1683.991	0.617	616.9	incongruent	Block2	incongruent/STIM_028.jpg	100
1688.387	0.584	583.5	incongruent	Block2	incongruent/STIM_029.jpg	100
1692.236	0.756	755.9	incongruent	Block2	incongruent/STIM_029.jpg	99
1695.116	0.483	482.8	incongruent	Block2	incongruent/STIM_029.jpg	100
1698.737	0.901	901.1	incongruent	Block2	incongruent/STIM_029.jpg	99
1701.967	0.468	468.3	incongruent	Block2	incongruent/STIM_029.jpg	99
1706.012	0.557	557.2	congruent	Block2	congruent/STIM_000.jpg	99
1710.052	0.663	663.1	congruent	Block2	congruent/STIM_000.jpg	99
1713.389	0.555	555.0	congruent	Block2	congruent/STIM_000.jpg	100
1716.461	0.67	670.5	congruent	Block2	congruent/STIM_000.jpg	100
1719.36	0.726	726.4	congruent	Block2	congruent/STIM_000.jpg	99
1722.668	0.793	792.9	congruent	Block2	congruent/STIM_001.jpg	99
1727.4	0.5	499.8	congruent	Block2	congruent/STIM_001.jpg	99
1730.207	0.669	669.3	congruent	Block2	congruent/STIM_001.jpg	100
1732.923	0.572	572.4	congruent	Block2	congruent/STIM_001.jpg	99
1735.932	0.681	681.2	congruent	Block2	congruent/STIM_001.jpg	99
1739.367	0.758	758.3	congruent	Block2	congruent/STIM_002.jpg	99
1742.453	0.625	625.2	congruent	Block2	congruent/STIM_002.jpg	100
1747.026	0.533	532.6	congruent	Block2	congruent/STIM_002.jpg	100
1751.053	0.653	652.6	congruent	Block2	congruent/STIM_002.jpg	100
1755.21	0.507	507.5	congruent	Block2	congruent/STIM_002.jpg	100
1759.401	0.754	754.1	congruent	Block2	congruent/STIM_003.jpg	100
1763.627	0.482	482.0	congruent	Block2	congruent/STIM_003.jpg	100
1767.717	0.501	500.6	congruent	Block2	congruent/STIM_003.jpg	99
1770.589	0.65	650.1	congruent	Block2	congruent/STIM_003.jpg	100
1774.581	0.56	560.4	congruent	Block2	congruent/STIM_003.jpg	100
1778.947	0.739	739.0	congruent	Block2	congruent/STIM_004.jpg	100
1783.014	0.655	654.7	congruent	Block2	congruent/STIM_004.jpg	100
1786.808	0.776	776.2	congruent	Block2	congruent/STIM_004.jpg	99
1790.292	0.695	695.4	congruent	Block2	congruent/STIM_004.jpg	100
1793.828	0.785	784.8	congruent	Block2	congruent/STIM_004.jpg	99
1797.927	0.732	732.5	congruent	Block2	congruent/STIM_005.jpg	99
1801.155	0.742	742.5	congruent	Block2	congruent/STIM_005.jpg	100
1804.751	0.572	571.5	congruent	Block2	congruent/STIM_005.jpg	99
1808.562	0.456	455.5	congruent	Block2	congruent/STIM_005.jpg	99
1812.861	0.609	608.8	congruent	Block2	congruent/STIM_005.jpg	99
1817.272	0.74	740.2	congruent	Block2	congruent/STIM_006.jpg	99
1820.424	0.491	490.8	congruent	Block2	congruent/STIM_006.jpg	100
1824.505	0.728	727.8	congruent	Block2	congruent/STIM_006.jpg	100
1829.157	0.637	637.3	congruent	Block2	congruent/STIM_006.jpg	100
1831.842	0.484	483.5	congruent	Block2	congruent/STIM_006.jpg	100
1835.466	0.503	503.3	congruent	Block2	congruent/STIM_007.jpg	100
1839.667	0.543	543.2	congruent	Block2	congruent/STIM_007.jpg	100
1842.707	0.554	553.8	congruent	Block2	congruent/STIM_007.jpg	99
1846.302	0.5	499.5	congruent	Block2	congruent/STIM_007.jpg	99
1850.567	0.701	700.9	congruent	Block2	congruent/STIM_007.jpg	99
1854.218	0.486	486.5	congruent	Block2	congruent/STIM_008.jpg	100
1858.513	0.778	777.9	congruent	Block2	congruent/STIM_008.jpg	99
1862.363	0.596	596.1	congruent	Block2	congruent/STIM_008.jpg	100
1865.802	0.598	597.9	congruent	Block2	congruent/STIM_008.jpg	99
1869.78	0.506	505.6	congruent	Block2	congruent/STIM_008.jpg	100
1873.226	0.696	695.8	congruent	Block2	congruent/STIM_009.jpg	100
1877.222	0.692	692.5	congruent	Block2	congruent/STIM_009.jpg	99
1880.377	0.653	653.2	congruent	Block2	congruent/STIM_009.jpg	99
1883.213	0.463	463.1	congruent	Block2	congruent/STIM_009.jpg	100
1887.069	0.575	574.8	congruent	Block2	congruent/STIM_009.jpg	99
1891.428	0.484	484.3	congruent	Block2	congruent/STIM_010.jpg	99
1894.283	0.699	699.3	congruent	Block2	congruent/STIM_010.jpg	100
1897.333	0.661	661.1	congruent	Block2	congruent/STIM_010.jpg	100
1901.225	0.6	600.2	congruent	Block2	congruent/STIM_010.jpg	99
1904.667	0.751	751.3	congruent	Block2	congruent/STIM_010.jpg	100
1908.996	0.592	591.6	congruent	Block2	congruent/STIM_011.jpg	100
1913.583	0.608	607.8	congruent	Block2	congruent/STIM_011.jpg	99
1917.873	0.596	596.4	congruent	Block2	congruent/STIM_011.jpg	99
1922.118	0.519	518.9	congruent	Block2	congruent/STIM_011.jpg	99
1926.367	0.59	590.0	congruent	Block2	congruent/STIM_011.jpg	99
1930.65	0.718	718.1	congruent	Block2	congruent/STIM_012.jpg	99
1934.292	0.691	691.0	congruent	Block2	congruent/STIM_012.jpg	99
1937.994	0.801	800.7	congruent	Block2	congruent/STIM_012.jpg	100
1941.382	0.733	733.0	congruent	Block2	congruent/STIM_012.jpg	100
1944.484	0.729	728.8	congruent	Block2	congruent/STIM_012.jpg	99
1947.964	0.746	745.6	congruent	Block2	congruent/STIM_013.jpg	99
1951.253	0.644	644.0	congruent	Block2	congruent/STIM_013.jpg	99
1955.013	0.76	760.5	congruent	Block2	congruent/STIM_013.jpg	99
1957.957	0.616	616.4	congruent	Block2	congruent/STIM_013.jpg	99
1962.523	0.534	534.1	congruent	Block2	congruent/STIM_013.jpg	99
1965.254	0.648	648.0	congruent	Block2	congruent/STIM_014.jpg	100
1967.971	0.504	503.9	congruent	Block2	congruent/STIM_014.jpg	100
1971.831	0.536	535.6	congruent	Block2	congruent/STIM_014.jpg	99
1974.688	0.685	684.9	congruent	Block2	congruent/STIM_014.jpg	99
1978.57	0.77	769.6	congruent	Block2	congruent/STIM_014.jpg	99
1981.778	0.671	670.6	congruent	Block2	congruent/STIM_015.jpg	99
1986.381	0.674	673.5	congruent	Block2	congruent/STIM_015.jpg	100
1990.379	0.488	487.5	congruent	Block2	congruent/STIM_015.jpg	100
1993.407	0.586	586.3	congruent	Block2	congruent/STIM_015.jpg	99
1996.824	0.624	624.3	congruent	Block2	congruent/STIM_015.jpg	99
2000.893	0.656	656.0	congruent	Block2	congruent/STIM_016.jpg	100
2005.354	0.686	686.0	congruent	Block2	congruent/STIM_016.jpg	99
2009.256	0.499	498.6	congruent	Block2	congruent/STIM_016.jpg	99
2012.405	0.651	651.3	congruent	Block2	congruent/STIM_016.jpg	99
2016.824	0.749	749.4	congruent	Block2	congruent/STIM_016.jpg	99
2020.6	0.79	789.9	congruent	Block2	congruent/STIM_017.jpg	99
2024.736	0.549	548.6	congruent	Block2	congruent/STIM_017.jpg	100
2028.315	0.513	512.7	congruent	Block2	congruent/STIM_017.jpg	100
2031.961	0.602	601.6	congruent	Block2	congruent/STIM_017.jpg	100
2034.989	0.523	523.4	congruent	Block2	congruent/STIM_017.jpg	99
2037.607	0.582	582.2	congruent	Block2	congruent/STIM_018.jpg	99
2041.23	0.719	718.8	congruent	Block2	congruent/STIM_018.jpg	100
2045.324	0.496	496.2	congruent	Block2	congruent/STIM_018.jpg	99
2048.582	0.475	475.4	congruent	Block2	congruent/STIM_018.jpg	100
2052.276	0.698	698.1	congruent	Block2	congruent/STIM_018.jpg	100
2056.882	0.567	566.6	congruent	Block2	congruent/STIM_019.jpg	100
2061.167	0.602	602.1	congruent	Block2	congruent/STIM_019.jpg	99
2064.585	0.61	610.0	congruent	Block2	congruent/STIM_019.jpg	100
2068.441	0.659	659.1	congruent	Block2	congruent/STIM_019.jpg	100
2072.681	0.708	707.5	congruent	Block2	congruent/STIM_019.jpg	99
2075.754	0.544	543.9	congruent	Block2	congruent/STIM_020.jpg	100
2079.01	0.675	675.0	congruent	Block2	congruent/STIM_020.jpg	99
2083.014	0.533	533.0	congruent	Block2	congruent/STIM_020.jpg	100
2086.966	0.531	530.7	congruent	Block2	congruent/STIM_020.jpg	100
2090.104	0.67	669.9	congruent	Block2	congruent/STIM_020.jpg	100
2094.71	0.687	687.0	congruent	Block2	congruent/STIM_021.jpg	99
2098.476	0.751	750.7	congruent	Block2	congruent/STIM_021.jpg	99
2102.268	0.791	791.3	congruent	Block2	congruent/STIM_021.jpg	99
2105.132	0.69	690.0	congruent	Block2	congruent/STIM_021.jpg	100
2109.195	0.721	720.8	congruent	Block2	congruent/STIM_021.jpg	100
2113.518	0.54	540.0	congruent	Block2	congruent/STIM_022.jpg	99
2117.248	0.799	798.8	congruent	Block2	congruent/STIM_022.jpg	99
2120.211	0.613	613.2	congruent	Block2	congruent/STIM_022.jpg	99
2123.159	0.553	553.4	congruent	Block2	congruent/STIM_022.jpg	100
2127.506	0.701	701.0	congruent	Block2	congruent/STIM_022.jpg	100
2131.637	0.561	561.3	congruent	Block2	congruent/STIM_023.jpg	99
2135.797	0.66	660.2	congruent	Block2	congruent/STIM_023.jpg	100
2138.87	0.616	615.8	congruent	Block2	congruent/STIM_023.jpg	99
2141.802	0.479	479.1	congruent	Block2	congruent/STIM_023.jpg	99
2146.105	0.706	706.0	congruent	Block2	congruent/STIM_023.jpg	100
2149.484	0.595	595.1	congruent	Block2	congruent/STIM_024.jpg	99
2153.814	0.716	715.7	congruent	Block2	congruent/STIM_024.jpg	100
2158.454	0.768	767.9	congruent	Block2	congruent/STIM_024.jpg	100
2162.233	0.467	466.9	congruent	Block2	congruent/STIM_024.jpg	99
2166.341	0.549	548.9	congruent	Block2	congruent/STIM_024.jpg	99
2169.564	0.803	803.1	congruent	Block2	congruent/STIM_025.jpg	99
2173.998	0.733	732.7	congruent	Block2	congruent/STIM_025.jpg	100
2177.37	0.704	704.5	congruent	Block2	congruent/STIM_025.jpg	100
2181.716	0.534	534.5	congruent	Block2	congruent/STIM_025.jpg	100
2184.915	0.533	532.9	congruent	Block2	congruent/STIM_025.jpg	99
2189.128	0.563	562.7	congruent	Block2	congruent/STIM_026.jpg	99
2193.096	0.471	471.4	congruent	Block2	congruent/STIM_026.jpg	99
2197.444	0.461	460.7	congruent	Block2	congruent/STIM_026.jpg	100
2201.667	0.462	461.5	congruent	Block2	congruent/STIM_026.jpg	100
2204.61	0.55	550.3	congruent	Block2	congruent/STIM_026.jpg	100
2208.772	0.608	607.7	congruent	Block2	congruent/STIM_027.jpg	100
2212.491	0.698	698.3	congruent	Block2	congruent/STIM_027.jpg	99
2216.865	0.477	477.1	congruent	Block2	congruent/STIM_027.jpg	100
2219.461	0.501	500.6	congruent	Block2	congruent/STIM_027.jpg	100
2222.087	0.626	625.6	congruent	Block2	congruent/STIM_027.jpg	100
2225.224	0.698	697.8	congruent	Block2	congruent/STIM_028.jpg	100
2228.565	0.619	619.3	congruent	Block2	congruent/STIM_028.jpg	99
2231.185	0.7	700.1	congruent	Block2	congruent/STIM_028.jpg	99
2234.385	0.661	660.9	congruent	Block2	congruent/STIM_028.jpg	100
2238.026	0.638	638.0	congruent	Block2	congruent/STIM_028.jpg	100
2242.638	0.578	578.4	congruent	Block2	congruent/STIM_029.jpg	99
2246.243	0.693	692.8	congruent	Block2	congruent/STIM_029.jpg	99
2249.239	0.695	695.3	congruent	Block2	congruent/STIM_029.jpg	100
2253.89	0.654	654.5	congruent	Block2	congruent/STIM_029.jpg	100
2256.938	0.494	494.2	congruent	Block2	congruent/STIM_029.jpg	99
2260.006	0.908	907.6	incongruent	Block3	incongruent/STIM_000.jpg	99
2264.37	0.627	627.4	incongruent	Block3	incongruent/STIM_000.jpg	99
2267.424	0.906	905.7	incongruent	Block3	incongruent/STIM_000.jpg	100
2270.386	0.869	868.7	incongruent	Block3	incongruent/STIM_000.jpg	100
2273.332	0.747	746.6	incongruent	Block3	incongruent/STIM_000.jpg	100
2276.866	0.893	893.0	incongruent	Block3	incongruent/STIM_001.jpg	100
2280.178	0.524	524.2	incongruent	Block3	incongruent/STIM_001.jpg	99
2284.587	0.917	917.4	incongruent	Block3	incongruent/STIM_001.jpg	99
2288.338	0.56	559.6	incongruent	Block3	incongruent/STIM_001.jpg	99
2291.518	0.82	819.8	incongruent	Block3	incongruent/STIM_001.jpg	99
2295.329	0.852	852.3	incongruent	Block3	incongruent/STIM_002.jpg	99
2299.067	0.552	551.9	incongruent	Block3	incongruent/STIM_002.jpg	99
2302.49	0.702	702.1	incongruent	Block3	incongruent/STIM_002.jpg	100
2306.63	0.879	878.9	incongruent	Block3	incongruent/STIM_002.jpg	100
2310.64	0.712	712.1	incongruent	Block3	incongruent/STIM_002.jpg	100
2313.779	0.781	780.8	incongruent	Block3	incongruent/STIM_003.jpg	99
2316.957	0.739	738.7	incongruent	Block3	incongruent/STIM_003.jpg	99
2319.896	0.626	626.0	incongruent	Block3	incongruent/STIM_003.jpg	100
2322.867	0.937	937.4	incongruent	Block3	incongruent/STIM_003.jpg	99
2327.527	0.556	556.3	incongruent	Block3	incongruent/STIM_003.jpg	100
2330.79	0.538	537.5	incongruent	Block3	incongruent/STIM_004.jpg	99
2334.518	0.626	626.1	incongruent	Block3	incongruent/STIM_004.jpg	99
2339.144	0.787	787.2	incongruent	Block3	incongruent/STIM_004.jpg	99
2342.501	0.798	797.8	incongruent	Block3	incongruent/STIM_004.jpg	99
2346.099	0.47	469.5	incongruent	Block3	incongruent/STIM_004.jpg	99
2350.227	0.674	673.9	incongruent	Block3	incongruent/STIM_005.jpg	99
2354.078	0.804	803.8	incongruent	Block3	incongruent/STIM_005.jpg	100
2358.162	0.536	535.8	incongruent	Block3	incongruent/STIM_005.jpg	100
2361.02	0.853	852.9	incongruent	Block3	incongruent/STIM_005.jpg	100
2364.417	0.507	507.2	incongruent	Block3	incongruent/STIM_005.jpg	100
2368.514	0.489	488.9	incongruent	Block3	incongruent/STIM_006.jpg	99
2371.784	0.824	823.7	incongruent	Block3	incongruent/STIM_006.jpg	100
2375.652	0.807	807.4	incongruent	Block3	incongruent/STIM_006.jpg	99
2379.373	0.662	662.1	incongruent	Block3	incongruent/STIM_006.jpg	100
2383.816	0.694	694.3	incongruent	Block3	incongruent/STIM_006.jpg	99
2386.853	0.71	710.1	incongruent	Block3	incongruent/STIM_007.jpg	100
2390.609	0.722	721.7	incongruent	Block3	incongruent/STIM_007.jpg	99
2394.438	0.783	782.8	incongruent	Block3	incongruent/STIM_007.jpg	99
2397.88	0.832	832.5	incongruent	Block3	incongruent/STIM_007.jpg	100
2401.479	0.761	761.0	incongruent	Block3	incongruent/STIM_007.jpg	100
2404.602	0.587	587.3	incongruent	Block3	incongruent/STIM_008.jpg	100
2408.769	0.757	757.3	incongruent	Block3	incongruent/STIM_008.jpg	100
2411.846	0.865	865.0	incongruent	Block3	incongruent/STIM_008.jpg	100
2415.817	0.531	530.9	incongruent	Block3	incongruent/STIM_008.jpg	99
2418.486	0.874	873.9	incongruent	Block3	incongruent/STIM_008.jpg	99
2422.913	0.557	557.1	incongruent	Block3	incongruent/STIM_009.jpg	99
2425.659	0.788	787.9	incongruent	Block3	incongruent/STIM_009.jpg	99
2429.685	0.558	557.7	incongruent	Block3	incongruent/STIM_009.jpg	99
2432.404	0.52	519.5	incongruent	Block3	incongruent/STIM_009.jpg	100
2435.592	0.564	564.1	incongruent	Block3	incongruent/STIM_009.jpg	100
2439.441	0.804	804.1	incongruent	Block3	incongruent/STIM_010.jpg	100
2442.269	0.838	837.8	incongruent	Block3	incongruent/STIM_010.jpg	99
2446.263	0.544	544.1	incongruent	Block3	incongruent/STIM_010.jpg	99
2449.005	0.502	502.1	incongruent	Block3	incongruent/STIM_010.jpg	100
2452.852	0.723	723.1	incongruent	Block3	incongruent/STIM_010.jpg	99
2455.93	0.785	784.7	incongruent	Block3	incongruent/STIM_011.jpg	100
2460.352	0.485	484.7	incongruent	Block3	incongruent/STIM_011.jpg	100
2464.003	0.468	467.5	incongruent	Block3	incongruent/STIM_011.jpg	100
2467.691	0.601	601.0	incongruent	Block3	incongruent/STIM_011.jpg	99
2470.596	0.496	495.6	incongruent	Block3	incongruent/STIM_011.jpg	99
2474.442	0.552	552.0	incongruent	Block3	incongruent/STIM_012.jpg	100
2478.992	0.523	522.8	incongruent	Block3	incongruent/STIM_012.jpg	99
2481.831	0.875	875.4	incongruent	Block3	incongruent/STIM_012.jpg	99
2486.661	0.901	900.6	incongruent	Block3	incongruent/STIM_012.jpg	100
2491.35	0.458	458.4	incongruent	Block3	incongruent/STIM_012.jpg	99
2494.85	0.643	643.0	incongruent	Block3	incongruent/STIM_013.jpg	100
2497.528	0.659	658.7	incongruent	Block3	incongruent/STIM_013.jpg	100
2501.206	0.834	833.9	incongruent	Block3	incongruent/STIM_013.jpg	99
2504.061	0.462	461.6	incongruent	Block3	incongruent/STIM_013.jpg	100
2507.339	0.557	557.2	incongruent	Block3	incongruent/STIM_013.jpg	100
2511.437	0.526	526.1	incongruent	Block3	incongruent/STIM_014.jpg	100
2514.157	0.533	533.1	incongruent	Block3	incongruent/STIM_014.jpg	99
2518.12	0.481	481.2	incongruent	Block3	incongruent/STIM_014.jpg	100
2521.754	0.534	533.8	incongruent	Block3	incongruent/STIM_014.jpg	99
2525.673	0.861	860.8	incongruent	Block3	incongruent/STIM_014.jpg	100
2530.447	0.522	521.5	incongruent	Block3	incongruent/STIM_015.jpg	100
2533.084	0.571	571.2	incongruent	Block3	incongruent/STIM_015.jpg	100
2536.668	0.775	775.0	incongruent	Block3	incongruent/STIM_015.jpg	99
2540.485	0.771	771.3	incongruent	Block3	incongruent/STIM_015.jpg	100
2544.362	0.748	748.2	incongruent	Block3	incongruent/STIM_015.jpg	99
2547.139	0.585	585.3	incongruent	Block3	incongruent/STIM_016.jpg	99
2550.524	0.533	532.9	incongruent	Block3	incongruent/STIM_016.jpg	99
2553.895	0.808	807.6	incongruent	Block3	incongruent/STIM_016.jpg	100
2558.383	0.632	632.1	incongruent	Block3	incongruent/STIM_016.jpg	100
2561.629	0.873	873.1	incongruent	Block3	incongruent/STIM_016.jpg	100
2565.509	0.872	871.9	incongruent	Block3	incongruent/STIM_017.jpg	100
2570.162	0.458	457.7	incongruent	Block3	incongruent/STIM_017.jpg	99
2574.219	0.631	631.1	incongruent	Block3	incongruent/STIM_017.jpg	99
2577.612	0.547	546.8	incongruent	Block3	incongruent/STIM_017.jpg	100
2581.067	0.497	496.7	incongruent	Block3	incongruent/STIM_017.jpg	99
2584.874	0.462	461.6	incongruent	Block3	incongruent/STIM_018.jpg	100
2588.539	0.453	452.6	incongruent	Block3	incongruent/STIM_018.jpg	99
2591.554	0.93	930.4	incongruent	Block3	incongruent/STIM_018.jpg	99
2596.038	0.545	544.7	incongruent	Block3	incongruent/STIM_018.jpg	99
2598.649	0.85	849.9	incongruent	Block3	incongruent/STIM_018.jpg	99
2601.626	0.777	777.1	incongruent	Block3	incongruent/STIM_019.jpg	99
2605.807	0.492	492.5	incongruent	Block3	incongruent/STIM_019.jpg	100
2609.088	0.818	818.2	incongruent	Block3	incongruent/STIM_019.jpg	100
2613.829	0.845	844.6	incongruent	Block3	incongruent/STIM_019.jpg	99
2618.482	0.697	696.6	incongruent	Block3	incongruent/STIM_019.jpg	99
2621.98	0.614	614.1	incongruent	Block3	incongruent/STIM_020.jpg	99
2624.733	0.448	448.3	incongruent	Block3	incongruent/STIM_020.jpg	100
2628.003	0.848	848.4	incongruent	Block3	incongruent/STIM_020.jpg	99
2631.348	0.517	516.9	incongruent	Block3	incongruent/STIM_020.jpg	100
2635.57	0.691	690.8	incongruent	Block3	incongruent/STIM_020.jpg	100
2639.318	0.784	784.0	incongruent	Block3	incongruent/STIM_021.jpg	100
2644.076	0.908	907.8	incongruent	Block3	incongruent/STIM_021.jpg	99
2648.617	0.649	648.6	incongruent	Block3	incongruent/STIM_021.jpg	99
2652.624	0.724	723.7	incongruent	Block3	incongruent/STIM_021.jpg	99
2657.259	0.649	648.7	incongruent	Block3	incongruent/STIM_021.jpg	100
2660.652	0.767	767.2	incongruent	Block3	incongruent/STIM_022.jpg	99
2664.16	0.858	857.8	incongruent	Block3	incongruent/STIM_022.jpg	100
2668.692	0.672	672.3	incongruent	Block3	incongruent/STIM_022.jpg	99
2672.615	0.665	665.4	incongruent	Block3	incongruent/STIM_022.jpg	100
2676.533	0.594	594.2	incongruent	Block3	incongruent/STIM_022.jpg	100
2679.314	0.827	826.6	incongruent	Block3	incongruent/STIM_023.jpg	99
2682.387	0.556	555.8	incongruent	Block3	incongruent/STIM_023.jpg	99
2686.233	0.748	747.8	incongruent	Block3	incongruent/STIM_023.jpg	99
2690.479	0.827	827.3	incongruent	Block3	incongruent/STIM_023.jpg	99
2693.749	0.705	704.8	incongruent	Block3	incongruent/STIM_023.jpg	100
2697.923	0.877	876.8	incongruent	Block3	incongruent/STIM_024.jpg	99
2701.563	0.481	481.0	incongruent	Block3	incongruent/STIM_024.jpg	100
2704.052	0.59	589.6	incongruent	Block3	incongruent/STIM_024.jpg	99
2706.673	0.546	545.7	incongruent	Block3	incongruent/STIM_024.jpg	99
2710.367	0.757	756.9	incongruent	Block3	incongruent/STIM_024.jpg	100
2713.438	0.921	921.4	incongruent	Block3	incongruent/STIM_025.jpg	100
2717.547	0.736	736.3	incongruent	Block3	incongruent/STIM_025.jpg	99
2720.39	0.691	690.6	incongruent	Block3	incongruent/STIM_025.jpg	99
2724.975	0.667	667.3	incongruent	Block3	incongruent/STIM_025.jpg	100
2728.873	0.476	475.9	incongruent	Block3	incongruent/STIM_025.jpg	99
2732.753	0.526	526.3	incongruent	Block3	incongruent/STIM_026.jpg	99
2736.263	0.929	928.6	incongruent	Block3	incongruent/STIM_026.jpg	100
2740.184	0.796	795.7	incongruent	Block3	incongruent/STIM_026.jpg	100
2744.445	0.758	757.6	incongruent	Block3	incongruent/STIM_026.jpg	100
2747.374	0.728	727.6	incongruent	Block3	incongruent/STIM_026.jpg	99
2751.384	0.616	615.6	incongruent	Block3	incongruent/STIM_027.jpg	100
2754.204	0.879	878.7	incongruent	Block3	incongruent/STIM_027.jpg	99
2757.891	0.651	651.3	incongruent	Block3	incongruent/STIM_027.jpg	100
2760.991	0.764	764.5	incongruent	Block3	incongruent/STIM_027.jpg	99
2764.257	0.854	853.6	incongruent	Block3	incongruent/STIM_027.jpg	100
2769.079	0.473	472.8	incongruent	Block3	incongruent/STIM_028.jpg	99
2772.208	0.827	826.8	incongruent	Block3	incongruent/STIM_028.jpg	99
2775.137	0.938	937.8	incongruent	Block3	incongruent/STIM_028.jpg	99
2779.444	0.618	618.3	incongruent	Block3	incongruent/STIM_028.jpg	99
2783.687	0.469	468.6	incongruent	Block3	incongruent/STIM_028.jpg	99
2786.579	0.611	610.9	incongruent	Block3	incongruent/STIM_029.jpg	99
2790.739	0.659	658.6	incongruent	Block3	incongruent/STIM_029.jpg	99
2795.217	0.45	449.6	incongruent	Block3	incongruent/STIM_029.jpg	100
2799.494	0.503	503.3	incongruent	Block3	incongruent/STIM_029.jpg	100
2803.135	0.61	609.9	incongruent	Block3	incongruent/STIM_029.jpg	100
2807.155	0.666	666.2	congruent	Block3	congruent/STIM_000.jpg	99
2810.061	0.481	481.3	congruent	Block3	congruent/STIM_000.jpg	100
2812.587	0.502	501.9	congruent	Block3	congruent/STIM_000.jpg	99
2815.946	0.604	603.5	congruent	Block3	congruent/STIM_000.jpg	100
2818.951	0.49	489.8	congruent	Block3	congruent/STIM_000.jpg	99
2822.173	0.76	759.5	congruent	Block3	congruent/STIM_001.jpg	100
2826.397	0.583	582.9	congruent	Block3	congruent/STIM_001.jpg	100
2830.651	0.632	631.7	congruent	Block3	congruent/STIM_001.jpg	100
2833.632	0.582	582.2	congruent	Block3	congruent/STIM_001.jpg	100
2837.627	0.745	745.1	congruent	Block3	congruent/STIM_001.jpg	99
2842.014	0.751	750.8	congruent	Block3	congruent/STIM_002.jpg	99
2846.349	0.742	741.5	congruent	Block3	congruent/STIM_002.jpg	99
2850.843	0.667	667.2	congruent	Block3	congruent/STIM_002.jpg	99
2855.337	0.7	700.0	congruent	Block3	congruent/STIM_002.jpg	100
2859.575	0.677	677.4	congruent	Block3	congruent/STIM_002.jpg	100
2863.538	0.663	662.8	congruent	Block3	congruent/STIM_003.jpg	99
2867.409	0.586	585.6	congruent	Block3	congruent/STIM_003.jpg	100
2870.693	0.455	454.7	congruent	Block3	congruent/STIM_003.jpg	99
2873.358	0.506	506.1	congruent	Block3	congruent/STIM_003.jpg	100
2877.753	0.672	672.1	congruent	Block3	congruent/STIM_003.jpg	99
2882.342	0.783	782.6	congruent	Block3	congruent/STIM_004.jpg	99
2886.916	0.756	755.6	congruent	Block3	congruent/STIM_004.jpg	99
2889.895	0.604	604.0	congruent	Block3	congruent/STIM_004.jpg	100
2893.54	0.452	452.4	congruent	Block3	congruent/STIM_004.jpg	99
2896.516	0.612	612.2	congruent	Block3	congruent/STIM_004.jpg	99
2899.643	0.62	620.4	congruent	Block3	congruent/STIM_005.jpg	99
2902.893	0.634	634.2	congruent	Block3	congruent/STIM_005.jpg	100
2906.961	0.656	656.3	congruent	Block3	congruent/STIM_005.jpg	100
2911.52	0.513	512.7	congruent	Block3	congruent/STIM_005.jpg	100
2915.509	0.596	595.8	congruent	Block3	congruent/STIM_005.jpg	99
2918.765	0.604	604.4	congruent	Block3	congruent/STIM_006.jpg	100
2922.928	0.776	775.8	congruent	Block3	congruent/STIM_006.jpg	99
2926.96	0.631	631.4	congruent	Block3	congruent/STIM_006.jpg	99
2931.154	0.639	639.1	congruent	Block3	congruent/STIM_006.jpg	99
2934.502	0.733	732.6	congruent	Block3	congruent/STIM_006.jpg	100
2937.954	0.576	575.5	congruent	Block3	congruent/STIM_007.jpg	100
2942.354	0.597	596.8	congruent	Block3	congruent/STIM_007.jpg	100
2945.22	0.726	725.7	congruent	Block3	congruent/STIM_007.jpg	99
2948.168	0.712	712.5	congruent	Block3	congruent/STIM_007.jpg	99
2951.508	0.744	743.5	congruent	Block3	congruent/STIM_007.jpg	99
2955.659	0.572	572.0	congruent	Block3	congruent/STIM_008.jpg	99
2959.847	0.523	522.8	congruent	Block3	congruent/STIM_008.jpg	99
2963.76	0.551	550.8	congruent	Block3	congruent/STIM_008.jpg	99
2966.897	0.628	627.8	congruent	Block3	congruent/STIM_008.jpg	100
2971.322	0.532	531.9	congruent	Block3	congruent/STIM_008.jpg	99
2974.992	0.748	747.8	congruent	Block3	congruent/STIM_009.jpg	100
2977.974	0.574	573.7	congruent	Block3	congruent/STIM_009.jpg	100
2981.267	0.683	683.3	congruent	Block3	congruent/STIM_009.jpg	100
2985.107	0.491	491.4	congruent	Block3	congruent/STIM_009.jpg	100
2988.197	0.621	621.4	congruent	Block3	congruent/STIM_009.jpg	99
2992.105	0.564	563.8	congruent	Block3	congruent/STIM_010.jpg	100
2996.472	0.674	674.5	congruent	Block3	congruent/STIM_010.jpg	100
3000.34	0.624	624.0	congruent	Block3	congruent/STIM_010.jpg	99
3003.807	0.504	504.0	congruent	Block3	congruent/STIM_010.jpg	99
3007.043	0.745	744.8	congruent	Block3	congruent/STIM_010.jpg	100
3010.547	0.525	525.0	congruent	Block3	congruent/STIM_011.jpg	99
3013.719	0.675	675.1	congruent	Block3	congruent/STIM_011.jpg	100
3017.851	0.692	691.6	congruent	Block3	congruent/STIM_011.jpg	99
3022.182	0.553	553.4	congruent	Block3	congruent/STIM_011.jpg	100
3026.691	0.726	726.1	congruent	Block3	congruent/STIM_011.jpg	99
3030.679	0.523	523.0	congruent	Block3	congruent/STIM_012.jpg	99
3035.121	0.65	649.8	congruent	Block3	congruent/STIM_012.jpg	99
3039.418	0.519	518.8	congruent	Block3	congruent/STIM_012.jpg	99
3042.552	0.666	665.5	congruent	Block3	congruent/STIM_012.jpg	100
3045.278	0.706	706.0	congruent	Block3	congruent/STIM_012.jpg	99
3049.785	0.451	450.8	congruent	Block3	congruent/STIM_013.jpg	99
3053.878	0.752	751.5	congruent	Block3	congruent/STIM_013.jpg	100
3057.598	0.774	774.1	congruent	Block3	congruent/STIM_013.jpg	100
3060.718	0.571	570.9	congruent	Block3	congruent/STIM_013.jpg	100
3063.551	0.502	502.2	congruent	Block3	congruent/STIM_013.jpg	99
3067.995	0.593	593.3	congruent	Block3	congruent/STIM_014.jpg	99
3070.784	0.478	478.5	congruent	Block3	congruent/STIM_014.jpg	99
3075.025	0.751	751.3	congruent	Block3	congruent/STIM_014.jpg	100
3077.838	0.794	793.7	congruent	Block3	congruent/STIM_014.jpg	99
3082.018	0.523	523.2	congruent	Block3	congruent/STIM_014.jpg	100
3086.257	0.721	721.4	congruent	Block3	congruent/STIM_015.jpg	99
3089.769	0.478	477.6	congruent	Block3	congruent/STIM_015.jpg	99
3094.04	0.545	544.6	congruent	Block3	congruent/STIM_015.jpg	99
3098.307	0.645	644.6	congruent	Block3	congruent/STIM_015.jpg	100
3102.157	0.619	618.6	congruent	Block3	congruent/STIM_015.jpg	100
3105.565	0.597	596.9	congruent	Block3	congruent/STIM_016.jpg	100
3109.201	0.689	689.0	congruent	Block3	congruent/STIM_016.jpg	99
3113.266	0.699	698.8	congruent	Block3	congruent/STIM_016.jpg	99
3117.488	0.488	488.2	congruent	Block3	congruent/STIM_016.jpg	99
3121.382	0.797	796.8	congruent	Block3	congruent/STIM_016.jpg	100
3126.097	0.631	631.3	congruent	Block3	congruent/STIM_017.jpg	99
3130.616	0.71	710.0	congruent	Block3	congruent/STIM_017.jpg	99
3133.342	0.597	596.7	congruent	Block3	congruent/STIM_017.jpg	99
3136.128	0.776	775.8	congruent	Block3	congruent/STIM_017.jpg	99
3140.612	0.732	732.3	congruent	Block3	congruent/STIM_017.jpg	100
3144.309	0.505	505.0	congruent	Block3	congruent/STIM_018.jpg	100
3148.012	0.528	527.9	congruent	Block3	congruent/STIM_018.jpg	100
3152.222	0.616	615.6	congruent	Block3	congruent/STIM_018.jpg	99
3155.315	0.525	524.8	congruent	Block3	congruent/STIM_018.jpg	99
3158.467	0.643	642.9	congruent	Block3	congruent/STIM_018.jpg	100
3163.06	0.476	475.5	congruent	Block3	congruent/STIM_019.jpg	99
3166.199	0.75	750.2	congruent	Block3	congruent/STIM_019.jpg	99
3169.233	0.641	640.9	congruent	Block3	congruent/STIM_019.jpg	99
3173.696	0.589	589.3	congruent	Block3	congruent/STIM_019.jpg	99
3176.944	0.648	647.6	congruent	Block3	congruent/STIM_019.jpg	99
3181.471	0.602	601.6	congruent	Block3	congruent/STIM_020.jpg	100
3185.698	0.665	664.6	congruent	Block3	congruent/STIM_020.jpg	99
3188.984	0.788	788.2	congruent	Block3	congruent/STIM_020.jpg	99
3192.666	0.578	577.7	congruent	Block3	congruent/STIM_020.jpg	100
3196.634	0.601	601.2	congruent	Block3	congruent/STIM_020.jpg	100
3200.246	0.662	662.0	congruent	Block3	congruent/STIM_021.jpg	100
3203.18	0.751	751.0	congruent	Block3	congruent/STIM_021.jpg	99
3207.831	0.541	541.4	congruent	Block3	congruent/STIM_021.jpg	99
3211.614	0.518	518.5	congruent	Block3	congruent/STIM_021.jpg	100
3215.244	0.615	615.0	congruent	Block3	congruent/STIM_021.jpg	100
3219.777	0.508	508.2	congruent	Block3	congruent/STIM_022.jpg	99
3222.346	0.736	736.1	congruent	Block3	congruent/STIM_022.jpg	99
3225.568	0.619	618.8	congruent	Block3	congruent/STIM_022.jpg	99
3228.733	0.804	804.4	congruent	Block3	congruent/STIM_022.jpg	99
3231.91	0.602	601.5	congruent	Block3	congruent/STIM_022.jpg	100
3235.163	0.451	451.1	congruent	Block3	congruent/STIM_023.jpg	100
3238.43	0.503	502.6	congruent	Block3	congruent/STIM_023.jpg	99
3241.406	0.59	589.5	congruent	Block3	congruent/STIM_023.jpg	99
3245.599	0.464	463.8	congruent	Block3	congruent/STIM_023.jpg	99
3249.894	0.707	707.1	congruent	Block3	congruent/STIM_023.jpg	100
3253.384	0.712	711.6	congruent	Block3	congruent/STIM_024.jpg	99
3258.092	0.471	471.0	congruent	Block3	congruent/STIM_024.jpg	99
3261.549	0.488	487.5	congruent	Block3	congruent/STIM_024.jpg	100
3265.828	0.611	611.4	congruent	Block3	congruent/STIM_024.jpg	100
3270.368	0.664	663.9	congruent	Block3	congruent/STIM_024.jpg	100
3273.336	0.586	585.7	congruent	Block3	congruent/STIM_025.jpg	100
3276.502	0.471	470.8	congruent	Block3	congruent/STIM_025.jpg	100
3280.776	0.486	485.9	congruent	Block3	congruent/STIM_025.jpg	100
3284.606	0.617	617.3	congruent	Block3	congruent/STIM_025.jpg	100
3287.919	0.567	567.4	congruent	Block3	congruent/STIM_025.jpg	100
3291.228	0.698	698.3	congruent	Block3	congruent/STIM_026.jpg	100
3295.169	0.665	664.9	congruent	Block3	congruent/STIM_026.jpg	100
3298.833	0.763	763.3	congruent	Block3	congruent/STIM_026.jpg	100
3302.546	0.472	471.9	congruent	Block3	congruent/STIM_026.jpg	99
3305.035	0.541	540.6	congruent	Block3	congruent/STIM_026.jpg	100
3309.262	0.702	702.5	congruent	Block3	congruent/STIM_027.jpg	99
3312.382	0.565	564.6	congruent	Block3	congruent/STIM_027.jpg	99
3315.402	0.66	659.9	congruent	Block3	congruent/STIM_027.jpg	99
3319.661	0.594	593.8	congruent	Block3	congruent/STIM_027.jpg	100
3323.224	0.583	582.6	congruent	Block3	congruent/STIM_027.jpg	100
3326.884	0.458	458.4	congruent	Block3	congruent/STIM_028.jpg	99
3329.525	0.69	689.5	congruent	Block3	congruent/STIM_028.jpg	99
3333.745	0.53	529.6	congruent	Block3	congruent/STIM_028.jpg	99
3336.859	0.794	793.8	congruent	Block3	congruent/STIM_028.jpg	100
3341.38	0.78	779.9	congruent	Block3	congruent/STIM_028.jpg	100
3344.747	0.56	559.6	congruent	Block3	congruent/STIM_029.jpg	99
3349.014	0.478	478.3	congruent	Block3	congruent/STIM_029.jpg	99
3353.484	0.709	708.9	congruent	Block3	congruent/STIM_029.jpg	99
3357.715	0.554	553.6	congruent	Block3	congruent/STIM_029.jpg	100
3361.334	0.545	544.8	congruent	Block3	congruent/STIM_029.jpg	100
