onset	duration	response_time_ms	trial_type	learning_stage	stimulus	response_port
0.0	2.709	2708.8	regulate	Run1	regulate/STIM_000.jpg	99
4.791	2.656	2655.6	regulate	Run1	regulate/STIM_000.jpg	99
11.406	1.659	1659.2	regulate	Run1	regulate/STIM_000.jpg	100
15.515	2.082	2081.7	regulate	Run1	regulate/STIM_000.jpg	99
20.371	3.353	3352.9	regulate	Run1	regulate/STIM_001.jpg	100
27.359	3.505	3504.6	regulate	Run1	regulate/STIM_001.jpg	100
33.784	3.046	3045.7	regulate	Run1	regulate/STIM_001.jpg	100
40.569	3.18	3179.9	regulate	Run1	regulate/STIM_001.jpg	99
45.892	3.209	3209.4	regulate	Run1	regulate/STIM_002.jpg	100
52.454	2.584	2584.1	regulate	Run1	regulate/STIM_002.jpg	100
57.578	3.147	3146.7	regulate	Run1	regulate/STIM_002.jpg	100
63.513	2.718	2717.8	regulate	Run1	regulate/STIM_002.jpg	100
68.695	3.238	3237.5	regulate	Run1	regulate/STIM_003.jpg	100
74.128	1.934	1934.2	regulate	Run1	regulate/STIM_003.jpg	100
78.203	2.409	2409.3	regulate	Run1	regulate/STIM_003.jpg	100
83.218	2.41	2409.5	regulate	Run1	regulate/STIM_003.jpg	99
89.526	3.05	3050.1	regulate	Run1	regulate/STIM_004.jpg	99
95.399	1.76	1760.2	regulate	Run1	regulate/STIM_004.jpg	99
101.134	2.975	2974.8	regulate	Run1	regulate/STIM_004.jpg	99
107.777	2.917	2916.9	regulate	Run1	regulate/STIM_004.jpg	99
113.294	3.33	3330.4	regulate	Run1	regulate/STIM_005.jpg	99
119.37	2.456	2455.8	regulate	Run1	regulate/STIM_005.jpg	99
125.529	1.706	1706.2	regulate	Run1	regulate/STIM_005.jpg	100
130.682	1.803	1802.9	regulate	Run1	regulate/STIM_005.jpg	99
136.203	2.606	2605.7	regulate	Run1	regulate/STIM_006.jpg	99
142.296	2.634	2633.9	regulate	Run1	regulate/STIM_006.jpg	100
147.828	3.518	3518.3	regulate	Run1	regulate/STIM_006.jpg	100
155.262	3.218	3217.9	regulate	Run1	regulate/STIM_006.jpg	99
161.89	2.035	2035.4	regulate	Run1	regulate/STIM_007.jpg	99
166.303	2.584	2584.2	regulate	Run1	regulate/STIM_007.jpg	99
171.962	1.893	1892.7	regulate	Run1	regulate/STIM_007.jpg	100
176.94	1.616	1615.5	regulate	Run1	regulate/STIM_007.jpg	100
182.264	3.366	3365.8	regulate	Run1	regulate/STIM_008.jpg	100
189.509	2.142	2142.4	regulate	Run1	regulate/STIM_008.jpg	99
193.798	1.746	1745.8	regulate	Run1	regulate/STIM_008.jpg	100
198.868	2.822	2822.2	regulate	Run1	regulate/STIM_008.jpg	100
205.18	3.928	3928.4	regulate	Run1	regulate/STIM_009.jpg	99
211.798	2.227	2227.4	regulate	Run1	regulate/STIM_009.jpg	99
217.916	3.168	3167.5	regulate	Run1	regulate/STIM_009.jpg	100
224.434	2.699	2699.1	regulate	Run1	regulate/STIM_009.jpg	99
230.239	1.841	1841.1	regulate	Run1	regulate/STIM_010.jpg	100
234.22	3.341	3341.2	regulate	Run1	regulate/STIM_010.jpg	99
240.636	2.94	2939.9	regulate	Run1	regulate/STIM_010.jpg	99
246.858	3.106	3106.3	regulate	Run1	regulate/STIM_010.jpg	100
252.515	2.05	2049.5	regulate	Run1	regulate/STIM_011.jpg	100
258.231	3.785	3784.9	regulate	Run1	regulate/STIM_011.jpg	100
264.312	2.93	2930.3	regulate	Run1	regulate/STIM_011.jpg	100
270.178	2.406	2405.9	regulate	Run1	regulate/STIM_011.jpg	100
276.581	1.762	1762.4	regulate	Run1	regulate/STIM_012.jpg	99
280.908	2.766	2766.4	regulate	Run1	regulate/STIM_012.jpg	100
286.374	3.42	3420.5	regulate	Run1	regulate/STIM_012.jpg	99
293.477	2.708	2708.1	regulate	Run1	regulate/STIM_012.jpg	99
298.833	3.316	3316.3	regulate	Run1	regulate/STIM_013.jpg	99
304.534	3.144	3143.8	regulate	Run1	regulate/STIM_013.jpg	100
309.691	3.474	3473.8	regulate	Run1	regulate/STIM_013.jpg	100
315.514	1.746	1746.0	regulate	Run1	regulate/STIM_013.jpg	100
319.867	2.265	2264.7	regulate	Run1	regulate/STIM_014.jpg	99
325.135	2.933	2933.3	regulate	Run1	regulate/STIM_014.jpg	99
330.769	2.788	2787.7	regulate	Run1	regulate/STIM_014.jpg	100
336.759	1.504	1504.1	regulate	Run1	regulate/STIM_014.jpg	99
342.028	3.54	3540.2	regulate	Run1	regulate/STIM_015.jpg	100
349.235	2.019	2019.1	regulate	Run1	regulate/STIM_015.jpg	100
353.856	2.865	2865.2	regulate	Run1	regulate/STIM_015.jpg	100
360.389	2.404	2404.2	regulate	Run1	regulate/STIM_015.jpg	100
365.94	3.862	3861.7	regulate	Run1	regulate/STIM_016.jpg	99
373.523	1.971	1971.2	regulate	Run1	regulate/STIM_016.jpg	99
378.968	2.921	2921.3	regulate	Run1	regulate/STIM_016.jpg	99
385.01	1.556	1556.5	regulate	Run1	regulate/STIM_016.jpg	100
388.65	2.597	2597.2	regulate	Run1	regulate/STIM_017.jpg	99
394.674	1.909	1908.9	regulate	Run1	regulate/STIM_017.jpg	99
400.055	3.428	3428.4	regulate	Run1	regulate/STIM_017.jpg	99
407.132	1.788	1788.4	regulate	Run1	regulate/STIM_017.jpg	99
411.305	2.114	2113.9	regulate	Run1	regulate/STIM_018.jpg	100
416.21	3.56	3559.7	regulate	Run1	regulate/STIM_018.jpg	99
421.993	1.786	1786.4	regulate	Run1	regulate/STIM_018.jpg	100
427.425	2.566	2565.8	regulate	Run1	regulate/STIM_018.jpg	100
432.728	3.147	3146.7	regulate	Run1	regulate/STIM_019.jpg	99
439.798	1.709	1709.4	regulate	Run1	regulate/STIM_019.jpg	100
443.759	2.062	2061.6	regulate	Run1	regulate/STIM_019.jpg	100
448.728	2.711	2710.8	regulate	Run1	regulate/STIM_019.jpg	100
454.21	2.96	2960.4	regulate	Run1	regulate/STIM_020.jpg	100
460.347	2.719	2718.6	regulate	Run1	regulate/STIM_020.jpg	99
465.112	3.55	3549.5	regulate	Run1	regulate/STIM_020.jpg	99
471.848	2.737	2737.3	regulate	Run1	regulate/STIM_020.jpg	100
477.2	3.096	3096.0	regulate	Run1	regulate/STIM_021.jpg	100
482.804	2.215	2214.8	regulate	Run1	regulate/STIM_021.jpg	99
488.798	3.447	3447.1	regulate	Run1	regulate/STIM_021.jpg	99
495.932	2.559	2558.9	regulate	Run1	regulate/STIM_021.jpg	100
500.658	3.765	3764.9	regulate	Run1	regulate/STIM_022.jpg	99
506.538	2.957	2957.1	regulate	Run1	regulate/STIM_022.jpg	99
513.168	2.95	2950.1	regulate	Run1	regulate/STIM_022.jpg	99
519.807	2.023	2022.7	regulate	Run1	regulate/STIM_022.jpg	100
524.394	2.201	2201.0	regulate	Run1	regulate/STIM_023.jpg	100
528.661	3.664	3664.0	regulate	Run1	regulate/STIM_023.jpg	100
535.487	2.649	2649.2	regulate	Run1	regulate/STIM_023.jpg	100
541.809	2.537	2536.6	regulate	Run1	regulate/STIM_023.jpg	100
547.397	3.649	3649.2	regulate	Run1	regulate/STIM_024.jpg	99
554.175	3.387	3387.2	regulate	Run1	regulate/STIM_024.jpg	100
560.468	3.562	3561.9	regulate	Run1	regulate/STIM_024.jpg	100
567.041	2.015	2014.6	regulate	Run1	regulate/STIM_024.jpg	99
572.689	3.24	3239.6	regulate	Run1	regulate/STIM_025.jpg	99
578.791	3.358	3358.3	regulate	Run1	regulate/STIM_025.jpg	100
584.285	1.84	1840.5	regulate	Run1	regulate/STIM_025.jpg	100
588.407	3.36	3359.5	regulate	Run1	regulate/STIM_025.jpg	99
594.822	2.431	2430.7	regulate	Run1	regulate/STIM_026.jpg	99
601.014	3.694	3693.5	regulate	Run1	regulate/STIM_026.jpg	100
606.907	2.381	2380.9	regulate	Run1	regulate/STIM_026.jpg	100
612.933	2.867	2867.1	regulate	Run1	regulate/STIM_026.jpg	100
618.08	4.0	4000.2	regulate	Run1	regulate/STIM_027.jpg	99
625.953	1.742	1742.3	regulate	Run1	regulate/STIM_027.jpg	99
631.365	3.26	3260.3	regulate	Run1	regulate/STIM_027.jpg	100
637.492	1.642	1641.6	regulate	Run1	regulate/STIM_027.jpg	100
642.886	3.473	3472.7	regulate	Run1	regulate/STIM_028.jpg	100
649.049	2.706	2706.2	regulate	Run1	regulate/STIM_028.jpg	100
655.506	3.399	3399.0	regulate	Run1	regulate/STIM_028.jpg	99
661.276	1.62	1620.2	regulate	Run1	regulate/STIM_028.jpg	99
666.605	2.599	2598.8	regulate	Run1	regulate/STIM_029.jpg	100
672.76	1.94	1939.8	regulate	Run1	regulate/STIM_029.jpg	99
678.082	1.673	1673.0	regulate	Run1	regulate/STIM_029.jpg	99
682.152	3.106	3105.8	regulate	Run1	regulate/STIM_029.jpg	100
687.439	1.444	1444.0	observe	Run1	observe/STIM_000.jpg	99
690.995	1.593	1593.1	observe	Run1	observe/STIM_000.jpg	100
696.307	1.623	1623.4	observe	Run1	observe/STIM_000.jpg	100
700.476	1.284	1284.2	observe	Run1	observe/STIM_000.jpg	100
704.229	1.492	1492.3	observe	Run1	observe/STIM_001.jpg	100
708.584	1.095	1095.0	observe	Run1	observe/STIM_001.jpg	99
713.253	1.095	1094.6	observe	Run1	observe/STIM_001.jpg	100
718.171	1.514	1514.4	observe	Run1	observe/STIM_001.jpg	100
722.106	1.742	1741.9	observe	Run1	observe/STIM_002.jpg	100
726.885	1.679	1678.7	observe	Run1	observe/STIM_002.jpg	99
732.34	1.404	1404.4	observe	Run1	observe/STIM_002.jpg	99
736.418	1.556	1556.4	observe	Run1	observe/STIM_002.jpg	99
740.471	1.684	1684.2	observe	Run1	observe/STIM_003.jpg	100
745.244	1.209	1209.3	observe	Run1	observe/STIM_003.jpg	100
749.045	1.072	1071.7	observe	Run1	observe/STIM_003.jpg	99
753.243	1.102	1102.3	observe	Run1	observe/STIM_003.jpg	99
757.167	1.13	1130.1	observe	Run1	observe/STIM_004.jpg	99
761.874	1.776	1776.5	observe	Run1	observe/STIM_004.jpg	100
766.729	1.095	1095.1	observe	Run1	observe/STIM_004.jpg	100
770.252	1.233	1233.4	observe	Run1	observe/STIM_004.jpg	100
775.015	1.692	1691.6	observe	Run1	observe/STIM_005.jpg	100
779.079	1.262	1261.5	observe	Run1	observe/STIM_005.jpg	100
782.56	1.349	1348.8	observe	Run1	observe/STIM_005.jpg	99
787.843	1.26	1260.1	observe	Run1	observe/STIM_005.jpg	99
792.695	1.376	1376.2	observe	Run1	observe/STIM_006.jpg	100
796.684	1.781	1781.2	observe	Run1	observe/STIM_006.jpg	99
801.182	1.622	1622.1	observe	Run1	observe/STIM_006.jpg	100
806.64	1.493	1492.9	observe	Run1	observe/STIM_006.jpg	99
811.053	1.09	1090.5	observe	Run1	observe/STIM_007.jpg	100
815.051	1.02	1020.5	observe	Run1	observe/STIM_007.jpg	100
819.128	1.047	1046.8	observe	Run1	observe/STIM_007.jpg	99
823.764	1.134	1133.8	observe	Run1	observe/STIM_007.jpg	99
827.929	1.628	1628.3	observe	Run1	observe/STIM_008.jpg	99
833.082	1.51	1509.7	observe	Run1	observe/STIM_008.jpg	100
837.609	1.509	1509.0	observe	Run1	observe/STIM_008.jpg	100
842.355	1.501	1501.4	observe	Run1	observe/STIM_008.jpg	99
847.444	1.036	1036.4	observe	Run1	observe/STIM_009.jpg	99
851.153	1.118	1118.2	observe	Run1	observe/STIM_009.jpg	100
854.88	1.137	1136.7	observe	Run1	observe/STIM_009.jpg	99
859.766	1.0	1000.3	observe	Run1	observe/STIM_009.jpg	100
863.869	1.764	1764.4	observe	Run1	observe/STIM_010.jpg	99
869.505	1.353	1353.0	observe	Run1	observe/STIM_010.jpg	99
873.888	1.657	1657.2	observe	Run1	observe/STIM_010.jpg	99
877.634	1.12	1120.0	observe	Run1	observe/STIM_010.jpg	100
880.854	1.705	1704.7	observe	Run1	observe/STIM_011.jpg	100
886.171	1.704	1703.6	observe	Run1	observe/STIM_011.jpg	99
890.985	1.707	1707.4	observe	Run1	observe/STIM_011.jpg	100
895.041	1.396	1395.6	observe	Run1	observe/STIM_011.jpg	100
900.044	1.713	1713.0	observe	Run1	observe/STIM_012.jpg	99
905.561	1.654	1654.2	observe	Run1	observe/STIM_012.jpg	99
909.286	1.705	1704.7	observe	Run1	observe/STIM_012.jpg	100
913.392	1.244	1244.1	observe	Run1	observe/STIM_012.jpg	100
917.716	1.171	1170.7	observe	Run1	observe/STIM_013.jpg	99
922.517	1.07	1069.5	observe	Run1	observe/STIM_013.jpg	99
927.057	1.241	1240.9	observe	Run1	observe/STIM_013.jpg	100
931.553	1.492	1492.5	observe	Run1	observe/STIM_013.jpg	99
936.938	0.926	926.3	observe	Run1	observe/STIM_014.jpg	99
941.297	0.988	988.4	observe	Run1	observe/STIM_014.jpg	99
944.417	1.362	1362.4	observe	Run1	observe/STIM_014.jpg	100
949.146	1.669	1668.7	observe	Run1	observe/STIM_014.jpg	99
953.11	1.735	1735.0	observe	Run1	observe/STIM_015.jpg	100
958.69	1.638	1638.4	observe	Run1	observe/STIM_015.jpg	99
963.334	1.609	1609.0	observe	Run1	observe/STIM_015.jpg	99
968.299	1.06	1060.2	observe	Run1	observe/STIM_015.jpg	100
971.978	1.549	1549.2	observe	Run1	observe/STIM_016.jpg	100
977.009	1.151	1151.4	observe	Run1	observe/STIM_016.jpg	100
981.713	1.638	1637.8	observe	Run1	observe/STIM_016.jpg	100
985.43	1.447	1447.4	observe	Run1	observe/STIM_016.jpg	100
989.096	1.428	1427.8	observe	Run1	observe/STIM_017.jpg	99
993.432	1.279	1278.8	observe	Run1	observe/STIM_017.jpg	100
997.071	1.575	1575.1	observe	Run1	observe/STIM_017.jpg	99
1000.956	1.262	1262.5	observe	Run1	observe/STIM_017.jpg	99
1005.093	1.301	1301.3	observe	Run1	observe/STIM_018.jpg	100
1009.728	1.52	1520.1	observe	Run1	observe/STIM_018.jpg	100
1013.969	1.043	1042.8	observe	Run1	observe/STIM_018.jpg	99
1018.575	1.177	1177.3	observe	Run1	observe/STIM_018.jpg	99
1023.239	1.211	1210.8	observe	Run1	observe/STIM_019.jpg	99
1027.575	1.369	1369.4	observe	Run1	observe/STIM_019.jpg	100
1032.231	0.942	942.0	observe	Run1	observe/STIM_019.jpg	99
1037.118	1.256	1255.7	observe	Run1	observe/STIM_019.jpg	99
1042.035	2.079	2079.4	regulate	Run2	regulate/STIM_000.jpg	100
1046.736	2.453	2452.6	regulate	Run2	regulate/STIM_000.jpg	99
1053.162	2.415	2414.8	regulate	Run2	regulate/STIM_000.jpg	99
1058.947	2.152	2152.0	regulate	Run2	regulate/STIM_000.jpg	100
1065.089	3.128	3127.6	regulate	Run2	regulate/STIM_001.jpg	99
1071.084	2.124	2123.6	regulate	Run2	regulate/STIM_001.jpg	99
1075.679	2.017	2017.4	regulate	Run2	regulate/STIM_001.jpg	99
1079.995	1.43	1429.5	regulate	Run2	regulate/STIM_001.jpg	100
1084.479	3.194	3193.6	regulate	Run2	regulate/STIM_002.jpg	99
1089.765	1.967	1966.9	regulate	Run2	regulate/STIM_002.jpg	99
1094.584	2.632	2631.5	regulate	Run2	regulate/STIM_002.jpg	99
1101.03	1.42	1420.1	regulate	Run2	regulate/STIM_002.jpg	100
1105.227	3.292	3291.6	regulate	Run2	regulate/STIM_003.jpg	99
1111.654	1.412	1411.7	regulate	Run2	regulate/STIM_003.jpg	99
1116.768	2.963	2963.4	regulate	Run2	regulate/STIM_003.jpg	100
1123.344	1.587	1587.3	regulate	Run2	regulate/STIM_003.jpg	100
1128.42	2.365	2365.3	regulate	Run2	regulate/STIM_004.jpg	99
1133.253	2.012	2012.3	regulate	Run2	regulate/STIM_004.jpg	100
1138.132	2.595	2594.7	regulate	Run2	regulate/STIM_004.jpg	99
1142.953	1.24	1239.6	regulate	Run2	regulate/STIM_004.jpg	100
1147.372	3.18	3179.9	regulate	Run2	regulate/STIM_005.jpg	100
1153.558	1.413	1413.2	regulate	Run2	regulate/STIM_005.jpg	100
1157.826	1.806	1806.3	regulate	Run2	regulate/STIM_005.jpg	99
1162.019	2.8	2800.1	regulate	Run2	regulate/STIM_005.jpg	100
1168.756	1.657	1657.3	regulate	Run2	regulate/STIM_006.jpg	99
1173.638	2.964	2963.9	regulate	Run2	regulate/STIM_006.jpg	100
1180.275	1.6	1600.3	regulate	Run2	regulate/STIM_006.jpg	99
1185.658	2.795	2795.1	regulate	Run2	regulate/STIM_006.jpg	100
1191.702	3.216	3215.5	regulate	Run2	regulate/STIM_007.jpg	99
1197.836	2.266	2265.9	regulate	Run2	regulate/STIM_007.jpg	100
1203.104	1.504	1504.4	regulate	Run2	regulate/STIM_007.jpg	100
1207.765	1.398	1398.3	regulate	Run2	regulate/STIM_007.jpg	99
1211.324	2.24	2240.2	regulate	Run2	regulate/STIM_008.jpg	100
1215.745	1.494	1494.4	regulate	Run2	regulate/STIM_008.jpg	100
1220.394	2.749	2749.2	regulate	Run2	regulate/STIM_008.jpg	99
1226.674	2.622	2622.4	regulate	Run2	regulate/STIM_008.jpg	99
1231.829	2.358	2358.3	regulate	Run2	regulate/STIM_009.jpg	99
1237.86	2.509	2509.2	regulate	Run2	regulate/STIM_009.jpg	100
1242.844	1.373	1373.1	regulate	Run2	regulate/STIM_009.jpg	99
1246.594	1.466	1466.3	regulate	Run2	regulate/STIM_009.jpg	99
1250.371	2.343	2343.2	regulate	Run2	regulate/STIM_010.jpg	99
1255.01	2.661	2661.4	regulate	Run2	regulate/STIM_010.jpg	99
1259.672	1.541	1541.2	regulate	Run2	regulate/STIM_010.jpg	100
1263.649	2.079	2078.6	regulate	Run2	regulate/STIM_010.jpg	99
1268.921	2.994	2994.3	regulate	Run2	regulate/STIM_011.jpg	100
1274.346	1.633	1633.4	regulate	Run2	regulate/STIM_011.jpg	100
1279.417	2.332	2331.7	regulate	Run2	regulate/STIM_011.jpg	100
1285.023	1.83	1830.0	regulate	Run2	regulate/STIM_011.jpg	100
1290.315	2.366	2365.7	regulate	Run2	regulate/STIM_012.jpg	100
1294.997	2.205	2204.8	regulate	Run2	regulate/STIM_012.jpg	99
1300.593	2.689	2689.3	regulate	Run2	regulate/STIM_012.jpg	100
1305.507	2.778	2777.8	regulate	Run2	regulate/STIM_012.jpg	99
1311.959	2.49	2490.3	regulate	Run2	regulate/STIM_013.jpg	99
1318.334	1.872	1871.6	regulate	Run2	regulate/STIM_013.jpg	100
1322.814	1.512	1512.3	regulate	Run2	regulate/STIM_013.jpg	99
1327.507	2.711	2711.4	regulate	Run2	regulate/STIM_013.jpg	100
1334.017	2.977	2977.1	regulate	Run2	regulate/STIM_014.jpg	99
1339.357	1.702	1702.5	regulate	Run2	regulate/STIM_014.jpg	99
1344.4	1.936	1936.3	regulate	Run2	regulate/STIM_014.jpg	99
1349.047	2.755	2755.2	regulate	Run2	regulate/STIM_014.jpg	99
1354.073	1.91	1910.2	regulate	Run2	regulate/STIM_015.jpg	100
1358.012	2.786	2786.3	regulate	Run2	regulate/STIM_015.jpg	100
1362.826	2.073	2073.2	regulate	Run2	regulate/STIM_015.jpg	99
1367.298	1.856	1856.0	regulate	Run2	regulate/STIM_015.jpg	100
1371.22	1.864	1863.6	regulate	Run2	regulate/STIM_016.jpg	99
1376.693	2.894	2893.6	regulate	Run2	regulate/STIM_016.jpg	99
1381.615	1.426	1426.2	regulate	Run2	regulate/STIM_016.jpg	99
1386.417	2.74	2740.4	regulate	Run2	regulate/STIM_016.jpg	100
1391.521	2.903	2902.8	regulate	Run2	regulate/STIM_017.jpg	99
1398.12	1.873	1873.0	regulate	Run2	regulate/STIM_017.jpg	100
1403.527	2.981	2980.6	regulate	Run2	regulate/STIM_017.jpg	99
1410.054	2.741	2741.1	regulate	Run2	regulate/STIM_017.jpg	100
1415.257	2.657	2657.0	regulate	Run2	regulate/STIM_018.jpg	99
1420.481	2.982	2982.5	regulate	Run2	regulate/STIM_018.jpg	100
1426.259	2.444	2444.2	regulate	Run2	regulate/STIM_018.jpg	99
1431.926	1.726	1725.7	regulate	Run2	regulate/STIM_018.jpg	99
1435.815	1.978	1977.8	regulate	Run2	regulate/STIM_019.jpg	100
1440.281	1.767	1766.7	regulate	Run2	regulate/STIM_019.jpg	99
1444.568	2.908	2907.6	regulate	Run2	regulate/STIM_019.jpg	99
1450.403	1.412	1412.0	regulate	Run2	regulate/STIM_019.jpg	99
1454.383	1.763	1762.7	regulate	Run2	regulate/STIM_020.jpg	100
1458.852	2.912	2912.4	regulate	Run2	regulate/STIM_020.jpg	100
1464.331	2.579	2578.6	regulate	Run2	regulate/STIM_020.jpg	99
1470.648	1.563	1563.0	regulate	Run2	regulate/STIM_020.jpg	99
1474.56	2.051	2050.6	regulate	Run2	regulate/STIM_021.jpg	99
1480.409	1.938	1938.1	regulate	Run2	regulate/STIM_021.jpg	100
1485.055	2.25	2250.5	regulate	Run2	regulate/STIM_021.jpg	100
1489.318	1.222	1222.1	regulate	Run2	regulate/STIM_021.jpg	99
1494.234	3.273	3273.0	regulate	Run2	regulate/STIM_022.jpg	100
1501.222	3.059	3058.8	regulate	Run2	regulate/STIM_022.jpg	99
1506.675	1.338	1338.5	regulate	Run2	regulate/STIM_022.jpg	100
1511.917	2.694	2694.4	regulate	Run2	regulate/STIM_022.jpg	99
1516.704	2.827	2827.1	regulate	Run2	regulate/STIM_023.jpg	100
1522.368	1.751	1750.8	regulate	Run2	regulate/STIM_023.jpg	100
1526.862	1.964	1963.7	regulate	Run2	regulate/STIM_023.jpg	100
1530.843	1.68	1680.3	regulate	Run2	regulate/STIM_023.jpg	100
1536.075	2.518	2518.0	regulate	Run2	regulate/STIM_024.jpg	99
1541.244	2.876	2876.2	regulate	Run2	regulate/STIM_024.jpg	100
1547.671	2.848	2847.9	regulate	Run2	regulate/STIM_024.jpg	99
1552.704	1.92	1920.3	regulate	Run2	regulate/STIM_024.jpg	99
1556.824	2.014	2013.9	regulate	Run2	regulate/STIM_025.jpg	99
1560.9	1.964	1964.0	regulate	Run2	regulate/STIM_025.jpg	100
1566.639	2.061	2060.9	regulate	Run2	regulate/STIM_025.jpg	100
1571.6	2.621	2620.8	regulate	Run2	regulate/STIM_025.jpg	100
1577.554	1.533	1533.0	regulate	Run2	regulate/STIM_026.jpg	100
1581.63	1.898	1898.5	regulate	Run2	regulate/STIM_026.jpg	99
1587.379	2.977	2977.2	regulate	Run2	regulate/STIM_026.jpg	100
1592.611	2.606	2605.8	regulate	Run2	regulate/STIM_026.jpg	99
1599.127	3.123	3122.9	regulate	Run2	regulate/STIM_027.jpg	99
1605.056	2.105	2104.6	regulate	Run2	regulate/STIM_027.jpg	100
1610.818	2.147	2147.2	regulate	Run2	regulate/STIM_027.jpg	100
1616.863	1.236	1236.1	regulate	Run2	regulate/STIM_027.jpg	100
1620.142	3.353	3352.8	regulate	Run2	regulate/STIM_028.jpg	100
1627.016	1.742	1741.9	regulate	Run2	regulate/STIM_028.jpg	100
1631.452	1.926	1926.3	regulate	Run2	regulate/STIM_028.jpg	100
1637.155	1.87	1869.7	regulate	Run2	regulate/STIM_028.jpg	99
1641.551	1.748	1747.7	regulate	Run2	regulate/STIM_029.jpg	99
1645.97	2.834	2834.3	regulate	Run2	regulate/STIM_029.jpg	100
1650.945	1.903	1903.1	regulate	Run2	regulate/STIM_029.jpg	100
1656.621	2.371	2370.6	regulate	Run2	regulate/STIM_029.jpg	99
1662.986	0.976	976.0	observe	Run2	observe/STIM_000.jpg	100
1667.675	1.617	1617.0	observe	Run2	observe/STIM_000.jpg	99
1672.831	1.606	1606.1	observe	Run2	observe/STIM_000.jpg	100
1677.013	1.462	1462.2	observe	Run2	observe/STIM_000.jpg	99
1682.098	1.648	1648.5	observe	Run2	observe/STIM_001.jpg	100
1686.478	0.979	979.0	observe	Run2	observe/STIM_001.jpg	99
1691.324	1.65	1650.5	observe	Run2	observe/STIM_001.jpg	100
1695.576	1.04	1039.7	observe	Run2	observe/STIM_001.jpg	99
1699.533	1.649	1648.8	observe	Run2	observe/STIM_002.jpg	100
1703.548	1.074	1074.0	observe	Run2	observe/STIM_002.jpg	99
1707.667	0.966	966.1	observe	Run2	observe/STIM_002.jpg	99
1712.351	1.52	1520.5	observe	Run2	observe/STIM_002.jpg	99
1717.549	1.013	1013.2	observe	Run2	observe/STIM_003.jpg	99
1722.432	1.807	1807.4	observe	Run2	observe/STIM_003.jpg	100
1726.83	1.015	1014.6	observe	Run2	observe/STIM_003.jpg	99
1731.077	1.605	1604.6	observe	Run2	observe/STIM_003.jpg	99
1735.726	1.065	1064.7	observe	Run2	observe/STIM_004.jpg	99
1739.821	1.602	1601.7	observe	Run2	observe/STIM_004.jpg	100
1743.584	1.31	1309.9	observe	Run2	observe/STIM_004.jpg	99
1747.677	1.519	1519.3	observe	Run2	observe/STIM_004.jpg	99
1751.799	1.263	1262.6	observe	Run2	observe/STIM_005.jpg	100
1756.002	1.8	1799.7	observe	Run2	observe/STIM_005.jpg	99
1760.756	1.224	1224.4	observe	Run2	observe/STIM_005.jpg	100
1764.942	1.172	1171.7	observe	Run2	observe/STIM_005.jpg	100
1768.647	1.616	1616.3	observe	Run2	observe/STIM_006.jpg	99
1772.694	1.77	1769.5	observe	Run2	observe/STIM_006.jpg	100
1776.917	1.672	1671.6	observe	Run2	observe/STIM_006.jpg	99
1782.37	1.296	1296.2	observe	Run2	observe/STIM_006.jpg	99
1787.083	1.806	1805.6	observe	Run2	observe/STIM_007.jpg	100
1792.651	1.128	1127.8	observe	Run2	observe/STIM_007.jpg	99
1796.379	0.997	996.9	observe	Run2	observe/STIM_007.jpg	100
1800.788	1.535	1535.3	observe	Run2	observe/STIM_007.jpg	99
1804.778	0.976	975.6	observe	Run2	observe/STIM_008.jpg	100
1808.498	1.216	1215.7	observe	Run2	observe/STIM_008.jpg	100
1813.322	1.016	1015.6	observe	Run2	observe/STIM_008.jpg	100
1817.718	0.973	973.4	observe	Run2	observe/STIM_008.jpg	100
1821.896	1.489	1488.8	observe	Run2	observe/STIM_009.jpg	100
1826.505	1.316	1316.1	observe	Run2	observe/STIM_009.jpg	99
1830.814	1.118	1118.1	observe	Run2	observe/STIM_009.jpg	100
1834.489	1.775	1774.8	observe	Run2	observe/STIM_009.jpg	99
1839.396	0.969	969.0	observe	Run2	observe/STIM_010.jpg	99
1843.696	1.695	1694.8	observe	Run2	observe/STIM_010.jpg	99
1848.96	1.459	1459.3	observe	Run2	observe/STIM_010.jpg	100
1853.278	0.924	924.3	observe	Run2	observe/STIM_010.jpg	100
1858.078	1.098	1098.3	observe	Run2	observe/STIM_011.jpg	99
1862.136	1.679	1679.1	observe	Run2	observe/STIM_011.jpg	100
1866.321	1.216	1216.1	observe	Run2	observe/STIM_011.jpg	99
1871.412	1.528	1528.3	observe	Run2	observe/STIM_011.jpg	100
1876.691	1.818	1818.4	observe	Run2	observe/STIM_012.jpg	100
1882.069	1.444	1444.1	observe	Run2	observe/STIM_012.jpg	100
1887.306	1.366	1366.0	observe	Run2	observe/STIM_012.jpg	99
1892.162	1.792	1792.5	observe	Run2	observe/STIM_012.jpg	100
1896.323	1.185	1184.8	observe	Run2	observe/STIM_013.jpg	99
1899.941	1.534	1533.5	observe	Run2	observe/STIM_013.jpg	99
1904.41	1.269	1268.7	observe	Run2	observe/STIM_013.jpg	100
1908.578	1.59	1590.0	observe	Run2	observe/STIM_013.jpg	99
1912.958	1.686	1686.0	observe	Run2	observe/STIM_014.jpg	100
1917.503	1.025	1025.4	observe	Run2	observe/STIM_014.jpg	99
1921.966	1.743	1743.1	observe	Run2	observe/STIM_014.jpg	100
1926.957	1.255	1255.0	observe	Run2	observe/STIM_014.jpg	99
1930.818	1.728	1727.5	observe	Run2	observe/STIM_015.jpg	100
1935.71	1.045	1044.9	observe	Run2	observe/STIM_015.jpg	99
1940.076	1.098	1098.3	observe	Run2	observe/STIM_015.jpg	99
1944.186	1.008	1008.5	observe	Run2	observe/STIM_015.jpg	100
1948.778	1.072	1071.8	observe	Run2	observe/STIM_016.jpg	99
1952.486	0.974	973.8	observe	Run2	observe/STIM_016.jpg	99
1957.406	0.922	922.0	observe	Run2	observe/STIM_016.jpg	100
1960.686	1.115	1115.3	observe	Run2	observe/STIM_016.jpg	100
1965.031	1.418	1418.4	observe	Run2	observe/STIM_017.jpg	99
1969.323	1.526	1525.7	observe	Run2	observe/STIM_017.jpg	100
1973.646	1.413	1413.1	observe	Run2	observe/STIM_017.jpg	100
1978.133	1.545	1544.7	observe	Run2	observe/STIM_017.jpg	100
1983.235	0.926	925.5	observe	Run2	observe/STIM_018.jpg	100
1986.723	1.349	1348.8	observe	Run2	observe/STIM_018.jpg	99
1991.937	1.749	1748.8	observe	Run2	observe/STIM_018.jpg	100
1997.603	1.761	1760.9	observe	Run2	observe/STIM_018.jpg	99
2002.163	0.986	986.4	observe	Run2	observe/STIM_019.jpg	100
2006.769	0.918	917.8	observe	Run2	observe/STIM_019.jpg	99
2009.747	1.053	1053.1	observe	Run2	observe/STIM_019.jpg	100
2013.927	1.126	1126.4	observe	Run2	observe/STIM_019.jpg	99
2017.487	1.954	1954.2	regulate	Run3	regulate/STIM_000.jpg	99
2021.766	1.624	1624.2	regulate	Run3	regulate/STIM_000.jpg	100
2027.274	1.221	1221.3	regulate	Run3	regulate/STIM_000.jpg	100
2032.432	2.594	2593.5	regulate	Run3	regulate/STIM_000.jpg	100
2037.495	2.565	2565.4	regulate	Run3	regulate/STIM_001.jpg	100
2042.313	1.992	1992.5	regulate	Run3	regulate/STIM_001.jpg	100
2048.1	2.694	2694.4	regulate	Run3	regulate/STIM_001.jpg	100
2053.511	2.652	2651.7	regulate	Run3	regulate/STIM_001.jpg	99
2058.788	2.041	2040.5	regulate	Run3	regulate/STIM_002.jpg	100
2063.891	1.575	1574.9	regulate	Run3	regulate/STIM_002.jpg	99
2067.845	2.328	2328.0	regulate	Run3	regulate/STIM_002.jpg	100
2072.429	1.795	1794.6	regulate	Run3	regulate/STIM_002.jpg	100
2078.12	1.914	1913.9	regulate	Run3	regulate/STIM_003.jpg	99
2083.608	1.518	1518.0	regulate	Run3	regulate/STIM_003.jpg	99
2087.661	1.894	1893.7	regulate	Run3	regulate/STIM_003.jpg	100
2092.206	1.734	1733.8	regulate	Run3	regulate/STIM_003.jpg	99
2096.384	2.695	2694.9	regulate	Run3	regulate/STIM_004.jpg	99
2102.604	2.362	2361.5	regulate	Run3	regulate/STIM_004.jpg	100
2108.334	2.71	2709.8	regulate	Run3	regulate/STIM_004.jpg	99
2113.914	1.684	1684.4	regulate	Run3	regulate/STIM_004.jpg	99
2118.037	2.174	2173.5	regulate	Run3	regulate/STIM_005.jpg	100
2122.423	2.755	2755.2	regulate	Run3	regulate/STIM_005.jpg	99
2127.831	2.226	2225.7	regulate	Run3	regulate/STIM_005.jpg	100
2133.399	1.275	1274.8	regulate	Run3	regulate/STIM_005.jpg	99
2137.347	2.384	2383.5	regulate	Run3	regulate/STIM_006.jpg	100
2142.612	1.547	1547.2	regulate	Run3	regulate/STIM_006.jpg	99
2146.371	2.6	2600.3	regulate	Run3	regulate/STIM_006.jpg	99
2152.158	1.581	1581.0	regulate	Run3	regulate/STIM_006.jpg	100
2156.139	2.404	2403.6	regulate	Run3	regulate/STIM_007.jpg	99
2160.876	1.764	1763.9	regulate	Run3	regulate/STIM_007.jpg	99
2165.036	2.563	2562.7	regulate	Run3	regulate/STIM_007.jpg	99
2171.425	2.093	2092.8	regulate	Run3	regulate/STIM_007.jpg	100
2176.086	2.09	2090.3	regulate	Run3	regulate/STIM_008.jpg	100
2180.749	2.005	2004.7	regulate	Run3	regulate/STIM_008.jpg	99
2185.369	2.497	2497.0	regulate	Run3	regulate/STIM_008.jpg	100
2190.731	1.765	1765.0	regulate	Run3	regulate/STIM_008.jpg	100
2196.259	2.198	2198.4	regulate	Run3	regulate/STIM_009.jpg	100
2201.786	2.056	2056.4	regulate	Run3	regulate/STIM_009.jpg	99
2207.822	2.183	2183.2	regulate	Run3	regulate/STIM_009.jpg	100
2213.518	1.797	1796.6	regulate	Run3	regulate/STIM_009.jpg	100
2219.227	1.413	1412.9	regulate	Run3	regulate/STIM_010.jpg	100
2222.913	2.332	2332.4	regulate	Run3	regulate/STIM_010.jpg	100
2229.243	2.385	2385.0	regulate	Run3	regulate/STIM_010.jpg	100
2234.48	2.221	2220.9	regulate	Run3	regulate/STIM_010.jpg	99
2239.176	1.297	1296.8	regulate	Run3	regulate/STIM_011.jpg	99
2243.966	2.529	2529.0	regulate	Run3	regulate/STIM_011.jpg	100
2249.586	2.697	2697.4	regulate	Run3	regulate/STIM_011.jpg	100
2256.051	1.614	1614.1	regulate	Run3	regulate/STIM_011.jpg	99
2260.423	2.359	2358.9	regulate	Run3	regulate/STIM_012.jpg	99
2265.699	2.612	2612.4	regulate	Run3	regulate/STIM_012.jpg	100
2271.769	2.37	2369.7	regulate	Run3	regulate/STIM_012.jpg	99
2276.337	1.714	1713.9	regulate	Run3	regulate/STIM_012.jpg	99
2281.05	2.68	2679.5	regulate	Run3	regulate/STIM_013.jpg	100
2286.401	1.527	1526.6	regulate	Run3	regulate/STIM_013.jpg	100
2291.407	2.747	2747.0	regulate	Run3	regulate/STIM_013.jpg	100
2296.329	2.135	2135.2	regulate	Run3	regulate/STIM_013.jpg	99
2301.196	2.046	2045.5	regulate	Run3	regulate/STIM_014.jpg	100
2307.175	2.146	2145.8	regulate	Run3	regulate/STIM_014.jpg	100
2311.916	1.522	1521.7	regulate	Run3	regulate/STIM_014.jpg	99
2316.048	2.775	2774.9	regulate	Run3	regulate/STIM_014.jpg	99
2322.223	2.379	2378.6	regulate	Run3	regulate/STIM_015.jpg	100
2327.815	1.547	1546.9	regulate	Run3	regulate/STIM_015.jpg	100
2333.194	1.225	1224.6	regulate	Run3	regulate/STIM_015.jpg	99
2337.859	2.238	2238.4	regulate	Run3	regulate/STIM_015.jpg	100
2343.952	1.469	1468.9	regulate	Run3	regulate/STIM_016.jpg	100
2347.505	1.479	1479.1	regulate	Run3	regulate/STIM_016.jpg	100
2352.61	2.183	2183.1	regulate	Run3	regulate/STIM_016.jpg	100
2356.847	1.454	1454.4	regulate	Run3	regulate/STIM_016.jpg	99
2360.751	2.009	2008.9	regulate	Run3	regulate/STIM_017.jpg	100
2365.793	1.662	1661.5	regulate	Run3	regulate/STIM_017.jpg	100
2369.612	2.166	2166.2	regulate	Run3	regulate/STIM_017.jpg	99
2374.851	2.672	2672.1	regulate	Run3	regulate/STIM_017.jpg	100
2380.397	2.184	2184.1	regulate	Run3	regulate/STIM_018.jpg	100
2384.986	2.021	2020.5	regulate	Run3	regulate/STIM_018.jpg	99
2390.898	2.694	2694.1	regulate	Run3	regulate/STIM_018.jpg	99
2396.897	1.783	1783.1	regulate	Run3	regulate/STIM_018.jpg	100
2400.865	2.478	2478.5	regulate	Run3	regulate/STIM_019.jpg	99
2405.499	1.231	1230.9	regulate	Run3	regulate/STIM_019.jpg	99
2408.804	1.358	1358.1	regulate	Run3	regulate/STIM_019.jpg	99
2412.783	2.383	2383.1	regulate	Run3	regulate/STIM_019.jpg	99
2417.937	1.727	1726.7	regulate	Run3	regulate/STIM_020.jpg	99
2423.649	1.762	1762.0	regulate	Run3	regulate/STIM_020.jpg	99
2427.752	2.074	2073.9	regulate	Run3	regulate/STIM_020.jpg	100
2432.089	1.258	1258.5	regulate	Run3	regulate/STIM_020.jpg	100
2437.218	1.668	1668.4	regulate	Run3	regulate/STIM_021.jpg	99
2442.744	2.276	2276.3	regulate	Run3	regulate/STIM_021.jpg	100
2447.244	2.3	2299.5	regulate	Run3	regulate/STIM_021.jpg	100
2453.407	2.1	2100.0	regulate	Run3	regulate/STIM_021.jpg	100
2458.267	1.595	1595.0	regulate	Run3	regulate/STIM_022.jpg	99
2462.495	1.459	1459.2	regulate	Run3	regulate/STIM_022.jpg	100
2466.936	2.761	2761.1	regulate	Run3	regulate/STIM_022.jpg	100
2473.109	2.627	2627.2	regulate	Run3	regulate/STIM_022.jpg	99
2479.456	2.512	2512.1	regulate	Run3	regulate/STIM_023.jpg	99
2485.264	2.744	2743.5	regulate	Run3	regulate/STIM_023.jpg	99
2491.161	1.372	1371.5	regulate	Run3	regulate/STIM_023.jpg	100
2494.561	2.759	2758.6	regulate	Run3	regulate/STIM_023.jpg	99
2500.813	1.911	1911.0	regulate	Run3	regulate/STIM_024.jpg	99
2505.971	1.421	1420.7	regulate	Run3	regulate/STIM_024.jpg	100
2510.224	2.062	2062.1	regulate	Run3	regulate/STIM_024.jpg	100
2514.318	1.872	1871.5	regulate	Run3	regulate/STIM_024.jpg	100
2518.881	1.928	1928.5	regulate	Run3	regulate/STIM_025.jpg	100
2523.117	1.733	1732.8	regulate	Run3	regulate/STIM_025.jpg	100
2527.374	1.813	1812.7	regulate	Run3	regulate/STIM_025.jpg	99
2531.677	1.418	1417.6	regulate	Run3	regulate/STIM_025.jpg	99
2535.65	2.579	2578.7	regulate	Run3	regulate/STIM_026.jpg	100
2541.675	2.607	2607.1	regulate	Run3	regulate/STIM_026.jpg	100
2547.625	1.539	1538.6	regulate	Run3	regulate/STIM_026.jpg	99
2552.382	1.912	1911.9	regulate	Run3	regulate/STIM_026.jpg	99
2556.846	2.433	2432.9	regulate	Run3	regulate/STIM_027.jpg	100
2562.117	2.408	2408.2	regulate	Run3	regulate/STIM_027.jpg	99
2568.497	1.456	1456.1	regulate	Run3	regulate/STIM_027.jpg	99
2572.546	1.28	1280.0	regulate	Run3	regulate/STIM_027.jpg	99
2577.479	1.46	1460.4	regulate	Run3	regulate/STIM_028.jpg	100
2581.681	1.426	1425.7	regulate	Run3	regulate/STIM_028.jpg	99
2586.907	1.51	1510.5	regulate	Run3	regulate/STIM_028.jpg	99
2591.481	1.918	1917.7	regulate	Run3	regulate/STIM_028.jpg	99
2596.171	1.611	1611.2	regulate	Run3	regulate/STIM_029.jpg	100
2600.153	2.096	2095.5	regulate	Run3	regulate/STIM_029.jpg	100
2605.003	2.244	2244.1	regulate	Run3	regulate/STIM_029.jpg	100
2610.619	1.647	1646.6	regulate	Run3	regulate/STIM_029.jpg	99
2616.064	1.043	1043.4	observe	Run3	observe/STIM_000.jpg	99
2620.609	1.497	1497.0	observe	Run3	observe/STIM_000.jpg	100
2624.257	1.08	1080.5	observe	Run3	observe/STIM_000.jpg	100
2627.508	1.429	1429.3	observe	Run3	observe/STIM_000.jpg	100
2632.918	1.215	1215.1	observe	Run3	observe/STIM_001.jpg	100
2637.396	1.303	1302.6	observe	Run3	observe/STIM_001.jpg	100
2641.887	1.049	1048.6	observe	Run3	observe/STIM_001.jpg	100
2646.205	1.661	1661.1	observe	Run3	observe/STIM_001.jpg	100
2650.362	1.124	1123.9	observe	Run3	observe/STIM_002.jpg	100
2655.26	1.301	1301.1	observe	Run3	observe/STIM_002.jpg	99
2660.443	1.747	1747.2	observe	Run3	observe/STIM_002.jpg	99
2665.688	1.58	1579.6	observe	Run3	observe/STIM_002.jpg	99
2669.599	1.156	1155.6	observe	Run3	observe/STIM_003.jpg	100
2674.336	1.21	1209.9	observe	Run3	observe/STIM_003.jpg	100
2678.222	1.35	1350.5	observe	Run3	observe/STIM_003.jpg	99
2681.611	1.38	1379.8	observe	Run3	observe/STIM_003.jpg	99
2686.625	1.347	1347.4	observe	Run3	observe/STIM_004.jpg	100
2690.83	1.108	1108.5	observe	Run3	observe/STIM_004.jpg	99
2694.925	1.071	1070.9	observe	Run3	observe/STIM_004.jpg	100
2699.125	1.729	1729.0	observe	Run3	observe/STIM_004.jpg	99
2704.174	1.131	1131.4	observe	Run3	observe/STIM_005.jpg	99
2707.556	1.633	1632.7	observe	Run3	observe/STIM_005.jpg	99
2711.829	1.351	1350.6	observe	Run3	observe/STIM_005.jpg	99
2716.279	1.29	1289.7	observe	Run3	observe/STIM_005.jpg	100
2720.629	1.0	1000.1	observe	Run3	observe/STIM_006.jpg	99
2725.068	1.043	1043.1	observe	Run3	observe/STIM_006.jpg	100
2729.679	1.302	1301.5	observe	Run3	observe/STIM_006.jpg	99
2733.597	1.051	1051.4	observe	Run3	observe/STIM_006.jpg	99
2737.562	1.338	1337.8	observe	Run3	observe/STIM_007.jpg	99
2742.041	1.395	1394.9	observe	Run3	observe/STIM_007.jpg	99
2746.087	1.205	1205.1	observe	Run3	observe/STIM_007.jpg	100
2749.342	1.009	1009.3	observe	Run3	observe/STIM_007.jpg	100
2754.06	1.13	1129.6	observe	Run3	observe/STIM_008.jpg	99
2758.388	0.97	970.0	observe	Run3	observe/STIM_008.jpg	100
2761.376	1.151	1150.7	observe	Run3	observe/STIM_008.jpg	99
2766.037	1.061	1061.3	observe	Run3	observe/STIM_008.jpg	99
2770.772	1.543	1543.4	observe	Run3	observe/STIM_009.jpg	100
2776.001	1.122	1121.5	observe	Run3	observe/STIM_009.jpg	99
2779.632	1.005	1005.3	observe	Run3	observe/STIM_009.jpg	100
2784.231	1.031	1031.0	observe	Run3	observe/STIM_009.jpg	100
2787.336	1.642	1641.5	observe	Run3	observe/STIM_010.jpg	100
2792.325	1.674	1673.7	observe	Run3	observe/STIM_010.jpg	99
2796.364	1.423	1423.4	observe	Run3	observe/STIM_010.jpg	100
2800.086	1.814	1814.5	observe	Run3	observe/STIM_010.jpg	100
2804.697	1.423	1422.8	observe	Run3	observe/STIM_011.jpg	99
2809.761	0.921	921.1	observe	Run3	observe/STIM_011.jpg	100
2814.335	1.151	1150.7	observe	Run3	observe/STIM_011.jpg	100
2819.388	0.942	942.0	observe	Run3	observe/STIM_011.jpg	100
2823.494	1.346	1345.7	observe	Run3	observe/STIM_012.jpg	100
2827.161	1.176	1176.4	observe	Run3	observe/STIM_012.jpg	100
2831.047	1.604	1603.7	observe	Run3	observe/STIM_012.jpg	99
2836.099	1.267	1266.9	observe	Run3	observe/STIM_012.jpg	100
2839.741	1.414	1414.5	observe	Run3	observe/STIM_013.jpg	100
2844.956	1.622	1621.6	observe	Run3	observe/STIM_013.jpg	99
2848.601	1.325	1325.3	observe	Run3	observe/STIM_013.jpg	100
2853.664	1.432	1432.2	observe	Run3	observe/STIM_013.jpg	99
2858.369	1.114	1113.8	observe	Run3	observe/STIM_014.jpg	100
2861.515	1.048	1048.5	observe	Run3	observe/STIM_014.jpg	99
2865.276	1.802	1802.2	observe	Run3	observe/STIM_014.jpg	99
2870.087	1.744	1744.2	observe	Run3	observe/STIM_014.jpg	99
2874.879	1.757	1757.1	observe	Run3	observe/STIM_015.jpg	99
2879.289	1.604	1604.5	observe	Run3	observe/STIM_015.jpg	99
2883.79	1.187	1186.9	observe	Run3	observe/STIM_015.jpg	99
2888.043	1.124	1123.6	observe	Run3	observe/STIM_015.jpg	100
2891.234	1.239	1239.4	observe	Run3	observe/STIM_016.jpg	100
2895.886	0.983	982.7	observe	Run3	observe/STIM_016.jpg	99
2900.104	1.427	1427.1	observe	Run3	observe/STIM_016.jpg	100
2904.699	1.217	1216.9	observe	Run3	observe/STIM_016.jpg	99
2908.104	1.354	1354.3	observe	Run3	observe/STIM_017.jpg	100
2913.265	1.182	1182.2	observe	Run3	observe/STIM_017.jpg	99
2918.254	1.658	1657.8	observe	Run3	observe/STIM_017.jpg	100
2923.141	1.543	1542.6	observe	Run3	observe/STIM_017.jpg	99
2927.161	1.559	1558.8	observe	Run3	observe/STIM_018.jpg	100
2930.985	1.766	1766.1	observe	Run3	observe/STIM_018.jpg	99
2935.458	1.376	1375.9	observe	Run3	observe/STIM_018.jpg	99
2939.357	1.598	1598.0	observe	Run3	observe/STIM_018.jpg	99
2944.502	1.24	1240.5	observe	Run3	observe/STIM_019.jpg	99
2948.713	1.328	1327.6	observe	Run3	observe/STIM_019.jpg	99
2953.633	1.618	1618.3	observe	Run3	observe/STIM_019.jpg	100
2958.608	1.632	1632.4	observe	Run3	observe/STIM_019.jpg	99
