onset	duration	response_time_ms	trial_type	learning_stage	stimulus	response_port
0.0	2.07	2070.3	regulate	Run1	regulate/STIM_000.jpg	99
5.557	3.648	3648.0	regulate	Run1	regulate/STIM_000.jpg	99
11.118	2.733	2732.8	regulate	Run1	regulate/STIM_000.jpg	100
16.214	2.111	2110.9	regulate	Run1	regulate/STIM_000.jpg	99
21.893	2.205	2205.0	regulate	Run1	regulate/STIM_001.jpg	100
27.727	2.523	2522.7	regulate	Run1	regulate/STIM_001.jpg	100
33.267	1.755	1755.2	regulate	Run1	regulate/STIM_001.jpg	100
38.694	1.454	1454.0	regulate	Run1	regulate/STIM_001.jpg	99
43.029	3.92	3920.3	regulate	Run1	regulate/STIM_002.jpg	100
49.274	3.72	3720.4	regulate	Run1	regulate/STIM_002.jpg	100
54.869	1.694	1694.0	regulate	Run1	regulate/STIM_002.jpg	100
58.929	2.652	2651.7	regulate	Run1	regulate/STIM_002.jpg	100
64.342	2.711	2711.1	regulate	Run1	regulate/STIM_003.jpg	100
70.21	1.708	1708.5	regulate	Run1	regulate/STIM_003.jpg	100
75.706	2.318	2318.2	regulate	Run1	regulate/STIM_003.jpg	100
80.857	1.895	1895.0	regulate	Run1	regulate/STIM_003.jpg	99
86.249	2.345	2345.1	regulate	Run1	regulate/STIM_004.jpg	99
92.186	3.605	3604.8	regulate	Run1	regulate/STIM_004.jpg	99
98.086	2.624	2624.4	regulate	Run1	regulate/STIM_004.jpg	99
103.482	2.76	2760.2	regulate	Run1	regulate/STIM_004.jpg	99
108.032	2.724	2724.5	regulate	Run1	regulate/STIM_005.jpg	99
114.079	3.008	3008.5	regulate	Run1	regulate/STIM_005.jpg	99
120.515	3.043	3042.8	regulate	Run1	regulate/STIM_005.jpg	100
125.504	2.902	2901.9	regulate	Run1	regulate/STIM_005.jpg	99
130.576	2.302	2301.9	regulate	Run1	regulate/STIM_006.jpg	99
135.843	3.41	3409.5	regulate	Run1	regulate/STIM_006.jpg	100
140.949	1.838	1838.4	regulate	Run1	regulate/STIM_006.jpg	100
145.012	1.476	1476.3	regulate	Run1	regulate/STIM_006.jpg	99
150.012	2.517	2517.2	regulate	Run1	regulate/STIM_007.jpg	99
155.995	3.841	3841.3	regulate	Run1	regulate/STIM_007.jpg	99
162.498	2.465	2465.4	regulate	Run1	regulate/STIM_007.jpg	100
168.182	2.777	2776.6	regulate	Run1	regulate/STIM_007.jpg	100
173.977	3.335	3335.3	regulate	Run1	regulate/STIM_008.jpg	100
179.616	2.613	2613.2	regulate	Run1	regulate/STIM_008.jpg	99
184.149	3.602	3602.1	regulate	Run1	regulate/STIM_008.jpg	100
189.393	2.556	2555.8	regulate	Run1	regulate/STIM_008.jpg	100
194.664	3.182	3181.6	regulate	Run1	regulate/STIM_009.jpg	99
200.502	3.461	3460.9	regulate	Run1	regulate/STIM_009.jpg	99
205.764	1.887	1886.6	regulate	Run1	regulate/STIM_009.jpg	100
210.608	2.729	2729.1	regulate	Run1	regulate/STIM_009.jpg	99
215.114	2.983	2983.3	regulate	Run1	regulate/STIM_010.jpg	100
219.99	2.46	2459.5	regulate	Run1	regulate/STIM_010.jpg	99
226.113	2.3	2300.3	regulate	Run1	regulate/STIM_010.jpg	99
230.44	2.497	2497.3	regulate	Run1	regulate/STIM_010.jpg	100
236.531	2.81	2810.3	regulate	Run1	regulate/STIM_011.jpg	100
241.069	3.187	3187.4	regulate	Run1	regulate/STIM_011.jpg	100
246.821	2.5	2500.3	regulate	Run1	regulate/STIM_011.jpg	100
252.576	2.811	2811.0	regulate	Run1	regulate/STIM_011.jpg	100
258.373	2.627	2627.3	regulate	Run1	regulate/STIM_012.jpg	99
264.241	3.482	3482.1	regulate	Run1	regulate/STIM_012.jpg	100
269.737	2.339	2338.7	regulate	Run1	regulate/STIM_012.jpg	99
275.353	2.516	2515.9	regulate	Run1	regulate/STIM_012.jpg	99
280.751	3.579	3579.3	regulate	Run1	regulate/STIM_013.jpg	99
286.473	3.717	3716.8	regulate	Run1	regulate/STIM_013.jpg	100
292.844	1.771	1770.7	regulate	Run1	regulate/STIM_013.jpg	100
298.322	2.552	2551.7	regulate	Run1	regulate/STIM_013.jpg	100
304.278	3.394	3394.3	regulate	Run1	regulate/STIM_014.jpg	99
310.794	3.012	3011.7	regulate	Run1	regulate/STIM_014.jpg	99
317.07	2.456	2456.0	regulate	Run1	regulate/STIM_014.jpg	100
322.58	2.644	2643.9	regulate	Run1	regulate/STIM_014.jpg	99
328.514	2.033	2033.1	regulate	Run1	regulate/STIM_015.jpg	100
332.625	3.216	3216.0	regulate	Run1	regulate/STIM_015.jpg	100
339.347	3.193	3193.3	regulate	Run1	regulate/STIM_015.jpg	100
345.191	1.939	1938.7	regulate	Run1	regulate/STIM_015.jpg	100
349.832	3.748	3747.8	regulate	Run1	regulate/STIM_016.jpg	99
356.808	3.198	3198.1	regulate	Run1	regulate/STIM_016.jpg	99
363.124	1.583	1583.3	regulate	Run1	regulate/STIM_016.jpg	99
367.152	2.329	2328.8	regulate	Run1	regulate/STIM_016.jpg	100
371.663	2.294	2293.7	regulate	Run1	regulate/STIM_017.jpg	99
376.793	1.803	1802.7	regulate	Run1	regulate/STIM_017.jpg	99
382.22	3.413	3412.8	regulate	Run1	regulate/STIM_017.jpg	99
387.4	3.266	3266.5	regulate	Run1	regulate/STIM_017.jpg	99
393.59	2.934	2934.0	regulate	Run1	regulate/STIM_018.jpg	100
398.767	3.391	3391.2	regulate	Run1	regulate/STIM_018.jpg	99
404.773	2.797	2797.0	regulate	Run1	regulate/STIM_018.jpg	100
409.409	2.773	2772.8	regulate	Run1	regulate/STIM_018.jpg	100
415.601	3.579	3579.2	regulate	Run1	regulate/STIM_019.jpg	99
421.367	2.957	2956.8	regulate	Run1	regulate/STIM_019.jpg	100
427.714	1.547	1546.9	regulate	Run1	regulate/STIM_019.jpg	100
432.82	2.622	2622.0	regulate	Run1	regulate/STIM_019.jpg	100
438.651	3.459	3458.9	regulate	Run1	regulate/STIM_020.jpg	100
445.263	3.679	3678.6	regulate	Run1	regulate/STIM_020.jpg	99
451.532	1.651	1651.3	regulate	Run1	regulate/STIM_020.jpg	99
455.188	1.809	1809.4	regulate	Run1	regulate/STIM_020.jpg	100
459.339	2.73	2729.9	regulate	Run1	regulate/STIM_021.jpg	100
464.423	2.322	2321.6	regulate	Run1	regulate/STIM_021.jpg	99
468.563	3.134	3134.2	regulate	Run1	regulate/STIM_021.jpg	99
473.704	2.87	2870.2	regulate	Run1	regulate/STIM_021.jpg	100
480.069	3.393	3393.1	regulate	Run1	regulate/STIM_022.jpg	99
485.392	1.778	1778.2	regulate	Run1	regulate/STIM_022.jpg	99
490.012	1.911	1911.3	regulate	Run1	regulate/STIM_022.jpg	99
493.862	2.846	2846.0	regulate	Run1	regulate/STIM_022.jpg	100
499.535	3.44	3439.8	regulate	Run1	regulate/STIM_023.jpg	100
504.675	3.736	3736.1	regulate	Run1	regulate/STIM_023.jpg	100
510.86	2.464	2464.4	regulate	Run1	regulate/STIM_023.jpg	100
516.072	2.531	2530.7	regulate	Run1	regulate/STIM_023.jpg	100
521.989	2.51	2510.1	regulate	Run1	regulate/STIM_024.jpg	99
527.921	3.055	3055.1	regulate	Run1	regulate/STIM_024.jpg	100
533.852	1.837	1836.6	regulate	Run1	regulate/STIM_024.jpg	100
538.757	1.728	1728.3	regulate	Run1	regulate/STIM_024.jpg	99
544.25	1.796	1796.5	regulate	Run1	regulate/STIM_025.jpg	99
548.897	2.713	2712.7	regulate	Run1	regulate/STIM_025.jpg	100
554.29	2.514	2513.7	regulate	Run1	regulate/STIM_025.jpg	100
559.56	3.028	3028.2	regulate	Run1	regulate/STIM_025.jpg	99
565.083	2.284	2284.4	regulate	Run1	regulate/STIM_026.jpg	99
569.715	2.165	2165.1	regulate	Run1	regulate/STIM_026.jpg	100
574.128	3.668	3667.8	regulate	Run1	regulate/STIM_026.jpg	100
581.107	2.977	2976.6	regulate	Run1	regulate/STIM_026.jpg	100
586.294	3.125	3125.1	regulate	Run1	regulate/STIM_027.jpg	99
591.798	2.593	2593.3	regulate	Run1	regulate/STIM_027.jpg	99
596.743	2.604	2603.9	regulate	Run1	regulate/STIM_027.jpg	100
601.226	2.726	2726.0	regulate	Run1	regulate/STIM_027.jpg	100
605.816	3.318	3317.6	regulate	Run1	regulate/STIM_028.jpg	100
612.313	3.443	3442.7	regulate	Run1	regulate/STIM_028.jpg	100
619.116	2.82	2819.9	regulate	Run1	regulate/STIM_028.jpg	99
623.689	2.575	2574.6	regulate	Run1	regulate/STIM_028.jpg	99
629.762	1.849	1848.7	regulate	Run1	regulate/STIM_029.jpg	100
634.506	3.813	3813.1	regulate	Run1	regulate/STIM_029.jpg	99
641.191	2.418	2418.3	regulate	Run1	regulate/STIM_029.jpg	99
646.913	2.694	2693.7	regulate	Run1	regulate/STIM_029.jpg	100
651.376	1.179	1179.1	observe	Run1	observe/STIM_000.jpg	99
655.416	1.208	1207.9	observe	Run1	observe/STIM_000.jpg	100
658.652	1.384	1383.6	observe	Run1	observe/STIM_000.jpg	100
663.202	1.793	1792.9	observe	Run1	observe/STIM_000.jpg	100
667.903	1.341	1341.1	observe	Run1	observe/STIM_001.jpg	100
671.944	0.999	999.1	observe	Run1	observe/STIM_001.jpg	99
675.542	1.519	1519.4	observe	Run1	observe/STIM_001.jpg	100
679.092	1.469	1468.6	observe	Run1	observe/STIM_001.jpg	100
683.332	1.701	1701.0	observe	Run1	observe/STIM_002.jpg	100
687.74	1.32	1320.3	observe	Run1	observe/STIM_002.jpg	99
691.539	1.705	1705.0	observe	Run1	observe/STIM_002.jpg	99
696.236	1.401	1400.9	observe	Run1	observe/STIM_002.jpg	99
699.551	1.316	1315.9	observe	Run1	observe/STIM_003.jpg	100
703.012	1.584	1584.0	observe	Run1	observe/STIM_003.jpg	100
706.806	1.753	1753.4	observe	Run1	observe/STIM_003.jpg	99
710.744	0.998	998.1	observe	Run1	observe/STIM_003.jpg	99
714.632	1.004	1004.5	observe	Run1	observe/STIM_004.jpg	99
718.561	1.004	1003.7	observe	Run1	observe/STIM_004.jpg	100
723.23	1.601	1601.2	observe	Run1	observe/STIM_004.jpg	100
728.033	0.944	944.4	observe	Run1	observe/STIM_004.jpg	100
730.963	1.41	1410.0	observe	Run1	observe/STIM_005.jpg	100
735.077	1.18	1180.4	observe	Run1	observe/STIM_005.jpg	100
738.467	1.649	1649.3	observe	Run1	observe/STIM_005.jpg	99
742.609	1.744	1744.2	observe	Run1	observe/STIM_005.jpg	99
747.862	1.677	1677.3	observe	Run1	observe/STIM_006.jpg	100
752.268	1.479	1478.9	observe	Run1	observe/STIM_006.jpg	99
756.274	1.409	1408.9	observe	Run1	observe/STIM_006.jpg	100
761.057	1.803	1802.7	observe	Run1	observe/STIM_006.jpg	99
766.19	1.836	1836.1	observe	Run1	observe/STIM_007.jpg	100
771.468	1.692	1692.4	observe	Run1	observe/STIM_007.jpg	100
775.123	1.776	1776.1	observe	Run1	observe/STIM_007.jpg	99
779.175	1.713	1713.3	observe	Run1	observe/STIM_007.jpg	99
784.002	1.721	1721.3	observe	Run1	observe/STIM_008.jpg	99
787.753	1.137	1137.2	observe	Run1	observe/STIM_008.jpg	100
791.548	0.898	898.3	observe	Run1	observe/STIM_008.jpg	100
795.422	1.487	1487.4	observe	Run1	observe/STIM_008.jpg	99
800.181	1.708	1708.3	observe	Run1	observe/STIM_009.jpg	99
805.666	1.309	1308.7	observe	Run1	observe/STIM_009.jpg	100
809.773	1.436	1436.1	observe	Run1	observe/STIM_009.jpg	99
814.314	1.631	1631.0	observe	Run1	observe/STIM_009.jpg	100
819.547	1.583	1583.1	observe	Run1	observe/STIM_010.jpg	99
824.139	1.832	1832.0	observe	Run1	observe/STIM_010.jpg	99
828.566	1.723	1723.3	observe	Run1	observe/STIM_010.jpg	99
834.02	1.037	1037.1	observe	Run1	observe/STIM_010.jpg	100
837.501	1.838	1837.9	observe	Run1	observe/STIM_011.jpg	100
842.214	1.77	1769.6	observe	Run1	observe/STIM_011.jpg	99
846.321	1.776	1775.5	observe	Run1	observe/STIM_011.jpg	100
851.637	0.869	868.9	observe	Run1	observe/STIM_011.jpg	100
855.751	1.571	1571.0	observe	Run1	observe/STIM_012.jpg	99
860.259	1.223	1222.7	observe	Run1	observe/STIM_012.jpg	99
865.344	1.172	1172.5	observe	Run1	observe/STIM_012.jpg	100
868.594	1.576	1576.5	observe	Run1	observe/STIM_012.jpg	100
873.225	1.524	1523.8	observe	Run1	observe/STIM_013.jpg	99
877.414	1.39	1390.2	observe	Run1	observe/STIM_013.jpg	99
881.169	0.946	945.6	observe	Run1	observe/STIM_013.jpg	100
884.147	1.166	1165.7	observe	Run1	observe/STIM_013.jpg	99
887.899	1.089	1089.4	observe	Run1	observe/STIM_014.jpg	99
892.294	1.704	1703.9	observe	Run1	observe/STIM_014.jpg	99
897.06	1.264	1264.4	observe	Run1	observe/STIM_014.jpg	100
901.418	1.666	1665.9	observe	Run1	observe/STIM_014.jpg	99
906.599	0.986	985.5	observe	Run1	observe/STIM_015.jpg	100
910.885	1.658	1657.6	observe	Run1	observe/STIM_015.jpg	99
915.698	1.068	1068.1	observe	Run1	observe/STIM_015.jpg	99
919.408	1.344	1344.3	observe	Run1	observe/STIM_015.jpg	100
924.076	1.198	1198.4	observe	Run1	observe/STIM_016.jpg	100
928.591	1.407	1407.4	observe	Run1	observe/STIM_016.jpg	100
931.935	1.051	1051.4	observe	Run1	observe/STIM_016.jpg	100
935.959	0.92	920.2	observe	Run1	observe/STIM_016.jpg	100
940.18	1.686	1686.0	observe	Run1	observe/STIM_017.jpg	99
945.07	1.743	1742.8	observe	Run1	observe/STIM_017.jpg	100
948.933	0.904	904.4	observe	Run1	observe/STIM_017.jpg	99
953.261	1.912	1912.2	observe	Run1	observe/STIM_017.jpg	99
957.79	1.022	1022.5	observe	Run1	observe/STIM_018.jpg	100
961.343	1.262	1262.5	observe	Run1	observe/STIM_018.jpg	100
965.99	1.425	1424.9	observe	Run1	observe/STIM_018.jpg	99
969.753	1.44	1440.2	observe	Run1	observe/STIM_018.jpg	99
973.851	1.368	1367.5	observe	Run1	observe/STIM_019.jpg	99
978.54	1.581	1581.2	observe	Run1	observe/STIM_019.jpg	100
982.767	1.618	1617.6	observe	Run1	observe/STIM_019.jpg	99
986.606	1.606	1606.0	observe	Run1	observe/STIM_019.jpg	99
990.087	2.39	2389.8	regulate	Run2	regulate/STIM_000.jpg	100
995.852	2.874	2873.5	regulate	Run2	regulate/STIM_000.jpg	99
1001.195	2.739	2738.6	regulate	Run2	regulate/STIM_000.jpg	99
1005.964	1.566	1565.5	regulate	Run2	regulate/STIM_000.jpg	100
1009.766	2.752	2752.3	regulate	Run2	regulate/STIM_001.jpg	99
1014.82	1.576	1576.3	regulate	Run2	regulate/STIM_001.jpg	99
1019.966	2.092	2091.5	regulate	Run2	regulate/STIM_001.jpg	99
1024.644	2.511	2510.7	regulate	Run2	regulate/STIM_001.jpg	100
1030.19	2.064	2064.1	regulate	Run2	regulate/STIM_002.jpg	99
1035.923	2.16	2159.8	regulate	Run2	regulate/STIM_002.jpg	99
1040.557	2.308	2308.5	regulate	Run2	regulate/STIM_002.jpg	99
1045.274	1.922	1921.8	regulate	Run2	regulate/STIM_002.jpg	100
1050.841	1.646	1645.6	regulate	Run2	regulate/STIM_003.jpg	99
1054.903	1.502	1501.6	regulate	Run2	regulate/STIM_003.jpg	99
1058.299	2.724	2724.4	regulate	Run2	regulate/STIM_003.jpg	100
1064.367	1.774	1773.8	regulate	Run2	regulate/STIM_003.jpg	100
1068.698	3.226	3226.4	regulate	Run2	regulate/STIM_004.jpg	99
1075.339	2.129	2129.2	regulate	Run2	regulate/STIM_004.jpg	100
1080.277	2.142	2142.1	regulate	Run2	regulate/STIM_004.jpg	99
1084.967	2.432	2431.8	regulate	Run2	regulate/STIM_004.jpg	100
1090.19	2.425	2425.2	regulate	Run2	regulate/STIM_005.jpg	100
1095.092	1.841	1841.1	regulate	Run2	regulate/STIM_005.jpg	100
1100.372	2.842	2842.5	regulate	Run2	regulate/STIM_005.jpg	99
1106.149	2.15	2149.5	regulate	Run2	regulate/STIM_005.jpg	100
1111.475	2.352	2352.4	regulate	Run2	regulate/STIM_006.jpg	99
1117.394	2.573	2572.7	regulate	Run2	regulate/STIM_006.jpg	100
1123.022	2.027	2027.5	regulate	Run2	regulate/STIM_006.jpg	99
1127.051	1.799	1798.8	regulate	Run2	regulate/STIM_006.jpg	100
1132.321	2.607	2607.0	regulate	Run2	regulate/STIM_007.jpg	99
1136.608	3.168	3168.4	regulate	Run2	regulate/STIM_007.jpg	100
1141.442	2.982	2982.0	regulate	Run2	regulate/STIM_007.jpg	100
1147.981	1.8	1800.0	regulate	Run2	regulate/STIM_007.jpg	99
1152.547	1.698	1698.5	regulate	Run2	regulate/STIM_008.jpg	100
1157.493	2.878	2877.9	regulate	Run2	regulate/STIM_008.jpg	100
1162.386	1.529	1529.0	regulate	Run2	regulate/STIM_008.jpg	99
1167.68	1.812	1812.4	regulate	Run2	regulate/STIM_008.jpg	99
1172.015	2.247	2246.8	regulate	Run2	regulate/STIM_009.jpg	99
1177.371	2.359	2358.9	regulate	Run2	regulate/STIM_009.jpg	100
1181.583	2.772	2772.5	regulate	Run2	regulate/STIM_009.jpg	99
1186.907	2.088	2088.5	regulate	Run2	regulate/STIM_009.jpg	99
1191.796	3.234	3234.1	regulate	Run2	regulate/STIM_010.jpg	99
1196.624	1.602	1601.8	regulate	Run2	regulate/STIM_010.jpg	99
1201.117	2.913	2913.1	regulate	Run2	regulate/STIM_010.jpg	100
1205.806	2.422	2422.5	regulate	Run2	regulate/STIM_010.jpg	99
1211.777	1.581	1581.0	regulate	Run2	regulate/STIM_011.jpg	100
1216.028	1.787	1786.7	regulate	Run2	regulate/STIM_011.jpg	100
1219.837	1.416	1415.7	regulate	Run2	regulate/STIM_011.jpg	100
1224.207	1.534	1534.2	regulate	Run2	regulate/STIM_011.jpg	100
1229.204	2.821	2820.9	regulate	Run2	regulate/STIM_012.jpg	100
1235.013	1.773	1773.0	regulate	Run2	regulate/STIM_012.jpg	99
1239.303	2.086	2085.6	regulate	Run2	regulate/STIM_012.jpg	100
1243.686	2.752	2752.1	regulate	Run2	regulate/STIM_012.jpg	99
1248.887	3.258	3257.6	regulate	Run2	regulate/STIM_013.jpg	99
1254.338	1.962	1962.2	regulate	Run2	regulate/STIM_013.jpg	100
1259.83	1.273	1272.6	regulate	Run2	regulate/STIM_013.jpg	99
1263.3	2.376	2376.1	regulate	Run2	regulate/STIM_013.jpg	100
1268.792	2.515	2514.6	regulate	Run2	regulate/STIM_014.jpg	99
1274.571	2.611	2611.3	regulate	Run2	regulate/STIM_014.jpg	99
1279.5	2.078	2078.2	regulate	Run2	regulate/STIM_014.jpg	99
1284.776	2.073	2073.0	regulate	Run2	regulate/STIM_014.jpg	99
1289.708	3.178	3177.5	regulate	Run2	regulate/STIM_015.jpg	100
1295.73	2.463	2462.7	regulate	Run2	regulate/STIM_015.jpg	100
1300.873	2.507	2506.6	regulate	Run2	regulate/STIM_015.jpg	99
1306.154	1.316	1316.3	regulate	Run2	regulate/STIM_015.jpg	100
1310.15	2.936	2935.5	regulate	Run2	regulate/STIM_016.jpg	99
1315.452	1.987	1986.6	regulate	Run2	regulate/STIM_016.jpg	99
1320.727	2.174	2174.5	regulate	Run2	regulate/STIM_016.jpg	99
1325.512	1.947	1947.4	regulate	Run2	regulate/STIM_016.jpg	100
1330.675	1.741	1741.3	regulate	Run2	regulate/STIM_017.jpg	99
1335.284	3.124	3124.0	regulate	Run2	regulate/STIM_017.jpg	100
1342.012	2.047	2046.7	regulate	Run2	regulate/STIM_017.jpg	99
1347.493	2.253	2253.0	regulate	Run2	regulate/STIM_017.jpg	100
1352.406	1.954	1954.0	regulate	Run2	regulate/STIM_018.jpg	99
1356.32	1.934	1934.3	regulate	Run2	regulate/STIM_018.jpg	100
1361.159	2.068	2067.7	regulate	Run2	regulate/STIM_018.jpg	99
1366.501	1.931	1930.7	regulate	Run2	regulate/STIM_018.jpg	99
1370.473	1.448	1447.9	regulate	Run2	regulate/STIM_019.jpg	100
1375.298	2.895	2895.4	regulate	Run2	regulate/STIM_019.jpg	99
1380.537	2.668	2668.1	regulate	Run2	regulate/STIM_019.jpg	99
1385.29	2.232	2231.5	regulate	Run2	regulate/STIM_019.jpg	99
1389.559	2.999	2999.4	regulate	Run2	regulate/STIM_020.jpg	100
1395.678	1.777	1777.2	regulate	Run2	regulate/STIM_020.jpg	100
1400.85	2.421	2420.6	regulate	Run2	regulate/STIM_020.jpg	99
1405.159	2.259	2259.4	regulate	Run2	regulate/STIM_020.jpg	99
1409.618	3.304	3303.7	regulate	Run2	regulate/STIM_021.jpg	99
1415.06	1.737	1736.8	regulate	Run2	regulate/STIM_021.jpg	100
1419.92	2.242	2242.1	regulate	Run2	regulate/STIM_021.jpg	100
1424.449	1.705	1705.3	regulate	Run2	regulate/STIM_021.jpg	99
1428.434	3.025	3025.4	regulate	Run2	regulate/STIM_022.jpg	100
1434.6	2.567	2566.7	regulate	Run2	regulate/STIM_022.jpg	99
1439.297	2.118	2118.0	regulate	Run2	regulate/STIM_022.jpg	100
1444.786	2.392	2392.2	regulate	Run2	regulate/STIM_022.jpg	99
1449.631	2.646	2645.5	regulate	Run2	regulate/STIM_023.jpg	100
1454.744	2.184	2184.0	regulate	Run2	regulate/STIM_023.jpg	100
1458.959	1.935	1934.7	regulate	Run2	regulate/STIM_023.jpg	100
1463.222	2.827	2827.1	regulate	Run2	regulate/STIM_023.jpg	100
1469.035	2.695	2694.6	regulate	Run2	regulate/STIM_024.jpg	99
1474.44	1.56	1559.8	regulate	Run2	regulate/STIM_024.jpg	100
1478.782	2.06	2060.3	regulate	Run2	regulate/STIM_024.jpg	99
1484.213	2.038	2037.9	regulate	Run2	regulate/STIM_024.jpg	99
1489.214	1.878	1878.0	regulate	Run2	regulate/STIM_025.jpg	99
1493.316	1.994	1994.2	regulate	Run2	regulate/STIM_025.jpg	100
1497.892	2.699	2698.7	regulate	Run2	regulate/STIM_025.jpg	100
1503.226	1.865	1864.9	regulate	Run2	regulate/STIM_025.jpg	100
1508.726	3.284	3283.9	regulate	Run2	regulate/STIM_026.jpg	100
1515.169	2.11	2110.3	regulate	Run2	regulate/STIM_026.jpg	99
1520.059	2.888	2888.2	regulate	Run2	regulate/STIM_026.jpg	100
1526.03	2.783	2782.9	regulate	Run2	regulate/STIM_026.jpg	99
1531.182	1.855	1854.6	regulate	Run2	regulate/STIM_027.jpg	99
1536.252	2.676	2676.3	regulate	Run2	regulate/STIM_027.jpg	100
1540.723	2.187	2186.8	regulate	Run2	regulate/STIM_027.jpg	100
1545.338	2.434	2433.8	regulate	Run2	regulate/STIM_027.jpg	100
1549.993	2.973	2973.1	regulate	Run2	regulate/STIM_028.jpg	100
1555.085	2.842	2842.0	regulate	Run2	regulate/STIM_028.jpg	100
1559.977	2.227	2226.7	regulate	Run2	regulate/STIM_028.jpg	100
1564.056	2.441	2441.1	regulate	Run2	regulate/STIM_028.jpg	99
1568.9	2.831	2831.4	regulate	Run2	regulate/STIM_029.jpg	99
1574.112	2.816	2816.4	regulate	Run2	regulate/STIM_029.jpg	100
1579.213	2.814	2814.1	regulate	Run2	regulate/STIM_029.jpg	100
1583.74	2.768	2768.4	regulate	Run2	regulate/STIM_029.jpg	99
1588.245	1.518	1518.5	observe	Run2	observe/STIM_000.jpg	100
1592.113	1.466	1465.7	observe	Run2	observe/STIM_000.jpg	99
1595.656	1.338	1337.7	observe	Run2	observe/STIM_000.jpg	100
1599.598	1.496	1495.8	observe	Run2	observe/STIM_000.jpg	99
1604.554	0.951	950.6	observe	Run2	observe/STIM_001.jpg	100
1608.405	1.79	1790.0	observe	Run2	observe/STIM_001.jpg	99
1613.323	1.849	1849.2	observe	Run2	observe/STIM_001.jpg	100
1618.467	0.978	978.2	observe	Run2	observe/STIM_001.jpg	99
1621.49	1.108	1107.5	observe	Run2	observe/STIM_002.jpg	100
1625.579	1.147	1147.2	observe	Run2	observe/STIM_002.jpg	99
1630.358	1.096	1095.7	observe	Run2	observe/STIM_002.jpg	99
1633.436	1.604	1604.4	observe	Run2	observe/STIM_002.jpg	99
1638.541	1.116	1116.3	observe	Run2	observe/STIM_003.jpg	99
1642.453	1.158	1157.7	observe	Run2	observe/STIM_003.jpg	100
1645.618	0.979	979.4	observe	Run2	observe/STIM_003.jpg	99
1648.548	1.631	1630.6	observe	Run2	observe/STIM_003.jpg	99
1652.121	1.146	1145.5	observe	Run2	observe/STIM_004.jpg	99
1656.217	1.79	1790.0	observe	Run2	observe/STIM_004.jpg	100
1661.561	1.406	1406.1	observe	Run2	observe/STIM_004.jpg	99
1665.73	1.766	1766.5	observe	Run2	observe/STIM_004.jpg	99
1670.467	1.713	1712.6	observe	Run2	observe/STIM_005.jpg	100
1674.243	1.25	1250.0	observe	Run2	observe/STIM_005.jpg	99
1677.844	1.489	1488.7	observe	Run2	observe/STIM_005.jpg	100
1681.922	1.083	1082.7	observe	Run2	observe/STIM_005.jpg	100
1686.675	1.146	1145.9	observe	Run2	observe/STIM_006.jpg	99
1690.221	1.569	1568.9	observe	Run2	observe/STIM_006.jpg	100
1695.524	1.121	1121.3	observe	Run2	observe/STIM_006.jpg	99
1699.563	1.285	1285.2	observe	Run2	observe/STIM_006.jpg	99
1703.347	1.112	1111.6	observe	Run2	observe/STIM_007.jpg	100
1707.321	1.261	1261.2	observe	Run2	observe/STIM_007.jpg	99
1711.011	1.828	1828.5	observe	Run2	observe/STIM_007.jpg	100
1715.717	1.237	1237.2	observe	Run2	observe/STIM_007.jpg	99
1719.274	1.142	1142.2	observe	Run2	observe/STIM_008.jpg	100
1723.894	1.197	1197.2	observe	Run2	observe/STIM_008.jpg	100
1727.832	0.92	920.4	observe	Run2	observe/STIM_008.jpg	100
1731.736	1.326	1326.1	observe	Run2	observe/STIM_008.jpg	100
1735.037	1.679	1678.6	observe	Run2	observe/STIM_009.jpg	100
1738.99	1.59	1590.2	observe	Run2	observe/STIM_009.jpg	99
1742.831	1.527	1527.4	observe	Run2	observe/STIM_009.jpg	100
1747.592	1.653	1652.6	observe	Run2	observe/STIM_009.jpg	99
1752.408	1.485	1485.3	observe	Run2	observe/STIM_010.jpg	99
1756.557	1.433	1432.9	observe	Run2	observe/STIM_010.jpg	99
1760.127	1.626	1625.7	observe	Run2	observe/STIM_010.jpg	100
1763.631	1.706	1706.1	observe	Run2	observe/STIM_010.jpg	100
1767.817	1.046	1046.3	observe	Run2	observe/STIM_011.jpg	99
1771.566	1.332	1331.8	observe	Run2	observe/STIM_011.jpg	100
1776.1	1.742	1742.2	observe	Run2	observe/STIM_011.jpg	99
1780.008	1.282	1282.2	observe	Run2	observe/STIM_011.jpg	100
1783.395	1.034	1034.4	observe	Run2	observe/STIM_012.jpg	100
1788.093	1.089	1088.7	observe	Run2	observe/STIM_012.jpg	100
1792.026	1.642	1642.0	observe	Run2	observe/STIM_012.jpg	99
1796.413	1.058	1058.3	observe	Run2	observe/STIM_012.jpg	100
1800.495	1.63	1630.5	observe	Run2	observe/STIM_013.jpg	99
1804.015	1.156	1155.7	observe	Run2	observe/STIM_013.jpg	99
1808.253	1.545	1544.6	observe	Run2	observe/STIM_013.jpg	100
1813.532	1.421	1421.3	observe	Run2	observe/STIM_013.jpg	99
1817.841	1.567	1567.3	observe	Run2	observe/STIM_014.jpg	100
1823.005	1.339	1339.2	observe	Run2	observe/STIM_014.jpg	99
1827.879	1.73	1730.2	observe	Run2	observe/STIM_014.jpg	100
1832.818	0.983	982.8	observe	Run2	observe/STIM_014.jpg	99
1836.752	1.559	1558.9	observe	Run2	observe/STIM_015.jpg	100
1841.559	1.112	1112.4	observe	Run2	observe/STIM_015.jpg	99
1845.913	1.875	1874.7	observe	Run2	observe/STIM_015.jpg	99
1850.705	1.098	1098.1	observe	Run2	observe/STIM_015.jpg	100
1854.381	1.766	1765.6	observe	Run2	observe/STIM_016.jpg	99
1858.452	1.186	1185.8	observe	Run2	observe/STIM_016.jpg	99
1861.607	1.472	1472.2	observe	Run2	observe/STIM_016.jpg	100
1866.805	1.515	1515.3	observe	Run2	observe/STIM_016.jpg	100
1871.226	1.384	1384.1	observe	Run2	observe/STIM_017.jpg	99
1876.054	1.145	1144.8	observe	Run2	observe/STIM_017.jpg	100
1880.577	1.544	1544.3	observe	Run2	observe/STIM_017.jpg	100
1884.967	0.954	953.8	observe	Run2	observe/STIM_017.jpg	100
1889.142	0.988	988.0	observe	Run2	observe/STIM_018.jpg	100
1892.11	1.592	1591.8	observe	Run2	observe/STIM_018.jpg	99
1895.535	1.586	1586.5	observe	Run2	observe/STIM_018.jpg	100
1900.686	1.779	1778.6	observe	Run2	observe/STIM_018.jpg	99
1904.939	1.671	1670.9	observe	Run2	observe/STIM_019.jpg	100
1909.125	1.611	1610.7	observe	Run2	observe/STIM_019.jpg	99
1913.897	1.524	1524.4	observe	Run2	observe/STIM_019.jpg	100
1918.512	1.675	1675.1	observe	Run2	observe/STIM_019.jpg	99
1923.471	1.339	1339.3	regulate	Run3	regulate/STIM_000.jpg	99
1928.704	1.676	1676.0	regulate	Run3	regulate/STIM_000.jpg	100
1932.749	2.045	2045.4	regulate	Run3	regulate/STIM_000.jpg	100
1936.855	1.329	1329.4	regulate	Run3	regulate/STIM_000.jpg	100
1940.604	2.707	2707.0	regulate	Run3	regulate/STIM_001.jpg	100
1945.205	1.743	1743.4	regulate	Run3	regulate/STIM_001.jpg	100
1949.399	1.491	1491.3	regulate	Run3	regulate/STIM_001.jpg	100
1953.12	1.773	1773.2	regulate	Run3	regulate/STIM_001.jpg	99
1957.713	2.09	2089.8	regulate	Run3	regulate/STIM_002.jpg	100
1962.933	2.153	2152.7	regulate	Run3	regulate/STIM_002.jpg	99
1968.166	2.528	2527.9	regulate	Run3	regulate/STIM_002.jpg	100
1973.978	1.966	1966.5	regulate	Run3	regulate/STIM_002.jpg	100
1978.66	2.047	2047.5	regulate	Run3	regulate/STIM_003.jpg	99
1983.325	1.764	1763.7	regulate	Run3	regulate/STIM_003.jpg	99
1987.128	1.181	1180.6	regulate	Run3	regulate/STIM_003.jpg	100
1991.579	2.582	2581.8	regulate	Run3	regulate/STIM_003.jpg	99
1996.245	1.352	1351.7	regulate	Run3	regulate/STIM_004.jpg	99
1999.783	1.51	1510.2	regulate	Run3	regulate/STIM_004.jpg	100
2004.632	1.791	1791.3	regulate	Run3	regulate/STIM_004.jpg	99
2008.26	1.505	1504.6	regulate	Run3	regulate/STIM_004.jpg	99
2013.309	1.26	1259.7	regulate	Run3	regulate/STIM_005.jpg	100
2017.225	2.807	2807.4	regulate	Run3	regulate/STIM_005.jpg	99
2023.639	2.308	2307.6	regulate	Run3	regulate/STIM_005.jpg	100
2028.0	2.465	2465.1	regulate	Run3	regulate/STIM_005.jpg	99
2032.649	2.149	2149.1	regulate	Run3	regulate/STIM_006.jpg	100
2037.668	1.553	1553.3	regulate	Run3	regulate/STIM_006.jpg	99
2041.216	2.155	2155.0	regulate	Run3	regulate/STIM_006.jpg	99
2046.805	1.45	1449.6	regulate	Run3	regulate/STIM_006.jpg	100
2051.381	2.246	2246.1	regulate	Run3	regulate/STIM_007.jpg	99
2056.322	1.249	1248.8	regulate	Run3	regulate/STIM_007.jpg	99
2060.782	1.454	1453.9	regulate	Run3	regulate/STIM_007.jpg	99
2064.489	2.223	2222.9	regulate	Run3	regulate/STIM_007.jpg	100
2068.918	1.711	1711.4	regulate	Run3	regulate/STIM_008.jpg	100
2074.351	2.495	2495.0	regulate	Run3	regulate/STIM_008.jpg	99
2079.988	2.254	2254.4	regulate	Run3	regulate/STIM_008.jpg	100
2085.303	1.245	1245.1	regulate	Run3	regulate/STIM_008.jpg	100
2090.345	1.429	1428.7	regulate	Run3	regulate/STIM_009.jpg	100
2095.389	2.607	2606.6	regulate	Run3	regulate/STIM_009.jpg	99
2099.689	1.553	1553.4	regulate	Run3	regulate/STIM_009.jpg	100
2104.778	1.579	1579.1	regulate	Run3	regulate/STIM_009.jpg	100
2108.416	2.02	2019.6	regulate	Run3	regulate/STIM_010.jpg	100
2113.434	1.225	1224.7	regulate	Run3	regulate/STIM_010.jpg	100
2117.694	2.632	2631.7	regulate	Run3	regulate/STIM_010.jpg	100
2122.107	2.493	2492.8	regulate	Run3	regulate/STIM_010.jpg	99
2126.566	1.698	1698.2	regulate	Run3	regulate/STIM_011.jpg	99
2130.284	2.59	2589.8	regulate	Run3	regulate/STIM_011.jpg	100
2136.068	2.337	2337.0	regulate	Run3	regulate/STIM_011.jpg	100
2140.899	2.455	2454.9	regulate	Run3	regulate/STIM_011.jpg	99
2145.339	2.22	2220.2	regulate	Run3	regulate/STIM_012.jpg	99
2150.462	2.046	2046.3	regulate	Run3	regulate/STIM_012.jpg	100
2154.78	1.994	1994.4	regulate	Run3	regulate/STIM_012.jpg	99
2158.779	1.249	1248.7	regulate	Run3	regulate/STIM_012.jpg	99
2162.558	1.956	1956.1	regulate	Run3	regulate/STIM_013.jpg	100
2168.22	2.288	2288.4	regulate	Run3	regulate/STIM_013.jpg	100
2173.338	1.248	1248.2	regulate	Run3	regulate/STIM_013.jpg	100
2176.92	1.779	1778.9	regulate	Run3	regulate/STIM_013.jpg	99
2180.937	2.66	2659.6	regulate	Run3	regulate/STIM_014.jpg	100
2186.773	2.074	2074.5	regulate	Run3	regulate/STIM_014.jpg	100
2191.569	2.203	2203.3	regulate	Run3	regulate/STIM_014.jpg	99
2197.316	2.593	2593.0	regulate	Run3	regulate/STIM_014.jpg	99
2202.288	1.765	1765.1	regulate	Run3	regulate/STIM_015.jpg	100
2206.719	1.429	1429.4	regulate	Run3	regulate/STIM_015.jpg	100
2211.184	1.977	1977.1	regulate	Run3	regulate/STIM_015.jpg	99
2216.234	1.801	1801.4	regulate	Run3	regulate/STIM_015.jpg	100
2220.087	2.503	2502.9	regulate	Run3	regulate/STIM_016.jpg	100
2225.567	2.588	2588.2	regulate	Run3	regulate/STIM_016.jpg	100
2230.703	2.739	2739.2	regulate	Run3	regulate/STIM_016.jpg	100
2235.19	1.491	1490.6	regulate	Run3	regulate/STIM_016.jpg	99
2239.022	1.366	1365.9	regulate	Run3	regulate/STIM_017.jpg	100
2242.5	1.945	1945.1	regulate	Run3	regulate/STIM_017.jpg	100
2246.845	1.802	1802.1	regulate	Run3	regulate/STIM_017.jpg	99
2252.347	2.826	2826.0	regulate	Run3	regulate/STIM_017.jpg	100
2257.064	1.625	1625.4	regulate	Run3	regulate/STIM_018.jpg	100
2262.271	1.327	1327.1	regulate	Run3	regulate/STIM_018.jpg	99
2266.171	1.729	1728.7	regulate	Run3	regulate/STIM_018.jpg	99
2271.255	2.76	2760.5	regulate	Run3	regulate/STIM_018.jpg	100
2277.069	2.402	2401.8	regulate	Run3	regulate/STIM_019.jpg	99
2282.709	1.626	1625.5	regulate	Run3	regulate/STIM_019.jpg	99
2286.209	2.47	2469.9	regulate	Run3	regulate/STIM_019.jpg	99
2292.358	2.387	2387.3	regulate	Run3	regulate/STIM_019.jpg	99
2297.653	1.421	1421.3	regulate	Run3	regulate/STIM_020.jpg	99
2302.038	2.268	2268.2	regulate	Run3	regulate/STIM_020.jpg	99
2306.915	1.652	1651.5	regulate	Run3	regulate/STIM_020.jpg	100
2311.589	2.146	2145.6	regulate	Run3	regulate/STIM_020.jpg	100
2317.424	2.703	2703.0	regulate	Run3	regulate/STIM_021.jpg	99
2323.449	2.034	2034.2	regulate	Run3	regulate/STIM_021.jpg	100
2328.336	2.394	2393.7	regulate	Run3	regulate/STIM_021.jpg	100
2333.538	2.13	2130.0	regulate	Run3	regulate/STIM_021.jpg	100
2338.661	2.55	2550.0	regulate	Run3	regulate/STIM_022.jpg	99
2343.425	1.536	1535.7	regulate	Run3	regulate/STIM_022.jpg	100
2347.006	1.561	1560.6	regulate	Run3	regulate/STIM_022.jpg	100
2350.795	1.256	1255.5	regulate	Run3	regulate/STIM_022.jpg	99
2354.146	2.35	2350.3	regulate	Run3	regulate/STIM_023.jpg	99
2358.388	1.383	1382.6	regulate	Run3	regulate/STIM_023.jpg	99
2361.793	2.569	2569.4	regulate	Run3	regulate/STIM_023.jpg	100
2367.695	2.531	2530.9	regulate	Run3	regulate/STIM_023.jpg	99
2372.496	2.319	2319.1	regulate	Run3	regulate/STIM_024.jpg	99
2378.028	2.207	2206.8	regulate	Run3	regulate/STIM_024.jpg	100
2383.566	2.098	2098.2	regulate	Run3	regulate/STIM_024.jpg	100
2387.519	2.592	2591.8	regulate	Run3	regulate/STIM_024.jpg	100
2393.455	2.602	2601.6	regulate	Run3	regulate/STIM_025.jpg	100
2398.99	1.474	1473.6	regulate	Run3	regulate/STIM_025.jpg	100
2404.008	2.473	2473.3	regulate	Run3	regulate/STIM_025.jpg	99
2409.184	2.779	2779.4	regulate	Run3	regulate/STIM_025.jpg	99
2415.607	2.657	2657.3	regulate	Run3	regulate/STIM_026.jpg	100
2421.247	1.652	1652.2	regulate	Run3	regulate/STIM_026.jpg	100
2426.612	1.502	1502.2	regulate	Run3	regulate/STIM_026.jpg	99
2430.17	2.738	2738.5	regulate	Run3	regulate/STIM_026.jpg	99
2436.192	2.766	2766.0	regulate	Run3	regulate/STIM_027.jpg	100
2441.403	1.734	1734.5	regulate	Run3	regulate/STIM_027.jpg	99
2446.12	1.54	1539.7	regulate	Run3	regulate/STIM_027.jpg	99
2449.728	1.989	1988.9	regulate	Run3	regulate/STIM_027.jpg	99
2455.394	2.024	2024.2	regulate	Run3	regulate/STIM_028.jpg	100
2459.245	2.191	2191.2	regulate	Run3	regulate/STIM_028.jpg	99
2464.513	1.887	1887.2	regulate	Run3	regulate/STIM_028.jpg	99
2468.331	1.973	1972.8	regulate	Run3	regulate/STIM_028.jpg	99
2472.687	1.916	1915.7	regulate	Run3	regulate/STIM_029.jpg	100
2477.358	1.41	1409.6	regulate	Run3	regulate/STIM_029.jpg	100
2481.438	2.376	2376.4	regulate	Run3	regulate/STIM_029.jpg	100
2486.759	1.973	1973.4	regulate	Run3	regulate/STIM_029.jpg	99
2491.562	1.001	1000.6	observe	Run3	observe/STIM_000.jpg	99
2495.878	1.553	1552.9	observe	Run3	observe/STIM_000.jpg	100
2499.803	1.707	1706.7	observe	Run3	observe/STIM_000.jpg	100
2504.631	1.069	1068.6	observe	Run3	observe/STIM_000.jpg	100
2508.009	1.748	1747.5	observe	Run3	observe/STIM_001.jpg	100
2513.107	1.857	1856.9	observe	Run3	observe/STIM_001.jpg	100
2518.591	1.036	1036.2	observe	Run3	observe/STIM_001.jpg	100
2523.202	1.45	1450.2	observe	Run3	observe/STIM_001.jpg	100
2527.974	1.721	1721.2	observe	Run3	observe/STIM_002.jpg	100
2531.849	1.523	1522.6	observe	Run3	observe/STIM_002.jpg	99
2535.811	1.366	1366.5	observe	Run3	observe/STIM_002.jpg	99
2540.138	1.151	1150.8	observe	Run3	observe/STIM_002.jpg	99
2544.995	1.493	1493.4	observe	Run3	observe/STIM_003.jpg	100
2548.614	1.35	1350.5	observe	Run3	observe/STIM_003.jpg	100
2553.252	1.521	1521.4	observe	Run3	observe/STIM_003.jpg	99
2557.484	1.052	1051.5	observe	Run3	observe/STIM_003.jpg	99
2560.834	1.554	1554.3	observe	Run3	observe/STIM_004.jpg	100
2565.429	1.024	1023.5	observe	Run3	observe/STIM_004.jpg	99
2569.946	1.053	1052.9	observe	Run3	observe/STIM_004.jpg	100
2574.138	1.379	1378.6	observe	Run3	observe/STIM_004.jpg	99
2578.349	1.531	1531.4	observe	Run3	observe/STIM_005.jpg	99
2582.641	1.608	1608.0	observe	Run3	observe/STIM_005.jpg	99
2586.319	1.568	1567.8	observe	Run3	observe/STIM_005.jpg	99
2590.796	1.539	1539.1	observe	Run3	observe/STIM_005.jpg	100
2595.671	0.971	971.0	observe	Run3	observe/STIM_006.jpg	99
2600.416	1.719	1718.8	observe	Run3	observe/STIM_006.jpg	100
2605.453	1.642	1642.5	observe	Run3	observe/STIM_006.jpg	99
2610.082	1.485	1485.2	observe	Run3	observe/STIM_006.jpg	99
2614.445	1.63	1630.2	observe	Run3	observe/STIM_007.jpg	99
2619.54	1.287	1287.0	observe	Run3	observe/STIM_007.jpg	99
2624.462	1.298	1297.5	observe	Run3	observe/STIM_007.jpg	100
2629.068	1.389	1389.0	observe	Run3	observe/STIM_007.jpg	100
2634.125	1.279	1278.8	observe	Run3	observe/STIM_008.jpg	99
2637.431	1.635	1634.7	observe	Run3	observe/STIM_008.jpg	100
2642.543	1.013	1013.2	observe	Run3	observe/STIM_008.jpg	99
2646.978	1.377	1377.1	observe	Run3	observe/STIM_008.jpg	99
2651.574	1.738	1738.4	observe	Run3	observe/STIM_009.jpg	100
2655.378	1.515	1515.3	observe	Run3	observe/STIM_009.jpg	99
2659.605	1.116	1116.2	observe	Run3	observe/STIM_009.jpg	100
2664.391	1.747	1747.4	observe	Run3	observe/STIM_009.jpg	100
2668.801	1.339	1338.8	observe	Run3	observe/STIM_010.jpg	100
2673.424	0.956	955.7	observe	Run3	observe/STIM_010.jpg	99
2676.957	1.929	1929.0	observe	Run3	observe/STIM_010.jpg	100
2682.048	1.351	1351.3	observe	Run3	observe/STIM_010.jpg	100
2686.904	1.396	1395.5	observe	Run3	observe/STIM_011.jpg	99
2692.064	1.568	1567.6	observe	Run3	observe/STIM_011.jpg	100
2695.618	1.466	1465.8	observe	Run3	observe/STIM_011.jpg	100
2699.929	1.663	1663.0	observe	Run3	observe/STIM_011.jpg	100
2704.862	1.799	1799.0	observe	Run3	observe/STIM_012.jpg	100
2710.09	1.05	1049.6	observe	Run3	observe/STIM_012.jpg	100
2714.451	1.702	1702.3	observe	Run3	observe/STIM_012.jpg	99
2719.228	1.372	1372.5	observe	Run3	observe/STIM_012.jpg	100
2722.775	1.548	1548.1	observe	Run3	observe/STIM_013.jpg	100
2726.896	1.276	1275.6	observe	Run3	observe/STIM_013.jpg	99
2731.18	1.457	1457.4	observe	Run3	observe/STIM_013.jpg	100
2736.374	1.834	1833.5	observe	Run3	observe/STIM_013.jpg	99
2740.725	1.757	1756.6	observe	Run3	observe/STIM_014.jpg	100
2744.278	1.053	1053.2	observe	Run3	observe/STIM_014.jpg	99
2747.259	1.722	1721.6	observe	Run3	observe/STIM_014.jpg	99
2751.163	1.142	1141.9	observe	Run3	observe/STIM_014.jpg	99
2755.677	1.354	1354.3	observe	Run3	observe/STIM_015.jpg	99
2760.252	1.223	1222.7	observe	Run3	observe/STIM_015.jpg	99
2763.394	1.637	1637.2	observe	Run3	observe/STIM_015.jpg	99
2768.622	1.082	1082.3	observe	Run3	observe/STIM_015.jpg	100
2771.908	1.369	1369.1	observe	Run3	observe/STIM_016.jpg	100
2776.556	1.462	1461.6	observe	Run3	observe/STIM_016.jpg	99
2780.146	1.539	1538.9	observe	Run3	observe/STIM_016.jpg	100
2784.594	1.258	1258.0	observe	Run3	observe/STIM_016.jpg	99
2788.577	0.933	932.6	observe	Run3	observe/STIM_017.jpg	100
2793.127	1.613	1613.3	observe	Run3	observe/STIM_017.jpg	99
2798.099	0.988	987.8	observe	Run3	observe/STIM_017.jpg	100
2802.362	1.612	1612.2	observe	Run3	observe/STIM_017.jpg	99
2806.77	1.213	1212.6	observe	Run3	observe/STIM_018.jpg	100
2811.335	1.01	1009.5	observe	Run3	observe/STIM_018.jpg	99
2814.932	1.672	1671.9	observe	Run3	observe/STIM_018.jpg	99
2819.376	1.6	1600.5	observe	Run3	observe/STIM_018.jpg	99
2823.194	1.156	1156.4	observe	Run3	observe/STIM_019.jpg	99
2827.709	1.512	1511.5	observe	Run3	observe/STIM_019.jpg	99
2831.315	1.193	1193.4	observe	Run3	observe/STIM_019.jpg	100
2835.347	1.175	1175.3	observe	Run3	observe/STIM_019.jpg	99
