onset	duration	accuracy_binary	trial_type	learning_stage	stimulus
0.0	2.709	1	regulate	Run1	regulate/STIM_000.jpg
4.791	2.656	0	regulate	Run1	regulate/STIM_000.jpg
11.406	1.659	0	regulate	Run1	regulate/STIM_000.jpg
15.515	2.082	0	regulate	Run1	regulate/STIM_000.jpg
20.371	3.353	1	regulate	Run1	regulate/STIM_001.jpg
27.359	3.505	1	regulate	Run1	regulate/STIM_001.jpg
33.784	3.046	0	regulate	Run1	regulate/STIM_001.jpg
40.569	3.18	0	regulate	Run1	regulate/STIM_001.jpg
45.892	3.209	0	regulate	Run1	regulate/STIM_002.jpg
52.454	2.584	0	regulate	Run1	regulate/STIM_002.jpg
57.578	3.147	1	regulate	Run1	regulate/STIM_002.jpg
63.513	2.718	1	regulate	Run1	regulate/STIM_002.jpg
68.695	3.238	0	regulate	Run1	regulate/STIM_003.jpg
74.128	1.934	1	regulate	Run1	regulate/STIM_003.jpg
78.203	2.409	1	regulate	Run1	regulate/STIM_003.jpg
83.218	2.41	1	regulate	Run1	regulate/STIM_003.jpg
89.526	3.05	0	regulate	Run1	regulate/STIM_004.jpg
95.399	1.76	0	regulate	Run1	regulate/STIM_004.jpg
101.134	2.975	1	regulate	Run1	regulate/STIM_004.jpg
107.777	2.917	1	regulate	Run1	regulate/STIM_004.jpg
113.294	3.33	0	regulate	Run1	regulate/STIM_005.jpg
119.37	2.456	1	regulate	Run1	regulate/STIM_005.jpg
125.529	1.706	0	regulate	Run1	regulate/STIM_005.jpg
130.682	1.803	1	regulate	Run1	regulate/STIM_005.jpg
136.203	2.606	1	regulate	Run1	regulate/STIM_006.jpg
142.296	2.634	1	regulate	Run1	regulate/STIM_006.jpg
147.828	3.518	0	regulate	Run1	regulate/STIM_006.jpg
155.262	3.218	1	regulate	Run1	regulate/STIM_006.jpg
161.89	2.035	1	regulate	Run1	regulate/STIM_007.jpg
166.303	2.584	1	regulate	Run1	regulate/STIM_007.jpg
171.962	1.893	1	regulate	Run1	regulate/STIM_007.jpg
176.94	1.616	1	regulate	Run1	regulate/STIM_007.jpg
182.264	3.366	1	regulate	Run1	regulate/STIM_008.jpg
189.509	2.142	1	regulate	Run1	regulate/STIM_008.jpg
193.798	1.746	0	regulate	Run1	regulate/STIM_008.jpg
198.868	2.822	1	regulate	Run1	regulate/STIM_008.jpg
205.18	3.928	0	regulate	Run1	regulate/STIM_009.jpg
211.798	2.227	1	regulate	Run1	regulate/STIM_009.jpg
217.916	3.168	1	regulate	Run1	regulate/STIM_009.jpg
224.434	2.699	1	regulate	Run1	regulate/STIM_009.jpg
230.239	1.841	1	regulate	Run1	regulate/STIM_010.jpg
234.22	3.341	0	regulate	Run1	regulate/STIM_010.jpg
240.636	2.94	0	regulate	Run1	regulate/STIM_010.jpg
246.858	3.106	1	regulate	Run1	regulate/STIM_010.jpg
252.515	2.05	0	regulate	Run1	regulate/STIM_011.jpg
258.231	3.785	1	regulate	Run1	regulate/STIM_011.jpg
264.312	2.93	0	regulate	Run1	regulate/STIM_011.jpg
270.178	2.406	0	regulate	Run1	regulate/STIM_011.jpg
276.581	1.762	1	regulate	Run1	regulate/STIM_012.jpg
280.908	2.766	0	regulate	Run1	regulate/STIM_012.jpg
286.374	3.42	1	regulate	Run1	regulate/STIM_012.jpg
293.477	2.708	1	regulate	Run1	regulate/STIM_012.jpg
298.833	3.316	0	regulate	Run1	regulate/STIM_013.jpg
304.534	3.144	1	regulate	Run1	regulate/STIM_013.jpg
309.691	3.474	0	regulate	Run1	regulate/STIM_013.jpg
315.514	1.746	1	regulate	Run1	regulate/STIM_013.jpg
319.867	2.265	1	regulate	Run1	regulate/STIM_014.jpg
325.135	2.933	1	regulate	Run1	regulate/STIM_014.jpg
330.769	2.788	0	regulate	Run1	regulate/STIM_014.jpg
336.759	1.504	1	regulate	Run1	regulate/STIM_014.jpg
342.028	3.54	0	regulate	Run1	regulate/STIM_015.jpg
349.235	2.019	1	regulate	Run1	regulate/STIM_015.jpg
353.856	2.865	0	regulate	Run1	regulate/STIM_015.jpg
360.389	2.404	0	regulate	Run1	regulate/STIM_015.jpg
365.94	3.862	1	regulate	Run1	regulate/STIM_016.jpg
373.523	1.971	0	regulate	Run1	regulate/STIM_016.jpg
378.968	2.921	1	regulate	Run1	regulate/STIM_016.jpg
385.01	1.556	1	regulate	Run1	regulate/STIM_016.jpg
388.65	2.597	1	regulate	Run1	regulate/STIM_017.jpg
394.674	1.909	0	regulate	Run1	regulate/STIM_017.jpg
400.055	3.428	0	regulate	Run1	regulate/STIM_017.jpg
407.132	1.788	1	regulate	Run1	regulate/STIM_017.jpg
411.305	2.114	1	regulate	Run1	regulate/STIM_018.jpg
416.21	3.56	0	regulate	Run1	regulate/STIM_018.jpg
421.993	1.786	1	regulate	Run1	regulate/STIM_018.jpg
427.425	2.566	1	regulate	Run1	regulate/STIM_018.jpg
432.728	3.147	0	regulate	Run1	regulate/STIM_019.jpg
439.798	1.709	1	regulate	Run1	regulate/STIM_019.jpg
443.759	2.062	1	regulate	Run1	regulate/STIM_019.jpg
448.728	2.711	0	regulate	Run1	regulate/STIM_019.jpg
454.21	2.96	1	regulate	Run1	regulate/STIM_020.jpg
460.347	2.719	1	regulate	Run1	regulate/STIM_020.jpg
465.112	3.55	0	regulate	Run1	regulate/STIM_020.jpg
471.848	2.737	0	regulate	Run1	regulate/STIM_020.jpg
477.2	3.096	1	regulate	Run1	regulate/STIM_021.jpg
482.804	2.215	0	regulate	Run1	regulate/STIM_021.jpg
488.798	3.447	0	regulate	Run1	regulate/STIM_021.jpg
495.932	2.559	1	regulate	Run1	regulate/STIM_021.jpg
500.658	3.765	1	regulate	Run1	regulate/STIM_022.jpg
506.538	2.957	1	regulate	Run1	regulate/STIM_022.jpg
513.168	2.95	1	regulate	Run1	regulate/STIM_022.jpg
519.807	2.023	1	regulate	Run1	regulate/STIM_022.jpg
524.394	2.201	0	regulate	Run1	regulate/STIM_023.jpg
528.661	3.664	1	regulate	Run1	regulate/STIM_023.jpg
535.487	2.649	0	regulate	Run1	regulate/STIM_023.jpg
541.809	2.537	1	regulate	Run1	regulate/STIM_023.jpg
547.397	3.649	0	regulate	Run1	regulate/STIM_024.jpg
554.175	3.387	1	regulate	Run1	regulate/STIM_024.jpg
560.468	3.562	1	regulate	Run1	regulate/STIM_024.jpg
567.041	2.015	0	regulate	Run1	regulate/STIM_024.jpg
572.689	3.24	1	regulate	Run1	regulate/STIM_025.jpg
578.791	3.358	1	regulate	Run1	regulate/STIM_025.jpg
584.285	1.84	0	regulate	Run1	regulate/STIM_025.jpg
588.407	3.36	1	regulate	Run1	regulate/STIM_025.jpg
594.822	2.431	1	regulate	Run1	regulate/STIM_026.jpg
601.014	3.694	1	regulate	Run1	regulate/STIM_026.jpg
606.907	2.381	0	regulate	Run1	regulate/STIM_026.jpg
612.933	2.867	1	regulate	Run1	regulate/STIM_026.jpg
618.08	4.0	1	regulate	Run1	regulate/STIM_027.jpg
625.953	1.742	1	regulate	Run1	regulate/STIM_027.jpg
631.365	3.26	0	regulate	Run1	regulate/STIM_027.jpg
637.492	1.642	1	regulate	Run1	regulate/STIM_027.jpg
642.886	3.473	1	regulate	Run1	regulate/STIM_028.jpg
649.049	2.706	0	regulate	Run1	regulate/STIM_028.jpg
655.506	3.399	1	regulate	Run1	regulate/STIM_028.jpg
661.276	1.62	0	regulate	Run1	regulate/STIM_028.jpg
666.605	2.599	1	regulate	Run1	regulate/STIM_029.jpg
672.76	1.94	1	regulate	Run1	regulate/STIM_029.jpg
678.082	1.673	1	regulate	Run1	regulate/STIM_029.jpg
682.152	3.106	0	regulate	Run1	regulate/STIM_029.jpg
687.439	1.444	1	observe	Run1	observe/STIM_000.jpg
690.995	1.593	0	observe	Run1	observe/STIM_000.jpg
696.307	1.623	0	observe	Run1	observe/STIM_000.jpg
700.476	1.284	1	observe	Run1	observe/STIM_000.jpg
704.229	1.492	1	observe	Run1	observe/STIM_001.jpg
708.584	1.095	0	observe	Run1	observe/STIM_001.jpg
713.253	1.095	1	observe	Run1	observe/STIM_001.jpg
718.171	1.514	1	observe	Run1	observe/STIM_001.jpg
722.106	1.742	1	observe	Run1	observe/STIM_002.jpg
726.885	1.679	1	observe	Run1	observe/STIM_002.jpg
732.34	1.404	1	observe	Run1	observe/STIM_002.jpg
736.418	1.556	0	observe	Run1	observe/STIM_002.jpg
740.471	1.684	0	observe	Run1	observe/STIM_003.jpg
745.244	1.209	1	observe	Run1	observe/STIM_003.jpg
749.045	1.072	1	observe	Run1	observe/STIM_003.jpg
753.243	1.102	1	observe	Run1	observe/STIM_003.jpg
757.167	1.13	1	observe	Run1	observe/STIM_004.jpg
761.874	1.776	1	observe	Run1	observe/STIM_004.jpg
766.729	1.095	0	observe	Run1	observe/STIM_004.jpg
770.252	1.233	1	observe	Run1	observe/STIM_004.jpg
775.015	1.692	1	observe	Run1	observe/STIM_005.jpg
779.079	1.262	1	observe	Run1	observe/STIM_005.jpg
782.56	1.349	1	observe	Run1	observe/STIM_005.jpg
787.843	1.26	1	observe	Run1	observe/STIM_005.jpg
792.695	1.376	1	observe	Run1	observe/STIM_006.jpg
796.684	1.781	1	observe	Run1	observe/STIM_006.jpg
801.182	1.622	1	observe	Run1	observe/STIM_006.jpg
806.64	1.493	0	observe	Run1	observe/STIM_006.jpg
811.053	1.09	0	observe	Run1	observe/STIM_007.jpg
815.051	1.02	1	observe	Run1	observe/STIM_007.jpg
819.128	1.047	0	observe	Run1	observe/STIM_007.jpg
823.764	1.134	1	observe	Run1	observe/STIM_007.jpg
827.929	1.628	1	observe	Run1	observe/STIM_008.jpg
833.082	1.51	0	observe	Run1	observe/STIM_008.jpg
837.609	1.509	1	observe	Run1	observe/STIM_008.jpg
842.355	1.501	1	observe	Run1	observe/STIM_008.jpg
847.444	1.036	0	observe	Run1	observe/STIM_009.jpg
851.153	1.118	1	observe	Run1	observe/STIM_009.jpg
854.88	1.137	1	observe	Run1	observe/STIM_009.jpg
859.766	1.0	1	observe	Run1	observe/STIM_009.jpg
863.869	1.764	1	observe	Run1	observe/STIM_010.jpg
869.505	1.353	1	observe	Run1	observe/STIM_010.jpg
873.888	1.657	1	observe	Run1	observe/STIM_010.jpg
877.634	1.12	1	observe	Run1	observe/STIM_010.jpg
880.854	1.705	1	observe	Run1	observe/STIM_011.jpg
886.171	1.704	0	observe	Run1	observe/STIM_011.jpg
890.985	1.707	1	observe	Run1	observe/STIM_011.jpg
895.041	1.396	1	observe	Run1	observe/STIM_011.jpg
900.044	1.713	1	observe	Run1	observe/STIM_012.jpg
905.561	1.654	1	observe	Run1	observe/STIM_012.jpg
909.286	1.705	1	observe	Run1	observe/STIM_012.jpg
913.392	1.244	0	observe	Run1	observe/STIM_012.jpg
917.716	1.171	0	observe	Run1	observe/STIM_013.jpg
922.517	1.07	1	observe	Run1	observe/STIM_013.jpg
927.057	1.241	1	observe	Run1	observe/STIM_013.jpg
931.553	1.492	0	observe	Run1	observe/STIM_013.jpg
936.938	0.926	1	observe	Run1	observe/STIM_014.jpg
941.297	0.988	1	observe	Run1	observe/STIM_014.jpg
944.417	1.362	1	observe	Run1	observe/STIM_014.jpg
949.146	1.669	1	observe	Run1	observe/STIM_014.jpg
953.11	1.735	1	observe	Run1	observe/STIM_015.jpg
958.69	1.638	1	observe	Run1	observe/STIM_015.jpg
963.334	1.609	1	observe	Run1	observe/STIM_015.jpg
968.299	1.06	1	observe	Run1	observe/STIM_015.jpg
971.978	1.549	1	observe	Run1	observe/STIM_016.jpg
977.009	1.151	1	observe	Run1	observe/STIM_016.jpg
981.713	1.638	1	observe	Run1	observe/STIM_016.jpg
985.43	1.447	1	observe	Run1	observe/STIM_016.jpg
989.096	1.428	1	observe	Run1	observe/STIM_017.jpg
993.432	1.279	1	observe	Run1	observe/STIM_017.jpg
997.071	1.575	1	observe	Run1	observe/STIM_017.jpg
1000.956	1.262	1	observe	Run1	observe/STIM_017.jpg
1005.093	1.301	1	observe	Run1	observe/STIM_018.jpg
1009.728	1.52	0	observe	Run1	observe/STIM_018.jpg
1013.969	1.043	0	observe	Run1	observe/STIM_018.jpg
1018.575	1.177	0	observe	Run1	observe/STIM_018.jpg
1023.239	1.211	1	observe	Run1	observe/STIM_019.jpg
1027.575	1.369	0	observe	Run1	observe/STIM_019.jpg
1032.231	0.942	1	observe	Run1	observe/STIM_019.jpg
1037.118	1.256	1	observe	Run1	observe/STIM_019.jpg
1042.035	2.079	0	regulate	Run2	regulate/STIM_000.jpg
1046.736	2.453	1	regulate	Run2	regulate/STIM_000.jpg
1053.162	2.415	0	regulate	Run2	regulate/STIM_000.jpg
1058.947	2.152	0	regulate	Run2	regulate/STIM_000.jpg
1065.089	3.128	1	regulate	Run2	regulate/STIM_001.jpg
1071.084	2.124	1	regulate	Run2	regulate/STIM_001.jpg
1075.679	2.017	1	regulate	Run2	regulate/STIM_001.jpg
1079.995	1.43	1	regulate	Run2	regulate/STIM_001.jpg
1084.479	3.194	1	regulate	Run2	regulate/STIM_002.jpg
1089.765	1.967	1	regulate	Run2	regulate/STIM_002.jpg
1094.584	2.632	1	regulate	Run2	regulate/STIM_002.jpg
1101.03	1.42	1	regulate	Run2	regulate/STIM_002.jpg
1105.227	3.292	1	regulate	Run2	regulate/STIM_003.jpg
1111.654	1.412	1	regulate	Run2	regulate/STIM_003.jpg
1116.768	2.963	0	regulate	Run2	regulate/STIM_003.jpg
1123.344	1.587	1	regulate	Run2	regulate/STIM_003.jpg
1128.42	2.365	1	regulate	Run2	regulate/STIM_004.jpg
1133.253	2.012	0	regulate	Run2	regulate/STIM_004.jpg
1138.132	2.595	1	regulate	Run2	regulate/STIM_004.jpg
1142.953	1.24	1	regulate	Run2	regulate/STIM_004.jpg
1147.372	3.18	0	regulate	Run2	regulate/STIM_005.jpg
1153.558	1.413	1	regulate	Run2	regulate/STIM_005.jpg
1157.826	1.806	1	regulate	Run2	regulate/STIM_005.jpg
1162.019	2.8	1	regulate	Run2	regulate/STIM_005.jpg
1168.756	1.657	0	regulate	Run2	regulate/STIM_006.jpg
1173.638	2.964	1	regulate	Run2	regulate/STIM_006.jpg
1180.275	1.6	1	regulate	Run2	regulate/STIM_006.jpg
1185.658	2.795	1	regulate	Run2	regulate/STIM_006.jpg
1191.702	3.216	0	regulate	Run2	regulate/STIM_007.jpg
1197.836	2.266	1	regulate	Run2	regulate/STIM_007.jpg
1203.104	1.504	1	regulate	Run2	regulate/STIM_007.jpg
1207.765	1.398	1	regulate	Run2	regulate/STIM_007.jpg
1211.324	2.24	1	regulate	Run2	regulate/STIM_008.jpg
1215.745	1.494	1	regulate	Run2	regulate/STIM_008.jpg
1220.394	2.749	1	regulate	Run2	regulate/STIM_008.jpg
1226.674	2.622	0	regulate	Run2	regulate/STIM_008.jpg
1231.829	2.358	1	regulate	Run2	regulate/STIM_009.jpg
1237.86	2.509	1	regulate	Run2	regulate/STIM_009.jpg
1242.844	1.373	1	regulate	Run2	regulate/STIM_009.jpg
1246.594	1.466	1	regulate	Run2	regulate/STIM_009.jpg
1250.371	2.343	0	regulate	Run2	regulate/STIM_010.jpg
1255.01	2.661	1	regulate	Run2	regulate/STIM_010.jpg
1259.672	1.541	1	regulate	Run2	regulate/STIM_010.jpg
1263.649	2.079	1	regulate	Run2	regulate/STIM_010.jpg
1268.921	2.994	1	regulate	Run2	regulate/STIM_011.jpg
1274.346	1.633	0	regulate	Run2	regulate/STIM_011.jpg
1279.417	2.332	1	regulate	Run2	regulate/STIM_011.jpg
1285.023	1.83	0	regulate	Run2	regulate/STIM_011.jpg
1290.315	2.366	1	regulate	Run2	regulate/STIM_012.jpg
1294.997	2.205	1	regulate	Run2	regulate/STIM_012.jpg
1300.593	2.689	1	regulate	Run2	regulate/STIM_012.jpg
1305.507	2.778	1	regulate	Run2	regulate/STIM_012.jpg
1311.959	2.49	1	regulate	Run2	regulate/STIM_013.jpg
1318.334	1.872	1	regulate	Run2	regulate/STIM_013.jpg
1322.814	1.512	1	regulate	Run2	regulate/STIM_013.jpg
1327.507	2.711	1	regulate	Run2	regulate/STIM_013.jpg
1334.017	2.977	1	regulate	Run2	regulate/STIM_014.jpg
1339.357	1.702	0	regulate	Run2	regulate/STIM_014.jpg
1344.4	1.936	1	regulate	Run2	regulate/STIM_014.jpg
1349.047	2.755	1	regulate	Run2	regulate/STIM_014.jpg
1354.073	1.91	1	regulate	Run2	regulate/STIM_015.jpg
1358.012	2.786	1	regulate	Run2	regulate/STIM_015.jpg
1362.826	2.073	1	regulate	Run2	regulate/STIM_015.jpg
1367.298	1.856	1	regulate	Run2	regulate/STIM_015.jpg
1371.22	1.864	1	regulate	Run2	regulate/STIM_016.jpg
1376.693	2.894	1	regulate	Run2	regulate/STIM_016.jpg
1381.615	1.426	0	regulate	Run2	regulate/STIM_016.jpg
1386.417	2.74	0	regulate	Run2	regulate/STIM_016.jpg
1391.521	2.903	1	regulate	Run2	regulate/STIM_017.jpg
1398.12	1.873	1	regulate	Run2	regulate/STIM_017.jpg
1403.527	2.981	1	regulate	Run2	regulate/STIM_017.jpg
1410.054	2.741	1	regulate	Run2	regulate/STIM_017.jpg
1415.257	2.657	0	regulate	Run2	regulate/STIM_018.jpg
1420.481	2.982	0	regulate	Run2	regulate/STIM_018.jpg
1426.259	2.444	0	regulate	Run2	regulate/STIM_018.jpg
1431.926	1.726	1	regulate	Run2	regulate/STIM_018.jpg
1435.815	1.978	1	regulate	Run2	regulate/STIM_019.jpg
1440.281	1.767	1	regulate	Run2	regulate/STIM_019.jpg
1444.568	2.908	1	regulate	Run2	regulate/STIM_019.jpg
1450.403	1.412	0	regulate	Run2	regulate/STIM_019.jpg
1454.383	1.763	1	regulate	Run2	regulate/STIM_020.jpg
1458.852	2.912	1	regulate	Run2	regulate/STIM_020.jpg
1464.331	2.579	1	regulate	Run2	regulate/STIM_020.jpg
1470.648	1.563	1	regulate	Run2	regulate/STIM_020.jpg
1474.56	2.051	1	regulate	Run2	regulate/STIM_021.jpg
1480.409	1.938	0	regulate	Run2	regulate/STIM_021.jpg
1485.055	2.25	0	regulate	Run2	regulate/STIM_021.jpg
1489.318	1.222	0	regulate	Run2	regulate/STIM_021.jpg
1494.234	3.273	1	regulate	Run2	regulate/STIM_022.jpg
1501.222	3.059	1	regulate	Run2	regulate/STIM_022.jpg
1506.675	1.338	1	regulate	Run2	regulate/STIM_022.jpg
1511.917	2.694	1	regulate	Run2	regulate/STIM_022.jpg
1516.704	2.827	1	regulate	Run2	regulate/STIM_023.jpg
1522.368	1.751	0	regulate	Run2	regulate/STIM_023.jpg
1526.862	1.964	0	regulate	Run2	regulate/STIM_023.jpg
1530.843	1.68	1	regulate	Run2	regulate/STIM_023.jpg
1536.075	2.518	0	regulate	Run2	regulate/STIM_024.jpg
1541.244	2.876	1	regulate	Run2	regulate/STIM_024.jpg
1547.671	2.848	1	regulate	Run2	regulate/STIM_024.jpg
1552.704	1.92	0	regulate	Run2	regulate/STIM_024.jpg
1556.824	2.014	1	regulate	Run2	regulate/STIM_025.jpg
1560.9	1.964	0	regulate	Run2	regulate/STIM_025.jpg
1566.639	2.061	1	regulate	Run2	regulate/STIM_025.jpg
1571.6	2.621	1	regulate	Run2	regulate/STIM_025.jpg
1577.554	1.533	1	regulate	Run2	regulate/STIM_026.jpg
1581.63	1.898	1	regulate	Run2	regulate/STIM_026.jpg
1587.379	2.977	1	regulate	Run2	regulate/STIM_026.jpg
1592.611	2.606	0	regulate	Run2	regulate/STIM_026.jpg
1599.127	3.123	1	regulate	Run2	regulate/STIM_027.jpg
1605.056	2.105	1	regulate	Run2	regulate/STIM_027.jpg
1610.818	2.147	1	regulate	Run2	regulate/STIM_027.jpg
1616.863	1.236	1	regulate	Run2	regulate/STIM_027.jpg
1620.142	3.353	1	regulate	Run2	regulate/STIM_028.jpg
1627.016	1.742	1	regulate	Run2	regulate/STIM_028.jpg
1631.452	1.926	1	regulate	Run2	regulate/STIM_028.jpg
1637.155	1.87	1	regulate	Run2	regulate/STIM_028.jpg
1641.551	1.748	1	regulate	Run2	regulate/STIM_029.jpg
1645.97	2.834	0	regulate	Run2	regulate/STIM_029.jpg
1650.945	1.903	0	regulate	Run2	regulate/STIM_029.jpg
1656.621	2.371	1	regulate	Run2	regulate/STIM_029.jpg
1662.986	0.976	1	observe	Run2	observe/STIM_000.jpg
1667.675	1.617	0	observe	Run2	observe/STIM_000.jpg
1672.831	1.606	1	observe	Run2	observe/STIM_000.jpg
1677.013	1.462	1	observe	Run2	observe/STIM_000.jpg
1682.098	1.648	1	observe	Run2	observe/STIM_001.jpg
1686.478	0.979	1	observe	Run2	observe/STIM_001.jpg
1691.324	1.65	1	observe	Run2	observe/STIM_001.jpg
1695.576	1.04	0	observe	Run2	observe/STIM_001.jpg
1699.533	1.649	1	observe	Run2	observe/STIM_002.jpg
1703.548	1.074	1	observe	Run2	observe/STIM_002.jpg
1707.667	0.966	1	observe	Run2	observe/STIM_002.jpg
1712.351	1.52	1	observe	Run2	observe/STIM_002.jpg
1717.549	1.013	1	observe	Run2	observe/STIM_003.jpg
1722.432	1.807	0	observe	Run2	observe/STIM_003.jpg
1726.83	1.015	1	observe	Run2	observe/STIM_003.jpg
1731.077	1.605	1	observe	Run2	observe/STIM_003.jpg
1735.726	1.065	1	observe	Run2	observe/STIM_004.jpg
1739.821	1.602	1	observe	Run2	observe/STIM_004.jpg
1743.584	1.31	1	observe	Run2	observe/STIM_004.jpg
1747.677	1.519	1	observe	Run2	observe/STIM_004.jpg
1751.799	1.263	0	observe	Run2	observe/STIM_005.jpg
1756.002	1.8	1	observe	Run2	observe/STIM_005.jpg
1760.756	1.224	0	observe	Run2	observe/STIM_005.jpg
1764.942	1.172	0	observe	Run2	observe/STIM_005.jpg
1768.647	1.616	1	observe	Run2	observe/STIM_006.jpg
1772.694	1.77	0	observe	Run2	observe/STIM_006.jpg
1776.917	1.672	1	observe	Run2	observe/STIM_006.jpg
1782.37	1.296	1	observe	Run2	observe/STIM_006.jpg
1787.083	1.806	1	observe	Run2	observe/STIM_007.jpg
1792.651	1.128	1	observe	Run2	observe/STIM_007.jpg
1796.379	0.997	1	observe	Run2	observe/STIM_007.jpg
1800.788	1.535	1	observe	Run2	observe/STIM_007.jpg
1804.778	0.976	1	observe	Run2	observe/STIM_008.jpg
1808.498	1.216	1	observe	Run2	observe/STIM_008.jpg
1813.322	1.016	0	observe	Run2	observe/STIM_008.jpg
1817.718	0.973	0	observe	Run2	observe/STIM_008.jpg
1821.896	1.489	0	observe	Run2	observe/STIM_009.jpg
1826.505	1.316	1	observe	Run2	observe/STIM_009.jpg
1830.814	1.118	0	observe	Run2	observe/STIM_009.jpg
1834.489	1.775	1	observe	Run2	observe/STIM_009.jpg
1839.396	0.969	0	observe	Run2	observe/STIM_010.jpg
1843.696	1.695	1	observe	Run2	observe/STIM_010.jpg
1848.96	1.459	1	observe	Run2	observe/STIM_010.jpg
1853.278	0.924	1	observe	Run2	observe/STIM_010.jpg
1858.078	1.098	1	observe	Run2	observe/STIM_011.jpg
1862.136	1.679	1	observe	Run2	observe/STIM_011.jpg
1866.321	1.216	0	observe	Run2	observe/STIM_011.jpg
1871.412	1.528	1	observe	Run2	observe/STIM_011.jpg
1876.691	1.818	1	observe	Run2	observe/STIM_012.jpg
1882.069	1.444	1	observe	Run2	observe/STIM_012.jpg
1887.306	1.366	1	observe	Run2	observe/STIM_012.jpg
1892.162	1.792	1	observe	Run2	observe/STIM_012.jpg
1896.323	1.185	0	observe	Run2	observe/STIM_013.jpg
1899.941	1.534	1	observe	Run2	observe/STIM_013.jpg
1904.41	1.269	1	observe	Run2	observe/STIM_013.jpg
1908.578	1.59	1	observe	Run2	observe/STIM_013.jpg
1912.958	1.686	1	observe	Run2	observe/STIM_014.jpg
1917.503	1.025	0	observe	Run2	observe/STIM_014.jpg
1921.966	1.743	1	observe	Run2	observe/STIM_014.jpg
1926.957	1.255	1	observe	Run2	observe/STIM_014.jpg
1930.818	1.728	1	observe	Run2	observe/STIM_015.jpg
1935.71	1.045	1	observe	Run2	observe/STIM_015.jpg
1940.076	1.098	1	observe	Run2	observe/STIM_015.jpg
1944.186	1.008	1	observe	Run2	observe/STIM_015.jpg
1948.778	1.072	1	observe	Run2	observe/STIM_016.jpg
1952.486	0.974	1	observe	Run2	observe/STIM_016.jpg
1957.406	0.922	1	observe	Run2	observe/STIM_016.jpg
1960.686	1.115	1	observe	Run2	observe/STIM_016.jpg
1965.031	1.418	1	observe	Run2	observe/STIM_017.jpg
1969.323	1.526	1	observe	Run2	observe/STIM_017.jpg
1973.646	1.413	1	observe	Run2	observe/STIM_017.jpg
1978.133	1.545	1	observe	Run2	observe/STIM_017.jpg
1983.235	0.926	1	observe	Run2	observe/STIM_018.jpg
1986.723	1.349	0	observe	Run2	observe/STIM_018.jpg
1991.937	1.749	0	observe	Run2	observe/STIM_018.jpg
1997.603	1.761	1	observe	Run2	observe/STIM_018.jpg
2002.163	0.986	1	observe	Run2	observe/STIM_019.jpg
2006.769	0.918	1	observe	Run2	observe/STIM_019.jpg
2009.747	1.053	0	observe	Run2	observe/STIM_019.jpg
2013.927	1.126	1	observe	Run2	observe/STIM_019.jpg
2017.487	1.954	1	regulate	Run3	regulate/STIM_000.jpg
2021.766	1.624	1	regulate	Run3	regulate/STIM_000.jpg
2027.274	1.221	0	regulate	Run3	regulate/STIM_000.jpg
2032.432	2.594	1	regulate	Run3	regulate/STIM_000.jpg
2037.495	2.565	1	regulate	Run3	regulate/STIM_001.jpg
2042.313	1.992	1	regulate	Run3	regulate/STIM_001.jpg
2048.1	2.694	1	regulate	Run3	regulate/STIM_001.jpg
2053.511	2.652	1	regulate	Run3	regulate/STIM_001.jpg
2058.788	2.041	0	regulate	Run3	regulate/STIM_002.jpg
2063.891	1.575	1	regulate	Run3	regulate/STIM_002.jpg
2067.845	2.328	1	regulate	Run3	regulate/STIM_002.jpg
2072.429	1.795	1	regulate	Run3	regulate/STIM_002.jpg
2078.12	1.914	1	regulate	Run3	regulate/STIM_003.jpg
2083.608	1.518	0	regulate	Run3	regulate/STIM_003.jpg
2087.661	1.894	1	regulate	Run3	regulate/STIM_003.jpg
2092.206	1.734	1	regulate	Run3	regulate/STIM_003.jpg
2096.384	2.695	1	regulate	Run3	regulate/STIM_004.jpg
2102.604	2.362	0	regulate	Run3	regulate/STIM_004.jpg
2108.334	2.71	0	regulate	Run3	regulate/STIM_004.jpg
2113.914	1.684	1	regulate	Run3	regulate/STIM_004.jpg
2118.037	2.174	1	regulate	Run3	regulate/STIM_005.jpg
2122.423	2.755	1	regulate	Run3	regulate/STIM_005.jpg
2127.831	2.226	1	regulate	Run3	regulate/STIM_005.jpg
2133.399	1.275	0	regulate	Run3	regulate/STIM_005.jpg
2137.347	2.384	1	regulate	Run3	regulate/STIM_006.jpg
2142.612	1.547	1	regulate	Run3	regulate/STIM_006.jpg
2146.371	2.6	1	regulate	Run3	regulate/STIM_006.jpg
2152.158	1.581	1	regulate	Run3	regulate/STIM_006.jpg
2156.139	2.404	1	regulate	Run3	regulate/STIM_007.jpg
2160.876	1.764	0	regulate	Run3	regulate/STIM_007.jpg
2165.036	2.563	0	regulate	Run3	regulate/STIM_007.jpg
2171.425	2.093	0	regulate	Run3	regulate/STIM_007.jpg
2176.086	2.09	1	regulate	Run3	regulate/STIM_008.jpg
2180.749	2.005	1	regulate	Run3	regulate/STIM_008.jpg
2185.369	2.497	1	regulate	Run3	regulate/STIM_008.jpg
2190.731	1.765	1	regulate	Run3	regulate/STIM_008.jpg
2196.259	2.198	1	regulate	Run3	regulate/STIM_009.jpg
2201.786	2.056	1	regulate	Run3	regulate/STIM_009.jpg
2207.822	2.183	0	regulate	Run3	regulate/STIM_009.jpg
2213.518	1.797	1	regulate	Run3	regulate/STIM_009.jpg
2219.227	1.413	1	regulate	Run3	regulate/STIM_010.jpg
2222.913	2.332	1	regulate	Run3	regulate/STIM_010.jpg
2229.243	2.385	0	regulate	Run3	regulate/STIM_010.jpg
2234.48	2.221	1	regulate	Run3	regulate/STIM_010.jpg
2239.176	1.297	1	regulate	Run3	regulate/STIM_011.jpg
2243.966	2.529	1	regulate	Run3	regulate/STIM_011.jpg
2249.586	2.697	1	regulate	Run3	regulate/STIM_011.jpg
2256.051	1.614	1	regulate	Run3	regulate/STIM_011.jpg
2260.423	2.359	1	regulate	Run3	regulate/STIM_012.jpg
2265.699	2.612	0	regulate	Run3	regulate/STIM_012.jpg
2271.769	2.37	1	regulate	Run3	regulate/STIM_012.jpg
2276.337	1.714	0	regulate	Run3	regulate/STIM_012.jpg
2281.05	2.68	1	regulate	Run3	regulate/STIM_013.jpg
2286.401	1.527	1	regulate	Run3	regulate/STIM_013.jpg
2291.407	2.747	1	regulate	Run3	regulate/STIM_013.jpg
2296.329	2.135	1	regulate	Run3	regulate/STIM_013.jpg
2301.196	2.046	1	regulate	Run3	regulate/STIM_014.jpg
2307.175	2.146	1	regulate	Run3	regulate/STIM_014.jpg
2311.916	1.522	1	regulate	Run3	regulate/STIM_014.jpg
2316.048	2.775	1	regulate	Run3	regulate/STIM_014.jpg
2322.223	2.379	1	regulate	Run3	regulate/STIM_015.jpg
2327.815	1.547	1	regulate	Run3	regulate/STIM_015.jpg
2333.194	1.225	0	regulate	Run3	regulate/STIM_015.jpg
2337.859	2.238	1	regulate	Run3	regulate/STIM_015.jpg
2343.952	1.469	1	regulate	Run3	regulate/STIM_016.jpg
2347.505	1.479	1	regulate	Run3	regulate/STIM_016.jpg
2352.61	2.183	1	regulate	Run3	regulate/STIM_016.jpg
2356.847	1.454	1	regulate	Run3	regulate/STIM_016.jpg
2360.751	2.009	0	regulate	Run3	regulate/STIM_017.jpg
2365.793	1.662	0	regulate	Run3	regulate/STIM_017.jpg
2369.612	2.166	1	regulate	Run3	regulate/STIM_017.jpg
2374.851	2.672	0	regulate	Run3	regulate/STIM_017.jpg
2380.397	2.184	1	regulate	Run3	regulate/STIM_018.jpg
2384.986	2.021	1	regulate	Run3	regulate/STIM_018.jpg
2390.898	2.694	1	regulate	Run3	regulate/STIM_018.jpg
2396.897	1.783	1	regulate	Run3	regulate/STIM_018.jpg
2400.865	2.478	0	regulate	Run3	regulate/STIM_019.jpg
2405.499	1.231	0	regulate	Run3	regulate/STIM_019.jpg
2408.804	1.358	1	regulate	Run3	regulate/STIM_019.jpg
2412.783	2.383	1	regulate	Run3	regulate/STIM_019.jpg
2417.937	1.727	1	regulate	Run3	regulate/STIM_020.jpg
2423.649	1.762	1	regulate	Run3	regulate/STIM_020.jpg
2427.752	2.074	1	regulate	Run3	regulate/STIM_020.jpg
2432.089	1.258	1	regulate	Run3	regulate/STIM_020.jpg
2437.218	1.668	0	regulate	Run3	regulate/STIM_021.jpg
2442.744	2.276	1	regulate	Run3	regulate/STIM_021.jpg
2447.244	2.3	1	regulate	Run3	regulate/STIM_021.jpg
2453.407	2.1	1	regulate	Run3	regulate/STIM_021.jpg
2458.267	1.595	1	regulate	Run3	regulate/STIM_022.jpg
2462.495	1.459	1	regulate	Run3	regulate/STIM_022.jpg
2466.936	2.761	1	regulate	Run3	regulate/STIM_022.jpg
2473.109	2.627	1	regulate	Run3	regulate/STIM_022.jpg
2479.456	2.512	1	regulate	Run3	regulate/STIM_023.jpg
2485.264	2.744	0	regulate	Run3	regulate/STIM_023.jpg
2491.161	1.372	1	regulate	Run3	regulate/STIM_023.jpg
2494.561	2.759	0	regulate	Run3	regulate/STIM_023.jpg
2500.813	1.911	0	regulate	Run3	regulate/STIM_024.jpg
2505.971	1.421	0	regulate	Run3	regulate/STIM_024.jpg
2510.224	2.062	1	regulate	Run3	regulate/STIM_024.jpg
2514.318	1.872	1	regulate	Run3	regulate/STIM_024.jpg
2518.881	1.928	0	regulate	Run3	regulate/STIM_025.jpg
2523.117	1.733	0	regulate	Run3	regulate/STIM_025.jpg
2527.374	1.813	1	regulate	Run3	regulate/STIM_025.jpg
2531.677	1.418	1	regulate	Run3	regulate/STIM_025.jpg
2535.65	2.579	1	regulate	Run3	regulate/STIM_026.jpg
2541.675	2.607	1	regulate	Run3	regulate/STIM_026.jpg
2547.625	1.539	1	regulate	Run3	regulate/STIM_026.jpg
2552.382	1.912	1	regulate	Run3	regulate/STIM_026.jpg
2556.846	2.433	0	regulate	Run3	regulate/STIM_027.jpg
2562.117	2.408	0	regulate	Run3	regulate/STIM_027.jpg
2568.497	1.456	1	regulate	Run3	regulate/STIM_027.jpg
2572.546	1.28	1	regulate	Run3	regulate/STIM_027.jpg
2577.479	1.46	0	regulate	Run3	regulate/STIM_028.jpg
2581.681	1.426	1	regulate	Run3	regulate/STIM_028.jpg
2586.907	1.51	0	regulate	Run3	regulate/STIM_028.jpg
2591.481	1.918	1	regulate	Run3	regulate/STIM_028.jpg
2596.171	1.611	1	regulate	Run3	regulate/STIM_029.jpg
2600.153	2.096	0	regulate	Run3	regulate/STIM_029.jpg
2605.003	2.244	1	regulate	Run3	regulate/STIM_029.jpg
2610.619	1.647	0	regulate	Run3	regulate/STIM_029.jpg
2616.064	1.043	1	observe	Run3	observe/STIM_000.jpg
2620.609	1.497	0	observe	Run3	observe/STIM_000.jpg
2624.257	1.08	1	observe	Run3	observe/STIM_000.jpg
2627.508	1.429	0	observe	Run3	observe/STIM_000.jpg
2632.918	1.215	1	observe	Run3	observe/STIM_001.jpg
2637.396	1.303	1	observe	Run3	observe/STIM_001.jpg
2641.887	1.049	1	observe	Run3	observe/STIM_001.jpg
2646.205	1.661	1	observe	Run3	observe/STIM_001.jpg
2650.362	1.124	1	observe	Run3	observe/STIM_002.jpg
2655.26	1.301	1	observe	Run3	observe/STIM_002.jpg
2660.443	1.747	1	observe	Run3	observe/STIM_002.jpg
2665.688	1.58	1	observe	Run3	observe/STIM_002.jpg
2669.599	1.156	1	observe	Run3	observe/STIM_003.jpg
2674.336	1.21	0	observe	Run3	observe/STIM_003.jpg
2678.222	1.35	0	observe	Run3	observe/STIM_003.jpg
2681.611	1.38	1	observe	Run3	observe/STIM_003.jpg
2686.625	1.347	1	observe	Run3	observe/STIM_004.jpg
2690.83	1.108	1	observe	Run3	observe/STIM_004.jpg
2694.925	1.071	1	observe	Run3	observe/STIM_004.jpg
2699.125	1.729	0	observe	Run3	observe/STIM_004.jpg
2704.174	1.131	1	observe	Run3	observe/STIM_005.jpg
2707.556	1.633	0	observe	Run3	observe/STIM_005.jpg
2711.829	1.351	0	observe	Run3	observe/STIM_005.jpg
2716.279	1.29	0	observe	Run3	observe/STIM_005.jpg
2720.629	1.0	1	observe	Run3	observe/STIM_006.jpg
2725.068	1.043	1	observe	Run3	observe/STIM_006.jpg
2729.679	1.302	1	observe	Run3	observe/STIM_006.jpg
2733.597	1.051	0	observe	Run3	observe/STIM_006.jpg
2737.562	1.338	1	observe	Run3	observe/STIM_007.jpg
2742.041	1.395	1	observe	Run3	observe/STIM_007.jpg
2746.087	1.205	1	observe	Run3	observe/STIM_007.jpg
2749.342	1.009	1	observe	Run3	observe/STIM_007.jpg
2754.06	1.13	1	observe	Run3	observe/STIM_008.jpg
2758.388	0.97	1	observe	Run3	observe/STIM_008.jpg
2761.376	1.151	0	observe	Run3	observe/STIM_008.jpg
2766.037	1.061	0	observe	Run3	observe/STIM_008.jpg
2770.772	1.543	0	observe	Run3	observe/STIM_009.jpg
2776.001	1.122	0	observe	Run3	observe/STIM_009.jpg
2779.632	1.005	0	observe	Run3	observe/STIM_009.jpg
2784.231	1.031	1	observe	Run3	observe/STIM_009.jpg
2787.336	1.642	1	observe	Run3	observe/STIM_010.jpg
2792.325	1.674	1	observe	Run3	observe/STIM_010.jpg
2796.364	1.423	1	observe	Run3	observe/STIM_010.jpg
2800.086	1.814	1	observe	Run3	observe/STIM_010.jpg
2804.697	1.423	0	observe	Run3	observe/STIM_011.jpg
2809.761	0.921	1	observe	Run3	observe/STIM_011.jpg
2814.335	1.151	0	observe	Run3	observe/STIM_011.jpg
2819.388	0.942	1	observe	Run3	observe/STIM_011.jpg
2823.494	1.346	1	observe	Run3	observe/STIM_012.jpg
2827.161	1.176	1	observe	Run3	observe/STIM_012.jpg
2831.047	1.604	1	observe	Run3	observe/STIM_012.jpg
2836.099	1.267	0	observe	Run3	observe/STIM_012.jpg
2839.741	1.414	1	observe	Run3	observe/STIM_013.jpg
2844.956	1.622	1	observe	Run3	observe/STIM_013.jpg
2848.601	1.325	1	observe	Run3	observe/STIM_013.jpg
2853.664	1.432	1	observe	Run3	observe/STIM_013.jpg
2858.369	1.114	1	observe	Run3	observe/STIM_014.jpg
2861.515	1.048	0	observe	Run3	observe/STIM_014.jpg
2865.276	1.802	1	observe	Run3	observe/STIM_014.jpg
2870.087	1.744	1	observe	Run3	observe/STIM_014.jpg
2874.879	1.757	1	observe	Run3	observe/STIM_015.jpg
2879.289	1.604	1	observe	Run3	observe/STIM_015.jpg
2883.79	1.187	1	observe	Run3	observe/STIM_015.jpg
2888.043	1.124	1	observe	Run3	observe/STIM_015.jpg
2891.234	1.239	1	observe	Run3	observe/STIM_016.jpg
2895.886	0.983	1	observe	Run3	observe/STIM_016.jpg
2900.104	1.427	1	observe	Run3	observe/STIM_016.jpg
2904.699	1.217	1	observe	Run3	observe/STIM_016.jpg
2908.104	1.354	1	observe	Run3	observe/STIM_017.jpg
2913.265	1.182	1	observe	Run3	observe/STIM_017.jpg
2918.254	1.658	1	observe	Run3	observe/STIM_017.jpg
2923.141	1.543	1	observe	Run3	observe/STIM_017.jpg
2927.161	1.559	0	observe	Run3	observe/STIM_018.jpg
2930.985	1.766	1	observe	Run3	observe/STIM_018.jpg
2935.458	1.376	1	observe	Run3	observe/STIM_018.jpg
2939.357	1.598	1	observe	Run3	observe/STIM_018.jpg
2944.502	1.24	0	observe	Run3	observe/STIM_019.jpg
2948.713	1.328	0	observe	Run3	observe/STIM_019.jpg
2953.633	1.618	1	observe	Run3	observe/STIM_019.jpg
2958.608	1.632	1	observe	Run3	observe/STIM_019.jpg
