onset	duration	accuracy	trial_type	learning_stage	stimulus
0.0	1.348	correct	study	Phase1	study/STIM_000.jpg
4.288	0.746	correct	study	Phase1	study/STIM_000.jpg
8.405	0.873	incorrect	study	Phase1	study/STIM_000.jpg
12.045	0.965	correct	study	Phase1	study/STIM_001.jpg
16.445	1.375	correct	study	Phase1	study/STIM_001.jpg
20.287	1.168	correct	study	Phase1	study/STIM_001.jpg
24.771	1.348	correct	study	Phase1	study/STIM_002.jpg
29.388	1.0	correct	study	Phase1	study/STIM_002.jpg
32.77	0.642	correct	study	Phase1	study/STIM_002.jpg
36.147	1.122	incorrect	study	Phase1	study/STIM_003.jpg
39.954	0.986	correct	study	Phase1	study/STIM_003.jpg
43.561	0.677	correct	study	Phase1	study/STIM_003.jpg
46.673	1.484	incorrect	study	Phase1	study/STIM_004.jpg
51.67	1.362	correct	study	Phase1	study/STIM_004.jpg
55.631	1.307	correct	study	Phase1	study/STIM_004.jpg
60.769	1.455	correct	study	Phase1	study/STIM_005.jpg
64.685	0.838	correct	study	Phase1	study/STIM_005.jpg
69.298	1.282	correct	study	Phase1	study/STIM_005.jpg
73.814	1.044	correct	study	Phase1	study/STIM_006.jpg
77.271	0.927	correct	study	Phase1	study/STIM_006.jpg
80.998	1.018	correct	study	Phase1	study/STIM_006.jpg
84.912	1.52	correct	study	Phase1	study/STIM_007.jpg
89.188	1.057	correct	study	Phase1	study/STIM_007.jpg
92.99	0.646	correct	study	Phase1	study/STIM_007.jpg
96.748	0.73	correct	study	Phase1	study/STIM_008.jpg
101.416	0.847	correct	study	Phase1	study/STIM_008.jpg
105.383	1.378	correct	study	Phase1	study/STIM_008.jpg
110.334	1.34	correct	study	Phase1	study/STIM_009.jpg
115.352	0.952	correct	study	Phase1	study/STIM_009.jpg
119.729	1.031	incorrect	study	Phase1	study/STIM_009.jpg
124.601	0.961	correct	study	Phase1	study/STIM_010.jpg
127.804	1.133	correct	study	Phase1	study/STIM_010.jpg
131.158	1.013	correct	study	Phase1	study/STIM_010.jpg
135.629	0.836	correct	study	Phase1	study/STIM_011.jpg
139.377	1.415	correct	study	Phase1	study/STIM_011.jpg
143.709	0.705	correct	study	Phase1	study/STIM_011.jpg
148.286	0.907	correct	study	Phase1	study/STIM_012.jpg
152.979	1.104	incorrect	study	Phase1	study/STIM_012.jpg
156.75	0.69	correct	study	Phase1	study/STIM_012.jpg
161.354	1.229	correct	study	Phase1	study/STIM_013.jpg
165.486	1.244	correct	study	Phase1	study/STIM_013.jpg
170.71	1.22	correct	study	Phase1	study/STIM_013.jpg
174.3	0.825	correct	study	Phase1	study/STIM_014.jpg
178.474	0.659	incorrect	study	Phase1	study/STIM_014.jpg
182.57	0.622	incorrect	study	Phase1	study/STIM_014.jpg
186.392	1.28	correct	study	Phase1	study/STIM_015.jpg
190.333	1.232	correct	study	Phase1	study/STIM_015.jpg
194.42	1.194	correct	study	Phase1	study/STIM_015.jpg
199.51	1.25	correct	study	Phase1	study/STIM_016.jpg
203.155	0.952	correct	study	Phase1	study/STIM_016.jpg
206.752	1.369	correct	study	Phase1	study/STIM_016.jpg
212.132	1.228	incorrect	study	Phase1	study/STIM_017.jpg
216.569	1.122	correct	study	Phase1	study/STIM_017.jpg
220.267	1.175	incorrect	study	Phase1	study/STIM_017.jpg
223.686	1.24	correct	study	Phase1	study/STIM_018.jpg
229.012	1.429	correct	study	Phase1	study/STIM_018.jpg
233.419	0.63	correct	study	Phase1	study/STIM_018.jpg
237.009	1.515	correct	study	Phase1	study/STIM_019.jpg
242.482	0.892	correct	study	Phase1	study/STIM_019.jpg
247.224	0.862	correct	study	Phase1	study/STIM_019.jpg
251.343	1.489	correct	study	Phase1	study/STIM_020.jpg
256.219	0.731	correct	study	Phase1	study/STIM_020.jpg
261.051	0.726	correct	study	Phase1	study/STIM_020.jpg
265.652	1.322	correct	study	Phase1	study/STIM_021.jpg
270.598	0.945	incorrect	study	Phase1	study/STIM_021.jpg
275.318	1.243	correct	study	Phase1	study/STIM_021.jpg
280.594	1.125	correct	study	Phase1	study/STIM_022.jpg
285.502	1.182	incorrect	study	Phase1	study/STIM_022.jpg
290.471	1.305	incorrect	study	Phase1	study/STIM_022.jpg
294.743	0.767	incorrect	study	Phase1	study/STIM_023.jpg
297.709	1.031	incorrect	study	Phase1	study/STIM_023.jpg
301.484	1.074	correct	study	Phase1	study/STIM_023.jpg
304.811	1.392	correct	study	Phase1	study/STIM_024.jpg
308.687	1.077	correct	study	Phase1	study/STIM_024.jpg
312.375	1.098	correct	study	Phase1	study/STIM_024.jpg
315.759	1.142	correct	study	Phase1	study/STIM_025.jpg
320.365	1.244	correct	study	Phase1	study/STIM_025.jpg
324.848	0.867	correct	study	Phase1	study/STIM_025.jpg
328.4	1.063	correct	study	Phase1	study/STIM_026.jpg
331.69	1.436	correct	study	Phase1	study/STIM_026.jpg
336.756	0.933	correct	study	Phase1	study/STIM_026.jpg
340.157	0.901	incorrect	study	Phase1	study/STIM_027.jpg
344.637	1.19	correct	study	Phase1	study/STIM_027.jpg
349.934	1.187	correct	study	Phase1	study/STIM_027.jpg
354.541	1.046	incorrect	study	Phase1	study/STIM_028.jpg
358.473	1.27	incorrect	study	Phase1	study/STIM_028.jpg
362.185	0.653	correct	study	Phase1	study/STIM_028.jpg
366.657	1.29	correct	study	Phase1	study/STIM_029.jpg
370.356	1.052	correct	study	Phase1	study/STIM_029.jpg
373.93	0.952	correct	study	Phase1	study/STIM_029.jpg
378.272	0.896	correct	test	Phase1	test/STIM_000.jpg
382.066	0.89	correct	test	Phase1	test/STIM_000.jpg
386.817	0.91	correct	test	Phase1	test/STIM_000.jpg
390.019	0.9	correct	test	Phase1	test/STIM_001.jpg
394.24	1.079	incorrect	test	Phase1	test/STIM_001.jpg
398.275	0.901	correct	test	Phase1	test/STIM_001.jpg
402.416	1.08	correct	test	Phase1	test/STIM_002.jpg
407.598	1.058	correct	test	Phase1	test/STIM_002.jpg
410.97	0.575	correct	test	Phase1	test/STIM_002.jpg
413.83	0.925	correct	test	Phase1	test/STIM_003.jpg
417.546	1.022	correct	test	Phase1	test/STIM_003.jpg
422.366	0.684	correct	test	Phase1	test/STIM_003.jpg
426.557	0.892	correct	test	Phase1	test/STIM_004.jpg
431.067	0.997	correct	test	Phase1	test/STIM_004.jpg
434.585	0.965	correct	test	Phase1	test/STIM_004.jpg
439.691	0.762	correct	test	Phase1	test/STIM_005.jpg
444.133	0.719	correct	test	Phase1	test/STIM_005.jpg
448.688	0.772	correct	test	Phase1	test/STIM_005.jpg
453.097	0.577	correct	test	Phase1	test/STIM_006.jpg
456.78	1.011	correct	test	Phase1	test/STIM_006.jpg
461.75	0.748	correct	test	Phase1	test/STIM_006.jpg
466.433	0.57	correct	test	Phase1	test/STIM_007.jpg
470.997	1.085	correct	test	Phase1	test/STIM_007.jpg
475.526	0.784	correct	test	Phase1	test/STIM_007.jpg
479.097	0.918	correct	test	Phase1	test/STIM_008.jpg
483.751	0.989	incorrect	test	Phase1	test/STIM_008.jpg
487.893	0.549	correct	test	Phase1	test/STIM_008.jpg
491.416	1.048	correct	test	Phase1	test/STIM_009.jpg
494.872	0.6	correct	test	Phase1	test/STIM_009.jpg
498.808	0.575	correct	test	Phase1	test/STIM_009.jpg
502.881	0.558	correct	test	Phase1	test/STIM_010.jpg
506.944	0.564	correct	test	Phase1	test/STIM_010.jpg
511.575	0.739	correct	test	Phase1	test/STIM_010.jpg
516.062	1.083	correct	test	Phase1	test/STIM_011.jpg
520.832	0.741	incorrect	test	Phase1	test/STIM_011.jpg
525.25	0.85	correct	test	Phase1	test/STIM_011.jpg
530.053	0.581	correct	test	Phase1	test/STIM_012.jpg
532.754	0.796	incorrect	test	Phase1	test/STIM_012.jpg
535.919	0.585	correct	test	Phase1	test/STIM_012.jpg
540.094	0.865	correct	test	Phase1	test/STIM_013.jpg
543.852	0.686	correct	test	Phase1	test/STIM_013.jpg
547.099	1.093	correct	test	Phase1	test/STIM_013.jpg
552.313	0.54	correct	test	Phase1	test/STIM_014.jpg
555.999	1.111	correct	test	Phase1	test/STIM_014.jpg
560.402	1.097	correct	test	Phase1	test/STIM_014.jpg
564.939	0.932	correct	test	Phase1	test/STIM_015.jpg
569.281	0.866	correct	test	Phase1	test/STIM_015.jpg
572.381	0.683	correct	test	Phase1	test/STIM_015.jpg
576.958	0.788	correct	test	Phase1	test/STIM_016.jpg
580.432	0.628	correct	test	Phase1	test/STIM_016.jpg
583.87	0.865	correct	test	Phase1	test/STIM_016.jpg
588.828	1.107	correct	test	Phase1	test/STIM_017.jpg
593.19	0.7	correct	test	Phase1	test/STIM_017.jpg
597.376	0.612	correct	test	Phase1	test/STIM_017.jpg
601.735	1.085	correct	test	Phase1	test/STIM_018.jpg
606.227	0.766	correct	test	Phase1	test/STIM_018.jpg
610.852	0.542	correct	test	Phase1	test/STIM_018.jpg
614.236	1.001	correct	test	Phase1	test/STIM_019.jpg
617.704	0.871	correct	test	Phase1	test/STIM_019.jpg
622.66	1.02	correct	test	Phase1	test/STIM_019.jpg
626.787	0.764	correct	test	Phase1	test/STIM_020.jpg
629.79	1.034	correct	test	Phase1	test/STIM_020.jpg
634.995	1.113	correct	test	Phase1	test/STIM_020.jpg
639.831	1.082	correct	test	Phase1	test/STIM_021.jpg
643.587	0.785	incorrect	test	Phase1	test/STIM_021.jpg
648.41	0.879	incorrect	test	Phase1	test/STIM_021.jpg
652.778	0.886	correct	test	Phase1	test/STIM_022.jpg
656.038	0.918	correct	test	Phase1	test/STIM_022.jpg
660.652	0.827	correct	test	Phase1	test/STIM_022.jpg
664.72	0.852	correct	test	Phase1	test/STIM_023.jpg
668.52	0.595	correct	test	Phase1	test/STIM_023.jpg
672.724	0.887	correct	test	Phase1	test/STIM_023.jpg
676.184	0.597	correct	test	Phase1	test/STIM_024.jpg
679.581	0.869	correct	test	Phase1	test/STIM_024.jpg
683.469	1.058	correct	test	Phase1	test/STIM_024.jpg
687.73	0.985	incorrect	test	Phase1	test/STIM_025.jpg
692.122	1.032	correct	test	Phase1	test/STIM_025.jpg
695.62	1.071	correct	test	Phase1	test/STIM_025.jpg
699.385	0.79	correct	test	Phase1	test/STIM_026.jpg
703.292	0.712	correct	test	Phase1	test/STIM_026.jpg
706.602	0.56	correct	test	Phase1	test/STIM_026.jpg
709.511	0.606	correct	test	Phase1	test/STIM_027.jpg
713.5	0.624	correct	test	Phase1	test/STIM_027.jpg
718.02	0.799	correct	test	Phase1	test/STIM_027.jpg
721.297	0.63	correct	test	Phase1	test/STIM_028.jpg
724.369	0.682	correct	test	Phase1	test/STIM_028.jpg
727.342	0.587	correct	test	Phase1	test/STIM_028.jpg
730.439	0.733	incorrect	test	Phase1	test/STIM_029.jpg
734.675	0.538	correct	test	Phase1	test/STIM_029.jpg
738.558	0.564	correct	test	Phase1	test/STIM_029.jpg
743.057	0.628	correct	study	Phase2	study/STIM_000.jpg
747.401	1.062	correct	study	Phase2	study/STIM_000.jpg
751.059	0.753	correct	study	Phase2	study/STIM_000.jpg
755.173	0.852	correct	study	Phase2	study/STIM_001.jpg
759.661	0.574	correct	study	Phase2	study/STIM_001.jpg
763.757	1.09	correct	study	Phase2	study/STIM_001.jpg
768.093	0.661	correct	study	Phase2	study/STIM_002.jpg
771.929	0.715	correct	study	Phase2	study/STIM_002.jpg
775.518	0.528	correct	study	Phase2	study/STIM_002.jpg
778.556	0.822	incorrect	study	Phase2	study/STIM_003.jpg
783.295	0.956	correct	study	Phase2	study/STIM_003.jpg
787.989	0.835	correct	study	Phase2	study/STIM_003.jpg
792.037	1.011	correct	study	Phase2	study/STIM_004.jpg
796.079	0.636	correct	study	Phase2	study/STIM_004.jpg
799.547	0.93	correct	study	Phase2	study/STIM_004.jpg
803.344	1.302	correct	study	Phase2	study/STIM_005.jpg
807.337	0.619	correct	study	Phase2	study/STIM_005.jpg
810.55	0.618	correct	study	Phase2	study/STIM_005.jpg
813.841	0.71	correct	study	Phase2	study/STIM_006.jpg
816.828	0.909	correct	study	Phase2	study/STIM_006.jpg
821.853	0.587	correct	study	Phase2	study/STIM_006.jpg
826.476	1.214	correct	study	Phase2	study/STIM_007.jpg
830.407	0.666	correct	study	Phase2	study/STIM_007.jpg
835.043	0.873	correct	study	Phase2	study/STIM_007.jpg
838.62	1.144	correct	study	Phase2	study/STIM_008.jpg
842.602	0.841	correct	study	Phase2	study/STIM_008.jpg
846.067	0.588	correct	study	Phase2	study/STIM_008.jpg
849.33	1.007	correct	study	Phase2	study/STIM_009.jpg
853.467	0.914	correct	study	Phase2	study/STIM_009.jpg
857.206	0.601	correct	study	Phase2	study/STIM_009.jpg
861.887	0.818	correct	study	Phase2	study/STIM_010.jpg
865.35	1.017	correct	study	Phase2	study/STIM_010.jpg
869.726	0.818	correct	study	Phase2	study/STIM_010.jpg
873.378	1.261	correct	study	Phase2	study/STIM_011.jpg
878.778	0.634	correct	study	Phase2	study/STIM_011.jpg
883.394	0.631	correct	study	Phase2	study/STIM_011.jpg
887.612	1.002	correct	study	Phase2	study/STIM_012.jpg
891.06	1.095	correct	study	Phase2	study/STIM_012.jpg
894.664	0.62	correct	study	Phase2	study/STIM_012.jpg
898.717	0.965	correct	study	Phase2	study/STIM_013.jpg
903.596	0.818	correct	study	Phase2	study/STIM_013.jpg
907.428	0.757	correct	study	Phase2	study/STIM_013.jpg
910.914	1.128	incorrect	study	Phase2	study/STIM_014.jpg
914.694	1.166	correct	study	Phase2	study/STIM_014.jpg
919.141	1.098	correct	study	Phase2	study/STIM_014.jpg
922.654	1.268	correct	study	Phase2	study/STIM_015.jpg
926.803	0.644	correct	study	Phase2	study/STIM_015.jpg
930.794	0.858	correct	study	Phase2	study/STIM_015.jpg
935.372	0.694	correct	study	Phase2	study/STIM_016.jpg
938.678	1.06	correct	study	Phase2	study/STIM_016.jpg
943.053	1.005	correct	study	Phase2	study/STIM_016.jpg
946.909	1.182	correct	study	Phase2	study/STIM_017.jpg
951.98	0.636	correct	study	Phase2	study/STIM_017.jpg
956.316	0.611	correct	study	Phase2	study/STIM_017.jpg
960.473	1.108	correct	study	Phase2	study/STIM_018.jpg
965.153	0.921	correct	study	Phase2	study/STIM_018.jpg
968.919	0.632	correct	study	Phase2	study/STIM_018.jpg
972.822	0.876	correct	study	Phase2	study/STIM_019.jpg
977.737	0.654	correct	study	Phase2	study/STIM_019.jpg
981.511	0.908	correct	study	Phase2	study/STIM_019.jpg
986.314	1.263	correct	study	Phase2	study/STIM_020.jpg
991.18	1.182	correct	study	Phase2	study/STIM_020.jpg
994.863	0.885	correct	study	Phase2	study/STIM_020.jpg
998.743	1.12	correct	study	Phase2	study/STIM_021.jpg
1003.9	0.858	correct	study	Phase2	study/STIM_021.jpg
1008.871	1.054	correct	study	Phase2	study/STIM_021.jpg
1013.942	1.218	incorrect	study	Phase2	study/STIM_022.jpg
1018.544	0.823	correct	study	Phase2	study/STIM_022.jpg
1022.173	1.031	correct	study	Phase2	study/STIM_022.jpg
1026.042	0.874	correct	study	Phase2	study/STIM_023.jpg
1030.9	0.787	correct	study	Phase2	study/STIM_023.jpg
1035.293	0.806	correct	study	Phase2	study/STIM_023.jpg
1039.137	0.686	correct	study	Phase2	study/STIM_024.jpg
1042.933	0.836	correct	study	Phase2	study/STIM_024.jpg
1046.633	0.888	correct	study	Phase2	study/STIM_024.jpg
1049.695	1.067	correct	study	Phase2	study/STIM_025.jpg
1054.861	0.651	incorrect	study	Phase2	study/STIM_025.jpg
1057.79	1.156	correct	study	Phase2	study/STIM_025.jpg
1062.329	0.632	correct	study	Phase2	study/STIM_026.jpg
1065.486	1.165	correct	study	Phase2	study/STIM_026.jpg
1069.225	0.538	correct	study	Phase2	study/STIM_026.jpg
1072.983	0.631	correct	study	Phase2	study/STIM_027.jpg
1076.625	0.909	correct	study	Phase2	study/STIM_027.jpg
1080.486	0.875	correct	study	Phase2	study/STIM_027.jpg
1083.87	1.212	correct	study	Phase2	study/STIM_028.jpg
1088.029	0.735	correct	study	Phase2	study/STIM_028.jpg
1091.703	0.531	incorrect	study	Phase2	study/STIM_028.jpg
1095.754	1.064	correct	study	Phase2	study/STIM_029.jpg
1099.438	0.708	correct	study	Phase2	study/STIM_029.jpg
1102.302	0.582	incorrect	study	Phase2	study/STIM_029.jpg
1105.337	0.906	correct	test	Phase2	test/STIM_000.jpg
1108.593	0.661	correct	test	Phase2	test/STIM_000.jpg
1113.075	1.013	incorrect	test	Phase2	test/STIM_000.jpg
1117.592	0.638	incorrect	test	Phase2	test/STIM_001.jpg
1122.128	0.522	correct	test	Phase2	test/STIM_001.jpg
1125.153	0.531	incorrect	test	Phase2	test/STIM_001.jpg
1128.938	0.768	correct	test	Phase2	test/STIM_002.jpg
1133.468	0.72	correct	test	Phase2	test/STIM_002.jpg
1137.066	0.869	incorrect	test	Phase2	test/STIM_002.jpg
1141.328	0.76	correct	test	Phase2	test/STIM_003.jpg
1145.087	0.691	correct	test	Phase2	test/STIM_003.jpg
1149.42	0.599	correct	test	Phase2	test/STIM_003.jpg
1153.093	1.052	correct	test	Phase2	test/STIM_004.jpg
1157.169	0.528	correct	test	Phase2	test/STIM_004.jpg
1160.868	0.895	incorrect	test	Phase2	test/STIM_004.jpg
1164.191	1.016	correct	test	Phase2	test/STIM_005.jpg
1168.426	0.618	correct	test	Phase2	test/STIM_005.jpg
1171.183	1.064	correct	test	Phase2	test/STIM_005.jpg
1175.576	0.679	correct	test	Phase2	test/STIM_006.jpg
1179.671	1.013	correct	test	Phase2	test/STIM_006.jpg
1182.874	0.597	correct	test	Phase2	test/STIM_006.jpg
1187.318	0.873	incorrect	test	Phase2	test/STIM_007.jpg
1191.666	0.62	correct	test	Phase2	test/STIM_007.jpg
1195.226	0.745	correct	test	Phase2	test/STIM_007.jpg
1198.188	0.614	correct	test	Phase2	test/STIM_008.jpg
1201.07	0.877	correct	test	Phase2	test/STIM_008.jpg
1204.871	0.688	correct	test	Phase2	test/STIM_008.jpg
1209.111	0.693	correct	test	Phase2	test/STIM_009.jpg
1212.871	0.913	correct	test	Phase2	test/STIM_009.jpg
1217.401	0.644	correct	test	Phase2	test/STIM_009.jpg
1220.676	0.872	correct	test	Phase2	test/STIM_010.jpg
1224.685	0.873	correct	test	Phase2	test/STIM_010.jpg
1229.245	0.579	incorrect	test	Phase2	test/STIM_010.jpg
1233.376	0.812	correct	test	Phase2	test/STIM_011.jpg
1237.192	0.663	correct	test	Phase2	test/STIM_011.jpg
1241.564	0.932	incorrect	test	Phase2	test/STIM_011.jpg
1245.83	0.731	correct	test	Phase2	test/STIM_012.jpg
1250.518	0.597	correct	test	Phase2	test/STIM_012.jpg
1254.106	0.626	correct	test	Phase2	test/STIM_012.jpg
1258.581	0.954	correct	test	Phase2	test/STIM_013.jpg
1263.011	0.93	correct	test	Phase2	test/STIM_013.jpg
1266.595	0.808	correct	test	Phase2	test/STIM_013.jpg
1271.513	1.081	correct	test	Phase2	test/STIM_014.jpg
1276.185	1.07	correct	test	Phase2	test/STIM_014.jpg
1280.569	1.064	incorrect	test	Phase2	test/STIM_014.jpg
1285.204	0.693	correct	test	Phase2	test/STIM_015.jpg
1289.955	1.082	correct	test	Phase2	test/STIM_015.jpg
1294.94	1.022	correct	test	Phase2	test/STIM_015.jpg
1299.789	0.537	correct	test	Phase2	test/STIM_016.jpg
1302.875	0.587	correct	test	Phase2	test/STIM_016.jpg
1306.952	0.719	correct	test	Phase2	test/STIM_016.jpg
1309.92	0.704	correct	test	Phase2	test/STIM_017.jpg
1314.322	0.706	correct	test	Phase2	test/STIM_017.jpg
1318.917	0.884	correct	test	Phase2	test/STIM_017.jpg
1321.997	1.037	correct	test	Phase2	test/STIM_018.jpg
1326.956	0.832	correct	test	Phase2	test/STIM_018.jpg
1331.524	1.114	correct	test	Phase2	test/STIM_018.jpg
1336.356	0.756	correct	test	Phase2	test/STIM_019.jpg
1340.493	1.039	correct	test	Phase2	test/STIM_019.jpg
1345.241	0.766	correct	test	Phase2	test/STIM_019.jpg
1349.609	0.658	incorrect	test	Phase2	test/STIM_020.jpg
1353.085	0.687	incorrect	test	Phase2	test/STIM_020.jpg
1356.353	0.54	correct	test	Phase2	test/STIM_020.jpg
1360.958	0.772	correct	test	Phase2	test/STIM_021.jpg
1365.217	0.646	incorrect	test	Phase2	test/STIM_021.jpg
1369.542	0.568	correct	test	Phase2	test/STIM_021.jpg
1373.963	1.082	correct	test	Phase2	test/STIM_022.jpg
1378.451	0.615	correct	test	Phase2	test/STIM_022.jpg
1381.632	1.081	correct	test	Phase2	test/STIM_022.jpg
1386.107	0.822	correct	test	Phase2	test/STIM_023.jpg
1389.419	0.647	correct	test	Phase2	test/STIM_023.jpg
1393.732	0.725	correct	test	Phase2	test/STIM_023.jpg
1398.516	1.045	correct	test	Phase2	test/STIM_024.jpg
1403.724	0.619	correct	test	Phase2	test/STIM_024.jpg
1407.962	0.932	correct	test	Phase2	test/STIM_024.jpg
1412.681	0.649	correct	test	Phase2	test/STIM_025.jpg
1416.512	0.871	correct	test	Phase2	test/STIM_025.jpg
1419.71	1.042	correct	test	Phase2	test/STIM_025.jpg
1423.184	1.048	correct	test	Phase2	test/STIM_026.jpg
1428.13	1.001	correct	test	Phase2	test/STIM_026.jpg
1432.398	0.567	incorrect	test	Phase2	test/STIM_026.jpg
1435.805	0.671	correct	test	Phase2	test/STIM_027.jpg
1439.578	0.563	incorrect	test	Phase2	test/STIM_027.jpg
1443.601	0.56	correct	test	Phase2	test/STIM_027.jpg
1447.245	0.803	correct	test	Phase2	test/STIM_028.jpg
1451.831	0.724	correct	test	Phase2	test/STIM_028.jpg
1455.806	0.675	incorrect	test	Phase2	test/STIM_028.jpg
1460.188	0.91	correct	test	Phase2	test/STIM_029.jpg
1464.983	0.94	correct	test	Phase2	test/STIM_029.jpg
1469.474	0.923	incorrect	test	Phase2	test/STIM_029.jpg
1474.055	0.576	correct	study	Phase3	study/STIM_000.jpg
1478.47	0.498	correct	study	Phase3	study/STIM_000.jpg
1481.308	0.682	correct	study	Phase3	study/STIM_000.jpg
1484.424	0.972	correct	study	Phase3	study/STIM_001.jpg
1488.572	0.484	correct	study	Phase3	study/STIM_001.jpg
1492.37	1.069	correct	study	Phase3	study/STIM_001.jpg
1496.137	0.861	correct	study	Phase3	study/STIM_002.jpg
1500.7	0.545	correct	study	Phase3	study/STIM_002.jpg
1504.418	1.058	correct	study	Phase3	study/STIM_002.jpg
1508.917	1.04	correct	study	Phase3	study/STIM_003.jpg
1514.004	0.893	correct	study	Phase3	study/STIM_003.jpg
1517.647	0.906	correct	study	Phase3	study/STIM_003.jpg
1521.867	0.688	correct	study	Phase3	study/STIM_004.jpg
1524.761	1.004	correct	study	Phase3	study/STIM_004.jpg
1529.869	0.93	correct	study	Phase3	study/STIM_004.jpg
1534.47	0.495	correct	study	Phase3	study/STIM_005.jpg
1537.694	0.774	correct	study	Phase3	study/STIM_005.jpg
1541.963	0.748	correct	study	Phase3	study/STIM_005.jpg
1546.829	0.736	correct	study	Phase3	study/STIM_006.jpg
1550.015	0.958	correct	study	Phase3	study/STIM_006.jpg
1553.573	0.53	correct	study	Phase3	study/STIM_006.jpg
1557.5	0.644	correct	study	Phase3	study/STIM_007.jpg
1560.553	0.74	correct	study	Phase3	study/STIM_007.jpg
1564.255	0.864	correct	study	Phase3	study/STIM_007.jpg
1567.811	1.071	incorrect	study	Phase3	study/STIM_008.jpg
1572.847	0.618	correct	study	Phase3	study/STIM_008.jpg
1575.631	0.872	correct	study	Phase3	study/STIM_008.jpg
1580.376	0.764	correct	study	Phase3	study/STIM_009.jpg
1583.638	1.002	correct	study	Phase3	study/STIM_009.jpg
1588.348	0.988	correct	study	Phase3	study/STIM_009.jpg
1592.752	0.559	correct	study	Phase3	study/STIM_010.jpg
1597.245	0.851	correct	study	Phase3	study/STIM_010.jpg
1601.2	0.551	correct	study	Phase3	study/STIM_010.jpg
1605.213	0.739	correct	study	Phase3	study/STIM_011.jpg
1609.057	0.519	correct	study	Phase3	study/STIM_011.jpg
1612.2	0.959	correct	study	Phase3	study/STIM_011.jpg
1616.229	0.487	correct	study	Phase3	study/STIM_012.jpg
1619.582	0.768	correct	study	Phase3	study/STIM_012.jpg
1623.062	0.898	correct	study	Phase3	study/STIM_012.jpg
1627.668	0.504	correct	study	Phase3	study/STIM_013.jpg
1630.465	0.626	correct	study	Phase3	study/STIM_013.jpg
1633.48	0.78	correct	study	Phase3	study/STIM_013.jpg
1637.794	0.816	incorrect	study	Phase3	study/STIM_014.jpg
1641.399	0.791	correct	study	Phase3	study/STIM_014.jpg
1645.022	0.5	incorrect	study	Phase3	study/STIM_014.jpg
1648.399	0.56	correct	study	Phase3	study/STIM_015.jpg
1652.431	0.961	correct	study	Phase3	study/STIM_015.jpg
1655.887	0.543	correct	study	Phase3	study/STIM_015.jpg
1659.933	0.499	correct	study	Phase3	study/STIM_016.jpg
1662.619	0.805	correct	study	Phase3	study/STIM_016.jpg
1667.3	0.909	correct	study	Phase3	study/STIM_016.jpg
1671.038	0.97	correct	study	Phase3	study/STIM_017.jpg
1675.958	0.809	correct	study	Phase3	study/STIM_017.jpg
1679.806	0.867	correct	study	Phase3	study/STIM_017.jpg
1684.28	0.529	correct	study	Phase3	study/STIM_018.jpg
1687.391	0.576	correct	study	Phase3	study/STIM_018.jpg
1690.501	1.066	correct	study	Phase3	study/STIM_018.jpg
1694.109	0.954	correct	study	Phase3	study/STIM_019.jpg
1698.218	0.814	correct	study	Phase3	study/STIM_019.jpg
1701.624	1.078	correct	study	Phase3	study/STIM_019.jpg
1706.182	0.6	correct	study	Phase3	study/STIM_020.jpg
1709.026	0.499	correct	study	Phase3	study/STIM_020.jpg
1712.533	1.002	correct	study	Phase3	study/STIM_020.jpg
1717.186	0.736	incorrect	study	Phase3	study/STIM_021.jpg
1720.786	1.073	correct	study	Phase3	study/STIM_021.jpg
1725.771	0.828	correct	study	Phase3	study/STIM_021.jpg
1730.187	0.773	correct	study	Phase3	study/STIM_022.jpg
1734.889	0.734	correct	study	Phase3	study/STIM_022.jpg
1738.929	1.028	correct	study	Phase3	study/STIM_022.jpg
1743.373	0.86	correct	study	Phase3	study/STIM_023.jpg
1746.638	0.91	correct	study	Phase3	study/STIM_023.jpg
1750.059	0.623	correct	study	Phase3	study/STIM_023.jpg
1753.147	0.993	correct	study	Phase3	study/STIM_024.jpg
1756.8	1.003	correct	study	Phase3	study/STIM_024.jpg
1760.999	0.696	correct	study	Phase3	study/STIM_024.jpg
1764.137	0.715	correct	study	Phase3	study/STIM_025.jpg
1767.487	0.875	correct	study	Phase3	study/STIM_025.jpg
1772.054	0.559	correct	study	Phase3	study/STIM_025.jpg
1775.613	0.622	correct	study	Phase3	study/STIM_026.jpg
1778.678	0.792	correct	study	Phase3	study/STIM_026.jpg
1783.26	0.739	correct	study	Phase3	study/STIM_026.jpg
1787.355	0.905	correct	study	Phase3	study/STIM_027.jpg
1790.745	0.502	correct	study	Phase3	study/STIM_027.jpg
1794.659	0.765	correct	study	Phase3	study/STIM_027.jpg
1799.162	0.832	correct	study	Phase3	study/STIM_028.jpg
1802.544	0.548	correct	study	Phase3	study/STIM_028.jpg
1805.296	0.799	correct	study	Phase3	study/STIM_028.jpg
1808.307	0.554	correct	study	Phase3	study/STIM_029.jpg
1812.82	0.67	correct	study	Phase3	study/STIM_029.jpg
1815.684	0.569	correct	study	Phase3	study/STIM_029.jpg
1820.279	0.518	correct	test	Phase3	test/STIM_000.jpg
1824.16	1.036	correct	test	Phase3	test/STIM_000.jpg
1828.399	0.808	correct	test	Phase3	test/STIM_000.jpg
1831.62	0.533	correct	test	Phase3	test/STIM_001.jpg
1835.651	0.636	correct	test	Phase3	test/STIM_001.jpg
1840.332	0.571	incorrect	test	Phase3	test/STIM_001.jpg
1843.885	1.036	correct	test	Phase3	test/STIM_002.jpg
1848.478	1.018	correct	test	Phase3	test/STIM_002.jpg
1853.031	0.813	correct	test	Phase3	test/STIM_002.jpg
1857.717	0.857	incorrect	test	Phase3	test/STIM_003.jpg
1862.578	0.929	correct	test	Phase3	test/STIM_003.jpg
1866.092	0.91	correct	test	Phase3	test/STIM_003.jpg
1870.456	0.579	correct	test	Phase3	test/STIM_004.jpg
1875.13	0.544	correct	test	Phase3	test/STIM_004.jpg
1878.577	1.037	incorrect	test	Phase3	test/STIM_004.jpg
1882.921	0.958	correct	test	Phase3	test/STIM_005.jpg
1886.846	0.711	correct	test	Phase3	test/STIM_005.jpg
1891.291	0.972	correct	test	Phase3	test/STIM_005.jpg
1895.295	1.006	correct	test	Phase3	test/STIM_006.jpg
1899.557	0.518	correct	test	Phase3	test/STIM_006.jpg
1902.894	0.752	correct	test	Phase3	test/STIM_006.jpg
1906.548	0.784	incorrect	test	Phase3	test/STIM_007.jpg
1910.209	0.651	correct	test	Phase3	test/STIM_007.jpg
1914.175	0.916	correct	test	Phase3	test/STIM_007.jpg
1918.169	0.743	correct	test	Phase3	test/STIM_008.jpg
1922.073	0.802	incorrect	test	Phase3	test/STIM_008.jpg
1925.691	0.743	correct	test	Phase3	test/STIM_008.jpg
1929.718	0.835	correct	test	Phase3	test/STIM_009.jpg
1934.221	1.003	correct	test	Phase3	test/STIM_009.jpg
1939.301	0.526	correct	test	Phase3	test/STIM_009.jpg
1941.929	0.903	correct	test	Phase3	test/STIM_010.jpg
1945.469	1.071	correct	test	Phase3	test/STIM_010.jpg
1950.587	0.726	correct	test	Phase3	test/STIM_010.jpg
1954.405	0.669	correct	test	Phase3	test/STIM_011.jpg
1957.799	0.997	correct	test	Phase3	test/STIM_011.jpg
1961.584	0.881	correct	test	Phase3	test/STIM_011.jpg
1965.157	0.763	correct	test	Phase3	test/STIM_012.jpg
1968.408	0.924	correct	test	Phase3	test/STIM_012.jpg
1972.535	0.94	correct	test	Phase3	test/STIM_012.jpg
1976.766	0.669	correct	test	Phase3	test/STIM_013.jpg
1980.513	0.999	correct	test	Phase3	test/STIM_013.jpg
1983.764	0.895	correct	test	Phase3	test/STIM_013.jpg
1988.011	1.006	correct	test	Phase3	test/STIM_014.jpg
1991.64	0.642	correct	test	Phase3	test/STIM_014.jpg
1995.211	1.019	correct	test	Phase3	test/STIM_014.jpg
1999.105	0.657	incorrect	test	Phase3	test/STIM_015.jpg
2002.421	1.008	correct	test	Phase3	test/STIM_015.jpg
2006.932	0.572	incorrect	test	Phase3	test/STIM_015.jpg
2010.502	0.867	correct	test	Phase3	test/STIM_016.jpg
2014.987	1.033	correct	test	Phase3	test/STIM_016.jpg
2018.382	0.529	correct	test	Phase3	test/STIM_016.jpg
2022.213	0.843	correct	test	Phase3	test/STIM_017.jpg
2025.977	0.872	correct	test	Phase3	test/STIM_017.jpg
2030.969	0.597	correct	test	Phase3	test/STIM_017.jpg
2034.473	0.772	correct	test	Phase3	test/STIM_018.jpg
2038.758	1.11	correct	test	Phase3	test/STIM_018.jpg
2042.26	0.95	incorrect	test	Phase3	test/STIM_018.jpg
2045.915	0.562	correct	test	Phase3	test/STIM_019.jpg
2050.359	0.63	correct	test	Phase3	test/STIM_019.jpg
2053.547	0.728	correct	test	Phase3	test/STIM_019.jpg
2057.433	0.555	correct	test	Phase3	test/STIM_020.jpg
2060.548	0.839	correct	test	Phase3	test/STIM_020.jpg
2064.828	0.835	correct	test	Phase3	test/STIM_020.jpg
2068.467	0.917	correct	test	Phase3	test/STIM_021.jpg
2072.859	0.85	correct	test	Phase3	test/STIM_021.jpg
2076.78	0.551	correct	test	Phase3	test/STIM_021.jpg
2081.337	0.62	correct	test	Phase3	test/STIM_022.jpg
2084.462	0.836	correct	test	Phase3	test/STIM_022.jpg
2088.338	0.969	correct	test	Phase3	test/STIM_022.jpg
2092.797	0.992	correct	test	Phase3	test/STIM_023.jpg
2096.423	0.754	incorrect	test	Phase3	test/STIM_023.jpg
2101.288	1.071	correct	test	Phase3	test/STIM_023.jpg
2106.22	0.828	correct	test	Phase3	test/STIM_024.jpg
2109.363	0.968	correct	test	Phase3	test/STIM_024.jpg
2114.144	0.984	correct	test	Phase3	test/STIM_024.jpg
2117.364	0.697	correct	test	Phase3	test/STIM_025.jpg
2120.896	0.567	correct	test	Phase3	test/STIM_025.jpg
2124.665	0.698	correct	test	Phase3	test/STIM_025.jpg
2128.374	0.875	correct	test	Phase3	test/STIM_026.jpg
2133.233	0.813	correct	test	Phase3	test/STIM_026.jpg
2137.884	0.64	correct	test	Phase3	test/STIM_026.jpg
2140.862	1.005	correct	test	Phase3	test/STIM_027.jpg
2145.79	1.036	correct	test	Phase3	test/STIM_027.jpg
2150.578	0.698	correct	test	Phase3	test/STIM_027.jpg
2154.197	0.619	correct	test	Phase3	test/STIM_028.jpg
2157.611	1.1	correct	test	Phase3	test/STIM_028.jpg
2162.539	0.594	correct	test	Phase3	test/STIM_028.jpg
2167.077	0.807	correct	test	Phase3	test/STIM_029.jpg
2171.548	0.62	correct	test	Phase3	test/STIM_029.jpg
2175.067	0.603	correct	test	Phase3	test/STIM_029.jpg
