onset	duration	accuracy_binary	trial_type	learning_stage	stimulus
0.0	1.251	1	generate	Run1	generate/STIM_000.jpg
5.162	2.473	1	generate	Run1	generate/STIM_000.jpg
9.773	1.618	1	generate	Run1	generate/STIM_000.jpg
14.415	2.541	1	generate	Run1	generate/STIM_000.jpg
19.628	1.922	0	generate	Run1	generate/STIM_000.jpg
23.836	2.719	1	generate	Run1	generate/STIM_001.jpg
29.856	2.1	1	generate	Run1	generate/STIM_001.jpg
34.146	2.206	1	generate	Run1	generate/STIM_001.jpg
39.209	2.298	1	generate	Run1	generate/STIM_001.jpg
44.956	2.238	1	generate	Run1	generate/STIM_001.jpg
50.784	1.255	1	generate	Run1	generate/STIM_002.jpg
55.512	2.922	1	generate	Run1	generate/STIM_002.jpg
62.361	1.816	1	generate	Run1	generate/STIM_002.jpg
66.713	2.304	1	generate	Run1	generate/STIM_002.jpg
72.465	2.385	1	generate	Run1	generate/STIM_002.jpg
77.911	2.279	1	generate	Run1	generate/STIM_003.jpg
83.314	1.808	1	generate	Run1	generate/STIM_003.jpg
88.124	2.259	1	generate	Run1	generate/STIM_003.jpg
93.048	2.21	1	generate	Run1	generate/STIM_003.jpg
98.031	1.37	1	generate	Run1	generate/STIM_003.jpg
101.731	2.295	0	generate	Run1	generate/STIM_004.jpg
107.139	1.688	1	generate	Run1	generate/STIM_004.jpg
112.676	1.409	1	generate	Run1	generate/STIM_004.jpg
116.193	2.534	0	generate	Run1	generate/STIM_004.jpg
121.665	1.28	1	generate	Run1	generate/STIM_004.jpg
125.237	2.351	1	generate	Run1	generate/STIM_005.jpg
130.409	2.44	1	generate	Run1	generate/STIM_005.jpg
136.496	2.086	1	generate	Run1	generate/STIM_005.jpg
140.893	2.215	1	generate	Run1	generate/STIM_005.jpg
145.24	1.182	1	generate	Run1	generate/STIM_005.jpg
148.842	1.498	0	generate	Run1	generate/STIM_006.jpg
152.415	1.264	1	generate	Run1	generate/STIM_006.jpg
156.042	2.59	0	generate	Run1	generate/STIM_006.jpg
162.4	2.049	1	generate	Run1	generate/STIM_006.jpg
167.561	2.142	1	generate	Run1	generate/STIM_006.jpg
173.311	2.1	1	generate	Run1	generate/STIM_007.jpg
177.819	2.586	0	generate	Run1	generate/STIM_007.jpg
183.519	2.41	1	generate	Run1	generate/STIM_007.jpg
189.213	2.48	1	generate	Run1	generate/STIM_007.jpg
194.21	1.861	1	generate	Run1	generate/STIM_007.jpg
199.237	1.774	1	generate	Run1	generate/STIM_008.jpg
204.808	2.575	1	generate	Run1	generate/STIM_008.jpg
210.791	1.913	1	generate	Run1	generate/STIM_008.jpg
215.04	1.273	1	generate	Run1	generate/STIM_008.jpg
220.243	2.258	1	generate	Run1	generate/STIM_008.jpg
224.795	2.13	0	generate	Run1	generate/STIM_009.jpg
228.966	2.114	1	generate	Run1	generate/STIM_009.jpg
233.946	1.994	1	generate	Run1	generate/STIM_009.jpg
239.716	2.374	1	generate	Run1	generate/STIM_009.jpg
244.129	0.986	1	generate	Run1	generate/STIM_009.jpg
248.106	2.003	1	generate	Run1	generate/STIM_010.jpg
252.451	2.88	1	generate	Run1	generate/STIM_010.jpg
258.307	1.878	1	generate	Run1	generate/STIM_010.jpg
263.157	1.893	1	generate	Run1	generate/STIM_010.jpg
267.568	1.14	1	generate	Run1	generate/STIM_010.jpg
272.564	1.665	1	generate	Run1	generate/STIM_011.jpg
278.008	1.718	1	generate	Run1	generate/STIM_011.jpg
282.681	1.845	1	generate	Run1	generate/STIM_011.jpg
287.419	2.431	0	generate	Run1	generate/STIM_011.jpg
293.354	2.292	1	generate	Run1	generate/STIM_011.jpg
299.523	2.75	1	generate	Run1	generate/STIM_012.jpg
305.912	1.775	1	generate	Run1	generate/STIM_012.jpg
310.312	2.159	1	generate	Run1	generate/STIM_012.jpg
315.171	1.553	1	generate	Run1	generate/STIM_012.jpg
318.8	1.513	1	generate	Run1	generate/STIM_012.jpg
323.144	1.668	1	generate	Run1	generate/STIM_013.jpg
328.116	2.423	1	generate	Run1	generate/STIM_013.jpg
334.077	1.219	1	generate	Run1	generate/STIM_013.jpg
339.011	1.828	1	generate	Run1	generate/STIM_013.jpg
343.722	1.695	0	generate	Run1	generate/STIM_013.jpg
348.155	1.695	0	generate	Run1	generate/STIM_014.jpg
352.117	2.869	1	generate	Run1	generate/STIM_014.jpg
358.285	2.255	0	generate	Run1	generate/STIM_014.jpg
362.815	2.282	1	generate	Run1	generate/STIM_014.jpg
367.728	2.45	1	generate	Run1	generate/STIM_014.jpg
372.267	1.383	1	generate	Run1	generate/STIM_015.jpg
377.182	2.524	1	generate	Run1	generate/STIM_015.jpg
383.322	2.56	1	generate	Run1	generate/STIM_015.jpg
389.745	1.548	1	generate	Run1	generate/STIM_015.jpg
395.145	1.58	1	generate	Run1	generate/STIM_015.jpg
400.317	2.792	1	generate	Run1	generate/STIM_016.jpg
406.053	2.756	1	generate	Run1	generate/STIM_016.jpg
412.646	1.248	1	generate	Run1	generate/STIM_016.jpg
416.876	2.022	1	generate	Run1	generate/STIM_016.jpg
421.733	1.045	1	generate	Run1	generate/STIM_016.jpg
425.855	2.967	1	generate	Run1	generate/STIM_017.jpg
432.569	1.994	1	generate	Run1	generate/STIM_017.jpg
437.816	2.418	1	generate	Run1	generate/STIM_017.jpg
443.276	1.365	1	generate	Run1	generate/STIM_017.jpg
448.619	1.24	1	generate	Run1	generate/STIM_017.jpg
453.541	3.055	1	generate	Run1	generate/STIM_018.jpg
459.902	2.255	1	generate	Run1	generate/STIM_018.jpg
464.754	1.828	1	generate	Run1	generate/STIM_018.jpg
468.914	1.818	1	generate	Run1	generate/STIM_018.jpg
473.38	1.645	1	generate	Run1	generate/STIM_018.jpg
478.176	2.278	1	generate	Run1	generate/STIM_019.jpg
484.033	1.626	1	generate	Run1	generate/STIM_019.jpg
487.99	1.491	1	generate	Run1	generate/STIM_019.jpg
493.273	2.096	0	generate	Run1	generate/STIM_019.jpg
497.903	2.111	1	generate	Run1	generate/STIM_019.jpg
502.118	2.27	1	generate	Run1	generate/STIM_020.jpg
507.688	1.572	1	generate	Run1	generate/STIM_020.jpg
512.34	2.716	1	generate	Run1	generate/STIM_020.jpg
517.42	2.54	1	generate	Run1	generate/STIM_020.jpg
522.324	1.795	1	generate	Run1	generate/STIM_020.jpg
527.367	1.629	1	generate	Run1	generate/STIM_021.jpg
531.035	2.374	1	generate	Run1	generate/STIM_021.jpg
536.952	1.301	0	generate	Run1	generate/STIM_021.jpg
542.01	1.652	1	generate	Run1	generate/STIM_021.jpg
546.671	1.092	1	generate	Run1	generate/STIM_021.jpg
550.108	2.62	0	generate	Run1	generate/STIM_022.jpg
556.034	2.694	1	generate	Run1	generate/STIM_022.jpg
560.976	2.375	0	generate	Run1	generate/STIM_022.jpg
565.741	1.694	1	generate	Run1	generate/STIM_022.jpg
570.006	1.924	1	generate	Run1	generate/STIM_022.jpg
575.706	1.714	1	generate	Run1	generate/STIM_023.jpg
581.155	1.98	1	generate	Run1	generate/STIM_023.jpg
586.723	2.722	1	generate	Run1	generate/STIM_023.jpg
592.356	1.69	1	generate	Run1	generate/STIM_023.jpg
596.941	1.522	1	generate	Run1	generate/STIM_023.jpg
601.617	2.781	1	generate	Run1	generate/STIM_024.jpg
606.888	2.467	1	generate	Run1	generate/STIM_024.jpg
611.869	1.818	1	generate	Run1	generate/STIM_024.jpg
617.432	1.298	1	generate	Run1	generate/STIM_024.jpg
621.827	2.302	1	generate	Run1	generate/STIM_024.jpg
626.358	1.01	1	repeat	Run1	repeat/STIM_000.jpg
629.987	0.659	1	repeat	Run1	repeat/STIM_000.jpg
633.773	0.962	1	repeat	Run1	repeat/STIM_000.jpg
636.879	0.682	1	repeat	Run1	repeat/STIM_000.jpg
640.433	0.731	1	repeat	Run1	repeat/STIM_000.jpg
643.181	0.969	1	repeat	Run1	repeat/STIM_001.jpg
647.91	0.517	1	repeat	Run1	repeat/STIM_001.jpg
652.209	0.568	1	repeat	Run1	repeat/STIM_001.jpg
656.555	0.697	1	repeat	Run1	repeat/STIM_001.jpg
660.527	0.935	1	repeat	Run1	repeat/STIM_001.jpg
664.512	0.71	1	repeat	Run1	repeat/STIM_002.jpg
668.222	0.62	1	repeat	Run1	repeat/STIM_002.jpg
671.258	0.515	1	repeat	Run1	repeat/STIM_002.jpg
675.769	0.952	1	repeat	Run1	repeat/STIM_002.jpg
680.174	0.865	1	repeat	Run1	repeat/STIM_002.jpg
683.762	1.005	1	repeat	Run1	repeat/STIM_003.jpg
686.872	0.887	1	repeat	Run1	repeat/STIM_003.jpg
691.255	0.987	1	repeat	Run1	repeat/STIM_003.jpg
694.832	0.979	1	repeat	Run1	repeat/STIM_003.jpg
698.403	0.892	1	repeat	Run1	repeat/STIM_003.jpg
701.423	0.575	1	repeat	Run1	repeat/STIM_004.jpg
705.808	0.639	1	repeat	Run1	repeat/STIM_004.jpg
710.375	0.867	1	repeat	Run1	repeat/STIM_004.jpg
714.33	0.993	1	repeat	Run1	repeat/STIM_004.jpg
718.924	0.828	1	repeat	Run1	repeat/STIM_004.jpg
723.324	0.894	1	repeat	Run1	repeat/STIM_005.jpg
726.614	0.92	1	repeat	Run1	repeat/STIM_005.jpg
731.508	0.732	1	repeat	Run1	repeat/STIM_005.jpg
734.997	0.987	0	repeat	Run1	repeat/STIM_005.jpg
738.073	0.514	1	repeat	Run1	repeat/STIM_005.jpg
741.745	0.933	1	repeat	Run1	repeat/STIM_006.jpg
746.163	0.838	1	repeat	Run1	repeat/STIM_006.jpg
749.831	0.941	1	repeat	Run1	repeat/STIM_006.jpg
754.407	0.68	1	repeat	Run1	repeat/STIM_006.jpg
757.175	0.946	1	repeat	Run1	repeat/STIM_006.jpg
761.282	0.878	1	repeat	Run1	repeat/STIM_007.jpg
765.21	0.974	1	repeat	Run1	repeat/STIM_007.jpg
768.453	0.985	1	repeat	Run1	repeat/STIM_007.jpg
771.852	0.956	1	repeat	Run1	repeat/STIM_007.jpg
776.349	0.655	1	repeat	Run1	repeat/STIM_007.jpg
779.314	0.73	1	repeat	Run1	repeat/STIM_008.jpg
783.467	0.742	1	repeat	Run1	repeat/STIM_008.jpg
787.544	1.022	1	repeat	Run1	repeat/STIM_008.jpg
792.476	0.942	1	repeat	Run1	repeat/STIM_008.jpg
796.944	0.642	1	repeat	Run1	repeat/STIM_008.jpg
800.193	0.901	1	repeat	Run1	repeat/STIM_009.jpg
804.587	0.902	1	repeat	Run1	repeat/STIM_009.jpg
808.498	0.514	1	repeat	Run1	repeat/STIM_009.jpg
812.146	0.555	1	repeat	Run1	repeat/STIM_009.jpg
815.542	0.777	1	repeat	Run1	repeat/STIM_009.jpg
819.374	0.574	1	repeat	Run1	repeat/STIM_010.jpg
822.023	0.676	1	repeat	Run1	repeat/STIM_010.jpg
826.363	0.784	1	repeat	Run1	repeat/STIM_010.jpg
829.996	0.829	1	repeat	Run1	repeat/STIM_010.jpg
833.581	0.852	1	repeat	Run1	repeat/STIM_010.jpg
836.838	0.734	0	repeat	Run1	repeat/STIM_011.jpg
839.793	0.554	1	repeat	Run1	repeat/STIM_011.jpg
844.186	0.872	1	repeat	Run1	repeat/STIM_011.jpg
848.127	0.937	1	repeat	Run1	repeat/STIM_011.jpg
852.681	0.536	1	repeat	Run1	repeat/STIM_011.jpg
855.317	0.665	1	repeat	Run1	repeat/STIM_012.jpg
859.18	0.926	1	repeat	Run1	repeat/STIM_012.jpg
863.11	0.727	1	repeat	Run1	repeat/STIM_012.jpg
866.964	0.578	0	repeat	Run1	repeat/STIM_012.jpg
869.911	0.828	1	repeat	Run1	repeat/STIM_012.jpg
873.607	0.93	1	repeat	Run1	repeat/STIM_013.jpg
878.171	0.652	1	repeat	Run1	repeat/STIM_013.jpg
881.524	0.7	1	repeat	Run1	repeat/STIM_013.jpg
885.409	0.71	1	repeat	Run1	repeat/STIM_013.jpg
889.037	0.888	1	repeat	Run1	repeat/STIM_013.jpg
892.29	0.923	1	repeat	Run1	repeat/STIM_014.jpg
897.096	0.942	1	repeat	Run1	repeat/STIM_014.jpg
901.863	0.861	1	repeat	Run1	repeat/STIM_014.jpg
906.113	0.868	1	repeat	Run1	repeat/STIM_014.jpg
910.427	0.517	1	repeat	Run1	repeat/STIM_014.jpg
914.437	1.759	1	generate	Run2	generate/STIM_000.jpg
919.367	1.853	1	generate	Run2	generate/STIM_000.jpg
925.054	1.063	1	generate	Run2	generate/STIM_000.jpg
928.347	1.664	1	generate	Run2	generate/STIM_000.jpg
932.465	1.537	0	generate	Run2	generate/STIM_000.jpg
936.071	1.722	1	generate	Run2	generate/STIM_001.jpg
940.326	1.682	1	generate	Run2	generate/STIM_001.jpg
944.433	1.277	1	generate	Run2	generate/STIM_001.jpg
948.008	1.464	1	generate	Run2	generate/STIM_001.jpg
952.601	0.967	1	generate	Run2	generate/STIM_001.jpg
957.285	1.108	1	generate	Run2	generate/STIM_002.jpg
962.055	2.448	1	generate	Run2	generate/STIM_002.jpg
967.275	1.785	1	generate	Run2	generate/STIM_002.jpg
972.277	1.535	1	generate	Run2	generate/STIM_002.jpg
976.321	1.842	1	generate	Run2	generate/STIM_002.jpg
981.919	2.133	1	generate	Run2	generate/STIM_003.jpg
986.111	2.239	0	generate	Run2	generate/STIM_003.jpg
992.088	1.452	1	generate	Run2	generate/STIM_003.jpg
996.442	1.09	1	generate	Run2	generate/STIM_003.jpg
999.737	1.002	1	generate	Run2	generate/STIM_003.jpg
1002.943	2.289	1	generate	Run2	generate/STIM_004.jpg
1008.598	2.308	1	generate	Run2	generate/STIM_004.jpg
1014.827	1.56	1	generate	Run2	generate/STIM_004.jpg
1019.872	1.391	1	generate	Run2	generate/STIM_004.jpg
1024.387	1.749	1	generate	Run2	generate/STIM_004.jpg
1029.118	1.399	1	generate	Run2	generate/STIM_005.jpg
1033.043	1.165	1	generate	Run2	generate/STIM_005.jpg
1037.674	1.935	1	generate	Run2	generate/STIM_005.jpg
1042.588	1.152	1	generate	Run2	generate/STIM_005.jpg
1046.03	1.229	1	generate	Run2	generate/STIM_005.jpg
1049.964	1.57	0	generate	Run2	generate/STIM_006.jpg
1055.003	1.418	1	generate	Run2	generate/STIM_006.jpg
1058.894	1.99	1	generate	Run2	generate/STIM_006.jpg
1063.389	2.134	1	generate	Run2	generate/STIM_006.jpg
1068.403	1.678	1	generate	Run2	generate/STIM_006.jpg
1073.991	1.177	1	generate	Run2	generate/STIM_007.jpg
1078.806	0.987	1	generate	Run2	generate/STIM_007.jpg
1082.258	1.188	1	generate	Run2	generate/STIM_007.jpg
1085.961	1.452	1	generate	Run2	generate/STIM_007.jpg
1089.62	1.974	1	generate	Run2	generate/STIM_007.jpg
1095.383	1.148	1	generate	Run2	generate/STIM_008.jpg
1099.967	1.296	1	generate	Run2	generate/STIM_008.jpg
1104.357	1.682	1	generate	Run2	generate/STIM_008.jpg
1109.165	1.645	0	generate	Run2	generate/STIM_008.jpg
1113.759	2.147	0	generate	Run2	generate/STIM_008.jpg
1118.61	2.161	1	generate	Run2	generate/STIM_009.jpg
1123.06	1.822	1	generate	Run2	generate/STIM_009.jpg
1128.631	1.66	1	generate	Run2	generate/STIM_009.jpg
1134.082	0.954	1	generate	Run2	generate/STIM_009.jpg
1137.181	0.865	1	generate	Run2	generate/STIM_009.jpg
1140.611	1.973	1	generate	Run2	generate/STIM_010.jpg
1145.737	1.307	1	generate	Run2	generate/STIM_010.jpg
1149.543	2.283	1	generate	Run2	generate/STIM_010.jpg
1153.917	1.977	1	generate	Run2	generate/STIM_010.jpg
1159.186	1.191	1	generate	Run2	generate/STIM_010.jpg
1164.106	1.431	1	generate	Run2	generate/STIM_011.jpg
1167.946	2.4	1	generate	Run2	generate/STIM_011.jpg
1172.886	1.943	1	generate	Run2	generate/STIM_011.jpg
1176.901	2.033	1	generate	Run2	generate/STIM_011.jpg
1181.315	1.768	1	generate	Run2	generate/STIM_011.jpg
1186.831	1.758	1	generate	Run2	generate/STIM_012.jpg
1190.79	1.823	1	generate	Run2	generate/STIM_012.jpg
1196.425	1.478	1	generate	Run2	generate/STIM_012.jpg
1200.323	1.82	1	generate	Run2	generate/STIM_012.jpg
1204.391	0.899	1	generate	Run2	generate/STIM_012.jpg
1208.768	1.233	1	generate	Run2	generate/STIM_013.jpg
1212.963	1.603	1	generate	Run2	generate/STIM_013.jpg
1218.07	0.945	1	generate	Run2	generate/STIM_013.jpg
1222.056	1.466	1	generate	Run2	generate/STIM_013.jpg
1225.923	0.889	1	generate	Run2	generate/STIM_013.jpg
1228.823	1.526	1	generate	Run2	generate/STIM_014.jpg
1233.19	1.019	1	generate	Run2	generate/STIM_014.jpg
1237.441	1.777	1	generate	Run2	generate/STIM_014.jpg
1242.289	1.665	1	generate	Run2	generate/STIM_014.jpg
1246.569	1.479	1	generate	Run2	generate/STIM_014.jpg
1251.885	2.072	1	generate	Run2	generate/STIM_015.jpg
1256.604	2.148	0	generate	Run2	generate/STIM_015.jpg
1260.888	1.538	1	generate	Run2	generate/STIM_015.jpg
1264.864	1.203	1	generate	Run2	generate/STIM_015.jpg
1269.099	1.37	1	generate	Run2	generate/STIM_015.jpg
1274.334	2.478	1	generate	Run2	generate/STIM_016.jpg
1280.187	2.018	1	generate	Run2	generate/STIM_016.jpg
1285.728	1.428	1	generate	Run2	generate/STIM_016.jpg
1290.094	1.329	1	generate	Run2	generate/STIM_016.jpg
1294.978	1.688	1	generate	Run2	generate/STIM_016.jpg
1299.263	1.918	1	generate	Run2	generate/STIM_017.jpg
1304.695	1.654	1	generate	Run2	generate/STIM_017.jpg
1309.74	1.232	1	generate	Run2	generate/STIM_017.jpg
1313.076	1.599	1	generate	Run2	generate/STIM_017.jpg
1317.107	1.62	1	generate	Run2	generate/STIM_017.jpg
1321.665	2.029	1	generate	Run2	generate/STIM_018.jpg
1325.756	1.977	0	generate	Run2	generate/STIM_018.jpg
1329.97	1.842	1	generate	Run2	generate/STIM_018.jpg
1333.844	1.69	1	generate	Run2	generate/STIM_018.jpg
1338.677	1.502	1	generate	Run2	generate/STIM_018.jpg
1342.884	2.212	1	generate	Run2	generate/STIM_019.jpg
1347.967	1.548	1	generate	Run2	generate/STIM_019.jpg
1351.961	2.081	1	generate	Run2	generate/STIM_019.jpg
1356.182	1.237	1	generate	Run2	generate/STIM_019.jpg
1359.81	1.437	1	generate	Run2	generate/STIM_019.jpg
1363.825	2.138	1	generate	Run2	generate/STIM_020.jpg
1369.601	2.398	1	generate	Run2	generate/STIM_020.jpg
1375.32	1.481	1	generate	Run2	generate/STIM_020.jpg
1378.844	1.713	1	generate	Run2	generate/STIM_020.jpg
1383.621	1.674	1	generate	Run2	generate/STIM_020.jpg
1388.059	2.03	0	generate	Run2	generate/STIM_021.jpg
1392.213	1.667	1	generate	Run2	generate/STIM_021.jpg
1396.886	1.215	1	generate	Run2	generate/STIM_021.jpg
1400.941	1.845	1	generate	Run2	generate/STIM_021.jpg
1405.309	1.367	1	generate	Run2	generate/STIM_021.jpg
1409.557	1.756	0	generate	Run2	generate/STIM_022.jpg
1415.244	1.863	1	generate	Run2	generate/STIM_022.jpg
1420.638	1.462	1	generate	Run2	generate/STIM_022.jpg
1425.566	0.997	1	generate	Run2	generate/STIM_022.jpg
1429.785	1.49	1	generate	Run2	generate/STIM_022.jpg
1433.461	1.822	1	generate	Run2	generate/STIM_023.jpg
1439.119	1.13	1	generate	Run2	generate/STIM_023.jpg
1443.114	2.047	1	generate	Run2	generate/STIM_023.jpg
1447.744	1.859	1	generate	Run2	generate/STIM_023.jpg
1452.683	1.945	1	generate	Run2	generate/STIM_023.jpg
1456.691	1.581	0	generate	Run2	generate/STIM_024.jpg
1460.294	1.905	1	generate	Run2	generate/STIM_024.jpg
1464.748	1.102	1	generate	Run2	generate/STIM_024.jpg
1469.704	0.994	1	generate	Run2	generate/STIM_024.jpg
1473.161	1.064	1	generate	Run2	generate/STIM_024.jpg
1478.116	0.784	1	repeat	Run2	repeat/STIM_000.jpg
1482.121	0.619	1	repeat	Run2	repeat/STIM_000.jpg
1485.908	0.917	1	repeat	Run2	repeat/STIM_000.jpg
1489.339	0.557	1	repeat	Run2	repeat/STIM_000.jpg
1492.774	0.591	1	repeat	Run2	repeat/STIM_000.jpg
1496.071	0.692	1	repeat	Run2	repeat/STIM_001.jpg
1499.05	0.588	1	repeat	Run2	repeat/STIM_001.jpg
1503.506	0.973	1	repeat	Run2	repeat/STIM_001.jpg
1508.047	0.725	1	repeat	Run2	repeat/STIM_001.jpg
1512.578	0.559	1	repeat	Run2	repeat/STIM_001.jpg
1516.178	0.856	1	repeat	Run2	repeat/STIM_002.jpg
1519.112	0.789	1	repeat	Run2	repeat/STIM_002.jpg
1523.312	0.936	1	repeat	Run2	repeat/STIM_002.jpg
1527.739	0.749	1	repeat	Run2	repeat/STIM_002.jpg
1532.448	0.756	1	repeat	Run2	repeat/STIM_002.jpg
1535.626	0.659	1	repeat	Run2	repeat/STIM_003.jpg
1540.001	0.598	1	repeat	Run2	repeat/STIM_003.jpg
1544.134	0.845	1	repeat	Run2	repeat/STIM_003.jpg
1548.918	0.954	1	repeat	Run2	repeat/STIM_003.jpg
1551.927	0.554	1	repeat	Run2	repeat/STIM_003.jpg
1556.009	0.718	1	repeat	Run2	repeat/STIM_004.jpg
1559.473	0.555	1	repeat	Run2	repeat/STIM_004.jpg
1562.504	0.799	1	repeat	Run2	repeat/STIM_004.jpg
1566.352	0.946	1	repeat	Run2	repeat/STIM_004.jpg
1570.301	0.765	1	repeat	Run2	repeat/STIM_004.jpg
1574.824	0.955	1	repeat	Run2	repeat/STIM_005.jpg
1578.933	0.648	1	repeat	Run2	repeat/STIM_005.jpg
1581.791	0.621	1	repeat	Run2	repeat/STIM_005.jpg
1584.633	0.526	1	repeat	Run2	repeat/STIM_005.jpg
1587.308	0.732	1	repeat	Run2	repeat/STIM_005.jpg
1591.687	0.54	1	repeat	Run2	repeat/STIM_006.jpg
1595.338	0.624	1	repeat	Run2	repeat/STIM_006.jpg
1599.922	0.561	1	repeat	Run2	repeat/STIM_006.jpg
1602.874	0.797	1	repeat	Run2	repeat/STIM_006.jpg
1607.156	0.574	1	repeat	Run2	repeat/STIM_006.jpg
1610.78	0.889	1	repeat	Run2	repeat/STIM_007.jpg
1614.764	0.684	1	repeat	Run2	repeat/STIM_007.jpg
1619.024	0.698	1	repeat	Run2	repeat/STIM_007.jpg
1621.77	0.944	1	repeat	Run2	repeat/STIM_007.jpg
1625.437	0.772	1	repeat	Run2	repeat/STIM_007.jpg
1628.296	0.798	1	repeat	Run2	repeat/STIM_008.jpg
1632.888	0.612	1	repeat	Run2	repeat/STIM_008.jpg
1637.061	0.602	1	repeat	Run2	repeat/STIM_008.jpg
1639.754	1.008	1	repeat	Run2	repeat/STIM_008.jpg
1643.507	0.619	1	repeat	Run2	repeat/STIM_008.jpg
1647.231	0.704	1	repeat	Run2	repeat/STIM_009.jpg
1651.7	0.637	1	repeat	Run2	repeat/STIM_009.jpg
1654.406	1.0	1	repeat	Run2	repeat/STIM_009.jpg
1658.994	0.76	1	repeat	Run2	repeat/STIM_009.jpg
1662.08	0.548	1	repeat	Run2	repeat/STIM_009.jpg
1665.193	0.901	1	repeat	Run2	repeat/STIM_010.jpg
1668.47	0.858	1	repeat	Run2	repeat/STIM_010.jpg
1673.159	0.655	1	repeat	Run2	repeat/STIM_010.jpg
1677.056	0.982	1	repeat	Run2	repeat/STIM_010.jpg
1682.002	0.696	1	repeat	Run2	repeat/STIM_010.jpg
1685.463	0.844	1	repeat	Run2	repeat/STIM_011.jpg
1689.947	0.672	1	repeat	Run2	repeat/STIM_011.jpg
1694.003	0.972	1	repeat	Run2	repeat/STIM_011.jpg
1697.156	0.526	1	repeat	Run2	repeat/STIM_011.jpg
1699.962	0.67	1	repeat	Run2	repeat/STIM_011.jpg
1703.873	0.74	1	repeat	Run2	repeat/STIM_012.jpg
1706.846	0.715	1	repeat	Run2	repeat/STIM_012.jpg
1709.946	0.562	1	repeat	Run2	repeat/STIM_012.jpg
1712.522	0.756	1	repeat	Run2	repeat/STIM_012.jpg
1716.244	0.886	1	repeat	Run2	repeat/STIM_012.jpg
1720.003	0.802	1	repeat	Run2	repeat/STIM_013.jpg
1723.031	0.818	1	repeat	Run2	repeat/STIM_013.jpg
1727.632	0.672	1	repeat	Run2	repeat/STIM_013.jpg
1731.245	0.736	1	repeat	Run2	repeat/STIM_013.jpg
1735.365	1.012	1	repeat	Run2	repeat/STIM_013.jpg
1738.634	0.732	1	repeat	Run2	repeat/STIM_014.jpg
1741.786	0.949	1	repeat	Run2	repeat/STIM_014.jpg
1745.754	0.82	1	repeat	Run2	repeat/STIM_014.jpg
1750.152	0.627	1	repeat	Run2	repeat/STIM_014.jpg
1753.868	0.97	1	repeat	Run2	repeat/STIM_014.jpg
1758.583	1.807	1	generate	Run3	generate/STIM_000.jpg
1763.039	1.714	1	generate	Run3	generate/STIM_000.jpg
1768.109	0.879	1	generate	Run3	generate/STIM_000.jpg
1772.187	1.85	1	generate	Run3	generate/STIM_000.jpg
1777.197	1.535	1	generate	Run3	generate/STIM_000.jpg
1782.636	1.059	1	generate	Run3	generate/STIM_001.jpg
1785.892	1.454	1	generate	Run3	generate/STIM_001.jpg
1790.306	1.494	1	generate	Run3	generate/STIM_001.jpg
1794.51	1.005	1	generate	Run3	generate/STIM_001.jpg
1798.326	1.85	1	generate	Run3	generate/STIM_001.jpg
1802.457	1.88	1	generate	Run3	generate/STIM_002.jpg
1807.007	2.025	1	generate	Run3	generate/STIM_002.jpg
1811.834	2.043	1	generate	Run3	generate/STIM_002.jpg
1816.619	1.706	0	generate	Run3	generate/STIM_002.jpg
1820.38	1.097	1	generate	Run3	generate/STIM_002.jpg
1825.433	1.931	1	generate	Run3	generate/STIM_003.jpg
1829.612	1.414	1	generate	Run3	generate/STIM_003.jpg
1834.449	2.057	1	generate	Run3	generate/STIM_003.jpg
1838.797	1.321	1	generate	Run3	generate/STIM_003.jpg
1843.116	1.644	1	generate	Run3	generate/STIM_003.jpg
1846.943	1.459	1	generate	Run3	generate/STIM_004.jpg
1852.222	1.966	1	generate	Run3	generate/STIM_004.jpg
1857.934	1.39	1	generate	Run3	generate/STIM_004.jpg
1862.586	1.677	1	generate	Run3	generate/STIM_004.jpg
1866.572	0.954	1	generate	Run3	generate/STIM_004.jpg
1869.992	1.306	1	generate	Run3	generate/STIM_005.jpg
1874.445	1.013	1	generate	Run3	generate/STIM_005.jpg
1879.416	2.156	1	generate	Run3	generate/STIM_005.jpg
1885.281	1.014	1	generate	Run3	generate/STIM_005.jpg
1890.22	1.938	1	generate	Run3	generate/STIM_005.jpg
1895.096	0.923	1	generate	Run3	generate/STIM_006.jpg
1899.609	1.897	1	generate	Run3	generate/STIM_006.jpg
1903.558	1.728	1	generate	Run3	generate/STIM_006.jpg
1909.227	1.729	1	generate	Run3	generate/STIM_006.jpg
1914.944	1.664	1	generate	Run3	generate/STIM_006.jpg
1919.658	2.019	1	generate	Run3	generate/STIM_007.jpg
1924.652	1.764	1	generate	Run3	generate/STIM_007.jpg
1929.358	1.902	1	generate	Run3	generate/STIM_007.jpg
1933.671	1.801	1	generate	Run3	generate/STIM_007.jpg
1939.321	2.089	1	generate	Run3	generate/STIM_007.jpg
1944.915	0.956	1	generate	Run3	generate/STIM_008.jpg
1949.05	2.13	1	generate	Run3	generate/STIM_008.jpg
1953.477	2.015	1	generate	Run3	generate/STIM_008.jpg
1957.83	1.713	1	generate	Run3	generate/STIM_008.jpg
1962.387	1.93	1	generate	Run3	generate/STIM_008.jpg
1966.601	1.329	1	generate	Run3	generate/STIM_009.jpg
1971.452	1.041	1	generate	Run3	generate/STIM_009.jpg
1975.003	1.936	1	generate	Run3	generate/STIM_009.jpg
1980.13	1.056	1	generate	Run3	generate/STIM_009.jpg
1983.852	1.833	1	generate	Run3	generate/STIM_009.jpg
1988.443	1.146	1	generate	Run3	generate/STIM_010.jpg
1992.798	2.082	1	generate	Run3	generate/STIM_010.jpg
1998.467	1.239	1	generate	Run3	generate/STIM_010.jpg
2003.638	1.809	1	generate	Run3	generate/STIM_010.jpg
2008.64	2.083	1	generate	Run3	generate/STIM_010.jpg
2012.978	2.118	1	generate	Run3	generate/STIM_011.jpg
2017.277	1.43	1	generate	Run3	generate/STIM_011.jpg
2021.062	1.462	1	generate	Run3	generate/STIM_011.jpg
2024.705	1.548	1	generate	Run3	generate/STIM_011.jpg
2029.124	1.4	1	generate	Run3	generate/STIM_011.jpg
2032.804	1.902	1	generate	Run3	generate/STIM_012.jpg
2037.613	2.002	1	generate	Run3	generate/STIM_012.jpg
2043.357	2.086	1	generate	Run3	generate/STIM_012.jpg
2048.176	0.997	1	generate	Run3	generate/STIM_012.jpg
2051.484	1.51	1	generate	Run3	generate/STIM_012.jpg
2056.333	1.134	1	generate	Run3	generate/STIM_013.jpg
2060.848	2.15	1	generate	Run3	generate/STIM_013.jpg
2065.092	1.899	1	generate	Run3	generate/STIM_013.jpg
2069.69	1.968	1	generate	Run3	generate/STIM_013.jpg
2075.263	0.896	1	generate	Run3	generate/STIM_013.jpg
2080.019	1.952	1	generate	Run3	generate/STIM_014.jpg
2085.629	1.737	1	generate	Run3	generate/STIM_014.jpg
2091.23	1.823	1	generate	Run3	generate/STIM_014.jpg
2096.798	1.084	1	generate	Run3	generate/STIM_014.jpg
2101.381	2.131	1	generate	Run3	generate/STIM_014.jpg
2106.993	1.66	1	generate	Run3	generate/STIM_015.jpg
2112.333	0.885	1	generate	Run3	generate/STIM_015.jpg
2116.809	1.384	1	generate	Run3	generate/STIM_015.jpg
2120.835	2.024	1	generate	Run3	generate/STIM_015.jpg
2125.875	1.647	1	generate	Run3	generate/STIM_015.jpg
2131.215	1.201	1	generate	Run3	generate/STIM_016.jpg
2135.54	0.929	1	generate	Run3	generate/STIM_016.jpg
2138.748	1.277	1	generate	Run3	generate/STIM_016.jpg
2142.939	1.561	1	generate	Run3	generate/STIM_016.jpg
2146.943	2.07	1	generate	Run3	generate/STIM_016.jpg
2151.168	1.597	1	generate	Run3	generate/STIM_017.jpg
2154.899	1.357	1	generate	Run3	generate/STIM_017.jpg
2158.802	1.216	1	generate	Run3	generate/STIM_017.jpg
2163.331	1.264	1	generate	Run3	generate/STIM_017.jpg
2167.334	1.5	1	generate	Run3	generate/STIM_017.jpg
2172.789	1.601	1	generate	Run3	generate/STIM_018.jpg
2177.351	1.032	1	generate	Run3	generate/STIM_018.jpg
2181.587	1.902	1	generate	Run3	generate/STIM_018.jpg
2187.401	1.254	0	generate	Run3	generate/STIM_018.jpg
2191.269	1.723	1	generate	Run3	generate/STIM_018.jpg
2195.175	1.229	1	generate	Run3	generate/STIM_019.jpg
2199.823	1.373	1	generate	Run3	generate/STIM_019.jpg
2204.733	1.267	1	generate	Run3	generate/STIM_019.jpg
2208.425	1.801	1	generate	Run3	generate/STIM_019.jpg
2212.712	0.925	1	generate	Run3	generate/STIM_019.jpg
2216.501	1.641	1	generate	Run3	generate/STIM_020.jpg
2221.55	1.814	1	generate	Run3	generate/STIM_020.jpg
2225.775	1.426	1	generate	Run3	generate/STIM_020.jpg
2229.979	1.195	1	generate	Run3	generate/STIM_020.jpg
2234.406	2.077	1	generate	Run3	generate/STIM_020.jpg
2240.33	1.944	1	generate	Run3	generate/STIM_021.jpg
2244.803	1.323	1	generate	Run3	generate/STIM_021.jpg
2248.321	1.954	1	generate	Run3	generate/STIM_021.jpg
2252.677	1.743	1	generate	Run3	generate/STIM_021.jpg
2257.251	1.301	1	generate	Run3	generate/STIM_021.jpg
2261.662	1.942	1	generate	Run3	generate/STIM_022.jpg
2267.224	1.518	1	generate	Run3	generate/STIM_022.jpg
2272.626	1.268	1	generate	Run3	generate/STIM_022.jpg
2277.401	1.916	1	generate	Run3	generate/STIM_022.jpg
2282.197	2.095	1	generate	Run3	generate/STIM_022.jpg
2287.99	1.904	1	generate	Run3	generate/STIM_023.jpg
2291.918	2.006	1	generate	Run3	generate/STIM_023.jpg
2296.273	1.817	1	generate	Run3	generate/STIM_023.jpg
2301.874	1.29	1	generate	Run3	generate/STIM_023.jpg
2307.112	1.404	1	generate	Run3	generate/STIM_023.jpg
2312.102	1.989	1	generate	Run3	generate/STIM_024.jpg
2316.435	2.135	1	generate	Run3	generate/STIM_024.jpg
2320.697	2.146	0	generate	Run3	generate/STIM_024.jpg
2325.37	1.981	1	generate	Run3	generate/STIM_024.jpg
2329.715	1.92	1	generate	Run3	generate/STIM_024.jpg
2334.986	0.548	1	repeat	Run3	repeat/STIM_000.jpg
2337.699	0.998	1	repeat	Run3	repeat/STIM_000.jpg
2340.741	0.955	1	repeat	Run3	repeat/STIM_000.jpg
2344.014	0.905	1	repeat	Run3	repeat/STIM_000.jpg
2347.15	0.657	1	repeat	Run3	repeat/STIM_000.jpg
2350.895	0.979	1	repeat	Run3	repeat/STIM_001.jpg
2355.47	0.707	1	repeat	Run3	repeat/STIM_001.jpg
2358.861	0.602	1	repeat	Run3	repeat/STIM_001.jpg
2362.585	0.865	1	repeat	Run3	repeat/STIM_001.jpg
2367.26	0.573	1	repeat	Run3	repeat/STIM_001.jpg
2371.184	0.959	1	repeat	Run3	repeat/STIM_002.jpg
2375.806	1.021	1	repeat	Run3	repeat/STIM_002.jpg
2380.294	0.918	1	repeat	Run3	repeat/STIM_002.jpg
2383.588	0.643	1	repeat	Run3	repeat/STIM_002.jpg
2387.94	0.574	1	repeat	Run3	repeat/STIM_002.jpg
2392.358	0.885	1	repeat	Run3	repeat/STIM_003.jpg
2395.905	0.591	1	repeat	Run3	repeat/STIM_003.jpg
2399.817	0.784	1	repeat	Run3	repeat/STIM_003.jpg
2402.682	0.919	1	repeat	Run3	repeat/STIM_003.jpg
2406.641	0.568	1	repeat	Run3	repeat/STIM_003.jpg
2409.407	0.709	1	repeat	Run3	repeat/STIM_004.jpg
2413.865	0.702	1	repeat	Run3	repeat/STIM_004.jpg
2418.053	0.557	1	repeat	Run3	repeat/STIM_004.jpg
2420.804	0.517	1	repeat	Run3	repeat/STIM_004.jpg
2423.329	0.892	1	repeat	Run3	repeat/STIM_004.jpg
2428.15	0.687	1	repeat	Run3	repeat/STIM_005.jpg
2432.033	0.62	1	repeat	Run3	repeat/STIM_005.jpg
2436.572	0.892	1	repeat	Run3	repeat/STIM_005.jpg
2439.611	0.578	1	repeat	Run3	repeat/STIM_005.jpg
2443.242	0.906	1	repeat	Run3	repeat/STIM_005.jpg
2446.638	0.769	1	repeat	Run3	repeat/STIM_006.jpg
2449.977	0.742	1	repeat	Run3	repeat/STIM_006.jpg
2452.745	0.803	1	repeat	Run3	repeat/STIM_006.jpg
2456.321	0.563	1	repeat	Run3	repeat/STIM_006.jpg
2460.418	1.013	1	repeat	Run3	repeat/STIM_006.jpg
2464.892	0.541	1	repeat	Run3	repeat/STIM_007.jpg
2467.462	0.646	1	repeat	Run3	repeat/STIM_007.jpg
2470.311	0.672	1	repeat	Run3	repeat/STIM_007.jpg
2474.748	0.858	1	repeat	Run3	repeat/STIM_007.jpg
2479.239	0.55	1	repeat	Run3	repeat/STIM_007.jpg
2482.415	1.013	1	repeat	Run3	repeat/STIM_008.jpg
2486.166	0.566	1	repeat	Run3	repeat/STIM_008.jpg
2489.716	0.668	1	repeat	Run3	repeat/STIM_008.jpg
2492.892	0.858	1	repeat	Run3	repeat/STIM_008.jpg
2496.216	0.889	1	repeat	Run3	repeat/STIM_008.jpg
2500.155	0.71	1	repeat	Run3	repeat/STIM_009.jpg
2504.434	0.808	1	repeat	Run3	repeat/STIM_009.jpg
2508.899	0.969	1	repeat	Run3	repeat/STIM_009.jpg
2511.929	0.688	1	repeat	Run3	repeat/STIM_009.jpg
2516.46	0.972	1	repeat	Run3	repeat/STIM_009.jpg
2519.635	0.643	1	repeat	Run3	repeat/STIM_010.jpg
2524.011	0.718	1	repeat	Run3	repeat/STIM_010.jpg
2528.601	0.814	1	repeat	Run3	repeat/STIM_010.jpg
2532.287	0.731	1	repeat	Run3	repeat/STIM_010.jpg
2535.438	0.61	1	repeat	Run3	repeat/STIM_010.jpg
2538.855	0.69	1	repeat	Run3	repeat/STIM_011.jpg
2543.535	0.963	1	repeat	Run3	repeat/STIM_011.jpg
2548.072	0.992	1	repeat	Run3	repeat/STIM_011.jpg
2552.719	0.99	1	repeat	Run3	repeat/STIM_011.jpg
2556.888	0.723	1	repeat	Run3	repeat/STIM_011.jpg
2559.644	0.719	1	repeat	Run3	repeat/STIM_012.jpg
2563.174	0.747	0	repeat	Run3	repeat/STIM_012.jpg
2566.54	0.582	1	repeat	Run3	repeat/STIM_012.jpg
2570.904	0.93	1	repeat	Run3	repeat/STIM_012.jpg
2574.502	0.791	1	repeat	Run3	repeat/STIM_012.jpg
2577.565	1.015	1	repeat	Run3	repeat/STIM_013.jpg
2581.839	0.711	1	repeat	Run3	repeat/STIM_013.jpg
2585.577	0.969	1	repeat	Run3	repeat/STIM_013.jpg
2589.327	0.759	1	repeat	Run3	repeat/STIM_013.jpg
2592.95	0.686	1	repeat	Run3	repeat/STIM_013.jpg
2595.68	0.79	1	repeat	Run3	repeat/STIM_014.jpg
2600.382	0.608	1	repeat	Run3	repeat/STIM_014.jpg
2604.544	0.862	1	repeat	Run3	repeat/STIM_014.jpg
2608.181	0.866	1	repeat	Run3	repeat/STIM_014.jpg
2612.294	0.878	1	repeat	Run3	repeat/STIM_014.jpg
2616.339	1.826	1	generate	Run4	generate/STIM_000.jpg
2622.102	1.417	0	generate	Run4	generate/STIM_000.jpg
2627.323	1.414	1	generate	Run4	generate/STIM_000.jpg
2632.43	1.386	1	generate	Run4	generate/STIM_000.jpg
2636.412	1.311	0	generate	Run4	generate/STIM_000.jpg
2640.975	1.281	1	generate	Run4	generate/STIM_001.jpg
2644.929	1.712	1	generate	Run4	generate/STIM_001.jpg
2650.056	1.858	1	generate	Run4	generate/STIM_001.jpg
2655.497	1.074	1	generate	Run4	generate/STIM_001.jpg
2660.449	1.521	1	generate	Run4	generate/STIM_001.jpg
2665.687	0.969	1	generate	Run4	generate/STIM_002.jpg
2669.804	2.096	1	generate	Run4	generate/STIM_002.jpg
2674.454	2.133	1	generate	Run4	generate/STIM_002.jpg
2678.964	1.638	1	generate	Run4	generate/STIM_002.jpg
2683.98	1.17	1	generate	Run4	generate/STIM_002.jpg
2688.432	1.947	1	generate	Run4	generate/STIM_003.jpg
2694.359	1.187	1	generate	Run4	generate/STIM_003.jpg
2698.56	0.866	1	generate	Run4	generate/STIM_003.jpg
2701.889	2.024	1	generate	Run4	generate/STIM_003.jpg
2706.507	1.858	1	generate	Run4	generate/STIM_003.jpg
2710.499	1.066	1	generate	Run4	generate/STIM_004.jpg
2714.251	1.08	1	generate	Run4	generate/STIM_004.jpg
2719.111	1.383	1	generate	Run4	generate/STIM_004.jpg
2722.567	1.922	1	generate	Run4	generate/STIM_004.jpg
2727.004	2.003	1	generate	Run4	generate/STIM_004.jpg
2732.089	1.525	1	generate	Run4	generate/STIM_005.jpg
2735.638	1.3	1	generate	Run4	generate/STIM_005.jpg
2739.422	1.683	1	generate	Run4	generate/STIM_005.jpg
2743.571	0.878	1	generate	Run4	generate/STIM_005.jpg
2747.301	1.179	1	generate	Run4	generate/STIM_005.jpg
2751.655	1.814	1	generate	Run4	generate/STIM_006.jpg
2755.651	1.837	1	generate	Run4	generate/STIM_006.jpg
2761.225	1.972	0	generate	Run4	generate/STIM_006.jpg
2765.399	1.424	1	generate	Run4	generate/STIM_006.jpg
2770.551	1.752	1	generate	Run4	generate/STIM_006.jpg
2775.225	1.204	1	generate	Run4	generate/STIM_007.jpg
2780.231	1.039	1	generate	Run4	generate/STIM_007.jpg
2784.931	1.583	1	generate	Run4	generate/STIM_007.jpg
2788.815	1.2	1	generate	Run4	generate/STIM_007.jpg
2792.139	1.928	1	generate	Run4	generate/STIM_007.jpg
2796.836	1.318	1	generate	Run4	generate/STIM_008.jpg
2800.867	0.877	1	generate	Run4	generate/STIM_008.jpg
2805.127	2.051	1	generate	Run4	generate/STIM_008.jpg
2809.503	2.127	0	generate	Run4	generate/STIM_008.jpg
2814.809	1.717	1	generate	Run4	generate/STIM_008.jpg
2820.309	1.042	1	generate	Run4	generate/STIM_009.jpg
2823.835	1.572	1	generate	Run4	generate/STIM_009.jpg
2828.082	1.356	1	generate	Run4	generate/STIM_009.jpg
2832.878	1.951	1	generate	Run4	generate/STIM_009.jpg
2838.418	1.098	1	generate	Run4	generate/STIM_009.jpg
2843.161	1.002	1	generate	Run4	generate/STIM_010.jpg
2847.237	0.918	1	generate	Run4	generate/STIM_010.jpg
2852.145	1.837	1	generate	Run4	generate/STIM_010.jpg
2856.421	1.98	1	generate	Run4	generate/STIM_010.jpg
2861.512	1.395	1	generate	Run4	generate/STIM_010.jpg
2865.357	0.927	1	generate	Run4	generate/STIM_011.jpg
2869.737	1.466	1	generate	Run4	generate/STIM_011.jpg
2873.483	1.154	1	generate	Run4	generate/STIM_011.jpg
2878.004	1.387	1	generate	Run4	generate/STIM_011.jpg
2881.392	1.138	1	generate	Run4	generate/STIM_011.jpg
2886.152	1.644	1	generate	Run4	generate/STIM_012.jpg
2890.155	2.044	1	generate	Run4	generate/STIM_012.jpg
2896.161	1.546	1	generate	Run4	generate/STIM_012.jpg
2900.884	1.448	1	generate	Run4	generate/STIM_012.jpg
2906.317	1.895	1	generate	Run4	generate/STIM_012.jpg
2911.787	1.018	1	generate	Run4	generate/STIM_013.jpg
2915.586	1.238	1	generate	Run4	generate/STIM_013.jpg
2919.486	1.946	1	generate	Run4	generate/STIM_013.jpg
2924.267	1.393	1	generate	Run4	generate/STIM_013.jpg
2929.047	2.104	1	generate	Run4	generate/STIM_013.jpg
2933.983	1.142	1	generate	Run4	generate/STIM_014.jpg
2938.502	1.243	1	generate	Run4	generate/STIM_014.jpg
2941.937	1.45	1	generate	Run4	generate/STIM_014.jpg
2946.273	1.788	1	generate	Run4	generate/STIM_014.jpg
2950.595	1.735	1	generate	Run4	generate/STIM_014.jpg
2956.144	1.119	1	generate	Run4	generate/STIM_015.jpg
2959.798	2.014	1	generate	Run4	generate/STIM_015.jpg
2964.463	1.373	1	generate	Run4	generate/STIM_015.jpg
2968.156	1.156	1	generate	Run4	generate/STIM_015.jpg
2972.54	1.146	1	generate	Run4	generate/STIM_015.jpg
2976.172	1.588	1	generate	Run4	generate/STIM_016.jpg
2980.848	1.937	1	generate	Run4	generate/STIM_016.jpg
2985.403	1.034	1	generate	Run4	generate/STIM_016.jpg
2990.241	0.9	1	generate	Run4	generate/STIM_016.jpg
2993.774	2.095	1	generate	Run4	generate/STIM_016.jpg
2998.106	1.038	1	generate	Run4	generate/STIM_017.jpg
3002.803	1.235	1	generate	Run4	generate/STIM_017.jpg
3006.467	2.007	1	generate	Run4	generate/STIM_017.jpg
3011.176	1.597	1	generate	Run4	generate/STIM_017.jpg
3014.981	1.052	1	generate	Run4	generate/STIM_017.jpg
3019.246	0.87	1	generate	Run4	generate/STIM_018.jpg
3024.085	1.382	1	generate	Run4	generate/STIM_018.jpg
3028.897	0.949	1	generate	Run4	generate/STIM_018.jpg
3032.889	1.674	1	generate	Run4	generate/STIM_018.jpg
3038.402	1.556	1	generate	Run4	generate/STIM_018.jpg
3042.25	1.068	1	generate	Run4	generate/STIM_019.jpg
3046.816	1.555	1	generate	Run4	generate/STIM_019.jpg
3050.944	1.24	1	generate	Run4	generate/STIM_019.jpg
3055.657	1.96	1	generate	Run4	generate/STIM_019.jpg
3060.646	1.704	1	generate	Run4	generate/STIM_019.jpg
3064.631	1.488	1	generate	Run4	generate/STIM_020.jpg
3069.813	0.931	1	generate	Run4	generate/STIM_020.jpg
3072.796	1.251	1	generate	Run4	generate/STIM_020.jpg
3076.579	0.99	1	generate	Run4	generate/STIM_020.jpg
3081.34	2.125	1	generate	Run4	generate/STIM_020.jpg
3085.584	1.768	1	generate	Run4	generate/STIM_021.jpg
3090.909	1.177	1	generate	Run4	generate/STIM_021.jpg
3095.107	1.285	1	generate	Run4	generate/STIM_021.jpg
3099.214	0.97	1	generate	Run4	generate/STIM_021.jpg
3102.679	0.904	0	generate	Run4	generate/STIM_021.jpg
3106.559	1.16	1	generate	Run4	generate/STIM_022.jpg
3110.257	1.978	1	generate	Run4	generate/STIM_022.jpg
3114.251	1.443	0	generate	Run4	generate/STIM_022.jpg
3117.762	0.934	1	generate	Run4	generate/STIM_022.jpg
3121.969	1.646	1	generate	Run4	generate/STIM_022.jpg
3126.595	1.768	1	generate	Run4	generate/STIM_023.jpg
3132.154	0.938	1	generate	Run4	generate/STIM_023.jpg
3136.672	1.741	1	generate	Run4	generate/STIM_023.jpg
3142.27	1.69	1	generate	Run4	generate/STIM_023.jpg
3146.495	1.248	1	generate	Run4	generate/STIM_023.jpg
3151.324	1.941	1	generate	Run4	generate/STIM_024.jpg
3156.055	0.881	1	generate	Run4	generate/STIM_024.jpg
3160.594	1.81	1	generate	Run4	generate/STIM_024.jpg
3165.196	1.686	1	generate	Run4	generate/STIM_024.jpg
3170.737	1.526	1	generate	Run4	generate/STIM_024.jpg
3175.438	0.52	1	repeat	Run4	repeat/STIM_000.jpg
3179.843	0.969	1	repeat	Run4	repeat/STIM_000.jpg
3184.527	0.519	1	repeat	Run4	repeat/STIM_000.jpg
3188.58	0.532	1	repeat	Run4	repeat/STIM_000.jpg
3191.546	0.726	1	repeat	Run4	repeat/STIM_000.jpg
3195.889	0.991	1	repeat	Run4	repeat/STIM_001.jpg
3199.652	1.018	1	repeat	Run4	repeat/STIM_001.jpg
3204.308	0.588	1	repeat	Run4	repeat/STIM_001.jpg
3207.455	0.853	1	repeat	Run4	repeat/STIM_001.jpg
3212.243	0.555	1	repeat	Run4	repeat/STIM_001.jpg
3215.206	0.529	1	repeat	Run4	repeat/STIM_002.jpg
3218.205	0.531	1	repeat	Run4	repeat/STIM_002.jpg
3221.578	0.794	1	repeat	Run4	repeat/STIM_002.jpg
3224.798	0.532	1	repeat	Run4	repeat/STIM_002.jpg
3229.194	0.944	1	repeat	Run4	repeat/STIM_002.jpg
3232.896	1.0	1	repeat	Run4	repeat/STIM_003.jpg
3236.581	0.578	1	repeat	Run4	repeat/STIM_003.jpg
3240.684	0.967	1	repeat	Run4	repeat/STIM_003.jpg
3244.051	1.013	1	repeat	Run4	repeat/STIM_003.jpg
3248.604	0.959	1	repeat	Run4	repeat/STIM_003.jpg
3253.462	0.845	1	repeat	Run4	repeat/STIM_004.jpg
3256.574	0.701	1	repeat	Run4	repeat/STIM_004.jpg
3260.143	0.843	1	repeat	Run4	repeat/STIM_004.jpg
3264.374	0.602	1	repeat	Run4	repeat/STIM_004.jpg
3268.566	0.937	1	repeat	Run4	repeat/STIM_004.jpg
3271.701	0.541	1	repeat	Run4	repeat/STIM_005.jpg
3276.105	0.853	1	repeat	Run4	repeat/STIM_005.jpg
3280.587	0.882	1	repeat	Run4	repeat/STIM_005.jpg
3285.45	0.999	1	repeat	Run4	repeat/STIM_005.jpg
3288.818	0.588	1	repeat	Run4	repeat/STIM_005.jpg
3292.213	0.614	1	repeat	Run4	repeat/STIM_006.jpg
3296.437	0.778	1	repeat	Run4	repeat/STIM_006.jpg
3300.161	0.883	1	repeat	Run4	repeat/STIM_006.jpg
3303.155	0.649	1	repeat	Run4	repeat/STIM_006.jpg
3306.082	1.013	1	repeat	Run4	repeat/STIM_006.jpg
3310.082	0.553	1	repeat	Run4	repeat/STIM_007.jpg
3314.254	0.875	0	repeat	Run4	repeat/STIM_007.jpg
3318.735	0.873	1	repeat	Run4	repeat/STIM_007.jpg
3322.928	0.766	1	repeat	Run4	repeat/STIM_007.jpg
3325.715	0.7	1	repeat	Run4	repeat/STIM_007.jpg
3328.944	0.961	1	repeat	Run4	repeat/STIM_008.jpg
3332.121	0.664	0	repeat	Run4	repeat/STIM_008.jpg
3336.461	0.622	1	repeat	Run4	repeat/STIM_008.jpg
3339.749	1.004	1	repeat	Run4	repeat/STIM_008.jpg
3344.139	0.925	1	repeat	Run4	repeat/STIM_008.jpg
3348.908	0.759	1	repeat	Run4	repeat/STIM_009.jpg
3352.916	0.855	1	repeat	Run4	repeat/STIM_009.jpg
3356.574	0.735	1	repeat	Run4	repeat/STIM_009.jpg
3359.784	0.87	1	repeat	Run4	repeat/STIM_009.jpg
3362.77	0.653	1	repeat	Run4	repeat/STIM_009.jpg
3366.253	0.951	1	repeat	Run4	repeat/STIM_010.jpg
3370.769	0.67	1	repeat	Run4	repeat/STIM_010.jpg
3374.104	0.826	1	repeat	Run4	repeat/STIM_010.jpg
3377.003	0.931	1	repeat	Run4	repeat/STIM_010.jpg
3381.751	0.77	1	repeat	Run4	repeat/STIM_010.jpg
3386.385	0.834	1	repeat	Run4	repeat/STIM_011.jpg
3390.13	0.907	1	repeat	Run4	repeat/STIM_011.jpg
3393.868	0.732	1	repeat	Run4	repeat/STIM_011.jpg
3397.276	0.822	1	repeat	Run4	repeat/STIM_011.jpg
3400.959	0.704	1	repeat	Run4	repeat/STIM_011.jpg
3405.492	1.025	1	repeat	Run4	repeat/STIM_012.jpg
3409.777	0.672	1	repeat	Run4	repeat/STIM_012.jpg
3414.309	0.665	1	repeat	Run4	repeat/STIM_012.jpg
3418.764	0.737	1	repeat	Run4	repeat/STIM_012.jpg
3423.348	0.803	1	repeat	Run4	repeat/STIM_012.jpg
3426.947	0.779	1	repeat	Run4	repeat/STIM_013.jpg
3431.124	1.02	1	repeat	Run4	repeat/STIM_013.jpg
3435.803	1.018	1	repeat	Run4	repeat/STIM_013.jpg
3440.418	0.959	1	repeat	Run4	repeat/STIM_013.jpg
3444.688	0.702	1	repeat	Run4	repeat/STIM_013.jpg
3448.841	0.65	1	repeat	Run4	repeat/STIM_014.jpg
3451.995	0.561	1	repeat	Run4	repeat/STIM_014.jpg
3455.567	0.921	1	repeat	Run4	repeat/STIM_014.jpg
3460.193	0.804	1	repeat	Run4	repeat/STIM_014.jpg
3463.136	0.785	1	repeat	Run4	repeat/STIM_014.jpg
