onset	duration	accuracy_binary	trial_type	learning_stage	stimulus
0.0	1.204	1	generate	Run1	generate/STIM_000.jpg
3.596	2.974	1	generate	Run1	generate/STIM_000.jpg
8.495	2.653	1	generate	Run1	generate/STIM_000.jpg
13.231	1.537	1	generate	Run1	generate/STIM_000.jpg
17.697	2.511	0	generate	Run1	generate/STIM_000.jpg
23.992	2.395	1	generate	Run1	generate/STIM_001.jpg
28.814	2.576	1	generate	Run1	generate/STIM_001.jpg
34.668	2.474	1	generate	Run1	generate/STIM_001.jpg
40.253	1.14	1	generate	Run1	generate/STIM_001.jpg
43.533	1.817	1	generate	Run1	generate/STIM_001.jpg
47.966	2.115	1	generate	Run1	generate/STIM_002.jpg
53.314	1.489	1	generate	Run1	generate/STIM_002.jpg
57.983	1.586	1	generate	Run1	generate/STIM_002.jpg
61.67	2.112	1	generate	Run1	generate/STIM_002.jpg
67.118	2.32	1	generate	Run1	generate/STIM_002.jpg
72.875	1.655	1	generate	Run1	generate/STIM_003.jpg
77.455	2.355	1	generate	Run1	generate/STIM_003.jpg
82.982	2.627	1	generate	Run1	generate/STIM_003.jpg
87.948	1.53	1	generate	Run1	generate/STIM_003.jpg
93.09	1.193	1	generate	Run1	generate/STIM_003.jpg
96.785	2.163	0	generate	Run1	generate/STIM_004.jpg
102.541	2.903	1	generate	Run1	generate/STIM_004.jpg
108.353	2.75	1	generate	Run1	generate/STIM_004.jpg
113.333	1.712	0	generate	Run1	generate/STIM_004.jpg
118.767	1.968	1	generate	Run1	generate/STIM_004.jpg
124.111	1.797	0	generate	Run1	generate/STIM_005.jpg
128.057	2.595	1	generate	Run1	generate/STIM_005.jpg
133.749	2.475	1	generate	Run1	generate/STIM_005.jpg
139.84	2.173	1	generate	Run1	generate/STIM_005.jpg
145.674	2.427	1	generate	Run1	generate/STIM_005.jpg
151.391	2.796	0	generate	Run1	generate/STIM_006.jpg
156.601	2.357	1	generate	Run1	generate/STIM_006.jpg
162.666	1.53	0	generate	Run1	generate/STIM_006.jpg
167.55	2.557	1	generate	Run1	generate/STIM_006.jpg
173.634	1.769	1	generate	Run1	generate/STIM_006.jpg
177.477	3.053	1	generate	Run1	generate/STIM_007.jpg
183.642	2.502	0	generate	Run1	generate/STIM_007.jpg
188.402	1.4	0	generate	Run1	generate/STIM_007.jpg
193.189	1.829	1	generate	Run1	generate/STIM_007.jpg
197.072	2.108	1	generate	Run1	generate/STIM_007.jpg
201.5	2.484	1	generate	Run1	generate/STIM_008.jpg
207.143	1.48	1	generate	Run1	generate/STIM_008.jpg
212.179	2.178	1	generate	Run1	generate/STIM_008.jpg
217.737	1.13	1	generate	Run1	generate/STIM_008.jpg
221.927	1.496	1	generate	Run1	generate/STIM_008.jpg
227.322	3.071	0	generate	Run1	generate/STIM_009.jpg
233.799	1.442	1	generate	Run1	generate/STIM_009.jpg
238.429	1.854	1	generate	Run1	generate/STIM_009.jpg
243.436	1.225	1	generate	Run1	generate/STIM_009.jpg
246.721	2.083	1	generate	Run1	generate/STIM_009.jpg
250.948	2.598	1	generate	Run1	generate/STIM_010.jpg
257.068	1.852	1	generate	Run1	generate/STIM_010.jpg
262.057	1.897	1	generate	Run1	generate/STIM_010.jpg
266.771	2.567	1	generate	Run1	generate/STIM_010.jpg
272.652	1.276	1	generate	Run1	generate/STIM_010.jpg
276.323	1.349	1	generate	Run1	generate/STIM_011.jpg
280.337	2.123	1	generate	Run1	generate/STIM_011.jpg
285.693	2.024	1	generate	Run1	generate/STIM_011.jpg
291.581	1.684	0	generate	Run1	generate/STIM_011.jpg
296.156	1.285	1	generate	Run1	generate/STIM_011.jpg
300.655	2.112	1	generate	Run1	generate/STIM_012.jpg
304.825	1.548	1	generate	Run1	generate/STIM_012.jpg
309.67	1.657	1	generate	Run1	generate/STIM_012.jpg
314.068	1.077	1	generate	Run1	generate/STIM_012.jpg
318.203	1.134	1	generate	Run1	generate/STIM_012.jpg
321.876	1.639	1	generate	Run1	generate/STIM_013.jpg
327.397	2.189	1	generate	Run1	generate/STIM_013.jpg
332.325	1.909	1	generate	Run1	generate/STIM_013.jpg
338.104	1.175	1	generate	Run1	generate/STIM_013.jpg
342.45	1.384	0	generate	Run1	generate/STIM_013.jpg
346.398	1.786	1	generate	Run1	generate/STIM_014.jpg
350.298	2.763	1	generate	Run1	generate/STIM_014.jpg
356.564	2.677	0	generate	Run1	generate/STIM_014.jpg
361.611	1.155	1	generate	Run1	generate/STIM_014.jpg
365.962	1.694	1	generate	Run1	generate/STIM_014.jpg
371.291	1.681	1	generate	Run1	generate/STIM_015.jpg
376.491	2.801	1	generate	Run1	generate/STIM_015.jpg
381.73	1.641	0	generate	Run1	generate/STIM_015.jpg
385.385	2.057	0	generate	Run1	generate/STIM_015.jpg
390.753	2.27	1	generate	Run1	generate/STIM_015.jpg
396.349	2.157	1	generate	Run1	generate/STIM_016.jpg
400.687	1.911	1	generate	Run1	generate/STIM_016.jpg
405.946	1.54	1	generate	Run1	generate/STIM_016.jpg
410.198	2.353	1	generate	Run1	generate/STIM_016.jpg
416.411	2.07	1	generate	Run1	generate/STIM_016.jpg
420.719	1.475	1	generate	Run1	generate/STIM_017.jpg
424.15	2.677	1	generate	Run1	generate/STIM_017.jpg
430.141	1.569	1	generate	Run1	generate/STIM_017.jpg
433.764	2.003	1	generate	Run1	generate/STIM_017.jpg
437.903	1.654	1	generate	Run1	generate/STIM_017.jpg
441.689	1.38	1	generate	Run1	generate/STIM_018.jpg
445.863	2.552	1	generate	Run1	generate/STIM_018.jpg
451.584	2.316	1	generate	Run1	generate/STIM_018.jpg
457.174	2.574	1	generate	Run1	generate/STIM_018.jpg
463.07	1.236	1	generate	Run1	generate/STIM_018.jpg
468.188	2.761	1	generate	Run1	generate/STIM_019.jpg
473.283	2.79	1	generate	Run1	generate/STIM_019.jpg
478.437	2.39	1	generate	Run1	generate/STIM_019.jpg
482.8	2.364	0	generate	Run1	generate/STIM_019.jpg
487.594	1.534	1	generate	Run1	generate/STIM_019.jpg
492.383	1.793	1	generate	Run1	generate/STIM_020.jpg
497.306	1.54	1	generate	Run1	generate/STIM_020.jpg
501.188	1.718	1	generate	Run1	generate/STIM_020.jpg
505.375	1.935	1	generate	Run1	generate/STIM_020.jpg
509.595	1.735	1	generate	Run1	generate/STIM_020.jpg
514.262	2.759	1	generate	Run1	generate/STIM_021.jpg
520.75	2.589	1	generate	Run1	generate/STIM_021.jpg
526.195	1.96	0	generate	Run1	generate/STIM_021.jpg
531.642	1.211	0	generate	Run1	generate/STIM_021.jpg
535.294	2.573	1	generate	Run1	generate/STIM_021.jpg
540.662	1.828	0	generate	Run1	generate/STIM_022.jpg
545.192	1.298	1	generate	Run1	generate/STIM_022.jpg
548.484	2.798	0	generate	Run1	generate/STIM_022.jpg
554.402	1.124	1	generate	Run1	generate/STIM_022.jpg
558.641	1.876	1	generate	Run1	generate/STIM_022.jpg
562.999	2.825	1	generate	Run1	generate/STIM_023.jpg
568.063	1.92	0	generate	Run1	generate/STIM_023.jpg
572.236	2.283	0	generate	Run1	generate/STIM_023.jpg
576.482	2.216	1	generate	Run1	generate/STIM_023.jpg
581.81	1.85	1	generate	Run1	generate/STIM_023.jpg
586.094	1.987	1	generate	Run1	generate/STIM_024.jpg
589.989	1.311	1	generate	Run1	generate/STIM_024.jpg
593.845	1.821	1	generate	Run1	generate/STIM_024.jpg
598.343	2.36	1	generate	Run1	generate/STIM_024.jpg
604.322	1.31	1	generate	Run1	generate/STIM_024.jpg
609.359	0.782	1	repeat	Run1	repeat/STIM_000.jpg
613.216	0.922	1	repeat	Run1	repeat/STIM_000.jpg
616.24	0.879	1	repeat	Run1	repeat/STIM_000.jpg
620.732	0.697	1	repeat	Run1	repeat/STIM_000.jpg
623.412	0.778	1	repeat	Run1	repeat/STIM_000.jpg
628.082	1.08	1	repeat	Run1	repeat/STIM_001.jpg
632.246	1.074	1	repeat	Run1	repeat/STIM_001.jpg
635.626	1.035	1	repeat	Run1	repeat/STIM_001.jpg
638.719	1.093	1	repeat	Run1	repeat/STIM_001.jpg
642.868	1.073	1	repeat	Run1	repeat/STIM_001.jpg
646.604	0.968	1	repeat	Run1	repeat/STIM_002.jpg
650.863	0.596	1	repeat	Run1	repeat/STIM_002.jpg
653.844	0.777	1	repeat	Run1	repeat/STIM_002.jpg
657.344	0.832	1	repeat	Run1	repeat/STIM_002.jpg
661.007	1.057	1	repeat	Run1	repeat/STIM_002.jpg
665.723	0.763	1	repeat	Run1	repeat/STIM_003.jpg
668.929	0.597	1	repeat	Run1	repeat/STIM_003.jpg
671.555	0.925	1	repeat	Run1	repeat/STIM_003.jpg
675.162	0.816	1	repeat	Run1	repeat/STIM_003.jpg
678.021	1.058	1	repeat	Run1	repeat/STIM_003.jpg
681.54	0.92	1	repeat	Run1	repeat/STIM_004.jpg
685.4	0.522	1	repeat	Run1	repeat/STIM_004.jpg
688.687	1.068	1	repeat	Run1	repeat/STIM_004.jpg
693.592	0.775	1	repeat	Run1	repeat/STIM_004.jpg
697.219	0.569	1	repeat	Run1	repeat/STIM_004.jpg
700.845	0.534	1	repeat	Run1	repeat/STIM_005.jpg
704.23	1.066	1	repeat	Run1	repeat/STIM_005.jpg
708.706	0.667	1	repeat	Run1	repeat/STIM_005.jpg
711.798	0.629	0	repeat	Run1	repeat/STIM_005.jpg
715.506	0.906	1	repeat	Run1	repeat/STIM_005.jpg
719.982	1.144	1	repeat	Run1	repeat/STIM_006.jpg
724.579	0.585	1	repeat	Run1	repeat/STIM_006.jpg
728.471	0.768	1	repeat	Run1	repeat/STIM_006.jpg
732.616	0.677	1	repeat	Run1	repeat/STIM_006.jpg
735.879	1.072	1	repeat	Run1	repeat/STIM_006.jpg
740.165	0.653	1	repeat	Run1	repeat/STIM_007.jpg
742.909	0.97	1	repeat	Run1	repeat/STIM_007.jpg
746.025	0.909	1	repeat	Run1	repeat/STIM_007.jpg
750.369	0.962	1	repeat	Run1	repeat/STIM_007.jpg
754.924	0.918	1	repeat	Run1	repeat/STIM_007.jpg
759.273	0.578	1	repeat	Run1	repeat/STIM_008.jpg
762.926	0.751	1	repeat	Run1	repeat/STIM_008.jpg
765.931	1.069	1	repeat	Run1	repeat/STIM_008.jpg
769.401	0.838	1	repeat	Run1	repeat/STIM_008.jpg
772.514	0.94	1	repeat	Run1	repeat/STIM_008.jpg
775.446	0.905	1	repeat	Run1	repeat/STIM_009.jpg
780.128	0.675	1	repeat	Run1	repeat/STIM_009.jpg
783.828	0.885	1	repeat	Run1	repeat/STIM_009.jpg
787.074	0.905	1	repeat	Run1	repeat/STIM_009.jpg
791.856	1.006	0	repeat	Run1	repeat/STIM_009.jpg
795.233	0.95	1	repeat	Run1	repeat/STIM_010.jpg
798.709	0.743	1	repeat	Run1	repeat/STIM_010.jpg
801.753	0.566	1	repeat	Run1	repeat/STIM_010.jpg
804.948	0.758	1	repeat	Run1	repeat/STIM_010.jpg
809.374	0.735	1	repeat	Run1	repeat/STIM_010.jpg
813.866	0.743	0	repeat	Run1	repeat/STIM_011.jpg
817.454	0.598	1	repeat	Run1	repeat/STIM_011.jpg
821.28	0.839	1	repeat	Run1	repeat/STIM_011.jpg
825.762	0.616	1	repeat	Run1	repeat/STIM_011.jpg
829.305	0.611	1	repeat	Run1	repeat/STIM_011.jpg
833.713	0.958	1	repeat	Run1	repeat/STIM_012.jpg
837.999	0.58	1	repeat	Run1	repeat/STIM_012.jpg
842.489	0.837	1	repeat	Run1	repeat/STIM_012.jpg
847.189	0.814	0	repeat	Run1	repeat/STIM_012.jpg
849.941	0.667	1	repeat	Run1	repeat/STIM_012.jpg
853.081	0.898	1	repeat	Run1	repeat/STIM_013.jpg
857.276	0.774	1	repeat	Run1	repeat/STIM_013.jpg
860.974	0.785	1	repeat	Run1	repeat/STIM_013.jpg
865.538	0.92	1	repeat	Run1	repeat/STIM_013.jpg
870.183	0.544	1	repeat	Run1	repeat/STIM_013.jpg
874.209	0.545	1	repeat	Run1	repeat/STIM_014.jpg
878.286	0.883	1	repeat	Run1	repeat/STIM_014.jpg
881.373	1.134	1	repeat	Run1	repeat/STIM_014.jpg
885.489	1.0	1	repeat	Run1	repeat/STIM_014.jpg
889.884	0.767	1	repeat	Run1	repeat/STIM_014.jpg
893.944	1.174	0	generate	Run2	generate/STIM_000.jpg
897.874	1.913	1	generate	Run2	generate/STIM_000.jpg
902.133	1.995	1	generate	Run2	generate/STIM_000.jpg
907.303	1.514	1	generate	Run2	generate/STIM_000.jpg
911.856	1.365	0	generate	Run2	generate/STIM_000.jpg
915.51	1.617	1	generate	Run2	generate/STIM_001.jpg
920.924	2.198	1	generate	Run2	generate/STIM_001.jpg
925.352	1.41	1	generate	Run2	generate/STIM_001.jpg
930.059	1.536	1	generate	Run2	generate/STIM_001.jpg
934.757	1.403	1	generate	Run2	generate/STIM_001.jpg
938.733	2.611	0	generate	Run2	generate/STIM_002.jpg
943.94	2.241	1	generate	Run2	generate/STIM_002.jpg
949.557	1.267	1	generate	Run2	generate/STIM_002.jpg
952.819	1.854	1	generate	Run2	generate/STIM_002.jpg
957.153	1.162	1	generate	Run2	generate/STIM_002.jpg
961.11	1.543	1	generate	Run2	generate/STIM_003.jpg
965.196	1.322	1	generate	Run2	generate/STIM_003.jpg
969.148	1.814	0	generate	Run2	generate/STIM_003.jpg
974.758	1.518	1	generate	Run2	generate/STIM_003.jpg
979.918	1.524	1	generate	Run2	generate/STIM_003.jpg
985.208	2.279	1	generate	Run2	generate/STIM_004.jpg
989.589	1.515	1	generate	Run2	generate/STIM_004.jpg
994.938	2.092	1	generate	Run2	generate/STIM_004.jpg
999.54	1.41	1	generate	Run2	generate/STIM_004.jpg
1004.33	1.462	1	generate	Run2	generate/STIM_004.jpg
1008.201	1.94	1	generate	Run2	generate/STIM_005.jpg
1012.874	1.892	1	generate	Run2	generate/STIM_005.jpg
1017.453	2.237	1	generate	Run2	generate/STIM_005.jpg
1021.706	1.671	1	generate	Run2	generate/STIM_005.jpg
1026.812	1.714	1	generate	Run2	generate/STIM_005.jpg
1032.332	1.988	0	generate	Run2	generate/STIM_006.jpg
1036.378	2.007	0	generate	Run2	generate/STIM_006.jpg
1040.623	1.704	1	generate	Run2	generate/STIM_006.jpg
1044.476	1.946	1	generate	Run2	generate/STIM_006.jpg
1048.635	1.726	1	generate	Run2	generate/STIM_006.jpg
1053.894	1.149	1	generate	Run2	generate/STIM_007.jpg
1058.86	1.42	1	generate	Run2	generate/STIM_007.jpg
1062.724	1.267	1	generate	Run2	generate/STIM_007.jpg
1066.753	1.615	1	generate	Run2	generate/STIM_007.jpg
1071.709	1.244	1	generate	Run2	generate/STIM_007.jpg
1076.478	1.684	1	generate	Run2	generate/STIM_008.jpg
1081.782	1.797	1	generate	Run2	generate/STIM_008.jpg
1087.164	2.232	1	generate	Run2	generate/STIM_008.jpg
1092.768	0.939	0	generate	Run2	generate/STIM_008.jpg
1096.636	1.965	1	generate	Run2	generate/STIM_008.jpg
1101.214	1.814	0	generate	Run2	generate/STIM_009.jpg
1106.501	1.934	1	generate	Run2	generate/STIM_009.jpg
1110.891	1.768	1	generate	Run2	generate/STIM_009.jpg
1115.914	1.975	1	generate	Run2	generate/STIM_009.jpg
1119.861	0.869	1	generate	Run2	generate/STIM_009.jpg
1124.695	1.824	1	generate	Run2	generate/STIM_010.jpg
1129.526	1.462	1	generate	Run2	generate/STIM_010.jpg
1134.041	2.32	1	generate	Run2	generate/STIM_010.jpg
1139.704	1.065	1	generate	Run2	generate/STIM_010.jpg
1143.556	1.92	1	generate	Run2	generate/STIM_010.jpg
1148.576	1.096	1	generate	Run2	generate/STIM_011.jpg
1153.588	1.818	1	generate	Run2	generate/STIM_011.jpg
1158.381	1.973	1	generate	Run2	generate/STIM_011.jpg
1162.482	1.789	1	generate	Run2	generate/STIM_011.jpg
1167.167	1.627	1	generate	Run2	generate/STIM_011.jpg
1171.459	1.413	0	generate	Run2	generate/STIM_012.jpg
1176.631	2.248	1	generate	Run2	generate/STIM_012.jpg
1180.879	1.919	1	generate	Run2	generate/STIM_012.jpg
1186.619	0.838	1	generate	Run2	generate/STIM_012.jpg
1191.458	2.059	1	generate	Run2	generate/STIM_012.jpg
1197.329	1.134	1	generate	Run2	generate/STIM_013.jpg
1200.864	2.378	1	generate	Run2	generate/STIM_013.jpg
1207.067	0.967	0	generate	Run2	generate/STIM_013.jpg
1210.495	1.382	1	generate	Run2	generate/STIM_013.jpg
1215.163	1.547	1	generate	Run2	generate/STIM_013.jpg
1220.191	1.201	1	generate	Run2	generate/STIM_014.jpg
1224.432	2.113	1	generate	Run2	generate/STIM_014.jpg
1228.642	2.022	1	generate	Run2	generate/STIM_014.jpg
1233.837	1.018	1	generate	Run2	generate/STIM_014.jpg
1238.858	2.053	1	generate	Run2	generate/STIM_014.jpg
1243.147	1.457	1	generate	Run2	generate/STIM_015.jpg
1246.993	1.643	0	generate	Run2	generate/STIM_015.jpg
1250.974	1.826	1	generate	Run2	generate/STIM_015.jpg
1254.842	1.487	1	generate	Run2	generate/STIM_015.jpg
1259.802	1.998	1	generate	Run2	generate/STIM_015.jpg
1264.869	1.396	1	generate	Run2	generate/STIM_016.jpg
1269.201	2.578	1	generate	Run2	generate/STIM_016.jpg
1275.059	2.101	1	generate	Run2	generate/STIM_016.jpg
1279.286	1.984	1	generate	Run2	generate/STIM_016.jpg
1284.364	1.182	1	generate	Run2	generate/STIM_016.jpg
1287.597	2.686	1	generate	Run2	generate/STIM_017.jpg
1292.989	2.014	1	generate	Run2	generate/STIM_017.jpg
1298.236	1.937	0	generate	Run2	generate/STIM_017.jpg
1302.313	1.602	1	generate	Run2	generate/STIM_017.jpg
1306.45	2.228	1	generate	Run2	generate/STIM_017.jpg
1312.174	2.284	1	generate	Run2	generate/STIM_018.jpg
1316.458	2.07	0	generate	Run2	generate/STIM_018.jpg
1321.189	2.092	1	generate	Run2	generate/STIM_018.jpg
1326.013	1.839	1	generate	Run2	generate/STIM_018.jpg
1330.007	1.991	1	generate	Run2	generate/STIM_018.jpg
1334.273	2.366	1	generate	Run2	generate/STIM_019.jpg
1339.488	2.445	1	generate	Run2	generate/STIM_019.jpg
1345.141	1.547	1	generate	Run2	generate/STIM_019.jpg
1350.307	1.808	1	generate	Run2	generate/STIM_019.jpg
1354.595	1.026	0	generate	Run2	generate/STIM_019.jpg
1357.628	1.758	1	generate	Run2	generate/STIM_020.jpg
1362.609	1.354	1	generate	Run2	generate/STIM_020.jpg
1366.124	1.452	1	generate	Run2	generate/STIM_020.jpg
1370.589	1.178	0	generate	Run2	generate/STIM_020.jpg
1374.694	1.17	1	generate	Run2	generate/STIM_020.jpg
1378.563	1.36	0	generate	Run2	generate/STIM_021.jpg
1383.772	1.239	1	generate	Run2	generate/STIM_021.jpg
1388.777	1.196	1	generate	Run2	generate/STIM_021.jpg
1392.478	1.984	1	generate	Run2	generate/STIM_021.jpg
1397.998	1.938	1	generate	Run2	generate/STIM_021.jpg
1402.528	1.77	0	generate	Run2	generate/STIM_022.jpg
1408.025	2.136	1	generate	Run2	generate/STIM_022.jpg
1413.197	1.364	1	generate	Run2	generate/STIM_022.jpg
1417.09	1.332	1	generate	Run2	generate/STIM_022.jpg
1421.971	1.222	1	generate	Run2	generate/STIM_022.jpg
1426.698	2.523	1	generate	Run2	generate/STIM_023.jpg
1431.404	2.444	1	generate	Run2	generate/STIM_023.jpg
1436.219	2.276	1	generate	Run2	generate/STIM_023.jpg
1442.24	1.661	1	generate	Run2	generate/STIM_023.jpg
1447.626	2.038	1	generate	Run2	generate/STIM_023.jpg
1453.109	1.549	0	generate	Run2	generate/STIM_024.jpg
1458.47	1.984	1	generate	Run2	generate/STIM_024.jpg
1462.873	1.398	1	generate	Run2	generate/STIM_024.jpg
1466.487	1.538	1	generate	Run2	generate/STIM_024.jpg
1471.751	1.418	0	generate	Run2	generate/STIM_024.jpg
1476.965	0.582	1	repeat	Run2	repeat/STIM_000.jpg
1479.77	1.063	1	repeat	Run2	repeat/STIM_000.jpg
1483.62	0.808	1	repeat	Run2	repeat/STIM_000.jpg
1486.525	0.719	1	repeat	Run2	repeat/STIM_000.jpg
1489.581	0.973	1	repeat	Run2	repeat/STIM_000.jpg
1493.568	0.656	1	repeat	Run2	repeat/STIM_001.jpg
1496.239	0.768	0	repeat	Run2	repeat/STIM_001.jpg
1499.739	0.582	1	repeat	Run2	repeat/STIM_001.jpg
1502.607	0.656	1	repeat	Run2	repeat/STIM_001.jpg
1505.782	1.032	1	repeat	Run2	repeat/STIM_001.jpg
1510.237	0.626	1	repeat	Run2	repeat/STIM_002.jpg
1513.695	1.007	1	repeat	Run2	repeat/STIM_002.jpg
1518.436	0.952	1	repeat	Run2	repeat/STIM_002.jpg
1521.737	0.663	1	repeat	Run2	repeat/STIM_002.jpg
1525.502	0.998	1	repeat	Run2	repeat/STIM_002.jpg
1529.529	1.037	0	repeat	Run2	repeat/STIM_003.jpg
1532.84	0.598	1	repeat	Run2	repeat/STIM_003.jpg
1535.639	0.725	1	repeat	Run2	repeat/STIM_003.jpg
1538.722	0.7	1	repeat	Run2	repeat/STIM_003.jpg
1542.003	0.925	1	repeat	Run2	repeat/STIM_003.jpg
1545.835	0.926	1	repeat	Run2	repeat/STIM_004.jpg
1550.238	0.59	1	repeat	Run2	repeat/STIM_004.jpg
1553.698	0.779	1	repeat	Run2	repeat/STIM_004.jpg
1557.679	0.87	1	repeat	Run2	repeat/STIM_004.jpg
1562.259	0.676	1	repeat	Run2	repeat/STIM_004.jpg
1566.619	1.039	1	repeat	Run2	repeat/STIM_005.jpg
1569.875	0.94	1	repeat	Run2	repeat/STIM_005.jpg
1574.303	0.804	0	repeat	Run2	repeat/STIM_005.jpg
1577.26	0.652	1	repeat	Run2	repeat/STIM_005.jpg
1581.802	0.566	1	repeat	Run2	repeat/STIM_005.jpg
1586.379	0.735	1	repeat	Run2	repeat/STIM_006.jpg
1589.248	0.99	1	repeat	Run2	repeat/STIM_006.jpg
1593.871	0.622	1	repeat	Run2	repeat/STIM_006.jpg
1597.606	0.774	0	repeat	Run2	repeat/STIM_006.jpg
1601.37	0.697	1	repeat	Run2	repeat/STIM_006.jpg
1604.852	0.873	1	repeat	Run2	repeat/STIM_007.jpg
1608.152	0.676	1	repeat	Run2	repeat/STIM_007.jpg
1611.623	0.692	1	repeat	Run2	repeat/STIM_007.jpg
1615.711	0.651	1	repeat	Run2	repeat/STIM_007.jpg
1618.568	0.911	1	repeat	Run2	repeat/STIM_007.jpg
1621.875	0.76	1	repeat	Run2	repeat/STIM_008.jpg
1625.52	0.653	1	repeat	Run2	repeat/STIM_008.jpg
1629.124	0.566	1	repeat	Run2	repeat/STIM_008.jpg
1633.598	0.586	1	repeat	Run2	repeat/STIM_008.jpg
1637.531	0.825	1	repeat	Run2	repeat/STIM_008.jpg
1641.201	0.924	1	repeat	Run2	repeat/STIM_009.jpg
1644.828	1.127	1	repeat	Run2	repeat/STIM_009.jpg
1649.501	0.708	1	repeat	Run2	repeat/STIM_009.jpg
1653.883	0.564	1	repeat	Run2	repeat/STIM_009.jpg
1657.222	0.463	1	repeat	Run2	repeat/STIM_009.jpg
1660.3	1.01	1	repeat	Run2	repeat/STIM_010.jpg
1664.997	0.47	1	repeat	Run2	repeat/STIM_010.jpg
1669.106	0.531	1	repeat	Run2	repeat/STIM_010.jpg
1672.346	0.545	1	repeat	Run2	repeat/STIM_010.jpg
1675.315	1.012	1	repeat	Run2	repeat/STIM_010.jpg
1679.208	1.035	1	repeat	Run2	repeat/STIM_011.jpg
1683.237	0.951	1	repeat	Run2	repeat/STIM_011.jpg
1686.853	0.733	1	repeat	Run2	repeat/STIM_011.jpg
1691.065	0.942	1	repeat	Run2	repeat/STIM_011.jpg
1695.526	0.792	1	repeat	Run2	repeat/STIM_011.jpg
1699.311	0.825	1	repeat	Run2	repeat/STIM_012.jpg
1703.578	0.743	1	repeat	Run2	repeat/STIM_012.jpg
1707.348	0.974	1	repeat	Run2	repeat/STIM_012.jpg
1711.955	0.571	1	repeat	Run2	repeat/STIM_012.jpg
1715.754	0.569	1	repeat	Run2	repeat/STIM_012.jpg
1719.045	0.576	1	repeat	Run2	repeat/STIM_013.jpg
1722.151	0.5	1	repeat	Run2	repeat/STIM_013.jpg
1725.123	0.7	1	repeat	Run2	repeat/STIM_013.jpg
1728.67	0.914	1	repeat	Run2	repeat/STIM_013.jpg
1732.643	0.885	1	repeat	Run2	repeat/STIM_013.jpg
1736.896	0.565	1	repeat	Run2	repeat/STIM_014.jpg
1741.262	0.816	1	repeat	Run2	repeat/STIM_014.jpg
1745.064	0.869	1	repeat	Run2	repeat/STIM_014.jpg
1748.012	0.862	1	repeat	Run2	repeat/STIM_014.jpg
1752.684	0.881	1	repeat	Run2	repeat/STIM_014.jpg
1756.596	1.715	1	generate	Run3	generate/STIM_000.jpg
1760.21	1.78	0	generate	Run3	generate/STIM_000.jpg
1765.666	0.959	1	generate	Run3	generate/STIM_000.jpg
1770.502	1.242	1	generate	Run3	generate/STIM_000.jpg
1774.82	1.451	1	generate	Run3	generate/STIM_000.jpg
1778.17	1.643	1	generate	Run3	generate/STIM_001.jpg
1781.792	2.097	1	generate	Run3	generate/STIM_001.jpg
1787.461	1.248	1	generate	Run3	generate/STIM_001.jpg
1791.718	1.798	1	generate	Run3	generate/STIM_001.jpg
1797.297	2.191	1	generate	Run3	generate/STIM_001.jpg
1803.205	1.623	1	generate	Run3	generate/STIM_002.jpg
1807.27	1.241	1	generate	Run3	generate/STIM_002.jpg
1812.301	1.028	1	generate	Run3	generate/STIM_002.jpg
1816.611	1.554	0	generate	Run3	generate/STIM_002.jpg
1820.265	2.169	1	generate	Run3	generate/STIM_002.jpg
1825.301	1.411	1	generate	Run3	generate/STIM_003.jpg
1829.75	1.099	1	generate	Run3	generate/STIM_003.jpg
1834.511	1.396	1	generate	Run3	generate/STIM_003.jpg
1838.283	2.049	1	generate	Run3	generate/STIM_003.jpg
1844.189	1.785	1	generate	Run3	generate/STIM_003.jpg
1849.488	1.796	1	generate	Run3	generate/STIM_004.jpg
1854.265	1.697	1	generate	Run3	generate/STIM_004.jpg
1859.42	2.157	1	generate	Run3	generate/STIM_004.jpg
1863.851	2.154	1	generate	Run3	generate/STIM_004.jpg
1868.453	2.037	1	generate	Run3	generate/STIM_004.jpg
1874.278	1.587	1	generate	Run3	generate/STIM_005.jpg
1879.743	1.838	1	generate	Run3	generate/STIM_005.jpg
1884.639	1.67	1	generate	Run3	generate/STIM_005.jpg
1889.797	1.938	0	generate	Run3	generate/STIM_005.jpg
1895.429	1.095	0	generate	Run3	generate/STIM_005.jpg
1899.406	1.781	1	generate	Run3	generate/STIM_006.jpg
1903.364	1.117	1	generate	Run3	generate/STIM_006.jpg
1906.761	1.919	1	generate	Run3	generate/STIM_006.jpg
1912.192	1.37	0	generate	Run3	generate/STIM_006.jpg
1916.522	1.449	1	generate	Run3	generate/STIM_006.jpg
1920.939	0.882	1	generate	Run3	generate/STIM_007.jpg
1923.904	1.906	1	generate	Run3	generate/STIM_007.jpg
1928.252	1.078	1	generate	Run3	generate/STIM_007.jpg
1932.557	1.62	1	generate	Run3	generate/STIM_007.jpg
1936.787	1.891	1	generate	Run3	generate/STIM_007.jpg
1941.877	1.354	1	generate	Run3	generate/STIM_008.jpg
1947.109	1.5	1	generate	Run3	generate/STIM_008.jpg
1951.512	1.618	1	generate	Run3	generate/STIM_008.jpg
1956.818	1.176	1	generate	Run3	generate/STIM_008.jpg
1960.044	1.35	1	generate	Run3	generate/STIM_008.jpg
1964.683	1.397	1	generate	Run3	generate/STIM_009.jpg
1968.093	1.558	1	generate	Run3	generate/STIM_009.jpg
1971.904	1.238	1	generate	Run3	generate/STIM_009.jpg
1975.844	1.547	1	generate	Run3	generate/STIM_009.jpg
1980.223	1.202	1	generate	Run3	generate/STIM_009.jpg
1984.072	1.842	1	generate	Run3	generate/STIM_010.jpg
1988.754	1.008	1	generate	Run3	generate/STIM_010.jpg
1992.846	1.498	1	generate	Run3	generate/STIM_010.jpg
1997.686	1.08	1	generate	Run3	generate/STIM_010.jpg
2001.304	1.734	1	generate	Run3	generate/STIM_010.jpg
2006.427	1.879	1	generate	Run3	generate/STIM_011.jpg
2011.396	2.176	1	generate	Run3	generate/STIM_011.jpg
2017.049	1.89	1	generate	Run3	generate/STIM_011.jpg
2020.882	0.95	1	generate	Run3	generate/STIM_011.jpg
2025.139	1.119	1	generate	Run3	generate/STIM_011.jpg
2030.056	1.702	1	generate	Run3	generate/STIM_012.jpg
2033.948	1.188	1	generate	Run3	generate/STIM_012.jpg
2037.701	1.313	1	generate	Run3	generate/STIM_012.jpg
2041.814	1.534	1	generate	Run3	generate/STIM_012.jpg
2046.451	1.937	1	generate	Run3	generate/STIM_012.jpg
2050.955	1.218	1	generate	Run3	generate/STIM_013.jpg
2055.713	2.071	1	generate	Run3	generate/STIM_013.jpg
2061.602	1.171	1	generate	Run3	generate/STIM_013.jpg
2065.688	1.58	1	generate	Run3	generate/STIM_013.jpg
2070.029	1.537	1	generate	Run3	generate/STIM_013.jpg
2075.113	0.889	1	generate	Run3	generate/STIM_014.jpg
2079.894	1.374	1	generate	Run3	generate/STIM_014.jpg
2084.88	1.9	1	generate	Run3	generate/STIM_014.jpg
2089.486	1.473	1	generate	Run3	generate/STIM_014.jpg
2094.691	1.003	1	generate	Run3	generate/STIM_014.jpg
2098.315	0.99	1	generate	Run3	generate/STIM_015.jpg
2102.5	1.207	1	generate	Run3	generate/STIM_015.jpg
2106.625	1.008	1	generate	Run3	generate/STIM_015.jpg
2111.341	2.025	1	generate	Run3	generate/STIM_015.jpg
2115.674	1.21	1	generate	Run3	generate/STIM_015.jpg
2120.759	2.065	0	generate	Run3	generate/STIM_016.jpg
2124.8	2.017	1	generate	Run3	generate/STIM_016.jpg
2130.147	1.172	1	generate	Run3	generate/STIM_016.jpg
2133.359	0.985	1	generate	Run3	generate/STIM_016.jpg
2137.463	1.642	1	generate	Run3	generate/STIM_016.jpg
2142.163	1.589	0	generate	Run3	generate/STIM_017.jpg
2147.207	1.95	1	generate	Run3	generate/STIM_017.jpg
2152.739	0.984	1	generate	Run3	generate/STIM_017.jpg
2157.462	1.415	1	generate	Run3	generate/STIM_017.jpg
2162.272	1.317	1	generate	Run3	generate/STIM_017.jpg
2166.743	1.776	1	generate	Run3	generate/STIM_018.jpg
2171.444	1.476	1	generate	Run3	generate/STIM_018.jpg
2175.403	1.508	1	generate	Run3	generate/STIM_018.jpg
2178.952	2.244	1	generate	Run3	generate/STIM_018.jpg
2183.184	1.952	1	generate	Run3	generate/STIM_018.jpg
2188.925	1.206	1	generate	Run3	generate/STIM_019.jpg
2192.159	0.806	1	generate	Run3	generate/STIM_019.jpg
2195.41	1.182	1	generate	Run3	generate/STIM_019.jpg
2200.107	1.74	1	generate	Run3	generate/STIM_019.jpg
2204.619	2.007	1	generate	Run3	generate/STIM_019.jpg
2210.147	1.937	1	generate	Run3	generate/STIM_020.jpg
2215.717	1.006	1	generate	Run3	generate/STIM_020.jpg
2218.758	1.64	1	generate	Run3	generate/STIM_020.jpg
2223.326	1.095	1	generate	Run3	generate/STIM_020.jpg
2226.857	1.91	1	generate	Run3	generate/STIM_020.jpg
2232.513	1.64	1	generate	Run3	generate/STIM_021.jpg
2236.712	1.657	1	generate	Run3	generate/STIM_021.jpg
2242.151	2.18	1	generate	Run3	generate/STIM_021.jpg
2246.356	1.856	1	generate	Run3	generate/STIM_021.jpg
2250.919	1.466	1	generate	Run3	generate/STIM_021.jpg
2254.55	1.647	1	generate	Run3	generate/STIM_022.jpg
2259.569	0.965	1	generate	Run3	generate/STIM_022.jpg
2263.485	1.521	1	generate	Run3	generate/STIM_022.jpg
2267.138	2.121	1	generate	Run3	generate/STIM_022.jpg
2272.606	1.376	1	generate	Run3	generate/STIM_022.jpg
2277.77	1.038	1	generate	Run3	generate/STIM_023.jpg
2280.937	1.386	1	generate	Run3	generate/STIM_023.jpg
2284.966	1.343	1	generate	Run3	generate/STIM_023.jpg
2289.291	0.914	1	generate	Run3	generate/STIM_023.jpg
2292.279	1.894	1	generate	Run3	generate/STIM_023.jpg
2296.912	1.156	1	generate	Run3	generate/STIM_024.jpg
2301.146	0.965	1	generate	Run3	generate/STIM_024.jpg
2304.041	1.247	0	generate	Run3	generate/STIM_024.jpg
2307.77	2.128	1	generate	Run3	generate/STIM_024.jpg
2312.662	1.04	1	generate	Run3	generate/STIM_024.jpg
2317.077	0.709	1	repeat	Run3	repeat/STIM_000.jpg
2320.531	0.945	1	repeat	Run3	repeat/STIM_000.jpg
2323.447	0.964	1	repeat	Run3	repeat/STIM_000.jpg
2327.363	0.799	1	repeat	Run3	repeat/STIM_000.jpg
2330.454	0.672	1	repeat	Run3	repeat/STIM_000.jpg
2335.102	0.889	1	repeat	Run3	repeat/STIM_001.jpg
2338.348	0.94	1	repeat	Run3	repeat/STIM_001.jpg
2341.263	0.748	1	repeat	Run3	repeat/STIM_001.jpg
2344.205	0.57	1	repeat	Run3	repeat/STIM_001.jpg
2348.167	0.694	1	repeat	Run3	repeat/STIM_001.jpg
2352.716	0.728	1	repeat	Run3	repeat/STIM_002.jpg
2356.397	0.842	1	repeat	Run3	repeat/STIM_002.jpg
2359.472	0.896	1	repeat	Run3	repeat/STIM_002.jpg
2362.646	0.876	1	repeat	Run3	repeat/STIM_002.jpg
2366.366	0.617	1	repeat	Run3	repeat/STIM_002.jpg
2368.967	0.817	1	repeat	Run3	repeat/STIM_003.jpg
2371.985	0.717	1	repeat	Run3	repeat/STIM_003.jpg
2374.92	0.708	1	repeat	Run3	repeat/STIM_003.jpg
2378.758	0.653	1	repeat	Run3	repeat/STIM_003.jpg
2381.999	0.589	1	repeat	Run3	repeat/STIM_003.jpg
2386.306	0.818	1	repeat	Run3	repeat/STIM_004.jpg
2390.36	0.883	1	repeat	Run3	repeat/STIM_004.jpg
2394.69	0.746	1	repeat	Run3	repeat/STIM_004.jpg
2397.459	0.82	1	repeat	Run3	repeat/STIM_004.jpg
2401.971	0.915	1	repeat	Run3	repeat/STIM_004.jpg
2406.231	0.654	1	repeat	Run3	repeat/STIM_005.jpg
2409.343	0.762	1	repeat	Run3	repeat/STIM_005.jpg
2412.883	0.853	1	repeat	Run3	repeat/STIM_005.jpg
2415.731	0.628	1	repeat	Run3	repeat/STIM_005.jpg
2418.823	0.925	1	repeat	Run3	repeat/STIM_005.jpg
2423.586	0.782	1	repeat	Run3	repeat/STIM_006.jpg
2428.098	0.815	1	repeat	Run3	repeat/STIM_006.jpg
2432.723	0.523	1	repeat	Run3	repeat/STIM_006.jpg
2436.042	0.714	1	repeat	Run3	repeat/STIM_006.jpg
2440.202	0.576	1	repeat	Run3	repeat/STIM_006.jpg
2443.766	0.841	1	repeat	Run3	repeat/STIM_007.jpg
2448.276	0.55	1	repeat	Run3	repeat/STIM_007.jpg
2452.104	0.72	1	repeat	Run3	repeat/STIM_007.jpg
2455.667	0.641	1	repeat	Run3	repeat/STIM_007.jpg
2460.158	0.546	0	repeat	Run3	repeat/STIM_007.jpg
2462.926	1.037	1	repeat	Run3	repeat/STIM_008.jpg
2466.826	0.479	1	repeat	Run3	repeat/STIM_008.jpg
2471.08	0.571	1	repeat	Run3	repeat/STIM_008.jpg
2474.559	0.662	1	repeat	Run3	repeat/STIM_008.jpg
2478.593	0.622	1	repeat	Run3	repeat/STIM_008.jpg
2481.57	0.975	1	repeat	Run3	repeat/STIM_009.jpg
2485.645	0.945	1	repeat	Run3	repeat/STIM_009.jpg
2489.063	0.674	1	repeat	Run3	repeat/STIM_009.jpg
2491.862	0.753	1	repeat	Run3	repeat/STIM_009.jpg
2495.257	0.696	1	repeat	Run3	repeat/STIM_009.jpg
2498.438	0.87	1	repeat	Run3	repeat/STIM_010.jpg
2503.23	1.073	1	repeat	Run3	repeat/STIM_010.jpg
2507.065	1.001	1	repeat	Run3	repeat/STIM_010.jpg
2510.264	0.604	1	repeat	Run3	repeat/STIM_010.jpg
2513.248	0.535	1	repeat	Run3	repeat/STIM_010.jpg
2517.611	0.582	1	repeat	Run3	repeat/STIM_011.jpg
2521.719	0.659	1	repeat	Run3	repeat/STIM_011.jpg
2525.365	0.619	1	repeat	Run3	repeat/STIM_011.jpg
2528.339	1.068	0	repeat	Run3	repeat/STIM_011.jpg
2533.07	0.581	1	repeat	Run3	repeat/STIM_011.jpg
2537.423	0.685	1	repeat	Run3	repeat/STIM_012.jpg
2540.626	0.962	0	repeat	Run3	repeat/STIM_012.jpg
2544.855	0.61	1	repeat	Run3	repeat/STIM_012.jpg
2547.56	0.937	1	repeat	Run3	repeat/STIM_012.jpg
2550.928	0.988	1	repeat	Run3	repeat/STIM_012.jpg
2554.851	0.764	1	repeat	Run3	repeat/STIM_013.jpg
2558.412	0.882	1	repeat	Run3	repeat/STIM_013.jpg
2561.873	0.982	1	repeat	Run3	repeat/STIM_013.jpg
2565.806	0.877	1	repeat	Run3	repeat/STIM_013.jpg
2569.81	1.045	1	repeat	Run3	repeat/STIM_013.jpg
2574.506	0.976	0	repeat	Run3	repeat/STIM_014.jpg
2578.917	0.832	1	repeat	Run3	repeat/STIM_014.jpg
2582.116	0.518	1	repeat	Run3	repeat/STIM_014.jpg
2585.202	0.808	1	repeat	Run3	repeat/STIM_014.jpg
2588.807	0.432	1	repeat	Run3	repeat/STIM_014.jpg
2591.723	1.174	1	generate	Run4	generate/STIM_000.jpg
2595.095	1.685	0	generate	Run4	generate/STIM_000.jpg
2600.303	1.103	1	generate	Run4	generate/STIM_000.jpg
2604.473	1.503	1	generate	Run4	generate/STIM_000.jpg
2608.656	1.423	0	generate	Run4	generate/STIM_000.jpg
2612.495	1.96	1	generate	Run4	generate/STIM_001.jpg
2616.61	1.102	1	generate	Run4	generate/STIM_001.jpg
2621.431	1.736	1	generate	Run4	generate/STIM_001.jpg
2626.76	2.182	1	generate	Run4	generate/STIM_001.jpg
2632.774	1.74	1	generate	Run4	generate/STIM_001.jpg
2637.15	1.114	1	generate	Run4	generate/STIM_002.jpg
2641.78	1.546	1	generate	Run4	generate/STIM_002.jpg
2647.018	1.308	1	generate	Run4	generate/STIM_002.jpg
2650.293	2.029	0	generate	Run4	generate/STIM_002.jpg
2655.831	1.7	1	generate	Run4	generate/STIM_002.jpg
2661.015	2.129	0	generate	Run4	generate/STIM_003.jpg
2666.838	1.749	1	generate	Run4	generate/STIM_003.jpg
2672.43	2.09	1	generate	Run4	generate/STIM_003.jpg
2678.252	1.051	1	generate	Run4	generate/STIM_003.jpg
2681.84	1.308	1	generate	Run4	generate/STIM_003.jpg
2686.706	1.004	1	generate	Run4	generate/STIM_004.jpg
2691.242	2.116	1	generate	Run4	generate/STIM_004.jpg
2696.669	1.572	1	generate	Run4	generate/STIM_004.jpg
2700.613	0.941	1	generate	Run4	generate/STIM_004.jpg
2704.26	1.194	1	generate	Run4	generate/STIM_004.jpg
2708.183	1.107	1	generate	Run4	generate/STIM_005.jpg
2712.693	1.96	1	generate	Run4	generate/STIM_005.jpg
2717.799	1.676	1	generate	Run4	generate/STIM_005.jpg
2722.319	1.466	1	generate	Run4	generate/STIM_005.jpg
2726.741	1.533	1	generate	Run4	generate/STIM_005.jpg
2732.013	1.491	1	generate	Run4	generate/STIM_006.jpg
2735.85	1.48	1	generate	Run4	generate/STIM_006.jpg
2740.802	1.367	0	generate	Run4	generate/STIM_006.jpg
2744.809	2.027	1	generate	Run4	generate/STIM_006.jpg
2748.969	1.699	1	generate	Run4	generate/STIM_006.jpg
2754.194	1.515	1	generate	Run4	generate/STIM_007.jpg
2757.681	1.754	1	generate	Run4	generate/STIM_007.jpg
2763.214	1.708	1	generate	Run4	generate/STIM_007.jpg
2767.581	1.705	1	generate	Run4	generate/STIM_007.jpg
2771.426	1.826	1	generate	Run4	generate/STIM_007.jpg
2776.676	1.156	1	generate	Run4	generate/STIM_008.jpg
2781.682	2.071	1	generate	Run4	generate/STIM_008.jpg
2787.647	1.621	1	generate	Run4	generate/STIM_008.jpg
2791.562	0.902	0	generate	Run4	generate/STIM_008.jpg
2795.903	1.2	1	generate	Run4	generate/STIM_008.jpg
2799.348	1.589	1	generate	Run4	generate/STIM_009.jpg
2803.546	1.774	1	generate	Run4	generate/STIM_009.jpg
2807.394	1.641	1	generate	Run4	generate/STIM_009.jpg
2811.272	1.699	1	generate	Run4	generate/STIM_009.jpg
2815.272	1.657	1	generate	Run4	generate/STIM_009.jpg
2819.249	0.861	1	generate	Run4	generate/STIM_010.jpg
2822.173	1.365	0	generate	Run4	generate/STIM_010.jpg
2827.387	2.174	0	generate	Run4	generate/STIM_010.jpg
2832.296	2.053	1	generate	Run4	generate/STIM_010.jpg
2837.776	1.244	1	generate	Run4	generate/STIM_010.jpg
2842.386	1.135	1	generate	Run4	generate/STIM_011.jpg
2847.309	1.772	1	generate	Run4	generate/STIM_011.jpg
2851.323	1.088	1	generate	Run4	generate/STIM_011.jpg
2856.214	1.182	1	generate	Run4	generate/STIM_011.jpg
2860.446	1.277	1	generate	Run4	generate/STIM_011.jpg
2865.31	1.885	1	generate	Run4	generate/STIM_012.jpg
2870.648	1.207	1	generate	Run4	generate/STIM_012.jpg
2875.698	1.53	1	generate	Run4	generate/STIM_012.jpg
2880.245	1.858	1	generate	Run4	generate/STIM_012.jpg
2885.762	1.203	1	generate	Run4	generate/STIM_012.jpg
2890.467	1.458	1	generate	Run4	generate/STIM_013.jpg
2895.765	1.477	1	generate	Run4	generate/STIM_013.jpg
2899.481	1.09	1	generate	Run4	generate/STIM_013.jpg
2903.251	1.58	1	generate	Run4	generate/STIM_013.jpg
2908.31	1.801	1	generate	Run4	generate/STIM_013.jpg
2913.211	1.755	1	generate	Run4	generate/STIM_014.jpg
2918.681	2.017	1	generate	Run4	generate/STIM_014.jpg
2923.019	1.078	1	generate	Run4	generate/STIM_014.jpg
2927.679	1.526	1	generate	Run4	generate/STIM_014.jpg
2931.496	1.639	0	generate	Run4	generate/STIM_014.jpg
2935.332	1.628	1	generate	Run4	generate/STIM_015.jpg
2939.206	1.435	1	generate	Run4	generate/STIM_015.jpg
2942.6	1.34	1	generate	Run4	generate/STIM_015.jpg
2947.714	1.68	1	generate	Run4	generate/STIM_015.jpg
2953.314	1.446	1	generate	Run4	generate/STIM_015.jpg
2958.39	1.768	1	generate	Run4	generate/STIM_016.jpg
2963.801	2.018	1	generate	Run4	generate/STIM_016.jpg
2967.755	1.417	1	generate	Run4	generate/STIM_016.jpg
2971.488	1.467	1	generate	Run4	generate/STIM_016.jpg
2976.161	2.198	1	generate	Run4	generate/STIM_016.jpg
2982.093	1.094	1	generate	Run4	generate/STIM_017.jpg
2987.12	1.622	1	generate	Run4	generate/STIM_017.jpg
2992.501	1.943	1	generate	Run4	generate/STIM_017.jpg
2996.451	1.786	1	generate	Run4	generate/STIM_017.jpg
3001.669	1.404	1	generate	Run4	generate/STIM_017.jpg
3006.714	1.705	1	generate	Run4	generate/STIM_018.jpg
3010.297	1.612	1	generate	Run4	generate/STIM_018.jpg
3015.715	1.029	1	generate	Run4	generate/STIM_018.jpg
3019.108	0.969	1	generate	Run4	generate/STIM_018.jpg
3023.208	2.3	1	generate	Run4	generate/STIM_018.jpg
3029.074	2.158	1	generate	Run4	generate/STIM_019.jpg
3034.077	1.547	1	generate	Run4	generate/STIM_019.jpg
3038.453	1.072	1	generate	Run4	generate/STIM_019.jpg
3042.062	2.016	1	generate	Run4	generate/STIM_019.jpg
3046.687	1.358	1	generate	Run4	generate/STIM_019.jpg
3051.569	2.011	1	generate	Run4	generate/STIM_020.jpg
3056.545	1.956	1	generate	Run4	generate/STIM_020.jpg
3061.788	1.991	1	generate	Run4	generate/STIM_020.jpg
3067.202	1.486	1	generate	Run4	generate/STIM_020.jpg
3072.414	1.386	1	generate	Run4	generate/STIM_020.jpg
3075.843	1.322	1	generate	Run4	generate/STIM_021.jpg
3079.743	2.1	1	generate	Run4	generate/STIM_021.jpg
3085.33	2.212	1	generate	Run4	generate/STIM_021.jpg
3090.333	1.988	1	generate	Run4	generate/STIM_021.jpg
3095.256	2.043	0	generate	Run4	generate/STIM_021.jpg
3099.95	1.169	1	generate	Run4	generate/STIM_022.jpg
3104.167	1.314	1	generate	Run4	generate/STIM_022.jpg
3108.909	2.022	0	generate	Run4	generate/STIM_022.jpg
3113.799	0.852	1	generate	Run4	generate/STIM_022.jpg
3117.332	2.193	1	generate	Run4	generate/STIM_022.jpg
3123.201	0.911	1	generate	Run4	generate/STIM_023.jpg
3127.938	1.385	0	generate	Run4	generate/STIM_023.jpg
3132.867	1.365	1	generate	Run4	generate/STIM_023.jpg
3137.805	1.696	1	generate	Run4	generate/STIM_023.jpg
3142.926	1.536	1	generate	Run4	generate/STIM_023.jpg
3146.486	2.087	1	generate	Run4	generate/STIM_024.jpg
3152.449	1.082	1	generate	Run4	generate/STIM_024.jpg
3157.082	1.973	1	generate	Run4	generate/STIM_024.jpg
3161.069	1.424	1	generate	Run4	generate/STIM_024.jpg
3166.442	1.874	1	generate	Run4	generate/STIM_024.jpg
3170.503	0.672	1	repeat	Run4	repeat/STIM_000.jpg
3174.878	0.819	1	repeat	Run4	repeat/STIM_000.jpg
3178.809	0.998	1	repeat	Run4	repeat/STIM_000.jpg
3182.716	0.813	1	repeat	Run4	repeat/STIM_000.jpg
3185.663	0.732	1	repeat	Run4	repeat/STIM_000.jpg
3188.972	0.618	1	repeat	Run4	repeat/STIM_001.jpg
3192.953	0.912	0	repeat	Run4	repeat/STIM_001.jpg
3196.385	0.826	1	repeat	Run4	repeat/STIM_001.jpg
3199.528	1.048	1	repeat	Run4	repeat/STIM_001.jpg
3202.66	0.886	1	repeat	Run4	repeat/STIM_001.jpg
3207.337	0.723	1	repeat	Run4	repeat/STIM_002.jpg
3211.496	0.753	1	repeat	Run4	repeat/STIM_002.jpg
3214.331	0.62	1	repeat	Run4	repeat/STIM_002.jpg
3217.108	0.894	1	repeat	Run4	repeat/STIM_002.jpg
3221.179	0.667	1	repeat	Run4	repeat/STIM_002.jpg
3223.957	1.028	1	repeat	Run4	repeat/STIM_003.jpg
3228.562	0.995	1	repeat	Run4	repeat/STIM_003.jpg
3232.114	1.003	1	repeat	Run4	repeat/STIM_003.jpg
3237.013	0.743	1	repeat	Run4	repeat/STIM_003.jpg
3241.734	0.974	1	repeat	Run4	repeat/STIM_003.jpg
3246.366	0.744	1	repeat	Run4	repeat/STIM_004.jpg
3249.232	0.919	1	repeat	Run4	repeat/STIM_004.jpg
3252.724	0.955	1	repeat	Run4	repeat/STIM_004.jpg
3257.067	0.558	1	repeat	Run4	repeat/STIM_004.jpg
3260.268	0.827	1	repeat	Run4	repeat/STIM_004.jpg
3263.772	0.512	1	repeat	Run4	repeat/STIM_005.jpg
3267.277	0.991	1	repeat	Run4	repeat/STIM_005.jpg
3271.242	0.788	1	repeat	Run4	repeat/STIM_005.jpg
3275.437	0.624	1	repeat	Run4	repeat/STIM_005.jpg
3279.074	0.899	1	repeat	Run4	repeat/STIM_005.jpg
3283.725	0.738	1	repeat	Run4	repeat/STIM_006.jpg
3288.394	0.562	1	repeat	Run4	repeat/STIM_006.jpg
3292.308	0.705	1	repeat	Run4	repeat/STIM_006.jpg
3296.608	0.809	1	repeat	Run4	repeat/STIM_006.jpg
3300.036	0.792	1	repeat	Run4	repeat/STIM_006.jpg
3303.394	0.496	1	repeat	Run4	repeat/STIM_007.jpg
3306.214	0.75	0	repeat	Run4	repeat/STIM_007.jpg
3310.735	0.598	1	repeat	Run4	repeat/STIM_007.jpg
3315.045	0.925	1	repeat	Run4	repeat/STIM_007.jpg
3318.829	0.929	1	repeat	Run4	repeat/STIM_007.jpg
3322.295	0.594	1	repeat	Run4	repeat/STIM_008.jpg
3325.227	0.799	0	repeat	Run4	repeat/STIM_008.jpg
3328.559	0.774	1	repeat	Run4	repeat/STIM_008.jpg
3331.343	0.796	1	repeat	Run4	repeat/STIM_008.jpg
3335.77	1.015	1	repeat	Run4	repeat/STIM_008.jpg
3340.591	0.943	1	repeat	Run4	repeat/STIM_009.jpg
3345.337	0.869	1	repeat	Run4	repeat/STIM_009.jpg
3349.038	0.638	1	repeat	Run4	repeat/STIM_009.jpg
3352.815	0.904	1	repeat	Run4	repeat/STIM_009.jpg
3357.15	0.589	1	repeat	Run4	repeat/STIM_009.jpg
3361.597	0.682	1	repeat	Run4	repeat/STIM_010.jpg
3364.701	0.957	1	repeat	Run4	repeat/STIM_010.jpg
3369.396	0.646	1	repeat	Run4	repeat/STIM_010.jpg
3373.68	0.559	1	repeat	Run4	repeat/STIM_010.jpg
3377.039	0.914	1	repeat	Run4	repeat/STIM_010.jpg
3380.205	0.669	0	repeat	Run4	repeat/STIM_011.jpg
3384.073	0.983	1	repeat	Run4	repeat/STIM_011.jpg
3388.066	0.822	1	repeat	Run4	repeat/STIM_011.jpg
3391.094	0.892	1	repeat	Run4	repeat/STIM_011.jpg
3395.783	0.701	1	repeat	Run4	repeat/STIM_011.jpg
3400.054	0.434	1	repeat	Run4	repeat/STIM_012.jpg
3402.974	0.561	1	repeat	Run4	repeat/STIM_012.jpg
3405.789	0.912	1	repeat	Run4	repeat/STIM_012.jpg
3409.596	0.731	1	repeat	Run4	repeat/STIM_012.jpg
3413.78	0.729	1	repeat	Run4	repeat/STIM_012.jpg
3416.657	0.631	1	repeat	Run4	repeat/STIM_013.jpg
3421.026	1.01	1	repeat	Run4	repeat/STIM_013.jpg
3424.079	0.992	1	repeat	Run4	repeat/STIM_013.jpg
3427.778	1.033	1	repeat	Run4	repeat/STIM_013.jpg
3431.162	0.518	1	repeat	Run4	repeat/STIM_013.jpg
3435.083	0.929	1	repeat	Run4	repeat/STIM_014.jpg
3438.249	1.018	1	repeat	Run4	repeat/STIM_014.jpg
3441.907	0.78	1	repeat	Run4	repeat/STIM_014.jpg
3444.829	0.55	1	repeat	Run4	repeat/STIM_014.jpg
3447.542	0.761	1	repeat	Run4	repeat/STIM_014.jpg
