onset	duration	response_time_ms	trial_type	learning_stage	stimulus	response_port
0.0	1.251	1250.6	generate	Run1	generate/STIM_000.jpg	100
5.162	2.473	2472.7	generate	Run1	generate/STIM_000.jpg	100
9.773	1.618	1618.3	generate	Run1	generate/STIM_000.jpg	100
14.415	2.541	2541.1	generate	Run1	generate/STIM_000.jpg	99
19.628	1.922	1921.9	generate	Run1	generate/STIM_000.jpg	99
23.836	2.719	2719.0	generate	Run1	generate/STIM_001.jpg	99
29.856	2.1	2100.1	generate	Run1	generate/STIM_001.jpg	100
34.146	2.206	2205.6	generate	Run1	generate/STIM_001.jpg	100
39.209	2.298	2297.5	generate	Run1	generate/STIM_001.jpg	100
44.956	2.238	2238.4	generate	Run1	generate/STIM_001.jpg	99
50.784	1.255	1254.7	generate	Run1	generate/STIM_002.jpg	99
55.512	2.922	2922.1	generate	Run1	generate/STIM_002.jpg	99
62.361	1.816	1815.9	generate	Run1	generate/STIM_002.jpg	100
66.713	2.304	2304.1	generate	Run1	generate/STIM_002.jpg	99
72.465	2.385	2385.2	generate	Run1	generate/STIM_002.jpg	99
77.911	2.279	2278.7	generate	Run1	generate/STIM_003.jpg	99
83.314	1.808	1807.5	generate	Run1	generate/STIM_003.jpg	100
88.124	2.259	2259.4	generate	Run1	generate/STIM_003.jpg	100
93.048	2.21	2209.5	generate	Run1	generate/STIM_003.jpg	99
98.031	1.37	1369.9	generate	Run1	generate/STIM_003.jpg	100
101.731	2.295	2294.7	generate	Run1	generate/STIM_004.jpg	99
107.139	1.688	1687.5	generate	Run1	generate/STIM_004.jpg	100
112.676	1.409	1409.1	generate	Run1	generate/STIM_004.jpg	99
116.193	2.534	2534.2	generate	Run1	generate/STIM_004.jpg	99
121.665	1.28	1280.5	generate	Run1	generate/STIM_004.jpg	100
125.237	2.351	2351.1	generate	Run1	generate/STIM_005.jpg	100
130.409	2.44	2440.4	generate	Run1	generate/STIM_005.jpg	100
136.496	2.086	2086.0	generate	Run1	generate/STIM_005.jpg	100
140.893	2.215	2215.3	generate	Run1	generate/STIM_005.jpg	100
145.24	1.182	1182.4	generate	Run1	generate/STIM_005.jpg	99
148.842	1.498	1498.4	generate	Run1	generate/STIM_006.jpg	99
152.415	1.264	1264.5	generate	Run1	generate/STIM_006.jpg	100
156.042	2.59	2589.7	generate	Run1	generate/STIM_006.jpg	100
162.4	2.049	2048.6	generate	Run1	generate/STIM_006.jpg	100
167.561	2.142	2141.9	generate	Run1	generate/STIM_006.jpg	99
173.311	2.1	2100.4	generate	Run1	generate/STIM_007.jpg	100
177.819	2.586	2585.7	generate	Run1	generate/STIM_007.jpg	99
183.519	2.41	2410.4	generate	Run1	generate/STIM_007.jpg	99
189.213	2.48	2479.6	generate	Run1	generate/STIM_007.jpg	99
194.21	1.861	1860.7	generate	Run1	generate/STIM_007.jpg	100
199.237	1.774	1773.5	generate	Run1	generate/STIM_008.jpg	99
204.808	2.575	2575.2	generate	Run1	generate/STIM_008.jpg	100
210.791	1.913	1913.0	generate	Run1	generate/STIM_008.jpg	100
215.04	1.273	1272.8	generate	Run1	generate/STIM_008.jpg	100
220.243	2.258	2258.1	generate	Run1	generate/STIM_008.jpg	99
224.795	2.13	2130.3	generate	Run1	generate/STIM_009.jpg	100
228.966	2.114	2114.4	generate	Run1	generate/STIM_009.jpg	99
233.946	1.994	1994.1	generate	Run1	generate/STIM_009.jpg	100
239.716	2.374	2374.0	generate	Run1	generate/STIM_009.jpg	99
244.129	0.986	986.1	generate	Run1	generate/STIM_009.jpg	100
248.106	2.003	2003.1	generate	Run1	generate/STIM_010.jpg	99
252.451	2.88	2879.9	generate	Run1	generate/STIM_010.jpg	100
258.307	1.878	1878.2	generate	Run1	generate/STIM_010.jpg	99
263.157	1.893	1892.8	generate	Run1	generate/STIM_010.jpg	100
267.568	1.14	1140.1	generate	Run1	generate/STIM_010.jpg	100
272.564	1.665	1664.9	generate	Run1	generate/STIM_011.jpg	99
278.008	1.718	1717.6	generate	Run1	generate/STIM_011.jpg	99
282.681	1.845	1844.6	generate	Run1	generate/STIM_011.jpg	100
287.419	2.431	2430.7	generate	Run1	generate/STIM_011.jpg	100
293.354	2.292	2292.1	generate	Run1	generate/STIM_011.jpg	100
299.523	2.75	2749.7	generate	Run1	generate/STIM_012.jpg	100
305.912	1.775	1774.7	generate	Run1	generate/STIM_012.jpg	100
310.312	2.159	2159.2	generate	Run1	generate/STIM_012.jpg	100
315.171	1.553	1553.3	generate	Run1	generate/STIM_012.jpg	100
318.8	1.513	1513.3	generate	Run1	generate/STIM_012.jpg	99
323.144	1.668	1668.3	generate	Run1	generate/STIM_013.jpg	99
328.116	2.423	2422.9	generate	Run1	generate/STIM_013.jpg	100
334.077	1.219	1219.3	generate	Run1	generate/STIM_013.jpg	99
339.011	1.828	1828.2	generate	Run1	generate/STIM_013.jpg	99
343.722	1.695	1695.3	generate	Run1	generate/STIM_013.jpg	99
348.155	1.695	1694.7	generate	Run1	generate/STIM_014.jpg	100
352.117	2.869	2868.7	generate	Run1	generate/STIM_014.jpg	100
358.285	2.255	2255.0	generate	Run1	generate/STIM_014.jpg	99
362.815	2.282	2282.2	generate	Run1	generate/STIM_014.jpg	100
367.728	2.45	2449.9	generate	Run1	generate/STIM_014.jpg	99
372.267	1.383	1382.6	generate	Run1	generate/STIM_015.jpg	99
377.182	2.524	2523.6	generate	Run1	generate/STIM_015.jpg	100
383.322	2.56	2559.5	generate	Run1	generate/STIM_015.jpg	100
389.745	1.548	1547.8	generate	Run1	generate/STIM_015.jpg	100
395.145	1.58	1579.7	generate	Run1	generate/STIM_015.jpg	100
400.317	2.792	2792.5	generate	Run1	generate/STIM_016.jpg	100
406.053	2.756	2755.8	generate	Run1	generate/STIM_016.jpg	99
412.646	1.248	1247.6	generate	Run1	generate/STIM_016.jpg	100
416.876	2.022	2022.5	generate	Run1	generate/STIM_016.jpg	99
421.733	1.045	1045.1	generate	Run1	generate/STIM_016.jpg	99
425.855	2.967	2967.3	generate	Run1	generate/STIM_017.jpg	99
432.569	1.994	1993.9	generate	Run1	generate/STIM_017.jpg	100
437.816	2.418	2418.4	generate	Run1	generate/STIM_017.jpg	100
443.276	1.365	1365.0	generate	Run1	generate/STIM_017.jpg	99
448.619	1.24	1240.0	generate	Run1	generate/STIM_017.jpg	99
453.541	3.055	3054.6	generate	Run1	generate/STIM_018.jpg	100
459.902	2.255	2255.2	generate	Run1	generate/STIM_018.jpg	100
464.754	1.828	1828.4	generate	Run1	generate/STIM_018.jpg	99
468.914	1.818	1817.6	generate	Run1	generate/STIM_018.jpg	100
473.38	1.645	1645.0	generate	Run1	generate/STIM_018.jpg	100
478.176	2.278	2278.0	generate	Run1	generate/STIM_019.jpg	100
484.033	1.626	1626.3	generate	Run1	generate/STIM_019.jpg	99
487.99	1.491	1491.1	generate	Run1	generate/STIM_019.jpg	100
493.273	2.096	2096.3	generate	Run1	generate/STIM_019.jpg	99
497.903	2.111	2111.0	generate	Run1	generate/STIM_019.jpg	99
502.118	2.27	2270.4	generate	Run1	generate/STIM_020.jpg	99
507.688	1.572	1572.2	generate	Run1	generate/STIM_020.jpg	99
512.34	2.716	2716.2	generate	Run1	generate/STIM_020.jpg	99
517.42	2.54	2539.8	generate	Run1	generate/STIM_020.jpg	99
522.324	1.795	1795.0	generate	Run1	generate/STIM_020.jpg	100
527.367	1.629	1628.6	generate	Run1	generate/STIM_021.jpg	100
531.035	2.374	2374.2	generate	Run1	generate/STIM_021.jpg	99
536.952	1.301	1301.1	generate	Run1	generate/STIM_021.jpg	99
542.01	1.652	1652.5	generate	Run1	generate/STIM_021.jpg	100
546.671	1.092	1092.0	generate	Run1	generate/STIM_021.jpg	99
550.108	2.62	2620.2	generate	Run1	generate/STIM_022.jpg	100
556.034	2.694	2694.2	generate	Run1	generate/STIM_022.jpg	99
560.976	2.375	2375.1	generate	Run1	generate/STIM_022.jpg	99
565.741	1.694	1694.2	generate	Run1	generate/STIM_022.jpg	100
570.006	1.924	1924.0	generate	Run1	generate/STIM_022.jpg	99
575.706	1.714	1714.0	generate	Run1	generate/STIM_023.jpg	99
581.155	1.98	1979.6	generate	Run1	generate/STIM_023.jpg	100
586.723	2.722	2721.6	generate	Run1	generate/STIM_023.jpg	99
592.356	1.69	1690.2	generate	Run1	generate/STIM_023.jpg	99
596.941	1.522	1521.6	generate	Run1	generate/STIM_023.jpg	99
601.617	2.781	2780.8	generate	Run1	generate/STIM_024.jpg	99
606.888	2.467	2466.6	generate	Run1	generate/STIM_024.jpg	100
611.869	1.818	1817.8	generate	Run1	generate/STIM_024.jpg	99
617.432	1.298	1298.0	generate	Run1	generate/STIM_024.jpg	99
621.827	2.302	2302.0	generate	Run1	generate/STIM_024.jpg	99
626.358	1.01	1009.9	repeat	Run1	repeat/STIM_000.jpg	100
629.987	0.659	659.3	repeat	Run1	repeat/STIM_000.jpg	99
633.773	0.962	962.0	repeat	Run1	repeat/STIM_000.jpg	100
636.879	0.682	681.7	repeat	Run1	repeat/STIM_000.jpg	100
640.433	0.731	731.3	repeat	Run1	repeat/STIM_000.jpg	100
643.181	0.969	969.0	repeat	Run1	repeat/STIM_001.jpg	100
647.91	0.517	517.3	repeat	Run1	repeat/STIM_001.jpg	99
652.209	0.568	568.5	repeat	Run1	repeat/STIM_001.jpg	99
656.555	0.697	696.9	repeat	Run1	repeat/STIM_001.jpg	99
660.527	0.935	934.6	repeat	Run1	repeat/STIM_001.jpg	100
664.512	0.71	709.8	repeat	Run1	repeat/STIM_002.jpg	100
668.222	0.62	620.4	repeat	Run1	repeat/STIM_002.jpg	100
671.258	0.515	515.2	repeat	Run1	repeat/STIM_002.jpg	100
675.769	0.952	951.8	repeat	Run1	repeat/STIM_002.jpg	99
680.174	0.865	865.3	repeat	Run1	repeat/STIM_002.jpg	99
683.762	1.005	1004.9	repeat	Run1	repeat/STIM_003.jpg	100
686.872	0.887	886.7	repeat	Run1	repeat/STIM_003.jpg	100
691.255	0.987	987.4	repeat	Run1	repeat/STIM_003.jpg	100
694.832	0.979	978.7	repeat	Run1	repeat/STIM_003.jpg	99
698.403	0.892	892.3	repeat	Run1	repeat/STIM_003.jpg	99
701.423	0.575	575.3	repeat	Run1	repeat/STIM_004.jpg	100
705.808	0.639	638.7	repeat	Run1	repeat/STIM_004.jpg	99
710.375	0.867	866.6	repeat	Run1	repeat/STIM_004.jpg	100
714.33	0.993	993.0	repeat	Run1	repeat/STIM_004.jpg	100
718.924	0.828	828.0	repeat	Run1	repeat/STIM_004.jpg	99
723.324	0.894	893.5	repeat	Run1	repeat/STIM_005.jpg	99
726.614	0.92	919.9	repeat	Run1	repeat/STIM_005.jpg	100
731.508	0.732	732.1	repeat	Run1	repeat/STIM_005.jpg	99
734.997	0.987	987.1	repeat	Run1	repeat/STIM_005.jpg	100
738.073	0.514	514.4	repeat	Run1	repeat/STIM_005.jpg	100
741.745	0.933	933.3	repeat	Run1	repeat/STIM_006.jpg	100
746.163	0.838	837.8	repeat	Run1	repeat/STIM_006.jpg	100
749.831	0.941	941.1	repeat	Run1	repeat/STIM_006.jpg	100
754.407	0.68	679.9	repeat	Run1	repeat/STIM_006.jpg	100
757.175	0.946	946.5	repeat	Run1	repeat/STIM_006.jpg	99
761.282	0.878	877.8	repeat	Run1	repeat/STIM_007.jpg	100
765.21	0.974	974.1	repeat	Run1	repeat/STIM_007.jpg	99
768.453	0.985	985.3	repeat	Run1	repeat/STIM_007.jpg	99
771.852	0.956	956.2	repeat	Run1	repeat/STIM_007.jpg	100
776.349	0.655	655.3	repeat	Run1	repeat/STIM_007.jpg	99
779.314	0.73	730.2	repeat	Run1	repeat/STIM_008.jpg	100
783.467	0.742	741.6	repeat	Run1	repeat/STIM_008.jpg	100
787.544	1.022	1022.0	repeat	Run1	repeat/STIM_008.jpg	99
792.476	0.942	941.8	repeat	Run1	repeat/STIM_008.jpg	100
796.944	0.642	641.6	repeat	Run1	repeat/STIM_008.jpg	99
800.193	0.901	901.4	repeat	Run1	repeat/STIM_009.jpg	100
804.587	0.902	902.2	repeat	Run1	repeat/STIM_009.jpg	99
808.498	0.514	514.1	repeat	Run1	repeat/STIM_009.jpg	99
812.146	0.555	554.7	repeat	Run1	repeat/STIM_009.jpg	100
815.542	0.777	776.7	repeat	Run1	repeat/STIM_009.jpg	99
819.374	0.574	573.5	repeat	Run1	repeat/STIM_010.jpg	99
822.023	0.676	676.5	repeat	Run1	repeat/STIM_010.jpg	99
826.363	0.784	784.3	repeat	Run1	repeat/STIM_010.jpg	99
829.996	0.829	829.0	repeat	Run1	repeat/STIM_010.jpg	100
833.581	0.852	852.5	repeat	Run1	repeat/STIM_010.jpg	99
836.838	0.734	733.9	repeat	Run1	repeat/STIM_011.jpg	99
839.793	0.554	554.2	repeat	Run1	repeat/STIM_011.jpg	100
844.186	0.872	872.5	repeat	Run1	repeat/STIM_011.jpg	100
848.127	0.937	936.7	repeat	Run1	repeat/STIM_011.jpg	100
852.681	0.536	536.3	repeat	Run1	repeat/STIM_011.jpg	100
855.317	0.665	665.0	repeat	Run1	repeat/STIM_012.jpg	99
859.18	0.926	926.3	repeat	Run1	repeat/STIM_012.jpg	100
863.11	0.727	726.8	repeat	Run1	repeat/STIM_012.jpg	100
866.964	0.578	577.8	repeat	Run1	repeat/STIM_012.jpg	100
869.911	0.828	827.5	repeat	Run1	repeat/STIM_012.jpg	99
873.607	0.93	930.0	repeat	Run1	repeat/STIM_013.jpg	100
878.171	0.652	651.8	repeat	Run1	repeat/STIM_013.jpg	99
881.524	0.7	699.9	repeat	Run1	repeat/STIM_013.jpg	99
885.409	0.71	709.5	repeat	Run1	repeat/STIM_013.jpg	100
889.037	0.888	887.7	repeat	Run1	repeat/STIM_013.jpg	99
892.29	0.923	922.9	repeat	Run1	repeat/STIM_014.jpg	100
897.096	0.942	941.9	repeat	Run1	repeat/STIM_014.jpg	100
901.863	0.861	861.3	repeat	Run1	repeat/STIM_014.jpg	99
906.113	0.868	868.4	repeat	Run1	repeat/STIM_014.jpg	100
910.427	0.517	517.1	repeat	Run1	repeat/STIM_014.jpg	100
914.437	1.759	1759.2	generate	Run2	generate/STIM_000.jpg	99
919.367	1.853	1853.4	generate	Run2	generate/STIM_000.jpg	100
925.054	1.063	1063.2	generate	Run2	generate/STIM_000.jpg	100
928.347	1.664	1664.0	generate	Run2	generate/STIM_000.jpg	100
932.465	1.537	1537.3	generate	Run2	generate/STIM_000.jpg	100
936.071	1.722	1722.4	generate	Run2	generate/STIM_001.jpg	99
940.326	1.682	1681.7	generate	Run2	generate/STIM_001.jpg	100
944.433	1.277	1277.2	generate	Run2	generate/STIM_001.jpg	99
948.008	1.464	1463.6	generate	Run2	generate/STIM_001.jpg	99
952.601	0.967	966.8	generate	Run2	generate/STIM_001.jpg	99
957.285	1.108	1107.9	generate	Run2	generate/STIM_002.jpg	99
962.055	2.448	2448.2	generate	Run2	generate/STIM_002.jpg	99
967.275	1.785	1785.4	generate	Run2	generate/STIM_002.jpg	100
972.277	1.535	1535.3	generate	Run2	generate/STIM_002.jpg	99
976.321	1.842	1842.3	generate	Run2	generate/STIM_002.jpg	99
981.919	2.133	2133.0	generate	Run2	generate/STIM_003.jpg	100
986.111	2.239	2238.7	generate	Run2	generate/STIM_003.jpg	100
992.088	1.452	1452.5	generate	Run2	generate/STIM_003.jpg	100
996.442	1.09	1090.0	generate	Run2	generate/STIM_003.jpg	99
999.737	1.002	1002.3	generate	Run2	generate/STIM_003.jpg	100
1002.943	2.289	2288.7	generate	Run2	generate/STIM_004.jpg	99
1008.598	2.308	2307.5	generate	Run2	generate/STIM_004.jpg	99
1014.827	1.56	1560.2	generate	Run2	generate/STIM_004.jpg	99
1019.872	1.391	1391.4	generate	Run2	generate/STIM_004.jpg	100
1024.387	1.749	1749.3	generate	Run2	generate/STIM_004.jpg	100
1029.118	1.399	1399.3	generate	Run2	generate/STIM_005.jpg	99
1033.043	1.165	1164.6	generate	Run2	generate/STIM_005.jpg	99
1037.674	1.935	1935.1	generate	Run2	generate/STIM_005.jpg	99
1042.588	1.152	1151.5	generate	Run2	generate/STIM_005.jpg	99
1046.03	1.229	1229.0	generate	Run2	generate/STIM_005.jpg	100
1049.964	1.57	1570.4	generate	Run2	generate/STIM_006.jpg	99
1055.003	1.418	1418.2	generate	Run2	generate/STIM_006.jpg	100
1058.894	1.99	1990.5	generate	Run2	generate/STIM_006.jpg	99
1063.389	2.134	2134.5	generate	Run2	generate/STIM_006.jpg	99
1068.403	1.678	1677.9	generate	Run2	generate/STIM_006.jpg	99
1073.991	1.177	1177.1	generate	Run2	generate/STIM_007.jpg	99
1078.806	0.987	986.8	generate	Run2	generate/STIM_007.jpg	100
1082.258	1.188	1187.6	generate	Run2	generate/STIM_007.jpg	100
1085.961	1.452	1452.3	generate	Run2	generate/STIM_007.jpg	99
1089.62	1.974	1974.4	generate	Run2	generate/STIM_007.jpg	99
1095.383	1.148	1147.6	generate	Run2	generate/STIM_008.jpg	99
1099.967	1.296	1295.7	generate	Run2	generate/STIM_008.jpg	99
1104.357	1.682	1681.5	generate	Run2	generate/STIM_008.jpg	100
1109.165	1.645	1645.0	generate	Run2	generate/STIM_008.jpg	99
1113.759	2.147	2147.4	generate	Run2	generate/STIM_008.jpg	100
1118.61	2.161	2161.4	generate	Run2	generate/STIM_009.jpg	99
1123.06	1.822	1821.6	generate	Run2	generate/STIM_009.jpg	100
1128.631	1.66	1660.2	generate	Run2	generate/STIM_009.jpg	99
1134.082	0.954	954.0	generate	Run2	generate/STIM_009.jpg	100
1137.181	0.865	865.0	generate	Run2	generate/STIM_009.jpg	99
1140.611	1.973	1973.2	generate	Run2	generate/STIM_010.jpg	100
1145.737	1.307	1307.1	generate	Run2	generate/STIM_010.jpg	100
1149.543	2.283	2283.4	generate	Run2	generate/STIM_010.jpg	99
1153.917	1.977	1976.9	generate	Run2	generate/STIM_010.jpg	100
1159.186	1.191	1191.4	generate	Run2	generate/STIM_010.jpg	99
1164.106	1.431	1431.2	generate	Run2	generate/STIM_011.jpg	99
1167.946	2.4	2400.4	generate	Run2	generate/STIM_011.jpg	99
1172.886	1.943	1943.0	generate	Run2	generate/STIM_011.jpg	100
1176.901	2.033	2032.8	generate	Run2	generate/STIM_011.jpg	100
1181.315	1.768	1768.1	generate	Run2	generate/STIM_011.jpg	99
1186.831	1.758	1758.1	generate	Run2	generate/STIM_012.jpg	100
1190.79	1.823	1823.0	generate	Run2	generate/STIM_012.jpg	100
1196.425	1.478	1478.4	generate	Run2	generate/STIM_012.jpg	100
1200.323	1.82	1820.2	generate	Run2	generate/STIM_012.jpg	100
1204.391	0.899	898.6	generate	Run2	generate/STIM_012.jpg	99
1208.768	1.233	1233.2	generate	Run2	generate/STIM_013.jpg	100
1212.963	1.603	1603.4	generate	Run2	generate/STIM_013.jpg	100
1218.07	0.945	944.8	generate	Run2	generate/STIM_013.jpg	99
1222.056	1.466	1466.4	generate	Run2	generate/STIM_013.jpg	99
1225.923	0.889	889.4	generate	Run2	generate/STIM_013.jpg	99
1228.823	1.526	1525.5	generate	Run2	generate/STIM_014.jpg	100
1233.19	1.019	1019.0	generate	Run2	generate/STIM_014.jpg	99
1237.441	1.777	1776.6	generate	Run2	generate/STIM_014.jpg	99
1242.289	1.665	1665.0	generate	Run2	generate/STIM_014.jpg	99
1246.569	1.479	1479.2	generate	Run2	generate/STIM_014.jpg	99
1251.885	2.072	2072.0	generate	Run2	generate/STIM_015.jpg	99
1256.604	2.148	2148.5	generate	Run2	generate/STIM_015.jpg	100
1260.888	1.538	1537.8	generate	Run2	generate/STIM_015.jpg	100
1264.864	1.203	1203.4	generate	Run2	generate/STIM_015.jpg	99
1269.099	1.37	1370.4	generate	Run2	generate/STIM_015.jpg	100
1274.334	2.478	2478.4	generate	Run2	generate/STIM_016.jpg	99
1280.187	2.018	2018.5	generate	Run2	generate/STIM_016.jpg	99
1285.728	1.428	1428.2	generate	Run2	generate/STIM_016.jpg	100
1290.094	1.329	1328.8	generate	Run2	generate/STIM_016.jpg	100
1294.978	1.688	1687.9	generate	Run2	generate/STIM_016.jpg	100
1299.263	1.918	1917.6	generate	Run2	generate/STIM_017.jpg	99
1304.695	1.654	1653.8	generate	Run2	generate/STIM_017.jpg	100
1309.74	1.232	1231.6	generate	Run2	generate/STIM_017.jpg	100
1313.076	1.599	1599.0	generate	Run2	generate/STIM_017.jpg	99
1317.107	1.62	1619.6	generate	Run2	generate/STIM_017.jpg	100
1321.665	2.029	2028.7	generate	Run2	generate/STIM_018.jpg	99
1325.756	1.977	1976.6	generate	Run2	generate/STIM_018.jpg	99
1329.97	1.842	1842.2	generate	Run2	generate/STIM_018.jpg	100
1333.844	1.69	1689.8	generate	Run2	generate/STIM_018.jpg	99
1338.677	1.502	1502.1	generate	Run2	generate/STIM_018.jpg	99
1342.884	2.212	2211.5	generate	Run2	generate/STIM_019.jpg	99
1347.967	1.548	1548.0	generate	Run2	generate/STIM_019.jpg	99
1351.961	2.081	2080.8	generate	Run2	generate/STIM_019.jpg	100
1356.182	1.237	1237.3	generate	Run2	generate/STIM_019.jpg	100
1359.81	1.437	1437.4	generate	Run2	generate/STIM_019.jpg	100
1363.825	2.138	2138.1	generate	Run2	generate/STIM_020.jpg	99
1369.601	2.398	2398.1	generate	Run2	generate/STIM_020.jpg	99
1375.32	1.481	1480.6	generate	Run2	generate/STIM_020.jpg	99
1378.844	1.713	1713.2	generate	Run2	generate/STIM_020.jpg	100
1383.621	1.674	1673.5	generate	Run2	generate/STIM_020.jpg	99
1388.059	2.03	2030.4	generate	Run2	generate/STIM_021.jpg	100
1392.213	1.667	1667.2	generate	Run2	generate/STIM_021.jpg	99
1396.886	1.215	1215.3	generate	Run2	generate/STIM_021.jpg	100
1400.941	1.845	1845.2	generate	Run2	generate/STIM_021.jpg	99
1405.309	1.367	1366.9	generate	Run2	generate/STIM_021.jpg	100
1409.557	1.756	1756.2	generate	Run2	generate/STIM_022.jpg	100
1415.244	1.863	1862.9	generate	Run2	generate/STIM_022.jpg	100
1420.638	1.462	1462.3	generate	Run2	generate/STIM_022.jpg	100
1425.566	0.997	996.7	generate	Run2	generate/STIM_022.jpg	100
1429.785	1.49	1490.1	generate	Run2	generate/STIM_022.jpg	99
1433.461	1.822	1822.5	generate	Run2	generate/STIM_023.jpg	100
1439.119	1.13	1130.4	generate	Run2	generate/STIM_023.jpg	100
1443.114	2.047	2046.6	generate	Run2	generate/STIM_023.jpg	99
1447.744	1.859	1858.7	generate	Run2	generate/STIM_023.jpg	100
1452.683	1.945	1945.2	generate	Run2	generate/STIM_023.jpg	99
1456.691	1.581	1580.6	generate	Run2	generate/STIM_024.jpg	99
1460.294	1.905	1905.4	generate	Run2	generate/STIM_024.jpg	99
1464.748	1.102	1101.5	generate	Run2	generate/STIM_024.jpg	99
1469.704	0.994	993.6	generate	Run2	generate/STIM_024.jpg	100
1473.161	1.064	1063.9	generate	Run2	generate/STIM_024.jpg	100
1478.116	0.784	783.8	repeat	Run2	repeat/STIM_000.jpg	99
1482.121	0.619	619.4	repeat	Run2	repeat/STIM_000.jpg	99
1485.908	0.917	916.7	repeat	Run2	repeat/STIM_000.jpg	100
1489.339	0.557	557.3	repeat	Run2	repeat/STIM_000.jpg	99
1492.774	0.591	591.3	repeat	Run2	repeat/STIM_000.jpg	99
1496.071	0.692	691.7	repeat	Run2	repeat/STIM_001.jpg	99
1499.05	0.588	587.5	repeat	Run2	repeat/STIM_001.jpg	99
1503.506	0.973	972.9	repeat	Run2	repeat/STIM_001.jpg	100
1508.047	0.725	725.2	repeat	Run2	repeat/STIM_001.jpg	99
1512.578	0.559	559.3	repeat	Run2	repeat/STIM_001.jpg	100
1516.178	0.856	856.1	repeat	Run2	repeat/STIM_002.jpg	99
1519.112	0.789	789.0	repeat	Run2	repeat/STIM_002.jpg	100
1523.312	0.936	935.9	repeat	Run2	repeat/STIM_002.jpg	99
1527.739	0.749	749.4	repeat	Run2	repeat/STIM_002.jpg	99
1532.448	0.756	756.3	repeat	Run2	repeat/STIM_002.jpg	100
1535.626	0.659	659.0	repeat	Run2	repeat/STIM_003.jpg	99
1540.001	0.598	597.5	repeat	Run2	repeat/STIM_003.jpg	99
1544.134	0.845	845.4	repeat	Run2	repeat/STIM_003.jpg	100
1548.918	0.954	953.5	repeat	Run2	repeat/STIM_003.jpg	99
1551.927	0.554	553.7	repeat	Run2	repeat/STIM_003.jpg	100
1556.009	0.718	718.2	repeat	Run2	repeat/STIM_004.jpg	100
1559.473	0.555	554.9	repeat	Run2	repeat/STIM_004.jpg	100
1562.504	0.799	799.3	repeat	Run2	repeat/STIM_004.jpg	100
1566.352	0.946	946.5	repeat	Run2	repeat/STIM_004.jpg	99
1570.301	0.765	765.2	repeat	Run2	repeat/STIM_004.jpg	99
1574.824	0.955	955.3	repeat	Run2	repeat/STIM_005.jpg	100
1578.933	0.648	648.3	repeat	Run2	repeat/STIM_005.jpg	100
1581.791	0.621	620.7	repeat	Run2	repeat/STIM_005.jpg	99
1584.633	0.526	526.4	repeat	Run2	repeat/STIM_005.jpg	100
1587.308	0.732	732.4	repeat	Run2	repeat/STIM_005.jpg	100
1591.687	0.54	540.1	repeat	Run2	repeat/STIM_006.jpg	99
1595.338	0.624	624.1	repeat	Run2	repeat/STIM_006.jpg	100
1599.922	0.561	561.1	repeat	Run2	repeat/STIM_006.jpg	99
1602.874	0.797	797.0	repeat	Run2	repeat/STIM_006.jpg	99
1607.156	0.574	574.5	repeat	Run2	repeat/STIM_006.jpg	99
1610.78	0.889	888.8	repeat	Run2	repeat/STIM_007.jpg	99
1614.764	0.684	683.9	repeat	Run2	repeat/STIM_007.jpg	100
1619.024	0.698	698.4	repeat	Run2	repeat/STIM_007.jpg	100
1621.77	0.944	943.8	repeat	Run2	repeat/STIM_007.jpg	99
1625.437	0.772	772.4	repeat	Run2	repeat/STIM_007.jpg	99
1628.296	0.798	797.7	repeat	Run2	repeat/STIM_008.jpg	100
1632.888	0.612	612.2	repeat	Run2	repeat/STIM_008.jpg	100
1637.061	0.602	602.1	repeat	Run2	repeat/STIM_008.jpg	100
1639.754	1.008	1008.3	repeat	Run2	repeat/STIM_008.jpg	99
1643.507	0.619	618.6	repeat	Run2	repeat/STIM_008.jpg	99
1647.231	0.704	704.5	repeat	Run2	repeat/STIM_009.jpg	99
1651.7	0.637	636.7	repeat	Run2	repeat/STIM_009.jpg	99
1654.406	1.0	1000.4	repeat	Run2	repeat/STIM_009.jpg	100
1658.994	0.76	759.8	repeat	Run2	repeat/STIM_009.jpg	100
1662.08	0.548	548.4	repeat	Run2	repeat/STIM_009.jpg	99
1665.193	0.901	901.3	repeat	Run2	repeat/STIM_010.jpg	99
1668.47	0.858	857.5	repeat	Run2	repeat/STIM_010.jpg	100
1673.159	0.655	655.0	repeat	Run2	repeat/STIM_010.jpg	100
1677.056	0.982	981.7	repeat	Run2	repeat/STIM_010.jpg	99
1682.002	0.696	696.0	repeat	Run2	repeat/STIM_010.jpg	99
1685.463	0.844	843.7	repeat	Run2	repeat/STIM_011.jpg	100
1689.947	0.672	672.5	repeat	Run2	repeat/STIM_011.jpg	100
1694.003	0.972	972.2	repeat	Run2	repeat/STIM_011.jpg	99
1697.156	0.526	526.4	repeat	Run2	repeat/STIM_011.jpg	100
1699.962	0.67	669.5	repeat	Run2	repeat/STIM_011.jpg	100
1703.873	0.74	740.5	repeat	Run2	repeat/STIM_012.jpg	100
1706.846	0.715	715.4	repeat	Run2	repeat/STIM_012.jpg	100
1709.946	0.562	562.0	repeat	Run2	repeat/STIM_012.jpg	100
1712.522	0.756	756.2	repeat	Run2	repeat/STIM_012.jpg	100
1716.244	0.886	886.1	repeat	Run2	repeat/STIM_012.jpg	99
1720.003	0.802	802.5	repeat	Run2	repeat/STIM_013.jpg	100
1723.031	0.818	817.6	repeat	Run2	repeat/STIM_013.jpg	99
1727.632	0.672	671.6	repeat	Run2	repeat/STIM_013.jpg	100
1731.245	0.736	735.9	repeat	Run2	repeat/STIM_013.jpg	100
1735.365	1.012	1012.3	repeat	Run2	repeat/STIM_013.jpg	100
1738.634	0.732	731.6	repeat	Run2	repeat/STIM_014.jpg	99
1741.786	0.949	949.3	repeat	Run2	repeat/STIM_014.jpg	100
1745.754	0.82	819.5	repeat	Run2	repeat/STIM_014.jpg	99
1750.152	0.627	627.0	repeat	Run2	repeat/STIM_014.jpg	99
1753.868	0.97	970.4	repeat	Run2	repeat/STIM_014.jpg	100
1758.583	1.807	1807.4	generate	Run3	generate/STIM_000.jpg	99
1763.039	1.714	1713.7	generate	Run3	generate/STIM_000.jpg	100
1768.109	0.879	878.6	generate	Run3	generate/STIM_000.jpg	100
1772.187	1.85	1849.7	generate	Run3	generate/STIM_000.jpg	100
1777.197	1.535	1535.1	generate	Run3	generate/STIM_000.jpg	99
1782.636	1.059	1059.3	generate	Run3	generate/STIM_001.jpg	100
1785.892	1.454	1453.8	generate	Run3	generate/STIM_001.jpg	99
1790.306	1.494	1494.4	generate	Run3	generate/STIM_001.jpg	99
1794.51	1.005	1004.6	generate	Run3	generate/STIM_001.jpg	99
1798.326	1.85	1849.8	generate	Run3	generate/STIM_001.jpg	100
1802.457	1.88	1880.2	generate	Run3	generate/STIM_002.jpg	99
1807.007	2.025	2024.8	generate	Run3	generate/STIM_002.jpg	99
1811.834	2.043	2042.8	generate	Run3	generate/STIM_002.jpg	99
1816.619	1.706	1705.6	generate	Run3	generate/STIM_002.jpg	100
1820.38	1.097	1096.8	generate	Run3	generate/STIM_002.jpg	99
1825.433	1.931	1930.7	generate	Run3	generate/STIM_003.jpg	100
1829.612	1.414	1413.9	generate	Run3	generate/STIM_003.jpg	99
1834.449	2.057	2056.7	generate	Run3	generate/STIM_003.jpg	99
1838.797	1.321	1320.6	generate	Run3	generate/STIM_003.jpg	99
1843.116	1.644	1644.3	generate	Run3	generate/STIM_003.jpg	100
1846.943	1.459	1459.0	generate	Run3	generate/STIM_004.jpg	100
1852.222	1.966	1966.0	generate	Run3	generate/STIM_004.jpg	99
1857.934	1.39	1390.4	generate	Run3	generate/STIM_004.jpg	100
1862.586	1.677	1676.8	generate	Run3	generate/STIM_004.jpg	100
1866.572	0.954	954.5	generate	Run3	generate/STIM_004.jpg	99
1869.992	1.306	1305.7	generate	Run3	generate/STIM_005.jpg	99
1874.445	1.013	1013.3	generate	Run3	generate/STIM_005.jpg	100
1879.416	2.156	2156.0	generate	Run3	generate/STIM_005.jpg	99
1885.281	1.014	1014.4	generate	Run3	generate/STIM_005.jpg	99
1890.22	1.938	1937.7	generate	Run3	generate/STIM_005.jpg	100
1895.096	0.923	923.0	generate	Run3	generate/STIM_006.jpg	99
1899.609	1.897	1897.1	generate	Run3	generate/STIM_006.jpg	100
1903.558	1.728	1727.5	generate	Run3	generate/STIM_006.jpg	100
1909.227	1.729	1728.6	generate	Run3	generate/STIM_006.jpg	99
1914.944	1.664	1664.4	generate	Run3	generate/STIM_006.jpg	99
1919.658	2.019	2019.2	generate	Run3	generate/STIM_007.jpg	99
1924.652	1.764	1763.5	generate	Run3	generate/STIM_007.jpg	99
1929.358	1.902	1902.0	generate	Run3	generate/STIM_007.jpg	99
1933.671	1.801	1801.0	generate	Run3	generate/STIM_007.jpg	100
1939.321	2.089	2089.1	generate	Run3	generate/STIM_007.jpg	99
1944.915	0.956	956.1	generate	Run3	generate/STIM_008.jpg	100
1949.05	2.13	2129.6	generate	Run3	generate/STIM_008.jpg	99
1953.477	2.015	2015.4	generate	Run3	generate/STIM_008.jpg	99
1957.83	1.713	1713.4	generate	Run3	generate/STIM_008.jpg	100
1962.387	1.93	1929.8	generate	Run3	generate/STIM_008.jpg	99
1966.601	1.329	1328.6	generate	Run3	generate/STIM_009.jpg	100
1971.452	1.041	1041.0	generate	Run3	generate/STIM_009.jpg	100
1975.003	1.936	1936.0	generate	Run3	generate/STIM_009.jpg	100
1980.13	1.056	1055.8	generate	Run3	generate/STIM_009.jpg	100
1983.852	1.833	1833.2	generate	Run3	generate/STIM_009.jpg	100
1988.443	1.146	1145.6	generate	Run3	generate/STIM_010.jpg	99
1992.798	2.082	2082.2	generate	Run3	generate/STIM_010.jpg	99
1998.467	1.239	1239.2	generate	Run3	generate/STIM_010.jpg	100
2003.638	1.809	1808.6	generate	Run3	generate/STIM_010.jpg	100
2008.64	2.083	2082.7	generate	Run3	generate/STIM_010.jpg	99
2012.978	2.118	2117.9	generate	Run3	generate/STIM_011.jpg	99
2017.277	1.43	1430.5	generate	Run3	generate/STIM_011.jpg	99
2021.062	1.462	1462.3	generate	Run3	generate/STIM_011.jpg	100
2024.705	1.548	1548.1	generate	Run3	generate/STIM_011.jpg	99
2029.124	1.4	1400.2	generate	Run3	generate/STIM_011.jpg	100
2032.804	1.902	1902.3	generate	Run3	generate/STIM_012.jpg	100
2037.613	2.002	2002.4	generate	Run3	generate/STIM_012.jpg	99
2043.357	2.086	2085.6	generate	Run3	generate/STIM_012.jpg	99
2048.176	0.997	997.4	generate	Run3	generate/STIM_012.jpg	100
2051.484	1.51	1509.5	generate	Run3	generate/STIM_012.jpg	100
2056.333	1.134	1134.4	generate	Run3	generate/STIM_013.jpg	100
2060.848	2.15	2150.4	generate	Run3	generate/STIM_013.jpg	100
2065.092	1.899	1898.7	generate	Run3	generate/STIM_013.jpg	100
2069.69	1.968	1967.8	generate	Run3	generate/STIM_013.jpg	99
2075.263	0.896	895.7	generate	Run3	generate/STIM_013.jpg	99
2080.019	1.952	1951.8	generate	Run3	generate/STIM_014.jpg	100
2085.629	1.737	1737.0	generate	Run3	generate/STIM_014.jpg	99
2091.23	1.823	1822.8	generate	Run3	generate/STIM_014.jpg	99
2096.798	1.084	1083.5	generate	Run3	generate/STIM_014.jpg	100
2101.381	2.131	2130.8	generate	Run3	generate/STIM_014.jpg	99
2106.993	1.66	1660.3	generate	Run3	generate/STIM_015.jpg	100
2112.333	0.885	884.6	generate	Run3	generate/STIM_015.jpg	100
2116.809	1.384	1384.5	generate	Run3	generate/STIM_015.jpg	100
2120.835	2.024	2024.3	generate	Run3	generate/STIM_015.jpg	99
2125.875	1.647	1646.8	generate	Run3	generate/STIM_015.jpg	99
2131.215	1.201	1200.9	generate	Run3	generate/STIM_016.jpg	100
2135.54	0.929	928.9	generate	Run3	generate/STIM_016.jpg	100
2138.748	1.277	1277.4	generate	Run3	generate/STIM_016.jpg	100
2142.939	1.561	1560.9	generate	Run3	generate/STIM_016.jpg	100
2146.943	2.07	2070.4	generate	Run3	generate/STIM_016.jpg	100
2151.168	1.597	1596.9	generate	Run3	generate/STIM_017.jpg	100
2154.899	1.357	1356.7	generate	Run3	generate/STIM_017.jpg	100
2158.802	1.216	1216.3	generate	Run3	generate/STIM_017.jpg	100
2163.331	1.264	1263.8	generate	Run3	generate/STIM_017.jpg	100
2167.334	1.5	1500.1	generate	Run3	generate/STIM_017.jpg	99
2172.789	1.601	1601.3	generate	Run3	generate/STIM_018.jpg	100
2177.351	1.032	1032.5	generate	Run3	generate/STIM_018.jpg	99
2181.587	1.902	1902.5	generate	Run3	generate/STIM_018.jpg	100
2187.401	1.254	1253.8	generate	Run3	generate/STIM_018.jpg	99
2191.269	1.723	1722.9	generate	Run3	generate/STIM_018.jpg	99
2195.175	1.229	1228.6	generate	Run3	generate/STIM_019.jpg	100
2199.823	1.373	1372.7	generate	Run3	generate/STIM_019.jpg	99
2204.733	1.267	1266.6	generate	Run3	generate/STIM_019.jpg	100
2208.425	1.801	1800.8	generate	Run3	generate/STIM_019.jpg	100
2212.712	0.925	925.3	generate	Run3	generate/STIM_019.jpg	100
2216.501	1.641	1640.9	generate	Run3	generate/STIM_020.jpg	100
2221.55	1.814	1814.3	generate	Run3	generate/STIM_020.jpg	100
2225.775	1.426	1426.2	generate	Run3	generate/STIM_020.jpg	99
2229.979	1.195	1195.1	generate	Run3	generate/STIM_020.jpg	99
2234.406	2.077	2076.6	generate	Run3	generate/STIM_020.jpg	99
2240.33	1.944	1944.5	generate	Run3	generate/STIM_021.jpg	99
2244.803	1.323	1323.1	generate	Run3	generate/STIM_021.jpg	100
2248.321	1.954	1953.8	generate	Run3	generate/STIM_021.jpg	100
2252.677	1.743	1742.6	generate	Run3	generate/STIM_021.jpg	100
2257.251	1.301	1301.1	generate	Run3	generate/STIM_021.jpg	99
2261.662	1.942	1942.1	generate	Run3	generate/STIM_022.jpg	100
2267.224	1.518	1517.6	generate	Run3	generate/STIM_022.jpg	99
2272.626	1.268	1268.2	generate	Run3	generate/STIM_022.jpg	100
2277.401	1.916	1916.2	generate	Run3	generate/STIM_022.jpg	99
2282.197	2.095	2094.8	generate	Run3	generate/STIM_022.jpg	100
2287.99	1.904	1903.5	generate	Run3	generate/STIM_023.jpg	100
2291.918	2.006	2005.8	generate	Run3	generate/STIM_023.jpg	99
2296.273	1.817	1817.0	generate	Run3	generate/STIM_023.jpg	99
2301.874	1.29	1290.4	generate	Run3	generate/STIM_023.jpg	100
2307.112	1.404	1403.7	generate	Run3	generate/STIM_023.jpg	99
2312.102	1.989	1988.8	generate	Run3	generate/STIM_024.jpg	99
2316.435	2.135	2134.9	generate	Run3	generate/STIM_024.jpg	100
2320.697	2.146	2145.7	generate	Run3	generate/STIM_024.jpg	99
2325.37	1.981	1980.9	generate	Run3	generate/STIM_024.jpg	100
2329.715	1.92	1920.5	generate	Run3	generate/STIM_024.jpg	100
2334.986	0.548	548.2	repeat	Run3	repeat/STIM_000.jpg	99
2337.699	0.998	997.7	repeat	Run3	repeat/STIM_000.jpg	100
2340.741	0.955	954.9	repeat	Run3	repeat/STIM_000.jpg	99
2344.014	0.905	904.9	repeat	Run3	repeat/STIM_000.jpg	99
2347.15	0.657	657.1	repeat	Run3	repeat/STIM_000.jpg	99
2350.895	0.979	979.3	repeat	Run3	repeat/STIM_001.jpg	100
2355.47	0.707	706.6	repeat	Run3	repeat/STIM_001.jpg	100
2358.861	0.602	602.1	repeat	Run3	repeat/STIM_001.jpg	100
2362.585	0.865	864.6	repeat	Run3	repeat/STIM_001.jpg	100
2367.26	0.573	573.1	repeat	Run3	repeat/STIM_001.jpg	100
2371.184	0.959	959.3	repeat	Run3	repeat/STIM_002.jpg	99
2375.806	1.021	1021.3	repeat	Run3	repeat/STIM_002.jpg	99
2380.294	0.918	918.4	repeat	Run3	repeat/STIM_002.jpg	99
2383.588	0.643	643.3	repeat	Run3	repeat/STIM_002.jpg	100
2387.94	0.574	573.8	repeat	Run3	repeat/STIM_002.jpg	100
2392.358	0.885	884.8	repeat	Run3	repeat/STIM_003.jpg	100
2395.905	0.591	591.0	repeat	Run3	repeat/STIM_003.jpg	100
2399.817	0.784	784.2	repeat	Run3	repeat/STIM_003.jpg	99
2402.682	0.919	919.4	repeat	Run3	repeat/STIM_003.jpg	100
2406.641	0.568	568.2	repeat	Run3	repeat/STIM_003.jpg	99
2409.407	0.709	709.0	repeat	Run3	repeat/STIM_004.jpg	100
2413.865	0.702	702.5	repeat	Run3	repeat/STIM_004.jpg	100
2418.053	0.557	557.3	repeat	Run3	repeat/STIM_004.jpg	99
2420.804	0.517	517.0	repeat	Run3	repeat/STIM_004.jpg	100
2423.329	0.892	892.4	repeat	Run3	repeat/STIM_004.jpg	100
2428.15	0.687	687.0	repeat	Run3	repeat/STIM_005.jpg	100
2432.033	0.62	619.7	repeat	Run3	repeat/STIM_005.jpg	100
2436.572	0.892	891.8	repeat	Run3	repeat/STIM_005.jpg	99
2439.611	0.578	578.2	repeat	Run3	repeat/STIM_005.jpg	99
2443.242	0.906	905.9	repeat	Run3	repeat/STIM_005.jpg	100
2446.638	0.769	769.1	repeat	Run3	repeat/STIM_006.jpg	99
2449.977	0.742	741.7	repeat	Run3	repeat/STIM_006.jpg	99
2452.745	0.803	802.6	repeat	Run3	repeat/STIM_006.jpg	100
2456.321	0.563	563.1	repeat	Run3	repeat/STIM_006.jpg	100
2460.418	1.013	1012.7	repeat	Run3	repeat/STIM_006.jpg	100
2464.892	0.541	540.9	repeat	Run3	repeat/STIM_007.jpg	99
2467.462	0.646	646.2	repeat	Run3	repeat/STIM_007.jpg	99
2470.311	0.672	672.4	repeat	Run3	repeat/STIM_007.jpg	99
2474.748	0.858	857.7	repeat	Run3	repeat/STIM_007.jpg	100
2479.239	0.55	549.9	repeat	Run3	repeat/STIM_007.jpg	100
2482.415	1.013	1012.6	repeat	Run3	repeat/STIM_008.jpg	99
2486.166	0.566	566.2	repeat	Run3	repeat/STIM_008.jpg	99
2489.716	0.668	668.5	repeat	Run3	repeat/STIM_008.jpg	100
2492.892	0.858	857.9	repeat	Run3	repeat/STIM_008.jpg	99
2496.216	0.889	889.0	repeat	Run3	repeat/STIM_008.jpg	99
2500.155	0.71	710.0	repeat	Run3	repeat/STIM_009.jpg	99
2504.434	0.808	808.3	repeat	Run3	repeat/STIM_009.jpg	100
2508.899	0.969	968.7	repeat	Run3	repeat/STIM_009.jpg	100
2511.929	0.688	687.8	repeat	Run3	repeat/STIM_009.jpg	99
2516.46	0.972	971.5	repeat	Run3	repeat/STIM_009.jpg	100
2519.635	0.643	643.4	repeat	Run3	repeat/STIM_010.jpg	100
2524.011	0.718	718.3	repeat	Run3	repeat/STIM_010.jpg	100
2528.601	0.814	813.8	repeat	Run3	repeat/STIM_010.jpg	100
2532.287	0.731	731.1	repeat	Run3	repeat/STIM_010.jpg	99
2535.438	0.61	609.9	repeat	Run3	repeat/STIM_010.jpg	99
2538.855	0.69	689.6	repeat	Run3	repeat/STIM_011.jpg	100
2543.535	0.963	962.8	repeat	Run3	repeat/STIM_011.jpg	99
2548.072	0.992	991.7	repeat	Run3	repeat/STIM_011.jpg	100
2552.719	0.99	990.2	repeat	Run3	repeat/STIM_011.jpg	100
2556.888	0.723	723.2	repeat	Run3	repeat/STIM_011.jpg	100
2559.644	0.719	718.8	repeat	Run3	repeat/STIM_012.jpg	99
2563.174	0.747	746.7	repeat	Run3	repeat/STIM_012.jpg	99
2566.54	0.582	582.1	repeat	Run3	repeat/STIM_012.jpg	99
2570.904	0.93	930.4	repeat	Run3	repeat/STIM_012.jpg	100
2574.502	0.791	791.3	repeat	Run3	repeat/STIM_012.jpg	99
2577.565	1.015	1015.3	repeat	Run3	repeat/STIM_013.jpg	100
2581.839	0.711	711.4	repeat	Run3	repeat/STIM_013.jpg	99
2585.577	0.969	969.0	repeat	Run3	repeat/STIM_013.jpg	100
2589.327	0.759	759.3	repeat	Run3	repeat/STIM_013.jpg	100
2592.95	0.686	686.0	repeat	Run3	repeat/STIM_013.jpg	100
2595.68	0.79	789.7	repeat	Run3	repeat/STIM_014.jpg	100
2600.382	0.608	608.4	repeat	Run3	repeat/STIM_014.jpg	99
2604.544	0.862	861.9	repeat	Run3	repeat/STIM_014.jpg	99
2608.181	0.866	866.5	repeat	Run3	repeat/STIM_014.jpg	100
2612.294	0.878	878.0	repeat	Run3	repeat/STIM_014.jpg	99
2616.339	1.826	1825.5	generate	Run4	generate/STIM_000.jpg	100
2622.102	1.417	1417.1	generate	Run4	generate/STIM_000.jpg	100
2627.323	1.414	1413.8	generate	Run4	generate/STIM_000.jpg	100
2632.43	1.386	1386.2	generate	Run4	generate/STIM_000.jpg	100
2636.412	1.311	1310.7	generate	Run4	generate/STIM_000.jpg	99
2640.975	1.281	1281.2	generate	Run4	generate/STIM_001.jpg	100
2644.929	1.712	1712.5	generate	Run4	generate/STIM_001.jpg	99
2650.056	1.858	1857.9	generate	Run4	generate/STIM_001.jpg	99
2655.497	1.074	1073.8	generate	Run4	generate/STIM_001.jpg	100
2660.449	1.521	1520.8	generate	Run4	generate/STIM_001.jpg	100
2665.687	0.969	968.8	generate	Run4	generate/STIM_002.jpg	100
2669.804	2.096	2096.4	generate	Run4	generate/STIM_002.jpg	99
2674.454	2.133	2132.7	generate	Run4	generate/STIM_002.jpg	100
2678.964	1.638	1638.1	generate	Run4	generate/STIM_002.jpg	100
2683.98	1.17	1169.7	generate	Run4	generate/STIM_002.jpg	99
2688.432	1.947	1946.6	generate	Run4	generate/STIM_003.jpg	99
2694.359	1.187	1187.1	generate	Run4	generate/STIM_003.jpg	99
2698.56	0.866	865.6	generate	Run4	generate/STIM_003.jpg	99
2701.889	2.024	2024.0	generate	Run4	generate/STIM_003.jpg	99
2706.507	1.858	1858.4	generate	Run4	generate/STIM_003.jpg	99
2710.499	1.066	1065.8	generate	Run4	generate/STIM_004.jpg	99
2714.251	1.08	1080.1	generate	Run4	generate/STIM_004.jpg	99
2719.111	1.383	1383.0	generate	Run4	generate/STIM_004.jpg	99
2722.567	1.922	1922.5	generate	Run4	generate/STIM_004.jpg	100
2727.004	2.003	2003.5	generate	Run4	generate/STIM_004.jpg	100
2732.089	1.525	1525.4	generate	Run4	generate/STIM_005.jpg	99
2735.638	1.3	1299.8	generate	Run4	generate/STIM_005.jpg	100
2739.422	1.683	1683.4	generate	Run4	generate/STIM_005.jpg	100
2743.571	0.878	877.5	generate	Run4	generate/STIM_005.jpg	100
2747.301	1.179	1179.4	generate	Run4	generate/STIM_005.jpg	100
2751.655	1.814	1814.3	generate	Run4	generate/STIM_006.jpg	99
2755.651	1.837	1836.7	generate	Run4	generate/STIM_006.jpg	99
2761.225	1.972	1972.4	generate	Run4	generate/STIM_006.jpg	100
2765.399	1.424	1423.5	generate	Run4	generate/STIM_006.jpg	100
2770.551	1.752	1752.0	generate	Run4	generate/STIM_006.jpg	99
2775.225	1.204	1204.3	generate	Run4	generate/STIM_007.jpg	100
2780.231	1.039	1039.2	generate	Run4	generate/STIM_007.jpg	99
2784.931	1.583	1582.8	generate	Run4	generate/STIM_007.jpg	99
2788.815	1.2	1199.5	generate	Run4	generate/STIM_007.jpg	100
2792.139	1.928	1927.6	generate	Run4	generate/STIM_007.jpg	99
2796.836	1.318	1318.3	generate	Run4	generate/STIM_008.jpg	100
2800.867	0.877	876.7	generate	Run4	generate/STIM_008.jpg	100
2805.127	2.051	2050.6	generate	Run4	generate/STIM_008.jpg	99
2809.503	2.127	2127.2	generate	Run4	generate/STIM_008.jpg	99
2814.809	1.717	1716.8	generate	Run4	generate/STIM_008.jpg	100
2820.309	1.042	1042.0	generate	Run4	generate/STIM_009.jpg	100
2823.835	1.572	1571.8	generate	Run4	generate/STIM_009.jpg	100
2828.082	1.356	1355.6	generate	Run4	generate/STIM_009.jpg	100
2832.878	1.951	1951.0	generate	Run4	generate/STIM_009.jpg	99
2838.418	1.098	1098.5	generate	Run4	generate/STIM_009.jpg	99
2843.161	1.002	1001.9	generate	Run4	generate/STIM_010.jpg	99
2847.237	0.918	918.5	generate	Run4	generate/STIM_010.jpg	99
2852.145	1.837	1836.6	generate	Run4	generate/STIM_010.jpg	100
2856.421	1.98	1980.2	generate	Run4	generate/STIM_010.jpg	99
2861.512	1.395	1395.1	generate	Run4	generate/STIM_010.jpg	99
2865.357	0.927	927.2	generate	Run4	generate/STIM_011.jpg	99
2869.737	1.466	1465.8	generate	Run4	generate/STIM_011.jpg	100
2873.483	1.154	1153.5	generate	Run4	generate/STIM_011.jpg	99
2878.004	1.387	1386.8	generate	Run4	generate/STIM_011.jpg	99
2881.392	1.138	1138.0	generate	Run4	generate/STIM_011.jpg	100
2886.152	1.644	1644.1	generate	Run4	generate/STIM_012.jpg	99
2890.155	2.044	2043.7	generate	Run4	generate/STIM_012.jpg	99
2896.161	1.546	1545.5	generate	Run4	generate/STIM_012.jpg	99
2900.884	1.448	1448.0	generate	Run4	generate/STIM_012.jpg	100
2906.317	1.895	1894.9	generate	Run4	generate/STIM_012.jpg	99
2911.787	1.018	1017.5	generate	Run4	generate/STIM_013.jpg	100
2915.586	1.238	1237.5	generate	Run4	generate/STIM_013.jpg	100
2919.486	1.946	1946.1	generate	Run4	generate/STIM_013.jpg	99
2924.267	1.393	1392.6	generate	Run4	generate/STIM_013.jpg	100
2929.047	2.104	2103.5	generate	Run4	generate/STIM_013.jpg	99
2933.983	1.142	1142.4	generate	Run4	generate/STIM_014.jpg	99
2938.502	1.243	1242.8	generate	Run4	generate/STIM_014.jpg	100
2941.937	1.45	1449.6	generate	Run4	generate/STIM_014.jpg	99
2946.273	1.788	1787.5	generate	Run4	generate/STIM_014.jpg	100
2950.595	1.735	1734.6	generate	Run4	generate/STIM_014.jpg	99
2956.144	1.119	1119.4	generate	Run4	generate/STIM_015.jpg	100
2959.798	2.014	2014.1	generate	Run4	generate/STIM_015.jpg	99
2964.463	1.373	1372.8	generate	Run4	generate/STIM_015.jpg	99
2968.156	1.156	1156.5	generate	Run4	generate/STIM_015.jpg	100
2972.54	1.146	1146.1	generate	Run4	generate/STIM_015.jpg	100
2976.172	1.588	1588.5	generate	Run4	generate/STIM_016.jpg	100
2980.848	1.937	1936.7	generate	Run4	generate/STIM_016.jpg	99
2985.403	1.034	1034.5	generate	Run4	generate/STIM_016.jpg	100
2990.241	0.9	900.3	generate	Run4	generate/STIM_016.jpg	100
2993.774	2.095	2095.1	generate	Run4	generate/STIM_016.jpg	99
2998.106	1.038	1038.0	generate	Run4	generate/STIM_017.jpg	100
3002.803	1.235	1234.9	generate	Run4	generate/STIM_017.jpg	99
3006.467	2.007	2007.3	generate	Run4	generate/STIM_017.jpg	100
3011.176	1.597	1596.9	generate	Run4	generate/STIM_017.jpg	99
3014.981	1.052	1052.0	generate	Run4	generate/STIM_017.jpg	100
3019.246	0.87	870.5	generate	Run4	generate/STIM_018.jpg	99
3024.085	1.382	1381.6	generate	Run4	generate/STIM_018.jpg	100
3028.897	0.949	949.3	generate	Run4	generate/STIM_018.jpg	100
3032.889	1.674	1674.1	generate	Run4	generate/STIM_018.jpg	100
3038.402	1.556	1555.6	generate	Run4	generate/STIM_018.jpg	99
3042.25	1.068	1068.0	generate	Run4	generate/STIM_019.jpg	100
3046.816	1.555	1555.1	generate	Run4	generate/STIM_019.jpg	99
3050.944	1.24	1239.7	generate	Run4	generate/STIM_019.jpg	100
3055.657	1.96	1959.7	generate	Run4	generate/STIM_019.jpg	99
3060.646	1.704	1703.5	generate	Run4	generate/STIM_019.jpg	99
3064.631	1.488	1488.2	generate	Run4	generate/STIM_020.jpg	100
3069.813	0.931	931.3	generate	Run4	generate/STIM_020.jpg	99
3072.796	1.251	1250.9	generate	Run4	generate/STIM_020.jpg	100
3076.579	0.99	990.5	generate	Run4	generate/STIM_020.jpg	100
3081.34	2.125	2125.0	generate	Run4	generate/STIM_020.jpg	99
3085.584	1.768	1768.0	generate	Run4	generate/STIM_021.jpg	99
3090.909	1.177	1177.4	generate	Run4	generate/STIM_021.jpg	99
3095.107	1.285	1284.6	generate	Run4	generate/STIM_021.jpg	100
3099.214	0.97	969.9	generate	Run4	generate/STIM_021.jpg	100
3102.679	0.904	904.0	generate	Run4	generate/STIM_021.jpg	99
3106.559	1.16	1160.3	generate	Run4	generate/STIM_022.jpg	100
3110.257	1.978	1977.6	generate	Run4	generate/STIM_022.jpg	100
3114.251	1.443	1443.3	generate	Run4	generate/STIM_022.jpg	100
3117.762	0.934	933.8	generate	Run4	generate/STIM_022.jpg	99
3121.969	1.646	1645.7	generate	Run4	generate/STIM_022.jpg	99
3126.595	1.768	1767.8	generate	Run4	generate/STIM_023.jpg	99
3132.154	0.938	938.5	generate	Run4	generate/STIM_023.jpg	100
3136.672	1.741	1740.6	generate	Run4	generate/STIM_023.jpg	100
3142.27	1.69	1690.1	generate	Run4	generate/STIM_023.jpg	100
3146.495	1.248	1247.8	generate	Run4	generate/STIM_023.jpg	100
3151.324	1.941	1941.4	generate	Run4	generate/STIM_024.jpg	100
3156.055	0.881	880.8	generate	Run4	generate/STIM_024.jpg	99
3160.594	1.81	1810.4	generate	Run4	generate/STIM_024.jpg	100
3165.196	1.686	1686.2	generate	Run4	generate/STIM_024.jpg	100
3170.737	1.526	1526.2	generate	Run4	generate/STIM_024.jpg	99
3175.438	0.52	519.9	repeat	Run4	repeat/STIM_000.jpg	99
3179.843	0.969	968.9	repeat	Run4	repeat/STIM_000.jpg	100
3184.527	0.519	519.4	repeat	Run4	repeat/STIM_000.jpg	99
3188.58	0.532	531.7	repeat	Run4	repeat/STIM_000.jpg	100
3191.546	0.726	725.8	repeat	Run4	repeat/STIM_000.jpg	99
3195.889	0.991	990.9	repeat	Run4	repeat/STIM_001.jpg	99
3199.652	1.018	1017.8	repeat	Run4	repeat/STIM_001.jpg	99
3204.308	0.588	588.5	repeat	Run4	repeat/STIM_001.jpg	100
3207.455	0.853	852.9	repeat	Run4	repeat/STIM_001.jpg	99
3212.243	0.555	555.4	repeat	Run4	repeat/STIM_001.jpg	100
3215.206	0.529	528.6	repeat	Run4	repeat/STIM_002.jpg	100
3218.205	0.531	530.8	repeat	Run4	repeat/STIM_002.jpg	99
3221.578	0.794	794.3	repeat	Run4	repeat/STIM_002.jpg	100
3224.798	0.532	532.1	repeat	Run4	repeat/STIM_002.jpg	100
3229.194	0.944	944.1	repeat	Run4	repeat/STIM_002.jpg	100
3232.896	1.0	999.5	repeat	Run4	repeat/STIM_003.jpg	100
3236.581	0.578	577.7	repeat	Run4	repeat/STIM_003.jpg	99
3240.684	0.967	966.6	repeat	Run4	repeat/STIM_003.jpg	100
3244.051	1.013	1013.3	repeat	Run4	repeat/STIM_003.jpg	99
3248.604	0.959	958.8	repeat	Run4	repeat/STIM_003.jpg	99
3253.462	0.845	844.8	repeat	Run4	repeat/STIM_004.jpg	100
3256.574	0.701	700.6	repeat	Run4	repeat/STIM_004.jpg	99
3260.143	0.843	843.4	repeat	Run4	repeat/STIM_004.jpg	100
3264.374	0.602	601.6	repeat	Run4	repeat/STIM_004.jpg	99
3268.566	0.937	936.9	repeat	Run4	repeat/STIM_004.jpg	99
3271.701	0.541	540.9	repeat	Run4	repeat/STIM_005.jpg	100
3276.105	0.853	852.7	repeat	Run4	repeat/STIM_005.jpg	99
3280.587	0.882	882.4	repeat	Run4	repeat/STIM_005.jpg	99
3285.45	0.999	999.4	repeat	Run4	repeat/STIM_005.jpg	99
3288.818	0.588	588.4	repeat	Run4	repeat/STIM_005.jpg	99
3292.213	0.614	613.6	repeat	Run4	repeat/STIM_006.jpg	100
3296.437	0.778	777.6	repeat	Run4	repeat/STIM_006.jpg	99
3300.161	0.883	882.6	repeat	Run4	repeat/STIM_006.jpg	100
3303.155	0.649	649.4	repeat	Run4	repeat/STIM_006.jpg	99
3306.082	1.013	1012.6	repeat	Run4	repeat/STIM_006.jpg	99
3310.082	0.553	553.0	repeat	Run4	repeat/STIM_007.jpg	99
3314.254	0.875	874.8	repeat	Run4	repeat/STIM_007.jpg	100
3318.735	0.873	872.7	repeat	Run4	repeat/STIM_007.jpg	100
3322.928	0.766	766.1	repeat	Run4	repeat/STIM_007.jpg	100
3325.715	0.7	699.6	repeat	Run4	repeat/STIM_007.jpg	99
3328.944	0.961	961.4	repeat	Run4	repeat/STIM_008.jpg	99
3332.121	0.664	663.8	repeat	Run4	repeat/STIM_008.jpg	100
3336.461	0.622	621.9	repeat	Run4	repeat/STIM_008.jpg	100
3339.749	1.004	1003.8	repeat	Run4	repeat/STIM_008.jpg	99
3344.139	0.925	925.4	repeat	Run4	repeat/STIM_008.jpg	99
3348.908	0.759	758.8	repeat	Run4	repeat/STIM_009.jpg	100
3352.916	0.855	855.3	repeat	Run4	repeat/STIM_009.jpg	100
3356.574	0.735	734.9	repeat	Run4	repeat/STIM_009.jpg	99
3359.784	0.87	869.6	repeat	Run4	repeat/STIM_009.jpg	99
3362.77	0.653	653.4	repeat	Run4	repeat/STIM_009.jpg	99
3366.253	0.951	950.8	repeat	Run4	repeat/STIM_010.jpg	99
3370.769	0.67	669.7	repeat	Run4	repeat/STIM_010.jpg	100
3374.104	0.826	825.6	repeat	Run4	repeat/STIM_010.jpg	99
3377.003	0.931	930.6	repeat	Run4	repeat/STIM_010.jpg	99
3381.751	0.77	770.1	repeat	Run4	repeat/STIM_010.jpg	100
3386.385	0.834	833.9	repeat	Run4	repeat/STIM_011.jpg	99
3390.13	0.907	906.9	repeat	Run4	repeat/STIM_011.jpg	99
3393.868	0.732	731.9	repeat	Run4	repeat/STIM_011.jpg	99
3397.276	0.822	822.0	repeat	Run4	repeat/STIM_011.jpg	100
3400.959	0.704	704.4	repeat	Run4	repeat/STIM_011.jpg	100
3405.492	1.025	1025.3	repeat	Run4	repeat/STIM_012.jpg	99
3409.777	0.672	672.0	repeat	Run4	repeat/STIM_012.jpg	100
3414.309	0.665	664.8	repeat	Run4	repeat/STIM_012.jpg	100
3418.764	0.737	737.0	repeat	Run4	repeat/STIM_012.jpg	100
3423.348	0.803	803.0	repeat	Run4	repeat/STIM_012.jpg	100
3426.947	0.779	778.8	repeat	Run4	repeat/STIM_013.jpg	99
3431.124	1.02	1020.4	repeat	Run4	repeat/STIM_013.jpg	99
3435.803	1.018	1017.6	repeat	Run4	repeat/STIM_013.jpg	99
3440.418	0.959	959.4	repeat	Run4	repeat/STIM_013.jpg	99
3444.688	0.702	702.3	repeat	Run4	repeat/STIM_013.jpg	99
3448.841	0.65	649.7	repeat	Run4	repeat/STIM_014.jpg	100
3451.995	0.561	561.4	repeat	Run4	repeat/STIM_014.jpg	99
3455.567	0.921	921.1	repeat	Run4	repeat/STIM_014.jpg	100
3460.193	0.804	804.1	repeat	Run4	repeat/STIM_014.jpg	100
3463.136	0.785	785.3	repeat	Run4	repeat/STIM_014.jpg	100
