onset	duration	response_time_ms	trial_type	learning_stage	stimulus	response_port
0.0	1.204	1204.2	generate	Run1	generate/STIM_000.jpg	100
3.596	2.974	2974.5	generate	Run1	generate/STIM_000.jpg	100
8.495	2.653	2653.4	generate	Run1	generate/STIM_000.jpg	100
13.231	1.537	1536.9	generate	Run1	generate/STIM_000.jpg	99
17.697	2.511	2511.0	generate	Run1	generate/STIM_000.jpg	99
23.992	2.395	2394.8	generate	Run1	generate/STIM_001.jpg	99
28.814	2.576	2575.9	generate	Run1	generate/STIM_001.jpg	100
34.668	2.474	2474.5	generate	Run1	generate/STIM_001.jpg	100
40.253	1.14	1140.2	generate	Run1	generate/STIM_001.jpg	100
43.533	1.817	1816.6	generate	Run1	generate/STIM_001.jpg	99
47.966	2.115	2114.6	generate	Run1	generate/STIM_002.jpg	99
53.314	1.489	1488.8	generate	Run1	generate/STIM_002.jpg	99
57.983	1.586	1586.3	generate	Run1	generate/STIM_002.jpg	100
61.67	2.112	2111.9	generate	Run1	generate/STIM_002.jpg	99
67.118	2.32	2319.9	generate	Run1	generate/STIM_002.jpg	99
72.875	1.655	1655.1	generate	Run1	generate/STIM_003.jpg	99
77.455	2.355	2355.3	generate	Run1	generate/STIM_003.jpg	100
82.982	2.627	2627.4	generate	Run1	generate/STIM_003.jpg	100
87.948	1.53	1529.8	generate	Run1	generate/STIM_003.jpg	99
93.09	1.193	1193.3	generate	Run1	generate/STIM_003.jpg	100
96.785	2.163	2163.3	generate	Run1	generate/STIM_004.jpg	99
102.541	2.903	2903.2	generate	Run1	generate/STIM_004.jpg	100
108.353	2.75	2750.1	generate	Run1	generate/STIM_004.jpg	99
113.333	1.712	1711.8	generate	Run1	generate/STIM_004.jpg	99
118.767	1.968	1968.4	generate	Run1	generate/STIM_004.jpg	100
124.111	1.797	1797.0	generate	Run1	generate/STIM_005.jpg	100
128.057	2.595	2595.3	generate	Run1	generate/STIM_005.jpg	100
133.749	2.475	2475.4	generate	Run1	generate/STIM_005.jpg	100
139.84	2.173	2173.0	generate	Run1	generate/STIM_005.jpg	100
145.674	2.427	2427.2	generate	Run1	generate/STIM_005.jpg	99
151.391	2.796	2796.2	generate	Run1	generate/STIM_006.jpg	99
156.601	2.357	2356.6	generate	Run1	generate/STIM_006.jpg	100
162.666	1.53	1530.2	generate	Run1	generate/STIM_006.jpg	100
167.55	2.557	2556.7	generate	Run1	generate/STIM_006.jpg	100
173.634	1.769	1768.9	generate	Run1	generate/STIM_006.jpg	99
177.477	3.053	3052.7	generate	Run1	generate/STIM_007.jpg	100
183.642	2.502	2501.7	generate	Run1	generate/STIM_007.jpg	99
188.402	1.4	1400.4	generate	Run1	generate/STIM_007.jpg	99
193.189	1.829	1829.1	generate	Run1	generate/STIM_007.jpg	99
197.072	2.108	2107.9	generate	Run1	generate/STIM_007.jpg	100
201.5	2.484	2484.4	generate	Run1	generate/STIM_008.jpg	99
207.143	1.48	1479.7	generate	Run1	generate/STIM_008.jpg	100
212.179	2.178	2178.0	generate	Run1	generate/STIM_008.jpg	100
217.737	1.13	1130.5	generate	Run1	generate/STIM_008.jpg	100
221.927	1.496	1496.3	generate	Run1	generate/STIM_008.jpg	99
227.322	3.071	3071.3	generate	Run1	generate/STIM_009.jpg	100
233.799	1.442	1442.1	generate	Run1	generate/STIM_009.jpg	99
238.429	1.854	1853.5	generate	Run1	generate/STIM_009.jpg	100
243.436	1.225	1224.6	generate	Run1	generate/STIM_009.jpg	99
246.721	2.083	2082.6	generate	Run1	generate/STIM_009.jpg	100
250.948	2.598	2597.7	generate	Run1	generate/STIM_010.jpg	99
257.068	1.852	1852.1	generate	Run1	generate/STIM_010.jpg	100
262.057	1.897	1896.6	generate	Run1	generate/STIM_010.jpg	99
266.771	2.567	2566.8	generate	Run1	generate/STIM_010.jpg	100
272.652	1.276	1275.8	generate	Run1	generate/STIM_010.jpg	100
276.323	1.349	1349.2	generate	Run1	generate/STIM_011.jpg	99
280.337	2.123	2123.0	generate	Run1	generate/STIM_011.jpg	99
285.693	2.024	2023.9	generate	Run1	generate/STIM_011.jpg	100
291.581	1.684	1684.3	generate	Run1	generate/STIM_011.jpg	100
296.156	1.285	1284.7	generate	Run1	generate/STIM_011.jpg	100
300.655	2.112	2112.3	generate	Run1	generate/STIM_012.jpg	100
304.825	1.548	1547.6	generate	Run1	generate/STIM_012.jpg	100
309.67	1.657	1657.3	generate	Run1	generate/STIM_012.jpg	100
314.068	1.077	1077.1	generate	Run1	generate/STIM_012.jpg	100
318.203	1.134	1133.9	generate	Run1	generate/STIM_012.jpg	99
321.876	1.639	1639.3	generate	Run1	generate/STIM_013.jpg	99
327.397	2.189	2189.3	generate	Run1	generate/STIM_013.jpg	100
332.325	1.909	1908.6	generate	Run1	generate/STIM_013.jpg	99
338.104	1.175	1174.9	generate	Run1	generate/STIM_013.jpg	99
342.45	1.384	1384.0	generate	Run1	generate/STIM_013.jpg	99
346.398	1.786	1785.9	generate	Run1	generate/STIM_014.jpg	100
350.298	2.763	2762.7	generate	Run1	generate/STIM_014.jpg	100
356.564	2.677	2677.3	generate	Run1	generate/STIM_014.jpg	99
361.611	1.155	1154.7	generate	Run1	generate/STIM_014.jpg	100
365.962	1.694	1694.3	generate	Run1	generate/STIM_014.jpg	99
371.291	1.681	1681.3	generate	Run1	generate/STIM_015.jpg	99
376.491	2.801	2801.4	generate	Run1	generate/STIM_015.jpg	100
381.73	1.641	1641.2	generate	Run1	generate/STIM_015.jpg	100
385.385	2.057	2056.9	generate	Run1	generate/STIM_015.jpg	100
390.753	2.27	2269.6	generate	Run1	generate/STIM_015.jpg	100
396.349	2.157	2156.8	generate	Run1	generate/STIM_016.jpg	100
400.687	1.911	1911.4	generate	Run1	generate/STIM_016.jpg	99
405.946	1.54	1540.3	generate	Run1	generate/STIM_016.jpg	100
410.198	2.353	2353.4	generate	Run1	generate/STIM_016.jpg	99
416.411	2.07	2070.3	generate	Run1	generate/STIM_016.jpg	99
420.719	1.475	1475.2	generate	Run1	generate/STIM_017.jpg	99
424.15	2.677	2677.0	generate	Run1	generate/STIM_017.jpg	100
430.141	1.569	1569.2	generate	Run1	generate/STIM_017.jpg	100
433.764	2.003	2002.7	generate	Run1	generate/STIM_017.jpg	99
437.903	1.654	1654.1	generate	Run1	generate/STIM_017.jpg	99
441.689	1.38	1379.8	generate	Run1	generate/STIM_018.jpg	100
445.863	2.552	2552.4	generate	Run1	generate/STIM_018.jpg	100
451.584	2.316	2315.6	generate	Run1	generate/STIM_018.jpg	99
457.174	2.574	2573.7	generate	Run1	generate/STIM_018.jpg	100
463.07	1.236	1235.9	generate	Run1	generate/STIM_018.jpg	100
468.188	2.761	2761.3	generate	Run1	generate/STIM_019.jpg	100
473.283	2.79	2789.8	generate	Run1	generate/STIM_019.jpg	99
478.437	2.39	2390.3	generate	Run1	generate/STIM_019.jpg	100
482.8	2.364	2363.7	generate	Run1	generate/STIM_019.jpg	99
487.594	1.534	1534.3	generate	Run1	generate/STIM_019.jpg	99
492.383	1.793	1793.1	generate	Run1	generate/STIM_020.jpg	99
497.306	1.54	1539.5	generate	Run1	generate/STIM_020.jpg	99
501.188	1.718	1717.5	generate	Run1	generate/STIM_020.jpg	99
505.375	1.935	1935.4	generate	Run1	generate/STIM_020.jpg	99
509.595	1.735	1734.6	generate	Run1	generate/STIM_020.jpg	100
514.262	2.759	2758.9	generate	Run1	generate/STIM_021.jpg	100
520.75	2.589	2589.0	generate	Run1	generate/STIM_021.jpg	99
526.195	1.96	1960.1	generate	Run1	generate/STIM_021.jpg	99
531.642	1.211	1211.1	generate	Run1	generate/STIM_021.jpg	100
535.294	2.573	2573.4	generate	Run1	generate/STIM_021.jpg	99
540.662	1.828	1828.5	generate	Run1	generate/STIM_022.jpg	100
545.192	1.298	1298.4	generate	Run1	generate/STIM_022.jpg	99
548.484	2.798	2797.8	generate	Run1	generate/STIM_022.jpg	99
554.402	1.124	1123.9	generate	Run1	generate/STIM_022.jpg	100
558.641	1.876	1875.5	generate	Run1	generate/STIM_022.jpg	99
562.999	2.825	2824.9	generate	Run1	generate/STIM_023.jpg	99
568.063	1.92	1920.1	generate	Run1	generate/STIM_023.jpg	100
572.236	2.283	2282.6	generate	Run1	generate/STIM_023.jpg	99
576.482	2.216	2215.6	generate	Run1	generate/STIM_023.jpg	99
581.81	1.85	1850.4	generate	Run1	generate/STIM_023.jpg	99
586.094	1.987	1986.7	generate	Run1	generate/STIM_024.jpg	99
589.989	1.311	1310.7	generate	Run1	generate/STIM_024.jpg	100
593.845	1.821	1821.3	generate	Run1	generate/STIM_024.jpg	99
598.343	2.36	2360.4	generate	Run1	generate/STIM_024.jpg	99
604.322	1.31	1309.6	generate	Run1	generate/STIM_024.jpg	99
609.359	0.782	781.5	repeat	Run1	repeat/STIM_000.jpg	100
613.216	0.922	921.5	repeat	Run1	repeat/STIM_000.jpg	99
616.24	0.879	878.9	repeat	Run1	repeat/STIM_000.jpg	100
620.732	0.697	697.0	repeat	Run1	repeat/STIM_000.jpg	100
623.412	0.778	778.3	repeat	Run1	repeat/STIM_000.jpg	100
628.082	1.08	1080.5	repeat	Run1	repeat/STIM_001.jpg	100
632.246	1.074	1073.8	repeat	Run1	repeat/STIM_001.jpg	99
635.626	1.035	1034.6	repeat	Run1	repeat/STIM_001.jpg	99
638.719	1.093	1093.3	repeat	Run1	repeat/STIM_001.jpg	99
642.868	1.073	1072.8	repeat	Run1	repeat/STIM_001.jpg	100
646.604	0.968	967.9	repeat	Run1	repeat/STIM_002.jpg	100
650.863	0.596	595.7	repeat	Run1	repeat/STIM_002.jpg	100
653.844	0.777	777.3	repeat	Run1	repeat/STIM_002.jpg	100
657.344	0.832	832.0	repeat	Run1	repeat/STIM_002.jpg	99
661.007	1.057	1056.9	repeat	Run1	repeat/STIM_002.jpg	99
665.723	0.763	763.3	repeat	Run1	repeat/STIM_003.jpg	100
668.929	0.597	596.7	repeat	Run1	repeat/STIM_003.jpg	100
671.555	0.925	924.8	repeat	Run1	repeat/STIM_003.jpg	100
675.162	0.816	816.5	repeat	Run1	repeat/STIM_003.jpg	99
678.021	1.058	1058.5	repeat	Run1	repeat/STIM_003.jpg	99
681.54	0.92	920.1	repeat	Run1	repeat/STIM_004.jpg	100
685.4	0.522	522.2	repeat	Run1	repeat/STIM_004.jpg	99
688.687	1.068	1068.1	repeat	Run1	repeat/STIM_004.jpg	100
693.592	0.775	774.7	repeat	Run1	repeat/STIM_004.jpg	100
697.219	0.569	569.1	repeat	Run1	repeat/STIM_004.jpg	99
700.845	0.534	534.1	repeat	Run1	repeat/STIM_005.jpg	99
704.23	1.066	1066.4	repeat	Run1	repeat/STIM_005.jpg	100
708.706	0.667	667.0	repeat	Run1	repeat/STIM_005.jpg	99
711.798	0.629	629.2	repeat	Run1	repeat/STIM_005.jpg	100
715.506	0.906	906.0	repeat	Run1	repeat/STIM_005.jpg	100
719.982	1.144	1143.8	repeat	Run1	repeat/STIM_006.jpg	100
724.579	0.585	585.2	repeat	Run1	repeat/STIM_006.jpg	100
728.471	0.768	768.0	repeat	Run1	repeat/STIM_006.jpg	100
732.616	0.677	676.8	repeat	Run1	repeat/STIM_006.jpg	100
735.879	1.072	1072.2	repeat	Run1	repeat/STIM_006.jpg	99
740.165	0.653	653.1	repeat	Run1	repeat/STIM_007.jpg	100
742.909	0.97	970.5	repeat	Run1	repeat/STIM_007.jpg	99
746.025	0.909	909.0	repeat	Run1	repeat/STIM_007.jpg	99
750.369	0.962	962.5	repeat	Run1	repeat/STIM_007.jpg	100
754.924	0.918	918.1	repeat	Run1	repeat/STIM_007.jpg	99
759.273	0.578	578.1	repeat	Run1	repeat/STIM_008.jpg	100
762.926	0.751	750.9	repeat	Run1	repeat/STIM_008.jpg	100
765.931	1.069	1068.7	repeat	Run1	repeat/STIM_008.jpg	99
769.401	0.838	838.0	repeat	Run1	repeat/STIM_008.jpg	100
772.514	0.94	939.5	repeat	Run1	repeat/STIM_008.jpg	99
775.446	0.905	905.2	repeat	Run1	repeat/STIM_009.jpg	100
780.128	0.675	674.9	repeat	Run1	repeat/STIM_009.jpg	99
783.828	0.885	884.9	repeat	Run1	repeat/STIM_009.jpg	99
787.074	0.905	905.3	repeat	Run1	repeat/STIM_009.jpg	100
791.856	1.006	1006.1	repeat	Run1	repeat/STIM_009.jpg	99
795.233	0.95	950.0	repeat	Run1	repeat/STIM_010.jpg	99
798.709	0.743	743.0	repeat	Run1	repeat/STIM_010.jpg	99
801.753	0.566	565.9	repeat	Run1	repeat/STIM_010.jpg	99
804.948	0.758	758.2	repeat	Run1	repeat/STIM_010.jpg	100
809.374	0.735	735.3	repeat	Run1	repeat/STIM_010.jpg	99
813.866	0.743	743.4	repeat	Run1	repeat/STIM_011.jpg	99
817.454	0.598	598.1	repeat	Run1	repeat/STIM_011.jpg	100
821.28	0.839	839.2	repeat	Run1	repeat/STIM_011.jpg	100
825.762	0.616	616.0	repeat	Run1	repeat/STIM_011.jpg	100
829.305	0.611	611.3	repeat	Run1	repeat/STIM_011.jpg	100
833.713	0.958	958.1	repeat	Run1	repeat/STIM_012.jpg	99
837.999	0.58	580.1	repeat	Run1	repeat/STIM_012.jpg	100
842.489	0.837	836.6	repeat	Run1	repeat/STIM_012.jpg	100
847.189	0.814	813.7	repeat	Run1	repeat/STIM_012.jpg	100
849.941	0.667	667.2	repeat	Run1	repeat/STIM_012.jpg	99
853.081	0.898	898.2	repeat	Run1	repeat/STIM_013.jpg	100
857.276	0.774	774.2	repeat	Run1	repeat/STIM_013.jpg	99
860.974	0.785	784.6	repeat	Run1	repeat/STIM_013.jpg	99
865.538	0.92	920.3	repeat	Run1	repeat/STIM_013.jpg	100
870.183	0.544	544.0	repeat	Run1	repeat/STIM_013.jpg	99
874.209	0.545	545.2	repeat	Run1	repeat/STIM_014.jpg	100
878.286	0.883	882.9	repeat	Run1	repeat/STIM_014.jpg	100
881.373	1.134	1134.4	repeat	Run1	repeat/STIM_014.jpg	99
885.489	1.0	1000.2	repeat	Run1	repeat/STIM_014.jpg	100
889.884	0.767	767.1	repeat	Run1	repeat/STIM_014.jpg	100
893.944	1.174	1174.5	generate	Run2	generate/STIM_000.jpg	99
897.874	1.913	1912.6	generate	Run2	generate/STIM_000.jpg	100
902.133	1.995	1994.7	generate	Run2	generate/STIM_000.jpg	100
907.303	1.514	1513.6	generate	Run2	generate/STIM_000.jpg	100
911.856	1.365	1365.1	generate	Run2	generate/STIM_000.jpg	100
915.51	1.617	1616.6	generate	Run2	generate/STIM_001.jpg	99
920.924	2.198	2198.3	generate	Run2	generate/STIM_001.jpg	100
925.352	1.41	1410.1	generate	Run2	generate/STIM_001.jpg	99
930.059	1.536	1535.9	generate	Run2	generate/STIM_001.jpg	99
934.757	1.403	1402.6	generate	Run2	generate/STIM_001.jpg	99
938.733	2.611	2610.8	generate	Run2	generate/STIM_002.jpg	99
943.94	2.241	2241.4	generate	Run2	generate/STIM_002.jpg	99
949.557	1.267	1266.9	generate	Run2	generate/STIM_002.jpg	100
952.819	1.854	1854.2	generate	Run2	generate/STIM_002.jpg	99
957.153	1.162	1162.0	generate	Run2	generate/STIM_002.jpg	99
961.11	1.543	1543.4	generate	Run2	generate/STIM_003.jpg	100
965.196	1.322	1322.3	generate	Run2	generate/STIM_003.jpg	100
969.148	1.814	1813.7	generate	Run2	generate/STIM_003.jpg	100
974.758	1.518	1518.4	generate	Run2	generate/STIM_003.jpg	99
979.918	1.524	1523.7	generate	Run2	generate/STIM_003.jpg	100
985.208	2.279	2278.7	generate	Run2	generate/STIM_004.jpg	99
989.589	1.515	1515.4	generate	Run2	generate/STIM_004.jpg	99
994.938	2.092	2091.7	generate	Run2	generate/STIM_004.jpg	99
999.54	1.41	1409.6	generate	Run2	generate/STIM_004.jpg	100
1004.33	1.462	1462.2	generate	Run2	generate/STIM_004.jpg	100
1008.201	1.94	1939.9	generate	Run2	generate/STIM_005.jpg	99
1012.874	1.892	1891.9	generate	Run2	generate/STIM_005.jpg	99
1017.453	2.237	2236.8	generate	Run2	generate/STIM_005.jpg	99
1021.706	1.671	1670.8	generate	Run2	generate/STIM_005.jpg	99
1026.812	1.714	1714.2	generate	Run2	generate/STIM_005.jpg	100
1032.332	1.988	1987.8	generate	Run2	generate/STIM_006.jpg	99
1036.378	2.007	2006.9	generate	Run2	generate/STIM_006.jpg	100
1040.623	1.704	1704.3	generate	Run2	generate/STIM_006.jpg	99
1044.476	1.946	1946.0	generate	Run2	generate/STIM_006.jpg	99
1048.635	1.726	1725.6	generate	Run2	generate/STIM_006.jpg	99
1053.894	1.149	1148.9	generate	Run2	generate/STIM_007.jpg	99
1058.86	1.42	1420.4	generate	Run2	generate/STIM_007.jpg	100
1062.724	1.267	1267.1	generate	Run2	generate/STIM_007.jpg	100
1066.753	1.615	1615.2	generate	Run2	generate/STIM_007.jpg	99
1071.709	1.244	1243.6	generate	Run2	generate/STIM_007.jpg	99
1076.478	1.684	1684.1	generate	Run2	generate/STIM_008.jpg	99
1081.782	1.797	1797.4	generate	Run2	generate/STIM_008.jpg	99
1087.164	2.232	2231.7	generate	Run2	generate/STIM_008.jpg	100
1092.768	0.939	939.1	generate	Run2	generate/STIM_008.jpg	99
1096.636	1.965	1964.9	generate	Run2	generate/STIM_008.jpg	100
1101.214	1.814	1814.5	generate	Run2	generate/STIM_009.jpg	99
1106.501	1.934	1934.5	generate	Run2	generate/STIM_009.jpg	100
1110.891	1.768	1768.3	generate	Run2	generate/STIM_009.jpg	99
1115.914	1.975	1974.8	generate	Run2	generate/STIM_009.jpg	100
1119.861	0.869	868.9	generate	Run2	generate/STIM_009.jpg	99
1124.695	1.824	1823.6	generate	Run2	generate/STIM_010.jpg	100
1129.526	1.462	1461.8	generate	Run2	generate/STIM_010.jpg	100
1134.041	2.32	2319.8	generate	Run2	generate/STIM_010.jpg	99
1139.704	1.065	1064.6	generate	Run2	generate/STIM_010.jpg	100
1143.556	1.92	1919.5	generate	Run2	generate/STIM_010.jpg	99
1148.576	1.096	1095.9	generate	Run2	generate/STIM_011.jpg	99
1153.588	1.818	1817.5	generate	Run2	generate/STIM_011.jpg	99
1158.381	1.973	1972.8	generate	Run2	generate/STIM_011.jpg	100
1162.482	1.789	1789.1	generate	Run2	generate/STIM_011.jpg	100
1167.167	1.627	1627.0	generate	Run2	generate/STIM_011.jpg	99
1171.459	1.413	1413.4	generate	Run2	generate/STIM_012.jpg	100
1176.631	2.248	2248.4	generate	Run2	generate/STIM_012.jpg	100
1180.879	1.919	1919.1	generate	Run2	generate/STIM_012.jpg	100
1186.619	0.838	838.0	generate	Run2	generate/STIM_012.jpg	100
1191.458	2.059	2059.1	generate	Run2	generate/STIM_012.jpg	99
1197.329	1.134	1134.1	generate	Run2	generate/STIM_013.jpg	100
1200.864	2.378	2377.8	generate	Run2	generate/STIM_013.jpg	100
1207.067	0.967	967.2	generate	Run2	generate/STIM_013.jpg	99
1210.495	1.382	1381.7	generate	Run2	generate/STIM_013.jpg	99
1215.163	1.547	1547.4	generate	Run2	generate/STIM_013.jpg	99
1220.191	1.201	1200.9	generate	Run2	generate/STIM_014.jpg	100
1224.432	2.113	2113.2	generate	Run2	generate/STIM_014.jpg	99
1228.642	2.022	2021.7	generate	Run2	generate/STIM_014.jpg	99
1233.837	1.018	1017.7	generate	Run2	generate/STIM_014.jpg	99
1238.858	2.053	2052.6	generate	Run2	generate/STIM_014.jpg	99
1243.147	1.457	1457.2	generate	Run2	generate/STIM_015.jpg	99
1246.993	1.643	1643.2	generate	Run2	generate/STIM_015.jpg	100
1250.974	1.826	1826.3	generate	Run2	generate/STIM_015.jpg	100
1254.842	1.487	1486.6	generate	Run2	generate/STIM_015.jpg	99
1259.802	1.998	1997.7	generate	Run2	generate/STIM_015.jpg	100
1264.869	1.396	1395.7	generate	Run2	generate/STIM_016.jpg	99
1269.201	2.578	2577.8	generate	Run2	generate/STIM_016.jpg	99
1275.059	2.101	2101.4	generate	Run2	generate/STIM_016.jpg	100
1279.286	1.984	1984.2	generate	Run2	generate/STIM_016.jpg	100
1284.364	1.182	1181.6	generate	Run2	generate/STIM_016.jpg	100
1287.597	2.686	2686.4	generate	Run2	generate/STIM_017.jpg	99
1292.989	2.014	2013.6	generate	Run2	generate/STIM_017.jpg	100
1298.236	1.937	1937.2	generate	Run2	generate/STIM_017.jpg	100
1302.313	1.602	1601.5	generate	Run2	generate/STIM_017.jpg	99
1306.45	2.228	2227.7	generate	Run2	generate/STIM_017.jpg	100
1312.174	2.284	2284.1	generate	Run2	generate/STIM_018.jpg	99
1316.458	2.07	2070.5	generate	Run2	generate/STIM_018.jpg	99
1321.189	2.092	2091.5	generate	Run2	generate/STIM_018.jpg	100
1326.013	1.839	1839.0	generate	Run2	generate/STIM_018.jpg	99
1330.007	1.991	1991.2	generate	Run2	generate/STIM_018.jpg	99
1334.273	2.366	2365.8	generate	Run2	generate/STIM_019.jpg	99
1339.488	2.445	2445.1	generate	Run2	generate/STIM_019.jpg	99
1345.141	1.547	1546.7	generate	Run2	generate/STIM_019.jpg	100
1350.307	1.808	1808.0	generate	Run2	generate/STIM_019.jpg	100
1354.595	1.026	1026.3	generate	Run2	generate/STIM_019.jpg	100
1357.628	1.758	1757.5	generate	Run2	generate/STIM_020.jpg	99
1362.609	1.354	1354.4	generate	Run2	generate/STIM_020.jpg	99
1366.124	1.452	1451.9	generate	Run2	generate/STIM_020.jpg	99
1370.589	1.178	1178.5	generate	Run2	generate/STIM_020.jpg	100
1374.694	1.17	1170.3	generate	Run2	generate/STIM_020.jpg	99
1378.563	1.36	1360.3	generate	Run2	generate/STIM_021.jpg	100
1383.772	1.239	1238.8	generate	Run2	generate/STIM_021.jpg	99
1388.777	1.196	1195.7	generate	Run2	generate/STIM_021.jpg	100
1392.478	1.984	1983.5	generate	Run2	generate/STIM_021.jpg	99
1397.998	1.938	1937.9	generate	Run2	generate/STIM_021.jpg	100
1402.528	1.77	1769.7	generate	Run2	generate/STIM_022.jpg	100
1408.025	2.136	2136.3	generate	Run2	generate/STIM_022.jpg	100
1413.197	1.364	1363.9	generate	Run2	generate/STIM_022.jpg	100
1417.09	1.332	1332.0	generate	Run2	generate/STIM_022.jpg	100
1421.971	1.222	1222.1	generate	Run2	generate/STIM_022.jpg	99
1426.698	2.523	2523.0	generate	Run2	generate/STIM_023.jpg	100
1431.404	2.444	2444.4	generate	Run2	generate/STIM_023.jpg	100
1436.219	2.276	2276.5	generate	Run2	generate/STIM_023.jpg	99
1442.24	1.661	1661.2	generate	Run2	generate/STIM_023.jpg	100
1447.626	2.038	2038.5	generate	Run2	generate/STIM_023.jpg	99
1453.109	1.549	1548.7	generate	Run2	generate/STIM_024.jpg	99
1458.47	1.984	1983.5	generate	Run2	generate/STIM_024.jpg	99
1462.873	1.398	1398.5	generate	Run2	generate/STIM_024.jpg	99
1466.487	1.538	1538.1	generate	Run2	generate/STIM_024.jpg	100
1471.751	1.418	1418.0	generate	Run2	generate/STIM_024.jpg	100
1476.965	0.582	581.8	repeat	Run2	repeat/STIM_000.jpg	99
1479.77	1.063	1062.8	repeat	Run2	repeat/STIM_000.jpg	99
1483.62	0.808	808.5	repeat	Run2	repeat/STIM_000.jpg	100
1486.525	0.719	718.6	repeat	Run2	repeat/STIM_000.jpg	99
1489.581	0.973	972.8	repeat	Run2	repeat/STIM_000.jpg	99
1493.568	0.656	656.3	repeat	Run2	repeat/STIM_001.jpg	99
1496.239	0.768	768.5	repeat	Run2	repeat/STIM_001.jpg	99
1499.739	0.582	581.5	repeat	Run2	repeat/STIM_001.jpg	100
1502.607	0.656	656.4	repeat	Run2	repeat/STIM_001.jpg	99
1505.782	1.032	1032.2	repeat	Run2	repeat/STIM_001.jpg	100
1510.237	0.626	626.2	repeat	Run2	repeat/STIM_002.jpg	99
1513.695	1.007	1007.3	repeat	Run2	repeat/STIM_002.jpg	100
1518.436	0.952	952.0	repeat	Run2	repeat/STIM_002.jpg	99
1521.737	0.663	662.7	repeat	Run2	repeat/STIM_002.jpg	99
1525.502	0.998	998.0	repeat	Run2	repeat/STIM_002.jpg	100
1529.529	1.037	1037.2	repeat	Run2	repeat/STIM_003.jpg	99
1532.84	0.598	598.0	repeat	Run2	repeat/STIM_003.jpg	99
1535.639	0.725	724.8	repeat	Run2	repeat/STIM_003.jpg	100
1538.722	0.7	700.3	repeat	Run2	repeat/STIM_003.jpg	99
1542.003	0.925	924.8	repeat	Run2	repeat/STIM_003.jpg	100
1545.835	0.926	926.4	repeat	Run2	repeat/STIM_004.jpg	100
1550.238	0.59	590.4	repeat	Run2	repeat/STIM_004.jpg	100
1553.698	0.779	779.1	repeat	Run2	repeat/STIM_004.jpg	100
1557.679	0.87	870.1	repeat	Run2	repeat/STIM_004.jpg	99
1562.259	0.676	675.5	repeat	Run2	repeat/STIM_004.jpg	99
1566.619	1.039	1039.0	repeat	Run2	repeat/STIM_005.jpg	100
1569.875	0.94	940.4	repeat	Run2	repeat/STIM_005.jpg	100
1574.303	0.804	803.8	repeat	Run2	repeat/STIM_005.jpg	99
1577.26	0.652	652.5	repeat	Run2	repeat/STIM_005.jpg	100
1581.802	0.566	565.5	repeat	Run2	repeat/STIM_005.jpg	100
1586.379	0.735	735.3	repeat	Run2	repeat/STIM_006.jpg	99
1589.248	0.99	989.6	repeat	Run2	repeat/STIM_006.jpg	100
1593.871	0.622	621.9	repeat	Run2	repeat/STIM_006.jpg	99
1597.606	0.774	773.6	repeat	Run2	repeat/STIM_006.jpg	99
1601.37	0.697	697.0	repeat	Run2	repeat/STIM_006.jpg	99
1604.852	0.873	872.9	repeat	Run2	repeat/STIM_007.jpg	99
1608.152	0.676	675.7	repeat	Run2	repeat/STIM_007.jpg	100
1611.623	0.692	691.9	repeat	Run2	repeat/STIM_007.jpg	100
1615.711	0.651	651.2	repeat	Run2	repeat/STIM_007.jpg	99
1618.568	0.911	911.0	repeat	Run2	repeat/STIM_007.jpg	99
1621.875	0.76	759.7	repeat	Run2	repeat/STIM_008.jpg	100
1625.52	0.653	653.1	repeat	Run2	repeat/STIM_008.jpg	100
1629.124	0.566	565.6	repeat	Run2	repeat/STIM_008.jpg	100
1633.598	0.586	586.2	repeat	Run2	repeat/STIM_008.jpg	99
1637.531	0.825	825.4	repeat	Run2	repeat/STIM_008.jpg	99
1641.201	0.924	923.9	repeat	Run2	repeat/STIM_009.jpg	99
1644.828	1.127	1126.6	repeat	Run2	repeat/STIM_009.jpg	99
1649.501	0.708	707.5	repeat	Run2	repeat/STIM_009.jpg	100
1653.883	0.564	563.5	repeat	Run2	repeat/STIM_009.jpg	100
1657.222	0.463	463.3	repeat	Run2	repeat/STIM_009.jpg	99
1660.3	1.01	1009.6	repeat	Run2	repeat/STIM_010.jpg	99
1664.997	0.47	470.0	repeat	Run2	repeat/STIM_010.jpg	100
1669.106	0.531	530.6	repeat	Run2	repeat/STIM_010.jpg	100
1672.346	0.545	544.7	repeat	Run2	repeat/STIM_010.jpg	99
1675.315	1.012	1012.1	repeat	Run2	repeat/STIM_010.jpg	99
1679.208	1.035	1034.7	repeat	Run2	repeat/STIM_011.jpg	100
1683.237	0.951	951.0	repeat	Run2	repeat/STIM_011.jpg	100
1686.853	0.733	733.4	repeat	Run2	repeat/STIM_011.jpg	99
1691.065	0.942	941.5	repeat	Run2	repeat/STIM_011.jpg	100
1695.526	0.792	792.5	repeat	Run2	repeat/STIM_011.jpg	100
1699.311	0.825	824.7	repeat	Run2	repeat/STIM_012.jpg	100
1703.578	0.743	743.4	repeat	Run2	repeat/STIM_012.jpg	100
1707.348	0.974	974.1	repeat	Run2	repeat/STIM_012.jpg	100
1711.955	0.571	571.2	repeat	Run2	repeat/STIM_012.jpg	100
1715.754	0.569	568.6	repeat	Run2	repeat/STIM_012.jpg	99
1719.045	0.576	576.5	repeat	Run2	repeat/STIM_013.jpg	100
1722.151	0.5	499.9	repeat	Run2	repeat/STIM_013.jpg	99
1725.123	0.7	699.5	repeat	Run2	repeat/STIM_013.jpg	100
1728.67	0.914	914.2	repeat	Run2	repeat/STIM_013.jpg	100
1732.643	0.885	884.7	repeat	Run2	repeat/STIM_013.jpg	100
1736.896	0.565	564.6	repeat	Run2	repeat/STIM_014.jpg	99
1741.262	0.816	815.5	repeat	Run2	repeat/STIM_014.jpg	100
1745.064	0.869	869.3	repeat	Run2	repeat/STIM_014.jpg	99
1748.012	0.862	862.1	repeat	Run2	repeat/STIM_014.jpg	99
1752.684	0.881	881.2	repeat	Run2	repeat/STIM_014.jpg	100
1756.596	1.715	1714.9	generate	Run3	generate/STIM_000.jpg	99
1760.21	1.78	1779.7	generate	Run3	generate/STIM_000.jpg	100
1765.666	0.959	958.8	generate	Run3	generate/STIM_000.jpg	100
1770.502	1.242	1241.5	generate	Run3	generate/STIM_000.jpg	100
1774.82	1.451	1450.9	generate	Run3	generate/STIM_000.jpg	99
1778.17	1.643	1643.4	generate	Run3	generate/STIM_001.jpg	100
1781.792	2.097	2097.3	generate	Run3	generate/STIM_001.jpg	99
1787.461	1.248	1248.4	generate	Run3	generate/STIM_001.jpg	99
1791.718	1.798	1798.1	generate	Run3	generate/STIM_001.jpg	99
1797.297	2.191	2191.2	generate	Run3	generate/STIM_001.jpg	100
1803.205	1.623	1623.1	generate	Run3	generate/STIM_002.jpg	99
1807.27	1.241	1241.2	generate	Run3	generate/STIM_002.jpg	99
1812.301	1.028	1028.3	generate	Run3	generate/STIM_002.jpg	99
1816.611	1.554	1553.7	generate	Run3	generate/STIM_002.jpg	100
1820.265	2.169	2168.7	generate	Run3	generate/STIM_002.jpg	99
1825.301	1.411	1411.4	generate	Run3	generate/STIM_003.jpg	100
1829.75	1.099	1098.7	generate	Run3	generate/STIM_003.jpg	99
1834.511	1.396	1395.5	generate	Run3	generate/STIM_003.jpg	99
1838.283	2.049	2049.3	generate	Run3	generate/STIM_003.jpg	99
1844.189	1.785	1784.7	generate	Run3	generate/STIM_003.jpg	100
1849.488	1.796	1796.1	generate	Run3	generate/STIM_004.jpg	100
1854.265	1.697	1696.9	generate	Run3	generate/STIM_004.jpg	99
1859.42	2.157	2157.2	generate	Run3	generate/STIM_004.jpg	100
1863.851	2.154	2153.7	generate	Run3	generate/STIM_004.jpg	100
1868.453	2.037	2036.6	generate	Run3	generate/STIM_004.jpg	99
1874.278	1.587	1586.9	generate	Run3	generate/STIM_005.jpg	99
1879.743	1.838	1838.5	generate	Run3	generate/STIM_005.jpg	100
1884.639	1.67	1669.6	generate	Run3	generate/STIM_005.jpg	99
1889.797	1.938	1937.5	generate	Run3	generate/STIM_005.jpg	99
1895.429	1.095	1095.0	generate	Run3	generate/STIM_005.jpg	100
1899.406	1.781	1781.3	generate	Run3	generate/STIM_006.jpg	99
1903.364	1.117	1117.1	generate	Run3	generate/STIM_006.jpg	100
1906.761	1.919	1919.0	generate	Run3	generate/STIM_006.jpg	100
1912.192	1.37	1370.1	generate	Run3	generate/STIM_006.jpg	99
1916.522	1.449	1448.8	generate	Run3	generate/STIM_006.jpg	99
1920.939	0.882	881.8	generate	Run3	generate/STIM_007.jpg	99
1923.904	1.906	1905.9	generate	Run3	generate/STIM_007.jpg	99
1928.252	1.078	1078.4	generate	Run3	generate/STIM_007.jpg	99
1932.557	1.62	1619.8	generate	Run3	generate/STIM_007.jpg	100
1936.787	1.891	1890.9	generate	Run3	generate/STIM_007.jpg	99
1941.877	1.354	1354.0	generate	Run3	generate/STIM_008.jpg	100
1947.109	1.5	1499.7	generate	Run3	generate/STIM_008.jpg	99
1951.512	1.618	1618.2	generate	Run3	generate/STIM_008.jpg	99
1956.818	1.176	1176.1	generate	Run3	generate/STIM_008.jpg	100
1960.044	1.35	1350.5	generate	Run3	generate/STIM_008.jpg	99
1964.683	1.397	1396.6	generate	Run3	generate/STIM_009.jpg	100
1968.093	1.558	1558.5	generate	Run3	generate/STIM_009.jpg	100
1971.904	1.238	1237.6	generate	Run3	generate/STIM_009.jpg	100
1975.844	1.547	1546.9	generate	Run3	generate/STIM_009.jpg	100
1980.223	1.202	1202.0	generate	Run3	generate/STIM_009.jpg	100
1984.072	1.842	1841.5	generate	Run3	generate/STIM_010.jpg	99
1988.754	1.008	1008.2	generate	Run3	generate/STIM_010.jpg	99
1992.846	1.498	1498.2	generate	Run3	generate/STIM_010.jpg	100
1997.686	1.08	1080.2	generate	Run3	generate/STIM_010.jpg	100
2001.304	1.734	1734.1	generate	Run3	generate/STIM_010.jpg	99
2006.427	1.879	1879.3	generate	Run3	generate/STIM_011.jpg	99
2011.396	2.176	2175.8	generate	Run3	generate/STIM_011.jpg	99
2017.049	1.89	1890.3	generate	Run3	generate/STIM_011.jpg	100
2020.882	0.95	950.4	generate	Run3	generate/STIM_011.jpg	99
2025.139	1.119	1119.3	generate	Run3	generate/STIM_011.jpg	100
2030.056	1.702	1702.5	generate	Run3	generate/STIM_012.jpg	100
2033.948	1.188	1187.6	generate	Run3	generate/STIM_012.jpg	99
2037.701	1.313	1312.9	generate	Run3	generate/STIM_012.jpg	99
2041.814	1.534	1534.4	generate	Run3	generate/STIM_012.jpg	100
2046.451	1.937	1937.0	generate	Run3	generate/STIM_012.jpg	100
2050.955	1.218	1217.8	generate	Run3	generate/STIM_013.jpg	100
2055.713	2.071	2071.1	generate	Run3	generate/STIM_013.jpg	100
2061.602	1.171	1171.3	generate	Run3	generate/STIM_013.jpg	100
2065.688	1.58	1579.6	generate	Run3	generate/STIM_013.jpg	99
2070.029	1.537	1537.2	generate	Run3	generate/STIM_013.jpg	99
2075.113	0.889	889.4	generate	Run3	generate/STIM_014.jpg	100
2079.894	1.374	1374.1	generate	Run3	generate/STIM_014.jpg	99
2084.88	1.9	1900.1	generate	Run3	generate/STIM_014.jpg	99
2089.486	1.473	1473.2	generate	Run3	generate/STIM_014.jpg	100
2094.691	1.003	1003.3	generate	Run3	generate/STIM_014.jpg	99
2098.315	0.99	989.9	generate	Run3	generate/STIM_015.jpg	100
2102.5	1.207	1207.0	generate	Run3	generate/STIM_015.jpg	100
2106.625	1.008	1008.0	generate	Run3	generate/STIM_015.jpg	100
2111.341	2.025	2024.7	generate	Run3	generate/STIM_015.jpg	99
2115.674	1.21	1209.9	generate	Run3	generate/STIM_015.jpg	99
2120.759	2.065	2064.7	generate	Run3	generate/STIM_016.jpg	100
2124.8	2.017	2017.2	generate	Run3	generate/STIM_016.jpg	100
2130.147	1.172	1172.4	generate	Run3	generate/STIM_016.jpg	100
2133.359	0.985	984.9	generate	Run3	generate/STIM_016.jpg	100
2137.463	1.642	1642.4	generate	Run3	generate/STIM_016.jpg	100
2142.163	1.589	1589.0	generate	Run3	generate/STIM_017.jpg	100
2147.207	1.95	1949.5	generate	Run3	generate/STIM_017.jpg	100
2152.739	0.984	984.1	generate	Run3	generate/STIM_017.jpg	100
2157.462	1.415	1415.2	generate	Run3	generate/STIM_017.jpg	100
2162.272	1.317	1316.9	generate	Run3	generate/STIM_017.jpg	99
2166.743	1.776	1775.6	generate	Run3	generate/STIM_018.jpg	100
2171.444	1.476	1476.2	generate	Run3	generate/STIM_018.jpg	99
2175.403	1.508	1507.8	generate	Run3	generate/STIM_018.jpg	100
2178.952	2.244	2244.3	generate	Run3	generate/STIM_018.jpg	99
2183.184	1.952	1952.4	generate	Run3	generate/STIM_018.jpg	99
2188.925	1.206	1206.1	generate	Run3	generate/STIM_019.jpg	100
2192.159	0.806	805.6	generate	Run3	generate/STIM_019.jpg	99
2195.41	1.182	1182.5	generate	Run3	generate/STIM_019.jpg	100
2200.107	1.74	1740.3	generate	Run3	generate/STIM_019.jpg	100
2204.619	2.007	2007.5	generate	Run3	generate/STIM_019.jpg	100
2210.147	1.937	1936.7	generate	Run3	generate/STIM_020.jpg	100
2215.717	1.006	1006.0	generate	Run3	generate/STIM_020.jpg	100
2218.758	1.64	1639.6	generate	Run3	generate/STIM_020.jpg	99
2223.326	1.095	1095.0	generate	Run3	generate/STIM_020.jpg	99
2226.857	1.91	1909.8	generate	Run3	generate/STIM_020.jpg	99
2232.513	1.64	1639.6	generate	Run3	generate/STIM_021.jpg	99
2236.712	1.657	1656.7	generate	Run3	generate/STIM_021.jpg	100
2242.151	2.18	2179.7	generate	Run3	generate/STIM_021.jpg	100
2246.356	1.856	1855.5	generate	Run3	generate/STIM_021.jpg	100
2250.919	1.466	1466.5	generate	Run3	generate/STIM_021.jpg	99
2254.55	1.647	1646.8	generate	Run3	generate/STIM_022.jpg	100
2259.569	0.965	965.4	generate	Run3	generate/STIM_022.jpg	99
2263.485	1.521	1520.8	generate	Run3	generate/STIM_022.jpg	100
2267.138	2.121	2121.0	generate	Run3	generate/STIM_022.jpg	99
2272.606	1.376	1375.9	generate	Run3	generate/STIM_022.jpg	100
2277.77	1.038	1038.1	generate	Run3	generate/STIM_023.jpg	100
2280.937	1.386	1385.8	generate	Run3	generate/STIM_023.jpg	99
2284.966	1.343	1343.1	generate	Run3	generate/STIM_023.jpg	99
2289.291	0.914	913.9	generate	Run3	generate/STIM_023.jpg	100
2292.279	1.894	1894.1	generate	Run3	generate/STIM_023.jpg	99
2296.912	1.156	1156.1	generate	Run3	generate/STIM_024.jpg	99
2301.146	0.965	964.6	generate	Run3	generate/STIM_024.jpg	100
2304.041	1.247	1246.6	generate	Run3	generate/STIM_024.jpg	99
2307.77	2.128	2127.6	generate	Run3	generate/STIM_024.jpg	100
2312.662	1.04	1040.4	generate	Run3	generate/STIM_024.jpg	100
2317.077	0.709	709.1	repeat	Run3	repeat/STIM_000.jpg	99
2320.531	0.945	944.8	repeat	Run3	repeat/STIM_000.jpg	100
2323.447	0.964	963.8	repeat	Run3	repeat/STIM_000.jpg	99
2327.363	0.799	799.1	repeat	Run3	repeat/STIM_000.jpg	99
2330.454	0.672	671.5	repeat	Run3	repeat/STIM_000.jpg	99
2335.102	0.889	888.8	repeat	Run3	repeat/STIM_001.jpg	100
2338.348	0.94	939.7	repeat	Run3	repeat/STIM_001.jpg	100
2341.263	0.748	748.4	repeat	Run3	repeat/STIM_001.jpg	100
2344.205	0.57	569.6	repeat	Run3	repeat/STIM_001.jpg	100
2348.167	0.694	694.2	repeat	Run3	repeat/STIM_001.jpg	100
2352.716	0.728	727.5	repeat	Run3	repeat/STIM_002.jpg	99
2356.397	0.842	841.8	repeat	Run3	repeat/STIM_002.jpg	99
2359.472	0.896	896.5	repeat	Run3	repeat/STIM_002.jpg	99
2362.646	0.876	875.5	repeat	Run3	repeat/STIM_002.jpg	100
2366.366	0.617	616.6	repeat	Run3	repeat/STIM_002.jpg	100
2368.967	0.817	817.2	repeat	Run3	repeat/STIM_003.jpg	100
2371.985	0.717	717.4	repeat	Run3	repeat/STIM_003.jpg	100
2374.92	0.708	708.2	repeat	Run3	repeat/STIM_003.jpg	99
2378.758	0.653	652.7	repeat	Run3	repeat/STIM_003.jpg	100
2381.999	0.589	588.7	repeat	Run3	repeat/STIM_003.jpg	99
2386.306	0.818	817.7	repeat	Run3	repeat/STIM_004.jpg	100
2390.36	0.883	882.7	repeat	Run3	repeat/STIM_004.jpg	100
2394.69	0.746	745.7	repeat	Run3	repeat/STIM_004.jpg	99
2397.459	0.82	819.9	repeat	Run3	repeat/STIM_004.jpg	100
2401.971	0.915	915.2	repeat	Run3	repeat/STIM_004.jpg	100
2406.231	0.654	653.9	repeat	Run3	repeat/STIM_005.jpg	100
2409.343	0.762	762.5	repeat	Run3	repeat/STIM_005.jpg	100
2412.883	0.853	852.6	repeat	Run3	repeat/STIM_005.jpg	99
2415.731	0.628	628.2	repeat	Run3	repeat/STIM_005.jpg	99
2418.823	0.925	925.1	repeat	Run3	repeat/STIM_005.jpg	100
2423.586	0.782	782.0	repeat	Run3	repeat/STIM_006.jpg	99
2428.098	0.815	814.8	repeat	Run3	repeat/STIM_006.jpg	99
2432.723	0.523	523.4	repeat	Run3	repeat/STIM_006.jpg	100
2436.042	0.714	714.4	repeat	Run3	repeat/STIM_006.jpg	100
2440.202	0.576	576.4	repeat	Run3	repeat/STIM_006.jpg	100
2443.766	0.841	840.7	repeat	Run3	repeat/STIM_007.jpg	99
2448.276	0.55	549.7	repeat	Run3	repeat/STIM_007.jpg	99
2452.104	0.72	720.0	repeat	Run3	repeat/STIM_007.jpg	99
2455.667	0.641	641.1	repeat	Run3	repeat/STIM_007.jpg	100
2460.158	0.546	546.3	repeat	Run3	repeat/STIM_007.jpg	100
2462.926	1.037	1036.7	repeat	Run3	repeat/STIM_008.jpg	99
2466.826	0.479	479.1	repeat	Run3	repeat/STIM_008.jpg	99
2471.08	0.571	571.1	repeat	Run3	repeat/STIM_008.jpg	100
2474.559	0.662	661.8	repeat	Run3	repeat/STIM_008.jpg	99
2478.593	0.622	622.2	repeat	Run3	repeat/STIM_008.jpg	99
2481.57	0.975	974.8	repeat	Run3	repeat/STIM_009.jpg	99
2485.645	0.945	945.0	repeat	Run3	repeat/STIM_009.jpg	100
2489.063	0.674	674.0	repeat	Run3	repeat/STIM_009.jpg	100
2491.862	0.753	752.6	repeat	Run3	repeat/STIM_009.jpg	99
2495.257	0.696	696.3	repeat	Run3	repeat/STIM_009.jpg	100
2498.438	0.87	869.6	repeat	Run3	repeat/STIM_010.jpg	100
2503.23	1.073	1073.3	repeat	Run3	repeat/STIM_010.jpg	100
2507.065	1.001	1001.1	repeat	Run3	repeat/STIM_010.jpg	100
2510.264	0.604	603.7	repeat	Run3	repeat/STIM_010.jpg	99
2513.248	0.535	535.4	repeat	Run3	repeat/STIM_010.jpg	99
2517.611	0.582	581.7	repeat	Run3	repeat/STIM_011.jpg	100
2521.719	0.659	659.1	repeat	Run3	repeat/STIM_011.jpg	99
2525.365	0.619	618.8	repeat	Run3	repeat/STIM_011.jpg	100
2528.339	1.068	1068.3	repeat	Run3	repeat/STIM_011.jpg	100
2533.07	0.581	581.0	repeat	Run3	repeat/STIM_011.jpg	100
2537.423	0.685	685.4	repeat	Run3	repeat/STIM_012.jpg	99
2540.626	0.962	961.7	repeat	Run3	repeat/STIM_012.jpg	99
2544.855	0.61	610.3	repeat	Run3	repeat/STIM_012.jpg	99
2547.56	0.937	937.4	repeat	Run3	repeat/STIM_012.jpg	100
2550.928	0.988	987.5	repeat	Run3	repeat/STIM_012.jpg	99
2554.851	0.764	764.0	repeat	Run3	repeat/STIM_013.jpg	100
2558.412	0.882	881.7	repeat	Run3	repeat/STIM_013.jpg	99
2561.873	0.982	981.7	repeat	Run3	repeat/STIM_013.jpg	100
2565.806	0.877	876.8	repeat	Run3	repeat/STIM_013.jpg	100
2569.81	1.045	1044.8	repeat	Run3	repeat/STIM_013.jpg	100
2574.506	0.976	976.0	repeat	Run3	repeat/STIM_014.jpg	100
2578.917	0.832	832.0	repeat	Run3	repeat/STIM_014.jpg	99
2582.116	0.518	518.0	repeat	Run3	repeat/STIM_014.jpg	99
2585.202	0.808	808.4	repeat	Run3	repeat/STIM_014.jpg	100
2588.807	0.432	432.5	repeat	Run3	repeat/STIM_014.jpg	99
2591.723	1.174	1173.7	generate	Run4	generate/STIM_000.jpg	100
2595.095	1.685	1685.3	generate	Run4	generate/STIM_000.jpg	100
2600.303	1.103	1103.1	generate	Run4	generate/STIM_000.jpg	100
2604.473	1.503	1503.1	generate	Run4	generate/STIM_000.jpg	100
2608.656	1.423	1423.3	generate	Run4	generate/STIM_000.jpg	99
2612.495	1.96	1960.2	generate	Run4	generate/STIM_001.jpg	100
2616.61	1.102	1102.3	generate	Run4	generate/STIM_001.jpg	99
2621.431	1.736	1735.9	generate	Run4	generate/STIM_001.jpg	99
2626.76	2.182	2182.5	generate	Run4	generate/STIM_001.jpg	100
2632.774	1.74	1739.8	generate	Run4	generate/STIM_001.jpg	100
2637.15	1.114	1114.3	generate	Run4	generate/STIM_002.jpg	100
2641.78	1.546	1546.4	generate	Run4	generate/STIM_002.jpg	99
2647.018	1.308	1307.9	generate	Run4	generate/STIM_002.jpg	100
2650.293	2.029	2029.1	generate	Run4	generate/STIM_002.jpg	100
2655.831	1.7	1700.5	generate	Run4	generate/STIM_002.jpg	99
2661.015	2.129	2129.2	generate	Run4	generate/STIM_003.jpg	99
2666.838	1.749	1748.9	generate	Run4	generate/STIM_003.jpg	99
2672.43	2.09	2089.7	generate	Run4	generate/STIM_003.jpg	99
2678.252	1.051	1051.4	generate	Run4	generate/STIM_003.jpg	99
2681.84	1.308	1308.5	generate	Run4	generate/STIM_003.jpg	99
2686.706	1.004	1004.4	generate	Run4	generate/STIM_004.jpg	99
2691.242	2.116	2116.5	generate	Run4	generate/STIM_004.jpg	99
2696.669	1.572	1571.6	generate	Run4	generate/STIM_004.jpg	99
2700.613	0.941	941.2	generate	Run4	generate/STIM_004.jpg	100
2704.26	1.194	1193.7	generate	Run4	generate/STIM_004.jpg	100
2708.183	1.107	1107.4	generate	Run4	generate/STIM_005.jpg	99
2712.693	1.96	1959.7	generate	Run4	generate/STIM_005.jpg	100
2717.799	1.676	1676.4	generate	Run4	generate/STIM_005.jpg	100
2722.319	1.466	1465.7	generate	Run4	generate/STIM_005.jpg	100
2726.741	1.533	1532.7	generate	Run4	generate/STIM_005.jpg	100
2732.013	1.491	1491.0	generate	Run4	generate/STIM_006.jpg	99
2735.85	1.48	1480.4	generate	Run4	generate/STIM_006.jpg	99
2740.802	1.367	1367.0	generate	Run4	generate/STIM_006.jpg	100
2744.809	2.027	2027.5	generate	Run4	generate/STIM_006.jpg	100
2748.969	1.699	1699.4	generate	Run4	generate/STIM_006.jpg	99
2754.194	1.515	1514.9	generate	Run4	generate/STIM_007.jpg	100
2757.681	1.754	1754.2	generate	Run4	generate/STIM_007.jpg	99
2763.214	1.708	1708.0	generate	Run4	generate/STIM_007.jpg	99
2767.581	1.705	1704.9	generate	Run4	generate/STIM_007.jpg	100
2771.426	1.826	1825.5	generate	Run4	generate/STIM_007.jpg	99
2776.676	1.156	1156.5	generate	Run4	generate/STIM_008.jpg	100
2781.682	2.071	2071.3	generate	Run4	generate/STIM_008.jpg	100
2787.647	1.621	1620.9	generate	Run4	generate/STIM_008.jpg	99
2791.562	0.902	902.5	generate	Run4	generate/STIM_008.jpg	99
2795.903	1.2	1199.9	generate	Run4	generate/STIM_008.jpg	100
2799.348	1.589	1588.6	generate	Run4	generate/STIM_009.jpg	100
2803.546	1.774	1774.3	generate	Run4	generate/STIM_009.jpg	100
2807.394	1.641	1641.1	generate	Run4	generate/STIM_009.jpg	100
2811.272	1.699	1699.0	generate	Run4	generate/STIM_009.jpg	99
2815.272	1.657	1656.7	generate	Run4	generate/STIM_009.jpg	99
2819.249	0.861	861.4	generate	Run4	generate/STIM_010.jpg	99
2822.173	1.365	1364.6	generate	Run4	generate/STIM_010.jpg	99
2827.387	2.174	2174.4	generate	Run4	generate/STIM_010.jpg	100
2832.296	2.053	2053.2	generate	Run4	generate/STIM_010.jpg	99
2837.776	1.244	1244.5	generate	Run4	generate/STIM_010.jpg	99
2842.386	1.135	1135.2	generate	Run4	generate/STIM_011.jpg	99
2847.309	1.772	1771.6	generate	Run4	generate/STIM_011.jpg	100
2851.323	1.088	1088.2	generate	Run4	generate/STIM_011.jpg	99
2856.214	1.182	1181.8	generate	Run4	generate/STIM_011.jpg	99
2860.446	1.277	1277.2	generate	Run4	generate/STIM_011.jpg	100
2865.31	1.885	1885.0	generate	Run4	generate/STIM_012.jpg	99
2870.648	1.207	1206.7	generate	Run4	generate/STIM_012.jpg	99
2875.698	1.53	1530.4	generate	Run4	generate/STIM_012.jpg	99
2880.245	1.858	1858.2	generate	Run4	generate/STIM_012.jpg	100
2885.762	1.203	1202.8	generate	Run4	generate/STIM_012.jpg	99
2890.467	1.458	1457.9	generate	Run4	generate/STIM_013.jpg	100
2895.765	1.477	1476.7	generate	Run4	generate/STIM_013.jpg	100
2899.481	1.09	1090.5	generate	Run4	generate/STIM_013.jpg	99
2903.251	1.58	1580.3	generate	Run4	generate/STIM_013.jpg	100
2908.31	1.801	1801.3	generate	Run4	generate/STIM_013.jpg	99
2913.211	1.755	1754.9	generate	Run4	generate/STIM_014.jpg	99
2918.681	2.017	2017.2	generate	Run4	generate/STIM_014.jpg	100
2923.019	1.078	1078.4	generate	Run4	generate/STIM_014.jpg	99
2927.679	1.526	1526.0	generate	Run4	generate/STIM_014.jpg	100
2931.496	1.639	1638.6	generate	Run4	generate/STIM_014.jpg	99
2935.332	1.628	1627.8	generate	Run4	generate/STIM_015.jpg	100
2939.206	1.435	1435.3	generate	Run4	generate/STIM_015.jpg	99
2942.6	1.34	1339.9	generate	Run4	generate/STIM_015.jpg	99
2947.714	1.68	1679.7	generate	Run4	generate/STIM_015.jpg	100
2953.314	1.446	1446.1	generate	Run4	generate/STIM_015.jpg	100
2958.39	1.768	1767.7	generate	Run4	generate/STIM_016.jpg	100
2963.801	2.018	2018.4	generate	Run4	generate/STIM_016.jpg	99
2967.755	1.417	1417.2	generate	Run4	generate/STIM_016.jpg	100
2971.488	1.467	1467.0	generate	Run4	generate/STIM_016.jpg	100
2976.161	2.198	2197.7	generate	Run4	generate/STIM_016.jpg	99
2982.093	1.094	1094.3	generate	Run4	generate/STIM_017.jpg	100
2987.12	1.622	1622.2	generate	Run4	generate/STIM_017.jpg	99
2992.501	1.943	1942.8	generate	Run4	generate/STIM_017.jpg	100
2996.451	1.786	1785.9	generate	Run4	generate/STIM_017.jpg	99
3001.669	1.404	1403.6	generate	Run4	generate/STIM_017.jpg	100
3006.714	1.705	1705.4	generate	Run4	generate/STIM_018.jpg	99
3010.297	1.612	1612.2	generate	Run4	generate/STIM_018.jpg	100
3015.715	1.029	1028.8	generate	Run4	generate/STIM_018.jpg	100
3019.108	0.969	968.7	generate	Run4	generate/STIM_018.jpg	100
3023.208	2.3	2299.9	generate	Run4	generate/STIM_018.jpg	99
3029.074	2.158	2158.4	generate	Run4	generate/STIM_019.jpg	100
3034.077	1.547	1547.2	generate	Run4	generate/STIM_019.jpg	99
3038.453	1.072	1072.2	generate	Run4	generate/STIM_019.jpg	100
3042.062	2.016	2016.2	generate	Run4	generate/STIM_019.jpg	99
3046.687	1.358	1357.7	generate	Run4	generate/STIM_019.jpg	99
3051.569	2.011	2011.0	generate	Run4	generate/STIM_020.jpg	100
3056.545	1.956	1955.6	generate	Run4	generate/STIM_020.jpg	99
3061.788	1.991	1990.8	generate	Run4	generate/STIM_020.jpg	100
3067.202	1.486	1486.4	generate	Run4	generate/STIM_020.jpg	100
3072.414	1.386	1385.8	generate	Run4	generate/STIM_020.jpg	99
3075.843	1.322	1322.0	generate	Run4	generate/STIM_021.jpg	99
3079.743	2.1	2100.3	generate	Run4	generate/STIM_021.jpg	99
3085.33	2.212	2212.4	generate	Run4	generate/STIM_021.jpg	100
3090.333	1.988	1987.8	generate	Run4	generate/STIM_021.jpg	100
3095.256	2.043	2043.4	generate	Run4	generate/STIM_021.jpg	99
3099.95	1.169	1169.0	generate	Run4	generate/STIM_022.jpg	100
3104.167	1.314	1314.0	generate	Run4	generate/STIM_022.jpg	100
3108.909	2.022	2022.1	generate	Run4	generate/STIM_022.jpg	100
3113.799	0.852	852.0	generate	Run4	generate/STIM_022.jpg	99
3117.332	2.193	2192.9	generate	Run4	generate/STIM_022.jpg	99
3123.201	0.911	910.8	generate	Run4	generate/STIM_023.jpg	99
3127.938	1.385	1385.4	generate	Run4	generate/STIM_023.jpg	100
3132.867	1.365	1365.0	generate	Run4	generate/STIM_023.jpg	100
3137.805	1.696	1695.7	generate	Run4	generate/STIM_023.jpg	100
3142.926	1.536	1536.3	generate	Run4	generate/STIM_023.jpg	100
3146.486	2.087	2086.9	generate	Run4	generate/STIM_024.jpg	100
3152.449	1.082	1081.9	generate	Run4	generate/STIM_024.jpg	99
3157.082	1.973	1973.4	generate	Run4	generate/STIM_024.jpg	100
3161.069	1.424	1424.4	generate	Run4	generate/STIM_024.jpg	100
3166.442	1.874	1873.7	generate	Run4	generate/STIM_024.jpg	99
3170.503	0.672	671.7	repeat	Run4	repeat/STIM_000.jpg	99
3174.878	0.819	819.1	repeat	Run4	repeat/STIM_000.jpg	100
3178.809	0.998	997.7	repeat	Run4	repeat/STIM_000.jpg	99
3182.716	0.813	812.6	repeat	Run4	repeat/STIM_000.jpg	100
3185.663	0.732	732.2	repeat	Run4	repeat/STIM_000.jpg	99
3188.972	0.618	618.5	repeat	Run4	repeat/STIM_001.jpg	99
3192.953	0.912	911.7	repeat	Run4	repeat/STIM_001.jpg	99
3196.385	0.826	826.1	repeat	Run4	repeat/STIM_001.jpg	100
3199.528	1.048	1047.6	repeat	Run4	repeat/STIM_001.jpg	99
3202.66	0.886	886.2	repeat	Run4	repeat/STIM_001.jpg	100
3207.337	0.723	722.6	repeat	Run4	repeat/STIM_002.jpg	100
3211.496	0.753	752.6	repeat	Run4	repeat/STIM_002.jpg	99
3214.331	0.62	620.5	repeat	Run4	repeat/STIM_002.jpg	100
3217.108	0.894	893.8	repeat	Run4	repeat/STIM_002.jpg	100
3221.179	0.667	667.1	repeat	Run4	repeat/STIM_002.jpg	100
3223.957	1.028	1028.2	repeat	Run4	repeat/STIM_003.jpg	100
3228.562	0.995	994.9	repeat	Run4	repeat/STIM_003.jpg	99
3232.114	1.003	1002.9	repeat	Run4	repeat/STIM_003.jpg	100
3237.013	0.743	743.1	repeat	Run4	repeat/STIM_003.jpg	99
3241.734	0.974	973.5	repeat	Run4	repeat/STIM_003.jpg	99
3246.366	0.744	744.1	repeat	Run4	repeat/STIM_004.jpg	100
3249.232	0.919	919.0	repeat	Run4	repeat/STIM_004.jpg	99
3252.724	0.955	954.7	repeat	Run4	repeat/STIM_004.jpg	100
3257.067	0.558	558.3	repeat	Run4	repeat/STIM_004.jpg	99
3260.268	0.827	826.6	repeat	Run4	repeat/STIM_004.jpg	99
3263.772	0.512	511.8	repeat	Run4	repeat/STIM_005.jpg	100
3267.277	0.991	990.6	repeat	Run4	repeat/STIM_005.jpg	99
3271.242	0.788	788.3	repeat	Run4	repeat/STIM_005.jpg	99
3275.437	0.624	623.8	repeat	Run4	repeat/STIM_005.jpg	99
3279.074	0.899	898.6	repeat	Run4	repeat/STIM_005.jpg	99
3283.725	0.738	738.5	repeat	Run4	repeat/STIM_006.jpg	100
3288.394	0.562	561.5	repeat	Run4	repeat/STIM_006.jpg	99
3292.308	0.705	705.1	repeat	Run4	repeat/STIM_006.jpg	100
3296.608	0.809	808.9	repeat	Run4	repeat/STIM_006.jpg	99
3300.036	0.792	792.2	repeat	Run4	repeat/STIM_006.jpg	99
3303.394	0.496	496.5	repeat	Run4	repeat/STIM_007.jpg	99
3306.214	0.75	750.3	repeat	Run4	repeat/STIM_007.jpg	100
3310.735	0.598	598.1	repeat	Run4	repeat/STIM_007.jpg	100
3315.045	0.925	925.4	repeat	Run4	repeat/STIM_007.jpg	100
3318.829	0.929	929.3	repeat	Run4	repeat/STIM_007.jpg	99
3322.295	0.594	594.4	repeat	Run4	repeat/STIM_008.jpg	99
3325.227	0.799	798.9	repeat	Run4	repeat/STIM_008.jpg	100
3328.559	0.774	774.4	repeat	Run4	repeat/STIM_008.jpg	100
3331.343	0.796	796.4	repeat	Run4	repeat/STIM_008.jpg	99
3335.77	1.015	1014.9	repeat	Run4	repeat/STIM_008.jpg	99
3340.591	0.943	943.0	repeat	Run4	repeat/STIM_009.jpg	100
3345.337	0.869	869.0	repeat	Run4	repeat/STIM_009.jpg	100
3349.038	0.638	637.7	repeat	Run4	repeat/STIM_009.jpg	99
3352.815	0.904	904.4	repeat	Run4	repeat/STIM_009.jpg	99
3357.15	0.589	589.3	repeat	Run4	repeat/STIM_009.jpg	99
3361.597	0.682	682.0	repeat	Run4	repeat/STIM_010.jpg	99
3364.701	0.957	957.4	repeat	Run4	repeat/STIM_010.jpg	100
3369.396	0.646	645.9	repeat	Run4	repeat/STIM_010.jpg	99
3373.68	0.559	558.8	repeat	Run4	repeat/STIM_010.jpg	99
3377.039	0.914	914.3	repeat	Run4	repeat/STIM_010.jpg	100
3380.205	0.669	669.3	repeat	Run4	repeat/STIM_011.jpg	99
3384.073	0.983	983.2	repeat	Run4	repeat/STIM_011.jpg	99
3388.066	0.822	822.2	repeat	Run4	repeat/STIM_011.jpg	99
3391.094	0.892	891.6	repeat	Run4	repeat/STIM_011.jpg	100
3395.783	0.701	701.3	repeat	Run4	repeat/STIM_011.jpg	100
3400.054	0.434	433.7	repeat	Run4	repeat/STIM_012.jpg	99
3402.974	0.561	560.7	repeat	Run4	repeat/STIM_012.jpg	100
3405.789	0.912	912.0	repeat	Run4	repeat/STIM_012.jpg	100
3409.596	0.731	730.8	repeat	Run4	repeat/STIM_012.jpg	100
3413.78	0.729	728.8	repeat	Run4	repeat/STIM_012.jpg	100
3416.657	0.631	631.1	repeat	Run4	repeat/STIM_013.jpg	99
3421.026	1.01	1009.8	repeat	Run4	repeat/STIM_013.jpg	99
3424.079	0.992	991.9	repeat	Run4	repeat/STIM_013.jpg	99
3427.778	1.033	1033.0	repeat	Run4	repeat/STIM_013.jpg	99
3431.162	0.518	518.2	repeat	Run4	repeat/STIM_013.jpg	99
3435.083	0.929	929.1	repeat	Run4	repeat/STIM_014.jpg	100
3438.249	1.018	1018.1	repeat	Run4	repeat/STIM_014.jpg	99
3441.907	0.78	780.1	repeat	Run4	repeat/STIM_014.jpg	100
3444.829	0.55	550.5	repeat	Run4	repeat/STIM_014.jpg	100
3447.542	0.761	761.1	repeat	Run4	repeat/STIM_014.jpg	100
