onset	duration	response_time_ms	trial_type	learning_stage	stimulus	response_port
0.0	5.179	5178.6	navigation	Trial1	navigation/STIM_000.jpg	100
8.554	3.639	3638.7	navigation	Trial1	navigation/STIM_000.jpg	99
16.099	3.532	3531.7	navigation	Trial1	navigation/STIM_000.jpg	100
22.47	3.238	3238.5	navigation	Trial1	navigation/STIM_000.jpg	99
28.316	4.198	4198.1	navigation	Trial1	navigation/STIM_000.jpg	99
35.126	3.658	3658.0	navigation	Trial1	navigation/STIM_000.jpg	99
42.299	3.336	3335.9	navigation	Trial1	navigation/STIM_001.jpg	100
47.803	4.608	4608.2	navigation	Trial1	navigation/STIM_001.jpg	99
54.76	3.089	3088.6	navigation	Trial1	navigation/STIM_001.jpg	100
60.264	3.667	3667.4	navigation	Trial1	navigation/STIM_001.jpg	99
67.598	3.858	3857.6	navigation	Trial1	navigation/STIM_001.jpg	100
74.757	2.15	2149.8	navigation	Trial1	navigation/STIM_001.jpg	100
80.02	5.231	5230.7	navigation	Trial1	navigation/STIM_002.jpg	100
89.02	5.045	5045.0	navigation	Trial1	navigation/STIM_002.jpg	100
96.354	2.613	2612.8	navigation	Trial1	navigation/STIM_002.jpg	100
101.43	3.159	3158.6	navigation	Trial1	navigation/STIM_002.jpg	99
108.013	2.773	2772.6	navigation	Trial1	navigation/STIM_002.jpg	99
113.744	3.328	3328.1	navigation	Trial1	navigation/STIM_002.jpg	99
120.534	3.085	3084.8	navigation	Trial1	navigation/STIM_003.jpg	100
125.801	4.763	4762.8	navigation	Trial1	navigation/STIM_003.jpg	100
133.549	4.536	4535.9	navigation	Trial1	navigation/STIM_003.jpg	100
140.967	3.787	3787.2	navigation	Trial1	navigation/STIM_003.jpg	99
147.416	1.817	1817.4	navigation	Trial1	navigation/STIM_003.jpg	100
152.687	3.583	3582.6	navigation	Trial1	navigation/STIM_003.jpg	99
160.195	5.247	5246.8	navigation	Trial1	navigation/STIM_004.jpg	99
168.785	3.899	3899.0	navigation	Trial1	navigation/STIM_004.jpg	100
174.984	3.499	3499.0	navigation	Trial1	navigation/STIM_004.jpg	100
181.655	3.062	3062.4	navigation	Trial1	navigation/STIM_004.jpg	99
188.299	3.729	3729.4	navigation	Trial1	navigation/STIM_004.jpg	100
195.138	2.422	2421.8	navigation	Trial1	navigation/STIM_004.jpg	99
200.554	4.495	4495.0	navigation	Trial1	navigation/STIM_005.jpg	99
207.122	2.856	2856.1	navigation	Trial1	navigation/STIM_005.jpg	100
211.986	4.619	4618.7	navigation	Trial1	navigation/STIM_005.jpg	99
220.06	2.44	2439.8	navigation	Trial1	navigation/STIM_005.jpg	99
224.964	3.381	3380.8	navigation	Trial1	navigation/STIM_005.jpg	99
232.307	2.382	2382.3	navigation	Trial1	navigation/STIM_005.jpg	99
238.641	2.565	2564.8	navigation	Trial1	navigation/STIM_006.jpg	99
244.747	4.562	4561.7	navigation	Trial1	navigation/STIM_006.jpg	100
253.04	2.017	2017.4	navigation	Trial1	navigation/STIM_006.jpg	99
257.148	2.151	2151.4	navigation	Trial1	navigation/STIM_006.jpg	99
263.043	1.74	1739.8	navigation	Trial1	navigation/STIM_006.jpg	99
267.297	2.436	2435.9	navigation	Trial1	navigation/STIM_006.jpg	100
273.122	4.181	4180.9	navigation	Trial1	navigation/STIM_007.jpg	99
281.274	2.998	2997.8	navigation	Trial1	navigation/STIM_007.jpg	100
287.863	4.374	4373.9	navigation	Trial1	navigation/STIM_007.jpg	100
295.803	4.193	4192.7	navigation	Trial1	navigation/STIM_007.jpg	100
303.083	2.993	2993.3	navigation	Trial1	navigation/STIM_007.jpg	100
309.929	3.183	3183.1	navigation	Trial1	navigation/STIM_007.jpg	99
315.234	4.846	4846.1	navigation	Trial1	navigation/STIM_008.jpg	100
322.494	2.693	2693.0	navigation	Trial1	navigation/STIM_008.jpg	100
328.175	4.448	4447.7	navigation	Trial1	navigation/STIM_008.jpg	99
335.766	2.918	2917.8	navigation	Trial1	navigation/STIM_008.jpg	100
340.703	2.16	2159.8	navigation	Trial1	navigation/STIM_008.jpg	100
346.101	3.141	3140.8	navigation	Trial1	navigation/STIM_008.jpg	100
352.215	3.619	3619.0	navigation	Trial1	navigation/STIM_009.jpg	100
359.109	2.971	2971.1	navigation	Trial1	navigation/STIM_009.jpg	99
365.074	3.019	3019.1	navigation	Trial1	navigation/STIM_009.jpg	99
371.836	1.996	1996.4	navigation	Trial1	navigation/STIM_009.jpg	99
376.83	2.822	2822.3	navigation	Trial1	navigation/STIM_009.jpg	99
382.077	2.884	2883.9	navigation	Trial1	navigation/STIM_009.jpg	100
387.58	5.078	5077.7	navigation	Trial1	navigation/STIM_010.jpg	99
395.136	3.905	3905.3	navigation	Trial1	navigation/STIM_010.jpg	99
401.715	3.556	3556.2	navigation	Trial1	navigation/STIM_010.jpg	99
407.994	3.116	3116.0	navigation	Trial1	navigation/STIM_010.jpg	100
413.861	3.393	3393.4	navigation	Trial1	navigation/STIM_010.jpg	100
419.676	2.743	2743.0	navigation	Trial1	navigation/STIM_010.jpg	99
425.988	2.416	2416.0	navigation	Trial1	navigation/STIM_011.jpg	99
430.664	3.506	3506.5	navigation	Trial1	navigation/STIM_011.jpg	100
437.349	3.935	3935.3	navigation	Trial1	navigation/STIM_011.jpg	99
443.97	3.428	3427.9	navigation	Trial1	navigation/STIM_011.jpg	99
450.876	1.752	1752.5	navigation	Trial1	navigation/STIM_011.jpg	99
455.745	2.639	2638.9	navigation	Trial1	navigation/STIM_011.jpg	100
461.138	1.496	1495.8	pointing	Trial1	pointing/STIM_000.jpg	100
464.935	1.56	1560.1	pointing	Trial1	pointing/STIM_000.jpg	99
468.732	0.898	898.4	pointing	Trial1	pointing/STIM_000.jpg	100
472.791	0.933	933.3	pointing	Trial1	pointing/STIM_000.jpg	99
477.367	1.06	1060.2	pointing	Trial1	pointing/STIM_000.jpg	100
481.972	1.44	1439.7	pointing	Trial1	pointing/STIM_000.jpg	100
487.323	1.032	1032.2	pointing	Trial1	pointing/STIM_001.jpg	100
490.946	1.409	1408.7	pointing	Trial1	pointing/STIM_001.jpg	99
495.575	1.23	1229.6	pointing	Trial1	pointing/STIM_001.jpg	99
500.13	1.198	1198.2	pointing	Trial1	pointing/STIM_001.jpg	99
504.24	0.856	855.9	pointing	Trial1	pointing/STIM_001.jpg	99
507.426	1.383	1382.6	pointing	Trial1	pointing/STIM_001.jpg	100
512.701	1.414	1413.8	pointing	Trial1	pointing/STIM_002.jpg	100
516.456	1.291	1291.2	pointing	Trial1	pointing/STIM_002.jpg	99
519.991	0.934	934.0	pointing	Trial1	pointing/STIM_002.jpg	100
523.088	1.035	1035.2	pointing	Trial1	pointing/STIM_002.jpg	99
527.836	1.064	1063.7	pointing	Trial1	pointing/STIM_002.jpg	100
532.25	1.385	1384.8	pointing	Trial1	pointing/STIM_002.jpg	99
536.284	1.063	1063.3	pointing	Trial1	pointing/STIM_003.jpg	100
539.455	1.03	1029.9	pointing	Trial1	pointing/STIM_003.jpg	99
544.204	1.486	1486.5	pointing	Trial1	pointing/STIM_003.jpg	99
548.562	1.37	1369.6	pointing	Trial1	pointing/STIM_003.jpg	100
552.783	0.94	939.6	pointing	Trial1	pointing/STIM_003.jpg	100
556.223	1.374	1374.1	pointing	Trial1	pointing/STIM_003.jpg	99
560.01	1.316	1316.1	pointing	Trial1	pointing/STIM_004.jpg	99
564.861	0.942	942.2	pointing	Trial1	pointing/STIM_004.jpg	100
568.412	1.458	1457.5	pointing	Trial1	pointing/STIM_004.jpg	100
572.692	1.468	1468.0	pointing	Trial1	pointing/STIM_004.jpg	99
577.028	1.163	1163.0	pointing	Trial1	pointing/STIM_004.jpg	99
581.989	1.384	1384.0	pointing	Trial1	pointing/STIM_004.jpg	99
587.147	1.428	1427.9	pointing	Trial1	pointing/STIM_005.jpg	99
591.077	1.184	1184.2	pointing	Trial1	pointing/STIM_005.jpg	100
594.952	0.908	907.7	pointing	Trial1	pointing/STIM_005.jpg	100
598.438	0.98	979.7	pointing	Trial1	pointing/STIM_005.jpg	100
602.165	1.119	1119.0	pointing	Trial1	pointing/STIM_005.jpg	99
605.57	1.261	1261.0	pointing	Trial1	pointing/STIM_005.jpg	100
609.802	1.328	1327.7	pointing	Trial1	pointing/STIM_006.jpg	99
613.388	1.111	1111.0	pointing	Trial1	pointing/STIM_006.jpg	99
616.836	1.001	1001.3	pointing	Trial1	pointing/STIM_006.jpg	100
621.765	1.278	1278.5	pointing	Trial1	pointing/STIM_006.jpg	99
626.408	1.572	1572.3	pointing	Trial1	pointing/STIM_006.jpg	100
630.01	1.344	1344.0	pointing	Trial1	pointing/STIM_006.jpg	99
634.142	1.112	1111.6	pointing	Trial1	pointing/STIM_007.jpg	99
637.476	1.402	1402.3	pointing	Trial1	pointing/STIM_007.jpg	99
641.825	1.427	1426.6	pointing	Trial1	pointing/STIM_007.jpg	99
646.122	1.408	1408.0	pointing	Trial1	pointing/STIM_007.jpg	100
651.38	0.881	881.3	pointing	Trial1	pointing/STIM_007.jpg	100
654.391	0.885	884.8	pointing	Trial1	pointing/STIM_007.jpg	99
658.149	1.109	1109.1	pointing	Trial1	pointing/STIM_008.jpg	99
662.85	1.468	1467.8	pointing	Trial1	pointing/STIM_008.jpg	100
667.898	0.898	897.6	pointing	Trial1	pointing/STIM_008.jpg	99
672.493	1.233	1232.6	pointing	Trial1	pointing/STIM_008.jpg	100
676.679	1.136	1135.8	pointing	Trial1	pointing/STIM_008.jpg	99
681.69	0.891	891.4	pointing	Trial1	pointing/STIM_008.jpg	99
685.927	1.182	1182.5	pointing	Trial1	pointing/STIM_009.jpg	100
689.764	1.593	1593.3	pointing	Trial1	pointing/STIM_009.jpg	100
694.293	1.418	1417.7	pointing	Trial1	pointing/STIM_009.jpg	99
698.013	1.146	1145.8	pointing	Trial1	pointing/STIM_009.jpg	100
702.248	0.87	870.5	pointing	Trial1	pointing/STIM_009.jpg	99
705.292	1.393	1393.0	pointing	Trial1	pointing/STIM_009.jpg	100
710.199	1.192	1191.8	pointing	Trial1	pointing/STIM_010.jpg	99
713.991	1.557	1556.7	pointing	Trial1	pointing/STIM_010.jpg	100
719.24	1.438	1437.5	pointing	Trial1	pointing/STIM_010.jpg	100
722.828	1.16	1159.9	pointing	Trial1	pointing/STIM_010.jpg	99
726.429	1.552	1552.1	pointing	Trial1	pointing/STIM_010.jpg	99
730.561	0.944	944.4	pointing	Trial1	pointing/STIM_010.jpg	99
733.813	1.049	1048.7	pointing	Trial1	pointing/STIM_011.jpg	99
738.861	1.497	1496.7	pointing	Trial1	pointing/STIM_011.jpg	100
742.832	1.289	1289.2	pointing	Trial1	pointing/STIM_011.jpg	99
747.833	0.939	939.4	pointing	Trial1	pointing/STIM_011.jpg	100
751.925	1.372	1371.8	pointing	Trial1	pointing/STIM_011.jpg	100
755.757	1.542	1541.9	pointing	Trial1	pointing/STIM_011.jpg	100
760.22	3.073	3073.2	navigation	Trial2	navigation/STIM_000.jpg	100
766.703	1.971	1971.3	navigation	Trial2	navigation/STIM_000.jpg	100
771.598	3.682	3682.3	navigation	Trial2	navigation/STIM_000.jpg	100
777.403	2.145	2144.9	navigation	Trial2	navigation/STIM_000.jpg	99
782.97	3.066	3065.8	navigation	Trial2	navigation/STIM_000.jpg	99
788.847	2.49	2489.5	navigation	Trial2	navigation/STIM_000.jpg	99
794.757	4.531	4531.1	navigation	Trial2	navigation/STIM_001.jpg	99
801.896	3.777	3776.7	navigation	Trial2	navigation/STIM_001.jpg	99
808.197	1.671	1670.6	navigation	Trial2	navigation/STIM_001.jpg	100
813.076	2.243	2243.2	navigation	Trial2	navigation/STIM_001.jpg	100
818.375	2.327	2327.0	navigation	Trial2	navigation/STIM_001.jpg	99
824.027	3.101	3101.1	navigation	Trial2	navigation/STIM_001.jpg	100
829.169	3.482	3482.4	navigation	Trial2	navigation/STIM_002.jpg	99
836.506	3.934	3933.7	navigation	Trial2	navigation/STIM_002.jpg	100
843.336	2.719	2718.6	navigation	Trial2	navigation/STIM_002.jpg	99
848.837	2.256	2255.5	navigation	Trial2	navigation/STIM_002.jpg	99
854.62	2.063	2062.7	navigation	Trial2	navigation/STIM_002.jpg	99
859.578	1.781	1781.0	navigation	Trial2	navigation/STIM_002.jpg	99
865.008	3.764	3763.7	navigation	Trial2	navigation/STIM_003.jpg	99
872.538	2.773	2773.2	navigation	Trial2	navigation/STIM_003.jpg	100
878.801	2.692	2692.5	navigation	Trial2	navigation/STIM_003.jpg	100
883.581	2.606	2606.2	navigation	Trial2	navigation/STIM_003.jpg	99
889.114	2.201	2201.2	navigation	Trial2	navigation/STIM_003.jpg	100
895.078	3.375	3374.6	navigation	Trial2	navigation/STIM_003.jpg	99
900.922	3.071	3071.1	navigation	Trial2	navigation/STIM_004.jpg	99
907.305	2.037	2037.4	navigation	Trial2	navigation/STIM_004.jpg	99
913.111	1.717	1717.2	navigation	Trial2	navigation/STIM_004.jpg	100
918.55	2.641	2640.9	navigation	Trial2	navigation/STIM_004.jpg	99
924.462	2.765	2765.4	navigation	Trial2	navigation/STIM_004.jpg	100
929.376	2.289	2289.4	navigation	Trial2	navigation/STIM_004.jpg	99
934.59	3.89	3889.5	navigation	Trial2	navigation/STIM_005.jpg	100
941.035	3.352	3351.6	navigation	Trial2	navigation/STIM_005.jpg	100
946.46	3.76	3759.5	navigation	Trial2	navigation/STIM_005.jpg	100
953.456	2.034	2033.6	navigation	Trial2	navigation/STIM_005.jpg	100
958.079	2.296	2296.1	navigation	Trial2	navigation/STIM_005.jpg	100
963.709	2.693	2692.9	navigation	Trial2	navigation/STIM_005.jpg	100
970.215	2.848	2848.2	navigation	Trial2	navigation/STIM_006.jpg	99
975.117	3.383	3383.1	navigation	Trial2	navigation/STIM_006.jpg	100
982.04	2.557	2557.2	navigation	Trial2	navigation/STIM_006.jpg	100
986.663	2.78	2780.1	navigation	Trial2	navigation/STIM_006.jpg	99
991.839	3.735	3735.0	navigation	Trial2	navigation/STIM_006.jpg	100
999.195	3.434	3433.9	navigation	Trial2	navigation/STIM_006.jpg	100
1006.115	3.568	3567.8	navigation	Trial2	navigation/STIM_007.jpg	99
1011.723	2.27	2270.1	navigation	Trial2	navigation/STIM_007.jpg	99
1017.859	3.362	3362.5	navigation	Trial2	navigation/STIM_007.jpg	100
1024.702	1.811	1810.8	navigation	Trial2	navigation/STIM_007.jpg	100
1030.067	2.72	2719.7	navigation	Trial2	navigation/STIM_007.jpg	99
1036.294	2.38	2380.5	navigation	Trial2	navigation/STIM_007.jpg	99
1042.145	3.158	3157.9	navigation	Trial2	navigation/STIM_008.jpg	99
1049.041	3.124	3124.2	navigation	Trial2	navigation/STIM_008.jpg	100
1055.866	2.175	2175.2	navigation	Trial2	navigation/STIM_008.jpg	99
1062.03	3.733	3732.7	navigation	Trial2	navigation/STIM_008.jpg	99
1068.318	1.99	1990.0	navigation	Trial2	navigation/STIM_008.jpg	100
1073.023	2.502	2501.7	navigation	Trial2	navigation/STIM_008.jpg	99
1078.943	3.962	3962.4	navigation	Trial2	navigation/STIM_009.jpg	100
1085.189	2.266	2265.5	navigation	Trial2	navigation/STIM_009.jpg	100
1091.032	3.316	3316.3	navigation	Trial2	navigation/STIM_009.jpg	99
1096.928	2.403	2403.1	navigation	Trial2	navigation/STIM_009.jpg	100
1102.887	2.624	2624.3	navigation	Trial2	navigation/STIM_009.jpg	99
1108.598	1.567	1567.2	navigation	Trial2	navigation/STIM_009.jpg	99
1112.587	3.812	3811.5	navigation	Trial2	navigation/STIM_010.jpg	99
1120.381	1.939	1939.2	navigation	Trial2	navigation/STIM_010.jpg	99
1125.852	3.025	3025.0	navigation	Trial2	navigation/STIM_010.jpg	99
1131.451	2.275	2275.3	navigation	Trial2	navigation/STIM_010.jpg	99
1137.47	3.166	3165.7	navigation	Trial2	navigation/STIM_010.jpg	100
1143.925	1.521	1521.4	navigation	Trial2	navigation/STIM_010.jpg	99
1148.46	3.439	3438.7	navigation	Trial2	navigation/STIM_011.jpg	100
1155.11	2.156	2155.5	navigation	Trial2	navigation/STIM_011.jpg	99
1159.723	3.61	3610.2	navigation	Trial2	navigation/STIM_011.jpg	99
1165.838	2.91	2910.4	navigation	Trial2	navigation/STIM_011.jpg	99
1171.03	3.322	3322.4	navigation	Trial2	navigation/STIM_011.jpg	100
1177.893	2.578	2577.9	navigation	Trial2	navigation/STIM_011.jpg	99
1182.751	1.204	1203.5	pointing	Trial2	pointing/STIM_000.jpg	99
1187.76	1.051	1050.8	pointing	Trial2	pointing/STIM_000.jpg	99
1191.059	1.403	1403.0	pointing	Trial2	pointing/STIM_000.jpg	99
1195.124	1.603	1603.0	pointing	Trial2	pointing/STIM_000.jpg	100
1200.016	1.367	1367.4	pointing	Trial2	pointing/STIM_000.jpg	99
1203.947	1.306	1306.5	pointing	Trial2	pointing/STIM_000.jpg	99
1207.764	0.874	873.9	pointing	Trial2	pointing/STIM_001.jpg	100
1211.723	1.338	1337.5	pointing	Trial2	pointing/STIM_001.jpg	99
1216.479	1.32	1320.1	pointing	Trial2	pointing/STIM_001.jpg	100
1221.646	0.95	949.5	pointing	Trial2	pointing/STIM_001.jpg	100
1226.081	1.491	1491.2	pointing	Trial2	pointing/STIM_001.jpg	99
1231.37	1.348	1348.3	pointing	Trial2	pointing/STIM_001.jpg	100
1234.738	1.417	1417.3	pointing	Trial2	pointing/STIM_002.jpg	100
1239.46	1.236	1236.3	pointing	Trial2	pointing/STIM_002.jpg	100
1244.549	1.529	1529.0	pointing	Trial2	pointing/STIM_002.jpg	99
1248.692	1.366	1365.5	pointing	Trial2	pointing/STIM_002.jpg	100
1253.981	1.275	1275.2	pointing	Trial2	pointing/STIM_002.jpg	100
1258.348	1.091	1091.0	pointing	Trial2	pointing/STIM_002.jpg	100
1261.758	1.578	1578.1	pointing	Trial2	pointing/STIM_003.jpg	100
1266.162	0.964	964.5	pointing	Trial2	pointing/STIM_003.jpg	99
1269.429	1.274	1274.3	pointing	Trial2	pointing/STIM_003.jpg	99
1274.535	1.592	1592.2	pointing	Trial2	pointing/STIM_003.jpg	99
1279.467	1.598	1598.0	pointing	Trial2	pointing/STIM_003.jpg	100
1284.098	1.542	1541.9	pointing	Trial2	pointing/STIM_003.jpg	100
1287.927	1.03	1030.2	pointing	Trial2	pointing/STIM_004.jpg	99
1292.9	1.08	1079.7	pointing	Trial2	pointing/STIM_004.jpg	100
1297.124	1.358	1357.5	pointing	Trial2	pointing/STIM_004.jpg	100
1301.034	0.926	925.7	pointing	Trial2	pointing/STIM_004.jpg	99
1303.986	1.388	1388.5	pointing	Trial2	pointing/STIM_004.jpg	99
1308.114	0.892	892.5	pointing	Trial2	pointing/STIM_004.jpg	100
1312.908	1.27	1269.6	pointing	Trial2	pointing/STIM_005.jpg	99
1317.967	1.454	1453.7	pointing	Trial2	pointing/STIM_005.jpg	100
1321.887	1.41	1409.5	pointing	Trial2	pointing/STIM_005.jpg	99
1325.496	1.268	1268.2	pointing	Trial2	pointing/STIM_005.jpg	99
1330.292	1.388	1387.5	pointing	Trial2	pointing/STIM_005.jpg	100
1335.218	1.372	1372.1	pointing	Trial2	pointing/STIM_005.jpg	100
1339.205	0.919	919.2	pointing	Trial2	pointing/STIM_006.jpg	99
1343.359	1.158	1158.5	pointing	Trial2	pointing/STIM_006.jpg	100
1347.524	0.932	931.5	pointing	Trial2	pointing/STIM_006.jpg	99
1352.326	1.26	1259.5	pointing	Trial2	pointing/STIM_006.jpg	99
1356.03	1.466	1466.5	pointing	Trial2	pointing/STIM_006.jpg	100
1360.29	1.217	1217.0	pointing	Trial2	pointing/STIM_006.jpg	100
1364.182	0.895	895.0	pointing	Trial2	pointing/STIM_007.jpg	100
1367.861	1.155	1154.8	pointing	Trial2	pointing/STIM_007.jpg	99
1372.433	1.352	1351.6	pointing	Trial2	pointing/STIM_007.jpg	100
1377.67	1.233	1233.4	pointing	Trial2	pointing/STIM_007.jpg	100
1382.41	1.222	1221.5	pointing	Trial2	pointing/STIM_007.jpg	100
1386.761	1.193	1192.6	pointing	Trial2	pointing/STIM_007.jpg	99
1391.872	1.551	1550.7	pointing	Trial2	pointing/STIM_008.jpg	99
1395.448	0.884	884.1	pointing	Trial2	pointing/STIM_008.jpg	99
1400.3	1.289	1289.4	pointing	Trial2	pointing/STIM_008.jpg	99
1405.207	1.325	1324.7	pointing	Trial2	pointing/STIM_008.jpg	100
1410.074	1.423	1423.3	pointing	Trial2	pointing/STIM_008.jpg	99
1415.165	1.067	1067.3	pointing	Trial2	pointing/STIM_008.jpg	99
1420.133	1.556	1555.5	pointing	Trial2	pointing/STIM_009.jpg	100
1423.832	1.276	1275.5	pointing	Trial2	pointing/STIM_009.jpg	99
1428.048	1.476	1476.1	pointing	Trial2	pointing/STIM_009.jpg	99
1433.456	1.152	1151.8	pointing	Trial2	pointing/STIM_009.jpg	100
1437.222	0.994	994.4	pointing	Trial2	pointing/STIM_009.jpg	99
1440.473	1.351	1350.6	pointing	Trial2	pointing/STIM_009.jpg	100
1444.415	1.412	1412.5	pointing	Trial2	pointing/STIM_010.jpg	100
1449.356	1.292	1291.9	pointing	Trial2	pointing/STIM_010.jpg	99
1453.757	1.456	1456.4	pointing	Trial2	pointing/STIM_010.jpg	99
1458.686	1.401	1401.2	pointing	Trial2	pointing/STIM_010.jpg	100
1463.603	0.996	995.7	pointing	Trial2	pointing/STIM_010.jpg	100
1466.646	1.496	1495.6	pointing	Trial2	pointing/STIM_010.jpg	100
1470.241	1.551	1551.1	pointing	Trial2	pointing/STIM_011.jpg	99
1474.796	1.215	1215.3	pointing	Trial2	pointing/STIM_011.jpg	100
1478.37	0.956	956.3	pointing	Trial2	pointing/STIM_011.jpg	100
1483.187	1.339	1338.9	pointing	Trial2	pointing/STIM_011.jpg	99
1486.981	1.315	1315.4	pointing	Trial2	pointing/STIM_011.jpg	99
1492.128	0.997	996.7	pointing	Trial2	pointing/STIM_011.jpg	99
1495.393	2.965	2965.2	navigation	Trial3	navigation/STIM_000.jpg	100
1501.014	1.957	1956.9	navigation	Trial3	navigation/STIM_000.jpg	99
1506.334	1.515	1514.7	navigation	Trial3	navigation/STIM_000.jpg	99
1510.857	2.803	2803.4	navigation	Trial3	navigation/STIM_000.jpg	99
1516.258	3.635	3634.6	navigation	Trial3	navigation/STIM_000.jpg	99
1523.258	2.65	2649.9	navigation	Trial3	navigation/STIM_000.jpg	99
1528.958	2.21	2209.6	navigation	Trial3	navigation/STIM_001.jpg	100
1533.289	3.676	3676.3	navigation	Trial3	navigation/STIM_001.jpg	99
1539.266	3.472	3471.7	navigation	Trial3	navigation/STIM_001.jpg	99
1545.878	3.147	3147.4	navigation	Trial3	navigation/STIM_001.jpg	99
1551.95	2.559	2559.2	navigation	Trial3	navigation/STIM_001.jpg	99
1557.819	1.66	1659.8	navigation	Trial3	navigation/STIM_001.jpg	100
1562.158	2.741	2740.8	navigation	Trial3	navigation/STIM_002.jpg	99
1567.4	1.973	1973.1	navigation	Trial3	navigation/STIM_002.jpg	99
1571.399	2.466	2465.5	navigation	Trial3	navigation/STIM_002.jpg	99
1576.802	2.241	2241.1	navigation	Trial3	navigation/STIM_002.jpg	99
1581.831	3.533	3533.0	navigation	Trial3	navigation/STIM_002.jpg	99
1588.836	2.318	2317.9	navigation	Trial3	navigation/STIM_002.jpg	99
1594.751	3.212	3212.4	navigation	Trial3	navigation/STIM_003.jpg	100
1600.814	3.508	3508.4	navigation	Trial3	navigation/STIM_003.jpg	99
1608.014	3.004	3003.7	navigation	Trial3	navigation/STIM_003.jpg	100
1613.979	1.691	1691.4	navigation	Trial3	navigation/STIM_003.jpg	100
1618.996	1.91	1910.4	navigation	Trial3	navigation/STIM_003.jpg	99
1624.721	2.87	2870.3	navigation	Trial3	navigation/STIM_003.jpg	100
1630.421	1.533	1533.4	navigation	Trial3	navigation/STIM_004.jpg	100
1635.256	2.948	2948.1	navigation	Trial3	navigation/STIM_004.jpg	99
1641.677	3.023	3023.2	navigation	Trial3	navigation/STIM_004.jpg	100
1648.452	3.071	3070.7	navigation	Trial3	navigation/STIM_004.jpg	100
1654.565	3.295	3295.0	navigation	Trial3	navigation/STIM_004.jpg	99
1661.061	3.064	3063.5	navigation	Trial3	navigation/STIM_004.jpg	99
1666.79	2.74	2740.4	navigation	Trial3	navigation/STIM_005.jpg	100
1671.965	1.753	1753.3	navigation	Trial3	navigation/STIM_005.jpg	99
1675.979	2.517	2516.7	navigation	Trial3	navigation/STIM_005.jpg	100
1681.698	2.357	2357.0	navigation	Trial3	navigation/STIM_005.jpg	100
1686.316	2.735	2734.6	navigation	Trial3	navigation/STIM_005.jpg	99
1692.595	3.736	3735.9	navigation	Trial3	navigation/STIM_005.jpg	100
1699.776	2.812	2812.3	navigation	Trial3	navigation/STIM_006.jpg	99
1704.93	2.611	2610.7	navigation	Trial3	navigation/STIM_006.jpg	99
1709.909	1.831	1831.0	navigation	Trial3	navigation/STIM_006.jpg	100
1715.441	3.708	3707.7	navigation	Trial3	navigation/STIM_006.jpg	100
1722.177	1.574	1574.1	navigation	Trial3	navigation/STIM_006.jpg	100
1727.391	2.257	2256.8	navigation	Trial3	navigation/STIM_006.jpg	100
1732.486	3.605	3604.8	navigation	Trial3	navigation/STIM_007.jpg	100
1739.067	2.584	2583.7	navigation	Trial3	navigation/STIM_007.jpg	99
1743.985	1.982	1981.8	navigation	Trial3	navigation/STIM_007.jpg	99
1749.342	2.55	2550.3	navigation	Trial3	navigation/STIM_007.jpg	100
1755.036	3.184	3184.0	navigation	Trial3	navigation/STIM_007.jpg	100
1761.248	3.564	3564.4	navigation	Trial3	navigation/STIM_007.jpg	99
1768.596	2.36	2360.3	navigation	Trial3	navigation/STIM_008.jpg	99
1774.921	2.309	2309.3	navigation	Trial3	navigation/STIM_008.jpg	99
1780.093	3.213	3212.7	navigation	Trial3	navigation/STIM_008.jpg	99
1787.136	2.078	2077.8	navigation	Trial3	navigation/STIM_008.jpg	100
1791.542	2.549	2549.2	navigation	Trial3	navigation/STIM_008.jpg	100
1796.95	3.213	3213.1	navigation	Trial3	navigation/STIM_008.jpg	99
1803.337	2.361	2360.6	navigation	Trial3	navigation/STIM_009.jpg	100
1809.662	3.197	3196.9	navigation	Trial3	navigation/STIM_009.jpg	100
1816.59	2.739	2738.6	navigation	Trial3	navigation/STIM_009.jpg	99
1822.803	2.782	2782.1	navigation	Trial3	navigation/STIM_009.jpg	99
1828.036	1.853	1852.9	navigation	Trial3	navigation/STIM_009.jpg	100
1833.366	2.609	2608.6	navigation	Trial3	navigation/STIM_009.jpg	99
1838.923	1.525	1525.4	navigation	Trial3	navigation/STIM_010.jpg	99
1843.985	2.714	2714.5	navigation	Trial3	navigation/STIM_010.jpg	100
1850.25	3.051	3051.0	navigation	Trial3	navigation/STIM_010.jpg	99
1855.406	2.312	2312.0	navigation	Trial3	navigation/STIM_010.jpg	100
1860.503	2.481	2481.4	navigation	Trial3	navigation/STIM_010.jpg	99
1865.171	2.557	2556.6	navigation	Trial3	navigation/STIM_010.jpg	99
1869.827	2.763	2763.2	navigation	Trial3	navigation/STIM_011.jpg	100
1875.301	3.115	3114.7	navigation	Trial3	navigation/STIM_011.jpg	100
1881.019	3.623	3623.3	navigation	Trial3	navigation/STIM_011.jpg	99
1887.11	2.645	2644.9	navigation	Trial3	navigation/STIM_011.jpg	99
1893.346	2.25	2250.4	navigation	Trial3	navigation/STIM_011.jpg	100
1898.51	2.148	2148.2	navigation	Trial3	navigation/STIM_011.jpg	100
1904.056	1.197	1197.3	pointing	Trial3	pointing/STIM_000.jpg	100
1908.926	0.859	859.1	pointing	Trial3	pointing/STIM_000.jpg	100
1912.634	1.265	1265.1	pointing	Trial3	pointing/STIM_000.jpg	100
1916.548	1.48	1480.5	pointing	Trial3	pointing/STIM_000.jpg	100
1921.712	1.192	1192.2	pointing	Trial3	pointing/STIM_000.jpg	100
1926.41	1.099	1099.3	pointing	Trial3	pointing/STIM_000.jpg	100
1930.985	1.351	1350.6	pointing	Trial3	pointing/STIM_001.jpg	100
1935.393	1.092	1091.7	pointing	Trial3	pointing/STIM_001.jpg	99
1938.795	1.152	1151.7	pointing	Trial3	pointing/STIM_001.jpg	99
1942.917	1.07	1069.5	pointing	Trial3	pointing/STIM_001.jpg	100
1946.293	1.175	1174.7	pointing	Trial3	pointing/STIM_001.jpg	99
1951.161	1.236	1235.9	pointing	Trial3	pointing/STIM_001.jpg	100
1954.753	1.042	1042.4	pointing	Trial3	pointing/STIM_002.jpg	100
1958.886	0.936	936.2	pointing	Trial3	pointing/STIM_002.jpg	99
1962.223	1.037	1036.7	pointing	Trial3	pointing/STIM_002.jpg	99
1966.546	0.987	986.7	pointing	Trial3	pointing/STIM_002.jpg	100
1971.193	1.456	1455.9	pointing	Trial3	pointing/STIM_002.jpg	100
1975.896	1.104	1103.6	pointing	Trial3	pointing/STIM_002.jpg	100
1979.974	1.575	1575.0	pointing	Trial3	pointing/STIM_003.jpg	100
1985.349	1.506	1505.6	pointing	Trial3	pointing/STIM_003.jpg	100
1989.448	1.322	1321.7	pointing	Trial3	pointing/STIM_003.jpg	99
1993.01	0.933	932.6	pointing	Trial3	pointing/STIM_003.jpg	99
1996.174	0.911	910.8	pointing	Trial3	pointing/STIM_003.jpg	100
1999.186	1.103	1102.9	pointing	Trial3	pointing/STIM_003.jpg	99
2002.996	1.121	1121.0	pointing	Trial3	pointing/STIM_004.jpg	99
2006.819	1.097	1097.1	pointing	Trial3	pointing/STIM_004.jpg	99
2009.987	1.056	1055.8	pointing	Trial3	pointing/STIM_004.jpg	100
2014.346	1.239	1238.6	pointing	Trial3	pointing/STIM_004.jpg	100
2018.868	1.596	1595.6	pointing	Trial3	pointing/STIM_004.jpg	99
2024.417	1.101	1100.8	pointing	Trial3	pointing/STIM_004.jpg	100
2028.705	1.08	1080.0	pointing	Trial3	pointing/STIM_005.jpg	100
2032.528	1.385	1384.6	pointing	Trial3	pointing/STIM_005.jpg	100
2036.967	1.314	1313.9	pointing	Trial3	pointing/STIM_005.jpg	100
2040.836	1.221	1220.6	pointing	Trial3	pointing/STIM_005.jpg	100
2044.086	1.262	1262.5	pointing	Trial3	pointing/STIM_005.jpg	100
2048.726	1.291	1291.2	pointing	Trial3	pointing/STIM_005.jpg	100
2053.892	1.261	1260.6	pointing	Trial3	pointing/STIM_006.jpg	100
2058.869	1.336	1336.5	pointing	Trial3	pointing/STIM_006.jpg	100
2064.041	1.315	1315.1	pointing	Trial3	pointing/STIM_006.jpg	99
2069.216	1.269	1268.6	pointing	Trial3	pointing/STIM_006.jpg	99
2074.122	1.352	1352.2	pointing	Trial3	pointing/STIM_006.jpg	99
2078.584	1.316	1316.4	pointing	Trial3	pointing/STIM_006.jpg	99
2081.943	1.478	1477.7	pointing	Trial3	pointing/STIM_007.jpg	100
2085.546	1.229	1229.0	pointing	Trial3	pointing/STIM_007.jpg	99
2089.567	1.366	1366.5	pointing	Trial3	pointing/STIM_007.jpg	100
2094.364	1.192	1191.5	pointing	Trial3	pointing/STIM_007.jpg	100
2098.247	1.098	1097.8	pointing	Trial3	pointing/STIM_007.jpg	99
2102.678	1.475	1474.9	pointing	Trial3	pointing/STIM_007.jpg	99
2107.763	1.45	1449.7	pointing	Trial3	pointing/STIM_008.jpg	100
2111.664	0.894	894.0	pointing	Trial3	pointing/STIM_008.jpg	99
2115.901	0.862	861.8	pointing	Trial3	pointing/STIM_008.jpg	100
2118.994	1.143	1142.7	pointing	Trial3	pointing/STIM_008.jpg	100
2124.052	1.205	1205.0	pointing	Trial3	pointing/STIM_008.jpg	99
2129.158	1.101	1100.9	pointing	Trial3	pointing/STIM_008.jpg	100
2133.765	1.432	1431.5	pointing	Trial3	pointing/STIM_009.jpg	99
2138.014	0.886	886.5	pointing	Trial3	pointing/STIM_009.jpg	99
2141.725	1.471	1471.4	pointing	Trial3	pointing/STIM_009.jpg	100
2145.764	1.504	1504.5	pointing	Trial3	pointing/STIM_009.jpg	99
2150.267	1.46	1460.4	pointing	Trial3	pointing/STIM_009.jpg	100
2155.694	1.489	1488.9	pointing	Trial3	pointing/STIM_009.jpg	100
2160.327	1.065	1065.2	pointing	Trial3	pointing/STIM_010.jpg	99
2163.674	1.55	1550.1	pointing	Trial3	pointing/STIM_010.jpg	99
2167.464	1.066	1066.3	pointing	Trial3	pointing/STIM_010.jpg	99
2172.332	0.985	985.1	pointing	Trial3	pointing/STIM_010.jpg	100
2176.905	1.042	1041.6	pointing	Trial3	pointing/STIM_010.jpg	100
2180.085	1.241	1241.4	pointing	Trial3	pointing/STIM_010.jpg	100
2183.944	0.982	982.0	pointing	Trial3	pointing/STIM_011.jpg	100
2188.034	1.273	1272.9	pointing	Trial3	pointing/STIM_011.jpg	99
2193.11	1.002	1001.8	pointing	Trial3	pointing/STIM_011.jpg	99
2196.675	1.191	1191.1	pointing	Trial3	pointing/STIM_011.jpg	100
2200.569	1.592	1592.1	pointing	Trial3	pointing/STIM_011.jpg	100
2204.852	1.194	1194.0	pointing	Trial3	pointing/STIM_011.jpg	99
