onset	duration	response_time_ms	trial_type	learning_stage	stimulus	response_port
0.0	2.105	2104.6	navigation	Trial1	navigation/STIM_000.jpg	99
4.924	3.847	3846.7	navigation	Trial1	navigation/STIM_000.jpg	99
11.489	3.449	3449.1	navigation	Trial1	navigation/STIM_000.jpg	99
19.362	1.583	1582.9	navigation	Trial1	navigation/STIM_000.jpg	99
23.642	2.91	2909.7	navigation	Trial1	navigation/STIM_000.jpg	100
30.964	1.458	1457.6	navigation	Trial1	navigation/STIM_000.jpg	99
36.0	4.299	4298.6	navigation	Trial1	navigation/STIM_001.jpg	99
44.034	3.11	3110.2	navigation	Trial1	navigation/STIM_001.jpg	100
50.604	2.14	2139.7	navigation	Trial1	navigation/STIM_001.jpg	99
56.626	1.618	1617.7	navigation	Trial1	navigation/STIM_001.jpg	99
62.142	3.3	3299.5	navigation	Trial1	navigation/STIM_001.jpg	100
69.614	2.206	2205.9	navigation	Trial1	navigation/STIM_001.jpg	100
74.283	2.218	2217.8	navigation	Trial1	navigation/STIM_002.jpg	100
79.129	3.418	3417.5	navigation	Trial1	navigation/STIM_002.jpg	100
85.451	3.331	3331.4	navigation	Trial1	navigation/STIM_002.jpg	99
93.228	2.35	2350.0	navigation	Trial1	navigation/STIM_002.jpg	100
99.535	2.58	2579.6	navigation	Trial1	navigation/STIM_002.jpg	99
106.453	1.472	1471.8	navigation	Trial1	navigation/STIM_002.jpg	100
110.956	3.512	3511.8	navigation	Trial1	navigation/STIM_003.jpg	99
117.916	2.271	2270.7	navigation	Trial1	navigation/STIM_003.jpg	100
123.165	2.389	2389.4	navigation	Trial1	navigation/STIM_003.jpg	99
128.881	2.55	2549.8	navigation	Trial1	navigation/STIM_003.jpg	99
134.856	1.796	1795.8	navigation	Trial1	navigation/STIM_003.jpg	99
139.995	1.832	1832.3	navigation	Trial1	navigation/STIM_003.jpg	100
145.865	2.958	2958.4	navigation	Trial1	navigation/STIM_004.jpg	100
152.535	3.434	3433.9	navigation	Trial1	navigation/STIM_004.jpg	100
158.929	2.997	2997.0	navigation	Trial1	navigation/STIM_004.jpg	99
165.81	3.583	3582.7	navigation	Trial1	navigation/STIM_004.jpg	100
172.206	2.153	2152.9	navigation	Trial1	navigation/STIM_004.jpg	99
178.302	2.499	2499.1	navigation	Trial1	navigation/STIM_004.jpg	99
184.192	3.802	3802.4	navigation	Trial1	navigation/STIM_005.jpg	99
191.249	2.507	2506.9	navigation	Trial1	navigation/STIM_005.jpg	99
196.965	2.437	2436.7	navigation	Trial1	navigation/STIM_005.jpg	99
202.776	3.34	3340.5	navigation	Trial1	navigation/STIM_005.jpg	99
208.965	2.377	2376.6	navigation	Trial1	navigation/STIM_005.jpg	100
215.022	2.551	2550.7	navigation	Trial1	navigation/STIM_005.jpg	100
221.212	3.17	3169.8	navigation	Trial1	navigation/STIM_006.jpg	99
228.939	3.71	3710.4	navigation	Trial1	navigation/STIM_006.jpg	99
235.766	2.708	2707.9	navigation	Trial1	navigation/STIM_006.jpg	100
241.96	2.147	2147.0	navigation	Trial1	navigation/STIM_006.jpg	100
247.73	2.737	2736.7	navigation	Trial1	navigation/STIM_006.jpg	100
254.723	2.149	2149.3	navigation	Trial1	navigation/STIM_006.jpg	99
260.773	2.862	2862.0	navigation	Trial1	navigation/STIM_007.jpg	100
266.762	2.362	2362.4	navigation	Trial1	navigation/STIM_007.jpg	100
273.02	1.858	1858.1	navigation	Trial1	navigation/STIM_007.jpg	99
277.767	2.135	2135.1	navigation	Trial1	navigation/STIM_007.jpg	100
283.861	2.278	2277.9	navigation	Trial1	navigation/STIM_007.jpg	100
289.468	2.742	2741.9	navigation	Trial1	navigation/STIM_007.jpg	99
295.347	3.922	3921.6	navigation	Trial1	navigation/STIM_008.jpg	100
303.346	2.365	2364.7	navigation	Trial1	navigation/STIM_008.jpg	100
309.397	2.371	2371.0	navigation	Trial1	navigation/STIM_008.jpg	100
315.002	2.381	2381.1	navigation	Trial1	navigation/STIM_008.jpg	100
320.05	1.839	1838.6	navigation	Trial1	navigation/STIM_008.jpg	99
324.867	1.553	1552.9	navigation	Trial1	navigation/STIM_008.jpg	100
329.97	2.74	2740.1	navigation	Trial1	navigation/STIM_009.jpg	100
335.756	1.828	1827.9	navigation	Trial1	navigation/STIM_009.jpg	99
341.843	2.486	2486.3	navigation	Trial1	navigation/STIM_009.jpg	99
347.704	2.685	2684.9	navigation	Trial1	navigation/STIM_009.jpg	100
352.88	3.376	3376.0	navigation	Trial1	navigation/STIM_009.jpg	100
358.809	2.695	2695.3	navigation	Trial1	navigation/STIM_009.jpg	99
364.635	2.954	2954.4	navigation	Trial1	navigation/STIM_010.jpg	99
370.561	1.8	1800.2	navigation	Trial1	navigation/STIM_010.jpg	100
375.845	1.85	1849.7	navigation	Trial1	navigation/STIM_010.jpg	99
382.037	2.095	2095.1	navigation	Trial1	navigation/STIM_010.jpg	100
387.222	1.496	1496.5	navigation	Trial1	navigation/STIM_010.jpg	100
392.792	2.669	2669.1	navigation	Trial1	navigation/STIM_010.jpg	100
399.005	3.022	3022.3	navigation	Trial1	navigation/STIM_011.jpg	100
404.965	1.919	1918.9	navigation	Trial1	navigation/STIM_011.jpg	100
409.626	2.16	2160.3	navigation	Trial1	navigation/STIM_011.jpg	100
415.1	2.219	2219.2	navigation	Trial1	navigation/STIM_011.jpg	100
420.566	1.843	1842.7	navigation	Trial1	navigation/STIM_011.jpg	99
425.693	1.883	1882.8	navigation	Trial1	navigation/STIM_011.jpg	100
431.348	0.818	817.9	pointing	Trial1	pointing/STIM_000.jpg	99
434.861	1.273	1273.0	pointing	Trial1	pointing/STIM_000.jpg	99
439.734	1.284	1283.5	pointing	Trial1	pointing/STIM_000.jpg	100
444.768	0.867	866.7	pointing	Trial1	pointing/STIM_000.jpg	99
448.448	1.145	1144.6	pointing	Trial1	pointing/STIM_000.jpg	99
452.784	0.854	854.5	pointing	Trial1	pointing/STIM_000.jpg	99
457.385	0.796	795.5	pointing	Trial1	pointing/STIM_001.jpg	99
461.523	0.931	931.1	pointing	Trial1	pointing/STIM_001.jpg	100
465.42	0.945	945.1	pointing	Trial1	pointing/STIM_001.jpg	99
469.035	1.065	1065.3	pointing	Trial1	pointing/STIM_001.jpg	99
472.412	0.974	973.7	pointing	Trial1	pointing/STIM_001.jpg	99
476.063	0.93	930.0	pointing	Trial1	pointing/STIM_001.jpg	99
480.196	0.762	761.8	pointing	Trial1	pointing/STIM_002.jpg	99
483.449	0.785	785.2	pointing	Trial1	pointing/STIM_002.jpg	100
487.341	1.255	1255.0	pointing	Trial1	pointing/STIM_002.jpg	100
490.748	0.739	738.8	pointing	Trial1	pointing/STIM_002.jpg	99
494.694	0.894	893.8	pointing	Trial1	pointing/STIM_002.jpg	99
497.949	0.944	944.5	pointing	Trial1	pointing/STIM_002.jpg	99
502.78	0.822	822.3	pointing	Trial1	pointing/STIM_003.jpg	99
506.85	0.783	783.2	pointing	Trial1	pointing/STIM_003.jpg	99
511.505	0.693	692.9	pointing	Trial1	pointing/STIM_003.jpg	100
515.26	0.606	606.3	pointing	Trial1	pointing/STIM_003.jpg	99
518.288	0.9	899.6	pointing	Trial1	pointing/STIM_003.jpg	99
522.753	1.143	1143.4	pointing	Trial1	pointing/STIM_003.jpg	100
527.75	0.729	728.6	pointing	Trial1	pointing/STIM_004.jpg	100
530.925	1.19	1190.4	pointing	Trial1	pointing/STIM_004.jpg	100
534.914	0.856	856.2	pointing	Trial1	pointing/STIM_004.jpg	99
538.824	1.262	1262.0	pointing	Trial1	pointing/STIM_004.jpg	100
543.017	1.122	1122.4	pointing	Trial1	pointing/STIM_004.jpg	100
547.419	1.244	1243.7	pointing	Trial1	pointing/STIM_004.jpg	99
552.284	1.078	1078.5	pointing	Trial1	pointing/STIM_005.jpg	99
555.786	0.931	930.6	pointing	Trial1	pointing/STIM_005.jpg	100
559.219	1.17	1169.7	pointing	Trial1	pointing/STIM_005.jpg	100
562.669	0.859	858.7	pointing	Trial1	pointing/STIM_005.jpg	100
565.994	0.652	652.5	pointing	Trial1	pointing/STIM_005.jpg	99
569.843	1.004	1004.3	pointing	Trial1	pointing/STIM_005.jpg	100
573.775	1.304	1303.8	pointing	Trial1	pointing/STIM_006.jpg	100
579.138	1.246	1246.0	pointing	Trial1	pointing/STIM_006.jpg	100
582.684	1.099	1099.1	pointing	Trial1	pointing/STIM_006.jpg	100
587.673	1.312	1312.0	pointing	Trial1	pointing/STIM_006.jpg	99
591.845	0.828	828.2	pointing	Trial1	pointing/STIM_006.jpg	100
596.736	0.875	875.3	pointing	Trial1	pointing/STIM_006.jpg	100
600.102	1.302	1301.6	pointing	Trial1	pointing/STIM_007.jpg	100
604.707	1.24	1240.1	pointing	Trial1	pointing/STIM_007.jpg	100
609.92	0.861	861.4	pointing	Trial1	pointing/STIM_007.jpg	99
614.566	1.142	1141.9	pointing	Trial1	pointing/STIM_007.jpg	100
619.504	0.892	891.5	pointing	Trial1	pointing/STIM_007.jpg	100
622.564	1.262	1262.4	pointing	Trial1	pointing/STIM_007.jpg	99
626.509	0.829	829.2	pointing	Trial1	pointing/STIM_008.jpg	99
630.924	0.623	623.4	pointing	Trial1	pointing/STIM_008.jpg	100
633.815	0.985	985.3	pointing	Trial1	pointing/STIM_008.jpg	100
638.366	0.891	890.7	pointing	Trial1	pointing/STIM_008.jpg	99
643.103	0.841	840.7	pointing	Trial1	pointing/STIM_008.jpg	100
647.597	1.204	1203.7	pointing	Trial1	pointing/STIM_008.jpg	100
652.032	1.164	1164.0	pointing	Trial1	pointing/STIM_009.jpg	100
656.736	0.831	831.0	pointing	Trial1	pointing/STIM_009.jpg	99
660.431	1.024	1023.7	pointing	Trial1	pointing/STIM_009.jpg	99
664.701	1.008	1008.0	pointing	Trial1	pointing/STIM_009.jpg	100
669.53	1.362	1361.7	pointing	Trial1	pointing/STIM_009.jpg	100
674.681	0.844	844.3	pointing	Trial1	pointing/STIM_009.jpg	99
678.583	1.074	1073.9	pointing	Trial1	pointing/STIM_010.jpg	100
682.839	0.957	957.2	pointing	Trial1	pointing/STIM_010.jpg	100
686.883	1.201	1201.1	pointing	Trial1	pointing/STIM_010.jpg	99
690.252	0.749	748.6	pointing	Trial1	pointing/STIM_010.jpg	99
693.384	0.812	812.2	pointing	Trial1	pointing/STIM_010.jpg	99
697.656	1.296	1296.4	pointing	Trial1	pointing/STIM_010.jpg	99
701.907	1.273	1273.2	pointing	Trial1	pointing/STIM_011.jpg	99
706.664	0.675	674.9	pointing	Trial1	pointing/STIM_011.jpg	100
711.426	0.96	960.4	pointing	Trial1	pointing/STIM_011.jpg	99
715.077	0.918	917.7	pointing	Trial1	pointing/STIM_011.jpg	99
718.129	0.984	984.1	pointing	Trial1	pointing/STIM_011.jpg	99
721.903	1.165	1165.3	pointing	Trial1	pointing/STIM_011.jpg	99
726.636	2.932	2931.9	navigation	Trial2	navigation/STIM_000.jpg	99
733.54	3.3	3299.8	navigation	Trial2	navigation/STIM_000.jpg	100
740.298	1.704	1703.6	navigation	Trial2	navigation/STIM_000.jpg	99
745.18	1.977	1977.4	navigation	Trial2	navigation/STIM_000.jpg	99
750.572	1.463	1463.0	navigation	Trial2	navigation/STIM_000.jpg	99
755.389	2.784	2784.2	navigation	Trial2	navigation/STIM_000.jpg	100
761.428	2.813	2813.4	navigation	Trial2	navigation/STIM_001.jpg	100
767.089	1.491	1491.3	navigation	Trial2	navigation/STIM_001.jpg	99
771.81	1.507	1507.0	navigation	Trial2	navigation/STIM_001.jpg	100
776.428	2.811	2811.4	navigation	Trial2	navigation/STIM_001.jpg	100
783.177	1.644	1644.4	navigation	Trial2	navigation/STIM_001.jpg	99
788.966	2.832	2831.5	navigation	Trial2	navigation/STIM_001.jpg	100
794.318	2.616	2615.9	navigation	Trial2	navigation/STIM_002.jpg	99
799.836	2.037	2036.9	navigation	Trial2	navigation/STIM_002.jpg	100
806.119	3.299	3298.8	navigation	Trial2	navigation/STIM_002.jpg	99
811.857	1.622	1621.6	navigation	Trial2	navigation/STIM_002.jpg	100
817.128	1.866	1865.6	navigation	Trial2	navigation/STIM_002.jpg	99
823.159	1.385	1384.8	navigation	Trial2	navigation/STIM_002.jpg	99
827.873	3.005	3005.1	navigation	Trial2	navigation/STIM_003.jpg	100
833.447	2.037	2036.6	navigation	Trial2	navigation/STIM_003.jpg	99
839.423	2.435	2435.2	navigation	Trial2	navigation/STIM_003.jpg	99
844.363	1.384	1384.3	navigation	Trial2	navigation/STIM_003.jpg	99
848.367	3.025	3024.6	navigation	Trial2	navigation/STIM_003.jpg	99
855.556	2.672	2671.7	navigation	Trial2	navigation/STIM_003.jpg	99
861.891	1.865	1865.2	navigation	Trial2	navigation/STIM_004.jpg	99
867.684	2.316	2316.0	navigation	Trial2	navigation/STIM_004.jpg	99
873.363	3.057	3057.4	navigation	Trial2	navigation/STIM_004.jpg	99
879.704	1.221	1221.1	navigation	Trial2	navigation/STIM_004.jpg	99
883.486	1.565	1565.3	navigation	Trial2	navigation/STIM_004.jpg	100
887.301	1.845	1844.7	navigation	Trial2	navigation/STIM_004.jpg	99
893.043	3.651	3651.1	navigation	Trial2	navigation/STIM_005.jpg	99
900.622	3.307	3307.3	navigation	Trial2	navigation/STIM_005.jpg	99
906.75	2.388	2388.4	navigation	Trial2	navigation/STIM_005.jpg	100
913.237	1.972	1971.9	navigation	Trial2	navigation/STIM_005.jpg	99
918.299	1.339	1338.6	navigation	Trial2	navigation/STIM_005.jpg	100
923.6	1.641	1640.8	navigation	Trial2	navigation/STIM_005.jpg	99
927.793	3.385	3384.7	navigation	Trial2	navigation/STIM_006.jpg	99
935.72	1.585	1584.9	navigation	Trial2	navigation/STIM_006.jpg	99
940.814	2.735	2735.4	navigation	Trial2	navigation/STIM_006.jpg	99
947.66	2.109	2109.1	navigation	Trial2	navigation/STIM_006.jpg	100
952.129	2.734	2733.5	navigation	Trial2	navigation/STIM_006.jpg	99
958.198	2.61	2609.8	navigation	Trial2	navigation/STIM_006.jpg	99
964.599	1.723	1722.9	navigation	Trial2	navigation/STIM_007.jpg	99
968.813	3.33	3330.0	navigation	Trial2	navigation/STIM_007.jpg	100
975.367	1.479	1478.9	navigation	Trial2	navigation/STIM_007.jpg	99
980.959	2.281	2281.1	navigation	Trial2	navigation/STIM_007.jpg	100
987.672	2.649	2649.1	navigation	Trial2	navigation/STIM_007.jpg	99
993.05	2.76	2760.5	navigation	Trial2	navigation/STIM_007.jpg	99
999.512	3.299	3298.8	navigation	Trial2	navigation/STIM_008.jpg	100
1006.546	2.269	2268.6	navigation	Trial2	navigation/STIM_008.jpg	100
1011.988	2.027	2027.1	navigation	Trial2	navigation/STIM_008.jpg	99
1018.069	1.86	1859.9	navigation	Trial2	navigation/STIM_008.jpg	99
1022.83	1.712	1711.7	navigation	Trial2	navigation/STIM_008.jpg	100
1027.485	1.234	1233.8	navigation	Trial2	navigation/STIM_008.jpg	100
1031.158	2.366	2366.5	navigation	Trial2	navigation/STIM_009.jpg	100
1037.174	3.347	3347.0	navigation	Trial2	navigation/STIM_009.jpg	100
1043.416	2.241	2240.7	navigation	Trial2	navigation/STIM_009.jpg	99
1049.074	1.707	1706.7	navigation	Trial2	navigation/STIM_009.jpg	100
1053.189	1.88	1880.4	navigation	Trial2	navigation/STIM_009.jpg	99
1058.835	1.66	1659.5	navigation	Trial2	navigation/STIM_009.jpg	99
1064.475	3.173	3172.7	navigation	Trial2	navigation/STIM_010.jpg	99
1070.625	1.664	1663.5	navigation	Trial2	navigation/STIM_010.jpg	100
1076.028	2.252	2252.4	navigation	Trial2	navigation/STIM_010.jpg	100
1082.594	1.785	1785.0	navigation	Trial2	navigation/STIM_010.jpg	99
1087.19	1.481	1480.6	navigation	Trial2	navigation/STIM_010.jpg	100
1092.264	1.225	1225.4	navigation	Trial2	navigation/STIM_010.jpg	100
1096.288	1.854	1854.2	navigation	Trial2	navigation/STIM_011.jpg	99
1101.888	2.594	2594.2	navigation	Trial2	navigation/STIM_011.jpg	100
1108.557	2.64	2640.0	navigation	Trial2	navigation/STIM_011.jpg	99
1113.712	2.827	2826.6	navigation	Trial2	navigation/STIM_011.jpg	99
1119.484	2.324	2323.6	navigation	Trial2	navigation/STIM_011.jpg	100
1125.782	1.472	1472.0	navigation	Trial2	navigation/STIM_011.jpg	99
1131.368	1.131	1130.8	pointing	Trial2	pointing/STIM_000.jpg	100
1136.607	0.72	719.5	pointing	Trial2	pointing/STIM_000.jpg	99
1140.624	0.834	833.7	pointing	Trial2	pointing/STIM_000.jpg	100
1145.406	1.052	1052.5	pointing	Trial2	pointing/STIM_000.jpg	99
1149.52	1.048	1047.7	pointing	Trial2	pointing/STIM_000.jpg	100
1153.624	1.172	1171.5	pointing	Trial2	pointing/STIM_000.jpg	100
1158.176	0.754	753.5	pointing	Trial2	pointing/STIM_001.jpg	100
1161.224	1.248	1247.8	pointing	Trial2	pointing/STIM_001.jpg	99
1164.662	1.3	1299.6	pointing	Trial2	pointing/STIM_001.jpg	100
1170.044	1.012	1011.7	pointing	Trial2	pointing/STIM_001.jpg	99
1175.231	1.097	1097.2	pointing	Trial2	pointing/STIM_001.jpg	99
1178.589	0.842	841.8	pointing	Trial2	pointing/STIM_001.jpg	99
1183.177	1.038	1038.2	pointing	Trial2	pointing/STIM_002.jpg	100
1186.686	0.662	662.1	pointing	Trial2	pointing/STIM_002.jpg	100
1191.291	0.89	890.2	pointing	Trial2	pointing/STIM_002.jpg	99
1195.207	1.048	1047.7	pointing	Trial2	pointing/STIM_002.jpg	100
1199.464	1.159	1158.8	pointing	Trial2	pointing/STIM_002.jpg	100
1204.36	1.217	1216.8	pointing	Trial2	pointing/STIM_002.jpg	99
1207.886	0.854	854.5	pointing	Trial2	pointing/STIM_003.jpg	99
1212.342	1.082	1081.7	pointing	Trial2	pointing/STIM_003.jpg	99
1217.351	1.143	1143.1	pointing	Trial2	pointing/STIM_003.jpg	100
1222.378	0.772	771.6	pointing	Trial2	pointing/STIM_003.jpg	100
1225.362	1.005	1004.7	pointing	Trial2	pointing/STIM_003.jpg	99
1228.793	0.698	697.5	pointing	Trial2	pointing/STIM_003.jpg	100
1232.454	0.735	735.0	pointing	Trial2	pointing/STIM_004.jpg	99
1235.956	1.007	1007.3	pointing	Trial2	pointing/STIM_004.jpg	99
1241.043	1.146	1145.7	pointing	Trial2	pointing/STIM_004.jpg	99
1246.099	0.742	741.9	pointing	Trial2	pointing/STIM_004.jpg	100
1249.604	1.242	1242.1	pointing	Trial2	pointing/STIM_004.jpg	99
1254.751	1.196	1196.0	pointing	Trial2	pointing/STIM_004.jpg	99
1259.075	0.93	930.2	pointing	Trial2	pointing/STIM_005.jpg	99
1263.291	1.255	1255.1	pointing	Trial2	pointing/STIM_005.jpg	99
1268.357	0.85	850.3	pointing	Trial2	pointing/STIM_005.jpg	99
1272.692	0.701	700.9	pointing	Trial2	pointing/STIM_005.jpg	99
1276.841	0.819	818.6	pointing	Trial2	pointing/STIM_005.jpg	99
1279.904	0.743	743.0	pointing	Trial2	pointing/STIM_005.jpg	99
1283.874	0.784	783.8	pointing	Trial2	pointing/STIM_006.jpg	100
1287.208	0.9	899.8	pointing	Trial2	pointing/STIM_006.jpg	99
1290.523	0.964	963.6	pointing	Trial2	pointing/STIM_006.jpg	100
1294.151	1.315	1314.7	pointing	Trial2	pointing/STIM_006.jpg	99
1298.722	0.944	943.9	pointing	Trial2	pointing/STIM_006.jpg	99
1302.898	0.725	724.8	pointing	Trial2	pointing/STIM_006.jpg	100
1306.46	1.037	1037.0	pointing	Trial2	pointing/STIM_007.jpg	100
1310.793	1.156	1156.0	pointing	Trial2	pointing/STIM_007.jpg	99
1315.411	0.733	733.4	pointing	Trial2	pointing/STIM_007.jpg	99
1319.045	0.752	752.4	pointing	Trial2	pointing/STIM_007.jpg	100
1322.673	0.759	759.1	pointing	Trial2	pointing/STIM_007.jpg	99
1326.778	1.216	1216.4	pointing	Trial2	pointing/STIM_007.jpg	99
1330.58	0.919	919.4	pointing	Trial2	pointing/STIM_008.jpg	99
1334.763	0.901	901.2	pointing	Trial2	pointing/STIM_008.jpg	99
1338.812	1.088	1088.2	pointing	Trial2	pointing/STIM_008.jpg	99
1342.908	0.836	835.7	pointing	Trial2	pointing/STIM_008.jpg	99
1347.222	0.942	942.1	pointing	Trial2	pointing/STIM_008.jpg	100
1351.145	1.213	1213.4	pointing	Trial2	pointing/STIM_008.jpg	99
1354.801	1.324	1323.8	pointing	Trial2	pointing/STIM_009.jpg	100
1358.995	0.756	755.6	pointing	Trial2	pointing/STIM_009.jpg	100
1362.235	0.946	946.0	pointing	Trial2	pointing/STIM_009.jpg	100
1366.223	1.356	1356.4	pointing	Trial2	pointing/STIM_009.jpg	100
1369.879	1.009	1009.2	pointing	Trial2	pointing/STIM_009.jpg	100
1374.594	1.258	1257.5	pointing	Trial2	pointing/STIM_009.jpg	100
1378.675	0.604	603.6	pointing	Trial2	pointing/STIM_010.jpg	99
1381.946	0.722	722.5	pointing	Trial2	pointing/STIM_010.jpg	99
1386.42	0.924	924.4	pointing	Trial2	pointing/STIM_010.jpg	99
1389.975	1.246	1245.9	pointing	Trial2	pointing/STIM_010.jpg	99
1393.807	0.708	708.1	pointing	Trial2	pointing/STIM_010.jpg	100
1396.969	0.807	807.4	pointing	Trial2	pointing/STIM_010.jpg	100
1400.427	0.768	767.8	pointing	Trial2	pointing/STIM_011.jpg	99
1404.261	1.129	1128.9	pointing	Trial2	pointing/STIM_011.jpg	99
1408.818	0.814	813.9	pointing	Trial2	pointing/STIM_011.jpg	99
1412.384	1.136	1135.6	pointing	Trial2	pointing/STIM_011.jpg	99
1416.002	0.93	929.8	pointing	Trial2	pointing/STIM_011.jpg	99
1420.701	0.781	780.8	pointing	Trial2	pointing/STIM_011.jpg	99
1423.915	2.077	2077.4	navigation	Trial3	navigation/STIM_000.jpg	99
1430.104	1.297	1297.2	navigation	Trial3	navigation/STIM_000.jpg	99
1434.412	2.466	2466.4	navigation	Trial3	navigation/STIM_000.jpg	99
1440.006	2.111	2111.1	navigation	Trial3	navigation/STIM_000.jpg	100
1445.038	2.149	2149.2	navigation	Trial3	navigation/STIM_000.jpg	100
1450.601	2.281	2280.7	navigation	Trial3	navigation/STIM_000.jpg	100
1456.631	2.245	2245.1	navigation	Trial3	navigation/STIM_001.jpg	99
1462.155	1.976	1976.2	navigation	Trial3	navigation/STIM_001.jpg	99
1467.188	2.662	2662.1	navigation	Trial3	navigation/STIM_001.jpg	99
1473.07	2.432	2432.0	navigation	Trial3	navigation/STIM_001.jpg	99
1478.801	2.574	2574.5	navigation	Trial3	navigation/STIM_001.jpg	100
1484.213	2.662	2661.5	navigation	Trial3	navigation/STIM_001.jpg	100
1489.453	1.562	1561.9	navigation	Trial3	navigation/STIM_002.jpg	99
1493.352	1.479	1479.4	navigation	Trial3	navigation/STIM_002.jpg	100
1497.702	1.632	1631.9	navigation	Trial3	navigation/STIM_002.jpg	99
1502.019	1.296	1296.2	navigation	Trial3	navigation/STIM_002.jpg	100
1505.486	1.841	1840.8	navigation	Trial3	navigation/STIM_002.jpg	100
1511.042	1.971	1971.2	navigation	Trial3	navigation/STIM_002.jpg	100
1516.446	1.613	1612.7	navigation	Trial3	navigation/STIM_003.jpg	99
1522.053	1.312	1311.5	navigation	Trial3	navigation/STIM_003.jpg	100
1526.765	1.636	1635.9	navigation	Trial3	navigation/STIM_003.jpg	99
1531.377	2.432	2432.2	navigation	Trial3	navigation/STIM_003.jpg	99
1538.095	1.705	1705.4	navigation	Trial3	navigation/STIM_003.jpg	99
1543.939	1.812	1811.9	navigation	Trial3	navigation/STIM_003.jpg	99
1548.676	1.288	1288.4	navigation	Trial3	navigation/STIM_004.jpg	99
1553.365	1.543	1543.0	navigation	Trial3	navigation/STIM_004.jpg	100
1557.526	2.669	2668.7	navigation	Trial3	navigation/STIM_004.jpg	100
1563.262	2.411	2410.9	navigation	Trial3	navigation/STIM_004.jpg	100
1568.415	2.636	2636.2	navigation	Trial3	navigation/STIM_004.jpg	99
1574.984	1.142	1142.4	navigation	Trial3	navigation/STIM_004.jpg	99
1579.614	2.274	2273.6	navigation	Trial3	navigation/STIM_005.jpg	99
1584.416	2.436	2435.8	navigation	Trial3	navigation/STIM_005.jpg	100
1589.521	2.214	2213.6	navigation	Trial3	navigation/STIM_005.jpg	99
1595.1	2.275	2275.4	navigation	Trial3	navigation/STIM_005.jpg	100
1601.636	1.942	1941.5	navigation	Trial3	navigation/STIM_005.jpg	100
1607.313	1.382	1382.0	navigation	Trial3	navigation/STIM_005.jpg	100
1611.63	2.051	2051.4	navigation	Trial3	navigation/STIM_006.jpg	100
1617.849	2.337	2337.1	navigation	Trial3	navigation/STIM_006.jpg	99
1623.12	1.922	1922.2	navigation	Trial3	navigation/STIM_006.jpg	99
1627.289	1.867	1867.2	navigation	Trial3	navigation/STIM_006.jpg	99
1632.91	1.198	1198.2	navigation	Trial3	navigation/STIM_006.jpg	100
1638.229	1.707	1706.7	navigation	Trial3	navigation/STIM_006.jpg	100
1643.812	2.128	2128.5	navigation	Trial3	navigation/STIM_007.jpg	100
1649.51	1.97	1969.9	navigation	Trial3	navigation/STIM_007.jpg	99
1655.5	2.512	2511.9	navigation	Trial3	navigation/STIM_007.jpg	100
1660.826	1.328	1327.9	navigation	Trial3	navigation/STIM_007.jpg	100
1665.759	2.026	2026.1	navigation	Trial3	navigation/STIM_007.jpg	99
1670.202	1.407	1406.8	navigation	Trial3	navigation/STIM_007.jpg	100
1675.236	2.997	2996.7	navigation	Trial3	navigation/STIM_008.jpg	99
1681.095	2.268	2267.7	navigation	Trial3	navigation/STIM_008.jpg	100
1686.306	2.523	2522.7	navigation	Trial3	navigation/STIM_008.jpg	99
1693.274	2.433	2433.3	navigation	Trial3	navigation/STIM_008.jpg	100
1698.471	3.039	3039.2	navigation	Trial3	navigation/STIM_008.jpg	99
1704.209	1.184	1184.1	navigation	Trial3	navigation/STIM_008.jpg	99
1707.853	2.084	2083.6	navigation	Trial3	navigation/STIM_009.jpg	100
1712.394	1.932	1932.2	navigation	Trial3	navigation/STIM_009.jpg	100
1717.46	1.986	1986.3	navigation	Trial3	navigation/STIM_009.jpg	100
1722.422	1.731	1731.1	navigation	Trial3	navigation/STIM_009.jpg	99
1727.965	2.507	2507.4	navigation	Trial3	navigation/STIM_009.jpg	100
1734.624	2.682	2682.2	navigation	Trial3	navigation/STIM_009.jpg	99
1740.999	1.672	1671.5	navigation	Trial3	navigation/STIM_010.jpg	99
1746.161	2.103	2102.9	navigation	Trial3	navigation/STIM_010.jpg	100
1750.631	2.68	2680.4	navigation	Trial3	navigation/STIM_010.jpg	100
1756.244	1.354	1354.3	navigation	Trial3	navigation/STIM_010.jpg	100
1759.797	1.489	1488.9	navigation	Trial3	navigation/STIM_010.jpg	99
1764.129	1.89	1890.0	navigation	Trial3	navigation/STIM_010.jpg	99
1769.141	1.213	1212.9	navigation	Trial3	navigation/STIM_011.jpg	100
1772.677	1.732	1732.3	navigation	Trial3	navigation/STIM_011.jpg	99
1778.374	1.853	1852.9	navigation	Trial3	navigation/STIM_011.jpg	100
1783.143	2.535	2535.4	navigation	Trial3	navigation/STIM_011.jpg	99
1789.05	1.454	1453.6	navigation	Trial3	navigation/STIM_011.jpg	99
1793.402	2.018	2018.5	navigation	Trial3	navigation/STIM_011.jpg	99
1797.994	0.946	946.0	pointing	Trial3	pointing/STIM_000.jpg	100
1802.548	1.21	1210.5	pointing	Trial3	pointing/STIM_000.jpg	100
1807.919	1.189	1188.8	pointing	Trial3	pointing/STIM_000.jpg	100
1811.979	0.954	954.2	pointing	Trial3	pointing/STIM_000.jpg	100
1816.746	0.82	820.2	pointing	Trial3	pointing/STIM_000.jpg	100
1819.973	0.799	798.9	pointing	Trial3	pointing/STIM_000.jpg	100
1823.591	0.978	978.2	pointing	Trial3	pointing/STIM_001.jpg	100
1827.33	0.828	827.7	pointing	Trial3	pointing/STIM_001.jpg	100
1831.566	0.79	789.6	pointing	Trial3	pointing/STIM_001.jpg	100
1835.463	1.241	1240.8	pointing	Trial3	pointing/STIM_001.jpg	100
1840.296	1.004	1004.3	pointing	Trial3	pointing/STIM_001.jpg	99
1843.771	1.225	1224.9	pointing	Trial3	pointing/STIM_001.jpg	100
1848.565	0.91	910.4	pointing	Trial3	pointing/STIM_002.jpg	99
1852.823	0.931	930.8	pointing	Trial3	pointing/STIM_002.jpg	100
1857.196	0.99	990.4	pointing	Trial3	pointing/STIM_002.jpg	99
1862.267	0.884	883.5	pointing	Trial3	pointing/STIM_002.jpg	100
1866.339	0.94	940.3	pointing	Trial3	pointing/STIM_002.jpg	100
1871.391	0.759	759.1	pointing	Trial3	pointing/STIM_002.jpg	100
1874.636	0.916	916.5	pointing	Trial3	pointing/STIM_003.jpg	100
1877.68	1.198	1197.6	pointing	Trial3	pointing/STIM_003.jpg	100
1882.061	0.758	758.3	pointing	Trial3	pointing/STIM_003.jpg	100
1884.971	0.903	902.6	pointing	Trial3	pointing/STIM_003.jpg	99
1888.501	1.189	1188.8	pointing	Trial3	pointing/STIM_003.jpg	100
1893.18	1.199	1198.7	pointing	Trial3	pointing/STIM_003.jpg	100
1898.133	0.782	781.9	pointing	Trial3	pointing/STIM_004.jpg	100
1902.922	1.252	1252.2	pointing	Trial3	pointing/STIM_004.jpg	100
1907.593	1.122	1122.4	pointing	Trial3	pointing/STIM_004.jpg	99
1911.609	0.926	926.3	pointing	Trial3	pointing/STIM_004.jpg	100
1916.596	0.92	920.1	pointing	Trial3	pointing/STIM_004.jpg	99
1920.428	1.33	1330.3	pointing	Trial3	pointing/STIM_004.jpg	99
1925.467	0.964	963.8	pointing	Trial3	pointing/STIM_005.jpg	100
1930.156	1.024	1023.9	pointing	Trial3	pointing/STIM_005.jpg	100
1934.653	1.039	1038.9	pointing	Trial3	pointing/STIM_005.jpg	100
1939.091	1.185	1185.0	pointing	Trial3	pointing/STIM_005.jpg	99
1942.679	1.011	1010.6	pointing	Trial3	pointing/STIM_005.jpg	100
1946.155	1.036	1036.3	pointing	Trial3	pointing/STIM_005.jpg	99
1949.587	0.996	995.8	pointing	Trial3	pointing/STIM_006.jpg	100
1953.173	1.224	1224.1	pointing	Trial3	pointing/STIM_006.jpg	99
1958.315	1.022	1021.8	pointing	Trial3	pointing/STIM_006.jpg	99
1962.794	0.945	945.1	pointing	Trial3	pointing/STIM_006.jpg	99
1967.445	0.755	755.4	pointing	Trial3	pointing/STIM_006.jpg	100
1970.439	1.116	1116.4	pointing	Trial3	pointing/STIM_006.jpg	100
1975.11	1.16	1160.5	pointing	Trial3	pointing/STIM_007.jpg	100
1979.511	0.896	896.3	pointing	Trial3	pointing/STIM_007.jpg	100
1983.55	0.743	743.1	pointing	Trial3	pointing/STIM_007.jpg	100
1987.997	1.277	1277.0	pointing	Trial3	pointing/STIM_007.jpg	100
1992.606	0.824	824.1	pointing	Trial3	pointing/STIM_007.jpg	100
1996.317	0.81	810.0	pointing	Trial3	pointing/STIM_007.jpg	100
1999.815	0.866	865.5	pointing	Trial3	pointing/STIM_008.jpg	99
2003.848	1.131	1131.3	pointing	Trial3	pointing/STIM_008.jpg	100
2007.776	1.212	1212.3	pointing	Trial3	pointing/STIM_008.jpg	99
2012.18	0.74	740.2	pointing	Trial3	pointing/STIM_008.jpg	100
2016.448	1.133	1133.4	pointing	Trial3	pointing/STIM_008.jpg	100
2021.012	1.045	1045.1	pointing	Trial3	pointing/STIM_008.jpg	100
2025.595	1.09	1089.6	pointing	Trial3	pointing/STIM_009.jpg	99
2030.703	1.189	1189.2	pointing	Trial3	pointing/STIM_009.jpg	100
2034.849	0.862	861.7	pointing	Trial3	pointing/STIM_009.jpg	99
2038.475	0.797	796.7	pointing	Trial3	pointing/STIM_009.jpg	100
2042.971	0.788	787.6	pointing	Trial3	pointing/STIM_009.jpg	99
2047.622	0.901	901.3	pointing	Trial3	pointing/STIM_009.jpg	99
2051.965	0.856	855.6	pointing	Trial3	pointing/STIM_010.jpg	100
2055.124	1.14	1140.2	pointing	Trial3	pointing/STIM_010.jpg	100
2059.365	0.998	997.8	pointing	Trial3	pointing/STIM_010.jpg	100
2062.951	0.948	948.4	pointing	Trial3	pointing/STIM_010.jpg	99
2066.507	0.835	834.8	pointing	Trial3	pointing/STIM_010.jpg	100
2069.495	1.037	1037.0	pointing	Trial3	pointing/STIM_010.jpg	100
2073.505	1.033	1033.4	pointing	Trial3	pointing/STIM_011.jpg	100
2076.734	1.291	1291.0	pointing	Trial3	pointing/STIM_011.jpg	100
2081.623	0.832	832.4	pointing	Trial3	pointing/STIM_011.jpg	99
2084.603	1.049	1049.0	pointing	Trial3	pointing/STIM_011.jpg	100
2089.259	0.998	997.5	pointing	Trial3	pointing/STIM_011.jpg	100
2092.586	1.014	1014.2	pointing	Trial3	pointing/STIM_011.jpg	100
