onset	duration	accuracy_binary	trial_type	learning_stage	stimulus
0.0	3.106	1	navigation	Trial1	navigation/STIM_000.jpg
6.77	4.147	0	navigation	Trial1	navigation/STIM_000.jpg
13.073	4.295	0	navigation	Trial1	navigation/STIM_000.jpg
20.649	3.764	0	navigation	Trial1	navigation/STIM_000.jpg
27.191	2.235	1	navigation	Trial1	navigation/STIM_000.jpg
32.678	2.252	1	navigation	Trial1	navigation/STIM_000.jpg
38.262	2.937	0	navigation	Trial1	navigation/STIM_001.jpg
43.532	3.976	1	navigation	Trial1	navigation/STIM_001.jpg
49.518	4.819	0	navigation	Trial1	navigation/STIM_001.jpg
57.146	2.392	1	navigation	Trial1	navigation/STIM_001.jpg
63.506	3.368	1	navigation	Trial1	navigation/STIM_001.jpg
69.562	1.857	1	navigation	Trial1	navigation/STIM_001.jpg
74.449	3.701	1	navigation	Trial1	navigation/STIM_002.jpg
81.94	4.957	0	navigation	Trial1	navigation/STIM_002.jpg
89.142	4.128	1	navigation	Trial1	navigation/STIM_002.jpg
96.983	3.781	1	navigation	Trial1	navigation/STIM_002.jpg
103.614	2.896	1	navigation	Trial1	navigation/STIM_002.jpg
110.067	2.881	1	navigation	Trial1	navigation/STIM_002.jpg
115.868	2.239	0	navigation	Trial1	navigation/STIM_003.jpg
121.2	3.46	1	navigation	Trial1	navigation/STIM_003.jpg
127.909	4.004	0	navigation	Trial1	navigation/STIM_003.jpg
133.924	3.934	1	navigation	Trial1	navigation/STIM_003.jpg
140.103	3.514	1	navigation	Trial1	navigation/STIM_003.jpg
147.508	3.726	1	navigation	Trial1	navigation/STIM_003.jpg
154.285	2.802	0	navigation	Trial1	navigation/STIM_004.jpg
160.843	5.107	0	navigation	Trial1	navigation/STIM_004.jpg
169.769	3.191	0	navigation	Trial1	navigation/STIM_004.jpg
174.988	3.377	1	navigation	Trial1	navigation/STIM_004.jpg
181.229	2.526	0	navigation	Trial1	navigation/STIM_004.jpg
187.426	2.571	1	navigation	Trial1	navigation/STIM_004.jpg
193.608	4.465	1	navigation	Trial1	navigation/STIM_005.jpg
200.347	2.556	1	navigation	Trial1	navigation/STIM_005.jpg
206.171	2.653	1	navigation	Trial1	navigation/STIM_005.jpg
212.718	2.886	1	navigation	Trial1	navigation/STIM_005.jpg
218.828	2.852	1	navigation	Trial1	navigation/STIM_005.jpg
225.325	3.033	0	navigation	Trial1	navigation/STIM_005.jpg
231.918	3.755	0	navigation	Trial1	navigation/STIM_006.jpg
238.989	4.989	1	navigation	Trial1	navigation/STIM_006.jpg
247.875	2.758	1	navigation	Trial1	navigation/STIM_006.jpg
252.817	4.257	0	navigation	Trial1	navigation/STIM_006.jpg
260.831	3.387	0	navigation	Trial1	navigation/STIM_006.jpg
267.61	2.452	0	navigation	Trial1	navigation/STIM_006.jpg
273.602	3.207	0	navigation	Trial1	navigation/STIM_007.jpg
278.973	2.436	0	navigation	Trial1	navigation/STIM_007.jpg
283.752	3.195	1	navigation	Trial1	navigation/STIM_007.jpg
290.379	2.695	0	navigation	Trial1	navigation/STIM_007.jpg
295.318	3.201	1	navigation	Trial1	navigation/STIM_007.jpg
301.017	3.157	1	navigation	Trial1	navigation/STIM_007.jpg
306.526	3.216	0	navigation	Trial1	navigation/STIM_008.jpg
313.099	2.416	0	navigation	Trial1	navigation/STIM_008.jpg
318.119	3.798	0	navigation	Trial1	navigation/STIM_008.jpg
325.288	4.52	0	navigation	Trial1	navigation/STIM_008.jpg
332.046	2.124	0	navigation	Trial1	navigation/STIM_008.jpg
337.806	2.008	1	navigation	Trial1	navigation/STIM_008.jpg
342.724	5.305	1	navigation	Trial1	navigation/STIM_009.jpg
350.676	2.294	1	navigation	Trial1	navigation/STIM_009.jpg
355.655	2.467	1	navigation	Trial1	navigation/STIM_009.jpg
362.003	4.49	1	navigation	Trial1	navigation/STIM_009.jpg
369.963	1.759	1	navigation	Trial1	navigation/STIM_009.jpg
375.183	2.87	1	navigation	Trial1	navigation/STIM_009.jpg
381.944	2.703	0	navigation	Trial1	navigation/STIM_010.jpg
387.737	3.31	1	navigation	Trial1	navigation/STIM_010.jpg
393.128	4.856	1	navigation	Trial1	navigation/STIM_010.jpg
400.242	4.259	1	navigation	Trial1	navigation/STIM_010.jpg
407.731	4.111	1	navigation	Trial1	navigation/STIM_010.jpg
415.031	3.83	0	navigation	Trial1	navigation/STIM_010.jpg
421.676	4.266	1	navigation	Trial1	navigation/STIM_011.jpg
428.468	3.484	1	navigation	Trial1	navigation/STIM_011.jpg
434.199	4.338	0	navigation	Trial1	navigation/STIM_011.jpg
441.732	3.485	1	navigation	Trial1	navigation/STIM_011.jpg
448.238	4.187	1	navigation	Trial1	navigation/STIM_011.jpg
455.502	2.707	1	navigation	Trial1	navigation/STIM_011.jpg
460.555	1.468	1	pointing	Trial1	pointing/STIM_000.jpg
464.74	0.935	1	pointing	Trial1	pointing/STIM_000.jpg
469.2	0.939	1	pointing	Trial1	pointing/STIM_000.jpg
473.742	1.467	0	pointing	Trial1	pointing/STIM_000.jpg
478.919	1.089	1	pointing	Trial1	pointing/STIM_000.jpg
482.452	0.921	1	pointing	Trial1	pointing/STIM_000.jpg
485.916	1.507	1	pointing	Trial1	pointing/STIM_001.jpg
489.769	1.132	0	pointing	Trial1	pointing/STIM_001.jpg
493.265	1.608	1	pointing	Trial1	pointing/STIM_001.jpg
498.555	0.955	0	pointing	Trial1	pointing/STIM_001.jpg
502.022	1.345	0	pointing	Trial1	pointing/STIM_001.jpg
505.422	1.111	0	pointing	Trial1	pointing/STIM_001.jpg
508.991	1.006	0	pointing	Trial1	pointing/STIM_002.jpg
513.689	1.397	0	pointing	Trial1	pointing/STIM_002.jpg
518.467	1.5	0	pointing	Trial1	pointing/STIM_002.jpg
523.413	1.222	1	pointing	Trial1	pointing/STIM_002.jpg
528.49	1.212	1	pointing	Trial1	pointing/STIM_002.jpg
533.173	0.921	0	pointing	Trial1	pointing/STIM_002.jpg
537.251	1.295	1	pointing	Trial1	pointing/STIM_003.jpg
541.657	0.871	1	pointing	Trial1	pointing/STIM_003.jpg
545.32	1.263	1	pointing	Trial1	pointing/STIM_003.jpg
549.938	1.059	1	pointing	Trial1	pointing/STIM_003.jpg
554.154	1.476	1	pointing	Trial1	pointing/STIM_003.jpg
558.22	1.557	1	pointing	Trial1	pointing/STIM_003.jpg
562.227	0.912	0	pointing	Trial1	pointing/STIM_004.jpg
566.769	1.562	1	pointing	Trial1	pointing/STIM_004.jpg
571.061	0.953	1	pointing	Trial1	pointing/STIM_004.jpg
575.802	1.492	0	pointing	Trial1	pointing/STIM_004.jpg
580.375	0.88	1	pointing	Trial1	pointing/STIM_004.jpg
583.671	1.578	1	pointing	Trial1	pointing/STIM_004.jpg
587.377	1.126	1	pointing	Trial1	pointing/STIM_005.jpg
591.197	1.072	0	pointing	Trial1	pointing/STIM_005.jpg
596.176	1.21	0	pointing	Trial1	pointing/STIM_005.jpg
600.674	1.616	1	pointing	Trial1	pointing/STIM_005.jpg
604.667	1.59	0	pointing	Trial1	pointing/STIM_005.jpg
609.197	1.099	0	pointing	Trial1	pointing/STIM_005.jpg
612.427	0.999	0	pointing	Trial1	pointing/STIM_006.jpg
616.182	1.245	1	pointing	Trial1	pointing/STIM_006.jpg
620.243	1.574	1	pointing	Trial1	pointing/STIM_006.jpg
624.922	1.43	0	pointing	Trial1	pointing/STIM_006.jpg
629.566	1.393	0	pointing	Trial1	pointing/STIM_006.jpg
633.341	1.155	1	pointing	Trial1	pointing/STIM_006.jpg
636.6	1.104	1	pointing	Trial1	pointing/STIM_007.jpg
641.031	1.592	0	pointing	Trial1	pointing/STIM_007.jpg
645.081	1.168	0	pointing	Trial1	pointing/STIM_007.jpg
649.81	1.082	1	pointing	Trial1	pointing/STIM_007.jpg
654.692	1.46	0	pointing	Trial1	pointing/STIM_007.jpg
658.287	1.334	1	pointing	Trial1	pointing/STIM_007.jpg
663.145	1.352	1	pointing	Trial1	pointing/STIM_008.jpg
667.366	1.062	1	pointing	Trial1	pointing/STIM_008.jpg
671.396	1.607	1	pointing	Trial1	pointing/STIM_008.jpg
675.197	1.008	0	pointing	Trial1	pointing/STIM_008.jpg
678.818	1.343	1	pointing	Trial1	pointing/STIM_008.jpg
683.06	1.489	1	pointing	Trial1	pointing/STIM_008.jpg
688.041	0.968	1	pointing	Trial1	pointing/STIM_009.jpg
691.652	1.524	1	pointing	Trial1	pointing/STIM_009.jpg
696.4	1.155	1	pointing	Trial1	pointing/STIM_009.jpg
700.994	1.446	1	pointing	Trial1	pointing/STIM_009.jpg
705.166	1.563	1	pointing	Trial1	pointing/STIM_009.jpg
709.301	1.202	1	pointing	Trial1	pointing/STIM_009.jpg
712.882	1.356	1	pointing	Trial1	pointing/STIM_010.jpg
717.798	1.328	1	pointing	Trial1	pointing/STIM_010.jpg
722.34	1.495	0	pointing	Trial1	pointing/STIM_010.jpg
727.554	1.102	1	pointing	Trial1	pointing/STIM_010.jpg
731.142	1.398	0	pointing	Trial1	pointing/STIM_010.jpg
736.125	0.958	1	pointing	Trial1	pointing/STIM_010.jpg
739.542	1.019	1	pointing	Trial1	pointing/STIM_011.jpg
742.827	0.996	0	pointing	Trial1	pointing/STIM_011.jpg
746.445	1.243	1	pointing	Trial1	pointing/STIM_011.jpg
749.998	1.504	0	pointing	Trial1	pointing/STIM_011.jpg
754.336	1.547	1	pointing	Trial1	pointing/STIM_011.jpg
759.69	1.226	0	pointing	Trial1	pointing/STIM_011.jpg
764.222	3.877	1	navigation	Trial2	navigation/STIM_000.jpg
771.577	1.982	1	navigation	Trial2	navigation/STIM_000.jpg
776.493	2.68	1	navigation	Trial2	navigation/STIM_000.jpg
781.456	2.748	0	navigation	Trial2	navigation/STIM_000.jpg
787.394	3.069	0	navigation	Trial2	navigation/STIM_000.jpg
793.26	2.598	1	navigation	Trial2	navigation/STIM_000.jpg
799.761	3.144	1	navigation	Trial2	navigation/STIM_001.jpg
806.001	4.282	1	navigation	Trial2	navigation/STIM_001.jpg
814.039	2.569	1	navigation	Trial2	navigation/STIM_001.jpg
819.062	3.707	0	navigation	Trial2	navigation/STIM_001.jpg
826.234	2.978	0	navigation	Trial2	navigation/STIM_001.jpg
832.385	2.639	1	navigation	Trial2	navigation/STIM_001.jpg
838.597	3.19	1	navigation	Trial2	navigation/STIM_002.jpg
844.02	2.23	1	navigation	Trial2	navigation/STIM_002.jpg
849.264	2.152	1	navigation	Trial2	navigation/STIM_002.jpg
855.172	2.393	0	navigation	Trial2	navigation/STIM_002.jpg
861.226	2.919	1	navigation	Trial2	navigation/STIM_002.jpg
867.783	2.726	1	navigation	Trial2	navigation/STIM_002.jpg
873.921	4.493	0	navigation	Trial2	navigation/STIM_003.jpg
882.112	3.161	0	navigation	Trial2	navigation/STIM_003.jpg
888.523	3.528	1	navigation	Trial2	navigation/STIM_003.jpg
894.227	3.538	1	navigation	Trial2	navigation/STIM_003.jpg
900.79	1.606	1	navigation	Trial2	navigation/STIM_003.jpg
904.494	3.495	1	navigation	Trial2	navigation/STIM_003.jpg
910.412	2.022	1	navigation	Trial2	navigation/STIM_004.jpg
915.103	2.541	0	navigation	Trial2	navigation/STIM_004.jpg
920.052	2.102	0	navigation	Trial2	navigation/STIM_004.jpg
925.24	3.064	1	navigation	Trial2	navigation/STIM_004.jpg
930.697	1.936	0	navigation	Trial2	navigation/STIM_004.jpg
935.039	2.557	1	navigation	Trial2	navigation/STIM_004.jpg
939.893	4.006	0	navigation	Trial2	navigation/STIM_005.jpg
946.741	4.134	0	navigation	Trial2	navigation/STIM_005.jpg
953.483	1.639	1	navigation	Trial2	navigation/STIM_005.jpg
958.41	2.274	1	navigation	Trial2	navigation/STIM_005.jpg
963.628	1.97	1	navigation	Trial2	navigation/STIM_005.jpg
968.42	3.276	1	navigation	Trial2	navigation/STIM_005.jpg
974.945	2.892	0	navigation	Trial2	navigation/STIM_006.jpg
980.249	3.368	0	navigation	Trial2	navigation/STIM_006.jpg
986.22	3.02	0	navigation	Trial2	navigation/STIM_006.jpg
991.986	2.87	1	navigation	Trial2	navigation/STIM_006.jpg
997.892	2.397	1	navigation	Trial2	navigation/STIM_006.jpg
1004.129	2.269	0	navigation	Trial2	navigation/STIM_006.jpg
1009.113	4.493	1	navigation	Trial2	navigation/STIM_007.jpg
1016.619	2.136	1	navigation	Trial2	navigation/STIM_007.jpg
1021.511	1.667	0	navigation	Trial2	navigation/STIM_007.jpg
1027.058	3.086	0	navigation	Trial2	navigation/STIM_007.jpg
1033.563	2.069	1	navigation	Trial2	navigation/STIM_007.jpg
1038.385	1.533	1	navigation	Trial2	navigation/STIM_007.jpg
1042.988	3.008	1	navigation	Trial2	navigation/STIM_008.jpg
1048.216	2.995	1	navigation	Trial2	navigation/STIM_008.jpg
1054.287	3.269	0	navigation	Trial2	navigation/STIM_008.jpg
1061.404	2.245	0	navigation	Trial2	navigation/STIM_008.jpg
1066.539	2.064	1	navigation	Trial2	navigation/STIM_008.jpg
1072.005	2.606	1	navigation	Trial2	navigation/STIM_008.jpg
1076.697	4.132	1	navigation	Trial2	navigation/STIM_009.jpg
1084.262	2.571	1	navigation	Trial2	navigation/STIM_009.jpg
1089.682	2.614	1	navigation	Trial2	navigation/STIM_009.jpg
1095.335	2.368	1	navigation	Trial2	navigation/STIM_009.jpg
1101.276	2.524	1	navigation	Trial2	navigation/STIM_009.jpg
1106.08	3.136	1	navigation	Trial2	navigation/STIM_009.jpg
1111.937	2.847	0	navigation	Trial2	navigation/STIM_010.jpg
1117.889	3.691	1	navigation	Trial2	navigation/STIM_010.jpg
1124.84	2.279	1	navigation	Trial2	navigation/STIM_010.jpg
1130.92	2.577	0	navigation	Trial2	navigation/STIM_010.jpg
1136.122	2.879	0	navigation	Trial2	navigation/STIM_010.jpg
1142.913	1.807	1	navigation	Trial2	navigation/STIM_010.jpg
1148.1	2.452	1	navigation	Trial2	navigation/STIM_011.jpg
1153.663	2.767	0	navigation	Trial2	navigation/STIM_011.jpg
1158.846	4.0	1	navigation	Trial2	navigation/STIM_011.jpg
1166.403	2.419	1	navigation	Trial2	navigation/STIM_011.jpg
1172.199	2.054	0	navigation	Trial2	navigation/STIM_011.jpg
1177.503	3.288	1	navigation	Trial2	navigation/STIM_011.jpg
1183.326	0.879	1	pointing	Trial2	pointing/STIM_000.jpg
1187.894	1.026	0	pointing	Trial2	pointing/STIM_000.jpg
1192.317	0.878	0	pointing	Trial2	pointing/STIM_000.jpg
1196.618	1.418	1	pointing	Trial2	pointing/STIM_000.jpg
1201.91	1.048	1	pointing	Trial2	pointing/STIM_000.jpg
1205.248	1.372	1	pointing	Trial2	pointing/STIM_000.jpg
1210.076	1.473	1	pointing	Trial2	pointing/STIM_001.jpg
1214.607	0.911	1	pointing	Trial2	pointing/STIM_001.jpg
1219.411	0.87	1	pointing	Trial2	pointing/STIM_001.jpg
1223.712	0.865	1	pointing	Trial2	pointing/STIM_001.jpg
1228.298	1.153	1	pointing	Trial2	pointing/STIM_001.jpg
1231.605	1.257	0	pointing	Trial2	pointing/STIM_001.jpg
1236.704	1.415	1	pointing	Trial2	pointing/STIM_002.jpg
1242.093	1.434	1	pointing	Trial2	pointing/STIM_002.jpg
1247.082	0.9	1	pointing	Trial2	pointing/STIM_002.jpg
1250.539	1.094	1	pointing	Trial2	pointing/STIM_002.jpg
1254.432	1.482	1	pointing	Trial2	pointing/STIM_002.jpg
1257.996	0.907	1	pointing	Trial2	pointing/STIM_002.jpg
1261.388	1.56	1	pointing	Trial2	pointing/STIM_003.jpg
1266.08	1.513	1	pointing	Trial2	pointing/STIM_003.jpg
1270.582	1.429	0	pointing	Trial2	pointing/STIM_003.jpg
1275.302	1.512	1	pointing	Trial2	pointing/STIM_003.jpg
1280.298	1.474	1	pointing	Trial2	pointing/STIM_003.jpg
1284.103	1.595	1	pointing	Trial2	pointing/STIM_003.jpg
1288.319	1.013	0	pointing	Trial2	pointing/STIM_004.jpg
1293.119	0.992	1	pointing	Trial2	pointing/STIM_004.jpg
1297.14	1.582	0	pointing	Trial2	pointing/STIM_004.jpg
1301.459	0.899	1	pointing	Trial2	pointing/STIM_004.jpg
1304.607	1.455	1	pointing	Trial2	pointing/STIM_004.jpg
1308.868	1.585	0	pointing	Trial2	pointing/STIM_004.jpg
1313.463	1.066	0	pointing	Trial2	pointing/STIM_005.jpg
1316.724	1.161	1	pointing	Trial2	pointing/STIM_005.jpg
1320.806	0.904	1	pointing	Trial2	pointing/STIM_005.jpg
1323.932	1.176	1	pointing	Trial2	pointing/STIM_005.jpg
1328.402	0.925	1	pointing	Trial2	pointing/STIM_005.jpg
1332.805	1.224	1	pointing	Trial2	pointing/STIM_005.jpg
1336.891	1.121	0	pointing	Trial2	pointing/STIM_006.jpg
1340.485	1.537	1	pointing	Trial2	pointing/STIM_006.jpg
1344.276	0.958	1	pointing	Trial2	pointing/STIM_006.jpg
1349.059	1.272	0	pointing	Trial2	pointing/STIM_006.jpg
1353.363	1.534	0	pointing	Trial2	pointing/STIM_006.jpg
1358.684	1.416	1	pointing	Trial2	pointing/STIM_006.jpg
1362.605	1.341	1	pointing	Trial2	pointing/STIM_007.jpg
1366.457	1.218	1	pointing	Trial2	pointing/STIM_007.jpg
1370.79	1.27	0	pointing	Trial2	pointing/STIM_007.jpg
1375.634	1.078	1	pointing	Trial2	pointing/STIM_007.jpg
1379.441	1.363	1	pointing	Trial2	pointing/STIM_007.jpg
1383.477	1.51	0	pointing	Trial2	pointing/STIM_007.jpg
1387.827	1.242	1	pointing	Trial2	pointing/STIM_008.jpg
1391.918	1.0	1	pointing	Trial2	pointing/STIM_008.jpg
1396.009	1.297	0	pointing	Trial2	pointing/STIM_008.jpg
1400.487	1.3	1	pointing	Trial2	pointing/STIM_008.jpg
1405.22	1.126	1	pointing	Trial2	pointing/STIM_008.jpg
1409.16	1.17	1	pointing	Trial2	pointing/STIM_008.jpg
1413.965	1.114	1	pointing	Trial2	pointing/STIM_009.jpg
1418.608	1.072	1	pointing	Trial2	pointing/STIM_009.jpg
1423.535	1.446	1	pointing	Trial2	pointing/STIM_009.jpg
1428.024	1.395	1	pointing	Trial2	pointing/STIM_009.jpg
1432.82	1.001	0	pointing	Trial2	pointing/STIM_009.jpg
1437.607	0.981	1	pointing	Trial2	pointing/STIM_009.jpg
1441.74	1.473	0	pointing	Trial2	pointing/STIM_010.jpg
1445.929	0.979	1	pointing	Trial2	pointing/STIM_010.jpg
1449.909	0.956	1	pointing	Trial2	pointing/STIM_010.jpg
1453.901	1.386	1	pointing	Trial2	pointing/STIM_010.jpg
1457.635	1.522	1	pointing	Trial2	pointing/STIM_010.jpg
1462.504	1.324	1	pointing	Trial2	pointing/STIM_010.jpg
1466.616	1.497	1	pointing	Trial2	pointing/STIM_011.jpg
1470.356	1.44	1	pointing	Trial2	pointing/STIM_011.jpg
1474.678	1.034	0	pointing	Trial2	pointing/STIM_011.jpg
1478.225	1.48	1	pointing	Trial2	pointing/STIM_011.jpg
1482.709	1.349	0	pointing	Trial2	pointing/STIM_011.jpg
1486.217	1.61	1	pointing	Trial2	pointing/STIM_011.jpg
1490.159	2.243	0	navigation	Trial3	navigation/STIM_000.jpg
1495.443	3.31	0	navigation	Trial3	navigation/STIM_000.jpg
1501.803	3.67	0	navigation	Trial3	navigation/STIM_000.jpg
1509.403	1.624	1	navigation	Trial3	navigation/STIM_000.jpg
1513.977	2.089	1	navigation	Trial3	navigation/STIM_000.jpg
1519.484	2.149	1	navigation	Trial3	navigation/STIM_000.jpg
1524.582	2.687	1	navigation	Trial3	navigation/STIM_001.jpg
1530.343	2.354	1	navigation	Trial3	navigation/STIM_001.jpg
1534.902	3.159	1	navigation	Trial3	navigation/STIM_001.jpg
1541.161	3.586	0	navigation	Trial3	navigation/STIM_001.jpg
1548.548	2.544	0	navigation	Trial3	navigation/STIM_001.jpg
1553.188	3.612	0	navigation	Trial3	navigation/STIM_001.jpg
1559.278	2.99	0	navigation	Trial3	navigation/STIM_002.jpg
1566.223	3.37	1	navigation	Trial3	navigation/STIM_002.jpg
1572.474	2.304	0	navigation	Trial3	navigation/STIM_002.jpg
1577.015	3.136	1	navigation	Trial3	navigation/STIM_002.jpg
1583.15	2.439	0	navigation	Trial3	navigation/STIM_002.jpg
1588.424	3.751	0	navigation	Trial3	navigation/STIM_002.jpg
1595.118	2.038	0	navigation	Trial3	navigation/STIM_003.jpg
1600.507	3.773	0	navigation	Trial3	navigation/STIM_003.jpg
1607.095	2.602	1	navigation	Trial3	navigation/STIM_003.jpg
1613.398	2.456	1	navigation	Trial3	navigation/STIM_003.jpg
1618.95	3.764	1	navigation	Trial3	navigation/STIM_003.jpg
1625.749	2.338	1	navigation	Trial3	navigation/STIM_003.jpg
1631.336	2.327	0	navigation	Trial3	navigation/STIM_004.jpg
1635.874	1.701	1	navigation	Trial3	navigation/STIM_004.jpg
1640.972	3.098	1	navigation	Trial3	navigation/STIM_004.jpg
1647.774	3.586	0	navigation	Trial3	navigation/STIM_004.jpg
1654.667	2.578	1	navigation	Trial3	navigation/STIM_004.jpg
1659.709	1.61	1	navigation	Trial3	navigation/STIM_004.jpg
1664.13	2.028	1	navigation	Trial3	navigation/STIM_005.jpg
1669.009	3.093	1	navigation	Trial3	navigation/STIM_005.jpg
1675.199	3.31	1	navigation	Trial3	navigation/STIM_005.jpg
1680.94	3.256	1	navigation	Trial3	navigation/STIM_005.jpg
1688.076	2.343	1	navigation	Trial3	navigation/STIM_005.jpg
1694.367	1.642	1	navigation	Trial3	navigation/STIM_005.jpg
1698.015	2.557	0	navigation	Trial3	navigation/STIM_006.jpg
1703.699	1.943	1	navigation	Trial3	navigation/STIM_006.jpg
1708.186	1.555	1	navigation	Trial3	navigation/STIM_006.jpg
1712.188	2.638	1	navigation	Trial3	navigation/STIM_006.jpg
1717.138	3.02	1	navigation	Trial3	navigation/STIM_006.jpg
1723.529	2.184	1	navigation	Trial3	navigation/STIM_006.jpg
1729.497	1.708	1	navigation	Trial3	navigation/STIM_007.jpg
1733.268	2.351	0	navigation	Trial3	navigation/STIM_007.jpg
1739.213	2.386	1	navigation	Trial3	navigation/STIM_007.jpg
1743.599	1.547	1	navigation	Trial3	navigation/STIM_007.jpg
1747.267	2.428	1	navigation	Trial3	navigation/STIM_007.jpg
1753.677	3.014	0	navigation	Trial3	navigation/STIM_007.jpg
1760.524	2.73	1	navigation	Trial3	navigation/STIM_008.jpg
1766.895	2.178	1	navigation	Trial3	navigation/STIM_008.jpg
1772.142	2.227	1	navigation	Trial3	navigation/STIM_008.jpg
1777.866	1.606	1	navigation	Trial3	navigation/STIM_008.jpg
1783.13	3.398	1	navigation	Trial3	navigation/STIM_008.jpg
1789.136	2.652	1	navigation	Trial3	navigation/STIM_008.jpg
1794.474	2.588	1	navigation	Trial3	navigation/STIM_009.jpg
1799.11	3.656	1	navigation	Trial3	navigation/STIM_009.jpg
1805.335	3.759	1	navigation	Trial3	navigation/STIM_009.jpg
1812.313	1.683	0	navigation	Trial3	navigation/STIM_009.jpg
1816.749	1.784	0	navigation	Trial3	navigation/STIM_009.jpg
1821.995	2.525	1	navigation	Trial3	navigation/STIM_009.jpg
1827.008	2.753	1	navigation	Trial3	navigation/STIM_010.jpg
1831.789	2.509	0	navigation	Trial3	navigation/STIM_010.jpg
1837.242	1.858	1	navigation	Trial3	navigation/STIM_010.jpg
1842.102	2.162	1	navigation	Trial3	navigation/STIM_010.jpg
1847.472	2.839	1	navigation	Trial3	navigation/STIM_010.jpg
1853.931	2.291	1	navigation	Trial3	navigation/STIM_010.jpg
1859.895	1.754	1	navigation	Trial3	navigation/STIM_011.jpg
1864.872	3.752	1	navigation	Trial3	navigation/STIM_011.jpg
1872.058	3.608	0	navigation	Trial3	navigation/STIM_011.jpg
1878.562	3.324	1	navigation	Trial3	navigation/STIM_011.jpg
1884.261	1.655	0	navigation	Trial3	navigation/STIM_011.jpg
1888.053	3.106	0	navigation	Trial3	navigation/STIM_011.jpg
1893.826	0.965	0	pointing	Trial3	pointing/STIM_000.jpg
1897.32	1.19	0	pointing	Trial3	pointing/STIM_000.jpg
1901.626	1.492	1	pointing	Trial3	pointing/STIM_000.jpg
1905.299	1.542	1	pointing	Trial3	pointing/STIM_000.jpg
1909.214	1.133	1	pointing	Trial3	pointing/STIM_000.jpg
1913.52	1.215	0	pointing	Trial3	pointing/STIM_000.jpg
1917.883	1.171	1	pointing	Trial3	pointing/STIM_001.jpg
1922.592	1.092	0	pointing	Trial3	pointing/STIM_001.jpg
1926.109	1.379	1	pointing	Trial3	pointing/STIM_001.jpg
1931.216	1.611	0	pointing	Trial3	pointing/STIM_001.jpg
1935.084	1.142	1	pointing	Trial3	pointing/STIM_001.jpg
1939.394	1.216	1	pointing	Trial3	pointing/STIM_001.jpg
1944.108	1.566	1	pointing	Trial3	pointing/STIM_002.jpg
1949.434	1.115	0	pointing	Trial3	pointing/STIM_002.jpg
1953.743	1.037	1	pointing	Trial3	pointing/STIM_002.jpg
1958.294	1.494	1	pointing	Trial3	pointing/STIM_002.jpg
1963.175	0.975	1	pointing	Trial3	pointing/STIM_002.jpg
1966.659	1.112	1	pointing	Trial3	pointing/STIM_002.jpg
1970.15	1.38	1	pointing	Trial3	pointing/STIM_003.jpg
1974.927	1.126	1	pointing	Trial3	pointing/STIM_003.jpg
1979.041	1.373	1	pointing	Trial3	pointing/STIM_003.jpg
1983.599	1.586	1	pointing	Trial3	pointing/STIM_003.jpg
1987.632	1.604	1	pointing	Trial3	pointing/STIM_003.jpg
1991.255	1.043	1	pointing	Trial3	pointing/STIM_003.jpg
1994.393	1.097	1	pointing	Trial3	pointing/STIM_004.jpg
1999.3	1.4	0	pointing	Trial3	pointing/STIM_004.jpg
2002.786	1.348	0	pointing	Trial3	pointing/STIM_004.jpg
2008.086	1.107	1	pointing	Trial3	pointing/STIM_004.jpg
2011.533	1.228	0	pointing	Trial3	pointing/STIM_004.jpg
2016.104	0.873	0	pointing	Trial3	pointing/STIM_004.jpg
2019.818	0.972	1	pointing	Trial3	pointing/STIM_005.jpg
2024.058	1.487	0	pointing	Trial3	pointing/STIM_005.jpg
2028.787	1.201	1	pointing	Trial3	pointing/STIM_005.jpg
2032.847	1.428	1	pointing	Trial3	pointing/STIM_005.jpg
2037.91	1.341	1	pointing	Trial3	pointing/STIM_005.jpg
2042.263	1.254	1	pointing	Trial3	pointing/STIM_005.jpg
2047.22	1.398	1	pointing	Trial3	pointing/STIM_006.jpg
2050.976	1.105	1	pointing	Trial3	pointing/STIM_006.jpg
2054.369	1.027	1	pointing	Trial3	pointing/STIM_006.jpg
2058.398	0.945	0	pointing	Trial3	pointing/STIM_006.jpg
2062.851	1.278	1	pointing	Trial3	pointing/STIM_006.jpg
2066.415	0.963	0	pointing	Trial3	pointing/STIM_006.jpg
2070.852	1.234	1	pointing	Trial3	pointing/STIM_007.jpg
2075.09	1.377	0	pointing	Trial3	pointing/STIM_007.jpg
2079.808	1.166	1	pointing	Trial3	pointing/STIM_007.jpg
2084.33	1.193	1	pointing	Trial3	pointing/STIM_007.jpg
2087.766	1.223	1	pointing	Trial3	pointing/STIM_007.jpg
2091.909	1.198	1	pointing	Trial3	pointing/STIM_007.jpg
2095.493	1.374	1	pointing	Trial3	pointing/STIM_008.jpg
2100.86	1.504	1	pointing	Trial3	pointing/STIM_008.jpg
2105.569	1.575	1	pointing	Trial3	pointing/STIM_008.jpg
2109.643	1.304	1	pointing	Trial3	pointing/STIM_008.jpg
2113.432	1.048	1	pointing	Trial3	pointing/STIM_008.jpg
2116.977	1.186	1	pointing	Trial3	pointing/STIM_008.jpg
2122.011	1.067	0	pointing	Trial3	pointing/STIM_009.jpg
2125.293	1.401	1	pointing	Trial3	pointing/STIM_009.jpg
2128.796	1.368	1	pointing	Trial3	pointing/STIM_009.jpg
2132.612	1.196	1	pointing	Trial3	pointing/STIM_009.jpg
2137.57	0.901	1	pointing	Trial3	pointing/STIM_009.jpg
2140.737	1.28	1	pointing	Trial3	pointing/STIM_009.jpg
2144.166	0.98	1	pointing	Trial3	pointing/STIM_010.jpg
2149.102	1.57	1	pointing	Trial3	pointing/STIM_010.jpg
2153.321	1.198	1	pointing	Trial3	pointing/STIM_010.jpg
2156.806	1.053	0	pointing	Trial3	pointing/STIM_010.jpg
2160.977	0.873	1	pointing	Trial3	pointing/STIM_010.jpg
2163.855	1.541	1	pointing	Trial3	pointing/STIM_010.jpg
2167.52	1.044	0	pointing	Trial3	pointing/STIM_011.jpg
2171.368	1.457	1	pointing	Trial3	pointing/STIM_011.jpg
2175.244	1.456	1	pointing	Trial3	pointing/STIM_011.jpg
2179.804	1.056	1	pointing	Trial3	pointing/STIM_011.jpg
2183.141	1.567	1	pointing	Trial3	pointing/STIM_011.jpg
2187.372	0.99	1	pointing	Trial3	pointing/STIM_011.jpg
