onset	duration	response_time_ms	trial_type	learning_stage	stimulus	response_port
0.0	4.29	4290.3	navigation	Trial1	navigation/STIM_000.jpg	99
7.156	3.313	3312.8	navigation	Trial1	navigation/STIM_000.jpg	99
14.195	3.289	3289.0	navigation	Trial1	navigation/STIM_000.jpg	99
20.257	2.886	2885.9	navigation	Trial1	navigation/STIM_000.jpg	100
26.139	2.021	2021.0	navigation	Trial1	navigation/STIM_000.jpg	100
30.631	3.1	3099.5	navigation	Trial1	navigation/STIM_000.jpg	100
37.568	4.637	4636.8	navigation	Trial1	navigation/STIM_001.jpg	99
44.745	2.19	2189.7	navigation	Trial1	navigation/STIM_001.jpg	99
49.205	3.059	3059.3	navigation	Trial1	navigation/STIM_001.jpg	99
54.515	2.703	2703.0	navigation	Trial1	navigation/STIM_001.jpg	100
60.81	1.86	1859.9	navigation	Trial1	navigation/STIM_001.jpg	100
64.86	1.671	1670.8	navigation	Trial1	navigation/STIM_001.jpg	100
70.33	2.142	2141.5	navigation	Trial1	navigation/STIM_002.jpg	100
74.95	3.569	3568.7	navigation	Trial1	navigation/STIM_002.jpg	99
81.757	2.656	2655.6	navigation	Trial1	navigation/STIM_002.jpg	99
87.046	3.151	3151.1	navigation	Trial1	navigation/STIM_002.jpg	100
93.031	1.722	1722.4	navigation	Trial1	navigation/STIM_002.jpg	100
97.211	1.821	1820.7	navigation	Trial1	navigation/STIM_002.jpg	100
102.132	2.33	2329.5	navigation	Trial1	navigation/STIM_003.jpg	100
107.296	1.894	1894.2	navigation	Trial1	navigation/STIM_003.jpg	99
112.934	1.73	1729.8	navigation	Trial1	navigation/STIM_003.jpg	99
117.865	2.419	2419.3	navigation	Trial1	navigation/STIM_003.jpg	99
122.718	2.159	2159.3	navigation	Trial1	navigation/STIM_003.jpg	99
128.283	2.113	2113.0	navigation	Trial1	navigation/STIM_003.jpg	100
133.617	2.692	2691.5	navigation	Trial1	navigation/STIM_004.jpg	99
138.801	1.977	1976.7	navigation	Trial1	navigation/STIM_004.jpg	99
143.597	1.797	1796.6	navigation	Trial1	navigation/STIM_004.jpg	99
147.68	2.365	2365.4	navigation	Trial1	navigation/STIM_004.jpg	100
152.144	3.239	3239.2	navigation	Trial1	navigation/STIM_004.jpg	99
157.926	1.589	1589.4	navigation	Trial1	navigation/STIM_004.jpg	99
162.839	2.03	2030.2	navigation	Trial1	navigation/STIM_005.jpg	99
167.638	3.711	3710.8	navigation	Trial1	navigation/STIM_005.jpg	99
175.132	3.74	3740.0	navigation	Trial1	navigation/STIM_005.jpg	99
182.489	2.857	2857.0	navigation	Trial1	navigation/STIM_005.jpg	100
187.532	2.544	2543.6	navigation	Trial1	navigation/STIM_005.jpg	99
192.864	2.571	2570.6	navigation	Trial1	navigation/STIM_005.jpg	99
199.366	3.113	3112.8	navigation	Trial1	navigation/STIM_006.jpg	100
204.715	2.151	2151.4	navigation	Trial1	navigation/STIM_006.jpg	100
209.407	2.812	2812.4	navigation	Trial1	navigation/STIM_006.jpg	100
216.091	2.739	2739.1	navigation	Trial1	navigation/STIM_006.jpg	99
222.298	2.573	2573.1	navigation	Trial1	navigation/STIM_006.jpg	100
226.898	2.131	2131.3	navigation	Trial1	navigation/STIM_006.jpg	100
231.299	3.354	3353.7	navigation	Trial1	navigation/STIM_007.jpg	100
237.144	2.14	2139.9	navigation	Trial1	navigation/STIM_007.jpg	100
243.214	2.648	2648.1	navigation	Trial1	navigation/STIM_007.jpg	99
248.403	3.098	3097.6	navigation	Trial1	navigation/STIM_007.jpg	99
254.614	3.769	3769.1	navigation	Trial1	navigation/STIM_007.jpg	100
260.698	2.689	2689.1	navigation	Trial1	navigation/STIM_007.jpg	99
266.737	2.566	2566.2	navigation	Trial1	navigation/STIM_008.jpg	99
272.389	2.235	2234.8	navigation	Trial1	navigation/STIM_008.jpg	99
277.437	3.292	3291.8	navigation	Trial1	navigation/STIM_008.jpg	99
284.678	2.521	2521.2	navigation	Trial1	navigation/STIM_008.jpg	99
289.638	1.904	1903.9	navigation	Trial1	navigation/STIM_008.jpg	99
294.141	2.36	2360.4	navigation	Trial1	navigation/STIM_008.jpg	100
300.409	2.412	2412.1	navigation	Trial1	navigation/STIM_009.jpg	100
304.991	4.281	4281.2	navigation	Trial1	navigation/STIM_009.jpg	99
312.732	2.688	2688.3	navigation	Trial1	navigation/STIM_009.jpg	100
317.902	2.25	2250.2	navigation	Trial1	navigation/STIM_009.jpg	99
322.625	1.879	1878.7	navigation	Trial1	navigation/STIM_009.jpg	99
327.63	1.902	1901.5	navigation	Trial1	navigation/STIM_009.jpg	100
333.516	3.05	3049.9	navigation	Trial1	navigation/STIM_010.jpg	99
338.878	3.832	3832.3	navigation	Trial1	navigation/STIM_010.jpg	100
345.515	3.913	3912.7	navigation	Trial1	navigation/STIM_010.jpg	99
351.717	4.07	4069.8	navigation	Trial1	navigation/STIM_010.jpg	100
358.841	1.546	1545.7	navigation	Trial1	navigation/STIM_010.jpg	99
362.516	1.631	1630.6	navigation	Trial1	navigation/STIM_010.jpg	99
368.098	4.631	4631.3	navigation	Trial1	navigation/STIM_011.jpg	99
375.477	2.019	2019.1	navigation	Trial1	navigation/STIM_011.jpg	99
380.058	2.372	2371.9	navigation	Trial1	navigation/STIM_011.jpg	100
384.431	3.365	3364.9	navigation	Trial1	navigation/STIM_011.jpg	99
390.108	3.836	3835.9	navigation	Trial1	navigation/STIM_011.jpg	100
396.383	2.704	2703.8	navigation	Trial1	navigation/STIM_011.jpg	99
402.17	1.27	1270.0	pointing	Trial1	pointing/STIM_000.jpg	99
406.33	1.122	1121.5	pointing	Trial1	pointing/STIM_000.jpg	99
411.214	1.095	1094.9	pointing	Trial1	pointing/STIM_000.jpg	100
414.708	1.357	1357.4	pointing	Trial1	pointing/STIM_000.jpg	99
418.17	0.975	974.9	pointing	Trial1	pointing/STIM_000.jpg	99
421.477	0.776	776.1	pointing	Trial1	pointing/STIM_000.jpg	100
425.987	1.419	1418.7	pointing	Trial1	pointing/STIM_001.jpg	100
430.118	0.924	923.8	pointing	Trial1	pointing/STIM_001.jpg	100
434.877	1.323	1323.2	pointing	Trial1	pointing/STIM_001.jpg	99
438.372	1.423	1423.1	pointing	Trial1	pointing/STIM_001.jpg	100
442.153	1.428	1428.4	pointing	Trial1	pointing/STIM_001.jpg	100
445.943	1.026	1026.5	pointing	Trial1	pointing/STIM_001.jpg	100
450.742	0.973	973.0	pointing	Trial1	pointing/STIM_002.jpg	100
454.618	1.007	1006.7	pointing	Trial1	pointing/STIM_002.jpg	99
457.762	1.009	1009.4	pointing	Trial1	pointing/STIM_002.jpg	99
461.943	0.801	801.2	pointing	Trial1	pointing/STIM_002.jpg	100
465.327	1.365	1364.7	pointing	Trial1	pointing/STIM_002.jpg	100
468.792	0.838	837.6	pointing	Trial1	pointing/STIM_002.jpg	99
472.681	1.428	1428.0	pointing	Trial1	pointing/STIM_003.jpg	100
476.809	0.929	929.2	pointing	Trial1	pointing/STIM_003.jpg	100
481.225	1.419	1419.3	pointing	Trial1	pointing/STIM_003.jpg	100
484.679	0.911	911.3	pointing	Trial1	pointing/STIM_003.jpg	99
488.74	0.946	946.1	pointing	Trial1	pointing/STIM_003.jpg	100
491.809	1.15	1150.1	pointing	Trial1	pointing/STIM_003.jpg	100
495.218	1.413	1413.4	pointing	Trial1	pointing/STIM_004.jpg	99
499.935	1.422	1421.5	pointing	Trial1	pointing/STIM_004.jpg	100
504.258	1.123	1123.2	pointing	Trial1	pointing/STIM_004.jpg	100
507.889	1.337	1336.6	pointing	Trial1	pointing/STIM_004.jpg	99
512.472	1.009	1008.9	pointing	Trial1	pointing/STIM_004.jpg	100
517.265	1.314	1313.7	pointing	Trial1	pointing/STIM_004.jpg	100
521.807	1.21	1209.7	pointing	Trial1	pointing/STIM_005.jpg	99
525.478	1.355	1354.6	pointing	Trial1	pointing/STIM_005.jpg	99
529.462	1.328	1327.9	pointing	Trial1	pointing/STIM_005.jpg	100
532.959	0.793	793.1	pointing	Trial1	pointing/STIM_005.jpg	99
537.723	1.19	1189.8	pointing	Trial1	pointing/STIM_005.jpg	100
542.293	1.263	1263.2	pointing	Trial1	pointing/STIM_005.jpg	100
546.896	1.387	1387.4	pointing	Trial1	pointing/STIM_006.jpg	100
551.262	1.369	1368.6	pointing	Trial1	pointing/STIM_006.jpg	99
556.319	1.19	1190.4	pointing	Trial1	pointing/STIM_006.jpg	100
560.394	0.914	913.5	pointing	Trial1	pointing/STIM_006.jpg	99
564.355	1.127	1127.2	pointing	Trial1	pointing/STIM_006.jpg	100
568.99	1.114	1114.4	pointing	Trial1	pointing/STIM_006.jpg	100
574.017	0.964	963.5	pointing	Trial1	pointing/STIM_007.jpg	99
578.496	1.372	1371.6	pointing	Trial1	pointing/STIM_007.jpg	99
583.862	1.001	1000.9	pointing	Trial1	pointing/STIM_007.jpg	99
588.259	1.159	1159.3	pointing	Trial1	pointing/STIM_007.jpg	99
592.881	1.368	1368.4	pointing	Trial1	pointing/STIM_007.jpg	99
598.036	1.162	1161.7	pointing	Trial1	pointing/STIM_007.jpg	100
602.693	0.789	788.6	pointing	Trial1	pointing/STIM_008.jpg	100
607.435	1.114	1113.9	pointing	Trial1	pointing/STIM_008.jpg	99
612.095	0.777	777.1	pointing	Trial1	pointing/STIM_008.jpg	99
616.214	1.149	1148.6	pointing	Trial1	pointing/STIM_008.jpg	100
620.187	1.422	1421.8	pointing	Trial1	pointing/STIM_008.jpg	99
625.222	1.403	1403.2	pointing	Trial1	pointing/STIM_008.jpg	99
630.58	1.338	1337.7	pointing	Trial1	pointing/STIM_009.jpg	100
635.197	0.934	933.8	pointing	Trial1	pointing/STIM_009.jpg	99
638.605	1.116	1116.2	pointing	Trial1	pointing/STIM_009.jpg	99
642.524	0.908	908.3	pointing	Trial1	pointing/STIM_009.jpg	99
646.897	1.124	1124.3	pointing	Trial1	pointing/STIM_009.jpg	100
651.847	0.92	919.9	pointing	Trial1	pointing/STIM_009.jpg	99
655.708	1.093	1093.4	pointing	Trial1	pointing/STIM_010.jpg	100
659.678	1.195	1195.3	pointing	Trial1	pointing/STIM_010.jpg	100
663.214	1.058	1057.5	pointing	Trial1	pointing/STIM_010.jpg	99
667.12	0.938	938.1	pointing	Trial1	pointing/STIM_010.jpg	100
670.45	1.3	1299.9	pointing	Trial1	pointing/STIM_010.jpg	99
673.983	0.882	882.2	pointing	Trial1	pointing/STIM_010.jpg	100
678.277	0.873	873.0	pointing	Trial1	pointing/STIM_011.jpg	99
683.106	1.358	1358.5	pointing	Trial1	pointing/STIM_011.jpg	99
686.69	0.961	960.6	pointing	Trial1	pointing/STIM_011.jpg	100
691.463	1.069	1069.2	pointing	Trial1	pointing/STIM_011.jpg	100
695.516	1.058	1057.8	pointing	Trial1	pointing/STIM_011.jpg	99
699.904	1.381	1380.7	pointing	Trial1	pointing/STIM_011.jpg	100
704.696	3.951	3951.3	navigation	Trial2	navigation/STIM_000.jpg	100
712.227	1.68	1679.6	navigation	Trial2	navigation/STIM_000.jpg	99
717.326	2.478	2477.5	navigation	Trial2	navigation/STIM_000.jpg	99
722.893	1.457	1456.8	navigation	Trial2	navigation/STIM_000.jpg	99
726.672	1.49	1490.5	navigation	Trial2	navigation/STIM_000.jpg	99
730.232	2.1	2100.5	navigation	Trial2	navigation/STIM_000.jpg	99
736.157	3.665	3665.2	navigation	Trial2	navigation/STIM_001.jpg	99
742.453	2.371	2371.3	navigation	Trial2	navigation/STIM_001.jpg	100
747.177	1.824	1823.9	navigation	Trial2	navigation/STIM_001.jpg	100
752.189	3.172	3172.3	navigation	Trial2	navigation/STIM_001.jpg	99
759.0	2.166	2166.3	navigation	Trial2	navigation/STIM_001.jpg	99
763.806	2.494	2494.0	navigation	Trial2	navigation/STIM_001.jpg	99
768.39	3.801	3801.2	navigation	Trial2	navigation/STIM_002.jpg	100
774.962	3.213	3213.3	navigation	Trial2	navigation/STIM_002.jpg	100
781.531	2.039	2039.1	navigation	Trial2	navigation/STIM_002.jpg	100
785.88	1.61	1610.1	navigation	Trial2	navigation/STIM_002.jpg	100
789.937	2.676	2675.8	navigation	Trial2	navigation/STIM_002.jpg	100
795.882	1.946	1945.6	navigation	Trial2	navigation/STIM_002.jpg	99
800.069	3.301	3300.7	navigation	Trial2	navigation/STIM_003.jpg	99
806.777	3.6	3600.3	navigation	Trial2	navigation/STIM_003.jpg	100
813.312	1.802	1801.8	navigation	Trial2	navigation/STIM_003.jpg	99
817.116	2.106	2106.5	navigation	Trial2	navigation/STIM_003.jpg	99
821.962	3.194	3194.4	navigation	Trial2	navigation/STIM_003.jpg	99
827.974	2.263	2262.7	navigation	Trial2	navigation/STIM_003.jpg	100
834.041	2.353	2353.2	navigation	Trial2	navigation/STIM_004.jpg	99
838.804	3.094	3093.6	navigation	Trial2	navigation/STIM_004.jpg	100
844.198	2.749	2749.2	navigation	Trial2	navigation/STIM_004.jpg	100
850.247	2.701	2701.3	navigation	Trial2	navigation/STIM_004.jpg	100
855.443	2.165	2165.0	navigation	Trial2	navigation/STIM_004.jpg	100
860.587	2.993	2992.7	navigation	Trial2	navigation/STIM_004.jpg	99
865.768	3.556	3555.8	navigation	Trial2	navigation/STIM_005.jpg	100
872.894	3.81	3809.7	navigation	Trial2	navigation/STIM_005.jpg	100
880.294	2.461	2460.9	navigation	Trial2	navigation/STIM_005.jpg	99
886.403	1.627	1626.6	navigation	Trial2	navigation/STIM_005.jpg	99
890.855	2.268	2267.8	navigation	Trial2	navigation/STIM_005.jpg	99
895.663	1.349	1349.4	navigation	Trial2	navigation/STIM_005.jpg	100
900.889	2.951	2951.1	navigation	Trial2	navigation/STIM_006.jpg	99
906.349	1.541	1541.2	navigation	Trial2	navigation/STIM_006.jpg	100
910.17	3.132	3131.6	navigation	Trial2	navigation/STIM_006.jpg	100
916.201	2.15	2149.9	navigation	Trial2	navigation/STIM_006.jpg	100
920.537	2.636	2635.9	navigation	Trial2	navigation/STIM_006.jpg	99
927.006	3.038	3038.4	navigation	Trial2	navigation/STIM_006.jpg	100
933.291	2.72	2720.5	navigation	Trial2	navigation/STIM_007.jpg	100
938.109	3.153	3152.7	navigation	Trial2	navigation/STIM_007.jpg	100
943.919	2.077	2076.6	navigation	Trial2	navigation/STIM_007.jpg	99
949.546	2.493	2492.9	navigation	Trial2	navigation/STIM_007.jpg	99
954.793	2.928	2927.9	navigation	Trial2	navigation/STIM_007.jpg	99
961.695	2.556	2556.5	navigation	Trial2	navigation/STIM_007.jpg	100
966.417	3.712	3712.2	navigation	Trial2	navigation/STIM_008.jpg	99
974.096	1.927	1927.4	navigation	Trial2	navigation/STIM_008.jpg	99
978.37	2.142	2141.5	navigation	Trial2	navigation/STIM_008.jpg	100
983.853	3.064	3063.6	navigation	Trial2	navigation/STIM_008.jpg	100
990.333	3.344	3343.5	navigation	Trial2	navigation/STIM_008.jpg	99
996.816	2.9	2899.7	navigation	Trial2	navigation/STIM_008.jpg	100
1003.163	2.63	2629.9	navigation	Trial2	navigation/STIM_009.jpg	99
1009.256	1.741	1741.1	navigation	Trial2	navigation/STIM_009.jpg	99
1014.798	2.203	2202.6	navigation	Trial2	navigation/STIM_009.jpg	99
1020.571	3.024	3023.5	navigation	Trial2	navigation/STIM_009.jpg	100
1027.393	2.194	2193.6	navigation	Trial2	navigation/STIM_009.jpg	100
1033.174	2.455	2455.2	navigation	Trial2	navigation/STIM_009.jpg	100
1039.602	2.231	2231.4	navigation	Trial2	navigation/STIM_010.jpg	99
1044.913	2.758	2758.5	navigation	Trial2	navigation/STIM_010.jpg	99
1050.803	2.17	2170.5	navigation	Trial2	navigation/STIM_010.jpg	99
1056.201	2.708	2707.6	navigation	Trial2	navigation/STIM_010.jpg	100
1061.221	2.078	2078.4	navigation	Trial2	navigation/STIM_010.jpg	100
1066.176	3.034	3034.1	navigation	Trial2	navigation/STIM_010.jpg	100
1073.058	3.478	3478.4	navigation	Trial2	navigation/STIM_011.jpg	99
1080.515	2.511	2511.0	navigation	Trial2	navigation/STIM_011.jpg	99
1086.879	1.498	1498.3	navigation	Trial2	navigation/STIM_011.jpg	99
1091.419	2.874	2874.4	navigation	Trial2	navigation/STIM_011.jpg	99
1096.934	2.569	2569.4	navigation	Trial2	navigation/STIM_011.jpg	99
1102.319	2.886	2886.4	navigation	Trial2	navigation/STIM_011.jpg	99
1107.416	1.227	1226.6	pointing	Trial2	pointing/STIM_000.jpg	100
1111.593	1.048	1047.9	pointing	Trial2	pointing/STIM_000.jpg	100
1115.029	1.42	1420.2	pointing	Trial2	pointing/STIM_000.jpg	99
1118.915	0.894	894.4	pointing	Trial2	pointing/STIM_000.jpg	100
1123.026	1.345	1344.7	pointing	Trial2	pointing/STIM_000.jpg	100
1127.942	1.121	1120.7	pointing	Trial2	pointing/STIM_000.jpg	99
1131.437	1.021	1020.6	pointing	Trial2	pointing/STIM_001.jpg	99
1135.729	1.116	1115.6	pointing	Trial2	pointing/STIM_001.jpg	100
1140.183	0.924	924.5	pointing	Trial2	pointing/STIM_001.jpg	100
1143.817	1.038	1037.8	pointing	Trial2	pointing/STIM_001.jpg	100
1147.318	1.3	1300.3	pointing	Trial2	pointing/STIM_001.jpg	99
1151.673	1.21	1209.9	pointing	Trial2	pointing/STIM_001.jpg	100
1156.062	1.326	1326.4	pointing	Trial2	pointing/STIM_002.jpg	100
1161.385	1.105	1105.0	pointing	Trial2	pointing/STIM_002.jpg	100
1166.177	1.287	1286.9	pointing	Trial2	pointing/STIM_002.jpg	99
1170.858	1.412	1412.4	pointing	Trial2	pointing/STIM_002.jpg	100
1175.329	0.908	907.9	pointing	Trial2	pointing/STIM_002.jpg	99
1178.759	0.787	787.0	pointing	Trial2	pointing/STIM_002.jpg	100
1183.424	1.275	1274.9	pointing	Trial2	pointing/STIM_003.jpg	100
1187.677	0.941	941.4	pointing	Trial2	pointing/STIM_003.jpg	100
1190.646	0.909	908.9	pointing	Trial2	pointing/STIM_003.jpg	100
1194.337	0.804	804.5	pointing	Trial2	pointing/STIM_003.jpg	99
1197.706	1.244	1244.2	pointing	Trial2	pointing/STIM_003.jpg	99
1201.049	1.044	1044.1	pointing	Trial2	pointing/STIM_003.jpg	99
1205.357	1.335	1334.9	pointing	Trial2	pointing/STIM_004.jpg	100
1209.893	1.154	1153.5	pointing	Trial2	pointing/STIM_004.jpg	100
1214.12	0.79	790.3	pointing	Trial2	pointing/STIM_004.jpg	99
1216.932	1.25	1250.3	pointing	Trial2	pointing/STIM_004.jpg	99
1221.636	0.864	864.3	pointing	Trial2	pointing/STIM_004.jpg	100
1225.192	1.195	1195.4	pointing	Trial2	pointing/STIM_004.jpg	100
1229.859	0.868	868.0	pointing	Trial2	pointing/STIM_005.jpg	99
1233.039	1.307	1307.2	pointing	Trial2	pointing/STIM_005.jpg	100
1236.76	1.42	1420.1	pointing	Trial2	pointing/STIM_005.jpg	100
1241.82	0.885	885.4	pointing	Trial2	pointing/STIM_005.jpg	99
1244.871	1.138	1137.8	pointing	Trial2	pointing/STIM_005.jpg	100
1248.428	0.938	938.0	pointing	Trial2	pointing/STIM_005.jpg	100
1252.186	0.829	829.0	pointing	Trial2	pointing/STIM_006.jpg	99
1255.982	1.273	1273.4	pointing	Trial2	pointing/STIM_006.jpg	100
1261.038	1.221	1220.9	pointing	Trial2	pointing/STIM_006.jpg	99
1266.016	1.139	1139.1	pointing	Trial2	pointing/STIM_006.jpg	100
1270.99	0.937	936.7	pointing	Trial2	pointing/STIM_006.jpg	100
1275.404	1.207	1207.4	pointing	Trial2	pointing/STIM_006.jpg	100
1279.253	1.368	1367.8	pointing	Trial2	pointing/STIM_007.jpg	100
1284.179	1.024	1023.8	pointing	Trial2	pointing/STIM_007.jpg	100
1287.725	1.253	1253.0	pointing	Trial2	pointing/STIM_007.jpg	100
1292.338	1.101	1100.6	pointing	Trial2	pointing/STIM_007.jpg	99
1296.226	0.961	960.7	pointing	Trial2	pointing/STIM_007.jpg	99
1299.826	1.429	1429.4	pointing	Trial2	pointing/STIM_007.jpg	100
1304.406	1.047	1047.1	pointing	Trial2	pointing/STIM_008.jpg	99
1308.982	1.198	1197.8	pointing	Trial2	pointing/STIM_008.jpg	100
1312.718	0.924	923.8	pointing	Trial2	pointing/STIM_008.jpg	100
1316.388	0.91	910.5	pointing	Trial2	pointing/STIM_008.jpg	99
1321.191	1.115	1115.0	pointing	Trial2	pointing/STIM_008.jpg	100
1325.282	0.814	814.1	pointing	Trial2	pointing/STIM_008.jpg	99
1328.358	1.083	1083.2	pointing	Trial2	pointing/STIM_009.jpg	99
1331.612	0.801	800.8	pointing	Trial2	pointing/STIM_009.jpg	99
1336.392	1.428	1427.6	pointing	Trial2	pointing/STIM_009.jpg	99
1340.864	1.259	1259.1	pointing	Trial2	pointing/STIM_009.jpg	99
1346.098	1.339	1339.0	pointing	Trial2	pointing/STIM_009.jpg	99
1350.412	1.094	1093.5	pointing	Trial2	pointing/STIM_009.jpg	100
1355.123	1.037	1036.8	pointing	Trial2	pointing/STIM_010.jpg	100
1359.68	1.304	1304.5	pointing	Trial2	pointing/STIM_010.jpg	100
1364.85	1.419	1419.4	pointing	Trial2	pointing/STIM_010.jpg	99
1369.542	1.215	1215.4	pointing	Trial2	pointing/STIM_010.jpg	99
1373.904	0.987	987.1	pointing	Trial2	pointing/STIM_010.jpg	99
1376.893	1.038	1038.4	pointing	Trial2	pointing/STIM_010.jpg	100
1380.35	0.895	894.9	pointing	Trial2	pointing/STIM_011.jpg	99
1384.923	1.035	1035.1	pointing	Trial2	pointing/STIM_011.jpg	100
1388.447	1.424	1423.8	pointing	Trial2	pointing/STIM_011.jpg	99
1392.816	1.036	1035.8	pointing	Trial2	pointing/STIM_011.jpg	100
1397.447	0.873	873.3	pointing	Trial2	pointing/STIM_011.jpg	99
1402.299	1.088	1087.5	pointing	Trial2	pointing/STIM_011.jpg	100
1407.332	2.507	2507.3	navigation	Trial3	navigation/STIM_000.jpg	99
1412.022	3.124	3124.3	navigation	Trial3	navigation/STIM_000.jpg	100
1418.039	1.672	1672.0	navigation	Trial3	navigation/STIM_000.jpg	100
1422.647	1.542	1542.4	navigation	Trial3	navigation/STIM_000.jpg	100
1427.298	2.156	2155.7	navigation	Trial3	navigation/STIM_000.jpg	100
1432.756	2.095	2094.8	navigation	Trial3	navigation/STIM_000.jpg	100
1438.421	3.217	3216.7	navigation	Trial3	navigation/STIM_001.jpg	99
1444.034	3.182	3181.5	navigation	Trial3	navigation/STIM_001.jpg	99
1449.694	2.502	2501.9	navigation	Trial3	navigation/STIM_001.jpg	99
1455.801	3.227	3226.8	navigation	Trial3	navigation/STIM_001.jpg	100
1461.11	3.2	3200.4	navigation	Trial3	navigation/STIM_001.jpg	99
1467.812	2.334	2333.5	navigation	Trial3	navigation/STIM_001.jpg	99
1473.942	2.161	2161.1	navigation	Trial3	navigation/STIM_002.jpg	99
1479.534	1.836	1836.2	navigation	Trial3	navigation/STIM_002.jpg	99
1484.324	2.935	2934.6	navigation	Trial3	navigation/STIM_002.jpg	100
1490.351	2.603	2603.0	navigation	Trial3	navigation/STIM_002.jpg	99
1495.173	2.645	2645.4	navigation	Trial3	navigation/STIM_002.jpg	100
1501.075	1.473	1473.2	navigation	Trial3	navigation/STIM_002.jpg	99
1505.377	2.605	2605.3	navigation	Trial3	navigation/STIM_003.jpg	99
1511.945	3.345	3344.7	navigation	Trial3	navigation/STIM_003.jpg	99
1519.252	2.558	2558.5	navigation	Trial3	navigation/STIM_003.jpg	100
1525.237	3.183	3183.0	navigation	Trial3	navigation/STIM_003.jpg	100
1530.605	1.602	1602.1	navigation	Trial3	navigation/STIM_003.jpg	99
1535.199	3.116	3116.0	navigation	Trial3	navigation/STIM_003.jpg	100
1541.789	2.072	2071.7	navigation	Trial3	navigation/STIM_004.jpg	99
1546.86	1.698	1697.8	navigation	Trial3	navigation/STIM_004.jpg	99
1550.636	1.361	1360.9	navigation	Trial3	navigation/STIM_004.jpg	99
1555.823	2.795	2795.4	navigation	Trial3	navigation/STIM_004.jpg	100
1561.47	1.386	1386.5	navigation	Trial3	navigation/STIM_004.jpg	100
1566.526	2.826	2825.5	navigation	Trial3	navigation/STIM_004.jpg	99
1573.123	2.088	2087.9	navigation	Trial3	navigation/STIM_005.jpg	99
1578.255	2.913	2913.3	navigation	Trial3	navigation/STIM_005.jpg	99
1584.492	2.137	2136.8	navigation	Trial3	navigation/STIM_005.jpg	99
1589.459	1.583	1583.3	navigation	Trial3	navigation/STIM_005.jpg	99
1594.083	2.038	2038.2	navigation	Trial3	navigation/STIM_005.jpg	100
1599.914	1.359	1359.1	navigation	Trial3	navigation/STIM_005.jpg	100
1603.982	1.367	1367.0	navigation	Trial3	navigation/STIM_006.jpg	100
1608.149	1.377	1377.3	navigation	Trial3	navigation/STIM_006.jpg	99
1613.277	2.172	2172.5	navigation	Trial3	navigation/STIM_006.jpg	99
1617.719	2.792	2792.0	navigation	Trial3	navigation/STIM_006.jpg	99
1623.374	2.27	2270.3	navigation	Trial3	navigation/STIM_006.jpg	100
1628.518	2.713	2713.3	navigation	Trial3	navigation/STIM_006.jpg	99
1634.413	3.304	3303.8	navigation	Trial3	navigation/STIM_007.jpg	99
1641.381	3.094	3093.9	navigation	Trial3	navigation/STIM_007.jpg	100
1646.586	2.943	2942.6	navigation	Trial3	navigation/STIM_007.jpg	99
1652.589	2.964	2963.8	navigation	Trial3	navigation/STIM_007.jpg	99
1658.752	1.616	1615.8	navigation	Trial3	navigation/STIM_007.jpg	100
1663.199	2.195	2194.9	navigation	Trial3	navigation/STIM_007.jpg	100
1669.236	1.783	1782.7	navigation	Trial3	navigation/STIM_008.jpg	100
1673.417	1.967	1967.0	navigation	Trial3	navigation/STIM_008.jpg	100
1678.939	3.341	3341.4	navigation	Trial3	navigation/STIM_008.jpg	99
1684.384	1.704	1703.6	navigation	Trial3	navigation/STIM_008.jpg	100
1689.21	1.546	1546.0	navigation	Trial3	navigation/STIM_008.jpg	99
1692.79	2.999	2999.1	navigation	Trial3	navigation/STIM_008.jpg	100
1698.958	1.901	1900.8	navigation	Trial3	navigation/STIM_009.jpg	99
1703.964	1.752	1752.5	navigation	Trial3	navigation/STIM_009.jpg	99
1708.508	2.439	2438.9	navigation	Trial3	navigation/STIM_009.jpg	99
1713.628	2.598	2597.9	navigation	Trial3	navigation/STIM_009.jpg	99
1718.715	2.63	2630.1	navigation	Trial3	navigation/STIM_009.jpg	99
1724.633	3.208	3207.5	navigation	Trial3	navigation/STIM_009.jpg	99
1730.039	1.806	1806.3	navigation	Trial3	navigation/STIM_010.jpg	99
1734.61	2.839	2839.4	navigation	Trial3	navigation/STIM_010.jpg	100
1739.911	2.782	2782.2	navigation	Trial3	navigation/STIM_010.jpg	99
1745.592	1.672	1671.5	navigation	Trial3	navigation/STIM_010.jpg	100
1750.893	2.181	2181.3	navigation	Trial3	navigation/STIM_010.jpg	100
1756.172	1.466	1465.6	navigation	Trial3	navigation/STIM_010.jpg	100
1761.603	1.504	1504.0	navigation	Trial3	navigation/STIM_011.jpg	99
1765.619	2.322	2321.9	navigation	Trial3	navigation/STIM_011.jpg	99
1771.806	2.525	2524.9	navigation	Trial3	navigation/STIM_011.jpg	100
1776.799	1.726	1726.1	navigation	Trial3	navigation/STIM_011.jpg	100
1782.081	1.588	1587.9	navigation	Trial3	navigation/STIM_011.jpg	99
1787.664	2.023	2022.7	navigation	Trial3	navigation/STIM_011.jpg	100
1791.932	0.974	974.0	pointing	Trial3	pointing/STIM_000.jpg	100
1795.558	0.778	778.5	pointing	Trial3	pointing/STIM_000.jpg	100
1799.701	0.783	783.0	pointing	Trial3	pointing/STIM_000.jpg	100
1803.441	1.343	1342.7	pointing	Trial3	pointing/STIM_000.jpg	100
1807.874	0.903	903.0	pointing	Trial3	pointing/STIM_000.jpg	100
1810.928	1.144	1143.7	pointing	Trial3	pointing/STIM_000.jpg	100
1814.163	0.963	963.3	pointing	Trial3	pointing/STIM_001.jpg	99
1818.707	0.858	858.1	pointing	Trial3	pointing/STIM_001.jpg	99
1822.071	0.884	884.3	pointing	Trial3	pointing/STIM_001.jpg	100
1826.65	1.231	1231.0	pointing	Trial3	pointing/STIM_001.jpg	100
1831.224	1.321	1320.6	pointing	Trial3	pointing/STIM_001.jpg	100
1835.926	1.02	1019.6	pointing	Trial3	pointing/STIM_001.jpg	99
1840.121	1.36	1360.1	pointing	Trial3	pointing/STIM_002.jpg	99
1843.782	1.216	1216.3	pointing	Trial3	pointing/STIM_002.jpg	100
1848.068	1.267	1266.7	pointing	Trial3	pointing/STIM_002.jpg	99
1852.828	1.106	1106.1	pointing	Trial3	pointing/STIM_002.jpg	100
1857.383	0.836	836.2	pointing	Trial3	pointing/STIM_002.jpg	99
1862.021	1.237	1236.9	pointing	Trial3	pointing/STIM_002.jpg	100
1865.692	0.858	857.8	pointing	Trial3	pointing/STIM_003.jpg	100
1868.952	0.811	810.9	pointing	Trial3	pointing/STIM_003.jpg	99
1872.538	1.395	1395.2	pointing	Trial3	pointing/STIM_003.jpg	99
1877.14	1.341	1341.0	pointing	Trial3	pointing/STIM_003.jpg	99
1881.534	1.115	1114.7	pointing	Trial3	pointing/STIM_003.jpg	100
1886.412	0.882	881.8	pointing	Trial3	pointing/STIM_003.jpg	99
1890.715	1.232	1231.9	pointing	Trial3	pointing/STIM_004.jpg	99
1895.757	0.86	860.3	pointing	Trial3	pointing/STIM_004.jpg	100
1898.684	1.122	1122.1	pointing	Trial3	pointing/STIM_004.jpg	99
1903.433	1.083	1083.3	pointing	Trial3	pointing/STIM_004.jpg	99
1906.762	0.774	773.5	pointing	Trial3	pointing/STIM_004.jpg	100
1909.748	1.122	1122.5	pointing	Trial3	pointing/STIM_004.jpg	99
1914.066	0.784	784.3	pointing	Trial3	pointing/STIM_005.jpg	100
1918.328	0.802	802.2	pointing	Trial3	pointing/STIM_005.jpg	99
1922.798	0.795	795.3	pointing	Trial3	pointing/STIM_005.jpg	100
1927.479	0.933	933.1	pointing	Trial3	pointing/STIM_005.jpg	100
1931.018	0.9	900.5	pointing	Trial3	pointing/STIM_005.jpg	100
1935.668	1.099	1099.4	pointing	Trial3	pointing/STIM_005.jpg	100
1940.624	0.806	806.5	pointing	Trial3	pointing/STIM_006.jpg	100
1945.004	0.823	823.2	pointing	Trial3	pointing/STIM_006.jpg	100
1948.676	1.278	1278.2	pointing	Trial3	pointing/STIM_006.jpg	100
1952.409	0.918	917.5	pointing	Trial3	pointing/STIM_006.jpg	99
1957.152	0.827	826.6	pointing	Trial3	pointing/STIM_006.jpg	100
1961.639	0.904	904.4	pointing	Trial3	pointing/STIM_006.jpg	100
1964.907	0.959	958.6	pointing	Trial3	pointing/STIM_007.jpg	100
1968.923	1.104	1104.4	pointing	Trial3	pointing/STIM_007.jpg	100
1972.135	1.256	1256.1	pointing	Trial3	pointing/STIM_007.jpg	99
1977.315	0.857	857.1	pointing	Trial3	pointing/STIM_007.jpg	99
1980.458	0.816	815.5	pointing	Trial3	pointing/STIM_007.jpg	100
1984.911	1.072	1072.1	pointing	Trial3	pointing/STIM_007.jpg	99
1988.857	1.051	1050.8	pointing	Trial3	pointing/STIM_008.jpg	99
1993.251	0.869	868.7	pointing	Trial3	pointing/STIM_008.jpg	100
1996.977	1.259	1259.3	pointing	Trial3	pointing/STIM_008.jpg	99
2000.631	1.353	1353.3	pointing	Trial3	pointing/STIM_008.jpg	99
2005.248	1.302	1302.3	pointing	Trial3	pointing/STIM_008.jpg	99
2009.699	0.816	816.3	pointing	Trial3	pointing/STIM_008.jpg	100
2013.984	0.967	967.0	pointing	Trial3	pointing/STIM_009.jpg	99
2017.066	0.934	933.5	pointing	Trial3	pointing/STIM_009.jpg	99
2020.784	1.4	1399.5	pointing	Trial3	pointing/STIM_009.jpg	99
2024.261	1.025	1024.8	pointing	Trial3	pointing/STIM_009.jpg	99
2028.083	1.327	1327.4	pointing	Trial3	pointing/STIM_009.jpg	99
2032.097	1.386	1385.6	pointing	Trial3	pointing/STIM_009.jpg	100
2037.472	0.997	996.7	pointing	Trial3	pointing/STIM_010.jpg	99
2041.924	1.398	1398.4	pointing	Trial3	pointing/STIM_010.jpg	99
2045.766	0.989	989.4	pointing	Trial3	pointing/STIM_010.jpg	100
2050.05	0.962	961.9	pointing	Trial3	pointing/STIM_010.jpg	99
2054.201	1.006	1006.5	pointing	Trial3	pointing/STIM_010.jpg	99
2057.926	1.248	1248.3	pointing	Trial3	pointing/STIM_010.jpg	100
2062.687	1.38	1380.3	pointing	Trial3	pointing/STIM_011.jpg	100
2066.476	1.4	1400.0	pointing	Trial3	pointing/STIM_011.jpg	99
2070.473	1.143	1142.7	pointing	Trial3	pointing/STIM_011.jpg	99
2075.01	0.965	965.0	pointing	Trial3	pointing/STIM_011.jpg	99
2078.228	1.141	1141.4	pointing	Trial3	pointing/STIM_011.jpg	99
2083.163	0.796	796.4	pointing	Trial3	pointing/STIM_011.jpg	99
