onset	duration	accuracy_binary	trial_type	learning_stage	stimulus
0.0	2.229	1	navigation	Trial1	navigation/STIM_000.jpg
4.64	3.49	1	navigation	Trial1	navigation/STIM_000.jpg
11.683	1.739	1	navigation	Trial1	navigation/STIM_000.jpg
16.949	2.73	1	navigation	Trial1	navigation/STIM_000.jpg
22.754	3.526	1	navigation	Trial1	navigation/STIM_000.jpg
29.888	3.323	1	navigation	Trial1	navigation/STIM_000.jpg
36.72	3.627	1	navigation	Trial1	navigation/STIM_001.jpg
43.137	2.658	0	navigation	Trial1	navigation/STIM_001.jpg
50.042	2.514	1	navigation	Trial1	navigation/STIM_001.jpg
56.096	2.279	1	navigation	Trial1	navigation/STIM_001.jpg
62.316	2.395	1	navigation	Trial1	navigation/STIM_001.jpg
68.635	3.248	1	navigation	Trial1	navigation/STIM_001.jpg
74.226	2.847	1	navigation	Trial1	navigation/STIM_002.jpg
79.762	3.933	1	navigation	Trial1	navigation/STIM_002.jpg
87.718	3.599	0	navigation	Trial1	navigation/STIM_002.jpg
94.676	2.892	1	navigation	Trial1	navigation/STIM_002.jpg
100.173	2.812	1	navigation	Trial1	navigation/STIM_002.jpg
106.903	1.752	1	navigation	Trial1	navigation/STIM_002.jpg
112.487	1.971	0	navigation	Trial1	navigation/STIM_003.jpg
117.332	3.843	1	navigation	Trial1	navigation/STIM_003.jpg
124.642	3.693	0	navigation	Trial1	navigation/STIM_003.jpg
132.644	3.755	1	navigation	Trial1	navigation/STIM_003.jpg
139.153	2.288	1	navigation	Trial1	navigation/STIM_003.jpg
144.283	2.865	1	navigation	Trial1	navigation/STIM_003.jpg
149.921	2.665	1	navigation	Trial1	navigation/STIM_004.jpg
155.351	4.276	1	navigation	Trial1	navigation/STIM_004.jpg
164.039	1.994	0	navigation	Trial1	navigation/STIM_004.jpg
168.759	3.254	0	navigation	Trial1	navigation/STIM_004.jpg
175.449	2.799	0	navigation	Trial1	navigation/STIM_004.jpg
180.723	2.388	1	navigation	Trial1	navigation/STIM_004.jpg
186.036	3.63	1	navigation	Trial1	navigation/STIM_005.jpg
193.623	2.541	1	navigation	Trial1	navigation/STIM_005.jpg
199.974	3.359	0	navigation	Trial1	navigation/STIM_005.jpg
206.569	2.674	0	navigation	Trial1	navigation/STIM_005.jpg
212.549	2.741	1	navigation	Trial1	navigation/STIM_005.jpg
218.758	3.165	1	navigation	Trial1	navigation/STIM_005.jpg
224.721	3.671	1	navigation	Trial1	navigation/STIM_006.jpg
231.418	2.746	1	navigation	Trial1	navigation/STIM_006.jpg
238.094	2.683	1	navigation	Trial1	navigation/STIM_006.jpg
244.493	2.854	1	navigation	Trial1	navigation/STIM_006.jpg
251.464	3.453	1	navigation	Trial1	navigation/STIM_006.jpg
258.827	2.921	1	navigation	Trial1	navigation/STIM_006.jpg
265.762	1.966	1	navigation	Trial1	navigation/STIM_007.jpg
270.219	3.734	1	navigation	Trial1	navigation/STIM_007.jpg
277.518	3.495	1	navigation	Trial1	navigation/STIM_007.jpg
284.638	3.276	1	navigation	Trial1	navigation/STIM_007.jpg
291.887	2.067	0	navigation	Trial1	navigation/STIM_007.jpg
297.279	3.236	0	navigation	Trial1	navigation/STIM_007.jpg
304.619	1.97	0	navigation	Trial1	navigation/STIM_008.jpg
309.155	3.012	0	navigation	Trial1	navigation/STIM_008.jpg
315.778	2.907	0	navigation	Trial1	navigation/STIM_008.jpg
322.025	3.752	0	navigation	Trial1	navigation/STIM_008.jpg
328.816	1.774	1	navigation	Trial1	navigation/STIM_008.jpg
333.657	2.366	1	navigation	Trial1	navigation/STIM_008.jpg
338.623	2.55	1	navigation	Trial1	navigation/STIM_009.jpg
344.438	2.474	0	navigation	Trial1	navigation/STIM_009.jpg
350.823	3.804	1	navigation	Trial1	navigation/STIM_009.jpg
358.652	2.645	1	navigation	Trial1	navigation/STIM_009.jpg
364.214	3.316	1	navigation	Trial1	navigation/STIM_009.jpg
369.897	1.934	0	navigation	Trial1	navigation/STIM_009.jpg
374.358	3.245	1	navigation	Trial1	navigation/STIM_010.jpg
380.037	3.573	0	navigation	Trial1	navigation/STIM_010.jpg
386.81	3.054	1	navigation	Trial1	navigation/STIM_010.jpg
393.539	2.654	0	navigation	Trial1	navigation/STIM_010.jpg
399.464	1.954	0	navigation	Trial1	navigation/STIM_010.jpg
405.034	2.693	1	navigation	Trial1	navigation/STIM_010.jpg
411.498	2.055	0	navigation	Trial1	navigation/STIM_011.jpg
417.109	3.944	1	navigation	Trial1	navigation/STIM_011.jpg
424.814	2.63	0	navigation	Trial1	navigation/STIM_011.jpg
430.81	2.66	0	navigation	Trial1	navigation/STIM_011.jpg
437.345	2.909	0	navigation	Trial1	navigation/STIM_011.jpg
442.577	2.634	1	navigation	Trial1	navigation/STIM_011.jpg
448.506	1.104	1	pointing	Trial1	pointing/STIM_000.jpg
451.944	1.34	1	pointing	Trial1	pointing/STIM_000.jpg
456.858	1.206	1	pointing	Trial1	pointing/STIM_000.jpg
461.808	0.757	1	pointing	Trial1	pointing/STIM_000.jpg
466.303	0.802	1	pointing	Trial1	pointing/STIM_000.jpg
470.742	1.178	1	pointing	Trial1	pointing/STIM_000.jpg
475.039	1.211	1	pointing	Trial1	pointing/STIM_001.jpg
478.442	1.08	1	pointing	Trial1	pointing/STIM_001.jpg
483.544	0.915	1	pointing	Trial1	pointing/STIM_001.jpg
488.494	1.207	1	pointing	Trial1	pointing/STIM_001.jpg
492.306	0.905	1	pointing	Trial1	pointing/STIM_001.jpg
497.12	0.77	1	pointing	Trial1	pointing/STIM_001.jpg
501.963	1.289	1	pointing	Trial1	pointing/STIM_002.jpg
506.681	1.32	1	pointing	Trial1	pointing/STIM_002.jpg
511.315	1.199	1	pointing	Trial1	pointing/STIM_002.jpg
515.421	1.05	1	pointing	Trial1	pointing/STIM_002.jpg
519.105	0.945	1	pointing	Trial1	pointing/STIM_002.jpg
522.802	1.256	0	pointing	Trial1	pointing/STIM_002.jpg
527.141	1.333	1	pointing	Trial1	pointing/STIM_003.jpg
532.537	1.291	1	pointing	Trial1	pointing/STIM_003.jpg
536.993	0.998	0	pointing	Trial1	pointing/STIM_003.jpg
540.634	1.327	1	pointing	Trial1	pointing/STIM_003.jpg
545.542	0.771	1	pointing	Trial1	pointing/STIM_003.jpg
549.489	0.799	0	pointing	Trial1	pointing/STIM_003.jpg
553.615	1.331	1	pointing	Trial1	pointing/STIM_004.jpg
558.774	1.149	1	pointing	Trial1	pointing/STIM_004.jpg
562.783	1.241	1	pointing	Trial1	pointing/STIM_004.jpg
567.996	1.095	0	pointing	Trial1	pointing/STIM_004.jpg
572.974	1.185	1	pointing	Trial1	pointing/STIM_004.jpg
577.499	1.222	1	pointing	Trial1	pointing/STIM_004.jpg
581.086	1.349	1	pointing	Trial1	pointing/STIM_005.jpg
585.701	1.126	1	pointing	Trial1	pointing/STIM_005.jpg
589.787	0.829	1	pointing	Trial1	pointing/STIM_005.jpg
593.618	0.814	1	pointing	Trial1	pointing/STIM_005.jpg
597.739	1.205	1	pointing	Trial1	pointing/STIM_005.jpg
602.314	1.232	1	pointing	Trial1	pointing/STIM_005.jpg
606.235	1.094	1	pointing	Trial1	pointing/STIM_006.jpg
610.734	1.242	0	pointing	Trial1	pointing/STIM_006.jpg
615.465	0.998	1	pointing	Trial1	pointing/STIM_006.jpg
620.215	0.745	1	pointing	Trial1	pointing/STIM_006.jpg
624.137	1.267	1	pointing	Trial1	pointing/STIM_006.jpg
628.819	1.303	1	pointing	Trial1	pointing/STIM_006.jpg
633.102	0.963	1	pointing	Trial1	pointing/STIM_007.jpg
636.388	0.772	1	pointing	Trial1	pointing/STIM_007.jpg
640.594	1.314	1	pointing	Trial1	pointing/STIM_007.jpg
645.426	0.974	1	pointing	Trial1	pointing/STIM_007.jpg
648.889	0.924	1	pointing	Trial1	pointing/STIM_007.jpg
652.082	1.125	1	pointing	Trial1	pointing/STIM_007.jpg
656.247	1.219	1	pointing	Trial1	pointing/STIM_008.jpg
660.609	1.001	1	pointing	Trial1	pointing/STIM_008.jpg
663.892	0.852	1	pointing	Trial1	pointing/STIM_008.jpg
667.745	1.343	1	pointing	Trial1	pointing/STIM_008.jpg
671.728	1.344	1	pointing	Trial1	pointing/STIM_008.jpg
675.239	0.821	1	pointing	Trial1	pointing/STIM_008.jpg
678.481	0.839	1	pointing	Trial1	pointing/STIM_009.jpg
681.858	1.196	1	pointing	Trial1	pointing/STIM_009.jpg
685.473	0.776	0	pointing	Trial1	pointing/STIM_009.jpg
689.271	0.87	1	pointing	Trial1	pointing/STIM_009.jpg
693.215	0.893	1	pointing	Trial1	pointing/STIM_009.jpg
697.334	1.085	1	pointing	Trial1	pointing/STIM_009.jpg
702.202	0.903	0	pointing	Trial1	pointing/STIM_010.jpg
706.555	1.313	1	pointing	Trial1	pointing/STIM_010.jpg
711.973	1.249	1	pointing	Trial1	pointing/STIM_010.jpg
716.084	0.955	0	pointing	Trial1	pointing/STIM_010.jpg
720.087	1.185	1	pointing	Trial1	pointing/STIM_010.jpg
725.103	0.744	1	pointing	Trial1	pointing/STIM_010.jpg
728.313	1.088	1	pointing	Trial1	pointing/STIM_011.jpg
732.207	0.932	1	pointing	Trial1	pointing/STIM_011.jpg
736.066	1.318	1	pointing	Trial1	pointing/STIM_011.jpg
740.094	0.871	1	pointing	Trial1	pointing/STIM_011.jpg
744.272	1.09	1	pointing	Trial1	pointing/STIM_011.jpg
748.89	0.818	1	pointing	Trial1	pointing/STIM_011.jpg
753.545	2.12	1	navigation	Trial2	navigation/STIM_000.jpg
759.622	1.938	1	navigation	Trial2	navigation/STIM_000.jpg
764.804	2.402	1	navigation	Trial2	navigation/STIM_000.jpg
771.126	3.008	1	navigation	Trial2	navigation/STIM_000.jpg
777.84	2.002	1	navigation	Trial2	navigation/STIM_000.jpg
783.663	2.096	1	navigation	Trial2	navigation/STIM_000.jpg
789.232	2.088	0	navigation	Trial2	navigation/STIM_001.jpg
793.815	3.1	1	navigation	Trial2	navigation/STIM_001.jpg
801.17	3.224	1	navigation	Trial2	navigation/STIM_001.jpg
808.538	1.554	1	navigation	Trial2	navigation/STIM_001.jpg
814.18	1.699	1	navigation	Trial2	navigation/STIM_001.jpg
819.301	2.519	0	navigation	Trial2	navigation/STIM_001.jpg
824.348	2.844	0	navigation	Trial2	navigation/STIM_002.jpg
829.995	2.884	0	navigation	Trial2	navigation/STIM_002.jpg
835.525	2.969	1	navigation	Trial2	navigation/STIM_002.jpg
842.482	2.066	1	navigation	Trial2	navigation/STIM_002.jpg
846.905	1.472	1	navigation	Trial2	navigation/STIM_002.jpg
851.825	2.736	1	navigation	Trial2	navigation/STIM_002.jpg
857.263	3.005	1	navigation	Trial2	navigation/STIM_003.jpg
862.904	2.303	1	navigation	Trial2	navigation/STIM_003.jpg
868.989	2.298	1	navigation	Trial2	navigation/STIM_003.jpg
875.036	1.655	1	navigation	Trial2	navigation/STIM_003.jpg
880.28	2.828	0	navigation	Trial2	navigation/STIM_003.jpg
886.833	1.952	1	navigation	Trial2	navigation/STIM_003.jpg
891.7	1.941	1	navigation	Trial2	navigation/STIM_004.jpg
897.827	2.286	1	navigation	Trial2	navigation/STIM_004.jpg
904.126	2.938	1	navigation	Trial2	navigation/STIM_004.jpg
909.612	2.665	1	navigation	Trial2	navigation/STIM_004.jpg
914.94	2.923	1	navigation	Trial2	navigation/STIM_004.jpg
921.746	2.302	1	navigation	Trial2	navigation/STIM_004.jpg
927.452	2.423	1	navigation	Trial2	navigation/STIM_005.jpg
934.033	2.95	0	navigation	Trial2	navigation/STIM_005.jpg
940.028	1.637	1	navigation	Trial2	navigation/STIM_005.jpg
943.853	1.867	1	navigation	Trial2	navigation/STIM_005.jpg
948.565	2.679	0	navigation	Trial2	navigation/STIM_005.jpg
954.85	2.163	1	navigation	Trial2	navigation/STIM_005.jpg
960.323	3.338	1	navigation	Trial2	navigation/STIM_006.jpg
967.731	1.641	1	navigation	Trial2	navigation/STIM_006.jpg
973.008	2.887	1	navigation	Trial2	navigation/STIM_006.jpg
979.754	1.599	1	navigation	Trial2	navigation/STIM_006.jpg
984.642	3.076	1	navigation	Trial2	navigation/STIM_006.jpg
990.366	2.86	1	navigation	Trial2	navigation/STIM_006.jpg
996.225	2.208	1	navigation	Trial2	navigation/STIM_007.jpg
1000.84	3.115	1	navigation	Trial2	navigation/STIM_007.jpg
1007.562	1.92	1	navigation	Trial2	navigation/STIM_007.jpg
1013.588	2.808	1	navigation	Trial2	navigation/STIM_007.jpg
1018.858	1.725	1	navigation	Trial2	navigation/STIM_007.jpg
1024.437	3.063	1	navigation	Trial2	navigation/STIM_007.jpg
1030.241	1.813	0	navigation	Trial2	navigation/STIM_008.jpg
1035.874	3.244	1	navigation	Trial2	navigation/STIM_008.jpg
1042.331	2.522	1	navigation	Trial2	navigation/STIM_008.jpg
1048.305	1.71	1	navigation	Trial2	navigation/STIM_008.jpg
1053.573	1.489	1	navigation	Trial2	navigation/STIM_008.jpg
1057.882	1.456	1	navigation	Trial2	navigation/STIM_008.jpg
1061.927	3.347	1	navigation	Trial2	navigation/STIM_009.jpg
1068.57	2.888	1	navigation	Trial2	navigation/STIM_009.jpg
1074.128	1.552	1	navigation	Trial2	navigation/STIM_009.jpg
1079.343	1.889	0	navigation	Trial2	navigation/STIM_009.jpg
1085.338	2.905	1	navigation	Trial2	navigation/STIM_009.jpg
1092.144	1.545	1	navigation	Trial2	navigation/STIM_009.jpg
1096.004	3.606	1	navigation	Trial2	navigation/STIM_010.jpg
1102.361	3.095	1	navigation	Trial2	navigation/STIM_010.jpg
1108.179	1.747	0	navigation	Trial2	navigation/STIM_010.jpg
1113.103	2.126	1	navigation	Trial2	navigation/STIM_010.jpg
1118.32	2.846	1	navigation	Trial2	navigation/STIM_010.jpg
1123.655	2.519	0	navigation	Trial2	navigation/STIM_010.jpg
1129.712	2.278	1	navigation	Trial2	navigation/STIM_011.jpg
1135.874	3.46	0	navigation	Trial2	navigation/STIM_011.jpg
1142.282	2.413	1	navigation	Trial2	navigation/STIM_011.jpg
1148.565	1.604	1	navigation	Trial2	navigation/STIM_011.jpg
1154.296	1.457	1	navigation	Trial2	navigation/STIM_011.jpg
1159.748	2.089	1	navigation	Trial2	navigation/STIM_011.jpg
1165.416	1.167	1	pointing	Trial2	pointing/STIM_000.jpg
1170.515	0.954	1	pointing	Trial2	pointing/STIM_000.jpg
1174.766	0.766	1	pointing	Trial2	pointing/STIM_000.jpg
1178.19	0.784	1	pointing	Trial2	pointing/STIM_000.jpg
1182.257	0.961	1	pointing	Trial2	pointing/STIM_000.jpg
1187.303	1.047	1	pointing	Trial2	pointing/STIM_000.jpg
1191.995	1.069	1	pointing	Trial2	pointing/STIM_001.jpg
1195.927	0.965	1	pointing	Trial2	pointing/STIM_001.jpg
1200.136	1.274	1	pointing	Trial2	pointing/STIM_001.jpg
1205.161	0.947	1	pointing	Trial2	pointing/STIM_001.jpg
1209.725	1.297	1	pointing	Trial2	pointing/STIM_001.jpg
1214.48	1.219	1	pointing	Trial2	pointing/STIM_001.jpg
1218.287	0.996	1	pointing	Trial2	pointing/STIM_002.jpg
1221.595	1.076	1	pointing	Trial2	pointing/STIM_002.jpg
1225.528	0.886	1	pointing	Trial2	pointing/STIM_002.jpg
1229.431	0.751	1	pointing	Trial2	pointing/STIM_002.jpg
1233.802	1.012	1	pointing	Trial2	pointing/STIM_002.jpg
1238.662	0.991	1	pointing	Trial2	pointing/STIM_002.jpg
1243.326	0.951	1	pointing	Trial2	pointing/STIM_003.jpg
1248.04	1.158	1	pointing	Trial2	pointing/STIM_003.jpg
1251.707	0.928	1	pointing	Trial2	pointing/STIM_003.jpg
1255.044	0.966	1	pointing	Trial2	pointing/STIM_003.jpg
1258.392	1.289	1	pointing	Trial2	pointing/STIM_003.jpg
1262.245	1.166	1	pointing	Trial2	pointing/STIM_003.jpg
1266.94	1.256	1	pointing	Trial2	pointing/STIM_004.jpg
1270.432	1.113	1	pointing	Trial2	pointing/STIM_004.jpg
1274.045	0.902	0	pointing	Trial2	pointing/STIM_004.jpg
1277.124	1.164	0	pointing	Trial2	pointing/STIM_004.jpg
1282.398	1.24	0	pointing	Trial2	pointing/STIM_004.jpg
1286.052	0.882	1	pointing	Trial2	pointing/STIM_004.jpg
1289.735	1.14	1	pointing	Trial2	pointing/STIM_005.jpg
1293.538	1.131	1	pointing	Trial2	pointing/STIM_005.jpg
1298.595	1.158	0	pointing	Trial2	pointing/STIM_005.jpg
1302.323	0.918	1	pointing	Trial2	pointing/STIM_005.jpg
1307.298	1.018	1	pointing	Trial2	pointing/STIM_005.jpg
1311.013	0.773	1	pointing	Trial2	pointing/STIM_005.jpg
1314.733	0.923	0	pointing	Trial2	pointing/STIM_006.jpg
1319.637	1.213	1	pointing	Trial2	pointing/STIM_006.jpg
1323.199	1.021	1	pointing	Trial2	pointing/STIM_006.jpg
1328.263	0.793	1	pointing	Trial2	pointing/STIM_006.jpg
1332.849	0.865	1	pointing	Trial2	pointing/STIM_006.jpg
1337.568	1.277	1	pointing	Trial2	pointing/STIM_006.jpg
1342.968	1.137	1	pointing	Trial2	pointing/STIM_007.jpg
1346.463	0.98	1	pointing	Trial2	pointing/STIM_007.jpg
1351.122	1.355	1	pointing	Trial2	pointing/STIM_007.jpg
1355.311	1.268	1	pointing	Trial2	pointing/STIM_007.jpg
1359.035	1.21	1	pointing	Trial2	pointing/STIM_007.jpg
1364.323	0.731	1	pointing	Trial2	pointing/STIM_007.jpg
1368.667	1.039	1	pointing	Trial2	pointing/STIM_008.jpg
1373.794	0.759	1	pointing	Trial2	pointing/STIM_008.jpg
1377.722	1.216	1	pointing	Trial2	pointing/STIM_008.jpg
1382.2	0.742	0	pointing	Trial2	pointing/STIM_008.jpg
1386.891	0.909	1	pointing	Trial2	pointing/STIM_008.jpg
1391.519	0.944	1	pointing	Trial2	pointing/STIM_008.jpg
1395.531	1.004	1	pointing	Trial2	pointing/STIM_009.jpg
1400.402	0.748	1	pointing	Trial2	pointing/STIM_009.jpg
1404.439	1.11	0	pointing	Trial2	pointing/STIM_009.jpg
1407.781	1.074	1	pointing	Trial2	pointing/STIM_009.jpg
1411.29	1.03	1	pointing	Trial2	pointing/STIM_009.jpg
1416.024	1.181	1	pointing	Trial2	pointing/STIM_009.jpg
1420.586	1.256	1	pointing	Trial2	pointing/STIM_010.jpg
1425.474	0.783	1	pointing	Trial2	pointing/STIM_010.jpg
1428.377	1.148	1	pointing	Trial2	pointing/STIM_010.jpg
1431.967	1.148	1	pointing	Trial2	pointing/STIM_010.jpg
1435.994	0.933	1	pointing	Trial2	pointing/STIM_010.jpg
1441.004	1.266	1	pointing	Trial2	pointing/STIM_010.jpg
1445.15	1.063	1	pointing	Trial2	pointing/STIM_011.jpg
1450.057	1.027	1	pointing	Trial2	pointing/STIM_011.jpg
1455.014	1.153	1	pointing	Trial2	pointing/STIM_011.jpg
1460.075	0.929	1	pointing	Trial2	pointing/STIM_011.jpg
1464.136	1.081	1	pointing	Trial2	pointing/STIM_011.jpg
1468.982	1.112	1	pointing	Trial2	pointing/STIM_011.jpg
1473.056	2.583	1	navigation	Trial3	navigation/STIM_000.jpg
1479.661	1.986	1	navigation	Trial3	navigation/STIM_000.jpg
1485.52	1.753	1	navigation	Trial3	navigation/STIM_000.jpg
1491.313	2.844	1	navigation	Trial3	navigation/STIM_000.jpg
1497.018	1.463	1	navigation	Trial3	navigation/STIM_000.jpg
1501.042	3.057	1	navigation	Trial3	navigation/STIM_000.jpg
1506.665	2.053	0	navigation	Trial3	navigation/STIM_001.jpg
1511.896	2.076	0	navigation	Trial3	navigation/STIM_001.jpg
1516.751	3.151	1	navigation	Trial3	navigation/STIM_001.jpg
1522.609	3.022	1	navigation	Trial3	navigation/STIM_001.jpg
1528.816	1.418	1	navigation	Trial3	navigation/STIM_001.jpg
1533.555	3.13	1	navigation	Trial3	navigation/STIM_001.jpg
1539.084	3.132	1	navigation	Trial3	navigation/STIM_002.jpg
1545.994	1.987	1	navigation	Trial3	navigation/STIM_002.jpg
1550.831	2.94	1	navigation	Trial3	navigation/STIM_002.jpg
1557.581	2.467	1	navigation	Trial3	navigation/STIM_002.jpg
1563.418	1.988	1	navigation	Trial3	navigation/STIM_002.jpg
1569.04	1.576	1	navigation	Trial3	navigation/STIM_002.jpg
1574.652	3.1	1	navigation	Trial3	navigation/STIM_003.jpg
1580.589	1.353	1	navigation	Trial3	navigation/STIM_003.jpg
1585.587	2.191	0	navigation	Trial3	navigation/STIM_003.jpg
1590.003	1.313	1	navigation	Trial3	navigation/STIM_003.jpg
1594.173	1.421	1	navigation	Trial3	navigation/STIM_003.jpg
1599.669	1.929	1	navigation	Trial3	navigation/STIM_003.jpg
1604.947	1.421	1	navigation	Trial3	navigation/STIM_004.jpg
1609.923	2.465	1	navigation	Trial3	navigation/STIM_004.jpg
1615.762	2.231	1	navigation	Trial3	navigation/STIM_004.jpg
1620.249	2.204	1	navigation	Trial3	navigation/STIM_004.jpg
1625.359	1.619	1	navigation	Trial3	navigation/STIM_004.jpg
1629.15	2.518	1	navigation	Trial3	navigation/STIM_004.jpg
1635.594	2.209	0	navigation	Trial3	navigation/STIM_005.jpg
1641.107	1.812	1	navigation	Trial3	navigation/STIM_005.jpg
1645.542	1.577	1	navigation	Trial3	navigation/STIM_005.jpg
1651.177	2.092	1	navigation	Trial3	navigation/STIM_005.jpg
1656.54	1.794	1	navigation	Trial3	navigation/STIM_005.jpg
1661.797	2.449	1	navigation	Trial3	navigation/STIM_005.jpg
1666.912	2.212	1	navigation	Trial3	navigation/STIM_006.jpg
1671.877	1.579	1	navigation	Trial3	navigation/STIM_006.jpg
1676.967	1.916	1	navigation	Trial3	navigation/STIM_006.jpg
1681.719	3.135	1	navigation	Trial3	navigation/STIM_006.jpg
1688.163	2.75	1	navigation	Trial3	navigation/STIM_006.jpg
1693.669	2.238	0	navigation	Trial3	navigation/STIM_006.jpg
1698.403	2.731	1	navigation	Trial3	navigation/STIM_007.jpg
1703.807	2.293	1	navigation	Trial3	navigation/STIM_007.jpg
1710.194	2.476	1	navigation	Trial3	navigation/STIM_007.jpg
1716.509	2.68	1	navigation	Trial3	navigation/STIM_007.jpg
1723.015	1.336	1	navigation	Trial3	navigation/STIM_007.jpg
1727.463	1.735	1	navigation	Trial3	navigation/STIM_007.jpg
1732.61	2.576	1	navigation	Trial3	navigation/STIM_008.jpg
1739.112	1.291	0	navigation	Trial3	navigation/STIM_008.jpg
1743.399	2.412	1	navigation	Trial3	navigation/STIM_008.jpg
1749.591	1.902	1	navigation	Trial3	navigation/STIM_008.jpg
1755.099	2.978	1	navigation	Trial3	navigation/STIM_008.jpg
1761.639	3.096	1	navigation	Trial3	navigation/STIM_008.jpg
1768.195	2.185	1	navigation	Trial3	navigation/STIM_009.jpg
1774.389	1.782	1	navigation	Trial3	navigation/STIM_009.jpg
1780.106	1.43	1	navigation	Trial3	navigation/STIM_009.jpg
1784.738	1.82	1	navigation	Trial3	navigation/STIM_009.jpg
1790.592	2.598	1	navigation	Trial3	navigation/STIM_009.jpg
1796.733	3.165	1	navigation	Trial3	navigation/STIM_009.jpg
1803.107	2.106	1	navigation	Trial3	navigation/STIM_010.jpg
1809.096	1.811	1	navigation	Trial3	navigation/STIM_010.jpg
1813.19	1.514	1	navigation	Trial3	navigation/STIM_010.jpg
1817.792	1.506	0	navigation	Trial3	navigation/STIM_010.jpg
1822.851	1.448	1	navigation	Trial3	navigation/STIM_010.jpg
1827.657	2.943	1	navigation	Trial3	navigation/STIM_010.jpg
1833.851	1.493	1	navigation	Trial3	navigation/STIM_011.jpg
1838.823	2.043	1	navigation	Trial3	navigation/STIM_011.jpg
1844.074	2.419	1	navigation	Trial3	navigation/STIM_011.jpg
1849.656	2.444	1	navigation	Trial3	navigation/STIM_011.jpg
1855.118	1.448	0	navigation	Trial3	navigation/STIM_011.jpg
1859.342	2.789	1	navigation	Trial3	navigation/STIM_011.jpg
1866.181	1.22	1	pointing	Trial3	pointing/STIM_000.jpg
1871.438	0.8	1	pointing	Trial3	pointing/STIM_000.jpg
1876.139	1.114	1	pointing	Trial3	pointing/STIM_000.jpg
1879.653	0.764	1	pointing	Trial3	pointing/STIM_000.jpg
1884.155	1.15	1	pointing	Trial3	pointing/STIM_000.jpg
1888.538	0.984	1	pointing	Trial3	pointing/STIM_000.jpg
1892.652	1.285	1	pointing	Trial3	pointing/STIM_001.jpg
1898.055	1.35	1	pointing	Trial3	pointing/STIM_001.jpg
1901.979	1.161	1	pointing	Trial3	pointing/STIM_001.jpg
1906.4	1.307	0	pointing	Trial3	pointing/STIM_001.jpg
1911.606	0.95	1	pointing	Trial3	pointing/STIM_001.jpg
1915.89	0.753	0	pointing	Trial3	pointing/STIM_001.jpg
1920.242	0.769	1	pointing	Trial3	pointing/STIM_002.jpg
1923.491	0.847	1	pointing	Trial3	pointing/STIM_002.jpg
1927.699	0.741	1	pointing	Trial3	pointing/STIM_002.jpg
1930.848	0.956	1	pointing	Trial3	pointing/STIM_002.jpg
1935.732	1.002	1	pointing	Trial3	pointing/STIM_002.jpg
1940.528	1.08	1	pointing	Trial3	pointing/STIM_002.jpg
1943.908	0.821	1	pointing	Trial3	pointing/STIM_003.jpg
1947.469	1.007	1	pointing	Trial3	pointing/STIM_003.jpg
1952.195	1.013	1	pointing	Trial3	pointing/STIM_003.jpg
1956.433	1.004	1	pointing	Trial3	pointing/STIM_003.jpg
1959.993	1.329	1	pointing	Trial3	pointing/STIM_003.jpg
1963.743	0.88	1	pointing	Trial3	pointing/STIM_003.jpg
1968.097	0.868	1	pointing	Trial3	pointing/STIM_004.jpg
1971.183	0.964	1	pointing	Trial3	pointing/STIM_004.jpg
1974.274	1.248	1	pointing	Trial3	pointing/STIM_004.jpg
1979.414	1.036	0	pointing	Trial3	pointing/STIM_004.jpg
1984.429	1.259	1	pointing	Trial3	pointing/STIM_004.jpg
1989.523	0.784	1	pointing	Trial3	pointing/STIM_004.jpg
1992.436	1.354	0	pointing	Trial3	pointing/STIM_005.jpg
1997.453	0.802	0	pointing	Trial3	pointing/STIM_005.jpg
2001.978	1.182	1	pointing	Trial3	pointing/STIM_005.jpg
2005.293	0.963	1	pointing	Trial3	pointing/STIM_005.jpg
2009.713	0.966	1	pointing	Trial3	pointing/STIM_005.jpg
2013.331	1.112	1	pointing	Trial3	pointing/STIM_005.jpg
2016.947	1.298	1	pointing	Trial3	pointing/STIM_006.jpg
2021.114	0.978	1	pointing	Trial3	pointing/STIM_006.jpg
2025.242	1.131	1	pointing	Trial3	pointing/STIM_006.jpg
2029.798	1.264	1	pointing	Trial3	pointing/STIM_006.jpg
2034.327	0.745	1	pointing	Trial3	pointing/STIM_006.jpg
2038.567	1.342	1	pointing	Trial3	pointing/STIM_006.jpg
2043.009	1.212	1	pointing	Trial3	pointing/STIM_007.jpg
2048.11	1.165	1	pointing	Trial3	pointing/STIM_007.jpg
2052.208	1.13	1	pointing	Trial3	pointing/STIM_007.jpg
2055.587	1.022	1	pointing	Trial3	pointing/STIM_007.jpg
2060.345	1.337	1	pointing	Trial3	pointing/STIM_007.jpg
2064.143	1.245	1	pointing	Trial3	pointing/STIM_007.jpg
2068.959	0.94	1	pointing	Trial3	pointing/STIM_008.jpg
2072.822	0.841	1	pointing	Trial3	pointing/STIM_008.jpg
2075.894	1.25	1	pointing	Trial3	pointing/STIM_008.jpg
2079.802	1.011	1	pointing	Trial3	pointing/STIM_008.jpg
2084.453	0.784	1	pointing	Trial3	pointing/STIM_008.jpg
2088.528	1.098	1	pointing	Trial3	pointing/STIM_008.jpg
2093.211	0.812	1	pointing	Trial3	pointing/STIM_009.jpg
2097.756	1.341	1	pointing	Trial3	pointing/STIM_009.jpg
2102.023	1.212	1	pointing	Trial3	pointing/STIM_009.jpg
2106.709	1.013	1	pointing	Trial3	pointing/STIM_009.jpg
2111.628	0.739	1	pointing	Trial3	pointing/STIM_009.jpg
2115.721	1.257	1	pointing	Trial3	pointing/STIM_009.jpg
2120.753	0.9	1	pointing	Trial3	pointing/STIM_010.jpg
2125.352	1.225	1	pointing	Trial3	pointing/STIM_010.jpg
2129.929	1.087	1	pointing	Trial3	pointing/STIM_010.jpg
2133.142	1.159	0	pointing	Trial3	pointing/STIM_010.jpg
2137.283	0.949	1	pointing	Trial3	pointing/STIM_010.jpg
2140.795	0.888	1	pointing	Trial3	pointing/STIM_010.jpg
2144.883	1.353	1	pointing	Trial3	pointing/STIM_011.jpg
2149.437	0.826	1	pointing	Trial3	pointing/STIM_011.jpg
2152.986	1.248	1	pointing	Trial3	pointing/STIM_011.jpg
2157.769	0.968	0	pointing	Trial3	pointing/STIM_011.jpg
2162.624	1.147	1	pointing	Trial3	pointing/STIM_011.jpg
2167.644	0.915	1	pointing	Trial3	pointing/STIM_011.jpg
