onset	duration	response_time_ms	trial_type	learning_stage	stimulus	response_port
0.0	2.679	2679.4	generate	Run1	generate/STIM_000.jpg	99
4.994	3.081	3081.1	generate	Run1	generate/STIM_000.jpg	99
10.3	1.686	1686.1	generate	Run1	generate/STIM_000.jpg	100
14.134	2.151	2151.0	generate	Run1	generate/STIM_000.jpg	99
18.392	2.058	2058.0	generate	Run1	generate/STIM_000.jpg	100
22.686	2.648	2647.5	generate	Run1	generate/STIM_001.jpg	99
28.126	2.355	2355.1	generate	Run1	generate/STIM_001.jpg	100
33.947	2.634	2634.3	generate	Run1	generate/STIM_001.jpg	100
38.615	2.364	2363.7	generate	Run1	generate/STIM_001.jpg	100
43.888	2.514	2514.5	generate	Run1	generate/STIM_001.jpg	99
50.349	2.788	2787.8	generate	Run1	generate/STIM_002.jpg	99
56.849	2.709	2709.4	generate	Run1	generate/STIM_002.jpg	100
63.296	2.995	2994.7	generate	Run1	generate/STIM_002.jpg	100
69.519	3.164	3163.9	generate	Run1	generate/STIM_002.jpg	99
76.556	2.096	2096.4	generate	Run1	generate/STIM_002.jpg	99
82.579	1.791	1791.1	generate	Run1	generate/STIM_003.jpg	100
87.667	2.225	2225.0	generate	Run1	generate/STIM_003.jpg	100
92.366	2.652	2651.8	generate	Run1	generate/STIM_003.jpg	100
98.39	3.159	3159.2	generate	Run1	generate/STIM_003.jpg	100
103.993	1.38	1379.6	generate	Run1	generate/STIM_003.jpg	99
108.227	1.795	1794.8	generate	Run1	generate/STIM_004.jpg	99
112.061	2.984	2984.4	generate	Run1	generate/STIM_004.jpg	100
118.004	2.546	2546.3	generate	Run1	generate/STIM_004.jpg	99
124.464	1.401	1400.8	generate	Run1	generate/STIM_004.jpg	99
128.652	2.514	2514.2	generate	Run1	generate/STIM_004.jpg	99
134.5	2.11	2109.9	generate	Run1	generate/STIM_005.jpg	100
139.067	1.883	1882.7	generate	Run1	generate/STIM_005.jpg	100
144.448	2.106	2105.7	generate	Run1	generate/STIM_005.jpg	100
149.459	2.07	2070.2	generate	Run1	generate/STIM_005.jpg	99
153.827	1.493	1493.3	generate	Run1	generate/STIM_005.jpg	100
157.996	3.383	3383.1	generate	Run1	generate/STIM_006.jpg	100
164.988	2.602	2602.1	generate	Run1	generate/STIM_006.jpg	100
170.712	1.404	1404.2	generate	Run1	generate/STIM_006.jpg	100
175.943	1.847	1846.9	generate	Run1	generate/STIM_006.jpg	100
180.29	2.772	2771.6	generate	Run1	generate/STIM_006.jpg	99
185.308	3.056	3055.9	generate	Run1	generate/STIM_007.jpg	100
191.386	3.4	3399.5	generate	Run1	generate/STIM_007.jpg	99
198.558	2.287	2287.1	generate	Run1	generate/STIM_007.jpg	99
204.546	2.064	2063.6	generate	Run1	generate/STIM_007.jpg	99
208.855	2.98	2980.0	generate	Run1	generate/STIM_007.jpg	100
215.801	3.148	3147.6	generate	Run1	generate/STIM_008.jpg	100
221.635	2.772	2772.0	generate	Run1	generate/STIM_008.jpg	100
226.911	2.454	2453.6	generate	Run1	generate/STIM_008.jpg	99
232.951	1.803	1802.7	generate	Run1	generate/STIM_008.jpg	99
237.633	1.551	1550.7	generate	Run1	generate/STIM_008.jpg	99
241.748	1.831	1830.6	generate	Run1	generate/STIM_009.jpg	100
247.037	3.485	3484.6	generate	Run1	generate/STIM_009.jpg	99
252.872	3.176	3176.0	generate	Run1	generate/STIM_009.jpg	100
258.533	2.139	2138.9	generate	Run1	generate/STIM_009.jpg	99
263.881	3.024	3024.5	generate	Run1	generate/STIM_009.jpg	99
270.578	3.398	3398.5	generate	Run1	generate/STIM_010.jpg	100
277.08	1.681	1680.8	generate	Run1	generate/STIM_010.jpg	100
282.088	1.991	1991.2	generate	Run1	generate/STIM_010.jpg	100
287.819	1.314	1313.8	generate	Run1	generate/STIM_010.jpg	100
291.323	2.228	2227.9	generate	Run1	generate/STIM_010.jpg	99
296.523	3.306	3305.5	generate	Run1	generate/STIM_011.jpg	99
302.897	2.182	2182.2	generate	Run1	generate/STIM_011.jpg	99
308.046	2.209	2208.9	generate	Run1	generate/STIM_011.jpg	100
313.779	2.458	2458.2	generate	Run1	generate/STIM_011.jpg	99
318.366	2.843	2843.1	generate	Run1	generate/STIM_011.jpg	99
323.22	2.402	2402.1	generate	Run1	generate/STIM_012.jpg	99
329.526	1.925	1925.3	generate	Run1	generate/STIM_012.jpg	99
335.254	2.003	2002.8	generate	Run1	generate/STIM_012.jpg	99
339.848	1.457	1456.8	generate	Run1	generate/STIM_012.jpg	100
343.381	1.986	1985.9	generate	Run1	generate/STIM_012.jpg	99
348.674	1.615	1615.0	generate	Run1	generate/STIM_013.jpg	100
353.712	3.087	3087.2	generate	Run1	generate/STIM_013.jpg	99
358.96	1.894	1894.0	generate	Run1	generate/STIM_013.jpg	99
362.855	1.621	1620.8	generate	Run1	generate/STIM_013.jpg	100
367.82	1.931	1930.9	generate	Run1	generate/STIM_013.jpg	99
371.993	3.564	3563.7	generate	Run1	generate/STIM_014.jpg	100
377.807	2.23	2230.5	generate	Run1	generate/STIM_014.jpg	99
382.937	2.754	2753.8	generate	Run1	generate/STIM_014.jpg	99
389.33	1.668	1668.1	generate	Run1	generate/STIM_014.jpg	100
393.628	2.846	2846.2	generate	Run1	generate/STIM_014.jpg	99
399.934	2.925	2924.9	generate	Run1	generate/STIM_015.jpg	100
405.141	2.852	2851.7	generate	Run1	generate/STIM_015.jpg	100
411.347	2.534	2533.7	generate	Run1	generate/STIM_015.jpg	100
417.304	1.633	1632.6	generate	Run1	generate/STIM_015.jpg	100
422.403	2.564	2564.1	generate	Run1	generate/STIM_015.jpg	99
428.321	2.253	2252.7	generate	Run1	generate/STIM_016.jpg	99
432.978	2.68	2680.0	generate	Run1	generate/STIM_016.jpg	99
438.102	2.605	2605.0	generate	Run1	generate/STIM_016.jpg	100
443.758	1.596	1595.7	generate	Run1	generate/STIM_016.jpg	100
448.23	3.012	3012.3	generate	Run1	generate/STIM_016.jpg	99
454.361	2.03	2030.5	generate	Run1	generate/STIM_017.jpg	99
460.129	2.544	2543.6	generate	Run1	generate/STIM_017.jpg	100
466.468	2.072	2071.5	generate	Run1	generate/STIM_017.jpg	100
471.095	2.684	2683.6	generate	Run1	generate/STIM_017.jpg	99
475.881	2.27	2270.2	generate	Run1	generate/STIM_017.jpg	99
481.472	2.234	2234.3	generate	Run1	generate/STIM_018.jpg	99
487.653	3.148	3147.8	generate	Run1	generate/STIM_018.jpg	100
494.118	2.357	2356.7	generate	Run1	generate/STIM_018.jpg	100
498.832	2.535	2534.9	generate	Run1	generate/STIM_018.jpg	99
504.828	2.168	2167.9	generate	Run1	generate/STIM_018.jpg	100
510.523	3.263	3262.6	generate	Run1	generate/STIM_019.jpg	100
517.218	2.04	2039.7	generate	Run1	generate/STIM_019.jpg	99
521.77	2.232	2232.1	generate	Run1	generate/STIM_019.jpg	99
526.963	2.073	2072.7	generate	Run1	generate/STIM_019.jpg	99
531.062	2.338	2337.9	generate	Run1	generate/STIM_019.jpg	100
536.894	2.383	2383.1	generate	Run1	generate/STIM_020.jpg	100
543.101	1.679	1678.8	generate	Run1	generate/STIM_020.jpg	100
548.628	1.985	1984.6	generate	Run1	generate/STIM_020.jpg	100
554.312	2.315	2315.1	generate	Run1	generate/STIM_020.jpg	99
558.693	2.512	2511.5	generate	Run1	generate/STIM_020.jpg	99
565.163	1.881	1881.3	generate	Run1	generate/STIM_021.jpg	99
569.458	1.483	1482.7	generate	Run1	generate/STIM_021.jpg	99
574.709	2.79	2790.4	generate	Run1	generate/STIM_021.jpg	100
580.48	2.45	2450.3	generate	Run1	generate/STIM_021.jpg	99
585.628	1.806	1805.9	generate	Run1	generate/STIM_021.jpg	100
591.012	1.754	1754.1	generate	Run1	generate/STIM_022.jpg	100
595.147	3.524	3523.9	generate	Run1	generate/STIM_022.jpg	100
602.461	1.572	1571.5	generate	Run1	generate/STIM_022.jpg	99
607.83	1.558	1558.4	generate	Run1	generate/STIM_022.jpg	100
613.333	2.848	2847.6	generate	Run1	generate/STIM_022.jpg	100
618.435	2.566	2565.6	generate	Run1	generate/STIM_023.jpg	100
624.483	1.718	1718.0	generate	Run1	generate/STIM_023.jpg	99
629.401	3.294	3293.9	generate	Run1	generate/STIM_023.jpg	99
636.629	3.122	3121.8	generate	Run1	generate/STIM_023.jpg	100
643.471	2.44	2439.5	generate	Run1	generate/STIM_023.jpg	100
649.054	3.684	3684.1	generate	Run1	generate/STIM_024.jpg	99
656.538	2.687	2687.0	generate	Run1	generate/STIM_024.jpg	99
662.183	1.68	1679.6	generate	Run1	generate/STIM_024.jpg	100
666.917	1.858	1857.9	generate	Run1	generate/STIM_024.jpg	100
672.727	2.673	2672.6	generate	Run1	generate/STIM_024.jpg	99
678.834	1.194	1193.8	repeat	Run1	repeat/STIM_000.jpg	99
682.901	0.76	759.6	repeat	Run1	repeat/STIM_000.jpg	99
687.354	0.747	746.8	repeat	Run1	repeat/STIM_000.jpg	100
691.738	0.994	994.4	repeat	Run1	repeat/STIM_000.jpg	100
695.917	1.178	1178.5	repeat	Run1	repeat/STIM_000.jpg	99
700.797	0.996	995.6	repeat	Run1	repeat/STIM_001.jpg	99
705.462	1.112	1111.9	repeat	Run1	repeat/STIM_001.jpg	99
709.69	0.927	927.2	repeat	Run1	repeat/STIM_001.jpg	100
713.618	1.119	1118.7	repeat	Run1	repeat/STIM_001.jpg	99
717.587	1.151	1151.4	repeat	Run1	repeat/STIM_001.jpg	100
722.308	1.188	1187.5	repeat	Run1	repeat/STIM_002.jpg	99
725.612	1.181	1181.1	repeat	Run1	repeat/STIM_002.jpg	99
730.158	1.264	1263.6	repeat	Run1	repeat/STIM_002.jpg	99
734.924	0.981	980.9	repeat	Run1	repeat/STIM_002.jpg	100
739.701	0.762	762.1	repeat	Run1	repeat/STIM_002.jpg	100
743.576	1.168	1167.7	repeat	Run1	repeat/STIM_003.jpg	100
748.11	1.238	1238.2	repeat	Run1	repeat/STIM_003.jpg	100
752.821	1.172	1172.0	repeat	Run1	repeat/STIM_003.jpg	99
757.832	0.688	687.7	repeat	Run1	repeat/STIM_003.jpg	100
761.433	1.024	1023.7	repeat	Run1	repeat/STIM_003.jpg	99
765.179	1.012	1012.2	repeat	Run1	repeat/STIM_004.jpg	100
769.838	1.143	1142.8	repeat	Run1	repeat/STIM_004.jpg	99
774.233	0.944	943.7	repeat	Run1	repeat/STIM_004.jpg	100
778.896	1.202	1202.4	repeat	Run1	repeat/STIM_004.jpg	100
782.733	0.831	831.1	repeat	Run1	repeat/STIM_004.jpg	100
786.555	0.827	826.6	repeat	Run1	repeat/STIM_005.jpg	100
790.254	0.644	644.1	repeat	Run1	repeat/STIM_005.jpg	100
794.323	0.924	924.0	repeat	Run1	repeat/STIM_005.jpg	99
797.374	1.083	1083.2	repeat	Run1	repeat/STIM_005.jpg	100
800.523	0.988	988.4	repeat	Run1	repeat/STIM_005.jpg	99
804.915	0.958	958.3	repeat	Run1	repeat/STIM_006.jpg	99
808.388	0.712	712.1	repeat	Run1	repeat/STIM_006.jpg	100
812.499	0.73	729.6	repeat	Run1	repeat/STIM_006.jpg	100
817.131	1.061	1061.1	repeat	Run1	repeat/STIM_006.jpg	99
821.296	0.894	894.5	repeat	Run1	repeat/STIM_006.jpg	100
824.244	1.072	1071.7	repeat	Run1	repeat/STIM_007.jpg	99
827.683	1.249	1249.3	repeat	Run1	repeat/STIM_007.jpg	100
832.356	0.672	672.2	repeat	Run1	repeat/STIM_007.jpg	100
836.091	1.043	1042.7	repeat	Run1	repeat/STIM_007.jpg	100
840.11	0.858	857.5	repeat	Run1	repeat/STIM_007.jpg	99
844.331	1.243	1242.8	repeat	Run1	repeat/STIM_008.jpg	100
848.474	0.788	787.5	repeat	Run1	repeat/STIM_008.jpg	100
853.256	1.021	1021.3	repeat	Run1	repeat/STIM_008.jpg	99
856.756	1.241	1240.7	repeat	Run1	repeat/STIM_008.jpg	100
861.967	0.9	900.1	repeat	Run1	repeat/STIM_008.jpg	100
865.873	0.697	697.1	repeat	Run1	repeat/STIM_009.jpg	100
869.598	0.837	837.4	repeat	Run1	repeat/STIM_009.jpg	100
872.94	0.638	638.5	repeat	Run1	repeat/STIM_009.jpg	100
877.104	1.116	1116.4	repeat	Run1	repeat/STIM_009.jpg	99
880.637	0.762	762.1	repeat	Run1	repeat/STIM_009.jpg	100
884.648	0.928	927.8	repeat	Run1	repeat/STIM_010.jpg	99
887.979	0.735	735.4	repeat	Run1	repeat/STIM_010.jpg	100
891.447	1.006	1006.5	repeat	Run1	repeat/STIM_010.jpg	100
895.382	1.203	1203.4	repeat	Run1	repeat/STIM_010.jpg	99
900.099	1.003	1003.4	repeat	Run1	repeat/STIM_010.jpg	99
903.141	1.024	1023.8	repeat	Run1	repeat/STIM_011.jpg	99
906.57	1.161	1161.3	repeat	Run1	repeat/STIM_011.jpg	99
910.661	0.938	938.1	repeat	Run1	repeat/STIM_011.jpg	100
914.493	0.73	730.4	repeat	Run1	repeat/STIM_011.jpg	100
918.005	0.723	723.1	repeat	Run1	repeat/STIM_011.jpg	100
921.376	0.876	876.1	repeat	Run1	repeat/STIM_012.jpg	99
925.307	0.776	775.6	repeat	Run1	repeat/STIM_012.jpg	99
928.583	1.242	1242.0	repeat	Run1	repeat/STIM_012.jpg	99
933.354	1.106	1106.1	repeat	Run1	repeat/STIM_012.jpg	99
937.324	0.972	971.8	repeat	Run1	repeat/STIM_012.jpg	99
942.249	1.272	1271.5	repeat	Run1	repeat/STIM_013.jpg	100
947.043	0.769	769.1	repeat	Run1	repeat/STIM_013.jpg	99
951.523	1.262	1261.9	repeat	Run1	repeat/STIM_013.jpg	99
956.386	1.198	1198.5	repeat	Run1	repeat/STIM_013.jpg	99
960.66	0.653	652.7	repeat	Run1	repeat/STIM_013.jpg	99
963.534	1.19	1190.1	repeat	Run1	repeat/STIM_014.jpg	100
966.958	1.268	1267.7	repeat	Run1	repeat/STIM_014.jpg	100
970.227	0.716	716.4	repeat	Run1	repeat/STIM_014.jpg	99
973.325	1.12	1120.0	repeat	Run1	repeat/STIM_014.jpg	100
976.592	0.88	879.5	repeat	Run1	repeat/STIM_014.jpg	99
981.13	1.485	1485.3	generate	Run2	generate/STIM_000.jpg	99
984.86	2.373	2372.9	generate	Run2	generate/STIM_000.jpg	100
990.596	1.216	1216.3	generate	Run2	generate/STIM_000.jpg	100
994.808	1.627	1626.6	generate	Run2	generate/STIM_000.jpg	99
998.668	1.213	1212.9	generate	Run2	generate/STIM_000.jpg	100
1003.135	1.484	1483.9	generate	Run2	generate/STIM_001.jpg	99
1007.222	1.853	1853.4	generate	Run2	generate/STIM_001.jpg	100
1011.125	2.598	2597.8	generate	Run2	generate/STIM_001.jpg	99
1016.36	1.314	1313.9	generate	Run2	generate/STIM_001.jpg	100
1020.865	2.44	2439.6	generate	Run2	generate/STIM_001.jpg	100
1027.232	2.057	2056.7	generate	Run2	generate/STIM_002.jpg	99
1032.491	2.497	2496.8	generate	Run2	generate/STIM_002.jpg	99
1038.34	2.32	2319.6	generate	Run2	generate/STIM_002.jpg	99
1043.896	1.844	1844.5	generate	Run2	generate/STIM_002.jpg	99
1049.225	1.219	1219.3	generate	Run2	generate/STIM_002.jpg	99
1052.839	1.389	1389.1	generate	Run2	generate/STIM_003.jpg	100
1057.566	1.567	1567.3	generate	Run2	generate/STIM_003.jpg	99
1062.328	1.442	1442.5	generate	Run2	generate/STIM_003.jpg	100
1066.906	1.52	1520.4	generate	Run2	generate/STIM_003.jpg	100
1072.238	2.323	2322.8	generate	Run2	generate/STIM_003.jpg	100
1077.549	1.696	1696.5	generate	Run2	generate/STIM_004.jpg	100
1082.59	1.949	1949.3	generate	Run2	generate/STIM_004.jpg	99
1086.985	2.073	2073.2	generate	Run2	generate/STIM_004.jpg	100
1091.841	2.319	2319.3	generate	Run2	generate/STIM_004.jpg	100
1097.702	2.298	2297.5	generate	Run2	generate/STIM_004.jpg	100
1103.8	2.387	2386.8	generate	Run2	generate/STIM_005.jpg	100
1108.191	2.84	2839.6	generate	Run2	generate/STIM_005.jpg	100
1113.306	2.247	2246.8	generate	Run2	generate/STIM_005.jpg	100
1118.694	2.326	2325.8	generate	Run2	generate/STIM_005.jpg	99
1123.364	2.571	2570.8	generate	Run2	generate/STIM_005.jpg	100
1128.913	2.784	2783.8	generate	Run2	generate/STIM_006.jpg	100
1134.007	2.594	2594.2	generate	Run2	generate/STIM_006.jpg	99
1139.925	1.67	1669.5	generate	Run2	generate/STIM_006.jpg	100
1144.405	1.587	1587.4	generate	Run2	generate/STIM_006.jpg	99
1149.163	2.028	2028.1	generate	Run2	generate/STIM_006.jpg	100
1154.407	1.886	1885.5	generate	Run2	generate/STIM_007.jpg	100
1158.805	2.168	2168.5	generate	Run2	generate/STIM_007.jpg	100
1164.467	1.546	1546.0	generate	Run2	generate/STIM_007.jpg	99
1168.692	1.46	1460.5	generate	Run2	generate/STIM_007.jpg	100
1173.163	2.36	2360.0	generate	Run2	generate/STIM_007.jpg	99
1179.247	2.033	2032.6	generate	Run2	generate/STIM_008.jpg	99
1185.235	1.703	1703.2	generate	Run2	generate/STIM_008.jpg	100
1190.053	2.356	2356.2	generate	Run2	generate/STIM_008.jpg	100
1195.87	1.873	1872.9	generate	Run2	generate/STIM_008.jpg	100
1199.965	2.646	2646.5	generate	Run2	generate/STIM_008.jpg	99
1205.953	2.982	2982.4	generate	Run2	generate/STIM_009.jpg	100
1212.652	2.33	2329.9	generate	Run2	generate/STIM_009.jpg	100
1218.49	2.537	2537.1	generate	Run2	generate/STIM_009.jpg	99
1223.076	2.099	2098.6	generate	Run2	generate/STIM_009.jpg	99
1228.724	1.6	1599.6	generate	Run2	generate/STIM_009.jpg	100
1232.474	3.232	3232.5	generate	Run2	generate/STIM_010.jpg	99
1238.381	2.595	2595.0	generate	Run2	generate/STIM_010.jpg	99
1244.518	1.428	1427.9	generate	Run2	generate/STIM_010.jpg	99
1249.443	1.69	1690.3	generate	Run2	generate/STIM_010.jpg	100
1254.254	2.597	2596.8	generate	Run2	generate/STIM_010.jpg	100
1259.806	1.669	1669.4	generate	Run2	generate/STIM_011.jpg	99
1264.353	1.976	1975.7	generate	Run2	generate/STIM_011.jpg	100
1269.676	1.496	1495.5	generate	Run2	generate/STIM_011.jpg	100
1274.382	2.45	2450.1	generate	Run2	generate/STIM_011.jpg	100
1280.637	2.034	2034.1	generate	Run2	generate/STIM_011.jpg	99
1285.08	2.611	2611.4	generate	Run2	generate/STIM_012.jpg	100
1290.829	2.883	2883.4	generate	Run2	generate/STIM_012.jpg	100
1296.638	2.562	2562.1	generate	Run2	generate/STIM_012.jpg	99
1303.177	1.278	1278.1	generate	Run2	generate/STIM_012.jpg	99
1307.109	1.507	1507.4	generate	Run2	generate/STIM_012.jpg	100
1311.177	2.227	2227.3	generate	Run2	generate/STIM_013.jpg	100
1317.048	2.426	2426.2	generate	Run2	generate/STIM_013.jpg	99
1322.958	1.427	1426.8	generate	Run2	generate/STIM_013.jpg	99
1327.276	2.194	2194.1	generate	Run2	generate/STIM_013.jpg	100
1331.867	2.22	2220.5	generate	Run2	generate/STIM_013.jpg	100
1337.12	1.538	1537.6	generate	Run2	generate/STIM_014.jpg	99
1341.442	2.269	2269.3	generate	Run2	generate/STIM_014.jpg	100
1347.042	2.672	2671.8	generate	Run2	generate/STIM_014.jpg	100
1351.772	2.281	2281.3	generate	Run2	generate/STIM_014.jpg	99
1356.543	2.258	2257.7	generate	Run2	generate/STIM_014.jpg	100
1362.616	3.076	3076.1	generate	Run2	generate/STIM_015.jpg	99
1369.109	2.243	2242.7	generate	Run2	generate/STIM_015.jpg	99
1375.173	1.663	1663.3	generate	Run2	generate/STIM_015.jpg	99
1380.526	2.2	2200.1	generate	Run2	generate/STIM_015.jpg	99
1385.103	2.356	2356.2	generate	Run2	generate/STIM_015.jpg	99
1390.219	3.152	3151.6	generate	Run2	generate/STIM_016.jpg	100
1397.058	2.795	2794.6	generate	Run2	generate/STIM_016.jpg	99
1402.699	1.237	1237.1	generate	Run2	generate/STIM_016.jpg	100
1407.0	2.116	2115.5	generate	Run2	generate/STIM_016.jpg	100
1411.923	2.177	2176.9	generate	Run2	generate/STIM_016.jpg	100
1417.012	2.314	2314.3	generate	Run2	generate/STIM_017.jpg	99
1421.855	2.43	2430.1	generate	Run2	generate/STIM_017.jpg	100
1427.557	1.19	1190.0	generate	Run2	generate/STIM_017.jpg	100
1432.023	1.356	1355.9	generate	Run2	generate/STIM_017.jpg	100
1436.92	1.615	1614.6	generate	Run2	generate/STIM_017.jpg	100
1441.92	2.763	2762.6	generate	Run2	generate/STIM_018.jpg	100
1447.794	2.559	2559.0	generate	Run2	generate/STIM_018.jpg	99
1453.269	1.632	1631.5	generate	Run2	generate/STIM_018.jpg	99
1458.548	1.301	1301.2	generate	Run2	generate/STIM_018.jpg	100
1463.794	2.225	2224.9	generate	Run2	generate/STIM_018.jpg	100
1468.065	2.393	2392.7	generate	Run2	generate/STIM_019.jpg	100
1473.507	1.758	1758.2	generate	Run2	generate/STIM_019.jpg	99
1478.287	1.263	1262.8	generate	Run2	generate/STIM_019.jpg	100
1481.855	1.447	1447.0	generate	Run2	generate/STIM_019.jpg	99
1486.831	2.112	2111.8	generate	Run2	generate/STIM_019.jpg	100
1492.858	3.175	3175.2	generate	Run2	generate/STIM_020.jpg	100
1499.816	2.777	2777.2	generate	Run2	generate/STIM_020.jpg	99
1505.474	1.64	1640.2	generate	Run2	generate/STIM_020.jpg	99
1509.38	1.759	1759.2	generate	Run2	generate/STIM_020.jpg	99
1514.271	1.817	1816.7	generate	Run2	generate/STIM_020.jpg	99
1519.382	3.182	3182.2	generate	Run2	generate/STIM_021.jpg	100
1526.556	1.861	1860.8	generate	Run2	generate/STIM_021.jpg	100
1531.054	2.04	2039.7	generate	Run2	generate/STIM_021.jpg	100
1536.454	2.278	2278.3	generate	Run2	generate/STIM_021.jpg	99
1541.064	1.304	1304.2	generate	Run2	generate/STIM_021.jpg	100
1546.038	1.378	1377.9	generate	Run2	generate/STIM_022.jpg	100
1550.072	1.494	1493.6	generate	Run2	generate/STIM_022.jpg	99
1555.127	1.927	1927.0	generate	Run2	generate/STIM_022.jpg	99
1560.034	2.156	2155.5	generate	Run2	generate/STIM_022.jpg	99
1564.545	1.281	1281.2	generate	Run2	generate/STIM_022.jpg	99
1569.674	2.058	2058.2	generate	Run2	generate/STIM_023.jpg	99
1574.056	1.861	1860.6	generate	Run2	generate/STIM_023.jpg	99
1578.182	2.8	2800.2	generate	Run2	generate/STIM_023.jpg	99
1583.291	2.228	2227.7	generate	Run2	generate/STIM_023.jpg	99
1588.926	2.054	2053.8	generate	Run2	generate/STIM_023.jpg	100
1594.149	2.186	2186.4	generate	Run2	generate/STIM_024.jpg	99
1599.898	2.041	2041.1	generate	Run2	generate/STIM_024.jpg	100
1604.958	2.722	2722.2	generate	Run2	generate/STIM_024.jpg	99
1609.961	1.281	1281.0	generate	Run2	generate/STIM_024.jpg	100
1614.754	1.134	1134.3	generate	Run2	generate/STIM_024.jpg	99
1619.378	0.897	897.3	repeat	Run2	repeat/STIM_000.jpg	99
1622.588	0.905	905.1	repeat	Run2	repeat/STIM_000.jpg	100
1625.604	0.855	854.9	repeat	Run2	repeat/STIM_000.jpg	99
1629.644	0.692	691.5	repeat	Run2	repeat/STIM_000.jpg	100
1633.799	0.958	958.2	repeat	Run2	repeat/STIM_000.jpg	100
1636.791	1.056	1056.0	repeat	Run2	repeat/STIM_001.jpg	100
1640.254	0.737	736.7	repeat	Run2	repeat/STIM_001.jpg	99
1643.728	0.757	757.2	repeat	Run2	repeat/STIM_001.jpg	100
1648.062	0.99	989.9	repeat	Run2	repeat/STIM_001.jpg	100
1652.135	0.856	856.4	repeat	Run2	repeat/STIM_001.jpg	100
1656.91	1.202	1201.7	repeat	Run2	repeat/STIM_002.jpg	99
1660.543	0.835	834.6	repeat	Run2	repeat/STIM_002.jpg	99
1664.943	1.056	1056.2	repeat	Run2	repeat/STIM_002.jpg	99
1669.235	1.079	1078.9	repeat	Run2	repeat/STIM_002.jpg	99
1672.396	1.226	1225.9	repeat	Run2	repeat/STIM_002.jpg	100
1676.023	0.79	790.1	repeat	Run2	repeat/STIM_003.jpg	99
1680.221	0.914	914.4	repeat	Run2	repeat/STIM_003.jpg	100
1683.475	0.657	657.2	repeat	Run2	repeat/STIM_003.jpg	99
1687.16	0.959	958.8	repeat	Run2	repeat/STIM_003.jpg	99
1690.458	0.868	868.5	repeat	Run2	repeat/STIM_003.jpg	100
1695.075	0.637	636.8	repeat	Run2	repeat/STIM_004.jpg	99
1698.196	0.854	854.1	repeat	Run2	repeat/STIM_004.jpg	100
1701.582	0.646	646.0	repeat	Run2	repeat/STIM_004.jpg	99
1704.536	0.721	721.2	repeat	Run2	repeat/STIM_004.jpg	100
1707.619	1.175	1174.9	repeat	Run2	repeat/STIM_004.jpg	100
1710.912	0.822	822.2	repeat	Run2	repeat/STIM_005.jpg	100
1714.933	1.255	1255.0	repeat	Run2	repeat/STIM_005.jpg	100
1718.494	1.22	1219.7	repeat	Run2	repeat/STIM_005.jpg	100
1723.185	0.706	706.4	repeat	Run2	repeat/STIM_005.jpg	99
1726.663	1.096	1096.5	repeat	Run2	repeat/STIM_005.jpg	99
1730.652	0.742	741.5	repeat	Run2	repeat/STIM_006.jpg	100
1735.218	0.988	987.7	repeat	Run2	repeat/STIM_006.jpg	99
1739.117	0.933	932.7	repeat	Run2	repeat/STIM_006.jpg	100
1743.34	0.662	662.4	repeat	Run2	repeat/STIM_006.jpg	100
1747.503	1.028	1027.9	repeat	Run2	repeat/STIM_006.jpg	100
1751.107	0.676	676.0	repeat	Run2	repeat/STIM_007.jpg	99
1754.584	1.17	1170.4	repeat	Run2	repeat/STIM_007.jpg	99
1758.39	0.895	895.0	repeat	Run2	repeat/STIM_007.jpg	99
1762.598	1.23	1230.4	repeat	Run2	repeat/STIM_007.jpg	100
1766.216	1.244	1244.4	repeat	Run2	repeat/STIM_007.jpg	100
1769.688	1.096	1095.6	repeat	Run2	repeat/STIM_008.jpg	99
1773.49	0.985	984.7	repeat	Run2	repeat/STIM_008.jpg	100
1777.593	1.173	1173.2	repeat	Run2	repeat/STIM_008.jpg	100
1782.16	0.678	678.4	repeat	Run2	repeat/STIM_008.jpg	100
1785.922	1.255	1255.4	repeat	Run2	repeat/STIM_008.jpg	99
1790.443	1.023	1022.7	repeat	Run2	repeat/STIM_009.jpg	100
1794.007	1.263	1263.3	repeat	Run2	repeat/STIM_009.jpg	100
1797.279	0.725	725.1	repeat	Run2	repeat/STIM_009.jpg	100
1801.395	1.155	1155.3	repeat	Run2	repeat/STIM_009.jpg	100
1805.7	0.933	932.6	repeat	Run2	repeat/STIM_009.jpg	99
1809.845	0.914	913.9	repeat	Run2	repeat/STIM_010.jpg	100
1812.871	1.108	1108.4	repeat	Run2	repeat/STIM_010.jpg	99
1816.018	1.139	1139.1	repeat	Run2	repeat/STIM_010.jpg	99
1819.42	0.836	836.2	repeat	Run2	repeat/STIM_010.jpg	99
1822.27	1.192	1191.9	repeat	Run2	repeat/STIM_010.jpg	100
1826.297	1.262	1262.4	repeat	Run2	repeat/STIM_011.jpg	99
1829.889	1.219	1218.6	repeat	Run2	repeat/STIM_011.jpg	100
1833.931	0.945	945.3	repeat	Run2	repeat/STIM_011.jpg	99
1837.208	1.136	1135.5	repeat	Run2	repeat/STIM_011.jpg	100
1841.642	1.2	1200.2	repeat	Run2	repeat/STIM_011.jpg	100
1845.885	1.228	1228.5	repeat	Run2	repeat/STIM_012.jpg	100
1850.982	0.787	787.2	repeat	Run2	repeat/STIM_012.jpg	100
1854.82	0.962	962.2	repeat	Run2	repeat/STIM_012.jpg	100
1858.679	0.946	945.8	repeat	Run2	repeat/STIM_012.jpg	99
1863.4	0.958	958.2	repeat	Run2	repeat/STIM_012.jpg	99
1867.1	1.208	1207.8	repeat	Run2	repeat/STIM_013.jpg	99
1870.998	0.764	764.3	repeat	Run2	repeat/STIM_013.jpg	99
1875.17	1.008	1008.2	repeat	Run2	repeat/STIM_013.jpg	100
1878.232	0.999	999.3	repeat	Run2	repeat/STIM_013.jpg	99
1882.741	0.67	670.5	repeat	Run2	repeat/STIM_013.jpg	100
1885.542	0.829	828.6	repeat	Run2	repeat/STIM_014.jpg	100
1890.348	0.641	640.7	repeat	Run2	repeat/STIM_014.jpg	100
1893.329	1.131	1131.2	repeat	Run2	repeat/STIM_014.jpg	100
1898.368	0.705	705.1	repeat	Run2	repeat/STIM_014.jpg	100
1903.067	0.664	663.5	repeat	Run2	repeat/STIM_014.jpg	100
1906.192	2.412	2411.6	generate	Run3	generate/STIM_000.jpg	99
1910.882	1.558	1558.3	generate	Run3	generate/STIM_000.jpg	100
1915.301	2.364	2364.0	generate	Run3	generate/STIM_000.jpg	100
1921.045	2.172	2172.4	generate	Run3	generate/STIM_000.jpg	99
1926.485	1.603	1602.6	generate	Run3	generate/STIM_000.jpg	100
1931.395	2.086	2086.1	generate	Run3	generate/STIM_001.jpg	100
1936.763	1.364	1363.7	generate	Run3	generate/STIM_001.jpg	99
1940.587	2.161	2160.6	generate	Run3	generate/STIM_001.jpg	99
1945.808	2.371	2370.6	generate	Run3	generate/STIM_001.jpg	99
1951.774	2.149	2148.8	generate	Run3	generate/STIM_001.jpg	100
1956.839	2.492	2492.1	generate	Run3	generate/STIM_002.jpg	100
1962.638	2.431	2431.4	generate	Run3	generate/STIM_002.jpg	99
1967.985	2.438	2438.0	generate	Run3	generate/STIM_002.jpg	99
1973.596	2.374	2374.2	generate	Run3	generate/STIM_002.jpg	99
1978.703	2.226	2226.2	generate	Run3	generate/STIM_002.jpg	99
1984.886	2.514	2514.0	generate	Run3	generate/STIM_003.jpg	99
1989.837	2.104	2104.3	generate	Run3	generate/STIM_003.jpg	99
1995.257	1.48	1479.6	generate	Run3	generate/STIM_003.jpg	99
1999.147	1.293	1293.2	generate	Run3	generate/STIM_003.jpg	100
2002.723	2.024	2024.0	generate	Run3	generate/STIM_003.jpg	99
2008.11	2.037	2036.6	generate	Run3	generate/STIM_004.jpg	100
2012.368	1.106	1106.4	generate	Run3	generate/STIM_004.jpg	100
2017.363	2.589	2589.3	generate	Run3	generate/STIM_004.jpg	100
2022.85	2.108	2108.5	generate	Run3	generate/STIM_004.jpg	100
2027.095	1.507	1507.4	generate	Run3	generate/STIM_004.jpg	100
2032.198	1.65	1650.1	generate	Run3	generate/STIM_005.jpg	99
2036.545	2.417	2416.6	generate	Run3	generate/STIM_005.jpg	99
2042.74	1.945	1944.7	generate	Run3	generate/STIM_005.jpg	100
2047.48	2.049	2048.6	generate	Run3	generate/STIM_005.jpg	100
2052.411	1.372	1372.5	generate	Run3	generate/STIM_005.jpg	99
2056.606	2.627	2626.8	generate	Run3	generate/STIM_006.jpg	99
2062.169	1.837	1837.4	generate	Run3	generate/STIM_006.jpg	99
2066.046	2.58	2580.0	generate	Run3	generate/STIM_006.jpg	100
2071.67	1.254	1254.5	generate	Run3	generate/STIM_006.jpg	100
2076.268	1.554	1554.3	generate	Run3	generate/STIM_006.jpg	99
2080.191	1.9	1900.1	generate	Run3	generate/STIM_007.jpg	99
2084.774	1.12	1120.0	generate	Run3	generate/STIM_007.jpg	99
2089.785	1.078	1078.4	generate	Run3	generate/STIM_007.jpg	99
2094.097	1.139	1138.6	generate	Run3	generate/STIM_007.jpg	99
2098.946	2.424	2423.9	generate	Run3	generate/STIM_007.jpg	100
2105.176	2.31	2310.4	generate	Run3	generate/STIM_008.jpg	100
2110.888	2.033	2032.7	generate	Run3	generate/STIM_008.jpg	100
2115.469	2.504	2504.2	generate	Run3	generate/STIM_008.jpg	99
2121.841	1.592	1591.5	generate	Run3	generate/STIM_008.jpg	100
2125.905	1.118	1118.4	generate	Run3	generate/STIM_008.jpg	100
2130.652	1.255	1255.4	generate	Run3	generate/STIM_009.jpg	99
2134.758	1.383	1383.3	generate	Run3	generate/STIM_009.jpg	99
2139.257	2.621	2621.4	generate	Run3	generate/STIM_009.jpg	99
2143.964	1.907	1906.6	generate	Run3	generate/STIM_009.jpg	99
2149.076	1.726	1726.4	generate	Run3	generate/STIM_009.jpg	100
2153.278	1.492	1491.7	generate	Run3	generate/STIM_010.jpg	100
2156.825	1.202	1201.5	generate	Run3	generate/STIM_010.jpg	100
2161.642	1.996	1996.3	generate	Run3	generate/STIM_010.jpg	99
2166.002	2.383	2383.4	generate	Run3	generate/STIM_010.jpg	100
2170.948	2.554	2553.5	generate	Run3	generate/STIM_010.jpg	99
2176.197	1.134	1134.5	generate	Run3	generate/STIM_011.jpg	100
2181.212	1.797	1796.9	generate	Run3	generate/STIM_011.jpg	100
2185.273	2.304	2304.2	generate	Run3	generate/STIM_011.jpg	99
2189.707	1.979	1979.3	generate	Run3	generate/STIM_011.jpg	100
2194.818	1.526	1526.0	generate	Run3	generate/STIM_011.jpg	99
2200.183	2.011	2011.1	generate	Run3	generate/STIM_012.jpg	99
2204.207	2.476	2476.5	generate	Run3	generate/STIM_012.jpg	100
2210.579	2.421	2420.7	generate	Run3	generate/STIM_012.jpg	99
2215.232	2.44	2439.9	generate	Run3	generate/STIM_012.jpg	99
2221.554	1.798	1798.0	generate	Run3	generate/STIM_012.jpg	100
2227.258	1.678	1678.1	generate	Run3	generate/STIM_013.jpg	100
2231.494	2.023	2022.9	generate	Run3	generate/STIM_013.jpg	100
2236.545	1.234	1234.4	generate	Run3	generate/STIM_013.jpg	99
2241.717	1.121	1120.7	generate	Run3	generate/STIM_013.jpg	99
2246.759	1.279	1278.8	generate	Run3	generate/STIM_013.jpg	100
2250.111	1.47	1470.2	generate	Run3	generate/STIM_014.jpg	100
2254.95	2.036	2036.0	generate	Run3	generate/STIM_014.jpg	100
2259.159	1.478	1477.8	generate	Run3	generate/STIM_014.jpg	100
2264.005	1.089	1088.7	generate	Run3	generate/STIM_014.jpg	99
2268.849	1.814	1813.7	generate	Run3	generate/STIM_014.jpg	100
2273.012	1.564	1563.9	generate	Run3	generate/STIM_015.jpg	99
2277.479	2.479	2479.0	generate	Run3	generate/STIM_015.jpg	99
2282.037	1.9	1899.8	generate	Run3	generate/STIM_015.jpg	99
2287.109	1.828	1828.1	generate	Run3	generate/STIM_015.jpg	100
2291.438	2.241	2241.4	generate	Run3	generate/STIM_015.jpg	99
2295.858	1.73	1730.2	generate	Run3	generate/STIM_016.jpg	99
2301.379	2.013	2012.7	generate	Run3	generate/STIM_016.jpg	100
2306.051	1.926	1925.5	generate	Run3	generate/STIM_016.jpg	100
2310.692	2.119	2119.0	generate	Run3	generate/STIM_016.jpg	99
2315.768	1.644	1643.6	generate	Run3	generate/STIM_016.jpg	100
2320.773	1.418	1418.2	generate	Run3	generate/STIM_017.jpg	99
2324.476	1.98	1980.0	generate	Run3	generate/STIM_017.jpg	100
2328.867	2.318	2318.4	generate	Run3	generate/STIM_017.jpg	100
2333.796	2.116	2115.5	generate	Run3	generate/STIM_017.jpg	100
2339.01	1.345	1345.0	generate	Run3	generate/STIM_017.jpg	100
2343.003	2.046	2045.7	generate	Run3	generate/STIM_018.jpg	100
2347.305	1.55	1549.7	generate	Run3	generate/STIM_018.jpg	100
2351.439	2.062	2061.6	generate	Run3	generate/STIM_018.jpg	99
2356.179	1.916	1915.6	generate	Run3	generate/STIM_018.jpg	99
2361.814	2.535	2535.3	generate	Run3	generate/STIM_018.jpg	99
2367.13	1.488	1487.7	generate	Run3	generate/STIM_019.jpg	99
2371.391	1.265	1264.6	generate	Run3	generate/STIM_019.jpg	100
2375.264	2.272	2271.6	generate	Run3	generate/STIM_019.jpg	100
2379.921	1.779	1779.1	generate	Run3	generate/STIM_019.jpg	99
2383.788	1.906	1906.3	generate	Run3	generate/STIM_019.jpg	99
2388.0	1.982	1982.3	generate	Run3	generate/STIM_020.jpg	100
2393.292	2.049	2048.7	generate	Run3	generate/STIM_020.jpg	99
2398.846	2.132	2131.8	generate	Run3	generate/STIM_020.jpg	99
2403.943	1.182	1182.0	generate	Run3	generate/STIM_020.jpg	99
2409.023	2.076	2075.9	generate	Run3	generate/STIM_020.jpg	100
2414.287	2.026	2026.0	generate	Run3	generate/STIM_021.jpg	99
2419.87	2.265	2265.1	generate	Run3	generate/STIM_021.jpg	99
2426.001	1.157	1157.3	generate	Run3	generate/STIM_021.jpg	99
2430.177	1.654	1653.5	generate	Run3	generate/STIM_021.jpg	100
2435.33	2.472	2472.5	generate	Run3	generate/STIM_021.jpg	99
2440.713	2.048	2047.9	generate	Run3	generate/STIM_022.jpg	100
2445.07	1.151	1151.3	generate	Run3	generate/STIM_022.jpg	99
2449.721	1.645	1644.8	generate	Run3	generate/STIM_022.jpg	100
2453.443	2.18	2180.1	generate	Run3	generate/STIM_022.jpg	99
2459.116	2.367	2367.0	generate	Run3	generate/STIM_022.jpg	99
2463.58	2.435	2434.6	generate	Run3	generate/STIM_023.jpg	99
2468.144	2.271	2271.0	generate	Run3	generate/STIM_023.jpg	100
2473.178	2.364	2363.7	generate	Run3	generate/STIM_023.jpg	100
2479.212	2.206	2206.2	generate	Run3	generate/STIM_023.jpg	99
2485.256	2.641	2641.4	generate	Run3	generate/STIM_023.jpg	99
2490.852	2.58	2579.8	generate	Run3	generate/STIM_024.jpg	100
2496.502	2.061	2061.0	generate	Run3	generate/STIM_024.jpg	100
2501.547	1.742	1742.2	generate	Run3	generate/STIM_024.jpg	100
2505.769	2.665	2664.6	generate	Run3	generate/STIM_024.jpg	99
2512.284	1.471	1471.1	generate	Run3	generate/STIM_024.jpg	99
2517.534	1.21	1210.5	repeat	Run3	repeat/STIM_000.jpg	99
2522.373	0.77	770.3	repeat	Run3	repeat/STIM_000.jpg	99
2526.7	0.78	780.4	repeat	Run3	repeat/STIM_000.jpg	99
2531.334	0.674	674.4	repeat	Run3	repeat/STIM_000.jpg	100
2534.493	0.644	644.0	repeat	Run3	repeat/STIM_000.jpg	99
2538.659	1.053	1052.9	repeat	Run3	repeat/STIM_001.jpg	99
2543.643	0.741	741.1	repeat	Run3	repeat/STIM_001.jpg	99
2548.12	0.814	813.6	repeat	Run3	repeat/STIM_001.jpg	99
2552.572	1.068	1067.5	repeat	Run3	repeat/STIM_001.jpg	99
2556.741	1.127	1127.3	repeat	Run3	repeat/STIM_001.jpg	99
2560.388	1.083	1082.7	repeat	Run3	repeat/STIM_002.jpg	100
2564.832	0.68	680.2	repeat	Run3	repeat/STIM_002.jpg	99
2568.719	0.748	747.9	repeat	Run3	repeat/STIM_002.jpg	99
2572.244	0.99	990.0	repeat	Run3	repeat/STIM_002.jpg	99
2575.243	0.855	854.8	repeat	Run3	repeat/STIM_002.jpg	99
2578.425	1.23	1229.5	repeat	Run3	repeat/STIM_003.jpg	99
2582.816	0.719	718.6	repeat	Run3	repeat/STIM_003.jpg	100
2587.477	1.143	1143.1	repeat	Run3	repeat/STIM_003.jpg	100
2591.619	0.773	773.0	repeat	Run3	repeat/STIM_003.jpg	100
2595.297	1.054	1054.0	repeat	Run3	repeat/STIM_003.jpg	100
2598.748	0.98	980.1	repeat	Run3	repeat/STIM_004.jpg	99
2602.095	1.101	1100.7	repeat	Run3	repeat/STIM_004.jpg	100
2606.113	1.068	1068.0	repeat	Run3	repeat/STIM_004.jpg	100
2609.887	0.689	689.0	repeat	Run3	repeat/STIM_004.jpg	100
2613.148	0.692	692.4	repeat	Run3	repeat/STIM_004.jpg	100
2617.129	0.744	743.7	repeat	Run3	repeat/STIM_005.jpg	99
2620.098	0.706	705.6	repeat	Run3	repeat/STIM_005.jpg	99
2624.068	0.751	751.2	repeat	Run3	repeat/STIM_005.jpg	99
2627.838	1.079	1079.4	repeat	Run3	repeat/STIM_005.jpg	100
2630.926	1.146	1145.5	repeat	Run3	repeat/STIM_005.jpg	100
2635.791	1.117	1117.2	repeat	Run3	repeat/STIM_006.jpg	100
2638.949	0.654	653.8	repeat	Run3	repeat/STIM_006.jpg	100
2642.605	0.828	827.8	repeat	Run3	repeat/STIM_006.jpg	99
2646.496	1.007	1007.1	repeat	Run3	repeat/STIM_006.jpg	99
2650.486	0.656	656.3	repeat	Run3	repeat/STIM_006.jpg	100
2653.814	0.991	991.2	repeat	Run3	repeat/STIM_007.jpg	100
2658.169	1.119	1118.7	repeat	Run3	repeat/STIM_007.jpg	99
2662.623	1.055	1055.3	repeat	Run3	repeat/STIM_007.jpg	99
2666.136	0.741	741.4	repeat	Run3	repeat/STIM_007.jpg	100
2670.363	0.741	741.3	repeat	Run3	repeat/STIM_007.jpg	100
2674.937	0.714	714.4	repeat	Run3	repeat/STIM_008.jpg	100
2678.543	1.03	1029.8	repeat	Run3	repeat/STIM_008.jpg	100
2682.838	1.148	1148.4	repeat	Run3	repeat/STIM_008.jpg	99
2686.975	0.928	928.4	repeat	Run3	repeat/STIM_008.jpg	99
2690.622	0.64	640.1	repeat	Run3	repeat/STIM_008.jpg	100
2694.958	0.983	982.9	repeat	Run3	repeat/STIM_009.jpg	100
2698.673	0.803	802.8	repeat	Run3	repeat/STIM_009.jpg	99
2702.663	0.637	636.9	repeat	Run3	repeat/STIM_009.jpg	100
2706.898	0.881	880.9	repeat	Run3	repeat/STIM_009.jpg	100
2710.745	0.743	742.6	repeat	Run3	repeat/STIM_009.jpg	99
2714.455	0.804	804.4	repeat	Run3	repeat/STIM_010.jpg	100
2718.642	0.734	734.4	repeat	Run3	repeat/STIM_010.jpg	99
2722.683	1.184	1183.9	repeat	Run3	repeat/STIM_010.jpg	99
2726.768	1.15	1150.4	repeat	Run3	repeat/STIM_010.jpg	99
2731.7	1.118	1117.9	repeat	Run3	repeat/STIM_010.jpg	99
2735.982	1.208	1208.3	repeat	Run3	repeat/STIM_011.jpg	99
2739.284	0.898	898.2	repeat	Run3	repeat/STIM_011.jpg	99
2743.881	0.911	911.2	repeat	Run3	repeat/STIM_011.jpg	100
2746.802	0.638	637.9	repeat	Run3	repeat/STIM_011.jpg	99
2750.257	0.941	941.1	repeat	Run3	repeat/STIM_011.jpg	100
2754.939	1.073	1072.9	repeat	Run3	repeat/STIM_012.jpg	99
2759.356	0.856	855.5	repeat	Run3	repeat/STIM_012.jpg	99
2762.429	1.078	1077.5	repeat	Run3	repeat/STIM_012.jpg	100
2765.956	1.262	1262.1	repeat	Run3	repeat/STIM_012.jpg	99
2770.325	0.972	971.5	repeat	Run3	repeat/STIM_012.jpg	100
2774.804	1.232	1232.2	repeat	Run3	repeat/STIM_013.jpg	100
2779.352	1.187	1186.8	repeat	Run3	repeat/STIM_013.jpg	99
2782.595	0.688	688.4	repeat	Run3	repeat/STIM_013.jpg	100
2785.556	0.946	945.6	repeat	Run3	repeat/STIM_013.jpg	99
2789.076	0.948	947.6	repeat	Run3	repeat/STIM_013.jpg	99
2793.61	1.178	1177.5	repeat	Run3	repeat/STIM_014.jpg	99
2797.922	1.134	1134.4	repeat	Run3	repeat/STIM_014.jpg	100
2802.72	0.868	867.7	repeat	Run3	repeat/STIM_014.jpg	99
2806.977	1.25	1249.5	repeat	Run3	repeat/STIM_014.jpg	99
2811.013	1.074	1074.2	repeat	Run3	repeat/STIM_014.jpg	99
2814.693	1.095	1095.4	generate	Run4	generate/STIM_000.jpg	99
2818.047	2.379	2378.8	generate	Run4	generate/STIM_000.jpg	99
2823.971	1.557	1556.9	generate	Run4	generate/STIM_000.jpg	100
2828.184	2.16	2159.9	generate	Run4	generate/STIM_000.jpg	99
2832.423	1.298	1298.2	generate	Run4	generate/STIM_000.jpg	100
2837.653	1.799	1799.0	generate	Run4	generate/STIM_001.jpg	100
2842.294	2.164	2164.1	generate	Run4	generate/STIM_001.jpg	99
2847.322	1.273	1272.9	generate	Run4	generate/STIM_001.jpg	99
2851.98	1.122	1122.0	generate	Run4	generate/STIM_001.jpg	99
2855.533	1.649	1649.3	generate	Run4	generate/STIM_001.jpg	100
2861.14	2.596	2596.1	generate	Run4	generate/STIM_002.jpg	100
2865.853	2.485	2485.3	generate	Run4	generate/STIM_002.jpg	99
2870.585	1.957	1956.7	generate	Run4	generate/STIM_002.jpg	99
2876.339	2.27	2269.8	generate	Run4	generate/STIM_002.jpg	100
2881.676	2.504	2504.5	generate	Run4	generate/STIM_002.jpg	99
2887.897	1.845	1845.4	generate	Run4	generate/STIM_003.jpg	100
2892.638	1.28	1279.9	generate	Run4	generate/STIM_003.jpg	100
2896.478	2.588	2587.5	generate	Run4	generate/STIM_003.jpg	99
2901.948	1.147	1147.0	generate	Run4	generate/STIM_003.jpg	100
2906.497	2.126	2126.4	generate	Run4	generate/STIM_003.jpg	99
2911.634	2.5	2499.9	generate	Run4	generate/STIM_004.jpg	99
2916.675	1.991	1991.0	generate	Run4	generate/STIM_004.jpg	99
2921.838	1.791	1790.6	generate	Run4	generate/STIM_004.jpg	99
2926.919	2.568	2567.9	generate	Run4	generate/STIM_004.jpg	99
2932.486	2.096	2096.2	generate	Run4	generate/STIM_004.jpg	100
2938.413	1.547	1546.7	generate	Run4	generate/STIM_005.jpg	99
2942.468	1.524	1524.4	generate	Run4	generate/STIM_005.jpg	100
2947.188	2.665	2665.2	generate	Run4	generate/STIM_005.jpg	99
2952.325	1.189	1189.3	generate	Run4	generate/STIM_005.jpg	99
2956.772	2.415	2414.8	generate	Run4	generate/STIM_005.jpg	100
2963.111	2.428	2428.4	generate	Run4	generate/STIM_006.jpg	100
2967.624	2.428	2428.2	generate	Run4	generate/STIM_006.jpg	99
2972.797	2.198	2198.0	generate	Run4	generate/STIM_006.jpg	100
2977.872	2.349	2348.7	generate	Run4	generate/STIM_006.jpg	99
2983.876	1.616	1615.5	generate	Run4	generate/STIM_006.jpg	99
2987.661	2.519	2519.0	generate	Run4	generate/STIM_007.jpg	99
2993.574	1.904	1903.7	generate	Run4	generate/STIM_007.jpg	100
2999.382	2.107	2107.1	generate	Run4	generate/STIM_007.jpg	100
3003.735	1.492	1492.0	generate	Run4	generate/STIM_007.jpg	99
3008.365	1.642	1641.5	generate	Run4	generate/STIM_007.jpg	100
3012.905	2.463	2463.1	generate	Run4	generate/STIM_008.jpg	100
3017.431	2.495	2494.8	generate	Run4	generate/STIM_008.jpg	100
3023.12	1.79	1790.2	generate	Run4	generate/STIM_008.jpg	99
3028.829	1.639	1638.7	generate	Run4	generate/STIM_008.jpg	100
3032.996	1.403	1403.4	generate	Run4	generate/STIM_008.jpg	99
3037.774	2.098	2098.3	generate	Run4	generate/STIM_009.jpg	99
3043.776	1.86	1860.1	generate	Run4	generate/STIM_009.jpg	99
3047.642	1.938	1938.0	generate	Run4	generate/STIM_009.jpg	100
3051.582	1.734	1734.0	generate	Run4	generate/STIM_009.jpg	100
3056.008	1.594	1593.5	generate	Run4	generate/STIM_009.jpg	99
3060.707	1.952	1951.8	generate	Run4	generate/STIM_010.jpg	99
3066.524	1.85	1850.2	generate	Run4	generate/STIM_010.jpg	99
3072.314	1.248	1248.0	generate	Run4	generate/STIM_010.jpg	100
3076.097	1.587	1586.7	generate	Run4	generate/STIM_010.jpg	100
3081.531	2.158	2157.7	generate	Run4	generate/STIM_010.jpg	99
3086.396	2.365	2364.9	generate	Run4	generate/STIM_011.jpg	99
3092.49	2.098	2097.8	generate	Run4	generate/STIM_011.jpg	100
3097.299	1.228	1227.6	generate	Run4	generate/STIM_011.jpg	100
3101.888	1.834	1834.4	generate	Run4	generate/STIM_011.jpg	100
3107.313	1.656	1655.7	generate	Run4	generate/STIM_011.jpg	99
3112.436	1.953	1952.9	generate	Run4	generate/STIM_012.jpg	100
3116.752	1.69	1690.3	generate	Run4	generate/STIM_012.jpg	100
3121.442	1.297	1296.7	generate	Run4	generate/STIM_012.jpg	99
3126.463	1.614	1613.5	generate	Run4	generate/STIM_012.jpg	100
3132.023	2.536	2536.3	generate	Run4	generate/STIM_012.jpg	99
3136.802	1.484	1483.7	generate	Run4	generate/STIM_013.jpg	100
3141.762	2.31	2309.7	generate	Run4	generate/STIM_013.jpg	99
3146.639	1.688	1688.5	generate	Run4	generate/STIM_013.jpg	100
3151.083	1.478	1477.5	generate	Run4	generate/STIM_013.jpg	100
3154.801	1.712	1712.2	generate	Run4	generate/STIM_013.jpg	100
3158.776	1.45	1450.3	generate	Run4	generate/STIM_014.jpg	99
3163.947	2.483	2483.1	generate	Run4	generate/STIM_014.jpg	99
3169.341	1.814	1814.0	generate	Run4	generate/STIM_014.jpg	99
3173.363	1.281	1281.4	generate	Run4	generate/STIM_014.jpg	100
3178.438	1.562	1561.7	generate	Run4	generate/STIM_014.jpg	100
3183.769	1.175	1174.8	generate	Run4	generate/STIM_015.jpg	99
3188.051	1.141	1140.9	generate	Run4	generate/STIM_015.jpg	99
3191.278	2.627	2627.4	generate	Run4	generate/STIM_015.jpg	99
3196.628	1.858	1858.5	generate	Run4	generate/STIM_015.jpg	99
3201.65	1.781	1781.2	generate	Run4	generate/STIM_015.jpg	99
3205.478	2.601	2601.0	generate	Run4	generate/STIM_016.jpg	100
3211.773	1.121	1120.6	generate	Run4	generate/STIM_016.jpg	100
3216.424	2.381	2381.0	generate	Run4	generate/STIM_016.jpg	99
3221.946	1.756	1756.4	generate	Run4	generate/STIM_016.jpg	100
3227.525	2.304	2303.5	generate	Run4	generate/STIM_016.jpg	100
3232.219	1.423	1423.0	generate	Run4	generate/STIM_017.jpg	100
3236.247	1.494	1494.1	generate	Run4	generate/STIM_017.jpg	99
3241.293	2.545	2544.7	generate	Run4	generate/STIM_017.jpg	100
3247.696	2.082	2082.2	generate	Run4	generate/STIM_017.jpg	99
3251.859	2.331	2331.3	generate	Run4	generate/STIM_017.jpg	99
3257.472	2.14	2140.3	generate	Run4	generate/STIM_018.jpg	100
3262.518	1.374	1374.2	generate	Run4	generate/STIM_018.jpg	100
3266.023	1.134	1133.9	generate	Run4	generate/STIM_018.jpg	99
3269.664	1.122	1121.6	generate	Run4	generate/STIM_018.jpg	100
3274.129	1.952	1951.9	generate	Run4	generate/STIM_018.jpg	99
3279.344	1.256	1256.0	generate	Run4	generate/STIM_019.jpg	100
3283.379	2.671	2671.4	generate	Run4	generate/STIM_019.jpg	100
3289.198	2.276	2275.5	generate	Run4	generate/STIM_019.jpg	99
3294.525	2.357	2357.1	generate	Run4	generate/STIM_019.jpg	100
3299.47	1.722	1721.6	generate	Run4	generate/STIM_019.jpg	100
3304.234	1.697	1697.1	generate	Run4	generate/STIM_020.jpg	99
3309.276	1.252	1252.2	generate	Run4	generate/STIM_020.jpg	100
3313.263	2.531	2530.7	generate	Run4	generate/STIM_020.jpg	99
3318.543	1.513	1513.2	generate	Run4	generate/STIM_020.jpg	100
3322.131	1.848	1847.6	generate	Run4	generate/STIM_020.jpg	100
3326.469	2.434	2434.0	generate	Run4	generate/STIM_021.jpg	99
3332.865	2.091	2090.7	generate	Run4	generate/STIM_021.jpg	100
3337.287	2.453	2452.7	generate	Run4	generate/STIM_021.jpg	100
3343.31	1.471	1471.0	generate	Run4	generate/STIM_021.jpg	99
3347.252	1.521	1520.7	generate	Run4	generate/STIM_021.jpg	99
3351.325	2.456	2456.1	generate	Run4	generate/STIM_022.jpg	100
3356.455	1.767	1766.9	generate	Run4	generate/STIM_022.jpg	99
3362.197	2.449	2448.7	generate	Run4	generate/STIM_022.jpg	100
3368.352	1.084	1083.8	generate	Run4	generate/STIM_022.jpg	99
3371.461	2.335	2334.7	generate	Run4	generate/STIM_022.jpg	100
3376.995	1.416	1416.3	generate	Run4	generate/STIM_023.jpg	99
3380.963	2.357	2357.0	generate	Run4	generate/STIM_023.jpg	99
3385.363	2.481	2481.1	generate	Run4	generate/STIM_023.jpg	99
3390.086	2.303	2302.8	generate	Run4	generate/STIM_023.jpg	100
3396.178	2.438	2438.3	generate	Run4	generate/STIM_023.jpg	99
3401.251	1.13	1129.7	generate	Run4	generate/STIM_024.jpg	100
3404.498	1.084	1084.4	generate	Run4	generate/STIM_024.jpg	100
3408.033	2.318	2318.5	generate	Run4	generate/STIM_024.jpg	99
3412.428	1.606	1605.8	generate	Run4	generate/STIM_024.jpg	99
3416.795	1.567	1567.0	generate	Run4	generate/STIM_024.jpg	100
3422.128	0.828	828.4	repeat	Run4	repeat/STIM_000.jpg	99
3425.295	1.053	1053.3	repeat	Run4	repeat/STIM_000.jpg	99
3428.843	0.704	703.7	repeat	Run4	repeat/STIM_000.jpg	99
3431.9	1.202	1201.9	repeat	Run4	repeat/STIM_000.jpg	100
3436.533	0.934	934.3	repeat	Run4	repeat/STIM_000.jpg	99
3439.832	1.049	1049.4	repeat	Run4	repeat/STIM_001.jpg	99
3443.109	1.023	1023.1	repeat	Run4	repeat/STIM_001.jpg	100
3447.707	1.146	1145.7	repeat	Run4	repeat/STIM_001.jpg	99
3452.288	1.143	1142.8	repeat	Run4	repeat/STIM_001.jpg	100
3457.048	0.976	975.8	repeat	Run4	repeat/STIM_001.jpg	100
3460.428	0.75	749.8	repeat	Run4	repeat/STIM_002.jpg	99
3463.348	0.949	949.0	repeat	Run4	repeat/STIM_002.jpg	100
3466.825	0.838	838.3	repeat	Run4	repeat/STIM_002.jpg	100
3470.257	0.743	743.0	repeat	Run4	repeat/STIM_002.jpg	100
3473.66	0.67	670.4	repeat	Run4	repeat/STIM_002.jpg	99
3478.014	0.924	923.8	repeat	Run4	repeat/STIM_003.jpg	99
3482.455	0.695	694.9	repeat	Run4	repeat/STIM_003.jpg	100
3486.041	0.99	990.2	repeat	Run4	repeat/STIM_003.jpg	100
3489.113	0.965	965.1	repeat	Run4	repeat/STIM_003.jpg	99
3493.923	0.925	924.7	repeat	Run4	repeat/STIM_003.jpg	100
3497.076	0.832	832.4	repeat	Run4	repeat/STIM_004.jpg	100
3500.343	0.77	770.1	repeat	Run4	repeat/STIM_004.jpg	100
3503.293	0.725	724.6	repeat	Run4	repeat/STIM_004.jpg	99
3506.622	0.912	912.2	repeat	Run4	repeat/STIM_004.jpg	100
3509.77	0.74	740.5	repeat	Run4	repeat/STIM_004.jpg	99
3513.406	1.079	1078.8	repeat	Run4	repeat/STIM_005.jpg	99
3517.525	0.659	659.1	repeat	Run4	repeat/STIM_005.jpg	100
3520.594	0.796	796.2	repeat	Run4	repeat/STIM_005.jpg	99
3524.065	0.976	976.0	repeat	Run4	repeat/STIM_005.jpg	99
3527.156	0.678	678.2	repeat	Run4	repeat/STIM_005.jpg	99
3531.242	0.685	684.8	repeat	Run4	repeat/STIM_006.jpg	100
3534.138	1.039	1038.6	repeat	Run4	repeat/STIM_006.jpg	100
3539.164	0.932	931.7	repeat	Run4	repeat/STIM_006.jpg	100
3543.866	1.143	1142.8	repeat	Run4	repeat/STIM_006.jpg	99
3547.544	0.723	723.4	repeat	Run4	repeat/STIM_006.jpg	100
3551.074	0.645	645.2	repeat	Run4	repeat/STIM_007.jpg	100
3555.046	0.914	914.4	repeat	Run4	repeat/STIM_007.jpg	99
3558.991	1.186	1186.0	repeat	Run4	repeat/STIM_007.jpg	99
3564.074	0.72	720.5	repeat	Run4	repeat/STIM_007.jpg	100
3567.119	1.07	1070.0	repeat	Run4	repeat/STIM_007.jpg	100
3570.272	1.087	1087.2	repeat	Run4	repeat/STIM_008.jpg	100
3574.014	1.259	1259.0	repeat	Run4	repeat/STIM_008.jpg	100
3578.407	1.236	1236.5	repeat	Run4	repeat/STIM_008.jpg	99
3583.304	1.25	1249.8	repeat	Run4	repeat/STIM_008.jpg	99
3588.433	0.859	859.3	repeat	Run4	repeat/STIM_008.jpg	99
3592.692	1.248	1247.9	repeat	Run4	repeat/STIM_009.jpg	99
3596.72	1.272	1272.0	repeat	Run4	repeat/STIM_009.jpg	100
3600.42	0.943	942.8	repeat	Run4	repeat/STIM_009.jpg	100
3605.287	0.788	788.1	repeat	Run4	repeat/STIM_009.jpg	99
3608.448	0.848	847.8	repeat	Run4	repeat/STIM_009.jpg	100
3613.016	1.031	1031.3	repeat	Run4	repeat/STIM_010.jpg	99
3616.954	1.056	1056.5	repeat	Run4	repeat/STIM_010.jpg	100
3620.437	0.899	899.3	repeat	Run4	repeat/STIM_010.jpg	100
3624.915	1.076	1075.6	repeat	Run4	repeat/STIM_010.jpg	100
3628.802	0.708	708.3	repeat	Run4	repeat/STIM_010.jpg	99
3633.157	0.952	952.0	repeat	Run4	repeat/STIM_011.jpg	99
3636.305	0.912	911.5	repeat	Run4	repeat/STIM_011.jpg	99
3640.288	1.031	1030.6	repeat	Run4	repeat/STIM_011.jpg	100
3644.076	0.743	742.9	repeat	Run4	repeat/STIM_011.jpg	100
3648.306	1.024	1023.7	repeat	Run4	repeat/STIM_011.jpg	99
3652.701	0.853	852.8	repeat	Run4	repeat/STIM_012.jpg	100
3656.853	1.176	1175.8	repeat	Run4	repeat/STIM_012.jpg	100
3660.98	0.767	766.7	repeat	Run4	repeat/STIM_012.jpg	99
3665.2	0.694	693.5	repeat	Run4	repeat/STIM_012.jpg	100
3668.612	1.124	1123.8	repeat	Run4	repeat/STIM_012.jpg	100
3673.495	1.014	1013.8	repeat	Run4	repeat/STIM_013.jpg	100
3676.89	1.084	1083.6	repeat	Run4	repeat/STIM_013.jpg	100
3681.905	0.839	839.1	repeat	Run4	repeat/STIM_013.jpg	100
3686.465	1.228	1227.7	repeat	Run4	repeat/STIM_013.jpg	99
3691.271	0.73	730.3	repeat	Run4	repeat/STIM_013.jpg	100
3695.494	1.145	1145.3	repeat	Run4	repeat/STIM_014.jpg	100
3700.163	0.854	854.0	repeat	Run4	repeat/STIM_014.jpg	99
3704.242	0.763	763.4	repeat	Run4	repeat/STIM_014.jpg	100
3707.137	1.015	1014.7	repeat	Run4	repeat/STIM_014.jpg	99
3711.059	1.165	1164.6	repeat	Run4	repeat/STIM_014.jpg	99
