onset	duration	response_time_ms	trial_type	learning_stage	stimulus	response_port
0.0	2.332	2331.5	generate	Run1	generate/STIM_000.jpg	99
4.975	1.459	1458.7	generate	Run1	generate/STIM_000.jpg	99
9.675	1.716	1716.3	generate	Run1	generate/STIM_000.jpg	100
14.611	1.777	1777.1	generate	Run1	generate/STIM_000.jpg	99
19.765	1.719	1718.7	generate	Run1	generate/STIM_000.jpg	100
25.134	1.413	1413.4	generate	Run1	generate/STIM_001.jpg	99
30.389	1.907	1907.4	generate	Run1	generate/STIM_001.jpg	100
34.95	0.996	996.3	generate	Run1	generate/STIM_001.jpg	100
38.112	2.139	2138.8	generate	Run1	generate/STIM_001.jpg	100
43.192	1.476	1475.5	generate	Run1	generate/STIM_001.jpg	99
48.093	1.312	1312.4	generate	Run1	generate/STIM_002.jpg	99
53.23	2.28	2280.5	generate	Run1	generate/STIM_002.jpg	100
58.247	2.314	2313.8	generate	Run1	generate/STIM_002.jpg	100
63.239	2.307	2307.3	generate	Run1	generate/STIM_002.jpg	99
69.052	1.38	1380.4	generate	Run1	generate/STIM_002.jpg	99
73.304	2.672	2671.6	generate	Run1	generate/STIM_003.jpg	100
79.092	1.675	1675.3	generate	Run1	generate/STIM_003.jpg	100
83.251	2.432	2432.4	generate	Run1	generate/STIM_003.jpg	100
88.327	1.596	1596.2	generate	Run1	generate/STIM_003.jpg	100
92.895	1.94	1940.2	generate	Run1	generate/STIM_003.jpg	99
98.472	1.942	1942.1	generate	Run1	generate/STIM_004.jpg	99
104.356	1.982	1982.4	generate	Run1	generate/STIM_004.jpg	100
110.112	1.595	1595.2	generate	Run1	generate/STIM_004.jpg	99
114.518	1.384	1383.7	generate	Run1	generate/STIM_004.jpg	99
119.771	1.77	1769.5	generate	Run1	generate/STIM_004.jpg	99
124.492	2.416	2416.2	generate	Run1	generate/STIM_005.jpg	100
129.885	2.277	2277.2	generate	Run1	generate/STIM_005.jpg	100
134.903	1.115	1115.1	generate	Run1	generate/STIM_005.jpg	100
138.126	2.273	2273.4	generate	Run1	generate/STIM_005.jpg	99
143.784	0.982	982.0	generate	Run1	generate/STIM_005.jpg	100
148.762	2.157	2156.8	generate	Run1	generate/STIM_006.jpg	100
153.686	2.5	2499.5	generate	Run1	generate/STIM_006.jpg	100
159.247	1.412	1412.4	generate	Run1	generate/STIM_006.jpg	100
162.858	1.268	1267.5	generate	Run1	generate/STIM_006.jpg	100
168.117	1.433	1432.7	generate	Run1	generate/STIM_006.jpg	99
172.154	2.294	2293.7	generate	Run1	generate/STIM_007.jpg	100
178.269	1.504	1503.9	generate	Run1	generate/STIM_007.jpg	99
183.639	1.309	1308.6	generate	Run1	generate/STIM_007.jpg	99
187.204	0.99	989.7	generate	Run1	generate/STIM_007.jpg	99
190.577	1.685	1685.1	generate	Run1	generate/STIM_007.jpg	100
195.14	2.654	2653.7	generate	Run1	generate/STIM_008.jpg	100
200.923	2.426	2425.5	generate	Run1	generate/STIM_008.jpg	100
206.558	1.746	1745.5	generate	Run1	generate/STIM_008.jpg	99
211.741	2.012	2011.8	generate	Run1	generate/STIM_008.jpg	99
216.092	1.15	1150.5	generate	Run1	generate/STIM_008.jpg	99
220.747	2.197	2197.0	generate	Run1	generate/STIM_009.jpg	100
227.058	1.786	1786.4	generate	Run1	generate/STIM_009.jpg	99
232.137	2.43	2429.6	generate	Run1	generate/STIM_009.jpg	100
238.123	2.016	2016.3	generate	Run1	generate/STIM_009.jpg	99
243.1	1.91	1909.6	generate	Run1	generate/STIM_009.jpg	99
248.296	2.306	2305.5	generate	Run1	generate/STIM_010.jpg	100
252.891	2.363	2363.4	generate	Run1	generate/STIM_010.jpg	100
257.824	1.877	1877.2	generate	Run1	generate/STIM_010.jpg	100
262.066	2.24	2239.5	generate	Run1	generate/STIM_010.jpg	100
267.264	1.772	1772.5	generate	Run1	generate/STIM_010.jpg	99
271.449	2.783	2783.3	generate	Run1	generate/STIM_011.jpg	99
278.346	2.488	2488.0	generate	Run1	generate/STIM_011.jpg	99
283.865	1.38	1380.1	generate	Run1	generate/STIM_011.jpg	100
289.209	1.55	1550.1	generate	Run1	generate/STIM_011.jpg	99
293.453	1.674	1674.3	generate	Run1	generate/STIM_011.jpg	99
298.978	2.305	2305.1	generate	Run1	generate/STIM_012.jpg	99
303.749	1.4	1400.4	generate	Run1	generate/STIM_012.jpg	99
308.989	1.495	1495.2	generate	Run1	generate/STIM_012.jpg	99
312.973	1.779	1779.4	generate	Run1	generate/STIM_012.jpg	100
316.85	2.293	2292.9	generate	Run1	generate/STIM_012.jpg	99
322.406	2.74	2740.4	generate	Run1	generate/STIM_013.jpg	100
327.894	2.697	2697.3	generate	Run1	generate/STIM_013.jpg	99
334.694	1.27	1270.3	generate	Run1	generate/STIM_013.jpg	99
339.473	1.52	1519.9	generate	Run1	generate/STIM_013.jpg	100
344.078	2.143	2142.8	generate	Run1	generate/STIM_013.jpg	99
349.908	2.18	2179.5	generate	Run1	generate/STIM_014.jpg	100
355.537	2.105	2105.3	generate	Run1	generate/STIM_014.jpg	99
360.802	2.188	2187.6	generate	Run1	generate/STIM_014.jpg	99
365.359	2.214	2214.4	generate	Run1	generate/STIM_014.jpg	100
371.18	2.015	2015.3	generate	Run1	generate/STIM_014.jpg	99
375.837	2.25	2250.2	generate	Run1	generate/STIM_015.jpg	100
381.416	1.986	1986.5	generate	Run1	generate/STIM_015.jpg	100
387.028	1.623	1623.2	generate	Run1	generate/STIM_015.jpg	100
392.037	1.611	1611.4	generate	Run1	generate/STIM_015.jpg	100
396.412	0.901	900.7	generate	Run1	generate/STIM_015.jpg	99
400.087	1.338	1338.4	generate	Run1	generate/STIM_016.jpg	99
404.142	1.879	1878.9	generate	Run1	generate/STIM_016.jpg	99
409.287	2.118	2117.7	generate	Run1	generate/STIM_016.jpg	100
415.136	1.286	1286.0	generate	Run1	generate/STIM_016.jpg	100
418.951	1.61	1609.5	generate	Run1	generate/STIM_016.jpg	99
423.02	2.769	2769.1	generate	Run1	generate/STIM_017.jpg	99
429.444	1.65	1650.3	generate	Run1	generate/STIM_017.jpg	100
433.225	1.274	1274.3	generate	Run1	generate/STIM_017.jpg	100
438.078	0.876	876.5	generate	Run1	generate/STIM_017.jpg	99
442.575	2.09	2090.5	generate	Run1	generate/STIM_017.jpg	99
447.397	2.11	2109.5	generate	Run1	generate/STIM_018.jpg	99
452.861	1.439	1439.0	generate	Run1	generate/STIM_018.jpg	100
458.157	2.46	2459.8	generate	Run1	generate/STIM_018.jpg	100
462.894	2.042	2041.8	generate	Run1	generate/STIM_018.jpg	99
468.874	2.168	2168.1	generate	Run1	generate/STIM_018.jpg	100
473.93	2.606	2605.9	generate	Run1	generate/STIM_019.jpg	100
479.495	2.352	2351.5	generate	Run1	generate/STIM_019.jpg	99
484.568	2.492	2492.3	generate	Run1	generate/STIM_019.jpg	99
490.836	1.899	1898.9	generate	Run1	generate/STIM_019.jpg	99
496.26	1.846	1846.5	generate	Run1	generate/STIM_019.jpg	100
500.435	2.303	2302.6	generate	Run1	generate/STIM_020.jpg	100
505.762	2.492	2491.5	generate	Run1	generate/STIM_020.jpg	100
511.058	1.172	1172.3	generate	Run1	generate/STIM_020.jpg	100
515.318	1.842	1842.5	generate	Run1	generate/STIM_020.jpg	99
519.487	1.469	1469.1	generate	Run1	generate/STIM_020.jpg	99
523.887	1.924	1924.3	generate	Run1	generate/STIM_021.jpg	99
528.292	1.808	1808.5	generate	Run1	generate/STIM_021.jpg	99
532.443	1.526	1525.5	generate	Run1	generate/STIM_021.jpg	100
536.832	2.201	2201.2	generate	Run1	generate/STIM_021.jpg	99
541.207	1.975	1974.8	generate	Run1	generate/STIM_021.jpg	100
545.656	1.516	1516.5	generate	Run1	generate/STIM_022.jpg	100
549.879	2.65	2649.5	generate	Run1	generate/STIM_022.jpg	100
555.557	1.601	1600.6	generate	Run1	generate/STIM_022.jpg	99
559.779	1.804	1804.3	generate	Run1	generate/STIM_022.jpg	100
565.089	2.172	2172.1	generate	Run1	generate/STIM_022.jpg	100
569.737	2.12	2119.7	generate	Run1	generate/STIM_023.jpg	100
574.006	1.306	1306.2	generate	Run1	generate/STIM_023.jpg	99
579.147	2.283	2283.3	generate	Run1	generate/STIM_023.jpg	99
583.831	2.095	2095.2	generate	Run1	generate/STIM_023.jpg	100
588.746	1.947	1947.0	generate	Run1	generate/STIM_023.jpg	100
594.736	2.419	2418.8	generate	Run1	generate/STIM_024.jpg	99
600.852	2.419	2419.4	generate	Run1	generate/STIM_024.jpg	99
606.517	2.185	2185.3	generate	Run1	generate/STIM_024.jpg	100
611.078	1.501	1500.9	generate	Run1	generate/STIM_024.jpg	100
615.256	1.443	1443.2	generate	Run1	generate/STIM_024.jpg	99
619.84	0.786	786.0	repeat	Run1	repeat/STIM_000.jpg	99
623.667	0.933	933.4	repeat	Run1	repeat/STIM_000.jpg	99
627.311	0.459	458.9	repeat	Run1	repeat/STIM_000.jpg	100
631.515	0.816	816.5	repeat	Run1	repeat/STIM_000.jpg	100
635.317	0.628	627.9	repeat	Run1	repeat/STIM_000.jpg	99
638.965	0.665	665.2	repeat	Run1	repeat/STIM_001.jpg	99
641.887	0.812	812.5	repeat	Run1	repeat/STIM_001.jpg	99
646.214	0.88	879.7	repeat	Run1	repeat/STIM_001.jpg	100
649.917	0.754	754.4	repeat	Run1	repeat/STIM_001.jpg	99
654.635	0.527	526.7	repeat	Run1	repeat/STIM_001.jpg	100
658.714	0.873	872.7	repeat	Run1	repeat/STIM_002.jpg	99
662.632	0.732	732.4	repeat	Run1	repeat/STIM_002.jpg	99
666.977	0.707	707.1	repeat	Run1	repeat/STIM_002.jpg	99
670.661	0.451	451.0	repeat	Run1	repeat/STIM_002.jpg	100
674.374	0.489	489.0	repeat	Run1	repeat/STIM_002.jpg	100
678.568	0.828	828.4	repeat	Run1	repeat/STIM_003.jpg	100
682.484	0.857	857.0	repeat	Run1	repeat/STIM_003.jpg	100
686.608	0.771	771.0	repeat	Run1	repeat/STIM_003.jpg	99
690.794	0.545	544.7	repeat	Run1	repeat/STIM_003.jpg	100
693.454	0.55	550.4	repeat	Run1	repeat/STIM_003.jpg	99
697.408	0.713	713.0	repeat	Run1	repeat/STIM_004.jpg	100
701.454	0.733	733.4	repeat	Run1	repeat/STIM_004.jpg	99
705.44	0.652	652.1	repeat	Run1	repeat/STIM_004.jpg	100
708.442	0.853	853.2	repeat	Run1	repeat/STIM_004.jpg	100
711.99	0.567	566.9	repeat	Run1	repeat/STIM_004.jpg	100
714.878	0.545	545.1	repeat	Run1	repeat/STIM_005.jpg	100
718.76	0.872	871.7	repeat	Run1	repeat/STIM_005.jpg	100
722.745	0.573	573.1	repeat	Run1	repeat/STIM_005.jpg	99
725.448	0.824	823.6	repeat	Run1	repeat/STIM_005.jpg	100
729.07	0.826	825.7	repeat	Run1	repeat/STIM_005.jpg	99
733.757	0.538	538.1	repeat	Run1	repeat/STIM_006.jpg	99
738.189	0.651	650.7	repeat	Run1	repeat/STIM_006.jpg	100
742.718	0.695	694.9	repeat	Run1	repeat/STIM_006.jpg	100
745.56	0.745	745.4	repeat	Run1	repeat/STIM_006.jpg	99
749.432	0.588	587.8	repeat	Run1	repeat/STIM_006.jpg	100
752.992	0.717	717.4	repeat	Run1	repeat/STIM_007.jpg	99
756.877	0.622	621.5	repeat	Run1	repeat/STIM_007.jpg	100
760.187	0.578	578.4	repeat	Run1	repeat/STIM_007.jpg	100
764.12	0.725	724.9	repeat	Run1	repeat/STIM_007.jpg	100
768.1	0.935	935.1	repeat	Run1	repeat/STIM_007.jpg	99
772.297	0.872	872.1	repeat	Run1	repeat/STIM_008.jpg	100
777.081	0.46	459.6	repeat	Run1	repeat/STIM_008.jpg	100
780.933	0.508	508.0	repeat	Run1	repeat/STIM_008.jpg	99
784.313	0.472	471.8	repeat	Run1	repeat/STIM_008.jpg	100
787.19	0.609	609.4	repeat	Run1	repeat/STIM_008.jpg	100
790.96	0.842	841.5	repeat	Run1	repeat/STIM_009.jpg	100
795.76	0.867	866.9	repeat	Run1	repeat/STIM_009.jpg	100
800.649	0.829	828.7	repeat	Run1	repeat/STIM_009.jpg	100
805.19	0.722	721.6	repeat	Run1	repeat/STIM_009.jpg	99
809.142	0.827	826.9	repeat	Run1	repeat/STIM_009.jpg	100
813.583	0.856	856.1	repeat	Run1	repeat/STIM_010.jpg	99
818.371	0.854	854.4	repeat	Run1	repeat/STIM_010.jpg	100
822.872	0.603	603.1	repeat	Run1	repeat/STIM_010.jpg	100
827.113	0.565	564.9	repeat	Run1	repeat/STIM_010.jpg	99
831.428	0.654	653.5	repeat	Run1	repeat/STIM_010.jpg	99
835.629	0.956	955.7	repeat	Run1	repeat/STIM_011.jpg	99
838.746	0.678	677.5	repeat	Run1	repeat/STIM_011.jpg	99
841.774	0.707	707.2	repeat	Run1	repeat/STIM_011.jpg	100
845.331	0.787	786.6	repeat	Run1	repeat/STIM_011.jpg	100
849.337	0.87	870.2	repeat	Run1	repeat/STIM_011.jpg	100
853.487	0.703	702.9	repeat	Run1	repeat/STIM_012.jpg	99
857.095	0.712	712.0	repeat	Run1	repeat/STIM_012.jpg	99
861.219	0.709	708.9	repeat	Run1	repeat/STIM_012.jpg	99
864.744	0.864	864.2	repeat	Run1	repeat/STIM_012.jpg	99
868.833	0.681	681.1	repeat	Run1	repeat/STIM_012.jpg	99
871.941	0.485	485.1	repeat	Run1	repeat/STIM_013.jpg	100
875.129	0.474	474.4	repeat	Run1	repeat/STIM_013.jpg	99
877.914	0.955	955.4	repeat	Run1	repeat/STIM_013.jpg	99
881.335	0.816	816.1	repeat	Run1	repeat/STIM_013.jpg	99
884.971	0.869	868.8	repeat	Run1	repeat/STIM_013.jpg	99
889.72	0.895	895.4	repeat	Run1	repeat/STIM_014.jpg	100
893.929	0.814	813.7	repeat	Run1	repeat/STIM_014.jpg	100
898.253	0.682	682.3	repeat	Run1	repeat/STIM_014.jpg	99
902.516	0.982	982.4	repeat	Run1	repeat/STIM_014.jpg	100
905.995	0.722	721.5	repeat	Run1	repeat/STIM_014.jpg	99
909.571	1.743	1743.1	generate	Run2	generate/STIM_000.jpg	99
913.873	1.656	1655.9	generate	Run2	generate/STIM_000.jpg	100
919.505	1.139	1139.0	generate	Run2	generate/STIM_000.jpg	100
924.728	1.25	1249.5	generate	Run2	generate/STIM_000.jpg	99
928.021	1.327	1327.4	generate	Run2	generate/STIM_000.jpg	100
932.109	1.931	1930.6	generate	Run2	generate/STIM_001.jpg	99
936.911	1.761	1761.2	generate	Run2	generate/STIM_001.jpg	100
941.341	1.51	1509.8	generate	Run2	generate/STIM_001.jpg	99
946.047	1.39	1389.8	generate	Run2	generate/STIM_001.jpg	100
951.412	1.277	1276.7	generate	Run2	generate/STIM_001.jpg	100
956.3	1.698	1697.9	generate	Run2	generate/STIM_002.jpg	99
961.677	1.694	1693.6	generate	Run2	generate/STIM_002.jpg	99
967.1	1.662	1661.9	generate	Run2	generate/STIM_002.jpg	99
971.313	1.518	1517.8	generate	Run2	generate/STIM_002.jpg	99
975.363	1.58	1579.6	generate	Run2	generate/STIM_002.jpg	99
979.118	1.952	1951.9	generate	Run2	generate/STIM_003.jpg	100
983.311	1.789	1788.6	generate	Run2	generate/STIM_003.jpg	99
988.412	1.304	1304.1	generate	Run2	generate/STIM_003.jpg	100
993.47	1.635	1635.0	generate	Run2	generate/STIM_003.jpg	100
997.506	1.194	1193.8	generate	Run2	generate/STIM_003.jpg	100
1001.727	1.376	1375.5	generate	Run2	generate/STIM_004.jpg	100
1005.263	1.733	1733.1	generate	Run2	generate/STIM_004.jpg	99
1010.568	1.365	1364.9	generate	Run2	generate/STIM_004.jpg	100
1014.088	1.316	1316.2	generate	Run2	generate/STIM_004.jpg	100
1018.127	1.16	1159.8	generate	Run2	generate/STIM_004.jpg	100
1021.846	1.826	1825.8	generate	Run2	generate/STIM_005.jpg	100
1027.044	2.214	2213.7	generate	Run2	generate/STIM_005.jpg	100
1031.725	1.627	1627.0	generate	Run2	generate/STIM_005.jpg	100
1036.284	1.638	1638.1	generate	Run2	generate/STIM_005.jpg	99
1040.232	1.391	1391.2	generate	Run2	generate/STIM_005.jpg	100
1044.744	0.992	991.9	generate	Run2	generate/STIM_006.jpg	100
1049.718	0.95	950.0	generate	Run2	generate/STIM_006.jpg	99
1052.709	1.152	1152.4	generate	Run2	generate/STIM_006.jpg	100
1057.721	0.884	884.3	generate	Run2	generate/STIM_006.jpg	99
1062.08	1.356	1355.7	generate	Run2	generate/STIM_006.jpg	100
1066.38	1.472	1471.6	generate	Run2	generate/STIM_007.jpg	100
1071.164	1.703	1703.0	generate	Run2	generate/STIM_007.jpg	100
1076.24	1.437	1437.2	generate	Run2	generate/STIM_007.jpg	99
1080.327	0.876	875.9	generate	Run2	generate/STIM_007.jpg	100
1084.842	1.428	1428.3	generate	Run2	generate/STIM_007.jpg	99
1088.409	2.046	2046.4	generate	Run2	generate/STIM_008.jpg	99
1093.557	2.17	2169.9	generate	Run2	generate/STIM_008.jpg	100
1098.169	1.489	1488.6	generate	Run2	generate/STIM_008.jpg	100
1102.116	1.158	1158.2	generate	Run2	generate/STIM_008.jpg	100
1107.189	0.926	926.5	generate	Run2	generate/STIM_008.jpg	99
1110.814	1.306	1306.1	generate	Run2	generate/STIM_009.jpg	100
1114.508	2.27	2270.2	generate	Run2	generate/STIM_009.jpg	100
1119.837	1.675	1675.0	generate	Run2	generate/STIM_009.jpg	99
1125.381	1.754	1753.8	generate	Run2	generate/STIM_009.jpg	99
1129.415	0.857	857.4	generate	Run2	generate/STIM_009.jpg	100
1133.558	1.906	1905.6	generate	Run2	generate/STIM_010.jpg	99
1138.912	1.788	1788.3	generate	Run2	generate/STIM_010.jpg	99
1143.55	1.563	1563.4	generate	Run2	generate/STIM_010.jpg	99
1147.942	1.765	1764.6	generate	Run2	generate/STIM_010.jpg	100
1153.465	0.983	983.3	generate	Run2	generate/STIM_010.jpg	100
1156.824	1.449	1448.9	generate	Run2	generate/STIM_011.jpg	99
1161.416	1.953	1953.0	generate	Run2	generate/STIM_011.jpg	100
1166.888	1.67	1670.0	generate	Run2	generate/STIM_011.jpg	100
1172.259	0.819	819.2	generate	Run2	generate/STIM_011.jpg	100
1175.172	1.694	1693.9	generate	Run2	generate/STIM_011.jpg	99
1179.397	1.625	1625.2	generate	Run2	generate/STIM_012.jpg	100
1183.953	0.977	977.3	generate	Run2	generate/STIM_012.jpg	100
1187.154	1.74	1740.4	generate	Run2	generate/STIM_012.jpg	99
1192.927	1.991	1990.6	generate	Run2	generate/STIM_012.jpg	99
1198.158	1.762	1761.8	generate	Run2	generate/STIM_012.jpg	100
1203.728	1.5	1500.0	generate	Run2	generate/STIM_013.jpg	100
1208.337	1.882	1882.4	generate	Run2	generate/STIM_013.jpg	99
1213.158	1.875	1874.7	generate	Run2	generate/STIM_013.jpg	99
1218.562	1.022	1021.7	generate	Run2	generate/STIM_013.jpg	100
1223.444	1.783	1783.1	generate	Run2	generate/STIM_013.jpg	100
1228.949	1.659	1659.1	generate	Run2	generate/STIM_014.jpg	99
1233.621	1.225	1225.2	generate	Run2	generate/STIM_014.jpg	100
1238.385	1.322	1322.5	generate	Run2	generate/STIM_014.jpg	100
1242.808	1.269	1268.6	generate	Run2	generate/STIM_014.jpg	99
1248.075	1.232	1232.2	generate	Run2	generate/STIM_014.jpg	100
1252.682	2.242	2241.6	generate	Run2	generate/STIM_015.jpg	99
1257.692	1.968	1968.0	generate	Run2	generate/STIM_015.jpg	99
1263.719	1.318	1318.4	generate	Run2	generate/STIM_015.jpg	99
1267.924	1.196	1195.5	generate	Run2	generate/STIM_015.jpg	99
1271.59	0.928	927.8	generate	Run2	generate/STIM_015.jpg	99
1276.041	1.635	1634.6	generate	Run2	generate/STIM_016.jpg	100
1280.535	1.482	1482.2	generate	Run2	generate/STIM_016.jpg	99
1284.633	1.21	1210.4	generate	Run2	generate/STIM_016.jpg	100
1288.824	1.002	1002.1	generate	Run2	generate/STIM_016.jpg	100
1292.108	1.094	1094.5	generate	Run2	generate/STIM_016.jpg	100
1295.716	1.283	1283.4	generate	Run2	generate/STIM_017.jpg	99
1300.391	1.654	1653.5	generate	Run2	generate/STIM_017.jpg	100
1305.5	1.399	1399.4	generate	Run2	generate/STIM_017.jpg	100
1310.594	1.637	1637.4	generate	Run2	generate/STIM_017.jpg	100
1316.252	1.418	1418.1	generate	Run2	generate/STIM_017.jpg	100
1320.679	2.163	2163.2	generate	Run2	generate/STIM_018.jpg	100
1326.632	1.623	1623.1	generate	Run2	generate/STIM_018.jpg	99
1331.075	1.264	1263.8	generate	Run2	generate/STIM_018.jpg	99
1335.229	1.276	1276.4	generate	Run2	generate/STIM_018.jpg	100
1339.83	1.777	1777.0	generate	Run2	generate/STIM_018.jpg	100
1345.61	1.257	1257.2	generate	Run2	generate/STIM_019.jpg	100
1350.026	2.034	2034.5	generate	Run2	generate/STIM_019.jpg	99
1355.016	2.131	2130.9	generate	Run2	generate/STIM_019.jpg	100
1360.967	1.646	1645.5	generate	Run2	generate/STIM_019.jpg	99
1365.668	1.481	1480.9	generate	Run2	generate/STIM_019.jpg	100
1369.839	1.923	1922.9	generate	Run2	generate/STIM_020.jpg	100
1374.499	1.606	1606.1	generate	Run2	generate/STIM_020.jpg	99
1379.603	1.221	1220.6	generate	Run2	generate/STIM_020.jpg	99
1384.237	0.879	878.8	generate	Run2	generate/STIM_020.jpg	99
1388.282	0.897	896.6	generate	Run2	generate/STIM_020.jpg	99
1391.382	1.59	1590.5	generate	Run2	generate/STIM_021.jpg	100
1395.933	1.426	1425.9	generate	Run2	generate/STIM_021.jpg	100
1400.0	1.456	1455.9	generate	Run2	generate/STIM_021.jpg	100
1404.828	1.924	1923.9	generate	Run2	generate/STIM_021.jpg	99
1409.532	1.037	1036.9	generate	Run2	generate/STIM_021.jpg	100
1413.525	1.665	1664.8	generate	Run2	generate/STIM_022.jpg	100
1417.906	1.052	1052.4	generate	Run2	generate/STIM_022.jpg	99
1422.455	1.663	1663.4	generate	Run2	generate/STIM_022.jpg	99
1426.602	0.896	895.5	generate	Run2	generate/STIM_022.jpg	99
1430.34	0.955	955.1	generate	Run2	generate/STIM_022.jpg	99
1433.429	1.46	1460.0	generate	Run2	generate/STIM_023.jpg	99
1437.264	1.187	1186.7	generate	Run2	generate/STIM_023.jpg	99
1441.147	1.793	1793.3	generate	Run2	generate/STIM_023.jpg	99
1445.328	1.526	1526.4	generate	Run2	generate/STIM_023.jpg	99
1450.584	1.171	1170.9	generate	Run2	generate/STIM_023.jpg	100
1455.703	1.966	1966.5	generate	Run2	generate/STIM_024.jpg	99
1461.773	1.956	1956.4	generate	Run2	generate/STIM_024.jpg	100
1465.858	1.456	1456.2	generate	Run2	generate/STIM_024.jpg	99
1471.246	1.747	1746.8	generate	Run2	generate/STIM_024.jpg	100
1476.584	1.364	1364.5	generate	Run2	generate/STIM_024.jpg	99
1480.969	0.561	561.2	repeat	Run2	repeat/STIM_000.jpg	99
1483.834	0.649	649.1	repeat	Run2	repeat/STIM_000.jpg	100
1487.64	0.58	580.3	repeat	Run2	repeat/STIM_000.jpg	99
1491.245	0.648	647.5	repeat	Run2	repeat/STIM_000.jpg	100
1495.63	0.652	652.0	repeat	Run2	repeat/STIM_000.jpg	100
1499.653	0.409	409.3	repeat	Run2	repeat/STIM_001.jpg	100
1503.279	0.566	566.5	repeat	Run2	repeat/STIM_001.jpg	99
1507.724	0.89	890.5	repeat	Run2	repeat/STIM_001.jpg	100
1511.749	0.623	622.8	repeat	Run2	repeat/STIM_001.jpg	100
1516.077	0.514	514.1	repeat	Run2	repeat/STIM_001.jpg	100
1520.355	0.612	612.2	repeat	Run2	repeat/STIM_002.jpg	99
1523.101	0.471	471.1	repeat	Run2	repeat/STIM_002.jpg	99
1526.607	0.683	683.2	repeat	Run2	repeat/STIM_002.jpg	99
1531.002	0.604	604.5	repeat	Run2	repeat/STIM_002.jpg	99
1534.096	0.735	735.4	repeat	Run2	repeat/STIM_002.jpg	100
1538.277	0.805	804.6	repeat	Run2	repeat/STIM_003.jpg	99
1541.643	0.588	588.0	repeat	Run2	repeat/STIM_003.jpg	100
1545.008	0.867	866.8	repeat	Run2	repeat/STIM_003.jpg	99
1549.774	0.84	839.5	repeat	Run2	repeat/STIM_003.jpg	99
1554.317	0.579	579.1	repeat	Run2	repeat/STIM_003.jpg	100
1558.682	0.678	678.2	repeat	Run2	repeat/STIM_004.jpg	99
1562.224	0.559	558.7	repeat	Run2	repeat/STIM_004.jpg	100
1566.294	0.748	748.0	repeat	Run2	repeat/STIM_004.jpg	99
1569.997	0.662	661.9	repeat	Run2	repeat/STIM_004.jpg	100
1573.553	0.795	794.8	repeat	Run2	repeat/STIM_004.jpg	100
1577.719	0.815	814.8	repeat	Run2	repeat/STIM_005.jpg	100
1582.478	0.696	696.0	repeat	Run2	repeat/STIM_005.jpg	100
1586.784	0.857	857.3	repeat	Run2	repeat/STIM_005.jpg	100
1590.271	0.85	849.6	repeat	Run2	repeat/STIM_005.jpg	99
1593.616	0.828	828.0	repeat	Run2	repeat/STIM_005.jpg	99
1596.634	0.932	931.6	repeat	Run2	repeat/STIM_006.jpg	100
1600.983	0.531	531.1	repeat	Run2	repeat/STIM_006.jpg	99
1604.671	0.563	563.3	repeat	Run2	repeat/STIM_006.jpg	100
1609.037	0.522	521.7	repeat	Run2	repeat/STIM_006.jpg	100
1611.789	0.954	953.8	repeat	Run2	repeat/STIM_006.jpg	100
1615.948	0.894	894.4	repeat	Run2	repeat/STIM_007.jpg	99
1619.219	0.731	730.8	repeat	Run2	repeat/STIM_007.jpg	99
1623.225	0.812	811.5	repeat	Run2	repeat/STIM_007.jpg	99
1628.016	0.839	839.3	repeat	Run2	repeat/STIM_007.jpg	100
1632.12	0.955	955.2	repeat	Run2	repeat/STIM_007.jpg	100
1637.016	0.465	464.6	repeat	Run2	repeat/STIM_008.jpg	99
1641.229	0.499	499.1	repeat	Run2	repeat/STIM_008.jpg	100
1644.549	0.633	633.4	repeat	Run2	repeat/STIM_008.jpg	100
1647.749	0.719	719.2	repeat	Run2	repeat/STIM_008.jpg	100
1651.751	0.896	896.5	repeat	Run2	repeat/STIM_008.jpg	99
1654.794	0.649	648.8	repeat	Run2	repeat/STIM_009.jpg	100
1657.843	0.8	799.8	repeat	Run2	repeat/STIM_009.jpg	100
1660.981	0.721	721.2	repeat	Run2	repeat/STIM_009.jpg	100
1665.451	0.499	498.7	repeat	Run2	repeat/STIM_009.jpg	100
1669.647	0.653	653.1	repeat	Run2	repeat/STIM_009.jpg	99
1673.023	0.567	566.7	repeat	Run2	repeat/STIM_010.jpg	100
1677.354	0.706	705.8	repeat	Run2	repeat/STIM_010.jpg	99
1681.998	0.92	919.8	repeat	Run2	repeat/STIM_010.jpg	99
1686.197	0.88	880.5	repeat	Run2	repeat/STIM_010.jpg	99
1689.066	0.847	846.7	repeat	Run2	repeat/STIM_010.jpg	100
1693.004	0.821	821.2	repeat	Run2	repeat/STIM_011.jpg	99
1697.721	0.966	966.4	repeat	Run2	repeat/STIM_011.jpg	100
1701.848	0.551	551.4	repeat	Run2	repeat/STIM_011.jpg	99
1705.38	0.786	786.3	repeat	Run2	repeat/STIM_011.jpg	100
1708.699	0.936	935.7	repeat	Run2	repeat/STIM_011.jpg	100
1713.262	0.912	911.6	repeat	Run2	repeat/STIM_012.jpg	100
1716.741	0.844	843.7	repeat	Run2	repeat/STIM_012.jpg	100
1719.917	0.688	687.5	repeat	Run2	repeat/STIM_012.jpg	100
1723.153	0.944	944.3	repeat	Run2	repeat/STIM_012.jpg	99
1727.754	0.618	617.7	repeat	Run2	repeat/STIM_012.jpg	99
1731.976	0.776	776.2	repeat	Run2	repeat/STIM_013.jpg	99
1736.654	0.677	676.9	repeat	Run2	repeat/STIM_013.jpg	99
1739.952	0.565	565.0	repeat	Run2	repeat/STIM_013.jpg	100
1744.201	0.496	495.6	repeat	Run2	repeat/STIM_013.jpg	99
1748.489	0.601	600.8	repeat	Run2	repeat/STIM_013.jpg	100
1752.636	0.71	710.5	repeat	Run2	repeat/STIM_014.jpg	100
1756.974	0.954	953.5	repeat	Run2	repeat/STIM_014.jpg	100
1760.789	0.523	522.8	repeat	Run2	repeat/STIM_014.jpg	100
1764.582	0.678	678.3	repeat	Run2	repeat/STIM_014.jpg	100
1767.311	0.76	760.0	repeat	Run2	repeat/STIM_014.jpg	100
1771.076	1.569	1568.6	generate	Run3	generate/STIM_000.jpg	99
1776.315	1.237	1237.4	generate	Run3	generate/STIM_000.jpg	100
1779.928	0.994	993.8	generate	Run3	generate/STIM_000.jpg	100
1783.296	1.306	1306.3	generate	Run3	generate/STIM_000.jpg	99
1787.887	1.116	1116.2	generate	Run3	generate/STIM_000.jpg	100
1791.126	1.88	1879.7	generate	Run3	generate/STIM_001.jpg	100
1796.285	1.174	1174.0	generate	Run3	generate/STIM_001.jpg	99
1801.201	1.916	1916.2	generate	Run3	generate/STIM_001.jpg	99
1806.061	1.883	1883.4	generate	Run3	generate/STIM_001.jpg	99
1810.045	1.946	1946.4	generate	Run3	generate/STIM_001.jpg	100
1814.663	0.776	776.0	generate	Run3	generate/STIM_002.jpg	100
1817.849	1.524	1524.2	generate	Run3	generate/STIM_002.jpg	99
1821.729	1.596	1595.5	generate	Run3	generate/STIM_002.jpg	99
1825.828	1.143	1142.6	generate	Run3	generate/STIM_002.jpg	99
1829.724	0.766	765.5	generate	Run3	generate/STIM_002.jpg	99
1832.741	0.916	915.8	generate	Run3	generate/STIM_003.jpg	99
1835.972	1.941	1941.3	generate	Run3	generate/STIM_003.jpg	99
1840.218	1.84	1840.4	generate	Run3	generate/STIM_003.jpg	99
1846.046	0.817	817.1	generate	Run3	generate/STIM_003.jpg	100
1849.195	0.849	849.3	generate	Run3	generate/STIM_003.jpg	99
1852.637	1.732	1732.4	generate	Run3	generate/STIM_004.jpg	100
1858.471	1.688	1687.8	generate	Run3	generate/STIM_004.jpg	100
1863.524	1.629	1628.8	generate	Run3	generate/STIM_004.jpg	100
1868.024	0.85	850.1	generate	Run3	generate/STIM_004.jpg	100
1872.809	1.739	1738.8	generate	Run3	generate/STIM_004.jpg	100
1877.125	1.412	1412.5	generate	Run3	generate/STIM_005.jpg	99
1881.394	1.713	1713.2	generate	Run3	generate/STIM_005.jpg	99
1886.411	1.994	1994.1	generate	Run3	generate/STIM_005.jpg	100
1890.938	1.059	1059.0	generate	Run3	generate/STIM_005.jpg	100
1894.741	0.948	947.5	generate	Run3	generate/STIM_005.jpg	99
1899.069	1.475	1475.3	generate	Run3	generate/STIM_006.jpg	99
1902.973	1.761	1761.3	generate	Run3	generate/STIM_006.jpg	99
1907.016	1.283	1283.4	generate	Run3	generate/STIM_006.jpg	100
1911.359	1.615	1614.8	generate	Run3	generate/STIM_006.jpg	100
1916.337	1.652	1652.4	generate	Run3	generate/STIM_006.jpg	99
1920.319	1.379	1378.7	generate	Run3	generate/STIM_007.jpg	99
1925.797	1.198	1198.4	generate	Run3	generate/STIM_007.jpg	99
1929.284	1.319	1319.3	generate	Run3	generate/STIM_007.jpg	99
1933.569	1.541	1540.9	generate	Run3	generate/STIM_007.jpg	99
1938.707	0.89	890.3	generate	Run3	generate/STIM_007.jpg	100
1941.639	1.291	1290.7	generate	Run3	generate/STIM_008.jpg	100
1946.455	1.716	1716.3	generate	Run3	generate/STIM_008.jpg	100
1950.533	1.231	1231.0	generate	Run3	generate/STIM_008.jpg	99
1954.327	1.885	1884.7	generate	Run3	generate/STIM_008.jpg	100
1959.879	1.952	1952.4	generate	Run3	generate/STIM_008.jpg	100
1964.772	1.857	1856.7	generate	Run3	generate/STIM_009.jpg	99
1970.199	1.84	1840.1	generate	Run3	generate/STIM_009.jpg	99
1974.145	1.76	1760.0	generate	Run3	generate/STIM_009.jpg	99
1979.038	0.99	989.7	generate	Run3	generate/STIM_009.jpg	99
1982.586	1.644	1644.1	generate	Run3	generate/STIM_009.jpg	100
1987.855	1.892	1891.9	generate	Run3	generate/STIM_010.jpg	100
1993.065	1.518	1517.9	generate	Run3	generate/STIM_010.jpg	100
1998.326	1.608	1608.4	generate	Run3	generate/STIM_010.jpg	99
2002.042	1.645	1645.2	generate	Run3	generate/STIM_010.jpg	100
2007.67	1.479	1478.7	generate	Run3	generate/STIM_010.jpg	99
2011.747	1.304	1304.2	generate	Run3	generate/STIM_011.jpg	100
2016.58	1.312	1312.2	generate	Run3	generate/STIM_011.jpg	100
2020.055	1.91	1910.0	generate	Run3	generate/STIM_011.jpg	99
2025.015	0.891	891.0	generate	Run3	generate/STIM_011.jpg	100
2028.853	0.93	929.7	generate	Run3	generate/STIM_011.jpg	99
2032.618	1.379	1379.2	generate	Run3	generate/STIM_012.jpg	99
2036.401	1.272	1272.0	generate	Run3	generate/STIM_012.jpg	100
2041.103	1.268	1268.5	generate	Run3	generate/STIM_012.jpg	99
2046.335	1.202	1201.8	generate	Run3	generate/STIM_012.jpg	99
2050.299	1.552	1552.1	generate	Run3	generate/STIM_012.jpg	100
2055.004	1.681	1681.4	generate	Run3	generate/STIM_013.jpg	100
2060.556	1.392	1391.5	generate	Run3	generate/STIM_013.jpg	100
2065.566	0.918	917.9	generate	Run3	generate/STIM_013.jpg	99
2068.912	1.087	1086.7	generate	Run3	generate/STIM_013.jpg	99
2072.661	1.35	1349.5	generate	Run3	generate/STIM_013.jpg	100
2076.291	1.402	1401.6	generate	Run3	generate/STIM_014.jpg	100
2080.354	1.095	1095.4	generate	Run3	generate/STIM_014.jpg	100
2085.04	1.336	1335.8	generate	Run3	generate/STIM_014.jpg	100
2089.651	1.477	1477.4	generate	Run3	generate/STIM_014.jpg	99
2095.134	1.27	1270.5	generate	Run3	generate/STIM_014.jpg	100
2099.338	1.627	1626.8	generate	Run3	generate/STIM_015.jpg	99
2103.717	0.951	950.6	generate	Run3	generate/STIM_015.jpg	99
2107.782	1.723	1723.2	generate	Run3	generate/STIM_015.jpg	99
2112.378	1.379	1379.2	generate	Run3	generate/STIM_015.jpg	100
2117.358	1.095	1094.8	generate	Run3	generate/STIM_015.jpg	99
2121.352	1.634	1634.5	generate	Run3	generate/STIM_016.jpg	99
2127.009	0.849	849.4	generate	Run3	generate/STIM_016.jpg	100
2130.579	1.834	1834.2	generate	Run3	generate/STIM_016.jpg	100
2134.895	1.295	1295.2	generate	Run3	generate/STIM_016.jpg	99
2138.493	0.882	882.4	generate	Run3	generate/STIM_016.jpg	100
2142.378	0.931	931.1	generate	Run3	generate/STIM_017.jpg	99
2146.514	0.824	824.2	generate	Run3	generate/STIM_017.jpg	100
2149.568	1.342	1341.7	generate	Run3	generate/STIM_017.jpg	100
2154.188	1.2	1199.8	generate	Run3	generate/STIM_017.jpg	100
2157.845	0.784	783.5	generate	Run3	generate/STIM_017.jpg	100
2162.169	1.553	1553.3	generate	Run3	generate/STIM_018.jpg	100
2167.79	1.111	1111.2	generate	Run3	generate/STIM_018.jpg	100
2173.001	1.46	1459.6	generate	Run3	generate/STIM_018.jpg	99
2177.374	1.076	1076.2	generate	Run3	generate/STIM_018.jpg	99
2180.534	1.586	1585.6	generate	Run3	generate/STIM_018.jpg	99
2184.493	1.647	1647.1	generate	Run3	generate/STIM_019.jpg	99
2189.873	1.673	1673.2	generate	Run3	generate/STIM_019.jpg	100
2194.242	1.748	1748.1	generate	Run3	generate/STIM_019.jpg	100
2200.072	1.128	1127.7	generate	Run3	generate/STIM_019.jpg	99
2205.179	1.09	1090.1	generate	Run3	generate/STIM_019.jpg	99
2208.653	1.873	1872.8	generate	Run3	generate/STIM_020.jpg	100
2213.684	1.558	1557.9	generate	Run3	generate/STIM_020.jpg	99
2218.677	1.726	1726.2	generate	Run3	generate/STIM_020.jpg	99
2222.956	1.084	1083.9	generate	Run3	generate/STIM_020.jpg	99
2226.995	1.353	1352.8	generate	Run3	generate/STIM_020.jpg	100
2231.024	1.128	1127.6	generate	Run3	generate/STIM_021.jpg	99
2235.802	1.086	1085.9	generate	Run3	generate/STIM_021.jpg	99
2239.508	0.855	855.1	generate	Run3	generate/STIM_021.jpg	99
2243.014	1.116	1116.0	generate	Run3	generate/STIM_021.jpg	100
2247.379	1.331	1330.8	generate	Run3	generate/STIM_021.jpg	99
2251.378	1.306	1305.9	generate	Run3	generate/STIM_022.jpg	100
2255.564	1.179	1178.6	generate	Run3	generate/STIM_022.jpg	99
2259.816	1.783	1782.7	generate	Run3	generate/STIM_022.jpg	100
2265.325	1.934	1933.6	generate	Run3	generate/STIM_022.jpg	99
2270.354	0.987	986.7	generate	Run3	generate/STIM_022.jpg	99
2274.605	1.044	1044.5	generate	Run3	generate/STIM_023.jpg	99
2278.741	1.515	1514.8	generate	Run3	generate/STIM_023.jpg	100
2282.91	0.848	848.0	generate	Run3	generate/STIM_023.jpg	100
2286.904	1.203	1203.1	generate	Run3	generate/STIM_023.jpg	99
2291.896	0.889	889.4	generate	Run3	generate/STIM_023.jpg	99
2295.44	1.824	1824.0	generate	Run3	generate/STIM_024.jpg	100
2300.165	1.182	1181.8	generate	Run3	generate/STIM_024.jpg	100
2304.279	1.407	1406.6	generate	Run3	generate/STIM_024.jpg	100
2308.166	1.118	1118.3	generate	Run3	generate/STIM_024.jpg	99
2312.915	1.98	1980.5	generate	Run3	generate/STIM_024.jpg	99
2318.962	0.522	521.7	repeat	Run3	repeat/STIM_000.jpg	99
2322.772	0.368	367.9	repeat	Run3	repeat/STIM_000.jpg	99
2325.421	0.796	795.7	repeat	Run3	repeat/STIM_000.jpg	99
2329.373	0.617	617.1	repeat	Run3	repeat/STIM_000.jpg	100
2333.543	0.805	805.4	repeat	Run3	repeat/STIM_000.jpg	99
2337.409	0.696	696.0	repeat	Run3	repeat/STIM_001.jpg	99
2341.167	0.625	625.1	repeat	Run3	repeat/STIM_001.jpg	99
2345.556	0.77	770.0	repeat	Run3	repeat/STIM_001.jpg	99
2348.367	0.754	754.1	repeat	Run3	repeat/STIM_001.jpg	99
2351.594	0.598	598.5	repeat	Run3	repeat/STIM_001.jpg	99
2354.541	0.454	454.0	repeat	Run3	repeat/STIM_002.jpg	100
2357.281	0.86	860.2	repeat	Run3	repeat/STIM_002.jpg	99
2362.074	0.836	836.5	repeat	Run3	repeat/STIM_002.jpg	99
2366.28	0.699	698.7	repeat	Run3	repeat/STIM_002.jpg	99
2369.825	0.594	594.5	repeat	Run3	repeat/STIM_002.jpg	99
2372.725	0.984	983.6	repeat	Run3	repeat/STIM_003.jpg	99
2375.885	0.945	945.2	repeat	Run3	repeat/STIM_003.jpg	100
2379.686	0.675	674.6	repeat	Run3	repeat/STIM_003.jpg	100
2383.967	0.861	860.8	repeat	Run3	repeat/STIM_003.jpg	100
2388.724	0.672	672.4	repeat	Run3	repeat/STIM_003.jpg	100
2391.956	0.514	514.2	repeat	Run3	repeat/STIM_004.jpg	99
2395.481	0.768	767.8	repeat	Run3	repeat/STIM_004.jpg	100
2399.543	0.701	701.0	repeat	Run3	repeat/STIM_004.jpg	100
2404.183	0.749	749.1	repeat	Run3	repeat/STIM_004.jpg	100
2407.985	0.763	763.3	repeat	Run3	repeat/STIM_004.jpg	100
2412.406	0.768	768.1	repeat	Run3	repeat/STIM_005.jpg	99
2416.133	1.018	1017.6	repeat	Run3	repeat/STIM_005.jpg	99
2419.724	0.809	809.2	repeat	Run3	repeat/STIM_005.jpg	99
2423.218	0.616	616.1	repeat	Run3	repeat/STIM_005.jpg	100
2427.048	0.605	605.1	repeat	Run3	repeat/STIM_005.jpg	100
2429.738	0.546	546.5	repeat	Run3	repeat/STIM_006.jpg	100
2433.359	0.733	732.7	repeat	Run3	repeat/STIM_006.jpg	100
2436.698	0.577	577.2	repeat	Run3	repeat/STIM_006.jpg	99
2440.969	0.64	640.2	repeat	Run3	repeat/STIM_006.jpg	99
2444.249	0.885	885.1	repeat	Run3	repeat/STIM_006.jpg	100
2449.049	0.562	561.8	repeat	Run3	repeat/STIM_007.jpg	100
2453.151	0.843	843.3	repeat	Run3	repeat/STIM_007.jpg	99
2457.985	0.69	690.3	repeat	Run3	repeat/STIM_007.jpg	99
2461.353	0.781	781.4	repeat	Run3	repeat/STIM_007.jpg	100
2465.124	0.714	714.3	repeat	Run3	repeat/STIM_007.jpg	100
2469.583	0.452	452.5	repeat	Run3	repeat/STIM_008.jpg	100
2473.626	0.902	902.5	repeat	Run3	repeat/STIM_008.jpg	100
2477.613	0.702	701.6	repeat	Run3	repeat/STIM_008.jpg	99
2481.136	0.629	628.6	repeat	Run3	repeat/STIM_008.jpg	99
2485.695	0.887	887.2	repeat	Run3	repeat/STIM_008.jpg	100
2489.889	0.589	589.3	repeat	Run3	repeat/STIM_009.jpg	100
2492.706	0.466	466.3	repeat	Run3	repeat/STIM_009.jpg	99
2496.578	0.538	538.5	repeat	Run3	repeat/STIM_009.jpg	100
2500.925	0.663	663.4	repeat	Run3	repeat/STIM_009.jpg	100
2505.06	0.598	597.7	repeat	Run3	repeat/STIM_009.jpg	99
2509.412	0.896	896.1	repeat	Run3	repeat/STIM_010.jpg	100
2513.828	0.617	617.0	repeat	Run3	repeat/STIM_010.jpg	99
2517.035	0.904	904.1	repeat	Run3	repeat/STIM_010.jpg	99
2520.825	0.646	645.6	repeat	Run3	repeat/STIM_010.jpg	99
2523.629	0.763	762.7	repeat	Run3	repeat/STIM_010.jpg	99
2528.331	0.6	600.1	repeat	Run3	repeat/STIM_011.jpg	99
2531.308	0.821	821.3	repeat	Run3	repeat/STIM_011.jpg	99
2536.01	0.692	692.3	repeat	Run3	repeat/STIM_011.jpg	100
2540.476	0.82	820.5	repeat	Run3	repeat/STIM_011.jpg	99
2544.939	0.875	874.8	repeat	Run3	repeat/STIM_011.jpg	100
2548.258	0.517	517.0	repeat	Run3	repeat/STIM_012.jpg	99
2552.874	0.845	845.4	repeat	Run3	repeat/STIM_012.jpg	99
2556.076	0.946	946.3	repeat	Run3	repeat/STIM_012.jpg	100
2560.599	0.573	573.1	repeat	Run3	repeat/STIM_012.jpg	99
2564.469	0.737	737.2	repeat	Run3	repeat/STIM_012.jpg	100
2568.64	0.63	630.0	repeat	Run3	repeat/STIM_013.jpg	100
2573.288	0.711	711.1	repeat	Run3	repeat/STIM_013.jpg	99
2577.134	0.987	987.1	repeat	Run3	repeat/STIM_013.jpg	100
2581.988	0.808	807.7	repeat	Run3	repeat/STIM_013.jpg	99
2586.103	0.83	829.9	repeat	Run3	repeat/STIM_013.jpg	99
2590.94	0.923	922.9	repeat	Run3	repeat/STIM_014.jpg	99
2595.569	0.889	889.2	repeat	Run3	repeat/STIM_014.jpg	100
2599.087	0.926	925.9	repeat	Run3	repeat/STIM_014.jpg	99
2602.573	0.771	771.0	repeat	Run3	repeat/STIM_014.jpg	99
2607.109	0.8	800.4	repeat	Run3	repeat/STIM_014.jpg	99
2610.23	1.889	1889.1	generate	Run4	generate/STIM_000.jpg	99
2615.08	1.286	1285.6	generate	Run4	generate/STIM_000.jpg	99
2620.115	1.088	1088.3	generate	Run4	generate/STIM_000.jpg	100
2624.853	1.432	1432.4	generate	Run4	generate/STIM_000.jpg	99
2629.04	1.926	1926.3	generate	Run4	generate/STIM_000.jpg	100
2634.304	0.879	878.7	generate	Run4	generate/STIM_001.jpg	100
2638.499	1.123	1123.1	generate	Run4	generate/STIM_001.jpg	99
2642.651	1.394	1394.3	generate	Run4	generate/STIM_001.jpg	99
2647.931	1.949	1948.6	generate	Run4	generate/STIM_001.jpg	99
2652.146	1.898	1897.7	generate	Run4	generate/STIM_001.jpg	100
2656.913	0.924	923.7	generate	Run4	generate/STIM_002.jpg	100
2659.928	1.692	1691.5	generate	Run4	generate/STIM_002.jpg	99
2663.999	1.396	1395.8	generate	Run4	generate/STIM_002.jpg	99
2668.345	1.689	1689.3	generate	Run4	generate/STIM_002.jpg	100
2672.301	1.324	1323.7	generate	Run4	generate/STIM_002.jpg	99
2677.262	0.913	913.3	generate	Run4	generate/STIM_003.jpg	100
2680.947	1.452	1451.6	generate	Run4	generate/STIM_003.jpg	100
2686.026	0.863	862.7	generate	Run4	generate/STIM_003.jpg	99
2690.763	0.878	878.5	generate	Run4	generate/STIM_003.jpg	100
2693.834	0.759	758.7	generate	Run4	generate/STIM_003.jpg	99
2697.55	0.967	966.9	generate	Run4	generate/STIM_004.jpg	99
2701.106	0.948	947.5	generate	Run4	generate/STIM_004.jpg	99
2704.271	1.633	1633.3	generate	Run4	generate/STIM_004.jpg	99
2709.651	1.074	1073.9	generate	Run4	generate/STIM_004.jpg	99
2713.114	1.244	1244.4	generate	Run4	generate/STIM_004.jpg	100
2716.917	1.131	1130.7	generate	Run4	generate/STIM_005.jpg	99
2721.683	1.393	1393.3	generate	Run4	generate/STIM_005.jpg	100
2726.255	1.923	1922.7	generate	Run4	generate/STIM_005.jpg	99
2731.581	1.426	1426.1	generate	Run4	generate/STIM_005.jpg	99
2737.015	1.406	1405.6	generate	Run4	generate/STIM_005.jpg	100
2742.153	1.818	1817.8	generate	Run4	generate/STIM_006.jpg	100
2747.132	1.021	1021.0	generate	Run4	generate/STIM_006.jpg	99
2750.417	1.033	1033.0	generate	Run4	generate/STIM_006.jpg	100
2754.286	1.028	1027.6	generate	Run4	generate/STIM_006.jpg	99
2758.312	0.909	909.2	generate	Run4	generate/STIM_006.jpg	99
2762.636	1.69	1690.2	generate	Run4	generate/STIM_007.jpg	99
2766.815	1.381	1381.3	generate	Run4	generate/STIM_007.jpg	100
2771.456	1.759	1759.4	generate	Run4	generate/STIM_007.jpg	100
2777.082	0.86	860.4	generate	Run4	generate/STIM_007.jpg	99
2781.287	1.295	1294.7	generate	Run4	generate/STIM_007.jpg	100
2785.942	1.648	1648.1	generate	Run4	generate/STIM_008.jpg	100
2790.61	1.435	1435.4	generate	Run4	generate/STIM_008.jpg	100
2794.741	1.051	1051.4	generate	Run4	generate/STIM_008.jpg	99
2799.614	0.796	796.1	generate	Run4	generate/STIM_008.jpg	100
2802.528	1.156	1155.9	generate	Run4	generate/STIM_008.jpg	99
2806.623	1.118	1117.6	generate	Run4	generate/STIM_009.jpg	99
2811.362	0.936	935.5	generate	Run4	generate/STIM_009.jpg	99
2814.399	1.378	1378.4	generate	Run4	generate/STIM_009.jpg	100
2818.966	1.743	1742.8	generate	Run4	generate/STIM_009.jpg	100
2823.548	1.54	1540.1	generate	Run4	generate/STIM_009.jpg	99
2828.567	1.883	1883.1	generate	Run4	generate/STIM_010.jpg	99
2833.07	1.519	1519.4	generate	Run4	generate/STIM_010.jpg	99
2838.15	1.883	1883.2	generate	Run4	generate/STIM_010.jpg	100
2842.578	1.532	1531.5	generate	Run4	generate/STIM_010.jpg	100
2847.786	0.822	821.8	generate	Run4	generate/STIM_010.jpg	99
2851.724	1.778	1778.4	generate	Run4	generate/STIM_011.jpg	99
2856.341	1.505	1505.2	generate	Run4	generate/STIM_011.jpg	100
2859.954	1.27	1270.3	generate	Run4	generate/STIM_011.jpg	100
2864.394	1.501	1500.8	generate	Run4	generate/STIM_011.jpg	100
2869.787	1.753	1752.7	generate	Run4	generate/STIM_011.jpg	99
2875.223	1.318	1317.8	generate	Run4	generate/STIM_012.jpg	100
2879.512	1.394	1393.7	generate	Run4	generate/STIM_012.jpg	100
2883.299	1.598	1598.4	generate	Run4	generate/STIM_012.jpg	99
2889.029	2.051	2050.6	generate	Run4	generate/STIM_012.jpg	100
2893.851	1.67	1670.4	generate	Run4	generate/STIM_012.jpg	99
2898.558	1.995	1994.7	generate	Run4	generate/STIM_013.jpg	100
2903.253	0.894	894.3	generate	Run4	generate/STIM_013.jpg	99
2907.417	1.511	1511.0	generate	Run4	generate/STIM_013.jpg	100
2912.221	1.26	1259.6	generate	Run4	generate/STIM_013.jpg	100
2916.667	1.598	1598.4	generate	Run4	generate/STIM_013.jpg	100
2921.749	0.761	760.9	generate	Run4	generate/STIM_014.jpg	99
2926.296	0.956	955.9	generate	Run4	generate/STIM_014.jpg	99
2930.319	1.216	1215.5	generate	Run4	generate/STIM_014.jpg	99
2934.454	1.673	1673.1	generate	Run4	generate/STIM_014.jpg	100
2938.819	1.953	1953.4	generate	Run4	generate/STIM_014.jpg	100
2944.381	1.624	1623.5	generate	Run4	generate/STIM_015.jpg	99
2949.862	0.73	729.7	generate	Run4	generate/STIM_015.jpg	99
2954.576	1.386	1386.5	generate	Run4	generate/STIM_015.jpg	99
2959.211	1.559	1559.2	generate	Run4	generate/STIM_015.jpg	99
2964.089	1.769	1768.7	generate	Run4	generate/STIM_015.jpg	99
2968.831	1.558	1557.6	generate	Run4	generate/STIM_016.jpg	100
2973.437	1.849	1849.4	generate	Run4	generate/STIM_016.jpg	100
2978.925	0.957	956.6	generate	Run4	generate/STIM_016.jpg	99
2983.441	1.102	1101.6	generate	Run4	generate/STIM_016.jpg	100
2987.596	1.702	1701.7	generate	Run4	generate/STIM_016.jpg	100
2992.868	1.282	1281.9	generate	Run4	generate/STIM_017.jpg	100
2997.281	1.314	1313.9	generate	Run4	generate/STIM_017.jpg	99
3000.847	1.517	1516.6	generate	Run4	generate/STIM_017.jpg	100
3005.84	0.802	802.4	generate	Run4	generate/STIM_017.jpg	99
3009.338	1.64	1639.6	generate	Run4	generate/STIM_017.jpg	99
3013.443	1.648	1647.8	generate	Run4	generate/STIM_018.jpg	100
3018.538	1.734	1734.5	generate	Run4	generate/STIM_018.jpg	100
3022.419	1.211	1210.6	generate	Run4	generate/STIM_018.jpg	99
3025.796	1.147	1146.8	generate	Run4	generate/STIM_018.jpg	100
3030.151	1.825	1825.2	generate	Run4	generate/STIM_018.jpg	99
3035.945	1.795	1794.8	generate	Run4	generate/STIM_019.jpg	100
3040.219	1.39	1389.6	generate	Run4	generate/STIM_019.jpg	100
3044.679	1.264	1264.2	generate	Run4	generate/STIM_019.jpg	99
3049.12	1.85	1849.8	generate	Run4	generate/STIM_019.jpg	100
3054.503	1.384	1383.9	generate	Run4	generate/STIM_019.jpg	100
3059.388	1.419	1419.2	generate	Run4	generate/STIM_020.jpg	99
3064.45	1.197	1197.3	generate	Run4	generate/STIM_020.jpg	100
3068.166	1.484	1484.1	generate	Run4	generate/STIM_020.jpg	99
3072.141	1.606	1605.8	generate	Run4	generate/STIM_020.jpg	100
3077.196	0.997	997.1	generate	Run4	generate/STIM_020.jpg	100
3081.23	1.392	1392.3	generate	Run4	generate/STIM_021.jpg	99
3086.052	1.77	1770.0	generate	Run4	generate/STIM_021.jpg	100
3091.073	1.612	1612.4	generate	Run4	generate/STIM_021.jpg	100
3094.871	1.17	1170.4	generate	Run4	generate/STIM_021.jpg	99
3099.206	1.292	1292.5	generate	Run4	generate/STIM_021.jpg	99
3102.932	1.325	1324.8	generate	Run4	generate/STIM_022.jpg	100
3107.22	1.125	1124.7	generate	Run4	generate/STIM_022.jpg	99
3111.869	1.199	1198.7	generate	Run4	generate/STIM_022.jpg	100
3115.296	1.091	1091.3	generate	Run4	generate/STIM_022.jpg	99
3119.26	1.694	1694.1	generate	Run4	generate/STIM_022.jpg	100
3123.511	1.137	1137.0	generate	Run4	generate/STIM_023.jpg	99
3127.341	1.784	1784.2	generate	Run4	generate/STIM_023.jpg	99
3132.604	1.067	1067.3	generate	Run4	generate/STIM_023.jpg	99
3136.26	1.69	1690.3	generate	Run4	generate/STIM_023.jpg	100
3140.741	1.445	1444.7	generate	Run4	generate/STIM_023.jpg	99
3144.725	1.939	1938.6	generate	Run4	generate/STIM_024.jpg	100
3150.456	1.232	1231.7	generate	Run4	generate/STIM_024.jpg	100
3155.33	0.973	972.8	generate	Run4	generate/STIM_024.jpg	99
3158.99	1.697	1696.8	generate	Run4	generate/STIM_024.jpg	99
3163.963	1.258	1258.1	generate	Run4	generate/STIM_024.jpg	100
3169.301	0.757	757.1	repeat	Run4	repeat/STIM_000.jpg	99
3173.583	0.552	552.1	repeat	Run4	repeat/STIM_000.jpg	99
3176.712	0.669	669.2	repeat	Run4	repeat/STIM_000.jpg	99
3179.542	0.456	456.1	repeat	Run4	repeat/STIM_000.jpg	100
3182.307	0.54	539.5	repeat	Run4	repeat/STIM_000.jpg	99
3185.601	0.804	804.0	repeat	Run4	repeat/STIM_001.jpg	99
3189.706	0.782	782.5	repeat	Run4	repeat/STIM_001.jpg	100
3192.836	0.682	682.0	repeat	Run4	repeat/STIM_001.jpg	99
3195.81	0.73	730.5	repeat	Run4	repeat/STIM_001.jpg	100
3199.748	0.61	610.1	repeat	Run4	repeat/STIM_001.jpg	100
3204.046	0.494	493.6	repeat	Run4	repeat/STIM_002.jpg	99
3208.545	0.788	788.4	repeat	Run4	repeat/STIM_002.jpg	100
3212.114	0.878	878.1	repeat	Run4	repeat/STIM_002.jpg	100
3215.994	0.518	518.1	repeat	Run4	repeat/STIM_002.jpg	100
3218.66	0.531	531.4	repeat	Run4	repeat/STIM_002.jpg	99
3221.346	0.716	715.7	repeat	Run4	repeat/STIM_003.jpg	99
3224.418	0.64	639.5	repeat	Run4	repeat/STIM_003.jpg	100
3228.471	0.769	769.4	repeat	Run4	repeat/STIM_003.jpg	100
3231.929	0.54	539.7	repeat	Run4	repeat/STIM_003.jpg	99
3235.207	0.763	762.6	repeat	Run4	repeat/STIM_003.jpg	100
3239.676	0.604	603.7	repeat	Run4	repeat/STIM_004.jpg	100
3243.756	0.872	871.5	repeat	Run4	repeat/STIM_004.jpg	100
3248.24	0.528	527.6	repeat	Run4	repeat/STIM_004.jpg	99
3251.114	0.769	769.1	repeat	Run4	repeat/STIM_004.jpg	100
3254.342	0.902	902.0	repeat	Run4	repeat/STIM_004.jpg	99
3257.997	0.838	838.0	repeat	Run4	repeat/STIM_005.jpg	99
3261.105	0.719	719.3	repeat	Run4	repeat/STIM_005.jpg	100
3265.305	0.503	503.1	repeat	Run4	repeat/STIM_005.jpg	99
3267.967	0.845	845.0	repeat	Run4	repeat/STIM_005.jpg	99
3270.966	0.425	425.1	repeat	Run4	repeat/STIM_005.jpg	99
3273.792	0.464	464.3	repeat	Run4	repeat/STIM_006.jpg	100
3277.309	0.677	677.3	repeat	Run4	repeat/STIM_006.jpg	100
3280.294	0.546	545.8	repeat	Run4	repeat/STIM_006.jpg	100
3284.78	0.893	892.9	repeat	Run4	repeat/STIM_006.jpg	99
3288.5	0.861	861.0	repeat	Run4	repeat/STIM_006.jpg	100
3292.246	0.599	599.1	repeat	Run4	repeat/STIM_007.jpg	100
3296.785	0.548	547.9	repeat	Run4	repeat/STIM_007.jpg	99
3299.696	0.739	738.6	repeat	Run4	repeat/STIM_007.jpg	99
3304.159	0.793	792.8	repeat	Run4	repeat/STIM_007.jpg	100
3307.611	0.699	698.9	repeat	Run4	repeat/STIM_007.jpg	100
3311.368	0.599	598.9	repeat	Run4	repeat/STIM_008.jpg	100
3314.493	0.942	941.5	repeat	Run4	repeat/STIM_008.jpg	100
3319.192	0.496	496.5	repeat	Run4	repeat/STIM_008.jpg	99
3322.992	0.916	916.5	repeat	Run4	repeat/STIM_008.jpg	99
3327.116	0.859	858.8	repeat	Run4	repeat/STIM_008.jpg	99
3331.283	0.523	523.3	repeat	Run4	repeat/STIM_009.jpg	99
3335.239	0.671	670.8	repeat	Run4	repeat/STIM_009.jpg	100
3339.838	0.952	952.4	repeat	Run4	repeat/STIM_009.jpg	100
3344.408	0.723	722.6	repeat	Run4	repeat/STIM_009.jpg	99
3348.46	0.444	443.9	repeat	Run4	repeat/STIM_009.jpg	100
3352.059	0.641	641.3	repeat	Run4	repeat/STIM_010.jpg	99
3356.578	0.842	842.5	repeat	Run4	repeat/STIM_010.jpg	100
3360.835	0.82	819.7	repeat	Run4	repeat/STIM_010.jpg	100
3365.164	0.697	696.7	repeat	Run4	repeat/STIM_010.jpg	100
3368.525	0.938	937.6	repeat	Run4	repeat/STIM_010.jpg	99
3372.267	0.702	702.4	repeat	Run4	repeat/STIM_011.jpg	99
3376.775	0.685	685.1	repeat	Run4	repeat/STIM_011.jpg	99
3380.883	0.679	678.7	repeat	Run4	repeat/STIM_011.jpg	100
3384.612	0.78	779.5	repeat	Run4	repeat/STIM_011.jpg	100
3388.04	0.752	752.2	repeat	Run4	repeat/STIM_011.jpg	99
3392.202	0.608	607.6	repeat	Run4	repeat/STIM_012.jpg	100
3395.374	0.565	564.6	repeat	Run4	repeat/STIM_012.jpg	100
3398.162	0.493	492.6	repeat	Run4	repeat/STIM_012.jpg	99
3401.497	0.87	870.5	repeat	Run4	repeat/STIM_012.jpg	100
3406.218	0.461	460.6	repeat	Run4	repeat/STIM_012.jpg	100
3409.087	0.752	751.8	repeat	Run4	repeat/STIM_013.jpg	100
3412.089	0.791	790.8	repeat	Run4	repeat/STIM_013.jpg	100
3416.342	0.492	491.6	repeat	Run4	repeat/STIM_013.jpg	100
3420.582	0.597	597.4	repeat	Run4	repeat/STIM_013.jpg	99
3424.622	0.565	565.0	repeat	Run4	repeat/STIM_013.jpg	100
3428.177	0.678	678.5	repeat	Run4	repeat/STIM_014.jpg	100
3431.831	0.829	828.6	repeat	Run4	repeat/STIM_014.jpg	99
3435.533	0.551	551.2	repeat	Run4	repeat/STIM_014.jpg	100
3438.151	0.568	568.0	repeat	Run4	repeat/STIM_014.jpg	99
3442.249	0.728	728.2	repeat	Run4	repeat/STIM_014.jpg	99
