onset	duration	accuracy_binary	trial_type	learning_stage	stimulus
0.0	2.332	1	generate	Run1	generate/STIM_000.jpg
4.975	1.459	1	generate	Run1	generate/STIM_000.jpg
9.675	1.716	0	generate	Run1	generate/STIM_000.jpg
14.611	1.777	1	generate	Run1	generate/STIM_000.jpg
19.765	1.719	1	generate	Run1	generate/STIM_000.jpg
25.134	1.413	1	generate	Run1	generate/STIM_001.jpg
30.389	1.907	0	generate	Run1	generate/STIM_001.jpg
34.95	0.996	0	generate	Run1	generate/STIM_001.jpg
38.112	2.139	1	generate	Run1	generate/STIM_001.jpg
43.192	1.476	1	generate	Run1	generate/STIM_001.jpg
48.093	1.312	1	generate	Run1	generate/STIM_002.jpg
53.23	2.28	1	generate	Run1	generate/STIM_002.jpg
58.247	2.314	0	generate	Run1	generate/STIM_002.jpg
63.239	2.307	0	generate	Run1	generate/STIM_002.jpg
69.052	1.38	1	generate	Run1	generate/STIM_002.jpg
73.304	2.672	0	generate	Run1	generate/STIM_003.jpg
79.092	1.675	1	generate	Run1	generate/STIM_003.jpg
83.251	2.432	1	generate	Run1	generate/STIM_003.jpg
88.327	1.596	1	generate	Run1	generate/STIM_003.jpg
92.895	1.94	1	generate	Run1	generate/STIM_003.jpg
98.472	1.942	0	generate	Run1	generate/STIM_004.jpg
104.356	1.982	0	generate	Run1	generate/STIM_004.jpg
110.112	1.595	0	generate	Run1	generate/STIM_004.jpg
114.518	1.384	1	generate	Run1	generate/STIM_004.jpg
119.771	1.77	1	generate	Run1	generate/STIM_004.jpg
124.492	2.416	1	generate	Run1	generate/STIM_005.jpg
129.885	2.277	1	generate	Run1	generate/STIM_005.jpg
134.903	1.115	0	generate	Run1	generate/STIM_005.jpg
138.126	2.273	1	generate	Run1	generate/STIM_005.jpg
143.784	0.982	0	generate	Run1	generate/STIM_005.jpg
148.762	2.157	0	generate	Run1	generate/STIM_006.jpg
153.686	2.5	1	generate	Run1	generate/STIM_006.jpg
159.247	1.412	1	generate	Run1	generate/STIM_006.jpg
162.858	1.268	1	generate	Run1	generate/STIM_006.jpg
168.117	1.433	1	generate	Run1	generate/STIM_006.jpg
172.154	2.294	1	generate	Run1	generate/STIM_007.jpg
178.269	1.504	1	generate	Run1	generate/STIM_007.jpg
183.639	1.309	1	generate	Run1	generate/STIM_007.jpg
187.204	0.99	1	generate	Run1	generate/STIM_007.jpg
190.577	1.685	0	generate	Run1	generate/STIM_007.jpg
195.14	2.654	1	generate	Run1	generate/STIM_008.jpg
200.923	2.426	1	generate	Run1	generate/STIM_008.jpg
206.558	1.746	0	generate	Run1	generate/STIM_008.jpg
211.741	2.012	1	generate	Run1	generate/STIM_008.jpg
216.092	1.15	0	generate	Run1	generate/STIM_008.jpg
220.747	2.197	0	generate	Run1	generate/STIM_009.jpg
227.058	1.786	1	generate	Run1	generate/STIM_009.jpg
232.137	2.43	1	generate	Run1	generate/STIM_009.jpg
238.123	2.016	0	generate	Run1	generate/STIM_009.jpg
243.1	1.91	1	generate	Run1	generate/STIM_009.jpg
248.296	2.306	0	generate	Run1	generate/STIM_010.jpg
252.891	2.363	1	generate	Run1	generate/STIM_010.jpg
257.824	1.877	1	generate	Run1	generate/STIM_010.jpg
262.066	2.24	1	generate	Run1	generate/STIM_010.jpg
267.264	1.772	1	generate	Run1	generate/STIM_010.jpg
271.449	2.783	1	generate	Run1	generate/STIM_011.jpg
278.346	2.488	1	generate	Run1	generate/STIM_011.jpg
283.865	1.38	1	generate	Run1	generate/STIM_011.jpg
289.209	1.55	1	generate	Run1	generate/STIM_011.jpg
293.453	1.674	1	generate	Run1	generate/STIM_011.jpg
298.978	2.305	1	generate	Run1	generate/STIM_012.jpg
303.749	1.4	1	generate	Run1	generate/STIM_012.jpg
308.989	1.495	0	generate	Run1	generate/STIM_012.jpg
312.973	1.779	1	generate	Run1	generate/STIM_012.jpg
316.85	2.293	0	generate	Run1	generate/STIM_012.jpg
322.406	2.74	1	generate	Run1	generate/STIM_013.jpg
327.894	2.697	1	generate	Run1	generate/STIM_013.jpg
334.694	1.27	1	generate	Run1	generate/STIM_013.jpg
339.473	1.52	0	generate	Run1	generate/STIM_013.jpg
344.078	2.143	1	generate	Run1	generate/STIM_013.jpg
349.908	2.18	1	generate	Run1	generate/STIM_014.jpg
355.537	2.105	1	generate	Run1	generate/STIM_014.jpg
360.802	2.188	1	generate	Run1	generate/STIM_014.jpg
365.359	2.214	1	generate	Run1	generate/STIM_014.jpg
371.18	2.015	1	generate	Run1	generate/STIM_014.jpg
375.837	2.25	1	generate	Run1	generate/STIM_015.jpg
381.416	1.986	1	generate	Run1	generate/STIM_015.jpg
387.028	1.623	0	generate	Run1	generate/STIM_015.jpg
392.037	1.611	0	generate	Run1	generate/STIM_015.jpg
396.412	0.901	0	generate	Run1	generate/STIM_015.jpg
400.087	1.338	1	generate	Run1	generate/STIM_016.jpg
404.142	1.879	0	generate	Run1	generate/STIM_016.jpg
409.287	2.118	1	generate	Run1	generate/STIM_016.jpg
415.136	1.286	1	generate	Run1	generate/STIM_016.jpg
418.951	1.61	1	generate	Run1	generate/STIM_016.jpg
423.02	2.769	1	generate	Run1	generate/STIM_017.jpg
429.444	1.65	1	generate	Run1	generate/STIM_017.jpg
433.225	1.274	0	generate	Run1	generate/STIM_017.jpg
438.078	0.876	1	generate	Run1	generate/STIM_017.jpg
442.575	2.09	0	generate	Run1	generate/STIM_017.jpg
447.397	2.11	1	generate	Run1	generate/STIM_018.jpg
452.861	1.439	0	generate	Run1	generate/STIM_018.jpg
458.157	2.46	1	generate	Run1	generate/STIM_018.jpg
462.894	2.042	1	generate	Run1	generate/STIM_018.jpg
468.874	2.168	1	generate	Run1	generate/STIM_018.jpg
473.93	2.606	0	generate	Run1	generate/STIM_019.jpg
479.495	2.352	0	generate	Run1	generate/STIM_019.jpg
484.568	2.492	1	generate	Run1	generate/STIM_019.jpg
490.836	1.899	1	generate	Run1	generate/STIM_019.jpg
496.26	1.846	1	generate	Run1	generate/STIM_019.jpg
500.435	2.303	1	generate	Run1	generate/STIM_020.jpg
505.762	2.492	0	generate	Run1	generate/STIM_020.jpg
511.058	1.172	1	generate	Run1	generate/STIM_020.jpg
515.318	1.842	1	generate	Run1	generate/STIM_020.jpg
519.487	1.469	1	generate	Run1	generate/STIM_020.jpg
523.887	1.924	1	generate	Run1	generate/STIM_021.jpg
528.292	1.808	1	generate	Run1	generate/STIM_021.jpg
532.443	1.526	1	generate	Run1	generate/STIM_021.jpg
536.832	2.201	0	generate	Run1	generate/STIM_021.jpg
541.207	1.975	1	generate	Run1	generate/STIM_021.jpg
545.656	1.516	1	generate	Run1	generate/STIM_022.jpg
549.879	2.65	1	generate	Run1	generate/STIM_022.jpg
555.557	1.601	1	generate	Run1	generate/STIM_022.jpg
559.779	1.804	1	generate	Run1	generate/STIM_022.jpg
565.089	2.172	1	generate	Run1	generate/STIM_022.jpg
569.737	2.12	1	generate	Run1	generate/STIM_023.jpg
574.006	1.306	0	generate	Run1	generate/STIM_023.jpg
579.147	2.283	0	generate	Run1	generate/STIM_023.jpg
583.831	2.095	0	generate	Run1	generate/STIM_023.jpg
588.746	1.947	0	generate	Run1	generate/STIM_023.jpg
594.736	2.419	0	generate	Run1	generate/STIM_024.jpg
600.852	2.419	0	generate	Run1	generate/STIM_024.jpg
606.517	2.185	1	generate	Run1	generate/STIM_024.jpg
611.078	1.501	1	generate	Run1	generate/STIM_024.jpg
615.256	1.443	0	generate	Run1	generate/STIM_024.jpg
619.84	0.786	1	repeat	Run1	repeat/STIM_000.jpg
623.667	0.933	1	repeat	Run1	repeat/STIM_000.jpg
627.311	0.459	1	repeat	Run1	repeat/STIM_000.jpg
631.515	0.816	1	repeat	Run1	repeat/STIM_000.jpg
635.317	0.628	1	repeat	Run1	repeat/STIM_000.jpg
638.965	0.665	1	repeat	Run1	repeat/STIM_001.jpg
641.887	0.812	1	repeat	Run1	repeat/STIM_001.jpg
646.214	0.88	1	repeat	Run1	repeat/STIM_001.jpg
649.917	0.754	1	repeat	Run1	repeat/STIM_001.jpg
654.635	0.527	1	repeat	Run1	repeat/STIM_001.jpg
658.714	0.873	1	repeat	Run1	repeat/STIM_002.jpg
662.632	0.732	1	repeat	Run1	repeat/STIM_002.jpg
666.977	0.707	1	repeat	Run1	repeat/STIM_002.jpg
670.661	0.451	1	repeat	Run1	repeat/STIM_002.jpg
674.374	0.489	1	repeat	Run1	repeat/STIM_002.jpg
678.568	0.828	1	repeat	Run1	repeat/STIM_003.jpg
682.484	0.857	1	repeat	Run1	repeat/STIM_003.jpg
686.608	0.771	1	repeat	Run1	repeat/STIM_003.jpg
690.794	0.545	1	repeat	Run1	repeat/STIM_003.jpg
693.454	0.55	1	repeat	Run1	repeat/STIM_003.jpg
697.408	0.713	1	repeat	Run1	repeat/STIM_004.jpg
701.454	0.733	1	repeat	Run1	repeat/STIM_004.jpg
705.44	0.652	1	repeat	Run1	repeat/STIM_004.jpg
708.442	0.853	1	repeat	Run1	repeat/STIM_004.jpg
711.99	0.567	1	repeat	Run1	repeat/STIM_004.jpg
714.878	0.545	1	repeat	Run1	repeat/STIM_005.jpg
718.76	0.872	1	repeat	Run1	repeat/STIM_005.jpg
722.745	0.573	1	repeat	Run1	repeat/STIM_005.jpg
725.448	0.824	1	repeat	Run1	repeat/STIM_005.jpg
729.07	0.826	1	repeat	Run1	repeat/STIM_005.jpg
733.757	0.538	1	repeat	Run1	repeat/STIM_006.jpg
738.189	0.651	1	repeat	Run1	repeat/STIM_006.jpg
742.718	0.695	1	repeat	Run1	repeat/STIM_006.jpg
745.56	0.745	1	repeat	Run1	repeat/STIM_006.jpg
749.432	0.588	1	repeat	Run1	repeat/STIM_006.jpg
752.992	0.717	1	repeat	Run1	repeat/STIM_007.jpg
756.877	0.622	1	repeat	Run1	repeat/STIM_007.jpg
760.187	0.578	1	repeat	Run1	repeat/STIM_007.jpg
764.12	0.725	1	repeat	Run1	repeat/STIM_007.jpg
768.1	0.935	0	repeat	Run1	repeat/STIM_007.jpg
772.297	0.872	1	repeat	Run1	repeat/STIM_008.jpg
777.081	0.46	1	repeat	Run1	repeat/STIM_008.jpg
780.933	0.508	1	repeat	Run1	repeat/STIM_008.jpg
784.313	0.472	1	repeat	Run1	repeat/STIM_008.jpg
787.19	0.609	1	repeat	Run1	repeat/STIM_008.jpg
790.96	0.842	1	repeat	Run1	repeat/STIM_009.jpg
795.76	0.867	1	repeat	Run1	repeat/STIM_009.jpg
800.649	0.829	1	repeat	Run1	repeat/STIM_009.jpg
805.19	0.722	0	repeat	Run1	repeat/STIM_009.jpg
809.142	0.827	1	repeat	Run1	repeat/STIM_009.jpg
813.583	0.856	1	repeat	Run1	repeat/STIM_010.jpg
818.371	0.854	1	repeat	Run1	repeat/STIM_010.jpg
822.872	0.603	1	repeat	Run1	repeat/STIM_010.jpg
827.113	0.565	1	repeat	Run1	repeat/STIM_010.jpg
831.428	0.654	1	repeat	Run1	repeat/STIM_010.jpg
835.629	0.956	1	repeat	Run1	repeat/STIM_011.jpg
838.746	0.678	1	repeat	Run1	repeat/STIM_011.jpg
841.774	0.707	1	repeat	Run1	repeat/STIM_011.jpg
845.331	0.787	1	repeat	Run1	repeat/STIM_011.jpg
849.337	0.87	1	repeat	Run1	repeat/STIM_011.jpg
853.487	0.703	1	repeat	Run1	repeat/STIM_012.jpg
857.095	0.712	1	repeat	Run1	repeat/STIM_012.jpg
861.219	0.709	1	repeat	Run1	repeat/STIM_012.jpg
864.744	0.864	1	repeat	Run1	repeat/STIM_012.jpg
868.833	0.681	1	repeat	Run1	repeat/STIM_012.jpg
871.941	0.485	1	repeat	Run1	repeat/STIM_013.jpg
875.129	0.474	1	repeat	Run1	repeat/STIM_013.jpg
877.914	0.955	1	repeat	Run1	repeat/STIM_013.jpg
881.335	0.816	1	repeat	Run1	repeat/STIM_013.jpg
884.971	0.869	1	repeat	Run1	repeat/STIM_013.jpg
889.72	0.895	1	repeat	Run1	repeat/STIM_014.jpg
893.929	0.814	1	repeat	Run1	repeat/STIM_014.jpg
898.253	0.682	1	repeat	Run1	repeat/STIM_014.jpg
902.516	0.982	1	repeat	Run1	repeat/STIM_014.jpg
905.995	0.722	1	repeat	Run1	repeat/STIM_014.jpg
909.571	1.743	0	generate	Run2	generate/STIM_000.jpg
913.873	1.656	1	generate	Run2	generate/STIM_000.jpg
919.505	1.139	1	generate	Run2	generate/STIM_000.jpg
924.728	1.25	0	generate	Run2	generate/STIM_000.jpg
928.021	1.327	1	generate	Run2	generate/STIM_000.jpg
932.109	1.931	1	generate	Run2	generate/STIM_001.jpg
936.911	1.761	1	generate	Run2	generate/STIM_001.jpg
941.341	1.51	1	generate	Run2	generate/STIM_001.jpg
946.047	1.39	1	generate	Run2	generate/STIM_001.jpg
951.412	1.277	1	generate	Run2	generate/STIM_001.jpg
956.3	1.698	1	generate	Run2	generate/STIM_002.jpg
961.677	1.694	1	generate	Run2	generate/STIM_002.jpg
967.1	1.662	1	generate	Run2	generate/STIM_002.jpg
971.313	1.518	1	generate	Run2	generate/STIM_002.jpg
975.363	1.58	1	generate	Run2	generate/STIM_002.jpg
979.118	1.952	1	generate	Run2	generate/STIM_003.jpg
983.311	1.789	1	generate	Run2	generate/STIM_003.jpg
988.412	1.304	1	generate	Run2	generate/STIM_003.jpg
993.47	1.635	0	generate	Run2	generate/STIM_003.jpg
997.506	1.194	1	generate	Run2	generate/STIM_003.jpg
1001.727	1.376	0	generate	Run2	generate/STIM_004.jpg
1005.263	1.733	1	generate	Run2	generate/STIM_004.jpg
1010.568	1.365	1	generate	Run2	generate/STIM_004.jpg
1014.088	1.316	1	generate	Run2	generate/STIM_004.jpg
1018.127	1.16	1	generate	Run2	generate/STIM_004.jpg
1021.846	1.826	1	generate	Run2	generate/STIM_005.jpg
1027.044	2.214	1	generate	Run2	generate/STIM_005.jpg
1031.725	1.627	1	generate	Run2	generate/STIM_005.jpg
1036.284	1.638	1	generate	Run2	generate/STIM_005.jpg
1040.232	1.391	0	generate	Run2	generate/STIM_005.jpg
1044.744	0.992	0	generate	Run2	generate/STIM_006.jpg
1049.718	0.95	1	generate	Run2	generate/STIM_006.jpg
1052.709	1.152	1	generate	Run2	generate/STIM_006.jpg
1057.721	0.884	1	generate	Run2	generate/STIM_006.jpg
1062.08	1.356	1	generate	Run2	generate/STIM_006.jpg
1066.38	1.472	1	generate	Run2	generate/STIM_007.jpg
1071.164	1.703	1	generate	Run2	generate/STIM_007.jpg
1076.24	1.437	1	generate	Run2	generate/STIM_007.jpg
1080.327	0.876	1	generate	Run2	generate/STIM_007.jpg
1084.842	1.428	1	generate	Run2	generate/STIM_007.jpg
1088.409	2.046	1	generate	Run2	generate/STIM_008.jpg
1093.557	2.17	1	generate	Run2	generate/STIM_008.jpg
1098.169	1.489	1	generate	Run2	generate/STIM_008.jpg
1102.116	1.158	1	generate	Run2	generate/STIM_008.jpg
1107.189	0.926	0	generate	Run2	generate/STIM_008.jpg
1110.814	1.306	1	generate	Run2	generate/STIM_009.jpg
1114.508	2.27	1	generate	Run2	generate/STIM_009.jpg
1119.837	1.675	0	generate	Run2	generate/STIM_009.jpg
1125.381	1.754	1	generate	Run2	generate/STIM_009.jpg
1129.415	0.857	1	generate	Run2	generate/STIM_009.jpg
1133.558	1.906	0	generate	Run2	generate/STIM_010.jpg
1138.912	1.788	1	generate	Run2	generate/STIM_010.jpg
1143.55	1.563	1	generate	Run2	generate/STIM_010.jpg
1147.942	1.765	1	generate	Run2	generate/STIM_010.jpg
1153.465	0.983	1	generate	Run2	generate/STIM_010.jpg
1156.824	1.449	1	generate	Run2	generate/STIM_011.jpg
1161.416	1.953	1	generate	Run2	generate/STIM_011.jpg
1166.888	1.67	1	generate	Run2	generate/STIM_011.jpg
1172.259	0.819	1	generate	Run2	generate/STIM_011.jpg
1175.172	1.694	1	generate	Run2	generate/STIM_011.jpg
1179.397	1.625	1	generate	Run2	generate/STIM_012.jpg
1183.953	0.977	1	generate	Run2	generate/STIM_012.jpg
1187.154	1.74	1	generate	Run2	generate/STIM_012.jpg
1192.927	1.991	1	generate	Run2	generate/STIM_012.jpg
1198.158	1.762	1	generate	Run2	generate/STIM_012.jpg
1203.728	1.5	1	generate	Run2	generate/STIM_013.jpg
1208.337	1.882	1	generate	Run2	generate/STIM_013.jpg
1213.158	1.875	1	generate	Run2	generate/STIM_013.jpg
1218.562	1.022	1	generate	Run2	generate/STIM_013.jpg
1223.444	1.783	1	generate	Run2	generate/STIM_013.jpg
1228.949	1.659	1	generate	Run2	generate/STIM_014.jpg
1233.621	1.225	1	generate	Run2	generate/STIM_014.jpg
1238.385	1.322	1	generate	Run2	generate/STIM_014.jpg
1242.808	1.269	1	generate	Run2	generate/STIM_014.jpg
1248.075	1.232	0	generate	Run2	generate/STIM_014.jpg
1252.682	2.242	1	generate	Run2	generate/STIM_015.jpg
1257.692	1.968	1	generate	Run2	generate/STIM_015.jpg
1263.719	1.318	1	generate	Run2	generate/STIM_015.jpg
1267.924	1.196	1	generate	Run2	generate/STIM_015.jpg
1271.59	0.928	1	generate	Run2	generate/STIM_015.jpg
1276.041	1.635	1	generate	Run2	generate/STIM_016.jpg
1280.535	1.482	0	generate	Run2	generate/STIM_016.jpg
1284.633	1.21	1	generate	Run2	generate/STIM_016.jpg
1288.824	1.002	1	generate	Run2	generate/STIM_016.jpg
1292.108	1.094	1	generate	Run2	generate/STIM_016.jpg
1295.716	1.283	1	generate	Run2	generate/STIM_017.jpg
1300.391	1.654	1	generate	Run2	generate/STIM_017.jpg
1305.5	1.399	1	generate	Run2	generate/STIM_017.jpg
1310.594	1.637	1	generate	Run2	generate/STIM_017.jpg
1316.252	1.418	0	generate	Run2	generate/STIM_017.jpg
1320.679	2.163	1	generate	Run2	generate/STIM_018.jpg
1326.632	1.623	1	generate	Run2	generate/STIM_018.jpg
1331.075	1.264	1	generate	Run2	generate/STIM_018.jpg
1335.229	1.276	1	generate	Run2	generate/STIM_018.jpg
1339.83	1.777	1	generate	Run2	generate/STIM_018.jpg
1345.61	1.257	1	generate	Run2	generate/STIM_019.jpg
1350.026	2.034	1	generate	Run2	generate/STIM_019.jpg
1355.016	2.131	1	generate	Run2	generate/STIM_019.jpg
1360.967	1.646	1	generate	Run2	generate/STIM_019.jpg
1365.668	1.481	1	generate	Run2	generate/STIM_019.jpg
1369.839	1.923	1	generate	Run2	generate/STIM_020.jpg
1374.499	1.606	1	generate	Run2	generate/STIM_020.jpg
1379.603	1.221	1	generate	Run2	generate/STIM_020.jpg
1384.237	0.879	1	generate	Run2	generate/STIM_020.jpg
1388.282	0.897	1	generate	Run2	generate/STIM_020.jpg
1391.382	1.59	1	generate	Run2	generate/STIM_021.jpg
1395.933	1.426	1	generate	Run2	generate/STIM_021.jpg
1400.0	1.456	1	generate	Run2	generate/STIM_021.jpg
1404.828	1.924	1	generate	Run2	generate/STIM_021.jpg
1409.532	1.037	1	generate	Run2	generate/STIM_021.jpg
1413.525	1.665	1	generate	Run2	generate/STIM_022.jpg
1417.906	1.052	1	generate	Run2	generate/STIM_022.jpg
1422.455	1.663	1	generate	Run2	generate/STIM_022.jpg
1426.602	0.896	1	generate	Run2	generate/STIM_022.jpg
1430.34	0.955	1	generate	Run2	generate/STIM_022.jpg
1433.429	1.46	1	generate	Run2	generate/STIM_023.jpg
1437.264	1.187	0	generate	Run2	generate/STIM_023.jpg
1441.147	1.793	1	generate	Run2	generate/STIM_023.jpg
1445.328	1.526	1	generate	Run2	generate/STIM_023.jpg
1450.584	1.171	1	generate	Run2	generate/STIM_023.jpg
1455.703	1.966	1	generate	Run2	generate/STIM_024.jpg
1461.773	1.956	0	generate	Run2	generate/STIM_024.jpg
1465.858	1.456	1	generate	Run2	generate/STIM_024.jpg
1471.246	1.747	1	generate	Run2	generate/STIM_024.jpg
1476.584	1.364	1	generate	Run2	generate/STIM_024.jpg
1480.969	0.561	1	repeat	Run2	repeat/STIM_000.jpg
1483.834	0.649	1	repeat	Run2	repeat/STIM_000.jpg
1487.64	0.58	1	repeat	Run2	repeat/STIM_000.jpg
1491.245	0.648	1	repeat	Run2	repeat/STIM_000.jpg
1495.63	0.652	1	repeat	Run2	repeat/STIM_000.jpg
1499.653	0.409	1	repeat	Run2	repeat/STIM_001.jpg
1503.279	0.566	1	repeat	Run2	repeat/STIM_001.jpg
1507.724	0.89	1	repeat	Run2	repeat/STIM_001.jpg
1511.749	0.623	1	repeat	Run2	repeat/STIM_001.jpg
1516.077	0.514	1	repeat	Run2	repeat/STIM_001.jpg
1520.355	0.612	1	repeat	Run2	repeat/STIM_002.jpg
1523.101	0.471	1	repeat	Run2	repeat/STIM_002.jpg
1526.607	0.683	1	repeat	Run2	repeat/STIM_002.jpg
1531.002	0.604	1	repeat	Run2	repeat/STIM_002.jpg
1534.096	0.735	1	repeat	Run2	repeat/STIM_002.jpg
1538.277	0.805	1	repeat	Run2	repeat/STIM_003.jpg
1541.643	0.588	1	repeat	Run2	repeat/STIM_003.jpg
1545.008	0.867	1	repeat	Run2	repeat/STIM_003.jpg
1549.774	0.84	1	repeat	Run2	repeat/STIM_003.jpg
1554.317	0.579	1	repeat	Run2	repeat/STIM_003.jpg
1558.682	0.678	1	repeat	Run2	repeat/STIM_004.jpg
1562.224	0.559	1	repeat	Run2	repeat/STIM_004.jpg
1566.294	0.748	1	repeat	Run2	repeat/STIM_004.jpg
1569.997	0.662	1	repeat	Run2	repeat/STIM_004.jpg
1573.553	0.795	1	repeat	Run2	repeat/STIM_004.jpg
1577.719	0.815	1	repeat	Run2	repeat/STIM_005.jpg
1582.478	0.696	1	repeat	Run2	repeat/STIM_005.jpg
1586.784	0.857	1	repeat	Run2	repeat/STIM_005.jpg
1590.271	0.85	1	repeat	Run2	repeat/STIM_005.jpg
1593.616	0.828	0	repeat	Run2	repeat/STIM_005.jpg
1596.634	0.932	1	repeat	Run2	repeat/STIM_006.jpg
1600.983	0.531	1	repeat	Run2	repeat/STIM_006.jpg
1604.671	0.563	1	repeat	Run2	repeat/STIM_006.jpg
1609.037	0.522	1	repeat	Run2	repeat/STIM_006.jpg
1611.789	0.954	1	repeat	Run2	repeat/STIM_006.jpg
1615.948	0.894	1	repeat	Run2	repeat/STIM_007.jpg
1619.219	0.731	1	repeat	Run2	repeat/STIM_007.jpg
1623.225	0.812	1	repeat	Run2	repeat/STIM_007.jpg
1628.016	0.839	1	repeat	Run2	repeat/STIM_007.jpg
1632.12	0.955	1	repeat	Run2	repeat/STIM_007.jpg
1637.016	0.465	1	repeat	Run2	repeat/STIM_008.jpg
1641.229	0.499	1	repeat	Run2	repeat/STIM_008.jpg
1644.549	0.633	1	repeat	Run2	repeat/STIM_008.jpg
1647.749	0.719	1	repeat	Run2	repeat/STIM_008.jpg
1651.751	0.896	1	repeat	Run2	repeat/STIM_008.jpg
1654.794	0.649	1	repeat	Run2	repeat/STIM_009.jpg
1657.843	0.8	1	repeat	Run2	repeat/STIM_009.jpg
1660.981	0.721	1	repeat	Run2	repeat/STIM_009.jpg
1665.451	0.499	1	repeat	Run2	repeat/STIM_009.jpg
1669.647	0.653	1	repeat	Run2	repeat/STIM_009.jpg
1673.023	0.567	1	repeat	Run2	repeat/STIM_010.jpg
1677.354	0.706	1	repeat	Run2	repeat/STIM_010.jpg
1681.998	0.92	1	repeat	Run2	repeat/STIM_010.jpg
1686.197	0.88	1	repeat	Run2	repeat/STIM_010.jpg
1689.066	0.847	1	repeat	Run2	repeat/STIM_010.jpg
1693.004	0.821	1	repeat	Run2	repeat/STIM_011.jpg
1697.721	0.966	1	repeat	Run2	repeat/STIM_011.jpg
1701.848	0.551	1	repeat	Run2	repeat/STIM_011.jpg
1705.38	0.786	1	repeat	Run2	repeat/STIM_011.jpg
1708.699	0.936	1	repeat	Run2	repeat/STIM_011.jpg
1713.262	0.912	1	repeat	Run2	repeat/STIM_012.jpg
1716.741	0.844	1	repeat	Run2	repeat/STIM_012.jpg
1719.917	0.688	0	repeat	Run2	repeat/STIM_012.jpg
1723.153	0.944	1	repeat	Run2	repeat/STIM_012.jpg
1727.754	0.618	1	repeat	Run2	repeat/STIM_012.jpg
1731.976	0.776	1	repeat	Run2	repeat/STIM_013.jpg
1736.654	0.677	1	repeat	Run2	repeat/STIM_013.jpg
1739.952	0.565	0	repeat	Run2	repeat/STIM_013.jpg
1744.201	0.496	1	repeat	Run2	repeat/STIM_013.jpg
1748.489	0.601	1	repeat	Run2	repeat/STIM_013.jpg
1752.636	0.71	1	repeat	Run2	repeat/STIM_014.jpg
1756.974	0.954	1	repeat	Run2	repeat/STIM_014.jpg
1760.789	0.523	1	repeat	Run2	repeat/STIM_014.jpg
1764.582	0.678	0	repeat	Run2	repeat/STIM_014.jpg
1767.311	0.76	1	repeat	Run2	repeat/STIM_014.jpg
1771.076	1.569	0	generate	Run3	generate/STIM_000.jpg
1776.315	1.237	1	generate	Run3	generate/STIM_000.jpg
1779.928	0.994	1	generate	Run3	generate/STIM_000.jpg
1783.296	1.306	1	generate	Run3	generate/STIM_000.jpg
1787.887	1.116	1	generate	Run3	generate/STIM_000.jpg
1791.126	1.88	1	generate	Run3	generate/STIM_001.jpg
1796.285	1.174	1	generate	Run3	generate/STIM_001.jpg
1801.201	1.916	1	generate	Run3	generate/STIM_001.jpg
1806.061	1.883	1	generate	Run3	generate/STIM_001.jpg
1810.045	1.946	1	generate	Run3	generate/STIM_001.jpg
1814.663	0.776	1	generate	Run3	generate/STIM_002.jpg
1817.849	1.524	1	generate	Run3	generate/STIM_002.jpg
1821.729	1.596	1	generate	Run3	generate/STIM_002.jpg
1825.828	1.143	1	generate	Run3	generate/STIM_002.jpg
1829.724	0.766	1	generate	Run3	generate/STIM_002.jpg
1832.741	0.916	1	generate	Run3	generate/STIM_003.jpg
1835.972	1.941	1	generate	Run3	generate/STIM_003.jpg
1840.218	1.84	1	generate	Run3	generate/STIM_003.jpg
1846.046	0.817	1	generate	Run3	generate/STIM_003.jpg
1849.195	0.849	1	generate	Run3	generate/STIM_003.jpg
1852.637	1.732	1	generate	Run3	generate/STIM_004.jpg
1858.471	1.688	1	generate	Run3	generate/STIM_004.jpg
1863.524	1.629	1	generate	Run3	generate/STIM_004.jpg
1868.024	0.85	1	generate	Run3	generate/STIM_004.jpg
1872.809	1.739	0	generate	Run3	generate/STIM_004.jpg
1877.125	1.412	1	generate	Run3	generate/STIM_005.jpg
1881.394	1.713	1	generate	Run3	generate/STIM_005.jpg
1886.411	1.994	1	generate	Run3	generate/STIM_005.jpg
1890.938	1.059	0	generate	Run3	generate/STIM_005.jpg
1894.741	0.948	1	generate	Run3	generate/STIM_005.jpg
1899.069	1.475	1	generate	Run3	generate/STIM_006.jpg
1902.973	1.761	1	generate	Run3	generate/STIM_006.jpg
1907.016	1.283	1	generate	Run3	generate/STIM_006.jpg
1911.359	1.615	1	generate	Run3	generate/STIM_006.jpg
1916.337	1.652	0	generate	Run3	generate/STIM_006.jpg
1920.319	1.379	1	generate	Run3	generate/STIM_007.jpg
1925.797	1.198	0	generate	Run3	generate/STIM_007.jpg
1929.284	1.319	0	generate	Run3	generate/STIM_007.jpg
1933.569	1.541	1	generate	Run3	generate/STIM_007.jpg
1938.707	0.89	1	generate	Run3	generate/STIM_007.jpg
1941.639	1.291	1	generate	Run3	generate/STIM_008.jpg
1946.455	1.716	1	generate	Run3	generate/STIM_008.jpg
1950.533	1.231	1	generate	Run3	generate/STIM_008.jpg
1954.327	1.885	1	generate	Run3	generate/STIM_008.jpg
1959.879	1.952	1	generate	Run3	generate/STIM_008.jpg
1964.772	1.857	1	generate	Run3	generate/STIM_009.jpg
1970.199	1.84	1	generate	Run3	generate/STIM_009.jpg
1974.145	1.76	1	generate	Run3	generate/STIM_009.jpg
1979.038	0.99	1	generate	Run3	generate/STIM_009.jpg
1982.586	1.644	1	generate	Run3	generate/STIM_009.jpg
1987.855	1.892	1	generate	Run3	generate/STIM_010.jpg
1993.065	1.518	1	generate	Run3	generate/STIM_010.jpg
1998.326	1.608	1	generate	Run3	generate/STIM_010.jpg
2002.042	1.645	1	generate	Run3	generate/STIM_010.jpg
2007.67	1.479	1	generate	Run3	generate/STIM_010.jpg
2011.747	1.304	1	generate	Run3	generate/STIM_011.jpg
2016.58	1.312	1	generate	Run3	generate/STIM_011.jpg
2020.055	1.91	1	generate	Run3	generate/STIM_011.jpg
2025.015	0.891	1	generate	Run3	generate/STIM_011.jpg
2028.853	0.93	1	generate	Run3	generate/STIM_011.jpg
2032.618	1.379	1	generate	Run3	generate/STIM_012.jpg
2036.401	1.272	1	generate	Run3	generate/STIM_012.jpg
2041.103	1.268	1	generate	Run3	generate/STIM_012.jpg
2046.335	1.202	1	generate	Run3	generate/STIM_012.jpg
2050.299	1.552	1	generate	Run3	generate/STIM_012.jpg
2055.004	1.681	1	generate	Run3	generate/STIM_013.jpg
2060.556	1.392	1	generate	Run3	generate/STIM_013.jpg
2065.566	0.918	1	generate	Run3	generate/STIM_013.jpg
2068.912	1.087	1	generate	Run3	generate/STIM_013.jpg
2072.661	1.35	1	generate	Run3	generate/STIM_013.jpg
2076.291	1.402	1	generate	Run3	generate/STIM_014.jpg
2080.354	1.095	1	generate	Run3	generate/STIM_014.jpg
2085.04	1.336	1	generate	Run3	generate/STIM_014.jpg
2089.651	1.477	1	generate	Run3	generate/STIM_014.jpg
2095.134	1.27	1	generate	Run3	generate/STIM_014.jpg
2099.338	1.627	1	generate	Run3	generate/STIM_015.jpg
2103.717	0.951	1	generate	Run3	generate/STIM_015.jpg
2107.782	1.723	1	generate	Run3	generate/STIM_015.jpg
2112.378	1.379	1	generate	Run3	generate/STIM_015.jpg
2117.358	1.095	1	generate	Run3	generate/STIM_015.jpg
2121.352	1.634	1	generate	Run3	generate/STIM_016.jpg
2127.009	0.849	1	generate	Run3	generate/STIM_016.jpg
2130.579	1.834	1	generate	Run3	generate/STIM_016.jpg
2134.895	1.295	1	generate	Run3	generate/STIM_016.jpg
2138.493	0.882	1	generate	Run3	generate/STIM_016.jpg
2142.378	0.931	1	generate	Run3	generate/STIM_017.jpg
2146.514	0.824	1	generate	Run3	generate/STIM_017.jpg
2149.568	1.342	1	generate	Run3	generate/STIM_017.jpg
2154.188	1.2	1	generate	Run3	generate/STIM_017.jpg
2157.845	0.784	1	generate	Run3	generate/STIM_017.jpg
2162.169	1.553	1	generate	Run3	generate/STIM_018.jpg
2167.79	1.111	1	generate	Run3	generate/STIM_018.jpg
2173.001	1.46	1	generate	Run3	generate/STIM_018.jpg
2177.374	1.076	1	generate	Run3	generate/STIM_018.jpg
2180.534	1.586	1	generate	Run3	generate/STIM_018.jpg
2184.493	1.647	1	generate	Run3	generate/STIM_019.jpg
2189.873	1.673	1	generate	Run3	generate/STIM_019.jpg
2194.242	1.748	1	generate	Run3	generate/STIM_019.jpg
2200.072	1.128	1	generate	Run3	generate/STIM_019.jpg
2205.179	1.09	1	generate	Run3	generate/STIM_019.jpg
2208.653	1.873	1	generate	Run3	generate/STIM_020.jpg
2213.684	1.558	1	generate	Run3	generate/STIM_020.jpg
2218.677	1.726	0	generate	Run3	generate/STIM_020.jpg
2222.956	1.084	1	generate	Run3	generate/STIM_020.jpg
2226.995	1.353	1	generate	Run3	generate/STIM_020.jpg
2231.024	1.128	1	generate	Run3	generate/STIM_021.jpg
2235.802	1.086	1	generate	Run3	generate/STIM_021.jpg
2239.508	0.855	1	generate	Run3	generate/STIM_021.jpg
2243.014	1.116	1	generate	Run3	generate/STIM_021.jpg
2247.379	1.331	1	generate	Run3	generate/STIM_021.jpg
2251.378	1.306	1	generate	Run3	generate/STIM_022.jpg
2255.564	1.179	1	generate	Run3	generate/STIM_022.jpg
2259.816	1.783	0	generate	Run3	generate/STIM_022.jpg
2265.325	1.934	1	generate	Run3	generate/STIM_022.jpg
2270.354	0.987	1	generate	Run3	generate/STIM_022.jpg
2274.605	1.044	1	generate	Run3	generate/STIM_023.jpg
2278.741	1.515	1	generate	Run3	generate/STIM_023.jpg
2282.91	0.848	1	generate	Run3	generate/STIM_023.jpg
2286.904	1.203	1	generate	Run3	generate/STIM_023.jpg
2291.896	0.889	0	generate	Run3	generate/STIM_023.jpg
2295.44	1.824	1	generate	Run3	generate/STIM_024.jpg
2300.165	1.182	1	generate	Run3	generate/STIM_024.jpg
2304.279	1.407	1	generate	Run3	generate/STIM_024.jpg
2308.166	1.118	0	generate	Run3	generate/STIM_024.jpg
2312.915	1.98	1	generate	Run3	generate/STIM_024.jpg
2318.962	0.522	1	repeat	Run3	repeat/STIM_000.jpg
2322.772	0.368	1	repeat	Run3	repeat/STIM_000.jpg
2325.421	0.796	1	repeat	Run3	repeat/STIM_000.jpg
2329.373	0.617	1	repeat	Run3	repeat/STIM_000.jpg
2333.543	0.805	1	repeat	Run3	repeat/STIM_000.jpg
2337.409	0.696	1	repeat	Run3	repeat/STIM_001.jpg
2341.167	0.625	1	repeat	Run3	repeat/STIM_001.jpg
2345.556	0.77	1	repeat	Run3	repeat/STIM_001.jpg
2348.367	0.754	1	repeat	Run3	repeat/STIM_001.jpg
2351.594	0.598	1	repeat	Run3	repeat/STIM_001.jpg
2354.541	0.454	1	repeat	Run3	repeat/STIM_002.jpg
2357.281	0.86	1	repeat	Run3	repeat/STIM_002.jpg
2362.074	0.836	1	repeat	Run3	repeat/STIM_002.jpg
2366.28	0.699	1	repeat	Run3	repeat/STIM_002.jpg
2369.825	0.594	1	repeat	Run3	repeat/STIM_002.jpg
2372.725	0.984	1	repeat	Run3	repeat/STIM_003.jpg
2375.885	0.945	1	repeat	Run3	repeat/STIM_003.jpg
2379.686	0.675	1	repeat	Run3	repeat/STIM_003.jpg
2383.967	0.861	1	repeat	Run3	repeat/STIM_003.jpg
2388.724	0.672	1	repeat	Run3	repeat/STIM_003.jpg
2391.956	0.514	1	repeat	Run3	repeat/STIM_004.jpg
2395.481	0.768	1	repeat	Run3	repeat/STIM_004.jpg
2399.543	0.701	1	repeat	Run3	repeat/STIM_004.jpg
2404.183	0.749	1	repeat	Run3	repeat/STIM_004.jpg
2407.985	0.763	1	repeat	Run3	repeat/STIM_004.jpg
2412.406	0.768	1	repeat	Run3	repeat/STIM_005.jpg
2416.133	1.018	1	repeat	Run3	repeat/STIM_005.jpg
2419.724	0.809	1	repeat	Run3	repeat/STIM_005.jpg
2423.218	0.616	1	repeat	Run3	repeat/STIM_005.jpg
2427.048	0.605	1	repeat	Run3	repeat/STIM_005.jpg
2429.738	0.546	1	repeat	Run3	repeat/STIM_006.jpg
2433.359	0.733	1	repeat	Run3	repeat/STIM_006.jpg
2436.698	0.577	1	repeat	Run3	repeat/STIM_006.jpg
2440.969	0.64	1	repeat	Run3	repeat/STIM_006.jpg
2444.249	0.885	1	repeat	Run3	repeat/STIM_006.jpg
2449.049	0.562	0	repeat	Run3	repeat/STIM_007.jpg
2453.151	0.843	1	repeat	Run3	repeat/STIM_007.jpg
2457.985	0.69	1	repeat	Run3	repeat/STIM_007.jpg
2461.353	0.781	1	repeat	Run3	repeat/STIM_007.jpg
2465.124	0.714	1	repeat	Run3	repeat/STIM_007.jpg
2469.583	0.452	1	repeat	Run3	repeat/STIM_008.jpg
2473.626	0.902	1	repeat	Run3	repeat/STIM_008.jpg
2477.613	0.702	1	repeat	Run3	repeat/STIM_008.jpg
2481.136	0.629	1	repeat	Run3	repeat/STIM_008.jpg
2485.695	0.887	1	repeat	Run3	repeat/STIM_008.jpg
2489.889	0.589	1	repeat	Run3	repeat/STIM_009.jpg
2492.706	0.466	1	repeat	Run3	repeat/STIM_009.jpg
2496.578	0.538	1	repeat	Run3	repeat/STIM_009.jpg
2500.925	0.663	1	repeat	Run3	repeat/STIM_009.jpg
2505.06	0.598	1	repeat	Run3	repeat/STIM_009.jpg
2509.412	0.896	1	repeat	Run3	repeat/STIM_010.jpg
2513.828	0.617	1	repeat	Run3	repeat/STIM_010.jpg
2517.035	0.904	1	repeat	Run3	repeat/STIM_010.jpg
2520.825	0.646	1	repeat	Run3	repeat/STIM_010.jpg
2523.629	0.763	1	repeat	Run3	repeat/STIM_010.jpg
2528.331	0.6	1	repeat	Run3	repeat/STIM_011.jpg
2531.308	0.821	1	repeat	Run3	repeat/STIM_011.jpg
2536.01	0.692	1	repeat	Run3	repeat/STIM_011.jpg
2540.476	0.82	1	repeat	Run3	repeat/STIM_011.jpg
2544.939	0.875	1	repeat	Run3	repeat/STIM_011.jpg
2548.258	0.517	1	repeat	Run3	repeat/STIM_012.jpg
2552.874	0.845	1	repeat	Run3	repeat/STIM_012.jpg
2556.076	0.946	1	repeat	Run3	repeat/STIM_012.jpg
2560.599	0.573	1	repeat	Run3	repeat/STIM_012.jpg
2564.469	0.737	1	repeat	Run3	repeat/STIM_012.jpg
2568.64	0.63	1	repeat	Run3	repeat/STIM_013.jpg
2573.288	0.711	1	repeat	Run3	repeat/STIM_013.jpg
2577.134	0.987	1	repeat	Run3	repeat/STIM_013.jpg
2581.988	0.808	1	repeat	Run3	repeat/STIM_013.jpg
2586.103	0.83	1	repeat	Run3	repeat/STIM_013.jpg
2590.94	0.923	1	repeat	Run3	repeat/STIM_014.jpg
2595.569	0.889	1	repeat	Run3	repeat/STIM_014.jpg
2599.087	0.926	1	repeat	Run3	repeat/STIM_014.jpg
2602.573	0.771	1	repeat	Run3	repeat/STIM_014.jpg
2607.109	0.8	1	repeat	Run3	repeat/STIM_014.jpg
2610.23	1.889	1	generate	Run4	generate/STIM_000.jpg
2615.08	1.286	1	generate	Run4	generate/STIM_000.jpg
2620.115	1.088	1	generate	Run4	generate/STIM_000.jpg
2624.853	1.432	1	generate	Run4	generate/STIM_000.jpg
2629.04	1.926	1	generate	Run4	generate/STIM_000.jpg
2634.304	0.879	1	generate	Run4	generate/STIM_001.jpg
2638.499	1.123	1	generate	Run4	generate/STIM_001.jpg
2642.651	1.394	1	generate	Run4	generate/STIM_001.jpg
2647.931	1.949	1	generate	Run4	generate/STIM_001.jpg
2652.146	1.898	1	generate	Run4	generate/STIM_001.jpg
2656.913	0.924	1	generate	Run4	generate/STIM_002.jpg
2659.928	1.692	1	generate	Run4	generate/STIM_002.jpg
2663.999	1.396	1	generate	Run4	generate/STIM_002.jpg
2668.345	1.689	1	generate	Run4	generate/STIM_002.jpg
2672.301	1.324	1	generate	Run4	generate/STIM_002.jpg
2677.262	0.913	1	generate	Run4	generate/STIM_003.jpg
2680.947	1.452	0	generate	Run4	generate/STIM_003.jpg
2686.026	0.863	1	generate	Run4	generate/STIM_003.jpg
2690.763	0.878	1	generate	Run4	generate/STIM_003.jpg
2693.834	0.759	1	generate	Run4	generate/STIM_003.jpg
2697.55	0.967	1	generate	Run4	generate/STIM_004.jpg
2701.106	0.948	1	generate	Run4	generate/STIM_004.jpg
2704.271	1.633	1	generate	Run4	generate/STIM_004.jpg
2709.651	1.074	1	generate	Run4	generate/STIM_004.jpg
2713.114	1.244	1	generate	Run4	generate/STIM_004.jpg
2716.917	1.131	1	generate	Run4	generate/STIM_005.jpg
2721.683	1.393	1	generate	Run4	generate/STIM_005.jpg
2726.255	1.923	1	generate	Run4	generate/STIM_005.jpg
2731.581	1.426	1	generate	Run4	generate/STIM_005.jpg
2737.015	1.406	1	generate	Run4	generate/STIM_005.jpg
2742.153	1.818	1	generate	Run4	generate/STIM_006.jpg
2747.132	1.021	1	generate	Run4	generate/STIM_006.jpg
2750.417	1.033	1	generate	Run4	generate/STIM_006.jpg
2754.286	1.028	1	generate	Run4	generate/STIM_006.jpg
2758.312	0.909	1	generate	Run4	generate/STIM_006.jpg
2762.636	1.69	1	generate	Run4	generate/STIM_007.jpg
2766.815	1.381	1	generate	Run4	generate/STIM_007.jpg
2771.456	1.759	1	generate	Run4	generate/STIM_007.jpg
2777.082	0.86	1	generate	Run4	generate/STIM_007.jpg
2781.287	1.295	1	generate	Run4	generate/STIM_007.jpg
2785.942	1.648	1	generate	Run4	generate/STIM_008.jpg
2790.61	1.435	1	generate	Run4	generate/STIM_008.jpg
2794.741	1.051	1	generate	Run4	generate/STIM_008.jpg
2799.614	0.796	0	generate	Run4	generate/STIM_008.jpg
2802.528	1.156	1	generate	Run4	generate/STIM_008.jpg
2806.623	1.118	1	generate	Run4	generate/STIM_009.jpg
2811.362	0.936	0	generate	Run4	generate/STIM_009.jpg
2814.399	1.378	1	generate	Run4	generate/STIM_009.jpg
2818.966	1.743	1	generate	Run4	generate/STIM_009.jpg
2823.548	1.54	1	generate	Run4	generate/STIM_009.jpg
2828.567	1.883	1	generate	Run4	generate/STIM_010.jpg
2833.07	1.519	1	generate	Run4	generate/STIM_010.jpg
2838.15	1.883	1	generate	Run4	generate/STIM_010.jpg
2842.578	1.532	0	generate	Run4	generate/STIM_010.jpg
2847.786	0.822	1	generate	Run4	generate/STIM_010.jpg
2851.724	1.778	1	generate	Run4	generate/STIM_011.jpg
2856.341	1.505	1	generate	Run4	generate/STIM_011.jpg
2859.954	1.27	1	generate	Run4	generate/STIM_011.jpg
2864.394	1.501	1	generate	Run4	generate/STIM_011.jpg
2869.787	1.753	1	generate	Run4	generate/STIM_011.jpg
2875.223	1.318	1	generate	Run4	generate/STIM_012.jpg
2879.512	1.394	1	generate	Run4	generate/STIM_012.jpg
2883.299	1.598	1	generate	Run4	generate/STIM_012.jpg
2889.029	2.051	1	generate	Run4	generate/STIM_012.jpg
2893.851	1.67	1	generate	Run4	generate/STIM_012.jpg
2898.558	1.995	1	generate	Run4	generate/STIM_013.jpg
2903.253	0.894	1	generate	Run4	generate/STIM_013.jpg
2907.417	1.511	1	generate	Run4	generate/STIM_013.jpg
2912.221	1.26	1	generate	Run4	generate/STIM_013.jpg
2916.667	1.598	1	generate	Run4	generate/STIM_013.jpg
2921.749	0.761	1	generate	Run4	generate/STIM_014.jpg
2926.296	0.956	1	generate	Run4	generate/STIM_014.jpg
2930.319	1.216	1	generate	Run4	generate/STIM_014.jpg
2934.454	1.673	1	generate	Run4	generate/STIM_014.jpg
2938.819	1.953	1	generate	Run4	generate/STIM_014.jpg
2944.381	1.624	1	generate	Run4	generate/STIM_015.jpg
2949.862	0.73	1	generate	Run4	generate/STIM_015.jpg
2954.576	1.386	1	generate	Run4	generate/STIM_015.jpg
2959.211	1.559	1	generate	Run4	generate/STIM_015.jpg
2964.089	1.769	1	generate	Run4	generate/STIM_015.jpg
2968.831	1.558	0	generate	Run4	generate/STIM_016.jpg
2973.437	1.849	1	generate	Run4	generate/STIM_016.jpg
2978.925	0.957	1	generate	Run4	generate/STIM_016.jpg
2983.441	1.102	1	generate	Run4	generate/STIM_016.jpg
2987.596	1.702	1	generate	Run4	generate/STIM_016.jpg
2992.868	1.282	0	generate	Run4	generate/STIM_017.jpg
2997.281	1.314	1	generate	Run4	generate/STIM_017.jpg
3000.847	1.517	1	generate	Run4	generate/STIM_017.jpg
3005.84	0.802	1	generate	Run4	generate/STIM_017.jpg
3009.338	1.64	1	generate	Run4	generate/STIM_017.jpg
3013.443	1.648	1	generate	Run4	generate/STIM_018.jpg
3018.538	1.734	1	generate	Run4	generate/STIM_018.jpg
3022.419	1.211	1	generate	Run4	generate/STIM_018.jpg
3025.796	1.147	1	generate	Run4	generate/STIM_018.jpg
3030.151	1.825	1	generate	Run4	generate/STIM_018.jpg
3035.945	1.795	1	generate	Run4	generate/STIM_019.jpg
3040.219	1.39	1	generate	Run4	generate/STIM_019.jpg
3044.679	1.264	1	generate	Run4	generate/STIM_019.jpg
3049.12	1.85	1	generate	Run4	generate/STIM_019.jpg
3054.503	1.384	1	generate	Run4	generate/STIM_019.jpg
3059.388	1.419	1	generate	Run4	generate/STIM_020.jpg
3064.45	1.197	1	generate	Run4	generate/STIM_020.jpg
3068.166	1.484	1	generate	Run4	generate/STIM_020.jpg
3072.141	1.606	1	generate	Run4	generate/STIM_020.jpg
3077.196	0.997	1	generate	Run4	generate/STIM_020.jpg
3081.23	1.392	1	generate	Run4	generate/STIM_021.jpg
3086.052	1.77	1	generate	Run4	generate/STIM_021.jpg
3091.073	1.612	1	generate	Run4	generate/STIM_021.jpg
3094.871	1.17	1	generate	Run4	generate/STIM_021.jpg
3099.206	1.292	1	generate	Run4	generate/STIM_021.jpg
3102.932	1.325	1	generate	Run4	generate/STIM_022.jpg
3107.22	1.125	1	generate	Run4	generate/STIM_022.jpg
3111.869	1.199	1	generate	Run4	generate/STIM_022.jpg
3115.296	1.091	1	generate	Run4	generate/STIM_022.jpg
3119.26	1.694	1	generate	Run4	generate/STIM_022.jpg
3123.511	1.137	1	generate	Run4	generate/STIM_023.jpg
3127.341	1.784	1	generate	Run4	generate/STIM_023.jpg
3132.604	1.067	1	generate	Run4	generate/STIM_023.jpg
3136.26	1.69	1	generate	Run4	generate/STIM_023.jpg
3140.741	1.445	1	generate	Run4	generate/STIM_023.jpg
3144.725	1.939	1	generate	Run4	generate/STIM_024.jpg
3150.456	1.232	1	generate	Run4	generate/STIM_024.jpg
3155.33	0.973	0	generate	Run4	generate/STIM_024.jpg
3158.99	1.697	1	generate	Run4	generate/STIM_024.jpg
3163.963	1.258	1	generate	Run4	generate/STIM_024.jpg
3169.301	0.757	1	repeat	Run4	repeat/STIM_000.jpg
3173.583	0.552	0	repeat	Run4	repeat/STIM_000.jpg
3176.712	0.669	1	repeat	Run4	repeat/STIM_000.jpg
3179.542	0.456	0	repeat	Run4	repeat/STIM_000.jpg
3182.307	0.54	1	repeat	Run4	repeat/STIM_000.jpg
3185.601	0.804	1	repeat	Run4	repeat/STIM_001.jpg
3189.706	0.782	1	repeat	Run4	repeat/STIM_001.jpg
3192.836	0.682	1	repeat	Run4	repeat/STIM_001.jpg
3195.81	0.73	1	repeat	Run4	repeat/STIM_001.jpg
3199.748	0.61	1	repeat	Run4	repeat/STIM_001.jpg
3204.046	0.494	1	repeat	Run4	repeat/STIM_002.jpg
3208.545	0.788	1	repeat	Run4	repeat/STIM_002.jpg
3212.114	0.878	1	repeat	Run4	repeat/STIM_002.jpg
3215.994	0.518	1	repeat	Run4	repeat/STIM_002.jpg
3218.66	0.531	1	repeat	Run4	repeat/STIM_002.jpg
3221.346	0.716	1	repeat	Run4	repeat/STIM_003.jpg
3224.418	0.64	0	repeat	Run4	repeat/STIM_003.jpg
3228.471	0.769	1	repeat	Run4	repeat/STIM_003.jpg
3231.929	0.54	1	repeat	Run4	repeat/STIM_003.jpg
3235.207	0.763	1	repeat	Run4	repeat/STIM_003.jpg
3239.676	0.604	1	repeat	Run4	repeat/STIM_004.jpg
3243.756	0.872	1	repeat	Run4	repeat/STIM_004.jpg
3248.24	0.528	1	repeat	Run4	repeat/STIM_004.jpg
3251.114	0.769	1	repeat	Run4	repeat/STIM_004.jpg
3254.342	0.902	1	repeat	Run4	repeat/STIM_004.jpg
3257.997	0.838	1	repeat	Run4	repeat/STIM_005.jpg
3261.105	0.719	1	repeat	Run4	repeat/STIM_005.jpg
3265.305	0.503	0	repeat	Run4	repeat/STIM_005.jpg
3267.967	0.845	1	repeat	Run4	repeat/STIM_005.jpg
3270.966	0.425	1	repeat	Run4	repeat/STIM_005.jpg
3273.792	0.464	1	repeat	Run4	repeat/STIM_006.jpg
3277.309	0.677	1	repeat	Run4	repeat/STIM_006.jpg
3280.294	0.546	1	repeat	Run4	repeat/STIM_006.jpg
3284.78	0.893	1	repeat	Run4	repeat/STIM_006.jpg
3288.5	0.861	1	repeat	Run4	repeat/STIM_006.jpg
3292.246	0.599	1	repeat	Run4	repeat/STIM_007.jpg
3296.785	0.548	1	repeat	Run4	repeat/STIM_007.jpg
3299.696	0.739	1	repeat	Run4	repeat/STIM_007.jpg
3304.159	0.793	1	repeat	Run4	repeat/STIM_007.jpg
3307.611	0.699	0	repeat	Run4	repeat/STIM_007.jpg
3311.368	0.599	0	repeat	Run4	repeat/STIM_008.jpg
3314.493	0.942	1	repeat	Run4	repeat/STIM_008.jpg
3319.192	0.496	1	repeat	Run4	repeat/STIM_008.jpg
3322.992	0.916	1	repeat	Run4	repeat/STIM_008.jpg
3327.116	0.859	1	repeat	Run4	repeat/STIM_008.jpg
3331.283	0.523	1	repeat	Run4	repeat/STIM_009.jpg
3335.239	0.671	1	repeat	Run4	repeat/STIM_009.jpg
3339.838	0.952	1	repeat	Run4	repeat/STIM_009.jpg
3344.408	0.723	1	repeat	Run4	repeat/STIM_009.jpg
3348.46	0.444	1	repeat	Run4	repeat/STIM_009.jpg
3352.059	0.641	1	repeat	Run4	repeat/STIM_010.jpg
3356.578	0.842	1	repeat	Run4	repeat/STIM_010.jpg
3360.835	0.82	1	repeat	Run4	repeat/STIM_010.jpg
3365.164	0.697	0	repeat	Run4	repeat/STIM_010.jpg
3368.525	0.938	1	repeat	Run4	repeat/STIM_010.jpg
3372.267	0.702	1	repeat	Run4	repeat/STIM_011.jpg
3376.775	0.685	1	repeat	Run4	repeat/STIM_011.jpg
3380.883	0.679	1	repeat	Run4	repeat/STIM_011.jpg
3384.612	0.78	1	repeat	Run4	repeat/STIM_011.jpg
3388.04	0.752	1	repeat	Run4	repeat/STIM_011.jpg
3392.202	0.608	1	repeat	Run4	repeat/STIM_012.jpg
3395.374	0.565	1	repeat	Run4	repeat/STIM_012.jpg
3398.162	0.493	1	repeat	Run4	repeat/STIM_012.jpg
3401.497	0.87	1	repeat	Run4	repeat/STIM_012.jpg
3406.218	0.461	1	repeat	Run4	repeat/STIM_012.jpg
3409.087	0.752	1	repeat	Run4	repeat/STIM_013.jpg
3412.089	0.791	1	repeat	Run4	repeat/STIM_013.jpg
3416.342	0.492	1	repeat	Run4	repeat/STIM_013.jpg
3420.582	0.597	1	repeat	Run4	repeat/STIM_013.jpg
3424.622	0.565	1	repeat	Run4	repeat/STIM_013.jpg
3428.177	0.678	1	repeat	Run4	repeat/STIM_014.jpg
3431.831	0.829	1	repeat	Run4	repeat/STIM_014.jpg
3435.533	0.551	1	repeat	Run4	repeat/STIM_014.jpg
3438.151	0.568	0	repeat	Run4	repeat/STIM_014.jpg
3442.249	0.728	1	repeat	Run4	repeat/STIM_014.jpg
