onset	duration	accuracy_binary	trial_type	learning_stage	stimulus
0.0	3.538	1	regulate	Run1	regulate/STIM_000.jpg
5.307	3.729	1	regulate	Run1	regulate/STIM_000.jpg
11.324	1.653	1	regulate	Run1	regulate/STIM_000.jpg
15.278	2.246	1	regulate	Run1	regulate/STIM_000.jpg
19.247	2.181	1	regulate	Run1	regulate/STIM_001.jpg
24.217	3.654	1	regulate	Run1	regulate/STIM_001.jpg
30.772	3.058	1	regulate	Run1	regulate/STIM_001.jpg
35.59	3.343	1	regulate	Run1	regulate/STIM_001.jpg
42.361	3.579	1	regulate	Run1	regulate/STIM_002.jpg
49.394	2.812	1	regulate	Run1	regulate/STIM_002.jpg
53.938	2.001	0	regulate	Run1	regulate/STIM_002.jpg
59.323	2.197	1	regulate	Run1	regulate/STIM_002.jpg
64.593	2.396	1	regulate	Run1	regulate/STIM_003.jpg
70.633	3.706	1	regulate	Run1	regulate/STIM_003.jpg
76.148	3.566	1	regulate	Run1	regulate/STIM_003.jpg
82.43	2.786	1	regulate	Run1	regulate/STIM_003.jpg
88.473	1.738	1	regulate	Run1	regulate/STIM_004.jpg
93.278	2.163	1	regulate	Run1	regulate/STIM_004.jpg
97.339	2.799	1	regulate	Run1	regulate/STIM_004.jpg
102.496	2.214	1	regulate	Run1	regulate/STIM_004.jpg
107.302	2.722	1	regulate	Run1	regulate/STIM_005.jpg
112.98	3.398	0	regulate	Run1	regulate/STIM_005.jpg
119.302	3.489	1	regulate	Run1	regulate/STIM_005.jpg
124.554	2.761	0	regulate	Run1	regulate/STIM_005.jpg
130.807	3.363	1	regulate	Run1	regulate/STIM_006.jpg
136.003	2.129	0	regulate	Run1	regulate/STIM_006.jpg
141.455	2.938	1	regulate	Run1	regulate/STIM_006.jpg
146.383	2.814	1	regulate	Run1	regulate/STIM_006.jpg
152.146	3.443	0	regulate	Run1	regulate/STIM_007.jpg
158.944	2.513	1	regulate	Run1	regulate/STIM_007.jpg
164.545	1.858	1	regulate	Run1	regulate/STIM_007.jpg
170.024	1.595	1	regulate	Run1	regulate/STIM_007.jpg
174.636	2.78	1	regulate	Run1	regulate/STIM_008.jpg
179.279	2.926	0	regulate	Run1	regulate/STIM_008.jpg
184.909	3.328	1	regulate	Run1	regulate/STIM_008.jpg
191.062	2.269	1	regulate	Run1	regulate/STIM_008.jpg
196.841	1.906	0	regulate	Run1	regulate/STIM_009.jpg
201.029	3.422	1	regulate	Run1	regulate/STIM_009.jpg
207.319	3.531	1	regulate	Run1	regulate/STIM_009.jpg
213.028	3.218	1	regulate	Run1	regulate/STIM_009.jpg
219.426	3.896	1	regulate	Run1	regulate/STIM_010.jpg
226.252	2.186	1	regulate	Run1	regulate/STIM_010.jpg
230.247	2.947	1	regulate	Run1	regulate/STIM_010.jpg
236.168	2.024	0	regulate	Run1	regulate/STIM_010.jpg
241.491	2.474	0	regulate	Run1	regulate/STIM_011.jpg
245.712	1.83	1	regulate	Run1	regulate/STIM_011.jpg
250.45	2.262	1	regulate	Run1	regulate/STIM_011.jpg
255.0	2.235	1	regulate	Run1	regulate/STIM_011.jpg
260.639	2.944	1	regulate	Run1	regulate/STIM_012.jpg
266.837	2.378	0	regulate	Run1	regulate/STIM_012.jpg
271.02	2.483	0	regulate	Run1	regulate/STIM_012.jpg
276.452	2.628	0	regulate	Run1	regulate/STIM_012.jpg
281.283	2.196	1	regulate	Run1	regulate/STIM_013.jpg
286.388	3.792	0	regulate	Run1	regulate/STIM_013.jpg
292.095	2.152	1	regulate	Run1	regulate/STIM_013.jpg
296.558	2.25	1	regulate	Run1	regulate/STIM_013.jpg
301.569	3.496	1	regulate	Run1	regulate/STIM_014.jpg
308.279	3.251	1	regulate	Run1	regulate/STIM_014.jpg
314.817	3.271	1	regulate	Run1	regulate/STIM_014.jpg
320.274	2.623	0	regulate	Run1	regulate/STIM_014.jpg
325.86	3.141	1	regulate	Run1	regulate/STIM_015.jpg
332.5	1.918	1	regulate	Run1	regulate/STIM_015.jpg
337.251	1.663	1	regulate	Run1	regulate/STIM_015.jpg
342.303	2.391	1	regulate	Run1	regulate/STIM_015.jpg
346.877	2.242	1	regulate	Run1	regulate/STIM_016.jpg
352.54	2.116	1	regulate	Run1	regulate/STIM_016.jpg
358.065	1.761	1	regulate	Run1	regulate/STIM_016.jpg
363.428	3.214	0	regulate	Run1	regulate/STIM_016.jpg
369.329	2.233	1	regulate	Run1	regulate/STIM_017.jpg
373.467	2.987	1	regulate	Run1	regulate/STIM_017.jpg
379.792	3.539	1	regulate	Run1	regulate/STIM_017.jpg
384.957	2.843	0	regulate	Run1	regulate/STIM_017.jpg
391.075	3.97	1	regulate	Run1	regulate/STIM_018.jpg
398.468	2.383	1	regulate	Run1	regulate/STIM_018.jpg
403.173	3.389	1	regulate	Run1	regulate/STIM_018.jpg
409.513	2.89	1	regulate	Run1	regulate/STIM_018.jpg
415.552	3.337	0	regulate	Run1	regulate/STIM_019.jpg
421.718	1.924	1	regulate	Run1	regulate/STIM_019.jpg
426.617	2.519	0	regulate	Run1	regulate/STIM_019.jpg
431.448	2.352	1	regulate	Run1	regulate/STIM_019.jpg
437.308	3.317	0	regulate	Run1	regulate/STIM_020.jpg
443.568	2.506	1	regulate	Run1	regulate/STIM_020.jpg
447.951	2.771	0	regulate	Run1	regulate/STIM_020.jpg
452.894	3.109	1	regulate	Run1	regulate/STIM_020.jpg
459.124	3.054	1	regulate	Run1	regulate/STIM_021.jpg
464.821	2.245	1	regulate	Run1	regulate/STIM_021.jpg
469.563	3.064	1	regulate	Run1	regulate/STIM_021.jpg
475.42	1.541	1	regulate	Run1	regulate/STIM_021.jpg
480.034	3.927	1	regulate	Run1	regulate/STIM_022.jpg
486.568	1.683	1	regulate	Run1	regulate/STIM_022.jpg
491.437	2.186	0	regulate	Run1	regulate/STIM_022.jpg
496.397	1.982	0	regulate	Run1	regulate/STIM_022.jpg
501.666	2.873	1	regulate	Run1	regulate/STIM_023.jpg
507.976	3.683	1	regulate	Run1	regulate/STIM_023.jpg
515.057	2.625	1	regulate	Run1	regulate/STIM_023.jpg
521.222	2.302	1	regulate	Run1	regulate/STIM_023.jpg
526.12	3.436	1	regulate	Run1	regulate/STIM_024.jpg
532.319	3.584	0	regulate	Run1	regulate/STIM_024.jpg
538.786	2.282	1	regulate	Run1	regulate/STIM_024.jpg
542.94	2.476	1	regulate	Run1	regulate/STIM_024.jpg
547.519	3.55	1	regulate	Run1	regulate/STIM_025.jpg
553.378	2.586	1	regulate	Run1	regulate/STIM_025.jpg
558.001	2.308	1	regulate	Run1	regulate/STIM_025.jpg
562.555	1.73	1	regulate	Run1	regulate/STIM_025.jpg
566.296	3.359	1	regulate	Run1	regulate/STIM_026.jpg
571.76	2.746	1	regulate	Run1	regulate/STIM_026.jpg
577.131	2.596	1	regulate	Run1	regulate/STIM_026.jpg
583.023	3.341	1	regulate	Run1	regulate/STIM_026.jpg
588.92	1.757	1	regulate	Run1	regulate/STIM_027.jpg
592.872	3.256	1	regulate	Run1	regulate/STIM_027.jpg
598.195	2.354	0	regulate	Run1	regulate/STIM_027.jpg
603.681	1.767	1	regulate	Run1	regulate/STIM_027.jpg
608.721	2.846	1	regulate	Run1	regulate/STIM_028.jpg
614.481	2.941	0	regulate	Run1	regulate/STIM_028.jpg
619.924	2.572	0	regulate	Run1	regulate/STIM_028.jpg
625.617	2.135	1	regulate	Run1	regulate/STIM_028.jpg
631.248	2.405	1	regulate	Run1	regulate/STIM_029.jpg
636.365	3.727	1	regulate	Run1	regulate/STIM_029.jpg
642.296	2.237	0	regulate	Run1	regulate/STIM_029.jpg
647.265	1.637	0	regulate	Run1	regulate/STIM_029.jpg
651.573	0.924	0	observe	Run1	observe/STIM_000.jpg
655.143	1.121	1	observe	Run1	observe/STIM_000.jpg
659.972	1.178	1	observe	Run1	observe/STIM_000.jpg
664.532	1.022	0	observe	Run1	observe/STIM_000.jpg
669.026	1.634	1	observe	Run1	observe/STIM_001.jpg
672.995	1.154	1	observe	Run1	observe/STIM_001.jpg
677.308	1.748	1	observe	Run1	observe/STIM_001.jpg
681.51	1.208	0	observe	Run1	observe/STIM_001.jpg
686.314	0.966	0	observe	Run1	observe/STIM_002.jpg
689.175	1.588	1	observe	Run1	observe/STIM_002.jpg
693.124	1.777	1	observe	Run1	observe/STIM_002.jpg
697.435	1.315	1	observe	Run1	observe/STIM_002.jpg
702.487	1.47	1	observe	Run1	observe/STIM_003.jpg
707.113	1.325	1	observe	Run1	observe/STIM_003.jpg
712.248	1.333	1	observe	Run1	observe/STIM_003.jpg
716.553	1.625	1	observe	Run1	observe/STIM_003.jpg
721.643	1.025	1	observe	Run1	observe/STIM_004.jpg
725.371	1.002	1	observe	Run1	observe/STIM_004.jpg
730.024	1.566	1	observe	Run1	observe/STIM_004.jpg
733.424	1.775	1	observe	Run1	observe/STIM_004.jpg
738.111	1.039	1	observe	Run1	observe/STIM_005.jpg
741.151	1.361	0	observe	Run1	observe/STIM_005.jpg
745.268	1.109	1	observe	Run1	observe/STIM_005.jpg
749.544	1.062	1	observe	Run1	observe/STIM_005.jpg
753.35	1.171	0	observe	Run1	observe/STIM_006.jpg
758.305	1.275	1	observe	Run1	observe/STIM_006.jpg
763.014	1.55	1	observe	Run1	observe/STIM_006.jpg
767.486	1.395	1	observe	Run1	observe/STIM_006.jpg
772.329	1.066	1	observe	Run1	observe/STIM_007.jpg
776.346	0.969	1	observe	Run1	observe/STIM_007.jpg
779.268	1.643	0	observe	Run1	observe/STIM_007.jpg
784.564	0.978	1	observe	Run1	observe/STIM_007.jpg
789.005	0.939	1	observe	Run1	observe/STIM_008.jpg
792.833	1.03	1	observe	Run1	observe/STIM_008.jpg
797.659	1.725	1	observe	Run1	observe/STIM_008.jpg
802.238	1.413	1	observe	Run1	observe/STIM_008.jpg
805.718	1.443	0	observe	Run1	observe/STIM_009.jpg
809.071	1.808	1	observe	Run1	observe/STIM_009.jpg
814.011	1.747	1	observe	Run1	observe/STIM_009.jpg
817.923	1.022	1	observe	Run1	observe/STIM_009.jpg
821.743	1.273	1	observe	Run1	observe/STIM_010.jpg
826.855	0.969	1	observe	Run1	observe/STIM_010.jpg
831.212	1.234	1	observe	Run1	observe/STIM_010.jpg
835.747	1.695	1	observe	Run1	observe/STIM_010.jpg
839.553	1.126	1	observe	Run1	observe/STIM_011.jpg
844.02	1.824	1	observe	Run1	observe/STIM_011.jpg
848.907	1.017	1	observe	Run1	observe/STIM_011.jpg
852.952	1.194	1	observe	Run1	observe/STIM_011.jpg
856.821	1.588	1	observe	Run1	observe/STIM_012.jpg
860.975	1.176	1	observe	Run1	observe/STIM_012.jpg
864.966	1.652	1	observe	Run1	observe/STIM_012.jpg
870.005	1.316	1	observe	Run1	observe/STIM_012.jpg
873.571	1.062	1	observe	Run1	observe/STIM_013.jpg
878.079	1.498	1	observe	Run1	observe/STIM_013.jpg
882.138	1.096	1	observe	Run1	observe/STIM_013.jpg
885.409	1.356	0	observe	Run1	observe/STIM_013.jpg
889.632	1.316	1	observe	Run1	observe/STIM_014.jpg
893.268	1.413	0	observe	Run1	observe/STIM_014.jpg
897.529	1.422	1	observe	Run1	observe/STIM_014.jpg
902.725	1.588	1	observe	Run1	observe/STIM_014.jpg
907.744	0.994	1	observe	Run1	observe/STIM_015.jpg
912.012	1.24	1	observe	Run1	observe/STIM_015.jpg
915.686	1.802	1	observe	Run1	observe/STIM_015.jpg
921.01	1.674	1	observe	Run1	observe/STIM_015.jpg
925.755	1.092	1	observe	Run1	observe/STIM_016.jpg
930.225	1.174	0	observe	Run1	observe/STIM_016.jpg
933.971	1.11	1	observe	Run1	observe/STIM_016.jpg
938.85	1.172	1	observe	Run1	observe/STIM_016.jpg
943.127	0.984	1	observe	Run1	observe/STIM_017.jpg
946.529	1.336	1	observe	Run1	observe/STIM_017.jpg
950.076	1.071	1	observe	Run1	observe/STIM_017.jpg
954.471	0.948	1	observe	Run1	observe/STIM_017.jpg
958.031	1.661	1	observe	Run1	observe/STIM_018.jpg
962.19	1.046	1	observe	Run1	observe/STIM_018.jpg
966.928	1.489	1	observe	Run1	observe/STIM_018.jpg
970.626	1.56	1	observe	Run1	observe/STIM_018.jpg
975.862	0.985	1	observe	Run1	observe/STIM_019.jpg
979.775	1.158	1	observe	Run1	observe/STIM_019.jpg
982.906	1.678	0	observe	Run1	observe/STIM_019.jpg
987.217	1.445	1	observe	Run1	observe/STIM_019.jpg
991.584	2.766	1	regulate	Run2	regulate/STIM_000.jpg
997.423	1.43	1	regulate	Run2	regulate/STIM_000.jpg
1000.687	2.812	1	regulate	Run2	regulate/STIM_000.jpg
1006.444	1.917	1	regulate	Run2	regulate/STIM_000.jpg
1011.435	2.341	1	regulate	Run2	regulate/STIM_001.jpg
1016.339	3.121	1	regulate	Run2	regulate/STIM_001.jpg
1022.255	2.209	0	regulate	Run2	regulate/STIM_001.jpg
1026.911	2.347	1	regulate	Run2	regulate/STIM_001.jpg
1032.452	2.428	1	regulate	Run2	regulate/STIM_002.jpg
1038.327	2.281	1	regulate	Run2	regulate/STIM_002.jpg
1043.418	2.842	1	regulate	Run2	regulate/STIM_002.jpg
1049.358	1.862	1	regulate	Run2	regulate/STIM_002.jpg
1053.502	3.113	1	regulate	Run2	regulate/STIM_003.jpg
1059.863	2.067	1	regulate	Run2	regulate/STIM_003.jpg
1064.756	2.683	1	regulate	Run2	regulate/STIM_003.jpg
1069.398	2.014	1	regulate	Run2	regulate/STIM_003.jpg
1073.559	3.191	0	regulate	Run2	regulate/STIM_004.jpg
1079.601	2.961	1	regulate	Run2	regulate/STIM_004.jpg
1085.851	2.948	1	regulate	Run2	regulate/STIM_004.jpg
1091.4	2.651	1	regulate	Run2	regulate/STIM_004.jpg
1096.357	2.554	1	regulate	Run2	regulate/STIM_005.jpg
1101.96	2.698	1	regulate	Run2	regulate/STIM_005.jpg
1106.896	1.873	1	regulate	Run2	regulate/STIM_005.jpg
1110.619	2.228	0	regulate	Run2	regulate/STIM_005.jpg
1115.284	3.316	1	regulate	Run2	regulate/STIM_006.jpg
1121.413	2.348	1	regulate	Run2	regulate/STIM_006.jpg
1125.884	1.741	1	regulate	Run2	regulate/STIM_006.jpg
1130.702	2.349	1	regulate	Run2	regulate/STIM_006.jpg
1135.361	1.986	1	regulate	Run2	regulate/STIM_007.jpg
1140.623	1.767	1	regulate	Run2	regulate/STIM_007.jpg
1145.004	1.772	0	regulate	Run2	regulate/STIM_007.jpg
1149.041	2.746	1	regulate	Run2	regulate/STIM_007.jpg
1153.762	2.756	1	regulate	Run2	regulate/STIM_008.jpg
1158.245	3.155	0	regulate	Run2	regulate/STIM_008.jpg
1164.884	2.046	1	regulate	Run2	regulate/STIM_008.jpg
1170.55	1.735	1	regulate	Run2	regulate/STIM_008.jpg
1174.65	1.534	1	regulate	Run2	regulate/STIM_009.jpg
1178.575	1.898	1	regulate	Run2	regulate/STIM_009.jpg
1182.672	1.872	1	regulate	Run2	regulate/STIM_009.jpg
1187.106	1.633	1	regulate	Run2	regulate/STIM_009.jpg
1191.503	2.638	1	regulate	Run2	regulate/STIM_010.jpg
1196.068	2.54	1	regulate	Run2	regulate/STIM_010.jpg
1200.599	2.628	1	regulate	Run2	regulate/STIM_010.jpg
1205.407	1.614	1	regulate	Run2	regulate/STIM_010.jpg
1209.279	3.319	1	regulate	Run2	regulate/STIM_011.jpg
1215.714	1.939	0	regulate	Run2	regulate/STIM_011.jpg
1221.376	2.348	1	regulate	Run2	regulate/STIM_011.jpg
1226.215	1.815	1	regulate	Run2	regulate/STIM_011.jpg
1231.487	2.634	1	regulate	Run2	regulate/STIM_012.jpg
1237.682	2.796	0	regulate	Run2	regulate/STIM_012.jpg
1242.357	2.662	1	regulate	Run2	regulate/STIM_012.jpg
1248.531	2.552	1	regulate	Run2	regulate/STIM_012.jpg
1253.109	3.311	1	regulate	Run2	regulate/STIM_013.jpg
1259.362	1.833	1	regulate	Run2	regulate/STIM_013.jpg
1264.032	2.743	1	regulate	Run2	regulate/STIM_013.jpg
1269.786	2.393	1	regulate	Run2	regulate/STIM_013.jpg
1275.296	2.603	1	regulate	Run2	regulate/STIM_014.jpg
1281.444	2.157	1	regulate	Run2	regulate/STIM_014.jpg
1285.89	1.999	1	regulate	Run2	regulate/STIM_014.jpg
1291.184	2.109	1	regulate	Run2	regulate/STIM_014.jpg
1296.388	3.058	1	regulate	Run2	regulate/STIM_015.jpg
1302.315	1.562	1	regulate	Run2	regulate/STIM_015.jpg
1306.952	2.725	1	regulate	Run2	regulate/STIM_015.jpg
1312.933	1.288	1	regulate	Run2	regulate/STIM_015.jpg
1316.086	2.341	1	regulate	Run2	regulate/STIM_016.jpg
1321.298	1.48	1	regulate	Run2	regulate/STIM_016.jpg
1325.966	2.195	1	regulate	Run2	regulate/STIM_016.jpg
1330.538	1.802	1	regulate	Run2	regulate/STIM_016.jpg
1334.246	1.775	1	regulate	Run2	regulate/STIM_017.jpg
1337.979	1.685	1	regulate	Run2	regulate/STIM_017.jpg
1343.254	2.225	1	regulate	Run2	regulate/STIM_017.jpg
1347.57	1.6	0	regulate	Run2	regulate/STIM_017.jpg
1352.306	2.119	1	regulate	Run2	regulate/STIM_018.jpg
1357.155	2.873	0	regulate	Run2	regulate/STIM_018.jpg
1362.96	2.947	0	regulate	Run2	regulate/STIM_018.jpg
1368.959	1.605	1	regulate	Run2	regulate/STIM_018.jpg
1373.395	2.356	0	regulate	Run2	regulate/STIM_019.jpg
1378.936	3.117	1	regulate	Run2	regulate/STIM_019.jpg
1384.078	2.494	1	regulate	Run2	regulate/STIM_019.jpg
1388.788	2.661	1	regulate	Run2	regulate/STIM_019.jpg
1394.887	2.214	1	regulate	Run2	regulate/STIM_020.jpg
1398.86	2.273	1	regulate	Run2	regulate/STIM_020.jpg
1404.272	2.299	1	regulate	Run2	regulate/STIM_020.jpg
1409.405	2.729	1	regulate	Run2	regulate/STIM_020.jpg
1415.733	1.464	1	regulate	Run2	regulate/STIM_021.jpg
1419.978	3.176	1	regulate	Run2	regulate/STIM_021.jpg
1426.72	2.012	1	regulate	Run2	regulate/STIM_021.jpg
1431.527	1.423	1	regulate	Run2	regulate/STIM_021.jpg
1436.286	1.863	0	regulate	Run2	regulate/STIM_022.jpg
1441.888	2.625	1	regulate	Run2	regulate/STIM_022.jpg
1446.905	2.834	1	regulate	Run2	regulate/STIM_022.jpg
1452.342	1.994	1	regulate	Run2	regulate/STIM_022.jpg
1458.055	1.55	1	regulate	Run2	regulate/STIM_023.jpg
1462.633	2.215	1	regulate	Run2	regulate/STIM_023.jpg
1468.516	2.518	1	regulate	Run2	regulate/STIM_023.jpg
1473.297	1.228	1	regulate	Run2	regulate/STIM_023.jpg
1477.286	2.191	1	regulate	Run2	regulate/STIM_024.jpg
1481.491	2.554	1	regulate	Run2	regulate/STIM_024.jpg
1487.371	1.471	1	regulate	Run2	regulate/STIM_024.jpg
1492.588	1.945	1	regulate	Run2	regulate/STIM_024.jpg
1496.86	1.588	1	regulate	Run2	regulate/STIM_025.jpg
1501.957	2.534	1	regulate	Run2	regulate/STIM_025.jpg
1507.563	2.92	0	regulate	Run2	regulate/STIM_025.jpg
1513.887	1.734	1	regulate	Run2	regulate/STIM_025.jpg
1518.229	2.314	1	regulate	Run2	regulate/STIM_026.jpg
1523.732	2.103	1	regulate	Run2	regulate/STIM_026.jpg
1528.402	2.344	1	regulate	Run2	regulate/STIM_026.jpg
1533.892	1.586	1	regulate	Run2	regulate/STIM_026.jpg
1539.134	3.133	1	regulate	Run2	regulate/STIM_027.jpg
1545.344	2.182	0	regulate	Run2	regulate/STIM_027.jpg
1550.898	2.175	0	regulate	Run2	regulate/STIM_027.jpg
1555.113	2.103	1	regulate	Run2	regulate/STIM_027.jpg
1559.068	2.012	1	regulate	Run2	regulate/STIM_028.jpg
1562.92	1.385	1	regulate	Run2	regulate/STIM_028.jpg
1566.815	2.515	0	regulate	Run2	regulate/STIM_028.jpg
1571.485	2.751	1	regulate	Run2	regulate/STIM_028.jpg
1575.976	2.245	0	regulate	Run2	regulate/STIM_029.jpg
1580.249	3.034	1	regulate	Run2	regulate/STIM_029.jpg
1586.315	2.779	0	regulate	Run2	regulate/STIM_029.jpg
1590.969	2.231	1	regulate	Run2	regulate/STIM_029.jpg
1595.961	1.819	1	observe	Run2	observe/STIM_000.jpg
1600.359	1.468	1	observe	Run2	observe/STIM_000.jpg
1604.511	0.943	1	observe	Run2	observe/STIM_000.jpg
1609.326	1.331	1	observe	Run2	observe/STIM_000.jpg
1614.141	1.602	1	observe	Run2	observe/STIM_001.jpg
1618.216	1.163	1	observe	Run2	observe/STIM_001.jpg
1622.845	0.922	1	observe	Run2	observe/STIM_001.jpg
1627.563	1.533	1	observe	Run2	observe/STIM_001.jpg
1631.554	1.227	1	observe	Run2	observe/STIM_002.jpg
1634.864	1.812	1	observe	Run2	observe/STIM_002.jpg
1639.965	1.604	1	observe	Run2	observe/STIM_002.jpg
1644.928	1.115	1	observe	Run2	observe/STIM_002.jpg
1649.442	1.045	1	observe	Run2	observe/STIM_003.jpg
1654.126	1.122	0	observe	Run2	observe/STIM_003.jpg
1657.202	1.146	1	observe	Run2	observe/STIM_003.jpg
1660.468	1.624	1	observe	Run2	observe/STIM_003.jpg
1665.157	1.38	1	observe	Run2	observe/STIM_004.jpg
1670.244	1.62	1	observe	Run2	observe/STIM_004.jpg
1675.269	1.488	1	observe	Run2	observe/STIM_004.jpg
1679.339	0.968	1	observe	Run2	observe/STIM_004.jpg
1683.213	1.384	1	observe	Run2	observe/STIM_005.jpg
1687.017	1.708	1	observe	Run2	observe/STIM_005.jpg
1692.258	1.773	1	observe	Run2	observe/STIM_005.jpg
1697.458	0.962	1	observe	Run2	observe/STIM_005.jpg
1701.836	1.353	1	observe	Run2	observe/STIM_006.jpg
1706.043	1.641	1	observe	Run2	observe/STIM_006.jpg
1710.763	1.738	1	observe	Run2	observe/STIM_006.jpg
1716.129	1.426	1	observe	Run2	observe/STIM_006.jpg
1721.332	1.269	1	observe	Run2	observe/STIM_007.jpg
1725.717	1.312	1	observe	Run2	observe/STIM_007.jpg
1730.79	1.544	1	observe	Run2	observe/STIM_007.jpg
1735.357	1.655	1	observe	Run2	observe/STIM_007.jpg
1740.183	1.049	1	observe	Run2	observe/STIM_008.jpg
1744.431	1.5	1	observe	Run2	observe/STIM_008.jpg
1749.067	1.271	1	observe	Run2	observe/STIM_008.jpg
1752.515	1.008	1	observe	Run2	observe/STIM_008.jpg
1756.936	1.544	0	observe	Run2	observe/STIM_009.jpg
1761.471	1.021	1	observe	Run2	observe/STIM_009.jpg
1765.375	1.644	1	observe	Run2	observe/STIM_009.jpg
1769.604	1.825	1	observe	Run2	observe/STIM_009.jpg
1773.386	1.251	0	observe	Run2	observe/STIM_010.jpg
1777.802	1.28	1	observe	Run2	observe/STIM_010.jpg
1781.802	1.031	1	observe	Run2	observe/STIM_010.jpg
1786.366	1.664	0	observe	Run2	observe/STIM_010.jpg
1791.005	0.934	0	observe	Run2	observe/STIM_011.jpg
1795.023	1.406	1	observe	Run2	observe/STIM_011.jpg
1799.819	1.408	1	observe	Run2	observe/STIM_011.jpg
1804.849	1.058	1	observe	Run2	observe/STIM_011.jpg
1808.349	1.414	1	observe	Run2	observe/STIM_012.jpg
1812.312	0.96	1	observe	Run2	observe/STIM_012.jpg
1817.051	1.272	1	observe	Run2	observe/STIM_012.jpg
1821.398	1.49	1	observe	Run2	observe/STIM_012.jpg
1826.537	0.97	0	observe	Run2	observe/STIM_013.jpg
1829.985	1.44	1	observe	Run2	observe/STIM_013.jpg
1833.283	1.564	1	observe	Run2	observe/STIM_013.jpg
1837.669	1.686	0	observe	Run2	observe/STIM_013.jpg
1841.845	1.555	1	observe	Run2	observe/STIM_014.jpg
1845.817	1.337	1	observe	Run2	observe/STIM_014.jpg
1850.969	1.663	1	observe	Run2	observe/STIM_014.jpg
1854.455	1.322	0	observe	Run2	observe/STIM_014.jpg
1858.874	1.784	1	observe	Run2	observe/STIM_015.jpg
1862.52	1.398	1	observe	Run2	observe/STIM_015.jpg
1867.455	1.237	1	observe	Run2	observe/STIM_015.jpg
1871.825	1.785	0	observe	Run2	observe/STIM_015.jpg
1875.571	1.517	1	observe	Run2	observe/STIM_016.jpg
1879.216	1.359	1	observe	Run2	observe/STIM_016.jpg
1883.927	1.101	1	observe	Run2	observe/STIM_016.jpg
1887.038	0.996	1	observe	Run2	observe/STIM_016.jpg
1890.327	1.504	1	observe	Run2	observe/STIM_017.jpg
1895.469	1.819	1	observe	Run2	observe/STIM_017.jpg
1900.092	1.396	1	observe	Run2	observe/STIM_017.jpg
1903.786	1.439	0	observe	Run2	observe/STIM_017.jpg
1907.691	1.2	1	observe	Run2	observe/STIM_018.jpg
1910.814	1.389	1	observe	Run2	observe/STIM_018.jpg
1914.101	1.372	0	observe	Run2	observe/STIM_018.jpg
1918.397	1.076	0	observe	Run2	observe/STIM_018.jpg
1922.256	1.268	0	observe	Run2	observe/STIM_019.jpg
1925.494	0.956	1	observe	Run2	observe/STIM_019.jpg
1928.384	1.665	1	observe	Run2	observe/STIM_019.jpg
1932.938	1.449	1	observe	Run2	observe/STIM_019.jpg
1937.155	1.72	1	regulate	Run3	regulate/STIM_000.jpg
1941.097	1.472	1	regulate	Run3	regulate/STIM_000.jpg
1946.11	2.747	1	regulate	Run3	regulate/STIM_000.jpg
1951.849	1.47	1	regulate	Run3	regulate/STIM_000.jpg
1956.771	1.443	1	regulate	Run3	regulate/STIM_001.jpg
1960.307	2.451	1	regulate	Run3	regulate/STIM_001.jpg
1965.816	1.479	1	regulate	Run3	regulate/STIM_001.jpg
1971.006	1.774	1	regulate	Run3	regulate/STIM_001.jpg
1975.848	1.461	0	regulate	Run3	regulate/STIM_002.jpg
1980.971	1.503	1	regulate	Run3	regulate/STIM_002.jpg
1986.159	1.945	1	regulate	Run3	regulate/STIM_002.jpg
1991.773	2.163	1	regulate	Run3	regulate/STIM_002.jpg
1996.853	2.419	1	regulate	Run3	regulate/STIM_003.jpg
2001.354	1.796	1	regulate	Run3	regulate/STIM_003.jpg
2005.565	1.814	1	regulate	Run3	regulate/STIM_003.jpg
2009.241	2.001	1	regulate	Run3	regulate/STIM_003.jpg
2014.585	1.75	1	regulate	Run3	regulate/STIM_004.jpg
2019.055	2.213	1	regulate	Run3	regulate/STIM_004.jpg
2023.838	1.227	1	regulate	Run3	regulate/STIM_004.jpg
2028.55	1.674	1	regulate	Run3	regulate/STIM_004.jpg
2033.298	2.387	1	regulate	Run3	regulate/STIM_005.jpg
2038.413	1.422	1	regulate	Run3	regulate/STIM_005.jpg
2042.605	1.776	1	regulate	Run3	regulate/STIM_005.jpg
2047.963	1.935	1	regulate	Run3	regulate/STIM_005.jpg
2052.336	2.213	1	regulate	Run3	regulate/STIM_006.jpg
2056.322	2.59	1	regulate	Run3	regulate/STIM_006.jpg
2061.867	1.635	1	regulate	Run3	regulate/STIM_006.jpg
2067.051	2.758	1	regulate	Run3	regulate/STIM_006.jpg
2072.087	1.301	1	regulate	Run3	regulate/STIM_007.jpg
2076.035	2.286	1	regulate	Run3	regulate/STIM_007.jpg
2081.153	1.505	1	regulate	Run3	regulate/STIM_007.jpg
2085.188	2.106	1	regulate	Run3	regulate/STIM_007.jpg
2090.485	2.789	1	regulate	Run3	regulate/STIM_008.jpg
2095.144	1.961	1	regulate	Run3	regulate/STIM_008.jpg
2099.286	2.426	1	regulate	Run3	regulate/STIM_008.jpg
2103.87	1.729	1	regulate	Run3	regulate/STIM_008.jpg
2107.859	1.266	1	regulate	Run3	regulate/STIM_009.jpg
2111.673	2.598	1	regulate	Run3	regulate/STIM_009.jpg
2117.736	1.764	1	regulate	Run3	regulate/STIM_009.jpg
2121.964	1.251	1	regulate	Run3	regulate/STIM_009.jpg
2125.074	1.716	1	regulate	Run3	regulate/STIM_010.jpg
2129.069	1.417	1	regulate	Run3	regulate/STIM_010.jpg
2133.914	1.607	1	regulate	Run3	regulate/STIM_010.jpg
2137.53	2.358	1	regulate	Run3	regulate/STIM_010.jpg
2143.057	1.91	1	regulate	Run3	regulate/STIM_011.jpg
2146.732	1.52	1	regulate	Run3	regulate/STIM_011.jpg
2151.174	2.767	1	regulate	Run3	regulate/STIM_011.jpg
2156.553	1.861	1	regulate	Run3	regulate/STIM_011.jpg
2160.953	2.03	1	regulate	Run3	regulate/STIM_012.jpg
2166.288	2.625	1	regulate	Run3	regulate/STIM_012.jpg
2172.387	1.382	1	regulate	Run3	regulate/STIM_012.jpg
2175.877	1.879	1	regulate	Run3	regulate/STIM_012.jpg
2180.354	1.413	0	regulate	Run3	regulate/STIM_013.jpg
2183.749	1.313	1	regulate	Run3	regulate/STIM_013.jpg
2188.235	1.501	1	regulate	Run3	regulate/STIM_013.jpg
2191.958	2.376	1	regulate	Run3	regulate/STIM_013.jpg
2197.679	1.973	1	regulate	Run3	regulate/STIM_014.jpg
2201.499	1.36	1	regulate	Run3	regulate/STIM_014.jpg
2205.493	2.374	1	regulate	Run3	regulate/STIM_014.jpg
2210.623	2.301	1	regulate	Run3	regulate/STIM_014.jpg
2216.144	2.353	1	regulate	Run3	regulate/STIM_015.jpg
2220.671	2.705	1	regulate	Run3	regulate/STIM_015.jpg
2225.909	1.543	1	regulate	Run3	regulate/STIM_015.jpg
2230.539	2.522	0	regulate	Run3	regulate/STIM_015.jpg
2235.35	2.229	1	regulate	Run3	regulate/STIM_016.jpg
2240.168	2.531	1	regulate	Run3	regulate/STIM_016.jpg
2245.675	2.12	1	regulate	Run3	regulate/STIM_016.jpg
2251.008	2.082	1	regulate	Run3	regulate/STIM_016.jpg
2255.171	1.405	1	regulate	Run3	regulate/STIM_017.jpg
2259.661	2.399	1	regulate	Run3	regulate/STIM_017.jpg
2264.246	1.56	1	regulate	Run3	regulate/STIM_017.jpg
2268.983	1.911	1	regulate	Run3	regulate/STIM_017.jpg
2273.358	1.246	1	regulate	Run3	regulate/STIM_018.jpg
2278.031	2.31	1	regulate	Run3	regulate/STIM_018.jpg
2282.115	1.265	1	regulate	Run3	regulate/STIM_018.jpg
2286.993	1.741	1	regulate	Run3	regulate/STIM_018.jpg
2291.204	2.176	1	regulate	Run3	regulate/STIM_019.jpg
2296.257	1.278	1	regulate	Run3	regulate/STIM_019.jpg
2301.132	2.21	1	regulate	Run3	regulate/STIM_019.jpg
2306.51	1.347	0	regulate	Run3	regulate/STIM_019.jpg
2310.435	1.411	1	regulate	Run3	regulate/STIM_020.jpg
2315.501	1.95	1	regulate	Run3	regulate/STIM_020.jpg
2319.691	1.899	1	regulate	Run3	regulate/STIM_020.jpg
2323.903	2.051	1	regulate	Run3	regulate/STIM_020.jpg
2329.514	2.282	1	regulate	Run3	regulate/STIM_021.jpg
2334.96	1.516	1	regulate	Run3	regulate/STIM_021.jpg
2340.222	1.987	1	regulate	Run3	regulate/STIM_021.jpg
2345.541	1.456	1	regulate	Run3	regulate/STIM_021.jpg
2350.503	2.161	0	regulate	Run3	regulate/STIM_022.jpg
2355.237	1.566	1	regulate	Run3	regulate/STIM_022.jpg
2359.224	2.243	1	regulate	Run3	regulate/STIM_022.jpg
2364.003	2.305	1	regulate	Run3	regulate/STIM_022.jpg
2368.67	2.78	1	regulate	Run3	regulate/STIM_023.jpg
2374.386	1.505	1	regulate	Run3	regulate/STIM_023.jpg
2379.412	1.742	1	regulate	Run3	regulate/STIM_023.jpg
2384.16	1.352	1	regulate	Run3	regulate/STIM_023.jpg
2388.788	1.841	1	regulate	Run3	regulate/STIM_024.jpg
2393.845	1.836	1	regulate	Run3	regulate/STIM_024.jpg
2398.199	2.243	1	regulate	Run3	regulate/STIM_024.jpg
2402.995	2.08	1	regulate	Run3	regulate/STIM_024.jpg
2407.381	1.822	1	regulate	Run3	regulate/STIM_025.jpg
2412.552	2.331	1	regulate	Run3	regulate/STIM_025.jpg
2417.907	1.602	1	regulate	Run3	regulate/STIM_025.jpg
2422.758	1.277	1	regulate	Run3	regulate/STIM_025.jpg
2426.134	1.531	1	regulate	Run3	regulate/STIM_026.jpg
2431.201	2.091	1	regulate	Run3	regulate/STIM_026.jpg
2436.077	2.267	1	regulate	Run3	regulate/STIM_026.jpg
2440.553	1.65	1	regulate	Run3	regulate/STIM_026.jpg
2445.393	2.652	1	regulate	Run3	regulate/STIM_027.jpg
2450.179	2.467	1	regulate	Run3	regulate/STIM_027.jpg
2456.092	1.243	1	regulate	Run3	regulate/STIM_027.jpg
2459.515	1.39	1	regulate	Run3	regulate/STIM_027.jpg
2464.587	2.329	1	regulate	Run3	regulate/STIM_028.jpg
2469.682	1.716	1	regulate	Run3	regulate/STIM_028.jpg
2474.697	2.191	1	regulate	Run3	regulate/STIM_028.jpg
2478.903	2.497	1	regulate	Run3	regulate/STIM_028.jpg
2483.317	2.244	1	regulate	Run3	regulate/STIM_029.jpg
2487.847	1.704	1	regulate	Run3	regulate/STIM_029.jpg
2493.1	1.472	1	regulate	Run3	regulate/STIM_029.jpg
2497.788	1.668	1	regulate	Run3	regulate/STIM_029.jpg
2503.157	1.151	1	observe	Run3	observe/STIM_000.jpg
2506.233	1.197	1	observe	Run3	observe/STIM_000.jpg
2510.429	1.3	1	observe	Run3	observe/STIM_000.jpg
2514.946	1.026	1	observe	Run3	observe/STIM_000.jpg
2518.983	1.603	1	observe	Run3	observe/STIM_001.jpg
2523.912	1.67	1	observe	Run3	observe/STIM_001.jpg
2528.235	1.571	1	observe	Run3	observe/STIM_001.jpg
2532.639	0.944	1	observe	Run3	observe/STIM_001.jpg
2537.319	1.366	1	observe	Run3	observe/STIM_002.jpg
2542.136	1.39	1	observe	Run3	observe/STIM_002.jpg
2546.733	1.671	1	observe	Run3	observe/STIM_002.jpg
2550.719	1.135	1	observe	Run3	observe/STIM_002.jpg
2554.677	1.677	1	observe	Run3	observe/STIM_003.jpg
2558.393	1.648	0	observe	Run3	observe/STIM_003.jpg
2562.982	1.777	0	observe	Run3	observe/STIM_003.jpg
2566.739	1.729	1	observe	Run3	observe/STIM_003.jpg
2570.887	1.082	1	observe	Run3	observe/STIM_004.jpg
2574.397	1.66	1	observe	Run3	observe/STIM_004.jpg
2579.17	1.433	1	observe	Run3	observe/STIM_004.jpg
2583.871	1.813	1	observe	Run3	observe/STIM_004.jpg
2587.928	1.359	1	observe	Run3	observe/STIM_005.jpg
2592.613	0.961	1	observe	Run3	observe/STIM_005.jpg
2595.501	1.318	0	observe	Run3	observe/STIM_005.jpg
2599.282	1.381	0	observe	Run3	observe/STIM_005.jpg
2603.916	1.539	0	observe	Run3	observe/STIM_006.jpg
2608.816	1.464	1	observe	Run3	observe/STIM_006.jpg
2613.974	1.392	1	observe	Run3	observe/STIM_006.jpg
2618.465	1.252	1	observe	Run3	observe/STIM_006.jpg
2622.559	1.601	1	observe	Run3	observe/STIM_007.jpg
2626.102	1.764	1	observe	Run3	observe/STIM_007.jpg
2629.888	1.438	1	observe	Run3	observe/STIM_007.jpg
2633.238	1.622	0	observe	Run3	observe/STIM_007.jpg
2638.176	1.796	1	observe	Run3	observe/STIM_008.jpg
2642.301	0.961	1	observe	Run3	observe/STIM_008.jpg
2645.683	1.67	1	observe	Run3	observe/STIM_008.jpg
2649.553	1.671	1	observe	Run3	observe/STIM_008.jpg
2653.445	1.732	1	observe	Run3	observe/STIM_009.jpg
2657.114	1.392	1	observe	Run3	observe/STIM_009.jpg
2660.972	1.347	0	observe	Run3	observe/STIM_009.jpg
2664.322	1.74	1	observe	Run3	observe/STIM_009.jpg
2669.56	1.673	1	observe	Run3	observe/STIM_010.jpg
2674.422	1.822	0	observe	Run3	observe/STIM_010.jpg
2678.403	1.008	1	observe	Run3	observe/STIM_010.jpg
2681.455	1.783	1	observe	Run3	observe/STIM_010.jpg
2685.156	1.306	1	observe	Run3	observe/STIM_011.jpg
2689.067	1.21	1	observe	Run3	observe/STIM_011.jpg
2693.645	0.986	1	observe	Run3	observe/STIM_011.jpg
2697.5	0.959	1	observe	Run3	observe/STIM_011.jpg
2702.077	1.621	1	observe	Run3	observe/STIM_012.jpg
2706.205	1.139	1	observe	Run3	observe/STIM_012.jpg
2710.288	1.515	1	observe	Run3	observe/STIM_012.jpg
2715.099	1.793	1	observe	Run3	observe/STIM_012.jpg
2719.494	1.761	1	observe	Run3	observe/STIM_013.jpg
2724.224	1.474	1	observe	Run3	observe/STIM_013.jpg
2727.97	1.53	1	observe	Run3	observe/STIM_013.jpg
2732.302	1.618	0	observe	Run3	observe/STIM_013.jpg
2736.009	1.768	1	observe	Run3	observe/STIM_014.jpg
2740.079	1.177	0	observe	Run3	observe/STIM_014.jpg
2745.056	1.64	1	observe	Run3	observe/STIM_014.jpg
2749.511	1.618	1	observe	Run3	observe/STIM_014.jpg
2753.897	1.221	1	observe	Run3	observe/STIM_015.jpg
2757.949	0.948	1	observe	Run3	observe/STIM_015.jpg
2760.854	1.44	1	observe	Run3	observe/STIM_015.jpg
2765.285	1.672	1	observe	Run3	observe/STIM_015.jpg
2769.228	1.404	0	observe	Run3	observe/STIM_016.jpg
2772.667	1.437	1	observe	Run3	observe/STIM_016.jpg
2777.809	1.107	1	observe	Run3	observe/STIM_016.jpg
2782.521	1.29	1	observe	Run3	observe/STIM_016.jpg
2786.172	1.473	1	observe	Run3	observe/STIM_017.jpg
2790.405	0.941	1	observe	Run3	observe/STIM_017.jpg
2793.569	1.097	1	observe	Run3	observe/STIM_017.jpg
2798.019	1.483	1	observe	Run3	observe/STIM_017.jpg
2802.782	1.705	1	observe	Run3	observe/STIM_018.jpg
2808.224	1.124	1	observe	Run3	observe/STIM_018.jpg
2812.459	1.582	1	observe	Run3	observe/STIM_018.jpg
2817.61	1.825	0	observe	Run3	observe/STIM_018.jpg
2822.585	1.174	1	observe	Run3	observe/STIM_019.jpg
2827.117	1.72	1	observe	Run3	observe/STIM_019.jpg
2832.025	1.594	1	observe	Run3	observe/STIM_019.jpg
2836.854	1.207	0	observe	Run3	observe/STIM_019.jpg
