onset	duration	accuracy_binary	trial_type	learning_stage	stimulus
0.0	1.928	1	regulate	Run1	regulate/STIM_000.jpg
5.386	3.157	1	regulate	Run1	regulate/STIM_000.jpg
11.833	1.929	1	regulate	Run1	regulate/STIM_000.jpg
17.351	3.007	1	regulate	Run1	regulate/STIM_000.jpg
24.319	2.722	1	regulate	Run1	regulate/STIM_001.jpg
30.778	3.1	1	regulate	Run1	regulate/STIM_001.jpg
37.378	3.057	1	regulate	Run1	regulate/STIM_001.jpg
42.63	1.917	1	regulate	Run1	regulate/STIM_001.jpg
46.681	3.249	1	regulate	Run1	regulate/STIM_002.jpg
53.433	2.88	1	regulate	Run1	regulate/STIM_002.jpg
58.614	1.896	1	regulate	Run1	regulate/STIM_002.jpg
62.561	2.636	1	regulate	Run1	regulate/STIM_002.jpg
68.83	3.357	1	regulate	Run1	regulate/STIM_003.jpg
75.441	2.204	1	regulate	Run1	regulate/STIM_003.jpg
80.661	1.584	1	regulate	Run1	regulate/STIM_003.jpg
86.044	2.758	1	regulate	Run1	regulate/STIM_003.jpg
91.532	1.892	1	regulate	Run1	regulate/STIM_004.jpg
96.658	2.658	1	regulate	Run1	regulate/STIM_004.jpg
101.753	1.62	1	regulate	Run1	regulate/STIM_004.jpg
105.479	1.496	1	regulate	Run1	regulate/STIM_004.jpg
110.217	2.498	1	regulate	Run1	regulate/STIM_005.jpg
115.757	2.742	0	regulate	Run1	regulate/STIM_005.jpg
120.616	1.937	1	regulate	Run1	regulate/STIM_005.jpg
126.208	1.604	1	regulate	Run1	regulate/STIM_005.jpg
131.6	1.705	1	regulate	Run1	regulate/STIM_006.jpg
136.202	2.748	1	regulate	Run1	regulate/STIM_006.jpg
142.003	2.948	1	regulate	Run1	regulate/STIM_006.jpg
147.603	2.541	1	regulate	Run1	regulate/STIM_006.jpg
152.464	2.504	0	regulate	Run1	regulate/STIM_007.jpg
158.033	2.797	1	regulate	Run1	regulate/STIM_007.jpg
163.743	2.184	1	regulate	Run1	regulate/STIM_007.jpg
167.934	1.99	1	regulate	Run1	regulate/STIM_007.jpg
173.798	2.302	1	regulate	Run1	regulate/STIM_008.jpg
179.064	2.834	0	regulate	Run1	regulate/STIM_008.jpg
184.411	2.494	1	regulate	Run1	regulate/STIM_008.jpg
190.466	2.495	1	regulate	Run1	regulate/STIM_008.jpg
195.465	1.886	1	regulate	Run1	regulate/STIM_009.jpg
200.596	3.071	1	regulate	Run1	regulate/STIM_009.jpg
207.186	2.396	1	regulate	Run1	regulate/STIM_009.jpg
213.361	2.015	1	regulate	Run1	regulate/STIM_009.jpg
218.906	1.831	1	regulate	Run1	regulate/STIM_010.jpg
224.676	2.387	1	regulate	Run1	regulate/STIM_010.jpg
230.809	1.998	1	regulate	Run1	regulate/STIM_010.jpg
236.207	1.6	1	regulate	Run1	regulate/STIM_010.jpg
240.93	2.669	1	regulate	Run1	regulate/STIM_011.jpg
247.007	1.922	1	regulate	Run1	regulate/STIM_011.jpg
251.394	1.457	1	regulate	Run1	regulate/STIM_011.jpg
256.049	2.18	1	regulate	Run1	regulate/STIM_011.jpg
261.809	2.36	1	regulate	Run1	regulate/STIM_012.jpg
266.582	2.781	1	regulate	Run1	regulate/STIM_012.jpg
272.239	1.801	1	regulate	Run1	regulate/STIM_012.jpg
277.635	1.769	1	regulate	Run1	regulate/STIM_012.jpg
283.238	2.132	1	regulate	Run1	regulate/STIM_013.jpg
288.307	2.288	1	regulate	Run1	regulate/STIM_013.jpg
293.727	2.267	1	regulate	Run1	regulate/STIM_013.jpg
298.334	2.529	1	regulate	Run1	regulate/STIM_013.jpg
303.38	2.734	1	regulate	Run1	regulate/STIM_014.jpg
309.468	2.69	1	regulate	Run1	regulate/STIM_014.jpg
315.028	2.262	1	regulate	Run1	regulate/STIM_014.jpg
319.943	1.45	1	regulate	Run1	regulate/STIM_014.jpg
323.407	1.71	1	regulate	Run1	regulate/STIM_015.jpg
327.44	2.968	1	regulate	Run1	regulate/STIM_015.jpg
334.374	2.022	1	regulate	Run1	regulate/STIM_015.jpg
339.176	2.92	1	regulate	Run1	regulate/STIM_015.jpg
345.953	1.887	1	regulate	Run1	regulate/STIM_016.jpg
351.494	2.453	1	regulate	Run1	regulate/STIM_016.jpg
357.368	2.403	1	regulate	Run1	regulate/STIM_016.jpg
362.526	2.275	1	regulate	Run1	regulate/STIM_016.jpg
366.922	1.928	1	regulate	Run1	regulate/STIM_017.jpg
371.09	2.261	1	regulate	Run1	regulate/STIM_017.jpg
376.141	2.235	1	regulate	Run1	regulate/STIM_017.jpg
380.947	2.013	1	regulate	Run1	regulate/STIM_017.jpg
385.295	2.786	1	regulate	Run1	regulate/STIM_018.jpg
390.793	2.431	1	regulate	Run1	regulate/STIM_018.jpg
396.947	3.172	1	regulate	Run1	regulate/STIM_018.jpg
403.072	1.604	1	regulate	Run1	regulate/STIM_018.jpg
406.818	2.104	0	regulate	Run1	regulate/STIM_019.jpg
412.813	1.959	1	regulate	Run1	regulate/STIM_019.jpg
417.58	3.116	1	regulate	Run1	regulate/STIM_019.jpg
424.571	2.079	1	regulate	Run1	regulate/STIM_019.jpg
429.124	2.415	1	regulate	Run1	regulate/STIM_020.jpg
434.295	2.77	1	regulate	Run1	regulate/STIM_020.jpg
440.403	1.874	1	regulate	Run1	regulate/STIM_020.jpg
445.062	2.76	1	regulate	Run1	regulate/STIM_020.jpg
451.513	2.152	1	regulate	Run1	regulate/STIM_021.jpg
455.892	1.592	1	regulate	Run1	regulate/STIM_021.jpg
459.874	2.857	1	regulate	Run1	regulate/STIM_021.jpg
465.468	2.165	1	regulate	Run1	regulate/STIM_021.jpg
469.985	1.725	1	regulate	Run1	regulate/STIM_022.jpg
474.326	2.69	1	regulate	Run1	regulate/STIM_022.jpg
480.187	2.025	1	regulate	Run1	regulate/STIM_022.jpg
485.277	1.39	1	regulate	Run1	regulate/STIM_022.jpg
489.581	3.424	1	regulate	Run1	regulate/STIM_023.jpg
495.554	3.253	1	regulate	Run1	regulate/STIM_023.jpg
501.997	2.488	1	regulate	Run1	regulate/STIM_023.jpg
507.783	2.96	1	regulate	Run1	regulate/STIM_023.jpg
512.941	1.703	1	regulate	Run1	regulate/STIM_024.jpg
517.053	2.552	1	regulate	Run1	regulate/STIM_024.jpg
521.732	1.839	1	regulate	Run1	regulate/STIM_024.jpg
525.909	2.246	1	regulate	Run1	regulate/STIM_024.jpg
530.934	2.298	1	regulate	Run1	regulate/STIM_025.jpg
536.614	2.512	1	regulate	Run1	regulate/STIM_025.jpg
543.069	2.378	1	regulate	Run1	regulate/STIM_025.jpg
549.432	2.927	1	regulate	Run1	regulate/STIM_025.jpg
555.664	1.572	1	regulate	Run1	regulate/STIM_026.jpg
561.069	2.988	1	regulate	Run1	regulate/STIM_026.jpg
567.378	1.704	1	regulate	Run1	regulate/STIM_026.jpg
573.049	2.197	1	regulate	Run1	regulate/STIM_026.jpg
578.962	2.43	1	regulate	Run1	regulate/STIM_027.jpg
584.28	1.495	1	regulate	Run1	regulate/STIM_027.jpg
589.102	2.902	1	regulate	Run1	regulate/STIM_027.jpg
594.267	1.971	1	regulate	Run1	regulate/STIM_027.jpg
599.798	2.571	1	regulate	Run1	regulate/STIM_028.jpg
606.142	2.433	1	regulate	Run1	regulate/STIM_028.jpg
612.244	2.447	0	regulate	Run1	regulate/STIM_028.jpg
617.322	2.271	1	regulate	Run1	regulate/STIM_028.jpg
622.706	2.749	1	regulate	Run1	regulate/STIM_029.jpg
627.538	3.313	1	regulate	Run1	regulate/STIM_029.jpg
633.634	3.066	1	regulate	Run1	regulate/STIM_029.jpg
639.429	1.746	0	regulate	Run1	regulate/STIM_029.jpg
643.958	1.133	1	observe	Run1	observe/STIM_000.jpg
648.013	1.509	1	observe	Run1	observe/STIM_000.jpg
652.396	0.869	1	observe	Run1	observe/STIM_000.jpg
657.016	1.556	1	observe	Run1	observe/STIM_000.jpg
661.753	1.285	1	observe	Run1	observe/STIM_001.jpg
665.733	1.028	1	observe	Run1	observe/STIM_001.jpg
668.796	0.82	1	observe	Run1	observe/STIM_001.jpg
672.591	1.379	1	observe	Run1	observe/STIM_001.jpg
677.346	1.495	1	observe	Run1	observe/STIM_002.jpg
681.088	1.225	1	observe	Run1	observe/STIM_002.jpg
684.983	1.422	1	observe	Run1	observe/STIM_002.jpg
688.545	0.826	1	observe	Run1	observe/STIM_002.jpg
691.562	1.415	1	observe	Run1	observe/STIM_003.jpg
696.016	1.592	1	observe	Run1	observe/STIM_003.jpg
700.524	1.235	1	observe	Run1	observe/STIM_003.jpg
704.44	1.029	1	observe	Run1	observe/STIM_003.jpg
707.614	1.324	1	observe	Run1	observe/STIM_004.jpg
712.471	1.021	1	observe	Run1	observe/STIM_004.jpg
716.281	1.154	1	observe	Run1	observe/STIM_004.jpg
719.733	0.929	1	observe	Run1	observe/STIM_004.jpg
724.589	1.452	1	observe	Run1	observe/STIM_005.jpg
728.535	1.15	1	observe	Run1	observe/STIM_005.jpg
732.548	0.81	1	observe	Run1	observe/STIM_005.jpg
737.126	1.491	1	observe	Run1	observe/STIM_005.jpg
742.399	1.264	1	observe	Run1	observe/STIM_006.jpg
746.011	1.469	1	observe	Run1	observe/STIM_006.jpg
750.875	0.824	1	observe	Run1	observe/STIM_006.jpg
755.663	0.831	1	observe	Run1	observe/STIM_006.jpg
759.241	1.426	1	observe	Run1	observe/STIM_007.jpg
763.007	1.18	1	observe	Run1	observe/STIM_007.jpg
767.858	0.967	0	observe	Run1	observe/STIM_007.jpg
770.956	1.48	1	observe	Run1	observe/STIM_007.jpg
774.804	1.374	1	observe	Run1	observe/STIM_008.jpg
778.483	1.214	1	observe	Run1	observe/STIM_008.jpg
783.655	1.427	1	observe	Run1	observe/STIM_008.jpg
787.618	0.886	1	observe	Run1	observe/STIM_008.jpg
792.167	1.502	0	observe	Run1	observe/STIM_009.jpg
796.675	1.183	1	observe	Run1	observe/STIM_009.jpg
800.36	0.887	1	observe	Run1	observe/STIM_009.jpg
804.998	1.486	1	observe	Run1	observe/STIM_009.jpg
810.466	1.241	1	observe	Run1	observe/STIM_010.jpg
813.958	1.26	1	observe	Run1	observe/STIM_010.jpg
818.476	1.47	1	observe	Run1	observe/STIM_010.jpg
823.379	1.2	1	observe	Run1	observe/STIM_010.jpg
826.884	1.512	1	observe	Run1	observe/STIM_011.jpg
831.16	1.179	1	observe	Run1	observe/STIM_011.jpg
835.614	1.174	1	observe	Run1	observe/STIM_011.jpg
840.714	1.616	1	observe	Run1	observe/STIM_011.jpg
845.342	1.395	1	observe	Run1	observe/STIM_012.jpg
850.202	1.296	1	observe	Run1	observe/STIM_012.jpg
855.173	0.865	1	observe	Run1	observe/STIM_012.jpg
858.444	1.382	1	observe	Run1	observe/STIM_012.jpg
863.42	0.876	1	observe	Run1	observe/STIM_013.jpg
866.306	0.96	1	observe	Run1	observe/STIM_013.jpg
870.53	1.494	1	observe	Run1	observe/STIM_013.jpg
874.781	0.814	0	observe	Run1	observe/STIM_013.jpg
877.596	0.846	1	observe	Run1	observe/STIM_014.jpg
880.945	1.214	1	observe	Run1	observe/STIM_014.jpg
884.512	1.434	1	observe	Run1	observe/STIM_014.jpg
888.58	1.235	1	observe	Run1	observe/STIM_014.jpg
893.604	1.552	1	observe	Run1	observe/STIM_015.jpg
898.24	1.383	1	observe	Run1	observe/STIM_015.jpg
901.753	1.252	1	observe	Run1	observe/STIM_015.jpg
906.988	0.996	1	observe	Run1	observe/STIM_015.jpg
911.471	1.057	1	observe	Run1	observe/STIM_016.jpg
915.668	0.98	1	observe	Run1	observe/STIM_016.jpg
919.055	1.026	1	observe	Run1	observe/STIM_016.jpg
923.629	1.411	1	observe	Run1	observe/STIM_016.jpg
927.343	1.325	1	observe	Run1	observe/STIM_017.jpg
932.317	1.024	1	observe	Run1	observe/STIM_017.jpg
937.014	1.214	1	observe	Run1	observe/STIM_017.jpg
941.128	0.935	1	observe	Run1	observe/STIM_017.jpg
944.318	1.227	1	observe	Run1	observe/STIM_018.jpg
948.963	1.401	1	observe	Run1	observe/STIM_018.jpg
954.183	0.892	1	observe	Run1	observe/STIM_018.jpg
957.315	1.094	1	observe	Run1	observe/STIM_018.jpg
961.833	0.852	1	observe	Run1	observe/STIM_019.jpg
965.381	1.339	1	observe	Run1	observe/STIM_019.jpg
968.752	1.447	1	observe	Run1	observe/STIM_019.jpg
972.344	1.344	1	observe	Run1	observe/STIM_019.jpg
977.12	1.652	1	regulate	Run2	regulate/STIM_000.jpg
982.039	2.462	1	regulate	Run2	regulate/STIM_000.jpg
988.125	1.888	1	regulate	Run2	regulate/STIM_000.jpg
993.209	1.524	1	regulate	Run2	regulate/STIM_000.jpg
998.203	1.481	1	regulate	Run2	regulate/STIM_001.jpg
1002.99	1.764	1	regulate	Run2	regulate/STIM_001.jpg
1008.241	1.532	0	regulate	Run2	regulate/STIM_001.jpg
1013.535	1.862	1	regulate	Run2	regulate/STIM_001.jpg
1017.704	1.978	1	regulate	Run2	regulate/STIM_002.jpg
1023.298	1.47	1	regulate	Run2	regulate/STIM_002.jpg
1028.738	2.087	1	regulate	Run2	regulate/STIM_002.jpg
1033.494	2.26	1	regulate	Run2	regulate/STIM_002.jpg
1039.187	1.488	1	regulate	Run2	regulate/STIM_003.jpg
1042.982	1.484	1	regulate	Run2	regulate/STIM_003.jpg
1047.798	1.7	1	regulate	Run2	regulate/STIM_003.jpg
1052.583	2.353	1	regulate	Run2	regulate/STIM_003.jpg
1058.032	2.155	1	regulate	Run2	regulate/STIM_004.jpg
1063.481	1.63	1	regulate	Run2	regulate/STIM_004.jpg
1068.194	1.678	1	regulate	Run2	regulate/STIM_004.jpg
1072.431	1.099	1	regulate	Run2	regulate/STIM_004.jpg
1075.889	1.714	1	regulate	Run2	regulate/STIM_005.jpg
1080.622	1.891	1	regulate	Run2	regulate/STIM_005.jpg
1086.506	1.383	1	regulate	Run2	regulate/STIM_005.jpg
1091.096	1.097	1	regulate	Run2	regulate/STIM_005.jpg
1095.326	1.952	1	regulate	Run2	regulate/STIM_006.jpg
1099.466	1.448	1	regulate	Run2	regulate/STIM_006.jpg
1103.488	1.843	1	regulate	Run2	regulate/STIM_006.jpg
1109.182	1.956	1	regulate	Run2	regulate/STIM_006.jpg
1114.929	2.711	1	regulate	Run2	regulate/STIM_007.jpg
1121.257	2.514	1	regulate	Run2	regulate/STIM_007.jpg
1125.916	1.491	1	regulate	Run2	regulate/STIM_007.jpg
1131.225	1.722	1	regulate	Run2	regulate/STIM_007.jpg
1136.621	2.209	1	regulate	Run2	regulate/STIM_008.jpg
1141.105	1.272	0	regulate	Run2	regulate/STIM_008.jpg
1146.375	2.22	1	regulate	Run2	regulate/STIM_008.jpg
1152.36	2.428	1	regulate	Run2	regulate/STIM_008.jpg
1157.25	2.976	1	regulate	Run2	regulate/STIM_009.jpg
1163.107	2.201	1	regulate	Run2	regulate/STIM_009.jpg
1168.471	2.47	1	regulate	Run2	regulate/STIM_009.jpg
1174.81	2.416	1	regulate	Run2	regulate/STIM_009.jpg
1181.117	2.99	1	regulate	Run2	regulate/STIM_010.jpg
1186.777	2.19	1	regulate	Run2	regulate/STIM_010.jpg
1191.009	1.832	1	regulate	Run2	regulate/STIM_010.jpg
1196.477	1.113	1	regulate	Run2	regulate/STIM_010.jpg
1200.621	1.44	1	regulate	Run2	regulate/STIM_011.jpg
1204.239	1.638	1	regulate	Run2	regulate/STIM_011.jpg
1208.076	2.442	1	regulate	Run2	regulate/STIM_011.jpg
1213.155	1.364	1	regulate	Run2	regulate/STIM_011.jpg
1218.259	1.366	1	regulate	Run2	regulate/STIM_012.jpg
1222.764	1.489	1	regulate	Run2	regulate/STIM_012.jpg
1227.413	2.03	1	regulate	Run2	regulate/STIM_012.jpg
1233.017	2.373	1	regulate	Run2	regulate/STIM_012.jpg
1238.508	1.726	1	regulate	Run2	regulate/STIM_013.jpg
1243.51	2.475	1	regulate	Run2	regulate/STIM_013.jpg
1249.029	1.66	1	regulate	Run2	regulate/STIM_013.jpg
1254.306	1.459	1	regulate	Run2	regulate/STIM_013.jpg
1258.31	2.147	1	regulate	Run2	regulate/STIM_014.jpg
1263.907	2.664	1	regulate	Run2	regulate/STIM_014.jpg
1269.782	1.93	1	regulate	Run2	regulate/STIM_014.jpg
1275.449	1.667	1	regulate	Run2	regulate/STIM_014.jpg
1279.241	1.696	1	regulate	Run2	regulate/STIM_015.jpg
1284.546	1.784	1	regulate	Run2	regulate/STIM_015.jpg
1288.664	2.236	1	regulate	Run2	regulate/STIM_015.jpg
1293.265	1.877	1	regulate	Run2	regulate/STIM_015.jpg
1299.05	2.359	1	regulate	Run2	regulate/STIM_016.jpg
1304.68	2.58	1	regulate	Run2	regulate/STIM_016.jpg
1310.83	1.219	1	regulate	Run2	regulate/STIM_016.jpg
1315.315	1.622	1	regulate	Run2	regulate/STIM_016.jpg
1319.4	2.55	1	regulate	Run2	regulate/STIM_017.jpg
1324.395	1.401	1	regulate	Run2	regulate/STIM_017.jpg
1329.0	2.197	1	regulate	Run2	regulate/STIM_017.jpg
1333.316	1.087	1	regulate	Run2	regulate/STIM_017.jpg
1338.231	2.27	1	regulate	Run2	regulate/STIM_018.jpg
1344.231	1.561	0	regulate	Run2	regulate/STIM_018.jpg
1348.41	1.513	1	regulate	Run2	regulate/STIM_018.jpg
1352.67	1.418	1	regulate	Run2	regulate/STIM_018.jpg
1357.677	1.295	1	regulate	Run2	regulate/STIM_019.jpg
1362.679	1.411	1	regulate	Run2	regulate/STIM_019.jpg
1366.407	2.157	1	regulate	Run2	regulate/STIM_019.jpg
1370.956	1.404	1	regulate	Run2	regulate/STIM_019.jpg
1375.171	2.574	1	regulate	Run2	regulate/STIM_020.jpg
1380.823	1.823	1	regulate	Run2	regulate/STIM_020.jpg
1385.686	1.244	1	regulate	Run2	regulate/STIM_020.jpg
1390.439	2.023	1	regulate	Run2	regulate/STIM_020.jpg
1396.077	2.061	1	regulate	Run2	regulate/STIM_021.jpg
1401.552	1.752	1	regulate	Run2	regulate/STIM_021.jpg
1406.807	2.246	1	regulate	Run2	regulate/STIM_021.jpg
1411.315	1.158	1	regulate	Run2	regulate/STIM_021.jpg
1415.502	2.482	1	regulate	Run2	regulate/STIM_022.jpg
1420.018	2.802	1	regulate	Run2	regulate/STIM_022.jpg
1426.366	2.058	1	regulate	Run2	regulate/STIM_022.jpg
1432.339	1.835	1	regulate	Run2	regulate/STIM_022.jpg
1437.649	2.527	1	regulate	Run2	regulate/STIM_023.jpg
1442.986	1.228	1	regulate	Run2	regulate/STIM_023.jpg
1447.294	1.228	1	regulate	Run2	regulate/STIM_023.jpg
1451.918	2.026	1	regulate	Run2	regulate/STIM_023.jpg
1456.375	2.765	1	regulate	Run2	regulate/STIM_024.jpg
1462.459	2.439	1	regulate	Run2	regulate/STIM_024.jpg
1468.284	1.824	1	regulate	Run2	regulate/STIM_024.jpg
1473.868	2.405	1	regulate	Run2	regulate/STIM_024.jpg
1479.496	1.978	1	regulate	Run2	regulate/STIM_025.jpg
1485.462	2.075	1	regulate	Run2	regulate/STIM_025.jpg
1490.197	2.549	1	regulate	Run2	regulate/STIM_025.jpg
1495.206	2.43	1	regulate	Run2	regulate/STIM_025.jpg
1500.137	1.379	1	regulate	Run2	regulate/STIM_026.jpg
1505.489	2.55	1	regulate	Run2	regulate/STIM_026.jpg
1511.978	1.258	1	regulate	Run2	regulate/STIM_026.jpg
1517.029	1.45	1	regulate	Run2	regulate/STIM_026.jpg
1521.132	2.337	1	regulate	Run2	regulate/STIM_027.jpg
1526.353	2.573	1	regulate	Run2	regulate/STIM_027.jpg
1531.574	2.389	1	regulate	Run2	regulate/STIM_027.jpg
1536.331	1.161	1	regulate	Run2	regulate/STIM_027.jpg
1541.165	1.453	1	regulate	Run2	regulate/STIM_028.jpg
1545.089	2.779	1	regulate	Run2	regulate/STIM_028.jpg
1551.673	1.263	1	regulate	Run2	regulate/STIM_028.jpg
1556.459	1.867	1	regulate	Run2	regulate/STIM_028.jpg
1561.008	2.617	0	regulate	Run2	regulate/STIM_029.jpg
1565.807	2.818	1	regulate	Run2	regulate/STIM_029.jpg
1571.197	1.598	0	regulate	Run2	regulate/STIM_029.jpg
1574.853	2.148	1	regulate	Run2	regulate/STIM_029.jpg
1580.823	1.534	1	observe	Run2	observe/STIM_000.jpg
1586.26	1.105	1	observe	Run2	observe/STIM_000.jpg
1590.7	1.407	1	observe	Run2	observe/STIM_000.jpg
1595.787	1.5	1	observe	Run2	observe/STIM_000.jpg
1599.289	0.875	1	observe	Run2	observe/STIM_001.jpg
1604.076	1.134	1	observe	Run2	observe/STIM_001.jpg
1609.101	0.996	1	observe	Run2	observe/STIM_001.jpg
1612.668	1.414	1	observe	Run2	observe/STIM_001.jpg
1617.404	0.925	1	observe	Run2	observe/STIM_002.jpg
1620.85	1.0	1	observe	Run2	observe/STIM_002.jpg
1625.379	1.308	1	observe	Run2	observe/STIM_002.jpg
1630.322	1.413	1	observe	Run2	observe/STIM_002.jpg
1634.716	0.846	1	observe	Run2	observe/STIM_003.jpg
1639.353	0.916	1	observe	Run2	observe/STIM_003.jpg
1643.04	1.241	1	observe	Run2	observe/STIM_003.jpg
1648.125	1.502	1	observe	Run2	observe/STIM_003.jpg
1652.166	0.822	1	observe	Run2	observe/STIM_004.jpg
1656.174	1.052	1	observe	Run2	observe/STIM_004.jpg
1660.843	1.384	1	observe	Run2	observe/STIM_004.jpg
1664.39	0.912	1	observe	Run2	observe/STIM_004.jpg
1668.312	1.376	1	observe	Run2	observe/STIM_005.jpg
1672.289	1.191	1	observe	Run2	observe/STIM_005.jpg
1676.889	1.59	1	observe	Run2	observe/STIM_005.jpg
1680.872	1.371	1	observe	Run2	observe/STIM_005.jpg
1684.785	0.949	1	observe	Run2	observe/STIM_006.jpg
1688.019	1.465	1	observe	Run2	observe/STIM_006.jpg
1692.189	1.173	1	observe	Run2	observe/STIM_006.jpg
1696.708	1.03	1	observe	Run2	observe/STIM_006.jpg
1700.773	1.257	1	observe	Run2	observe/STIM_007.jpg
1704.802	0.866	1	observe	Run2	observe/STIM_007.jpg
1708.121	1.286	1	observe	Run2	observe/STIM_007.jpg
1711.64	1.132	1	observe	Run2	observe/STIM_007.jpg
1714.975	1.185	1	observe	Run2	observe/STIM_008.jpg
1718.473	1.01	1	observe	Run2	observe/STIM_008.jpg
1723.114	1.233	1	observe	Run2	observe/STIM_008.jpg
1726.778	1.147	1	observe	Run2	observe/STIM_008.jpg
1730.201	1.016	0	observe	Run2	observe/STIM_009.jpg
1733.315	1.098	1	observe	Run2	observe/STIM_009.jpg
1737.014	0.964	1	observe	Run2	observe/STIM_009.jpg
1740.24	1.016	1	observe	Run2	observe/STIM_009.jpg
1744.171	1.411	1	observe	Run2	observe/STIM_010.jpg
1749.183	0.893	1	observe	Run2	observe/STIM_010.jpg
1752.154	0.926	1	observe	Run2	observe/STIM_010.jpg
1756.081	1.175	1	observe	Run2	observe/STIM_010.jpg
1759.835	1.076	0	observe	Run2	observe/STIM_011.jpg
1763.685	1.319	1	observe	Run2	observe/STIM_011.jpg
1767.195	0.972	1	observe	Run2	observe/STIM_011.jpg
1771.604	1.121	1	observe	Run2	observe/STIM_011.jpg
1774.991	1.038	1	observe	Run2	observe/STIM_012.jpg
1779.469	1.294	1	observe	Run2	observe/STIM_012.jpg
1784.067	1.315	1	observe	Run2	observe/STIM_012.jpg
1787.382	0.822	1	observe	Run2	observe/STIM_012.jpg
1790.981	1.196	1	observe	Run2	observe/STIM_013.jpg
1794.442	1.187	1	observe	Run2	observe/STIM_013.jpg
1797.799	0.904	1	observe	Run2	observe/STIM_013.jpg
1800.852	1.254	1	observe	Run2	observe/STIM_013.jpg
1805.328	1.504	1	observe	Run2	observe/STIM_014.jpg
1809.326	0.93	1	observe	Run2	observe/STIM_014.jpg
1812.874	1.292	1	observe	Run2	observe/STIM_014.jpg
1817.33	0.953	1	observe	Run2	observe/STIM_014.jpg
1820.982	1.454	1	observe	Run2	observe/STIM_015.jpg
1825.769	0.962	1	observe	Run2	observe/STIM_015.jpg
1829.962	1.528	1	observe	Run2	observe/STIM_015.jpg
1834.053	1.151	1	observe	Run2	observe/STIM_015.jpg
1839.036	1.461	1	observe	Run2	observe/STIM_016.jpg
1843.773	1.194	1	observe	Run2	observe/STIM_016.jpg
1848.16	1.424	1	observe	Run2	observe/STIM_016.jpg
1851.838	1.464	1	observe	Run2	observe/STIM_016.jpg
1856.323	1.614	1	observe	Run2	observe/STIM_017.jpg
1860.901	1.263	1	observe	Run2	observe/STIM_017.jpg
1864.416	1.211	1	observe	Run2	observe/STIM_017.jpg
1869.473	0.828	1	observe	Run2	observe/STIM_017.jpg
1873.091	1.288	1	observe	Run2	observe/STIM_018.jpg
1876.444	0.842	1	observe	Run2	observe/STIM_018.jpg
1881.136	1.616	0	observe	Run2	observe/STIM_018.jpg
1886.39	0.918	1	observe	Run2	observe/STIM_018.jpg
1889.445	1.45	1	observe	Run2	observe/STIM_019.jpg
1893.791	1.534	1	observe	Run2	observe/STIM_019.jpg
1897.867	1.02	1	observe	Run2	observe/STIM_019.jpg
1901.013	1.031	1	observe	Run2	observe/STIM_019.jpg
1905.808	1.139	1	regulate	Run3	regulate/STIM_000.jpg
1909.115	2.18	1	regulate	Run3	regulate/STIM_000.jpg
1914.852	1.246	1	regulate	Run3	regulate/STIM_000.jpg
1919.092	1.96	1	regulate	Run3	regulate/STIM_000.jpg
1923.711	1.54	1	regulate	Run3	regulate/STIM_001.jpg
1927.396	1.432	1	regulate	Run3	regulate/STIM_001.jpg
1932.502	2.052	1	regulate	Run3	regulate/STIM_001.jpg
1937.581	2.046	1	regulate	Run3	regulate/STIM_001.jpg
1943.125	1.75	1	regulate	Run3	regulate/STIM_002.jpg
1948.039	2.035	1	regulate	Run3	regulate/STIM_002.jpg
1952.978	1.713	1	regulate	Run3	regulate/STIM_002.jpg
1957.186	1.292	1	regulate	Run3	regulate/STIM_002.jpg
1961.084	1.225	1	regulate	Run3	regulate/STIM_003.jpg
1965.059	1.626	1	regulate	Run3	regulate/STIM_003.jpg
1969.036	1.936	1	regulate	Run3	regulate/STIM_003.jpg
1973.899	2.092	1	regulate	Run3	regulate/STIM_003.jpg
1978.194	2.333	1	regulate	Run3	regulate/STIM_004.jpg
1983.425	2.143	1	regulate	Run3	regulate/STIM_004.jpg
1989.463	1.773	1	regulate	Run3	regulate/STIM_004.jpg
1994.244	2.239	1	regulate	Run3	regulate/STIM_004.jpg
1999.015	2.31	1	regulate	Run3	regulate/STIM_005.jpg
2004.799	1.835	1	regulate	Run3	regulate/STIM_005.jpg
2010.511	1.475	1	regulate	Run3	regulate/STIM_005.jpg
2014.223	1.528	1	regulate	Run3	regulate/STIM_005.jpg
2019.642	2.167	1	regulate	Run3	regulate/STIM_006.jpg
2024.542	2.378	1	regulate	Run3	regulate/STIM_006.jpg
2029.839	2.412	1	regulate	Run3	regulate/STIM_006.jpg
2034.349	2.279	1	regulate	Run3	regulate/STIM_006.jpg
2038.732	2.396	1	regulate	Run3	regulate/STIM_007.jpg
2043.298	1.985	1	regulate	Run3	regulate/STIM_007.jpg
2048.265	1.099	1	regulate	Run3	regulate/STIM_007.jpg
2051.631	1.655	1	regulate	Run3	regulate/STIM_007.jpg
2057.226	1.474	1	regulate	Run3	regulate/STIM_008.jpg
2060.74	1.489	1	regulate	Run3	regulate/STIM_008.jpg
2065.684	1.974	1	regulate	Run3	regulate/STIM_008.jpg
2071.612	1.113	1	regulate	Run3	regulate/STIM_008.jpg
2076.239	1.593	1	regulate	Run3	regulate/STIM_009.jpg
2081.075	1.158	1	regulate	Run3	regulate/STIM_009.jpg
2084.707	1.657	1	regulate	Run3	regulate/STIM_009.jpg
2089.265	2.209	1	regulate	Run3	regulate/STIM_009.jpg
2093.795	2.003	1	regulate	Run3	regulate/STIM_010.jpg
2098.455	1.181	1	regulate	Run3	regulate/STIM_010.jpg
2101.752	1.426	1	regulate	Run3	regulate/STIM_010.jpg
2105.625	1.347	1	regulate	Run3	regulate/STIM_010.jpg
2110.781	2.022	1	regulate	Run3	regulate/STIM_011.jpg
2115.573	1.532	1	regulate	Run3	regulate/STIM_011.jpg
2119.189	1.064	1	regulate	Run3	regulate/STIM_011.jpg
2122.287	2.476	1	regulate	Run3	regulate/STIM_011.jpg
2127.349	1.616	1	regulate	Run3	regulate/STIM_012.jpg
2132.689	2.275	1	regulate	Run3	regulate/STIM_012.jpg
2137.764	1.791	1	regulate	Run3	regulate/STIM_012.jpg
2143.435	1.825	1	regulate	Run3	regulate/STIM_012.jpg
2147.75	1.942	1	regulate	Run3	regulate/STIM_013.jpg
2153.672	1.348	1	regulate	Run3	regulate/STIM_013.jpg
2157.814	1.171	1	regulate	Run3	regulate/STIM_013.jpg
2162.557	1.855	1	regulate	Run3	regulate/STIM_013.jpg
2166.577	1.936	1	regulate	Run3	regulate/STIM_014.jpg
2172.171	1.287	1	regulate	Run3	regulate/STIM_014.jpg
2177.017	2.054	1	regulate	Run3	regulate/STIM_014.jpg
2182.872	2.11	1	regulate	Run3	regulate/STIM_014.jpg
2187.136	1.33	1	regulate	Run3	regulate/STIM_015.jpg
2191.434	2.051	1	regulate	Run3	regulate/STIM_015.jpg
2197.124	1.749	1	regulate	Run3	regulate/STIM_015.jpg
2201.725	1.492	0	regulate	Run3	regulate/STIM_015.jpg
2207.0	1.853	1	regulate	Run3	regulate/STIM_016.jpg
2211.988	1.704	1	regulate	Run3	regulate/STIM_016.jpg
2217.329	2.367	1	regulate	Run3	regulate/STIM_016.jpg
2223.642	1.748	1	regulate	Run3	regulate/STIM_016.jpg
2228.498	2.401	1	regulate	Run3	regulate/STIM_017.jpg
2233.255	1.332	1	regulate	Run3	regulate/STIM_017.jpg
2238.039	1.826	1	regulate	Run3	regulate/STIM_017.jpg
2243.734	2.379	1	regulate	Run3	regulate/STIM_017.jpg
2249.194	1.778	1	regulate	Run3	regulate/STIM_018.jpg
2254.28	2.079	1	regulate	Run3	regulate/STIM_018.jpg
2259.303	1.199	1	regulate	Run3	regulate/STIM_018.jpg
2263.143	1.855	1	regulate	Run3	regulate/STIM_018.jpg
2267.379	1.796	1	regulate	Run3	regulate/STIM_019.jpg
2272.509	1.432	1	regulate	Run3	regulate/STIM_019.jpg
2277.637	1.241	1	regulate	Run3	regulate/STIM_019.jpg
2281.142	1.584	0	regulate	Run3	regulate/STIM_019.jpg
2285.949	1.958	1	regulate	Run3	regulate/STIM_020.jpg
2290.059	2.11	1	regulate	Run3	regulate/STIM_020.jpg
2295.162	2.402	1	regulate	Run3	regulate/STIM_020.jpg
2301.402	1.727	1	regulate	Run3	regulate/STIM_020.jpg
2306.573	1.559	1	regulate	Run3	regulate/STIM_021.jpg
2310.756	1.094	1	regulate	Run3	regulate/STIM_021.jpg
2313.963	1.529	1	regulate	Run3	regulate/STIM_021.jpg
2319.158	1.763	1	regulate	Run3	regulate/STIM_021.jpg
2323.75	2.413	1	regulate	Run3	regulate/STIM_022.jpg
2329.817	1.983	1	regulate	Run3	regulate/STIM_022.jpg
2334.787	2.211	1	regulate	Run3	regulate/STIM_022.jpg
2339.408	1.687	1	regulate	Run3	regulate/STIM_022.jpg
2343.607	1.808	1	regulate	Run3	regulate/STIM_023.jpg
2348.702	2.403	1	regulate	Run3	regulate/STIM_023.jpg
2354.514	1.45	1	regulate	Run3	regulate/STIM_023.jpg
2359.832	1.596	1	regulate	Run3	regulate/STIM_023.jpg
2363.942	1.963	1	regulate	Run3	regulate/STIM_024.jpg
2368.274	1.623	1	regulate	Run3	regulate/STIM_024.jpg
2373.887	2.119	1	regulate	Run3	regulate/STIM_024.jpg
2379.451	1.559	1	regulate	Run3	regulate/STIM_024.jpg
2384.823	1.16	1	regulate	Run3	regulate/STIM_025.jpg
2389.005	1.93	1	regulate	Run3	regulate/STIM_025.jpg
2394.539	1.83	1	regulate	Run3	regulate/STIM_025.jpg
2398.689	1.78	1	regulate	Run3	regulate/STIM_025.jpg
2403.657	1.458	1	regulate	Run3	regulate/STIM_026.jpg
2408.514	1.973	1	regulate	Run3	regulate/STIM_026.jpg
2412.597	1.254	1	regulate	Run3	regulate/STIM_026.jpg
2416.546	1.35	1	regulate	Run3	regulate/STIM_026.jpg
2421.755	2.234	1	regulate	Run3	regulate/STIM_027.jpg
2427.186	1.066	1	regulate	Run3	regulate/STIM_027.jpg
2430.4	1.804	1	regulate	Run3	regulate/STIM_027.jpg
2435.178	1.594	1	regulate	Run3	regulate/STIM_027.jpg
2440.137	1.105	1	regulate	Run3	regulate/STIM_028.jpg
2445.023	2.362	1	regulate	Run3	regulate/STIM_028.jpg
2450.08	1.898	1	regulate	Run3	regulate/STIM_028.jpg
2454.348	1.638	1	regulate	Run3	regulate/STIM_028.jpg
2458.231	2.016	1	regulate	Run3	regulate/STIM_029.jpg
2463.155	1.855	1	regulate	Run3	regulate/STIM_029.jpg
2467.769	1.546	1	regulate	Run3	regulate/STIM_029.jpg
2471.828	1.856	1	regulate	Run3	regulate/STIM_029.jpg
2476.885	1.077	1	observe	Run3	observe/STIM_000.jpg
2481.526	1.04	1	observe	Run3	observe/STIM_000.jpg
2485.07	1.006	1	observe	Run3	observe/STIM_000.jpg
2488.587	1.006	1	observe	Run3	observe/STIM_000.jpg
2492.452	1.261	1	observe	Run3	observe/STIM_001.jpg
2496.599	1.572	1	observe	Run3	observe/STIM_001.jpg
2501.466	1.449	1	observe	Run3	observe/STIM_001.jpg
2506.305	0.922	1	observe	Run3	observe/STIM_001.jpg
2510.762	1.367	1	observe	Run3	observe/STIM_002.jpg
2516.096	1.252	1	observe	Run3	observe/STIM_002.jpg
2520.263	0.989	1	observe	Run3	observe/STIM_002.jpg
2524.046	1.222	1	observe	Run3	observe/STIM_002.jpg
2527.784	1.561	1	observe	Run3	observe/STIM_003.jpg
2532.908	0.846	1	observe	Run3	observe/STIM_003.jpg
2537.068	1.047	1	observe	Run3	observe/STIM_003.jpg
2540.193	0.941	1	observe	Run3	observe/STIM_003.jpg
2544.286	0.856	1	observe	Run3	observe/STIM_004.jpg
2547.522	1.258	1	observe	Run3	observe/STIM_004.jpg
2550.879	1.21	1	observe	Run3	observe/STIM_004.jpg
2554.347	0.841	1	observe	Run3	observe/STIM_004.jpg
2557.771	1.569	1	observe	Run3	observe/STIM_005.jpg
2561.354	0.832	1	observe	Run3	observe/STIM_005.jpg
2564.64	0.894	1	observe	Run3	observe/STIM_005.jpg
2569.233	1.545	1	observe	Run3	observe/STIM_005.jpg
2573.69	1.531	0	observe	Run3	observe/STIM_006.jpg
2578.422	1.163	1	observe	Run3	observe/STIM_006.jpg
2582.74	1.516	1	observe	Run3	observe/STIM_006.jpg
2587.797	1.169	1	observe	Run3	observe/STIM_006.jpg
2592.08	1.094	1	observe	Run3	observe/STIM_007.jpg
2595.409	1.317	1	observe	Run3	observe/STIM_007.jpg
2599.903	1.452	1	observe	Run3	observe/STIM_007.jpg
2604.719	1.246	1	observe	Run3	observe/STIM_007.jpg
2608.28	0.895	1	observe	Run3	observe/STIM_008.jpg
2611.19	1.154	1	observe	Run3	observe/STIM_008.jpg
2615.688	1.105	1	observe	Run3	observe/STIM_008.jpg
2619.222	0.934	1	observe	Run3	observe/STIM_008.jpg
2623.953	1.583	1	observe	Run3	observe/STIM_009.jpg
2628.151	1.09	1	observe	Run3	observe/STIM_009.jpg
2633.168	1.589	0	observe	Run3	observe/STIM_009.jpg
2637.991	1.183	1	observe	Run3	observe/STIM_009.jpg
2642.494	1.166	1	observe	Run3	observe/STIM_010.jpg
2646.08	1.056	1	observe	Run3	observe/STIM_010.jpg
2649.318	1.195	1	observe	Run3	observe/STIM_010.jpg
2653.936	1.103	1	observe	Run3	observe/STIM_010.jpg
2658.396	1.435	1	observe	Run3	observe/STIM_011.jpg
2662.622	1.434	1	observe	Run3	observe/STIM_011.jpg
2667.575	0.949	1	observe	Run3	observe/STIM_011.jpg
2672.232	1.338	1	observe	Run3	observe/STIM_011.jpg
2677.217	0.823	1	observe	Run3	observe/STIM_012.jpg
2681.186	1.289	1	observe	Run3	observe/STIM_012.jpg
2685.527	1.382	1	observe	Run3	observe/STIM_012.jpg
2690.16	0.87	1	observe	Run3	observe/STIM_012.jpg
2693.46	0.87	1	observe	Run3	observe/STIM_013.jpg
2697.747	1.083	1	observe	Run3	observe/STIM_013.jpg
2702.156	1.587	1	observe	Run3	observe/STIM_013.jpg
2707.318	1.497	0	observe	Run3	observe/STIM_013.jpg
2711.983	1.1	1	observe	Run3	observe/STIM_014.jpg
2715.204	0.935	1	observe	Run3	observe/STIM_014.jpg
2718.537	0.81	1	observe	Run3	observe/STIM_014.jpg
2722.45	1.199	1	observe	Run3	observe/STIM_014.jpg
2726.143	1.56	1	observe	Run3	observe/STIM_015.jpg
2731.522	1.008	1	observe	Run3	observe/STIM_015.jpg
2735.446	1.29	1	observe	Run3	observe/STIM_015.jpg
2739.361	1.506	1	observe	Run3	observe/STIM_015.jpg
2743.746	1.315	1	observe	Run3	observe/STIM_016.jpg
2748.526	1.043	1	observe	Run3	observe/STIM_016.jpg
2751.695	1.581	1	observe	Run3	observe/STIM_016.jpg
2755.339	1.602	1	observe	Run3	observe/STIM_016.jpg
2760.829	0.905	1	observe	Run3	observe/STIM_017.jpg
2764.38	0.866	1	observe	Run3	observe/STIM_017.jpg
2769.176	1.105	1	observe	Run3	observe/STIM_017.jpg
2774.255	1.405	1	observe	Run3	observe/STIM_017.jpg
2778.655	0.932	1	observe	Run3	observe/STIM_018.jpg
2783.35	1.599	1	observe	Run3	observe/STIM_018.jpg
2788.782	1.592	1	observe	Run3	observe/STIM_018.jpg
2792.408	1.148	0	observe	Run3	observe/STIM_018.jpg
2797.435	1.505	1	observe	Run3	observe/STIM_019.jpg
2802.3	0.944	1	observe	Run3	observe/STIM_019.jpg
2806.182	1.117	1	observe	Run3	observe/STIM_019.jpg
2809.411	1.003	1	observe	Run3	observe/STIM_019.jpg
