onset	duration	accuracy_binary	trial_type	learning_stage	stimulus
0.0	2.578	1	regulate	Run1	regulate/STIM_000.jpg
5.643	3.385	1	regulate	Run1	regulate/STIM_000.jpg
11.978	3.374	1	regulate	Run1	regulate/STIM_000.jpg
18.414	2.122	1	regulate	Run1	regulate/STIM_000.jpg
22.864	2.043	1	regulate	Run1	regulate/STIM_001.jpg
26.972	2.745	1	regulate	Run1	regulate/STIM_001.jpg
33.311	2.12	1	regulate	Run1	regulate/STIM_001.jpg
38.411	2.206	1	regulate	Run1	regulate/STIM_001.jpg
44.182	2.405	1	regulate	Run1	regulate/STIM_002.jpg
50.281	2.021	1	regulate	Run1	regulate/STIM_002.jpg
56.022	2.446	1	regulate	Run1	regulate/STIM_002.jpg
60.88	3.106	1	regulate	Run1	regulate/STIM_002.jpg
66.044	3.371	0	regulate	Run1	regulate/STIM_003.jpg
71.877	3.434	1	regulate	Run1	regulate/STIM_003.jpg
77.875	2.134	1	regulate	Run1	regulate/STIM_003.jpg
83.486	1.512	0	regulate	Run1	regulate/STIM_003.jpg
88.718	3.653	1	regulate	Run1	regulate/STIM_004.jpg
94.667	1.818	1	regulate	Run1	regulate/STIM_004.jpg
99.646	3.054	1	regulate	Run1	regulate/STIM_004.jpg
106.283	1.922	1	regulate	Run1	regulate/STIM_004.jpg
111.678	2.492	0	regulate	Run1	regulate/STIM_005.jpg
116.796	3.093	1	regulate	Run1	regulate/STIM_005.jpg
123.445	2.762	1	regulate	Run1	regulate/STIM_005.jpg
129.323	1.983	1	regulate	Run1	regulate/STIM_005.jpg
134.239	2.508	1	regulate	Run1	regulate/STIM_006.jpg
139.613	3.771	1	regulate	Run1	regulate/STIM_006.jpg
146.424	2.008	1	regulate	Run1	regulate/STIM_006.jpg
151.939	1.67	1	regulate	Run1	regulate/STIM_006.jpg
157.009	2.768	0	regulate	Run1	regulate/STIM_007.jpg
162.984	3.631	1	regulate	Run1	regulate/STIM_007.jpg
169.7	3.324	1	regulate	Run1	regulate/STIM_007.jpg
176.056	2.145	1	regulate	Run1	regulate/STIM_007.jpg
181.861	3.601	1	regulate	Run1	regulate/STIM_008.jpg
189.122	1.814	1	regulate	Run1	regulate/STIM_008.jpg
194.864	3.037	1	regulate	Run1	regulate/STIM_008.jpg
201.794	2.821	1	regulate	Run1	regulate/STIM_008.jpg
206.868	2.715	0	regulate	Run1	regulate/STIM_009.jpg
212.078	2.075	1	regulate	Run1	regulate/STIM_009.jpg
218.152	1.984	1	regulate	Run1	regulate/STIM_009.jpg
223.3	2.487	1	regulate	Run1	regulate/STIM_009.jpg
228.491	2.755	1	regulate	Run1	regulate/STIM_010.jpg
235.168	1.754	1	regulate	Run1	regulate/STIM_010.jpg
240.706	2.545	1	regulate	Run1	regulate/STIM_010.jpg
246.566	3.408	1	regulate	Run1	regulate/STIM_010.jpg
252.618	2.862	0	regulate	Run1	regulate/STIM_011.jpg
259.02	3.804	1	regulate	Run1	regulate/STIM_011.jpg
265.872	2.816	1	regulate	Run1	regulate/STIM_011.jpg
272.47	2.32	0	regulate	Run1	regulate/STIM_011.jpg
278.646	1.866	0	regulate	Run1	regulate/STIM_012.jpg
283.716	3.307	0	regulate	Run1	regulate/STIM_012.jpg
290.891	2.782	1	regulate	Run1	regulate/STIM_012.jpg
296.318	2.873	1	regulate	Run1	regulate/STIM_012.jpg
302.172	2.239	1	regulate	Run1	regulate/STIM_013.jpg
307.362	3.25	0	regulate	Run1	regulate/STIM_013.jpg
314.356	3.508	1	regulate	Run1	regulate/STIM_013.jpg
320.001	1.829	0	regulate	Run1	regulate/STIM_013.jpg
325.298	3.713	1	regulate	Run1	regulate/STIM_014.jpg
331.261	3.421	1	regulate	Run1	regulate/STIM_014.jpg
337.415	3.325	1	regulate	Run1	regulate/STIM_014.jpg
344.684	1.92	1	regulate	Run1	regulate/STIM_014.jpg
349.691	2.572	1	regulate	Run1	regulate/STIM_015.jpg
354.756	2.04	1	regulate	Run1	regulate/STIM_015.jpg
360.23	1.797	1	regulate	Run1	regulate/STIM_015.jpg
364.182	3.004	1	regulate	Run1	regulate/STIM_015.jpg
369.369	2.956	1	regulate	Run1	regulate/STIM_016.jpg
375.146	1.908	1	regulate	Run1	regulate/STIM_016.jpg
380.027	2.105	1	regulate	Run1	regulate/STIM_016.jpg
385.154	1.767	1	regulate	Run1	regulate/STIM_016.jpg
389.905	1.984	1	regulate	Run1	regulate/STIM_017.jpg
394.435	3.598	1	regulate	Run1	regulate/STIM_017.jpg
401.664	2.026	0	regulate	Run1	regulate/STIM_017.jpg
405.954	2.754	1	regulate	Run1	regulate/STIM_017.jpg
411.878	2.718	1	regulate	Run1	regulate/STIM_018.jpg
417.491	2.146	1	regulate	Run1	regulate/STIM_018.jpg
423.533	3.131	0	regulate	Run1	regulate/STIM_018.jpg
429.364	1.598	1	regulate	Run1	regulate/STIM_018.jpg
434.933	3.393	0	regulate	Run1	regulate/STIM_019.jpg
440.462	2.393	1	regulate	Run1	regulate/STIM_019.jpg
446.473	3.015	1	regulate	Run1	regulate/STIM_019.jpg
452.777	2.319	1	regulate	Run1	regulate/STIM_019.jpg
458.221	2.31	1	regulate	Run1	regulate/STIM_020.jpg
463.697	3.206	1	regulate	Run1	regulate/STIM_020.jpg
470.251	2.502	1	regulate	Run1	regulate/STIM_020.jpg
475.704	2.817	1	regulate	Run1	regulate/STIM_020.jpg
482.391	2.132	1	regulate	Run1	regulate/STIM_021.jpg
487.438	3.793	1	regulate	Run1	regulate/STIM_021.jpg
493.691	2.078	1	regulate	Run1	regulate/STIM_021.jpg
497.876	1.795	1	regulate	Run1	regulate/STIM_021.jpg
501.913	2.805	1	regulate	Run1	regulate/STIM_022.jpg
507.891	2.536	1	regulate	Run1	regulate/STIM_022.jpg
513.203	2.884	1	regulate	Run1	regulate/STIM_022.jpg
519.502	2.781	1	regulate	Run1	regulate/STIM_022.jpg
525.612	1.901	1	regulate	Run1	regulate/STIM_023.jpg
529.879	3.259	1	regulate	Run1	regulate/STIM_023.jpg
535.977	3.104	1	regulate	Run1	regulate/STIM_023.jpg
542.96	2.103	1	regulate	Run1	regulate/STIM_023.jpg
547.498	3.564	0	regulate	Run1	regulate/STIM_024.jpg
553.673	1.984	0	regulate	Run1	regulate/STIM_024.jpg
559.082	2.179	1	regulate	Run1	regulate/STIM_024.jpg
563.789	3.245	1	regulate	Run1	regulate/STIM_024.jpg
569.436	3.682	1	regulate	Run1	regulate/STIM_025.jpg
575.589	2.313	1	regulate	Run1	regulate/STIM_025.jpg
581.828	3.542	0	regulate	Run1	regulate/STIM_025.jpg
589.046	1.485	0	regulate	Run1	regulate/STIM_025.jpg
593.593	3.471	1	regulate	Run1	regulate/STIM_026.jpg
599.149	2.689	1	regulate	Run1	regulate/STIM_026.jpg
605.556	2.094	1	regulate	Run1	regulate/STIM_026.jpg
611.116	3.254	1	regulate	Run1	regulate/STIM_026.jpg
617.379	2.114	1	regulate	Run1	regulate/STIM_027.jpg
621.828	2.752	1	regulate	Run1	regulate/STIM_027.jpg
627.432	2.357	1	regulate	Run1	regulate/STIM_027.jpg
632.34	2.475	1	regulate	Run1	regulate/STIM_027.jpg
638.769	3.801	0	regulate	Run1	regulate/STIM_028.jpg
644.932	2.877	1	regulate	Run1	regulate/STIM_028.jpg
651.292	2.948	0	regulate	Run1	regulate/STIM_028.jpg
658.127	1.888	1	regulate	Run1	regulate/STIM_028.jpg
662.931	2.18	1	regulate	Run1	regulate/STIM_029.jpg
667.913	2.304	1	regulate	Run1	regulate/STIM_029.jpg
674.077	2.855	1	regulate	Run1	regulate/STIM_029.jpg
679.401	1.753	1	regulate	Run1	regulate/STIM_029.jpg
685.094	1.558	0	observe	Run1	observe/STIM_000.jpg
689.19	1.36	1	observe	Run1	observe/STIM_000.jpg
694.366	1.237	0	observe	Run1	observe/STIM_000.jpg
698.212	1.128	1	observe	Run1	observe/STIM_000.jpg
703.285	1.172	1	observe	Run1	observe/STIM_001.jpg
707.964	1.198	1	observe	Run1	observe/STIM_001.jpg
712.689	1.787	1	observe	Run1	observe/STIM_001.jpg
716.851	1.294	1	observe	Run1	observe/STIM_001.jpg
721.769	1.758	1	observe	Run1	observe/STIM_002.jpg
726.584	1.786	1	observe	Run1	observe/STIM_002.jpg
731.301	1.007	1	observe	Run1	observe/STIM_002.jpg
735.929	0.923	0	observe	Run1	observe/STIM_002.jpg
739.849	1.611	1	observe	Run1	observe/STIM_003.jpg
745.403	1.124	1	observe	Run1	observe/STIM_003.jpg
749.317	1.072	0	observe	Run1	observe/STIM_003.jpg
753.733	1.708	0	observe	Run1	observe/STIM_003.jpg
759.232	0.987	1	observe	Run1	observe/STIM_004.jpg
763.175	1.16	0	observe	Run1	observe/STIM_004.jpg
767.618	1.024	1	observe	Run1	observe/STIM_004.jpg
771.004	1.796	1	observe	Run1	observe/STIM_004.jpg
775.539	1.386	1	observe	Run1	observe/STIM_005.jpg
779.755	1.314	1	observe	Run1	observe/STIM_005.jpg
785.028	0.986	1	observe	Run1	observe/STIM_005.jpg
788.034	0.995	1	observe	Run1	observe/STIM_005.jpg
792.313	0.982	1	observe	Run1	observe/STIM_006.jpg
796.93	1.272	0	observe	Run1	observe/STIM_006.jpg
801.223	1.231	1	observe	Run1	observe/STIM_006.jpg
804.504	1.474	1	observe	Run1	observe/STIM_006.jpg
809.529	1.261	1	observe	Run1	observe/STIM_007.jpg
813.811	1.099	1	observe	Run1	observe/STIM_007.jpg
817.071	1.726	1	observe	Run1	observe/STIM_007.jpg
821.846	1.35	1	observe	Run1	observe/STIM_007.jpg
825.835	1.518	1	observe	Run1	observe/STIM_008.jpg
829.659	1.626	1	observe	Run1	observe/STIM_008.jpg
835.208	1.389	1	observe	Run1	observe/STIM_008.jpg
840.561	0.947	1	observe	Run1	observe/STIM_008.jpg
844.611	1.438	1	observe	Run1	observe/STIM_009.jpg
848.653	0.928	1	observe	Run1	observe/STIM_009.jpg
852.573	1.527	1	observe	Run1	observe/STIM_009.jpg
857.489	1.62	0	observe	Run1	observe/STIM_009.jpg
862.939	1.134	1	observe	Run1	observe/STIM_010.jpg
867.028	1.269	0	observe	Run1	observe/STIM_010.jpg
871.446	1.726	1	observe	Run1	observe/STIM_010.jpg
875.725	1.575	1	observe	Run1	observe/STIM_010.jpg
879.482	1.1	1	observe	Run1	observe/STIM_011.jpg
882.953	1.106	1	observe	Run1	observe/STIM_011.jpg
887.075	1.021	1	observe	Run1	observe/STIM_011.jpg
890.742	1.783	0	observe	Run1	observe/STIM_011.jpg
895.73	1.522	1	observe	Run1	observe/STIM_012.jpg
901.004	1.276	1	observe	Run1	observe/STIM_012.jpg
904.527	1.007	1	observe	Run1	observe/STIM_012.jpg
907.621	1.651	1	observe	Run1	observe/STIM_012.jpg
912.982	1.738	1	observe	Run1	observe/STIM_013.jpg
917.558	1.718	1	observe	Run1	observe/STIM_013.jpg
923.272	1.755	1	observe	Run1	observe/STIM_013.jpg
927.74	0.996	1	observe	Run1	observe/STIM_013.jpg
931.623	1.408	1	observe	Run1	observe/STIM_014.jpg
936.67	1.442	0	observe	Run1	observe/STIM_014.jpg
940.17	1.628	1	observe	Run1	observe/STIM_014.jpg
944.812	1.516	1	observe	Run1	observe/STIM_014.jpg
948.818	1.691	1	observe	Run1	observe/STIM_015.jpg
953.87	0.925	1	observe	Run1	observe/STIM_015.jpg
956.886	1.218	1	observe	Run1	observe/STIM_015.jpg
961.452	1.204	1	observe	Run1	observe/STIM_015.jpg
965.549	1.341	1	observe	Run1	observe/STIM_016.jpg
969.793	1.661	1	observe	Run1	observe/STIM_016.jpg
974.912	1.694	1	observe	Run1	observe/STIM_016.jpg
979.752	0.959	1	observe	Run1	observe/STIM_016.jpg
983.746	0.947	1	observe	Run1	observe/STIM_017.jpg
988.646	1.623	1	observe	Run1	observe/STIM_017.jpg
994.195	1.828	0	observe	Run1	observe/STIM_017.jpg
998.72	1.511	1	observe	Run1	observe/STIM_017.jpg
1003.232	0.93	1	observe	Run1	observe/STIM_018.jpg
1006.376	1.422	1	observe	Run1	observe/STIM_018.jpg
1010.29	1.397	1	observe	Run1	observe/STIM_018.jpg
1013.963	1.607	0	observe	Run1	observe/STIM_018.jpg
1019.105	1.25	1	observe	Run1	observe/STIM_019.jpg
1023.86	1.238	1	observe	Run1	observe/STIM_019.jpg
1027.777	1.099	1	observe	Run1	observe/STIM_019.jpg
1030.975	1.745	1	observe	Run1	observe/STIM_019.jpg
1035.117	2.094	1	regulate	Run2	regulate/STIM_000.jpg
1039.685	2.994	1	regulate	Run2	regulate/STIM_000.jpg
1046.044	1.327	0	regulate	Run2	regulate/STIM_000.jpg
1050.239	1.267	1	regulate	Run2	regulate/STIM_000.jpg
1055.409	3.26	1	regulate	Run2	regulate/STIM_001.jpg
1062.604	2.884	1	regulate	Run2	regulate/STIM_001.jpg
1068.567	1.869	1	regulate	Run2	regulate/STIM_001.jpg
1073.527	2.279	0	regulate	Run2	regulate/STIM_001.jpg
1079.611	2.968	1	regulate	Run2	regulate/STIM_002.jpg
1084.914	1.924	1	regulate	Run2	regulate/STIM_002.jpg
1089.786	2.754	1	regulate	Run2	regulate/STIM_002.jpg
1094.988	2.616	1	regulate	Run2	regulate/STIM_002.jpg
1100.582	3.232	1	regulate	Run2	regulate/STIM_003.jpg
1107.642	3.107	1	regulate	Run2	regulate/STIM_003.jpg
1113.428	1.472	0	regulate	Run2	regulate/STIM_003.jpg
1117.653	2.036	0	regulate	Run2	regulate/STIM_003.jpg
1123.363	2.26	1	regulate	Run2	regulate/STIM_004.jpg
1127.894	2.006	1	regulate	Run2	regulate/STIM_004.jpg
1133.091	2.822	1	regulate	Run2	regulate/STIM_004.jpg
1138.169	2.411	1	regulate	Run2	regulate/STIM_004.jpg
1144.006	2.157	1	regulate	Run2	regulate/STIM_005.jpg
1148.897	1.798	1	regulate	Run2	regulate/STIM_005.jpg
1154.16	2.114	1	regulate	Run2	regulate/STIM_005.jpg
1159.253	2.193	1	regulate	Run2	regulate/STIM_005.jpg
1165.326	1.779	1	regulate	Run2	regulate/STIM_006.jpg
1170.513	1.716	1	regulate	Run2	regulate/STIM_006.jpg
1174.378	1.901	1	regulate	Run2	regulate/STIM_006.jpg
1178.752	2.037	0	regulate	Run2	regulate/STIM_006.jpg
1184.313	2.237	0	regulate	Run2	regulate/STIM_007.jpg
1189.156	1.454	1	regulate	Run2	regulate/STIM_007.jpg
1193.069	2.88	1	regulate	Run2	regulate/STIM_007.jpg
1198.555	1.832	1	regulate	Run2	regulate/STIM_007.jpg
1204.249	2.605	1	regulate	Run2	regulate/STIM_008.jpg
1210.344	2.38	1	regulate	Run2	regulate/STIM_008.jpg
1214.918	2.617	0	regulate	Run2	regulate/STIM_008.jpg
1220.613	2.473	1	regulate	Run2	regulate/STIM_008.jpg
1225.667	1.62	1	regulate	Run2	regulate/STIM_009.jpg
1231.256	2.955	1	regulate	Run2	regulate/STIM_009.jpg
1238.061	1.336	0	regulate	Run2	regulate/STIM_009.jpg
1241.877	1.661	1	regulate	Run2	regulate/STIM_009.jpg
1246.39	3.138	1	regulate	Run2	regulate/STIM_010.jpg
1253.411	2.999	1	regulate	Run2	regulate/STIM_010.jpg
1259.253	1.497	1	regulate	Run2	regulate/STIM_010.jpg
1264.062	1.766	1	regulate	Run2	regulate/STIM_010.jpg
1269.108	1.83	0	regulate	Run2	regulate/STIM_011.jpg
1273.963	1.447	0	regulate	Run2	regulate/STIM_011.jpg
1278.98	1.407	1	regulate	Run2	regulate/STIM_011.jpg
1282.553	2.212	1	regulate	Run2	regulate/STIM_011.jpg
1287.696	3.027	1	regulate	Run2	regulate/STIM_012.jpg
1293.273	2.285	1	regulate	Run2	regulate/STIM_012.jpg
1297.962	2.594	1	regulate	Run2	regulate/STIM_012.jpg
1304.528	1.453	1	regulate	Run2	regulate/STIM_012.jpg
1308.245	2.804	1	regulate	Run2	regulate/STIM_013.jpg
1313.622	2.517	1	regulate	Run2	regulate/STIM_013.jpg
1319.083	2.721	1	regulate	Run2	regulate/STIM_013.jpg
1325.578	1.312	1	regulate	Run2	regulate/STIM_013.jpg
1330.217	1.933	1	regulate	Run2	regulate/STIM_014.jpg
1334.621	2.409	1	regulate	Run2	regulate/STIM_014.jpg
1340.29	1.544	1	regulate	Run2	regulate/STIM_014.jpg
1345.384	2.119	1	regulate	Run2	regulate/STIM_014.jpg
1350.879	2.227	1	regulate	Run2	regulate/STIM_015.jpg
1356.597	3.143	1	regulate	Run2	regulate/STIM_015.jpg
1362.759	2.01	0	regulate	Run2	regulate/STIM_015.jpg
1367.277	2.259	1	regulate	Run2	regulate/STIM_015.jpg
1371.827	2.276	1	regulate	Run2	regulate/STIM_016.jpg
1377.614	1.491	0	regulate	Run2	regulate/STIM_016.jpg
1382.411	1.436	1	regulate	Run2	regulate/STIM_016.jpg
1386.516	2.233	1	regulate	Run2	regulate/STIM_016.jpg
1391.51	1.882	1	regulate	Run2	regulate/STIM_017.jpg
1396.116	2.802	1	regulate	Run2	regulate/STIM_017.jpg
1402.14	2.371	1	regulate	Run2	regulate/STIM_017.jpg
1408.371	2.556	1	regulate	Run2	regulate/STIM_017.jpg
1414.322	2.416	1	regulate	Run2	regulate/STIM_018.jpg
1420.696	2.924	1	regulate	Run2	regulate/STIM_018.jpg
1427.066	2.744	0	regulate	Run2	regulate/STIM_018.jpg
1433.691	2.623	1	regulate	Run2	regulate/STIM_018.jpg
1438.462	2.081	1	regulate	Run2	regulate/STIM_019.jpg
1444.354	2.298	1	regulate	Run2	regulate/STIM_019.jpg
1448.856	2.841	1	regulate	Run2	regulate/STIM_019.jpg
1454.293	1.414	1	regulate	Run2	regulate/STIM_019.jpg
1459.094	2.415	1	regulate	Run2	regulate/STIM_020.jpg
1465.251	1.931	1	regulate	Run2	regulate/STIM_020.jpg
1470.263	1.562	1	regulate	Run2	regulate/STIM_020.jpg
1474.97	2.349	1	regulate	Run2	regulate/STIM_020.jpg
1479.894	1.758	0	regulate	Run2	regulate/STIM_021.jpg
1483.781	3.073	1	regulate	Run2	regulate/STIM_021.jpg
1489.515	2.051	1	regulate	Run2	regulate/STIM_021.jpg
1495.311	2.786	1	regulate	Run2	regulate/STIM_021.jpg
1500.313	1.768	0	regulate	Run2	regulate/STIM_022.jpg
1505.115	2.817	0	regulate	Run2	regulate/STIM_022.jpg
1511.44	2.038	1	regulate	Run2	regulate/STIM_022.jpg
1517.266	1.324	1	regulate	Run2	regulate/STIM_022.jpg
1520.879	2.909	1	regulate	Run2	regulate/STIM_023.jpg
1526.691	2.709	0	regulate	Run2	regulate/STIM_023.jpg
1532.058	1.9	0	regulate	Run2	regulate/STIM_023.jpg
1537.525	2.022	1	regulate	Run2	regulate/STIM_023.jpg
1542.2	1.497	0	regulate	Run2	regulate/STIM_024.jpg
1547.078	2.224	1	regulate	Run2	regulate/STIM_024.jpg
1553.023	1.832	1	regulate	Run2	regulate/STIM_024.jpg
1557.217	2.817	1	regulate	Run2	regulate/STIM_024.jpg
1563.152	1.571	1	regulate	Run2	regulate/STIM_025.jpg
1568.612	2.229	1	regulate	Run2	regulate/STIM_025.jpg
1572.983	1.414	1	regulate	Run2	regulate/STIM_025.jpg
1577.674	1.257	1	regulate	Run2	regulate/STIM_025.jpg
1582.602	2.304	1	regulate	Run2	regulate/STIM_026.jpg
1587.466	1.575	1	regulate	Run2	regulate/STIM_026.jpg
1593.026	2.576	1	regulate	Run2	regulate/STIM_026.jpg
1598.176	1.458	1	regulate	Run2	regulate/STIM_026.jpg
1603.02	3.33	0	regulate	Run2	regulate/STIM_027.jpg
1608.94	2.652	1	regulate	Run2	regulate/STIM_027.jpg
1615.576	1.485	1	regulate	Run2	regulate/STIM_027.jpg
1620.65	1.729	1	regulate	Run2	regulate/STIM_027.jpg
1625.855	1.635	1	regulate	Run2	regulate/STIM_028.jpg
1630.13	1.682	1	regulate	Run2	regulate/STIM_028.jpg
1635.626	1.562	1	regulate	Run2	regulate/STIM_028.jpg
1640.401	2.253	1	regulate	Run2	regulate/STIM_028.jpg
1646.595	1.502	1	regulate	Run2	regulate/STIM_029.jpg
1650.146	1.646	0	regulate	Run2	regulate/STIM_029.jpg
1655.353	2.757	1	regulate	Run2	regulate/STIM_029.jpg
1661.662	2.449	1	regulate	Run2	regulate/STIM_029.jpg
1667.47	0.944	1	observe	Run2	observe/STIM_000.jpg
1670.45	1.652	1	observe	Run2	observe/STIM_000.jpg
1675.739	1.286	1	observe	Run2	observe/STIM_000.jpg
1680.974	1.732	0	observe	Run2	observe/STIM_000.jpg
1686.032	0.92	1	observe	Run2	observe/STIM_001.jpg
1689.317	1.664	1	observe	Run2	observe/STIM_001.jpg
1693.385	1.369	1	observe	Run2	observe/STIM_001.jpg
1697.0	1.696	1	observe	Run2	observe/STIM_001.jpg
1702.265	1.813	1	observe	Run2	observe/STIM_002.jpg
1707.084	1.465	1	observe	Run2	observe/STIM_002.jpg
1712.129	0.946	1	observe	Run2	observe/STIM_002.jpg
1716.633	1.001	0	observe	Run2	observe/STIM_002.jpg
1719.769	0.929	0	observe	Run2	observe/STIM_003.jpg
1724.311	1.75	1	observe	Run2	observe/STIM_003.jpg
1728.122	1.387	1	observe	Run2	observe/STIM_003.jpg
1733.066	1.346	1	observe	Run2	observe/STIM_003.jpg
1737.089	1.82	1	observe	Run2	observe/STIM_004.jpg
1740.935	1.803	1	observe	Run2	observe/STIM_004.jpg
1745.227	1.125	1	observe	Run2	observe/STIM_004.jpg
1748.832	0.976	1	observe	Run2	observe/STIM_004.jpg
1751.816	1.606	1	observe	Run2	observe/STIM_005.jpg
1755.498	1.642	0	observe	Run2	observe/STIM_005.jpg
1760.542	1.146	1	observe	Run2	observe/STIM_005.jpg
1765.249	1.603	1	observe	Run2	observe/STIM_005.jpg
1769.411	1.536	1	observe	Run2	observe/STIM_006.jpg
1773.902	1.007	1	observe	Run2	observe/STIM_006.jpg
1778.559	1.775	0	observe	Run2	observe/STIM_006.jpg
1782.8	0.943	1	observe	Run2	observe/STIM_006.jpg
1786.82	1.026	1	observe	Run2	observe/STIM_007.jpg
1790.21	1.05	0	observe	Run2	observe/STIM_007.jpg
1794.846	1.774	0	observe	Run2	observe/STIM_007.jpg
1798.821	1.531	1	observe	Run2	observe/STIM_007.jpg
1802.407	1.025	1	observe	Run2	observe/STIM_008.jpg
1805.664	1.016	0	observe	Run2	observe/STIM_008.jpg
1809.729	1.622	1	observe	Run2	observe/STIM_008.jpg
1813.516	1.8	1	observe	Run2	observe/STIM_008.jpg
1817.623	1.216	1	observe	Run2	observe/STIM_009.jpg
1821.463	1.555	1	observe	Run2	observe/STIM_009.jpg
1826.061	1.817	1	observe	Run2	observe/STIM_009.jpg
1830.703	1.034	1	observe	Run2	observe/STIM_009.jpg
1834.143	1.044	1	observe	Run2	observe/STIM_010.jpg
1838.984	1.651	1	observe	Run2	observe/STIM_010.jpg
1843.092	0.975	1	observe	Run2	observe/STIM_010.jpg
1847.83	1.736	1	observe	Run2	observe/STIM_010.jpg
1853.525	1.57	1	observe	Run2	observe/STIM_011.jpg
1857.489	1.118	1	observe	Run2	observe/STIM_011.jpg
1862.193	0.954	1	observe	Run2	observe/STIM_011.jpg
1865.792	1.786	1	observe	Run2	observe/STIM_011.jpg
1870.5	1.128	1	observe	Run2	observe/STIM_012.jpg
1873.857	1.153	1	observe	Run2	observe/STIM_012.jpg
1877.902	1.319	1	observe	Run2	observe/STIM_012.jpg
1881.682	1.517	1	observe	Run2	observe/STIM_012.jpg
1886.079	1.538	1	observe	Run2	observe/STIM_013.jpg
1889.666	1.798	1	observe	Run2	observe/STIM_013.jpg
1893.55	1.292	1	observe	Run2	observe/STIM_013.jpg
1898.511	1.154	1	observe	Run2	observe/STIM_013.jpg
1902.206	1.044	1	observe	Run2	observe/STIM_014.jpg
1906.802	1.168	1	observe	Run2	observe/STIM_014.jpg
1911.412	1.254	1	observe	Run2	observe/STIM_014.jpg
1915.064	1.773	1	observe	Run2	observe/STIM_014.jpg
1920.69	1.365	1	observe	Run2	observe/STIM_015.jpg
1925.748	1.049	1	observe	Run2	observe/STIM_015.jpg
1929.344	1.114	1	observe	Run2	observe/STIM_015.jpg
1932.673	1.572	1	observe	Run2	observe/STIM_015.jpg
1937.833	1.179	1	observe	Run2	observe/STIM_016.jpg
1941.12	1.611	1	observe	Run2	observe/STIM_016.jpg
1945.44	1.438	1	observe	Run2	observe/STIM_016.jpg
1950.189	1.054	0	observe	Run2	observe/STIM_016.jpg
1953.453	1.438	1	observe	Run2	observe/STIM_017.jpg
1957.852	1.486	1	observe	Run2	observe/STIM_017.jpg
1962.112	1.233	1	observe	Run2	observe/STIM_017.jpg
1965.877	1.532	1	observe	Run2	observe/STIM_017.jpg
1970.638	1.714	1	observe	Run2	observe/STIM_018.jpg
1975.157	1.735	0	observe	Run2	observe/STIM_018.jpg
1980.534	1.619	1	observe	Run2	observe/STIM_018.jpg
1984.281	1.78	0	observe	Run2	observe/STIM_018.jpg
1988.541	1.106	1	observe	Run2	observe/STIM_019.jpg
1993.275	1.068	1	observe	Run2	observe/STIM_019.jpg
1998.189	1.664	1	observe	Run2	observe/STIM_019.jpg
2002.787	1.535	1	observe	Run2	observe/STIM_019.jpg
2007.909	2.681	1	regulate	Run3	regulate/STIM_000.jpg
2013.293	1.987	1	regulate	Run3	regulate/STIM_000.jpg
2018.193	1.936	1	regulate	Run3	regulate/STIM_000.jpg
2023.466	2.337	1	regulate	Run3	regulate/STIM_000.jpg
2028.959	2.617	1	regulate	Run3	regulate/STIM_001.jpg
2033.877	2.317	1	regulate	Run3	regulate/STIM_001.jpg
2038.653	1.651	1	regulate	Run3	regulate/STIM_001.jpg
2043.252	1.515	1	regulate	Run3	regulate/STIM_001.jpg
2048.043	1.318	1	regulate	Run3	regulate/STIM_002.jpg
2052.394	1.449	1	regulate	Run3	regulate/STIM_002.jpg
2057.3	1.745	1	regulate	Run3	regulate/STIM_002.jpg
2062.48	1.395	1	regulate	Run3	regulate/STIM_002.jpg
2066.276	2.369	0	regulate	Run3	regulate/STIM_003.jpg
2072.45	2.205	0	regulate	Run3	regulate/STIM_003.jpg
2078.561	1.329	1	regulate	Run3	regulate/STIM_003.jpg
2083.138	2.775	1	regulate	Run3	regulate/STIM_003.jpg
2088.632	2.294	1	regulate	Run3	regulate/STIM_004.jpg
2093.919	2.418	1	regulate	Run3	regulate/STIM_004.jpg
2099.975	2.143	1	regulate	Run3	regulate/STIM_004.jpg
2104.714	2.066	1	regulate	Run3	regulate/STIM_004.jpg
2110.719	2.054	1	regulate	Run3	regulate/STIM_005.jpg
2115.985	2.032	1	regulate	Run3	regulate/STIM_005.jpg
2121.364	2.269	1	regulate	Run3	regulate/STIM_005.jpg
2125.797	2.061	1	regulate	Run3	regulate/STIM_005.jpg
2131.062	2.391	1	regulate	Run3	regulate/STIM_006.jpg
2135.646	1.634	1	regulate	Run3	regulate/STIM_006.jpg
2139.463	2.763	1	regulate	Run3	regulate/STIM_006.jpg
2145.03	1.582	1	regulate	Run3	regulate/STIM_006.jpg
2149.763	1.924	1	regulate	Run3	regulate/STIM_007.jpg
2155.446	2.365	1	regulate	Run3	regulate/STIM_007.jpg
2160.117	2.673	0	regulate	Run3	regulate/STIM_007.jpg
2165.067	2.568	1	regulate	Run3	regulate/STIM_007.jpg
2169.773	1.57	1	regulate	Run3	regulate/STIM_008.jpg
2173.956	1.462	1	regulate	Run3	regulate/STIM_008.jpg
2177.558	2.523	1	regulate	Run3	regulate/STIM_008.jpg
2182.582	2.716	1	regulate	Run3	regulate/STIM_008.jpg
2187.522	1.911	1	regulate	Run3	regulate/STIM_009.jpg
2193.266	2.682	0	regulate	Run3	regulate/STIM_009.jpg
2199.279	2.514	1	regulate	Run3	regulate/STIM_009.jpg
2204.064	2.446	1	regulate	Run3	regulate/STIM_009.jpg
2208.851	1.719	1	regulate	Run3	regulate/STIM_010.jpg
2213.253	2.372	1	regulate	Run3	regulate/STIM_010.jpg
2218.848	2.275	1	regulate	Run3	regulate/STIM_010.jpg
2224.847	1.784	1	regulate	Run3	regulate/STIM_010.jpg
2230.249	2.712	1	regulate	Run3	regulate/STIM_011.jpg
2234.963	2.572	1	regulate	Run3	regulate/STIM_011.jpg
2241.001	2.283	1	regulate	Run3	regulate/STIM_011.jpg
2245.877	2.391	1	regulate	Run3	regulate/STIM_011.jpg
2251.214	1.978	1	regulate	Run3	regulate/STIM_012.jpg
2256.263	2.007	1	regulate	Run3	regulate/STIM_012.jpg
2260.992	2.531	1	regulate	Run3	regulate/STIM_012.jpg
2265.608	1.828	1	regulate	Run3	regulate/STIM_012.jpg
2270.459	2.077	0	regulate	Run3	regulate/STIM_013.jpg
2276.46	1.789	1	regulate	Run3	regulate/STIM_013.jpg
2282.001	2.625	1	regulate	Run3	regulate/STIM_013.jpg
2286.781	1.433	1	regulate	Run3	regulate/STIM_013.jpg
2290.919	2.036	1	regulate	Run3	regulate/STIM_014.jpg
2296.123	2.09	1	regulate	Run3	regulate/STIM_014.jpg
2301.256	1.658	1	regulate	Run3	regulate/STIM_014.jpg
2305.769	1.8	1	regulate	Run3	regulate/STIM_014.jpg
2309.858	2.063	1	regulate	Run3	regulate/STIM_015.jpg
2314.943	2.386	1	regulate	Run3	regulate/STIM_015.jpg
2320.573	2.433	1	regulate	Run3	regulate/STIM_015.jpg
2326.373	2.414	1	regulate	Run3	regulate/STIM_015.jpg
2331.297	2.347	1	regulate	Run3	regulate/STIM_016.jpg
2336.852	2.12	1	regulate	Run3	regulate/STIM_016.jpg
2341.484	1.624	1	regulate	Run3	regulate/STIM_016.jpg
2345.283	2.577	1	regulate	Run3	regulate/STIM_016.jpg
2351.016	2.248	1	regulate	Run3	regulate/STIM_017.jpg
2356.65	2.117	1	regulate	Run3	regulate/STIM_017.jpg
2362.459	2.684	1	regulate	Run3	regulate/STIM_017.jpg
2369.123	1.361	1	regulate	Run3	regulate/STIM_017.jpg
2373.602	2.529	0	regulate	Run3	regulate/STIM_018.jpg
2378.501	2.09	1	regulate	Run3	regulate/STIM_018.jpg
2384.153	1.485	1	regulate	Run3	regulate/STIM_018.jpg
2388.545	1.832	0	regulate	Run3	regulate/STIM_018.jpg
2393.062	2.15	1	regulate	Run3	regulate/STIM_019.jpg
2398.661	2.302	1	regulate	Run3	regulate/STIM_019.jpg
2403.307	2.406	1	regulate	Run3	regulate/STIM_019.jpg
2408.753	1.708	1	regulate	Run3	regulate/STIM_019.jpg
2413.997	1.217	1	regulate	Run3	regulate/STIM_020.jpg
2417.577	1.413	1	regulate	Run3	regulate/STIM_020.jpg
2422.425	2.434	1	regulate	Run3	regulate/STIM_020.jpg
2426.887	1.426	1	regulate	Run3	regulate/STIM_020.jpg
2431.661	1.638	1	regulate	Run3	regulate/STIM_021.jpg
2435.371	2.295	1	regulate	Run3	regulate/STIM_021.jpg
2439.972	1.319	1	regulate	Run3	regulate/STIM_021.jpg
2444.885	1.646	0	regulate	Run3	regulate/STIM_021.jpg
2449.287	1.691	1	regulate	Run3	regulate/STIM_022.jpg
2453.556	2.014	1	regulate	Run3	regulate/STIM_022.jpg
2458.853	1.371	1	regulate	Run3	regulate/STIM_022.jpg
2463.984	2.105	1	regulate	Run3	regulate/STIM_022.jpg
2468.968	1.957	1	regulate	Run3	regulate/STIM_023.jpg
2474.639	2.39	1	regulate	Run3	regulate/STIM_023.jpg
2479.821	2.506	0	regulate	Run3	regulate/STIM_023.jpg
2485.261	1.953	1	regulate	Run3	regulate/STIM_023.jpg
2489.585	2.412	1	regulate	Run3	regulate/STIM_024.jpg
2495.066	2.485	1	regulate	Run3	regulate/STIM_024.jpg
2501.452	2.049	1	regulate	Run3	regulate/STIM_024.jpg
2506.766	2.077	1	regulate	Run3	regulate/STIM_024.jpg
2512.008	2.799	1	regulate	Run3	regulate/STIM_025.jpg
2518.101	2.26	1	regulate	Run3	regulate/STIM_025.jpg
2524.082	2.236	1	regulate	Run3	regulate/STIM_025.jpg
2529.492	2.076	1	regulate	Run3	regulate/STIM_025.jpg
2535.453	2.253	1	regulate	Run3	regulate/STIM_026.jpg
2540.384	1.429	1	regulate	Run3	regulate/STIM_026.jpg
2544.914	2.007	1	regulate	Run3	regulate/STIM_026.jpg
2550.06	2.518	1	regulate	Run3	regulate/STIM_026.jpg
2555.206	2.2	1	regulate	Run3	regulate/STIM_027.jpg
2560.551	1.279	1	regulate	Run3	regulate/STIM_027.jpg
2564.229	1.984	1	regulate	Run3	regulate/STIM_027.jpg
2569.994	1.615	1	regulate	Run3	regulate/STIM_027.jpg
2574.396	1.938	1	regulate	Run3	regulate/STIM_028.jpg
2579.885	2.587	1	regulate	Run3	regulate/STIM_028.jpg
2585.529	1.365	1	regulate	Run3	regulate/STIM_028.jpg
2589.532	2.189	1	regulate	Run3	regulate/STIM_028.jpg
2594.858	2.379	1	regulate	Run3	regulate/STIM_029.jpg
2599.885	1.292	1	regulate	Run3	regulate/STIM_029.jpg
2603.307	1.245	1	regulate	Run3	regulate/STIM_029.jpg
2607.569	1.672	1	regulate	Run3	regulate/STIM_029.jpg
2612.487	1.12	1	observe	Run3	observe/STIM_000.jpg
2617.285	1.572	1	observe	Run3	observe/STIM_000.jpg
2621.558	1.823	0	observe	Run3	observe/STIM_000.jpg
2627.191	1.107	1	observe	Run3	observe/STIM_000.jpg
2631.133	1.74	1	observe	Run3	observe/STIM_001.jpg
2636.183	0.935	1	observe	Run3	observe/STIM_001.jpg
2641.039	1.032	1	observe	Run3	observe/STIM_001.jpg
2644.794	1.125	1	observe	Run3	observe/STIM_001.jpg
2649.139	1.823	1	observe	Run3	observe/STIM_002.jpg
2654.35	1.74	1	observe	Run3	observe/STIM_002.jpg
2659.712	1.262	1	observe	Run3	observe/STIM_002.jpg
2664.024	1.542	1	observe	Run3	observe/STIM_002.jpg
2667.701	1.403	1	observe	Run3	observe/STIM_003.jpg
2672.525	1.242	1	observe	Run3	observe/STIM_003.jpg
2677.254	1.266	1	observe	Run3	observe/STIM_003.jpg
2680.893	1.328	1	observe	Run3	observe/STIM_003.jpg
2684.903	1.055	1	observe	Run3	observe/STIM_004.jpg
2688.665	1.293	1	observe	Run3	observe/STIM_004.jpg
2693.327	1.219	1	observe	Run3	observe/STIM_004.jpg
2697.401	1.546	1	observe	Run3	observe/STIM_004.jpg
2702.756	1.154	1	observe	Run3	observe/STIM_005.jpg
2706.177	1.397	1	observe	Run3	observe/STIM_005.jpg
2711.274	1.594	1	observe	Run3	observe/STIM_005.jpg
2716.074	1.71	1	observe	Run3	observe/STIM_005.jpg
2719.839	1.296	1	observe	Run3	observe/STIM_006.jpg
2724.22	1.132	1	observe	Run3	observe/STIM_006.jpg
2727.708	1.154	1	observe	Run3	observe/STIM_006.jpg
2732.514	1.396	1	observe	Run3	observe/STIM_006.jpg
2737.541	1.26	1	observe	Run3	observe/STIM_007.jpg
2741.448	1.345	0	observe	Run3	observe/STIM_007.jpg
2744.94	1.512	1	observe	Run3	observe/STIM_007.jpg
2750.013	1.323	1	observe	Run3	observe/STIM_007.jpg
2754.411	1.723	1	observe	Run3	observe/STIM_008.jpg
2759.46	1.59	1	observe	Run3	observe/STIM_008.jpg
2763.549	1.7	1	observe	Run3	observe/STIM_008.jpg
2767.647	1.443	1	observe	Run3	observe/STIM_008.jpg
2772.649	1.173	1	observe	Run3	observe/STIM_009.jpg
2776.831	1.316	1	observe	Run3	observe/STIM_009.jpg
2781.83	1.813	1	observe	Run3	observe/STIM_009.jpg
2787.221	0.974	1	observe	Run3	observe/STIM_009.jpg
2791.587	1.731	1	observe	Run3	observe/STIM_010.jpg
2795.428	1.629	0	observe	Run3	observe/STIM_010.jpg
2799.89	1.164	1	observe	Run3	observe/STIM_010.jpg
2803.159	0.974	1	observe	Run3	observe/STIM_010.jpg
2807.722	1.657	1	observe	Run3	observe/STIM_011.jpg
2812.054	1.524	1	observe	Run3	observe/STIM_011.jpg
2816.899	1.63	1	observe	Run3	observe/STIM_011.jpg
2822.38	1.309	1	observe	Run3	observe/STIM_011.jpg
2826.209	0.925	1	observe	Run3	observe/STIM_012.jpg
2829.168	1.604	1	observe	Run3	observe/STIM_012.jpg
2834.286	1.812	1	observe	Run3	observe/STIM_012.jpg
2839.101	1.763	0	observe	Run3	observe/STIM_012.jpg
2844.103	0.99	1	observe	Run3	observe/STIM_013.jpg
2848.799	1.524	1	observe	Run3	observe/STIM_013.jpg
2852.715	1.39	1	observe	Run3	observe/STIM_013.jpg
2857.293	1.687	1	observe	Run3	observe/STIM_013.jpg
2861.276	1.802	1	observe	Run3	observe/STIM_014.jpg
2866.152	1.172	1	observe	Run3	observe/STIM_014.jpg
2870.466	1.533	1	observe	Run3	observe/STIM_014.jpg
2874.225	0.997	0	observe	Run3	observe/STIM_014.jpg
2878.354	1.519	1	observe	Run3	observe/STIM_015.jpg
2882.294	1.721	1	observe	Run3	observe/STIM_015.jpg
2887.799	1.839	1	observe	Run3	observe/STIM_015.jpg
2892.525	1.459	1	observe	Run3	observe/STIM_015.jpg
2896.653	1.288	1	observe	Run3	observe/STIM_016.jpg
2901.655	0.978	0	observe	Run3	observe/STIM_016.jpg
2905.596	1.394	1	observe	Run3	observe/STIM_016.jpg
2910.072	1.096	0	observe	Run3	observe/STIM_016.jpg
2914.508	1.178	1	observe	Run3	observe/STIM_017.jpg
2919.124	1.596	0	observe	Run3	observe/STIM_017.jpg
2924.292	1.498	0	observe	Run3	observe/STIM_017.jpg
2929.086	1.728	1	observe	Run3	observe/STIM_017.jpg
2933.874	1.149	1	observe	Run3	observe/STIM_018.jpg
2937.981	0.96	1	observe	Run3	observe/STIM_018.jpg
2942.146	1.473	1	observe	Run3	observe/STIM_018.jpg
2946.075	1.709	1	observe	Run3	observe/STIM_018.jpg
2951.015	1.168	1	observe	Run3	observe/STIM_019.jpg
2955.064	1.172	1	observe	Run3	observe/STIM_019.jpg
2958.549	1.151	1	observe	Run3	observe/STIM_019.jpg
2963.215	1.766	1	observe	Run3	observe/STIM_019.jpg
