onset	duration	accuracy	trial_type	learning_stage	stimulus
0.0	2.578	correct	regulate	Run1	regulate/STIM_000.jpg
5.643	3.385	correct	regulate	Run1	regulate/STIM_000.jpg
11.978	3.374	correct	regulate	Run1	regulate/STIM_000.jpg
18.414	2.122	correct	regulate	Run1	regulate/STIM_000.jpg
22.864	2.043	correct	regulate	Run1	regulate/STIM_001.jpg
26.972	2.745	correct	regulate	Run1	regulate/STIM_001.jpg
33.311	2.12	correct	regulate	Run1	regulate/STIM_001.jpg
38.411	2.206	correct	regulate	Run1	regulate/STIM_001.jpg
44.182	2.405	correct	regulate	Run1	regulate/STIM_002.jpg
50.281	2.021	correct	regulate	Run1	regulate/STIM_002.jpg
56.022	2.446	correct	regulate	Run1	regulate/STIM_002.jpg
60.88	3.106	correct	regulate	Run1	regulate/STIM_002.jpg
66.044	3.371	incorrect	regulate	Run1	regulate/STIM_003.jpg
71.877	3.434	correct	regulate	Run1	regulate/STIM_003.jpg
77.875	2.134	correct	regulate	Run1	regulate/STIM_003.jpg
83.486	1.512	incorrect	regulate	Run1	regulate/STIM_003.jpg
88.718	3.653	correct	regulate	Run1	regulate/STIM_004.jpg
94.667	1.818	correct	regulate	Run1	regulate/STIM_004.jpg
99.646	3.054	correct	regulate	Run1	regulate/STIM_004.jpg
106.283	1.922	correct	regulate	Run1	regulate/STIM_004.jpg
111.678	2.492	incorrect	regulate	Run1	regulate/STIM_005.jpg
116.796	3.093	correct	regulate	Run1	regulate/STIM_005.jpg
123.445	2.762	correct	regulate	Run1	regulate/STIM_005.jpg
129.323	1.983	correct	regulate	Run1	regulate/STIM_005.jpg
134.239	2.508	correct	regulate	Run1	regulate/STIM_006.jpg
139.613	3.771	correct	regulate	Run1	regulate/STIM_006.jpg
146.424	2.008	correct	regulate	Run1	regulate/STIM_006.jpg
151.939	1.67	correct	regulate	Run1	regulate/STIM_006.jpg
157.009	2.768	incorrect	regulate	Run1	regulate/STIM_007.jpg
162.984	3.631	correct	regulate	Run1	regulate/STIM_007.jpg
169.7	3.324	correct	regulate	Run1	regulate/STIM_007.jpg
176.056	2.145	correct	regulate	Run1	regulate/STIM_007.jpg
181.861	3.601	correct	regulate	Run1	regulate/STIM_008.jpg
189.122	1.814	correct	regulate	Run1	regulate/STIM_008.jpg
194.864	3.037	correct	regulate	Run1	regulate/STIM_008.jpg
201.794	2.821	correct	regulate	Run1	regulate/STIM_008.jpg
206.868	2.715	incorrect	regulate	Run1	regulate/STIM_009.jpg
212.078	2.075	correct	regulate	Run1	regulate/STIM_009.jpg
218.152	1.984	correct	regulate	Run1	regulate/STIM_009.jpg
223.3	2.487	correct	regulate	Run1	regulate/STIM_009.jpg
228.491	2.755	correct	regulate	Run1	regulate/STIM_010.jpg
235.168	1.754	correct	regulate	Run1	regulate/STIM_010.jpg
240.706	2.545	correct	regulate	Run1	regulate/STIM_010.jpg
246.566	3.408	correct	regulate	Run1	regulate/STIM_010.jpg
252.618	2.862	incorrect	regulate	Run1	regulate/STIM_011.jpg
259.02	3.804	correct	regulate	Run1	regulate/STIM_011.jpg
265.872	2.816	correct	regulate	Run1	regulate/STIM_011.jpg
272.47	2.32	incorrect	regulate	Run1	regulate/STIM_011.jpg
278.646	1.866	incorrect	regulate	Run1	regulate/STIM_012.jpg
283.716	3.307	incorrect	regulate	Run1	regulate/STIM_012.jpg
290.891	2.782	correct	regulate	Run1	regulate/STIM_012.jpg
296.318	2.873	correct	regulate	Run1	regulate/STIM_012.jpg
302.172	2.239	correct	regulate	Run1	regulate/STIM_013.jpg
307.362	3.25	incorrect	regulate	Run1	regulate/STIM_013.jpg
314.356	3.508	correct	regulate	Run1	regulate/STIM_013.jpg
320.001	1.829	incorrect	regulate	Run1	regulate/STIM_013.jpg
325.298	3.713	correct	regulate	Run1	regulate/STIM_014.jpg
331.261	3.421	correct	regulate	Run1	regulate/STIM_014.jpg
337.415	3.325	correct	regulate	Run1	regulate/STIM_014.jpg
344.684	1.92	correct	regulate	Run1	regulate/STIM_014.jpg
349.691	2.572	correct	regulate	Run1	regulate/STIM_015.jpg
354.756	2.04	correct	regulate	Run1	regulate/STIM_015.jpg
360.23	1.797	correct	regulate	Run1	regulate/STIM_015.jpg
364.182	3.004	correct	regulate	Run1	regulate/STIM_015.jpg
369.369	2.956	correct	regulate	Run1	regulate/STIM_016.jpg
375.146	1.908	correct	regulate	Run1	regulate/STIM_016.jpg
380.027	2.105	correct	regulate	Run1	regulate/STIM_016.jpg
385.154	1.767	correct	regulate	Run1	regulate/STIM_016.jpg
389.905	1.984	correct	regulate	Run1	regulate/STIM_017.jpg
394.435	3.598	correct	regulate	Run1	regulate/STIM_017.jpg
401.664	2.026	incorrect	regulate	Run1	regulate/STIM_017.jpg
405.954	2.754	correct	regulate	Run1	regulate/STIM_017.jpg
411.878	2.718	correct	regulate	Run1	regulate/STIM_018.jpg
417.491	2.146	correct	regulate	Run1	regulate/STIM_018.jpg
423.533	3.131	incorrect	regulate	Run1	regulate/STIM_018.jpg
429.364	1.598	correct	regulate	Run1	regulate/STIM_018.jpg
434.933	3.393	incorrect	regulate	Run1	regulate/STIM_019.jpg
440.462	2.393	correct	regulate	Run1	regulate/STIM_019.jpg
446.473	3.015	correct	regulate	Run1	regulate/STIM_019.jpg
452.777	2.319	correct	regulate	Run1	regulate/STIM_019.jpg
458.221	2.31	correct	regulate	Run1	regulate/STIM_020.jpg
463.697	3.206	correct	regulate	Run1	regulate/STIM_020.jpg
470.251	2.502	correct	regulate	Run1	regulate/STIM_020.jpg
475.704	2.817	correct	regulate	Run1	regulate/STIM_020.jpg
482.391	2.132	correct	regulate	Run1	regulate/STIM_021.jpg
487.438	3.793	correct	regulate	Run1	regulate/STIM_021.jpg
493.691	2.078	correct	regulate	Run1	regulate/STIM_021.jpg
497.876	1.795	correct	regulate	Run1	regulate/STIM_021.jpg
501.913	2.805	correct	regulate	Run1	regulate/STIM_022.jpg
507.891	2.536	correct	regulate	Run1	regulate/STIM_022.jpg
513.203	2.884	correct	regulate	Run1	regulate/STIM_022.jpg
519.502	2.781	correct	regulate	Run1	regulate/STIM_022.jpg
525.612	1.901	correct	regulate	Run1	regulate/STIM_023.jpg
529.879	3.259	correct	regulate	Run1	regulate/STIM_023.jpg
535.977	3.104	correct	regulate	Run1	regulate/STIM_023.jpg
542.96	2.103	correct	regulate	Run1	regulate/STIM_023.jpg
547.498	3.564	incorrect	regulate	Run1	regulate/STIM_024.jpg
553.673	1.984	incorrect	regulate	Run1	regulate/STIM_024.jpg
559.082	2.179	correct	regulate	Run1	regulate/STIM_024.jpg
563.789	3.245	correct	regulate	Run1	regulate/STIM_024.jpg
569.436	3.682	correct	regulate	Run1	regulate/STIM_025.jpg
575.589	2.313	correct	regulate	Run1	regulate/STIM_025.jpg
581.828	3.542	incorrect	regulate	Run1	regulate/STIM_025.jpg
589.046	1.485	incorrect	regulate	Run1	regulate/STIM_025.jpg
593.593	3.471	correct	regulate	Run1	regulate/STIM_026.jpg
599.149	2.689	correct	regulate	Run1	regulate/STIM_026.jpg
605.556	2.094	correct	regulate	Run1	regulate/STIM_026.jpg
611.116	3.254	correct	regulate	Run1	regulate/STIM_026.jpg
617.379	2.114	correct	regulate	Run1	regulate/STIM_027.jpg
621.828	2.752	correct	regulate	Run1	regulate/STIM_027.jpg
627.432	2.357	correct	regulate	Run1	regulate/STIM_027.jpg
632.34	2.475	correct	regulate	Run1	regulate/STIM_027.jpg
638.769	3.801	incorrect	regulate	Run1	regulate/STIM_028.jpg
644.932	2.877	correct	regulate	Run1	regulate/STIM_028.jpg
651.292	2.948	incorrect	regulate	Run1	regulate/STIM_028.jpg
658.127	1.888	correct	regulate	Run1	regulate/STIM_028.jpg
662.931	2.18	correct	regulate	Run1	regulate/STIM_029.jpg
667.913	2.304	correct	regulate	Run1	regulate/STIM_029.jpg
674.077	2.855	correct	regulate	Run1	regulate/STIM_029.jpg
679.401	1.753	correct	regulate	Run1	regulate/STIM_029.jpg
685.094	1.558	incorrect	observe	Run1	observe/STIM_000.jpg
689.19	1.36	correct	observe	Run1	observe/STIM_000.jpg
694.366	1.237	incorrect	observe	Run1	observe/STIM_000.jpg
698.212	1.128	correct	observe	Run1	observe/STIM_000.jpg
703.285	1.172	correct	observe	Run1	observe/STIM_001.jpg
707.964	1.198	correct	observe	Run1	observe/STIM_001.jpg
712.689	1.787	correct	observe	Run1	observe/STIM_001.jpg
716.851	1.294	correct	observe	Run1	observe/STIM_001.jpg
721.769	1.758	correct	observe	Run1	observe/STIM_002.jpg
726.584	1.786	correct	observe	Run1	observe/STIM_002.jpg
731.301	1.007	correct	observe	Run1	observe/STIM_002.jpg
735.929	0.923	incorrect	observe	Run1	observe/STIM_002.jpg
739.849	1.611	correct	observe	Run1	observe/STIM_003.jpg
745.403	1.124	correct	observe	Run1	observe/STIM_003.jpg
749.317	1.072	incorrect	observe	Run1	observe/STIM_003.jpg
753.733	1.708	incorrect	observe	Run1	observe/STIM_003.jpg
759.232	0.987	correct	observe	Run1	observe/STIM_004.jpg
763.175	1.16	incorrect	observe	Run1	observe/STIM_004.jpg
767.618	1.024	correct	observe	Run1	observe/STIM_004.jpg
771.004	1.796	correct	observe	Run1	observe/STIM_004.jpg
775.539	1.386	correct	observe	Run1	observe/STIM_005.jpg
779.755	1.314	correct	observe	Run1	observe/STIM_005.jpg
785.028	0.986	correct	observe	Run1	observe/STIM_005.jpg
788.034	0.995	correct	observe	Run1	observe/STIM_005.jpg
792.313	0.982	correct	observe	Run1	observe/STIM_006.jpg
796.93	1.272	incorrect	observe	Run1	observe/STIM_006.jpg
801.223	1.231	correct	observe	Run1	observe/STIM_006.jpg
804.504	1.474	correct	observe	Run1	observe/STIM_006.jpg
809.529	1.261	correct	observe	Run1	observe/STIM_007.jpg
813.811	1.099	correct	observe	Run1	observe/STIM_007.jpg
817.071	1.726	correct	observe	Run1	observe/STIM_007.jpg
821.846	1.35	correct	observe	Run1	observe/STIM_007.jpg
825.835	1.518	correct	observe	Run1	observe/STIM_008.jpg
829.659	1.626	correct	observe	Run1	observe/STIM_008.jpg
835.208	1.389	correct	observe	Run1	observe/STIM_008.jpg
840.561	0.947	correct	observe	Run1	observe/STIM_008.jpg
844.611	1.438	correct	observe	Run1	observe/STIM_009.jpg
848.653	0.928	correct	observe	Run1	observe/STIM_009.jpg
852.573	1.527	correct	observe	Run1	observe/STIM_009.jpg
857.489	1.62	incorrect	observe	Run1	observe/STIM_009.jpg
862.939	1.134	correct	observe	Run1	observe/STIM_010.jpg
867.028	1.269	incorrect	observe	Run1	observe/STIM_010.jpg
871.446	1.726	correct	observe	Run1	observe/STIM_010.jpg
875.725	1.575	correct	observe	Run1	observe/STIM_010.jpg
879.482	1.1	correct	observe	Run1	observe/STIM_011.jpg
882.953	1.106	correct	observe	Run1	observe/STIM_011.jpg
887.075	1.021	correct	observe	Run1	observe/STIM_011.jpg
890.742	1.783	incorrect	observe	Run1	observe/STIM_011.jpg
895.73	1.522	correct	observe	Run1	observe/STIM_012.jpg
901.004	1.276	correct	observe	Run1	observe/STIM_012.jpg
904.527	1.007	correct	observe	Run1	observe/STIM_012.jpg
907.621	1.651	correct	observe	Run1	observe/STIM_012.jpg
912.982	1.738	correct	observe	Run1	observe/STIM_013.jpg
917.558	1.718	correct	observe	Run1	observe/STIM_013.jpg
923.272	1.755	correct	observe	Run1	observe/STIM_013.jpg
927.74	0.996	correct	observe	Run1	observe/STIM_013.jpg
931.623	1.408	correct	observe	Run1	observe/STIM_014.jpg
936.67	1.442	incorrect	observe	Run1	observe/STIM_014.jpg
940.17	1.628	correct	observe	Run1	observe/STIM_014.jpg
944.812	1.516	correct	observe	Run1	observe/STIM_014.jpg
948.818	1.691	correct	observe	Run1	observe/STIM_015.jpg
953.87	0.925	correct	observe	Run1	observe/STIM_015.jpg
956.886	1.218	correct	observe	Run1	observe/STIM_015.jpg
961.452	1.204	correct	observe	Run1	observe/STIM_015.jpg
965.549	1.341	correct	observe	Run1	observe/STIM_016.jpg
969.793	1.661	correct	observe	Run1	observe/STIM_016.jpg
974.912	1.694	correct	observe	Run1	observe/STIM_016.jpg
979.752	0.959	correct	observe	Run1	observe/STIM_016.jpg
983.746	0.947	correct	observe	Run1	observe/STIM_017.jpg
988.646	1.623	correct	observe	Run1	observe/STIM_017.jpg
994.195	1.828	incorrect	observe	Run1	observe/STIM_017.jpg
998.72	1.511	correct	observe	Run1	observe/STIM_017.jpg
1003.232	0.93	correct	observe	Run1	observe/STIM_018.jpg
1006.376	1.422	correct	observe	Run1	observe/STIM_018.jpg
1010.29	1.397	correct	observe	Run1	observe/STIM_018.jpg
1013.963	1.607	incorrect	observe	Run1	observe/STIM_018.jpg
1019.105	1.25	correct	observe	Run1	observe/STIM_019.jpg
1023.86	1.238	correct	observe	Run1	observe/STIM_019.jpg
1027.777	1.099	correct	observe	Run1	observe/STIM_019.jpg
1030.975	1.745	correct	observe	Run1	observe/STIM_019.jpg
1035.117	2.094	correct	regulate	Run2	regulate/STIM_000.jpg
1039.685	2.994	correct	regulate	Run2	regulate/STIM_000.jpg
1046.044	1.327	incorrect	regulate	Run2	regulate/STIM_000.jpg
1050.239	1.267	correct	regulate	Run2	regulate/STIM_000.jpg
1055.409	3.26	correct	regulate	Run2	regulate/STIM_001.jpg
1062.604	2.884	correct	regulate	Run2	regulate/STIM_001.jpg
1068.567	1.869	correct	regulate	Run2	regulate/STIM_001.jpg
1073.527	2.279	incorrect	regulate	Run2	regulate/STIM_001.jpg
1079.611	2.968	correct	regulate	Run2	regulate/STIM_002.jpg
1084.914	1.924	correct	regulate	Run2	regulate/STIM_002.jpg
1089.786	2.754	correct	regulate	Run2	regulate/STIM_002.jpg
1094.988	2.616	correct	regulate	Run2	regulate/STIM_002.jpg
1100.582	3.232	correct	regulate	Run2	regulate/STIM_003.jpg
1107.642	3.107	correct	regulate	Run2	regulate/STIM_003.jpg
1113.428	1.472	incorrect	regulate	Run2	regulate/STIM_003.jpg
1117.653	2.036	incorrect	regulate	Run2	regulate/STIM_003.jpg
1123.363	2.26	correct	regulate	Run2	regulate/STIM_004.jpg
1127.894	2.006	correct	regulate	Run2	regulate/STIM_004.jpg
1133.091	2.822	correct	regulate	Run2	regulate/STIM_004.jpg
1138.169	2.411	correct	regulate	Run2	regulate/STIM_004.jpg
1144.006	2.157	correct	regulate	Run2	regulate/STIM_005.jpg
1148.897	1.798	correct	regulate	Run2	regulate/STIM_005.jpg
1154.16	2.114	correct	regulate	Run2	regulate/STIM_005.jpg
1159.253	2.193	correct	regulate	Run2	regulate/STIM_005.jpg
1165.326	1.779	correct	regulate	Run2	regulate/STIM_006.jpg
1170.513	1.716	correct	regulate	Run2	regulate/STIM_006.jpg
1174.378	1.901	correct	regulate	Run2	regulate/STIM_006.jpg
1178.752	2.037	incorrect	regulate	Run2	regulate/STIM_006.jpg
1184.313	2.237	incorrect	regulate	Run2	regulate/STIM_007.jpg
1189.156	1.454	correct	regulate	Run2	regulate/STIM_007.jpg
1193.069	2.88	correct	regulate	Run2	regulate/STIM_007.jpg
1198.555	1.832	correct	regulate	Run2	regulate/STIM_007.jpg
1204.249	2.605	correct	regulate	Run2	regulate/STIM_008.jpg
1210.344	2.38	correct	regulate	Run2	regulate/STIM_008.jpg
1214.918	2.617	incorrect	regulate	Run2	regulate/STIM_008.jpg
1220.613	2.473	correct	regulate	Run2	regulate/STIM_008.jpg
1225.667	1.62	correct	regulate	Run2	regulate/STIM_009.jpg
1231.256	2.955	correct	regulate	Run2	regulate/STIM_009.jpg
1238.061	1.336	incorrect	regulate	Run2	regulate/STIM_009.jpg
1241.877	1.661	correct	regulate	Run2	regulate/STIM_009.jpg
1246.39	3.138	correct	regulate	Run2	regulate/STIM_010.jpg
1253.411	2.999	correct	regulate	Run2	regulate/STIM_010.jpg
1259.253	1.497	correct	regulate	Run2	regulate/STIM_010.jpg
1264.062	1.766	correct	regulate	Run2	regulate/STIM_010.jpg
1269.108	1.83	incorrect	regulate	Run2	regulate/STIM_011.jpg
1273.963	1.447	incorrect	regulate	Run2	regulate/STIM_011.jpg
1278.98	1.407	correct	regulate	Run2	regulate/STIM_011.jpg
1282.553	2.212	correct	regulate	Run2	regulate/STIM_011.jpg
1287.696	3.027	correct	regulate	Run2	regulate/STIM_012.jpg
1293.273	2.285	correct	regulate	Run2	regulate/STIM_012.jpg
1297.962	2.594	correct	regulate	Run2	regulate/STIM_012.jpg
1304.528	1.453	correct	regulate	Run2	regulate/STIM_012.jpg
1308.245	2.804	correct	regulate	Run2	regulate/STIM_013.jpg
1313.622	2.517	correct	regulate	Run2	regulate/STIM_013.jpg
1319.083	2.721	correct	regulate	Run2	regulate/STIM_013.jpg
1325.578	1.312	correct	regulate	Run2	regulate/STIM_013.jpg
1330.217	1.933	correct	regulate	Run2	regulate/STIM_014.jpg
1334.621	2.409	correct	regulate	Run2	regulate/STIM_014.jpg
1340.29	1.544	correct	regulate	Run2	regulate/STIM_014.jpg
1345.384	2.119	correct	regulate	Run2	regulate/STIM_014.jpg
1350.879	2.227	correct	regulate	Run2	regulate/STIM_015.jpg
1356.597	3.143	correct	regulate	Run2	regulate/STIM_015.jpg
1362.759	2.01	incorrect	regulate	Run2	regulate/STIM_015.jpg
1367.277	2.259	correct	regulate	Run2	regulate/STIM_015.jpg
1371.827	2.276	correct	regulate	Run2	regulate/STIM_016.jpg
1377.614	1.491	incorrect	regulate	Run2	regulate/STIM_016.jpg
1382.411	1.436	correct	regulate	Run2	regulate/STIM_016.jpg
1386.516	2.233	correct	regulate	Run2	regulate/STIM_016.jpg
1391.51	1.882	correct	regulate	Run2	regulate/STIM_017.jpg
1396.116	2.802	correct	regulate	Run2	regulate/STIM_017.jpg
1402.14	2.371	correct	regulate	Run2	regulate/STIM_017.jpg
1408.371	2.556	correct	regulate	Run2	regulate/STIM_017.jpg
1414.322	2.416	correct	regulate	Run2	regulate/STIM_018.jpg
1420.696	2.924	correct	regulate	Run2	regulate/STIM_018.jpg
1427.066	2.744	incorrect	regulate	Run2	regulate/STIM_018.jpg
1433.691	2.623	correct	regulate	Run2	regulate/STIM_018.jpg
1438.462	2.081	correct	regulate	Run2	regulate/STIM_019.jpg
1444.354	2.298	correct	regulate	Run2	regulate/STIM_019.jpg
1448.856	2.841	correct	regulate	Run2	regulate/STIM_019.jpg
1454.293	1.414	correct	regulate	Run2	regulate/STIM_019.jpg
1459.094	2.415	correct	regulate	Run2	regulate/STIM_020.jpg
1465.251	1.931	correct	regulate	Run2	regulate/STIM_020.jpg
1470.263	1.562	correct	regulate	Run2	regulate/STIM_020.jpg
1474.97	2.349	correct	regulate	Run2	regulate/STIM_020.jpg
1479.894	1.758	incorrect	regulate	Run2	regulate/STIM_021.jpg
1483.781	3.073	correct	regulate	Run2	regulate/STIM_021.jpg
1489.515	2.051	correct	regulate	Run2	regulate/STIM_021.jpg
1495.311	2.786	correct	regulate	Run2	regulate/STIM_021.jpg
1500.313	1.768	incorrect	regulate	Run2	regulate/STIM_022.jpg
1505.115	2.817	incorrect	regulate	Run2	regulate/STIM_022.jpg
1511.44	2.038	correct	regulate	Run2	regulate/STIM_022.jpg
1517.266	1.324	correct	regulate	Run2	regulate/STIM_022.jpg
1520.879	2.909	correct	regulate	Run2	regulate/STIM_023.jpg
1526.691	2.709	incorrect	regulate	Run2	regulate/STIM_023.jpg
1532.058	1.9	incorrect	regulate	Run2	regulate/STIM_023.jpg
1537.525	2.022	correct	regulate	Run2	regulate/STIM_023.jpg
1542.2	1.497	incorrect	regulate	Run2	regulate/STIM_024.jpg
1547.078	2.224	correct	regulate	Run2	regulate/STIM_024.jpg
1553.023	1.832	correct	regulate	Run2	regulate/STIM_024.jpg
1557.217	2.817	correct	regulate	Run2	regulate/STIM_024.jpg
1563.152	1.571	correct	regulate	Run2	regulate/STIM_025.jpg
1568.612	2.229	correct	regulate	Run2	regulate/STIM_025.jpg
1572.983	1.414	correct	regulate	Run2	regulate/STIM_025.jpg
1577.674	1.257	correct	regulate	Run2	regulate/STIM_025.jpg
1582.602	2.304	correct	regulate	Run2	regulate/STIM_026.jpg
1587.466	1.575	correct	regulate	Run2	regulate/STIM_026.jpg
1593.026	2.576	correct	regulate	Run2	regulate/STIM_026.jpg
1598.176	1.458	correct	regulate	Run2	regulate/STIM_026.jpg
1603.02	3.33	incorrect	regulate	Run2	regulate/STIM_027.jpg
1608.94	2.652	correct	regulate	Run2	regulate/STIM_027.jpg
1615.576	1.485	correct	regulate	Run2	regulate/STIM_027.jpg
1620.65	1.729	correct	regulate	Run2	regulate/STIM_027.jpg
1625.855	1.635	correct	regulate	Run2	regulate/STIM_028.jpg
1630.13	1.682	correct	regulate	Run2	regulate/STIM_028.jpg
1635.626	1.562	correct	regulate	Run2	regulate/STIM_028.jpg
1640.401	2.253	correct	regulate	Run2	regulate/STIM_028.jpg
1646.595	1.502	correct	regulate	Run2	regulate/STIM_029.jpg
1650.146	1.646	incorrect	regulate	Run2	regulate/STIM_029.jpg
1655.353	2.757	correct	regulate	Run2	regulate/STIM_029.jpg
1661.662	2.449	correct	regulate	Run2	regulate/STIM_029.jpg
1667.47	0.944	correct	observe	Run2	observe/STIM_000.jpg
1670.45	1.652	correct	observe	Run2	observe/STIM_000.jpg
1675.739	1.286	correct	observe	Run2	observe/STIM_000.jpg
1680.974	1.732	incorrect	observe	Run2	observe/STIM_000.jpg
1686.032	0.92	correct	observe	Run2	observe/STIM_001.jpg
1689.317	1.664	correct	observe	Run2	observe/STIM_001.jpg
1693.385	1.369	correct	observe	Run2	observe/STIM_001.jpg
1697.0	1.696	correct	observe	Run2	observe/STIM_001.jpg
1702.265	1.813	correct	observe	Run2	observe/STIM_002.jpg
1707.084	1.465	correct	observe	Run2	observe/STIM_002.jpg
1712.129	0.946	correct	observe	Run2	observe/STIM_002.jpg
1716.633	1.001	incorrect	observe	Run2	observe/STIM_002.jpg
1719.769	0.929	incorrect	observe	Run2	observe/STIM_003.jpg
1724.311	1.75	correct	observe	Run2	observe/STIM_003.jpg
1728.122	1.387	correct	observe	Run2	observe/STIM_003.jpg
1733.066	1.346	correct	observe	Run2	observe/STIM_003.jpg
1737.089	1.82	correct	observe	Run2	observe/STIM_004.jpg
1740.935	1.803	correct	observe	Run2	observe/STIM_004.jpg
1745.227	1.125	correct	observe	Run2	observe/STIM_004.jpg
1748.832	0.976	correct	observe	Run2	observe/STIM_004.jpg
1751.816	1.606	correct	observe	Run2	observe/STIM_005.jpg
1755.498	1.642	incorrect	observe	Run2	observe/STIM_005.jpg
1760.542	1.146	correct	observe	Run2	observe/STIM_005.jpg
1765.249	1.603	correct	observe	Run2	observe/STIM_005.jpg
1769.411	1.536	correct	observe	Run2	observe/STIM_006.jpg
1773.902	1.007	correct	observe	Run2	observe/STIM_006.jpg
1778.559	1.775	incorrect	observe	Run2	observe/STIM_006.jpg
1782.8	0.943	correct	observe	Run2	observe/STIM_006.jpg
1786.82	1.026	correct	observe	Run2	observe/STIM_007.jpg
1790.21	1.05	incorrect	observe	Run2	observe/STIM_007.jpg
1794.846	1.774	incorrect	observe	Run2	observe/STIM_007.jpg
1798.821	1.531	correct	observe	Run2	observe/STIM_007.jpg
1802.407	1.025	correct	observe	Run2	observe/STIM_008.jpg
1805.664	1.016	incorrect	observe	Run2	observe/STIM_008.jpg
1809.729	1.622	correct	observe	Run2	observe/STIM_008.jpg
1813.516	1.8	correct	observe	Run2	observe/STIM_008.jpg
1817.623	1.216	correct	observe	Run2	observe/STIM_009.jpg
1821.463	1.555	correct	observe	Run2	observe/STIM_009.jpg
1826.061	1.817	correct	observe	Run2	observe/STIM_009.jpg
1830.703	1.034	correct	observe	Run2	observe/STIM_009.jpg
1834.143	1.044	correct	observe	Run2	observe/STIM_010.jpg
1838.984	1.651	correct	observe	Run2	observe/STIM_010.jpg
1843.092	0.975	correct	observe	Run2	observe/STIM_010.jpg
1847.83	1.736	correct	observe	Run2	observe/STIM_010.jpg
1853.525	1.57	correct	observe	Run2	observe/STIM_011.jpg
1857.489	1.118	correct	observe	Run2	observe/STIM_011.jpg
1862.193	0.954	correct	observe	Run2	observe/STIM_011.jpg
1865.792	1.786	correct	observe	Run2	observe/STIM_011.jpg
1870.5	1.128	correct	observe	Run2	observe/STIM_012.jpg
1873.857	1.153	correct	observe	Run2	observe/STIM_012.jpg
1877.902	1.319	correct	observe	Run2	observe/STIM_012.jpg
1881.682	1.517	correct	observe	Run2	observe/STIM_012.jpg
1886.079	1.538	correct	observe	Run2	observe/STIM_013.jpg
1889.666	1.798	correct	observe	Run2	observe/STIM_013.jpg
1893.55	1.292	correct	observe	Run2	observe/STIM_013.jpg
1898.511	1.154	correct	observe	Run2	observe/STIM_013.jpg
1902.206	1.044	correct	observe	Run2	observe/STIM_014.jpg
1906.802	1.168	correct	observe	Run2	observe/STIM_014.jpg
1911.412	1.254	correct	observe	Run2	observe/STIM_014.jpg
1915.064	1.773	correct	observe	Run2	observe/STIM_014.jpg
1920.69	1.365	correct	observe	Run2	observe/STIM_015.jpg
1925.748	1.049	correct	observe	Run2	observe/STIM_015.jpg
1929.344	1.114	correct	observe	Run2	observe/STIM_015.jpg
1932.673	1.572	correct	observe	Run2	observe/STIM_015.jpg
1937.833	1.179	correct	observe	Run2	observe/STIM_016.jpg
1941.12	1.611	correct	observe	Run2	observe/STIM_016.jpg
1945.44	1.438	correct	observe	Run2	observe/STIM_016.jpg
1950.189	1.054	incorrect	observe	Run2	observe/STIM_016.jpg
1953.453	1.438	correct	observe	Run2	observe/STIM_017.jpg
1957.852	1.486	correct	observe	Run2	observe/STIM_017.jpg
1962.112	1.233	correct	observe	Run2	observe/STIM_017.jpg
1965.877	1.532	correct	observe	Run2	observe/STIM_017.jpg
1970.638	1.714	correct	observe	Run2	observe/STIM_018.jpg
1975.157	1.735	incorrect	observe	Run2	observe/STIM_018.jpg
1980.534	1.619	correct	observe	Run2	observe/STIM_018.jpg
1984.281	1.78	incorrect	observe	Run2	observe/STIM_018.jpg
1988.541	1.106	correct	observe	Run2	observe/STIM_019.jpg
1993.275	1.068	correct	observe	Run2	observe/STIM_019.jpg
1998.189	1.664	correct	observe	Run2	observe/STIM_019.jpg
2002.787	1.535	correct	observe	Run2	observe/STIM_019.jpg
2007.909	2.681	correct	regulate	Run3	regulate/STIM_000.jpg
2013.293	1.987	correct	regulate	Run3	regulate/STIM_000.jpg
2018.193	1.936	correct	regulate	Run3	regulate/STIM_000.jpg
2023.466	2.337	correct	regulate	Run3	regulate/STIM_000.jpg
2028.959	2.617	correct	regulate	Run3	regulate/STIM_001.jpg
2033.877	2.317	correct	regulate	Run3	regulate/STIM_001.jpg
2038.653	1.651	correct	regulate	Run3	regulate/STIM_001.jpg
2043.252	1.515	correct	regulate	Run3	regulate/STIM_001.jpg
2048.043	1.318	correct	regulate	Run3	regulate/STIM_002.jpg
2052.394	1.449	correct	regulate	Run3	regulate/STIM_002.jpg
2057.3	1.745	correct	regulate	Run3	regulate/STIM_002.jpg
2062.48	1.395	correct	regulate	Run3	regulate/STIM_002.jpg
2066.276	2.369	incorrect	regulate	Run3	regulate/STIM_003.jpg
2072.45	2.205	incorrect	regulate	Run3	regulate/STIM_003.jpg
2078.561	1.329	correct	regulate	Run3	regulate/STIM_003.jpg
2083.138	2.775	correct	regulate	Run3	regulate/STIM_003.jpg
2088.632	2.294	correct	regulate	Run3	regulate/STIM_004.jpg
2093.919	2.418	correct	regulate	Run3	regulate/STIM_004.jpg
2099.975	2.143	correct	regulate	Run3	regulate/STIM_004.jpg
2104.714	2.066	correct	regulate	Run3	regulate/STIM_004.jpg
2110.719	2.054	correct	regulate	Run3	regulate/STIM_005.jpg
2115.985	2.032	correct	regulate	Run3	regulate/STIM_005.jpg
2121.364	2.269	correct	regulate	Run3	regulate/STIM_005.jpg
2125.797	2.061	correct	regulate	Run3	regulate/STIM_005.jpg
2131.062	2.391	correct	regulate	Run3	regulate/STIM_006.jpg
2135.646	1.634	correct	regulate	Run3	regulate/STIM_006.jpg
2139.463	2.763	correct	regulate	Run3	regulate/STIM_006.jpg
2145.03	1.582	correct	regulate	Run3	regulate/STIM_006.jpg
2149.763	1.924	correct	regulate	Run3	regulate/STIM_007.jpg
2155.446	2.365	correct	regulate	Run3	regulate/STIM_007.jpg
2160.117	2.673	incorrect	regulate	Run3	regulate/STIM_007.jpg
2165.067	2.568	correct	regulate	Run3	regulate/STIM_007.jpg
2169.773	1.57	correct	regulate	Run3	regulate/STIM_008.jpg
2173.956	1.462	correct	regulate	Run3	regulate/STIM_008.jpg
2177.558	2.523	correct	regulate	Run3	regulate/STIM_008.jpg
2182.582	2.716	correct	regulate	Run3	regulate/STIM_008.jpg
2187.522	1.911	correct	regulate	Run3	regulate/STIM_009.jpg
2193.266	2.682	incorrect	regulate	Run3	regulate/STIM_009.jpg
2199.279	2.514	correct	regulate	Run3	regulate/STIM_009.jpg
2204.064	2.446	correct	regulate	Run3	regulate/STIM_009.jpg
2208.851	1.719	correct	regulate	Run3	regulate/STIM_010.jpg
2213.253	2.372	correct	regulate	Run3	regulate/STIM_010.jpg
2218.848	2.275	correct	regulate	Run3	regulate/STIM_010.jpg
2224.847	1.784	correct	regulate	Run3	regulate/STIM_010.jpg
2230.249	2.712	correct	regulate	Run3	regulate/STIM_011.jpg
2234.963	2.572	correct	regulate	Run3	regulate/STIM_011.jpg
2241.001	2.283	correct	regulate	Run3	regulate/STIM_011.jpg
2245.877	2.391	correct	regulate	Run3	regulate/STIM_011.jpg
2251.214	1.978	correct	regulate	Run3	regulate/STIM_012.jpg
2256.263	2.007	correct	regulate	Run3	regulate/STIM_012.jpg
2260.992	2.531	correct	regulate	Run3	regulate/STIM_012.jpg
2265.608	1.828	correct	regulate	Run3	regulate/STIM_012.jpg
2270.459	2.077	incorrect	regulate	Run3	regulate/STIM_013.jpg
2276.46	1.789	correct	regulate	Run3	regulate/STIM_013.jpg
2282.001	2.625	correct	regulate	Run3	regulate/STIM_013.jpg
2286.781	1.433	correct	regulate	Run3	regulate/STIM_013.jpg
2290.919	2.036	correct	regulate	Run3	regulate/STIM_014.jpg
2296.123	2.09	correct	regulate	Run3	regulate/STIM_014.jpg
2301.256	1.658	correct	regulate	Run3	regulate/STIM_014.jpg
2305.769	1.8	correct	regulate	Run3	regulate/STIM_014.jpg
2309.858	2.063	correct	regulate	Run3	regulate/STIM_015.jpg
2314.943	2.386	correct	regulate	Run3	regulate/STIM_015.jpg
2320.573	2.433	correct	regulate	Run3	regulate/STIM_015.jpg
2326.373	2.414	correct	regulate	Run3	regulate/STIM_015.jpg
2331.297	2.347	correct	regulate	Run3	regulate/STIM_016.jpg
2336.852	2.12	correct	regulate	Run3	regulate/STIM_016.jpg
2341.484	1.624	correct	regulate	Run3	regulate/STIM_016.jpg
2345.283	2.577	correct	regulate	Run3	regulate/STIM_016.jpg
2351.016	2.248	correct	regulate	Run3	regulate/STIM_017.jpg
2356.65	2.117	correct	regulate	Run3	regulate/STIM_017.jpg
2362.459	2.684	correct	regulate	Run3	regulate/STIM_017.jpg
2369.123	1.361	correct	regulate	Run3	regulate/STIM_017.jpg
2373.602	2.529	incorrect	regulate	Run3	regulate/STIM_018.jpg
2378.501	2.09	correct	regulate	Run3	regulate/STIM_018.jpg
2384.153	1.485	correct	regulate	Run3	regulate/STIM_018.jpg
2388.545	1.832	incorrect	regulate	Run3	regulate/STIM_018.jpg
2393.062	2.15	correct	regulate	Run3	regulate/STIM_019.jpg
2398.661	2.302	correct	regulate	Run3	regulate/STIM_019.jpg
2403.307	2.406	correct	regulate	Run3	regulate/STIM_019.jpg
2408.753	1.708	correct	regulate	Run3	regulate/STIM_019.jpg
2413.997	1.217	correct	regulate	Run3	regulate/STIM_020.jpg
2417.577	1.413	correct	regulate	Run3	regulate/STIM_020.jpg
2422.425	2.434	correct	regulate	Run3	regulate/STIM_020.jpg
2426.887	1.426	correct	regulate	Run3	regulate/STIM_020.jpg
2431.661	1.638	correct	regulate	Run3	regulate/STIM_021.jpg
2435.371	2.295	correct	regulate	Run3	regulate/STIM_021.jpg
2439.972	1.319	correct	regulate	Run3	regulate/STIM_021.jpg
2444.885	1.646	incorrect	regulate	Run3	regulate/STIM_021.jpg
2449.287	1.691	correct	regulate	Run3	regulate/STIM_022.jpg
2453.556	2.014	correct	regulate	Run3	regulate/STIM_022.jpg
2458.853	1.371	correct	regulate	Run3	regulate/STIM_022.jpg
2463.984	2.105	correct	regulate	Run3	regulate/STIM_022.jpg
2468.968	1.957	correct	regulate	Run3	regulate/STIM_023.jpg
2474.639	2.39	correct	regulate	Run3	regulate/STIM_023.jpg
2479.821	2.506	incorrect	regulate	Run3	regulate/STIM_023.jpg
2485.261	1.953	correct	regulate	Run3	regulate/STIM_023.jpg
2489.585	2.412	correct	regulate	Run3	regulate/STIM_024.jpg
2495.066	2.485	correct	regulate	Run3	regulate/STIM_024.jpg
2501.452	2.049	correct	regulate	Run3	regulate/STIM_024.jpg
2506.766	2.077	correct	regulate	Run3	regulate/STIM_024.jpg
2512.008	2.799	correct	regulate	Run3	regulate/STIM_025.jpg
2518.101	2.26	correct	regulate	Run3	regulate/STIM_025.jpg
2524.082	2.236	correct	regulate	Run3	regulate/STIM_025.jpg
2529.492	2.076	correct	regulate	Run3	regulate/STIM_025.jpg
2535.453	2.253	correct	regulate	Run3	regulate/STIM_026.jpg
2540.384	1.429	correct	regulate	Run3	regulate/STIM_026.jpg
2544.914	2.007	correct	regulate	Run3	regulate/STIM_026.jpg
2550.06	2.518	correct	regulate	Run3	regulate/STIM_026.jpg
2555.206	2.2	correct	regulate	Run3	regulate/STIM_027.jpg
2560.551	1.279	correct	regulate	Run3	regulate/STIM_027.jpg
2564.229	1.984	correct	regulate	Run3	regulate/STIM_027.jpg
2569.994	1.615	correct	regulate	Run3	regulate/STIM_027.jpg
2574.396	1.938	correct	regulate	Run3	regulate/STIM_028.jpg
2579.885	2.587	correct	regulate	Run3	regulate/STIM_028.jpg
2585.529	1.365	correct	regulate	Run3	regulate/STIM_028.jpg
2589.532	2.189	correct	regulate	Run3	regulate/STIM_028.jpg
2594.858	2.379	correct	regulate	Run3	regulate/STIM_029.jpg
2599.885	1.292	correct	regulate	Run3	regulate/STIM_029.jpg
2603.307	1.245	correct	regulate	Run3	regulate/STIM_029.jpg
2607.569	1.672	correct	regulate	Run3	regulate/STIM_029.jpg
2612.487	1.12	correct	observe	Run3	observe/STIM_000.jpg
2617.285	1.572	correct	observe	Run3	observe/STIM_000.jpg
2621.558	1.823	incorrect	observe	Run3	observe/STIM_000.jpg
2627.191	1.107	correct	observe	Run3	observe/STIM_000.jpg
2631.133	1.74	correct	observe	Run3	observe/STIM_001.jpg
2636.183	0.935	correct	observe	Run3	observe/STIM_001.jpg
2641.039	1.032	correct	observe	Run3	observe/STIM_001.jpg
2644.794	1.125	correct	observe	Run3	observe/STIM_001.jpg
2649.139	1.823	correct	observe	Run3	observe/STIM_002.jpg
2654.35	1.74	correct	observe	Run3	observe/STIM_002.jpg
2659.712	1.262	correct	observe	Run3	observe/STIM_002.jpg
2664.024	1.542	correct	observe	Run3	observe/STIM_002.jpg
2667.701	1.403	correct	observe	Run3	observe/STIM_003.jpg
2672.525	1.242	correct	observe	Run3	observe/STIM_003.jpg
2677.254	1.266	correct	observe	Run3	observe/STIM_003.jpg
2680.893	1.328	correct	observe	Run3	observe/STIM_003.jpg
2684.903	1.055	correct	observe	Run3	observe/STIM_004.jpg
2688.665	1.293	correct	observe	Run3	observe/STIM_004.jpg
2693.327	1.219	correct	observe	Run3	observe/STIM_004.jpg
2697.401	1.546	correct	observe	Run3	observe/STIM_004.jpg
2702.756	1.154	correct	observe	Run3	observe/STIM_005.jpg
2706.177	1.397	correct	observe	Run3	observe/STIM_005.jpg
2711.274	1.594	correct	observe	Run3	observe/STIM_005.jpg
2716.074	1.71	correct	observe	Run3	observe/STIM_005.jpg
2719.839	1.296	correct	observe	Run3	observe/STIM_006.jpg
2724.22	1.132	correct	observe	Run3	observe/STIM_006.jpg
2727.708	1.154	correct	observe	Run3	observe/STIM_006.jpg
2732.514	1.396	correct	observe	Run3	observe/STIM_006.jpg
2737.541	1.26	correct	observe	Run3	observe/STIM_007.jpg
2741.448	1.345	incorrect	observe	Run3	observe/STIM_007.jpg
2744.94	1.512	correct	observe	Run3	observe/STIM_007.jpg
2750.013	1.323	correct	observe	Run3	observe/STIM_007.jpg
2754.411	1.723	correct	observe	Run3	observe/STIM_008.jpg
2759.46	1.59	correct	observe	Run3	observe/STIM_008.jpg
2763.549	1.7	correct	observe	Run3	observe/STIM_008.jpg
2767.647	1.443	correct	observe	Run3	observe/STIM_008.jpg
2772.649	1.173	correct	observe	Run3	observe/STIM_009.jpg
2776.831	1.316	correct	observe	Run3	observe/STIM_009.jpg
2781.83	1.813	correct	observe	Run3	observe/STIM_009.jpg
2787.221	0.974	correct	observe	Run3	observe/STIM_009.jpg
2791.587	1.731	correct	observe	Run3	observe/STIM_010.jpg
2795.428	1.629	incorrect	observe	Run3	observe/STIM_010.jpg
2799.89	1.164	correct	observe	Run3	observe/STIM_010.jpg
2803.159	0.974	correct	observe	Run3	observe/STIM_010.jpg
2807.722	1.657	correct	observe	Run3	observe/STIM_011.jpg
2812.054	1.524	correct	observe	Run3	observe/STIM_011.jpg
2816.899	1.63	correct	observe	Run3	observe/STIM_011.jpg
2822.38	1.309	correct	observe	Run3	observe/STIM_011.jpg
2826.209	0.925	correct	observe	Run3	observe/STIM_012.jpg
2829.168	1.604	correct	observe	Run3	observe/STIM_012.jpg
2834.286	1.812	correct	observe	Run3	observe/STIM_012.jpg
2839.101	1.763	incorrect	observe	Run3	observe/STIM_012.jpg
2844.103	0.99	correct	observe	Run3	observe/STIM_013.jpg
2848.799	1.524	correct	observe	Run3	observe/STIM_013.jpg
2852.715	1.39	correct	observe	Run3	observe/STIM_013.jpg
2857.293	1.687	correct	observe	Run3	observe/STIM_013.jpg
2861.276	1.802	correct	observe	Run3	observe/STIM_014.jpg
2866.152	1.172	correct	observe	Run3	observe/STIM_014.jpg
2870.466	1.533	correct	observe	Run3	observe/STIM_014.jpg
2874.225	0.997	incorrect	observe	Run3	observe/STIM_014.jpg
2878.354	1.519	correct	observe	Run3	observe/STIM_015.jpg
2882.294	1.721	correct	observe	Run3	observe/STIM_015.jpg
2887.799	1.839	correct	observe	Run3	observe/STIM_015.jpg
2892.525	1.459	correct	observe	Run3	observe/STIM_015.jpg
2896.653	1.288	correct	observe	Run3	observe/STIM_016.jpg
2901.655	0.978	incorrect	observe	Run3	observe/STIM_016.jpg
2905.596	1.394	correct	observe	Run3	observe/STIM_016.jpg
2910.072	1.096	incorrect	observe	Run3	observe/STIM_016.jpg
2914.508	1.178	correct	observe	Run3	observe/STIM_017.jpg
2919.124	1.596	incorrect	observe	Run3	observe/STIM_017.jpg
2924.292	1.498	incorrect	observe	Run3	observe/STIM_017.jpg
2929.086	1.728	correct	observe	Run3	observe/STIM_017.jpg
2933.874	1.149	correct	observe	Run3	observe/STIM_018.jpg
2937.981	0.96	correct	observe	Run3	observe/STIM_018.jpg
2942.146	1.473	correct	observe	Run3	observe/STIM_018.jpg
2946.075	1.709	correct	observe	Run3	observe/STIM_018.jpg
2951.015	1.168	correct	observe	Run3	observe/STIM_019.jpg
2955.064	1.172	correct	observe	Run3	observe/STIM_019.jpg
2958.549	1.151	correct	observe	Run3	observe/STIM_019.jpg
2963.215	1.766	correct	observe	Run3	observe/STIM_019.jpg
