onset	duration	response_time_ms	trial_type	learning_stage	stimulus	response_port
0.0	1.766	1766.0	regulate	Run1	regulate/STIM_000.jpg	99
4.786	2.489	2488.6	regulate	Run1	regulate/STIM_000.jpg	100
11.136	1.831	1831.3	regulate	Run1	regulate/STIM_000.jpg	99
15.865	1.185	1185.3	regulate	Run1	regulate/STIM_000.jpg	100
19.239	1.623	1623.3	regulate	Run1	regulate/STIM_001.jpg	100
24.03	1.751	1751.2	regulate	Run1	regulate/STIM_001.jpg	99
29.572	1.683	1682.6	regulate	Run1	regulate/STIM_001.jpg	99
34.398	2.738	2738.5	regulate	Run1	regulate/STIM_001.jpg	99
40.869	2.73	2729.6	regulate	Run1	regulate/STIM_002.jpg	99
46.098	1.592	1592.4	regulate	Run1	regulate/STIM_002.jpg	99
51.58	2.444	2443.9	regulate	Run1	regulate/STIM_002.jpg	100
57.425	1.689	1688.8	regulate	Run1	regulate/STIM_002.jpg	100
62.328	3.033	3032.9	regulate	Run1	regulate/STIM_003.jpg	99
69.132	1.401	1401.3	regulate	Run1	regulate/STIM_003.jpg	99
73.859	1.37	1370.5	regulate	Run1	regulate/STIM_003.jpg	100
78.451	1.602	1602.2	regulate	Run1	regulate/STIM_003.jpg	100
82.939	2.314	2314.2	regulate	Run1	regulate/STIM_004.jpg	100
88.438	1.782	1781.8	regulate	Run1	regulate/STIM_004.jpg	100
93.641	2.136	2136.4	regulate	Run1	regulate/STIM_004.jpg	99
97.984	2.277	2277.4	regulate	Run1	regulate/STIM_004.jpg	99
104.163	1.559	1559.0	regulate	Run1	regulate/STIM_005.jpg	100
108.194	2.081	2080.8	regulate	Run1	regulate/STIM_005.jpg	100
113.868	1.76	1760.0	regulate	Run1	regulate/STIM_005.jpg	100
119.51	2.623	2623.1	regulate	Run1	regulate/STIM_005.jpg	100
125.401	2.94	2940.1	regulate	Run1	regulate/STIM_006.jpg	99
131.408	2.88	2880.2	regulate	Run1	regulate/STIM_006.jpg	99
138.514	2.65	2650.4	regulate	Run1	regulate/STIM_006.jpg	99
145.206	1.28	1280.0	regulate	Run1	regulate/STIM_006.jpg	100
149.597	1.552	1552.5	regulate	Run1	regulate/STIM_007.jpg	100
154.494	2.618	2618.3	regulate	Run1	regulate/STIM_007.jpg	99
160.754	2.476	2476.3	regulate	Run1	regulate/STIM_007.jpg	99
166.541	2.364	2363.9	regulate	Run1	regulate/STIM_007.jpg	100
171.652	3.061	3061.3	regulate	Run1	regulate/STIM_008.jpg	99
177.992	1.95	1950.0	regulate	Run1	regulate/STIM_008.jpg	99
183.616	1.44	1439.9	regulate	Run1	regulate/STIM_008.jpg	100
188.441	2.155	2154.7	regulate	Run1	regulate/STIM_008.jpg	100
193.114	2.743	2743.2	regulate	Run1	regulate/STIM_009.jpg	99
198.917	3.048	3048.1	regulate	Run1	regulate/STIM_009.jpg	99
204.597	1.328	1327.8	regulate	Run1	regulate/STIM_009.jpg	99
208.109	1.714	1714.2	regulate	Run1	regulate/STIM_009.jpg	99
212.077	3.188	3188.2	regulate	Run1	regulate/STIM_010.jpg	100
218.875	2.966	2965.8	regulate	Run1	regulate/STIM_010.jpg	99
224.185	2.183	2183.4	regulate	Run1	regulate/STIM_010.jpg	100
229.644	2.463	2463.1	regulate	Run1	regulate/STIM_010.jpg	99
235.471	2.125	2124.6	regulate	Run1	regulate/STIM_011.jpg	100
240.188	2.143	2143.4	regulate	Run1	regulate/STIM_011.jpg	99
245.864	2.452	2451.5	regulate	Run1	regulate/STIM_011.jpg	100
251.203	2.333	2333.0	regulate	Run1	regulate/STIM_011.jpg	100
256.129	2.847	2846.7	regulate	Run1	regulate/STIM_012.jpg	99
261.33	2.201	2201.0	regulate	Run1	regulate/STIM_012.jpg	100
267.527	1.743	1743.2	regulate	Run1	regulate/STIM_012.jpg	99
273.231	1.658	1657.8	regulate	Run1	regulate/STIM_012.jpg	99
278.634	2.435	2434.7	regulate	Run1	regulate/STIM_013.jpg	99
283.805	2.092	2091.6	regulate	Run1	regulate/STIM_013.jpg	99
288.961	1.699	1699.1	regulate	Run1	regulate/STIM_013.jpg	99
293.131	2.707	2707.1	regulate	Run1	regulate/STIM_013.jpg	100
299.624	3.148	3148.0	regulate	Run1	regulate/STIM_014.jpg	100
305.079	3.027	3026.9	regulate	Run1	regulate/STIM_014.jpg	99
311.164	1.588	1587.6	regulate	Run1	regulate/STIM_014.jpg	99
315.478	1.58	1579.5	regulate	Run1	regulate/STIM_014.jpg	100
320.523	1.947	1947.0	regulate	Run1	regulate/STIM_015.jpg	99
325.223	2.573	2573.4	regulate	Run1	regulate/STIM_015.jpg	100
331.299	2.059	2058.6	regulate	Run1	regulate/STIM_015.jpg	99
337.197	1.771	1771.4	regulate	Run1	regulate/STIM_015.jpg	99
342.223	1.517	1516.6	regulate	Run1	regulate/STIM_016.jpg	99
346.506	1.462	1462.2	regulate	Run1	regulate/STIM_016.jpg	99
350.293	1.782	1781.7	regulate	Run1	regulate/STIM_016.jpg	100
356.159	2.187	2187.2	regulate	Run1	regulate/STIM_016.jpg	100
361.071	3.211	3211.4	regulate	Run1	regulate/STIM_017.jpg	100
368.327	2.68	2680.3	regulate	Run1	regulate/STIM_017.jpg	99
373.419	1.755	1754.6	regulate	Run1	regulate/STIM_017.jpg	99
379.225	2.511	2511.0	regulate	Run1	regulate/STIM_017.jpg	100
384.265	1.57	1569.6	regulate	Run1	regulate/STIM_018.jpg	100
388.287	3.02	3020.2	regulate	Run1	regulate/STIM_018.jpg	100
394.352	2.258	2258.1	regulate	Run1	regulate/STIM_018.jpg	99
400.461	1.206	1205.6	regulate	Run1	regulate/STIM_018.jpg	100
404.332	2.146	2146.1	regulate	Run1	regulate/STIM_019.jpg	99
408.732	2.213	2212.7	regulate	Run1	regulate/STIM_019.jpg	100
414.609	1.875	1875.4	regulate	Run1	regulate/STIM_019.jpg	100
419.396	2.454	2453.6	regulate	Run1	regulate/STIM_019.jpg	100
424.543	2.662	2661.8	regulate	Run1	regulate/STIM_020.jpg	99
431.003	2.586	2586.4	regulate	Run1	regulate/STIM_020.jpg	100
436.626	2.794	2794.0	regulate	Run1	regulate/STIM_020.jpg	100
442.671	1.607	1607.3	regulate	Run1	regulate/STIM_020.jpg	99
447.534	2.517	2516.7	regulate	Run1	regulate/STIM_021.jpg	100
452.666	2.056	2055.6	regulate	Run1	regulate/STIM_021.jpg	99
457.101	1.524	1523.8	regulate	Run1	regulate/STIM_021.jpg	100
462.582	1.793	1793.3	regulate	Run1	regulate/STIM_021.jpg	100
467.259	2.915	2915.0	regulate	Run1	regulate/STIM_022.jpg	99
473.892	1.328	1327.7	regulate	Run1	regulate/STIM_022.jpg	99
478.416	2.837	2836.7	regulate	Run1	regulate/STIM_022.jpg	99
484.569	1.964	1963.6	regulate	Run1	regulate/STIM_022.jpg	100
490.625	3.169	3169.0	regulate	Run1	regulate/STIM_023.jpg	99
497.79	2.758	2758.3	regulate	Run1	regulate/STIM_023.jpg	100
504.076	2.691	2691.1	regulate	Run1	regulate/STIM_023.jpg	99
510.017	2.178	2178.3	regulate	Run1	regulate/STIM_023.jpg	100
516.036	3.034	3034.0	regulate	Run1	regulate/STIM_024.jpg	99
522.262	3.023	3023.3	regulate	Run1	regulate/STIM_024.jpg	100
529.225	1.394	1394.4	regulate	Run1	regulate/STIM_024.jpg	100
534.113	1.495	1494.9	regulate	Run1	regulate/STIM_024.jpg	99
538.133	1.448	1448.1	regulate	Run1	regulate/STIM_025.jpg	99
542.466	1.581	1581.3	regulate	Run1	regulate/STIM_025.jpg	99
547.849	1.326	1326.5	regulate	Run1	regulate/STIM_025.jpg	100
552.907	2.549	2548.9	regulate	Run1	regulate/STIM_025.jpg	100
558.543	2.326	2326.0	regulate	Run1	regulate/STIM_026.jpg	99
564.222	2.667	2667.3	regulate	Run1	regulate/STIM_026.jpg	100
569.834	1.693	1692.8	regulate	Run1	regulate/STIM_026.jpg	99
575.61	2.292	2292.3	regulate	Run1	regulate/STIM_026.jpg	100
580.134	2.85	2850.1	regulate	Run1	regulate/STIM_027.jpg	99
586.933	1.549	1549.4	regulate	Run1	regulate/STIM_027.jpg	99
592.024	1.278	1278.3	regulate	Run1	regulate/STIM_027.jpg	100
595.916	1.965	1965.1	regulate	Run1	regulate/STIM_027.jpg	99
601.412	1.86	1860.1	regulate	Run1	regulate/STIM_028.jpg	99
607.41	2.662	2661.6	regulate	Run1	regulate/STIM_028.jpg	100
612.83	1.632	1632.3	regulate	Run1	regulate/STIM_028.jpg	99
617.5	1.847	1846.7	regulate	Run1	regulate/STIM_028.jpg	99
621.809	2.463	2463.4	regulate	Run1	regulate/STIM_029.jpg	100
628.297	2.053	2053.1	regulate	Run1	regulate/STIM_029.jpg	100
633.705	1.435	1435.0	regulate	Run1	regulate/STIM_029.jpg	100
637.679	1.197	1196.9	regulate	Run1	regulate/STIM_029.jpg	99
642.058	1.467	1467.3	observe	Run1	observe/STIM_000.jpg	100
646.618	0.985	985.4	observe	Run1	observe/STIM_000.jpg	99
651.42	0.974	973.8	observe	Run1	observe/STIM_000.jpg	100
655.813	1.412	1411.8	observe	Run1	observe/STIM_000.jpg	100
660.541	1.241	1240.7	observe	Run1	observe/STIM_001.jpg	99
665.031	1.202	1201.7	observe	Run1	observe/STIM_001.jpg	99
669.671	1.083	1082.6	observe	Run1	observe/STIM_001.jpg	99
673.864	1.259	1259.2	observe	Run1	observe/STIM_001.jpg	100
679.094	1.466	1466.3	observe	Run1	observe/STIM_002.jpg	99
683.807	0.926	926.3	observe	Run1	observe/STIM_002.jpg	100
687.322	0.95	949.7	observe	Run1	observe/STIM_002.jpg	100
692.346	1.469	1469.4	observe	Run1	observe/STIM_002.jpg	100
696.278	1.109	1108.9	observe	Run1	observe/STIM_003.jpg	99
700.173	0.796	796.5	observe	Run1	observe/STIM_003.jpg	100
703.616	0.781	780.9	observe	Run1	observe/STIM_003.jpg	100
708.151	1.429	1429.3	observe	Run1	observe/STIM_003.jpg	99
711.853	0.772	772.5	observe	Run1	observe/STIM_004.jpg	99
714.983	0.868	867.5	observe	Run1	observe/STIM_004.jpg	99
717.92	1.386	1386.5	observe	Run1	observe/STIM_004.jpg	100
721.615	1.386	1386.4	observe	Run1	observe/STIM_004.jpg	100
726.75	0.858	858.1	observe	Run1	observe/STIM_005.jpg	99
730.175	0.776	776.0	observe	Run1	observe/STIM_005.jpg	99
734.605	1.116	1115.7	observe	Run1	observe/STIM_005.jpg	100
738.993	0.964	964.2	observe	Run1	observe/STIM_005.jpg	99
744.016	1.322	1321.5	observe	Run1	observe/STIM_006.jpg	99
749.235	0.763	763.3	observe	Run1	observe/STIM_006.jpg	100
752.937	1.172	1172.5	observe	Run1	observe/STIM_006.jpg	100
757.39	1.118	1117.6	observe	Run1	observe/STIM_006.jpg	100
761.417	0.96	959.6	observe	Run1	observe/STIM_007.jpg	99
764.928	0.86	860.4	observe	Run1	observe/STIM_007.jpg	100
768.229	1.196	1196.5	observe	Run1	observe/STIM_007.jpg	100
772.309	1.47	1470.5	observe	Run1	observe/STIM_007.jpg	100
777.298	0.916	915.8	observe	Run1	observe/STIM_008.jpg	100
781.496	0.856	856.1	observe	Run1	observe/STIM_008.jpg	99
785.843	1.02	1019.5	observe	Run1	observe/STIM_008.jpg	99
790.645	0.892	892.3	observe	Run1	observe/STIM_008.jpg	99
794.971	0.795	795.4	observe	Run1	observe/STIM_009.jpg	100
798.153	0.804	803.5	observe	Run1	observe/STIM_009.jpg	99
802.758	0.888	887.9	observe	Run1	observe/STIM_009.jpg	99
806.58	1.275	1275.0	observe	Run1	observe/STIM_009.jpg	99
811.9	1.161	1161.4	observe	Run1	observe/STIM_010.jpg	100
816.495	1.211	1210.7	observe	Run1	observe/STIM_010.jpg	99
820.244	1.26	1260.0	observe	Run1	observe/STIM_010.jpg	100
825.039	1.256	1256.1	observe	Run1	observe/STIM_010.jpg	99
829.848	0.869	868.7	observe	Run1	observe/STIM_011.jpg	99
834.269	0.935	934.6	observe	Run1	observe/STIM_011.jpg	100
838.142	1.204	1203.7	observe	Run1	observe/STIM_011.jpg	99
842.851	1.027	1026.6	observe	Run1	observe/STIM_011.jpg	100
847.647	0.829	828.9	observe	Run1	observe/STIM_012.jpg	100
850.642	1.231	1231.4	observe	Run1	observe/STIM_012.jpg	99
855.94	0.809	809.2	observe	Run1	observe/STIM_012.jpg	99
859.289	1.004	1004.3	observe	Run1	observe/STIM_012.jpg	100
863.938	1.311	1311.2	observe	Run1	observe/STIM_013.jpg	100
868.495	0.758	758.3	observe	Run1	observe/STIM_013.jpg	99
871.674	1.392	1392.1	observe	Run1	observe/STIM_013.jpg	99
876.076	1.119	1119.0	observe	Run1	observe/STIM_013.jpg	100
880.3	1.174	1174.2	observe	Run1	observe/STIM_014.jpg	100
885.334	1.166	1165.8	observe	Run1	observe/STIM_014.jpg	100
889.418	1.168	1168.1	observe	Run1	observe/STIM_014.jpg	100
893.153	1.328	1327.7	observe	Run1	observe/STIM_014.jpg	99
897.188	0.801	800.8	observe	Run1	observe/STIM_015.jpg	99
901.205	1.342	1342.4	observe	Run1	observe/STIM_015.jpg	99
905.957	1.122	1121.8	observe	Run1	observe/STIM_015.jpg	99
909.193	0.741	741.3	observe	Run1	observe/STIM_015.jpg	100
912.789	1.017	1017.3	observe	Run1	observe/STIM_016.jpg	100
917.767	1.15	1149.8	observe	Run1	observe/STIM_016.jpg	100
922.623	1.342	1341.8	observe	Run1	observe/STIM_016.jpg	100
927.763	1.22	1220.1	observe	Run1	observe/STIM_016.jpg	99
931.621	1.151	1150.6	observe	Run1	observe/STIM_017.jpg	99
936.366	0.873	873.3	observe	Run1	observe/STIM_017.jpg	100
940.901	0.827	827.4	observe	Run1	observe/STIM_017.jpg	99
945.61	1.41	1410.5	observe	Run1	observe/STIM_017.jpg	100
949.247	1.085	1084.9	observe	Run1	observe/STIM_018.jpg	100
952.625	1.009	1008.8	observe	Run1	observe/STIM_018.jpg	100
956.538	1.387	1386.9	observe	Run1	observe/STIM_018.jpg	100
961.846	0.958	958.5	observe	Run1	observe/STIM_018.jpg	99
966.366	0.743	743.0	observe	Run1	observe/STIM_019.jpg	99
970.72	0.812	812.2	observe	Run1	observe/STIM_019.jpg	99
975.474	0.956	955.5	observe	Run1	observe/STIM_019.jpg	99
979.327	1.279	1279.2	observe	Run1	observe/STIM_019.jpg	100
984.145	1.561	1561.0	regulate	Run2	regulate/STIM_000.jpg	100
988.894	1.173	1173.2	regulate	Run2	regulate/STIM_000.jpg	100
993.031	1.317	1317.2	regulate	Run2	regulate/STIM_000.jpg	99
998.237	1.267	1267.4	regulate	Run2	regulate/STIM_000.jpg	99
1002.029	2.472	2472.2	regulate	Run2	regulate/STIM_001.jpg	99
1008.211	1.532	1531.7	regulate	Run2	regulate/STIM_001.jpg	99
1012.877	1.857	1856.8	regulate	Run2	regulate/STIM_001.jpg	100
1017.245	1.026	1025.7	regulate	Run2	regulate/STIM_001.jpg	99
1020.466	2.288	2288.0	regulate	Run2	regulate/STIM_002.jpg	100
1026.199	2.412	2412.5	regulate	Run2	regulate/STIM_002.jpg	100
1032.242	1.206	1206.0	regulate	Run2	regulate/STIM_002.jpg	100
1036.708	1.386	1385.6	regulate	Run2	regulate/STIM_002.jpg	100
1040.469	2.136	2136.2	regulate	Run2	regulate/STIM_003.jpg	100
1045.291	1.846	1846.3	regulate	Run2	regulate/STIM_003.jpg	99
1050.717	2.428	2428.2	regulate	Run2	regulate/STIM_003.jpg	100
1057.268	2.035	2034.8	regulate	Run2	regulate/STIM_003.jpg	99
1062.465	2.318	2317.9	regulate	Run2	regulate/STIM_004.jpg	100
1068.833	2.291	2291.1	regulate	Run2	regulate/STIM_004.jpg	100
1074.34	1.744	1743.6	regulate	Run2	regulate/STIM_004.jpg	100
1078.904	1.171	1171.2	regulate	Run2	regulate/STIM_004.jpg	100
1084.084	2.738	2738.0	regulate	Run2	regulate/STIM_005.jpg	99
1089.629	1.212	1212.2	regulate	Run2	regulate/STIM_005.jpg	100
1093.421	1.498	1497.8	regulate	Run2	regulate/STIM_005.jpg	100
1098.492	2.157	2157.2	regulate	Run2	regulate/STIM_005.jpg	100
1104.267	1.372	1371.6	regulate	Run2	regulate/STIM_006.jpg	100
1109.258	2.335	2335.2	regulate	Run2	regulate/STIM_006.jpg	100
1114.276	2.372	2372.1	regulate	Run2	regulate/STIM_006.jpg	100
1120.002	1.198	1197.8	regulate	Run2	regulate/STIM_006.jpg	100
1124.296	2.715	2714.6	regulate	Run2	regulate/STIM_007.jpg	99
1129.494	1.787	1786.9	regulate	Run2	regulate/STIM_007.jpg	99
1134.303	2.292	2291.5	regulate	Run2	regulate/STIM_007.jpg	100
1140.181	2.2	2200.1	regulate	Run2	regulate/STIM_007.jpg	100
1144.983	2.237	2237.1	regulate	Run2	regulate/STIM_008.jpg	100
1150.715	2.563	2563.1	regulate	Run2	regulate/STIM_008.jpg	100
1155.763	2.216	2216.1	regulate	Run2	regulate/STIM_008.jpg	99
1160.402	1.107	1107.3	regulate	Run2	regulate/STIM_008.jpg	100
1165.46	1.994	1994.3	regulate	Run2	regulate/STIM_009.jpg	99
1170.809	1.927	1927.3	regulate	Run2	regulate/STIM_009.jpg	100
1176.218	1.316	1316.3	regulate	Run2	regulate/STIM_009.jpg	99
1181.172	2.006	2006.0	regulate	Run2	regulate/STIM_009.jpg	100
1186.091	1.797	1797.3	regulate	Run2	regulate/STIM_010.jpg	99
1191.864	1.237	1237.3	regulate	Run2	regulate/STIM_010.jpg	100
1196.335	1.374	1374.4	regulate	Run2	regulate/STIM_010.jpg	100
1201.112	2.009	2008.6	regulate	Run2	regulate/STIM_010.jpg	100
1207.143	1.208	1208.2	regulate	Run2	regulate/STIM_011.jpg	99
1211.644	2.429	2428.6	regulate	Run2	regulate/STIM_011.jpg	100
1217.101	1.638	1638.3	regulate	Run2	regulate/STIM_011.jpg	100
1222.06	1.446	1446.1	regulate	Run2	regulate/STIM_011.jpg	100
1226.742	2.594	2593.8	regulate	Run2	regulate/STIM_012.jpg	99
1233.103	1.352	1352.1	regulate	Run2	regulate/STIM_012.jpg	99
1238.35	2.131	2130.8	regulate	Run2	regulate/STIM_012.jpg	99
1244.249	1.071	1070.7	regulate	Run2	regulate/STIM_012.jpg	100
1249.168	2.51	2510.3	regulate	Run2	regulate/STIM_013.jpg	100
1254.335	2.399	2398.7	regulate	Run2	regulate/STIM_013.jpg	100
1260.567	1.413	1412.9	regulate	Run2	regulate/STIM_013.jpg	100
1264.812	1.304	1304.2	regulate	Run2	regulate/STIM_013.jpg	100
1268.939	2.458	2458.1	regulate	Run2	regulate/STIM_014.jpg	100
1274.857	1.738	1737.6	regulate	Run2	regulate/STIM_014.jpg	100
1279.344	1.454	1453.5	regulate	Run2	regulate/STIM_014.jpg	100
1284.04	1.877	1877.1	regulate	Run2	regulate/STIM_014.jpg	99
1289.789	2.075	2074.9	regulate	Run2	regulate/STIM_015.jpg	99
1294.379	1.944	1944.2	regulate	Run2	regulate/STIM_015.jpg	99
1300.205	1.36	1360.1	regulate	Run2	regulate/STIM_015.jpg	100
1305.359	1.727	1727.1	regulate	Run2	regulate/STIM_015.jpg	99
1311.066	1.704	1704.4	regulate	Run2	regulate/STIM_016.jpg	99
1316.484	1.801	1800.7	regulate	Run2	regulate/STIM_016.jpg	100
1320.54	2.389	2388.8	regulate	Run2	regulate/STIM_016.jpg	100
1325.712	1.318	1318.4	regulate	Run2	regulate/STIM_016.jpg	99
1330.998	1.794	1794.5	regulate	Run2	regulate/STIM_017.jpg	100
1335.782	2.135	2134.6	regulate	Run2	regulate/STIM_017.jpg	99
1341.414	2.312	2312.5	regulate	Run2	regulate/STIM_017.jpg	100
1346.348	2.022	2021.6	regulate	Run2	regulate/STIM_017.jpg	99
1351.576	1.86	1859.5	regulate	Run2	regulate/STIM_018.jpg	99
1356.398	2.318	2317.5	regulate	Run2	regulate/STIM_018.jpg	99
1361.595	1.872	1871.9	regulate	Run2	regulate/STIM_018.jpg	99
1366.249	2.232	2231.9	regulate	Run2	regulate/STIM_018.jpg	100
1372.109	2.642	2642.3	regulate	Run2	regulate/STIM_019.jpg	99
1377.663	2.339	2338.6	regulate	Run2	regulate/STIM_019.jpg	99
1383.72	1.341	1340.6	regulate	Run2	regulate/STIM_019.jpg	100
1388.431	2.011	2011.4	regulate	Run2	regulate/STIM_019.jpg	100
1393.782	1.405	1405.0	regulate	Run2	regulate/STIM_020.jpg	99
1398.494	1.599	1599.3	regulate	Run2	regulate/STIM_020.jpg	99
1403.03	1.644	1643.7	regulate	Run2	regulate/STIM_020.jpg	99
1408.565	1.636	1635.7	regulate	Run2	regulate/STIM_020.jpg	99
1413.549	1.703	1702.6	regulate	Run2	regulate/STIM_021.jpg	100
1418.022	1.119	1118.6	regulate	Run2	regulate/STIM_021.jpg	99
1422.18	2.404	2403.9	regulate	Run2	regulate/STIM_021.jpg	100
1427.216	1.213	1212.8	regulate	Run2	regulate/STIM_021.jpg	99
1432.0	1.792	1791.9	regulate	Run2	regulate/STIM_022.jpg	99
1437.223	2.541	2540.9	regulate	Run2	regulate/STIM_022.jpg	99
1442.045	1.073	1073.0	regulate	Run2	regulate/STIM_022.jpg	99
1446.898	1.66	1660.4	regulate	Run2	regulate/STIM_022.jpg	100
1452.21	2.162	2162.2	regulate	Run2	regulate/STIM_023.jpg	99
1457.291	2.365	2364.6	regulate	Run2	regulate/STIM_023.jpg	100
1462.944	2.08	2079.8	regulate	Run2	regulate/STIM_023.jpg	99
1467.564	2.17	2169.9	regulate	Run2	regulate/STIM_023.jpg	99
1473.235	2.486	2486.3	regulate	Run2	regulate/STIM_024.jpg	100
1478.758	1.591	1590.9	regulate	Run2	regulate/STIM_024.jpg	100
1483.496	2.277	2277.2	regulate	Run2	regulate/STIM_024.jpg	100
1488.259	2.086	2086.1	regulate	Run2	regulate/STIM_024.jpg	100
1493.593	2.413	2412.6	regulate	Run2	regulate/STIM_025.jpg	100
1499.317	2.16	2159.5	regulate	Run2	regulate/STIM_025.jpg	99
1504.522	2.239	2238.9	regulate	Run2	regulate/STIM_025.jpg	100
1509.623	2.242	2242.0	regulate	Run2	regulate/STIM_025.jpg	100
1515.952	2.221	2221.4	regulate	Run2	regulate/STIM_026.jpg	99
1522.011	1.679	1679.2	regulate	Run2	regulate/STIM_026.jpg	100
1527.337	1.122	1121.5	regulate	Run2	regulate/STIM_026.jpg	99
1530.626	1.896	1896.3	regulate	Run2	regulate/STIM_026.jpg	100
1534.827	2.234	2233.8	regulate	Run2	regulate/STIM_027.jpg	100
1539.709	1.883	1883.2	regulate	Run2	regulate/STIM_027.jpg	100
1543.853	1.732	1731.9	regulate	Run2	regulate/STIM_027.jpg	100
1547.97	1.819	1819.3	regulate	Run2	regulate/STIM_027.jpg	99
1551.985	1.729	1728.6	regulate	Run2	regulate/STIM_028.jpg	99
1556.722	2.002	2002.2	regulate	Run2	regulate/STIM_028.jpg	100
1562.126	2.266	2265.6	regulate	Run2	regulate/STIM_028.jpg	100
1568.361	1.296	1295.7	regulate	Run2	regulate/STIM_028.jpg	99
1573.087	2.118	2118.2	regulate	Run2	regulate/STIM_029.jpg	99
1577.429	1.906	1906.5	regulate	Run2	regulate/STIM_029.jpg	99
1582.159	1.916	1915.5	regulate	Run2	regulate/STIM_029.jpg	99
1587.433	1.241	1241.2	regulate	Run2	regulate/STIM_029.jpg	99
1592.584	0.928	927.5	observe	Run2	observe/STIM_000.jpg	100
1596.691	0.896	895.5	observe	Run2	observe/STIM_000.jpg	100
1600.225	1.093	1092.9	observe	Run2	observe/STIM_000.jpg	100
1604.864	1.026	1025.6	observe	Run2	observe/STIM_000.jpg	99
1608.328	1.247	1246.9	observe	Run2	observe/STIM_001.jpg	100
1611.939	1.067	1067.0	observe	Run2	observe/STIM_001.jpg	99
1616.603	1.408	1407.6	observe	Run2	observe/STIM_001.jpg	100
1621.955	1.075	1075.4	observe	Run2	observe/STIM_001.jpg	100
1626.307	1.291	1290.9	observe	Run2	observe/STIM_002.jpg	100
1631.073	0.941	941.2	observe	Run2	observe/STIM_002.jpg	100
1634.946	1.402	1402.2	observe	Run2	observe/STIM_002.jpg	100
1638.61	1.174	1174.5	observe	Run2	observe/STIM_002.jpg	100
1642.347	0.788	787.8	observe	Run2	observe/STIM_003.jpg	100
1645.984	1.145	1145.3	observe	Run2	observe/STIM_003.jpg	99
1649.598	1.254	1254.5	observe	Run2	observe/STIM_003.jpg	100
1653.51	0.954	953.7	observe	Run2	observe/STIM_003.jpg	100
1656.596	1.373	1373.3	observe	Run2	observe/STIM_004.jpg	99
1661.178	1.362	1362.5	observe	Run2	observe/STIM_004.jpg	99
1665.213	1.327	1327.3	observe	Run2	observe/STIM_004.jpg	100
1670.29	1.428	1427.6	observe	Run2	observe/STIM_004.jpg	99
1674.015	1.088	1087.5	observe	Run2	observe/STIM_005.jpg	100
1677.586	1.464	1464.5	observe	Run2	observe/STIM_005.jpg	99
1681.85	0.941	940.8	observe	Run2	observe/STIM_005.jpg	99
1686.155	1.361	1361.4	observe	Run2	observe/STIM_005.jpg	100
1690.889	1.243	1243.1	observe	Run2	observe/STIM_006.jpg	100
1696.216	1.05	1049.6	observe	Run2	observe/STIM_006.jpg	100
1700.673	1.383	1382.7	observe	Run2	observe/STIM_006.jpg	100
1705.692	0.876	875.5	observe	Run2	observe/STIM_006.jpg	99
1709.022	0.772	772.5	observe	Run2	observe/STIM_007.jpg	99
1712.127	1.136	1136.1	observe	Run2	observe/STIM_007.jpg	99
1716.215	1.108	1107.6	observe	Run2	observe/STIM_007.jpg	100
1720.855	0.945	944.9	observe	Run2	observe/STIM_007.jpg	99
1724.674	1.044	1044.4	observe	Run2	observe/STIM_008.jpg	99
1727.861	1.23	1229.6	observe	Run2	observe/STIM_008.jpg	99
1732.648	0.999	998.7	observe	Run2	observe/STIM_008.jpg	100
1736.117	1.051	1051.3	observe	Run2	observe/STIM_008.jpg	100
1739.28	1.03	1030.0	observe	Run2	observe/STIM_009.jpg	99
1744.111	1.425	1425.3	observe	Run2	observe/STIM_009.jpg	100
1748.908	1.354	1354.5	observe	Run2	observe/STIM_009.jpg	99
1754.164	0.982	981.9	observe	Run2	observe/STIM_009.jpg	100
1758.522	0.93	929.6	observe	Run2	observe/STIM_010.jpg	100
1763.023	0.947	947.3	observe	Run2	observe/STIM_010.jpg	99
1767.021	1.203	1203.0	observe	Run2	observe/STIM_010.jpg	99
1770.655	0.825	825.0	observe	Run2	observe/STIM_010.jpg	100
1774.648	0.78	780.3	observe	Run2	observe/STIM_011.jpg	99
1778.141	1.299	1299.3	observe	Run2	observe/STIM_011.jpg	99
1782.994	1.166	1166.1	observe	Run2	observe/STIM_011.jpg	100
1788.251	0.965	965.1	observe	Run2	observe/STIM_011.jpg	100
1791.676	1.106	1106.2	observe	Run2	observe/STIM_012.jpg	100
1795.519	0.802	802.0	observe	Run2	observe/STIM_012.jpg	99
1800.384	1.0	999.9	observe	Run2	observe/STIM_012.jpg	99
1803.73	0.743	742.6	observe	Run2	observe/STIM_012.jpg	100
1806.852	0.756	756.1	observe	Run2	observe/STIM_013.jpg	100
1809.809	0.758	758.4	observe	Run2	observe/STIM_013.jpg	99
1814.422	1.212	1211.7	observe	Run2	observe/STIM_013.jpg	99
1818.06	1.274	1274.0	observe	Run2	observe/STIM_013.jpg	99
1821.709	1.248	1247.9	observe	Run2	observe/STIM_014.jpg	99
1826.791	0.878	878.4	observe	Run2	observe/STIM_014.jpg	99
1831.366	1.121	1120.9	observe	Run2	observe/STIM_014.jpg	100
1836.29	1.414	1414.5	observe	Run2	observe/STIM_014.jpg	99
1839.993	0.8	800.0	observe	Run2	observe/STIM_015.jpg	99
1843.489	1.163	1163.3	observe	Run2	observe/STIM_015.jpg	99
1848.367	0.832	831.7	observe	Run2	observe/STIM_015.jpg	99
1852.68	1.207	1207.3	observe	Run2	observe/STIM_015.jpg	100
1856.694	1.073	1073.4	observe	Run2	observe/STIM_016.jpg	99
1860.931	0.879	878.7	observe	Run2	observe/STIM_016.jpg	100
1864.417	0.965	964.9	observe	Run2	observe/STIM_016.jpg	100
1869.085	0.902	901.9	observe	Run2	observe/STIM_016.jpg	100
1872.94	1.418	1418.0	observe	Run2	observe/STIM_017.jpg	100
1878.014	0.892	892.0	observe	Run2	observe/STIM_017.jpg	99
1882.271	0.795	795.4	observe	Run2	observe/STIM_017.jpg	99
1885.935	1.259	1258.8	observe	Run2	observe/STIM_017.jpg	100
1890.373	0.978	978.5	observe	Run2	observe/STIM_018.jpg	99
1894.386	1.454	1453.8	observe	Run2	observe/STIM_018.jpg	99
1899.805	1.09	1089.6	observe	Run2	observe/STIM_018.jpg	100
1904.147	1.258	1257.9	observe	Run2	observe/STIM_018.jpg	99
1907.745	1.241	1241.4	observe	Run2	observe/STIM_019.jpg	99
1911.661	1.238	1237.8	observe	Run2	observe/STIM_019.jpg	100
1916.809	1.206	1206.3	observe	Run2	observe/STIM_019.jpg	100
1921.047	0.914	913.7	observe	Run2	observe/STIM_019.jpg	99
1925.568	1.592	1591.6	regulate	Run3	regulate/STIM_000.jpg	99
1929.86	2.148	2148.5	regulate	Run3	regulate/STIM_000.jpg	99
1935.101	1.756	1755.9	regulate	Run3	regulate/STIM_000.jpg	100
1940.615	2.022	2021.6	regulate	Run3	regulate/STIM_000.jpg	99
1945.078	1.414	1413.6	regulate	Run3	regulate/STIM_001.jpg	100
1949.8	1.969	1968.8	regulate	Run3	regulate/STIM_001.jpg	100
1955.687	2.06	2060.2	regulate	Run3	regulate/STIM_001.jpg	99
1961.346	1.668	1667.6	regulate	Run3	regulate/STIM_001.jpg	99
1966.316	1.083	1082.8	regulate	Run3	regulate/STIM_002.jpg	99
1970.32	1.59	1589.8	regulate	Run3	regulate/STIM_002.jpg	99
1974.413	1.421	1421.2	regulate	Run3	regulate/STIM_002.jpg	99
1979.276	1.291	1291.0	regulate	Run3	regulate/STIM_002.jpg	100
1983.189	1.119	1118.9	regulate	Run3	regulate/STIM_003.jpg	100
1987.798	2.036	2036.2	regulate	Run3	regulate/STIM_003.jpg	99
1992.067	1.649	1649.1	regulate	Run3	regulate/STIM_003.jpg	99
1995.859	1.257	1256.8	regulate	Run3	regulate/STIM_003.jpg	100
1999.633	1.315	1314.7	regulate	Run3	regulate/STIM_004.jpg	100
2003.484	1.875	1875.0	regulate	Run3	regulate/STIM_004.jpg	100
2008.877	1.989	1988.8	regulate	Run3	regulate/STIM_004.jpg	99
2014.433	1.502	1501.7	regulate	Run3	regulate/STIM_004.jpg	99
2019.848	1.983	1983.3	regulate	Run3	regulate/STIM_005.jpg	100
2025.06	1.04	1040.4	regulate	Run3	regulate/STIM_005.jpg	99
2028.676	1.323	1322.9	regulate	Run3	regulate/STIM_005.jpg	99
2032.624	1.435	1435.2	regulate	Run3	regulate/STIM_005.jpg	99
2036.338	1.543	1542.8	regulate	Run3	regulate/STIM_006.jpg	99
2040.579	1.83	1830.3	regulate	Run3	regulate/STIM_006.jpg	99
2044.91	1.097	1096.9	regulate	Run3	regulate/STIM_006.jpg	99
2048.32	1.81	1810.5	regulate	Run3	regulate/STIM_006.jpg	100
2053.04	1.625	1625.3	regulate	Run3	regulate/STIM_007.jpg	99
2057.613	1.134	1134.3	regulate	Run3	regulate/STIM_007.jpg	99
2062.248	2.031	2031.4	regulate	Run3	regulate/STIM_007.jpg	99
2067.514	1.424	1424.0	regulate	Run3	regulate/STIM_007.jpg	99
2072.499	1.976	1975.5	regulate	Run3	regulate/STIM_008.jpg	100
2077.672	2.022	2022.2	regulate	Run3	regulate/STIM_008.jpg	99
2083.827	2.142	2142.1	regulate	Run3	regulate/STIM_008.jpg	99
2088.999	1.856	1855.5	regulate	Run3	regulate/STIM_008.jpg	100
2094.49	2.11	2109.8	regulate	Run3	regulate/STIM_009.jpg	100
2100.249	1.586	1586.1	regulate	Run3	regulate/STIM_009.jpg	99
2105.062	2.044	2044.1	regulate	Run3	regulate/STIM_009.jpg	100
2110.407	2.117	2116.7	regulate	Run3	regulate/STIM_009.jpg	100
2116.203	1.118	1118.0	regulate	Run3	regulate/STIM_010.jpg	99
2119.811	1.277	1277.1	regulate	Run3	regulate/STIM_010.jpg	100
2124.597	1.52	1519.9	regulate	Run3	regulate/STIM_010.jpg	100
2129.243	1.983	1983.4	regulate	Run3	regulate/STIM_010.jpg	99
2134.643	1.08	1079.7	regulate	Run3	regulate/STIM_011.jpg	100
2139.007	1.277	1276.7	regulate	Run3	regulate/STIM_011.jpg	100
2143.878	1.445	1444.8	regulate	Run3	regulate/STIM_011.jpg	99
2148.545	1.874	1874.3	regulate	Run3	regulate/STIM_011.jpg	100
2153.34	1.178	1178.4	regulate	Run3	regulate/STIM_012.jpg	100
2158.256	1.201	1201.3	regulate	Run3	regulate/STIM_012.jpg	99
2162.663	1.851	1851.0	regulate	Run3	regulate/STIM_012.jpg	99
2167.243	2.216	2216.2	regulate	Run3	regulate/STIM_012.jpg	99
2173.242	1.189	1189.3	regulate	Run3	regulate/STIM_013.jpg	100
2177.68	1.687	1687.2	regulate	Run3	regulate/STIM_013.jpg	99
2181.535	1.218	1218.0	regulate	Run3	regulate/STIM_013.jpg	100
2185.094	1.006	1006.0	regulate	Run3	regulate/STIM_013.jpg	99
2188.825	2.041	2040.6	regulate	Run3	regulate/STIM_014.jpg	99
2194.778	2.153	2153.0	regulate	Run3	regulate/STIM_014.jpg	100
2200.485	1.809	1809.4	regulate	Run3	regulate/STIM_014.jpg	99
2205.955	1.414	1413.6	regulate	Run3	regulate/STIM_014.jpg	100
2211.063	1.184	1184.1	regulate	Run3	regulate/STIM_015.jpg	99
2215.239	1.131	1130.6	regulate	Run3	regulate/STIM_015.jpg	100
2220.057	2.046	2046.0	regulate	Run3	regulate/STIM_015.jpg	100
2225.573	1.13	1129.5	regulate	Run3	regulate/STIM_015.jpg	99
2229.834	1.886	1885.8	regulate	Run3	regulate/STIM_016.jpg	100
2234.275	1.261	1261.3	regulate	Run3	regulate/STIM_016.jpg	100
2238.614	1.859	1858.8	regulate	Run3	regulate/STIM_016.jpg	100
2243.623	2.179	2178.7	regulate	Run3	regulate/STIM_016.jpg	100
2249.108	2.174	2173.7	regulate	Run3	regulate/STIM_017.jpg	99
2254.559	1.307	1307.2	regulate	Run3	regulate/STIM_017.jpg	99
2259.835	1.605	1605.1	regulate	Run3	regulate/STIM_017.jpg	100
2265.156	1.258	1258.3	regulate	Run3	regulate/STIM_017.jpg	100
2269.358	2.239	2239.0	regulate	Run3	regulate/STIM_018.jpg	100
2274.459	2.242	2241.5	regulate	Run3	regulate/STIM_018.jpg	100
2280.416	1.995	1995.3	regulate	Run3	regulate/STIM_018.jpg	99
2284.77	1.311	1310.7	regulate	Run3	regulate/STIM_018.jpg	99
2288.38	2.115	2115.2	regulate	Run3	regulate/STIM_019.jpg	99
2292.923	1.194	1193.8	regulate	Run3	regulate/STIM_019.jpg	100
2296.484	1.822	1822.3	regulate	Run3	regulate/STIM_019.jpg	99
2302.162	1.281	1281.2	regulate	Run3	regulate/STIM_019.jpg	100
2306.675	1.212	1212.3	regulate	Run3	regulate/STIM_020.jpg	99
2310.563	1.253	1252.7	regulate	Run3	regulate/STIM_020.jpg	100
2314.594	1.013	1013.2	regulate	Run3	regulate/STIM_020.jpg	100
2319.598	1.117	1116.8	regulate	Run3	regulate/STIM_020.jpg	100
2323.19	1.544	1543.5	regulate	Run3	regulate/STIM_021.jpg	99
2328.134	1.345	1345.2	regulate	Run3	regulate/STIM_021.jpg	99
2332.759	2.265	2265.3	regulate	Run3	regulate/STIM_021.jpg	99
2338.128	1.795	1795.3	regulate	Run3	regulate/STIM_021.jpg	100
2342.63	1.159	1158.9	regulate	Run3	regulate/STIM_022.jpg	99
2346.246	1.721	1720.7	regulate	Run3	regulate/STIM_022.jpg	99
2352.035	2.263	2263.4	regulate	Run3	regulate/STIM_022.jpg	99
2357.967	2.098	2098.5	regulate	Run3	regulate/STIM_022.jpg	99
2364.115	1.002	1001.8	regulate	Run3	regulate/STIM_023.jpg	100
2369.127	1.756	1756.4	regulate	Run3	regulate/STIM_023.jpg	100
2374.769	2.158	2158.4	regulate	Run3	regulate/STIM_023.jpg	99
2380.643	1.806	1805.9	regulate	Run3	regulate/STIM_023.jpg	99
2385.993	1.307	1307.4	regulate	Run3	regulate/STIM_024.jpg	100
2391.246	1.515	1514.6	regulate	Run3	regulate/STIM_024.jpg	99
2395.368	1.332	1331.6	regulate	Run3	regulate/STIM_024.jpg	100
2399.262	1.665	1664.9	regulate	Run3	regulate/STIM_024.jpg	99
2403.611	1.443	1442.9	regulate	Run3	regulate/STIM_025.jpg	99
2408.659	1.505	1504.7	regulate	Run3	regulate/STIM_025.jpg	99
2412.515	1.036	1036.3	regulate	Run3	regulate/STIM_025.jpg	100
2417.608	1.878	1878.2	regulate	Run3	regulate/STIM_025.jpg	100
2422.798	2.08	2079.8	regulate	Run3	regulate/STIM_026.jpg	99
2428.818	1.205	1204.6	regulate	Run3	regulate/STIM_026.jpg	100
2433.9	1.258	1257.8	regulate	Run3	regulate/STIM_026.jpg	100
2438.198	1.783	1783.4	regulate	Run3	regulate/STIM_026.jpg	99
2444.122	1.836	1835.5	regulate	Run3	regulate/STIM_027.jpg	99
2448.576	1.942	1942.1	regulate	Run3	regulate/STIM_027.jpg	100
2453.668	1.35	1349.5	regulate	Run3	regulate/STIM_027.jpg	99
2457.262	1.186	1185.5	regulate	Run3	regulate/STIM_027.jpg	99
2462.349	1.502	1501.8	regulate	Run3	regulate/STIM_028.jpg	99
2466.021	0.989	988.6	regulate	Run3	regulate/STIM_028.jpg	99
2469.761	2.209	2208.8	regulate	Run3	regulate/STIM_028.jpg	100
2475.583	2.105	2105.3	regulate	Run3	regulate/STIM_028.jpg	99
2481.687	2.152	2151.6	regulate	Run3	regulate/STIM_029.jpg	100
2486.893	1.721	1720.9	regulate	Run3	regulate/STIM_029.jpg	100
2492.546	1.921	1921.3	regulate	Run3	regulate/STIM_029.jpg	99
2497.192	1.177	1176.6	regulate	Run3	regulate/STIM_029.jpg	99
2501.667	1.422	1421.5	observe	Run3	observe/STIM_000.jpg	100
2505.542	0.957	957.4	observe	Run3	observe/STIM_000.jpg	100
2509.5	0.768	768.1	observe	Run3	observe/STIM_000.jpg	100
2513.89	1.346	1345.6	observe	Run3	observe/STIM_000.jpg	100
2518.835	1.198	1198.0	observe	Run3	observe/STIM_001.jpg	99
2522.328	0.77	770.3	observe	Run3	observe/STIM_001.jpg	99
2525.408	0.872	872.5	observe	Run3	observe/STIM_001.jpg	99
2530.09	1.152	1152.2	observe	Run3	observe/STIM_001.jpg	99
2534.303	1.416	1415.8	observe	Run3	observe/STIM_002.jpg	100
2539.792	1.176	1175.8	observe	Run3	observe/STIM_002.jpg	99
2544.512	1.105	1105.3	observe	Run3	observe/STIM_002.jpg	100
2548.527	0.951	950.6	observe	Run3	observe/STIM_002.jpg	100
2551.955	1.268	1267.5	observe	Run3	observe/STIM_003.jpg	99
2556.24	1.14	1140.0	observe	Run3	observe/STIM_003.jpg	100
2559.834	1.031	1031.2	observe	Run3	observe/STIM_003.jpg	99
2563.713	1.168	1167.9	observe	Run3	observe/STIM_003.jpg	100
2567.997	1.028	1027.6	observe	Run3	observe/STIM_004.jpg	99
2571.26	0.874	873.6	observe	Run3	observe/STIM_004.jpg	100
2575.355	1.449	1449.4	observe	Run3	observe/STIM_004.jpg	100
2580.771	1.26	1260.1	observe	Run3	observe/STIM_004.jpg	99
2585.829	0.902	902.4	observe	Run3	observe/STIM_005.jpg	99
2590.087	1.087	1086.8	observe	Run3	observe/STIM_005.jpg	100
2594.608	1.387	1386.9	observe	Run3	observe/STIM_005.jpg	100
2598.214	1.029	1028.8	observe	Run3	observe/STIM_005.jpg	99
2601.895	1.48	1479.5	observe	Run3	observe/STIM_006.jpg	99
2606.898	0.751	751.4	observe	Run3	observe/STIM_006.jpg	100
2611.498	0.752	752.1	observe	Run3	observe/STIM_006.jpg	100
2615.841	1.456	1455.9	observe	Run3	observe/STIM_006.jpg	99
2621.374	1.244	1244.2	observe	Run3	observe/STIM_007.jpg	100
2625.995	1.221	1220.9	observe	Run3	observe/STIM_007.jpg	99
2630.849	0.977	977.4	observe	Run3	observe/STIM_007.jpg	99
2634.729	0.87	869.6	observe	Run3	observe/STIM_007.jpg	100
2638.096	1.469	1469.0	observe	Run3	observe/STIM_008.jpg	100
2642.545	1.438	1438.5	observe	Run3	observe/STIM_008.jpg	100
2647.667	1.077	1077.3	observe	Run3	observe/STIM_008.jpg	100
2652.517	1.15	1150.1	observe	Run3	observe/STIM_008.jpg	99
2657.725	0.765	764.8	observe	Run3	observe/STIM_009.jpg	99
2662.204	1.264	1263.8	observe	Run3	observe/STIM_009.jpg	99
2665.674	1.193	1192.7	observe	Run3	observe/STIM_009.jpg	100
2669.709	1.194	1194.1	observe	Run3	observe/STIM_009.jpg	100
2673.936	0.793	792.6	observe	Run3	observe/STIM_010.jpg	100
2678.146	0.805	805.1	observe	Run3	observe/STIM_010.jpg	100
2682.438	1.283	1282.7	observe	Run3	observe/STIM_010.jpg	100
2686.051	0.923	922.7	observe	Run3	observe/STIM_010.jpg	100
2690.23	0.779	778.7	observe	Run3	observe/STIM_011.jpg	100
2694.873	1.088	1088.1	observe	Run3	observe/STIM_011.jpg	100
2699.645	0.917	917.2	observe	Run3	observe/STIM_011.jpg	99
2704.545	1.271	1271.2	observe	Run3	observe/STIM_011.jpg	99
2708.225	1.201	1200.9	observe	Run3	observe/STIM_012.jpg	100
2712.695	1.132	1131.6	observe	Run3	observe/STIM_012.jpg	99
2715.97	0.977	977.3	observe	Run3	observe/STIM_012.jpg	99
2720.606	0.864	863.8	observe	Run3	observe/STIM_012.jpg	99
2724.802	1.432	1432.4	observe	Run3	observe/STIM_013.jpg	99
2729.98	0.779	778.9	observe	Run3	observe/STIM_013.jpg	100
2733.463	1.016	1015.9	observe	Run3	observe/STIM_013.jpg	100
2738.465	0.787	787.2	observe	Run3	observe/STIM_013.jpg	100
2742.822	0.887	886.9	observe	Run3	observe/STIM_014.jpg	100
2746.895	1.049	1048.9	observe	Run3	observe/STIM_014.jpg	100
2750.384	0.904	903.8	observe	Run3	observe/STIM_014.jpg	100
2754.128	1.384	1384.3	observe	Run3	observe/STIM_014.jpg	100
2758.121	1.007	1007.3	observe	Run3	observe/STIM_015.jpg	100
2761.786	0.748	747.9	observe	Run3	observe/STIM_015.jpg	99
2764.749	1.402	1401.6	observe	Run3	observe/STIM_015.jpg	99
2769.323	1.361	1360.9	observe	Run3	observe/STIM_015.jpg	100
2774.765	1.459	1459.1	observe	Run3	observe/STIM_016.jpg	99
2780.232	1.464	1463.6	observe	Run3	observe/STIM_016.jpg	99
2785.09	1.284	1283.9	observe	Run3	observe/STIM_016.jpg	99
2790.234	1.268	1268.3	observe	Run3	observe/STIM_016.jpg	100
2794.528	1.448	1447.6	observe	Run3	observe/STIM_017.jpg	99
2799.062	1.2	1200.4	observe	Run3	observe/STIM_017.jpg	100
2804.202	0.787	786.8	observe	Run3	observe/STIM_017.jpg	100
2808.136	1.389	1388.8	observe	Run3	observe/STIM_017.jpg	100
2813.539	0.832	831.5	observe	Run3	observe/STIM_018.jpg	100
2817.876	1.011	1011.2	observe	Run3	observe/STIM_018.jpg	100
2821.552	1.323	1323.0	observe	Run3	observe/STIM_018.jpg	99
2825.98	1.345	1345.4	observe	Run3	observe/STIM_018.jpg	99
2830.774	1.285	1285.0	observe	Run3	observe/STIM_019.jpg	100
2834.303	1.354	1354.2	observe	Run3	observe/STIM_019.jpg	99
2837.954	0.946	946.1	observe	Run3	observe/STIM_019.jpg	100
2841.106	1.482	1482.0	observe	Run3	observe/STIM_019.jpg	99
