onset	duration	accuracy_binary	trial_type	learning_stage	stimulus
0.0	2.528	1	generate	Run1	generate/STIM_000.jpg
4.844	1.994	1	generate	Run1	generate/STIM_000.jpg
10.12	1.649	1	generate	Run1	generate/STIM_000.jpg
15.379	1.665	1	generate	Run1	generate/STIM_000.jpg
20.567	1.929	1	generate	Run1	generate/STIM_000.jpg
26.436	1.822	1	generate	Run1	generate/STIM_001.jpg
30.648	2.803	1	generate	Run1	generate/STIM_001.jpg
35.877	1.199	1	generate	Run1	generate/STIM_001.jpg
40.406	2.013	1	generate	Run1	generate/STIM_001.jpg
44.855	2.05	1	generate	Run1	generate/STIM_001.jpg
50.614	1.927	0	generate	Run1	generate/STIM_002.jpg
56.501	1.84	1	generate	Run1	generate/STIM_002.jpg
61.338	1.752	0	generate	Run1	generate/STIM_002.jpg
65.187	1.083	0	generate	Run1	generate/STIM_002.jpg
70.069	1.578	0	generate	Run1	generate/STIM_002.jpg
75.066	1.705	1	generate	Run1	generate/STIM_003.jpg
79.187	2.762	1	generate	Run1	generate/STIM_003.jpg
84.913	2.785	1	generate	Run1	generate/STIM_003.jpg
89.774	1.721	1	generate	Run1	generate/STIM_003.jpg
93.843	2.202	0	generate	Run1	generate/STIM_003.jpg
98.704	2.928	1	generate	Run1	generate/STIM_004.jpg
105.55	1.641	0	generate	Run1	generate/STIM_004.jpg
109.808	2.131	0	generate	Run1	generate/STIM_004.jpg
115.59	1.62	0	generate	Run1	generate/STIM_004.jpg
121.179	2.133	1	generate	Run1	generate/STIM_004.jpg
127.221	2.889	1	generate	Run1	generate/STIM_005.jpg
133.038	2.292	0	generate	Run1	generate/STIM_005.jpg
138.301	2.792	1	generate	Run1	generate/STIM_005.jpg
144.289	1.604	1	generate	Run1	generate/STIM_005.jpg
149.418	1.178	1	generate	Run1	generate/STIM_005.jpg
154.228	2.063	1	generate	Run1	generate/STIM_006.jpg
159.391	2.242	1	generate	Run1	generate/STIM_006.jpg
164.54	2.025	1	generate	Run1	generate/STIM_006.jpg
168.828	2.128	1	generate	Run1	generate/STIM_006.jpg
173.038	2.198	1	generate	Run1	generate/STIM_006.jpg
178.352	1.344	0	generate	Run1	generate/STIM_007.jpg
183.318	2.86	1	generate	Run1	generate/STIM_007.jpg
188.797	1.692	0	generate	Run1	generate/STIM_007.jpg
193.662	1.314	1	generate	Run1	generate/STIM_007.jpg
197.734	1.235	1	generate	Run1	generate/STIM_007.jpg
201.699	1.556	0	generate	Run1	generate/STIM_008.jpg
206.968	1.684	1	generate	Run1	generate/STIM_008.jpg
211.511	1.281	0	generate	Run1	generate/STIM_008.jpg
215.753	2.403	1	generate	Run1	generate/STIM_008.jpg
221.884	2.122	1	generate	Run1	generate/STIM_008.jpg
226.027	1.59	0	generate	Run1	generate/STIM_009.jpg
230.193	1.98	1	generate	Run1	generate/STIM_009.jpg
234.175	2.727	1	generate	Run1	generate/STIM_009.jpg
240.215	1.746	1	generate	Run1	generate/STIM_009.jpg
244.962	1.937	1	generate	Run1	generate/STIM_009.jpg
249.252	1.566	1	generate	Run1	generate/STIM_010.jpg
254.77	2.685	1	generate	Run1	generate/STIM_010.jpg
260.975	2.041	1	generate	Run1	generate/STIM_010.jpg
266.488	2.394	1	generate	Run1	generate/STIM_010.jpg
272.808	1.492	1	generate	Run1	generate/STIM_010.jpg
276.426	2.066	1	generate	Run1	generate/STIM_011.jpg
282.031	2.883	1	generate	Run1	generate/STIM_011.jpg
287.04	2.405	1	generate	Run1	generate/STIM_011.jpg
293.027	2.32	0	generate	Run1	generate/STIM_011.jpg
298.461	1.675	1	generate	Run1	generate/STIM_011.jpg
302.853	2.522	1	generate	Run1	generate/STIM_012.jpg
308.701	2.679	0	generate	Run1	generate/STIM_012.jpg
313.692	2.772	1	generate	Run1	generate/STIM_012.jpg
319.153	2.495	1	generate	Run1	generate/STIM_012.jpg
323.965	1.955	1	generate	Run1	generate/STIM_012.jpg
329.278	2.432	1	generate	Run1	generate/STIM_013.jpg
334.116	2.678	1	generate	Run1	generate/STIM_013.jpg
339.415	1.672	1	generate	Run1	generate/STIM_013.jpg
344.751	1.737	0	generate	Run1	generate/STIM_013.jpg
349.888	2.075	1	generate	Run1	generate/STIM_013.jpg
354.834	2.83	1	generate	Run1	generate/STIM_014.jpg
360.921	2.646	1	generate	Run1	generate/STIM_014.jpg
367.501	2.651	0	generate	Run1	generate/STIM_014.jpg
372.273	2.42	1	generate	Run1	generate/STIM_014.jpg
377.069	1.336	1	generate	Run1	generate/STIM_014.jpg
382.273	2.668	1	generate	Run1	generate/STIM_015.jpg
387.034	1.646	1	generate	Run1	generate/STIM_015.jpg
392.416	1.915	1	generate	Run1	generate/STIM_015.jpg
398.158	1.07	1	generate	Run1	generate/STIM_015.jpg
401.723	1.297	1	generate	Run1	generate/STIM_015.jpg
405.042	2.574	0	generate	Run1	generate/STIM_016.jpg
410.58	1.742	0	generate	Run1	generate/STIM_016.jpg
415.328	2.026	1	generate	Run1	generate/STIM_016.jpg
421.018	1.47	0	generate	Run1	generate/STIM_016.jpg
426.044	2.462	1	generate	Run1	generate/STIM_016.jpg
430.588	2.822	1	generate	Run1	generate/STIM_017.jpg
435.636	1.463	0	generate	Run1	generate/STIM_017.jpg
439.963	2.369	1	generate	Run1	generate/STIM_017.jpg
445.97	1.962	1	generate	Run1	generate/STIM_017.jpg
450.426	2.12	1	generate	Run1	generate/STIM_017.jpg
455.026	1.714	1	generate	Run1	generate/STIM_018.jpg
459.633	2.879	1	generate	Run1	generate/STIM_018.jpg
464.877	2.555	0	generate	Run1	generate/STIM_018.jpg
469.613	2.482	1	generate	Run1	generate/STIM_018.jpg
474.696	1.772	1	generate	Run1	generate/STIM_018.jpg
479.356	2.945	0	generate	Run1	generate/STIM_019.jpg
484.631	2.389	0	generate	Run1	generate/STIM_019.jpg
489.047	1.246	1	generate	Run1	generate/STIM_019.jpg
493.903	1.558	1	generate	Run1	generate/STIM_019.jpg
499.063	1.238	1	generate	Run1	generate/STIM_019.jpg
502.874	2.653	0	generate	Run1	generate/STIM_020.jpg
509.024	2.482	1	generate	Run1	generate/STIM_020.jpg
514.113	1.336	0	generate	Run1	generate/STIM_020.jpg
518.891	2.621	1	generate	Run1	generate/STIM_020.jpg
524.245	1.392	1	generate	Run1	generate/STIM_020.jpg
529.115	1.835	1	generate	Run1	generate/STIM_021.jpg
534.398	2.393	1	generate	Run1	generate/STIM_021.jpg
540.698	1.934	1	generate	Run1	generate/STIM_021.jpg
545.643	1.112	0	generate	Run1	generate/STIM_021.jpg
549.296	1.686	0	generate	Run1	generate/STIM_021.jpg
554.648	2.682	1	generate	Run1	generate/STIM_022.jpg
560.798	2.33	1	generate	Run1	generate/STIM_022.jpg
566.718	2.552	1	generate	Run1	generate/STIM_022.jpg
572.631	1.99	1	generate	Run1	generate/STIM_022.jpg
577.437	1.539	0	generate	Run1	generate/STIM_022.jpg
580.99	2.054	1	generate	Run1	generate/STIM_023.jpg
585.774	1.273	1	generate	Run1	generate/STIM_023.jpg
589.768	2.029	0	generate	Run1	generate/STIM_023.jpg
594.278	1.559	1	generate	Run1	generate/STIM_023.jpg
597.98	1.988	0	generate	Run1	generate/STIM_023.jpg
603.534	2.67	0	generate	Run1	generate/STIM_024.jpg
609.66	2.624	1	generate	Run1	generate/STIM_024.jpg
614.66	2.595	0	generate	Run1	generate/STIM_024.jpg
620.089	1.264	1	generate	Run1	generate/STIM_024.jpg
623.898	2.118	0	generate	Run1	generate/STIM_024.jpg
629.968	0.81	1	repeat	Run1	repeat/STIM_000.jpg
634.129	0.814	1	repeat	Run1	repeat/STIM_000.jpg
638.741	0.969	1	repeat	Run1	repeat/STIM_000.jpg
642.947	0.789	0	repeat	Run1	repeat/STIM_000.jpg
647.591	0.615	1	repeat	Run1	repeat/STIM_000.jpg
651.985	0.736	1	repeat	Run1	repeat/STIM_001.jpg
656.239	0.862	1	repeat	Run1	repeat/STIM_001.jpg
660.985	1.042	1	repeat	Run1	repeat/STIM_001.jpg
665.674	0.569	0	repeat	Run1	repeat/STIM_001.jpg
670.077	0.611	1	repeat	Run1	repeat/STIM_001.jpg
673.599	0.842	1	repeat	Run1	repeat/STIM_002.jpg
678.249	0.761	1	repeat	Run1	repeat/STIM_002.jpg
681.455	0.534	1	repeat	Run1	repeat/STIM_002.jpg
685.49	0.615	1	repeat	Run1	repeat/STIM_002.jpg
689.178	0.97	1	repeat	Run1	repeat/STIM_002.jpg
693.852	0.757	1	repeat	Run1	repeat/STIM_003.jpg
697.21	0.887	1	repeat	Run1	repeat/STIM_003.jpg
700.575	0.65	1	repeat	Run1	repeat/STIM_003.jpg
704.482	0.834	1	repeat	Run1	repeat/STIM_003.jpg
707.363	0.573	1	repeat	Run1	repeat/STIM_003.jpg
711.657	0.61	1	repeat	Run1	repeat/STIM_004.jpg
714.48	0.781	1	repeat	Run1	repeat/STIM_004.jpg
717.896	0.872	1	repeat	Run1	repeat/STIM_004.jpg
722.516	1.046	1	repeat	Run1	repeat/STIM_004.jpg
726.172	0.553	1	repeat	Run1	repeat/STIM_004.jpg
730.648	0.95	1	repeat	Run1	repeat/STIM_005.jpg
734.215	0.75	1	repeat	Run1	repeat/STIM_005.jpg
738.267	0.633	1	repeat	Run1	repeat/STIM_005.jpg
741.024	0.8	1	repeat	Run1	repeat/STIM_005.jpg
744.702	0.994	0	repeat	Run1	repeat/STIM_005.jpg
748.942	0.6	1	repeat	Run1	repeat/STIM_006.jpg
752.82	0.931	1	repeat	Run1	repeat/STIM_006.jpg
756.492	0.997	1	repeat	Run1	repeat/STIM_006.jpg
759.819	0.851	1	repeat	Run1	repeat/STIM_006.jpg
762.856	0.597	1	repeat	Run1	repeat/STIM_006.jpg
766.923	0.937	1	repeat	Run1	repeat/STIM_007.jpg
770.033	0.733	1	repeat	Run1	repeat/STIM_007.jpg
773.025	0.604	1	repeat	Run1	repeat/STIM_007.jpg
777.323	1.037	1	repeat	Run1	repeat/STIM_007.jpg
782.33	0.548	1	repeat	Run1	repeat/STIM_007.jpg
786.227	0.675	1	repeat	Run1	repeat/STIM_008.jpg
788.944	0.715	1	repeat	Run1	repeat/STIM_008.jpg
792.911	0.829	1	repeat	Run1	repeat/STIM_008.jpg
796.865	0.539	1	repeat	Run1	repeat/STIM_008.jpg
800.133	0.978	0	repeat	Run1	repeat/STIM_008.jpg
804.116	0.979	1	repeat	Run1	repeat/STIM_009.jpg
807.336	0.723	1	repeat	Run1	repeat/STIM_009.jpg
811.021	0.907	1	repeat	Run1	repeat/STIM_009.jpg
814.831	0.562	1	repeat	Run1	repeat/STIM_009.jpg
818.79	0.677	1	repeat	Run1	repeat/STIM_009.jpg
822.339	0.968	0	repeat	Run1	repeat/STIM_010.jpg
826.343	0.738	1	repeat	Run1	repeat/STIM_010.jpg
829.401	0.82	1	repeat	Run1	repeat/STIM_010.jpg
833.004	0.692	1	repeat	Run1	repeat/STIM_010.jpg
836.164	0.528	1	repeat	Run1	repeat/STIM_010.jpg
840.091	0.772	1	repeat	Run1	repeat/STIM_011.jpg
844.325	0.846	1	repeat	Run1	repeat/STIM_011.jpg
847.832	0.934	1	repeat	Run1	repeat/STIM_011.jpg
852.204	0.64	1	repeat	Run1	repeat/STIM_011.jpg
855.174	0.969	1	repeat	Run1	repeat/STIM_011.jpg
858.708	0.54	1	repeat	Run1	repeat/STIM_012.jpg
861.886	0.861	0	repeat	Run1	repeat/STIM_012.jpg
865.79	0.629	1	repeat	Run1	repeat/STIM_012.jpg
870.145	0.771	1	repeat	Run1	repeat/STIM_012.jpg
873.37	0.567	1	repeat	Run1	repeat/STIM_012.jpg
876.241	0.806	1	repeat	Run1	repeat/STIM_013.jpg
880.357	0.585	1	repeat	Run1	repeat/STIM_013.jpg
884.873	0.744	1	repeat	Run1	repeat/STIM_013.jpg
888.669	0.814	1	repeat	Run1	repeat/STIM_013.jpg
892.669	0.969	1	repeat	Run1	repeat/STIM_013.jpg
895.812	0.698	1	repeat	Run1	repeat/STIM_014.jpg
899.819	0.706	1	repeat	Run1	repeat/STIM_014.jpg
903.631	0.933	1	repeat	Run1	repeat/STIM_014.jpg
906.762	0.693	1	repeat	Run1	repeat/STIM_014.jpg
911.352	0.987	1	repeat	Run1	repeat/STIM_014.jpg
916.183	2.436	1	generate	Run2	generate/STIM_000.jpg
922.402	1.447	1	generate	Run2	generate/STIM_000.jpg
926.877	1.542	1	generate	Run2	generate/STIM_000.jpg
930.568	1.746	0	generate	Run2	generate/STIM_000.jpg
935.412	1.84	1	generate	Run2	generate/STIM_000.jpg
939.395	2.041	1	generate	Run2	generate/STIM_001.jpg
943.481	1.22	0	generate	Run2	generate/STIM_001.jpg
947.247	1.984	1	generate	Run2	generate/STIM_001.jpg
951.284	2.126	0	generate	Run2	generate/STIM_001.jpg
956.852	0.9	1	generate	Run2	generate/STIM_001.jpg
960.888	1.499	1	generate	Run2	generate/STIM_002.jpg
965.108	1.862	1	generate	Run2	generate/STIM_002.jpg
969.508	2.043	0	generate	Run2	generate/STIM_002.jpg
973.93	1.355	1	generate	Run2	generate/STIM_002.jpg
978.576	0.908	1	generate	Run2	generate/STIM_002.jpg
982.919	2.341	1	generate	Run2	generate/STIM_003.jpg
987.78	1.232	1	generate	Run2	generate/STIM_003.jpg
992.646	1.637	1	generate	Run2	generate/STIM_003.jpg
996.761	1.995	1	generate	Run2	generate/STIM_003.jpg
1001.289	1.536	0	generate	Run2	generate/STIM_003.jpg
1005.888	1.671	1	generate	Run2	generate/STIM_004.jpg
1010.187	2.254	1	generate	Run2	generate/STIM_004.jpg
1014.733	1.734	1	generate	Run2	generate/STIM_004.jpg
1020.349	1.867	1	generate	Run2	generate/STIM_004.jpg
1025.015	1.38	1	generate	Run2	generate/STIM_004.jpg
1029.345	2.102	0	generate	Run2	generate/STIM_005.jpg
1033.735	1.232	1	generate	Run2	generate/STIM_005.jpg
1037.232	1.553	1	generate	Run2	generate/STIM_005.jpg
1042.274	1.079	1	generate	Run2	generate/STIM_005.jpg
1045.753	1.957	1	generate	Run2	generate/STIM_005.jpg
1050.63	1.244	1	generate	Run2	generate/STIM_006.jpg
1055.778	1.602	0	generate	Run2	generate/STIM_006.jpg
1060.909	1.575	0	generate	Run2	generate/STIM_006.jpg
1065.693	1.447	1	generate	Run2	generate/STIM_006.jpg
1070.02	1.626	1	generate	Run2	generate/STIM_006.jpg
1075.643	1.639	0	generate	Run2	generate/STIM_007.jpg
1080.493	2.006	1	generate	Run2	generate/STIM_007.jpg
1086.215	1.083	1	generate	Run2	generate/STIM_007.jpg
1090.651	0.916	1	generate	Run2	generate/STIM_007.jpg
1093.692	1.566	1	generate	Run2	generate/STIM_007.jpg
1097.288	2.449	1	generate	Run2	generate/STIM_008.jpg
1103.095	1.82	1	generate	Run2	generate/STIM_008.jpg
1107.496	1.671	1	generate	Run2	generate/STIM_008.jpg
1112.465	1.088	0	generate	Run2	generate/STIM_008.jpg
1117.432	2.107	1	generate	Run2	generate/STIM_008.jpg
1121.837	2.269	1	generate	Run2	generate/STIM_009.jpg
1126.532	1.623	1	generate	Run2	generate/STIM_009.jpg
1130.908	1.158	1	generate	Run2	generate/STIM_009.jpg
1135.172	1.688	1	generate	Run2	generate/STIM_009.jpg
1139.686	1.973	1	generate	Run2	generate/STIM_009.jpg
1144.353	2.392	1	generate	Run2	generate/STIM_010.jpg
1148.968	1.291	0	generate	Run2	generate/STIM_010.jpg
1152.859	1.661	1	generate	Run2	generate/STIM_010.jpg
1156.636	2.158	0	generate	Run2	generate/STIM_010.jpg
1162.561	1.576	1	generate	Run2	generate/STIM_010.jpg
1166.627	2.381	0	generate	Run2	generate/STIM_011.jpg
1171.563	2.127	0	generate	Run2	generate/STIM_011.jpg
1176.75	1.567	1	generate	Run2	generate/STIM_011.jpg
1180.92	1.033	1	generate	Run2	generate/STIM_011.jpg
1185.593	1.674	1	generate	Run2	generate/STIM_011.jpg
1191.04	2.595	1	generate	Run2	generate/STIM_012.jpg
1196.653	2.288	0	generate	Run2	generate/STIM_012.jpg
1201.443	1.65	0	generate	Run2	generate/STIM_012.jpg
1206.524	1.301	1	generate	Run2	generate/STIM_012.jpg
1210.859	0.922	1	generate	Run2	generate/STIM_012.jpg
1215.663	2.097	1	generate	Run2	generate/STIM_013.jpg
1221.34	2.332	0	generate	Run2	generate/STIM_013.jpg
1225.757	1.426	1	generate	Run2	generate/STIM_013.jpg
1230.73	2.048	1	generate	Run2	generate/STIM_013.jpg
1236.41	1.59	1	generate	Run2	generate/STIM_013.jpg
1241.004	2.168	1	generate	Run2	generate/STIM_014.jpg
1245.65	1.488	1	generate	Run2	generate/STIM_014.jpg
1250.925	1.038	1	generate	Run2	generate/STIM_014.jpg
1255.423	2.031	1	generate	Run2	generate/STIM_014.jpg
1260.785	1.174	0	generate	Run2	generate/STIM_014.jpg
1265.845	1.761	0	generate	Run2	generate/STIM_015.jpg
1270.794	2.01	0	generate	Run2	generate/STIM_015.jpg
1275.577	2.29	1	generate	Run2	generate/STIM_015.jpg
1280.796	2.156	0	generate	Run2	generate/STIM_015.jpg
1285.15	2.087	1	generate	Run2	generate/STIM_015.jpg
1290.522	1.08	1	generate	Run2	generate/STIM_016.jpg
1293.934	2.132	0	generate	Run2	generate/STIM_016.jpg
1299.623	1.396	1	generate	Run2	generate/STIM_016.jpg
1303.905	1.418	1	generate	Run2	generate/STIM_016.jpg
1308.215	1.481	1	generate	Run2	generate/STIM_016.jpg
1312.307	1.118	0	generate	Run2	generate/STIM_017.jpg
1316.645	1.656	1	generate	Run2	generate/STIM_017.jpg
1320.47	1.722	0	generate	Run2	generate/STIM_017.jpg
1325.829	1.264	0	generate	Run2	generate/STIM_017.jpg
1331.004	1.293	1	generate	Run2	generate/STIM_017.jpg
1334.428	1.598	0	generate	Run2	generate/STIM_018.jpg
1338.994	1.488	1	generate	Run2	generate/STIM_018.jpg
1344.168	1.456	1	generate	Run2	generate/STIM_018.jpg
1347.682	1.185	1	generate	Run2	generate/STIM_018.jpg
1351.967	1.094	1	generate	Run2	generate/STIM_018.jpg
1356.117	2.355	1	generate	Run2	generate/STIM_019.jpg
1362.039	1.154	1	generate	Run2	generate/STIM_019.jpg
1365.767	1.536	1	generate	Run2	generate/STIM_019.jpg
1371.053	2.193	1	generate	Run2	generate/STIM_019.jpg
1375.951	2.092	1	generate	Run2	generate/STIM_019.jpg
1381.869	2.557	1	generate	Run2	generate/STIM_020.jpg
1388.379	1.496	0	generate	Run2	generate/STIM_020.jpg
1391.94	1.279	1	generate	Run2	generate/STIM_020.jpg
1395.239	1.889	1	generate	Run2	generate/STIM_020.jpg
1399.874	2.086	1	generate	Run2	generate/STIM_020.jpg
1404.669	1.677	0	generate	Run2	generate/STIM_021.jpg
1410.097	2.044	1	generate	Run2	generate/STIM_021.jpg
1414.535	1.891	1	generate	Run2	generate/STIM_021.jpg
1419.7	1.395	1	generate	Run2	generate/STIM_021.jpg
1423.797	1.436	1	generate	Run2	generate/STIM_021.jpg
1427.595	1.079	1	generate	Run2	generate/STIM_022.jpg
1432.565	1.898	1	generate	Run2	generate/STIM_022.jpg
1436.605	1.028	1	generate	Run2	generate/STIM_022.jpg
1440.015	1.883	1	generate	Run2	generate/STIM_022.jpg
1445.8	1.717	1	generate	Run2	generate/STIM_022.jpg
1449.91	2.314	1	generate	Run2	generate/STIM_023.jpg
1455.756	2.044	1	generate	Run2	generate/STIM_023.jpg
1460.027	1.652	0	generate	Run2	generate/STIM_023.jpg
1464.534	2.002	1	generate	Run2	generate/STIM_023.jpg
1470.082	1.488	1	generate	Run2	generate/STIM_023.jpg
1474.318	1.752	1	generate	Run2	generate/STIM_024.jpg
1478.439	1.924	1	generate	Run2	generate/STIM_024.jpg
1482.493	1.937	1	generate	Run2	generate/STIM_024.jpg
1486.948	2.118	1	generate	Run2	generate/STIM_024.jpg
1492.013	1.029	1	generate	Run2	generate/STIM_024.jpg
1495.254	0.893	1	repeat	Run2	repeat/STIM_000.jpg
1500.01	0.703	1	repeat	Run2	repeat/STIM_000.jpg
1503.142	0.898	1	repeat	Run2	repeat/STIM_000.jpg
1506.13	0.725	1	repeat	Run2	repeat/STIM_000.jpg
1509.855	0.645	1	repeat	Run2	repeat/STIM_000.jpg
1513.007	0.565	1	repeat	Run2	repeat/STIM_001.jpg
1517.297	0.926	1	repeat	Run2	repeat/STIM_001.jpg
1521.501	0.692	1	repeat	Run2	repeat/STIM_001.jpg
1525.383	0.888	1	repeat	Run2	repeat/STIM_001.jpg
1530.113	0.687	1	repeat	Run2	repeat/STIM_001.jpg
1533.653	0.792	1	repeat	Run2	repeat/STIM_002.jpg
1537.25	0.833	1	repeat	Run2	repeat/STIM_002.jpg
1541.691	0.837	1	repeat	Run2	repeat/STIM_002.jpg
1544.988	0.788	1	repeat	Run2	repeat/STIM_002.jpg
1549.286	0.6	1	repeat	Run2	repeat/STIM_002.jpg
1553.689	0.978	1	repeat	Run2	repeat/STIM_003.jpg
1558.47	0.819	1	repeat	Run2	repeat/STIM_003.jpg
1562.114	0.836	1	repeat	Run2	repeat/STIM_003.jpg
1565.267	0.548	1	repeat	Run2	repeat/STIM_003.jpg
1567.844	0.584	1	repeat	Run2	repeat/STIM_003.jpg
1570.691	0.527	1	repeat	Run2	repeat/STIM_004.jpg
1573.549	1.012	1	repeat	Run2	repeat/STIM_004.jpg
1577.456	0.843	1	repeat	Run2	repeat/STIM_004.jpg
1581.234	0.859	1	repeat	Run2	repeat/STIM_004.jpg
1586.068	1.037	1	repeat	Run2	repeat/STIM_004.jpg
1590.584	0.673	1	repeat	Run2	repeat/STIM_005.jpg
1594.623	0.557	1	repeat	Run2	repeat/STIM_005.jpg
1597.345	0.669	1	repeat	Run2	repeat/STIM_005.jpg
1601.666	0.88	1	repeat	Run2	repeat/STIM_005.jpg
1604.704	0.611	1	repeat	Run2	repeat/STIM_005.jpg
1608.12	0.817	1	repeat	Run2	repeat/STIM_006.jpg
1611.39	0.789	1	repeat	Run2	repeat/STIM_006.jpg
1614.674	0.645	1	repeat	Run2	repeat/STIM_006.jpg
1619.186	1.034	1	repeat	Run2	repeat/STIM_006.jpg
1623.039	1.028	1	repeat	Run2	repeat/STIM_006.jpg
1627.711	0.805	1	repeat	Run2	repeat/STIM_007.jpg
1632.196	0.898	1	repeat	Run2	repeat/STIM_007.jpg
1636.793	0.755	1	repeat	Run2	repeat/STIM_007.jpg
1640.811	0.679	1	repeat	Run2	repeat/STIM_007.jpg
1643.892	1.036	1	repeat	Run2	repeat/STIM_007.jpg
1648.37	1.044	1	repeat	Run2	repeat/STIM_008.jpg
1651.593	0.595	0	repeat	Run2	repeat/STIM_008.jpg
1655.94	0.919	1	repeat	Run2	repeat/STIM_008.jpg
1659.689	0.862	1	repeat	Run2	repeat/STIM_008.jpg
1664.039	0.709	1	repeat	Run2	repeat/STIM_008.jpg
1667.1	0.844	0	repeat	Run2	repeat/STIM_009.jpg
1670.414	0.93	1	repeat	Run2	repeat/STIM_009.jpg
1673.668	0.542	1	repeat	Run2	repeat/STIM_009.jpg
1676.835	0.859	1	repeat	Run2	repeat/STIM_009.jpg
1680.521	0.961	1	repeat	Run2	repeat/STIM_009.jpg
1683.608	0.741	1	repeat	Run2	repeat/STIM_010.jpg
1688.267	0.921	1	repeat	Run2	repeat/STIM_010.jpg
1692.855	0.721	1	repeat	Run2	repeat/STIM_010.jpg
1696.418	0.722	1	repeat	Run2	repeat/STIM_010.jpg
1700.093	1.015	1	repeat	Run2	repeat/STIM_010.jpg
1704.192	0.63	1	repeat	Run2	repeat/STIM_011.jpg
1707.387	0.557	1	repeat	Run2	repeat/STIM_011.jpg
1711.365	0.762	1	repeat	Run2	repeat/STIM_011.jpg
1714.863	0.539	1	repeat	Run2	repeat/STIM_011.jpg
1717.885	0.9	1	repeat	Run2	repeat/STIM_011.jpg
1721.743	0.816	1	repeat	Run2	repeat/STIM_012.jpg
1725.088	0.541	0	repeat	Run2	repeat/STIM_012.jpg
1728.508	0.947	0	repeat	Run2	repeat/STIM_012.jpg
1732.291	0.952	0	repeat	Run2	repeat/STIM_012.jpg
1737.214	0.857	1	repeat	Run2	repeat/STIM_012.jpg
1741.423	1.038	1	repeat	Run2	repeat/STIM_013.jpg
1745.18	0.652	1	repeat	Run2	repeat/STIM_013.jpg
1748.916	0.804	1	repeat	Run2	repeat/STIM_013.jpg
1752.184	0.911	1	repeat	Run2	repeat/STIM_013.jpg
1755.671	0.771	1	repeat	Run2	repeat/STIM_013.jpg
1759.743	0.943	0	repeat	Run2	repeat/STIM_014.jpg
1762.757	0.807	1	repeat	Run2	repeat/STIM_014.jpg
1766.318	0.82	1	repeat	Run2	repeat/STIM_014.jpg
1769.335	0.73	1	repeat	Run2	repeat/STIM_014.jpg
1772.521	0.988	0	repeat	Run2	repeat/STIM_014.jpg
1776.747	2.194	1	generate	Run3	generate/STIM_000.jpg
1782.417	1.02	1	generate	Run3	generate/STIM_000.jpg
1786.319	2.19	0	generate	Run3	generate/STIM_000.jpg
1792.276	1.889	1	generate	Run3	generate/STIM_000.jpg
1797.091	1.67	1	generate	Run3	generate/STIM_000.jpg
1801.607	1.163	1	generate	Run3	generate/STIM_001.jpg
1806.191	1.732	1	generate	Run3	generate/STIM_001.jpg
1810.76	1.406	1	generate	Run3	generate/STIM_001.jpg
1815.233	1.171	1	generate	Run3	generate/STIM_001.jpg
1818.821	1.018	1	generate	Run3	generate/STIM_001.jpg
1823.751	0.924	1	generate	Run3	generate/STIM_002.jpg
1827.716	1.752	0	generate	Run3	generate/STIM_002.jpg
1831.644	1.615	1	generate	Run3	generate/STIM_002.jpg
1835.861	1.011	1	generate	Run3	generate/STIM_002.jpg
1840.697	1.823	0	generate	Run3	generate/STIM_002.jpg
1845.968	1.608	1	generate	Run3	generate/STIM_003.jpg
1851.283	2.026	1	generate	Run3	generate/STIM_003.jpg
1856.988	1.836	1	generate	Run3	generate/STIM_003.jpg
1861.274	0.997	1	generate	Run3	generate/STIM_003.jpg
1864.936	1.134	0	generate	Run3	generate/STIM_003.jpg
1868.383	0.905	0	generate	Run3	generate/STIM_004.jpg
1871.828	1.897	1	generate	Run3	generate/STIM_004.jpg
1877.098	1.431	1	generate	Run3	generate/STIM_004.jpg
1881.872	1.992	1	generate	Run3	generate/STIM_004.jpg
1887.432	0.91	1	generate	Run3	generate/STIM_004.jpg
1891.602	1.224	0	generate	Run3	generate/STIM_005.jpg
1895.326	2.149	1	generate	Run3	generate/STIM_005.jpg
1899.749	1.618	1	generate	Run3	generate/STIM_005.jpg
1905.338	2.148	1	generate	Run3	generate/STIM_005.jpg
1909.666	0.989	1	generate	Run3	generate/STIM_005.jpg
1914.163	2.041	1	generate	Run3	generate/STIM_006.jpg
1919.683	1.85	0	generate	Run3	generate/STIM_006.jpg
1923.726	1.814	1	generate	Run3	generate/STIM_006.jpg
1927.641	1.9	0	generate	Run3	generate/STIM_006.jpg
1932.093	1.06	1	generate	Run3	generate/STIM_006.jpg
1935.484	0.968	1	generate	Run3	generate/STIM_007.jpg
1938.56	1.425	1	generate	Run3	generate/STIM_007.jpg
1943.119	2.142	1	generate	Run3	generate/STIM_007.jpg
1947.514	1.322	1	generate	Run3	generate/STIM_007.jpg
1952.571	1.358	1	generate	Run3	generate/STIM_007.jpg
1957.904	1.737	1	generate	Run3	generate/STIM_008.jpg
1962.648	1.268	1	generate	Run3	generate/STIM_008.jpg
1966.136	1.44	0	generate	Run3	generate/STIM_008.jpg
1970.841	1.921	1	generate	Run3	generate/STIM_008.jpg
1976.374	1.626	1	generate	Run3	generate/STIM_008.jpg
1980.95	2.041	1	generate	Run3	generate/STIM_009.jpg
1986.13	1.197	0	generate	Run3	generate/STIM_009.jpg
1991.28	2.181	1	generate	Run3	generate/STIM_009.jpg
1995.869	1.246	0	generate	Run3	generate/STIM_009.jpg
2000.653	2.061	0	generate	Run3	generate/STIM_009.jpg
2005.71	1.095	1	generate	Run3	generate/STIM_010.jpg
2010.732	1.688	1	generate	Run3	generate/STIM_010.jpg
2015.79	1.539	1	generate	Run3	generate/STIM_010.jpg
2019.747	1.631	1	generate	Run3	generate/STIM_010.jpg
2024.777	1.459	1	generate	Run3	generate/STIM_010.jpg
2029.857	1.514	1	generate	Run3	generate/STIM_011.jpg
2034.612	2.021	1	generate	Run3	generate/STIM_011.jpg
2039.933	1.554	1	generate	Run3	generate/STIM_011.jpg
2043.558	1.447	1	generate	Run3	generate/STIM_011.jpg
2047.21	1.494	1	generate	Run3	generate/STIM_011.jpg
2051.073	0.904	1	generate	Run3	generate/STIM_012.jpg
2055.109	1.008	1	generate	Run3	generate/STIM_012.jpg
2058.985	1.57	0	generate	Run3	generate/STIM_012.jpg
2063.22	1.029	1	generate	Run3	generate/STIM_012.jpg
2068.135	0.918	1	generate	Run3	generate/STIM_012.jpg
2071.341	1.762	1	generate	Run3	generate/STIM_013.jpg
2076.171	1.548	0	generate	Run3	generate/STIM_013.jpg
2080.796	1.309	1	generate	Run3	generate/STIM_013.jpg
2085.365	1.155	1	generate	Run3	generate/STIM_013.jpg
2088.637	1.684	1	generate	Run3	generate/STIM_013.jpg
2092.829	2.043	1	generate	Run3	generate/STIM_014.jpg
2098.578	1.964	1	generate	Run3	generate/STIM_014.jpg
2103.087	1.153	1	generate	Run3	generate/STIM_014.jpg
2107.362	1.611	1	generate	Run3	generate/STIM_014.jpg
2112.54	1.357	1	generate	Run3	generate/STIM_014.jpg
2117.862	1.877	1	generate	Run3	generate/STIM_015.jpg
2122.04	1.653	1	generate	Run3	generate/STIM_015.jpg
2126.371	1.183	1	generate	Run3	generate/STIM_015.jpg
2131.279	1.539	1	generate	Run3	generate/STIM_015.jpg
2135.223	1.566	1	generate	Run3	generate/STIM_015.jpg
2139.665	2.089	1	generate	Run3	generate/STIM_016.jpg
2145.688	1.611	1	generate	Run3	generate/STIM_016.jpg
2150.966	1.157	1	generate	Run3	generate/STIM_016.jpg
2154.16	1.03	1	generate	Run3	generate/STIM_016.jpg
2158.334	1.468	1	generate	Run3	generate/STIM_016.jpg
2162.332	1.208	1	generate	Run3	generate/STIM_017.jpg
2166.312	1.409	1	generate	Run3	generate/STIM_017.jpg
2170.347	1.262	1	generate	Run3	generate/STIM_017.jpg
2173.881	1.797	1	generate	Run3	generate/STIM_017.jpg
2178.543	1.495	1	generate	Run3	generate/STIM_017.jpg
2182.847	2.092	1	generate	Run3	generate/STIM_018.jpg
2187.845	1.856	1	generate	Run3	generate/STIM_018.jpg
2191.704	1.763	1	generate	Run3	generate/STIM_018.jpg
2195.591	1.428	0	generate	Run3	generate/STIM_018.jpg
2199.192	1.9	1	generate	Run3	generate/STIM_018.jpg
2204.955	1.797	1	generate	Run3	generate/STIM_019.jpg
2209.425	0.936	0	generate	Run3	generate/STIM_019.jpg
2213.175	1.57	1	generate	Run3	generate/STIM_019.jpg
2217.664	0.893	1	generate	Run3	generate/STIM_019.jpg
2222.464	1.474	1	generate	Run3	generate/STIM_019.jpg
2226.91	1.158	1	generate	Run3	generate/STIM_020.jpg
2230.298	1.869	1	generate	Run3	generate/STIM_020.jpg
2234.309	1.231	1	generate	Run3	generate/STIM_020.jpg
2238.698	1.324	1	generate	Run3	generate/STIM_020.jpg
2242.251	1.321	1	generate	Run3	generate/STIM_020.jpg
2246.058	1.992	1	generate	Run3	generate/STIM_021.jpg
2251.375	1.536	1	generate	Run3	generate/STIM_021.jpg
2256.084	0.923	1	generate	Run3	generate/STIM_021.jpg
2259.538	1.868	1	generate	Run3	generate/STIM_021.jpg
2264.952	1.41	1	generate	Run3	generate/STIM_021.jpg
2269.167	1.592	1	generate	Run3	generate/STIM_022.jpg
2272.954	2.015	1	generate	Run3	generate/STIM_022.jpg
2277.433	1.996	1	generate	Run3	generate/STIM_022.jpg
2282.186	2.138	1	generate	Run3	generate/STIM_022.jpg
2286.833	2.075	1	generate	Run3	generate/STIM_022.jpg
2292.892	0.886	1	generate	Run3	generate/STIM_023.jpg
2296.164	1.322	1	generate	Run3	generate/STIM_023.jpg
2299.591	1.231	0	generate	Run3	generate/STIM_023.jpg
2304.008	1.232	1	generate	Run3	generate/STIM_023.jpg
2308.298	1.765	1	generate	Run3	generate/STIM_023.jpg
2313.883	1.163	1	generate	Run3	generate/STIM_024.jpg
2318.4	1.371	1	generate	Run3	generate/STIM_024.jpg
2323.384	1.661	1	generate	Run3	generate/STIM_024.jpg
2327.727	1.832	1	generate	Run3	generate/STIM_024.jpg
2333.423	1.373	1	generate	Run3	generate/STIM_024.jpg
2338.622	0.828	1	repeat	Run3	repeat/STIM_000.jpg
2341.613	0.721	1	repeat	Run3	repeat/STIM_000.jpg
2344.454	0.724	1	repeat	Run3	repeat/STIM_000.jpg
2347.707	0.647	1	repeat	Run3	repeat/STIM_000.jpg
2351.879	0.614	1	repeat	Run3	repeat/STIM_000.jpg
2356.087	1.002	1	repeat	Run3	repeat/STIM_001.jpg
2359.724	1.0	1	repeat	Run3	repeat/STIM_001.jpg
2364.104	0.811	1	repeat	Run3	repeat/STIM_001.jpg
2367.691	0.772	1	repeat	Run3	repeat/STIM_001.jpg
2371.187	1.031	1	repeat	Run3	repeat/STIM_001.jpg
2374.947	0.723	1	repeat	Run3	repeat/STIM_002.jpg
2378.236	1.011	1	repeat	Run3	repeat/STIM_002.jpg
2382.691	0.854	1	repeat	Run3	repeat/STIM_002.jpg
2386.018	0.774	1	repeat	Run3	repeat/STIM_002.jpg
2388.963	0.777	1	repeat	Run3	repeat/STIM_002.jpg
2392.271	0.886	1	repeat	Run3	repeat/STIM_003.jpg
2395.951	0.734	1	repeat	Run3	repeat/STIM_003.jpg
2399.697	0.809	1	repeat	Run3	repeat/STIM_003.jpg
2403.726	0.765	1	repeat	Run3	repeat/STIM_003.jpg
2407.81	0.694	1	repeat	Run3	repeat/STIM_003.jpg
2411.67	1.007	1	repeat	Run3	repeat/STIM_004.jpg
2415.1	0.754	1	repeat	Run3	repeat/STIM_004.jpg
2418.966	0.723	1	repeat	Run3	repeat/STIM_004.jpg
2422.466	0.88	1	repeat	Run3	repeat/STIM_004.jpg
2425.348	0.642	1	repeat	Run3	repeat/STIM_004.jpg
2429.42	0.728	1	repeat	Run3	repeat/STIM_005.jpg
2432.176	0.847	1	repeat	Run3	repeat/STIM_005.jpg
2435.984	0.675	1	repeat	Run3	repeat/STIM_005.jpg
2440.275	1.034	1	repeat	Run3	repeat/STIM_005.jpg
2444.86	0.767	1	repeat	Run3	repeat/STIM_005.jpg
2448.795	0.543	1	repeat	Run3	repeat/STIM_006.jpg
2451.371	0.814	1	repeat	Run3	repeat/STIM_006.jpg
2455.968	0.671	1	repeat	Run3	repeat/STIM_006.jpg
2459.794	1.033	1	repeat	Run3	repeat/STIM_006.jpg
2463.02	0.738	1	repeat	Run3	repeat/STIM_006.jpg
2466.368	0.655	1	repeat	Run3	repeat/STIM_007.jpg
2470.703	0.58	1	repeat	Run3	repeat/STIM_007.jpg
2474.035	0.916	1	repeat	Run3	repeat/STIM_007.jpg
2478.474	0.746	1	repeat	Run3	repeat/STIM_007.jpg
2481.689	1.009	1	repeat	Run3	repeat/STIM_007.jpg
2484.85	0.981	1	repeat	Run3	repeat/STIM_008.jpg
2489.342	1.034	1	repeat	Run3	repeat/STIM_008.jpg
2492.424	0.646	0	repeat	Run3	repeat/STIM_008.jpg
2496.134	0.703	1	repeat	Run3	repeat/STIM_008.jpg
2499.065	0.958	1	repeat	Run3	repeat/STIM_008.jpg
2502.967	1.003	1	repeat	Run3	repeat/STIM_009.jpg
2506.947	0.731	1	repeat	Run3	repeat/STIM_009.jpg
2510.495	0.716	1	repeat	Run3	repeat/STIM_009.jpg
2514.083	0.652	1	repeat	Run3	repeat/STIM_009.jpg
2517.589	0.996	1	repeat	Run3	repeat/STIM_009.jpg
2520.755	0.984	1	repeat	Run3	repeat/STIM_010.jpg
2524.003	0.602	0	repeat	Run3	repeat/STIM_010.jpg
2527.839	0.878	1	repeat	Run3	repeat/STIM_010.jpg
2532.457	0.822	1	repeat	Run3	repeat/STIM_010.jpg
2537.213	0.996	1	repeat	Run3	repeat/STIM_010.jpg
2542.003	1.011	1	repeat	Run3	repeat/STIM_011.jpg
2546.591	0.535	1	repeat	Run3	repeat/STIM_011.jpg
2549.614	0.972	1	repeat	Run3	repeat/STIM_011.jpg
2553.819	0.852	1	repeat	Run3	repeat/STIM_011.jpg
2557.509	0.973	1	repeat	Run3	repeat/STIM_011.jpg
2562.169	0.828	1	repeat	Run3	repeat/STIM_012.jpg
2565.135	0.798	1	repeat	Run3	repeat/STIM_012.jpg
2569.326	0.89	1	repeat	Run3	repeat/STIM_012.jpg
2572.722	0.96	1	repeat	Run3	repeat/STIM_012.jpg
2577.3	0.986	1	repeat	Run3	repeat/STIM_012.jpg
2580.452	0.568	1	repeat	Run3	repeat/STIM_013.jpg
2583.428	0.653	1	repeat	Run3	repeat/STIM_013.jpg
2587.611	0.658	1	repeat	Run3	repeat/STIM_013.jpg
2591.309	0.677	1	repeat	Run3	repeat/STIM_013.jpg
2594.511	0.602	1	repeat	Run3	repeat/STIM_013.jpg
2598.28	1.014	1	repeat	Run3	repeat/STIM_014.jpg
2602.971	0.815	1	repeat	Run3	repeat/STIM_014.jpg
2605.95	1.045	1	repeat	Run3	repeat/STIM_014.jpg
2610.616	0.76	1	repeat	Run3	repeat/STIM_014.jpg
2613.507	0.643	1	repeat	Run3	repeat/STIM_014.jpg
2616.609	1.004	1	generate	Run4	generate/STIM_000.jpg
2620.966	2.129	1	generate	Run4	generate/STIM_000.jpg
2627.042	1.488	1	generate	Run4	generate/STIM_000.jpg
2632.44	1.778	0	generate	Run4	generate/STIM_000.jpg
2636.459	1.826	1	generate	Run4	generate/STIM_000.jpg
2640.617	1.463	0	generate	Run4	generate/STIM_001.jpg
2645.223	1.972	1	generate	Run4	generate/STIM_001.jpg
2650.905	1.878	1	generate	Run4	generate/STIM_001.jpg
2655.506	1.153	1	generate	Run4	generate/STIM_001.jpg
2659.739	1.681	1	generate	Run4	generate/STIM_001.jpg
2664.385	1.252	1	generate	Run4	generate/STIM_002.jpg
2668.325	0.881	1	generate	Run4	generate/STIM_002.jpg
2671.246	2.18	1	generate	Run4	generate/STIM_002.jpg
2676.135	2.098	1	generate	Run4	generate/STIM_002.jpg
2680.293	1.879	1	generate	Run4	generate/STIM_002.jpg
2685.131	0.999	1	generate	Run4	generate/STIM_003.jpg
2689.352	1.131	1	generate	Run4	generate/STIM_003.jpg
2693.639	1.31	1	generate	Run4	generate/STIM_003.jpg
2698.609	2.061	1	generate	Run4	generate/STIM_003.jpg
2703.051	1.018	1	generate	Run4	generate/STIM_003.jpg
2707.667	1.858	1	generate	Run4	generate/STIM_004.jpg
2712.415	2.161	1	generate	Run4	generate/STIM_004.jpg
2717.721	1.878	1	generate	Run4	generate/STIM_004.jpg
2722.082	1.319	1	generate	Run4	generate/STIM_004.jpg
2725.418	2.139	1	generate	Run4	generate/STIM_004.jpg
2731.164	1.475	1	generate	Run4	generate/STIM_005.jpg
2735.88	1.071	1	generate	Run4	generate/STIM_005.jpg
2739.384	1.763	1	generate	Run4	generate/STIM_005.jpg
2744.309	0.987	1	generate	Run4	generate/STIM_005.jpg
2747.454	1.996	1	generate	Run4	generate/STIM_005.jpg
2753.435	1.167	1	generate	Run4	generate/STIM_006.jpg
2756.757	1.936	1	generate	Run4	generate/STIM_006.jpg
2761.473	1.231	1	generate	Run4	generate/STIM_006.jpg
2765.383	0.922	1	generate	Run4	generate/STIM_006.jpg
2770.249	1.468	1	generate	Run4	generate/STIM_006.jpg
2775.094	1.683	1	generate	Run4	generate/STIM_007.jpg
2780.163	1.887	0	generate	Run4	generate/STIM_007.jpg
2785.3	1.49	1	generate	Run4	generate/STIM_007.jpg
2790.126	0.957	1	generate	Run4	generate/STIM_007.jpg
2794.627	1.817	1	generate	Run4	generate/STIM_007.jpg
2799.048	2.06	1	generate	Run4	generate/STIM_008.jpg
2804.758	1.448	1	generate	Run4	generate/STIM_008.jpg
2808.859	1.223	1	generate	Run4	generate/STIM_008.jpg
2812.912	2.125	1	generate	Run4	generate/STIM_008.jpg
2818.412	2.172	1	generate	Run4	generate/STIM_008.jpg
2822.824	1.908	1	generate	Run4	generate/STIM_009.jpg
2826.971	0.981	1	generate	Run4	generate/STIM_009.jpg
2830.422	2.066	1	generate	Run4	generate/STIM_009.jpg
2834.495	1.928	1	generate	Run4	generate/STIM_009.jpg
2839.318	0.898	1	generate	Run4	generate/STIM_009.jpg
2843.781	1.17	1	generate	Run4	generate/STIM_010.jpg
2847.419	1.961	1	generate	Run4	generate/STIM_010.jpg
2851.935	1.905	0	generate	Run4	generate/STIM_010.jpg
2856.485	0.962	1	generate	Run4	generate/STIM_010.jpg
2861.117	1.327	1	generate	Run4	generate/STIM_010.jpg
2864.505	1.977	1	generate	Run4	generate/STIM_011.jpg
2869.9	1.722	1	generate	Run4	generate/STIM_011.jpg
2875.0	1.876	1	generate	Run4	generate/STIM_011.jpg
2880.498	2.05	1	generate	Run4	generate/STIM_011.jpg
2884.821	1.527	1	generate	Run4	generate/STIM_011.jpg
2889.527	1.186	1	generate	Run4	generate/STIM_012.jpg
2893.529	1.155	1	generate	Run4	generate/STIM_012.jpg
2897.809	1.877	1	generate	Run4	generate/STIM_012.jpg
2902.334	1.904	1	generate	Run4	generate/STIM_012.jpg
2907.884	1.998	1	generate	Run4	generate/STIM_012.jpg
2913.686	2.085	1	generate	Run4	generate/STIM_013.jpg
2918.946	0.953	1	generate	Run4	generate/STIM_013.jpg
2922.311	1.105	1	generate	Run4	generate/STIM_013.jpg
2925.807	1.12	1	generate	Run4	generate/STIM_013.jpg
2929.671	2.015	0	generate	Run4	generate/STIM_013.jpg
2935.165	1.634	1	generate	Run4	generate/STIM_014.jpg
2939.479	1.505	1	generate	Run4	generate/STIM_014.jpg
2943.4	1.203	1	generate	Run4	generate/STIM_014.jpg
2948.509	1.667	1	generate	Run4	generate/STIM_014.jpg
2952.85	1.563	1	generate	Run4	generate/STIM_014.jpg
2957.295	1.058	1	generate	Run4	generate/STIM_015.jpg
2960.593	1.734	1	generate	Run4	generate/STIM_015.jpg
2964.895	1.252	1	generate	Run4	generate/STIM_015.jpg
2969.343	1.98	1	generate	Run4	generate/STIM_015.jpg
2974.451	1.483	1	generate	Run4	generate/STIM_015.jpg
2979.438	1.293	0	generate	Run4	generate/STIM_016.jpg
2982.844	1.627	1	generate	Run4	generate/STIM_016.jpg
2986.615	0.938	1	generate	Run4	generate/STIM_016.jpg
2989.793	1.897	1	generate	Run4	generate/STIM_016.jpg
2993.825	1.254	1	generate	Run4	generate/STIM_016.jpg
2998.179	1.616	1	generate	Run4	generate/STIM_017.jpg
3002.846	2.04	1	generate	Run4	generate/STIM_017.jpg
3007.437	1.991	1	generate	Run4	generate/STIM_017.jpg
3011.908	1.535	1	generate	Run4	generate/STIM_017.jpg
3015.976	2.128	1	generate	Run4	generate/STIM_017.jpg
3020.651	1.947	0	generate	Run4	generate/STIM_018.jpg
3024.701	2.041	1	generate	Run4	generate/STIM_018.jpg
3030.108	2.006	1	generate	Run4	generate/STIM_018.jpg
3036.054	1.748	1	generate	Run4	generate/STIM_018.jpg
3040.676	2.162	1	generate	Run4	generate/STIM_018.jpg
3045.279	2.087	0	generate	Run4	generate/STIM_019.jpg
3050.202	1.237	1	generate	Run4	generate/STIM_019.jpg
3054.226	1.605	1	generate	Run4	generate/STIM_019.jpg
3059.064	1.849	1	generate	Run4	generate/STIM_019.jpg
3064.272	1.55	1	generate	Run4	generate/STIM_019.jpg
3068.213	1.75	0	generate	Run4	generate/STIM_020.jpg
3073.326	1.364	1	generate	Run4	generate/STIM_020.jpg
3078.247	1.79	1	generate	Run4	generate/STIM_020.jpg
3082.893	1.597	1	generate	Run4	generate/STIM_020.jpg
3087.523	1.488	1	generate	Run4	generate/STIM_020.jpg
3091.236	1.152	1	generate	Run4	generate/STIM_021.jpg
3095.522	1.515	1	generate	Run4	generate/STIM_021.jpg
3099.446	1.422	0	generate	Run4	generate/STIM_021.jpg
3103.216	2.072	1	generate	Run4	generate/STIM_021.jpg
3109.272	1.984	1	generate	Run4	generate/STIM_021.jpg
3113.831	1.394	0	generate	Run4	generate/STIM_022.jpg
3119.007	1.61	1	generate	Run4	generate/STIM_022.jpg
3124.303	1.501	1	generate	Run4	generate/STIM_022.jpg
3129.791	1.268	1	generate	Run4	generate/STIM_022.jpg
3133.379	0.915	1	generate	Run4	generate/STIM_022.jpg
3137.481	1.816	1	generate	Run4	generate/STIM_023.jpg
3142.417	1.572	1	generate	Run4	generate/STIM_023.jpg
3147.773	1.782	1	generate	Run4	generate/STIM_023.jpg
3152.244	1.77	1	generate	Run4	generate/STIM_023.jpg
3156.699	1.24	1	generate	Run4	generate/STIM_023.jpg
3160.583	1.623	1	generate	Run4	generate/STIM_024.jpg
3165.333	1.536	1	generate	Run4	generate/STIM_024.jpg
3170.673	1.08	1	generate	Run4	generate/STIM_024.jpg
3174.33	1.201	1	generate	Run4	generate/STIM_024.jpg
3179.307	1.217	1	generate	Run4	generate/STIM_024.jpg
3182.574	0.72	0	repeat	Run4	repeat/STIM_000.jpg
3186.715	0.549	0	repeat	Run4	repeat/STIM_000.jpg
3189.408	0.542	1	repeat	Run4	repeat/STIM_000.jpg
3193.785	0.877	1	repeat	Run4	repeat/STIM_000.jpg
3198.563	0.529	1	repeat	Run4	repeat/STIM_000.jpg
3201.332	0.812	1	repeat	Run4	repeat/STIM_001.jpg
3205.392	1.034	1	repeat	Run4	repeat/STIM_001.jpg
3208.818	0.588	1	repeat	Run4	repeat/STIM_001.jpg
3212.933	0.738	1	repeat	Run4	repeat/STIM_001.jpg
3215.975	0.785	0	repeat	Run4	repeat/STIM_001.jpg
3219.008	0.944	1	repeat	Run4	repeat/STIM_002.jpg
3222.25	0.693	1	repeat	Run4	repeat/STIM_002.jpg
3225.603	0.528	1	repeat	Run4	repeat/STIM_002.jpg
3228.159	0.739	1	repeat	Run4	repeat/STIM_002.jpg
3232.497	0.611	0	repeat	Run4	repeat/STIM_002.jpg
3235.235	0.717	1	repeat	Run4	repeat/STIM_003.jpg
3239.208	1.016	1	repeat	Run4	repeat/STIM_003.jpg
3242.478	0.573	1	repeat	Run4	repeat/STIM_003.jpg
3245.97	0.572	1	repeat	Run4	repeat/STIM_003.jpg
3250.462	0.904	1	repeat	Run4	repeat/STIM_003.jpg
3254.83	0.585	1	repeat	Run4	repeat/STIM_004.jpg
3257.865	0.722	1	repeat	Run4	repeat/STIM_004.jpg
3261.989	0.64	0	repeat	Run4	repeat/STIM_004.jpg
3265.585	0.635	1	repeat	Run4	repeat/STIM_004.jpg
3270.181	0.693	1	repeat	Run4	repeat/STIM_004.jpg
3273.443	1.006	1	repeat	Run4	repeat/STIM_005.jpg
3276.821	0.789	1	repeat	Run4	repeat/STIM_005.jpg
3279.982	0.687	1	repeat	Run4	repeat/STIM_005.jpg
3283.042	0.652	0	repeat	Run4	repeat/STIM_005.jpg
3286.135	0.859	1	repeat	Run4	repeat/STIM_005.jpg
3290.075	0.911	1	repeat	Run4	repeat/STIM_006.jpg
3293.674	0.9	1	repeat	Run4	repeat/STIM_006.jpg
3298.318	0.626	1	repeat	Run4	repeat/STIM_006.jpg
3302.27	0.694	0	repeat	Run4	repeat/STIM_006.jpg
3306.023	0.711	1	repeat	Run4	repeat/STIM_006.jpg
3309.248	0.943	1	repeat	Run4	repeat/STIM_007.jpg
3313.791	0.982	1	repeat	Run4	repeat/STIM_007.jpg
3318.364	0.881	0	repeat	Run4	repeat/STIM_007.jpg
3321.372	0.77	1	repeat	Run4	repeat/STIM_007.jpg
3324.945	0.72	1	repeat	Run4	repeat/STIM_007.jpg
3328.674	0.756	1	repeat	Run4	repeat/STIM_008.jpg
3331.616	1.009	0	repeat	Run4	repeat/STIM_008.jpg
3336.184	0.939	1	repeat	Run4	repeat/STIM_008.jpg
3341.12	1.021	1	repeat	Run4	repeat/STIM_008.jpg
3345.986	0.799	1	repeat	Run4	repeat/STIM_008.jpg
3349.125	0.606	1	repeat	Run4	repeat/STIM_009.jpg
3353.106	0.788	1	repeat	Run4	repeat/STIM_009.jpg
3356.84	0.697	1	repeat	Run4	repeat/STIM_009.jpg
3360.621	0.6	1	repeat	Run4	repeat/STIM_009.jpg
3364.961	0.728	1	repeat	Run4	repeat/STIM_009.jpg
3368.589	0.686	1	repeat	Run4	repeat/STIM_010.jpg
3372.041	0.963	1	repeat	Run4	repeat/STIM_010.jpg
3376.948	0.617	1	repeat	Run4	repeat/STIM_010.jpg
3381.059	0.661	1	repeat	Run4	repeat/STIM_010.jpg
3384.769	0.915	1	repeat	Run4	repeat/STIM_010.jpg
3389.387	0.974	1	repeat	Run4	repeat/STIM_011.jpg
3392.912	0.897	1	repeat	Run4	repeat/STIM_011.jpg
3396.449	0.628	1	repeat	Run4	repeat/STIM_011.jpg
3399.375	0.567	1	repeat	Run4	repeat/STIM_011.jpg
3401.948	0.555	1	repeat	Run4	repeat/STIM_011.jpg
3406.337	0.724	1	repeat	Run4	repeat/STIM_012.jpg
3410.265	1.01	0	repeat	Run4	repeat/STIM_012.jpg
3414.525	0.939	1	repeat	Run4	repeat/STIM_012.jpg
3419.445	0.684	1	repeat	Run4	repeat/STIM_012.jpg
3422.434	0.715	1	repeat	Run4	repeat/STIM_012.jpg
3426.754	0.81	1	repeat	Run4	repeat/STIM_013.jpg
3430.827	0.554	1	repeat	Run4	repeat/STIM_013.jpg
3434.497	0.764	1	repeat	Run4	repeat/STIM_013.jpg
3438.989	0.575	1	repeat	Run4	repeat/STIM_013.jpg
3443.306	0.71	1	repeat	Run4	repeat/STIM_013.jpg
3446.603	0.827	1	repeat	Run4	repeat/STIM_014.jpg
3449.816	0.729	1	repeat	Run4	repeat/STIM_014.jpg
3452.768	0.649	1	repeat	Run4	repeat/STIM_014.jpg
3455.429	0.996	1	repeat	Run4	repeat/STIM_014.jpg
3459.956	0.608	0	repeat	Run4	repeat/STIM_014.jpg
