onset	duration	response_time_ms	trial_type	learning_stage	stimulus	response_port
0.0	2.528	2527.6	generate	Run1	generate/STIM_000.jpg	100
4.844	1.994	1994.2	generate	Run1	generate/STIM_000.jpg	99
10.12	1.649	1648.7	generate	Run1	generate/STIM_000.jpg	99
15.379	1.665	1664.6	generate	Run1	generate/STIM_000.jpg	100
20.567	1.929	1928.7	generate	Run1	generate/STIM_000.jpg	100
26.436	1.822	1822.4	generate	Run1	generate/STIM_001.jpg	100
30.648	2.803	2802.7	generate	Run1	generate/STIM_001.jpg	99
35.877	1.199	1199.4	generate	Run1	generate/STIM_001.jpg	99
40.406	2.013	2013.1	generate	Run1	generate/STIM_001.jpg	100
44.855	2.05	2050.3	generate	Run1	generate/STIM_001.jpg	100
50.614	1.927	1927.2	generate	Run1	generate/STIM_002.jpg	100
56.501	1.84	1840.3	generate	Run1	generate/STIM_002.jpg	99
61.338	1.752	1752.0	generate	Run1	generate/STIM_002.jpg	99
65.187	1.083	1083.2	generate	Run1	generate/STIM_002.jpg	99
70.069	1.578	1578.3	generate	Run1	generate/STIM_002.jpg	100
75.066	1.705	1705.0	generate	Run1	generate/STIM_003.jpg	100
79.187	2.762	2761.8	generate	Run1	generate/STIM_003.jpg	100
84.913	2.785	2784.6	generate	Run1	generate/STIM_003.jpg	100
89.774	1.721	1721.4	generate	Run1	generate/STIM_003.jpg	99
93.843	2.202	2201.6	generate	Run1	generate/STIM_003.jpg	100
98.704	2.928	2928.4	generate	Run1	generate/STIM_004.jpg	100
105.55	1.641	1641.1	generate	Run1	generate/STIM_004.jpg	99
109.808	2.131	2131.1	generate	Run1	generate/STIM_004.jpg	100
115.59	1.62	1619.7	generate	Run1	generate/STIM_004.jpg	100
121.179	2.133	2133.3	generate	Run1	generate/STIM_004.jpg	99
127.221	2.889	2888.6	generate	Run1	generate/STIM_005.jpg	100
133.038	2.292	2291.7	generate	Run1	generate/STIM_005.jpg	99
138.301	2.792	2791.9	generate	Run1	generate/STIM_005.jpg	100
144.289	1.604	1604.0	generate	Run1	generate/STIM_005.jpg	99
149.418	1.178	1177.8	generate	Run1	generate/STIM_005.jpg	100
154.228	2.063	2062.6	generate	Run1	generate/STIM_006.jpg	99
159.391	2.242	2241.8	generate	Run1	generate/STIM_006.jpg	100
164.54	2.025	2025.2	generate	Run1	generate/STIM_006.jpg	99
168.828	2.128	2127.8	generate	Run1	generate/STIM_006.jpg	99
173.038	2.198	2198.1	generate	Run1	generate/STIM_006.jpg	99
178.352	1.344	1344.0	generate	Run1	generate/STIM_007.jpg	99
183.318	2.86	2859.8	generate	Run1	generate/STIM_007.jpg	99
188.797	1.692	1692.4	generate	Run1	generate/STIM_007.jpg	99
193.662	1.314	1313.6	generate	Run1	generate/STIM_007.jpg	100
197.734	1.235	1235.3	generate	Run1	generate/STIM_007.jpg	99
201.699	1.556	1555.8	generate	Run1	generate/STIM_008.jpg	99
206.968	1.684	1684.2	generate	Run1	generate/STIM_008.jpg	99
211.511	1.281	1280.8	generate	Run1	generate/STIM_008.jpg	100
215.753	2.403	2402.7	generate	Run1	generate/STIM_008.jpg	100
221.884	2.122	2122.2	generate	Run1	generate/STIM_008.jpg	100
226.027	1.59	1589.9	generate	Run1	generate/STIM_009.jpg	99
230.193	1.98	1980.5	generate	Run1	generate/STIM_009.jpg	99
234.175	2.727	2727.4	generate	Run1	generate/STIM_009.jpg	100
240.215	1.746	1745.5	generate	Run1	generate/STIM_009.jpg	99
244.962	1.937	1936.6	generate	Run1	generate/STIM_009.jpg	99
249.252	1.566	1566.1	generate	Run1	generate/STIM_010.jpg	100
254.77	2.685	2685.2	generate	Run1	generate/STIM_010.jpg	99
260.975	2.041	2041.4	generate	Run1	generate/STIM_010.jpg	99
266.488	2.394	2393.7	generate	Run1	generate/STIM_010.jpg	99
272.808	1.492	1492.2	generate	Run1	generate/STIM_010.jpg	100
276.426	2.066	2066.2	generate	Run1	generate/STIM_011.jpg	99
282.031	2.883	2882.8	generate	Run1	generate/STIM_011.jpg	100
287.04	2.405	2404.7	generate	Run1	generate/STIM_011.jpg	100
293.027	2.32	2320.4	generate	Run1	generate/STIM_011.jpg	100
298.461	1.675	1675.2	generate	Run1	generate/STIM_011.jpg	99
302.853	2.522	2522.5	generate	Run1	generate/STIM_012.jpg	100
308.701	2.679	2678.6	generate	Run1	generate/STIM_012.jpg	100
313.692	2.772	2772.2	generate	Run1	generate/STIM_012.jpg	99
319.153	2.495	2495.3	generate	Run1	generate/STIM_012.jpg	100
323.965	1.955	1954.9	generate	Run1	generate/STIM_012.jpg	99
329.278	2.432	2432.4	generate	Run1	generate/STIM_013.jpg	99
334.116	2.678	2677.9	generate	Run1	generate/STIM_013.jpg	100
339.415	1.672	1671.9	generate	Run1	generate/STIM_013.jpg	100
344.751	1.737	1737.2	generate	Run1	generate/STIM_013.jpg	100
349.888	2.075	2075.3	generate	Run1	generate/STIM_013.jpg	100
354.834	2.83	2830.5	generate	Run1	generate/STIM_014.jpg	99
360.921	2.646	2646.2	generate	Run1	generate/STIM_014.jpg	100
367.501	2.651	2650.8	generate	Run1	generate/STIM_014.jpg	100
372.273	2.42	2419.8	generate	Run1	generate/STIM_014.jpg	99
377.069	1.336	1336.1	generate	Run1	generate/STIM_014.jpg	100
382.273	2.668	2668.3	generate	Run1	generate/STIM_015.jpg	99
387.034	1.646	1645.8	generate	Run1	generate/STIM_015.jpg	99
392.416	1.915	1915.2	generate	Run1	generate/STIM_015.jpg	100
398.158	1.07	1069.6	generate	Run1	generate/STIM_015.jpg	99
401.723	1.297	1296.8	generate	Run1	generate/STIM_015.jpg	100
405.042	2.574	2574.4	generate	Run1	generate/STIM_016.jpg	99
410.58	1.742	1741.9	generate	Run1	generate/STIM_016.jpg	100
415.328	2.026	2025.8	generate	Run1	generate/STIM_016.jpg	100
421.018	1.47	1470.3	generate	Run1	generate/STIM_016.jpg	100
426.044	2.462	2461.7	generate	Run1	generate/STIM_016.jpg	99
430.588	2.822	2822.1	generate	Run1	generate/STIM_017.jpg	99
435.636	1.463	1462.6	generate	Run1	generate/STIM_017.jpg	100
439.963	2.369	2369.0	generate	Run1	generate/STIM_017.jpg	100
445.97	1.962	1961.8	generate	Run1	generate/STIM_017.jpg	100
450.426	2.12	2120.5	generate	Run1	generate/STIM_017.jpg	100
455.026	1.714	1713.5	generate	Run1	generate/STIM_018.jpg	100
459.633	2.879	2879.2	generate	Run1	generate/STIM_018.jpg	99
464.877	2.555	2554.7	generate	Run1	generate/STIM_018.jpg	100
469.613	2.482	2482.1	generate	Run1	generate/STIM_018.jpg	99
474.696	1.772	1772.5	generate	Run1	generate/STIM_018.jpg	100
479.356	2.945	2944.8	generate	Run1	generate/STIM_019.jpg	99
484.631	2.389	2388.7	generate	Run1	generate/STIM_019.jpg	99
489.047	1.246	1246.2	generate	Run1	generate/STIM_019.jpg	99
493.903	1.558	1558.5	generate	Run1	generate/STIM_019.jpg	99
499.063	1.238	1238.0	generate	Run1	generate/STIM_019.jpg	100
502.874	2.653	2653.1	generate	Run1	generate/STIM_020.jpg	99
509.024	2.482	2481.9	generate	Run1	generate/STIM_020.jpg	99
514.113	1.336	1336.5	generate	Run1	generate/STIM_020.jpg	99
518.891	2.621	2621.1	generate	Run1	generate/STIM_020.jpg	100
524.245	1.392	1392.2	generate	Run1	generate/STIM_020.jpg	100
529.115	1.835	1835.3	generate	Run1	generate/STIM_021.jpg	100
534.398	2.393	2393.4	generate	Run1	generate/STIM_021.jpg	100
540.698	1.934	1934.1	generate	Run1	generate/STIM_021.jpg	99
545.643	1.112	1112.0	generate	Run1	generate/STIM_021.jpg	99
549.296	1.686	1686.0	generate	Run1	generate/STIM_021.jpg	99
554.648	2.682	2682.3	generate	Run1	generate/STIM_022.jpg	99
560.798	2.33	2330.3	generate	Run1	generate/STIM_022.jpg	100
566.718	2.552	2552.2	generate	Run1	generate/STIM_022.jpg	100
572.631	1.99	1989.6	generate	Run1	generate/STIM_022.jpg	99
577.437	1.539	1538.9	generate	Run1	generate/STIM_022.jpg	99
580.99	2.054	2054.1	generate	Run1	generate/STIM_023.jpg	99
585.774	1.273	1273.3	generate	Run1	generate/STIM_023.jpg	100
589.768	2.029	2029.1	generate	Run1	generate/STIM_023.jpg	100
594.278	1.559	1558.6	generate	Run1	generate/STIM_023.jpg	100
597.98	1.988	1988.3	generate	Run1	generate/STIM_023.jpg	100
603.534	2.67	2670.1	generate	Run1	generate/STIM_024.jpg	100
609.66	2.624	2624.0	generate	Run1	generate/STIM_024.jpg	99
614.66	2.595	2595.4	generate	Run1	generate/STIM_024.jpg	99
620.089	1.264	1264.5	generate	Run1	generate/STIM_024.jpg	99
623.898	2.118	2117.6	generate	Run1	generate/STIM_024.jpg	99
629.968	0.81	810.3	repeat	Run1	repeat/STIM_000.jpg	100
634.129	0.814	814.3	repeat	Run1	repeat/STIM_000.jpg	100
638.741	0.969	969.4	repeat	Run1	repeat/STIM_000.jpg	100
642.947	0.789	788.7	repeat	Run1	repeat/STIM_000.jpg	99
647.591	0.615	614.8	repeat	Run1	repeat/STIM_000.jpg	100
651.985	0.736	735.5	repeat	Run1	repeat/STIM_001.jpg	100
656.239	0.862	861.9	repeat	Run1	repeat/STIM_001.jpg	100
660.985	1.042	1041.6	repeat	Run1	repeat/STIM_001.jpg	100
665.674	0.569	569.4	repeat	Run1	repeat/STIM_001.jpg	99
670.077	0.611	611.1	repeat	Run1	repeat/STIM_001.jpg	99
673.599	0.842	842.4	repeat	Run1	repeat/STIM_002.jpg	99
678.249	0.761	761.4	repeat	Run1	repeat/STIM_002.jpg	99
681.455	0.534	534.5	repeat	Run1	repeat/STIM_002.jpg	99
685.49	0.615	615.0	repeat	Run1	repeat/STIM_002.jpg	99
689.178	0.97	970.1	repeat	Run1	repeat/STIM_002.jpg	100
693.852	0.757	757.2	repeat	Run1	repeat/STIM_003.jpg	100
697.21	0.887	887.1	repeat	Run1	repeat/STIM_003.jpg	99
700.575	0.65	650.1	repeat	Run1	repeat/STIM_003.jpg	100
704.482	0.834	833.6	repeat	Run1	repeat/STIM_003.jpg	100
707.363	0.573	573.4	repeat	Run1	repeat/STIM_003.jpg	99
711.657	0.61	610.5	repeat	Run1	repeat/STIM_004.jpg	99
714.48	0.781	781.2	repeat	Run1	repeat/STIM_004.jpg	99
717.896	0.872	872.2	repeat	Run1	repeat/STIM_004.jpg	100
722.516	1.046	1045.5	repeat	Run1	repeat/STIM_004.jpg	100
726.172	0.553	553.3	repeat	Run1	repeat/STIM_004.jpg	100
730.648	0.95	949.8	repeat	Run1	repeat/STIM_005.jpg	100
734.215	0.75	750.4	repeat	Run1	repeat/STIM_005.jpg	99
738.267	0.633	633.2	repeat	Run1	repeat/STIM_005.jpg	99
741.024	0.8	799.5	repeat	Run1	repeat/STIM_005.jpg	100
744.702	0.994	993.5	repeat	Run1	repeat/STIM_005.jpg	99
748.942	0.6	599.8	repeat	Run1	repeat/STIM_006.jpg	100
752.82	0.931	931.3	repeat	Run1	repeat/STIM_006.jpg	99
756.492	0.997	996.6	repeat	Run1	repeat/STIM_006.jpg	99
759.819	0.851	850.9	repeat	Run1	repeat/STIM_006.jpg	99
762.856	0.597	597.3	repeat	Run1	repeat/STIM_006.jpg	100
766.923	0.937	937.2	repeat	Run1	repeat/STIM_007.jpg	99
770.033	0.733	732.6	repeat	Run1	repeat/STIM_007.jpg	100
773.025	0.604	604.1	repeat	Run1	repeat/STIM_007.jpg	100
777.323	1.037	1037.0	repeat	Run1	repeat/STIM_007.jpg	99
782.33	0.548	548.2	repeat	Run1	repeat/STIM_007.jpg	100
786.227	0.675	675.0	repeat	Run1	repeat/STIM_008.jpg	100
788.944	0.715	714.6	repeat	Run1	repeat/STIM_008.jpg	100
792.911	0.829	828.7	repeat	Run1	repeat/STIM_008.jpg	100
796.865	0.539	539.2	repeat	Run1	repeat/STIM_008.jpg	99
800.133	0.978	978.1	repeat	Run1	repeat/STIM_008.jpg	99
804.116	0.979	979.0	repeat	Run1	repeat/STIM_009.jpg	100
807.336	0.723	723.1	repeat	Run1	repeat/STIM_009.jpg	99
811.021	0.907	907.0	repeat	Run1	repeat/STIM_009.jpg	99
814.831	0.562	562.4	repeat	Run1	repeat/STIM_009.jpg	100
818.79	0.677	676.9	repeat	Run1	repeat/STIM_009.jpg	100
822.339	0.968	968.5	repeat	Run1	repeat/STIM_010.jpg	100
826.343	0.738	738.5	repeat	Run1	repeat/STIM_010.jpg	100
829.401	0.82	819.7	repeat	Run1	repeat/STIM_010.jpg	100
833.004	0.692	692.1	repeat	Run1	repeat/STIM_010.jpg	100
836.164	0.528	528.2	repeat	Run1	repeat/STIM_010.jpg	100
840.091	0.772	772.0	repeat	Run1	repeat/STIM_011.jpg	99
844.325	0.846	846.1	repeat	Run1	repeat/STIM_011.jpg	100
847.832	0.934	934.0	repeat	Run1	repeat/STIM_011.jpg	100
852.204	0.64	640.4	repeat	Run1	repeat/STIM_011.jpg	99
855.174	0.969	968.7	repeat	Run1	repeat/STIM_011.jpg	100
858.708	0.54	539.9	repeat	Run1	repeat/STIM_012.jpg	100
861.886	0.861	860.7	repeat	Run1	repeat/STIM_012.jpg	99
865.79	0.629	628.6	repeat	Run1	repeat/STIM_012.jpg	100
870.145	0.771	771.4	repeat	Run1	repeat/STIM_012.jpg	99
873.37	0.567	567.2	repeat	Run1	repeat/STIM_012.jpg	100
876.241	0.806	806.4	repeat	Run1	repeat/STIM_013.jpg	100
880.357	0.585	584.9	repeat	Run1	repeat/STIM_013.jpg	100
884.873	0.744	744.1	repeat	Run1	repeat/STIM_013.jpg	99
888.669	0.814	814.2	repeat	Run1	repeat/STIM_013.jpg	99
892.669	0.969	969.0	repeat	Run1	repeat/STIM_013.jpg	100
895.812	0.698	697.9	repeat	Run1	repeat/STIM_014.jpg	100
899.819	0.706	705.9	repeat	Run1	repeat/STIM_014.jpg	99
903.631	0.933	933.4	repeat	Run1	repeat/STIM_014.jpg	99
906.762	0.693	693.2	repeat	Run1	repeat/STIM_014.jpg	99
911.352	0.987	987.4	repeat	Run1	repeat/STIM_014.jpg	99
916.183	2.436	2436.0	generate	Run2	generate/STIM_000.jpg	99
922.402	1.447	1447.4	generate	Run2	generate/STIM_000.jpg	99
926.877	1.542	1542.2	generate	Run2	generate/STIM_000.jpg	100
930.568	1.746	1746.5	generate	Run2	generate/STIM_000.jpg	99
935.412	1.84	1840.5	generate	Run2	generate/STIM_000.jpg	99
939.395	2.041	2041.3	generate	Run2	generate/STIM_001.jpg	100
943.481	1.22	1219.5	generate	Run2	generate/STIM_001.jpg	100
947.247	1.984	1983.6	generate	Run2	generate/STIM_001.jpg	99
951.284	2.126	2125.6	generate	Run2	generate/STIM_001.jpg	99
956.852	0.9	900.0	generate	Run2	generate/STIM_001.jpg	99
960.888	1.499	1498.9	generate	Run2	generate/STIM_002.jpg	100
965.108	1.862	1862.1	generate	Run2	generate/STIM_002.jpg	99
969.508	2.043	2043.5	generate	Run2	generate/STIM_002.jpg	100
973.93	1.355	1354.9	generate	Run2	generate/STIM_002.jpg	99
978.576	0.908	908.5	generate	Run2	generate/STIM_002.jpg	100
982.919	2.341	2340.9	generate	Run2	generate/STIM_003.jpg	99
987.78	1.232	1231.9	generate	Run2	generate/STIM_003.jpg	99
992.646	1.637	1636.7	generate	Run2	generate/STIM_003.jpg	100
996.761	1.995	1994.8	generate	Run2	generate/STIM_003.jpg	99
1001.289	1.536	1536.5	generate	Run2	generate/STIM_003.jpg	100
1005.888	1.671	1671.3	generate	Run2	generate/STIM_004.jpg	100
1010.187	2.254	2253.9	generate	Run2	generate/STIM_004.jpg	100
1014.733	1.734	1733.6	generate	Run2	generate/STIM_004.jpg	99
1020.349	1.867	1866.7	generate	Run2	generate/STIM_004.jpg	99
1025.015	1.38	1380.0	generate	Run2	generate/STIM_004.jpg	100
1029.345	2.102	2102.3	generate	Run2	generate/STIM_005.jpg	100
1033.735	1.232	1231.5	generate	Run2	generate/STIM_005.jpg	99
1037.232	1.553	1553.4	generate	Run2	generate/STIM_005.jpg	100
1042.274	1.079	1078.7	generate	Run2	generate/STIM_005.jpg	99
1045.753	1.957	1956.8	generate	Run2	generate/STIM_005.jpg	100
1050.63	1.244	1244.3	generate	Run2	generate/STIM_006.jpg	99
1055.778	1.602	1601.9	generate	Run2	generate/STIM_006.jpg	99
1060.909	1.575	1574.9	generate	Run2	generate/STIM_006.jpg	99
1065.693	1.447	1447.3	generate	Run2	generate/STIM_006.jpg	100
1070.02	1.626	1625.9	generate	Run2	generate/STIM_006.jpg	99
1075.643	1.639	1638.6	generate	Run2	generate/STIM_007.jpg	100
1080.493	2.006	2006.0	generate	Run2	generate/STIM_007.jpg	100
1086.215	1.083	1083.4	generate	Run2	generate/STIM_007.jpg	99
1090.651	0.916	915.5	generate	Run2	generate/STIM_007.jpg	99
1093.692	1.566	1565.8	generate	Run2	generate/STIM_007.jpg	100
1097.288	2.449	2448.7	generate	Run2	generate/STIM_008.jpg	100
1103.095	1.82	1819.8	generate	Run2	generate/STIM_008.jpg	100
1107.496	1.671	1670.6	generate	Run2	generate/STIM_008.jpg	100
1112.465	1.088	1088.0	generate	Run2	generate/STIM_008.jpg	100
1117.432	2.107	2106.8	generate	Run2	generate/STIM_008.jpg	99
1121.837	2.269	2269.1	generate	Run2	generate/STIM_009.jpg	100
1126.532	1.623	1622.9	generate	Run2	generate/STIM_009.jpg	100
1130.908	1.158	1157.7	generate	Run2	generate/STIM_009.jpg	99
1135.172	1.688	1688.0	generate	Run2	generate/STIM_009.jpg	99
1139.686	1.973	1973.0	generate	Run2	generate/STIM_009.jpg	100
1144.353	2.392	2391.7	generate	Run2	generate/STIM_010.jpg	100
1148.968	1.291	1290.9	generate	Run2	generate/STIM_010.jpg	99
1152.859	1.661	1661.3	generate	Run2	generate/STIM_010.jpg	100
1156.636	2.158	2158.1	generate	Run2	generate/STIM_010.jpg	99
1162.561	1.576	1575.8	generate	Run2	generate/STIM_010.jpg	99
1166.627	2.381	2380.6	generate	Run2	generate/STIM_011.jpg	100
1171.563	2.127	2127.4	generate	Run2	generate/STIM_011.jpg	100
1176.75	1.567	1566.6	generate	Run2	generate/STIM_011.jpg	99
1180.92	1.033	1032.7	generate	Run2	generate/STIM_011.jpg	100
1185.593	1.674	1673.8	generate	Run2	generate/STIM_011.jpg	99
1191.04	2.595	2595.1	generate	Run2	generate/STIM_012.jpg	100
1196.653	2.288	2288.4	generate	Run2	generate/STIM_012.jpg	100
1201.443	1.65	1650.1	generate	Run2	generate/STIM_012.jpg	99
1206.524	1.301	1301.0	generate	Run2	generate/STIM_012.jpg	99
1210.859	0.922	922.2	generate	Run2	generate/STIM_012.jpg	99
1215.663	2.097	2096.9	generate	Run2	generate/STIM_013.jpg	100
1221.34	2.332	2332.2	generate	Run2	generate/STIM_013.jpg	99
1225.757	1.426	1426.0	generate	Run2	generate/STIM_013.jpg	100
1230.73	2.048	2047.8	generate	Run2	generate/STIM_013.jpg	99
1236.41	1.59	1589.8	generate	Run2	generate/STIM_013.jpg	100
1241.004	2.168	2167.5	generate	Run2	generate/STIM_014.jpg	99
1245.65	1.488	1488.3	generate	Run2	generate/STIM_014.jpg	100
1250.925	1.038	1038.5	generate	Run2	generate/STIM_014.jpg	100
1255.423	2.031	2030.9	generate	Run2	generate/STIM_014.jpg	99
1260.785	1.174	1174.3	generate	Run2	generate/STIM_014.jpg	100
1265.845	1.761	1760.8	generate	Run2	generate/STIM_015.jpg	100
1270.794	2.01	2010.0	generate	Run2	generate/STIM_015.jpg	100
1275.577	2.29	2290.1	generate	Run2	generate/STIM_015.jpg	100
1280.796	2.156	2155.6	generate	Run2	generate/STIM_015.jpg	100
1285.15	2.087	2086.7	generate	Run2	generate/STIM_015.jpg	100
1290.522	1.08	1079.9	generate	Run2	generate/STIM_016.jpg	99
1293.934	2.132	2132.4	generate	Run2	generate/STIM_016.jpg	99
1299.623	1.396	1395.7	generate	Run2	generate/STIM_016.jpg	100
1303.905	1.418	1417.7	generate	Run2	generate/STIM_016.jpg	100
1308.215	1.481	1480.9	generate	Run2	generate/STIM_016.jpg	100
1312.307	1.118	1117.7	generate	Run2	generate/STIM_017.jpg	99
1316.645	1.656	1656.1	generate	Run2	generate/STIM_017.jpg	99
1320.47	1.722	1722.2	generate	Run2	generate/STIM_017.jpg	100
1325.829	1.264	1264.3	generate	Run2	generate/STIM_017.jpg	99
1331.004	1.293	1292.9	generate	Run2	generate/STIM_017.jpg	100
1334.428	1.598	1598.1	generate	Run2	generate/STIM_018.jpg	100
1338.994	1.488	1488.4	generate	Run2	generate/STIM_018.jpg	99
1344.168	1.456	1455.7	generate	Run2	generate/STIM_018.jpg	100
1347.682	1.185	1184.7	generate	Run2	generate/STIM_018.jpg	99
1351.967	1.094	1093.8	generate	Run2	generate/STIM_018.jpg	100
1356.117	2.355	2354.8	generate	Run2	generate/STIM_019.jpg	100
1362.039	1.154	1153.7	generate	Run2	generate/STIM_019.jpg	99
1365.767	1.536	1536.1	generate	Run2	generate/STIM_019.jpg	99
1371.053	2.193	2193.3	generate	Run2	generate/STIM_019.jpg	100
1375.951	2.092	2092.3	generate	Run2	generate/STIM_019.jpg	100
1381.869	2.557	2556.8	generate	Run2	generate/STIM_020.jpg	99
1388.379	1.496	1496.5	generate	Run2	generate/STIM_020.jpg	100
1391.94	1.279	1278.7	generate	Run2	generate/STIM_020.jpg	99
1395.239	1.889	1888.6	generate	Run2	generate/STIM_020.jpg	99
1399.874	2.086	2085.6	generate	Run2	generate/STIM_020.jpg	99
1404.669	1.677	1676.8	generate	Run2	generate/STIM_021.jpg	99
1410.097	2.044	2044.1	generate	Run2	generate/STIM_021.jpg	100
1414.535	1.891	1891.1	generate	Run2	generate/STIM_021.jpg	100
1419.7	1.395	1395.4	generate	Run2	generate/STIM_021.jpg	100
1423.797	1.436	1435.7	generate	Run2	generate/STIM_021.jpg	99
1427.595	1.079	1079.1	generate	Run2	generate/STIM_022.jpg	99
1432.565	1.898	1897.6	generate	Run2	generate/STIM_022.jpg	100
1436.605	1.028	1028.2	generate	Run2	generate/STIM_022.jpg	100
1440.015	1.883	1883.1	generate	Run2	generate/STIM_022.jpg	99
1445.8	1.717	1717.1	generate	Run2	generate/STIM_022.jpg	99
1449.91	2.314	2314.5	generate	Run2	generate/STIM_023.jpg	99
1455.756	2.044	2044.3	generate	Run2	generate/STIM_023.jpg	100
1460.027	1.652	1652.1	generate	Run2	generate/STIM_023.jpg	99
1464.534	2.002	2002.2	generate	Run2	generate/STIM_023.jpg	99
1470.082	1.488	1487.9	generate	Run2	generate/STIM_023.jpg	99
1474.318	1.752	1752.2	generate	Run2	generate/STIM_024.jpg	100
1478.439	1.924	1923.8	generate	Run2	generate/STIM_024.jpg	100
1482.493	1.937	1937.3	generate	Run2	generate/STIM_024.jpg	99
1486.948	2.118	2117.9	generate	Run2	generate/STIM_024.jpg	99
1492.013	1.029	1029.0	generate	Run2	generate/STIM_024.jpg	99
1495.254	0.893	893.0	repeat	Run2	repeat/STIM_000.jpg	99
1500.01	0.703	703.0	repeat	Run2	repeat/STIM_000.jpg	99
1503.142	0.898	897.8	repeat	Run2	repeat/STIM_000.jpg	100
1506.13	0.725	725.1	repeat	Run2	repeat/STIM_000.jpg	100
1509.855	0.645	645.2	repeat	Run2	repeat/STIM_000.jpg	99
1513.007	0.565	565.3	repeat	Run2	repeat/STIM_001.jpg	100
1517.297	0.926	925.9	repeat	Run2	repeat/STIM_001.jpg	99
1521.501	0.692	691.7	repeat	Run2	repeat/STIM_001.jpg	99
1525.383	0.888	888.1	repeat	Run2	repeat/STIM_001.jpg	100
1530.113	0.687	687.1	repeat	Run2	repeat/STIM_001.jpg	100
1533.653	0.792	792.1	repeat	Run2	repeat/STIM_002.jpg	100
1537.25	0.833	833.4	repeat	Run2	repeat/STIM_002.jpg	100
1541.691	0.837	836.8	repeat	Run2	repeat/STIM_002.jpg	100
1544.988	0.788	788.1	repeat	Run2	repeat/STIM_002.jpg	100
1549.286	0.6	600.2	repeat	Run2	repeat/STIM_002.jpg	100
1553.689	0.978	978.4	repeat	Run2	repeat/STIM_003.jpg	99
1558.47	0.819	819.1	repeat	Run2	repeat/STIM_003.jpg	99
1562.114	0.836	836.0	repeat	Run2	repeat/STIM_003.jpg	99
1565.267	0.548	547.7	repeat	Run2	repeat/STIM_003.jpg	100
1567.844	0.584	583.5	repeat	Run2	repeat/STIM_003.jpg	99
1570.691	0.527	526.6	repeat	Run2	repeat/STIM_004.jpg	100
1573.549	1.012	1011.8	repeat	Run2	repeat/STIM_004.jpg	99
1577.456	0.843	842.7	repeat	Run2	repeat/STIM_004.jpg	100
1581.234	0.859	859.1	repeat	Run2	repeat/STIM_004.jpg	99
1586.068	1.037	1037.4	repeat	Run2	repeat/STIM_004.jpg	100
1590.584	0.673	672.6	repeat	Run2	repeat/STIM_005.jpg	100
1594.623	0.557	557.2	repeat	Run2	repeat/STIM_005.jpg	100
1597.345	0.669	669.3	repeat	Run2	repeat/STIM_005.jpg	99
1601.666	0.88	879.7	repeat	Run2	repeat/STIM_005.jpg	99
1604.704	0.611	611.1	repeat	Run2	repeat/STIM_005.jpg	99
1608.12	0.817	817.4	repeat	Run2	repeat/STIM_006.jpg	100
1611.39	0.789	789.4	repeat	Run2	repeat/STIM_006.jpg	99
1614.674	0.645	644.7	repeat	Run2	repeat/STIM_006.jpg	99
1619.186	1.034	1033.6	repeat	Run2	repeat/STIM_006.jpg	100
1623.039	1.028	1027.8	repeat	Run2	repeat/STIM_006.jpg	100
1627.711	0.805	804.9	repeat	Run2	repeat/STIM_007.jpg	99
1632.196	0.898	897.5	repeat	Run2	repeat/STIM_007.jpg	100
1636.793	0.755	754.8	repeat	Run2	repeat/STIM_007.jpg	99
1640.811	0.679	679.3	repeat	Run2	repeat/STIM_007.jpg	99
1643.892	1.036	1036.3	repeat	Run2	repeat/STIM_007.jpg	100
1648.37	1.044	1044.5	repeat	Run2	repeat/STIM_008.jpg	99
1651.593	0.595	595.2	repeat	Run2	repeat/STIM_008.jpg	99
1655.94	0.919	919.0	repeat	Run2	repeat/STIM_008.jpg	100
1659.689	0.862	861.7	repeat	Run2	repeat/STIM_008.jpg	100
1664.039	0.709	708.6	repeat	Run2	repeat/STIM_008.jpg	99
1667.1	0.844	843.6	repeat	Run2	repeat/STIM_009.jpg	99
1670.414	0.93	929.8	repeat	Run2	repeat/STIM_009.jpg	100
1673.668	0.542	542.4	repeat	Run2	repeat/STIM_009.jpg	99
1676.835	0.859	859.1	repeat	Run2	repeat/STIM_009.jpg	99
1680.521	0.961	961.1	repeat	Run2	repeat/STIM_009.jpg	99
1683.608	0.741	740.6	repeat	Run2	repeat/STIM_010.jpg	99
1688.267	0.921	920.7	repeat	Run2	repeat/STIM_010.jpg	100
1692.855	0.721	720.6	repeat	Run2	repeat/STIM_010.jpg	99
1696.418	0.722	721.6	repeat	Run2	repeat/STIM_010.jpg	99
1700.093	1.015	1015.4	repeat	Run2	repeat/STIM_010.jpg	100
1704.192	0.63	630.5	repeat	Run2	repeat/STIM_011.jpg	100
1707.387	0.557	557.3	repeat	Run2	repeat/STIM_011.jpg	100
1711.365	0.762	762.5	repeat	Run2	repeat/STIM_011.jpg	99
1714.863	0.539	539.3	repeat	Run2	repeat/STIM_011.jpg	99
1717.885	0.9	899.5	repeat	Run2	repeat/STIM_011.jpg	100
1721.743	0.816	815.7	repeat	Run2	repeat/STIM_012.jpg	100
1725.088	0.541	541.1	repeat	Run2	repeat/STIM_012.jpg	99
1728.508	0.947	946.8	repeat	Run2	repeat/STIM_012.jpg	99
1732.291	0.952	951.6	repeat	Run2	repeat/STIM_012.jpg	100
1737.214	0.857	856.9	repeat	Run2	repeat/STIM_012.jpg	99
1741.423	1.038	1038.4	repeat	Run2	repeat/STIM_013.jpg	99
1745.18	0.652	652.1	repeat	Run2	repeat/STIM_013.jpg	99
1748.916	0.804	804.0	repeat	Run2	repeat/STIM_013.jpg	100
1752.184	0.911	911.0	repeat	Run2	repeat/STIM_013.jpg	100
1755.671	0.771	771.0	repeat	Run2	repeat/STIM_013.jpg	100
1759.743	0.943	943.0	repeat	Run2	repeat/STIM_014.jpg	100
1762.757	0.807	806.7	repeat	Run2	repeat/STIM_014.jpg	99
1766.318	0.82	819.7	repeat	Run2	repeat/STIM_014.jpg	100
1769.335	0.73	729.5	repeat	Run2	repeat/STIM_014.jpg	100
1772.521	0.988	987.7	repeat	Run2	repeat/STIM_014.jpg	99
1776.747	2.194	2194.1	generate	Run3	generate/STIM_000.jpg	99
1782.417	1.02	1019.5	generate	Run3	generate/STIM_000.jpg	99
1786.319	2.19	2190.2	generate	Run3	generate/STIM_000.jpg	99
1792.276	1.889	1888.6	generate	Run3	generate/STIM_000.jpg	100
1797.091	1.67	1670.0	generate	Run3	generate/STIM_000.jpg	99
1801.607	1.163	1162.8	generate	Run3	generate/STIM_001.jpg	99
1806.191	1.732	1731.9	generate	Run3	generate/STIM_001.jpg	100
1810.76	1.406	1406.3	generate	Run3	generate/STIM_001.jpg	99
1815.233	1.171	1171.2	generate	Run3	generate/STIM_001.jpg	99
1818.821	1.018	1018.3	generate	Run3	generate/STIM_001.jpg	99
1823.751	0.924	924.2	generate	Run3	generate/STIM_002.jpg	100
1827.716	1.752	1752.3	generate	Run3	generate/STIM_002.jpg	99
1831.644	1.615	1615.4	generate	Run3	generate/STIM_002.jpg	99
1835.861	1.011	1011.0	generate	Run3	generate/STIM_002.jpg	100
1840.697	1.823	1822.6	generate	Run3	generate/STIM_002.jpg	100
1845.968	1.608	1607.5	generate	Run3	generate/STIM_003.jpg	100
1851.283	2.026	2025.6	generate	Run3	generate/STIM_003.jpg	100
1856.988	1.836	1835.8	generate	Run3	generate/STIM_003.jpg	100
1861.274	0.997	997.1	generate	Run3	generate/STIM_003.jpg	100
1864.936	1.134	1134.1	generate	Run3	generate/STIM_003.jpg	100
1868.383	0.905	904.6	generate	Run3	generate/STIM_004.jpg	100
1871.828	1.897	1897.2	generate	Run3	generate/STIM_004.jpg	100
1877.098	1.431	1431.1	generate	Run3	generate/STIM_004.jpg	99
1881.872	1.992	1992.3	generate	Run3	generate/STIM_004.jpg	99
1887.432	0.91	909.6	generate	Run3	generate/STIM_004.jpg	99
1891.602	1.224	1223.9	generate	Run3	generate/STIM_005.jpg	99
1895.326	2.149	2148.6	generate	Run3	generate/STIM_005.jpg	99
1899.749	1.618	1618.4	generate	Run3	generate/STIM_005.jpg	99
1905.338	2.148	2147.5	generate	Run3	generate/STIM_005.jpg	99
1909.666	0.989	988.7	generate	Run3	generate/STIM_005.jpg	100
1914.163	2.041	2040.5	generate	Run3	generate/STIM_006.jpg	100
1919.683	1.85	1850.5	generate	Run3	generate/STIM_006.jpg	100
1923.726	1.814	1813.8	generate	Run3	generate/STIM_006.jpg	100
1927.641	1.9	1900.5	generate	Run3	generate/STIM_006.jpg	99
1932.093	1.06	1059.7	generate	Run3	generate/STIM_006.jpg	99
1935.484	0.968	967.8	generate	Run3	generate/STIM_007.jpg	99
1938.56	1.425	1424.7	generate	Run3	generate/STIM_007.jpg	99
1943.119	2.142	2141.7	generate	Run3	generate/STIM_007.jpg	100
1947.514	1.322	1322.0	generate	Run3	generate/STIM_007.jpg	100
1952.571	1.358	1357.6	generate	Run3	generate/STIM_007.jpg	99
1957.904	1.737	1737.4	generate	Run3	generate/STIM_008.jpg	100
1962.648	1.268	1268.2	generate	Run3	generate/STIM_008.jpg	100
1966.136	1.44	1439.6	generate	Run3	generate/STIM_008.jpg	99
1970.841	1.921	1921.1	generate	Run3	generate/STIM_008.jpg	100
1976.374	1.626	1625.7	generate	Run3	generate/STIM_008.jpg	99
1980.95	2.041	2040.7	generate	Run3	generate/STIM_009.jpg	100
1986.13	1.197	1196.8	generate	Run3	generate/STIM_009.jpg	100
1991.28	2.181	2180.9	generate	Run3	generate/STIM_009.jpg	100
1995.869	1.246	1245.5	generate	Run3	generate/STIM_009.jpg	99
2000.653	2.061	2060.6	generate	Run3	generate/STIM_009.jpg	100
2005.71	1.095	1094.6	generate	Run3	generate/STIM_010.jpg	99
2010.732	1.688	1687.9	generate	Run3	generate/STIM_010.jpg	100
2015.79	1.539	1538.8	generate	Run3	generate/STIM_010.jpg	99
2019.747	1.631	1631.3	generate	Run3	generate/STIM_010.jpg	99
2024.777	1.459	1458.9	generate	Run3	generate/STIM_010.jpg	99
2029.857	1.514	1513.7	generate	Run3	generate/STIM_011.jpg	99
2034.612	2.021	2021.3	generate	Run3	generate/STIM_011.jpg	99
2039.933	1.554	1554.2	generate	Run3	generate/STIM_011.jpg	100
2043.558	1.447	1447.1	generate	Run3	generate/STIM_011.jpg	100
2047.21	1.494	1493.9	generate	Run3	generate/STIM_011.jpg	99
2051.073	0.904	904.4	generate	Run3	generate/STIM_012.jpg	100
2055.109	1.008	1008.3	generate	Run3	generate/STIM_012.jpg	99
2058.985	1.57	1570.1	generate	Run3	generate/STIM_012.jpg	100
2063.22	1.029	1028.9	generate	Run3	generate/STIM_012.jpg	99
2068.135	0.918	917.5	generate	Run3	generate/STIM_012.jpg	99
2071.341	1.762	1762.0	generate	Run3	generate/STIM_013.jpg	100
2076.171	1.548	1548.3	generate	Run3	generate/STIM_013.jpg	99
2080.796	1.309	1308.7	generate	Run3	generate/STIM_013.jpg	100
2085.365	1.155	1155.1	generate	Run3	generate/STIM_013.jpg	100
2088.637	1.684	1683.8	generate	Run3	generate/STIM_013.jpg	100
2092.829	2.043	2043.0	generate	Run3	generate/STIM_014.jpg	100
2098.578	1.964	1964.1	generate	Run3	generate/STIM_014.jpg	100
2103.087	1.153	1153.0	generate	Run3	generate/STIM_014.jpg	100
2107.362	1.611	1611.3	generate	Run3	generate/STIM_014.jpg	100
2112.54	1.357	1357.1	generate	Run3	generate/STIM_014.jpg	100
2117.862	1.877	1877.0	generate	Run3	generate/STIM_015.jpg	100
2122.04	1.653	1653.0	generate	Run3	generate/STIM_015.jpg	100
2126.371	1.183	1182.6	generate	Run3	generate/STIM_015.jpg	100
2131.279	1.539	1538.8	generate	Run3	generate/STIM_015.jpg	99
2135.223	1.566	1566.5	generate	Run3	generate/STIM_015.jpg	99
2139.665	2.089	2089.3	generate	Run3	generate/STIM_016.jpg	100
2145.688	1.611	1611.2	generate	Run3	generate/STIM_016.jpg	99
2150.966	1.157	1156.6	generate	Run3	generate/STIM_016.jpg	100
2154.16	1.03	1030.5	generate	Run3	generate/STIM_016.jpg	99
2158.334	1.468	1468.2	generate	Run3	generate/STIM_016.jpg	99
2162.332	1.208	1207.5	generate	Run3	generate/STIM_017.jpg	99
2166.312	1.409	1408.7	generate	Run3	generate/STIM_017.jpg	99
2170.347	1.262	1262.3	generate	Run3	generate/STIM_017.jpg	100
2173.881	1.797	1796.8	generate	Run3	generate/STIM_017.jpg	99
2178.543	1.495	1494.9	generate	Run3	generate/STIM_017.jpg	100
2182.847	2.092	2091.6	generate	Run3	generate/STIM_018.jpg	100
2187.845	1.856	1855.7	generate	Run3	generate/STIM_018.jpg	99
2191.704	1.763	1763.2	generate	Run3	generate/STIM_018.jpg	100
2195.591	1.428	1427.8	generate	Run3	generate/STIM_018.jpg	99
2199.192	1.9	1900.3	generate	Run3	generate/STIM_018.jpg	99
2204.955	1.797	1797.4	generate	Run3	generate/STIM_019.jpg	99
2209.425	0.936	936.1	generate	Run3	generate/STIM_019.jpg	100
2213.175	1.57	1569.6	generate	Run3	generate/STIM_019.jpg	99
2217.664	0.893	893.4	generate	Run3	generate/STIM_019.jpg	99
2222.464	1.474	1473.5	generate	Run3	generate/STIM_019.jpg	99
2226.91	1.158	1157.6	generate	Run3	generate/STIM_020.jpg	100
2230.298	1.869	1869.3	generate	Run3	generate/STIM_020.jpg	100
2234.309	1.231	1230.8	generate	Run3	generate/STIM_020.jpg	99
2238.698	1.324	1323.9	generate	Run3	generate/STIM_020.jpg	100
2242.251	1.321	1320.8	generate	Run3	generate/STIM_020.jpg	100
2246.058	1.992	1992.5	generate	Run3	generate/STIM_021.jpg	100
2251.375	1.536	1535.9	generate	Run3	generate/STIM_021.jpg	99
2256.084	0.923	922.6	generate	Run3	generate/STIM_021.jpg	100
2259.538	1.868	1867.9	generate	Run3	generate/STIM_021.jpg	100
2264.952	1.41	1410.0	generate	Run3	generate/STIM_021.jpg	100
2269.167	1.592	1592.3	generate	Run3	generate/STIM_022.jpg	99
2272.954	2.015	2014.8	generate	Run3	generate/STIM_022.jpg	99
2277.433	1.996	1996.4	generate	Run3	generate/STIM_022.jpg	100
2282.186	2.138	2137.6	generate	Run3	generate/STIM_022.jpg	100
2286.833	2.075	2074.9	generate	Run3	generate/STIM_022.jpg	100
2292.892	0.886	886.4	generate	Run3	generate/STIM_023.jpg	100
2296.164	1.322	1321.5	generate	Run3	generate/STIM_023.jpg	100
2299.591	1.231	1231.3	generate	Run3	generate/STIM_023.jpg	99
2304.008	1.232	1231.7	generate	Run3	generate/STIM_023.jpg	99
2308.298	1.765	1765.2	generate	Run3	generate/STIM_023.jpg	100
2313.883	1.163	1162.9	generate	Run3	generate/STIM_024.jpg	99
2318.4	1.371	1370.9	generate	Run3	generate/STIM_024.jpg	99
2323.384	1.661	1661.4	generate	Run3	generate/STIM_024.jpg	100
2327.727	1.832	1831.5	generate	Run3	generate/STIM_024.jpg	99
2333.423	1.373	1373.3	generate	Run3	generate/STIM_024.jpg	100
2338.622	0.828	827.5	repeat	Run3	repeat/STIM_000.jpg	99
2341.613	0.721	721.3	repeat	Run3	repeat/STIM_000.jpg	99
2344.454	0.724	724.0	repeat	Run3	repeat/STIM_000.jpg	100
2347.707	0.647	646.6	repeat	Run3	repeat/STIM_000.jpg	100
2351.879	0.614	613.6	repeat	Run3	repeat/STIM_000.jpg	100
2356.087	1.002	1002.0	repeat	Run3	repeat/STIM_001.jpg	99
2359.724	1.0	1000.1	repeat	Run3	repeat/STIM_001.jpg	99
2364.104	0.811	810.9	repeat	Run3	repeat/STIM_001.jpg	100
2367.691	0.772	771.5	repeat	Run3	repeat/STIM_001.jpg	100
2371.187	1.031	1030.6	repeat	Run3	repeat/STIM_001.jpg	100
2374.947	0.723	722.9	repeat	Run3	repeat/STIM_002.jpg	99
2378.236	1.011	1011.2	repeat	Run3	repeat/STIM_002.jpg	100
2382.691	0.854	854.5	repeat	Run3	repeat/STIM_002.jpg	100
2386.018	0.774	773.5	repeat	Run3	repeat/STIM_002.jpg	99
2388.963	0.777	776.9	repeat	Run3	repeat/STIM_002.jpg	99
2392.271	0.886	885.5	repeat	Run3	repeat/STIM_003.jpg	100
2395.951	0.734	734.5	repeat	Run3	repeat/STIM_003.jpg	99
2399.697	0.809	808.7	repeat	Run3	repeat/STIM_003.jpg	99
2403.726	0.765	765.3	repeat	Run3	repeat/STIM_003.jpg	100
2407.81	0.694	694.3	repeat	Run3	repeat/STIM_003.jpg	99
2411.67	1.007	1007.3	repeat	Run3	repeat/STIM_004.jpg	99
2415.1	0.754	753.6	repeat	Run3	repeat/STIM_004.jpg	99
2418.966	0.723	722.9	repeat	Run3	repeat/STIM_004.jpg	99
2422.466	0.88	880.5	repeat	Run3	repeat/STIM_004.jpg	100
2425.348	0.642	641.7	repeat	Run3	repeat/STIM_004.jpg	99
2429.42	0.728	727.9	repeat	Run3	repeat/STIM_005.jpg	100
2432.176	0.847	847.4	repeat	Run3	repeat/STIM_005.jpg	100
2435.984	0.675	675.3	repeat	Run3	repeat/STIM_005.jpg	100
2440.275	1.034	1033.9	repeat	Run3	repeat/STIM_005.jpg	99
2444.86	0.767	767.2	repeat	Run3	repeat/STIM_005.jpg	99
2448.795	0.543	542.6	repeat	Run3	repeat/STIM_006.jpg	100
2451.371	0.814	813.7	repeat	Run3	repeat/STIM_006.jpg	100
2455.968	0.671	670.9	repeat	Run3	repeat/STIM_006.jpg	99
2459.794	1.033	1032.6	repeat	Run3	repeat/STIM_006.jpg	99
2463.02	0.738	737.8	repeat	Run3	repeat/STIM_006.jpg	100
2466.368	0.655	655.2	repeat	Run3	repeat/STIM_007.jpg	99
2470.703	0.58	580.1	repeat	Run3	repeat/STIM_007.jpg	99
2474.035	0.916	916.5	repeat	Run3	repeat/STIM_007.jpg	99
2478.474	0.746	745.6	repeat	Run3	repeat/STIM_007.jpg	100
2481.689	1.009	1009.1	repeat	Run3	repeat/STIM_007.jpg	100
2484.85	0.981	980.9	repeat	Run3	repeat/STIM_008.jpg	99
2489.342	1.034	1034.5	repeat	Run3	repeat/STIM_008.jpg	99
2492.424	0.646	646.2	repeat	Run3	repeat/STIM_008.jpg	99
2496.134	0.703	702.7	repeat	Run3	repeat/STIM_008.jpg	99
2499.065	0.958	957.8	repeat	Run3	repeat/STIM_008.jpg	100
2502.967	1.003	1003.0	repeat	Run3	repeat/STIM_009.jpg	99
2506.947	0.731	731.4	repeat	Run3	repeat/STIM_009.jpg	100
2510.495	0.716	715.5	repeat	Run3	repeat/STIM_009.jpg	100
2514.083	0.652	652.2	repeat	Run3	repeat/STIM_009.jpg	100
2517.589	0.996	996.1	repeat	Run3	repeat/STIM_009.jpg	99
2520.755	0.984	984.2	repeat	Run3	repeat/STIM_010.jpg	100
2524.003	0.602	601.7	repeat	Run3	repeat/STIM_010.jpg	100
2527.839	0.878	878.1	repeat	Run3	repeat/STIM_010.jpg	99
2532.457	0.822	822.0	repeat	Run3	repeat/STIM_010.jpg	99
2537.213	0.996	995.7	repeat	Run3	repeat/STIM_010.jpg	99
2542.003	1.011	1010.6	repeat	Run3	repeat/STIM_011.jpg	100
2546.591	0.535	535.1	repeat	Run3	repeat/STIM_011.jpg	99
2549.614	0.972	971.6	repeat	Run3	repeat/STIM_011.jpg	100
2553.819	0.852	851.9	repeat	Run3	repeat/STIM_011.jpg	100
2557.509	0.973	972.9	repeat	Run3	repeat/STIM_011.jpg	99
2562.169	0.828	828.0	repeat	Run3	repeat/STIM_012.jpg	99
2565.135	0.798	797.9	repeat	Run3	repeat/STIM_012.jpg	99
2569.326	0.89	890.0	repeat	Run3	repeat/STIM_012.jpg	99
2572.722	0.96	960.0	repeat	Run3	repeat/STIM_012.jpg	99
2577.3	0.986	986.0	repeat	Run3	repeat/STIM_012.jpg	100
2580.452	0.568	568.3	repeat	Run3	repeat/STIM_013.jpg	99
2583.428	0.653	652.7	repeat	Run3	repeat/STIM_013.jpg	100
2587.611	0.658	658.0	repeat	Run3	repeat/STIM_013.jpg	100
2591.309	0.677	676.8	repeat	Run3	repeat/STIM_013.jpg	99
2594.511	0.602	601.5	repeat	Run3	repeat/STIM_013.jpg	99
2598.28	1.014	1014.2	repeat	Run3	repeat/STIM_014.jpg	100
2602.971	0.815	814.9	repeat	Run3	repeat/STIM_014.jpg	100
2605.95	1.045	1045.4	repeat	Run3	repeat/STIM_014.jpg	99
2610.616	0.76	759.5	repeat	Run3	repeat/STIM_014.jpg	100
2613.507	0.643	643.4	repeat	Run3	repeat/STIM_014.jpg	100
2616.609	1.004	1004.5	generate	Run4	generate/STIM_000.jpg	100
2620.966	2.129	2128.8	generate	Run4	generate/STIM_000.jpg	100
2627.042	1.488	1488.0	generate	Run4	generate/STIM_000.jpg	99
2632.44	1.778	1777.8	generate	Run4	generate/STIM_000.jpg	100
2636.459	1.826	1825.5	generate	Run4	generate/STIM_000.jpg	100
2640.617	1.463	1463.3	generate	Run4	generate/STIM_001.jpg	100
2645.223	1.972	1972.3	generate	Run4	generate/STIM_001.jpg	100
2650.905	1.878	1878.1	generate	Run4	generate/STIM_001.jpg	100
2655.506	1.153	1152.9	generate	Run4	generate/STIM_001.jpg	100
2659.739	1.681	1681.1	generate	Run4	generate/STIM_001.jpg	99
2664.385	1.252	1251.7	generate	Run4	generate/STIM_002.jpg	99
2668.325	0.881	880.6	generate	Run4	generate/STIM_002.jpg	99
2671.246	2.18	2180.0	generate	Run4	generate/STIM_002.jpg	100
2676.135	2.098	2097.9	generate	Run4	generate/STIM_002.jpg	99
2680.293	1.879	1879.1	generate	Run4	generate/STIM_002.jpg	99
2685.131	0.999	999.3	generate	Run4	generate/STIM_003.jpg	99
2689.352	1.131	1131.4	generate	Run4	generate/STIM_003.jpg	99
2693.639	1.31	1309.5	generate	Run4	generate/STIM_003.jpg	99
2698.609	2.061	2061.4	generate	Run4	generate/STIM_003.jpg	100
2703.051	1.018	1018.3	generate	Run4	generate/STIM_003.jpg	99
2707.667	1.858	1858.3	generate	Run4	generate/STIM_004.jpg	100
2712.415	2.161	2160.6	generate	Run4	generate/STIM_004.jpg	99
2717.721	1.878	1878.4	generate	Run4	generate/STIM_004.jpg	99
2722.082	1.319	1319.3	generate	Run4	generate/STIM_004.jpg	99
2725.418	2.139	2139.0	generate	Run4	generate/STIM_004.jpg	99
2731.164	1.475	1475.3	generate	Run4	generate/STIM_005.jpg	99
2735.88	1.071	1071.2	generate	Run4	generate/STIM_005.jpg	99
2739.384	1.763	1762.8	generate	Run4	generate/STIM_005.jpg	100
2744.309	0.987	986.6	generate	Run4	generate/STIM_005.jpg	99
2747.454	1.996	1996.2	generate	Run4	generate/STIM_005.jpg	99
2753.435	1.167	1167.4	generate	Run4	generate/STIM_006.jpg	99
2756.757	1.936	1936.2	generate	Run4	generate/STIM_006.jpg	99
2761.473	1.231	1230.7	generate	Run4	generate/STIM_006.jpg	99
2765.383	0.922	922.4	generate	Run4	generate/STIM_006.jpg	100
2770.249	1.468	1467.7	generate	Run4	generate/STIM_006.jpg	100
2775.094	1.683	1682.9	generate	Run4	generate/STIM_007.jpg	100
2780.163	1.887	1886.7	generate	Run4	generate/STIM_007.jpg	99
2785.3	1.49	1490.0	generate	Run4	generate/STIM_007.jpg	99
2790.126	0.957	957.2	generate	Run4	generate/STIM_007.jpg	99
2794.627	1.817	1816.6	generate	Run4	generate/STIM_007.jpg	100
2799.048	2.06	2060.1	generate	Run4	generate/STIM_008.jpg	99
2804.758	1.448	1448.1	generate	Run4	generate/STIM_008.jpg	100
2808.859	1.223	1223.0	generate	Run4	generate/STIM_008.jpg	100
2812.912	2.125	2125.0	generate	Run4	generate/STIM_008.jpg	99
2818.412	2.172	2172.0	generate	Run4	generate/STIM_008.jpg	100
2822.824	1.908	1908.4	generate	Run4	generate/STIM_009.jpg	99
2826.971	0.981	981.3	generate	Run4	generate/STIM_009.jpg	100
2830.422	2.066	2065.8	generate	Run4	generate/STIM_009.jpg	99
2834.495	1.928	1927.8	generate	Run4	generate/STIM_009.jpg	100
2839.318	0.898	898.2	generate	Run4	generate/STIM_009.jpg	99
2843.781	1.17	1169.7	generate	Run4	generate/STIM_010.jpg	99
2847.419	1.961	1961.2	generate	Run4	generate/STIM_010.jpg	100
2851.935	1.905	1905.3	generate	Run4	generate/STIM_010.jpg	99
2856.485	0.962	961.9	generate	Run4	generate/STIM_010.jpg	99
2861.117	1.327	1327.0	generate	Run4	generate/STIM_010.jpg	100
2864.505	1.977	1977.0	generate	Run4	generate/STIM_011.jpg	99
2869.9	1.722	1721.5	generate	Run4	generate/STIM_011.jpg	99
2875.0	1.876	1875.6	generate	Run4	generate/STIM_011.jpg	100
2880.498	2.05	2049.5	generate	Run4	generate/STIM_011.jpg	100
2884.821	1.527	1526.7	generate	Run4	generate/STIM_011.jpg	100
2889.527	1.186	1185.6	generate	Run4	generate/STIM_012.jpg	100
2893.529	1.155	1155.4	generate	Run4	generate/STIM_012.jpg	100
2897.809	1.877	1876.8	generate	Run4	generate/STIM_012.jpg	100
2902.334	1.904	1904.3	generate	Run4	generate/STIM_012.jpg	99
2907.884	1.998	1997.8	generate	Run4	generate/STIM_012.jpg	99
2913.686	2.085	2085.2	generate	Run4	generate/STIM_013.jpg	100
2918.946	0.953	953.1	generate	Run4	generate/STIM_013.jpg	99
2922.311	1.105	1105.0	generate	Run4	generate/STIM_013.jpg	99
2925.807	1.12	1120.3	generate	Run4	generate/STIM_013.jpg	100
2929.671	2.015	2014.6	generate	Run4	generate/STIM_013.jpg	100
2935.165	1.634	1633.5	generate	Run4	generate/STIM_014.jpg	100
2939.479	1.505	1505.1	generate	Run4	generate/STIM_014.jpg	99
2943.4	1.203	1203.1	generate	Run4	generate/STIM_014.jpg	99
2948.509	1.667	1667.1	generate	Run4	generate/STIM_014.jpg	99
2952.85	1.563	1563.4	generate	Run4	generate/STIM_014.jpg	100
2957.295	1.058	1058.5	generate	Run4	generate/STIM_015.jpg	99
2960.593	1.734	1734.3	generate	Run4	generate/STIM_015.jpg	100
2964.895	1.252	1251.5	generate	Run4	generate/STIM_015.jpg	100
2969.343	1.98	1979.8	generate	Run4	generate/STIM_015.jpg	100
2974.451	1.483	1482.7	generate	Run4	generate/STIM_015.jpg	100
2979.438	1.293	1293.0	generate	Run4	generate/STIM_016.jpg	99
2982.844	1.627	1627.1	generate	Run4	generate/STIM_016.jpg	100
2986.615	0.938	937.7	generate	Run4	generate/STIM_016.jpg	99
2989.793	1.897	1897.1	generate	Run4	generate/STIM_016.jpg	99
2993.825	1.254	1253.8	generate	Run4	generate/STIM_016.jpg	99
2998.179	1.616	1616.1	generate	Run4	generate/STIM_017.jpg	99
3002.846	2.04	2039.8	generate	Run4	generate/STIM_017.jpg	99
3007.437	1.991	1990.7	generate	Run4	generate/STIM_017.jpg	99
3011.908	1.535	1535.1	generate	Run4	generate/STIM_017.jpg	99
3015.976	2.128	2127.9	generate	Run4	generate/STIM_017.jpg	100
3020.651	1.947	1947.0	generate	Run4	generate/STIM_018.jpg	100
3024.701	2.041	2041.1	generate	Run4	generate/STIM_018.jpg	100
3030.108	2.006	2006.2	generate	Run4	generate/STIM_018.jpg	99
3036.054	1.748	1748.3	generate	Run4	generate/STIM_018.jpg	100
3040.676	2.162	2162.3	generate	Run4	generate/STIM_018.jpg	100
3045.279	2.087	2087.4	generate	Run4	generate/STIM_019.jpg	100
3050.202	1.237	1237.3	generate	Run4	generate/STIM_019.jpg	100
3054.226	1.605	1605.2	generate	Run4	generate/STIM_019.jpg	99
3059.064	1.849	1848.7	generate	Run4	generate/STIM_019.jpg	100
3064.272	1.55	1549.8	generate	Run4	generate/STIM_019.jpg	99
3068.213	1.75	1749.9	generate	Run4	generate/STIM_020.jpg	99
3073.326	1.364	1363.9	generate	Run4	generate/STIM_020.jpg	100
3078.247	1.79	1789.5	generate	Run4	generate/STIM_020.jpg	100
3082.893	1.597	1596.6	generate	Run4	generate/STIM_020.jpg	99
3087.523	1.488	1487.5	generate	Run4	generate/STIM_020.jpg	100
3091.236	1.152	1151.8	generate	Run4	generate/STIM_021.jpg	100
3095.522	1.515	1514.6	generate	Run4	generate/STIM_021.jpg	100
3099.446	1.422	1422.0	generate	Run4	generate/STIM_021.jpg	100
3103.216	2.072	2071.9	generate	Run4	generate/STIM_021.jpg	100
3109.272	1.984	1984.5	generate	Run4	generate/STIM_021.jpg	99
3113.831	1.394	1394.0	generate	Run4	generate/STIM_022.jpg	99
3119.007	1.61	1610.0	generate	Run4	generate/STIM_022.jpg	99
3124.303	1.501	1501.4	generate	Run4	generate/STIM_022.jpg	100
3129.791	1.268	1268.0	generate	Run4	generate/STIM_022.jpg	100
3133.379	0.915	914.6	generate	Run4	generate/STIM_022.jpg	99
3137.481	1.816	1816.1	generate	Run4	generate/STIM_023.jpg	99
3142.417	1.572	1572.3	generate	Run4	generate/STIM_023.jpg	100
3147.773	1.782	1782.3	generate	Run4	generate/STIM_023.jpg	100
3152.244	1.77	1770.2	generate	Run4	generate/STIM_023.jpg	100
3156.699	1.24	1239.7	generate	Run4	generate/STIM_023.jpg	99
3160.583	1.623	1622.6	generate	Run4	generate/STIM_024.jpg	99
3165.333	1.536	1536.0	generate	Run4	generate/STIM_024.jpg	100
3170.673	1.08	1079.9	generate	Run4	generate/STIM_024.jpg	99
3174.33	1.201	1201.1	generate	Run4	generate/STIM_024.jpg	99
3179.307	1.217	1217.4	generate	Run4	generate/STIM_024.jpg	99
3182.574	0.72	719.7	repeat	Run4	repeat/STIM_000.jpg	100
3186.715	0.549	548.6	repeat	Run4	repeat/STIM_000.jpg	99
3189.408	0.542	542.4	repeat	Run4	repeat/STIM_000.jpg	100
3193.785	0.877	876.7	repeat	Run4	repeat/STIM_000.jpg	99
3198.563	0.529	528.7	repeat	Run4	repeat/STIM_000.jpg	99
3201.332	0.812	812.3	repeat	Run4	repeat/STIM_001.jpg	99
3205.392	1.034	1034.3	repeat	Run4	repeat/STIM_001.jpg	99
3208.818	0.588	587.8	repeat	Run4	repeat/STIM_001.jpg	99
3212.933	0.738	737.6	repeat	Run4	repeat/STIM_001.jpg	100
3215.975	0.785	784.7	repeat	Run4	repeat/STIM_001.jpg	100
3219.008	0.944	943.8	repeat	Run4	repeat/STIM_002.jpg	100
3222.25	0.693	693.2	repeat	Run4	repeat/STIM_002.jpg	99
3225.603	0.528	528.5	repeat	Run4	repeat/STIM_002.jpg	99
3228.159	0.739	738.8	repeat	Run4	repeat/STIM_002.jpg	99
3232.497	0.611	611.3	repeat	Run4	repeat/STIM_002.jpg	99
3235.235	0.717	716.7	repeat	Run4	repeat/STIM_003.jpg	100
3239.208	1.016	1016.0	repeat	Run4	repeat/STIM_003.jpg	99
3242.478	0.573	573.2	repeat	Run4	repeat/STIM_003.jpg	99
3245.97	0.572	571.5	repeat	Run4	repeat/STIM_003.jpg	100
3250.462	0.904	904.1	repeat	Run4	repeat/STIM_003.jpg	100
3254.83	0.585	585.3	repeat	Run4	repeat/STIM_004.jpg	99
3257.865	0.722	722.4	repeat	Run4	repeat/STIM_004.jpg	99
3261.989	0.64	639.8	repeat	Run4	repeat/STIM_004.jpg	99
3265.585	0.635	634.9	repeat	Run4	repeat/STIM_004.jpg	100
3270.181	0.693	693.0	repeat	Run4	repeat/STIM_004.jpg	100
3273.443	1.006	1005.8	repeat	Run4	repeat/STIM_005.jpg	99
3276.821	0.789	789.3	repeat	Run4	repeat/STIM_005.jpg	99
3279.982	0.687	686.9	repeat	Run4	repeat/STIM_005.jpg	99
3283.042	0.652	652.3	repeat	Run4	repeat/STIM_005.jpg	100
3286.135	0.859	859.0	repeat	Run4	repeat/STIM_005.jpg	100
3290.075	0.911	910.6	repeat	Run4	repeat/STIM_006.jpg	99
3293.674	0.9	900.1	repeat	Run4	repeat/STIM_006.jpg	99
3298.318	0.626	626.5	repeat	Run4	repeat/STIM_006.jpg	99
3302.27	0.694	694.4	repeat	Run4	repeat/STIM_006.jpg	99
3306.023	0.711	711.4	repeat	Run4	repeat/STIM_006.jpg	99
3309.248	0.943	943.2	repeat	Run4	repeat/STIM_007.jpg	99
3313.791	0.982	982.3	repeat	Run4	repeat/STIM_007.jpg	99
3318.364	0.881	881.2	repeat	Run4	repeat/STIM_007.jpg	100
3321.372	0.77	770.2	repeat	Run4	repeat/STIM_007.jpg	100
3324.945	0.72	720.4	repeat	Run4	repeat/STIM_007.jpg	99
3328.674	0.756	755.8	repeat	Run4	repeat/STIM_008.jpg	99
3331.616	1.009	1008.7	repeat	Run4	repeat/STIM_008.jpg	100
3336.184	0.939	939.1	repeat	Run4	repeat/STIM_008.jpg	100
3341.12	1.021	1021.0	repeat	Run4	repeat/STIM_008.jpg	99
3345.986	0.799	798.7	repeat	Run4	repeat/STIM_008.jpg	100
3349.125	0.606	605.8	repeat	Run4	repeat/STIM_009.jpg	100
3353.106	0.788	787.9	repeat	Run4	repeat/STIM_009.jpg	100
3356.84	0.697	697.2	repeat	Run4	repeat/STIM_009.jpg	100
3360.621	0.6	600.4	repeat	Run4	repeat/STIM_009.jpg	99
3364.961	0.728	727.9	repeat	Run4	repeat/STIM_009.jpg	100
3368.589	0.686	686.1	repeat	Run4	repeat/STIM_010.jpg	100
3372.041	0.963	963.3	repeat	Run4	repeat/STIM_010.jpg	99
3376.948	0.617	617.3	repeat	Run4	repeat/STIM_010.jpg	100
3381.059	0.661	660.8	repeat	Run4	repeat/STIM_010.jpg	99
3384.769	0.915	915.3	repeat	Run4	repeat/STIM_010.jpg	99
3389.387	0.974	974.0	repeat	Run4	repeat/STIM_011.jpg	99
3392.912	0.897	897.2	repeat	Run4	repeat/STIM_011.jpg	100
3396.449	0.628	627.8	repeat	Run4	repeat/STIM_011.jpg	100
3399.375	0.567	567.0	repeat	Run4	repeat/STIM_011.jpg	99
3401.948	0.555	555.3	repeat	Run4	repeat/STIM_011.jpg	100
3406.337	0.724	723.9	repeat	Run4	repeat/STIM_012.jpg	99
3410.265	1.01	1010.5	repeat	Run4	repeat/STIM_012.jpg	100
3414.525	0.939	938.8	repeat	Run4	repeat/STIM_012.jpg	99
3419.445	0.684	684.0	repeat	Run4	repeat/STIM_012.jpg	99
3422.434	0.715	715.4	repeat	Run4	repeat/STIM_012.jpg	100
3426.754	0.81	810.0	repeat	Run4	repeat/STIM_013.jpg	99
3430.827	0.554	554.4	repeat	Run4	repeat/STIM_013.jpg	100
3434.497	0.764	764.4	repeat	Run4	repeat/STIM_013.jpg	100
3438.989	0.575	574.7	repeat	Run4	repeat/STIM_013.jpg	100
3443.306	0.71	710.0	repeat	Run4	repeat/STIM_013.jpg	99
3446.603	0.827	826.6	repeat	Run4	repeat/STIM_014.jpg	100
3449.816	0.729	729.4	repeat	Run4	repeat/STIM_014.jpg	99
3452.768	0.649	649.1	repeat	Run4	repeat/STIM_014.jpg	99
3455.429	0.996	995.7	repeat	Run4	repeat/STIM_014.jpg	100
3459.956	0.608	608.3	repeat	Run4	repeat/STIM_014.jpg	99
