onset	duration	accuracy	trial_type	learning_stage	stimulus
0.0	2.388	incorrect	generate	Run1	generate/STIM_000.jpg
4.278	3.182	correct	generate	Run1	generate/STIM_000.jpg
9.887	2.98	correct	generate	Run1	generate/STIM_000.jpg
16.074	2.796	correct	generate	Run1	generate/STIM_000.jpg
21.368	1.102	correct	generate	Run1	generate/STIM_000.jpg
26.057	3.347	correct	generate	Run1	generate/STIM_001.jpg
31.282	2.86	correct	generate	Run1	generate/STIM_001.jpg
37.417	2.793	correct	generate	Run1	generate/STIM_001.jpg
43.559	2.208	correct	generate	Run1	generate/STIM_001.jpg
48.88	1.094	correct	generate	Run1	generate/STIM_001.jpg
53.027	1.521	incorrect	generate	Run1	generate/STIM_002.jpg
57.467	2.601	correct	generate	Run1	generate/STIM_002.jpg
63.016	2.606	correct	generate	Run1	generate/STIM_002.jpg
68.197	2.435	incorrect	generate	Run1	generate/STIM_002.jpg
73.625	1.662	correct	generate	Run1	generate/STIM_002.jpg
78.657	2.285	correct	generate	Run1	generate/STIM_003.jpg
83.408	1.879	correct	generate	Run1	generate/STIM_003.jpg
88.051	2.7	correct	generate	Run1	generate/STIM_003.jpg
93.73	2.039	correct	generate	Run1	generate/STIM_003.jpg
98.903	1.916	incorrect	generate	Run1	generate/STIM_003.jpg
104.277	1.735	correct	generate	Run1	generate/STIM_004.jpg
108.147	1.505	incorrect	generate	Run1	generate/STIM_004.jpg
113.069	1.564	incorrect	generate	Run1	generate/STIM_004.jpg
118.293	2.619	incorrect	generate	Run1	generate/STIM_004.jpg
123.28	2.085	incorrect	generate	Run1	generate/STIM_004.jpg
128.831	1.913	correct	generate	Run1	generate/STIM_005.jpg
133.45	1.632	incorrect	generate	Run1	generate/STIM_005.jpg
137.975	2.119	correct	generate	Run1	generate/STIM_005.jpg
142.505	2.397	correct	generate	Run1	generate/STIM_005.jpg
148.238	1.337	correct	generate	Run1	generate/STIM_005.jpg
151.794	1.431	correct	generate	Run1	generate/STIM_006.jpg
156.934	2.255	correct	generate	Run1	generate/STIM_006.jpg
162.615	2.028	correct	generate	Run1	generate/STIM_006.jpg
166.415	1.977	correct	generate	Run1	generate/STIM_006.jpg
171.244	1.545	correct	generate	Run1	generate/STIM_006.jpg
176.127	1.467	correct	generate	Run1	generate/STIM_007.jpg
180.494	1.629	correct	generate	Run1	generate/STIM_007.jpg
185.371	2.24	correct	generate	Run1	generate/STIM_007.jpg
189.885	1.946	correct	generate	Run1	generate/STIM_007.jpg
193.961	1.726	correct	generate	Run1	generate/STIM_007.jpg
198.744	1.9	incorrect	generate	Run1	generate/STIM_008.jpg
204.222	1.472	correct	generate	Run1	generate/STIM_008.jpg
208.25	1.767	correct	generate	Run1	generate/STIM_008.jpg
212.758	1.636	correct	generate	Run1	generate/STIM_008.jpg
218.072	2.027	correct	generate	Run1	generate/STIM_008.jpg
223.553	3.357	incorrect	generate	Run1	generate/STIM_009.jpg
229.139	1.948	correct	generate	Run1	generate/STIM_009.jpg
234.424	1.961	correct	generate	Run1	generate/STIM_009.jpg
239.574	2.841	correct	generate	Run1	generate/STIM_009.jpg
245.975	1.336	correct	generate	Run1	generate/STIM_009.jpg
250.401	2.076	correct	generate	Run1	generate/STIM_010.jpg
254.661	2.608	correct	generate	Run1	generate/STIM_010.jpg
258.996	2.584	correct	generate	Run1	generate/STIM_010.jpg
263.55	2.115	correct	generate	Run1	generate/STIM_010.jpg
268.029	1.734	correct	generate	Run1	generate/STIM_010.jpg
272.265	1.963	correct	generate	Run1	generate/STIM_011.jpg
277.291	1.54	correct	generate	Run1	generate/STIM_011.jpg
281.949	2.824	correct	generate	Run1	generate/STIM_011.jpg
286.549	2.923	incorrect	generate	Run1	generate/STIM_011.jpg
292.935	1.379	correct	generate	Run1	generate/STIM_011.jpg
297.725	3.162	correct	generate	Run1	generate/STIM_012.jpg
302.625	3.037	correct	generate	Run1	generate/STIM_012.jpg
307.59	1.549	correct	generate	Run1	generate/STIM_012.jpg
311.264	1.559	correct	generate	Run1	generate/STIM_012.jpg
316.457	2.395	correct	generate	Run1	generate/STIM_012.jpg
321.367	3.271	correct	generate	Run1	generate/STIM_013.jpg
326.327	2.268	correct	generate	Run1	generate/STIM_013.jpg
330.704	2.386	correct	generate	Run1	generate/STIM_013.jpg
335.303	1.884	incorrect	generate	Run1	generate/STIM_013.jpg
340.326	1.13	correct	generate	Run1	generate/STIM_013.jpg
344.837	3.446	correct	generate	Run1	generate/STIM_014.jpg
351.515	2.968	incorrect	generate	Run1	generate/STIM_014.jpg
357.032	1.593	incorrect	generate	Run1	generate/STIM_014.jpg
362.075	1.965	correct	generate	Run1	generate/STIM_014.jpg
366.112	1.148	correct	generate	Run1	generate/STIM_014.jpg
369.636	2.439	correct	generate	Run1	generate/STIM_015.jpg
375.587	2.582	correct	generate	Run1	generate/STIM_015.jpg
380.394	2.33	correct	generate	Run1	generate/STIM_015.jpg
386.161	2.192	correct	generate	Run1	generate/STIM_015.jpg
391.056	2.104	correct	generate	Run1	generate/STIM_015.jpg
395.43	2.096	incorrect	generate	Run1	generate/STIM_016.jpg
401.151	1.613	incorrect	generate	Run1	generate/STIM_016.jpg
404.778	2.143	correct	generate	Run1	generate/STIM_016.jpg
409.953	2.259	incorrect	generate	Run1	generate/STIM_016.jpg
414.29	1.529	correct	generate	Run1	generate/STIM_016.jpg
418.692	2.831	correct	generate	Run1	generate/STIM_017.jpg
424.824	2.319	correct	generate	Run1	generate/STIM_017.jpg
429.166	2.219	correct	generate	Run1	generate/STIM_017.jpg
433.91	2.726	correct	generate	Run1	generate/STIM_017.jpg
438.575	2.457	correct	generate	Run1	generate/STIM_017.jpg
443.202	2.615	correct	generate	Run1	generate/STIM_018.jpg
448.747	3.164	correct	generate	Run1	generate/STIM_018.jpg
455.447	1.821	correct	generate	Run1	generate/STIM_018.jpg
459.988	1.866	correct	generate	Run1	generate/STIM_018.jpg
463.829	2.285	correct	generate	Run1	generate/STIM_018.jpg
468.148	3.19	correct	generate	Run1	generate/STIM_019.jpg
473.511	2.012	correct	generate	Run1	generate/STIM_019.jpg
478.555	1.324	correct	generate	Run1	generate/STIM_019.jpg
483.185	1.687	correct	generate	Run1	generate/STIM_019.jpg
488.515	1.146	correct	generate	Run1	generate/STIM_019.jpg
491.954	2.463	incorrect	generate	Run1	generate/STIM_020.jpg
496.443	1.961	correct	generate	Run1	generate/STIM_020.jpg
500.755	1.613	incorrect	generate	Run1	generate/STIM_020.jpg
504.132	2.497	correct	generate	Run1	generate/STIM_020.jpg
508.556	2.524	correct	generate	Run1	generate/STIM_020.jpg
512.955	2.738	correct	generate	Run1	generate/STIM_021.jpg
517.936	2.984	correct	generate	Run1	generate/STIM_021.jpg
524.445	2.961	correct	generate	Run1	generate/STIM_021.jpg
529.204	2.595	incorrect	generate	Run1	generate/STIM_021.jpg
535.122	1.952	correct	generate	Run1	generate/STIM_021.jpg
539.857	2.072	correct	generate	Run1	generate/STIM_022.jpg
544.494	1.643	correct	generate	Run1	generate/STIM_022.jpg
549.065	2.648	correct	generate	Run1	generate/STIM_022.jpg
555.124	2.536	correct	generate	Run1	generate/STIM_022.jpg
560.344	2.042	correct	generate	Run1	generate/STIM_022.jpg
565.003	2.812	correct	generate	Run1	generate/STIM_023.jpg
569.754	2.871	correct	generate	Run1	generate/STIM_023.jpg
575.868	1.662	incorrect	generate	Run1	generate/STIM_023.jpg
579.686	1.532	correct	generate	Run1	generate/STIM_023.jpg
583.413	2.321	correct	generate	Run1	generate/STIM_023.jpg
588.398	1.665	incorrect	generate	Run1	generate/STIM_024.jpg
592.996	1.991	incorrect	generate	Run1	generate/STIM_024.jpg
597.046	2.212	incorrect	generate	Run1	generate/STIM_024.jpg
602.49	1.948	correct	generate	Run1	generate/STIM_024.jpg
607.864	1.817	incorrect	generate	Run1	generate/STIM_024.jpg
612.429	0.529	correct	repeat	Run1	repeat/STIM_000.jpg
615.132	0.927	correct	repeat	Run1	repeat/STIM_000.jpg
618.545	0.807	correct	repeat	Run1	repeat/STIM_000.jpg
622.565	0.734	correct	repeat	Run1	repeat/STIM_000.jpg
625.544	0.85	correct	repeat	Run1	repeat/STIM_000.jpg
630.15	1.089	correct	repeat	Run1	repeat/STIM_001.jpg
634.291	0.681	correct	repeat	Run1	repeat/STIM_001.jpg
637.754	0.884	correct	repeat	Run1	repeat/STIM_001.jpg
641.743	0.727	incorrect	repeat	Run1	repeat/STIM_001.jpg
645.664	0.849	correct	repeat	Run1	repeat/STIM_001.jpg
649.204	0.928	correct	repeat	Run1	repeat/STIM_002.jpg
652.54	0.678	correct	repeat	Run1	repeat/STIM_002.jpg
656.17	1.015	correct	repeat	Run1	repeat/STIM_002.jpg
659.021	0.654	correct	repeat	Run1	repeat/STIM_002.jpg
662.999	1.193	correct	repeat	Run1	repeat/STIM_002.jpg
666.061	0.626	correct	repeat	Run1	repeat/STIM_003.jpg
669.735	1.147	correct	repeat	Run1	repeat/STIM_003.jpg
672.798	0.598	correct	repeat	Run1	repeat/STIM_003.jpg
675.493	0.994	correct	repeat	Run1	repeat/STIM_003.jpg
679.832	0.973	correct	repeat	Run1	repeat/STIM_003.jpg
683.542	0.748	correct	repeat	Run1	repeat/STIM_004.jpg
686.187	1.069	correct	repeat	Run1	repeat/STIM_004.jpg
690.61	0.639	correct	repeat	Run1	repeat/STIM_004.jpg
693.471	0.78	correct	repeat	Run1	repeat/STIM_004.jpg
697.84	0.761	correct	repeat	Run1	repeat/STIM_004.jpg
700.787	1.002	correct	repeat	Run1	repeat/STIM_005.jpg
705.643	0.755	correct	repeat	Run1	repeat/STIM_005.jpg
709.681	1.221	correct	repeat	Run1	repeat/STIM_005.jpg
714.41	1.044	correct	repeat	Run1	repeat/STIM_005.jpg
717.331	0.722	incorrect	repeat	Run1	repeat/STIM_005.jpg
721.274	0.778	correct	repeat	Run1	repeat/STIM_006.jpg
725.202	0.969	correct	repeat	Run1	repeat/STIM_006.jpg
729.185	0.553	correct	repeat	Run1	repeat/STIM_006.jpg
732.292	1.061	correct	repeat	Run1	repeat/STIM_006.jpg
735.557	0.835	correct	repeat	Run1	repeat/STIM_006.jpg
738.286	0.798	correct	repeat	Run1	repeat/STIM_007.jpg
741.881	0.665	correct	repeat	Run1	repeat/STIM_007.jpg
745.835	0.87	correct	repeat	Run1	repeat/STIM_007.jpg
750.306	0.999	correct	repeat	Run1	repeat/STIM_007.jpg
753.229	0.564	correct	repeat	Run1	repeat/STIM_007.jpg
755.776	0.641	correct	repeat	Run1	repeat/STIM_008.jpg
759.164	1.043	correct	repeat	Run1	repeat/STIM_008.jpg
762.378	0.626	correct	repeat	Run1	repeat/STIM_008.jpg
765.055	0.932	correct	repeat	Run1	repeat/STIM_008.jpg
769.182	0.732	correct	repeat	Run1	repeat/STIM_008.jpg
772.932	0.868	correct	repeat	Run1	repeat/STIM_009.jpg
776.556	1.037	correct	repeat	Run1	repeat/STIM_009.jpg
780.293	0.93	correct	repeat	Run1	repeat/STIM_009.jpg
784.119	0.913	correct	repeat	Run1	repeat/STIM_009.jpg
786.949	1.13	correct	repeat	Run1	repeat/STIM_009.jpg
791.429	0.95	incorrect	repeat	Run1	repeat/STIM_010.jpg
794.569	0.975	correct	repeat	Run1	repeat/STIM_010.jpg
797.877	0.798	correct	repeat	Run1	repeat/STIM_010.jpg
802.603	0.918	correct	repeat	Run1	repeat/STIM_010.jpg
807.377	0.806	correct	repeat	Run1	repeat/STIM_010.jpg
811.021	0.849	correct	repeat	Run1	repeat/STIM_011.jpg
815.349	0.959	correct	repeat	Run1	repeat/STIM_011.jpg
820.04	0.586	correct	repeat	Run1	repeat/STIM_011.jpg
824.28	0.629	correct	repeat	Run1	repeat/STIM_011.jpg
828.175	0.871	correct	repeat	Run1	repeat/STIM_011.jpg
832.868	0.972	correct	repeat	Run1	repeat/STIM_012.jpg
837.124	0.78	correct	repeat	Run1	repeat/STIM_012.jpg
840.994	0.785	correct	repeat	Run1	repeat/STIM_012.jpg
845.665	1.108	correct	repeat	Run1	repeat/STIM_012.jpg
850.423	0.618	correct	repeat	Run1	repeat/STIM_012.jpg
854.183	1.125	correct	repeat	Run1	repeat/STIM_013.jpg
858.688	0.907	correct	repeat	Run1	repeat/STIM_013.jpg
861.852	0.635	correct	repeat	Run1	repeat/STIM_013.jpg
864.963	0.998	correct	repeat	Run1	repeat/STIM_013.jpg
867.968	0.826	correct	repeat	Run1	repeat/STIM_013.jpg
871.918	0.742	correct	repeat	Run1	repeat/STIM_014.jpg
874.629	0.682	correct	repeat	Run1	repeat/STIM_014.jpg
877.504	0.781	correct	repeat	Run1	repeat/STIM_014.jpg
881.559	0.838	correct	repeat	Run1	repeat/STIM_014.jpg
885.801	0.928	correct	repeat	Run1	repeat/STIM_014.jpg
890.528	1.607	correct	generate	Run2	generate/STIM_000.jpg
894.472	2.2	correct	generate	Run2	generate/STIM_000.jpg
898.778	1.362	correct	generate	Run2	generate/STIM_000.jpg
903.088	1.577	correct	generate	Run2	generate/STIM_000.jpg
906.93	2.205	correct	generate	Run2	generate/STIM_000.jpg
912.136	2.706	correct	generate	Run2	generate/STIM_001.jpg
917.974	1.105	correct	generate	Run2	generate/STIM_001.jpg
921.001	1.986	correct	generate	Run2	generate/STIM_001.jpg
925.377	2.241	correct	generate	Run2	generate/STIM_001.jpg
930.511	1.133	correct	generate	Run2	generate/STIM_001.jpg
935.286	2.751	correct	generate	Run2	generate/STIM_002.jpg
941.005	1.354	correct	generate	Run2	generate/STIM_002.jpg
944.328	1.904	incorrect	generate	Run2	generate/STIM_002.jpg
949.927	2.445	correct	generate	Run2	generate/STIM_002.jpg
955.534	2.165	correct	generate	Run2	generate/STIM_002.jpg
960.126	2.569	correct	generate	Run2	generate/STIM_003.jpg
966.155	1.556	correct	generate	Run2	generate/STIM_003.jpg
971.504	1.189	correct	generate	Run2	generate/STIM_003.jpg
976.028	1.424	correct	generate	Run2	generate/STIM_003.jpg
980.796	1.022	incorrect	generate	Run2	generate/STIM_003.jpg
983.781	1.753	correct	generate	Run2	generate/STIM_004.jpg
988.942	1.471	correct	generate	Run2	generate/STIM_004.jpg
992.603	1.711	correct	generate	Run2	generate/STIM_004.jpg
997.665	1.489	correct	generate	Run2	generate/STIM_004.jpg
1001.777	1.815	correct	generate	Run2	generate/STIM_004.jpg
1007.14	2.407	correct	generate	Run2	generate/STIM_005.jpg
1012.804	1.801	correct	generate	Run2	generate/STIM_005.jpg
1017.455	2.145	correct	generate	Run2	generate/STIM_005.jpg
1023.117	2.094	correct	generate	Run2	generate/STIM_005.jpg
1027.067	0.998	correct	generate	Run2	generate/STIM_005.jpg
1031.328	2.801	correct	generate	Run2	generate/STIM_006.jpg
1037.247	1.984	incorrect	generate	Run2	generate/STIM_006.jpg
1042.552	2.078	incorrect	generate	Run2	generate/STIM_006.jpg
1046.965	1.842	correct	generate	Run2	generate/STIM_006.jpg
1052.446	1.426	correct	generate	Run2	generate/STIM_006.jpg
1056.391	2.708	incorrect	generate	Run2	generate/STIM_007.jpg
1060.875	1.916	correct	generate	Run2	generate/STIM_007.jpg
1064.503	1.812	correct	generate	Run2	generate/STIM_007.jpg
1069.56	1.517	correct	generate	Run2	generate/STIM_007.jpg
1073.151	1.468	correct	generate	Run2	generate/STIM_007.jpg
1076.901	1.704	correct	generate	Run2	generate/STIM_008.jpg
1080.627	1.558	correct	generate	Run2	generate/STIM_008.jpg
1085.979	1.442	correct	generate	Run2	generate/STIM_008.jpg
1089.644	1.669	incorrect	generate	Run2	generate/STIM_008.jpg
1094.592	1.64	correct	generate	Run2	generate/STIM_008.jpg
1099.144	2.289	correct	generate	Run2	generate/STIM_009.jpg
1104.844	1.63	correct	generate	Run2	generate/STIM_009.jpg
1109.958	2.458	correct	generate	Run2	generate/STIM_009.jpg
1114.136	2.024	correct	generate	Run2	generate/STIM_009.jpg
1118.508	1.567	correct	generate	Run2	generate/STIM_009.jpg
1123.329	1.537	correct	generate	Run2	generate/STIM_010.jpg
1127.342	1.773	correct	generate	Run2	generate/STIM_010.jpg
1132.544	2.469	correct	generate	Run2	generate/STIM_010.jpg
1136.88	1.079	incorrect	generate	Run2	generate/STIM_010.jpg
1141.43	1.256	incorrect	generate	Run2	generate/STIM_010.jpg
1145.712	2.324	correct	generate	Run2	generate/STIM_011.jpg
1150.341	1.516	correct	generate	Run2	generate/STIM_011.jpg
1155.119	1.564	correct	generate	Run2	generate/STIM_011.jpg
1159.972	1.429	correct	generate	Run2	generate/STIM_011.jpg
1163.333	2.07	correct	generate	Run2	generate/STIM_011.jpg
1167.725	1.901	correct	generate	Run2	generate/STIM_012.jpg
1171.639	2.027	incorrect	generate	Run2	generate/STIM_012.jpg
1177.217	1.694	incorrect	generate	Run2	generate/STIM_012.jpg
1182.229	2.426	correct	generate	Run2	generate/STIM_012.jpg
1187.983	2.362	correct	generate	Run2	generate/STIM_012.jpg
1193.896	1.547	correct	generate	Run2	generate/STIM_013.jpg
1198.349	1.491	incorrect	generate	Run2	generate/STIM_013.jpg
1203.19	1.151	correct	generate	Run2	generate/STIM_013.jpg
1207.287	2.196	correct	generate	Run2	generate/STIM_013.jpg
1212.179	1.048	correct	generate	Run2	generate/STIM_013.jpg
1216.313	1.813	correct	generate	Run2	generate/STIM_014.jpg
1220.947	2.628	correct	generate	Run2	generate/STIM_014.jpg
1226.108	0.992	correct	generate	Run2	generate/STIM_014.jpg
1230.092	1.492	correct	generate	Run2	generate/STIM_014.jpg
1234.674	1.12	correct	generate	Run2	generate/STIM_014.jpg
1238.106	2.267	correct	generate	Run2	generate/STIM_015.jpg
1243.499	2.462	incorrect	generate	Run2	generate/STIM_015.jpg
1248.332	2.134	correct	generate	Run2	generate/STIM_015.jpg
1253.285	1.402	incorrect	generate	Run2	generate/STIM_015.jpg
1258.239	1.698	correct	generate	Run2	generate/STIM_015.jpg
1261.921	1.623	correct	generate	Run2	generate/STIM_016.jpg
1266.698	2.512	incorrect	generate	Run2	generate/STIM_016.jpg
1271.905	1.792	correct	generate	Run2	generate/STIM_016.jpg
1277.161	1.242	correct	generate	Run2	generate/STIM_016.jpg
1281.025	1.149	correct	generate	Run2	generate/STIM_016.jpg
1285.42	2.49	incorrect	generate	Run2	generate/STIM_017.jpg
1290.155	1.185	correct	generate	Run2	generate/STIM_017.jpg
1294.988	1.54	incorrect	generate	Run2	generate/STIM_017.jpg
1300.353	0.996	incorrect	generate	Run2	generate/STIM_017.jpg
1305.176	1.57	correct	generate	Run2	generate/STIM_017.jpg
1309.402	2.287	incorrect	generate	Run2	generate/STIM_018.jpg
1314.739	1.643	correct	generate	Run2	generate/STIM_018.jpg
1319.635	1.382	correct	generate	Run2	generate/STIM_018.jpg
1323.479	1.706	correct	generate	Run2	generate/STIM_018.jpg
1328.339	2.334	correct	generate	Run2	generate/STIM_018.jpg
1333.646	2.621	correct	generate	Run2	generate/STIM_019.jpg
1338.4	2.292	correct	generate	Run2	generate/STIM_019.jpg
1343.169	1.072	correct	generate	Run2	generate/STIM_019.jpg
1347.857	2.418	correct	generate	Run2	generate/STIM_019.jpg
1352.204	1.666	correct	generate	Run2	generate/STIM_019.jpg
1356.693	1.951	correct	generate	Run2	generate/STIM_020.jpg
1361.833	1.606	incorrect	generate	Run2	generate/STIM_020.jpg
1366.983	2.218	correct	generate	Run2	generate/STIM_020.jpg
1372.591	1.374	correct	generate	Run2	generate/STIM_020.jpg
1376.839	1.672	correct	generate	Run2	generate/STIM_020.jpg
1381.173	1.927	incorrect	generate	Run2	generate/STIM_021.jpg
1386.129	1.473	correct	generate	Run2	generate/STIM_021.jpg
1390.641	1.062	correct	generate	Run2	generate/STIM_021.jpg
1394.581	1.831	correct	generate	Run2	generate/STIM_021.jpg
1398.85	2.183	correct	generate	Run2	generate/STIM_021.jpg
1403.604	2.641	correct	generate	Run2	generate/STIM_022.jpg
1408.383	1.91	correct	generate	Run2	generate/STIM_022.jpg
1412.156	2.471	correct	generate	Run2	generate/STIM_022.jpg
1418.104	0.947	correct	generate	Run2	generate/STIM_022.jpg
1422.716	1.463	correct	generate	Run2	generate/STIM_022.jpg
1426.678	1.234	correct	generate	Run2	generate/STIM_023.jpg
1430.268	2.111	correct	generate	Run2	generate/STIM_023.jpg
1434.899	2.509	correct	generate	Run2	generate/STIM_023.jpg
1440.606	1.361	correct	generate	Run2	generate/STIM_023.jpg
1444.02	2.378	correct	generate	Run2	generate/STIM_023.jpg
1448.873	2.67	correct	generate	Run2	generate/STIM_024.jpg
1453.962	2.659	correct	generate	Run2	generate/STIM_024.jpg
1458.862	1.841	correct	generate	Run2	generate/STIM_024.jpg
1463.923	1.901	correct	generate	Run2	generate/STIM_024.jpg
1469.092	1.149	correct	generate	Run2	generate/STIM_024.jpg
1473.185	0.933	correct	repeat	Run2	repeat/STIM_000.jpg
1476.704	0.806	correct	repeat	Run2	repeat/STIM_000.jpg
1480.825	0.939	correct	repeat	Run2	repeat/STIM_000.jpg
1484.541	0.732	correct	repeat	Run2	repeat/STIM_000.jpg
1488.132	0.817	correct	repeat	Run2	repeat/STIM_000.jpg
1491.422	0.908	correct	repeat	Run2	repeat/STIM_001.jpg
1495.124	0.992	correct	repeat	Run2	repeat/STIM_001.jpg
1499.729	1.199	correct	repeat	Run2	repeat/STIM_001.jpg
1503.913	1.199	correct	repeat	Run2	repeat/STIM_001.jpg
1508.369	1.156	correct	repeat	Run2	repeat/STIM_001.jpg
1512.39	1.011	correct	repeat	Run2	repeat/STIM_002.jpg
1515.598	0.975	correct	repeat	Run2	repeat/STIM_002.jpg
1520.236	0.894	correct	repeat	Run2	repeat/STIM_002.jpg
1524.378	0.722	correct	repeat	Run2	repeat/STIM_002.jpg
1528.155	0.616	correct	repeat	Run2	repeat/STIM_002.jpg
1531.41	0.872	correct	repeat	Run2	repeat/STIM_003.jpg
1535.872	0.85	correct	repeat	Run2	repeat/STIM_003.jpg
1539.199	1.205	correct	repeat	Run2	repeat/STIM_003.jpg
1543.809	1.042	correct	repeat	Run2	repeat/STIM_003.jpg
1547.066	1.009	correct	repeat	Run2	repeat/STIM_003.jpg
1550.707	1.148	correct	repeat	Run2	repeat/STIM_004.jpg
1554.36	0.752	correct	repeat	Run2	repeat/STIM_004.jpg
1557.878	0.916	correct	repeat	Run2	repeat/STIM_004.jpg
1560.909	1.041	correct	repeat	Run2	repeat/STIM_004.jpg
1564.868	0.684	correct	repeat	Run2	repeat/STIM_004.jpg
1568.256	0.637	correct	repeat	Run2	repeat/STIM_005.jpg
1572.835	0.986	correct	repeat	Run2	repeat/STIM_005.jpg
1576.121	0.973	correct	repeat	Run2	repeat/STIM_005.jpg
1580.996	1.082	correct	repeat	Run2	repeat/STIM_005.jpg
1585.243	0.793	correct	repeat	Run2	repeat/STIM_005.jpg
1588.128	0.661	correct	repeat	Run2	repeat/STIM_006.jpg
1591.487	1.162	correct	repeat	Run2	repeat/STIM_006.jpg
1596.186	1.14	correct	repeat	Run2	repeat/STIM_006.jpg
1600.78	0.931	correct	repeat	Run2	repeat/STIM_006.jpg
1604.858	0.575	correct	repeat	Run2	repeat/STIM_006.jpg
1609.363	1.034	correct	repeat	Run2	repeat/STIM_007.jpg
1613.977	0.891	correct	repeat	Run2	repeat/STIM_007.jpg
1616.935	0.758	correct	repeat	Run2	repeat/STIM_007.jpg
1620.486	0.642	correct	repeat	Run2	repeat/STIM_007.jpg
1624.836	0.907	correct	repeat	Run2	repeat/STIM_007.jpg
1627.685	0.828	correct	repeat	Run2	repeat/STIM_008.jpg
1631.055	1.048	incorrect	repeat	Run2	repeat/STIM_008.jpg
1635.754	1.104	correct	repeat	Run2	repeat/STIM_008.jpg
1639.401	0.523	correct	repeat	Run2	repeat/STIM_008.jpg
1643.454	0.961	correct	repeat	Run2	repeat/STIM_008.jpg
1648.189	0.815	correct	repeat	Run2	repeat/STIM_009.jpg
1652.337	0.912	correct	repeat	Run2	repeat/STIM_009.jpg
1655.532	0.741	correct	repeat	Run2	repeat/STIM_009.jpg
1660.141	0.756	correct	repeat	Run2	repeat/STIM_009.jpg
1663.84	1.158	correct	repeat	Run2	repeat/STIM_009.jpg
1668.622	0.961	correct	repeat	Run2	repeat/STIM_010.jpg
1672.827	0.931	correct	repeat	Run2	repeat/STIM_010.jpg
1677.059	0.88	correct	repeat	Run2	repeat/STIM_010.jpg
1679.9	0.928	correct	repeat	Run2	repeat/STIM_010.jpg
1683.928	1.028	correct	repeat	Run2	repeat/STIM_010.jpg
1688.047	1.021	correct	repeat	Run2	repeat/STIM_011.jpg
1692.616	0.651	correct	repeat	Run2	repeat/STIM_011.jpg
1696.096	0.821	correct	repeat	Run2	repeat/STIM_011.jpg
1699.79	0.882	correct	repeat	Run2	repeat/STIM_011.jpg
1702.63	0.877	correct	repeat	Run2	repeat/STIM_011.jpg
1706.916	1.063	correct	repeat	Run2	repeat/STIM_012.jpg
1710.848	0.743	incorrect	repeat	Run2	repeat/STIM_012.jpg
1715.356	0.747	correct	repeat	Run2	repeat/STIM_012.jpg
1719.601	0.651	correct	repeat	Run2	repeat/STIM_012.jpg
1723.664	1.167	correct	repeat	Run2	repeat/STIM_012.jpg
1726.7	0.602	correct	repeat	Run2	repeat/STIM_013.jpg
1730.47	1.026	correct	repeat	Run2	repeat/STIM_013.jpg
1735.055	1.092	correct	repeat	Run2	repeat/STIM_013.jpg
1739.014	0.833	correct	repeat	Run2	repeat/STIM_013.jpg
1742.058	0.754	correct	repeat	Run2	repeat/STIM_013.jpg
1745.157	1.105	correct	repeat	Run2	repeat/STIM_014.jpg
1749.277	0.974	correct	repeat	Run2	repeat/STIM_014.jpg
1753.832	1.042	correct	repeat	Run2	repeat/STIM_014.jpg
1758.177	1.198	correct	repeat	Run2	repeat/STIM_014.jpg
1761.98	0.853	incorrect	repeat	Run2	repeat/STIM_014.jpg
1764.799	1.18	correct	generate	Run3	generate/STIM_000.jpg
1769.639	2.396	correct	generate	Run3	generate/STIM_000.jpg
1774.587	1.108	incorrect	generate	Run3	generate/STIM_000.jpg
1779.178	0.927	correct	generate	Run3	generate/STIM_000.jpg
1783.796	2.402	correct	generate	Run3	generate/STIM_000.jpg
1789.12	2.002	correct	generate	Run3	generate/STIM_001.jpg
1794.052	1.56	correct	generate	Run3	generate/STIM_001.jpg
1797.999	1.067	correct	generate	Run3	generate/STIM_001.jpg
1801.374	2.057	correct	generate	Run3	generate/STIM_001.jpg
1806.687	2.269	correct	generate	Run3	generate/STIM_001.jpg
1811.035	2.339	correct	generate	Run3	generate/STIM_002.jpg
1816.145	1.873	correct	generate	Run3	generate/STIM_002.jpg
1821.326	2.196	correct	generate	Run3	generate/STIM_002.jpg
1825.692	1.404	correct	generate	Run3	generate/STIM_002.jpg
1829.821	2.063	correct	generate	Run3	generate/STIM_002.jpg
1834.296	1.759	correct	generate	Run3	generate/STIM_003.jpg
1838.406	1.043	correct	generate	Run3	generate/STIM_003.jpg
1842.131	1.969	correct	generate	Run3	generate/STIM_003.jpg
1847.183	2.074	correct	generate	Run3	generate/STIM_003.jpg
1851.195	1.186	correct	generate	Run3	generate/STIM_003.jpg
1855.487	2.132	correct	generate	Run3	generate/STIM_004.jpg
1861.024	1.906	correct	generate	Run3	generate/STIM_004.jpg
1865.002	1.029	correct	generate	Run3	generate/STIM_004.jpg
1868.482	1.947	correct	generate	Run3	generate/STIM_004.jpg
1873.683	1.935	correct	generate	Run3	generate/STIM_004.jpg
1879.081	1.868	incorrect	generate	Run3	generate/STIM_005.jpg
1883.019	1.566	correct	generate	Run3	generate/STIM_005.jpg
1887.27	1.107	correct	generate	Run3	generate/STIM_005.jpg
1891.843	1.604	correct	generate	Run3	generate/STIM_005.jpg
1895.931	1.104	correct	generate	Run3	generate/STIM_005.jpg
1900.205	1.393	correct	generate	Run3	generate/STIM_006.jpg
1904.226	1.432	incorrect	generate	Run3	generate/STIM_006.jpg
1908.531	0.991	correct	generate	Run3	generate/STIM_006.jpg
1913.185	1.739	incorrect	generate	Run3	generate/STIM_006.jpg
1917.119	2.02	correct	generate	Run3	generate/STIM_006.jpg
1922.476	1.837	correct	generate	Run3	generate/STIM_007.jpg
1926.539	1.918	correct	generate	Run3	generate/STIM_007.jpg
1931.418	2.211	correct	generate	Run3	generate/STIM_007.jpg
1936.182	1.829	correct	generate	Run3	generate/STIM_007.jpg
1941.261	1.915	correct	generate	Run3	generate/STIM_007.jpg
1946.07	1.69	correct	generate	Run3	generate/STIM_008.jpg
1949.992	1.511	correct	generate	Run3	generate/STIM_008.jpg
1954.331	1.989	incorrect	generate	Run3	generate/STIM_008.jpg
1958.353	1.219	correct	generate	Run3	generate/STIM_008.jpg
1961.615	2.024	correct	generate	Run3	generate/STIM_008.jpg
1966.984	1.386	correct	generate	Run3	generate/STIM_009.jpg
1971.526	1.563	incorrect	generate	Run3	generate/STIM_009.jpg
1975.109	2.265	correct	generate	Run3	generate/STIM_009.jpg
1979.91	1.95	correct	generate	Run3	generate/STIM_009.jpg
1984.369	2.159	correct	generate	Run3	generate/STIM_009.jpg
1989.907	2.03	correct	generate	Run3	generate/STIM_010.jpg
1995.259	1.575	correct	generate	Run3	generate/STIM_010.jpg
2000.197	1.275	correct	generate	Run3	generate/STIM_010.jpg
2003.626	1.054	correct	generate	Run3	generate/STIM_010.jpg
2007.247	0.979	correct	generate	Run3	generate/STIM_010.jpg
2010.252	1.512	correct	generate	Run3	generate/STIM_011.jpg
2014.65	1.69	correct	generate	Run3	generate/STIM_011.jpg
2018.924	1.238	correct	generate	Run3	generate/STIM_011.jpg
2023.978	1.819	correct	generate	Run3	generate/STIM_011.jpg
2028.098	1.34	correct	generate	Run3	generate/STIM_011.jpg
2032.957	1.06	correct	generate	Run3	generate/STIM_012.jpg
2036.902	2.112	correct	generate	Run3	generate/STIM_012.jpg
2041.374	2.035	incorrect	generate	Run3	generate/STIM_012.jpg
2045.731	1.512	correct	generate	Run3	generate/STIM_012.jpg
2049.111	2.081	correct	generate	Run3	generate/STIM_012.jpg
2054.108	1.56	correct	generate	Run3	generate/STIM_013.jpg
2057.546	1.286	incorrect	generate	Run3	generate/STIM_013.jpg
2061.193	1.652	correct	generate	Run3	generate/STIM_013.jpg
2066.302	0.926	correct	generate	Run3	generate/STIM_013.jpg
2069.172	1.595	correct	generate	Run3	generate/STIM_013.jpg
2072.67	1.539	correct	generate	Run3	generate/STIM_014.jpg
2077.29	2.147	correct	generate	Run3	generate/STIM_014.jpg
2083.16	1.631	correct	generate	Run3	generate/STIM_014.jpg
2088.577	2.039	correct	generate	Run3	generate/STIM_014.jpg
2093.263	1.723	correct	generate	Run3	generate/STIM_014.jpg
2098.801	1.745	correct	generate	Run3	generate/STIM_015.jpg
2103.003	1.406	correct	generate	Run3	generate/STIM_015.jpg
2108.116	1.352	correct	generate	Run3	generate/STIM_015.jpg
2111.599	1.753	correct	generate	Run3	generate/STIM_015.jpg
2115.255	1.031	correct	generate	Run3	generate/STIM_015.jpg
2120.091	2.018	correct	generate	Run3	generate/STIM_016.jpg
2125.131	2.075	correct	generate	Run3	generate/STIM_016.jpg
2130.762	2.348	correct	generate	Run3	generate/STIM_016.jpg
2134.854	1.8	correct	generate	Run3	generate/STIM_016.jpg
2139.189	1.253	correct	generate	Run3	generate/STIM_016.jpg
2142.564	1.497	correct	generate	Run3	generate/STIM_017.jpg
2146.934	1.52	correct	generate	Run3	generate/STIM_017.jpg
2151.778	2.079	correct	generate	Run3	generate/STIM_017.jpg
2156.466	1.263	correct	generate	Run3	generate/STIM_017.jpg
2159.65	1.116	correct	generate	Run3	generate/STIM_017.jpg
2162.812	1.031	correct	generate	Run3	generate/STIM_018.jpg
2167.01	1.845	correct	generate	Run3	generate/STIM_018.jpg
2171.161	1.18	correct	generate	Run3	generate/STIM_018.jpg
2175.775	1.505	incorrect	generate	Run3	generate/STIM_018.jpg
2179.698	1.173	correct	generate	Run3	generate/STIM_018.jpg
2182.992	1.186	correct	generate	Run3	generate/STIM_019.jpg
2187.837	2.114	incorrect	generate	Run3	generate/STIM_019.jpg
2192.798	1.199	correct	generate	Run3	generate/STIM_019.jpg
2196.849	2.19	correct	generate	Run3	generate/STIM_019.jpg
2201.758	1.93	correct	generate	Run3	generate/STIM_019.jpg
2206.177	2.204	correct	generate	Run3	generate/STIM_020.jpg
2211.59	1.058	correct	generate	Run3	generate/STIM_020.jpg
2215.247	1.316	correct	generate	Run3	generate/STIM_020.jpg
2219.894	1.641	correct	generate	Run3	generate/STIM_020.jpg
2223.501	1.551	correct	generate	Run3	generate/STIM_020.jpg
2226.862	1.969	correct	generate	Run3	generate/STIM_021.jpg
2231.357	2.376	correct	generate	Run3	generate/STIM_021.jpg
2237.146	1.526	correct	generate	Run3	generate/STIM_021.jpg
2242.323	1.5	correct	generate	Run3	generate/STIM_021.jpg
2245.701	1.648	correct	generate	Run3	generate/STIM_021.jpg
2250.703	2.024	correct	generate	Run3	generate/STIM_022.jpg
2254.725	1.945	correct	generate	Run3	generate/STIM_022.jpg
2260.236	1.997	correct	generate	Run3	generate/STIM_022.jpg
2265.289	2.097	correct	generate	Run3	generate/STIM_022.jpg
2270.373	1.439	correct	generate	Run3	generate/STIM_022.jpg
2274.624	1.373	correct	generate	Run3	generate/STIM_023.jpg
2278.917	0.94	correct	generate	Run3	generate/STIM_023.jpg
2282.115	1.546	incorrect	generate	Run3	generate/STIM_023.jpg
2285.998	2.0	correct	generate	Run3	generate/STIM_023.jpg
2290.765	2.185	correct	generate	Run3	generate/STIM_023.jpg
2295.247	2.252	correct	generate	Run3	generate/STIM_024.jpg
2299.272	2.244	correct	generate	Run3	generate/STIM_024.jpg
2304.57	2.161	correct	generate	Run3	generate/STIM_024.jpg
2309.141	2.381	correct	generate	Run3	generate/STIM_024.jpg
2313.948	1.133	correct	generate	Run3	generate/STIM_024.jpg
2317.932	0.578	correct	repeat	Run3	repeat/STIM_000.jpg
2322.31	0.731	correct	repeat	Run3	repeat/STIM_000.jpg
2325.493	0.932	correct	repeat	Run3	repeat/STIM_000.jpg
2330.037	0.935	correct	repeat	Run3	repeat/STIM_000.jpg
2333.942	0.728	correct	repeat	Run3	repeat/STIM_000.jpg
2336.863	0.88	correct	repeat	Run3	repeat/STIM_001.jpg
2341.494	0.508	correct	repeat	Run3	repeat/STIM_001.jpg
2345.943	0.767	correct	repeat	Run3	repeat/STIM_001.jpg
2350.524	0.965	correct	repeat	Run3	repeat/STIM_001.jpg
2354.547	0.629	correct	repeat	Run3	repeat/STIM_001.jpg
2357.887	0.922	correct	repeat	Run3	repeat/STIM_002.jpg
2361.106	0.878	correct	repeat	Run3	repeat/STIM_002.jpg
2365.106	0.967	correct	repeat	Run3	repeat/STIM_002.jpg
2369.813	0.942	correct	repeat	Run3	repeat/STIM_002.jpg
2373.529	0.723	correct	repeat	Run3	repeat/STIM_002.jpg
2376.312	0.618	correct	repeat	Run3	repeat/STIM_003.jpg
2379.947	0.941	correct	repeat	Run3	repeat/STIM_003.jpg
2383.026	0.957	correct	repeat	Run3	repeat/STIM_003.jpg
2386.629	1.137	correct	repeat	Run3	repeat/STIM_003.jpg
2389.896	1.048	correct	repeat	Run3	repeat/STIM_003.jpg
2394.336	1.032	correct	repeat	Run3	repeat/STIM_004.jpg
2398.739	0.973	correct	repeat	Run3	repeat/STIM_004.jpg
2402.435	1.0	correct	repeat	Run3	repeat/STIM_004.jpg
2406.581	1.102	correct	repeat	Run3	repeat/STIM_004.jpg
2410.744	0.514	correct	repeat	Run3	repeat/STIM_004.jpg
2414.019	0.883	correct	repeat	Run3	repeat/STIM_005.jpg
2417.869	0.805	correct	repeat	Run3	repeat/STIM_005.jpg
2420.64	0.873	correct	repeat	Run3	repeat/STIM_005.jpg
2425.319	0.59	correct	repeat	Run3	repeat/STIM_005.jpg
2428.508	1.146	correct	repeat	Run3	repeat/STIM_005.jpg
2431.522	0.525	correct	repeat	Run3	repeat/STIM_006.jpg
2434.159	0.777	correct	repeat	Run3	repeat/STIM_006.jpg
2437.7	0.646	correct	repeat	Run3	repeat/STIM_006.jpg
2441.351	0.699	correct	repeat	Run3	repeat/STIM_006.jpg
2444.859	0.686	correct	repeat	Run3	repeat/STIM_006.jpg
2449.122	0.734	correct	repeat	Run3	repeat/STIM_007.jpg
2453.712	0.835	correct	repeat	Run3	repeat/STIM_007.jpg
2456.684	0.664	correct	repeat	Run3	repeat/STIM_007.jpg
2461.237	0.721	correct	repeat	Run3	repeat/STIM_007.jpg
2464.236	0.857	correct	repeat	Run3	repeat/STIM_007.jpg
2468.471	1.019	correct	repeat	Run3	repeat/STIM_008.jpg
2473.179	0.776	correct	repeat	Run3	repeat/STIM_008.jpg
2477.22	0.585	incorrect	repeat	Run3	repeat/STIM_008.jpg
2481.717	0.784	correct	repeat	Run3	repeat/STIM_008.jpg
2485.115	0.899	correct	repeat	Run3	repeat/STIM_008.jpg
2488.14	1.133	correct	repeat	Run3	repeat/STIM_009.jpg
2493.066	0.996	correct	repeat	Run3	repeat/STIM_009.jpg
2496.236	0.93	correct	repeat	Run3	repeat/STIM_009.jpg
2500.185	1.146	correct	repeat	Run3	repeat/STIM_009.jpg
2504.717	0.63	correct	repeat	Run3	repeat/STIM_009.jpg
2508.716	0.871	correct	repeat	Run3	repeat/STIM_010.jpg
2512.032	1.109	correct	repeat	Run3	repeat/STIM_010.jpg
2516.131	0.594	correct	repeat	Run3	repeat/STIM_010.jpg
2519.655	1.142	correct	repeat	Run3	repeat/STIM_010.jpg
2523.317	0.87	correct	repeat	Run3	repeat/STIM_010.jpg
2526.677	1.122	correct	repeat	Run3	repeat/STIM_011.jpg
2530.956	0.875	correct	repeat	Run3	repeat/STIM_011.jpg
2534.136	0.954	correct	repeat	Run3	repeat/STIM_011.jpg
2537.096	0.92	correct	repeat	Run3	repeat/STIM_011.jpg
2541.736	0.834	correct	repeat	Run3	repeat/STIM_011.jpg
2546.261	0.976	correct	repeat	Run3	repeat/STIM_012.jpg
2549.659	0.996	correct	repeat	Run3	repeat/STIM_012.jpg
2553.089	0.752	correct	repeat	Run3	repeat/STIM_012.jpg
2556.472	1.003	correct	repeat	Run3	repeat/STIM_012.jpg
2560.7	0.736	correct	repeat	Run3	repeat/STIM_012.jpg
2564.65	0.955	correct	repeat	Run3	repeat/STIM_013.jpg
2567.788	1.056	correct	repeat	Run3	repeat/STIM_013.jpg
2572.479	0.838	correct	repeat	Run3	repeat/STIM_013.jpg
2575.998	0.932	correct	repeat	Run3	repeat/STIM_013.jpg
2579.121	0.986	correct	repeat	Run3	repeat/STIM_013.jpg
2583.289	0.543	correct	repeat	Run3	repeat/STIM_014.jpg
2587.106	0.735	correct	repeat	Run3	repeat/STIM_014.jpg
2590.947	0.859	correct	repeat	Run3	repeat/STIM_014.jpg
2594.429	0.756	correct	repeat	Run3	repeat/STIM_014.jpg
2597.235	1.09	correct	repeat	Run3	repeat/STIM_014.jpg
2600.939	2.004	correct	generate	Run4	generate/STIM_000.jpg
2605.283	1.88	correct	generate	Run4	generate/STIM_000.jpg
2610.733	2.329	correct	generate	Run4	generate/STIM_000.jpg
2615.777	1.497	incorrect	generate	Run4	generate/STIM_000.jpg
2619.966	1.903	correct	generate	Run4	generate/STIM_000.jpg
2624.856	1.038	incorrect	generate	Run4	generate/STIM_001.jpg
2628.458	2.25	correct	generate	Run4	generate/STIM_001.jpg
2633.355	1.667	correct	generate	Run4	generate/STIM_001.jpg
2638.152	2.114	correct	generate	Run4	generate/STIM_001.jpg
2643.354	1.704	correct	generate	Run4	generate/STIM_001.jpg
2647.382	1.361	correct	generate	Run4	generate/STIM_002.jpg
2651.68	1.963	correct	generate	Run4	generate/STIM_002.jpg
2657.239	1.616	correct	generate	Run4	generate/STIM_002.jpg
2661.811	1.495	correct	generate	Run4	generate/STIM_002.jpg
2666.715	1.593	correct	generate	Run4	generate/STIM_002.jpg
2672.067	1.66	correct	generate	Run4	generate/STIM_003.jpg
2675.988	1.088	correct	generate	Run4	generate/STIM_003.jpg
2679.05	1.463	correct	generate	Run4	generate/STIM_003.jpg
2684.229	2.15	correct	generate	Run4	generate/STIM_003.jpg
2688.32	1.55	correct	generate	Run4	generate/STIM_003.jpg
2692.973	1.582	incorrect	generate	Run4	generate/STIM_004.jpg
2697.802	1.541	correct	generate	Run4	generate/STIM_004.jpg
2703.135	2.445	correct	generate	Run4	generate/STIM_004.jpg
2707.382	2.131	correct	generate	Run4	generate/STIM_004.jpg
2712.735	1.349	correct	generate	Run4	generate/STIM_004.jpg
2717.596	1.284	incorrect	generate	Run4	generate/STIM_005.jpg
2722.174	1.555	correct	generate	Run4	generate/STIM_005.jpg
2727.387	1.106	correct	generate	Run4	generate/STIM_005.jpg
2732.121	1.705	correct	generate	Run4	generate/STIM_005.jpg
2736.201	1.165	correct	generate	Run4	generate/STIM_005.jpg
2740.457	1.69	correct	generate	Run4	generate/STIM_006.jpg
2744.682	1.838	correct	generate	Run4	generate/STIM_006.jpg
2748.58	1.993	correct	generate	Run4	generate/STIM_006.jpg
2753.781	1.549	correct	generate	Run4	generate/STIM_006.jpg
2758.212	2.266	correct	generate	Run4	generate/STIM_006.jpg
2763.316	2.168	correct	generate	Run4	generate/STIM_007.jpg
2768.149	1.868	incorrect	generate	Run4	generate/STIM_007.jpg
2773.393	1.932	correct	generate	Run4	generate/STIM_007.jpg
2778.612	1.633	correct	generate	Run4	generate/STIM_007.jpg
2783.364	1.718	correct	generate	Run4	generate/STIM_007.jpg
2788.157	2.011	correct	generate	Run4	generate/STIM_008.jpg
2792.436	2.102	correct	generate	Run4	generate/STIM_008.jpg
2798.025	1.715	correct	generate	Run4	generate/STIM_008.jpg
2803.069	2.266	correct	generate	Run4	generate/STIM_008.jpg
2808.059	2.43	correct	generate	Run4	generate/STIM_008.jpg
2813.575	2.232	correct	generate	Run4	generate/STIM_009.jpg
2818.116	1.164	correct	generate	Run4	generate/STIM_009.jpg
2822.678	1.091	correct	generate	Run4	generate/STIM_009.jpg
2827.406	2.081	correct	generate	Run4	generate/STIM_009.jpg
2832.806	2.054	correct	generate	Run4	generate/STIM_009.jpg
2837.672	1.347	correct	generate	Run4	generate/STIM_010.jpg
2842.334	1.333	correct	generate	Run4	generate/STIM_010.jpg
2846.962	2.255	correct	generate	Run4	generate/STIM_010.jpg
2852.339	1.199	correct	generate	Run4	generate/STIM_010.jpg
2857.166	2.048	correct	generate	Run4	generate/STIM_010.jpg
2861.955	1.21	correct	generate	Run4	generate/STIM_011.jpg
2865.788	2.236	correct	generate	Run4	generate/STIM_011.jpg
2871.101	2.361	correct	generate	Run4	generate/STIM_011.jpg
2875.432	1.356	correct	generate	Run4	generate/STIM_011.jpg
2878.708	1.156	correct	generate	Run4	generate/STIM_011.jpg
2883.031	1.511	correct	generate	Run4	generate/STIM_012.jpg
2887.786	1.525	correct	generate	Run4	generate/STIM_012.jpg
2891.844	1.304	correct	generate	Run4	generate/STIM_012.jpg
2895.749	1.901	correct	generate	Run4	generate/STIM_012.jpg
2899.539	1.46	correct	generate	Run4	generate/STIM_012.jpg
2904.742	1.898	correct	generate	Run4	generate/STIM_013.jpg
2909.91	1.724	correct	generate	Run4	generate/STIM_013.jpg
2914.83	1.96	correct	generate	Run4	generate/STIM_013.jpg
2919.021	1.635	correct	generate	Run4	generate/STIM_013.jpg
2923.884	1.527	incorrect	generate	Run4	generate/STIM_013.jpg
2927.584	1.246	correct	generate	Run4	generate/STIM_014.jpg
2931.498	1.128	correct	generate	Run4	generate/STIM_014.jpg
2936.256	1.222	correct	generate	Run4	generate/STIM_014.jpg
2940.022	1.954	correct	generate	Run4	generate/STIM_014.jpg
2945.283	1.541	correct	generate	Run4	generate/STIM_014.jpg
2948.949	2.307	correct	generate	Run4	generate/STIM_015.jpg
2953.434	1.803	correct	generate	Run4	generate/STIM_015.jpg
2957.494	2.068	correct	generate	Run4	generate/STIM_015.jpg
2961.26	1.358	correct	generate	Run4	generate/STIM_015.jpg
2966.287	1.01	correct	generate	Run4	generate/STIM_015.jpg
2970.423	2.154	correct	generate	Run4	generate/STIM_016.jpg
2975.859	1.524	correct	generate	Run4	generate/STIM_016.jpg
2979.509	1.745	correct	generate	Run4	generate/STIM_016.jpg
2983.653	1.123	correct	generate	Run4	generate/STIM_016.jpg
2987.982	1.788	correct	generate	Run4	generate/STIM_016.jpg
2992.057	1.124	correct	generate	Run4	generate/STIM_017.jpg
2996.024	1.371	correct	generate	Run4	generate/STIM_017.jpg
2999.686	0.955	correct	generate	Run4	generate/STIM_017.jpg
3004.01	1.496	correct	generate	Run4	generate/STIM_017.jpg
3007.551	2.211	correct	generate	Run4	generate/STIM_017.jpg
3011.659	1.263	incorrect	generate	Run4	generate/STIM_018.jpg
3016.643	1.545	correct	generate	Run4	generate/STIM_018.jpg
3020.275	2.282	correct	generate	Run4	generate/STIM_018.jpg
3026.154	1.645	correct	generate	Run4	generate/STIM_018.jpg
3029.908	1.478	correct	generate	Run4	generate/STIM_018.jpg
3033.882	1.058	incorrect	generate	Run4	generate/STIM_019.jpg
3037.312	1.946	correct	generate	Run4	generate/STIM_019.jpg
3040.966	1.074	correct	generate	Run4	generate/STIM_019.jpg
3044.329	1.925	correct	generate	Run4	generate/STIM_019.jpg
3049.935	1.33	correct	generate	Run4	generate/STIM_019.jpg
3054.985	1.69	correct	generate	Run4	generate/STIM_020.jpg
3059.4	1.756	correct	generate	Run4	generate/STIM_020.jpg
3063.94	1.324	correct	generate	Run4	generate/STIM_020.jpg
3068.551	2.4	correct	generate	Run4	generate/STIM_020.jpg
3073.802	1.894	correct	generate	Run4	generate/STIM_020.jpg
3077.528	1.746	correct	generate	Run4	generate/STIM_021.jpg
3082.344	1.424	correct	generate	Run4	generate/STIM_021.jpg
3087.396	1.43	correct	generate	Run4	generate/STIM_021.jpg
3090.833	2.257	correct	generate	Run4	generate/STIM_021.jpg
3095.408	1.295	correct	generate	Run4	generate/STIM_021.jpg
3099.312	2.169	incorrect	generate	Run4	generate/STIM_022.jpg
3105.082	2.393	correct	generate	Run4	generate/STIM_022.jpg
3110.065	1.029	correct	generate	Run4	generate/STIM_022.jpg
3114.215	2.157	correct	generate	Run4	generate/STIM_022.jpg
3118.219	2.27	correct	generate	Run4	generate/STIM_022.jpg
3122.905	2.062	correct	generate	Run4	generate/STIM_023.jpg
3126.924	1.748	correct	generate	Run4	generate/STIM_023.jpg
3130.882	1.818	correct	generate	Run4	generate/STIM_023.jpg
3135.901	0.976	correct	generate	Run4	generate/STIM_023.jpg
3140.587	1.558	correct	generate	Run4	generate/STIM_023.jpg
3144.129	2.275	correct	generate	Run4	generate/STIM_024.jpg
3149.783	1.231	correct	generate	Run4	generate/STIM_024.jpg
3154.192	2.297	correct	generate	Run4	generate/STIM_024.jpg
3159.372	1.676	correct	generate	Run4	generate/STIM_024.jpg
3164.081	2.232	correct	generate	Run4	generate/STIM_024.jpg
3168.546	1.048	correct	repeat	Run4	repeat/STIM_000.jpg
3173.124	1.047	incorrect	repeat	Run4	repeat/STIM_000.jpg
3177.341	0.989	correct	repeat	Run4	repeat/STIM_000.jpg
3180.758	0.789	correct	repeat	Run4	repeat/STIM_000.jpg
3184.934	1.072	correct	repeat	Run4	repeat/STIM_000.jpg
3189.213	0.749	correct	repeat	Run4	repeat/STIM_001.jpg
3193.782	0.763	correct	repeat	Run4	repeat/STIM_001.jpg
3196.927	0.628	correct	repeat	Run4	repeat/STIM_001.jpg
3199.588	0.842	correct	repeat	Run4	repeat/STIM_001.jpg
3202.908	1.228	incorrect	repeat	Run4	repeat/STIM_001.jpg
3207.207	1.083	correct	repeat	Run4	repeat/STIM_002.jpg
3211.623	1.108	correct	repeat	Run4	repeat/STIM_002.jpg
3216.3	0.701	correct	repeat	Run4	repeat/STIM_002.jpg
3220.175	0.634	correct	repeat	Run4	repeat/STIM_002.jpg
3223.342	0.889	correct	repeat	Run4	repeat/STIM_002.jpg
3228.066	0.706	correct	repeat	Run4	repeat/STIM_003.jpg
3232.034	0.892	correct	repeat	Run4	repeat/STIM_003.jpg
3235.527	0.826	correct	repeat	Run4	repeat/STIM_003.jpg
3239.273	0.7	correct	repeat	Run4	repeat/STIM_003.jpg
3242.135	1.114	correct	repeat	Run4	repeat/STIM_003.jpg
3245.615	0.581	correct	repeat	Run4	repeat/STIM_004.jpg
3249.722	0.717	correct	repeat	Run4	repeat/STIM_004.jpg
3253.403	0.665	incorrect	repeat	Run4	repeat/STIM_004.jpg
3256.738	0.818	correct	repeat	Run4	repeat/STIM_004.jpg
3259.681	1.146	correct	repeat	Run4	repeat/STIM_004.jpg
3263.338	0.899	correct	repeat	Run4	repeat/STIM_005.jpg
3267.443	0.868	correct	repeat	Run4	repeat/STIM_005.jpg
3271.347	0.723	correct	repeat	Run4	repeat/STIM_005.jpg
3274.563	0.788	incorrect	repeat	Run4	repeat/STIM_005.jpg
3277.753	0.741	correct	repeat	Run4	repeat/STIM_005.jpg
3281.565	0.838	correct	repeat	Run4	repeat/STIM_006.jpg
3284.846	0.966	correct	repeat	Run4	repeat/STIM_006.jpg
3289.384	0.975	correct	repeat	Run4	repeat/STIM_006.jpg
3293.535	0.883	correct	repeat	Run4	repeat/STIM_006.jpg
3297.246	0.871	correct	repeat	Run4	repeat/STIM_006.jpg
3301.254	0.735	correct	repeat	Run4	repeat/STIM_007.jpg
3304.234	0.969	correct	repeat	Run4	repeat/STIM_007.jpg
3307.475	0.565	correct	repeat	Run4	repeat/STIM_007.jpg
3311.064	0.971	correct	repeat	Run4	repeat/STIM_007.jpg
3315.049	1.031	correct	repeat	Run4	repeat/STIM_007.jpg
3318.411	0.973	correct	repeat	Run4	repeat/STIM_008.jpg
3322.126	0.813	correct	repeat	Run4	repeat/STIM_008.jpg
3325.53	0.891	correct	repeat	Run4	repeat/STIM_008.jpg
3329.796	0.692	correct	repeat	Run4	repeat/STIM_008.jpg
3332.494	0.887	correct	repeat	Run4	repeat/STIM_008.jpg
3335.884	0.959	correct	repeat	Run4	repeat/STIM_009.jpg
3339.252	0.71	correct	repeat	Run4	repeat/STIM_009.jpg
3341.97	0.952	correct	repeat	Run4	repeat/STIM_009.jpg
3345.665	0.884	correct	repeat	Run4	repeat/STIM_009.jpg
3350.071	0.761	correct	repeat	Run4	repeat/STIM_009.jpg
3354.64	0.866	correct	repeat	Run4	repeat/STIM_010.jpg
3359.322	0.676	correct	repeat	Run4	repeat/STIM_010.jpg
3363.184	1.016	correct	repeat	Run4	repeat/STIM_010.jpg
3366.262	0.947	correct	repeat	Run4	repeat/STIM_010.jpg
3370.384	0.63	correct	repeat	Run4	repeat/STIM_010.jpg
3373.856	0.969	correct	repeat	Run4	repeat/STIM_011.jpg
3376.819	0.725	correct	repeat	Run4	repeat/STIM_011.jpg
3380.898	1.073	correct	repeat	Run4	repeat/STIM_011.jpg
3384.917	0.739	correct	repeat	Run4	repeat/STIM_011.jpg
3388.111	0.698	correct	repeat	Run4	repeat/STIM_011.jpg
3390.922	1.061	correct	repeat	Run4	repeat/STIM_012.jpg
3394.975	0.623	incorrect	repeat	Run4	repeat/STIM_012.jpg
3398.496	1.058	correct	repeat	Run4	repeat/STIM_012.jpg
3401.611	0.65	correct	repeat	Run4	repeat/STIM_012.jpg
3405.392	0.686	correct	repeat	Run4	repeat/STIM_012.jpg
3409.331	0.945	correct	repeat	Run4	repeat/STIM_013.jpg
3413.504	0.642	correct	repeat	Run4	repeat/STIM_013.jpg
3416.235	0.57	correct	repeat	Run4	repeat/STIM_013.jpg
3420.096	0.637	correct	repeat	Run4	repeat/STIM_013.jpg
3422.977	0.731	correct	repeat	Run4	repeat/STIM_013.jpg
3425.964	0.929	correct	repeat	Run4	repeat/STIM_014.jpg
3429.314	0.959	correct	repeat	Run4	repeat/STIM_014.jpg
3433.086	0.923	correct	repeat	Run4	repeat/STIM_014.jpg
3436.302	1.186	correct	repeat	Run4	repeat/STIM_014.jpg
3441.158	0.89	incorrect	repeat	Run4	repeat/STIM_014.jpg
