onset	duration	response_time_ms	trial_type	learning_stage	stimulus	response_port
0.0	2.388	2388.5	generate	Run1	generate/STIM_000.jpg	100
4.278	3.182	3182.4	generate	Run1	generate/STIM_000.jpg	99
9.887	2.98	2980.2	generate	Run1	generate/STIM_000.jpg	99
16.074	2.796	2795.7	generate	Run1	generate/STIM_000.jpg	100
21.368	1.102	1102.4	generate	Run1	generate/STIM_000.jpg	100
26.057	3.347	3347.4	generate	Run1	generate/STIM_001.jpg	100
31.282	2.86	2859.9	generate	Run1	generate/STIM_001.jpg	99
37.417	2.793	2792.7	generate	Run1	generate/STIM_001.jpg	99
43.559	2.208	2208.0	generate	Run1	generate/STIM_001.jpg	100
48.88	1.094	1093.9	generate	Run1	generate/STIM_001.jpg	100
53.027	1.521	1520.7	generate	Run1	generate/STIM_002.jpg	100
57.467	2.601	2600.9	generate	Run1	generate/STIM_002.jpg	99
63.016	2.606	2605.5	generate	Run1	generate/STIM_002.jpg	99
68.197	2.435	2435.0	generate	Run1	generate/STIM_002.jpg	99
73.625	1.662	1661.8	generate	Run1	generate/STIM_002.jpg	100
78.657	2.285	2285.4	generate	Run1	generate/STIM_003.jpg	100
83.408	1.879	1879.4	generate	Run1	generate/STIM_003.jpg	100
88.051	2.7	2699.6	generate	Run1	generate/STIM_003.jpg	100
93.73	2.039	2039.0	generate	Run1	generate/STIM_003.jpg	99
98.903	1.916	1915.7	generate	Run1	generate/STIM_003.jpg	100
104.277	1.735	1735.1	generate	Run1	generate/STIM_004.jpg	100
108.147	1.505	1505.4	generate	Run1	generate/STIM_004.jpg	99
113.069	1.564	1563.5	generate	Run1	generate/STIM_004.jpg	100
118.293	2.619	2619.4	generate	Run1	generate/STIM_004.jpg	100
123.28	2.085	2084.9	generate	Run1	generate/STIM_004.jpg	99
128.831	1.913	1912.8	generate	Run1	generate/STIM_005.jpg	100
133.45	1.632	1632.0	generate	Run1	generate/STIM_005.jpg	99
137.975	2.119	2118.7	generate	Run1	generate/STIM_005.jpg	100
142.505	2.397	2397.3	generate	Run1	generate/STIM_005.jpg	99
148.238	1.337	1337.3	generate	Run1	generate/STIM_005.jpg	100
151.794	1.431	1430.7	generate	Run1	generate/STIM_006.jpg	99
156.934	2.255	2255.1	generate	Run1	generate/STIM_006.jpg	100
162.615	2.028	2028.4	generate	Run1	generate/STIM_006.jpg	99
166.415	1.977	1977.3	generate	Run1	generate/STIM_006.jpg	99
171.244	1.545	1545.3	generate	Run1	generate/STIM_006.jpg	99
176.127	1.467	1467.2	generate	Run1	generate/STIM_007.jpg	99
180.494	1.629	1629.4	generate	Run1	generate/STIM_007.jpg	99
185.371	2.24	2239.7	generate	Run1	generate/STIM_007.jpg	99
189.885	1.946	1945.9	generate	Run1	generate/STIM_007.jpg	100
193.961	1.726	1726.1	generate	Run1	generate/STIM_007.jpg	99
198.744	1.9	1899.7	generate	Run1	generate/STIM_008.jpg	99
204.222	1.472	1472.5	generate	Run1	generate/STIM_008.jpg	99
208.25	1.767	1767.1	generate	Run1	generate/STIM_008.jpg	100
212.758	1.636	1635.8	generate	Run1	generate/STIM_008.jpg	100
218.072	2.027	2027.4	generate	Run1	generate/STIM_008.jpg	100
223.553	3.357	3357.2	generate	Run1	generate/STIM_009.jpg	99
229.139	1.948	1948.4	generate	Run1	generate/STIM_009.jpg	99
234.424	1.961	1960.9	generate	Run1	generate/STIM_009.jpg	100
239.574	2.841	2841.1	generate	Run1	generate/STIM_009.jpg	99
245.975	1.336	1335.8	generate	Run1	generate/STIM_009.jpg	99
250.401	2.076	2076.4	generate	Run1	generate/STIM_010.jpg	100
254.661	2.608	2607.7	generate	Run1	generate/STIM_010.jpg	99
258.996	2.584	2583.8	generate	Run1	generate/STIM_010.jpg	99
263.55	2.115	2115.1	generate	Run1	generate/STIM_010.jpg	99
268.029	1.734	1733.8	generate	Run1	generate/STIM_010.jpg	100
272.265	1.963	1963.1	generate	Run1	generate/STIM_011.jpg	99
277.291	1.54	1539.5	generate	Run1	generate/STIM_011.jpg	100
281.949	2.824	2823.9	generate	Run1	generate/STIM_011.jpg	100
286.549	2.923	2922.8	generate	Run1	generate/STIM_011.jpg	100
292.935	1.379	1378.8	generate	Run1	generate/STIM_011.jpg	99
297.725	3.162	3161.8	generate	Run1	generate/STIM_012.jpg	100
302.625	3.037	3037.2	generate	Run1	generate/STIM_012.jpg	100
307.59	1.549	1548.9	generate	Run1	generate/STIM_012.jpg	99
311.264	1.559	1558.8	generate	Run1	generate/STIM_012.jpg	100
316.457	2.395	2395.1	generate	Run1	generate/STIM_012.jpg	99
321.367	3.271	3271.2	generate	Run1	generate/STIM_013.jpg	99
326.327	2.268	2268.0	generate	Run1	generate/STIM_013.jpg	100
330.704	2.386	2385.7	generate	Run1	generate/STIM_013.jpg	100
335.303	1.884	1884.2	generate	Run1	generate/STIM_013.jpg	100
340.326	1.13	1129.8	generate	Run1	generate/STIM_013.jpg	100
344.837	3.446	3445.5	generate	Run1	generate/STIM_014.jpg	99
351.515	2.968	2968.4	generate	Run1	generate/STIM_014.jpg	100
357.032	1.593	1593.2	generate	Run1	generate/STIM_014.jpg	100
362.075	1.965	1964.7	generate	Run1	generate/STIM_014.jpg	99
366.112	1.148	1148.5	generate	Run1	generate/STIM_014.jpg	100
369.636	2.439	2438.8	generate	Run1	generate/STIM_015.jpg	99
375.587	2.582	2582.1	generate	Run1	generate/STIM_015.jpg	99
380.394	2.33	2330.1	generate	Run1	generate/STIM_015.jpg	100
386.161	2.192	2192.1	generate	Run1	generate/STIM_015.jpg	99
391.056	2.104	2103.5	generate	Run1	generate/STIM_015.jpg	100
395.43	2.096	2095.7	generate	Run1	generate/STIM_016.jpg	99
401.151	1.613	1613.0	generate	Run1	generate/STIM_016.jpg	100
404.778	2.143	2143.2	generate	Run1	generate/STIM_016.jpg	100
409.953	2.259	2258.8	generate	Run1	generate/STIM_016.jpg	100
414.29	1.529	1529.3	generate	Run1	generate/STIM_016.jpg	99
418.692	2.831	2831.4	generate	Run1	generate/STIM_017.jpg	99
424.824	2.319	2319.1	generate	Run1	generate/STIM_017.jpg	100
429.166	2.219	2219.0	generate	Run1	generate/STIM_017.jpg	100
433.91	2.726	2725.6	generate	Run1	generate/STIM_017.jpg	100
438.575	2.457	2457.4	generate	Run1	generate/STIM_017.jpg	100
443.202	2.615	2614.8	generate	Run1	generate/STIM_018.jpg	100
448.747	3.164	3164.5	generate	Run1	generate/STIM_018.jpg	99
455.447	1.821	1821.0	generate	Run1	generate/STIM_018.jpg	100
459.988	1.866	1866.3	generate	Run1	generate/STIM_018.jpg	99
463.829	2.285	2284.9	generate	Run1	generate/STIM_018.jpg	100
468.148	3.19	3189.5	generate	Run1	generate/STIM_019.jpg	99
473.511	2.012	2012.3	generate	Run1	generate/STIM_019.jpg	99
478.555	1.324	1323.6	generate	Run1	generate/STIM_019.jpg	99
483.185	1.687	1686.9	generate	Run1	generate/STIM_019.jpg	99
488.515	1.146	1146.4	generate	Run1	generate/STIM_019.jpg	100
491.954	2.463	2462.9	generate	Run1	generate/STIM_020.jpg	99
496.443	1.961	1960.6	generate	Run1	generate/STIM_020.jpg	99
500.755	1.613	1613.4	generate	Run1	generate/STIM_020.jpg	99
504.132	2.497	2496.7	generate	Run1	generate/STIM_020.jpg	100
508.556	2.524	2523.6	generate	Run1	generate/STIM_020.jpg	100
512.955	2.738	2738.3	generate	Run1	generate/STIM_021.jpg	100
517.936	2.984	2984.2	generate	Run1	generate/STIM_021.jpg	100
524.445	2.961	2960.8	generate	Run1	generate/STIM_021.jpg	99
529.204	2.595	2595.1	generate	Run1	generate/STIM_021.jpg	99
535.122	1.952	1951.9	generate	Run1	generate/STIM_021.jpg	99
539.857	2.072	2071.5	generate	Run1	generate/STIM_022.jpg	99
544.494	1.643	1642.8	generate	Run1	generate/STIM_022.jpg	100
549.065	2.648	2648.4	generate	Run1	generate/STIM_022.jpg	100
555.124	2.536	2536.4	generate	Run1	generate/STIM_022.jpg	99
560.344	2.042	2042.4	generate	Run1	generate/STIM_022.jpg	99
565.003	2.812	2812.3	generate	Run1	generate/STIM_023.jpg	99
569.754	2.871	2871.4	generate	Run1	generate/STIM_023.jpg	100
575.868	1.662	1661.9	generate	Run1	generate/STIM_023.jpg	100
579.686	1.532	1532.0	generate	Run1	generate/STIM_023.jpg	100
583.413	2.321	2320.7	generate	Run1	generate/STIM_023.jpg	100
588.398	1.665	1664.9	generate	Run1	generate/STIM_024.jpg	100
592.996	1.991	1991.2	generate	Run1	generate/STIM_024.jpg	99
597.046	2.212	2212.3	generate	Run1	generate/STIM_024.jpg	99
602.49	1.948	1947.6	generate	Run1	generate/STIM_024.jpg	99
607.864	1.817	1817.0	generate	Run1	generate/STIM_024.jpg	99
612.429	0.529	529.0	repeat	Run1	repeat/STIM_000.jpg	100
615.132	0.927	927.4	repeat	Run1	repeat/STIM_000.jpg	100
618.545	0.807	807.1	repeat	Run1	repeat/STIM_000.jpg	100
622.565	0.734	733.8	repeat	Run1	repeat/STIM_000.jpg	99
625.544	0.85	849.9	repeat	Run1	repeat/STIM_000.jpg	100
630.15	1.089	1089.2	repeat	Run1	repeat/STIM_001.jpg	100
634.291	0.681	681.4	repeat	Run1	repeat/STIM_001.jpg	100
637.754	0.884	883.7	repeat	Run1	repeat/STIM_001.jpg	100
641.743	0.727	727.4	repeat	Run1	repeat/STIM_001.jpg	99
645.664	0.849	849.4	repeat	Run1	repeat/STIM_001.jpg	99
649.204	0.928	927.7	repeat	Run1	repeat/STIM_002.jpg	99
652.54	0.678	677.6	repeat	Run1	repeat/STIM_002.jpg	99
656.17	1.015	1014.6	repeat	Run1	repeat/STIM_002.jpg	99
659.021	0.654	653.7	repeat	Run1	repeat/STIM_002.jpg	99
662.999	1.193	1193.0	repeat	Run1	repeat/STIM_002.jpg	100
666.061	0.626	626.1	repeat	Run1	repeat/STIM_003.jpg	100
669.735	1.147	1147.1	repeat	Run1	repeat/STIM_003.jpg	99
672.798	0.598	597.6	repeat	Run1	repeat/STIM_003.jpg	100
675.493	0.994	994.5	repeat	Run1	repeat/STIM_003.jpg	100
679.832	0.973	973.3	repeat	Run1	repeat/STIM_003.jpg	99
683.542	0.748	747.5	repeat	Run1	repeat/STIM_004.jpg	99
686.187	1.069	1069.0	repeat	Run1	repeat/STIM_004.jpg	99
690.61	0.639	639.3	repeat	Run1	repeat/STIM_004.jpg	100
693.471	0.78	780.4	repeat	Run1	repeat/STIM_004.jpg	100
697.84	0.761	760.8	repeat	Run1	repeat/STIM_004.jpg	100
700.787	1.002	1001.8	repeat	Run1	repeat/STIM_005.jpg	100
705.643	0.755	755.4	repeat	Run1	repeat/STIM_005.jpg	99
709.681	1.221	1220.6	repeat	Run1	repeat/STIM_005.jpg	99
714.41	1.044	1043.5	repeat	Run1	repeat/STIM_005.jpg	100
717.331	0.722	721.5	repeat	Run1	repeat/STIM_005.jpg	99
721.274	0.778	777.8	repeat	Run1	repeat/STIM_006.jpg	100
725.202	0.969	969.2	repeat	Run1	repeat/STIM_006.jpg	99
729.185	0.553	552.7	repeat	Run1	repeat/STIM_006.jpg	99
732.292	1.061	1061.3	repeat	Run1	repeat/STIM_006.jpg	99
735.557	0.835	834.7	repeat	Run1	repeat/STIM_006.jpg	100
738.286	0.798	798.1	repeat	Run1	repeat/STIM_007.jpg	99
741.881	0.665	664.8	repeat	Run1	repeat/STIM_007.jpg	100
745.835	0.87	870.0	repeat	Run1	repeat/STIM_007.jpg	100
750.306	0.999	998.7	repeat	Run1	repeat/STIM_007.jpg	99
753.229	0.564	563.8	repeat	Run1	repeat/STIM_007.jpg	100
755.776	0.641	641.4	repeat	Run1	repeat/STIM_008.jpg	100
759.164	1.043	1042.7	repeat	Run1	repeat/STIM_008.jpg	100
762.378	0.626	625.9	repeat	Run1	repeat/STIM_008.jpg	100
765.055	0.932	932.1	repeat	Run1	repeat/STIM_008.jpg	99
769.182	0.732	732.5	repeat	Run1	repeat/STIM_008.jpg	99
772.932	0.868	867.6	repeat	Run1	repeat/STIM_009.jpg	100
776.556	1.037	1037.2	repeat	Run1	repeat/STIM_009.jpg	99
780.293	0.93	929.5	repeat	Run1	repeat/STIM_009.jpg	99
784.119	0.913	913.4	repeat	Run1	repeat/STIM_009.jpg	100
786.949	1.13	1129.9	repeat	Run1	repeat/STIM_009.jpg	100
791.429	0.95	950.3	repeat	Run1	repeat/STIM_010.jpg	100
794.569	0.975	975.4	repeat	Run1	repeat/STIM_010.jpg	100
797.877	0.798	798.5	repeat	Run1	repeat/STIM_010.jpg	100
802.603	0.918	917.7	repeat	Run1	repeat/STIM_010.jpg	100
807.377	0.806	806.3	repeat	Run1	repeat/STIM_010.jpg	100
811.021	0.849	848.7	repeat	Run1	repeat/STIM_011.jpg	99
815.349	0.959	958.6	repeat	Run1	repeat/STIM_011.jpg	100
820.04	0.586	585.9	repeat	Run1	repeat/STIM_011.jpg	100
824.28	0.629	629.0	repeat	Run1	repeat/STIM_011.jpg	99
828.175	0.871	871.3	repeat	Run1	repeat/STIM_011.jpg	100
832.868	0.972	972.3	repeat	Run1	repeat/STIM_012.jpg	100
837.124	0.78	780.3	repeat	Run1	repeat/STIM_012.jpg	99
840.994	0.785	784.8	repeat	Run1	repeat/STIM_012.jpg	100
845.665	1.108	1108.0	repeat	Run1	repeat/STIM_012.jpg	99
850.423	0.618	617.7	repeat	Run1	repeat/STIM_012.jpg	100
854.183	1.125	1124.9	repeat	Run1	repeat/STIM_013.jpg	100
858.688	0.907	906.8	repeat	Run1	repeat/STIM_013.jpg	100
861.852	0.635	635.3	repeat	Run1	repeat/STIM_013.jpg	99
864.963	0.998	997.5	repeat	Run1	repeat/STIM_013.jpg	99
867.968	0.826	825.8	repeat	Run1	repeat/STIM_013.jpg	100
871.918	0.742	741.5	repeat	Run1	repeat/STIM_014.jpg	100
874.629	0.682	682.2	repeat	Run1	repeat/STIM_014.jpg	99
877.504	0.781	781.3	repeat	Run1	repeat/STIM_014.jpg	99
881.559	0.838	838.3	repeat	Run1	repeat/STIM_014.jpg	99
885.801	0.928	927.9	repeat	Run1	repeat/STIM_014.jpg	99
890.528	1.607	1607.3	generate	Run2	generate/STIM_000.jpg	99
894.472	2.2	2199.5	generate	Run2	generate/STIM_000.jpg	99
898.778	1.362	1362.1	generate	Run2	generate/STIM_000.jpg	100
903.088	1.577	1577.4	generate	Run2	generate/STIM_000.jpg	99
906.93	2.205	2205.0	generate	Run2	generate/STIM_000.jpg	99
912.136	2.706	2706.1	generate	Run2	generate/STIM_001.jpg	100
917.974	1.105	1104.7	generate	Run2	generate/STIM_001.jpg	100
921.001	1.986	1986.2	generate	Run2	generate/STIM_001.jpg	99
925.377	2.241	2240.7	generate	Run2	generate/STIM_001.jpg	99
930.511	1.133	1132.6	generate	Run2	generate/STIM_001.jpg	99
935.286	2.751	2751.3	generate	Run2	generate/STIM_002.jpg	100
941.005	1.354	1353.7	generate	Run2	generate/STIM_002.jpg	99
944.328	1.904	1904.3	generate	Run2	generate/STIM_002.jpg	100
949.927	2.445	2445.4	generate	Run2	generate/STIM_002.jpg	99
955.534	2.165	2165.0	generate	Run2	generate/STIM_002.jpg	100
960.126	2.569	2569.1	generate	Run2	generate/STIM_003.jpg	99
966.155	1.556	1555.8	generate	Run2	generate/STIM_003.jpg	99
971.504	1.189	1189.0	generate	Run2	generate/STIM_003.jpg	100
976.028	1.424	1424.5	generate	Run2	generate/STIM_003.jpg	99
980.796	1.022	1021.6	generate	Run2	generate/STIM_003.jpg	100
983.781	1.753	1752.7	generate	Run2	generate/STIM_004.jpg	100
988.942	1.471	1471.0	generate	Run2	generate/STIM_004.jpg	100
992.603	1.711	1711.0	generate	Run2	generate/STIM_004.jpg	99
997.665	1.489	1488.8	generate	Run2	generate/STIM_004.jpg	99
1001.777	1.815	1815.2	generate	Run2	generate/STIM_004.jpg	100
1007.14	2.407	2407.4	generate	Run2	generate/STIM_005.jpg	100
1012.804	1.801	1801.1	generate	Run2	generate/STIM_005.jpg	99
1017.455	2.145	2145.0	generate	Run2	generate/STIM_005.jpg	100
1023.117	2.094	2094.5	generate	Run2	generate/STIM_005.jpg	99
1027.067	0.998	998.0	generate	Run2	generate/STIM_005.jpg	100
1031.328	2.801	2800.6	generate	Run2	generate/STIM_006.jpg	99
1037.247	1.984	1984.3	generate	Run2	generate/STIM_006.jpg	99
1042.552	2.078	2077.5	generate	Run2	generate/STIM_006.jpg	99
1046.965	1.842	1842.1	generate	Run2	generate/STIM_006.jpg	100
1052.446	1.426	1426.3	generate	Run2	generate/STIM_006.jpg	99
1056.391	2.708	2708.4	generate	Run2	generate/STIM_007.jpg	100
1060.875	1.916	1915.8	generate	Run2	generate/STIM_007.jpg	100
1064.503	1.812	1811.9	generate	Run2	generate/STIM_007.jpg	99
1069.56	1.517	1516.9	generate	Run2	generate/STIM_007.jpg	99
1073.151	1.468	1468.5	generate	Run2	generate/STIM_007.jpg	100
1076.901	1.704	1703.8	generate	Run2	generate/STIM_008.jpg	100
1080.627	1.558	1557.9	generate	Run2	generate/STIM_008.jpg	100
1085.979	1.442	1441.5	generate	Run2	generate/STIM_008.jpg	100
1089.644	1.669	1669.2	generate	Run2	generate/STIM_008.jpg	100
1094.592	1.64	1640.5	generate	Run2	generate/STIM_008.jpg	99
1099.144	2.289	2289.3	generate	Run2	generate/STIM_009.jpg	100
1104.844	1.63	1629.9	generate	Run2	generate/STIM_009.jpg	100
1109.958	2.458	2458.5	generate	Run2	generate/STIM_009.jpg	99
1114.136	2.024	2023.8	generate	Run2	generate/STIM_009.jpg	99
1118.508	1.567	1567.4	generate	Run2	generate/STIM_009.jpg	100
1123.329	1.537	1536.8	generate	Run2	generate/STIM_010.jpg	100
1127.342	1.773	1773.4	generate	Run2	generate/STIM_010.jpg	99
1132.544	2.469	2469.2	generate	Run2	generate/STIM_010.jpg	100
1136.88	1.079	1079.0	generate	Run2	generate/STIM_010.jpg	99
1141.43	1.256	1256.5	generate	Run2	generate/STIM_010.jpg	99
1145.712	2.324	2324.1	generate	Run2	generate/STIM_011.jpg	100
1150.341	1.516	1516.5	generate	Run2	generate/STIM_011.jpg	100
1155.119	1.564	1564.1	generate	Run2	generate/STIM_011.jpg	99
1159.972	1.429	1429.4	generate	Run2	generate/STIM_011.jpg	100
1163.333	2.07	2070.2	generate	Run2	generate/STIM_011.jpg	99
1167.725	1.901	1900.8	generate	Run2	generate/STIM_012.jpg	100
1171.639	2.027	2027.5	generate	Run2	generate/STIM_012.jpg	100
1177.217	1.694	1693.7	generate	Run2	generate/STIM_012.jpg	99
1182.229	2.426	2426.4	generate	Run2	generate/STIM_012.jpg	99
1187.983	2.362	2362.3	generate	Run2	generate/STIM_012.jpg	99
1193.896	1.547	1547.4	generate	Run2	generate/STIM_013.jpg	100
1198.349	1.491	1491.2	generate	Run2	generate/STIM_013.jpg	99
1203.19	1.151	1151.3	generate	Run2	generate/STIM_013.jpg	100
1207.287	2.196	2196.1	generate	Run2	generate/STIM_013.jpg	99
1212.179	1.048	1048.2	generate	Run2	generate/STIM_013.jpg	100
1216.313	1.813	1812.6	generate	Run2	generate/STIM_014.jpg	99
1220.947	2.628	2627.5	generate	Run2	generate/STIM_014.jpg	100
1226.108	0.992	991.7	generate	Run2	generate/STIM_014.jpg	100
1230.092	1.492	1491.6	generate	Run2	generate/STIM_014.jpg	99
1234.674	1.12	1119.9	generate	Run2	generate/STIM_014.jpg	100
1238.106	2.267	2266.7	generate	Run2	generate/STIM_015.jpg	100
1243.499	2.462	2462.4	generate	Run2	generate/STIM_015.jpg	100
1248.332	2.134	2134.5	generate	Run2	generate/STIM_015.jpg	100
1253.285	1.402	1402.3	generate	Run2	generate/STIM_015.jpg	100
1258.239	1.698	1697.6	generate	Run2	generate/STIM_015.jpg	100
1261.921	1.623	1623.2	generate	Run2	generate/STIM_016.jpg	99
1266.698	2.512	2511.7	generate	Run2	generate/STIM_016.jpg	99
1271.905	1.792	1792.1	generate	Run2	generate/STIM_016.jpg	100
1277.161	1.242	1241.7	generate	Run2	generate/STIM_016.jpg	100
1281.025	1.149	1149.0	generate	Run2	generate/STIM_016.jpg	100
1285.42	2.49	2490.1	generate	Run2	generate/STIM_017.jpg	99
1290.155	1.185	1184.7	generate	Run2	generate/STIM_017.jpg	99
1294.988	1.54	1539.9	generate	Run2	generate/STIM_017.jpg	100
1300.353	0.996	996.3	generate	Run2	generate/STIM_017.jpg	99
1305.176	1.57	1570.2	generate	Run2	generate/STIM_017.jpg	100
1309.402	2.287	2286.9	generate	Run2	generate/STIM_018.jpg	100
1314.739	1.643	1642.6	generate	Run2	generate/STIM_018.jpg	99
1319.635	1.382	1381.5	generate	Run2	generate/STIM_018.jpg	100
1323.479	1.706	1705.6	generate	Run2	generate/STIM_018.jpg	99
1328.339	2.334	2333.7	generate	Run2	generate/STIM_018.jpg	100
1333.646	2.621	2620.6	generate	Run2	generate/STIM_019.jpg	100
1338.4	2.292	2292.3	generate	Run2	generate/STIM_019.jpg	99
1343.169	1.072	1071.5	generate	Run2	generate/STIM_019.jpg	99
1347.857	2.418	2417.6	generate	Run2	generate/STIM_019.jpg	100
1352.204	1.666	1666.4	generate	Run2	generate/STIM_019.jpg	100
1356.693	1.951	1951.1	generate	Run2	generate/STIM_020.jpg	99
1361.833	1.606	1606.2	generate	Run2	generate/STIM_020.jpg	100
1366.983	2.218	2217.7	generate	Run2	generate/STIM_020.jpg	99
1372.591	1.374	1373.5	generate	Run2	generate/STIM_020.jpg	99
1376.839	1.672	1672.4	generate	Run2	generate/STIM_020.jpg	99
1381.173	1.927	1926.8	generate	Run2	generate/STIM_021.jpg	99
1386.129	1.473	1472.9	generate	Run2	generate/STIM_021.jpg	100
1390.641	1.062	1062.4	generate	Run2	generate/STIM_021.jpg	100
1394.581	1.831	1830.9	generate	Run2	generate/STIM_021.jpg	100
1398.85	2.183	2183.2	generate	Run2	generate/STIM_021.jpg	99
1403.604	2.641	2640.9	generate	Run2	generate/STIM_022.jpg	99
1408.383	1.91	1910.1	generate	Run2	generate/STIM_022.jpg	100
1412.156	2.471	2471.4	generate	Run2	generate/STIM_022.jpg	100
1418.104	0.947	947.3	generate	Run2	generate/STIM_022.jpg	99
1422.716	1.463	1463.1	generate	Run2	generate/STIM_022.jpg	99
1426.678	1.234	1233.7	generate	Run2	generate/STIM_023.jpg	99
1430.268	2.111	2111.1	generate	Run2	generate/STIM_023.jpg	100
1434.899	2.509	2509.0	generate	Run2	generate/STIM_023.jpg	99
1440.606	1.361	1361.2	generate	Run2	generate/STIM_023.jpg	99
1444.02	2.378	2378.1	generate	Run2	generate/STIM_023.jpg	99
1448.873	2.67	2670.1	generate	Run2	generate/STIM_024.jpg	100
1453.962	2.659	2659.0	generate	Run2	generate/STIM_024.jpg	100
1458.862	1.841	1841.4	generate	Run2	generate/STIM_024.jpg	99
1463.923	1.901	1900.8	generate	Run2	generate/STIM_024.jpg	99
1469.092	1.149	1149.1	generate	Run2	generate/STIM_024.jpg	99
1473.185	0.933	933.3	repeat	Run2	repeat/STIM_000.jpg	99
1476.704	0.806	805.7	repeat	Run2	repeat/STIM_000.jpg	99
1480.825	0.939	938.7	repeat	Run2	repeat/STIM_000.jpg	100
1484.541	0.732	732.4	repeat	Run2	repeat/STIM_000.jpg	100
1488.132	0.817	817.1	repeat	Run2	repeat/STIM_000.jpg	99
1491.422	0.908	907.7	repeat	Run2	repeat/STIM_001.jpg	100
1495.124	0.992	991.8	repeat	Run2	repeat/STIM_001.jpg	99
1499.729	1.199	1199.4	repeat	Run2	repeat/STIM_001.jpg	99
1503.913	1.199	1199.4	repeat	Run2	repeat/STIM_001.jpg	100
1508.369	1.156	1156.0	repeat	Run2	repeat/STIM_001.jpg	100
1512.39	1.011	1010.9	repeat	Run2	repeat/STIM_002.jpg	100
1515.598	0.975	975.2	repeat	Run2	repeat/STIM_002.jpg	100
1520.236	0.894	893.9	repeat	Run2	repeat/STIM_002.jpg	100
1524.378	0.722	721.7	repeat	Run2	repeat/STIM_002.jpg	100
1528.155	0.616	615.8	repeat	Run2	repeat/STIM_002.jpg	100
1531.41	0.872	872.5	repeat	Run2	repeat/STIM_003.jpg	99
1535.872	0.85	850.3	repeat	Run2	repeat/STIM_003.jpg	99
1539.199	1.205	1205.0	repeat	Run2	repeat/STIM_003.jpg	99
1543.809	1.042	1042.1	repeat	Run2	repeat/STIM_003.jpg	100
1547.066	1.009	1009.2	repeat	Run2	repeat/STIM_003.jpg	99
1550.707	1.148	1148.5	repeat	Run2	repeat/STIM_004.jpg	100
1554.36	0.752	751.5	repeat	Run2	repeat/STIM_004.jpg	99
1557.878	0.916	915.9	repeat	Run2	repeat/STIM_004.jpg	100
1560.909	1.041	1040.6	repeat	Run2	repeat/STIM_004.jpg	99
1564.868	0.684	684.0	repeat	Run2	repeat/STIM_004.jpg	100
1568.256	0.637	636.6	repeat	Run2	repeat/STIM_005.jpg	100
1572.835	0.986	985.9	repeat	Run2	repeat/STIM_005.jpg	100
1576.121	0.973	972.9	repeat	Run2	repeat/STIM_005.jpg	99
1580.996	1.082	1082.4	repeat	Run2	repeat/STIM_005.jpg	99
1585.243	0.793	792.9	repeat	Run2	repeat/STIM_005.jpg	99
1588.128	0.661	661.3	repeat	Run2	repeat/STIM_006.jpg	100
1591.487	1.162	1161.9	repeat	Run2	repeat/STIM_006.jpg	99
1596.186	1.14	1140.4	repeat	Run2	repeat/STIM_006.jpg	99
1600.78	0.931	931.4	repeat	Run2	repeat/STIM_006.jpg	100
1604.858	0.575	575.0	repeat	Run2	repeat/STIM_006.jpg	100
1609.363	1.034	1034.2	repeat	Run2	repeat/STIM_007.jpg	99
1613.977	0.891	890.8	repeat	Run2	repeat/STIM_007.jpg	100
1616.935	0.758	758.4	repeat	Run2	repeat/STIM_007.jpg	99
1620.486	0.642	642.4	repeat	Run2	repeat/STIM_007.jpg	99
1624.836	0.907	907.0	repeat	Run2	repeat/STIM_007.jpg	100
1627.685	0.828	828.1	repeat	Run2	repeat/STIM_008.jpg	99
1631.055	1.048	1047.5	repeat	Run2	repeat/STIM_008.jpg	99
1635.754	1.104	1103.8	repeat	Run2	repeat/STIM_008.jpg	100
1639.401	0.523	523.3	repeat	Run2	repeat/STIM_008.jpg	100
1643.454	0.961	960.8	repeat	Run2	repeat/STIM_008.jpg	99
1648.189	0.815	815.1	repeat	Run2	repeat/STIM_009.jpg	99
1652.337	0.912	911.5	repeat	Run2	repeat/STIM_009.jpg	100
1655.532	0.741	740.8	repeat	Run2	repeat/STIM_009.jpg	99
1660.141	0.756	755.9	repeat	Run2	repeat/STIM_009.jpg	99
1663.84	1.158	1157.7	repeat	Run2	repeat/STIM_009.jpg	99
1668.622	0.961	961.4	repeat	Run2	repeat/STIM_010.jpg	99
1672.827	0.931	930.6	repeat	Run2	repeat/STIM_010.jpg	100
1677.059	0.88	880.3	repeat	Run2	repeat/STIM_010.jpg	99
1679.9	0.928	928.3	repeat	Run2	repeat/STIM_010.jpg	99
1683.928	1.028	1027.8	repeat	Run2	repeat/STIM_010.jpg	100
1688.047	1.021	1021.3	repeat	Run2	repeat/STIM_011.jpg	100
1692.616	0.651	650.9	repeat	Run2	repeat/STIM_011.jpg	100
1696.096	0.821	820.9	repeat	Run2	repeat/STIM_011.jpg	99
1699.79	0.882	881.5	repeat	Run2	repeat/STIM_011.jpg	99
1702.63	0.877	877.1	repeat	Run2	repeat/STIM_011.jpg	100
1706.916	1.063	1062.9	repeat	Run2	repeat/STIM_012.jpg	100
1710.848	0.743	742.6	repeat	Run2	repeat/STIM_012.jpg	99
1715.356	0.747	746.9	repeat	Run2	repeat/STIM_012.jpg	99
1719.601	0.651	651.4	repeat	Run2	repeat/STIM_012.jpg	100
1723.664	1.167	1167.1	repeat	Run2	repeat/STIM_012.jpg	99
1726.7	0.602	601.5	repeat	Run2	repeat/STIM_013.jpg	99
1730.47	1.026	1026.2	repeat	Run2	repeat/STIM_013.jpg	99
1735.055	1.092	1092.4	repeat	Run2	repeat/STIM_013.jpg	100
1739.014	0.833	833.4	repeat	Run2	repeat/STIM_013.jpg	100
1742.058	0.754	753.5	repeat	Run2	repeat/STIM_013.jpg	100
1745.157	1.105	1105.2	repeat	Run2	repeat/STIM_014.jpg	100
1749.277	0.974	973.9	repeat	Run2	repeat/STIM_014.jpg	99
1753.832	1.042	1042.2	repeat	Run2	repeat/STIM_014.jpg	100
1758.177	1.198	1197.8	repeat	Run2	repeat/STIM_014.jpg	100
1761.98	0.853	853.1	repeat	Run2	repeat/STIM_014.jpg	99
1764.799	1.18	1179.5	generate	Run3	generate/STIM_000.jpg	99
1769.639	2.396	2396.4	generate	Run3	generate/STIM_000.jpg	99
1774.587	1.108	1108.2	generate	Run3	generate/STIM_000.jpg	99
1779.178	0.927	926.6	generate	Run3	generate/STIM_000.jpg	100
1783.796	2.402	2402.2	generate	Run3	generate/STIM_000.jpg	99
1789.12	2.002	2002.2	generate	Run3	generate/STIM_001.jpg	99
1794.052	1.56	1560.3	generate	Run3	generate/STIM_001.jpg	100
1797.999	1.067	1066.6	generate	Run3	generate/STIM_001.jpg	99
1801.374	2.057	2056.8	generate	Run3	generate/STIM_001.jpg	99
1806.687	2.269	2268.6	generate	Run3	generate/STIM_001.jpg	99
1811.035	2.339	2339.0	generate	Run3	generate/STIM_002.jpg	100
1816.145	1.873	1872.7	generate	Run3	generate/STIM_002.jpg	99
1821.326	2.196	2195.5	generate	Run3	generate/STIM_002.jpg	99
1825.692	1.404	1403.9	generate	Run3	generate/STIM_002.jpg	100
1829.821	2.063	2062.9	generate	Run3	generate/STIM_002.jpg	100
1834.296	1.759	1758.9	generate	Run3	generate/STIM_003.jpg	100
1838.406	1.043	1043.2	generate	Run3	generate/STIM_003.jpg	100
1842.131	1.969	1968.8	generate	Run3	generate/STIM_003.jpg	100
1847.183	2.074	2073.7	generate	Run3	generate/STIM_003.jpg	100
1851.195	1.186	1186.5	generate	Run3	generate/STIM_003.jpg	100
1855.487	2.132	2132.3	generate	Run3	generate/STIM_004.jpg	100
1861.024	1.906	1905.5	generate	Run3	generate/STIM_004.jpg	100
1865.002	1.029	1029.2	generate	Run3	generate/STIM_004.jpg	99
1868.482	1.947	1946.8	generate	Run3	generate/STIM_004.jpg	99
1873.683	1.935	1934.6	generate	Run3	generate/STIM_004.jpg	99
1879.081	1.868	1868.1	generate	Run3	generate/STIM_005.jpg	99
1883.019	1.566	1566.4	generate	Run3	generate/STIM_005.jpg	99
1887.27	1.107	1107.2	generate	Run3	generate/STIM_005.jpg	99
1891.843	1.604	1604.2	generate	Run3	generate/STIM_005.jpg	99
1895.931	1.104	1104.2	generate	Run3	generate/STIM_005.jpg	100
1900.205	1.393	1392.9	generate	Run3	generate/STIM_006.jpg	100
1904.226	1.432	1431.6	generate	Run3	generate/STIM_006.jpg	100
1908.531	0.991	990.9	generate	Run3	generate/STIM_006.jpg	100
1913.185	1.739	1739.1	generate	Run3	generate/STIM_006.jpg	99
1917.119	2.02	2020.3	generate	Run3	generate/STIM_006.jpg	99
1922.476	1.837	1836.8	generate	Run3	generate/STIM_007.jpg	99
1926.539	1.918	1917.9	generate	Run3	generate/STIM_007.jpg	99
1931.418	2.211	2211.4	generate	Run3	generate/STIM_007.jpg	100
1936.182	1.829	1829.2	generate	Run3	generate/STIM_007.jpg	100
1941.261	1.915	1914.6	generate	Run3	generate/STIM_007.jpg	99
1946.07	1.69	1690.3	generate	Run3	generate/STIM_008.jpg	100
1949.992	1.511	1511.3	generate	Run3	generate/STIM_008.jpg	100
1954.331	1.989	1988.7	generate	Run3	generate/STIM_008.jpg	99
1958.353	1.219	1218.6	generate	Run3	generate/STIM_008.jpg	100
1961.615	2.024	2023.7	generate	Run3	generate/STIM_008.jpg	99
1966.984	1.386	1386.4	generate	Run3	generate/STIM_009.jpg	100
1971.526	1.563	1563.3	generate	Run3	generate/STIM_009.jpg	100
1975.109	2.265	2264.9	generate	Run3	generate/STIM_009.jpg	100
1979.91	1.95	1949.9	generate	Run3	generate/STIM_009.jpg	99
1984.369	2.159	2158.8	generate	Run3	generate/STIM_009.jpg	100
1989.907	2.03	2030.3	generate	Run3	generate/STIM_010.jpg	99
1995.259	1.575	1575.0	generate	Run3	generate/STIM_010.jpg	100
2000.197	1.275	1275.4	generate	Run3	generate/STIM_010.jpg	99
2003.626	1.054	1054.5	generate	Run3	generate/STIM_010.jpg	99
2007.247	0.979	978.8	generate	Run3	generate/STIM_010.jpg	99
2010.252	1.512	1511.8	generate	Run3	generate/STIM_011.jpg	99
2014.65	1.69	1689.9	generate	Run3	generate/STIM_011.jpg	99
2018.924	1.238	1238.4	generate	Run3	generate/STIM_011.jpg	100
2023.978	1.819	1819.3	generate	Run3	generate/STIM_011.jpg	100
2028.098	1.34	1339.8	generate	Run3	generate/STIM_011.jpg	99
2032.957	1.06	1059.9	generate	Run3	generate/STIM_012.jpg	100
2036.902	2.112	2111.7	generate	Run3	generate/STIM_012.jpg	99
2041.374	2.035	2035.2	generate	Run3	generate/STIM_012.jpg	100
2045.731	1.512	1512.5	generate	Run3	generate/STIM_012.jpg	99
2049.111	2.081	2080.6	generate	Run3	generate/STIM_012.jpg	99
2054.108	1.56	1560.3	generate	Run3	generate/STIM_013.jpg	100
2057.546	1.286	1285.7	generate	Run3	generate/STIM_013.jpg	99
2061.193	1.652	1651.8	generate	Run3	generate/STIM_013.jpg	100
2066.302	0.926	925.5	generate	Run3	generate/STIM_013.jpg	100
2069.172	1.595	1595.2	generate	Run3	generate/STIM_013.jpg	100
2072.67	1.539	1538.9	generate	Run3	generate/STIM_014.jpg	100
2077.29	2.147	2147.1	generate	Run3	generate/STIM_014.jpg	100
2083.16	1.631	1631.2	generate	Run3	generate/STIM_014.jpg	100
2088.577	2.039	2038.8	generate	Run3	generate/STIM_014.jpg	100
2093.263	1.723	1723.2	generate	Run3	generate/STIM_014.jpg	100
2098.801	1.745	1745.0	generate	Run3	generate/STIM_015.jpg	100
2103.003	1.406	1406.2	generate	Run3	generate/STIM_015.jpg	100
2108.116	1.352	1352.4	generate	Run3	generate/STIM_015.jpg	100
2111.599	1.753	1753.1	generate	Run3	generate/STIM_015.jpg	99
2115.255	1.031	1031.2	generate	Run3	generate/STIM_015.jpg	99
2120.091	2.018	2018.2	generate	Run3	generate/STIM_016.jpg	100
2125.131	2.075	2075.1	generate	Run3	generate/STIM_016.jpg	99
2130.762	2.348	2348.3	generate	Run3	generate/STIM_016.jpg	100
2134.854	1.8	1800.1	generate	Run3	generate/STIM_016.jpg	99
2139.189	1.253	1253.1	generate	Run3	generate/STIM_016.jpg	99
2142.564	1.497	1497.3	generate	Run3	generate/STIM_017.jpg	99
2146.934	1.52	1519.8	generate	Run3	generate/STIM_017.jpg	99
2151.778	2.079	2079.3	generate	Run3	generate/STIM_017.jpg	100
2156.466	1.263	1263.0	generate	Run3	generate/STIM_017.jpg	99
2159.65	1.116	1116.2	generate	Run3	generate/STIM_017.jpg	100
2162.812	1.031	1030.6	generate	Run3	generate/STIM_018.jpg	100
2167.01	1.845	1845.3	generate	Run3	generate/STIM_018.jpg	99
2171.161	1.18	1180.5	generate	Run3	generate/STIM_018.jpg	100
2175.775	1.505	1504.9	generate	Run3	generate/STIM_018.jpg	99
2179.698	1.173	1172.9	generate	Run3	generate/STIM_018.jpg	99
2182.992	1.186	1185.9	generate	Run3	generate/STIM_019.jpg	99
2187.837	2.114	2114.5	generate	Run3	generate/STIM_019.jpg	100
2192.798	1.199	1198.6	generate	Run3	generate/STIM_019.jpg	99
2196.849	2.19	2190.0	generate	Run3	generate/STIM_019.jpg	99
2201.758	1.93	1930.5	generate	Run3	generate/STIM_019.jpg	99
2206.177	2.204	2203.7	generate	Run3	generate/STIM_020.jpg	100
2211.59	1.058	1058.3	generate	Run3	generate/STIM_020.jpg	100
2215.247	1.316	1315.7	generate	Run3	generate/STIM_020.jpg	99
2219.894	1.641	1640.6	generate	Run3	generate/STIM_020.jpg	100
2223.501	1.551	1550.7	generate	Run3	generate/STIM_020.jpg	100
2226.862	1.969	1968.7	generate	Run3	generate/STIM_021.jpg	100
2231.357	2.376	2376.0	generate	Run3	generate/STIM_021.jpg	99
2237.146	1.526	1525.9	generate	Run3	generate/STIM_021.jpg	100
2242.323	1.5	1500.2	generate	Run3	generate/STIM_021.jpg	100
2245.701	1.648	1647.7	generate	Run3	generate/STIM_021.jpg	100
2250.703	2.024	2024.1	generate	Run3	generate/STIM_022.jpg	99
2254.725	1.945	1945.2	generate	Run3	generate/STIM_022.jpg	99
2260.236	1.997	1996.9	generate	Run3	generate/STIM_022.jpg	100
2265.289	2.097	2096.9	generate	Run3	generate/STIM_022.jpg	100
2270.373	1.439	1439.1	generate	Run3	generate/STIM_022.jpg	100
2274.624	1.373	1373.4	generate	Run3	generate/STIM_023.jpg	100
2278.917	0.94	939.8	generate	Run3	generate/STIM_023.jpg	100
2282.115	1.546	1546.2	generate	Run3	generate/STIM_023.jpg	99
2285.998	2.0	1999.6	generate	Run3	generate/STIM_023.jpg	99
2290.765	2.185	2184.8	generate	Run3	generate/STIM_023.jpg	100
2295.247	2.252	2252.0	generate	Run3	generate/STIM_024.jpg	99
2299.272	2.244	2243.5	generate	Run3	generate/STIM_024.jpg	99
2304.57	2.161	2161.0	generate	Run3	generate/STIM_024.jpg	100
2309.141	2.381	2381.2	generate	Run3	generate/STIM_024.jpg	99
2313.948	1.133	1132.8	generate	Run3	generate/STIM_024.jpg	100
2317.932	0.578	577.9	repeat	Run3	repeat/STIM_000.jpg	99
2322.31	0.731	731.2	repeat	Run3	repeat/STIM_000.jpg	99
2325.493	0.932	932.2	repeat	Run3	repeat/STIM_000.jpg	100
2330.037	0.935	935.4	repeat	Run3	repeat/STIM_000.jpg	100
2333.942	0.728	727.6	repeat	Run3	repeat/STIM_000.jpg	100
2336.863	0.88	879.7	repeat	Run3	repeat/STIM_001.jpg	99
2341.494	0.508	508.3	repeat	Run3	repeat/STIM_001.jpg	99
2345.943	0.767	767.3	repeat	Run3	repeat/STIM_001.jpg	100
2350.524	0.965	964.8	repeat	Run3	repeat/STIM_001.jpg	100
2354.547	0.629	629.3	repeat	Run3	repeat/STIM_001.jpg	100
2357.887	0.922	921.8	repeat	Run3	repeat/STIM_002.jpg	99
2361.106	0.878	878.4	repeat	Run3	repeat/STIM_002.jpg	100
2365.106	0.967	966.9	repeat	Run3	repeat/STIM_002.jpg	100
2369.813	0.942	942.5	repeat	Run3	repeat/STIM_002.jpg	99
2373.529	0.723	722.6	repeat	Run3	repeat/STIM_002.jpg	99
2376.312	0.618	618.1	repeat	Run3	repeat/STIM_003.jpg	100
2379.947	0.941	941.1	repeat	Run3	repeat/STIM_003.jpg	99
2383.026	0.957	956.6	repeat	Run3	repeat/STIM_003.jpg	99
2386.629	1.137	1136.8	repeat	Run3	repeat/STIM_003.jpg	100
2389.896	1.048	1048.4	repeat	Run3	repeat/STIM_003.jpg	99
2394.336	1.032	1032.5	repeat	Run3	repeat/STIM_004.jpg	99
2398.739	0.973	973.2	repeat	Run3	repeat/STIM_004.jpg	99
2402.435	1.0	999.7	repeat	Run3	repeat/STIM_004.jpg	99
2406.581	1.102	1102.0	repeat	Run3	repeat/STIM_004.jpg	100
2410.744	0.514	513.6	repeat	Run3	repeat/STIM_004.jpg	99
2414.019	0.883	883.1	repeat	Run3	repeat/STIM_005.jpg	100
2417.869	0.805	805.0	repeat	Run3	repeat/STIM_005.jpg	100
2420.64	0.873	872.7	repeat	Run3	repeat/STIM_005.jpg	100
2425.319	0.59	589.8	repeat	Run3	repeat/STIM_005.jpg	99
2428.508	1.146	1146.2	repeat	Run3	repeat/STIM_005.jpg	99
2431.522	0.525	525.4	repeat	Run3	repeat/STIM_006.jpg	100
2434.159	0.777	777.0	repeat	Run3	repeat/STIM_006.jpg	100
2437.7	0.646	645.9	repeat	Run3	repeat/STIM_006.jpg	99
2441.351	0.699	699.2	repeat	Run3	repeat/STIM_006.jpg	99
2444.859	0.686	686.0	repeat	Run3	repeat/STIM_006.jpg	100
2449.122	0.734	734.5	repeat	Run3	repeat/STIM_007.jpg	99
2453.712	0.835	835.4	repeat	Run3	repeat/STIM_007.jpg	99
2456.684	0.664	664.5	repeat	Run3	repeat/STIM_007.jpg	99
2461.237	0.721	721.4	repeat	Run3	repeat/STIM_007.jpg	100
2464.236	0.857	857.3	repeat	Run3	repeat/STIM_007.jpg	100
2468.471	1.019	1019.0	repeat	Run3	repeat/STIM_008.jpg	99
2473.179	0.776	776.0	repeat	Run3	repeat/STIM_008.jpg	99
2477.22	0.585	584.6	repeat	Run3	repeat/STIM_008.jpg	99
2481.717	0.784	784.3	repeat	Run3	repeat/STIM_008.jpg	99
2485.115	0.899	898.6	repeat	Run3	repeat/STIM_008.jpg	100
2488.14	1.133	1132.7	repeat	Run3	repeat/STIM_009.jpg	99
2493.066	0.996	996.5	repeat	Run3	repeat/STIM_009.jpg	100
2496.236	0.93	929.5	repeat	Run3	repeat/STIM_009.jpg	100
2500.185	1.146	1145.6	repeat	Run3	repeat/STIM_009.jpg	100
2504.717	0.63	630.4	repeat	Run3	repeat/STIM_009.jpg	99
2508.716	0.871	870.6	repeat	Run3	repeat/STIM_010.jpg	100
2512.032	1.109	1108.7	repeat	Run3	repeat/STIM_010.jpg	100
2516.131	0.594	593.8	repeat	Run3	repeat/STIM_010.jpg	99
2519.655	1.142	1142.5	repeat	Run3	repeat/STIM_010.jpg	99
2523.317	0.87	869.6	repeat	Run3	repeat/STIM_010.jpg	99
2526.677	1.122	1121.7	repeat	Run3	repeat/STIM_011.jpg	100
2530.956	0.875	874.6	repeat	Run3	repeat/STIM_011.jpg	99
2534.136	0.954	954.0	repeat	Run3	repeat/STIM_011.jpg	100
2537.096	0.92	920.4	repeat	Run3	repeat/STIM_011.jpg	100
2541.736	0.834	834.4	repeat	Run3	repeat/STIM_011.jpg	99
2546.261	0.976	976.3	repeat	Run3	repeat/STIM_012.jpg	99
2549.659	0.996	996.4	repeat	Run3	repeat/STIM_012.jpg	99
2553.089	0.752	752.3	repeat	Run3	repeat/STIM_012.jpg	99
2556.472	1.003	1003.3	repeat	Run3	repeat/STIM_012.jpg	99
2560.7	0.736	736.3	repeat	Run3	repeat/STIM_012.jpg	100
2564.65	0.955	955.4	repeat	Run3	repeat/STIM_013.jpg	99
2567.788	1.056	1056.3	repeat	Run3	repeat/STIM_013.jpg	100
2572.479	0.838	838.2	repeat	Run3	repeat/STIM_013.jpg	100
2575.998	0.932	931.7	repeat	Run3	repeat/STIM_013.jpg	99
2579.121	0.986	986.1	repeat	Run3	repeat/STIM_013.jpg	99
2583.289	0.543	543.3	repeat	Run3	repeat/STIM_014.jpg	100
2587.106	0.735	735.1	repeat	Run3	repeat/STIM_014.jpg	100
2590.947	0.859	858.9	repeat	Run3	repeat/STIM_014.jpg	99
2594.429	0.756	755.7	repeat	Run3	repeat/STIM_014.jpg	100
2597.235	1.09	1090.5	repeat	Run3	repeat/STIM_014.jpg	100
2600.939	2.004	2004.2	generate	Run4	generate/STIM_000.jpg	100
2605.283	1.88	1880.1	generate	Run4	generate/STIM_000.jpg	100
2610.733	2.329	2328.9	generate	Run4	generate/STIM_000.jpg	99
2615.777	1.497	1496.8	generate	Run4	generate/STIM_000.jpg	100
2619.966	1.903	1902.8	generate	Run4	generate/STIM_000.jpg	100
2624.856	1.038	1037.8	generate	Run4	generate/STIM_001.jpg	100
2628.458	2.25	2250.0	generate	Run4	generate/STIM_001.jpg	100
2633.355	1.667	1667.0	generate	Run4	generate/STIM_001.jpg	100
2638.152	2.114	2113.9	generate	Run4	generate/STIM_001.jpg	100
2643.354	1.704	1704.3	generate	Run4	generate/STIM_001.jpg	99
2647.382	1.361	1360.9	generate	Run4	generate/STIM_002.jpg	99
2651.68	1.963	1963.2	generate	Run4	generate/STIM_002.jpg	99
2657.239	1.616	1616.3	generate	Run4	generate/STIM_002.jpg	100
2661.811	1.495	1494.8	generate	Run4	generate/STIM_002.jpg	99
2666.715	1.593	1592.7	generate	Run4	generate/STIM_002.jpg	99
2672.067	1.66	1660.1	generate	Run4	generate/STIM_003.jpg	99
2675.988	1.088	1088.1	generate	Run4	generate/STIM_003.jpg	99
2679.05	1.463	1463.4	generate	Run4	generate/STIM_003.jpg	99
2684.229	2.15	2149.9	generate	Run4	generate/STIM_003.jpg	100
2688.32	1.55	1550.0	generate	Run4	generate/STIM_003.jpg	99
2692.973	1.582	1582.5	generate	Run4	generate/STIM_004.jpg	100
2697.802	1.541	1540.6	generate	Run4	generate/STIM_004.jpg	99
2703.135	2.445	2444.8	generate	Run4	generate/STIM_004.jpg	99
2707.382	2.131	2130.7	generate	Run4	generate/STIM_004.jpg	99
2712.735	1.349	1349.1	generate	Run4	generate/STIM_004.jpg	99
2717.596	1.284	1284.2	generate	Run4	generate/STIM_005.jpg	99
2722.174	1.555	1554.8	generate	Run4	generate/STIM_005.jpg	99
2727.387	1.106	1106.5	generate	Run4	generate/STIM_005.jpg	100
2732.121	1.705	1705.3	generate	Run4	generate/STIM_005.jpg	99
2736.201	1.165	1165.0	generate	Run4	generate/STIM_005.jpg	99
2740.457	1.69	1690.1	generate	Run4	generate/STIM_006.jpg	99
2744.682	1.838	1837.6	generate	Run4	generate/STIM_006.jpg	99
2748.58	1.993	1993.1	generate	Run4	generate/STIM_006.jpg	99
2753.781	1.549	1548.9	generate	Run4	generate/STIM_006.jpg	100
2758.212	2.266	2266.5	generate	Run4	generate/STIM_006.jpg	100
2763.316	2.168	2168.2	generate	Run4	generate/STIM_007.jpg	100
2768.149	1.868	1867.7	generate	Run4	generate/STIM_007.jpg	99
2773.393	1.932	1931.8	generate	Run4	generate/STIM_007.jpg	99
2778.612	1.633	1632.7	generate	Run4	generate/STIM_007.jpg	99
2783.364	1.718	1718.1	generate	Run4	generate/STIM_007.jpg	100
2788.157	2.011	2011.5	generate	Run4	generate/STIM_008.jpg	99
2792.436	2.102	2102.1	generate	Run4	generate/STIM_008.jpg	100
2798.025	1.715	1714.8	generate	Run4	generate/STIM_008.jpg	100
2803.069	2.266	2266.1	generate	Run4	generate/STIM_008.jpg	99
2808.059	2.43	2430.5	generate	Run4	generate/STIM_008.jpg	100
2813.575	2.232	2231.7	generate	Run4	generate/STIM_009.jpg	99
2818.116	1.164	1164.4	generate	Run4	generate/STIM_009.jpg	100
2822.678	1.091	1091.1	generate	Run4	generate/STIM_009.jpg	99
2827.406	2.081	2081.2	generate	Run4	generate/STIM_009.jpg	100
2832.806	2.054	2054.5	generate	Run4	generate/STIM_009.jpg	99
2837.672	1.347	1347.0	generate	Run4	generate/STIM_010.jpg	99
2842.334	1.333	1333.4	generate	Run4	generate/STIM_010.jpg	100
2846.962	2.255	2255.4	generate	Run4	generate/STIM_010.jpg	99
2852.339	1.199	1199.0	generate	Run4	generate/STIM_010.jpg	99
2857.166	2.048	2047.8	generate	Run4	generate/STIM_010.jpg	100
2861.955	1.21	1209.9	generate	Run4	generate/STIM_011.jpg	99
2865.788	2.236	2236.1	generate	Run4	generate/STIM_011.jpg	99
2871.101	2.361	2360.9	generate	Run4	generate/STIM_011.jpg	100
2875.432	1.356	1356.0	generate	Run4	generate/STIM_011.jpg	100
2878.708	1.156	1155.8	generate	Run4	generate/STIM_011.jpg	100
2883.031	1.511	1511.1	generate	Run4	generate/STIM_012.jpg	100
2887.786	1.525	1524.7	generate	Run4	generate/STIM_012.jpg	100
2891.844	1.304	1304.4	generate	Run4	generate/STIM_012.jpg	100
2895.749	1.901	1901.3	generate	Run4	generate/STIM_012.jpg	99
2899.539	1.46	1460.0	generate	Run4	generate/STIM_012.jpg	99
2904.742	1.898	1898.2	generate	Run4	generate/STIM_013.jpg	100
2909.91	1.724	1724.3	generate	Run4	generate/STIM_013.jpg	99
2914.83	1.96	1960.0	generate	Run4	generate/STIM_013.jpg	99
2919.021	1.635	1635.0	generate	Run4	generate/STIM_013.jpg	100
2923.884	1.527	1526.8	generate	Run4	generate/STIM_013.jpg	100
2927.584	1.246	1245.9	generate	Run4	generate/STIM_014.jpg	100
2931.498	1.128	1128.1	generate	Run4	generate/STIM_014.jpg	99
2936.256	1.222	1221.7	generate	Run4	generate/STIM_014.jpg	99
2940.022	1.954	1954.3	generate	Run4	generate/STIM_014.jpg	99
2945.283	1.541	1541.0	generate	Run4	generate/STIM_014.jpg	100
2948.949	2.307	2307.0	generate	Run4	generate/STIM_015.jpg	99
2953.434	1.803	1802.7	generate	Run4	generate/STIM_015.jpg	100
2957.494	2.068	2068.0	generate	Run4	generate/STIM_015.jpg	100
2961.26	1.358	1358.2	generate	Run4	generate/STIM_015.jpg	100
2966.287	1.01	1010.0	generate	Run4	generate/STIM_015.jpg	100
2970.423	2.154	2153.5	generate	Run4	generate/STIM_016.jpg	99
2975.859	1.524	1523.6	generate	Run4	generate/STIM_016.jpg	100
2979.509	1.745	1744.9	generate	Run4	generate/STIM_016.jpg	99
2983.653	1.123	1122.7	generate	Run4	generate/STIM_016.jpg	99
2987.982	1.788	1787.9	generate	Run4	generate/STIM_016.jpg	99
2992.057	1.124	1123.8	generate	Run4	generate/STIM_017.jpg	99
2996.024	1.371	1371.3	generate	Run4	generate/STIM_017.jpg	99
2999.686	0.955	955.2	generate	Run4	generate/STIM_017.jpg	99
3004.01	1.496	1495.5	generate	Run4	generate/STIM_017.jpg	99
3007.551	2.211	2210.8	generate	Run4	generate/STIM_017.jpg	100
3011.659	1.263	1263.4	generate	Run4	generate/STIM_018.jpg	100
3016.643	1.545	1544.9	generate	Run4	generate/STIM_018.jpg	100
3020.275	2.282	2281.8	generate	Run4	generate/STIM_018.jpg	99
3026.154	1.645	1645.3	generate	Run4	generate/STIM_018.jpg	100
3029.908	1.478	1477.8	generate	Run4	generate/STIM_018.jpg	100
3033.882	1.058	1057.8	generate	Run4	generate/STIM_019.jpg	100
3037.312	1.946	1946.2	generate	Run4	generate/STIM_019.jpg	100
3040.966	1.074	1074.2	generate	Run4	generate/STIM_019.jpg	99
3044.329	1.925	1924.6	generate	Run4	generate/STIM_019.jpg	100
3049.935	1.33	1329.9	generate	Run4	generate/STIM_019.jpg	99
3054.985	1.69	1689.9	generate	Run4	generate/STIM_020.jpg	99
3059.4	1.756	1756.4	generate	Run4	generate/STIM_020.jpg	100
3063.94	1.324	1323.5	generate	Run4	generate/STIM_020.jpg	100
3068.551	2.4	2400.1	generate	Run4	generate/STIM_020.jpg	99
3073.802	1.894	1893.9	generate	Run4	generate/STIM_020.jpg	100
3077.528	1.746	1745.5	generate	Run4	generate/STIM_021.jpg	100
3082.344	1.424	1423.6	generate	Run4	generate/STIM_021.jpg	100
3087.396	1.43	1430.0	generate	Run4	generate/STIM_021.jpg	100
3090.833	2.257	2257.1	generate	Run4	generate/STIM_021.jpg	100
3095.408	1.295	1295.4	generate	Run4	generate/STIM_021.jpg	99
3099.312	2.169	2169.3	generate	Run4	generate/STIM_022.jpg	99
3105.082	2.393	2392.9	generate	Run4	generate/STIM_022.jpg	99
3110.065	1.029	1029.3	generate	Run4	generate/STIM_022.jpg	100
3114.215	2.157	2156.7	generate	Run4	generate/STIM_022.jpg	100
3118.219	2.27	2269.6	generate	Run4	generate/STIM_022.jpg	99
3122.905	2.062	2061.8	generate	Run4	generate/STIM_023.jpg	99
3126.924	1.748	1748.2	generate	Run4	generate/STIM_023.jpg	100
3130.882	1.818	1818.0	generate	Run4	generate/STIM_023.jpg	100
3135.901	0.976	976.0	generate	Run4	generate/STIM_023.jpg	100
3140.587	1.558	1558.1	generate	Run4	generate/STIM_023.jpg	99
3144.129	2.275	2275.2	generate	Run4	generate/STIM_024.jpg	99
3149.783	1.231	1231.2	generate	Run4	generate/STIM_024.jpg	100
3154.192	2.297	2296.9	generate	Run4	generate/STIM_024.jpg	99
3159.372	1.676	1676.5	generate	Run4	generate/STIM_024.jpg	99
3164.081	2.232	2232.3	generate	Run4	generate/STIM_024.jpg	99
3168.546	1.048	1048.0	repeat	Run4	repeat/STIM_000.jpg	100
3173.124	1.047	1046.9	repeat	Run4	repeat/STIM_000.jpg	99
3177.341	0.989	988.6	repeat	Run4	repeat/STIM_000.jpg	100
3180.758	0.789	789.0	repeat	Run4	repeat/STIM_000.jpg	99
3184.934	1.072	1071.7	repeat	Run4	repeat/STIM_000.jpg	99
3189.213	0.749	749.4	repeat	Run4	repeat/STIM_001.jpg	99
3193.782	0.763	763.4	repeat	Run4	repeat/STIM_001.jpg	99
3196.927	0.628	627.6	repeat	Run4	repeat/STIM_001.jpg	99
3199.588	0.842	841.5	repeat	Run4	repeat/STIM_001.jpg	100
3202.908	1.228	1228.0	repeat	Run4	repeat/STIM_001.jpg	100
3207.207	1.083	1082.7	repeat	Run4	repeat/STIM_002.jpg	100
3211.623	1.108	1107.8	repeat	Run4	repeat/STIM_002.jpg	99
3216.3	0.701	701.2	repeat	Run4	repeat/STIM_002.jpg	99
3220.175	0.634	633.8	repeat	Run4	repeat/STIM_002.jpg	99
3223.342	0.889	888.9	repeat	Run4	repeat/STIM_002.jpg	99
3228.066	0.706	706.1	repeat	Run4	repeat/STIM_003.jpg	100
3232.034	0.892	892.2	repeat	Run4	repeat/STIM_003.jpg	99
3235.527	0.826	826.1	repeat	Run4	repeat/STIM_003.jpg	99
3239.273	0.7	700.2	repeat	Run4	repeat/STIM_003.jpg	100
3242.135	1.114	1113.6	repeat	Run4	repeat/STIM_003.jpg	100
3245.615	0.581	580.9	repeat	Run4	repeat/STIM_004.jpg	99
3249.722	0.717	716.9	repeat	Run4	repeat/STIM_004.jpg	99
3253.403	0.665	665.2	repeat	Run4	repeat/STIM_004.jpg	99
3256.738	0.818	818.1	repeat	Run4	repeat/STIM_004.jpg	100
3259.681	1.146	1145.5	repeat	Run4	repeat/STIM_004.jpg	100
3263.338	0.899	898.7	repeat	Run4	repeat/STIM_005.jpg	99
3267.443	0.868	868.5	repeat	Run4	repeat/STIM_005.jpg	99
3271.347	0.723	722.6	repeat	Run4	repeat/STIM_005.jpg	99
3274.563	0.788	787.7	repeat	Run4	repeat/STIM_005.jpg	100
3277.753	0.741	740.7	repeat	Run4	repeat/STIM_005.jpg	100
3281.565	0.838	837.8	repeat	Run4	repeat/STIM_006.jpg	99
3284.846	0.966	965.6	repeat	Run4	repeat/STIM_006.jpg	99
3289.384	0.975	975.1	repeat	Run4	repeat/STIM_006.jpg	99
3293.535	0.883	882.8	repeat	Run4	repeat/STIM_006.jpg	99
3297.246	0.871	871.2	repeat	Run4	repeat/STIM_006.jpg	99
3301.254	0.735	735.4	repeat	Run4	repeat/STIM_007.jpg	99
3304.234	0.969	969.1	repeat	Run4	repeat/STIM_007.jpg	99
3307.475	0.565	565.1	repeat	Run4	repeat/STIM_007.jpg	100
3311.064	0.971	971.4	repeat	Run4	repeat/STIM_007.jpg	100
3315.049	1.031	1031.4	repeat	Run4	repeat/STIM_007.jpg	99
3318.411	0.973	973.2	repeat	Run4	repeat/STIM_008.jpg	99
3322.126	0.813	813.2	repeat	Run4	repeat/STIM_008.jpg	100
3325.53	0.891	891.0	repeat	Run4	repeat/STIM_008.jpg	100
3329.796	0.692	691.5	repeat	Run4	repeat/STIM_008.jpg	99
3332.494	0.887	887.2	repeat	Run4	repeat/STIM_008.jpg	100
3335.884	0.959	959.3	repeat	Run4	repeat/STIM_009.jpg	100
3339.252	0.71	709.9	repeat	Run4	repeat/STIM_009.jpg	100
3341.97	0.952	952.5	repeat	Run4	repeat/STIM_009.jpg	100
3345.665	0.884	884.2	repeat	Run4	repeat/STIM_009.jpg	99
3350.071	0.761	761.0	repeat	Run4	repeat/STIM_009.jpg	100
3354.64	0.866	865.5	repeat	Run4	repeat/STIM_010.jpg	100
3359.322	0.676	676.2	repeat	Run4	repeat/STIM_010.jpg	99
3363.184	1.016	1016.4	repeat	Run4	repeat/STIM_010.jpg	100
3366.262	0.947	946.8	repeat	Run4	repeat/STIM_010.jpg	99
3370.384	0.63	629.9	repeat	Run4	repeat/STIM_010.jpg	99
3373.856	0.969	969.4	repeat	Run4	repeat/STIM_011.jpg	99
3376.819	0.725	724.9	repeat	Run4	repeat/STIM_011.jpg	100
3380.898	1.073	1072.6	repeat	Run4	repeat/STIM_011.jpg	100
3384.917	0.739	738.7	repeat	Run4	repeat/STIM_011.jpg	99
3388.111	0.698	697.8	repeat	Run4	repeat/STIM_011.jpg	100
3390.922	1.061	1060.9	repeat	Run4	repeat/STIM_012.jpg	99
3394.975	0.623	622.9	repeat	Run4	repeat/STIM_012.jpg	100
3398.496	1.058	1058.0	repeat	Run4	repeat/STIM_012.jpg	99
3401.611	0.65	650.5	repeat	Run4	repeat/STIM_012.jpg	99
3405.392	0.686	685.7	repeat	Run4	repeat/STIM_012.jpg	100
3409.331	0.945	944.9	repeat	Run4	repeat/STIM_013.jpg	99
3413.504	0.642	641.6	repeat	Run4	repeat/STIM_013.jpg	100
3416.235	0.57	570.5	repeat	Run4	repeat/STIM_013.jpg	100
3420.096	0.637	637.3	repeat	Run4	repeat/STIM_013.jpg	100
3422.977	0.731	730.9	repeat	Run4	repeat/STIM_013.jpg	99
3425.964	0.929	929.1	repeat	Run4	repeat/STIM_014.jpg	100
3429.314	0.959	959.1	repeat	Run4	repeat/STIM_014.jpg	99
3433.086	0.923	923.2	repeat	Run4	repeat/STIM_014.jpg	99
3436.302	1.186	1185.6	repeat	Run4	repeat/STIM_014.jpg	100
3441.158	0.89	890.5	repeat	Run4	repeat/STIM_014.jpg	99
