onset	duration	accuracy	trial_type	learning_stage	stimulus
0.0	2.584	correct	regulate	Run1	regulate/STIM_000.jpg
6.235	2.669	correct	regulate	Run1	regulate/STIM_000.jpg
12.745	1.597	correct	regulate	Run1	regulate/STIM_000.jpg
16.614	1.434	incorrect	regulate	Run1	regulate/STIM_000.jpg
21.042	2.713	correct	regulate	Run1	regulate/STIM_001.jpg
26.876	2.832	correct	regulate	Run1	regulate/STIM_001.jpg
34.049	1.344	incorrect	regulate	Run1	regulate/STIM_001.jpg
39.294	1.278	correct	regulate	Run1	regulate/STIM_001.jpg
43.228	1.362	correct	regulate	Run1	regulate/STIM_002.jpg
48.485	2.573	correct	regulate	Run1	regulate/STIM_002.jpg
55.121	1.944	incorrect	regulate	Run1	regulate/STIM_002.jpg
60.472	1.952	correct	regulate	Run1	regulate/STIM_002.jpg
66.203	1.76	incorrect	regulate	Run1	regulate/STIM_003.jpg
70.376	1.991	correct	regulate	Run1	regulate/STIM_003.jpg
75.055	2.019	correct	regulate	Run1	regulate/STIM_003.jpg
81.342	2.416	incorrect	regulate	Run1	regulate/STIM_003.jpg
86.717	2.49	correct	regulate	Run1	regulate/STIM_004.jpg
91.584	2.431	incorrect	regulate	Run1	regulate/STIM_004.jpg
97.345	1.806	correct	regulate	Run1	regulate/STIM_004.jpg
102.915	1.293	correct	regulate	Run1	regulate/STIM_004.jpg
108.203	1.663	correct	regulate	Run1	regulate/STIM_005.jpg
113.325	1.882	correct	regulate	Run1	regulate/STIM_005.jpg
118.339	1.393	correct	regulate	Run1	regulate/STIM_005.jpg
122.183	2.085	incorrect	regulate	Run1	regulate/STIM_005.jpg
126.5	1.514	correct	regulate	Run1	regulate/STIM_006.jpg
130.856	2.801	incorrect	regulate	Run1	regulate/STIM_006.jpg
137.737	2.629	correct	regulate	Run1	regulate/STIM_006.jpg
143.059	1.726	incorrect	regulate	Run1	regulate/STIM_006.jpg
148.116	1.981	correct	regulate	Run1	regulate/STIM_007.jpg
153.924	1.284	correct	regulate	Run1	regulate/STIM_007.jpg
158.811	2.179	correct	regulate	Run1	regulate/STIM_007.jpg
164.235	2.565	correct	regulate	Run1	regulate/STIM_007.jpg
170.129	1.895	incorrect	regulate	Run1	regulate/STIM_008.jpg
174.54	2.103	correct	regulate	Run1	regulate/STIM_008.jpg
179.016	2.385	correct	regulate	Run1	regulate/STIM_008.jpg
184.582	2.2	correct	regulate	Run1	regulate/STIM_008.jpg
189.318	2.043	correct	regulate	Run1	regulate/STIM_009.jpg
195.43	2.272	correct	regulate	Run1	regulate/STIM_009.jpg
200.516	1.459	incorrect	regulate	Run1	regulate/STIM_009.jpg
204.255	2.521	correct	regulate	Run1	regulate/STIM_009.jpg
210.128	3.053	correct	regulate	Run1	regulate/STIM_010.jpg
215.564	2.019	correct	regulate	Run1	regulate/STIM_010.jpg
221.786	1.384	correct	regulate	Run1	regulate/STIM_010.jpg
226.593	1.659	correct	regulate	Run1	regulate/STIM_010.jpg
231.026	2.827	correct	regulate	Run1	regulate/STIM_011.jpg
237.433	2.828	incorrect	regulate	Run1	regulate/STIM_011.jpg
242.876	2.192	correct	regulate	Run1	regulate/STIM_011.jpg
249.016	1.437	correct	regulate	Run1	regulate/STIM_011.jpg
253.438	2.385	correct	regulate	Run1	regulate/STIM_012.jpg
258.626	2.378	incorrect	regulate	Run1	regulate/STIM_012.jpg
264.366	1.379	correct	regulate	Run1	regulate/STIM_012.jpg
269.349	1.861	correct	regulate	Run1	regulate/STIM_012.jpg
273.841	1.896	incorrect	regulate	Run1	regulate/STIM_013.jpg
278.828	2.627	correct	regulate	Run1	regulate/STIM_013.jpg
285.569	1.724	correct	regulate	Run1	regulate/STIM_013.jpg
290.575	2.307	correct	regulate	Run1	regulate/STIM_013.jpg
295.524	2.963	correct	regulate	Run1	regulate/STIM_014.jpg
302.663	1.347	correct	regulate	Run1	regulate/STIM_014.jpg
306.629	2.472	correct	regulate	Run1	regulate/STIM_014.jpg
312.25	1.772	correct	regulate	Run1	regulate/STIM_014.jpg
316.346	1.524	correct	regulate	Run1	regulate/STIM_015.jpg
320.989	1.82	correct	regulate	Run1	regulate/STIM_015.jpg
326.87	1.588	incorrect	regulate	Run1	regulate/STIM_015.jpg
331.615	1.638	correct	regulate	Run1	regulate/STIM_015.jpg
335.93	2.651	correct	regulate	Run1	regulate/STIM_016.jpg
341.69	2.347	correct	regulate	Run1	regulate/STIM_016.jpg
347.899	2.028	incorrect	regulate	Run1	regulate/STIM_016.jpg
352.731	1.884	correct	regulate	Run1	regulate/STIM_016.jpg
356.99	2.573	correct	regulate	Run1	regulate/STIM_017.jpg
361.956	2.166	correct	regulate	Run1	regulate/STIM_017.jpg
367.291	1.539	correct	regulate	Run1	regulate/STIM_017.jpg
371.772	2.43	incorrect	regulate	Run1	regulate/STIM_017.jpg
378.068	1.381	correct	regulate	Run1	regulate/STIM_018.jpg
383.389	1.984	correct	regulate	Run1	regulate/STIM_018.jpg
387.747	1.61	correct	regulate	Run1	regulate/STIM_018.jpg
392.272	1.908	incorrect	regulate	Run1	regulate/STIM_018.jpg
398.044	2.556	correct	regulate	Run1	regulate/STIM_019.jpg
404.598	1.499	incorrect	regulate	Run1	regulate/STIM_019.jpg
409.119	1.998	correct	regulate	Run1	regulate/STIM_019.jpg
413.615	1.142	correct	regulate	Run1	regulate/STIM_019.jpg
417.266	2.345	correct	regulate	Run1	regulate/STIM_020.jpg
422.412	2.05	correct	regulate	Run1	regulate/STIM_020.jpg
427.36	1.483	correct	regulate	Run1	regulate/STIM_020.jpg
431.739	1.648	correct	regulate	Run1	regulate/STIM_020.jpg
435.935	1.408	correct	regulate	Run1	regulate/STIM_021.jpg
441.46	2.373	correct	regulate	Run1	regulate/STIM_021.jpg
446.841	1.253	correct	regulate	Run1	regulate/STIM_021.jpg
451.841	1.46	correct	regulate	Run1	regulate/STIM_021.jpg
456.188	1.561	correct	regulate	Run1	regulate/STIM_022.jpg
460.51	1.444	correct	regulate	Run1	regulate/STIM_022.jpg
464.924	2.668	correct	regulate	Run1	regulate/STIM_022.jpg
471.574	2.148	correct	regulate	Run1	regulate/STIM_022.jpg
477.911	2.752	correct	regulate	Run1	regulate/STIM_023.jpg
484.591	2.893	incorrect	regulate	Run1	regulate/STIM_023.jpg
490.103	1.714	correct	regulate	Run1	regulate/STIM_023.jpg
495.257	2.508	correct	regulate	Run1	regulate/STIM_023.jpg
501.421	3.047	correct	regulate	Run1	regulate/STIM_024.jpg
507.178	2.559	correct	regulate	Run1	regulate/STIM_024.jpg
512.358	2.744	incorrect	regulate	Run1	regulate/STIM_024.jpg
517.712	2.213	correct	regulate	Run1	regulate/STIM_024.jpg
523.62	1.5	incorrect	regulate	Run1	regulate/STIM_025.jpg
527.647	2.288	correct	regulate	Run1	regulate/STIM_025.jpg
533.463	1.283	correct	regulate	Run1	regulate/STIM_025.jpg
538.17	2.131	correct	regulate	Run1	regulate/STIM_025.jpg
542.99	1.386	correct	regulate	Run1	regulate/STIM_026.jpg
547.213	2.19	correct	regulate	Run1	regulate/STIM_026.jpg
551.811	1.782	correct	regulate	Run1	regulate/STIM_026.jpg
557.313	2.417	correct	regulate	Run1	regulate/STIM_026.jpg
563.616	2.321	incorrect	regulate	Run1	regulate/STIM_027.jpg
569.72	2.445	correct	regulate	Run1	regulate/STIM_027.jpg
575.082	2.564	correct	regulate	Run1	regulate/STIM_027.jpg
581.678	2.314	correct	regulate	Run1	regulate/STIM_027.jpg
587.249	1.703	correct	regulate	Run1	regulate/STIM_028.jpg
592.414	1.515	correct	regulate	Run1	regulate/STIM_028.jpg
596.677	2.262	correct	regulate	Run1	regulate/STIM_028.jpg
602.591	1.811	correct	regulate	Run1	regulate/STIM_028.jpg
607.692	1.998	correct	regulate	Run1	regulate/STIM_029.jpg
612.733	2.339	correct	regulate	Run1	regulate/STIM_029.jpg
617.354	2.596	incorrect	regulate	Run1	regulate/STIM_029.jpg
624.04	1.943	correct	regulate	Run1	regulate/STIM_029.jpg
629.944	1.254	correct	observe	Run1	observe/STIM_000.jpg
633.977	0.72	correct	observe	Run1	observe/STIM_000.jpg
638.682	1.089	correct	observe	Run1	observe/STIM_000.jpg
642.214	1.234	correct	observe	Run1	observe/STIM_000.jpg
645.997	0.743	incorrect	observe	Run1	observe/STIM_001.jpg
649.984	1.295	correct	observe	Run1	observe/STIM_001.jpg
654.849	0.907	correct	observe	Run1	observe/STIM_001.jpg
658.183	1.17	incorrect	observe	Run1	observe/STIM_001.jpg
663.307	1.314	correct	observe	Run1	observe/STIM_002.jpg
668.682	0.765	correct	observe	Run1	observe/STIM_002.jpg
671.667	0.956	correct	observe	Run1	observe/STIM_002.jpg
675.112	1.0	correct	observe	Run1	observe/STIM_002.jpg
680.018	0.846	incorrect	observe	Run1	observe/STIM_003.jpg
684.153	1.274	correct	observe	Run1	observe/STIM_003.jpg
687.849	1.06	correct	observe	Run1	observe/STIM_003.jpg
691.376	1.14	correct	observe	Run1	observe/STIM_003.jpg
694.925	1.187	correct	observe	Run1	observe/STIM_004.jpg
698.419	0.984	correct	observe	Run1	observe/STIM_004.jpg
703.217	1.169	correct	observe	Run1	observe/STIM_004.jpg
708.227	0.769	correct	observe	Run1	observe/STIM_004.jpg
712.459	0.902	correct	observe	Run1	observe/STIM_005.jpg
717.0	0.761	correct	observe	Run1	observe/STIM_005.jpg
721.45	1.048	correct	observe	Run1	observe/STIM_005.jpg
724.842	1.3	correct	observe	Run1	observe/STIM_005.jpg
729.105	1.142	correct	observe	Run1	observe/STIM_006.jpg
733.657	0.867	correct	observe	Run1	observe/STIM_006.jpg
737.084	1.093	correct	observe	Run1	observe/STIM_006.jpg
742.236	1.243	correct	observe	Run1	observe/STIM_006.jpg
746.456	1.157	incorrect	observe	Run1	observe/STIM_007.jpg
750.724	0.785	correct	observe	Run1	observe/STIM_007.jpg
753.901	1.395	correct	observe	Run1	observe/STIM_007.jpg
759.336	0.981	correct	observe	Run1	observe/STIM_007.jpg
763.097	0.876	correct	observe	Run1	observe/STIM_008.jpg
766.298	1.129	incorrect	observe	Run1	observe/STIM_008.jpg
769.925	0.934	correct	observe	Run1	observe/STIM_008.jpg
773.648	0.856	correct	observe	Run1	observe/STIM_008.jpg
778.051	1.361	incorrect	observe	Run1	observe/STIM_009.jpg
781.762	1.04	correct	observe	Run1	observe/STIM_009.jpg
786.457	0.839	correct	observe	Run1	observe/STIM_009.jpg
790.457	0.912	correct	observe	Run1	observe/STIM_009.jpg
795.324	1.276	correct	observe	Run1	observe/STIM_010.jpg
800.639	0.966	correct	observe	Run1	observe/STIM_010.jpg
805.203	1.344	correct	observe	Run1	observe/STIM_010.jpg
809.292	0.925	incorrect	observe	Run1	observe/STIM_010.jpg
812.645	1.405	correct	observe	Run1	observe/STIM_011.jpg
816.669	1.309	incorrect	observe	Run1	observe/STIM_011.jpg
821.261	1.46	correct	observe	Run1	observe/STIM_011.jpg
826.283	1.012	correct	observe	Run1	observe/STIM_011.jpg
829.843	1.401	correct	observe	Run1	observe/STIM_012.jpg
833.476	1.103	incorrect	observe	Run1	observe/STIM_012.jpg
838.637	1.358	correct	observe	Run1	observe/STIM_012.jpg
842.524	0.872	correct	observe	Run1	observe/STIM_012.jpg
846.217	1.311	incorrect	observe	Run1	observe/STIM_013.jpg
851.227	0.918	correct	observe	Run1	observe/STIM_013.jpg
855.128	0.911	correct	observe	Run1	observe/STIM_013.jpg
859.531	1.236	incorrect	observe	Run1	observe/STIM_013.jpg
864.693	1.127	correct	observe	Run1	observe/STIM_014.jpg
869.277	1.399	correct	observe	Run1	observe/STIM_014.jpg
873.459	0.864	correct	observe	Run1	observe/STIM_014.jpg
876.614	1.047	correct	observe	Run1	observe/STIM_014.jpg
880.287	1.255	correct	observe	Run1	observe/STIM_015.jpg
885.479	0.81	correct	observe	Run1	observe/STIM_015.jpg
890.035	1.4	correct	observe	Run1	observe/STIM_015.jpg
895.256	1.156	incorrect	observe	Run1	observe/STIM_015.jpg
899.032	0.745	correct	observe	Run1	observe/STIM_016.jpg
902.611	0.786	correct	observe	Run1	observe/STIM_016.jpg
907.115	0.955	correct	observe	Run1	observe/STIM_016.jpg
911.435	1.394	incorrect	observe	Run1	observe/STIM_016.jpg
916.429	0.894	incorrect	observe	Run1	observe/STIM_017.jpg
919.85	1.259	incorrect	observe	Run1	observe/STIM_017.jpg
925.215	1.239	correct	observe	Run1	observe/STIM_017.jpg
928.601	0.827	correct	observe	Run1	observe/STIM_017.jpg
932.673	1.165	correct	observe	Run1	observe/STIM_018.jpg
936.872	0.876	correct	observe	Run1	observe/STIM_018.jpg
941.04	1.171	correct	observe	Run1	observe/STIM_018.jpg
945.238	1.009	correct	observe	Run1	observe/STIM_018.jpg
949.092	0.792	correct	observe	Run1	observe/STIM_019.jpg
952.978	0.886	correct	observe	Run1	observe/STIM_019.jpg
956.474	1.17	correct	observe	Run1	observe/STIM_019.jpg
959.854	1.415	correct	observe	Run1	observe/STIM_019.jpg
964.123	1.63	correct	regulate	Run2	regulate/STIM_000.jpg
968.068	1.365	correct	regulate	Run2	regulate/STIM_000.jpg
972.652	1.877	correct	regulate	Run2	regulate/STIM_000.jpg
977.646	0.951	correct	regulate	Run2	regulate/STIM_000.jpg
981.044	2.053	correct	regulate	Run2	regulate/STIM_001.jpg
985.728	1.992	incorrect	regulate	Run2	regulate/STIM_001.jpg
990.724	1.286	correct	regulate	Run2	regulate/STIM_001.jpg
994.827	1.956	correct	regulate	Run2	regulate/STIM_001.jpg
1000.415	2.215	correct	regulate	Run2	regulate/STIM_002.jpg
1006.868	2.195	correct	regulate	Run2	regulate/STIM_002.jpg
1012.95	1.72	correct	regulate	Run2	regulate/STIM_002.jpg
1017.535	1.686	correct	regulate	Run2	regulate/STIM_002.jpg
1022.42	1.981	incorrect	regulate	Run2	regulate/STIM_003.jpg
1028.262	1.226	correct	regulate	Run2	regulate/STIM_003.jpg
1033.265	1.674	correct	regulate	Run2	regulate/STIM_003.jpg
1037.379	1.973	correct	regulate	Run2	regulate/STIM_003.jpg
1042.937	1.713	correct	regulate	Run2	regulate/STIM_004.jpg
1047.221	2.215	correct	regulate	Run2	regulate/STIM_004.jpg
1051.843	1.382	correct	regulate	Run2	regulate/STIM_004.jpg
1056.506	2.096	correct	regulate	Run2	regulate/STIM_004.jpg
1061.784	1.364	correct	regulate	Run2	regulate/STIM_005.jpg
1065.688	1.16	correct	regulate	Run2	regulate/STIM_005.jpg
1070.801	1.189	correct	regulate	Run2	regulate/STIM_005.jpg
1075.072	1.887	correct	regulate	Run2	regulate/STIM_005.jpg
1080.961	2.248	correct	regulate	Run2	regulate/STIM_006.jpg
1087.441	1.2	correct	regulate	Run2	regulate/STIM_006.jpg
1091.081	1.989	correct	regulate	Run2	regulate/STIM_006.jpg
1097.043	2.068	correct	regulate	Run2	regulate/STIM_006.jpg
1102.595	2.207	correct	regulate	Run2	regulate/STIM_007.jpg
1108.937	1.392	correct	regulate	Run2	regulate/STIM_007.jpg
1112.989	2.279	correct	regulate	Run2	regulate/STIM_007.jpg
1119.226	1.944	incorrect	regulate	Run2	regulate/STIM_007.jpg
1124.487	1.815	correct	regulate	Run2	regulate/STIM_008.jpg
1129.083	1.091	correct	regulate	Run2	regulate/STIM_008.jpg
1132.787	1.073	correct	regulate	Run2	regulate/STIM_008.jpg
1135.987	2.139	correct	regulate	Run2	regulate/STIM_008.jpg
1140.924	1.349	correct	regulate	Run2	regulate/STIM_009.jpg
1146.109	1.246	correct	regulate	Run2	regulate/STIM_009.jpg
1150.647	1.167	correct	regulate	Run2	regulate/STIM_009.jpg
1155.425	1.066	correct	regulate	Run2	regulate/STIM_009.jpg
1158.657	2.371	correct	regulate	Run2	regulate/STIM_010.jpg
1164.499	2.291	incorrect	regulate	Run2	regulate/STIM_010.jpg
1169.365	1.22	correct	regulate	Run2	regulate/STIM_010.jpg
1173.367	1.881	correct	regulate	Run2	regulate/STIM_010.jpg
1177.851	1.312	correct	regulate	Run2	regulate/STIM_011.jpg
1183.192	2.334	correct	regulate	Run2	regulate/STIM_011.jpg
1188.031	2.307	correct	regulate	Run2	regulate/STIM_011.jpg
1194.11	2.135	correct	regulate	Run2	regulate/STIM_011.jpg
1200.273	2.347	correct	regulate	Run2	regulate/STIM_012.jpg
1205.613	2.197	correct	regulate	Run2	regulate/STIM_012.jpg
1211.891	2.346	correct	regulate	Run2	regulate/STIM_012.jpg
1217.125	1.977	correct	regulate	Run2	regulate/STIM_012.jpg
1221.372	2.193	correct	regulate	Run2	regulate/STIM_013.jpg
1226.895	1.458	correct	regulate	Run2	regulate/STIM_013.jpg
1231.631	1.936	correct	regulate	Run2	regulate/STIM_013.jpg
1237.498	2.092	correct	regulate	Run2	regulate/STIM_013.jpg
1243.397	2.039	correct	regulate	Run2	regulate/STIM_014.jpg
1248.586	2.384	correct	regulate	Run2	regulate/STIM_014.jpg
1255.132	1.579	correct	regulate	Run2	regulate/STIM_014.jpg
1259.722	1.761	correct	regulate	Run2	regulate/STIM_014.jpg
1263.752	2.652	correct	regulate	Run2	regulate/STIM_015.jpg
1269.404	2.008	correct	regulate	Run2	regulate/STIM_015.jpg
1275.53	1.13	correct	regulate	Run2	regulate/STIM_015.jpg
1279.943	1.444	correct	regulate	Run2	regulate/STIM_015.jpg
1283.723	1.397	correct	regulate	Run2	regulate/STIM_016.jpg
1288.327	2.342	correct	regulate	Run2	regulate/STIM_016.jpg
1293.345	1.088	correct	regulate	Run2	regulate/STIM_016.jpg
1297.359	2.186	correct	regulate	Run2	regulate/STIM_016.jpg
1303.112	1.928	correct	regulate	Run2	regulate/STIM_017.jpg
1309.01	1.908	correct	regulate	Run2	regulate/STIM_017.jpg
1314.56	2.32	incorrect	regulate	Run2	regulate/STIM_017.jpg
1319.307	1.393	correct	regulate	Run2	regulate/STIM_017.jpg
1323.513	2.0	correct	regulate	Run2	regulate/STIM_018.jpg
1327.892	1.383	correct	regulate	Run2	regulate/STIM_018.jpg
1332.309	1.443	incorrect	regulate	Run2	regulate/STIM_018.jpg
1337.595	1.573	incorrect	regulate	Run2	regulate/STIM_018.jpg
1342.084	2.516	correct	regulate	Run2	regulate/STIM_019.jpg
1347.65	2.029	incorrect	regulate	Run2	regulate/STIM_019.jpg
1352.855	1.757	correct	regulate	Run2	regulate/STIM_019.jpg
1357.049	1.826	correct	regulate	Run2	regulate/STIM_019.jpg
1362.585	1.793	correct	regulate	Run2	regulate/STIM_020.jpg
1368.128	2.014	correct	regulate	Run2	regulate/STIM_020.jpg
1374.403	1.517	correct	regulate	Run2	regulate/STIM_020.jpg
1379.285	1.59	correct	regulate	Run2	regulate/STIM_020.jpg
1384.347	2.547	correct	regulate	Run2	regulate/STIM_021.jpg
1389.178	1.205	correct	regulate	Run2	regulate/STIM_021.jpg
1393.082	2.062	correct	regulate	Run2	regulate/STIM_021.jpg
1398.469	0.998	correct	regulate	Run2	regulate/STIM_021.jpg
1401.954	2.008	correct	regulate	Run2	regulate/STIM_022.jpg
1408.031	2.11	correct	regulate	Run2	regulate/STIM_022.jpg
1414.196	2.18	correct	regulate	Run2	regulate/STIM_022.jpg
1418.61	1.47	correct	regulate	Run2	regulate/STIM_022.jpg
1423.12	2.282	correct	regulate	Run2	regulate/STIM_023.jpg
1428.806	2.273	correct	regulate	Run2	regulate/STIM_023.jpg
1434.619	2.291	correct	regulate	Run2	regulate/STIM_023.jpg
1439.449	1.497	correct	regulate	Run2	regulate/STIM_023.jpg
1444.478	2.075	correct	regulate	Run2	regulate/STIM_024.jpg
1449.875	2.374	correct	regulate	Run2	regulate/STIM_024.jpg
1455.76	2.045	correct	regulate	Run2	regulate/STIM_024.jpg
1461.742	1.911	correct	regulate	Run2	regulate/STIM_024.jpg
1467.249	1.436	correct	regulate	Run2	regulate/STIM_025.jpg
1472.435	1.546	correct	regulate	Run2	regulate/STIM_025.jpg
1477.952	1.664	correct	regulate	Run2	regulate/STIM_025.jpg
1483.625	1.626	correct	regulate	Run2	regulate/STIM_025.jpg
1488.431	1.977	correct	regulate	Run2	regulate/STIM_026.jpg
1494.293	2.362	correct	regulate	Run2	regulate/STIM_026.jpg
1500.038	1.538	correct	regulate	Run2	regulate/STIM_026.jpg
1504.985	1.186	correct	regulate	Run2	regulate/STIM_026.jpg
1509.411	1.718	correct	regulate	Run2	regulate/STIM_027.jpg
1514.743	1.727	correct	regulate	Run2	regulate/STIM_027.jpg
1520.341	1.739	correct	regulate	Run2	regulate/STIM_027.jpg
1524.459	1.247	correct	regulate	Run2	regulate/STIM_027.jpg
1529.46	1.264	correct	regulate	Run2	regulate/STIM_028.jpg
1533.97	2.394	correct	regulate	Run2	regulate/STIM_028.jpg
1538.813	1.288	correct	regulate	Run2	regulate/STIM_028.jpg
1542.416	1.994	incorrect	regulate	Run2	regulate/STIM_028.jpg
1548.071	2.191	incorrect	regulate	Run2	regulate/STIM_029.jpg
1554.106	1.66	correct	regulate	Run2	regulate/STIM_029.jpg
1558.363	1.72	correct	regulate	Run2	regulate/STIM_029.jpg
1562.782	1.948	correct	regulate	Run2	regulate/STIM_029.jpg
1567.625	1.043	correct	observe	Run2	observe/STIM_000.jpg
1571.655	0.769	correct	observe	Run2	observe/STIM_000.jpg
1576.091	1.411	correct	observe	Run2	observe/STIM_000.jpg
1579.673	0.904	correct	observe	Run2	observe/STIM_000.jpg
1583.912	0.926	incorrect	observe	Run2	observe/STIM_001.jpg
1588.655	1.428	correct	observe	Run2	observe/STIM_001.jpg
1593.091	1.457	correct	observe	Run2	observe/STIM_001.jpg
1596.877	1.281	incorrect	observe	Run2	observe/STIM_001.jpg
1601.153	1.437	correct	observe	Run2	observe/STIM_002.jpg
1605.006	0.906	correct	observe	Run2	observe/STIM_002.jpg
1608.377	1.06	incorrect	observe	Run2	observe/STIM_002.jpg
1613.431	1.226	incorrect	observe	Run2	observe/STIM_002.jpg
1616.864	0.989	correct	observe	Run2	observe/STIM_003.jpg
1621.066	1.465	incorrect	observe	Run2	observe/STIM_003.jpg
1626.474	1.121	correct	observe	Run2	observe/STIM_003.jpg
1631.534	0.998	correct	observe	Run2	observe/STIM_003.jpg
1636.208	1.28	correct	observe	Run2	observe/STIM_004.jpg
1640.024	0.96	correct	observe	Run2	observe/STIM_004.jpg
1643.759	1.104	correct	observe	Run2	observe/STIM_004.jpg
1647.744	0.979	incorrect	observe	Run2	observe/STIM_004.jpg
1652.598	0.796	correct	observe	Run2	observe/STIM_005.jpg
1656.069	1.094	correct	observe	Run2	observe/STIM_005.jpg
1660.425	0.911	correct	observe	Run2	observe/STIM_005.jpg
1664.209	1.206	correct	observe	Run2	observe/STIM_005.jpg
1668.818	0.762	correct	observe	Run2	observe/STIM_006.jpg
1673.552	0.96	incorrect	observe	Run2	observe/STIM_006.jpg
1677.17	0.842	incorrect	observe	Run2	observe/STIM_006.jpg
1680.383	1.43	correct	observe	Run2	observe/STIM_006.jpg
1685.826	0.833	correct	observe	Run2	observe/STIM_007.jpg
1688.815	1.279	incorrect	observe	Run2	observe/STIM_007.jpg
1693.819	0.967	correct	observe	Run2	observe/STIM_007.jpg
1697.62	0.997	correct	observe	Run2	observe/STIM_007.jpg
1701.628	0.692	correct	observe	Run2	observe/STIM_008.jpg
1704.612	1.092	correct	observe	Run2	observe/STIM_008.jpg
1708.158	1.2	correct	observe	Run2	observe/STIM_008.jpg
1712.881	1.169	correct	observe	Run2	observe/STIM_008.jpg
1717.515	1.435	correct	observe	Run2	observe/STIM_009.jpg
1722.935	0.931	correct	observe	Run2	observe/STIM_009.jpg
1726.694	0.736	correct	observe	Run2	observe/STIM_009.jpg
1730.15	0.942	correct	observe	Run2	observe/STIM_009.jpg
1733.373	1.109	correct	observe	Run2	observe/STIM_010.jpg
1737.092	0.98	incorrect	observe	Run2	observe/STIM_010.jpg
1741.301	0.987	incorrect	observe	Run2	observe/STIM_010.jpg
1744.558	0.888	correct	observe	Run2	observe/STIM_010.jpg
1748.787	1.03	correct	observe	Run2	observe/STIM_011.jpg
1752.4	1.042	incorrect	observe	Run2	observe/STIM_011.jpg
1756.61	1.282	correct	observe	Run2	observe/STIM_011.jpg
1760.694	1.264	correct	observe	Run2	observe/STIM_011.jpg
1764.652	1.342	correct	observe	Run2	observe/STIM_012.jpg
1769.096	1.224	correct	observe	Run2	observe/STIM_012.jpg
1774.047	1.338	correct	observe	Run2	observe/STIM_012.jpg
1779.141	1.05	incorrect	observe	Run2	observe/STIM_012.jpg
1783.466	1.193	correct	observe	Run2	observe/STIM_013.jpg
1787.005	0.719	correct	observe	Run2	observe/STIM_013.jpg
1790.328	1.349	correct	observe	Run2	observe/STIM_013.jpg
1794.313	1.14	correct	observe	Run2	observe/STIM_013.jpg
1798.186	1.272	correct	observe	Run2	observe/STIM_014.jpg
1802.851	1.232	correct	observe	Run2	observe/STIM_014.jpg
1807.606	0.794	correct	observe	Run2	observe/STIM_014.jpg
1811.451	1.273	correct	observe	Run2	observe/STIM_014.jpg
1816.631	1.158	correct	observe	Run2	observe/STIM_015.jpg
1821.83	1.203	incorrect	observe	Run2	observe/STIM_015.jpg
1826.149	1.312	correct	observe	Run2	observe/STIM_015.jpg
1831.468	0.847	correct	observe	Run2	observe/STIM_015.jpg
1834.799	1.006	correct	observe	Run2	observe/STIM_016.jpg
1839.784	0.79	correct	observe	Run2	observe/STIM_016.jpg
1843.86	1.188	correct	observe	Run2	observe/STIM_016.jpg
1847.671	1.0	correct	observe	Run2	observe/STIM_016.jpg
1852.086	0.798	correct	observe	Run2	observe/STIM_017.jpg
1855.822	1.451	correct	observe	Run2	observe/STIM_017.jpg
1860.207	1.214	correct	observe	Run2	observe/STIM_017.jpg
1863.8	1.344	incorrect	observe	Run2	observe/STIM_017.jpg
1869.166	1.163	correct	observe	Run2	observe/STIM_018.jpg
1873.892	1.147	correct	observe	Run2	observe/STIM_018.jpg
1878.424	1.177	incorrect	observe	Run2	observe/STIM_018.jpg
1883.369	1.299	correct	observe	Run2	observe/STIM_018.jpg
1887.572	1.226	correct	observe	Run2	observe/STIM_019.jpg
1891.332	1.397	correct	observe	Run2	observe/STIM_019.jpg
1896.139	0.817	correct	observe	Run2	observe/STIM_019.jpg
1900.383	1.288	correct	observe	Run2	observe/STIM_019.jpg
1905.787	1.721	correct	regulate	Run3	regulate/STIM_000.jpg
1910.187	1.898	correct	regulate	Run3	regulate/STIM_000.jpg
1915.422	1.21	correct	regulate	Run3	regulate/STIM_000.jpg
1920.501	1.165	correct	regulate	Run3	regulate/STIM_000.jpg
1924.34	1.831	correct	regulate	Run3	regulate/STIM_001.jpg
1929.456	1.981	correct	regulate	Run3	regulate/STIM_001.jpg
1934.96	0.939	correct	regulate	Run3	regulate/STIM_001.jpg
1939.787	1.714	correct	regulate	Run3	regulate/STIM_001.jpg
1945.609	1.877	correct	regulate	Run3	regulate/STIM_002.jpg
1949.787	2.096	correct	regulate	Run3	regulate/STIM_002.jpg
1955.554	1.675	correct	regulate	Run3	regulate/STIM_002.jpg
1960.451	1.6	correct	regulate	Run3	regulate/STIM_002.jpg
1965.943	1.51	correct	regulate	Run3	regulate/STIM_003.jpg
1969.922	1.388	correct	regulate	Run3	regulate/STIM_003.jpg
1974.715	1.367	correct	regulate	Run3	regulate/STIM_003.jpg
1979.112	1.774	incorrect	regulate	Run3	regulate/STIM_003.jpg
1984.504	1.151	correct	regulate	Run3	regulate/STIM_004.jpg
1988.59	1.945	correct	regulate	Run3	regulate/STIM_004.jpg
1993.253	1.899	correct	regulate	Run3	regulate/STIM_004.jpg
1998.744	1.008	correct	regulate	Run3	regulate/STIM_004.jpg
2002.354	1.785	correct	regulate	Run3	regulate/STIM_005.jpg
2008.148	1.001	correct	regulate	Run3	regulate/STIM_005.jpg
2012.191	1.804	correct	regulate	Run3	regulate/STIM_005.jpg
2016.661	1.191	correct	regulate	Run3	regulate/STIM_005.jpg
2020.492	1.466	correct	regulate	Run3	regulate/STIM_006.jpg
2026.146	1.294	correct	regulate	Run3	regulate/STIM_006.jpg
2030.329	1.332	correct	regulate	Run3	regulate/STIM_006.jpg
2034.756	2.076	correct	regulate	Run3	regulate/STIM_006.jpg
2040.732	2.011	correct	regulate	Run3	regulate/STIM_007.jpg
2046.821	1.476	correct	regulate	Run3	regulate/STIM_007.jpg
2051.276	1.795	correct	regulate	Run3	regulate/STIM_007.jpg
2055.581	1.15	correct	regulate	Run3	regulate/STIM_007.jpg
2060.826	1.35	correct	regulate	Run3	regulate/STIM_008.jpg
2065.586	1.889	correct	regulate	Run3	regulate/STIM_008.jpg
2069.841	1.662	correct	regulate	Run3	regulate/STIM_008.jpg
2075.266	1.319	correct	regulate	Run3	regulate/STIM_008.jpg
2079.871	1.396	incorrect	regulate	Run3	regulate/STIM_009.jpg
2083.892	1.716	correct	regulate	Run3	regulate/STIM_009.jpg
2088.841	1.31	correct	regulate	Run3	regulate/STIM_009.jpg
2093.959	1.951	correct	regulate	Run3	regulate/STIM_009.jpg
2098.448	1.436	correct	regulate	Run3	regulate/STIM_010.jpg
2104.072	2.001	correct	regulate	Run3	regulate/STIM_010.jpg
2108.594	1.069	correct	regulate	Run3	regulate/STIM_010.jpg
2113.556	1.401	correct	regulate	Run3	regulate/STIM_010.jpg
2117.732	1.005	incorrect	regulate	Run3	regulate/STIM_011.jpg
2122.227	1.001	correct	regulate	Run3	regulate/STIM_011.jpg
2127.116	2.014	correct	regulate	Run3	regulate/STIM_011.jpg
2131.59	2.144	correct	regulate	Run3	regulate/STIM_011.jpg
2137.919	1.845	correct	regulate	Run3	regulate/STIM_012.jpg
2143.367	1.912	correct	regulate	Run3	regulate/STIM_012.jpg
2148.181	1.31	correct	regulate	Run3	regulate/STIM_012.jpg
2152.552	1.402	correct	regulate	Run3	regulate/STIM_012.jpg
2157.43	1.092	correct	regulate	Run3	regulate/STIM_013.jpg
2161.222	1.914	correct	regulate	Run3	regulate/STIM_013.jpg
2165.769	2.023	correct	regulate	Run3	regulate/STIM_013.jpg
2171.21	1.736	correct	regulate	Run3	regulate/STIM_013.jpg
2176.149	0.915	correct	regulate	Run3	regulate/STIM_014.jpg
2180.551	1.51	incorrect	regulate	Run3	regulate/STIM_014.jpg
2185.763	2.049	correct	regulate	Run3	regulate/STIM_014.jpg
2191.687	1.428	correct	regulate	Run3	regulate/STIM_014.jpg
2196.446	1.684	correct	regulate	Run3	regulate/STIM_015.jpg
2201.296	1.62	correct	regulate	Run3	regulate/STIM_015.jpg
2205.515	1.288	correct	regulate	Run3	regulate/STIM_015.jpg
2210.701	1.351	correct	regulate	Run3	regulate/STIM_015.jpg
2214.613	1.577	correct	regulate	Run3	regulate/STIM_016.jpg
2219.649	2.161	correct	regulate	Run3	regulate/STIM_016.jpg
2225.162	0.988	incorrect	regulate	Run3	regulate/STIM_016.jpg
2228.515	1.036	correct	regulate	Run3	regulate/STIM_016.jpg
2232.778	1.85	correct	regulate	Run3	regulate/STIM_017.jpg
2237.676	1.249	correct	regulate	Run3	regulate/STIM_017.jpg
2242.016	2.028	correct	regulate	Run3	regulate/STIM_017.jpg
2247.516	1.771	correct	regulate	Run3	regulate/STIM_017.jpg
2253.171	2.102	correct	regulate	Run3	regulate/STIM_018.jpg
2258.304	1.529	correct	regulate	Run3	regulate/STIM_018.jpg
2263.725	2.013	correct	regulate	Run3	regulate/STIM_018.jpg
2268.618	1.17	correct	regulate	Run3	regulate/STIM_018.jpg
2272.684	0.982	incorrect	regulate	Run3	regulate/STIM_019.jpg
2276.014	1.176	correct	regulate	Run3	regulate/STIM_019.jpg
2280.931	2.022	correct	regulate	Run3	regulate/STIM_019.jpg
2287.008	1.822	correct	regulate	Run3	regulate/STIM_019.jpg
2292.175	1.863	correct	regulate	Run3	regulate/STIM_020.jpg
2297.804	1.08	correct	regulate	Run3	regulate/STIM_020.jpg
2301.193	1.89	correct	regulate	Run3	regulate/STIM_020.jpg
2305.621	1.013	correct	regulate	Run3	regulate/STIM_020.jpg
2310.475	0.973	correct	regulate	Run3	regulate/STIM_021.jpg
2313.755	2.073	correct	regulate	Run3	regulate/STIM_021.jpg
2319.116	1.692	correct	regulate	Run3	regulate/STIM_021.jpg
2323.513	2.094	correct	regulate	Run3	regulate/STIM_021.jpg
2327.868	0.928	correct	regulate	Run3	regulate/STIM_022.jpg
2331.997	1.112	correct	regulate	Run3	regulate/STIM_022.jpg
2337.057	1.06	correct	regulate	Run3	regulate/STIM_022.jpg
2340.338	1.664	correct	regulate	Run3	regulate/STIM_022.jpg
2345.172	1.741	correct	regulate	Run3	regulate/STIM_023.jpg
2350.522	2.107	correct	regulate	Run3	regulate/STIM_023.jpg
2356.033	1.963	correct	regulate	Run3	regulate/STIM_023.jpg
2361.35	2.096	correct	regulate	Run3	regulate/STIM_023.jpg
2367.653	1.36	correct	regulate	Run3	regulate/STIM_024.jpg
2371.985	1.551	correct	regulate	Run3	regulate/STIM_024.jpg
2376.183	1.028	correct	regulate	Run3	regulate/STIM_024.jpg
2379.607	1.02	correct	regulate	Run3	regulate/STIM_024.jpg
2384.343	2.233	incorrect	regulate	Run3	regulate/STIM_025.jpg
2389.664	1.224	correct	regulate	Run3	regulate/STIM_025.jpg
2393.81	1.644	correct	regulate	Run3	regulate/STIM_025.jpg
2398.442	1.419	correct	regulate	Run3	regulate/STIM_025.jpg
2402.956	1.968	correct	regulate	Run3	regulate/STIM_026.jpg
2407.741	1.294	correct	regulate	Run3	regulate/STIM_026.jpg
2413.095	2.018	correct	regulate	Run3	regulate/STIM_026.jpg
2418.327	2.181	incorrect	regulate	Run3	regulate/STIM_026.jpg
2424.002	2.058	correct	regulate	Run3	regulate/STIM_027.jpg
2428.326	1.278	correct	regulate	Run3	regulate/STIM_027.jpg
2432.745	1.19	correct	regulate	Run3	regulate/STIM_027.jpg
2437.106	2.07	correct	regulate	Run3	regulate/STIM_027.jpg
2442.121	0.99	correct	regulate	Run3	regulate/STIM_028.jpg
2446.16	1.56	correct	regulate	Run3	regulate/STIM_028.jpg
2450.933	2.121	correct	regulate	Run3	regulate/STIM_028.jpg
2456.139	1.97	correct	regulate	Run3	regulate/STIM_028.jpg
2460.911	1.452	correct	regulate	Run3	regulate/STIM_029.jpg
2465.23	1.655	correct	regulate	Run3	regulate/STIM_029.jpg
2470.115	1.301	correct	regulate	Run3	regulate/STIM_029.jpg
2475.347	1.663	correct	regulate	Run3	regulate/STIM_029.jpg
2480.407	0.8	correct	observe	Run3	observe/STIM_000.jpg
2484.915	0.718	correct	observe	Run3	observe/STIM_000.jpg
2488.925	0.964	correct	observe	Run3	observe/STIM_000.jpg
2493.22	1.035	correct	observe	Run3	observe/STIM_000.jpg
2497.784	0.809	correct	observe	Run3	observe/STIM_001.jpg
2501.976	0.939	correct	observe	Run3	observe/STIM_001.jpg
2506.13	0.878	incorrect	observe	Run3	observe/STIM_001.jpg
2509.484	0.869	incorrect	observe	Run3	observe/STIM_001.jpg
2513.084	0.804	correct	observe	Run3	observe/STIM_002.jpg
2517.348	0.995	correct	observe	Run3	observe/STIM_002.jpg
2520.802	0.845	correct	observe	Run3	observe/STIM_002.jpg
2524.96	1.195	correct	observe	Run3	observe/STIM_002.jpg
2529.09	1.022	correct	observe	Run3	observe/STIM_003.jpg
2532.861	1.375	correct	observe	Run3	observe/STIM_003.jpg
2538.269	0.939	correct	observe	Run3	observe/STIM_003.jpg
2541.414	0.926	correct	observe	Run3	observe/STIM_003.jpg
2545.737	0.763	correct	observe	Run3	observe/STIM_004.jpg
2548.895	1.212	correct	observe	Run3	observe/STIM_004.jpg
2553.418	0.902	correct	observe	Run3	observe/STIM_004.jpg
2557.677	0.756	correct	observe	Run3	observe/STIM_004.jpg
2560.89	0.861	incorrect	observe	Run3	observe/STIM_005.jpg
2565.831	0.924	correct	observe	Run3	observe/STIM_005.jpg
2570.507	1.015	correct	observe	Run3	observe/STIM_005.jpg
2574.777	1.148	correct	observe	Run3	observe/STIM_005.jpg
2579.379	1.01	correct	observe	Run3	observe/STIM_006.jpg
2582.589	1.105	correct	observe	Run3	observe/STIM_006.jpg
2586.229	1.27	correct	observe	Run3	observe/STIM_006.jpg
2590.555	1.07	correct	observe	Run3	observe/STIM_006.jpg
2594.601	1.307	correct	observe	Run3	observe/STIM_007.jpg
2598.882	1.132	correct	observe	Run3	observe/STIM_007.jpg
2603.696	0.741	correct	observe	Run3	observe/STIM_007.jpg
2607.271	0.872	correct	observe	Run3	observe/STIM_007.jpg
2611.82	0.849	correct	observe	Run3	observe/STIM_008.jpg
2614.97	0.924	correct	observe	Run3	observe/STIM_008.jpg
2619.954	1.213	correct	observe	Run3	observe/STIM_008.jpg
2623.685	1.058	correct	observe	Run3	observe/STIM_008.jpg
2628.33	1.177	correct	observe	Run3	observe/STIM_009.jpg
2632.232	1.09	correct	observe	Run3	observe/STIM_009.jpg
2635.683	1.13	correct	observe	Run3	observe/STIM_009.jpg
2639.311	1.211	correct	observe	Run3	observe/STIM_009.jpg
2643.271	1.182	correct	observe	Run3	observe/STIM_010.jpg
2647.169	0.892	correct	observe	Run3	observe/STIM_010.jpg
2650.889	0.816	correct	observe	Run3	observe/STIM_010.jpg
2655.016	1.184	incorrect	observe	Run3	observe/STIM_010.jpg
2660.038	1.214	correct	observe	Run3	observe/STIM_011.jpg
2663.861	1.216	correct	observe	Run3	observe/STIM_011.jpg
2668.643	1.404	correct	observe	Run3	observe/STIM_011.jpg
2674.204	1.488	correct	observe	Run3	observe/STIM_011.jpg
2679.566	0.869	correct	observe	Run3	observe/STIM_012.jpg
2683.335	1.208	incorrect	observe	Run3	observe/STIM_012.jpg
2687.708	1.188	correct	observe	Run3	observe/STIM_012.jpg
2692.224	0.729	correct	observe	Run3	observe/STIM_012.jpg
2696.063	0.768	incorrect	observe	Run3	observe/STIM_013.jpg
2699.184	0.627	correct	observe	Run3	observe/STIM_013.jpg
2702.641	1.003	correct	observe	Run3	observe/STIM_013.jpg
2707.463	1.126	correct	observe	Run3	observe/STIM_013.jpg
2712.55	1.006	incorrect	observe	Run3	observe/STIM_014.jpg
2716.721	0.978	correct	observe	Run3	observe/STIM_014.jpg
2719.818	0.738	correct	observe	Run3	observe/STIM_014.jpg
2724.539	1.114	correct	observe	Run3	observe/STIM_014.jpg
2728.072	0.788	correct	observe	Run3	observe/STIM_015.jpg
2733.002	1.268	correct	observe	Run3	observe/STIM_015.jpg
2737.633	0.948	correct	observe	Run3	observe/STIM_015.jpg
2741.176	1.329	correct	observe	Run3	observe/STIM_015.jpg
2745.875	1.181	correct	observe	Run3	observe/STIM_016.jpg
2751.042	0.892	correct	observe	Run3	observe/STIM_016.jpg
2754.407	1.238	correct	observe	Run3	observe/STIM_016.jpg
2757.798	1.135	correct	observe	Run3	observe/STIM_016.jpg
2762.564	0.917	correct	observe	Run3	observe/STIM_017.jpg
2765.931	1.038	correct	observe	Run3	observe/STIM_017.jpg
2769.102	1.279	correct	observe	Run3	observe/STIM_017.jpg
2774.426	1.196	correct	observe	Run3	observe/STIM_017.jpg
2779.388	0.901	incorrect	observe	Run3	observe/STIM_018.jpg
2783.625	1.439	incorrect	observe	Run3	observe/STIM_018.jpg
2787.335	1.122	correct	observe	Run3	observe/STIM_018.jpg
2791.173	1.2	correct	observe	Run3	observe/STIM_018.jpg
2795.273	0.796	correct	observe	Run3	observe/STIM_019.jpg
2798.65	0.896	correct	observe	Run3	observe/STIM_019.jpg
2801.836	0.922	correct	observe	Run3	observe/STIM_019.jpg
2804.834	1.097	correct	observe	Run3	observe/STIM_019.jpg
