onset	duration	response_time_ms	trial_type	learning_stage	stimulus	response_port
0.0	2.433	2432.9	regulate	Run1	regulate/STIM_000.jpg	99
6.186	3.024	3024.4	regulate	Run1	regulate/STIM_000.jpg	100
12.418	2.2	2200.5	regulate	Run1	regulate/STIM_000.jpg	99
18.13	1.654	1654.1	regulate	Run1	regulate/STIM_000.jpg	99
22.044	2.316	2315.6	regulate	Run1	regulate/STIM_001.jpg	99
26.949	2.888	2888.5	regulate	Run1	regulate/STIM_001.jpg	99
32.325	1.662	1661.8	regulate	Run1	regulate/STIM_001.jpg	100
37.295	1.872	1872.4	regulate	Run1	regulate/STIM_001.jpg	100
42.558	2.403	2403.3	regulate	Run1	regulate/STIM_002.jpg	99
47.115	1.66	1660.2	regulate	Run1	regulate/STIM_002.jpg	99
51.074	1.477	1476.9	regulate	Run1	regulate/STIM_002.jpg	99
54.972	1.945	1945.2	regulate	Run1	regulate/STIM_002.jpg	100
60.052	1.741	1741.0	regulate	Run1	regulate/STIM_003.jpg	99
64.371	3.051	3050.8	regulate	Run1	regulate/STIM_003.jpg	100
70.486	1.462	1462.2	regulate	Run1	regulate/STIM_003.jpg	99
75.43	1.417	1417.2	regulate	Run1	regulate/STIM_003.jpg	99
79.209	1.575	1575.3	regulate	Run1	regulate/STIM_004.jpg	99
84.246	1.691	1690.6	regulate	Run1	regulate/STIM_004.jpg	99
89.813	2.122	2121.7	regulate	Run1	regulate/STIM_004.jpg	99
94.468	1.338	1338.3	regulate	Run1	regulate/STIM_004.jpg	100
99.309	3.061	3060.9	regulate	Run1	regulate/STIM_005.jpg	99
105.515	3.043	3042.9	regulate	Run1	regulate/STIM_005.jpg	100
110.966	2.811	2810.7	regulate	Run1	regulate/STIM_005.jpg	100
117.72	2.752	2752.4	regulate	Run1	regulate/STIM_005.jpg	100
124.407	1.889	1889.3	regulate	Run1	regulate/STIM_006.jpg	100
128.972	3.001	3001.0	regulate	Run1	regulate/STIM_006.jpg	100
134.339	2.313	2313.0	regulate	Run1	regulate/STIM_006.jpg	100
139.81	2.338	2338.4	regulate	Run1	regulate/STIM_006.jpg	100
144.295	2.273	2272.6	regulate	Run1	regulate/STIM_007.jpg	99
149.397	2.907	2907.2	regulate	Run1	regulate/STIM_007.jpg	100
156.195	1.78	1779.6	regulate	Run1	regulate/STIM_007.jpg	100
161.777	1.838	1837.5	regulate	Run1	regulate/STIM_007.jpg	100
167.226	1.69	1690.2	regulate	Run1	regulate/STIM_008.jpg	100
171.552	2.903	2903.2	regulate	Run1	regulate/STIM_008.jpg	100
176.872	2.22	2220.5	regulate	Run1	regulate/STIM_008.jpg	100
182.075	1.663	1662.8	regulate	Run1	regulate/STIM_008.jpg	99
186.873	2.556	2556.1	regulate	Run1	regulate/STIM_009.jpg	99
193.224	1.658	1658.0	regulate	Run1	regulate/STIM_009.jpg	99
197.213	2.818	2817.6	regulate	Run1	regulate/STIM_009.jpg	100
203.183	1.326	1325.8	regulate	Run1	regulate/STIM_009.jpg	100
207.356	2.221	2220.8	regulate	Run1	regulate/STIM_010.jpg	99
212.83	2.744	2744.0	regulate	Run1	regulate/STIM_010.jpg	100
218.963	2.951	2950.6	regulate	Run1	regulate/STIM_010.jpg	99
224.697	2.08	2079.8	regulate	Run1	regulate/STIM_010.jpg	100
230.483	3.072	3072.1	regulate	Run1	regulate/STIM_011.jpg	100
236.804	3.259	3258.7	regulate	Run1	regulate/STIM_011.jpg	99
243.854	1.97	1970.3	regulate	Run1	regulate/STIM_011.jpg	100
248.092	2.113	2112.8	regulate	Run1	regulate/STIM_011.jpg	100
254.019	3.199	3198.7	regulate	Run1	regulate/STIM_012.jpg	100
259.362	3.023	3022.9	regulate	Run1	regulate/STIM_012.jpg	99
265.594	2.334	2333.6	regulate	Run1	regulate/STIM_012.jpg	100
270.547	1.572	1572.2	regulate	Run1	regulate/STIM_012.jpg	100
275.009	2.313	2312.8	regulate	Run1	regulate/STIM_013.jpg	100
280.067	1.569	1569.2	regulate	Run1	regulate/STIM_013.jpg	100
284.158	1.486	1485.8	regulate	Run1	regulate/STIM_013.jpg	99
288.19	2.051	2051.1	regulate	Run1	regulate/STIM_013.jpg	99
293.017	3.434	3434.0	regulate	Run1	regulate/STIM_014.jpg	99
299.177	3.224	3223.9	regulate	Run1	regulate/STIM_014.jpg	100
305.936	2.195	2195.1	regulate	Run1	regulate/STIM_014.jpg	99
311.284	2.176	2176.4	regulate	Run1	regulate/STIM_014.jpg	100
316.791	2.204	2204.2	regulate	Run1	regulate/STIM_015.jpg	99
322.806	2.782	2781.8	regulate	Run1	regulate/STIM_015.jpg	100
327.689	3.047	3047.4	regulate	Run1	regulate/STIM_015.jpg	99
334.266	1.626	1625.9	regulate	Run1	regulate/STIM_015.jpg	100
338.367	3.325	3325.2	regulate	Run1	regulate/STIM_016.jpg	100
344.876	1.588	1588.2	regulate	Run1	regulate/STIM_016.jpg	100
349.491	2.672	2672.4	regulate	Run1	regulate/STIM_016.jpg	100
355.318	2.624	2624.2	regulate	Run1	regulate/STIM_016.jpg	100
360.654	2.865	2865.0	regulate	Run1	regulate/STIM_017.jpg	99
366.088	2.668	2668.3	regulate	Run1	regulate/STIM_017.jpg	100
371.66	1.795	1794.9	regulate	Run1	regulate/STIM_017.jpg	99
376.158	2.118	2118.5	regulate	Run1	regulate/STIM_017.jpg	99
381.588	2.466	2466.3	regulate	Run1	regulate/STIM_018.jpg	100
386.741	2.682	2681.8	regulate	Run1	regulate/STIM_018.jpg	99
393.012	2.06	2060.0	regulate	Run1	regulate/STIM_018.jpg	100
398.856	1.734	1733.7	regulate	Run1	regulate/STIM_018.jpg	100
404.346	2.536	2535.5	regulate	Run1	regulate/STIM_019.jpg	99
409.141	2.922	2922.3	regulate	Run1	regulate/STIM_019.jpg	100
415.989	3.06	3060.5	regulate	Run1	regulate/STIM_019.jpg	99
422.132	2.011	2011.2	regulate	Run1	regulate/STIM_019.jpg	100
427.11	1.699	1699.4	regulate	Run1	regulate/STIM_020.jpg	99
432.46	3.145	3144.7	regulate	Run1	regulate/STIM_020.jpg	100
439.039	2.408	2408.5	regulate	Run1	regulate/STIM_020.jpg	100
444.895	2.395	2394.6	regulate	Run1	regulate/STIM_020.jpg	100
450.79	1.554	1553.5	regulate	Run1	regulate/STIM_021.jpg	100
454.764	1.609	1608.7	regulate	Run1	regulate/STIM_021.jpg	100
459.02	2.845	2844.8	regulate	Run1	regulate/STIM_021.jpg	100
463.925	2.47	2470.0	regulate	Run1	regulate/STIM_021.jpg	99
469.394	2.644	2643.7	regulate	Run1	regulate/STIM_022.jpg	99
475.576	2.174	2173.9	regulate	Run1	regulate/STIM_022.jpg	100
479.891	1.708	1708.3	regulate	Run1	regulate/STIM_022.jpg	100
485.137	2.314	2314.5	regulate	Run1	regulate/STIM_022.jpg	99
491.364	1.511	1511.0	regulate	Run1	regulate/STIM_023.jpg	99
495.066	1.605	1604.7	regulate	Run1	regulate/STIM_023.jpg	100
499.067	2.341	2340.8	regulate	Run1	regulate/STIM_023.jpg	99
505.018	2.083	2082.7	regulate	Run1	regulate/STIM_023.jpg	99
509.729	2.918	2918.1	regulate	Run1	regulate/STIM_024.jpg	100
516.162	2.934	2934.4	regulate	Run1	regulate/STIM_024.jpg	100
521.648	2.991	2990.8	regulate	Run1	regulate/STIM_024.jpg	100
527.213	1.917	1917.3	regulate	Run1	regulate/STIM_024.jpg	100
532.751	2.15	2149.6	regulate	Run1	regulate/STIM_025.jpg	99
536.943	1.775	1775.4	regulate	Run1	regulate/STIM_025.jpg	100
542.353	1.37	1370.4	regulate	Run1	regulate/STIM_025.jpg	99
546.54	2.426	2426.2	regulate	Run1	regulate/STIM_025.jpg	100
552.768	1.82	1819.8	regulate	Run1	regulate/STIM_026.jpg	100
558.187	2.712	2711.8	regulate	Run1	regulate/STIM_026.jpg	99
564.793	1.619	1619.2	regulate	Run1	regulate/STIM_026.jpg	100
568.789	2.591	2590.8	regulate	Run1	regulate/STIM_026.jpg	99
574.107	2.997	2996.9	regulate	Run1	regulate/STIM_027.jpg	100
580.139	3.223	3223.2	regulate	Run1	regulate/STIM_027.jpg	99
586.714	2.673	2672.8	regulate	Run1	regulate/STIM_027.jpg	100
592.741	2.51	2510.4	regulate	Run1	regulate/STIM_027.jpg	100
597.75	2.96	2959.9	regulate	Run1	regulate/STIM_028.jpg	100
604.403	2.117	2117.4	regulate	Run1	regulate/STIM_028.jpg	100
609.253	2.048	2048.3	regulate	Run1	regulate/STIM_028.jpg	99
615.138	1.665	1664.6	regulate	Run1	regulate/STIM_028.jpg	99
618.916	2.106	2106.0	regulate	Run1	regulate/STIM_029.jpg	99
624.691	1.889	1889.1	regulate	Run1	regulate/STIM_029.jpg	99
629.846	2.047	2047.2	regulate	Run1	regulate/STIM_029.jpg	99
635.261	2.7	2699.7	regulate	Run1	regulate/STIM_029.jpg	99
640.996	0.87	870.2	observe	Run1	observe/STIM_000.jpg	100
645.52	1.016	1016.0	observe	Run1	observe/STIM_000.jpg	99
649.948	0.916	916.5	observe	Run1	observe/STIM_000.jpg	100
654.354	1.281	1281.4	observe	Run1	observe/STIM_000.jpg	99
659.318	1.482	1481.7	observe	Run1	observe/STIM_001.jpg	99
663.778	0.8	799.6	observe	Run1	observe/STIM_001.jpg	100
666.904	1.364	1364.0	observe	Run1	observe/STIM_001.jpg	99
672.031	0.889	889.2	observe	Run1	observe/STIM_001.jpg	99
675.248	0.945	944.8	observe	Run1	observe/STIM_002.jpg	100
678.5	1.17	1170.2	observe	Run1	observe/STIM_002.jpg	99
682.772	1.454	1453.8	observe	Run1	observe/STIM_002.jpg	99
686.355	1.207	1206.9	observe	Run1	observe/STIM_002.jpg	100
689.604	0.787	787.2	observe	Run1	observe/STIM_003.jpg	99
693.511	1.032	1032.1	observe	Run1	observe/STIM_003.jpg	99
697.876	1.444	1443.8	observe	Run1	observe/STIM_003.jpg	100
701.323	1.093	1093.0	observe	Run1	observe/STIM_003.jpg	100
705.785	1.091	1091.4	observe	Run1	observe/STIM_004.jpg	100
709.272	1.265	1264.8	observe	Run1	observe/STIM_004.jpg	99
712.735	1.005	1004.6	observe	Run1	observe/STIM_004.jpg	100
715.948	0.95	950.5	observe	Run1	observe/STIM_004.jpg	99
720.134	1.075	1075.0	observe	Run1	observe/STIM_005.jpg	99
724.785	1.34	1339.8	observe	Run1	observe/STIM_005.jpg	100
729.905	1.449	1449.2	observe	Run1	observe/STIM_005.jpg	99
733.867	1.059	1058.8	observe	Run1	observe/STIM_005.jpg	99
737.529	1.054	1054.0	observe	Run1	observe/STIM_006.jpg	99
742.552	0.869	869.0	observe	Run1	observe/STIM_006.jpg	100
746.37	1.098	1097.8	observe	Run1	observe/STIM_006.jpg	99
751.174	1.113	1112.8	observe	Run1	observe/STIM_006.jpg	99
755.753	1.057	1057.3	observe	Run1	observe/STIM_007.jpg	100
758.955	1.385	1385.1	observe	Run1	observe/STIM_007.jpg	99
764.282	1.32	1320.3	observe	Run1	observe/STIM_007.jpg	99
769.149	1.484	1483.8	observe	Run1	observe/STIM_007.jpg	100
774.238	0.943	943.4	observe	Run1	observe/STIM_008.jpg	99
778.593	1.388	1388.4	observe	Run1	observe/STIM_008.jpg	99
782.779	1.015	1015.3	observe	Run1	observe/STIM_008.jpg	100
786.774	0.812	812.2	observe	Run1	observe/STIM_008.jpg	100
790.556	1.13	1130.0	observe	Run1	observe/STIM_009.jpg	99
794.096	0.916	915.6	observe	Run1	observe/STIM_009.jpg	100
798.201	1.053	1053.4	observe	Run1	observe/STIM_009.jpg	100
801.915	1.337	1336.9	observe	Run1	observe/STIM_009.jpg	99
805.572	1.136	1136.1	observe	Run1	observe/STIM_010.jpg	99
809.247	1.407	1407.0	observe	Run1	observe/STIM_010.jpg	99
813.452	1.025	1025.2	observe	Run1	observe/STIM_010.jpg	100
816.648	0.866	866.5	observe	Run1	observe/STIM_010.jpg	100
820.777	0.79	789.5	observe	Run1	observe/STIM_011.jpg	99
824.507	1.364	1364.4	observe	Run1	observe/STIM_011.jpg	100
829.436	0.951	951.2	observe	Run1	observe/STIM_011.jpg	99
832.476	1.193	1193.2	observe	Run1	observe/STIM_011.jpg	100
836.294	1.544	1543.5	observe	Run1	observe/STIM_012.jpg	100
841.618	1.539	1538.7	observe	Run1	observe/STIM_012.jpg	100
846.454	0.907	906.9	observe	Run1	observe/STIM_012.jpg	99
850.87	1.425	1424.9	observe	Run1	observe/STIM_012.jpg	99
855.619	1.331	1330.6	observe	Run1	observe/STIM_013.jpg	100
859.249	0.831	830.6	observe	Run1	observe/STIM_013.jpg	100
862.398	1.56	1559.9	observe	Run1	observe/STIM_013.jpg	99
866.616	1.098	1097.8	observe	Run1	observe/STIM_013.jpg	100
869.743	1.004	1003.8	observe	Run1	observe/STIM_014.jpg	99
872.816	1.038	1037.8	observe	Run1	observe/STIM_014.jpg	100
877.465	1.311	1310.9	observe	Run1	observe/STIM_014.jpg	100
881.933	1.422	1422.3	observe	Run1	observe/STIM_014.jpg	99
886.859	1.005	1005.0	observe	Run1	observe/STIM_015.jpg	100
891.682	1.316	1315.6	observe	Run1	observe/STIM_015.jpg	100
895.157	0.965	964.6	observe	Run1	observe/STIM_015.jpg	99
899.927	1.31	1309.5	observe	Run1	observe/STIM_015.jpg	100
905.116	1.365	1364.7	observe	Run1	observe/STIM_016.jpg	100
908.919	1.307	1306.6	observe	Run1	observe/STIM_016.jpg	99
914.016	1.332	1331.5	observe	Run1	observe/STIM_016.jpg	100
919.13	1.105	1104.6	observe	Run1	observe/STIM_016.jpg	100
922.626	0.852	852.5	observe	Run1	observe/STIM_017.jpg	100
926.146	1.168	1168.1	observe	Run1	observe/STIM_017.jpg	99
930.536	0.898	897.8	observe	Run1	observe/STIM_017.jpg	99
935.156	1.082	1082.2	observe	Run1	observe/STIM_017.jpg	100
939.5	1.286	1285.9	observe	Run1	observe/STIM_018.jpg	99
943.228	0.946	945.9	observe	Run1	observe/STIM_018.jpg	100
947.758	1.549	1549.2	observe	Run1	observe/STIM_018.jpg	99
951.539	1.164	1164.2	observe	Run1	observe/STIM_018.jpg	100
955.193	1.501	1501.3	observe	Run1	observe/STIM_019.jpg	100
959.99	1.496	1496.0	observe	Run1	observe/STIM_019.jpg	100
963.784	0.903	903.4	observe	Run1	observe/STIM_019.jpg	100
967.411	1.56	1559.6	observe	Run1	observe/STIM_019.jpg	99
972.635	1.821	1821.0	regulate	Run2	regulate/STIM_000.jpg	100
977.163	2.357	2356.6	regulate	Run2	regulate/STIM_000.jpg	99
982.628	1.964	1963.6	regulate	Run2	regulate/STIM_000.jpg	99
988.334	2.341	2341.3	regulate	Run2	regulate/STIM_000.jpg	100
994.154	2.116	2115.9	regulate	Run2	regulate/STIM_001.jpg	99
999.378	1.208	1207.5	regulate	Run2	regulate/STIM_001.jpg	100
1003.844	1.316	1316.0	regulate	Run2	regulate/STIM_001.jpg	100
1008.36	1.964	1964.1	regulate	Run2	regulate/STIM_001.jpg	99
1012.662	2.865	2865.3	regulate	Run2	regulate/STIM_002.jpg	100
1018.519	1.494	1494.4	regulate	Run2	regulate/STIM_002.jpg	100
1022.675	1.178	1178.4	regulate	Run2	regulate/STIM_002.jpg	100
1026.498	1.967	1966.6	regulate	Run2	regulate/STIM_002.jpg	99
1031.579	2.28	2280.0	regulate	Run2	regulate/STIM_003.jpg	99
1036.239	1.836	1835.6	regulate	Run2	regulate/STIM_003.jpg	99
1041.319	1.404	1404.2	regulate	Run2	regulate/STIM_003.jpg	100
1046.567	2.167	2166.8	regulate	Run2	regulate/STIM_003.jpg	99
1051.449	2.832	2832.2	regulate	Run2	regulate/STIM_004.jpg	99
1058.236	2.538	2538.5	regulate	Run2	regulate/STIM_004.jpg	99
1064.43	1.458	1458.3	regulate	Run2	regulate/STIM_004.jpg	99
1068.379	1.313	1312.7	regulate	Run2	regulate/STIM_004.jpg	99
1073.298	1.504	1504.0	regulate	Run2	regulate/STIM_005.jpg	99
1077.407	2.34	2340.1	regulate	Run2	regulate/STIM_005.jpg	100
1082.099	1.185	1185.1	regulate	Run2	regulate/STIM_005.jpg	99
1085.626	1.161	1161.4	regulate	Run2	regulate/STIM_005.jpg	100
1090.34	2.423	2423.0	regulate	Run2	regulate/STIM_006.jpg	99
1096.43	1.206	1205.5	regulate	Run2	regulate/STIM_006.jpg	99
1100.495	1.577	1577.0	regulate	Run2	regulate/STIM_006.jpg	99
1104.406	1.582	1582.4	regulate	Run2	regulate/STIM_006.jpg	100
1109.205	2.762	2762.1	regulate	Run2	regulate/STIM_007.jpg	100
1115.589	2.543	2543.4	regulate	Run2	regulate/STIM_007.jpg	100
1121.992	1.34	1340.1	regulate	Run2	regulate/STIM_007.jpg	100
1126.542	1.765	1765.3	regulate	Run2	regulate/STIM_007.jpg	100
1131.206	1.809	1808.7	regulate	Run2	regulate/STIM_008.jpg	100
1136.265	2.043	2042.9	regulate	Run2	regulate/STIM_008.jpg	99
1142.176	1.583	1583.0	regulate	Run2	regulate/STIM_008.jpg	100
1146.498	2.315	2315.4	regulate	Run2	regulate/STIM_008.jpg	100
1151.342	2.24	2240.2	regulate	Run2	regulate/STIM_009.jpg	99
1156.639	1.921	1921.3	regulate	Run2	regulate/STIM_009.jpg	99
1161.458	2.343	2343.3	regulate	Run2	regulate/STIM_009.jpg	99
1167.675	1.163	1163.0	regulate	Run2	regulate/STIM_009.jpg	100
1172.573	2.799	2799.2	regulate	Run2	regulate/STIM_010.jpg	99
1179.172	2.472	2471.5	regulate	Run2	regulate/STIM_010.jpg	100
1184.235	2.169	2168.9	regulate	Run2	regulate/STIM_010.jpg	100
1190.16	1.64	1640.0	regulate	Run2	regulate/STIM_010.jpg	99
1195.474	1.487	1486.6	regulate	Run2	regulate/STIM_011.jpg	99
1200.766	2.698	2697.6	regulate	Run2	regulate/STIM_011.jpg	99
1205.696	2.188	2188.0	regulate	Run2	regulate/STIM_011.jpg	100
1211.654	2.363	2362.9	regulate	Run2	regulate/STIM_011.jpg	100
1216.933	2.39	2390.0	regulate	Run2	regulate/STIM_012.jpg	100
1221.83	2.047	2046.6	regulate	Run2	regulate/STIM_012.jpg	100
1227.562	1.74	1739.9	regulate	Run2	regulate/STIM_012.jpg	99
1232.331	1.415	1415.2	regulate	Run2	regulate/STIM_012.jpg	99
1237.187	1.352	1352.1	regulate	Run2	regulate/STIM_013.jpg	100
1242.187	1.974	1973.7	regulate	Run2	regulate/STIM_013.jpg	99
1246.634	1.992	1992.5	regulate	Run2	regulate/STIM_013.jpg	99
1251.269	2.158	2157.7	regulate	Run2	regulate/STIM_013.jpg	100
1257.153	2.694	2693.5	regulate	Run2	regulate/STIM_014.jpg	100
1261.928	2.16	2159.7	regulate	Run2	regulate/STIM_014.jpg	99
1267.759	1.702	1701.5	regulate	Run2	regulate/STIM_014.jpg	100
1273.331	2.073	2073.2	regulate	Run2	regulate/STIM_014.jpg	100
1279.203	1.628	1627.9	regulate	Run2	regulate/STIM_015.jpg	100
1282.846	1.774	1773.6	regulate	Run2	regulate/STIM_015.jpg	99
1287.413	2.149	2149.2	regulate	Run2	regulate/STIM_015.jpg	99
1291.57	1.676	1675.7	regulate	Run2	regulate/STIM_015.jpg	99
1295.438	2.072	2071.5	regulate	Run2	regulate/STIM_016.jpg	99
1300.726	1.564	1563.8	regulate	Run2	regulate/STIM_016.jpg	100
1306.245	2.315	2314.7	regulate	Run2	regulate/STIM_016.jpg	100
1310.974	1.567	1567.2	regulate	Run2	regulate/STIM_016.jpg	99
1315.702	1.957	1956.7	regulate	Run2	regulate/STIM_017.jpg	99
1321.469	1.944	1943.7	regulate	Run2	regulate/STIM_017.jpg	100
1327.076	1.642	1641.6	regulate	Run2	regulate/STIM_017.jpg	100
1332.439	1.761	1761.2	regulate	Run2	regulate/STIM_017.jpg	100
1337.992	2.525	2524.7	regulate	Run2	regulate/STIM_018.jpg	99
1343.294	1.642	1642.0	regulate	Run2	regulate/STIM_018.jpg	100
1348.027	2.212	2212.2	regulate	Run2	regulate/STIM_018.jpg	99
1353.589	1.583	1582.7	regulate	Run2	regulate/STIM_018.jpg	100
1358.883	1.732	1731.7	regulate	Run2	regulate/STIM_019.jpg	99
1364.234	1.415	1415.2	regulate	Run2	regulate/STIM_019.jpg	99
1368.167	1.38	1379.9	regulate	Run2	regulate/STIM_019.jpg	99
1373.07	1.542	1542.5	regulate	Run2	regulate/STIM_019.jpg	100
1376.688	2.566	2566.0	regulate	Run2	regulate/STIM_020.jpg	99
1381.703	2.557	2556.7	regulate	Run2	regulate/STIM_020.jpg	100
1386.712	1.925	1925.4	regulate	Run2	regulate/STIM_020.jpg	99
1391.04	1.495	1494.8	regulate	Run2	regulate/STIM_020.jpg	99
1395.753	2.515	2514.7	regulate	Run2	regulate/STIM_021.jpg	100
1400.464	2.318	2318.2	regulate	Run2	regulate/STIM_021.jpg	100
1406.012	1.201	1200.7	regulate	Run2	regulate/STIM_021.jpg	100
1410.867	2.233	2233.3	regulate	Run2	regulate/STIM_021.jpg	100
1415.758	2.649	2648.9	regulate	Run2	regulate/STIM_022.jpg	99
1421.609	2.078	2078.4	regulate	Run2	regulate/STIM_022.jpg	99
1427.309	1.744	1744.2	regulate	Run2	regulate/STIM_022.jpg	100
1432.074	1.739	1739.2	regulate	Run2	regulate/STIM_022.jpg	99
1436.401	1.255	1254.6	regulate	Run2	regulate/STIM_023.jpg	100
1440.074	2.671	2671.4	regulate	Run2	regulate/STIM_023.jpg	99
1445.759	1.548	1548.1	regulate	Run2	regulate/STIM_023.jpg	99
1449.583	2.394	2394.3	regulate	Run2	regulate/STIM_023.jpg	99
1454.841	2.158	2158.5	regulate	Run2	regulate/STIM_024.jpg	100
1459.479	2.484	2484.5	regulate	Run2	regulate/STIM_024.jpg	100
1464.039	2.499	2499.2	regulate	Run2	regulate/STIM_024.jpg	100
1469.293	1.388	1387.6	regulate	Run2	regulate/STIM_024.jpg	99
1473.651	2.803	2803.1	regulate	Run2	regulate/STIM_025.jpg	99
1479.974	1.809	1809.3	regulate	Run2	regulate/STIM_025.jpg	100
1484.591	1.941	1941.4	regulate	Run2	regulate/STIM_025.jpg	99
1488.876	2.198	2198.2	regulate	Run2	regulate/STIM_025.jpg	99
1494.751	2.51	2510.3	regulate	Run2	regulate/STIM_026.jpg	100
1501.164	1.241	1241.3	regulate	Run2	regulate/STIM_026.jpg	99
1504.412	1.802	1802.2	regulate	Run2	regulate/STIM_026.jpg	100
1508.806	1.503	1503.3	regulate	Run2	regulate/STIM_026.jpg	99
1513.561	1.347	1346.8	regulate	Run2	regulate/STIM_027.jpg	99
1517.111	2.071	2071.3	regulate	Run2	regulate/STIM_027.jpg	99
1522.27	2.535	2535.1	regulate	Run2	regulate/STIM_027.jpg	100
1526.884	1.246	1245.9	regulate	Run2	regulate/STIM_027.jpg	99
1531.685	2.385	2385.1	regulate	Run2	regulate/STIM_028.jpg	100
1537.889	1.677	1676.9	regulate	Run2	regulate/STIM_028.jpg	99
1541.97	2.225	2225.2	regulate	Run2	regulate/STIM_028.jpg	100
1548.101	2.247	2247.0	regulate	Run2	regulate/STIM_028.jpg	99
1552.985	2.788	2787.8	regulate	Run2	regulate/STIM_029.jpg	100
1559.154	2.407	2406.7	regulate	Run2	regulate/STIM_029.jpg	100
1565.061	2.313	2312.9	regulate	Run2	regulate/STIM_029.jpg	99
1570.998	1.37	1369.9	regulate	Run2	regulate/STIM_029.jpg	100
1576.281	1.209	1209.3	observe	Run2	observe/STIM_000.jpg	100
1581.158	1.254	1253.5	observe	Run2	observe/STIM_000.jpg	99
1586.311	1.014	1014.4	observe	Run2	observe/STIM_000.jpg	100
1589.65	0.873	872.8	observe	Run2	observe/STIM_000.jpg	99
1594.285	0.967	967.4	observe	Run2	observe/STIM_001.jpg	99
1598.851	0.945	944.6	observe	Run2	observe/STIM_001.jpg	99
1603.705	0.948	948.2	observe	Run2	observe/STIM_001.jpg	99
1607.084	0.92	920.2	observe	Run2	observe/STIM_001.jpg	100
1611.022	1.568	1568.4	observe	Run2	observe/STIM_002.jpg	100
1615.202	0.87	869.8	observe	Run2	observe/STIM_002.jpg	100
1619.448	1.408	1407.5	observe	Run2	observe/STIM_002.jpg	100
1623.934	0.8	800.4	observe	Run2	observe/STIM_002.jpg	99
1627.063	0.918	917.7	observe	Run2	observe/STIM_003.jpg	99
1631.198	1.49	1489.7	observe	Run2	observe/STIM_003.jpg	99
1634.889	0.911	911.0	observe	Run2	observe/STIM_003.jpg	99
1639.712	1.031	1031.1	observe	Run2	observe/STIM_003.jpg	99
1642.89	1.114	1113.5	observe	Run2	observe/STIM_004.jpg	100
1647.08	0.811	810.8	observe	Run2	observe/STIM_004.jpg	99
1651.874	1.345	1344.6	observe	Run2	observe/STIM_004.jpg	100
1656.258	0.946	946.0	observe	Run2	observe/STIM_004.jpg	99
1660.389	0.937	936.8	observe	Run2	observe/STIM_005.jpg	100
1663.919	1.078	1078.4	observe	Run2	observe/STIM_005.jpg	100
1667.39	1.088	1088.5	observe	Run2	observe/STIM_005.jpg	100
1671.793	0.984	983.7	observe	Run2	observe/STIM_005.jpg	99
1675.341	0.885	885.2	observe	Run2	observe/STIM_006.jpg	99
1678.526	1.331	1331.0	observe	Run2	observe/STIM_006.jpg	100
1683.055	0.949	948.6	observe	Run2	observe/STIM_006.jpg	99
1687.922	0.808	807.5	observe	Run2	observe/STIM_006.jpg	100
1691.116	0.925	924.9	observe	Run2	observe/STIM_007.jpg	100
1695.899	1.077	1077.1	observe	Run2	observe/STIM_007.jpg	100
1700.76	1.321	1320.8	observe	Run2	observe/STIM_007.jpg	100
1704.122	1.367	1367.2	observe	Run2	observe/STIM_007.jpg	99
1708.736	1.17	1170.2	observe	Run2	observe/STIM_008.jpg	100
1713.294	1.424	1424.4	observe	Run2	observe/STIM_008.jpg	100
1717.283	0.86	859.7	observe	Run2	observe/STIM_008.jpg	100
1721.212	0.939	939.4	observe	Run2	observe/STIM_008.jpg	100
1724.878	0.983	982.8	observe	Run2	observe/STIM_009.jpg	99
1729.851	1.318	1318.1	observe	Run2	observe/STIM_009.jpg	100
1735.062	0.948	947.5	observe	Run2	observe/STIM_009.jpg	99
1739.804	1.372	1371.8	observe	Run2	observe/STIM_009.jpg	99
1744.472	0.788	787.5	observe	Run2	observe/STIM_010.jpg	99
1749.146	0.883	883.1	observe	Run2	observe/STIM_010.jpg	100
1753.827	1.242	1241.6	observe	Run2	observe/STIM_010.jpg	99
1758.785	0.803	803.4	observe	Run2	observe/STIM_010.jpg	99
1762.857	1.135	1135.1	observe	Run2	observe/STIM_011.jpg	99
1767.58	1.552	1552.1	observe	Run2	observe/STIM_011.jpg	99
1771.799	1.51	1509.7	observe	Run2	observe/STIM_011.jpg	100
1776.776	1.356	1355.5	observe	Run2	observe/STIM_011.jpg	100
1781.495	1.394	1394.4	observe	Run2	observe/STIM_012.jpg	100
1785.075	1.244	1243.8	observe	Run2	observe/STIM_012.jpg	99
1788.328	1.067	1066.7	observe	Run2	observe/STIM_012.jpg	100
1792.838	0.968	967.5	observe	Run2	observe/STIM_012.jpg	99
1796.918	1.515	1515.4	observe	Run2	observe/STIM_013.jpg	100
1802.087	0.95	949.8	observe	Run2	observe/STIM_013.jpg	99
1806.011	0.961	960.7	observe	Run2	observe/STIM_013.jpg	99
1809.394	0.819	819.3	observe	Run2	observe/STIM_013.jpg	100
1812.598	1.453	1452.8	observe	Run2	observe/STIM_014.jpg	100
1817.393	1.376	1376.3	observe	Run2	observe/STIM_014.jpg	100
1821.749	1.172	1171.7	observe	Run2	observe/STIM_014.jpg	99
1825.045	1.447	1446.9	observe	Run2	observe/STIM_014.jpg	99
1828.673	1.25	1249.9	observe	Run2	observe/STIM_015.jpg	99
1832.466	1.184	1184.5	observe	Run2	observe/STIM_015.jpg	99
1837.173	1.427	1426.9	observe	Run2	observe/STIM_015.jpg	99
1842.522	1.286	1285.8	observe	Run2	observe/STIM_015.jpg	99
1846.546	0.818	817.6	observe	Run2	observe/STIM_016.jpg	100
1849.569	1.372	1372.3	observe	Run2	observe/STIM_016.jpg	99
1853.86	0.853	852.8	observe	Run2	observe/STIM_016.jpg	100
1857.153	0.914	914.5	observe	Run2	observe/STIM_016.jpg	99
1860.831	1.446	1445.8	observe	Run2	observe/STIM_017.jpg	100
1865.628	1.213	1213.2	observe	Run2	observe/STIM_017.jpg	100
1869.503	1.41	1409.7	observe	Run2	observe/STIM_017.jpg	99
1874.739	1.286	1285.8	observe	Run2	observe/STIM_017.jpg	100
1879.06	1.546	1546.1	observe	Run2	observe/STIM_018.jpg	99
1883.148	1.053	1052.7	observe	Run2	observe/STIM_018.jpg	99
1887.667	1.344	1343.9	observe	Run2	observe/STIM_018.jpg	99
1892.866	1.448	1448.1	observe	Run2	observe/STIM_018.jpg	99
1897.468	1.537	1537.2	observe	Run2	observe/STIM_019.jpg	100
1902.664	1.457	1457.0	observe	Run2	observe/STIM_019.jpg	100
1907.968	1.12	1119.6	observe	Run2	observe/STIM_019.jpg	99
1912.987	1.36	1360.5	observe	Run2	observe/STIM_019.jpg	100
1918.193	1.169	1169.1	regulate	Run3	regulate/STIM_000.jpg	100
1921.946	1.08	1080.5	regulate	Run3	regulate/STIM_000.jpg	99
1925.225	2.278	2278.4	regulate	Run3	regulate/STIM_000.jpg	100
1930.232	2.166	2166.5	regulate	Run3	regulate/STIM_000.jpg	100
1935.04	1.181	1181.2	regulate	Run3	regulate/STIM_001.jpg	99
1939.952	1.127	1127.3	regulate	Run3	regulate/STIM_001.jpg	99
1944.617	1.084	1083.7	regulate	Run3	regulate/STIM_001.jpg	100
1948.119	1.872	1872.5	regulate	Run3	regulate/STIM_001.jpg	99
1953.965	2.199	2199.0	regulate	Run3	regulate/STIM_002.jpg	99
1959.209	1.904	1904.4	regulate	Run3	regulate/STIM_002.jpg	99
1963.82	2.054	2053.5	regulate	Run3	regulate/STIM_002.jpg	99
1969.417	1.611	1610.6	regulate	Run3	regulate/STIM_002.jpg	100
1974.142	2.247	2247.3	regulate	Run3	regulate/STIM_003.jpg	99
1979.198	1.718	1718.3	regulate	Run3	regulate/STIM_003.jpg	100
1984.78	1.798	1797.6	regulate	Run3	regulate/STIM_003.jpg	100
1988.974	1.419	1418.6	regulate	Run3	regulate/STIM_003.jpg	100
1994.368	2.371	2371.4	regulate	Run3	regulate/STIM_004.jpg	99
1999.693	2.216	2215.9	regulate	Run3	regulate/STIM_004.jpg	100
2005.097	1.593	1592.9	regulate	Run3	regulate/STIM_004.jpg	100
2008.947	1.166	1165.6	regulate	Run3	regulate/STIM_004.jpg	99
2012.649	2.179	2179.0	regulate	Run3	regulate/STIM_005.jpg	99
2016.912	2.247	2246.8	regulate	Run3	regulate/STIM_005.jpg	100
2022.112	1.79	1790.4	regulate	Run3	regulate/STIM_005.jpg	100
2026.28	1.173	1173.0	regulate	Run3	regulate/STIM_005.jpg	100
2030.796	1.5	1499.5	regulate	Run3	regulate/STIM_006.jpg	99
2036.135	1.189	1188.7	regulate	Run3	regulate/STIM_006.jpg	99
2040.841	2.394	2394.5	regulate	Run3	regulate/STIM_006.jpg	100
2046.542	2.135	2134.7	regulate	Run3	regulate/STIM_006.jpg	99
2051.494	1.402	1402.2	regulate	Run3	regulate/STIM_007.jpg	99
2055.65	1.604	1604.1	regulate	Run3	regulate/STIM_007.jpg	99
2060.148	1.651	1650.8	regulate	Run3	regulate/STIM_007.jpg	99
2065.149	1.26	1259.9	regulate	Run3	regulate/STIM_007.jpg	100
2068.463	2.018	2018.0	regulate	Run3	regulate/STIM_008.jpg	99
2072.833	1.495	1495.0	regulate	Run3	regulate/STIM_008.jpg	99
2077.613	2.31	2310.3	regulate	Run3	regulate/STIM_008.jpg	99
2083.424	2.27	2270.5	regulate	Run3	regulate/STIM_008.jpg	100
2087.85	1.499	1499.3	regulate	Run3	regulate/STIM_009.jpg	100
2091.897	1.508	1507.9	regulate	Run3	regulate/STIM_009.jpg	100
2097.189	2.12	2120.3	regulate	Run3	regulate/STIM_009.jpg	99
2102.986	2.069	2068.6	regulate	Run3	regulate/STIM_009.jpg	99
2107.771	2.181	2180.9	regulate	Run3	regulate/STIM_010.jpg	100
2113.638	1.681	1681.4	regulate	Run3	regulate/STIM_010.jpg	99
2118.625	2.152	2151.6	regulate	Run3	regulate/STIM_010.jpg	100
2122.841	1.13	1129.7	regulate	Run3	regulate/STIM_010.jpg	100
2126.041	1.253	1253.0	regulate	Run3	regulate/STIM_011.jpg	99
2131.211	2.035	2035.2	regulate	Run3	regulate/STIM_011.jpg	99
2135.7	1.598	1598.3	regulate	Run3	regulate/STIM_011.jpg	100
2140.334	2.17	2169.8	regulate	Run3	regulate/STIM_011.jpg	99
2144.78	2.165	2164.6	regulate	Run3	regulate/STIM_012.jpg	99
2149.452	1.124	1123.7	regulate	Run3	regulate/STIM_012.jpg	99
2152.602	1.814	1813.5	regulate	Run3	regulate/STIM_012.jpg	100
2158.248	1.344	1344.5	regulate	Run3	regulate/STIM_012.jpg	99
2162.5	2.167	2167.3	regulate	Run3	regulate/STIM_013.jpg	100
2167.547	2.337	2336.7	regulate	Run3	regulate/STIM_013.jpg	100
2173.028	1.268	1268.0	regulate	Run3	regulate/STIM_013.jpg	99
2178.14	1.754	1754.4	regulate	Run3	regulate/STIM_013.jpg	99
2181.92	1.07	1070.0	regulate	Run3	regulate/STIM_014.jpg	100
2185.925	1.25	1250.0	regulate	Run3	regulate/STIM_014.jpg	99
2189.196	1.101	1101.1	regulate	Run3	regulate/STIM_014.jpg	100
2194.242	1.106	1106.0	regulate	Run3	regulate/STIM_014.jpg	100
2197.667	2.269	2268.9	regulate	Run3	regulate/STIM_015.jpg	100
2203.737	1.798	1797.5	regulate	Run3	regulate/STIM_015.jpg	100
2208.945	1.967	1967.3	regulate	Run3	regulate/STIM_015.jpg	99
2213.77	2.132	2131.6	regulate	Run3	regulate/STIM_015.jpg	100
2218.721	1.889	1889.3	regulate	Run3	regulate/STIM_016.jpg	100
2224.563	2.224	2223.7	regulate	Run3	regulate/STIM_016.jpg	100
2230.191	2.308	2308.4	regulate	Run3	regulate/STIM_016.jpg	100
2235.1	1.391	1391.4	regulate	Run3	regulate/STIM_016.jpg	99
2238.563	2.359	2359.0	regulate	Run3	regulate/STIM_017.jpg	99
2243.554	1.979	1979.0	regulate	Run3	regulate/STIM_017.jpg	100
2248.05	1.128	1127.9	regulate	Run3	regulate/STIM_017.jpg	100
2252.028	1.94	1940.0	regulate	Run3	regulate/STIM_017.jpg	100
2256.729	1.176	1176.3	regulate	Run3	regulate/STIM_018.jpg	100
2260.332	1.353	1353.0	regulate	Run3	regulate/STIM_018.jpg	100
2264.499	2.2	2200.3	regulate	Run3	regulate/STIM_018.jpg	100
2270.56	1.364	1363.5	regulate	Run3	regulate/STIM_018.jpg	99
2275.553	1.529	1529.4	regulate	Run3	regulate/STIM_019.jpg	100
2279.385	1.082	1082.4	regulate	Run3	regulate/STIM_019.jpg	99
2283.75	2.22	2220.4	regulate	Run3	regulate/STIM_019.jpg	100
2289.601	2.236	2235.7	regulate	Run3	regulate/STIM_019.jpg	99
2293.97	1.052	1051.5	regulate	Run3	regulate/STIM_020.jpg	100
2298.756	1.147	1146.7	regulate	Run3	regulate/STIM_020.jpg	99
2302.092	1.965	1965.1	regulate	Run3	regulate/STIM_020.jpg	100
2307.225	1.408	1408.2	regulate	Run3	regulate/STIM_020.jpg	100
2312.155	2.18	2180.3	regulate	Run3	regulate/STIM_021.jpg	100
2316.67	2.252	2252.4	regulate	Run3	regulate/STIM_021.jpg	100
2321.513	1.375	1375.1	regulate	Run3	regulate/STIM_021.jpg	100
2326.534	2.131	2130.8	regulate	Run3	regulate/STIM_021.jpg	100
2330.965	2.228	2227.5	regulate	Run3	regulate/STIM_022.jpg	100
2335.719	1.543	1543.1	regulate	Run3	regulate/STIM_022.jpg	99
2339.272	1.47	1470.4	regulate	Run3	regulate/STIM_022.jpg	99
2344.338	1.327	1326.8	regulate	Run3	regulate/STIM_022.jpg	100
2348.428	1.526	1525.5	regulate	Run3	regulate/STIM_023.jpg	100
2353.774	1.961	1961.0	regulate	Run3	regulate/STIM_023.jpg	100
2357.922	1.952	1951.9	regulate	Run3	regulate/STIM_023.jpg	99
2362.357	1.52	1519.9	regulate	Run3	regulate/STIM_023.jpg	99
2366.098	1.36	1359.8	regulate	Run3	regulate/STIM_024.jpg	99
2370.999	1.867	1867.0	regulate	Run3	regulate/STIM_024.jpg	100
2375.992	2.112	2111.5	regulate	Run3	regulate/STIM_024.jpg	100
2380.584	1.877	1877.0	regulate	Run3	regulate/STIM_024.jpg	100
2385.207	1.594	1594.2	regulate	Run3	regulate/STIM_025.jpg	100
2390.149	1.485	1485.4	regulate	Run3	regulate/STIM_025.jpg	100
2395.263	2.32	2319.6	regulate	Run3	regulate/STIM_025.jpg	100
2399.907	1.822	1822.5	regulate	Run3	regulate/STIM_025.jpg	99
2405.571	1.875	1875.4	regulate	Run3	regulate/STIM_026.jpg	99
2411.397	1.497	1496.7	regulate	Run3	regulate/STIM_026.jpg	100
2416.768	2.152	2151.9	regulate	Run3	regulate/STIM_026.jpg	100
2422.868	1.868	1867.5	regulate	Run3	regulate/STIM_026.jpg	99
2428.245	1.702	1701.7	regulate	Run3	regulate/STIM_027.jpg	100
2432.093	1.703	1703.3	regulate	Run3	regulate/STIM_027.jpg	100
2436.13	1.915	1915.0	regulate	Run3	regulate/STIM_027.jpg	99
2441.762	1.742	1742.3	regulate	Run3	regulate/STIM_027.jpg	99
2447.204	1.332	1331.7	regulate	Run3	regulate/STIM_028.jpg	100
2452.45	1.175	1175.1	regulate	Run3	regulate/STIM_028.jpg	100
2456.429	1.981	1981.1	regulate	Run3	regulate/STIM_028.jpg	100
2461.991	1.378	1377.5	regulate	Run3	regulate/STIM_028.jpg	99
2466.932	2.234	2234.0	regulate	Run3	regulate/STIM_029.jpg	100
2472.039	2.135	2135.1	regulate	Run3	regulate/STIM_029.jpg	100
2477.407	2.165	2164.9	regulate	Run3	regulate/STIM_029.jpg	99
2482.086	1.698	1697.6	regulate	Run3	regulate/STIM_029.jpg	100
2487.513	1.53	1530.3	observe	Run3	observe/STIM_000.jpg	99
2491.592	1.524	1524.3	observe	Run3	observe/STIM_000.jpg	99
2495.905	1.379	1378.7	observe	Run3	observe/STIM_000.jpg	99
2500.87	1.558	1557.7	observe	Run3	observe/STIM_000.jpg	100
2505.743	1.012	1011.7	observe	Run3	observe/STIM_001.jpg	99
2509.948	0.874	874.5	observe	Run3	observe/STIM_001.jpg	99
2513.373	1.361	1360.9	observe	Run3	observe/STIM_001.jpg	100
2518.484	1.267	1266.7	observe	Run3	observe/STIM_001.jpg	99
2523.054	1.205	1204.9	observe	Run3	observe/STIM_002.jpg	100
2527.246	1.176	1176.2	observe	Run3	observe/STIM_002.jpg	100
2531.862	1.343	1343.3	observe	Run3	observe/STIM_002.jpg	100
2535.603	1.499	1498.6	observe	Run3	observe/STIM_002.jpg	100
2540.616	1.231	1230.9	observe	Run3	observe/STIM_003.jpg	99
2545.372	0.949	949.1	observe	Run3	observe/STIM_003.jpg	99
2548.77	0.964	963.7	observe	Run3	observe/STIM_003.jpg	99
2553.614	0.792	792.3	observe	Run3	observe/STIM_003.jpg	99
2557.464	0.897	897.1	observe	Run3	observe/STIM_004.jpg	99
2560.389	0.948	947.6	observe	Run3	observe/STIM_004.jpg	100
2564.797	1.077	1077.4	observe	Run3	observe/STIM_004.jpg	100
2569.116	1.148	1148.3	observe	Run3	observe/STIM_004.jpg	99
2573.463	0.932	932.5	observe	Run3	observe/STIM_005.jpg	99
2577.055	1.449	1449.2	observe	Run3	observe/STIM_005.jpg	100
2580.705	1.042	1042.3	observe	Run3	observe/STIM_005.jpg	99
2585.021	0.965	964.8	observe	Run3	observe/STIM_005.jpg	100
2589.771	1.434	1434.3	observe	Run3	observe/STIM_006.jpg	100
2594.63	0.854	853.5	observe	Run3	observe/STIM_006.jpg	100
2599.12	1.519	1519.3	observe	Run3	observe/STIM_006.jpg	100
2604.414	1.014	1014.5	observe	Run3	observe/STIM_006.jpg	100
2609.038	1.468	1468.1	observe	Run3	observe/STIM_007.jpg	100
2613.834	1.139	1139.1	observe	Run3	observe/STIM_007.jpg	100
2617.479	1.192	1191.9	observe	Run3	observe/STIM_007.jpg	99
2622.017	1.201	1201.0	observe	Run3	observe/STIM_007.jpg	99
2626.248	1.224	1223.5	observe	Run3	observe/STIM_008.jpg	100
2631.202	0.888	888.2	observe	Run3	observe/STIM_008.jpg	99
2634.852	1.378	1378.3	observe	Run3	observe/STIM_008.jpg	100
2638.892	1.289	1289.1	observe	Run3	observe/STIM_008.jpg	99
2642.861	0.894	894.3	observe	Run3	observe/STIM_009.jpg	99
2646.865	1.286	1285.6	observe	Run3	observe/STIM_009.jpg	100
2651.686	1.39	1390.5	observe	Run3	observe/STIM_009.jpg	99
2656.943	1.331	1331.4	observe	Run3	observe/STIM_009.jpg	100
2661.076	1.066	1066.3	observe	Run3	observe/STIM_010.jpg	100
2664.828	1.024	1024.0	observe	Run3	observe/STIM_010.jpg	100
2667.896	1.154	1153.6	observe	Run3	observe/STIM_010.jpg	100
2672.686	1.478	1478.4	observe	Run3	observe/STIM_010.jpg	99
2677.382	0.8	799.5	observe	Run3	observe/STIM_011.jpg	99
2680.38	1.372	1372.3	observe	Run3	observe/STIM_011.jpg	99
2684.723	1.13	1130.1	observe	Run3	observe/STIM_011.jpg	99
2688.046	1.268	1267.6	observe	Run3	observe/STIM_011.jpg	99
2692.895	1.568	1567.9	observe	Run3	observe/STIM_012.jpg	99
2697.367	1.117	1116.9	observe	Run3	observe/STIM_012.jpg	99
2700.742	1.449	1449.3	observe	Run3	observe/STIM_012.jpg	100
2705.286	0.863	862.7	observe	Run3	observe/STIM_012.jpg	100
2709.299	1.432	1432.2	observe	Run3	observe/STIM_013.jpg	99
2714.456	1.504	1504.5	observe	Run3	observe/STIM_013.jpg	99
2719.826	0.916	915.6	observe	Run3	observe/STIM_013.jpg	99
2724.63	1.519	1518.9	observe	Run3	observe/STIM_013.jpg	100
2728.467	1.373	1372.9	observe	Run3	observe/STIM_014.jpg	99
2732.084	0.818	818.3	observe	Run3	observe/STIM_014.jpg	100
2735.446	1.556	1556.3	observe	Run3	observe/STIM_014.jpg	100
2740.736	1.421	1421.2	observe	Run3	observe/STIM_014.jpg	99
2744.567	1.548	1548.3	observe	Run3	observe/STIM_015.jpg	99
2749.245	1.13	1130.2	observe	Run3	observe/STIM_015.jpg	100
2752.457	0.961	960.7	observe	Run3	observe/STIM_015.jpg	99
2756.618	1.564	1563.7	observe	Run3	observe/STIM_015.jpg	100
2760.427	0.915	915.2	observe	Run3	observe/STIM_016.jpg	99
2764.545	1.349	1349.4	observe	Run3	observe/STIM_016.jpg	100
2769.205	1.545	1544.6	observe	Run3	observe/STIM_016.jpg	99
2772.978	1.196	1195.6	observe	Run3	observe/STIM_016.jpg	99
2777.332	0.787	786.7	observe	Run3	observe/STIM_017.jpg	99
2781.49	1.501	1500.9	observe	Run3	observe/STIM_017.jpg	100
2785.363	1.161	1161.2	observe	Run3	observe/STIM_017.jpg	100
2789.31	0.944	943.5	observe	Run3	observe/STIM_017.jpg	100
2793.824	0.833	832.6	observe	Run3	observe/STIM_018.jpg	100
2797.833	0.956	955.7	observe	Run3	observe/STIM_018.jpg	99
2802.784	1.142	1142.3	observe	Run3	observe/STIM_018.jpg	100
2806.949	0.998	997.6	observe	Run3	observe/STIM_018.jpg	100
2811.518	1.401	1401.0	observe	Run3	observe/STIM_019.jpg	100
2815.419	1.242	1241.8	observe	Run3	observe/STIM_019.jpg	99
2818.724	1.179	1179.2	observe	Run3	observe/STIM_019.jpg	99
2823.462	0.861	861.2	observe	Run3	observe/STIM_019.jpg	99
