onset	duration	response_time_ms	trial_type	learning_stage	stimulus	response_port
0.0	2.313	2312.8	regulate	Run1	regulate/STIM_000.jpg	100
5.498	1.752	1752.5	regulate	Run1	regulate/STIM_000.jpg	99
10.758	2.587	2586.7	regulate	Run1	regulate/STIM_000.jpg	100
15.812	3.119	3119.4	regulate	Run1	regulate/STIM_000.jpg	99
21.506	3.506	3506.2	regulate	Run1	regulate/STIM_001.jpg	100
27.681	2.602	2601.8	regulate	Run1	regulate/STIM_001.jpg	100
33.107	2.399	2399.0	regulate	Run1	regulate/STIM_001.jpg	100
37.951	2.59	2589.7	regulate	Run1	regulate/STIM_001.jpg	100
42.234	3.201	3201.3	regulate	Run1	regulate/STIM_002.jpg	99
48.485	2.141	2140.7	regulate	Run1	regulate/STIM_002.jpg	99
52.427	1.934	1933.5	regulate	Run1	regulate/STIM_002.jpg	99
57.688	2.337	2337.4	regulate	Run1	regulate/STIM_002.jpg	100
61.744	3.671	3671.2	regulate	Run1	regulate/STIM_003.jpg	100
68.136	3.58	3580.3	regulate	Run1	regulate/STIM_003.jpg	100
74.663	2.818	2817.7	regulate	Run1	regulate/STIM_003.jpg	100
79.974	2.568	2567.6	regulate	Run1	regulate/STIM_003.jpg	100
85.362	2.803	2802.7	regulate	Run1	regulate/STIM_004.jpg	99
90.888	2.259	2258.7	regulate	Run1	regulate/STIM_004.jpg	99
96.073	2.916	2916.3	regulate	Run1	regulate/STIM_004.jpg	100
101.212	2.943	2942.8	regulate	Run1	regulate/STIM_004.jpg	100
107.042	2.465	2465.4	regulate	Run1	regulate/STIM_005.jpg	100
113.092	1.898	1898.4	regulate	Run1	regulate/STIM_005.jpg	100
117.999	3.46	3460.3	regulate	Run1	regulate/STIM_005.jpg	100
124.748	1.727	1727.3	regulate	Run1	regulate/STIM_005.jpg	100
129.626	2.933	2932.7	regulate	Run1	regulate/STIM_006.jpg	99
135.518	2.426	2425.7	regulate	Run1	regulate/STIM_006.jpg	99
141.03	1.793	1792.7	regulate	Run1	regulate/STIM_006.jpg	100
146.434	2.596	2596.1	regulate	Run1	regulate/STIM_006.jpg	99
152.669	2.602	2601.8	regulate	Run1	regulate/STIM_007.jpg	99
158.66	1.648	1648.4	regulate	Run1	regulate/STIM_007.jpg	99
162.86	3.336	3336.1	regulate	Run1	regulate/STIM_007.jpg	100
169.374	2.32	2320.1	regulate	Run1	regulate/STIM_007.jpg	99
175.356	2.213	2212.9	regulate	Run1	regulate/STIM_008.jpg	99
180.114	2.269	2268.7	regulate	Run1	regulate/STIM_008.jpg	99
185.782	2.075	2074.7	regulate	Run1	regulate/STIM_008.jpg	99
191.519	2.21	2210.1	regulate	Run1	regulate/STIM_008.jpg	100
195.653	2.38	2379.8	regulate	Run1	regulate/STIM_009.jpg	100
200.584	2.08	2080.0	regulate	Run1	regulate/STIM_009.jpg	100
205.489	1.646	1645.5	regulate	Run1	regulate/STIM_009.jpg	100
210.147	1.563	1563.3	regulate	Run1	regulate/STIM_009.jpg	100
214.986	2.915	2915.3	regulate	Run1	regulate/STIM_010.jpg	99
219.803	2.708	2707.8	regulate	Run1	regulate/STIM_010.jpg	99
226.15	2.068	2068.1	regulate	Run1	regulate/STIM_010.jpg	99
230.476	1.456	1456.0	regulate	Run1	regulate/STIM_010.jpg	100
234.019	2.092	2091.8	regulate	Run1	regulate/STIM_011.jpg	99
238.971	1.799	1799.3	regulate	Run1	regulate/STIM_011.jpg	100
244.579	1.552	1551.7	regulate	Run1	regulate/STIM_011.jpg	99
248.289	3.188	3187.6	regulate	Run1	regulate/STIM_011.jpg	99
254.92	3.278	3278.5	regulate	Run1	regulate/STIM_012.jpg	99
261.569	2.161	2160.7	regulate	Run1	regulate/STIM_012.jpg	100
267.37	1.77	1769.5	regulate	Run1	regulate/STIM_012.jpg	99
271.141	1.869	1868.6	regulate	Run1	regulate/STIM_012.jpg	100
276.201	2.402	2402.5	regulate	Run1	regulate/STIM_013.jpg	99
281.429	2.509	2508.9	regulate	Run1	regulate/STIM_013.jpg	100
286.577	3.541	3540.8	regulate	Run1	regulate/STIM_013.jpg	100
293.397	2.575	2575.1	regulate	Run1	regulate/STIM_013.jpg	100
298.874	2.619	2619.2	regulate	Run1	regulate/STIM_014.jpg	99
303.823	3.644	3644.2	regulate	Run1	regulate/STIM_014.jpg	100
309.149	2.151	2150.9	regulate	Run1	regulate/STIM_014.jpg	100
314.576	2.958	2957.6	regulate	Run1	regulate/STIM_014.jpg	99
319.777	2.894	2893.8	regulate	Run1	regulate/STIM_015.jpg	100
326.031	1.843	1842.6	regulate	Run1	regulate/STIM_015.jpg	100
330.38	1.828	1828.0	regulate	Run1	regulate/STIM_015.jpg	100
335.034	1.6	1600.1	regulate	Run1	regulate/STIM_015.jpg	100
339.052	2.223	2222.6	regulate	Run1	regulate/STIM_016.jpg	99
343.978	1.967	1966.8	regulate	Run1	regulate/STIM_016.jpg	99
348.953	1.697	1697.4	regulate	Run1	regulate/STIM_016.jpg	99
353.432	2.258	2257.7	regulate	Run1	regulate/STIM_016.jpg	100
358.303	3.288	3288.1	regulate	Run1	regulate/STIM_017.jpg	100
365.019	3.552	3551.8	regulate	Run1	regulate/STIM_017.jpg	99
371.548	3.26	3260.5	regulate	Run1	regulate/STIM_017.jpg	99
378.418	2.58	2579.7	regulate	Run1	regulate/STIM_017.jpg	99
383.54	2.492	2492.2	regulate	Run1	regulate/STIM_018.jpg	99
388.811	2.714	2714.4	regulate	Run1	regulate/STIM_018.jpg	100
393.324	2.068	2068.1	regulate	Run1	regulate/STIM_018.jpg	99
398.379	2.065	2065.2	regulate	Run1	regulate/STIM_018.jpg	100
404.21	3.914	3914.3	regulate	Run1	regulate/STIM_019.jpg	99
410.49	3.211	3210.9	regulate	Run1	regulate/STIM_019.jpg	99
416.322	2.526	2526.5	regulate	Run1	regulate/STIM_019.jpg	99
420.871	2.715	2714.9	regulate	Run1	regulate/STIM_019.jpg	100
427.01	2.503	2503.4	regulate	Run1	regulate/STIM_020.jpg	100
431.262	3.646	3646.2	regulate	Run1	regulate/STIM_020.jpg	99
437.434	2.497	2496.6	regulate	Run1	regulate/STIM_020.jpg	100
443.338	1.63	1629.8	regulate	Run1	regulate/STIM_020.jpg	100
446.989	3.23	3229.8	regulate	Run1	regulate/STIM_021.jpg	99
452.693	2.402	2402.3	regulate	Run1	regulate/STIM_021.jpg	99
457.112	2.028	2028.4	regulate	Run1	regulate/STIM_021.jpg	100
461.314	2.177	2177.4	regulate	Run1	regulate/STIM_021.jpg	100
465.391	3.374	3374.3	regulate	Run1	regulate/STIM_022.jpg	100
471.71	2.942	2942.1	regulate	Run1	regulate/STIM_022.jpg	100
477.266	1.912	1912.1	regulate	Run1	regulate/STIM_022.jpg	100
481.673	2.879	2879.4	regulate	Run1	regulate/STIM_022.jpg	100
486.344	2.487	2486.9	regulate	Run1	regulate/STIM_023.jpg	100
491.416	3.569	3569.1	regulate	Run1	regulate/STIM_023.jpg	100
497.494	2.451	2450.8	regulate	Run1	regulate/STIM_023.jpg	99
501.682	2.428	2427.6	regulate	Run1	regulate/STIM_023.jpg	99
507.782	2.658	2658.1	regulate	Run1	regulate/STIM_024.jpg	99
513.614	3.277	3277.2	regulate	Run1	regulate/STIM_024.jpg	99
518.721	1.985	1984.8	regulate	Run1	regulate/STIM_024.jpg	100
522.565	2.563	2563.0	regulate	Run1	regulate/STIM_024.jpg	100
527.209	2.372	2371.6	regulate	Run1	regulate/STIM_025.jpg	100
531.612	3.186	3185.6	regulate	Run1	regulate/STIM_025.jpg	100
538.109	2.499	2498.7	regulate	Run1	regulate/STIM_025.jpg	100
543.892	2.817	2816.7	regulate	Run1	regulate/STIM_025.jpg	99
550.064	3.555	3555.3	regulate	Run1	regulate/STIM_026.jpg	99
556.44	3.094	3094.4	regulate	Run1	regulate/STIM_026.jpg	99
562.515	3.25	3250.0	regulate	Run1	regulate/STIM_026.jpg	100
567.945	2.45	2450.2	regulate	Run1	regulate/STIM_026.jpg	100
573.935	2.946	2945.8	regulate	Run1	regulate/STIM_027.jpg	100
580.204	3.109	3109.2	regulate	Run1	regulate/STIM_027.jpg	100
586.632	1.722	1721.5	regulate	Run1	regulate/STIM_027.jpg	100
591.565	2.802	2802.2	regulate	Run1	regulate/STIM_027.jpg	100
596.684	3.815	3815.2	regulate	Run1	regulate/STIM_028.jpg	100
602.159	1.765	1765.3	regulate	Run1	regulate/STIM_028.jpg	99
605.885	2.943	2943.3	regulate	Run1	regulate/STIM_028.jpg	99
612.508	2.264	2263.9	regulate	Run1	regulate/STIM_028.jpg	100
618.081	2.3	2300.5	regulate	Run1	regulate/STIM_029.jpg	99
622.343	2.326	2326.0	regulate	Run1	regulate/STIM_029.jpg	99
626.917	1.801	1800.9	regulate	Run1	regulate/STIM_029.jpg	100
632.369	1.727	1726.7	regulate	Run1	regulate/STIM_029.jpg	99
637.832	1.582	1582.5	observe	Run1	observe/STIM_000.jpg	99
641.211	1.227	1227.0	observe	Run1	observe/STIM_000.jpg	100
645.708	0.921	920.8	observe	Run1	observe/STIM_000.jpg	99
649.499	1.424	1423.6	observe	Run1	observe/STIM_000.jpg	100
654.46	1.221	1221.0	observe	Run1	observe/STIM_001.jpg	99
658.756	1.12	1120.5	observe	Run1	observe/STIM_001.jpg	100
662.614	1.066	1065.5	observe	Run1	observe/STIM_001.jpg	100
667.458	1.339	1339.3	observe	Run1	observe/STIM_001.jpg	99
671.323	0.881	881.1	observe	Run1	observe/STIM_002.jpg	99
676.151	1.687	1687.1	observe	Run1	observe/STIM_002.jpg	100
681.485	0.93	930.0	observe	Run1	observe/STIM_002.jpg	99
685.054	1.471	1470.7	observe	Run1	observe/STIM_002.jpg	99
689.426	1.695	1695.1	observe	Run1	observe/STIM_003.jpg	99
692.953	1.315	1315.3	observe	Run1	observe/STIM_003.jpg	99
697.791	1.838	1837.9	observe	Run1	observe/STIM_003.jpg	99
702.349	1.009	1009.4	observe	Run1	observe/STIM_003.jpg	100
706.224	0.962	961.6	observe	Run1	observe/STIM_004.jpg	99
709.789	1.453	1452.9	observe	Run1	observe/STIM_004.jpg	100
713.558	0.932	932.5	observe	Run1	observe/STIM_004.jpg	100
717.884	1.726	1725.5	observe	Run1	observe/STIM_004.jpg	99
722.978	1.263	1262.6	observe	Run1	observe/STIM_005.jpg	99
727.692	1.155	1154.6	observe	Run1	observe/STIM_005.jpg	100
732.73	1.688	1688.2	observe	Run1	observe/STIM_005.jpg	99
738.188	1.226	1225.7	observe	Run1	observe/STIM_005.jpg	99
741.712	1.771	1771.3	observe	Run1	observe/STIM_006.jpg	99
747.034	1.111	1111.4	observe	Run1	observe/STIM_006.jpg	100
750.211	1.188	1187.6	observe	Run1	observe/STIM_006.jpg	100
755.13	1.209	1209.0	observe	Run1	observe/STIM_006.jpg	100
759.455	0.793	792.6	observe	Run1	observe/STIM_007.jpg	100
762.991	1.454	1453.9	observe	Run1	observe/STIM_007.jpg	99
767.667	1.707	1707.0	observe	Run1	observe/STIM_007.jpg	99
772.747	1.59	1590.5	observe	Run1	observe/STIM_007.jpg	100
776.599	1.096	1096.3	observe	Run1	observe/STIM_008.jpg	99
780.51	1.695	1694.8	observe	Run1	observe/STIM_008.jpg	99
785.323	1.253	1252.7	observe	Run1	observe/STIM_008.jpg	100
789.763	1.376	1375.5	observe	Run1	observe/STIM_008.jpg	100
793.743	1.452	1452.3	observe	Run1	observe/STIM_009.jpg	100
798.799	1.079	1079.0	observe	Run1	observe/STIM_009.jpg	99
802.873	1.04	1039.5	observe	Run1	observe/STIM_009.jpg	100
805.966	1.333	1333.4	observe	Run1	observe/STIM_009.jpg	99
809.996	0.976	976.5	observe	Run1	observe/STIM_010.jpg	99
813.127	1.051	1050.6	observe	Run1	observe/STIM_010.jpg	99
816.417	1.433	1433.3	observe	Run1	observe/STIM_010.jpg	100
820.569	1.627	1627.2	observe	Run1	observe/STIM_010.jpg	100
825.643	0.93	930.2	observe	Run1	observe/STIM_011.jpg	99
829.699	1.202	1202.5	observe	Run1	observe/STIM_011.jpg	99
834.437	1.478	1477.8	observe	Run1	observe/STIM_011.jpg	100
838.27	1.458	1458.4	observe	Run1	observe/STIM_011.jpg	99
842.385	1.574	1574.5	observe	Run1	observe/STIM_012.jpg	100
847.315	1.198	1197.8	observe	Run1	observe/STIM_012.jpg	99
851.855	1.756	1755.6	observe	Run1	observe/STIM_012.jpg	99
855.908	0.948	947.8	observe	Run1	observe/STIM_012.jpg	100
859.64	1.699	1699.3	observe	Run1	observe/STIM_013.jpg	99
864.448	1.346	1346.4	observe	Run1	observe/STIM_013.jpg	100
869.118	1.577	1577.0	observe	Run1	observe/STIM_013.jpg	99
872.789	1.052	1052.0	observe	Run1	observe/STIM_013.jpg	100
877.406	1.502	1502.1	observe	Run1	observe/STIM_014.jpg	99
881.688	1.214	1214.0	observe	Run1	observe/STIM_014.jpg	100
885.354	1.001	1000.7	observe	Run1	observe/STIM_014.jpg	100
889.101	1.629	1628.6	observe	Run1	observe/STIM_014.jpg	99
894.145	0.928	927.9	observe	Run1	observe/STIM_015.jpg	99
898.196	1.626	1625.6	observe	Run1	observe/STIM_015.jpg	100
901.953	1.012	1012.2	observe	Run1	observe/STIM_015.jpg	100
905.442	1.29	1290.2	observe	Run1	observe/STIM_015.jpg	100
908.601	1.365	1365.1	observe	Run1	observe/STIM_016.jpg	100
913.449	1.451	1450.7	observe	Run1	observe/STIM_016.jpg	100
917.407	1.282	1282.1	observe	Run1	observe/STIM_016.jpg	99
921.165	1.106	1105.9	observe	Run1	observe/STIM_016.jpg	100
925.9	1.682	1681.5	observe	Run1	observe/STIM_017.jpg	100
929.749	1.446	1446.3	observe	Run1	observe/STIM_017.jpg	99
934.416	1.21	1209.8	observe	Run1	observe/STIM_017.jpg	100
938.258	1.005	1004.9	observe	Run1	observe/STIM_017.jpg	99
941.948	1.668	1667.7	observe	Run1	observe/STIM_018.jpg	100
947.173	0.924	924.1	observe	Run1	observe/STIM_018.jpg	100
950.256	1.608	1607.8	observe	Run1	observe/STIM_018.jpg	99
955.132	1.777	1776.8	observe	Run1	observe/STIM_018.jpg	99
959.771	1.444	1444.5	observe	Run1	observe/STIM_019.jpg	99
964.641	1.043	1043.1	observe	Run1	observe/STIM_019.jpg	99
969.44	1.571	1570.6	observe	Run1	observe/STIM_019.jpg	100
974.569	1.408	1407.5	observe	Run1	observe/STIM_019.jpg	99
978.884	1.549	1549.0	regulate	Run2	regulate/STIM_000.jpg	99
982.881	2.744	2744.3	regulate	Run2	regulate/STIM_000.jpg	100
988.897	1.784	1783.8	regulate	Run2	regulate/STIM_000.jpg	99
993.344	2.393	2393.1	regulate	Run2	regulate/STIM_000.jpg	100
997.811	1.484	1483.7	regulate	Run2	regulate/STIM_001.jpg	99
1002.795	1.585	1585.4	regulate	Run2	regulate/STIM_001.jpg	100
1007.447	1.646	1645.5	regulate	Run2	regulate/STIM_001.jpg	99
1012.158	1.278	1278.3	regulate	Run2	regulate/STIM_001.jpg	100
1016.092	2.609	2608.7	regulate	Run2	regulate/STIM_002.jpg	99
1021.828	2.593	2593.2	regulate	Run2	regulate/STIM_002.jpg	100
1026.49	1.832	1832.0	regulate	Run2	regulate/STIM_002.jpg	99
1030.85	1.701	1701.4	regulate	Run2	regulate/STIM_002.jpg	99
1034.641	2.42	2420.3	regulate	Run2	regulate/STIM_003.jpg	99
1040.065	2.732	2731.5	regulate	Run2	regulate/STIM_003.jpg	99
1045.443	1.735	1734.9	regulate	Run2	regulate/STIM_003.jpg	99
1050.586	1.277	1276.8	regulate	Run2	regulate/STIM_003.jpg	100
1055.131	2.095	2095.3	regulate	Run2	regulate/STIM_004.jpg	99
1059.879	3.018	3018.5	regulate	Run2	regulate/STIM_004.jpg	100
1064.72	1.342	1341.8	regulate	Run2	regulate/STIM_004.jpg	99
1068.165	2.648	2648.2	regulate	Run2	regulate/STIM_004.jpg	99
1073.579	2.536	2536.0	regulate	Run2	regulate/STIM_005.jpg	100
1078.297	2.335	2334.9	regulate	Run2	regulate/STIM_005.jpg	99
1083.119	2.194	2193.6	regulate	Run2	regulate/STIM_005.jpg	100
1089.001	1.343	1343.0	regulate	Run2	regulate/STIM_005.jpg	99
1093.1	1.968	1967.8	regulate	Run2	regulate/STIM_006.jpg	100
1097.494	2.165	2165.1	regulate	Run2	regulate/STIM_006.jpg	100
1102.63	2.324	2324.2	regulate	Run2	regulate/STIM_006.jpg	99
1108.689	1.795	1794.6	regulate	Run2	regulate/STIM_006.jpg	100
1112.942	2.964	2963.8	regulate	Run2	regulate/STIM_007.jpg	100
1118.595	1.354	1353.8	regulate	Run2	regulate/STIM_007.jpg	99
1122.625	2.731	2730.9	regulate	Run2	regulate/STIM_007.jpg	100
1128.808	1.11	1110.2	regulate	Run2	regulate/STIM_007.jpg	100
1133.049	2.623	2623.0	regulate	Run2	regulate/STIM_008.jpg	99
1138.887	2.866	2866.2	regulate	Run2	regulate/STIM_008.jpg	99
1143.655	1.684	1683.5	regulate	Run2	regulate/STIM_008.jpg	99
1148.482	2.329	2328.6	regulate	Run2	regulate/STIM_008.jpg	99
1153.197	2.373	2373.2	regulate	Run2	regulate/STIM_009.jpg	100
1158.107	2.988	2987.7	regulate	Run2	regulate/STIM_009.jpg	100
1162.921	2.66	2660.4	regulate	Run2	regulate/STIM_009.jpg	99
1167.821	1.313	1312.6	regulate	Run2	regulate/STIM_009.jpg	99
1171.738	1.75	1749.8	regulate	Run2	regulate/STIM_010.jpg	99
1177.16	2.28	2280.0	regulate	Run2	regulate/STIM_010.jpg	99
1181.946	1.704	1704.4	regulate	Run2	regulate/STIM_010.jpg	100
1186.695	2.388	2387.6	regulate	Run2	regulate/STIM_010.jpg	100
1191.978	2.762	2762.3	regulate	Run2	regulate/STIM_011.jpg	99
1197.906	2.395	2395.2	regulate	Run2	regulate/STIM_011.jpg	100
1202.113	2.476	2475.5	regulate	Run2	regulate/STIM_011.jpg	100
1207.458	1.296	1296.4	regulate	Run2	regulate/STIM_011.jpg	100
1212.549	1.399	1399.2	regulate	Run2	regulate/STIM_012.jpg	99
1216.757	1.55	1549.9	regulate	Run2	regulate/STIM_012.jpg	99
1221.04	1.324	1324.1	regulate	Run2	regulate/STIM_012.jpg	100
1226.154	2.427	2427.2	regulate	Run2	regulate/STIM_012.jpg	100
1231.466	2.96	2959.8	regulate	Run2	regulate/STIM_013.jpg	100
1237.954	1.766	1766.2	regulate	Run2	regulate/STIM_013.jpg	99
1241.881	2.232	2231.8	regulate	Run2	regulate/STIM_013.jpg	99
1246.865	2.017	2016.9	regulate	Run2	regulate/STIM_013.jpg	100
1252.426	2.42	2419.8	regulate	Run2	regulate/STIM_014.jpg	100
1258.465	1.977	1976.7	regulate	Run2	regulate/STIM_014.jpg	99
1264.028	2.533	2532.7	regulate	Run2	regulate/STIM_014.jpg	100
1268.546	1.661	1661.4	regulate	Run2	regulate/STIM_014.jpg	100
1273.438	2.869	2868.8	regulate	Run2	regulate/STIM_015.jpg	99
1278.969	1.47	1470.1	regulate	Run2	regulate/STIM_015.jpg	100
1284.017	2.719	2718.8	regulate	Run2	regulate/STIM_015.jpg	99
1288.578	1.323	1323.0	regulate	Run2	regulate/STIM_015.jpg	100
1292.021	2.675	2674.7	regulate	Run2	regulate/STIM_016.jpg	99
1297.761	2.65	2649.5	regulate	Run2	regulate/STIM_016.jpg	100
1302.738	1.376	1376.5	regulate	Run2	regulate/STIM_016.jpg	99
1307.33	1.333	1333.2	regulate	Run2	regulate/STIM_016.jpg	100
1312.352	2.472	2471.8	regulate	Run2	regulate/STIM_017.jpg	100
1317.204	1.336	1335.6	regulate	Run2	regulate/STIM_017.jpg	99
1320.784	1.864	1863.7	regulate	Run2	regulate/STIM_017.jpg	99
1325.952	1.974	1973.8	regulate	Run2	regulate/STIM_017.jpg	100
1330.978	3.247	3247.0	regulate	Run2	regulate/STIM_018.jpg	100
1337.301	2.923	2922.8	regulate	Run2	regulate/STIM_018.jpg	100
1342.603	2.026	2026.4	regulate	Run2	regulate/STIM_018.jpg	99
1347.957	1.206	1205.9	regulate	Run2	regulate/STIM_018.jpg	99
1351.806	1.78	1779.7	regulate	Run2	regulate/STIM_019.jpg	100
1356.138	2.95	2950.2	regulate	Run2	regulate/STIM_019.jpg	100
1361.385	2.68	2680.5	regulate	Run2	regulate/STIM_019.jpg	100
1367.782	2.021	2020.6	regulate	Run2	regulate/STIM_019.jpg	99
1372.919	2.868	2867.8	regulate	Run2	regulate/STIM_020.jpg	100
1378.972	1.596	1596.4	regulate	Run2	regulate/STIM_020.jpg	100
1383.017	1.454	1453.8	regulate	Run2	regulate/STIM_020.jpg	100
1387.361	2.085	2085.2	regulate	Run2	regulate/STIM_020.jpg	100
1392.89	1.709	1708.7	regulate	Run2	regulate/STIM_021.jpg	99
1397.416	1.512	1512.0	regulate	Run2	regulate/STIM_021.jpg	100
1401.661	1.544	1544.2	regulate	Run2	regulate/STIM_021.jpg	100
1405.204	1.294	1293.6	regulate	Run2	regulate/STIM_021.jpg	99
1408.561	2.589	2589.0	regulate	Run2	regulate/STIM_022.jpg	100
1413.646	2.732	2732.4	regulate	Run2	regulate/STIM_022.jpg	99
1418.226	2.61	2610.5	regulate	Run2	regulate/STIM_022.jpg	99
1423.853	2.095	2095.3	regulate	Run2	regulate/STIM_022.jpg	99
1428.9	2.3	2300.5	regulate	Run2	regulate/STIM_023.jpg	100
1433.427	1.782	1782.5	regulate	Run2	regulate/STIM_023.jpg	100
1438.54	1.667	1666.9	regulate	Run2	regulate/STIM_023.jpg	99
1442.112	1.472	1472.3	regulate	Run2	regulate/STIM_023.jpg	99
1447.349	2.236	2235.7	regulate	Run2	regulate/STIM_024.jpg	100
1452.57	2.404	2404.2	regulate	Run2	regulate/STIM_024.jpg	99
1456.766	2.622	2621.6	regulate	Run2	regulate/STIM_024.jpg	100
1461.563	2.176	2175.5	regulate	Run2	regulate/STIM_024.jpg	99
1465.818	2.532	2531.7	regulate	Run2	regulate/STIM_025.jpg	100
1471.397	1.861	1861.2	regulate	Run2	regulate/STIM_025.jpg	100
1475.582	1.933	1932.9	regulate	Run2	regulate/STIM_025.jpg	100
1480.38	1.643	1643.2	regulate	Run2	regulate/STIM_025.jpg	99
1485.64	2.449	2448.9	regulate	Run2	regulate/STIM_026.jpg	100
1490.555	1.552	1551.9	regulate	Run2	regulate/STIM_026.jpg	99
1495.182	2.717	2717.0	regulate	Run2	regulate/STIM_026.jpg	100
1501.181	1.399	1399.1	regulate	Run2	regulate/STIM_026.jpg	100
1505.97	1.553	1552.9	regulate	Run2	regulate/STIM_027.jpg	99
1510.123	2.782	2782.3	regulate	Run2	regulate/STIM_027.jpg	100
1516.607	2.585	2584.6	regulate	Run2	regulate/STIM_027.jpg	100
1521.36	2.362	2362.4	regulate	Run2	regulate/STIM_027.jpg	99
1525.528	2.06	2060.0	regulate	Run2	regulate/STIM_028.jpg	100
1531.002	1.792	1792.0	regulate	Run2	regulate/STIM_028.jpg	99
1536.543	1.928	1928.5	regulate	Run2	regulate/STIM_028.jpg	99
1541.925	1.44	1439.6	regulate	Run2	regulate/STIM_028.jpg	99
1545.424	1.833	1832.8	regulate	Run2	regulate/STIM_029.jpg	100
1550.303	1.601	1601.1	regulate	Run2	regulate/STIM_029.jpg	99
1555.619	1.555	1554.9	regulate	Run2	regulate/STIM_029.jpg	99
1559.973	1.583	1583.4	regulate	Run2	regulate/STIM_029.jpg	100
1564.353	1.283	1283.0	observe	Run2	observe/STIM_000.jpg	99
1569.296	1.343	1342.9	observe	Run2	observe/STIM_000.jpg	99
1573.299	1.375	1375.1	observe	Run2	observe/STIM_000.jpg	100
1577.883	1.21	1209.5	observe	Run2	observe/STIM_000.jpg	99
1582.072	1.708	1708.4	observe	Run2	observe/STIM_001.jpg	100
1586.639	1.447	1447.2	observe	Run2	observe/STIM_001.jpg	99
1590.528	1.448	1447.5	observe	Run2	observe/STIM_001.jpg	99
1595.26	1.554	1554.3	observe	Run2	observe/STIM_001.jpg	100
1600.094	1.829	1829.0	observe	Run2	observe/STIM_002.jpg	99
1604.924	1.681	1681.3	observe	Run2	observe/STIM_002.jpg	99
1609.002	1.076	1075.5	observe	Run2	observe/STIM_002.jpg	99
1613.685	1.205	1205.3	observe	Run2	observe/STIM_002.jpg	99
1616.956	1.232	1231.5	observe	Run2	observe/STIM_003.jpg	99
1621.321	1.59	1590.3	observe	Run2	observe/STIM_003.jpg	100
1626.04	1.774	1774.5	observe	Run2	observe/STIM_003.jpg	99
1631.254	1.531	1530.6	observe	Run2	observe/STIM_003.jpg	99
1635.797	1.127	1126.9	observe	Run2	observe/STIM_004.jpg	100
1639.162	1.478	1477.8	observe	Run2	observe/STIM_004.jpg	100
1643.556	1.768	1767.6	observe	Run2	observe/STIM_004.jpg	99
1648.203	1.539	1539.0	observe	Run2	observe/STIM_004.jpg	100
1652.841	1.749	1748.7	observe	Run2	observe/STIM_005.jpg	99
1656.799	1.122	1122.4	observe	Run2	observe/STIM_005.jpg	100
1661.652	1.495	1495.0	observe	Run2	observe/STIM_005.jpg	99
1665.81	1.327	1327.1	observe	Run2	observe/STIM_005.jpg	99
1670.502	1.733	1732.9	observe	Run2	observe/STIM_006.jpg	100
1675.38	1.454	1454.3	observe	Run2	observe/STIM_006.jpg	99
1679.691	1.773	1772.9	observe	Run2	observe/STIM_006.jpg	100
1684.941	0.927	926.8	observe	Run2	observe/STIM_006.jpg	100
1688.509	1.478	1477.8	observe	Run2	observe/STIM_007.jpg	100
1692.033	0.928	928.5	observe	Run2	observe/STIM_007.jpg	99
1695.827	0.971	971.4	observe	Run2	observe/STIM_007.jpg	99
1699.364	1.572	1571.5	observe	Run2	observe/STIM_007.jpg	99
1703.049	1.722	1721.6	observe	Run2	observe/STIM_008.jpg	99
1708.532	1.801	1801.4	observe	Run2	observe/STIM_008.jpg	100
1713.335	1.246	1246.4	observe	Run2	observe/STIM_008.jpg	99
1717.698	0.949	949.2	observe	Run2	observe/STIM_008.jpg	100
1721.043	1.458	1458.4	observe	Run2	observe/STIM_009.jpg	99
1724.789	0.95	950.4	observe	Run2	observe/STIM_009.jpg	99
1727.958	1.558	1557.9	observe	Run2	observe/STIM_009.jpg	100
1732.942	1.21	1210.2	observe	Run2	observe/STIM_009.jpg	100
1736.364	1.185	1184.8	observe	Run2	observe/STIM_010.jpg	100
1741.097	1.467	1467.4	observe	Run2	observe/STIM_010.jpg	100
1745.536	1.471	1471.4	observe	Run2	observe/STIM_010.jpg	100
1749.185	1.689	1689.1	observe	Run2	observe/STIM_010.jpg	99
1753.219	1.26	1260.0	observe	Run2	observe/STIM_011.jpg	100
1756.986	1.742	1741.5	observe	Run2	observe/STIM_011.jpg	99
1762.312	1.664	1663.8	observe	Run2	observe/STIM_011.jpg	99
1767.551	1.002	1002.3	observe	Run2	observe/STIM_011.jpg	99
1771.212	1.075	1074.9	observe	Run2	observe/STIM_012.jpg	100
1775.339	0.895	895.3	observe	Run2	observe/STIM_012.jpg	99
1778.657	0.972	972.3	observe	Run2	observe/STIM_012.jpg	100
1782.753	0.866	866.1	observe	Run2	observe/STIM_012.jpg	100
1786.906	1.599	1599.4	observe	Run2	observe/STIM_013.jpg	99
1791.797	0.815	815.2	observe	Run2	observe/STIM_013.jpg	100
1796.32	1.532	1532.4	observe	Run2	observe/STIM_013.jpg	99
1800.972	1.199	1199.2	observe	Run2	observe/STIM_013.jpg	100
1804.724	0.945	945.3	observe	Run2	observe/STIM_014.jpg	99
1809.328	1.767	1767.4	observe	Run2	observe/STIM_014.jpg	100
1813.692	1.304	1303.9	observe	Run2	observe/STIM_014.jpg	100
1817.903	1.395	1395.3	observe	Run2	observe/STIM_014.jpg	99
1822.575	0.977	977.3	observe	Run2	observe/STIM_015.jpg	100
1827.296	1.681	1681.1	observe	Run2	observe/STIM_015.jpg	100
1830.886	1.333	1333.1	observe	Run2	observe/STIM_015.jpg	99
1834.308	1.539	1538.9	observe	Run2	observe/STIM_015.jpg	100
1837.92	1.536	1535.7	observe	Run2	observe/STIM_016.jpg	99
1841.893	1.509	1509.0	observe	Run2	observe/STIM_016.jpg	99
1846.097	1.179	1178.7	observe	Run2	observe/STIM_016.jpg	99
1850.431	0.851	850.8	observe	Run2	observe/STIM_016.jpg	100
1853.259	1.351	1350.7	observe	Run2	observe/STIM_017.jpg	100
1857.756	0.908	908.5	observe	Run2	observe/STIM_017.jpg	99
1861.568	1.081	1080.9	observe	Run2	observe/STIM_017.jpg	99
1865.093	1.395	1394.7	observe	Run2	observe/STIM_017.jpg	100
1869.38	1.254	1253.7	observe	Run2	observe/STIM_018.jpg	100
1873.632	0.924	924.2	observe	Run2	observe/STIM_018.jpg	100
1876.886	1.494	1494.0	observe	Run2	observe/STIM_018.jpg	100
1881.224	0.929	929.0	observe	Run2	observe/STIM_018.jpg	100
1885.018	1.132	1132.3	observe	Run2	observe/STIM_019.jpg	99
1888.825	1.322	1321.9	observe	Run2	observe/STIM_019.jpg	99
1893.211	1.355	1354.9	observe	Run2	observe/STIM_019.jpg	99
1897.382	1.016	1016.3	observe	Run2	observe/STIM_019.jpg	99
1901.161	2.56	2560.2	regulate	Run3	regulate/STIM_000.jpg	100
1906.249	1.83	1829.7	regulate	Run3	regulate/STIM_000.jpg	100
1910.59	1.366	1366.5	regulate	Run3	regulate/STIM_000.jpg	99
1914.018	1.723	1723.2	regulate	Run3	regulate/STIM_000.jpg	100
1918.841	2.16	2159.7	regulate	Run3	regulate/STIM_001.jpg	99
1924.526	1.197	1197.0	regulate	Run3	regulate/STIM_001.jpg	99
1928.993	1.928	1928.2	regulate	Run3	regulate/STIM_001.jpg	99
1934.038	2.178	2177.9	regulate	Run3	regulate/STIM_001.jpg	99
1939.981	1.495	1494.9	regulate	Run3	regulate/STIM_002.jpg	99
1943.885	2.329	2329.4	regulate	Run3	regulate/STIM_002.jpg	100
1949.858	2.323	2322.8	regulate	Run3	regulate/STIM_002.jpg	99
1954.075	2.048	2048.5	regulate	Run3	regulate/STIM_002.jpg	100
1958.758	1.683	1683.2	regulate	Run3	regulate/STIM_003.jpg	100
1964.136	1.628	1627.8	regulate	Run3	regulate/STIM_003.jpg	100
1968.556	1.966	1966.4	regulate	Run3	regulate/STIM_003.jpg	100
1973.13	1.826	1826.2	regulate	Run3	regulate/STIM_003.jpg	99
1978.147	2.043	2043.2	regulate	Run3	regulate/STIM_004.jpg	99
1983.81	2.693	2693.2	regulate	Run3	regulate/STIM_004.jpg	100
1989.586	1.611	1610.7	regulate	Run3	regulate/STIM_004.jpg	99
1993.114	2.521	2521.2	regulate	Run3	regulate/STIM_004.jpg	100
1998.986	2.564	2564.5	regulate	Run3	regulate/STIM_005.jpg	100
2003.887	2.324	2324.0	regulate	Run3	regulate/STIM_005.jpg	99
2009.37	1.799	1798.6	regulate	Run3	regulate/STIM_005.jpg	100
2013.291	2.235	2234.6	regulate	Run3	regulate/STIM_005.jpg	100
2018.963	2.64	2639.6	regulate	Run3	regulate/STIM_006.jpg	99
2024.629	2.626	2626.4	regulate	Run3	regulate/STIM_006.jpg	99
2030.474	2.431	2431.3	regulate	Run3	regulate/STIM_006.jpg	100
2035.312	1.341	1340.8	regulate	Run3	regulate/STIM_006.jpg	100
2038.848	1.354	1354.5	regulate	Run3	regulate/STIM_007.jpg	100
2043.449	2.535	2535.1	regulate	Run3	regulate/STIM_007.jpg	100
2048.083	2.309	2308.6	regulate	Run3	regulate/STIM_007.jpg	99
2053.234	1.714	1714.0	regulate	Run3	regulate/STIM_007.jpg	100
2058.345	2.591	2591.2	regulate	Run3	regulate/STIM_008.jpg	100
2062.981	1.528	1527.6	regulate	Run3	regulate/STIM_008.jpg	99
2068.188	1.773	1773.2	regulate	Run3	regulate/STIM_008.jpg	100
2072.046	2.596	2595.8	regulate	Run3	regulate/STIM_008.jpg	99
2077.943	2.514	2514.5	regulate	Run3	regulate/STIM_009.jpg	99
2084.08	2.069	2069.1	regulate	Run3	regulate/STIM_009.jpg	99
2089.0	1.273	1272.6	regulate	Run3	regulate/STIM_009.jpg	99
2092.803	1.844	1843.5	regulate	Run3	regulate/STIM_009.jpg	100
2096.664	1.301	1301.2	regulate	Run3	regulate/STIM_010.jpg	99
2101.159	2.292	2291.5	regulate	Run3	regulate/STIM_010.jpg	100
2105.694	2.429	2428.6	regulate	Run3	regulate/STIM_010.jpg	100
2110.514	1.696	1695.7	regulate	Run3	regulate/STIM_010.jpg	100
2114.444	1.247	1246.8	regulate	Run3	regulate/STIM_011.jpg	99
2118.466	2.708	2708.0	regulate	Run3	regulate/STIM_011.jpg	100
2124.205	2.11	2109.9	regulate	Run3	regulate/STIM_011.jpg	100
2129.74	1.681	1681.0	regulate	Run3	regulate/STIM_011.jpg	99
2134.673	1.386	1386.5	regulate	Run3	regulate/STIM_012.jpg	99
2139.098	1.464	1463.9	regulate	Run3	regulate/STIM_012.jpg	100
2143.586	2.576	2575.7	regulate	Run3	regulate/STIM_012.jpg	99
2148.965	2.032	2032.3	regulate	Run3	regulate/STIM_012.jpg	100
2153.275	2.076	2076.4	regulate	Run3	regulate/STIM_013.jpg	99
2158.688	2.129	2129.1	regulate	Run3	regulate/STIM_013.jpg	99
2163.621	1.444	1443.7	regulate	Run3	regulate/STIM_013.jpg	99
2167.713	2.372	2372.0	regulate	Run3	regulate/STIM_013.jpg	100
2172.253	1.237	1237.3	regulate	Run3	regulate/STIM_014.jpg	99
2175.872	1.579	1578.6	regulate	Run3	regulate/STIM_014.jpg	99
2181.081	2.234	2234.5	regulate	Run3	regulate/STIM_014.jpg	100
2185.838	1.926	1926.0	regulate	Run3	regulate/STIM_014.jpg	100
2190.861	1.754	1754.3	regulate	Run3	regulate/STIM_015.jpg	100
2195.11	1.38	1380.4	regulate	Run3	regulate/STIM_015.jpg	99
2199.807	2.05	2050.5	regulate	Run3	regulate/STIM_015.jpg	100
2203.752	2.654	2654.5	regulate	Run3	regulate/STIM_015.jpg	99
2209.259	2.046	2045.9	regulate	Run3	regulate/STIM_016.jpg	99
2213.747	1.851	1851.0	regulate	Run3	regulate/STIM_016.jpg	100
2218.66	1.702	1701.5	regulate	Run3	regulate/STIM_016.jpg	100
2222.366	1.954	1954.4	regulate	Run3	regulate/STIM_016.jpg	100
2227.136	1.631	1631.4	regulate	Run3	regulate/STIM_017.jpg	99
2230.718	1.516	1515.7	regulate	Run3	regulate/STIM_017.jpg	100
2234.635	1.393	1392.8	regulate	Run3	regulate/STIM_017.jpg	100
2238.331	1.665	1665.2	regulate	Run3	regulate/STIM_017.jpg	100
2243.149	2.564	2563.6	regulate	Run3	regulate/STIM_018.jpg	99
2248.107	2.742	2742.1	regulate	Run3	regulate/STIM_018.jpg	100
2253.117	2.48	2480.1	regulate	Run3	regulate/STIM_018.jpg	100
2258.217	2.576	2576.4	regulate	Run3	regulate/STIM_018.jpg	100
2263.776	2.332	2332.5	regulate	Run3	regulate/STIM_019.jpg	100
2269.434	1.516	1515.6	regulate	Run3	regulate/STIM_019.jpg	100
2274.413	2.435	2435.3	regulate	Run3	regulate/STIM_019.jpg	100
2279.854	1.566	1565.8	regulate	Run3	regulate/STIM_019.jpg	99
2284.262	1.251	1251.4	regulate	Run3	regulate/STIM_020.jpg	100
2287.833	2.498	2497.7	regulate	Run3	regulate/STIM_020.jpg	100
2293.213	1.661	1661.1	regulate	Run3	regulate/STIM_020.jpg	99
2297.845	1.83	1829.6	regulate	Run3	regulate/STIM_020.jpg	99
2302.184	2.685	2685.4	regulate	Run3	regulate/STIM_021.jpg	100
2308.409	1.361	1361.0	regulate	Run3	regulate/STIM_021.jpg	100
2313.168	2.265	2264.8	regulate	Run3	regulate/STIM_021.jpg	100
2317.687	1.562	1562.3	regulate	Run3	regulate/STIM_021.jpg	99
2321.218	2.429	2429.4	regulate	Run3	regulate/STIM_022.jpg	99
2326.025	2.238	2238.1	regulate	Run3	regulate/STIM_022.jpg	99
2331.645	1.231	1231.1	regulate	Run3	regulate/STIM_022.jpg	100
2335.056	2.247	2246.9	regulate	Run3	regulate/STIM_022.jpg	100
2339.975	2.315	2314.7	regulate	Run3	regulate/STIM_023.jpg	99
2344.238	2.436	2436.3	regulate	Run3	regulate/STIM_023.jpg	100
2348.744	1.324	1323.7	regulate	Run3	regulate/STIM_023.jpg	99
2353.245	2.559	2558.8	regulate	Run3	regulate/STIM_023.jpg	99
2358.45	1.593	1593.3	regulate	Run3	regulate/STIM_024.jpg	99
2363.228	1.143	1142.7	regulate	Run3	regulate/STIM_024.jpg	99
2366.708	1.76	1759.8	regulate	Run3	regulate/STIM_024.jpg	99
2370.386	2.694	2694.1	regulate	Run3	regulate/STIM_024.jpg	99
2376.131	2.467	2467.2	regulate	Run3	regulate/STIM_025.jpg	99
2380.425	1.263	1263.1	regulate	Run3	regulate/STIM_025.jpg	99
2385.342	2.622	2621.9	regulate	Run3	regulate/STIM_025.jpg	99
2389.923	2.445	2444.6	regulate	Run3	regulate/STIM_025.jpg	99
2394.66	1.596	1595.9	regulate	Run3	regulate/STIM_026.jpg	100
2398.608	1.148	1147.8	regulate	Run3	regulate/STIM_026.jpg	99
2402.4	2.566	2565.5	regulate	Run3	regulate/STIM_026.jpg	100
2407.853	2.655	2655.4	regulate	Run3	regulate/STIM_026.jpg	100
2413.893	1.768	1767.9	regulate	Run3	regulate/STIM_027.jpg	99
2417.769	2.33	2330.5	regulate	Run3	regulate/STIM_027.jpg	99
2422.278	2.59	2590.3	regulate	Run3	regulate/STIM_027.jpg	99
2427.596	1.41	1410.1	regulate	Run3	regulate/STIM_027.jpg	99
2432.419	1.493	1493.0	regulate	Run3	regulate/STIM_028.jpg	100
2435.976	2.503	2502.9	regulate	Run3	regulate/STIM_028.jpg	99
2440.869	1.804	1804.4	regulate	Run3	regulate/STIM_028.jpg	100
2445.783	2.16	2159.5	regulate	Run3	regulate/STIM_028.jpg	100
2449.781	1.227	1226.8	regulate	Run3	regulate/STIM_029.jpg	99
2453.274	1.448	1448.2	regulate	Run3	regulate/STIM_029.jpg	99
2457.345	2.629	2629.2	regulate	Run3	regulate/STIM_029.jpg	100
2463.442	2.171	2171.3	regulate	Run3	regulate/STIM_029.jpg	99
2467.714	0.973	972.9	observe	Run3	observe/STIM_000.jpg	100
2471.637	1.397	1397.3	observe	Run3	observe/STIM_000.jpg	100
2475.617	1.181	1180.7	observe	Run3	observe/STIM_000.jpg	100
2479.717	1.838	1838.1	observe	Run3	observe/STIM_000.jpg	100
2484.174	1.4	1400.5	observe	Run3	observe/STIM_001.jpg	99
2487.606	1.287	1287.0	observe	Run3	observe/STIM_001.jpg	100
2492.631	1.329	1329.2	observe	Run3	observe/STIM_001.jpg	100
2497.397	1.673	1672.8	observe	Run3	observe/STIM_001.jpg	99
2502.578	1.089	1088.6	observe	Run3	observe/STIM_002.jpg	100
2505.632	1.27	1269.5	observe	Run3	observe/STIM_002.jpg	100
2510.166	1.456	1455.6	observe	Run3	observe/STIM_002.jpg	100
2515.056	0.94	940.3	observe	Run3	observe/STIM_002.jpg	100
2519.462	0.992	992.4	observe	Run3	observe/STIM_003.jpg	100
2524.242	1.27	1270.4	observe	Run3	observe/STIM_003.jpg	99
2528.335	1.431	1430.8	observe	Run3	observe/STIM_003.jpg	100
2533.013	1.099	1098.9	observe	Run3	observe/STIM_003.jpg	100
2537.587	1.2	1199.6	observe	Run3	observe/STIM_004.jpg	100
2541.682	1.668	1667.8	observe	Run3	observe/STIM_004.jpg	100
2546.483	1.285	1285.1	observe	Run3	observe/STIM_004.jpg	99
2549.918	1.256	1255.7	observe	Run3	observe/STIM_004.jpg	99
2554.511	1.514	1513.5	observe	Run3	observe/STIM_005.jpg	100
2558.676	1.362	1361.8	observe	Run3	observe/STIM_005.jpg	99
2562.116	1.02	1020.5	observe	Run3	observe/STIM_005.jpg	100
2566.911	1.77	1769.7	observe	Run3	observe/STIM_005.jpg	99
2572.214	0.908	907.8	observe	Run3	observe/STIM_006.jpg	99
2575.908	1.66	1659.5	observe	Run3	observe/STIM_006.jpg	99
2580.731	1.326	1325.8	observe	Run3	observe/STIM_006.jpg	100
2584.727	0.916	915.6	observe	Run3	observe/STIM_006.jpg	100
2588.612	1.51	1510.3	observe	Run3	observe/STIM_007.jpg	99
2593.417	1.015	1015.4	observe	Run3	observe/STIM_007.jpg	100
2597.961	1.483	1482.7	observe	Run3	observe/STIM_007.jpg	99
2602.187	1.409	1409.2	observe	Run3	observe/STIM_007.jpg	100
2607.388	0.938	938.3	observe	Run3	observe/STIM_008.jpg	100
2612.127	1.746	1746.1	observe	Run3	observe/STIM_008.jpg	99
2616.821	1.543	1543.4	observe	Run3	observe/STIM_008.jpg	100
2621.646	0.999	999.3	observe	Run3	observe/STIM_008.jpg	100
2625.253	0.94	939.6	observe	Run3	observe/STIM_009.jpg	100
2629.591	1.135	1135.4	observe	Run3	observe/STIM_009.jpg	99
2634.643	1.676	1675.6	observe	Run3	observe/STIM_009.jpg	100
2639.401	0.977	977.2	observe	Run3	observe/STIM_009.jpg	99
2643.376	1.085	1085.1	observe	Run3	observe/STIM_010.jpg	100
2647.226	1.274	1273.6	observe	Run3	observe/STIM_010.jpg	100
2651.329	1.427	1426.6	observe	Run3	observe/STIM_010.jpg	100
2655.936	0.913	913.2	observe	Run3	observe/STIM_010.jpg	100
2660.226	1.738	1738.3	observe	Run3	observe/STIM_011.jpg	99
2665.274	0.922	922.0	observe	Run3	observe/STIM_011.jpg	100
2669.861	1.115	1114.8	observe	Run3	observe/STIM_011.jpg	99
2673.113	1.253	1253.2	observe	Run3	observe/STIM_011.jpg	99
2676.28	1.747	1747.0	observe	Run3	observe/STIM_012.jpg	99
2680.947	0.957	957.1	observe	Run3	observe/STIM_012.jpg	99
2685.184	1.388	1388.2	observe	Run3	observe/STIM_012.jpg	100
2689.846	1.693	1693.0	observe	Run3	observe/STIM_012.jpg	99
2695.205	1.517	1516.6	observe	Run3	observe/STIM_013.jpg	100
2699.27	1.373	1372.7	observe	Run3	observe/STIM_013.jpg	100
2703.952	1.504	1503.7	observe	Run3	observe/STIM_013.jpg	100
2708.833	1.43	1429.9	observe	Run3	observe/STIM_013.jpg	99
2712.538	1.37	1369.6	observe	Run3	observe/STIM_014.jpg	100
2716.857	0.82	819.6	observe	Run3	observe/STIM_014.jpg	100
2719.736	1.23	1230.0	observe	Run3	observe/STIM_014.jpg	100
2723.734	1.451	1450.8	observe	Run3	observe/STIM_014.jpg	99
2727.983	1.094	1093.8	observe	Run3	observe/STIM_015.jpg	99
2731.311	1.013	1012.7	observe	Run3	observe/STIM_015.jpg	99
2735.734	1.228	1228.1	observe	Run3	observe/STIM_015.jpg	99
2739.33	1.06	1059.6	observe	Run3	observe/STIM_015.jpg	99
2743.434	1.199	1199.1	observe	Run3	observe/STIM_016.jpg	99
2748.19	1.847	1846.6	observe	Run3	observe/STIM_016.jpg	99
2752.139	1.298	1297.9	observe	Run3	observe/STIM_016.jpg	99
2756.83	1.071	1070.6	observe	Run3	observe/STIM_016.jpg	99
2759.798	0.958	957.9	observe	Run3	observe/STIM_017.jpg	99
2764.456	1.527	1527.1	observe	Run3	observe/STIM_017.jpg	99
2768.991	1.065	1065.2	observe	Run3	observe/STIM_017.jpg	100
2772.622	1.033	1032.9	observe	Run3	observe/STIM_017.jpg	99
2775.948	0.938	937.9	observe	Run3	observe/STIM_018.jpg	100
2779.102	1.66	1659.6	observe	Run3	observe/STIM_018.jpg	99
2784.559	0.829	828.7	observe	Run3	observe/STIM_018.jpg	99
2788.003	1.436	1436.0	observe	Run3	observe/STIM_018.jpg	100
2792.097	1.535	1535.2	observe	Run3	observe/STIM_019.jpg	99
2797.334	1.358	1358.1	observe	Run3	observe/STIM_019.jpg	100
2801.904	1.286	1286.4	observe	Run3	observe/STIM_019.jpg	99
2806.442	0.98	979.6	observe	Run3	observe/STIM_019.jpg	100
