onset	duration	accuracy	trial_type	learning_stage	stimulus
0.0	2.313	correct	regulate	Run1	regulate/STIM_000.jpg
5.498	1.752	correct	regulate	Run1	regulate/STIM_000.jpg
10.758	2.587	correct	regulate	Run1	regulate/STIM_000.jpg
15.812	3.119	correct	regulate	Run1	regulate/STIM_000.jpg
21.506	3.506	correct	regulate	Run1	regulate/STIM_001.jpg
27.681	2.602	correct	regulate	Run1	regulate/STIM_001.jpg
33.107	2.399	correct	regulate	Run1	regulate/STIM_001.jpg
37.951	2.59	incorrect	regulate	Run1	regulate/STIM_001.jpg
42.234	3.201	incorrect	regulate	Run1	regulate/STIM_002.jpg
48.485	2.141	correct	regulate	Run1	regulate/STIM_002.jpg
52.427	1.934	incorrect	regulate	Run1	regulate/STIM_002.jpg
57.688	2.337	correct	regulate	Run1	regulate/STIM_002.jpg
61.744	3.671	correct	regulate	Run1	regulate/STIM_003.jpg
68.136	3.58	correct	regulate	Run1	regulate/STIM_003.jpg
74.663	2.818	correct	regulate	Run1	regulate/STIM_003.jpg
79.974	2.568	correct	regulate	Run1	regulate/STIM_003.jpg
85.362	2.803	incorrect	regulate	Run1	regulate/STIM_004.jpg
90.888	2.259	correct	regulate	Run1	regulate/STIM_004.jpg
96.073	2.916	correct	regulate	Run1	regulate/STIM_004.jpg
101.212	2.943	correct	regulate	Run1	regulate/STIM_004.jpg
107.042	2.465	correct	regulate	Run1	regulate/STIM_005.jpg
113.092	1.898	correct	regulate	Run1	regulate/STIM_005.jpg
117.999	3.46	correct	regulate	Run1	regulate/STIM_005.jpg
124.748	1.727	correct	regulate	Run1	regulate/STIM_005.jpg
129.626	2.933	correct	regulate	Run1	regulate/STIM_006.jpg
135.518	2.426	correct	regulate	Run1	regulate/STIM_006.jpg
141.03	1.793	correct	regulate	Run1	regulate/STIM_006.jpg
146.434	2.596	correct	regulate	Run1	regulate/STIM_006.jpg
152.669	2.602	correct	regulate	Run1	regulate/STIM_007.jpg
158.66	1.648	incorrect	regulate	Run1	regulate/STIM_007.jpg
162.86	3.336	incorrect	regulate	Run1	regulate/STIM_007.jpg
169.374	2.32	correct	regulate	Run1	regulate/STIM_007.jpg
175.356	2.213	correct	regulate	Run1	regulate/STIM_008.jpg
180.114	2.269	incorrect	regulate	Run1	regulate/STIM_008.jpg
185.782	2.075	correct	regulate	Run1	regulate/STIM_008.jpg
191.519	2.21	correct	regulate	Run1	regulate/STIM_008.jpg
195.653	2.38	correct	regulate	Run1	regulate/STIM_009.jpg
200.584	2.08	correct	regulate	Run1	regulate/STIM_009.jpg
205.489	1.646	correct	regulate	Run1	regulate/STIM_009.jpg
210.147	1.563	correct	regulate	Run1	regulate/STIM_009.jpg
214.986	2.915	incorrect	regulate	Run1	regulate/STIM_010.jpg
219.803	2.708	correct	regulate	Run1	regulate/STIM_010.jpg
226.15	2.068	correct	regulate	Run1	regulate/STIM_010.jpg
230.476	1.456	correct	regulate	Run1	regulate/STIM_010.jpg
234.019	2.092	correct	regulate	Run1	regulate/STIM_011.jpg
238.971	1.799	correct	regulate	Run1	regulate/STIM_011.jpg
244.579	1.552	correct	regulate	Run1	regulate/STIM_011.jpg
248.289	3.188	correct	regulate	Run1	regulate/STIM_011.jpg
254.92	3.278	correct	regulate	Run1	regulate/STIM_012.jpg
261.569	2.161	incorrect	regulate	Run1	regulate/STIM_012.jpg
267.37	1.77	correct	regulate	Run1	regulate/STIM_012.jpg
271.141	1.869	correct	regulate	Run1	regulate/STIM_012.jpg
276.201	2.402	correct	regulate	Run1	regulate/STIM_013.jpg
281.429	2.509	correct	regulate	Run1	regulate/STIM_013.jpg
286.577	3.541	incorrect	regulate	Run1	regulate/STIM_013.jpg
293.397	2.575	correct	regulate	Run1	regulate/STIM_013.jpg
298.874	2.619	incorrect	regulate	Run1	regulate/STIM_014.jpg
303.823	3.644	correct	regulate	Run1	regulate/STIM_014.jpg
309.149	2.151	incorrect	regulate	Run1	regulate/STIM_014.jpg
314.576	2.958	correct	regulate	Run1	regulate/STIM_014.jpg
319.777	2.894	correct	regulate	Run1	regulate/STIM_015.jpg
326.031	1.843	correct	regulate	Run1	regulate/STIM_015.jpg
330.38	1.828	correct	regulate	Run1	regulate/STIM_015.jpg
335.034	1.6	correct	regulate	Run1	regulate/STIM_015.jpg
339.052	2.223	correct	regulate	Run1	regulate/STIM_016.jpg
343.978	1.967	correct	regulate	Run1	regulate/STIM_016.jpg
348.953	1.697	correct	regulate	Run1	regulate/STIM_016.jpg
353.432	2.258	incorrect	regulate	Run1	regulate/STIM_016.jpg
358.303	3.288	correct	regulate	Run1	regulate/STIM_017.jpg
365.019	3.552	correct	regulate	Run1	regulate/STIM_017.jpg
371.548	3.26	correct	regulate	Run1	regulate/STIM_017.jpg
378.418	2.58	correct	regulate	Run1	regulate/STIM_017.jpg
383.54	2.492	incorrect	regulate	Run1	regulate/STIM_018.jpg
388.811	2.714	correct	regulate	Run1	regulate/STIM_018.jpg
393.324	2.068	incorrect	regulate	Run1	regulate/STIM_018.jpg
398.379	2.065	correct	regulate	Run1	regulate/STIM_018.jpg
404.21	3.914	correct	regulate	Run1	regulate/STIM_019.jpg
410.49	3.211	correct	regulate	Run1	regulate/STIM_019.jpg
416.322	2.526	correct	regulate	Run1	regulate/STIM_019.jpg
420.871	2.715	incorrect	regulate	Run1	regulate/STIM_019.jpg
427.01	2.503	incorrect	regulate	Run1	regulate/STIM_020.jpg
431.262	3.646	correct	regulate	Run1	regulate/STIM_020.jpg
437.434	2.497	correct	regulate	Run1	regulate/STIM_020.jpg
443.338	1.63	correct	regulate	Run1	regulate/STIM_020.jpg
446.989	3.23	incorrect	regulate	Run1	regulate/STIM_021.jpg
452.693	2.402	correct	regulate	Run1	regulate/STIM_021.jpg
457.112	2.028	correct	regulate	Run1	regulate/STIM_021.jpg
461.314	2.177	correct	regulate	Run1	regulate/STIM_021.jpg
465.391	3.374	incorrect	regulate	Run1	regulate/STIM_022.jpg
471.71	2.942	correct	regulate	Run1	regulate/STIM_022.jpg
477.266	1.912	correct	regulate	Run1	regulate/STIM_022.jpg
481.673	2.879	correct	regulate	Run1	regulate/STIM_022.jpg
486.344	2.487	correct	regulate	Run1	regulate/STIM_023.jpg
491.416	3.569	correct	regulate	Run1	regulate/STIM_023.jpg
497.494	2.451	correct	regulate	Run1	regulate/STIM_023.jpg
501.682	2.428	incorrect	regulate	Run1	regulate/STIM_023.jpg
507.782	2.658	correct	regulate	Run1	regulate/STIM_024.jpg
513.614	3.277	correct	regulate	Run1	regulate/STIM_024.jpg
518.721	1.985	correct	regulate	Run1	regulate/STIM_024.jpg
522.565	2.563	correct	regulate	Run1	regulate/STIM_024.jpg
527.209	2.372	correct	regulate	Run1	regulate/STIM_025.jpg
531.612	3.186	incorrect	regulate	Run1	regulate/STIM_025.jpg
538.109	2.499	correct	regulate	Run1	regulate/STIM_025.jpg
543.892	2.817	incorrect	regulate	Run1	regulate/STIM_025.jpg
550.064	3.555	correct	regulate	Run1	regulate/STIM_026.jpg
556.44	3.094	incorrect	regulate	Run1	regulate/STIM_026.jpg
562.515	3.25	incorrect	regulate	Run1	regulate/STIM_026.jpg
567.945	2.45	incorrect	regulate	Run1	regulate/STIM_026.jpg
573.935	2.946	correct	regulate	Run1	regulate/STIM_027.jpg
580.204	3.109	correct	regulate	Run1	regulate/STIM_027.jpg
586.632	1.722	correct	regulate	Run1	regulate/STIM_027.jpg
591.565	2.802	correct	regulate	Run1	regulate/STIM_027.jpg
596.684	3.815	correct	regulate	Run1	regulate/STIM_028.jpg
602.159	1.765	correct	regulate	Run1	regulate/STIM_028.jpg
605.885	2.943	correct	regulate	Run1	regulate/STIM_028.jpg
612.508	2.264	correct	regulate	Run1	regulate/STIM_028.jpg
618.081	2.3	incorrect	regulate	Run1	regulate/STIM_029.jpg
622.343	2.326	correct	regulate	Run1	regulate/STIM_029.jpg
626.917	1.801	correct	regulate	Run1	regulate/STIM_029.jpg
632.369	1.727	correct	regulate	Run1	regulate/STIM_029.jpg
637.832	1.582	correct	observe	Run1	observe/STIM_000.jpg
641.211	1.227	correct	observe	Run1	observe/STIM_000.jpg
645.708	0.921	correct	observe	Run1	observe/STIM_000.jpg
649.499	1.424	correct	observe	Run1	observe/STIM_000.jpg
654.46	1.221	correct	observe	Run1	observe/STIM_001.jpg
658.756	1.12	correct	observe	Run1	observe/STIM_001.jpg
662.614	1.066	correct	observe	Run1	observe/STIM_001.jpg
667.458	1.339	correct	observe	Run1	observe/STIM_001.jpg
671.323	0.881	correct	observe	Run1	observe/STIM_002.jpg
676.151	1.687	correct	observe	Run1	observe/STIM_002.jpg
681.485	0.93	correct	observe	Run1	observe/STIM_002.jpg
685.054	1.471	correct	observe	Run1	observe/STIM_002.jpg
689.426	1.695	correct	observe	Run1	observe/STIM_003.jpg
692.953	1.315	correct	observe	Run1	observe/STIM_003.jpg
697.791	1.838	correct	observe	Run1	observe/STIM_003.jpg
702.349	1.009	correct	observe	Run1	observe/STIM_003.jpg
706.224	0.962	correct	observe	Run1	observe/STIM_004.jpg
709.789	1.453	correct	observe	Run1	observe/STIM_004.jpg
713.558	0.932	correct	observe	Run1	observe/STIM_004.jpg
717.884	1.726	correct	observe	Run1	observe/STIM_004.jpg
722.978	1.263	incorrect	observe	Run1	observe/STIM_005.jpg
727.692	1.155	incorrect	observe	Run1	observe/STIM_005.jpg
732.73	1.688	correct	observe	Run1	observe/STIM_005.jpg
738.188	1.226	correct	observe	Run1	observe/STIM_005.jpg
741.712	1.771	correct	observe	Run1	observe/STIM_006.jpg
747.034	1.111	correct	observe	Run1	observe/STIM_006.jpg
750.211	1.188	correct	observe	Run1	observe/STIM_006.jpg
755.13	1.209	correct	observe	Run1	observe/STIM_006.jpg
759.455	0.793	correct	observe	Run1	observe/STIM_007.jpg
762.991	1.454	correct	observe	Run1	observe/STIM_007.jpg
767.667	1.707	correct	observe	Run1	observe/STIM_007.jpg
772.747	1.59	correct	observe	Run1	observe/STIM_007.jpg
776.599	1.096	correct	observe	Run1	observe/STIM_008.jpg
780.51	1.695	correct	observe	Run1	observe/STIM_008.jpg
785.323	1.253	correct	observe	Run1	observe/STIM_008.jpg
789.763	1.376	correct	observe	Run1	observe/STIM_008.jpg
793.743	1.452	correct	observe	Run1	observe/STIM_009.jpg
798.799	1.079	correct	observe	Run1	observe/STIM_009.jpg
802.873	1.04	correct	observe	Run1	observe/STIM_009.jpg
805.966	1.333	correct	observe	Run1	observe/STIM_009.jpg
809.996	0.976	correct	observe	Run1	observe/STIM_010.jpg
813.127	1.051	correct	observe	Run1	observe/STIM_010.jpg
816.417	1.433	correct	observe	Run1	observe/STIM_010.jpg
820.569	1.627	correct	observe	Run1	observe/STIM_010.jpg
825.643	0.93	correct	observe	Run1	observe/STIM_011.jpg
829.699	1.202	incorrect	observe	Run1	observe/STIM_011.jpg
834.437	1.478	correct	observe	Run1	observe/STIM_011.jpg
838.27	1.458	correct	observe	Run1	observe/STIM_011.jpg
842.385	1.574	incorrect	observe	Run1	observe/STIM_012.jpg
847.315	1.198	correct	observe	Run1	observe/STIM_012.jpg
851.855	1.756	correct	observe	Run1	observe/STIM_012.jpg
855.908	0.948	correct	observe	Run1	observe/STIM_012.jpg
859.64	1.699	correct	observe	Run1	observe/STIM_013.jpg
864.448	1.346	correct	observe	Run1	observe/STIM_013.jpg
869.118	1.577	correct	observe	Run1	observe/STIM_013.jpg
872.789	1.052	incorrect	observe	Run1	observe/STIM_013.jpg
877.406	1.502	correct	observe	Run1	observe/STIM_014.jpg
881.688	1.214	correct	observe	Run1	observe/STIM_014.jpg
885.354	1.001	correct	observe	Run1	observe/STIM_014.jpg
889.101	1.629	correct	observe	Run1	observe/STIM_014.jpg
894.145	0.928	correct	observe	Run1	observe/STIM_015.jpg
898.196	1.626	incorrect	observe	Run1	observe/STIM_015.jpg
901.953	1.012	correct	observe	Run1	observe/STIM_015.jpg
905.442	1.29	correct	observe	Run1	observe/STIM_015.jpg
908.601	1.365	correct	observe	Run1	observe/STIM_016.jpg
913.449	1.451	incorrect	observe	Run1	observe/STIM_016.jpg
917.407	1.282	incorrect	observe	Run1	observe/STIM_016.jpg
921.165	1.106	correct	observe	Run1	observe/STIM_016.jpg
925.9	1.682	correct	observe	Run1	observe/STIM_017.jpg
929.749	1.446	incorrect	observe	Run1	observe/STIM_017.jpg
934.416	1.21	incorrect	observe	Run1	observe/STIM_017.jpg
938.258	1.005	correct	observe	Run1	observe/STIM_017.jpg
941.948	1.668	correct	observe	Run1	observe/STIM_018.jpg
947.173	0.924	correct	observe	Run1	observe/STIM_018.jpg
950.256	1.608	correct	observe	Run1	observe/STIM_018.jpg
955.132	1.777	correct	observe	Run1	observe/STIM_018.jpg
959.771	1.444	correct	observe	Run1	observe/STIM_019.jpg
964.641	1.043	correct	observe	Run1	observe/STIM_019.jpg
969.44	1.571	incorrect	observe	Run1	observe/STIM_019.jpg
974.569	1.408	correct	observe	Run1	observe/STIM_019.jpg
978.884	1.549	correct	regulate	Run2	regulate/STIM_000.jpg
982.881	2.744	correct	regulate	Run2	regulate/STIM_000.jpg
988.897	1.784	correct	regulate	Run2	regulate/STIM_000.jpg
993.344	2.393	incorrect	regulate	Run2	regulate/STIM_000.jpg
997.811	1.484	correct	regulate	Run2	regulate/STIM_001.jpg
1002.795	1.585	incorrect	regulate	Run2	regulate/STIM_001.jpg
1007.447	1.646	correct	regulate	Run2	regulate/STIM_001.jpg
1012.158	1.278	correct	regulate	Run2	regulate/STIM_001.jpg
1016.092	2.609	correct	regulate	Run2	regulate/STIM_002.jpg
1021.828	2.593	correct	regulate	Run2	regulate/STIM_002.jpg
1026.49	1.832	correct	regulate	Run2	regulate/STIM_002.jpg
1030.85	1.701	correct	regulate	Run2	regulate/STIM_002.jpg
1034.641	2.42	incorrect	regulate	Run2	regulate/STIM_003.jpg
1040.065	2.732	correct	regulate	Run2	regulate/STIM_003.jpg
1045.443	1.735	correct	regulate	Run2	regulate/STIM_003.jpg
1050.586	1.277	correct	regulate	Run2	regulate/STIM_003.jpg
1055.131	2.095	incorrect	regulate	Run2	regulate/STIM_004.jpg
1059.879	3.018	correct	regulate	Run2	regulate/STIM_004.jpg
1064.72	1.342	correct	regulate	Run2	regulate/STIM_004.jpg
1068.165	2.648	correct	regulate	Run2	regulate/STIM_004.jpg
1073.579	2.536	correct	regulate	Run2	regulate/STIM_005.jpg
1078.297	2.335	correct	regulate	Run2	regulate/STIM_005.jpg
1083.119	2.194	correct	regulate	Run2	regulate/STIM_005.jpg
1089.001	1.343	correct	regulate	Run2	regulate/STIM_005.jpg
1093.1	1.968	correct	regulate	Run2	regulate/STIM_006.jpg
1097.494	2.165	correct	regulate	Run2	regulate/STIM_006.jpg
1102.63	2.324	correct	regulate	Run2	regulate/STIM_006.jpg
1108.689	1.795	correct	regulate	Run2	regulate/STIM_006.jpg
1112.942	2.964	correct	regulate	Run2	regulate/STIM_007.jpg
1118.595	1.354	correct	regulate	Run2	regulate/STIM_007.jpg
1122.625	2.731	correct	regulate	Run2	regulate/STIM_007.jpg
1128.808	1.11	correct	regulate	Run2	regulate/STIM_007.jpg
1133.049	2.623	correct	regulate	Run2	regulate/STIM_008.jpg
1138.887	2.866	correct	regulate	Run2	regulate/STIM_008.jpg
1143.655	1.684	correct	regulate	Run2	regulate/STIM_008.jpg
1148.482	2.329	correct	regulate	Run2	regulate/STIM_008.jpg
1153.197	2.373	correct	regulate	Run2	regulate/STIM_009.jpg
1158.107	2.988	correct	regulate	Run2	regulate/STIM_009.jpg
1162.921	2.66	correct	regulate	Run2	regulate/STIM_009.jpg
1167.821	1.313	correct	regulate	Run2	regulate/STIM_009.jpg
1171.738	1.75	correct	regulate	Run2	regulate/STIM_010.jpg
1177.16	2.28	correct	regulate	Run2	regulate/STIM_010.jpg
1181.946	1.704	correct	regulate	Run2	regulate/STIM_010.jpg
1186.695	2.388	correct	regulate	Run2	regulate/STIM_010.jpg
1191.978	2.762	incorrect	regulate	Run2	regulate/STIM_011.jpg
1197.906	2.395	correct	regulate	Run2	regulate/STIM_011.jpg
1202.113	2.476	incorrect	regulate	Run2	regulate/STIM_011.jpg
1207.458	1.296	incorrect	regulate	Run2	regulate/STIM_011.jpg
1212.549	1.399	correct	regulate	Run2	regulate/STIM_012.jpg
1216.757	1.55	correct	regulate	Run2	regulate/STIM_012.jpg
1221.04	1.324	incorrect	regulate	Run2	regulate/STIM_012.jpg
1226.154	2.427	correct	regulate	Run2	regulate/STIM_012.jpg
1231.466	2.96	correct	regulate	Run2	regulate/STIM_013.jpg
1237.954	1.766	correct	regulate	Run2	regulate/STIM_013.jpg
1241.881	2.232	correct	regulate	Run2	regulate/STIM_013.jpg
1246.865	2.017	correct	regulate	Run2	regulate/STIM_013.jpg
1252.426	2.42	correct	regulate	Run2	regulate/STIM_014.jpg
1258.465	1.977	correct	regulate	Run2	regulate/STIM_014.jpg
1264.028	2.533	correct	regulate	Run2	regulate/STIM_014.jpg
1268.546	1.661	correct	regulate	Run2	regulate/STIM_014.jpg
1273.438	2.869	correct	regulate	Run2	regulate/STIM_015.jpg
1278.969	1.47	correct	regulate	Run2	regulate/STIM_015.jpg
1284.017	2.719	correct	regulate	Run2	regulate/STIM_015.jpg
1288.578	1.323	correct	regulate	Run2	regulate/STIM_015.jpg
1292.021	2.675	correct	regulate	Run2	regulate/STIM_016.jpg
1297.761	2.65	correct	regulate	Run2	regulate/STIM_016.jpg
1302.738	1.376	correct	regulate	Run2	regulate/STIM_016.jpg
1307.33	1.333	correct	regulate	Run2	regulate/STIM_016.jpg
1312.352	2.472	correct	regulate	Run2	regulate/STIM_017.jpg
1317.204	1.336	incorrect	regulate	Run2	regulate/STIM_017.jpg
1320.784	1.864	correct	regulate	Run2	regulate/STIM_017.jpg
1325.952	1.974	correct	regulate	Run2	regulate/STIM_017.jpg
1330.978	3.247	incorrect	regulate	Run2	regulate/STIM_018.jpg
1337.301	2.923	correct	regulate	Run2	regulate/STIM_018.jpg
1342.603	2.026	correct	regulate	Run2	regulate/STIM_018.jpg
1347.957	1.206	correct	regulate	Run2	regulate/STIM_018.jpg
1351.806	1.78	incorrect	regulate	Run2	regulate/STIM_019.jpg
1356.138	2.95	correct	regulate	Run2	regulate/STIM_019.jpg
1361.385	2.68	correct	regulate	Run2	regulate/STIM_019.jpg
1367.782	2.021	correct	regulate	Run2	regulate/STIM_019.jpg
1372.919	2.868	correct	regulate	Run2	regulate/STIM_020.jpg
1378.972	1.596	correct	regulate	Run2	regulate/STIM_020.jpg
1383.017	1.454	correct	regulate	Run2	regulate/STIM_020.jpg
1387.361	2.085	correct	regulate	Run2	regulate/STIM_020.jpg
1392.89	1.709	correct	regulate	Run2	regulate/STIM_021.jpg
1397.416	1.512	correct	regulate	Run2	regulate/STIM_021.jpg
1401.661	1.544	correct	regulate	Run2	regulate/STIM_021.jpg
1405.204	1.294	correct	regulate	Run2	regulate/STIM_021.jpg
1408.561	2.589	correct	regulate	Run2	regulate/STIM_022.jpg
1413.646	2.732	correct	regulate	Run2	regulate/STIM_022.jpg
1418.226	2.61	correct	regulate	Run2	regulate/STIM_022.jpg
1423.853	2.095	correct	regulate	Run2	regulate/STIM_022.jpg
1428.9	2.3	correct	regulate	Run2	regulate/STIM_023.jpg
1433.427	1.782	correct	regulate	Run2	regulate/STIM_023.jpg
1438.54	1.667	correct	regulate	Run2	regulate/STIM_023.jpg
1442.112	1.472	correct	regulate	Run2	regulate/STIM_023.jpg
1447.349	2.236	incorrect	regulate	Run2	regulate/STIM_024.jpg
1452.57	2.404	correct	regulate	Run2	regulate/STIM_024.jpg
1456.766	2.622	correct	regulate	Run2	regulate/STIM_024.jpg
1461.563	2.176	correct	regulate	Run2	regulate/STIM_024.jpg
1465.818	2.532	correct	regulate	Run2	regulate/STIM_025.jpg
1471.397	1.861	correct	regulate	Run2	regulate/STIM_025.jpg
1475.582	1.933	correct	regulate	Run2	regulate/STIM_025.jpg
1480.38	1.643	correct	regulate	Run2	regulate/STIM_025.jpg
1485.64	2.449	correct	regulate	Run2	regulate/STIM_026.jpg
1490.555	1.552	correct	regulate	Run2	regulate/STIM_026.jpg
1495.182	2.717	correct	regulate	Run2	regulate/STIM_026.jpg
1501.181	1.399	correct	regulate	Run2	regulate/STIM_026.jpg
1505.97	1.553	correct	regulate	Run2	regulate/STIM_027.jpg
1510.123	2.782	correct	regulate	Run2	regulate/STIM_027.jpg
1516.607	2.585	correct	regulate	Run2	regulate/STIM_027.jpg
1521.36	2.362	incorrect	regulate	Run2	regulate/STIM_027.jpg
1525.528	2.06	correct	regulate	Run2	regulate/STIM_028.jpg
1531.002	1.792	correct	regulate	Run2	regulate/STIM_028.jpg
1536.543	1.928	correct	regulate	Run2	regulate/STIM_028.jpg
1541.925	1.44	incorrect	regulate	Run2	regulate/STIM_028.jpg
1545.424	1.833	correct	regulate	Run2	regulate/STIM_029.jpg
1550.303	1.601	correct	regulate	Run2	regulate/STIM_029.jpg
1555.619	1.555	correct	regulate	Run2	regulate/STIM_029.jpg
1559.973	1.583	correct	regulate	Run2	regulate/STIM_029.jpg
1564.353	1.283	incorrect	observe	Run2	observe/STIM_000.jpg
1569.296	1.343	incorrect	observe	Run2	observe/STIM_000.jpg
1573.299	1.375	incorrect	observe	Run2	observe/STIM_000.jpg
1577.883	1.21	correct	observe	Run2	observe/STIM_000.jpg
1582.072	1.708	correct	observe	Run2	observe/STIM_001.jpg
1586.639	1.447	correct	observe	Run2	observe/STIM_001.jpg
1590.528	1.448	correct	observe	Run2	observe/STIM_001.jpg
1595.26	1.554	correct	observe	Run2	observe/STIM_001.jpg
1600.094	1.829	correct	observe	Run2	observe/STIM_002.jpg
1604.924	1.681	correct	observe	Run2	observe/STIM_002.jpg
1609.002	1.076	correct	observe	Run2	observe/STIM_002.jpg
1613.685	1.205	correct	observe	Run2	observe/STIM_002.jpg
1616.956	1.232	incorrect	observe	Run2	observe/STIM_003.jpg
1621.321	1.59	correct	observe	Run2	observe/STIM_003.jpg
1626.04	1.774	correct	observe	Run2	observe/STIM_003.jpg
1631.254	1.531	correct	observe	Run2	observe/STIM_003.jpg
1635.797	1.127	correct	observe	Run2	observe/STIM_004.jpg
1639.162	1.478	correct	observe	Run2	observe/STIM_004.jpg
1643.556	1.768	correct	observe	Run2	observe/STIM_004.jpg
1648.203	1.539	correct	observe	Run2	observe/STIM_004.jpg
1652.841	1.749	correct	observe	Run2	observe/STIM_005.jpg
1656.799	1.122	incorrect	observe	Run2	observe/STIM_005.jpg
1661.652	1.495	correct	observe	Run2	observe/STIM_005.jpg
1665.81	1.327	correct	observe	Run2	observe/STIM_005.jpg
1670.502	1.733	correct	observe	Run2	observe/STIM_006.jpg
1675.38	1.454	correct	observe	Run2	observe/STIM_006.jpg
1679.691	1.773	incorrect	observe	Run2	observe/STIM_006.jpg
1684.941	0.927	correct	observe	Run2	observe/STIM_006.jpg
1688.509	1.478	correct	observe	Run2	observe/STIM_007.jpg
1692.033	0.928	correct	observe	Run2	observe/STIM_007.jpg
1695.827	0.971	correct	observe	Run2	observe/STIM_007.jpg
1699.364	1.572	correct	observe	Run2	observe/STIM_007.jpg
1703.049	1.722	correct	observe	Run2	observe/STIM_008.jpg
1708.532	1.801	correct	observe	Run2	observe/STIM_008.jpg
1713.335	1.246	correct	observe	Run2	observe/STIM_008.jpg
1717.698	0.949	correct	observe	Run2	observe/STIM_008.jpg
1721.043	1.458	correct	observe	Run2	observe/STIM_009.jpg
1724.789	0.95	correct	observe	Run2	observe/STIM_009.jpg
1727.958	1.558	correct	observe	Run2	observe/STIM_009.jpg
1732.942	1.21	correct	observe	Run2	observe/STIM_009.jpg
1736.364	1.185	correct	observe	Run2	observe/STIM_010.jpg
1741.097	1.467	correct	observe	Run2	observe/STIM_010.jpg
1745.536	1.471	correct	observe	Run2	observe/STIM_010.jpg
1749.185	1.689	correct	observe	Run2	observe/STIM_010.jpg
1753.219	1.26	incorrect	observe	Run2	observe/STIM_011.jpg
1756.986	1.742	correct	observe	Run2	observe/STIM_011.jpg
1762.312	1.664	correct	observe	Run2	observe/STIM_011.jpg
1767.551	1.002	correct	observe	Run2	observe/STIM_011.jpg
1771.212	1.075	correct	observe	Run2	observe/STIM_012.jpg
1775.339	0.895	correct	observe	Run2	observe/STIM_012.jpg
1778.657	0.972	correct	observe	Run2	observe/STIM_012.jpg
1782.753	0.866	correct	observe	Run2	observe/STIM_012.jpg
1786.906	1.599	correct	observe	Run2	observe/STIM_013.jpg
1791.797	0.815	correct	observe	Run2	observe/STIM_013.jpg
1796.32	1.532	correct	observe	Run2	observe/STIM_013.jpg
1800.972	1.199	incorrect	observe	Run2	observe/STIM_013.jpg
1804.724	0.945	correct	observe	Run2	observe/STIM_014.jpg
1809.328	1.767	correct	observe	Run2	observe/STIM_014.jpg
1813.692	1.304	correct	observe	Run2	observe/STIM_014.jpg
1817.903	1.395	correct	observe	Run2	observe/STIM_014.jpg
1822.575	0.977	correct	observe	Run2	observe/STIM_015.jpg
1827.296	1.681	correct	observe	Run2	observe/STIM_015.jpg
1830.886	1.333	incorrect	observe	Run2	observe/STIM_015.jpg
1834.308	1.539	correct	observe	Run2	observe/STIM_015.jpg
1837.92	1.536	incorrect	observe	Run2	observe/STIM_016.jpg
1841.893	1.509	correct	observe	Run2	observe/STIM_016.jpg
1846.097	1.179	correct	observe	Run2	observe/STIM_016.jpg
1850.431	0.851	correct	observe	Run2	observe/STIM_016.jpg
1853.259	1.351	correct	observe	Run2	observe/STIM_017.jpg
1857.756	0.908	correct	observe	Run2	observe/STIM_017.jpg
1861.568	1.081	correct	observe	Run2	observe/STIM_017.jpg
1865.093	1.395	correct	observe	Run2	observe/STIM_017.jpg
1869.38	1.254	correct	observe	Run2	observe/STIM_018.jpg
1873.632	0.924	correct	observe	Run2	observe/STIM_018.jpg
1876.886	1.494	correct	observe	Run2	observe/STIM_018.jpg
1881.224	0.929	correct	observe	Run2	observe/STIM_018.jpg
1885.018	1.132	correct	observe	Run2	observe/STIM_019.jpg
1888.825	1.322	correct	observe	Run2	observe/STIM_019.jpg
1893.211	1.355	correct	observe	Run2	observe/STIM_019.jpg
1897.382	1.016	correct	observe	Run2	observe/STIM_019.jpg
1901.161	2.56	correct	regulate	Run3	regulate/STIM_000.jpg
1906.249	1.83	correct	regulate	Run3	regulate/STIM_000.jpg
1910.59	1.366	correct	regulate	Run3	regulate/STIM_000.jpg
1914.018	1.723	correct	regulate	Run3	regulate/STIM_000.jpg
1918.841	2.16	correct	regulate	Run3	regulate/STIM_001.jpg
1924.526	1.197	correct	regulate	Run3	regulate/STIM_001.jpg
1928.993	1.928	correct	regulate	Run3	regulate/STIM_001.jpg
1934.038	2.178	correct	regulate	Run3	regulate/STIM_001.jpg
1939.981	1.495	incorrect	regulate	Run3	regulate/STIM_002.jpg
1943.885	2.329	correct	regulate	Run3	regulate/STIM_002.jpg
1949.858	2.323	correct	regulate	Run3	regulate/STIM_002.jpg
1954.075	2.048	correct	regulate	Run3	regulate/STIM_002.jpg
1958.758	1.683	correct	regulate	Run3	regulate/STIM_003.jpg
1964.136	1.628	correct	regulate	Run3	regulate/STIM_003.jpg
1968.556	1.966	correct	regulate	Run3	regulate/STIM_003.jpg
1973.13	1.826	correct	regulate	Run3	regulate/STIM_003.jpg
1978.147	2.043	correct	regulate	Run3	regulate/STIM_004.jpg
1983.81	2.693	correct	regulate	Run3	regulate/STIM_004.jpg
1989.586	1.611	correct	regulate	Run3	regulate/STIM_004.jpg
1993.114	2.521	correct	regulate	Run3	regulate/STIM_004.jpg
1998.986	2.564	correct	regulate	Run3	regulate/STIM_005.jpg
2003.887	2.324	correct	regulate	Run3	regulate/STIM_005.jpg
2009.37	1.799	correct	regulate	Run3	regulate/STIM_005.jpg
2013.291	2.235	correct	regulate	Run3	regulate/STIM_005.jpg
2018.963	2.64	correct	regulate	Run3	regulate/STIM_006.jpg
2024.629	2.626	correct	regulate	Run3	regulate/STIM_006.jpg
2030.474	2.431	correct	regulate	Run3	regulate/STIM_006.jpg
2035.312	1.341	correct	regulate	Run3	regulate/STIM_006.jpg
2038.848	1.354	correct	regulate	Run3	regulate/STIM_007.jpg
2043.449	2.535	correct	regulate	Run3	regulate/STIM_007.jpg
2048.083	2.309	correct	regulate	Run3	regulate/STIM_007.jpg
2053.234	1.714	correct	regulate	Run3	regulate/STIM_007.jpg
2058.345	2.591	correct	regulate	Run3	regulate/STIM_008.jpg
2062.981	1.528	correct	regulate	Run3	regulate/STIM_008.jpg
2068.188	1.773	correct	regulate	Run3	regulate/STIM_008.jpg
2072.046	2.596	correct	regulate	Run3	regulate/STIM_008.jpg
2077.943	2.514	correct	regulate	Run3	regulate/STIM_009.jpg
2084.08	2.069	correct	regulate	Run3	regulate/STIM_009.jpg
2089.0	1.273	correct	regulate	Run3	regulate/STIM_009.jpg
2092.803	1.844	correct	regulate	Run3	regulate/STIM_009.jpg
2096.664	1.301	correct	regulate	Run3	regulate/STIM_010.jpg
2101.159	2.292	correct	regulate	Run3	regulate/STIM_010.jpg
2105.694	2.429	correct	regulate	Run3	regulate/STIM_010.jpg
2110.514	1.696	correct	regulate	Run3	regulate/STIM_010.jpg
2114.444	1.247	correct	regulate	Run3	regulate/STIM_011.jpg
2118.466	2.708	correct	regulate	Run3	regulate/STIM_011.jpg
2124.205	2.11	correct	regulate	Run3	regulate/STIM_011.jpg
2129.74	1.681	correct	regulate	Run3	regulate/STIM_011.jpg
2134.673	1.386	correct	regulate	Run3	regulate/STIM_012.jpg
2139.098	1.464	correct	regulate	Run3	regulate/STIM_012.jpg
2143.586	2.576	correct	regulate	Run3	regulate/STIM_012.jpg
2148.965	2.032	correct	regulate	Run3	regulate/STIM_012.jpg
2153.275	2.076	correct	regulate	Run3	regulate/STIM_013.jpg
2158.688	2.129	correct	regulate	Run3	regulate/STIM_013.jpg
2163.621	1.444	correct	regulate	Run3	regulate/STIM_013.jpg
2167.713	2.372	incorrect	regulate	Run3	regulate/STIM_013.jpg
2172.253	1.237	incorrect	regulate	Run3	regulate/STIM_014.jpg
2175.872	1.579	correct	regulate	Run3	regulate/STIM_014.jpg
2181.081	2.234	correct	regulate	Run3	regulate/STIM_014.jpg
2185.838	1.926	correct	regulate	Run3	regulate/STIM_014.jpg
2190.861	1.754	correct	regulate	Run3	regulate/STIM_015.jpg
2195.11	1.38	correct	regulate	Run3	regulate/STIM_015.jpg
2199.807	2.05	correct	regulate	Run3	regulate/STIM_015.jpg
2203.752	2.654	correct	regulate	Run3	regulate/STIM_015.jpg
2209.259	2.046	correct	regulate	Run3	regulate/STIM_016.jpg
2213.747	1.851	correct	regulate	Run3	regulate/STIM_016.jpg
2218.66	1.702	correct	regulate	Run3	regulate/STIM_016.jpg
2222.366	1.954	correct	regulate	Run3	regulate/STIM_016.jpg
2227.136	1.631	correct	regulate	Run3	regulate/STIM_017.jpg
2230.718	1.516	correct	regulate	Run3	regulate/STIM_017.jpg
2234.635	1.393	correct	regulate	Run3	regulate/STIM_017.jpg
2238.331	1.665	correct	regulate	Run3	regulate/STIM_017.jpg
2243.149	2.564	correct	regulate	Run3	regulate/STIM_018.jpg
2248.107	2.742	incorrect	regulate	Run3	regulate/STIM_018.jpg
2253.117	2.48	correct	regulate	Run3	regulate/STIM_018.jpg
2258.217	2.576	correct	regulate	Run3	regulate/STIM_018.jpg
2263.776	2.332	incorrect	regulate	Run3	regulate/STIM_019.jpg
2269.434	1.516	correct	regulate	Run3	regulate/STIM_019.jpg
2274.413	2.435	correct	regulate	Run3	regulate/STIM_019.jpg
2279.854	1.566	correct	regulate	Run3	regulate/STIM_019.jpg
2284.262	1.251	correct	regulate	Run3	regulate/STIM_020.jpg
2287.833	2.498	correct	regulate	Run3	regulate/STIM_020.jpg
2293.213	1.661	correct	regulate	Run3	regulate/STIM_020.jpg
2297.845	1.83	correct	regulate	Run3	regulate/STIM_020.jpg
2302.184	2.685	correct	regulate	Run3	regulate/STIM_021.jpg
2308.409	1.361	correct	regulate	Run3	regulate/STIM_021.jpg
2313.168	2.265	correct	regulate	Run3	regulate/STIM_021.jpg
2317.687	1.562	correct	regulate	Run3	regulate/STIM_021.jpg
2321.218	2.429	correct	regulate	Run3	regulate/STIM_022.jpg
2326.025	2.238	correct	regulate	Run3	regulate/STIM_022.jpg
2331.645	1.231	correct	regulate	Run3	regulate/STIM_022.jpg
2335.056	2.247	correct	regulate	Run3	regulate/STIM_022.jpg
2339.975	2.315	correct	regulate	Run3	regulate/STIM_023.jpg
2344.238	2.436	correct	regulate	Run3	regulate/STIM_023.jpg
2348.744	1.324	correct	regulate	Run3	regulate/STIM_023.jpg
2353.245	2.559	correct	regulate	Run3	regulate/STIM_023.jpg
2358.45	1.593	correct	regulate	Run3	regulate/STIM_024.jpg
2363.228	1.143	correct	regulate	Run3	regulate/STIM_024.jpg
2366.708	1.76	correct	regulate	Run3	regulate/STIM_024.jpg
2370.386	2.694	incorrect	regulate	Run3	regulate/STIM_024.jpg
2376.131	2.467	correct	regulate	Run3	regulate/STIM_025.jpg
2380.425	1.263	correct	regulate	Run3	regulate/STIM_025.jpg
2385.342	2.622	correct	regulate	Run3	regulate/STIM_025.jpg
2389.923	2.445	correct	regulate	Run3	regulate/STIM_025.jpg
2394.66	1.596	correct	regulate	Run3	regulate/STIM_026.jpg
2398.608	1.148	correct	regulate	Run3	regulate/STIM_026.jpg
2402.4	2.566	correct	regulate	Run3	regulate/STIM_026.jpg
2407.853	2.655	correct	regulate	Run3	regulate/STIM_026.jpg
2413.893	1.768	correct	regulate	Run3	regulate/STIM_027.jpg
2417.769	2.33	correct	regulate	Run3	regulate/STIM_027.jpg
2422.278	2.59	correct	regulate	Run3	regulate/STIM_027.jpg
2427.596	1.41	correct	regulate	Run3	regulate/STIM_027.jpg
2432.419	1.493	correct	regulate	Run3	regulate/STIM_028.jpg
2435.976	2.503	correct	regulate	Run3	regulate/STIM_028.jpg
2440.869	1.804	correct	regulate	Run3	regulate/STIM_028.jpg
2445.783	2.16	correct	regulate	Run3	regulate/STIM_028.jpg
2449.781	1.227	correct	regulate	Run3	regulate/STIM_029.jpg
2453.274	1.448	correct	regulate	Run3	regulate/STIM_029.jpg
2457.345	2.629	correct	regulate	Run3	regulate/STIM_029.jpg
2463.442	2.171	correct	regulate	Run3	regulate/STIM_029.jpg
2467.714	0.973	correct	observe	Run3	observe/STIM_000.jpg
2471.637	1.397	correct	observe	Run3	observe/STIM_000.jpg
2475.617	1.181	correct	observe	Run3	observe/STIM_000.jpg
2479.717	1.838	correct	observe	Run3	observe/STIM_000.jpg
2484.174	1.4	correct	observe	Run3	observe/STIM_001.jpg
2487.606	1.287	correct	observe	Run3	observe/STIM_001.jpg
2492.631	1.329	correct	observe	Run3	observe/STIM_001.jpg
2497.397	1.673	correct	observe	Run3	observe/STIM_001.jpg
2502.578	1.089	correct	observe	Run3	observe/STIM_002.jpg
2505.632	1.27	correct	observe	Run3	observe/STIM_002.jpg
2510.166	1.456	correct	observe	Run3	observe/STIM_002.jpg
2515.056	0.94	correct	observe	Run3	observe/STIM_002.jpg
2519.462	0.992	correct	observe	Run3	observe/STIM_003.jpg
2524.242	1.27	correct	observe	Run3	observe/STIM_003.jpg
2528.335	1.431	incorrect	observe	Run3	observe/STIM_003.jpg
2533.013	1.099	correct	observe	Run3	observe/STIM_003.jpg
2537.587	1.2	correct	observe	Run3	observe/STIM_004.jpg
2541.682	1.668	correct	observe	Run3	observe/STIM_004.jpg
2546.483	1.285	correct	observe	Run3	observe/STIM_004.jpg
2549.918	1.256	incorrect	observe	Run3	observe/STIM_004.jpg
2554.511	1.514	correct	observe	Run3	observe/STIM_005.jpg
2558.676	1.362	correct	observe	Run3	observe/STIM_005.jpg
2562.116	1.02	correct	observe	Run3	observe/STIM_005.jpg
2566.911	1.77	correct	observe	Run3	observe/STIM_005.jpg
2572.214	0.908	incorrect	observe	Run3	observe/STIM_006.jpg
2575.908	1.66	correct	observe	Run3	observe/STIM_006.jpg
2580.731	1.326	correct	observe	Run3	observe/STIM_006.jpg
2584.727	0.916	correct	observe	Run3	observe/STIM_006.jpg
2588.612	1.51	correct	observe	Run3	observe/STIM_007.jpg
2593.417	1.015	correct	observe	Run3	observe/STIM_007.jpg
2597.961	1.483	correct	observe	Run3	observe/STIM_007.jpg
2602.187	1.409	incorrect	observe	Run3	observe/STIM_007.jpg
2607.388	0.938	correct	observe	Run3	observe/STIM_008.jpg
2612.127	1.746	correct	observe	Run3	observe/STIM_008.jpg
2616.821	1.543	correct	observe	Run3	observe/STIM_008.jpg
2621.646	0.999	correct	observe	Run3	observe/STIM_008.jpg
2625.253	0.94	correct	observe	Run3	observe/STIM_009.jpg
2629.591	1.135	correct	observe	Run3	observe/STIM_009.jpg
2634.643	1.676	correct	observe	Run3	observe/STIM_009.jpg
2639.401	0.977	correct	observe	Run3	observe/STIM_009.jpg
2643.376	1.085	correct	observe	Run3	observe/STIM_010.jpg
2647.226	1.274	correct	observe	Run3	observe/STIM_010.jpg
2651.329	1.427	correct	observe	Run3	observe/STIM_010.jpg
2655.936	0.913	correct	observe	Run3	observe/STIM_010.jpg
2660.226	1.738	correct	observe	Run3	observe/STIM_011.jpg
2665.274	0.922	correct	observe	Run3	observe/STIM_011.jpg
2669.861	1.115	correct	observe	Run3	observe/STIM_011.jpg
2673.113	1.253	correct	observe	Run3	observe/STIM_011.jpg
2676.28	1.747	correct	observe	Run3	observe/STIM_012.jpg
2680.947	0.957	correct	observe	Run3	observe/STIM_012.jpg
2685.184	1.388	incorrect	observe	Run3	observe/STIM_012.jpg
2689.846	1.693	incorrect	observe	Run3	observe/STIM_012.jpg
2695.205	1.517	correct	observe	Run3	observe/STIM_013.jpg
2699.27	1.373	correct	observe	Run3	observe/STIM_013.jpg
2703.952	1.504	correct	observe	Run3	observe/STIM_013.jpg
2708.833	1.43	correct	observe	Run3	observe/STIM_013.jpg
2712.538	1.37	correct	observe	Run3	observe/STIM_014.jpg
2716.857	0.82	incorrect	observe	Run3	observe/STIM_014.jpg
2719.736	1.23	correct	observe	Run3	observe/STIM_014.jpg
2723.734	1.451	correct	observe	Run3	observe/STIM_014.jpg
2727.983	1.094	correct	observe	Run3	observe/STIM_015.jpg
2731.311	1.013	incorrect	observe	Run3	observe/STIM_015.jpg
2735.734	1.228	correct	observe	Run3	observe/STIM_015.jpg
2739.33	1.06	correct	observe	Run3	observe/STIM_015.jpg
2743.434	1.199	correct	observe	Run3	observe/STIM_016.jpg
2748.19	1.847	correct	observe	Run3	observe/STIM_016.jpg
2752.139	1.298	correct	observe	Run3	observe/STIM_016.jpg
2756.83	1.071	correct	observe	Run3	observe/STIM_016.jpg
2759.798	0.958	correct	observe	Run3	observe/STIM_017.jpg
2764.456	1.527	correct	observe	Run3	observe/STIM_017.jpg
2768.991	1.065	correct	observe	Run3	observe/STIM_017.jpg
2772.622	1.033	correct	observe	Run3	observe/STIM_017.jpg
2775.948	0.938	correct	observe	Run3	observe/STIM_018.jpg
2779.102	1.66	correct	observe	Run3	observe/STIM_018.jpg
2784.559	0.829	correct	observe	Run3	observe/STIM_018.jpg
2788.003	1.436	correct	observe	Run3	observe/STIM_018.jpg
2792.097	1.535	correct	observe	Run3	observe/STIM_019.jpg
2797.334	1.358	incorrect	observe	Run3	observe/STIM_019.jpg
2801.904	1.286	correct	observe	Run3	observe/STIM_019.jpg
2806.442	0.98	correct	observe	Run3	observe/STIM_019.jpg
