onset	duration	response_time_ms	trial_type	learning_stage	stimulus	response_port
0.0	3.215	3215.3	regulate	Run1	regulate/STIM_000.jpg	100
6.775	3.44	3439.7	regulate	Run1	regulate/STIM_000.jpg	99
12.228	1.792	1791.9	regulate	Run1	regulate/STIM_000.jpg	100
16.072	1.68	1679.5	regulate	Run1	regulate/STIM_000.jpg	99
20.028	2.722	2721.7	regulate	Run1	regulate/STIM_001.jpg	100
26.144	2.776	2775.6	regulate	Run1	regulate/STIM_001.jpg	100
32.794	2.438	2437.5	regulate	Run1	regulate/STIM_001.jpg	100
39.206	2.599	2599.4	regulate	Run1	regulate/STIM_001.jpg	100
45.749	1.838	1838.3	regulate	Run1	regulate/STIM_002.jpg	99
50.78	1.96	1959.6	regulate	Run1	regulate/STIM_002.jpg	99
56.269	2.426	2426.2	regulate	Run1	regulate/STIM_002.jpg	99
60.96	2.395	2395.4	regulate	Run1	regulate/STIM_002.jpg	100
67.038	2.781	2781.1	regulate	Run1	regulate/STIM_003.jpg	100
71.987	2.965	2965.0	regulate	Run1	regulate/STIM_003.jpg	100
77.29	2.563	2563.4	regulate	Run1	regulate/STIM_003.jpg	100
83.0	1.842	1841.9	regulate	Run1	regulate/STIM_003.jpg	100
87.446	1.93	1930.2	regulate	Run1	regulate/STIM_004.jpg	99
92.505	1.796	1796.3	regulate	Run1	regulate/STIM_004.jpg	99
96.929	3.112	3112.1	regulate	Run1	regulate/STIM_004.jpg	100
102.143	3.069	3068.8	regulate	Run1	regulate/STIM_004.jpg	100
108.998	1.932	1931.9	regulate	Run1	regulate/STIM_005.jpg	100
114.693	2.808	2808.1	regulate	Run1	regulate/STIM_005.jpg	100
120.834	2.247	2247.2	regulate	Run1	regulate/STIM_005.jpg	100
126.776	1.543	1543.3	regulate	Run1	regulate/STIM_005.jpg	100
130.737	3.432	3431.5	regulate	Run1	regulate/STIM_006.jpg	99
136.173	2.425	2424.6	regulate	Run1	regulate/STIM_006.jpg	99
142.574	2.893	2893.1	regulate	Run1	regulate/STIM_006.jpg	100
148.326	1.674	1673.7	regulate	Run1	regulate/STIM_006.jpg	99
153.541	2.81	2810.0	regulate	Run1	regulate/STIM_007.jpg	99
159.751	1.837	1836.6	regulate	Run1	regulate/STIM_007.jpg	99
164.289	2.074	2074.2	regulate	Run1	regulate/STIM_007.jpg	100
168.438	1.82	1819.9	regulate	Run1	regulate/STIM_007.jpg	99
173.076	2.729	2729.4	regulate	Run1	regulate/STIM_008.jpg	99
179.167	1.836	1835.8	regulate	Run1	regulate/STIM_008.jpg	99
184.175	2.398	2398.2	regulate	Run1	regulate/STIM_008.jpg	99
188.79	1.401	1401.0	regulate	Run1	regulate/STIM_008.jpg	100
193.473	3.376	3375.9	regulate	Run1	regulate/STIM_009.jpg	100
200.839	2.186	2186.1	regulate	Run1	regulate/STIM_009.jpg	100
205.715	2.5	2500.1	regulate	Run1	regulate/STIM_009.jpg	100
210.641	2.768	2767.9	regulate	Run1	regulate/STIM_009.jpg	100
216.878	2.323	2323.2	regulate	Run1	regulate/STIM_010.jpg	99
222.813	2.672	2672.3	regulate	Run1	regulate/STIM_010.jpg	99
229.106	2.758	2758.4	regulate	Run1	regulate/STIM_010.jpg	99
233.865	1.419	1418.8	regulate	Run1	regulate/STIM_010.jpg	100
238.084	2.917	2916.7	regulate	Run1	regulate/STIM_011.jpg	99
244.354	2.108	2108.3	regulate	Run1	regulate/STIM_011.jpg	100
249.467	2.932	2931.8	regulate	Run1	regulate/STIM_011.jpg	99
256.244	2.987	2986.6	regulate	Run1	regulate/STIM_011.jpg	99
263.104	2.328	2327.6	regulate	Run1	regulate/STIM_012.jpg	99
268.177	2.394	2393.6	regulate	Run1	regulate/STIM_012.jpg	100
274.177	1.469	1469.0	regulate	Run1	regulate/STIM_012.jpg	99
279.143	2.702	2701.9	regulate	Run1	regulate/STIM_012.jpg	100
283.873	2.451	2451.4	regulate	Run1	regulate/STIM_013.jpg	99
288.952	3.133	3132.6	regulate	Run1	regulate/STIM_013.jpg	100
295.065	1.852	1852.5	regulate	Run1	regulate/STIM_013.jpg	100
300.363	2.619	2618.6	regulate	Run1	regulate/STIM_013.jpg	100
306.34	3.032	3032.2	regulate	Run1	regulate/STIM_014.jpg	99
313.333	2.648	2648.4	regulate	Run1	regulate/STIM_014.jpg	100
318.858	2.307	2306.8	regulate	Run1	regulate/STIM_014.jpg	100
325.158	1.575	1575.0	regulate	Run1	regulate/STIM_014.jpg	99
329.211	2.617	2617.3	regulate	Run1	regulate/STIM_015.jpg	100
333.952	2.517	2516.9	regulate	Run1	regulate/STIM_015.jpg	100
340.147	1.432	1432.5	regulate	Run1	regulate/STIM_015.jpg	100
344.005	2.037	2037.4	regulate	Run1	regulate/STIM_015.jpg	100
349.672	3.622	3621.5	regulate	Run1	regulate/STIM_016.jpg	99
357.181	3.286	3286.3	regulate	Run1	regulate/STIM_016.jpg	99
363.337	1.451	1450.7	regulate	Run1	regulate/STIM_016.jpg	99
368.046	2.298	2298.4	regulate	Run1	regulate/STIM_016.jpg	100
373.162	2.239	2238.6	regulate	Run1	regulate/STIM_017.jpg	100
378.724	2.374	2374.0	regulate	Run1	regulate/STIM_017.jpg	99
384.82	1.537	1536.8	regulate	Run1	regulate/STIM_017.jpg	99
388.508	2.729	2728.7	regulate	Run1	regulate/STIM_017.jpg	99
393.89	2.908	2908.4	regulate	Run1	regulate/STIM_018.jpg	99
399.403	2.296	2295.6	regulate	Run1	regulate/STIM_018.jpg	100
405.528	2.717	2717.0	regulate	Run1	regulate/STIM_018.jpg	99
411.6	2.193	2192.6	regulate	Run1	regulate/STIM_018.jpg	100
415.823	2.024	2024.0	regulate	Run1	regulate/STIM_019.jpg	99
420.187	1.726	1726.3	regulate	Run1	regulate/STIM_019.jpg	99
425.319	1.428	1428.2	regulate	Run1	regulate/STIM_019.jpg	99
429.783	1.432	1432.1	regulate	Run1	regulate/STIM_019.jpg	100
434.437	2.35	2349.7	regulate	Run1	regulate/STIM_020.jpg	100
440.211	3.446	3445.9	regulate	Run1	regulate/STIM_020.jpg	99
446.509	2.245	2245.3	regulate	Run1	regulate/STIM_020.jpg	100
451.767	2.213	2212.8	regulate	Run1	regulate/STIM_020.jpg	100
457.671	3.499	3499.3	regulate	Run1	regulate/STIM_021.jpg	99
464.976	1.529	1529.0	regulate	Run1	regulate/STIM_021.jpg	99
468.877	2.846	2846.5	regulate	Run1	regulate/STIM_021.jpg	100
473.941	1.848	1847.6	regulate	Run1	regulate/STIM_021.jpg	100
478.823	2.252	2251.7	regulate	Run1	regulate/STIM_022.jpg	100
484.406	2.592	2592.0	regulate	Run1	regulate/STIM_022.jpg	100
489.818	2.724	2724.5	regulate	Run1	regulate/STIM_022.jpg	100
495.692	2.817	2816.9	regulate	Run1	regulate/STIM_022.jpg	100
500.922	3.206	3205.6	regulate	Run1	regulate/STIM_023.jpg	100
506.678	2.602	2601.6	regulate	Run1	regulate/STIM_023.jpg	100
513.126	2.058	2058.3	regulate	Run1	regulate/STIM_023.jpg	99
517.399	2.752	2751.6	regulate	Run1	regulate/STIM_023.jpg	99
523.978	2.939	2938.9	regulate	Run1	regulate/STIM_024.jpg	99
529.088	3.096	3096.4	regulate	Run1	regulate/STIM_024.jpg	99
535.494	1.98	1979.5	regulate	Run1	regulate/STIM_024.jpg	100
540.279	2.189	2188.8	regulate	Run1	regulate/STIM_024.jpg	100
545.601	3.106	3106.1	regulate	Run1	regulate/STIM_025.jpg	100
551.761	3.444	3443.9	regulate	Run1	regulate/STIM_025.jpg	100
557.322	2.582	2582.1	regulate	Run1	regulate/STIM_025.jpg	100
562.991	3.033	3032.8	regulate	Run1	regulate/STIM_025.jpg	99
569.429	2.298	2297.7	regulate	Run1	regulate/STIM_026.jpg	99
574.739	1.839	1838.9	regulate	Run1	regulate/STIM_026.jpg	99
579.399	3.235	3235.4	regulate	Run1	regulate/STIM_026.jpg	100
585.792	2.795	2795.1	regulate	Run1	regulate/STIM_026.jpg	100
590.645	3.336	3336.5	regulate	Run1	regulate/STIM_027.jpg	100
596.204	2.568	2567.7	regulate	Run1	regulate/STIM_027.jpg	100
601.751	1.542	1542.3	regulate	Run1	regulate/STIM_027.jpg	100
605.709	1.944	1944.2	regulate	Run1	regulate/STIM_027.jpg	100
610.807	3.006	3006.0	regulate	Run1	regulate/STIM_028.jpg	100
617.251	2.241	2241.2	regulate	Run1	regulate/STIM_028.jpg	99
622.477	1.846	1845.5	regulate	Run1	regulate/STIM_028.jpg	99
627.892	2.698	2698.5	regulate	Run1	regulate/STIM_028.jpg	100
633.424	1.88	1880.4	regulate	Run1	regulate/STIM_029.jpg	99
638.545	1.808	1807.7	regulate	Run1	regulate/STIM_029.jpg	99
644.078	2.355	2354.9	regulate	Run1	regulate/STIM_029.jpg	100
649.304	3.1	3099.7	regulate	Run1	regulate/STIM_029.jpg	99
656.118	1.257	1257.4	observe	Run1	observe/STIM_000.jpg	99
659.529	1.473	1473.1	observe	Run1	observe/STIM_000.jpg	100
663.512	1.029	1029.2	observe	Run1	observe/STIM_000.jpg	99
666.827	1.436	1435.6	observe	Run1	observe/STIM_000.jpg	100
670.859	1.628	1627.9	observe	Run1	observe/STIM_001.jpg	99
674.535	1.174	1173.5	observe	Run1	observe/STIM_001.jpg	100
679.044	1.168	1167.8	observe	Run1	observe/STIM_001.jpg	100
682.921	1.55	1549.6	observe	Run1	observe/STIM_001.jpg	99
687.807	1.302	1301.7	observe	Run1	observe/STIM_002.jpg	99
691.938	1.173	1172.8	observe	Run1	observe/STIM_002.jpg	100
696.481	1.4	1399.5	observe	Run1	observe/STIM_002.jpg	99
700.205	1.149	1149.2	observe	Run1	observe/STIM_002.jpg	99
703.452	1.412	1412.2	observe	Run1	observe/STIM_003.jpg	99
707.211	1.51	1510.4	observe	Run1	observe/STIM_003.jpg	99
710.929	1.65	1649.5	observe	Run1	observe/STIM_003.jpg	99
715.833	1.329	1329.3	observe	Run1	observe/STIM_003.jpg	100
721.119	1.605	1605.4	observe	Run1	observe/STIM_004.jpg	99
725.41	1.168	1167.8	observe	Run1	observe/STIM_004.jpg	100
728.97	1.442	1441.8	observe	Run1	observe/STIM_004.jpg	100
733.633	1.103	1103.1	observe	Run1	observe/STIM_004.jpg	99
736.888	1.178	1177.5	observe	Run1	observe/STIM_005.jpg	99
741.663	1.254	1254.4	observe	Run1	observe/STIM_005.jpg	100
745.974	1.044	1043.5	observe	Run1	observe/STIM_005.jpg	99
749.194	1.166	1165.9	observe	Run1	observe/STIM_005.jpg	99
753.875	1.462	1461.8	observe	Run1	observe/STIM_006.jpg	99
757.902	1.259	1258.7	observe	Run1	observe/STIM_006.jpg	100
761.411	1.032	1032.0	observe	Run1	observe/STIM_006.jpg	100
764.672	0.888	888.5	observe	Run1	observe/STIM_006.jpg	100
767.99	1.433	1433.3	observe	Run1	observe/STIM_007.jpg	100
772.048	0.999	999.2	observe	Run1	observe/STIM_007.jpg	99
775.117	0.873	873.1	observe	Run1	observe/STIM_007.jpg	99
778.676	1.002	1002.1	observe	Run1	observe/STIM_007.jpg	100
782.144	1.028	1027.5	observe	Run1	observe/STIM_008.jpg	99
786.918	1.592	1591.7	observe	Run1	observe/STIM_008.jpg	99
791.723	1.073	1073.3	observe	Run1	observe/STIM_008.jpg	100
796.031	1.069	1069.2	observe	Run1	observe/STIM_008.jpg	100
799.472	1.364	1364.1	observe	Run1	observe/STIM_009.jpg	100
803.476	0.951	951.0	observe	Run1	observe/STIM_009.jpg	99
807.838	1.298	1298.5	observe	Run1	observe/STIM_009.jpg	100
812.135	1.02	1019.9	observe	Run1	observe/STIM_009.jpg	99
816.601	1.461	1461.0	observe	Run1	observe/STIM_010.jpg	99
821.0	1.466	1465.7	observe	Run1	observe/STIM_010.jpg	99
826.325	1.246	1246.3	observe	Run1	observe/STIM_010.jpg	100
831.366	1.017	1016.9	observe	Run1	observe/STIM_010.jpg	100
836.03	1.323	1322.9	observe	Run1	observe/STIM_011.jpg	99
841.312	1.631	1631.4	observe	Run1	observe/STIM_011.jpg	99
845.043	0.934	933.8	observe	Run1	observe/STIM_011.jpg	100
849.974	1.226	1225.8	observe	Run1	observe/STIM_011.jpg	99
855.073	1.091	1091.1	observe	Run1	observe/STIM_012.jpg	100
859.869	1.093	1093.1	observe	Run1	observe/STIM_012.jpg	99
863.74	1.186	1186.3	observe	Run1	observe/STIM_012.jpg	99
868.414	1.265	1265.1	observe	Run1	observe/STIM_012.jpg	100
872.355	1.431	1431.3	observe	Run1	observe/STIM_013.jpg	99
877.65	0.961	960.9	observe	Run1	observe/STIM_013.jpg	100
881.567	1.573	1572.8	observe	Run1	observe/STIM_013.jpg	99
886.54	1.028	1028.2	observe	Run1	observe/STIM_013.jpg	100
891.057	1.513	1513.4	observe	Run1	observe/STIM_014.jpg	99
896.399	1.016	1015.7	observe	Run1	observe/STIM_014.jpg	100
900.835	1.052	1052.0	observe	Run1	observe/STIM_014.jpg	100
905.491	1.166	1165.9	observe	Run1	observe/STIM_014.jpg	99
908.787	1.32	1319.5	observe	Run1	observe/STIM_015.jpg	99
913.87	1.24	1240.5	observe	Run1	observe/STIM_015.jpg	100
917.834	1.292	1291.8	observe	Run1	observe/STIM_015.jpg	100
921.24	1.419	1419.2	observe	Run1	observe/STIM_015.jpg	100
926.591	1.08	1080.0	observe	Run1	observe/STIM_016.jpg	100
931.294	1.07	1069.8	observe	Run1	observe/STIM_016.jpg	100
935.619	0.87	869.8	observe	Run1	observe/STIM_016.jpg	99
938.796	1.01	1009.5	observe	Run1	observe/STIM_016.jpg	100
943.205	0.953	952.6	observe	Run1	observe/STIM_017.jpg	100
946.395	1.537	1537.3	observe	Run1	observe/STIM_017.jpg	99
951.525	1.049	1048.6	observe	Run1	observe/STIM_017.jpg	100
956.073	1.053	1053.4	observe	Run1	observe/STIM_017.jpg	99
960.286	1.314	1313.8	observe	Run1	observe/STIM_018.jpg	100
964.488	1.625	1624.7	observe	Run1	observe/STIM_018.jpg	100
969.097	0.858	857.9	observe	Run1	observe/STIM_018.jpg	99
973.602	1.585	1584.6	observe	Run1	observe/STIM_018.jpg	99
978.05	1.361	1361.0	observe	Run1	observe/STIM_019.jpg	99
982.259	1.417	1417.2	observe	Run1	observe/STIM_019.jpg	99
987.147	0.922	921.5	observe	Run1	observe/STIM_019.jpg	100
990.385	1.186	1185.5	observe	Run1	observe/STIM_019.jpg	99
995.184	2.661	2661.1	regulate	Run2	regulate/STIM_000.jpg	99
1000.695	2.74	2739.8	regulate	Run2	regulate/STIM_000.jpg	100
1005.87	1.927	1927.2	regulate	Run2	regulate/STIM_000.jpg	99
1010.667	2.077	2076.9	regulate	Run2	regulate/STIM_000.jpg	100
1014.746	2.496	2496.5	regulate	Run2	regulate/STIM_001.jpg	99
1020.976	2.552	2552.0	regulate	Run2	regulate/STIM_001.jpg	100
1025.971	2.168	2168.3	regulate	Run2	regulate/STIM_001.jpg	99
1030.155	1.656	1656.3	regulate	Run2	regulate/STIM_001.jpg	100
1035.351	3.099	3099.4	regulate	Run2	regulate/STIM_002.jpg	99
1040.745	2.375	2374.9	regulate	Run2	regulate/STIM_002.jpg	100
1045.499	2.246	2245.9	regulate	Run2	regulate/STIM_002.jpg	99
1050.221	1.755	1755.0	regulate	Run2	regulate/STIM_002.jpg	99
1055.18	2.376	2376.1	regulate	Run2	regulate/STIM_003.jpg	99
1060.212	2.685	2684.6	regulate	Run2	regulate/STIM_003.jpg	99
1066.852	1.295	1294.8	regulate	Run2	regulate/STIM_003.jpg	99
1071.935	1.243	1242.7	regulate	Run2	regulate/STIM_003.jpg	100
1076.19	2.417	2416.8	regulate	Run2	regulate/STIM_004.jpg	99
1081.125	2.32	2320.0	regulate	Run2	regulate/STIM_004.jpg	100
1087.275	2.591	2590.9	regulate	Run2	regulate/STIM_004.jpg	99
1093.184	2.36	2359.7	regulate	Run2	regulate/STIM_004.jpg	99
1099.526	2.637	2637.4	regulate	Run2	regulate/STIM_005.jpg	100
1104.517	1.419	1419.3	regulate	Run2	regulate/STIM_005.jpg	99
1108.315	1.966	1966.1	regulate	Run2	regulate/STIM_005.jpg	100
1114.179	2.087	2086.7	regulate	Run2	regulate/STIM_005.jpg	99
1120.09	3.076	3075.9	regulate	Run2	regulate/STIM_006.jpg	100
1126.654	2.57	2569.8	regulate	Run2	regulate/STIM_006.jpg	100
1132.913	1.985	1985.0	regulate	Run2	regulate/STIM_006.jpg	99
1138.841	1.886	1885.8	regulate	Run2	regulate/STIM_006.jpg	100
1144.414	1.716	1716.1	regulate	Run2	regulate/STIM_007.jpg	100
1149.631	2.309	2309.2	regulate	Run2	regulate/STIM_007.jpg	99
1154.124	2.348	2347.9	regulate	Run2	regulate/STIM_007.jpg	100
1158.786	2.406	2406.1	regulate	Run2	regulate/STIM_007.jpg	100
1164.2	2.077	2077.2	regulate	Run2	regulate/STIM_008.jpg	99
1170.029	1.573	1572.8	regulate	Run2	regulate/STIM_008.jpg	99
1174.523	1.925	1925.0	regulate	Run2	regulate/STIM_008.jpg	99
1180.256	1.74	1740.0	regulate	Run2	regulate/STIM_008.jpg	99
1184.867	1.67	1669.9	regulate	Run2	regulate/STIM_009.jpg	100
1188.651	2.255	2255.0	regulate	Run2	regulate/STIM_009.jpg	100
1194.055	2.609	2609.1	regulate	Run2	regulate/STIM_009.jpg	99
1199.228	1.356	1356.1	regulate	Run2	regulate/STIM_009.jpg	99
1204.077	1.496	1495.7	regulate	Run2	regulate/STIM_010.jpg	99
1209.495	1.604	1603.7	regulate	Run2	regulate/STIM_010.jpg	99
1213.228	2.424	2424.1	regulate	Run2	regulate/STIM_010.jpg	100
1219.253	2.284	2284.5	regulate	Run2	regulate/STIM_010.jpg	100
1223.648	1.887	1887.4	regulate	Run2	regulate/STIM_011.jpg	99
1228.037	1.34	1340.5	regulate	Run2	regulate/STIM_011.jpg	100
1232.791	2.352	2351.5	regulate	Run2	regulate/STIM_011.jpg	100
1238.167	1.989	1988.6	regulate	Run2	regulate/STIM_011.jpg	100
1242.464	2.585	2585.2	regulate	Run2	regulate/STIM_012.jpg	99
1247.858	2.314	2314.3	regulate	Run2	regulate/STIM_012.jpg	99
1253.122	1.716	1716.0	regulate	Run2	regulate/STIM_012.jpg	100
1258.778	1.913	1913.0	regulate	Run2	regulate/STIM_012.jpg	100
1263.416	2.539	2538.7	regulate	Run2	regulate/STIM_013.jpg	100
1268.136	2.178	2177.7	regulate	Run2	regulate/STIM_013.jpg	99
1273.925	1.61	1610.4	regulate	Run2	regulate/STIM_013.jpg	99
1279.471	1.964	1963.8	regulate	Run2	regulate/STIM_013.jpg	100
1284.285	3.076	3076.0	regulate	Run2	regulate/STIM_014.jpg	100
1290.019	2.625	2624.7	regulate	Run2	regulate/STIM_014.jpg	99
1294.725	2.073	2072.7	regulate	Run2	regulate/STIM_014.jpg	100
1299.217	2.493	2492.9	regulate	Run2	regulate/STIM_014.jpg	100
1304.562	1.86	1859.7	regulate	Run2	regulate/STIM_015.jpg	99
1308.783	1.795	1794.6	regulate	Run2	regulate/STIM_015.jpg	100
1314.359	1.244	1244.0	regulate	Run2	regulate/STIM_015.jpg	99
1317.69	1.952	1951.9	regulate	Run2	regulate/STIM_015.jpg	100
1323.574	1.431	1431.0	regulate	Run2	regulate/STIM_016.jpg	99
1328.977	1.465	1465.2	regulate	Run2	regulate/STIM_016.jpg	100
1333.968	1.407	1407.1	regulate	Run2	regulate/STIM_016.jpg	99
1339.263	1.117	1117.4	regulate	Run2	regulate/STIM_016.jpg	100
1343.725	1.802	1802.2	regulate	Run2	regulate/STIM_017.jpg	100
1348.188	2.011	2010.6	regulate	Run2	regulate/STIM_017.jpg	99
1353.481	1.738	1737.9	regulate	Run2	regulate/STIM_017.jpg	99
1357.389	2.2	2199.6	regulate	Run2	regulate/STIM_017.jpg	100
1362.71	1.407	1406.9	regulate	Run2	regulate/STIM_018.jpg	100
1367.456	2.843	2842.6	regulate	Run2	regulate/STIM_018.jpg	100
1372.879	2.313	2313.1	regulate	Run2	regulate/STIM_018.jpg	99
1378.403	2.515	2515.1	regulate	Run2	regulate/STIM_018.jpg	99
1384.779	1.693	1692.9	regulate	Run2	regulate/STIM_019.jpg	100
1389.792	1.793	1792.7	regulate	Run2	regulate/STIM_019.jpg	100
1394.368	2.697	2696.9	regulate	Run2	regulate/STIM_019.jpg	100
1399.529	2.3	2300.3	regulate	Run2	regulate/STIM_019.jpg	99
1405.608	2.803	2803.4	regulate	Run2	regulate/STIM_020.jpg	100
1412.172	1.646	1646.3	regulate	Run2	regulate/STIM_020.jpg	100
1417.028	1.965	1965.3	regulate	Run2	regulate/STIM_020.jpg	100
1422.582	2.331	2330.8	regulate	Run2	regulate/STIM_020.jpg	100
1427.01	2.603	2603.1	regulate	Run2	regulate/STIM_021.jpg	99
1433.389	1.43	1430.3	regulate	Run2	regulate/STIM_021.jpg	100
1438.212	2.521	2521.0	regulate	Run2	regulate/STIM_021.jpg	100
1443.378	1.612	1611.5	regulate	Run2	regulate/STIM_021.jpg	99
1447.357	1.621	1620.7	regulate	Run2	regulate/STIM_022.jpg	100
1451.641	1.954	1954.4	regulate	Run2	regulate/STIM_022.jpg	99
1457.425	1.943	1943.1	regulate	Run2	regulate/STIM_022.jpg	99
1462.504	2.446	2445.5	regulate	Run2	regulate/STIM_022.jpg	99
1468.295	2.282	2282.0	regulate	Run2	regulate/STIM_023.jpg	100
1472.742	1.948	1948.2	regulate	Run2	regulate/STIM_023.jpg	100
1478.274	2.472	2471.6	regulate	Run2	regulate/STIM_023.jpg	99
1484.254	1.623	1622.6	regulate	Run2	regulate/STIM_023.jpg	99
1488.494	2.997	2997.0	regulate	Run2	regulate/STIM_024.jpg	100
1495.205	1.515	1515.4	regulate	Run2	regulate/STIM_024.jpg	99
1499.395	2.345	2344.7	regulate	Run2	regulate/STIM_024.jpg	100
1503.942	1.358	1358.2	regulate	Run2	regulate/STIM_024.jpg	99
1507.875	2.525	2525.1	regulate	Run2	regulate/STIM_025.jpg	100
1512.607	2.438	2437.6	regulate	Run2	regulate/STIM_025.jpg	100
1518.944	1.74	1739.8	regulate	Run2	regulate/STIM_025.jpg	100
1522.902	1.528	1528.3	regulate	Run2	regulate/STIM_025.jpg	99
1527.299	1.654	1653.9	regulate	Run2	regulate/STIM_026.jpg	100
1532.536	1.942	1941.7	regulate	Run2	regulate/STIM_026.jpg	99
1537.253	1.474	1474.5	regulate	Run2	regulate/STIM_026.jpg	100
1542.653	1.141	1140.9	regulate	Run2	regulate/STIM_026.jpg	100
1547.168	2.837	2837.1	regulate	Run2	regulate/STIM_027.jpg	99
1553.164	1.377	1376.9	regulate	Run2	regulate/STIM_027.jpg	100
1556.791	2.581	2581.2	regulate	Run2	regulate/STIM_027.jpg	100
1562.336	2.354	2354.0	regulate	Run2	regulate/STIM_027.jpg	99
1568.686	2.064	2063.8	regulate	Run2	regulate/STIM_028.jpg	100
1573.825	2.109	2108.9	regulate	Run2	regulate/STIM_028.jpg	99
1577.957	2.136	2136.5	regulate	Run2	regulate/STIM_028.jpg	99
1583.281	1.29	1290.3	regulate	Run2	regulate/STIM_028.jpg	99
1587.587	1.758	1757.5	regulate	Run2	regulate/STIM_029.jpg	100
1591.871	1.412	1411.5	regulate	Run2	regulate/STIM_029.jpg	99
1596.03	1.601	1601.3	regulate	Run2	regulate/STIM_029.jpg	99
1600.371	1.415	1414.6	regulate	Run2	regulate/STIM_029.jpg	100
1605.584	1.292	1292.0	observe	Run2	observe/STIM_000.jpg	99
1610.263	1.517	1517.3	observe	Run2	observe/STIM_000.jpg	99
1615.044	1.619	1618.9	observe	Run2	observe/STIM_000.jpg	100
1619.172	1.484	1483.6	observe	Run2	observe/STIM_000.jpg	99
1623.286	1.171	1171.2	observe	Run2	observe/STIM_001.jpg	100
1627.625	0.88	879.9	observe	Run2	observe/STIM_001.jpg	99
1630.969	1.29	1290.4	observe	Run2	observe/STIM_001.jpg	99
1634.39	1.512	1511.7	observe	Run2	observe/STIM_001.jpg	100
1639.064	1.459	1459.2	observe	Run2	observe/STIM_002.jpg	99
1643.071	1.633	1633.4	observe	Run2	observe/STIM_002.jpg	99
1648.216	1.195	1195.4	observe	Run2	observe/STIM_002.jpg	99
1652.34	1.133	1132.9	observe	Run2	observe/STIM_002.jpg	99
1657.34	1.666	1665.8	observe	Run2	observe/STIM_003.jpg	99
1661.555	1.5	1500.0	observe	Run2	observe/STIM_003.jpg	100
1666.209	1.582	1582.5	observe	Run2	observe/STIM_003.jpg	99
1671.552	0.937	936.7	observe	Run2	observe/STIM_003.jpg	99
1675.668	0.949	949.3	observe	Run2	observe/STIM_004.jpg	100
1678.932	1.33	1329.8	observe	Run2	observe/STIM_004.jpg	100
1684.132	0.925	925.2	observe	Run2	observe/STIM_004.jpg	99
1687.767	1.422	1421.8	observe	Run2	observe/STIM_004.jpg	100
1691.727	1.196	1196.5	observe	Run2	observe/STIM_005.jpg	99
1696.518	0.844	844.4	observe	Run2	observe/STIM_005.jpg	100
1699.987	1.229	1229.2	observe	Run2	observe/STIM_005.jpg	99
1704.842	1.029	1029.0	observe	Run2	observe/STIM_005.jpg	99
1707.907	1.13	1130.3	observe	Run2	observe/STIM_006.jpg	100
1712.095	1.503	1502.6	observe	Run2	observe/STIM_006.jpg	99
1716.38	1.428	1428.5	observe	Run2	observe/STIM_006.jpg	100
1721.014	1.524	1524.0	observe	Run2	observe/STIM_006.jpg	100
1725.979	1.247	1246.9	observe	Run2	observe/STIM_007.jpg	100
1730.841	1.219	1219.4	observe	Run2	observe/STIM_007.jpg	99
1736.05	1.501	1501.3	observe	Run2	observe/STIM_007.jpg	99
1740.381	0.891	891.4	observe	Run2	observe/STIM_007.jpg	99
1744.743	1.652	1652.3	observe	Run2	observe/STIM_008.jpg	99
1749.851	1.081	1081.1	observe	Run2	observe/STIM_008.jpg	100
1754.821	0.92	920.2	observe	Run2	observe/STIM_008.jpg	99
1757.845	1.057	1056.6	observe	Run2	observe/STIM_008.jpg	100
1761.703	1.195	1195.4	observe	Run2	observe/STIM_009.jpg	99
1765.92	1.646	1645.7	observe	Run2	observe/STIM_009.jpg	99
1769.879	1.495	1495.3	observe	Run2	observe/STIM_009.jpg	100
1774.606	1.604	1604.1	observe	Run2	observe/STIM_009.jpg	100
1779.944	0.887	887.3	observe	Run2	observe/STIM_010.jpg	100
1784.6	1.15	1150.2	observe	Run2	observe/STIM_010.jpg	100
1789.6	1.422	1422.2	observe	Run2	observe/STIM_010.jpg	100
1793.777	1.508	1507.8	observe	Run2	observe/STIM_010.jpg	99
1798.42	0.9	900.5	observe	Run2	observe/STIM_011.jpg	100
1802.218	1.038	1037.9	observe	Run2	observe/STIM_011.jpg	99
1807.057	1.567	1567.4	observe	Run2	observe/STIM_011.jpg	99
1810.902	1.293	1292.6	observe	Run2	observe/STIM_011.jpg	99
1814.327	1.241	1240.9	observe	Run2	observe/STIM_012.jpg	100
1818.295	1.018	1018.4	observe	Run2	observe/STIM_012.jpg	99
1822.825	1.608	1607.7	observe	Run2	observe/STIM_012.jpg	100
1827.887	1.625	1625.4	observe	Run2	observe/STIM_012.jpg	100
1831.734	0.915	915.0	observe	Run2	observe/STIM_013.jpg	99
1834.803	1.053	1052.6	observe	Run2	observe/STIM_013.jpg	100
1839.787	1.248	1248.4	observe	Run2	observe/STIM_013.jpg	99
1843.207	1.421	1421.3	observe	Run2	observe/STIM_013.jpg	100
1847.998	1.247	1246.8	observe	Run2	observe/STIM_014.jpg	99
1853.022	1.454	1454.5	observe	Run2	observe/STIM_014.jpg	100
1857.343	0.868	867.5	observe	Run2	observe/STIM_014.jpg	100
1861.667	1.472	1472.0	observe	Run2	observe/STIM_014.jpg	99
1865.735	1.074	1074.0	observe	Run2	observe/STIM_015.jpg	100
1870.22	1.209	1208.8	observe	Run2	observe/STIM_015.jpg	100
1874.463	0.963	963.4	observe	Run2	observe/STIM_015.jpg	99
1879.184	1.364	1364.3	observe	Run2	observe/STIM_015.jpg	100
1882.585	1.014	1014.5	observe	Run2	observe/STIM_016.jpg	99
1885.775	0.894	894.5	observe	Run2	observe/STIM_016.jpg	99
1889.099	1.64	1639.8	observe	Run2	observe/STIM_016.jpg	99
1893.498	1.378	1377.8	observe	Run2	observe/STIM_016.jpg	100
1897.344	0.836	836.1	observe	Run2	observe/STIM_017.jpg	100
1900.761	1.604	1603.6	observe	Run2	observe/STIM_017.jpg	99
1904.839	0.867	867.2	observe	Run2	observe/STIM_017.jpg	99
1908.163	1.496	1496.5	observe	Run2	observe/STIM_017.jpg	100
1912.138	1.099	1099.3	observe	Run2	observe/STIM_018.jpg	100
1915.3	1.489	1489.4	observe	Run2	observe/STIM_018.jpg	100
1919.832	1.29	1289.7	observe	Run2	observe/STIM_018.jpg	100
1924.998	1.559	1559.3	observe	Run2	observe/STIM_018.jpg	100
1930.487	1.391	1391.3	observe	Run2	observe/STIM_019.jpg	99
1934.949	1.517	1516.9	observe	Run2	observe/STIM_019.jpg	99
1940.061	1.316	1315.7	observe	Run2	observe/STIM_019.jpg	99
1944.021	1.462	1462.2	observe	Run2	observe/STIM_019.jpg	99
1947.809	2.539	2538.7	regulate	Run3	regulate/STIM_000.jpg	100
1953.674	1.842	1841.9	regulate	Run3	regulate/STIM_000.jpg	100
1959.089	1.218	1217.8	regulate	Run3	regulate/STIM_000.jpg	99
1962.896	1.983	1983.4	regulate	Run3	regulate/STIM_000.jpg	100
1968.764	1.821	1821.1	regulate	Run3	regulate/STIM_001.jpg	99
1972.977	1.62	1619.7	regulate	Run3	regulate/STIM_001.jpg	99
1977.105	1.482	1481.5	regulate	Run3	regulate/STIM_001.jpg	99
1982.58	1.601	1600.8	regulate	Run3	regulate/STIM_001.jpg	99
1987.459	1.449	1448.6	regulate	Run3	regulate/STIM_002.jpg	99
1991.186	2.414	2414.0	regulate	Run3	regulate/STIM_002.jpg	100
1997.208	1.345	1345.2	regulate	Run3	regulate/STIM_002.jpg	99
2002.174	2.464	2464.4	regulate	Run3	regulate/STIM_002.jpg	100
2008.533	1.723	1723.3	regulate	Run3	regulate/STIM_003.jpg	100
2013.771	1.101	1101.0	regulate	Run3	regulate/STIM_003.jpg	100
2018.216	2.392	2391.9	regulate	Run3	regulate/STIM_003.jpg	100
2023.296	2.103	2102.8	regulate	Run3	regulate/STIM_003.jpg	99
2028.408	1.615	1615.2	regulate	Run3	regulate/STIM_004.jpg	99
2032.071	1.238	1238.3	regulate	Run3	regulate/STIM_004.jpg	100
2037.132	1.373	1372.8	regulate	Run3	regulate/STIM_004.jpg	99
2040.505	2.277	2277.0	regulate	Run3	regulate/STIM_004.jpg	100
2044.902	1.862	1862.5	regulate	Run3	regulate/STIM_005.jpg	100
2050.135	1.267	1267.1	regulate	Run3	regulate/STIM_005.jpg	99
2055.383	2.201	2201.2	regulate	Run3	regulate/STIM_005.jpg	100
2061.27	2.081	2081.1	regulate	Run3	regulate/STIM_005.jpg	100
2066.844	2.246	2245.7	regulate	Run3	regulate/STIM_006.jpg	99
2071.63	1.131	1131.3	regulate	Run3	regulate/STIM_006.jpg	99
2076.758	2.175	2174.8	regulate	Run3	regulate/STIM_006.jpg	100
2082.729	1.239	1238.9	regulate	Run3	regulate/STIM_006.jpg	100
2086.871	2.355	2354.9	regulate	Run3	regulate/STIM_007.jpg	100
2092.387	1.678	1677.5	regulate	Run3	regulate/STIM_007.jpg	100
2097.967	2.467	2466.9	regulate	Run3	regulate/STIM_007.jpg	99
2103.644	2.386	2386.5	regulate	Run3	regulate/STIM_007.jpg	100
2109.395	1.572	1572.2	regulate	Run3	regulate/STIM_008.jpg	100
2113.147	1.416	1415.8	regulate	Run3	regulate/STIM_008.jpg	99
2118.148	1.445	1444.7	regulate	Run3	regulate/STIM_008.jpg	100
2121.799	1.818	1817.5	regulate	Run3	regulate/STIM_008.jpg	99
2125.983	1.814	1814.1	regulate	Run3	regulate/STIM_009.jpg	99
2131.783	1.298	1298.3	regulate	Run3	regulate/STIM_009.jpg	99
2135.79	1.476	1475.5	regulate	Run3	regulate/STIM_009.jpg	99
2140.713	1.715	1715.3	regulate	Run3	regulate/STIM_009.jpg	100
2146.28	1.381	1380.7	regulate	Run3	regulate/STIM_010.jpg	99
2151.285	1.159	1159.1	regulate	Run3	regulate/STIM_010.jpg	100
2154.998	1.199	1199.2	regulate	Run3	regulate/STIM_010.jpg	100
2158.302	2.358	2357.5	regulate	Run3	regulate/STIM_010.jpg	100
2163.707	1.925	1924.8	regulate	Run3	regulate/STIM_011.jpg	99
2167.981	1.794	1793.8	regulate	Run3	regulate/STIM_011.jpg	100
2173.455	1.796	1796.4	regulate	Run3	regulate/STIM_011.jpg	100
2178.222	1.158	1158.3	regulate	Run3	regulate/STIM_011.jpg	99
2182.32	1.402	1402.3	regulate	Run3	regulate/STIM_012.jpg	99
2187.368	1.948	1948.3	regulate	Run3	regulate/STIM_012.jpg	100
2192.484	1.42	1419.5	regulate	Run3	regulate/STIM_012.jpg	99
2196.801	1.847	1847.0	regulate	Run3	regulate/STIM_012.jpg	100
2202.539	1.89	1889.6	regulate	Run3	regulate/STIM_013.jpg	99
2207.234	2.194	2193.8	regulate	Run3	regulate/STIM_013.jpg	99
2212.61	1.978	1978.1	regulate	Run3	regulate/STIM_013.jpg	99
2218.463	2.054	2053.9	regulate	Run3	regulate/STIM_013.jpg	100
2223.894	1.466	1466.3	regulate	Run3	regulate/STIM_014.jpg	99
2229.305	2.18	2179.6	regulate	Run3	regulate/STIM_014.jpg	99
2234.839	2.434	2434.0	regulate	Run3	regulate/STIM_014.jpg	100
2240.239	1.328	1328.3	regulate	Run3	regulate/STIM_014.jpg	100
2244.167	2.201	2201.3	regulate	Run3	regulate/STIM_015.jpg	100
2250.291	2.11	2110.1	regulate	Run3	regulate/STIM_015.jpg	99
2256.2	1.258	1258.2	regulate	Run3	regulate/STIM_015.jpg	100
2259.897	2.544	2543.9	regulate	Run3	regulate/STIM_015.jpg	99
2264.712	1.702	1701.5	regulate	Run3	regulate/STIM_016.jpg	99
2268.909	1.572	1571.6	regulate	Run3	regulate/STIM_016.jpg	100
2274.46	1.7	1700.5	regulate	Run3	regulate/STIM_016.jpg	100
2279.897	2.125	2124.7	regulate	Run3	regulate/STIM_016.jpg	100
2284.744	2.049	2048.9	regulate	Run3	regulate/STIM_017.jpg	99
2289.779	2.413	2413.4	regulate	Run3	regulate/STIM_017.jpg	100
2294.274	1.111	1111.4	regulate	Run3	regulate/STIM_017.jpg	100
2298.694	1.757	1757.3	regulate	Run3	regulate/STIM_017.jpg	100
2303.549	2.11	2110.2	regulate	Run3	regulate/STIM_018.jpg	99
2308.11	2.553	2552.6	regulate	Run3	regulate/STIM_018.jpg	100
2314.161	2.287	2287.0	regulate	Run3	regulate/STIM_018.jpg	100
2319.254	2.363	2362.7	regulate	Run3	regulate/STIM_018.jpg	100
2323.629	2.065	2065.2	regulate	Run3	regulate/STIM_019.jpg	100
2328.935	2.434	2434.1	regulate	Run3	regulate/STIM_019.jpg	100
2333.683	1.348	1347.6	regulate	Run3	regulate/STIM_019.jpg	100
2338.338	1.836	1835.6	regulate	Run3	regulate/STIM_019.jpg	99
2342.577	1.344	1344.3	regulate	Run3	regulate/STIM_020.jpg	100
2346.682	1.726	1726.0	regulate	Run3	regulate/STIM_020.jpg	100
2352.175	2.4	2400.5	regulate	Run3	regulate/STIM_020.jpg	99
2358.428	1.341	1340.6	regulate	Run3	regulate/STIM_020.jpg	99
2361.812	2.394	2393.7	regulate	Run3	regulate/STIM_021.jpg	100
2366.378	1.654	1653.5	regulate	Run3	regulate/STIM_021.jpg	100
2370.962	1.521	1521.4	regulate	Run3	regulate/STIM_021.jpg	100
2374.678	1.549	1548.8	regulate	Run3	regulate/STIM_021.jpg	99
2379.712	1.508	1508.5	regulate	Run3	regulate/STIM_022.jpg	99
2384.251	1.445	1444.9	regulate	Run3	regulate/STIM_022.jpg	99
2389.271	1.946	1946.3	regulate	Run3	regulate/STIM_022.jpg	100
2394.069	1.173	1173.2	regulate	Run3	regulate/STIM_022.jpg	100
2398.878	2.519	2518.8	regulate	Run3	regulate/STIM_023.jpg	99
2404.619	1.325	1324.8	regulate	Run3	regulate/STIM_023.jpg	100
2408.377	1.497	1497.2	regulate	Run3	regulate/STIM_023.jpg	99
2412.622	2.351	2351.4	regulate	Run3	regulate/STIM_023.jpg	99
2418.212	2.203	2203.3	regulate	Run3	regulate/STIM_024.jpg	99
2424.133	2.226	2225.7	regulate	Run3	regulate/STIM_024.jpg	99
2429.776	1.176	1176.0	regulate	Run3	regulate/STIM_024.jpg	99
2433.632	1.786	1786.0	regulate	Run3	regulate/STIM_024.jpg	99
2438.85	2.53	2530.0	regulate	Run3	regulate/STIM_025.jpg	99
2443.99	1.203	1203.4	regulate	Run3	regulate/STIM_025.jpg	99
2448.562	1.85	1849.7	regulate	Run3	regulate/STIM_025.jpg	99
2452.6	1.844	1844.4	regulate	Run3	regulate/STIM_025.jpg	99
2457.579	2.154	2154.5	regulate	Run3	regulate/STIM_026.jpg	100
2462.032	1.599	1599.3	regulate	Run3	regulate/STIM_026.jpg	99
2466.464	2.305	2305.2	regulate	Run3	regulate/STIM_026.jpg	100
2471.175	1.416	1416.2	regulate	Run3	regulate/STIM_026.jpg	100
2475.355	1.642	1642.0	regulate	Run3	regulate/STIM_027.jpg	99
2480.159	1.505	1504.7	regulate	Run3	regulate/STIM_027.jpg	99
2483.862	1.17	1170.0	regulate	Run3	regulate/STIM_027.jpg	99
2487.214	2.483	2483.4	regulate	Run3	regulate/STIM_027.jpg	99
2493.287	2.018	2018.5	regulate	Run3	regulate/STIM_028.jpg	100
2498.175	1.774	1774.1	regulate	Run3	regulate/STIM_028.jpg	99
2502.393	1.289	1289.0	regulate	Run3	regulate/STIM_028.jpg	100
2505.757	2.502	2502.1	regulate	Run3	regulate/STIM_028.jpg	100
2511.221	1.751	1750.7	regulate	Run3	regulate/STIM_029.jpg	99
2515.886	1.659	1659.4	regulate	Run3	regulate/STIM_029.jpg	99
2520.08	1.942	1941.6	regulate	Run3	regulate/STIM_029.jpg	100
2525.775	2.236	2236.2	regulate	Run3	regulate/STIM_029.jpg	99
2530.415	1.354	1353.5	observe	Run3	observe/STIM_000.jpg	100
2534.537	0.94	940.0	observe	Run3	observe/STIM_000.jpg	100
2539.346	1.245	1244.7	observe	Run3	observe/STIM_000.jpg	100
2542.662	1.128	1128.5	observe	Run3	observe/STIM_000.jpg	100
2547.751	1.45	1449.6	observe	Run3	observe/STIM_001.jpg	99
2552.288	0.869	868.7	observe	Run3	observe/STIM_001.jpg	100
2555.261	1.277	1276.6	observe	Run3	observe/STIM_001.jpg	100
2558.897	0.968	968.0	observe	Run3	observe/STIM_001.jpg	99
2562.045	1.219	1218.9	observe	Run3	observe/STIM_002.jpg	100
2566.567	1.498	1497.8	observe	Run3	observe/STIM_002.jpg	100
2571.721	1.492	1491.8	observe	Run3	observe/STIM_002.jpg	100
2577.15	1.439	1438.8	observe	Run3	observe/STIM_002.jpg	100
2581.172	0.975	974.7	observe	Run3	observe/STIM_003.jpg	100
2585.632	1.115	1114.9	observe	Run3	observe/STIM_003.jpg	99
2588.937	1.291	1291.2	observe	Run3	observe/STIM_003.jpg	100
2594.123	0.91	909.9	observe	Run3	observe/STIM_003.jpg	100
2597.732	1.065	1064.6	observe	Run3	observe/STIM_004.jpg	100
2601.578	1.015	1015.3	observe	Run3	observe/STIM_004.jpg	100
2605.875	1.626	1626.1	observe	Run3	observe/STIM_004.jpg	99
2610.893	1.595	1595.3	observe	Run3	observe/STIM_004.jpg	99
2615.321	1.196	1195.6	observe	Run3	observe/STIM_005.jpg	100
2618.73	1.549	1548.7	observe	Run3	observe/STIM_005.jpg	99
2623.333	1.35	1350.2	observe	Run3	observe/STIM_005.jpg	100
2628.202	1.403	1403.2	observe	Run3	observe/STIM_005.jpg	99
2633.073	1.243	1243.2	observe	Run3	observe/STIM_006.jpg	99
2637.97	1.05	1049.8	observe	Run3	observe/STIM_006.jpg	99
2641.507	1.64	1639.6	observe	Run3	observe/STIM_006.jpg	100
2646.545	0.861	861.1	observe	Run3	observe/STIM_006.jpg	100
2649.907	1.13	1130.5	observe	Run3	observe/STIM_007.jpg	99
2653.624	1.017	1017.0	observe	Run3	observe/STIM_007.jpg	100
2657.325	1.435	1434.8	observe	Run3	observe/STIM_007.jpg	99
2662.751	1.332	1332.4	observe	Run3	observe/STIM_007.jpg	100
2666.752	1.374	1374.4	observe	Run3	observe/STIM_008.jpg	100
2670.207	0.896	896.2	observe	Run3	observe/STIM_008.jpg	99
2674.158	1.084	1083.7	observe	Run3	observe/STIM_008.jpg	100
2677.804	1.346	1345.5	observe	Run3	observe/STIM_008.jpg	100
2681.984	0.948	948.1	observe	Run3	observe/STIM_009.jpg	100
2686.342	0.852	851.7	observe	Run3	observe/STIM_009.jpg	99
2691.069	0.862	862.5	observe	Run3	observe/STIM_009.jpg	100
2694.872	1.22	1220.1	observe	Run3	observe/STIM_009.jpg	99
2698.738	1.426	1425.8	observe	Run3	observe/STIM_010.jpg	100
2704.127	1.46	1459.6	observe	Run3	observe/STIM_010.jpg	100
2708.674	0.893	892.6	observe	Run3	observe/STIM_010.jpg	100
2712.26	1.565	1565.3	observe	Run3	observe/STIM_010.jpg	100
2715.86	1.126	1126.5	observe	Run3	observe/STIM_011.jpg	99
2720.099	1.245	1244.9	observe	Run3	observe/STIM_011.jpg	100
2723.539	1.622	1621.6	observe	Run3	observe/STIM_011.jpg	99
2729.041	1.514	1514.1	observe	Run3	observe/STIM_011.jpg	99
2733.122	1.335	1335.1	observe	Run3	observe/STIM_012.jpg	99
2736.614	1.499	1499.0	observe	Run3	observe/STIM_012.jpg	99
2740.682	1.551	1550.7	observe	Run3	observe/STIM_012.jpg	100
2745.09	1.446	1446.5	observe	Run3	observe/STIM_012.jpg	99
2750.201	1.605	1604.7	observe	Run3	observe/STIM_013.jpg	100
2754.529	1.131	1130.9	observe	Run3	observe/STIM_013.jpg	100
2759.528	1.508	1507.5	observe	Run3	observe/STIM_013.jpg	100
2763.445	1.137	1136.8	observe	Run3	observe/STIM_013.jpg	99
2767.743	0.991	990.8	observe	Run3	observe/STIM_014.jpg	100
2771.871	1.065	1065.1	observe	Run3	observe/STIM_014.jpg	100
2775.79	1.396	1396.3	observe	Run3	observe/STIM_014.jpg	100
2779.812	1.38	1379.8	observe	Run3	observe/STIM_014.jpg	99
2783.273	1.414	1414.1	observe	Run3	observe/STIM_015.jpg	99
2788.619	1.459	1459.3	observe	Run3	observe/STIM_015.jpg	99
2792.635	1.338	1338.2	observe	Run3	observe/STIM_015.jpg	99
2796.233	1.434	1434.5	observe	Run3	observe/STIM_015.jpg	99
2800.425	1.596	1596.5	observe	Run3	observe/STIM_016.jpg	99
2804.996	1.313	1312.8	observe	Run3	observe/STIM_016.jpg	99
2810.044	1.131	1131.1	observe	Run3	observe/STIM_016.jpg	99
2814.643	1.418	1417.9	observe	Run3	observe/STIM_016.jpg	99
2819.983	1.08	1080.1	observe	Run3	observe/STIM_017.jpg	99
2824.438	0.889	889.3	observe	Run3	observe/STIM_017.jpg	99
2828.257	1.47	1469.8	observe	Run3	observe/STIM_017.jpg	100
2832.574	1.266	1265.8	observe	Run3	observe/STIM_017.jpg	99
2837.207	0.846	846.3	observe	Run3	observe/STIM_018.jpg	100
2840.821	0.876	876.0	observe	Run3	observe/STIM_018.jpg	99
2844.662	0.957	956.9	observe	Run3	observe/STIM_018.jpg	99
2848.785	1.619	1619.1	observe	Run3	observe/STIM_018.jpg	100
2852.554	1.419	1418.7	observe	Run3	observe/STIM_019.jpg	99
2857.262	1.218	1217.5	observe	Run3	observe/STIM_019.jpg	100
2861.972	1.05	1050.5	observe	Run3	observe/STIM_019.jpg	99
2865.982	1.433	1432.6	observe	Run3	observe/STIM_019.jpg	100
