onset	duration	accuracy_binary	trial_type	learning_stage	stimulus
0.0	5.417	1	navigation	Trial1	navigation/STIM_000.jpg
7.925	3.077	1	navigation	Trial1	navigation/STIM_000.jpg
14.343	5.024	1	navigation	Trial1	navigation/STIM_000.jpg
22.295	3.849	1	navigation	Trial1	navigation/STIM_000.jpg
27.704	1.825	1	navigation	Trial1	navigation/STIM_000.jpg
32.495	2.788	1	navigation	Trial1	navigation/STIM_000.jpg
37.63	4.96	1	navigation	Trial1	navigation/STIM_001.jpg
44.359	3.221	1	navigation	Trial1	navigation/STIM_001.jpg
50.936	2.767	0	navigation	Trial1	navigation/STIM_001.jpg
56.317	3.959	1	navigation	Trial1	navigation/STIM_001.jpg
63.265	2.228	1	navigation	Trial1	navigation/STIM_001.jpg
68.767	1.988	1	navigation	Trial1	navigation/STIM_001.jpg
72.933	5.661	0	navigation	Trial1	navigation/STIM_002.jpg
80.271	4.501	1	navigation	Trial1	navigation/STIM_002.jpg
86.538	2.249	1	navigation	Trial1	navigation/STIM_002.jpg
91.066	2.903	1	navigation	Trial1	navigation/STIM_002.jpg
96.521	3.062	1	navigation	Trial1	navigation/STIM_002.jpg
103.067	4.197	0	navigation	Trial1	navigation/STIM_002.jpg
110.045	2.848	0	navigation	Trial1	navigation/STIM_003.jpg
115.154	4.047	1	navigation	Trial1	navigation/STIM_003.jpg
121.012	3.538	1	navigation	Trial1	navigation/STIM_003.jpg
126.326	2.203	1	navigation	Trial1	navigation/STIM_003.jpg
131.107	4.534	0	navigation	Trial1	navigation/STIM_003.jpg
138.312	3.474	1	navigation	Trial1	navigation/STIM_003.jpg
144.299	5.135	0	navigation	Trial1	navigation/STIM_004.jpg
150.918	3.238	1	navigation	Trial1	navigation/STIM_004.jpg
155.99	3.401	1	navigation	Trial1	navigation/STIM_004.jpg
162.259	2.549	1	navigation	Trial1	navigation/STIM_004.jpg
168.398	4.35	1	navigation	Trial1	navigation/STIM_004.jpg
176.147	2.892	1	navigation	Trial1	navigation/STIM_004.jpg
182.138	5.236	1	navigation	Trial1	navigation/STIM_005.jpg
188.986	4.85	1	navigation	Trial1	navigation/STIM_005.jpg
195.414	2.284	1	navigation	Trial1	navigation/STIM_005.jpg
200.157	4.233	1	navigation	Trial1	navigation/STIM_005.jpg
207.85	2.364	1	navigation	Trial1	navigation/STIM_005.jpg
212.192	3.884	1	navigation	Trial1	navigation/STIM_005.jpg
219.41	3.716	1	navigation	Trial1	navigation/STIM_006.jpg
226.641	4.461	1	navigation	Trial1	navigation/STIM_006.jpg
232.884	2.288	1	navigation	Trial1	navigation/STIM_006.jpg
236.908	2.05	0	navigation	Trial1	navigation/STIM_006.jpg
241.691	4.528	1	navigation	Trial1	navigation/STIM_006.jpg
249.539	3.951	1	navigation	Trial1	navigation/STIM_006.jpg
255.539	5.38	1	navigation	Trial1	navigation/STIM_007.jpg
262.646	2.99	1	navigation	Trial1	navigation/STIM_007.jpg
267.584	4.826	1	navigation	Trial1	navigation/STIM_007.jpg
274.299	2.699	1	navigation	Trial1	navigation/STIM_007.jpg
280.331	4.003	1	navigation	Trial1	navigation/STIM_007.jpg
286.184	2.415	1	navigation	Trial1	navigation/STIM_007.jpg
291.475	4.391	1	navigation	Trial1	navigation/STIM_008.jpg
297.695	3.118	0	navigation	Trial1	navigation/STIM_008.jpg
302.891	2.648	0	navigation	Trial1	navigation/STIM_008.jpg
308.946	2.848	1	navigation	Trial1	navigation/STIM_008.jpg
313.512	3.105	1	navigation	Trial1	navigation/STIM_008.jpg
319.141	1.805	1	navigation	Trial1	navigation/STIM_008.jpg
324.11	3.46	0	navigation	Trial1	navigation/STIM_009.jpg
330.451	3.526	0	navigation	Trial1	navigation/STIM_009.jpg
336.691	4.38	0	navigation	Trial1	navigation/STIM_009.jpg
343.308	4.217	1	navigation	Trial1	navigation/STIM_009.jpg
349.458	2.891	0	navigation	Trial1	navigation/STIM_009.jpg
354.331	2.454	1	navigation	Trial1	navigation/STIM_009.jpg
360.215	5.106	1	navigation	Trial1	navigation/STIM_010.jpg
368.405	3.12	0	navigation	Trial1	navigation/STIM_010.jpg
374.758	3.249	1	navigation	Trial1	navigation/STIM_010.jpg
380.146	3.512	1	navigation	Trial1	navigation/STIM_010.jpg
386.302	3.854	1	navigation	Trial1	navigation/STIM_010.jpg
392.183	1.874	0	navigation	Trial1	navigation/STIM_010.jpg
396.242	5.35	0	navigation	Trial1	navigation/STIM_011.jpg
403.141	3.373	1	navigation	Trial1	navigation/STIM_011.jpg
408.946	4.023	0	navigation	Trial1	navigation/STIM_011.jpg
415.865	2.92	1	navigation	Trial1	navigation/STIM_011.jpg
421.164	3.646	1	navigation	Trial1	navigation/STIM_011.jpg
427.319	2.411	1	navigation	Trial1	navigation/STIM_011.jpg
431.861	1.32	1	pointing	Trial1	pointing/STIM_000.jpg
436.198	1.493	1	pointing	Trial1	pointing/STIM_000.jpg
439.745	0.935	1	pointing	Trial1	pointing/STIM_000.jpg
444.412	1.426	1	pointing	Trial1	pointing/STIM_000.jpg
449.098	0.978	1	pointing	Trial1	pointing/STIM_000.jpg
453.828	1.1	1	pointing	Trial1	pointing/STIM_000.jpg
457.688	1.565	0	pointing	Trial1	pointing/STIM_001.jpg
462.896	1.477	1	pointing	Trial1	pointing/STIM_001.jpg
467.367	1.481	1	pointing	Trial1	pointing/STIM_001.jpg
471.371	1.45	1	pointing	Trial1	pointing/STIM_001.jpg
475.135	0.928	1	pointing	Trial1	pointing/STIM_001.jpg
478.88	1.185	1	pointing	Trial1	pointing/STIM_001.jpg
482.675	0.97	1	pointing	Trial1	pointing/STIM_002.jpg
487.085	1.584	1	pointing	Trial1	pointing/STIM_002.jpg
490.698	1.206	1	pointing	Trial1	pointing/STIM_002.jpg
494.2	1.031	1	pointing	Trial1	pointing/STIM_002.jpg
498.907	1.273	1	pointing	Trial1	pointing/STIM_002.jpg
503.888	1.237	1	pointing	Trial1	pointing/STIM_002.jpg
507.168	1.365	1	pointing	Trial1	pointing/STIM_003.jpg
510.89	1.382	1	pointing	Trial1	pointing/STIM_003.jpg
515.599	1.437	1	pointing	Trial1	pointing/STIM_003.jpg
520.793	1.246	1	pointing	Trial1	pointing/STIM_003.jpg
523.979	1.237	1	pointing	Trial1	pointing/STIM_003.jpg
527.625	1.295	1	pointing	Trial1	pointing/STIM_003.jpg
532.008	1.264	1	pointing	Trial1	pointing/STIM_004.jpg
535.202	1.135	1	pointing	Trial1	pointing/STIM_004.jpg
538.456	1.388	1	pointing	Trial1	pointing/STIM_004.jpg
542.216	1.366	1	pointing	Trial1	pointing/STIM_004.jpg
545.698	1.68	1	pointing	Trial1	pointing/STIM_004.jpg
550.693	1.346	1	pointing	Trial1	pointing/STIM_004.jpg
554.892	1.442	1	pointing	Trial1	pointing/STIM_005.jpg
559.14	1.146	1	pointing	Trial1	pointing/STIM_005.jpg
562.466	1.455	1	pointing	Trial1	pointing/STIM_005.jpg
567.056	1.3	1	pointing	Trial1	pointing/STIM_005.jpg
570.953	1.53	1	pointing	Trial1	pointing/STIM_005.jpg
575.212	1.199	1	pointing	Trial1	pointing/STIM_005.jpg
578.81	1.603	0	pointing	Trial1	pointing/STIM_006.jpg
582.662	0.918	1	pointing	Trial1	pointing/STIM_006.jpg
585.974	1.354	1	pointing	Trial1	pointing/STIM_006.jpg
591.121	1.254	1	pointing	Trial1	pointing/STIM_006.jpg
595.884	1.142	1	pointing	Trial1	pointing/STIM_006.jpg
599.738	1.056	1	pointing	Trial1	pointing/STIM_006.jpg
604.414	0.923	1	pointing	Trial1	pointing/STIM_007.jpg
609.097	1.118	1	pointing	Trial1	pointing/STIM_007.jpg
614.005	1.685	1	pointing	Trial1	pointing/STIM_007.jpg
618.553	0.988	1	pointing	Trial1	pointing/STIM_007.jpg
621.639	0.911	0	pointing	Trial1	pointing/STIM_007.jpg
626.016	1.631	1	pointing	Trial1	pointing/STIM_007.jpg
629.528	1.345	0	pointing	Trial1	pointing/STIM_008.jpg
634.356	0.912	1	pointing	Trial1	pointing/STIM_008.jpg
638.471	1.569	0	pointing	Trial1	pointing/STIM_008.jpg
643.074	1.018	1	pointing	Trial1	pointing/STIM_008.jpg
646.116	1.346	1	pointing	Trial1	pointing/STIM_008.jpg
650.514	1.18	1	pointing	Trial1	pointing/STIM_008.jpg
655.036	0.952	1	pointing	Trial1	pointing/STIM_009.jpg
659.679	1.457	1	pointing	Trial1	pointing/STIM_009.jpg
663.263	0.986	1	pointing	Trial1	pointing/STIM_009.jpg
666.991	1.403	1	pointing	Trial1	pointing/STIM_009.jpg
671.529	1.53	1	pointing	Trial1	pointing/STIM_009.jpg
675.415	0.917	1	pointing	Trial1	pointing/STIM_009.jpg
679.586	1.422	1	pointing	Trial1	pointing/STIM_010.jpg
684.315	1.527	1	pointing	Trial1	pointing/STIM_010.jpg
689.356	1.006	1	pointing	Trial1	pointing/STIM_010.jpg
692.891	1.13	1	pointing	Trial1	pointing/STIM_010.jpg
696.623	1.171	1	pointing	Trial1	pointing/STIM_010.jpg
700.287	1.184	0	pointing	Trial1	pointing/STIM_010.jpg
704.197	1.398	1	pointing	Trial1	pointing/STIM_011.jpg
708.168	1.59	1	pointing	Trial1	pointing/STIM_011.jpg
711.892	1.675	1	pointing	Trial1	pointing/STIM_011.jpg
716.328	1.456	1	pointing	Trial1	pointing/STIM_011.jpg
720.673	0.954	1	pointing	Trial1	pointing/STIM_011.jpg
723.538	1.69	1	pointing	Trial1	pointing/STIM_011.jpg
728.023	4.294	1	navigation	Trial2	navigation/STIM_000.jpg
735.237	3.023	1	navigation	Trial2	navigation/STIM_000.jpg
740.891	2.354	1	navigation	Trial2	navigation/STIM_000.jpg
745.64	3.674	1	navigation	Trial2	navigation/STIM_000.jpg
752.383	2.064	1	navigation	Trial2	navigation/STIM_000.jpg
756.936	2.303	0	navigation	Trial2	navigation/STIM_000.jpg
762.143	3.349	1	navigation	Trial2	navigation/STIM_001.jpg
767.255	2.679	1	navigation	Trial2	navigation/STIM_001.jpg
772.612	2.565	1	navigation	Trial2	navigation/STIM_001.jpg
778.522	3.495	0	navigation	Trial2	navigation/STIM_001.jpg
785.218	3.473	1	navigation	Trial2	navigation/STIM_001.jpg
792.058	1.874	1	navigation	Trial2	navigation/STIM_001.jpg
797.649	3.111	0	navigation	Trial2	navigation/STIM_002.jpg
802.608	4.361	0	navigation	Trial2	navigation/STIM_002.jpg
809.586	3.081	0	navigation	Trial2	navigation/STIM_002.jpg
815.877	1.626	1	navigation	Trial2	navigation/STIM_002.jpg
819.973	3.947	1	navigation	Trial2	navigation/STIM_002.jpg
825.687	3.31	1	navigation	Trial2	navigation/STIM_002.jpg
831.966	3.481	0	navigation	Trial2	navigation/STIM_003.jpg
838.637	3.238	1	navigation	Trial2	navigation/STIM_003.jpg
844.242	3.907	1	navigation	Trial2	navigation/STIM_003.jpg
849.735	2.36	1	navigation	Trial2	navigation/STIM_003.jpg
855.114	1.873	1	navigation	Trial2	navigation/STIM_003.jpg
859.359	3.517	0	navigation	Trial2	navigation/STIM_003.jpg
865.227	4.055	0	navigation	Trial2	navigation/STIM_004.jpg
871.751	2.0	1	navigation	Trial2	navigation/STIM_004.jpg
876.978	1.868	1	navigation	Trial2	navigation/STIM_004.jpg
880.76	2.895	0	navigation	Trial2	navigation/STIM_004.jpg
886.219	1.71	1	navigation	Trial2	navigation/STIM_004.jpg
891.238	3.456	0	navigation	Trial2	navigation/STIM_004.jpg
896.483	4.423	1	navigation	Trial2	navigation/STIM_005.jpg
902.782	2.404	1	navigation	Trial2	navigation/STIM_005.jpg
907.372	3.292	1	navigation	Trial2	navigation/STIM_005.jpg
913.436	3.138	1	navigation	Trial2	navigation/STIM_005.jpg
918.534	2.909	0	navigation	Trial2	navigation/STIM_005.jpg
924.877	2.749	1	navigation	Trial2	navigation/STIM_005.jpg
931.228	2.164	0	navigation	Trial2	navigation/STIM_006.jpg
935.628	3.425	1	navigation	Trial2	navigation/STIM_006.jpg
942.191	3.59	1	navigation	Trial2	navigation/STIM_006.jpg
948.75	2.352	1	navigation	Trial2	navigation/STIM_006.jpg
954.333	1.755	1	navigation	Trial2	navigation/STIM_006.jpg
959.083	3.591	1	navigation	Trial2	navigation/STIM_006.jpg
964.32	4.089	1	navigation	Trial2	navigation/STIM_007.jpg
971.651	2.809	1	navigation	Trial2	navigation/STIM_007.jpg
976.805	3.307	1	navigation	Trial2	navigation/STIM_007.jpg
981.78	1.893	1	navigation	Trial2	navigation/STIM_007.jpg
986.075	2.48	1	navigation	Trial2	navigation/STIM_007.jpg
991.049	3.867	1	navigation	Trial2	navigation/STIM_007.jpg
997.587	3.243	1	navigation	Trial2	navigation/STIM_008.jpg
1003.78	4.112	1	navigation	Trial2	navigation/STIM_008.jpg
1009.967	2.991	1	navigation	Trial2	navigation/STIM_008.jpg
1015.137	3.941	0	navigation	Trial2	navigation/STIM_008.jpg
1022.03	1.892	1	navigation	Trial2	navigation/STIM_008.jpg
1026.035	3.642	1	navigation	Trial2	navigation/STIM_008.jpg
1032.021	3.712	1	navigation	Trial2	navigation/STIM_009.jpg
1037.746	2.466	1	navigation	Trial2	navigation/STIM_009.jpg
1042.301	2.701	0	navigation	Trial2	navigation/STIM_009.jpg
1048.616	3.43	1	navigation	Trial2	navigation/STIM_009.jpg
1054.968	3.46	1	navigation	Trial2	navigation/STIM_009.jpg
1061.44	2.814	1	navigation	Trial2	navigation/STIM_009.jpg
1066.554	3.25	1	navigation	Trial2	navigation/STIM_010.jpg
1072.039	3.726	1	navigation	Trial2	navigation/STIM_010.jpg
1077.845	2.416	1	navigation	Trial2	navigation/STIM_010.jpg
1082.83	2.61	1	navigation	Trial2	navigation/STIM_010.jpg
1087.405	2.521	0	navigation	Trial2	navigation/STIM_010.jpg
1092.242	2.685	1	navigation	Trial2	navigation/STIM_010.jpg
1098.508	4.435	1	navigation	Trial2	navigation/STIM_011.jpg
1106.107	4.224	1	navigation	Trial2	navigation/STIM_011.jpg
1112.287	3.671	1	navigation	Trial2	navigation/STIM_011.jpg
1117.625	3.432	1	navigation	Trial2	navigation/STIM_011.jpg
1123.315	2.452	1	navigation	Trial2	navigation/STIM_011.jpg
1127.729	3.256	1	navigation	Trial2	navigation/STIM_011.jpg
1133.571	1.316	1	pointing	Trial2	pointing/STIM_000.jpg
1138.217	0.975	1	pointing	Trial2	pointing/STIM_000.jpg
1141.16	1.115	0	pointing	Trial2	pointing/STIM_000.jpg
1145.172	1.152	1	pointing	Trial2	pointing/STIM_000.jpg
1149.999	1.36	1	pointing	Trial2	pointing/STIM_000.jpg
1155.165	0.993	1	pointing	Trial2	pointing/STIM_000.jpg
1159.06	1.336	1	pointing	Trial2	pointing/STIM_001.jpg
1162.258	1.402	1	pointing	Trial2	pointing/STIM_001.jpg
1167.017	1.444	1	pointing	Trial2	pointing/STIM_001.jpg
1170.85	1.129	1	pointing	Trial2	pointing/STIM_001.jpg
1174.853	1.274	1	pointing	Trial2	pointing/STIM_001.jpg
1178.37	1.331	1	pointing	Trial2	pointing/STIM_001.jpg
1183.342	1.511	0	pointing	Trial2	pointing/STIM_002.jpg
1186.815	1.39	1	pointing	Trial2	pointing/STIM_002.jpg
1190.411	1.379	1	pointing	Trial2	pointing/STIM_002.jpg
1194.768	1.424	0	pointing	Trial2	pointing/STIM_002.jpg
1198.89	1.494	1	pointing	Trial2	pointing/STIM_002.jpg
1203.564	1.364	1	pointing	Trial2	pointing/STIM_002.jpg
1206.817	1.243	1	pointing	Trial2	pointing/STIM_003.jpg
1210.568	1.472	1	pointing	Trial2	pointing/STIM_003.jpg
1214.019	1.251	1	pointing	Trial2	pointing/STIM_003.jpg
1218.162	1.469	1	pointing	Trial2	pointing/STIM_003.jpg
1222.798	1.034	1	pointing	Trial2	pointing/STIM_003.jpg
1226.408	1.556	0	pointing	Trial2	pointing/STIM_003.jpg
1230.392	1.533	1	pointing	Trial2	pointing/STIM_004.jpg
1235.576	1.649	1	pointing	Trial2	pointing/STIM_004.jpg
1240.096	1.624	1	pointing	Trial2	pointing/STIM_004.jpg
1244.866	0.982	1	pointing	Trial2	pointing/STIM_004.jpg
1248.024	1.083	1	pointing	Trial2	pointing/STIM_004.jpg
1252.72	1.367	1	pointing	Trial2	pointing/STIM_004.jpg
1257.603	0.916	1	pointing	Trial2	pointing/STIM_005.jpg
1261.046	1.13	1	pointing	Trial2	pointing/STIM_005.jpg
1264.825	1.478	1	pointing	Trial2	pointing/STIM_005.jpg
1269.244	0.933	1	pointing	Trial2	pointing/STIM_005.jpg
1273.672	1.157	1	pointing	Trial2	pointing/STIM_005.jpg
1277.491	1.034	1	pointing	Trial2	pointing/STIM_005.jpg
1280.62	1.681	1	pointing	Trial2	pointing/STIM_006.jpg
1284.891	0.987	1	pointing	Trial2	pointing/STIM_006.jpg
1289.649	0.973	1	pointing	Trial2	pointing/STIM_006.jpg
1294.494	1.354	1	pointing	Trial2	pointing/STIM_006.jpg
1298.489	1.031	1	pointing	Trial2	pointing/STIM_006.jpg
1302.228	1.056	1	pointing	Trial2	pointing/STIM_006.jpg
1305.724	1.595	1	pointing	Trial2	pointing/STIM_007.jpg
1310.0	1.268	1	pointing	Trial2	pointing/STIM_007.jpg
1314.388	1.35	1	pointing	Trial2	pointing/STIM_007.jpg
1318.615	1.132	1	pointing	Trial2	pointing/STIM_007.jpg
1321.809	1.129	1	pointing	Trial2	pointing/STIM_007.jpg
1326.231	0.996	1	pointing	Trial2	pointing/STIM_007.jpg
1329.247	1.476	1	pointing	Trial2	pointing/STIM_008.jpg
1334.361	1.071	1	pointing	Trial2	pointing/STIM_008.jpg
1338.495	1.0	1	pointing	Trial2	pointing/STIM_008.jpg
1342.62	1.161	1	pointing	Trial2	pointing/STIM_008.jpg
1346.186	1.648	1	pointing	Trial2	pointing/STIM_008.jpg
1349.65	1.277	1	pointing	Trial2	pointing/STIM_008.jpg
1353.358	1.626	0	pointing	Trial2	pointing/STIM_009.jpg
1358.298	1.135	1	pointing	Trial2	pointing/STIM_009.jpg
1363.144	0.938	0	pointing	Trial2	pointing/STIM_009.jpg
1366.291	1.592	1	pointing	Trial2	pointing/STIM_009.jpg
1370.69	1.111	1	pointing	Trial2	pointing/STIM_009.jpg
1375.514	1.326	1	pointing	Trial2	pointing/STIM_009.jpg
1380.271	1.119	1	pointing	Trial2	pointing/STIM_010.jpg
1383.773	1.532	1	pointing	Trial2	pointing/STIM_010.jpg
1387.674	1.643	1	pointing	Trial2	pointing/STIM_010.jpg
1391.309	1.449	1	pointing	Trial2	pointing/STIM_010.jpg
1395.839	0.994	1	pointing	Trial2	pointing/STIM_010.jpg
1399.833	1.621	1	pointing	Trial2	pointing/STIM_010.jpg
1404.62	0.914	1	pointing	Trial2	pointing/STIM_011.jpg
1407.895	1.33	1	pointing	Trial2	pointing/STIM_011.jpg
1412.924	0.961	1	pointing	Trial2	pointing/STIM_011.jpg
1417.284	1.661	1	pointing	Trial2	pointing/STIM_011.jpg
1421.564	1.305	1	pointing	Trial2	pointing/STIM_011.jpg
1425.593	1.416	1	pointing	Trial2	pointing/STIM_011.jpg
1430.443	2.638	1	navigation	Trial3	navigation/STIM_000.jpg
1436.46	3.217	1	navigation	Trial3	navigation/STIM_000.jpg
1442.564	3.09	1	navigation	Trial3	navigation/STIM_000.jpg
1447.591	2.039	0	navigation	Trial3	navigation/STIM_000.jpg
1452.941	2.456	1	navigation	Trial3	navigation/STIM_000.jpg
1458.956	2.371	1	navigation	Trial3	navigation/STIM_000.jpg
1464.798	1.82	1	navigation	Trial3	navigation/STIM_001.jpg
1470.159	2.344	1	navigation	Trial3	navigation/STIM_001.jpg
1475.974	3.962	1	navigation	Trial3	navigation/STIM_001.jpg
1481.499	3.675	1	navigation	Trial3	navigation/STIM_001.jpg
1487.924	1.982	1	navigation	Trial3	navigation/STIM_001.jpg
1492.439	2.194	1	navigation	Trial3	navigation/STIM_001.jpg
1497.714	2.28	1	navigation	Trial3	navigation/STIM_002.jpg
1502.513	1.645	1	navigation	Trial3	navigation/STIM_002.jpg
1507.561	3.576	1	navigation	Trial3	navigation/STIM_002.jpg
1513.674	3.283	1	navigation	Trial3	navigation/STIM_002.jpg
1519.879	1.592	1	navigation	Trial3	navigation/STIM_002.jpg
1525.162	2.644	1	navigation	Trial3	navigation/STIM_002.jpg
1530.469	2.1	1	navigation	Trial3	navigation/STIM_003.jpg
1536.189	3.301	1	navigation	Trial3	navigation/STIM_003.jpg
1542.639	2.924	1	navigation	Trial3	navigation/STIM_003.jpg
1547.658	3.606	1	navigation	Trial3	navigation/STIM_003.jpg
1553.489	1.591	1	navigation	Trial3	navigation/STIM_003.jpg
1557.892	2.081	1	navigation	Trial3	navigation/STIM_003.jpg
1562.938	2.769	1	navigation	Trial3	navigation/STIM_004.jpg
1569.271	1.958	1	navigation	Trial3	navigation/STIM_004.jpg
1574.317	2.126	0	navigation	Trial3	navigation/STIM_004.jpg
1579.178	2.344	1	navigation	Trial3	navigation/STIM_004.jpg
1583.704	3.471	0	navigation	Trial3	navigation/STIM_004.jpg
1590.113	2.78	1	navigation	Trial3	navigation/STIM_004.jpg
1595.223	2.469	1	navigation	Trial3	navigation/STIM_005.jpg
1601.04	2.651	1	navigation	Trial3	navigation/STIM_005.jpg
1606.756	3.053	1	navigation	Trial3	navigation/STIM_005.jpg
1613.148	2.643	0	navigation	Trial3	navigation/STIM_005.jpg
1617.71	1.762	1	navigation	Trial3	navigation/STIM_005.jpg
1622.695	3.85	1	navigation	Trial3	navigation/STIM_005.jpg
1629.349	3.15	1	navigation	Trial3	navigation/STIM_006.jpg
1634.34	3.772	1	navigation	Trial3	navigation/STIM_006.jpg
1639.673	1.914	1	navigation	Trial3	navigation/STIM_006.jpg
1645.194	3.342	1	navigation	Trial3	navigation/STIM_006.jpg
1650.924	1.814	1	navigation	Trial3	navigation/STIM_006.jpg
1654.587	2.056	1	navigation	Trial3	navigation/STIM_006.jpg
1659.077	3.453	1	navigation	Trial3	navigation/STIM_007.jpg
1665.746	3.552	1	navigation	Trial3	navigation/STIM_007.jpg
1671.417	3.716	1	navigation	Trial3	navigation/STIM_007.jpg
1677.565	1.729	1	navigation	Trial3	navigation/STIM_007.jpg
1682.188	3.576	1	navigation	Trial3	navigation/STIM_007.jpg
1687.534	3.892	1	navigation	Trial3	navigation/STIM_007.jpg
1693.301	3.11	0	navigation	Trial3	navigation/STIM_008.jpg
1698.08	2.862	1	navigation	Trial3	navigation/STIM_008.jpg
1703.911	2.181	1	navigation	Trial3	navigation/STIM_008.jpg
1708.316	3.458	1	navigation	Trial3	navigation/STIM_008.jpg
1713.547	3.231	1	navigation	Trial3	navigation/STIM_008.jpg
1719.391	2.153	1	navigation	Trial3	navigation/STIM_008.jpg
1724.493	3.155	1	navigation	Trial3	navigation/STIM_009.jpg
1729.787	1.967	1	navigation	Trial3	navigation/STIM_009.jpg
1734.773	3.529	1	navigation	Trial3	navigation/STIM_009.jpg
1740.321	3.328	1	navigation	Trial3	navigation/STIM_009.jpg
1745.885	2.971	1	navigation	Trial3	navigation/STIM_009.jpg
1751.643	2.524	1	navigation	Trial3	navigation/STIM_009.jpg
1757.423	3.148	1	navigation	Trial3	navigation/STIM_010.jpg
1763.519	3.101	1	navigation	Trial3	navigation/STIM_010.jpg
1769.732	3.792	1	navigation	Trial3	navigation/STIM_010.jpg
1777.054	2.192	1	navigation	Trial3	navigation/STIM_010.jpg
1782.353	3.297	0	navigation	Trial3	navigation/STIM_010.jpg
1789.186	1.965	1	navigation	Trial3	navigation/STIM_010.jpg
1792.967	1.755	1	navigation	Trial3	navigation/STIM_011.jpg
1797.536	2.442	1	navigation	Trial3	navigation/STIM_011.jpg
1802.549	3.966	1	navigation	Trial3	navigation/STIM_011.jpg
1809.732	3.956	1	navigation	Trial3	navigation/STIM_011.jpg
1816.232	2.291	1	navigation	Trial3	navigation/STIM_011.jpg
1820.808	2.498	1	navigation	Trial3	navigation/STIM_011.jpg
1826.753	1.207	1	pointing	Trial3	pointing/STIM_000.jpg
1830.177	0.965	1	pointing	Trial3	pointing/STIM_000.jpg
1834.698	0.943	1	pointing	Trial3	pointing/STIM_000.jpg
1838.569	1.116	1	pointing	Trial3	pointing/STIM_000.jpg
1842.066	1.293	1	pointing	Trial3	pointing/STIM_000.jpg
1846.622	0.978	1	pointing	Trial3	pointing/STIM_000.jpg
1849.73	1.333	1	pointing	Trial3	pointing/STIM_001.jpg
1854.642	0.959	1	pointing	Trial3	pointing/STIM_001.jpg
1857.661	1.014	1	pointing	Trial3	pointing/STIM_001.jpg
1862.225	0.977	1	pointing	Trial3	pointing/STIM_001.jpg
1866.366	1.098	1	pointing	Trial3	pointing/STIM_001.jpg
1870.251	1.178	1	pointing	Trial3	pointing/STIM_001.jpg
1874.221	1.609	1	pointing	Trial3	pointing/STIM_002.jpg
1877.679	1.246	1	pointing	Trial3	pointing/STIM_002.jpg
1882.329	1.503	1	pointing	Trial3	pointing/STIM_002.jpg
1885.967	1.185	1	pointing	Trial3	pointing/STIM_002.jpg
1890.875	0.983	0	pointing	Trial3	pointing/STIM_002.jpg
1894.288	1.694	1	pointing	Trial3	pointing/STIM_002.jpg
1897.856	1.546	1	pointing	Trial3	pointing/STIM_003.jpg
1903.159	1.222	1	pointing	Trial3	pointing/STIM_003.jpg
1907.462	1.019	1	pointing	Trial3	pointing/STIM_003.jpg
1911.134	1.697	1	pointing	Trial3	pointing/STIM_003.jpg
1914.737	1.109	1	pointing	Trial3	pointing/STIM_003.jpg
1917.966	1.55	1	pointing	Trial3	pointing/STIM_003.jpg
1922.724	1.644	1	pointing	Trial3	pointing/STIM_004.jpg
1926.766	1.236	1	pointing	Trial3	pointing/STIM_004.jpg
1931.758	1.415	1	pointing	Trial3	pointing/STIM_004.jpg
1936.667	1.36	1	pointing	Trial3	pointing/STIM_004.jpg
1941.259	1.108	1	pointing	Trial3	pointing/STIM_004.jpg
1946.227	1.032	1	pointing	Trial3	pointing/STIM_004.jpg
1950.419	1.183	1	pointing	Trial3	pointing/STIM_005.jpg
1954.468	1.551	1	pointing	Trial3	pointing/STIM_005.jpg
1958.673	0.968	1	pointing	Trial3	pointing/STIM_005.jpg
1962.313	1.569	1	pointing	Trial3	pointing/STIM_005.jpg
1966.562	1.456	1	pointing	Trial3	pointing/STIM_005.jpg
1970.073	1.417	1	pointing	Trial3	pointing/STIM_005.jpg
1973.913	1.042	1	pointing	Trial3	pointing/STIM_006.jpg
1978.747	1.082	1	pointing	Trial3	pointing/STIM_006.jpg
1983.431	1.271	0	pointing	Trial3	pointing/STIM_006.jpg
1987.586	0.99	1	pointing	Trial3	pointing/STIM_006.jpg
1991.621	1.563	1	pointing	Trial3	pointing/STIM_006.jpg
1995.718	1.09	1	pointing	Trial3	pointing/STIM_006.jpg
1998.87	1.049	1	pointing	Trial3	pointing/STIM_007.jpg
2002.642	1.438	1	pointing	Trial3	pointing/STIM_007.jpg
2007.008	1.136	1	pointing	Trial3	pointing/STIM_007.jpg
2010.465	0.928	1	pointing	Trial3	pointing/STIM_007.jpg
2014.841	1.171	1	pointing	Trial3	pointing/STIM_007.jpg
2019.214	1.333	1	pointing	Trial3	pointing/STIM_007.jpg
2023.497	1.184	1	pointing	Trial3	pointing/STIM_008.jpg
2027.424	1.607	1	pointing	Trial3	pointing/STIM_008.jpg
2032.318	1.517	1	pointing	Trial3	pointing/STIM_008.jpg
2037.247	1.501	1	pointing	Trial3	pointing/STIM_008.jpg
2041.198	1.146	1	pointing	Trial3	pointing/STIM_008.jpg
2045.706	1.038	1	pointing	Trial3	pointing/STIM_008.jpg
2049.197	1.522	1	pointing	Trial3	pointing/STIM_009.jpg
2053.845	1.223	0	pointing	Trial3	pointing/STIM_009.jpg
2057.388	1.344	1	pointing	Trial3	pointing/STIM_009.jpg
2061.031	1.126	1	pointing	Trial3	pointing/STIM_009.jpg
2065.951	0.931	1	pointing	Trial3	pointing/STIM_009.jpg
2069.604	1.188	1	pointing	Trial3	pointing/STIM_009.jpg
2073.926	0.932	1	pointing	Trial3	pointing/STIM_010.jpg
2078.537	1.085	1	pointing	Trial3	pointing/STIM_010.jpg
2083.235	1.57	1	pointing	Trial3	pointing/STIM_010.jpg
2087.319	1.356	1	pointing	Trial3	pointing/STIM_010.jpg
2091.178	1.285	1	pointing	Trial3	pointing/STIM_010.jpg
2094.899	0.932	1	pointing	Trial3	pointing/STIM_010.jpg
2097.999	1.134	1	pointing	Trial3	pointing/STIM_011.jpg
2102.648	1.118	1	pointing	Trial3	pointing/STIM_011.jpg
2106.407	1.013	1	pointing	Trial3	pointing/STIM_011.jpg
2110.355	1.002	1	pointing	Trial3	pointing/STIM_011.jpg
2113.363	1.349	1	pointing	Trial3	pointing/STIM_011.jpg
2117.623	1.483	1	pointing	Trial3	pointing/STIM_011.jpg
