onset	duration	response_time_ms	trial_type	learning_stage	stimulus	response_port
0.0	4.576	4576.1	navigation	Trial1	navigation/STIM_000.jpg	100
6.806	3.534	3533.5	navigation	Trial1	navigation/STIM_000.jpg	99
14.109	3.671	3670.6	navigation	Trial1	navigation/STIM_000.jpg	99
20.79	3.185	3184.8	navigation	Trial1	navigation/STIM_000.jpg	99
26.706	2.085	2085.4	navigation	Trial1	navigation/STIM_000.jpg	100
31.789	1.996	1995.7	navigation	Trial1	navigation/STIM_000.jpg	100
36.576	3.392	3391.9	navigation	Trial1	navigation/STIM_001.jpg	99
42.613	2.243	2242.8	navigation	Trial1	navigation/STIM_001.jpg	99
48.839	3.856	3855.5	navigation	Trial1	navigation/STIM_001.jpg	99
56.482	3.962	3961.5	navigation	Trial1	navigation/STIM_001.jpg	99
63.839	3.136	3136.5	navigation	Trial1	navigation/STIM_001.jpg	99
69.608	1.757	1757.2	navigation	Trial1	navigation/STIM_001.jpg	100
75.273	3.703	3703.2	navigation	Trial1	navigation/STIM_002.jpg	100
82.911	3.594	3593.8	navigation	Trial1	navigation/STIM_002.jpg	100
90.138	2.528	2527.9	navigation	Trial1	navigation/STIM_002.jpg	99
95.11	2.998	2997.5	navigation	Trial1	navigation/STIM_002.jpg	99
101.986	2.824	2823.7	navigation	Trial1	navigation/STIM_002.jpg	100
108.737	2.569	2569.3	navigation	Trial1	navigation/STIM_002.jpg	100
114.252	3.419	3419.2	navigation	Trial1	navigation/STIM_003.jpg	99
120.263	1.934	1933.9	navigation	Trial1	navigation/STIM_003.jpg	100
126.169	3.466	3465.5	navigation	Trial1	navigation/STIM_003.jpg	100
133.055	2.078	2078.3	navigation	Trial1	navigation/STIM_003.jpg	100
138.444	2.666	2666.4	navigation	Trial1	navigation/STIM_003.jpg	99
144.36	2.893	2893.3	navigation	Trial1	navigation/STIM_003.jpg	100
150.384	4.651	4651.4	navigation	Trial1	navigation/STIM_004.jpg	100
157.212	1.8	1799.8	navigation	Trial1	navigation/STIM_004.jpg	99
161.013	3.264	3264.2	navigation	Trial1	navigation/STIM_004.jpg	100
167.036	1.597	1596.8	navigation	Trial1	navigation/STIM_004.jpg	100
171.15	2.472	2471.8	navigation	Trial1	navigation/STIM_004.jpg	100
176.299	1.93	1929.6	navigation	Trial1	navigation/STIM_004.jpg	99
181.618	4.472	4472.4	navigation	Trial1	navigation/STIM_005.jpg	99
188.193	2.212	2212.3	navigation	Trial1	navigation/STIM_005.jpg	99
192.821	3.986	3985.6	navigation	Trial1	navigation/STIM_005.jpg	100
200.417	2.243	2242.9	navigation	Trial1	navigation/STIM_005.jpg	100
206.454	3.362	3362.1	navigation	Trial1	navigation/STIM_005.jpg	99
213.777	2.053	2052.9	navigation	Trial1	navigation/STIM_005.jpg	99
219.422	3.795	3794.6	navigation	Trial1	navigation/STIM_006.jpg	99
226.792	2.189	2188.9	navigation	Trial1	navigation/STIM_006.jpg	99
232.569	1.75	1749.8	navigation	Trial1	navigation/STIM_006.jpg	100
237.364	3.818	3818.5	navigation	Trial1	navigation/STIM_006.jpg	100
243.375	2.831	2830.7	navigation	Trial1	navigation/STIM_006.jpg	99
248.537	2.761	2761.4	navigation	Trial1	navigation/STIM_006.jpg	99
253.928	3.281	3281.3	navigation	Trial1	navigation/STIM_007.jpg	99
259.862	3.055	3054.9	navigation	Trial1	navigation/STIM_007.jpg	99
265.242	2.65	2649.5	navigation	Trial1	navigation/STIM_007.jpg	100
271.757	3.329	3328.8	navigation	Trial1	navigation/STIM_007.jpg	100
278.916	1.698	1698.4	navigation	Trial1	navigation/STIM_007.jpg	100
283.32	1.819	1819.3	navigation	Trial1	navigation/STIM_007.jpg	99
288.41	3.452	3452.1	navigation	Trial1	navigation/STIM_008.jpg	99
294.282	2.005	2005.2	navigation	Trial1	navigation/STIM_008.jpg	99
299.25	2.198	2198.3	navigation	Trial1	navigation/STIM_008.jpg	100
304.201	3.872	3872.2	navigation	Trial1	navigation/STIM_008.jpg	100
311.911	1.68	1680.1	navigation	Trial1	navigation/STIM_008.jpg	100
315.788	2.592	2591.5	navigation	Trial1	navigation/STIM_008.jpg	100
322.32	2.988	2987.7	navigation	Trial1	navigation/STIM_009.jpg	99
328.022	3.605	3604.7	navigation	Trial1	navigation/STIM_009.jpg	100
333.802	2.638	2638.5	navigation	Trial1	navigation/STIM_009.jpg	100
339.795	3.047	3047.1	navigation	Trial1	navigation/STIM_009.jpg	99
345.041	2.796	2796.0	navigation	Trial1	navigation/STIM_009.jpg	100
350.263	1.621	1620.6	navigation	Trial1	navigation/STIM_009.jpg	100
355.113	2.034	2034.0	navigation	Trial1	navigation/STIM_010.jpg	99
359.379	2.58	2580.5	navigation	Trial1	navigation/STIM_010.jpg	99
364.737	2.13	2130.5	navigation	Trial1	navigation/STIM_010.jpg	99
370.776	2.649	2648.9	navigation	Trial1	navigation/STIM_010.jpg	100
375.861	2.312	2312.4	navigation	Trial1	navigation/STIM_010.jpg	99
380.945	3.365	3364.8	navigation	Trial1	navigation/STIM_010.jpg	99
388.058	4.103	4103.4	navigation	Trial1	navigation/STIM_011.jpg	99
394.603	4.261	4261.0	navigation	Trial1	navigation/STIM_011.jpg	100
401.022	2.466	2465.8	navigation	Trial1	navigation/STIM_011.jpg	99
406.695	3.069	3069.2	navigation	Trial1	navigation/STIM_011.jpg	100
412.537	3.154	3153.5	navigation	Trial1	navigation/STIM_011.jpg	100
417.87	1.584	1583.9	navigation	Trial1	navigation/STIM_011.jpg	99
422.965	0.765	764.9	pointing	Trial1	pointing/STIM_000.jpg	100
426.237	1.089	1089.3	pointing	Trial1	pointing/STIM_000.jpg	99
429.558	1.264	1264.4	pointing	Trial1	pointing/STIM_000.jpg	99
433.0	1.273	1273.3	pointing	Trial1	pointing/STIM_000.jpg	100
437.179	1.004	1004.0	pointing	Trial1	pointing/STIM_000.jpg	99
442.09	1.024	1024.1	pointing	Trial1	pointing/STIM_000.jpg	100
445.335	1.278	1278.1	pointing	Trial1	pointing/STIM_001.jpg	99
449.198	1.331	1330.9	pointing	Trial1	pointing/STIM_001.jpg	100
453.285	1.237	1237.3	pointing	Trial1	pointing/STIM_001.jpg	100
457.899	1.242	1241.7	pointing	Trial1	pointing/STIM_001.jpg	99
462.749	0.868	868.2	pointing	Trial1	pointing/STIM_001.jpg	99
466.934	1.208	1208.0	pointing	Trial1	pointing/STIM_001.jpg	100
471.661	1.179	1178.7	pointing	Trial1	pointing/STIM_002.jpg	99
474.935	1.198	1197.5	pointing	Trial1	pointing/STIM_002.jpg	100
479.792	0.833	833.4	pointing	Trial1	pointing/STIM_002.jpg	100
484.373	1.205	1204.7	pointing	Trial1	pointing/STIM_002.jpg	99
489.345	1.091	1091.2	pointing	Trial1	pointing/STIM_002.jpg	100
493.125	0.849	848.9	pointing	Trial1	pointing/STIM_002.jpg	99
497.321	1.153	1152.8	pointing	Trial1	pointing/STIM_003.jpg	100
501.099	1.082	1081.7	pointing	Trial1	pointing/STIM_003.jpg	100
504.337	0.785	785.3	pointing	Trial1	pointing/STIM_003.jpg	100
508.303	0.772	772.5	pointing	Trial1	pointing/STIM_003.jpg	99
512.478	1.312	1312.2	pointing	Trial1	pointing/STIM_003.jpg	100
516.487	0.816	816.4	pointing	Trial1	pointing/STIM_003.jpg	100
520.023	1.39	1390.3	pointing	Trial1	pointing/STIM_004.jpg	100
523.502	1.366	1365.7	pointing	Trial1	pointing/STIM_004.jpg	99
527.631	1.265	1264.6	pointing	Trial1	pointing/STIM_004.jpg	100
532.248	0.928	927.9	pointing	Trial1	pointing/STIM_004.jpg	100
536.366	1.121	1121.2	pointing	Trial1	pointing/STIM_004.jpg	100
539.694	1.304	1303.8	pointing	Trial1	pointing/STIM_004.jpg	99
543.741	1.184	1183.7	pointing	Trial1	pointing/STIM_005.jpg	99
547.672	0.908	907.6	pointing	Trial1	pointing/STIM_005.jpg	99
552.303	1.175	1175.4	pointing	Trial1	pointing/STIM_005.jpg	99
555.776	1.203	1202.8	pointing	Trial1	pointing/STIM_005.jpg	100
559.833	1.144	1144.0	pointing	Trial1	pointing/STIM_005.jpg	99
564.641	1.112	1111.5	pointing	Trial1	pointing/STIM_005.jpg	99
569.035	1.134	1134.3	pointing	Trial1	pointing/STIM_006.jpg	100
573.272	1.368	1367.8	pointing	Trial1	pointing/STIM_006.jpg	100
577.724	1.071	1071.1	pointing	Trial1	pointing/STIM_006.jpg	100
580.847	0.824	823.7	pointing	Trial1	pointing/STIM_006.jpg	100
584.832	1.307	1307.2	pointing	Trial1	pointing/STIM_006.jpg	99
589.243	1.242	1242.4	pointing	Trial1	pointing/STIM_006.jpg	100
593.044	1.362	1361.5	pointing	Trial1	pointing/STIM_007.jpg	99
596.954	0.973	972.6	pointing	Trial1	pointing/STIM_007.jpg	100
601.23	1.312	1312.3	pointing	Trial1	pointing/STIM_007.jpg	100
605.392	1.232	1232.4	pointing	Trial1	pointing/STIM_007.jpg	99
610.132	0.868	867.5	pointing	Trial1	pointing/STIM_007.jpg	99
613.197	0.938	937.6	pointing	Trial1	pointing/STIM_007.jpg	99
616.909	1.352	1351.9	pointing	Trial1	pointing/STIM_008.jpg	99
621.669	0.825	825.1	pointing	Trial1	pointing/STIM_008.jpg	100
625.962	0.85	850.4	pointing	Trial1	pointing/STIM_008.jpg	99
629.506	0.86	860.4	pointing	Trial1	pointing/STIM_008.jpg	100
633.305	1.353	1352.7	pointing	Trial1	pointing/STIM_008.jpg	99
637.755	1.002	1001.7	pointing	Trial1	pointing/STIM_008.jpg	99
641.228	0.951	951.2	pointing	Trial1	pointing/STIM_009.jpg	99
645.633	0.789	789.0	pointing	Trial1	pointing/STIM_009.jpg	100
648.754	1.126	1126.4	pointing	Trial1	pointing/STIM_009.jpg	99
652.129	0.981	981.3	pointing	Trial1	pointing/STIM_009.jpg	99
656.2	1.078	1078.0	pointing	Trial1	pointing/STIM_009.jpg	99
659.414	0.761	760.6	pointing	Trial1	pointing/STIM_009.jpg	100
663.957	0.865	865.4	pointing	Trial1	pointing/STIM_010.jpg	100
668.0	1.061	1060.9	pointing	Trial1	pointing/STIM_010.jpg	99
671.714	0.837	836.7	pointing	Trial1	pointing/STIM_010.jpg	100
675.452	0.87	870.5	pointing	Trial1	pointing/STIM_010.jpg	99
678.824	1.093	1093.0	pointing	Trial1	pointing/STIM_010.jpg	100
683.566	1.375	1375.3	pointing	Trial1	pointing/STIM_010.jpg	99
687.496	1.395	1394.8	pointing	Trial1	pointing/STIM_011.jpg	99
692.268	1.303	1303.4	pointing	Trial1	pointing/STIM_011.jpg	99
697.023	0.788	788.3	pointing	Trial1	pointing/STIM_011.jpg	100
701.542	1.34	1340.0	pointing	Trial1	pointing/STIM_011.jpg	99
706.13	1.095	1095.0	pointing	Trial1	pointing/STIM_011.jpg	100
710.19	0.913	912.6	pointing	Trial1	pointing/STIM_011.jpg	99
713.833	2.508	2508.0	navigation	Trial2	navigation/STIM_000.jpg	99
718.39	1.819	1819.3	navigation	Trial2	navigation/STIM_000.jpg	99
722.62	1.952	1952.0	navigation	Trial2	navigation/STIM_000.jpg	99
727.473	2.774	2774.5	navigation	Trial2	navigation/STIM_000.jpg	100
732.329	1.821	1820.9	navigation	Trial2	navigation/STIM_000.jpg	100
737.802	2.805	2804.6	navigation	Trial2	navigation/STIM_000.jpg	99
743.74	3.05	3049.6	navigation	Trial2	navigation/STIM_001.jpg	100
750.584	2.283	2283.1	navigation	Trial2	navigation/STIM_001.jpg	100
755.794	3.118	3118.4	navigation	Trial2	navigation/STIM_001.jpg	99
761.331	1.451	1451.0	navigation	Trial2	navigation/STIM_001.jpg	100
765.851	2.361	2360.8	navigation	Trial2	navigation/STIM_001.jpg	99
771.308	2.922	2921.5	navigation	Trial2	navigation/STIM_001.jpg	99
777.001	2.352	2352.1	navigation	Trial2	navigation/STIM_002.jpg	100
781.875	3.684	3684.0	navigation	Trial2	navigation/STIM_002.jpg	100
788.91	3.385	3385.3	navigation	Trial2	navigation/STIM_002.jpg	100
794.635	3.033	3032.6	navigation	Trial2	navigation/STIM_002.jpg	100
800.657	3.255	3254.9	navigation	Trial2	navigation/STIM_002.jpg	100
806.208	1.474	1474.3	navigation	Trial2	navigation/STIM_002.jpg	100
809.955	3.024	3023.7	navigation	Trial2	navigation/STIM_003.jpg	100
815.105	3.552	3552.0	navigation	Trial2	navigation/STIM_003.jpg	100
821.164	2.94	2939.8	navigation	Trial2	navigation/STIM_003.jpg	99
826.972	2.622	2621.8	navigation	Trial2	navigation/STIM_003.jpg	100
833.251	2.219	2218.6	navigation	Trial2	navigation/STIM_003.jpg	99
838.338	2.239	2239.2	navigation	Trial2	navigation/STIM_003.jpg	99
844.292	2.318	2317.6	navigation	Trial2	navigation/STIM_004.jpg	100
850.092	1.64	1639.6	navigation	Trial2	navigation/STIM_004.jpg	99
855.55	2.71	2710.2	navigation	Trial2	navigation/STIM_004.jpg	100
861.181	2.613	2613.1	navigation	Trial2	navigation/STIM_004.jpg	99
866.45	2.228	2228.0	navigation	Trial2	navigation/STIM_004.jpg	99
871.404	2.631	2630.9	navigation	Trial2	navigation/STIM_004.jpg	99
876.9	2.291	2291.0	navigation	Trial2	navigation/STIM_005.jpg	99
882.724	2.329	2328.7	navigation	Trial2	navigation/STIM_005.jpg	100
888.888	2.309	2309.3	navigation	Trial2	navigation/STIM_005.jpg	100
895.141	2.324	2324.1	navigation	Trial2	navigation/STIM_005.jpg	100
900.206	1.358	1358.1	navigation	Trial2	navigation/STIM_005.jpg	100
904.813	1.454	1454.2	navigation	Trial2	navigation/STIM_005.jpg	100
910.132	3.873	3872.7	navigation	Trial2	navigation/STIM_006.jpg	99
916.228	1.688	1688.3	navigation	Trial2	navigation/STIM_006.jpg	100
921.199	2.913	2913.4	navigation	Trial2	navigation/STIM_006.jpg	99
926.116	1.367	1366.6	navigation	Trial2	navigation/STIM_006.jpg	100
931.27	2.808	2807.8	navigation	Trial2	navigation/STIM_006.jpg	99
937.758	3.157	3156.7	navigation	Trial2	navigation/STIM_006.jpg	99
943.867	3.528	3528.4	navigation	Trial2	navigation/STIM_007.jpg	100
949.673	2.773	2773.1	navigation	Trial2	navigation/STIM_007.jpg	99
954.792	2.373	2372.9	navigation	Trial2	navigation/STIM_007.jpg	99
960.92	2.517	2517.0	navigation	Trial2	navigation/STIM_007.jpg	100
965.611	2.351	2350.9	navigation	Trial2	navigation/STIM_007.jpg	100
970.37	1.536	1536.2	navigation	Trial2	navigation/STIM_007.jpg	100
975.106	2.579	2579.0	navigation	Trial2	navigation/STIM_008.jpg	99
980.339	1.886	1886.2	navigation	Trial2	navigation/STIM_008.jpg	100
985.525	3.369	3369.2	navigation	Trial2	navigation/STIM_008.jpg	99
991.823	2.3	2299.5	navigation	Trial2	navigation/STIM_008.jpg	100
997.246	2.832	2832.1	navigation	Trial2	navigation/STIM_008.jpg	100
1002.214	3.242	3242.5	navigation	Trial2	navigation/STIM_008.jpg	100
1008.324	3.732	3732.0	navigation	Trial2	navigation/STIM_009.jpg	100
1015.416	2.207	2206.9	navigation	Trial2	navigation/STIM_009.jpg	100
1020.041	3.318	3318.3	navigation	Trial2	navigation/STIM_009.jpg	99
1026.998	2.259	2259.2	navigation	Trial2	navigation/STIM_009.jpg	100
1032.128	2.282	2282.1	navigation	Trial2	navigation/STIM_009.jpg	99
1037.343	2.505	2504.8	navigation	Trial2	navigation/STIM_009.jpg	100
1043.517	3.206	3205.6	navigation	Trial2	navigation/STIM_010.jpg	100
1050.646	2.397	2397.0	navigation	Trial2	navigation/STIM_010.jpg	100
1056.582	2.434	2433.8	navigation	Trial2	navigation/STIM_010.jpg	100
1062.377	2.772	2771.8	navigation	Trial2	navigation/STIM_010.jpg	99
1068.858	3.03	3030.0	navigation	Trial2	navigation/STIM_010.jpg	100
1074.166	2.302	2301.9	navigation	Trial2	navigation/STIM_010.jpg	99
1079.053	2.4	2400.5	navigation	Trial2	navigation/STIM_011.jpg	99
1084.555	1.512	1511.9	navigation	Trial2	navigation/STIM_011.jpg	99
1089.988	3.322	3321.9	navigation	Trial2	navigation/STIM_011.jpg	99
1097.122	2.437	2437.1	navigation	Trial2	navigation/STIM_011.jpg	100
1102.324	1.312	1312.0	navigation	Trial2	navigation/STIM_011.jpg	100
1106.229	2.947	2946.6	navigation	Trial2	navigation/STIM_011.jpg	99
1112.557	0.89	889.9	pointing	Trial2	pointing/STIM_000.jpg	100
1117.41	1.251	1251.0	pointing	Trial2	pointing/STIM_000.jpg	99
1120.762	1.034	1034.0	pointing	Trial2	pointing/STIM_000.jpg	100
1125.251	1.34	1339.9	pointing	Trial2	pointing/STIM_000.jpg	100
1129.525	0.936	936.0	pointing	Trial2	pointing/STIM_000.jpg	99
1133.123	1.242	1242.4	pointing	Trial2	pointing/STIM_000.jpg	99
1137.254	1.123	1123.3	pointing	Trial2	pointing/STIM_001.jpg	99
1140.776	0.935	935.0	pointing	Trial2	pointing/STIM_001.jpg	99
1144.71	1.031	1031.0	pointing	Trial2	pointing/STIM_001.jpg	100
1149.477	1.379	1378.9	pointing	Trial2	pointing/STIM_001.jpg	99
1153.938	1.036	1035.6	pointing	Trial2	pointing/STIM_001.jpg	100
1158.193	0.797	796.6	pointing	Trial2	pointing/STIM_001.jpg	99
1161.876	1.064	1063.9	pointing	Trial2	pointing/STIM_002.jpg	100
1166.398	1.17	1170.1	pointing	Trial2	pointing/STIM_002.jpg	99
1170.089	0.961	961.2	pointing	Trial2	pointing/STIM_002.jpg	100
1174.635	1.125	1124.7	pointing	Trial2	pointing/STIM_002.jpg	99
1179.523	1.005	1004.8	pointing	Trial2	pointing/STIM_002.jpg	100
1182.775	1.315	1315.0	pointing	Trial2	pointing/STIM_002.jpg	99
1186.443	0.845	845.4	pointing	Trial2	pointing/STIM_003.jpg	100
1189.594	0.925	924.6	pointing	Trial2	pointing/STIM_003.jpg	100
1192.875	1.304	1304.4	pointing	Trial2	pointing/STIM_003.jpg	99
1196.699	0.982	982.2	pointing	Trial2	pointing/STIM_003.jpg	99
1201.327	1.204	1204.3	pointing	Trial2	pointing/STIM_003.jpg	99
1206.409	0.864	864.0	pointing	Trial2	pointing/STIM_003.jpg	100
1211.222	1.312	1312.5	pointing	Trial2	pointing/STIM_004.jpg	100
1216.37	0.803	803.3	pointing	Trial2	pointing/STIM_004.jpg	99
1219.533	1.285	1285.1	pointing	Trial2	pointing/STIM_004.jpg	100
1223.936	0.95	950.3	pointing	Trial2	pointing/STIM_004.jpg	100
1226.996	1.367	1366.6	pointing	Trial2	pointing/STIM_004.jpg	99
1231.378	1.108	1107.7	pointing	Trial2	pointing/STIM_004.jpg	100
1235.236	0.814	813.8	pointing	Trial2	pointing/STIM_005.jpg	100
1239.36	1.023	1022.7	pointing	Trial2	pointing/STIM_005.jpg	99
1242.95	1.13	1129.6	pointing	Trial2	pointing/STIM_005.jpg	99
1247.141	1.101	1100.6	pointing	Trial2	pointing/STIM_005.jpg	99
1252.018	1.06	1059.8	pointing	Trial2	pointing/STIM_005.jpg	100
1255.46	0.998	998.2	pointing	Trial2	pointing/STIM_005.jpg	99
1258.997	1.003	1002.8	pointing	Trial2	pointing/STIM_006.jpg	99
1263.975	0.751	750.8	pointing	Trial2	pointing/STIM_006.jpg	99
1266.809	0.828	827.5	pointing	Trial2	pointing/STIM_006.jpg	99
1270.56	1.051	1050.9	pointing	Trial2	pointing/STIM_006.jpg	100
1274.895	1.007	1006.9	pointing	Trial2	pointing/STIM_006.jpg	100
1279.277	1.353	1352.9	pointing	Trial2	pointing/STIM_006.jpg	99
1282.838	1.064	1064.3	pointing	Trial2	pointing/STIM_007.jpg	100
1286.802	0.864	864.4	pointing	Trial2	pointing/STIM_007.jpg	100
1290.972	0.791	791.0	pointing	Trial2	pointing/STIM_007.jpg	99
1295.725	1.167	1167.1	pointing	Trial2	pointing/STIM_007.jpg	100
1299.741	1.337	1336.7	pointing	Trial2	pointing/STIM_007.jpg	99
1304.781	1.312	1311.8	pointing	Trial2	pointing/STIM_007.jpg	100
1308.737	1.316	1315.9	pointing	Trial2	pointing/STIM_008.jpg	99
1313.713	1.296	1296.2	pointing	Trial2	pointing/STIM_008.jpg	100
1318.597	0.822	822.4	pointing	Trial2	pointing/STIM_008.jpg	100
1322.327	1.324	1323.7	pointing	Trial2	pointing/STIM_008.jpg	100
1325.985	1.312	1311.8	pointing	Trial2	pointing/STIM_008.jpg	99
1329.842	0.984	984.3	pointing	Trial2	pointing/STIM_008.jpg	99
1334.769	1.065	1065.2	pointing	Trial2	pointing/STIM_009.jpg	100
1338.682	1.359	1358.8	pointing	Trial2	pointing/STIM_009.jpg	100
1343.468	1.392	1392.3	pointing	Trial2	pointing/STIM_009.jpg	99
1348.725	1.294	1293.6	pointing	Trial2	pointing/STIM_009.jpg	100
1353.349	1.343	1342.6	pointing	Trial2	pointing/STIM_009.jpg	100
1357.238	0.751	750.8	pointing	Trial2	pointing/STIM_009.jpg	99
1360.328	1.038	1038.5	pointing	Trial2	pointing/STIM_010.jpg	99
1364.606	1.048	1048.3	pointing	Trial2	pointing/STIM_010.jpg	100
1368.909	0.808	807.6	pointing	Trial2	pointing/STIM_010.jpg	99
1372.146	1.185	1184.6	pointing	Trial2	pointing/STIM_010.jpg	100
1377.139	1.234	1233.6	pointing	Trial2	pointing/STIM_010.jpg	99
1381.466	0.912	912.4	pointing	Trial2	pointing/STIM_010.jpg	100
1384.724	1.085	1085.0	pointing	Trial2	pointing/STIM_011.jpg	100
1388.705	1.192	1191.8	pointing	Trial2	pointing/STIM_011.jpg	99
1392.31	1.099	1099.1	pointing	Trial2	pointing/STIM_011.jpg	100
1396.034	1.17	1170.2	pointing	Trial2	pointing/STIM_011.jpg	99
1400.328	1.32	1320.2	pointing	Trial2	pointing/STIM_011.jpg	99
1404.731	1.379	1378.8	pointing	Trial2	pointing/STIM_011.jpg	100
1408.613	2.178	2177.5	navigation	Trial3	navigation/STIM_000.jpg	99
1414.579	1.927	1926.6	navigation	Trial3	navigation/STIM_000.jpg	100
1418.701	3.077	3076.8	navigation	Trial3	navigation/STIM_000.jpg	100
1423.974	1.615	1614.8	navigation	Trial3	navigation/STIM_000.jpg	99
1428.192	1.692	1692.1	navigation	Trial3	navigation/STIM_000.jpg	99
1433.38	1.615	1614.6	navigation	Trial3	navigation/STIM_000.jpg	99
1438.583	2.128	2128.5	navigation	Trial3	navigation/STIM_001.jpg	99
1444.26	2.447	2447.4	navigation	Trial3	navigation/STIM_001.jpg	99
1450.647	1.408	1408.0	navigation	Trial3	navigation/STIM_001.jpg	100
1454.458	2.553	2553.4	navigation	Trial3	navigation/STIM_001.jpg	99
1460.421	1.676	1675.8	navigation	Trial3	navigation/STIM_001.jpg	99
1465.394	1.856	1855.8	navigation	Trial3	navigation/STIM_001.jpg	99
1469.696	1.906	1905.6	navigation	Trial3	navigation/STIM_002.jpg	100
1474.638	2.706	2705.8	navigation	Trial3	navigation/STIM_002.jpg	99
1481.239	1.976	1976.1	navigation	Trial3	navigation/STIM_002.jpg	99
1486.357	1.833	1833.0	navigation	Trial3	navigation/STIM_002.jpg	99
1491.923	3.042	3041.7	navigation	Trial3	navigation/STIM_002.jpg	100
1497.012	2.844	2843.6	navigation	Trial3	navigation/STIM_002.jpg	99
1502.293	2.721	2721.2	navigation	Trial3	navigation/STIM_003.jpg	100
1508.678	1.977	1976.7	navigation	Trial3	navigation/STIM_003.jpg	100
1514.574	1.844	1844.1	navigation	Trial3	navigation/STIM_003.jpg	99
1519.711	3.004	3003.7	navigation	Trial3	navigation/STIM_003.jpg	99
1526.416	3.006	3005.6	navigation	Trial3	navigation/STIM_003.jpg	100
1532.101	2.553	2552.7	navigation	Trial3	navigation/STIM_003.jpg	100
1538.627	2.223	2223.1	navigation	Trial3	navigation/STIM_004.jpg	99
1543.836	3.081	3080.6	navigation	Trial3	navigation/STIM_004.jpg	99
1550.321	2.122	2121.9	navigation	Trial3	navigation/STIM_004.jpg	100
1556.154	1.794	1793.9	navigation	Trial3	navigation/STIM_004.jpg	99
1560.437	2.255	2255.0	navigation	Trial3	navigation/STIM_004.jpg	99
1565.702	2.533	2533.0	navigation	Trial3	navigation/STIM_004.jpg	99
1571.599	3.173	3173.2	navigation	Trial3	navigation/STIM_005.jpg	99
1578.632	3.013	3012.8	navigation	Trial3	navigation/STIM_005.jpg	99
1584.307	2.633	2632.7	navigation	Trial3	navigation/STIM_005.jpg	99
1590.335	1.487	1487.0	navigation	Trial3	navigation/STIM_005.jpg	100
1595.362	2.298	2298.0	navigation	Trial3	navigation/STIM_005.jpg	100
1601.204	3.264	3264.3	navigation	Trial3	navigation/STIM_005.jpg	100
1608.129	2.027	2026.9	navigation	Trial3	navigation/STIM_006.jpg	100
1613.952	2.344	2343.8	navigation	Trial3	navigation/STIM_006.jpg	100
1618.846	1.367	1366.7	navigation	Trial3	navigation/STIM_006.jpg	99
1622.362	2.178	2178.4	navigation	Trial3	navigation/STIM_006.jpg	99
1628.217	3.178	3178.0	navigation	Trial3	navigation/STIM_006.jpg	99
1634.664	2.972	2971.6	navigation	Trial3	navigation/STIM_006.jpg	100
1641.258	2.941	2941.1	navigation	Trial3	navigation/STIM_007.jpg	100
1647.979	3.171	3171.2	navigation	Trial3	navigation/STIM_007.jpg	100
1653.758	2.568	2568.2	navigation	Trial3	navigation/STIM_007.jpg	100
1659.738	1.577	1577.0	navigation	Trial3	navigation/STIM_007.jpg	100
1664.074	1.654	1653.5	navigation	Trial3	navigation/STIM_007.jpg	99
1667.981	1.442	1441.5	navigation	Trial3	navigation/STIM_007.jpg	99
1673.311	2.101	2100.6	navigation	Trial3	navigation/STIM_008.jpg	99
1679.385	2.755	2755.4	navigation	Trial3	navigation/STIM_008.jpg	100
1685.508	2.624	2623.6	navigation	Trial3	navigation/STIM_008.jpg	99
1691.407	1.7	1700.3	navigation	Trial3	navigation/STIM_008.jpg	99
1695.469	1.488	1488.0	navigation	Trial3	navigation/STIM_008.jpg	100
1699.395	1.894	1894.1	navigation	Trial3	navigation/STIM_008.jpg	99
1704.615	3.237	3237.2	navigation	Trial3	navigation/STIM_009.jpg	100
1711.254	2.597	2596.9	navigation	Trial3	navigation/STIM_009.jpg	100
1717.06	1.42	1420.3	navigation	Trial3	navigation/STIM_009.jpg	100
1722.018	2.772	2772.5	navigation	Trial3	navigation/STIM_009.jpg	99
1728.788	2.319	2318.9	navigation	Trial3	navigation/STIM_009.jpg	100
1734.323	1.453	1452.9	navigation	Trial3	navigation/STIM_009.jpg	100
1738.912	1.94	1940.5	navigation	Trial3	navigation/STIM_010.jpg	99
1744.384	1.485	1484.9	navigation	Trial3	navigation/STIM_010.jpg	100
1748.746	1.437	1437.1	navigation	Trial3	navigation/STIM_010.jpg	99
1753.182	2.437	2436.7	navigation	Trial3	navigation/STIM_010.jpg	100
1757.717	3.164	3163.6	navigation	Trial3	navigation/STIM_010.jpg	99
1764.267	2.868	2867.9	navigation	Trial3	navigation/STIM_010.jpg	100
1771.001	1.614	1613.7	navigation	Trial3	navigation/STIM_011.jpg	100
1775.141	2.924	2923.7	navigation	Trial3	navigation/STIM_011.jpg	100
1781.885	2.126	2126.0	navigation	Trial3	navigation/STIM_011.jpg	99
1787.564	2.096	2096.0	navigation	Trial3	navigation/STIM_011.jpg	99
1793.458	3.262	3262.4	navigation	Trial3	navigation/STIM_011.jpg	99
1799.681	3.062	3061.6	navigation	Trial3	navigation/STIM_011.jpg	99
1805.618	0.854	854.2	pointing	Trial3	pointing/STIM_000.jpg	99
1809.878	0.828	828.3	pointing	Trial3	pointing/STIM_000.jpg	100
1814.658	0.906	906.4	pointing	Trial3	pointing/STIM_000.jpg	99
1819.094	1.157	1156.8	pointing	Trial3	pointing/STIM_000.jpg	100
1823.035	0.787	787.4	pointing	Trial3	pointing/STIM_000.jpg	100
1827.758	1.065	1065.1	pointing	Trial3	pointing/STIM_000.jpg	100
1832.775	0.979	978.9	pointing	Trial3	pointing/STIM_001.jpg	100
1835.843	1.244	1244.1	pointing	Trial3	pointing/STIM_001.jpg	99
1840.526	1.374	1373.8	pointing	Trial3	pointing/STIM_001.jpg	99
1844.413	1.26	1260.2	pointing	Trial3	pointing/STIM_001.jpg	100
1849.654	1.133	1133.2	pointing	Trial3	pointing/STIM_001.jpg	99
1852.822	1.259	1258.7	pointing	Trial3	pointing/STIM_001.jpg	100
1856.537	0.959	958.7	pointing	Trial3	pointing/STIM_002.jpg	99
1861.437	0.808	808.0	pointing	Trial3	pointing/STIM_002.jpg	99
1865.975	1.337	1337.3	pointing	Trial3	pointing/STIM_002.jpg	100
1870.263	1.239	1239.4	pointing	Trial3	pointing/STIM_002.jpg	100
1873.679	0.977	977.0	pointing	Trial3	pointing/STIM_002.jpg	99
1876.755	1.294	1294.0	pointing	Trial3	pointing/STIM_002.jpg	99
1880.891	1.161	1161.0	pointing	Trial3	pointing/STIM_003.jpg	99
1885.782	1.01	1009.7	pointing	Trial3	pointing/STIM_003.jpg	99
1889.838	1.035	1035.3	pointing	Trial3	pointing/STIM_003.jpg	99
1894.14	1.101	1101.1	pointing	Trial3	pointing/STIM_003.jpg	100
1897.267	1.311	1311.4	pointing	Trial3	pointing/STIM_003.jpg	100
1901.688	0.77	769.6	pointing	Trial3	pointing/STIM_003.jpg	100
1904.63	1.11	1109.5	pointing	Trial3	pointing/STIM_004.jpg	99
1908.136	0.896	896.2	pointing	Trial3	pointing/STIM_004.jpg	99
1912.756	1.111	1110.6	pointing	Trial3	pointing/STIM_004.jpg	99
1917.074	1.216	1215.7	pointing	Trial3	pointing/STIM_004.jpg	100
1921.756	1.096	1095.9	pointing	Trial3	pointing/STIM_004.jpg	100
1925.127	0.838	837.6	pointing	Trial3	pointing/STIM_004.jpg	99
1929.119	0.845	844.8	pointing	Trial3	pointing/STIM_005.jpg	100
1933.381	1.132	1131.9	pointing	Trial3	pointing/STIM_005.jpg	99
1938.042	0.754	753.5	pointing	Trial3	pointing/STIM_005.jpg	100
1941.554	1.103	1103.1	pointing	Trial3	pointing/STIM_005.jpg	99
1946.266	1.365	1365.0	pointing	Trial3	pointing/STIM_005.jpg	100
1950.415	0.785	784.7	pointing	Trial3	pointing/STIM_005.jpg	99
1954.801	0.875	874.9	pointing	Trial3	pointing/STIM_006.jpg	100
1957.85	0.866	866.3	pointing	Trial3	pointing/STIM_006.jpg	99
1962.682	0.789	789.3	pointing	Trial3	pointing/STIM_006.jpg	100
1967.241	0.813	812.6	pointing	Trial3	pointing/STIM_006.jpg	99
1970.723	0.803	802.6	pointing	Trial3	pointing/STIM_006.jpg	100
1975.386	1.268	1268.1	pointing	Trial3	pointing/STIM_006.jpg	99
1978.773	1.104	1103.9	pointing	Trial3	pointing/STIM_007.jpg	99
1983.092	1.268	1268.5	pointing	Trial3	pointing/STIM_007.jpg	100
1987.96	0.942	942.2	pointing	Trial3	pointing/STIM_007.jpg	99
1992.017	0.747	747.1	pointing	Trial3	pointing/STIM_007.jpg	100
1995.119	1.336	1336.0	pointing	Trial3	pointing/STIM_007.jpg	99
1998.555	1.336	1336.1	pointing	Trial3	pointing/STIM_007.jpg	100
2002.074	0.96	960.3	pointing	Trial3	pointing/STIM_008.jpg	99
2005.181	1.376	1376.3	pointing	Trial3	pointing/STIM_008.jpg	100
2008.927	1.041	1040.9	pointing	Trial3	pointing/STIM_008.jpg	99
2013.662	1.041	1041.4	pointing	Trial3	pointing/STIM_008.jpg	100
2018.531	1.087	1087.0	pointing	Trial3	pointing/STIM_008.jpg	100
2022.945	1.371	1370.6	pointing	Trial3	pointing/STIM_008.jpg	100
2027.549	1.247	1246.7	pointing	Trial3	pointing/STIM_009.jpg	100
2032.609	1.236	1235.9	pointing	Trial3	pointing/STIM_009.jpg	99
2036.551	1.098	1097.6	pointing	Trial3	pointing/STIM_009.jpg	100
2041.578	0.867	866.8	pointing	Trial3	pointing/STIM_009.jpg	99
2044.704	0.846	845.9	pointing	Trial3	pointing/STIM_009.jpg	99
2049.326	0.904	904.0	pointing	Trial3	pointing/STIM_009.jpg	99
2054.163	0.886	886.5	pointing	Trial3	pointing/STIM_010.jpg	100
2057.848	1.136	1135.9	pointing	Trial3	pointing/STIM_010.jpg	100
2062.549	0.904	904.2	pointing	Trial3	pointing/STIM_010.jpg	100
2066.942	1.253	1253.2	pointing	Trial3	pointing/STIM_010.jpg	99
2070.355	0.77	770.4	pointing	Trial3	pointing/STIM_010.jpg	99
2074.114	1.027	1026.8	pointing	Trial3	pointing/STIM_010.jpg	100
2078.354	1.086	1085.8	pointing	Trial3	pointing/STIM_011.jpg	100
2082.892	0.849	849.0	pointing	Trial3	pointing/STIM_011.jpg	100
2087.378	1.039	1038.9	pointing	Trial3	pointing/STIM_011.jpg	99
2091.155	1.004	1003.5	pointing	Trial3	pointing/STIM_011.jpg	99
2094.183	1.261	1261.2	pointing	Trial3	pointing/STIM_011.jpg	99
2098.118	0.96	960.1	pointing	Trial3	pointing/STIM_011.jpg	100
