onset	duration	response_time_ms	trial_type	learning_stage	stimulus	response_port
0.0	2.225	2224.9	generate	Run1	generate/STIM_000.jpg	99
5.933	2.584	2584.2	generate	Run1	generate/STIM_000.jpg	100
11.991	2.269	2268.8	generate	Run1	generate/STIM_000.jpg	99
16.973	2.333	2332.6	generate	Run1	generate/STIM_000.jpg	100
21.284	1.778	1777.7	generate	Run1	generate/STIM_000.jpg	100
26.335	2.872	2871.9	generate	Run1	generate/STIM_001.jpg	100
31.474	2.626	2625.8	generate	Run1	generate/STIM_001.jpg	100
37.375	2.11	2109.8	generate	Run1	generate/STIM_001.jpg	99
42.606	2.058	2057.6	generate	Run1	generate/STIM_001.jpg	99
48.085	1.038	1038.0	generate	Run1	generate/STIM_001.jpg	100
52.598	3.058	3058.5	generate	Run1	generate/STIM_002.jpg	100
58.136	1.791	1790.6	generate	Run1	generate/STIM_002.jpg	99
62.426	1.729	1729.1	generate	Run1	generate/STIM_002.jpg	100
66.323	1.371	1370.6	generate	Run1	generate/STIM_002.jpg	99
70.895	2.148	2148.5	generate	Run1	generate/STIM_002.jpg	99
75.118	2.886	2885.9	generate	Run1	generate/STIM_003.jpg	99
80.114	2.852	2851.9	generate	Run1	generate/STIM_003.jpg	99
86.444	1.388	1387.7	generate	Run1	generate/STIM_003.jpg	99
91.062	1.58	1579.7	generate	Run1	generate/STIM_003.jpg	99
95.756	1.094	1093.5	generate	Run1	generate/STIM_003.jpg	100
99.854	2.91	2909.6	generate	Run1	generate/STIM_004.jpg	100
105.833	2.424	2424.3	generate	Run1	generate/STIM_004.jpg	100
111.957	2.322	2322.2	generate	Run1	generate/STIM_004.jpg	99
117.597	2.449	2449.4	generate	Run1	generate/STIM_004.jpg	100
122.79	1.406	1405.9	generate	Run1	generate/STIM_004.jpg	100
127.416	2.95	2950.1	generate	Run1	generate/STIM_005.jpg	100
133.672	2.851	2850.8	generate	Run1	generate/STIM_005.jpg	99
139.912	2.076	2076.3	generate	Run1	generate/STIM_005.jpg	99
145.159	2.113	2112.7	generate	Run1	generate/STIM_005.jpg	99
149.257	1.095	1094.7	generate	Run1	generate/STIM_005.jpg	99
153.614	2.177	2177.2	generate	Run1	generate/STIM_006.jpg	99
157.99	2.369	2368.7	generate	Run1	generate/STIM_006.jpg	100
162.255	1.71	1710.0	generate	Run1	generate/STIM_006.jpg	100
166.24	1.353	1353.1	generate	Run1	generate/STIM_006.jpg	100
171.057	1.259	1258.8	generate	Run1	generate/STIM_006.jpg	100
175.27	2.583	2582.9	generate	Run1	generate/STIM_007.jpg	99
180.682	2.042	2041.5	generate	Run1	generate/STIM_007.jpg	100
186.039	1.563	1563.4	generate	Run1	generate/STIM_007.jpg	100
190.478	1.794	1793.6	generate	Run1	generate/STIM_007.jpg	100
195.307	1.383	1383.4	generate	Run1	generate/STIM_007.jpg	100
198.763	2.815	2814.9	generate	Run1	generate/STIM_008.jpg	99
204.779	1.546	1546.1	generate	Run1	generate/STIM_008.jpg	100
208.552	1.278	1278.2	generate	Run1	generate/STIM_008.jpg	99
212.968	1.433	1433.3	generate	Run1	generate/STIM_008.jpg	99
217.579	1.616	1616.4	generate	Run1	generate/STIM_008.jpg	99
222.347	1.82	1819.9	generate	Run1	generate/STIM_009.jpg	100
227.28	3.065	3065.4	generate	Run1	generate/STIM_009.jpg	100
233.124	1.984	1983.9	generate	Run1	generate/STIM_009.jpg	100
238.49	2.195	2195.0	generate	Run1	generate/STIM_009.jpg	99
244.485	1.581	1581.1	generate	Run1	generate/STIM_009.jpg	100
248.415	2.893	2892.6	generate	Run1	generate/STIM_010.jpg	99
253.196	2.589	2588.6	generate	Run1	generate/STIM_010.jpg	99
257.816	2.375	2374.8	generate	Run1	generate/STIM_010.jpg	100
262.222	2.573	2573.4	generate	Run1	generate/STIM_010.jpg	100
267.471	1.559	1559.1	generate	Run1	generate/STIM_010.jpg	100
271.533	2.518	2517.9	generate	Run1	generate/STIM_011.jpg	100
277.794	2.688	2687.7	generate	Run1	generate/STIM_011.jpg	100
283.028	2.174	2174.0	generate	Run1	generate/STIM_011.jpg	99
288.986	1.32	1320.5	generate	Run1	generate/STIM_011.jpg	100
292.909	1.632	1632.0	generate	Run1	generate/STIM_011.jpg	100
296.777	1.884	1884.5	generate	Run1	generate/STIM_012.jpg	100
300.777	1.431	1431.3	generate	Run1	generate/STIM_012.jpg	99
304.357	2.893	2893.1	generate	Run1	generate/STIM_012.jpg	100
310.847	1.555	1554.7	generate	Run1	generate/STIM_012.jpg	100
315.698	2.076	2075.5	generate	Run1	generate/STIM_012.jpg	99
320.963	2.832	2831.7	generate	Run1	generate/STIM_013.jpg	100
327.463	2.913	2913.0	generate	Run1	generate/STIM_013.jpg	100
332.929	1.722	1722.4	generate	Run1	generate/STIM_013.jpg	100
338.472	1.387	1386.7	generate	Run1	generate/STIM_013.jpg	100
342.451	1.158	1158.0	generate	Run1	generate/STIM_013.jpg	100
346.274	2.373	2372.6	generate	Run1	generate/STIM_014.jpg	99
350.782	1.633	1633.2	generate	Run1	generate/STIM_014.jpg	100
354.885	1.856	1855.6	generate	Run1	generate/STIM_014.jpg	99
359.13	1.798	1797.6	generate	Run1	generate/STIM_014.jpg	99
364.54	1.239	1239.2	generate	Run1	generate/STIM_014.jpg	99
368.373	2.006	2005.8	generate	Run1	generate/STIM_015.jpg	99
372.398	1.805	1805.3	generate	Run1	generate/STIM_015.jpg	100
378.02	1.594	1593.6	generate	Run1	generate/STIM_015.jpg	100
382.826	2.121	2120.8	generate	Run1	generate/STIM_015.jpg	99
387.887	1.872	1871.5	generate	Run1	generate/STIM_015.jpg	99
393.468	2.249	2249.2	generate	Run1	generate/STIM_016.jpg	100
398.387	3.07	3069.7	generate	Run1	generate/STIM_016.jpg	100
405.13	1.666	1666.0	generate	Run1	generate/STIM_016.jpg	99
410.574	1.496	1495.7	generate	Run1	generate/STIM_016.jpg	100
415.689	1.24	1240.2	generate	Run1	generate/STIM_016.jpg	100
420.609	1.943	1942.8	generate	Run1	generate/STIM_017.jpg	100
425.239	2.268	2268.1	generate	Run1	generate/STIM_017.jpg	100
429.97	2.356	2355.8	generate	Run1	generate/STIM_017.jpg	99
434.175	2.642	2642.3	generate	Run1	generate/STIM_017.jpg	100
440.467	2.282	2282.0	generate	Run1	generate/STIM_017.jpg	100
444.661	2.545	2545.1	generate	Run1	generate/STIM_018.jpg	100
450.549	2.037	2037.2	generate	Run1	generate/STIM_018.jpg	100
455.03	2.689	2689.1	generate	Run1	generate/STIM_018.jpg	99
459.647	2.187	2187.3	generate	Run1	generate/STIM_018.jpg	100
464.141	2.462	2461.5	generate	Run1	generate/STIM_018.jpg	99
470.369	1.504	1503.5	generate	Run1	generate/STIM_019.jpg	100
474.087	2.94	2939.5	generate	Run1	generate/STIM_019.jpg	99
478.886	2.881	2880.7	generate	Run1	generate/STIM_019.jpg	99
485.029	1.406	1406.5	generate	Run1	generate/STIM_019.jpg	99
490.328	2.412	2412.1	generate	Run1	generate/STIM_019.jpg	100
495.464	1.911	1911.1	generate	Run1	generate/STIM_020.jpg	100
500.362	2.299	2299.1	generate	Run1	generate/STIM_020.jpg	99
506.14	2.018	2017.9	generate	Run1	generate/STIM_020.jpg	100
510.743	1.497	1496.8	generate	Run1	generate/STIM_020.jpg	99
515.69	1.06	1059.6	generate	Run1	generate/STIM_020.jpg	99
519.762	1.952	1951.9	generate	Run1	generate/STIM_021.jpg	100
524.44	3.051	3050.7	generate	Run1	generate/STIM_021.jpg	99
530.612	1.209	1209.4	generate	Run1	generate/STIM_021.jpg	99
534.43	1.735	1734.8	generate	Run1	generate/STIM_021.jpg	99
539.254	1.915	1914.7	generate	Run1	generate/STIM_021.jpg	99
544.618	2.044	2043.9	generate	Run1	generate/STIM_022.jpg	100
549.338	1.602	1602.4	generate	Run1	generate/STIM_022.jpg	100
553.944	1.784	1783.6	generate	Run1	generate/STIM_022.jpg	100
558.663	1.504	1504.0	generate	Run1	generate/STIM_022.jpg	100
562.53	1.064	1063.6	generate	Run1	generate/STIM_022.jpg	100
566.686	1.797	1797.0	generate	Run1	generate/STIM_023.jpg	100
571.116	2.988	2987.5	generate	Run1	generate/STIM_023.jpg	100
576.998	2.876	2875.9	generate	Run1	generate/STIM_023.jpg	99
582.719	1.711	1710.6	generate	Run1	generate/STIM_023.jpg	100
586.556	1.394	1394.5	generate	Run1	generate/STIM_023.jpg	100
591.13	2.292	2292.0	generate	Run1	generate/STIM_024.jpg	99
595.476	2.982	2981.6	generate	Run1	generate/STIM_024.jpg	99
601.703	1.966	1965.7	generate	Run1	generate/STIM_024.jpg	100
607.331	2.263	2263.2	generate	Run1	generate/STIM_024.jpg	100
612.389	2.489	2488.8	generate	Run1	generate/STIM_024.jpg	99
617.311	0.971	971.2	repeat	Run1	repeat/STIM_000.jpg	100
621.798	0.978	978.5	repeat	Run1	repeat/STIM_000.jpg	99
624.743	0.68	680.1	repeat	Run1	repeat/STIM_000.jpg	99
628.167	0.86	860.3	repeat	Run1	repeat/STIM_000.jpg	100
631.499	0.65	650.2	repeat	Run1	repeat/STIM_000.jpg	99
635.587	0.865	865.0	repeat	Run1	repeat/STIM_001.jpg	99
638.803	1.05	1049.8	repeat	Run1	repeat/STIM_001.jpg	99
643.44	0.988	988.4	repeat	Run1	repeat/STIM_001.jpg	100
647.955	0.85	850.2	repeat	Run1	repeat/STIM_001.jpg	100
651.49	0.851	851.0	repeat	Run1	repeat/STIM_001.jpg	99
654.341	0.935	934.8	repeat	Run1	repeat/STIM_002.jpg	100
657.365	0.83	829.5	repeat	Run1	repeat/STIM_002.jpg	100
660.374	1.034	1033.9	repeat	Run1	repeat/STIM_002.jpg	99
663.432	0.751	751.3	repeat	Run1	repeat/STIM_002.jpg	99
667.274	1.014	1014.5	repeat	Run1	repeat/STIM_002.jpg	99
670.264	0.839	839.1	repeat	Run1	repeat/STIM_003.jpg	99
674.712	0.842	841.6	repeat	Run1	repeat/STIM_003.jpg	99
679.446	0.674	674.3	repeat	Run1	repeat/STIM_003.jpg	99
684.023	1.077	1076.7	repeat	Run1	repeat/STIM_003.jpg	99
687.654	1.074	1073.9	repeat	Run1	repeat/STIM_003.jpg	99
692.575	0.895	894.6	repeat	Run1	repeat/STIM_004.jpg	99
696.096	1.062	1062.5	repeat	Run1	repeat/STIM_004.jpg	100
699.519	0.778	778.5	repeat	Run1	repeat/STIM_004.jpg	99
704.161	0.875	875.2	repeat	Run1	repeat/STIM_004.jpg	100
707.699	0.814	814.5	repeat	Run1	repeat/STIM_004.jpg	100
711.69	0.558	558.5	repeat	Run1	repeat/STIM_005.jpg	99
715.567	1.058	1058.4	repeat	Run1	repeat/STIM_005.jpg	99
719.018	0.657	657.4	repeat	Run1	repeat/STIM_005.jpg	99
722.852	0.67	669.5	repeat	Run1	repeat/STIM_005.jpg	99
727.275	0.856	856.0	repeat	Run1	repeat/STIM_005.jpg	99
731.783	0.75	750.0	repeat	Run1	repeat/STIM_006.jpg	100
736.39	0.656	656.2	repeat	Run1	repeat/STIM_006.jpg	99
740.492	0.937	936.9	repeat	Run1	repeat/STIM_006.jpg	100
744.827	0.571	571.4	repeat	Run1	repeat/STIM_006.jpg	100
748.098	0.816	816.2	repeat	Run1	repeat/STIM_006.jpg	99
751.38	0.547	546.8	repeat	Run1	repeat/STIM_007.jpg	100
755.329	0.819	819.2	repeat	Run1	repeat/STIM_007.jpg	100
758.191	0.625	624.8	repeat	Run1	repeat/STIM_007.jpg	99
762.626	0.858	858.5	repeat	Run1	repeat/STIM_007.jpg	100
767.143	0.921	921.1	repeat	Run1	repeat/STIM_007.jpg	99
770.543	0.764	763.8	repeat	Run1	repeat/STIM_008.jpg	100
774.032	0.608	607.9	repeat	Run1	repeat/STIM_008.jpg	99
776.936	0.892	892.4	repeat	Run1	repeat/STIM_008.jpg	99
781.164	0.662	661.5	repeat	Run1	repeat/STIM_008.jpg	100
784.104	1.045	1044.8	repeat	Run1	repeat/STIM_008.jpg	100
787.61	0.828	828.3	repeat	Run1	repeat/STIM_009.jpg	99
791.746	1.035	1035.3	repeat	Run1	repeat/STIM_009.jpg	100
796.222	0.848	847.9	repeat	Run1	repeat/STIM_009.jpg	100
800.808	0.695	695.1	repeat	Run1	repeat/STIM_009.jpg	99
804.966	0.911	910.6	repeat	Run1	repeat/STIM_009.jpg	100
809.404	0.982	982.1	repeat	Run1	repeat/STIM_010.jpg	99
813.682	0.563	562.7	repeat	Run1	repeat/STIM_010.jpg	100
818.02	1.064	1064.4	repeat	Run1	repeat/STIM_010.jpg	99
822.687	0.628	628.5	repeat	Run1	repeat/STIM_010.jpg	100
826.919	1.06	1059.9	repeat	Run1	repeat/STIM_010.jpg	100
830.073	0.697	696.6	repeat	Run1	repeat/STIM_011.jpg	99
833.523	0.95	949.8	repeat	Run1	repeat/STIM_011.jpg	100
838.05	0.832	832.4	repeat	Run1	repeat/STIM_011.jpg	100
842.156	1.037	1037.3	repeat	Run1	repeat/STIM_011.jpg	100
846.993	0.546	546.2	repeat	Run1	repeat/STIM_011.jpg	100
851.111	0.776	776.5	repeat	Run1	repeat/STIM_012.jpg	100
855.036	0.557	557.3	repeat	Run1	repeat/STIM_012.jpg	100
858.599	0.842	841.8	repeat	Run1	repeat/STIM_012.jpg	99
862.778	0.566	565.6	repeat	Run1	repeat/STIM_012.jpg	99
865.651	0.923	922.6	repeat	Run1	repeat/STIM_012.jpg	100
869.68	0.887	887.1	repeat	Run1	repeat/STIM_013.jpg	100
873.183	0.71	710.5	repeat	Run1	repeat/STIM_013.jpg	99
877.333	0.799	799.3	repeat	Run1	repeat/STIM_013.jpg	100
881.219	0.608	607.9	repeat	Run1	repeat/STIM_013.jpg	100
885.42	0.872	871.9	repeat	Run1	repeat/STIM_013.jpg	100
889.096	0.694	693.6	repeat	Run1	repeat/STIM_014.jpg	99
893.499	0.59	590.4	repeat	Run1	repeat/STIM_014.jpg	99
896.771	0.772	772.2	repeat	Run1	repeat/STIM_014.jpg	100
901.265	0.932	932.5	repeat	Run1	repeat/STIM_014.jpg	99
904.377	0.83	830.0	repeat	Run1	repeat/STIM_014.jpg	99
908.607	1.198	1198.2	generate	Run2	generate/STIM_000.jpg	99
913.184	2.422	2422.3	generate	Run2	generate/STIM_000.jpg	99
918.469	1.654	1654.0	generate	Run2	generate/STIM_000.jpg	100
922.915	1.742	1741.6	generate	Run2	generate/STIM_000.jpg	100
926.771	1.333	1333.4	generate	Run2	generate/STIM_000.jpg	100
930.643	1.445	1445.1	generate	Run2	generate/STIM_001.jpg	100
934.555	2.529	2528.9	generate	Run2	generate/STIM_001.jpg	100
940.369	1.912	1912.2	generate	Run2	generate/STIM_001.jpg	100
946.027	0.914	914.1	generate	Run2	generate/STIM_001.jpg	99
949.758	2.173	2173.4	generate	Run2	generate/STIM_001.jpg	100
955.322	2.123	2123.3	generate	Run2	generate/STIM_002.jpg	99
961.006	2.522	2522.2	generate	Run2	generate/STIM_002.jpg	100
966.953	1.954	1954.1	generate	Run2	generate/STIM_002.jpg	100
971.867	1.578	1578.4	generate	Run2	generate/STIM_002.jpg	100
976.611	1.675	1675.1	generate	Run2	generate/STIM_002.jpg	99
981.745	2.027	2027.1	generate	Run2	generate/STIM_003.jpg	99
986.646	1.094	1093.7	generate	Run2	generate/STIM_003.jpg	99
989.875	2.157	2157.2	generate	Run2	generate/STIM_003.jpg	99
995.085	1.958	1958.2	generate	Run2	generate/STIM_003.jpg	99
999.674	1.869	1869.0	generate	Run2	generate/STIM_003.jpg	100
1004.32	1.851	1851.0	generate	Run2	generate/STIM_004.jpg	99
1008.672	1.424	1423.5	generate	Run2	generate/STIM_004.jpg	100
1013.942	2.11	2109.5	generate	Run2	generate/STIM_004.jpg	99
1018.726	1.696	1696.0	generate	Run2	generate/STIM_004.jpg	100
1024.021	1.784	1783.7	generate	Run2	generate/STIM_004.jpg	99
1027.833	1.685	1685.4	generate	Run2	generate/STIM_005.jpg	100
1032.379	2.166	2165.6	generate	Run2	generate/STIM_005.jpg	99
1038.243	1.883	1883.1	generate	Run2	generate/STIM_005.jpg	99
1043.85	1.627	1626.9	generate	Run2	generate/STIM_005.jpg	99
1048.47	2.255	2255.1	generate	Run2	generate/STIM_005.jpg	100
1052.917	2.586	2586.1	generate	Run2	generate/STIM_006.jpg	100
1058.471	2.045	2044.9	generate	Run2	generate/STIM_006.jpg	99
1064.103	2.006	2006.3	generate	Run2	generate/STIM_006.jpg	100
1068.477	1.019	1018.7	generate	Run2	generate/STIM_006.jpg	100
1073.317	2.207	2207.0	generate	Run2	generate/STIM_006.jpg	99
1079.156	1.152	1152.3	generate	Run2	generate/STIM_007.jpg	100
1082.235	2.556	2555.7	generate	Run2	generate/STIM_007.jpg	99
1087.871	2.278	2278.3	generate	Run2	generate/STIM_007.jpg	99
1093.186	1.331	1330.6	generate	Run2	generate/STIM_007.jpg	100
1097.588	1.615	1615.1	generate	Run2	generate/STIM_007.jpg	99
1101.518	2.524	2524.4	generate	Run2	generate/STIM_008.jpg	99
1106.234	1.036	1035.8	generate	Run2	generate/STIM_008.jpg	99
1109.909	1.066	1066.4	generate	Run2	generate/STIM_008.jpg	100
1114.676	2.012	2011.6	generate	Run2	generate/STIM_008.jpg	100
1118.911	1.33	1330.2	generate	Run2	generate/STIM_008.jpg	100
1122.463	1.399	1398.8	generate	Run2	generate/STIM_009.jpg	100
1127.75	1.315	1315.0	generate	Run2	generate/STIM_009.jpg	99
1131.242	2.034	2033.9	generate	Run2	generate/STIM_009.jpg	100
1136.589	1.089	1088.9	generate	Run2	generate/STIM_009.jpg	100
1140.144	2.245	2245.1	generate	Run2	generate/STIM_009.jpg	100
1145.474	1.269	1268.9	generate	Run2	generate/STIM_010.jpg	100
1149.445	1.987	1986.7	generate	Run2	generate/STIM_010.jpg	100
1154.76	1.908	1908.0	generate	Run2	generate/STIM_010.jpg	100
1158.689	1.801	1800.9	generate	Run2	generate/STIM_010.jpg	99
1163.952	1.108	1107.7	generate	Run2	generate/STIM_010.jpg	99
1167.136	1.114	1114.3	generate	Run2	generate/STIM_011.jpg	99
1170.58	1.162	1161.9	generate	Run2	generate/STIM_011.jpg	99
1175.194	1.857	1856.9	generate	Run2	generate/STIM_011.jpg	100
1180.589	1.3	1299.6	generate	Run2	generate/STIM_011.jpg	99
1183.804	2.03	2030.0	generate	Run2	generate/STIM_011.jpg	99
1189.074	1.368	1368.2	generate	Run2	generate/STIM_012.jpg	100
1194.149	2.487	2486.8	generate	Run2	generate/STIM_012.jpg	99
1199.762	1.863	1863.4	generate	Run2	generate/STIM_012.jpg	100
1205.279	1.785	1784.8	generate	Run2	generate/STIM_012.jpg	100
1209.393	1.703	1703.1	generate	Run2	generate/STIM_012.jpg	100
1214.927	1.623	1622.7	generate	Run2	generate/STIM_013.jpg	99
1219.872	1.617	1617.4	generate	Run2	generate/STIM_013.jpg	99
1224.643	1.536	1536.4	generate	Run2	generate/STIM_013.jpg	100
1229.22	1.267	1266.9	generate	Run2	generate/STIM_013.jpg	100
1234.096	1.474	1474.1	generate	Run2	generate/STIM_013.jpg	100
1237.636	1.423	1422.7	generate	Run2	generate/STIM_014.jpg	100
1241.4	2.258	2258.5	generate	Run2	generate/STIM_014.jpg	100
1246.177	1.147	1147.1	generate	Run2	generate/STIM_014.jpg	100
1250.36	1.243	1242.7	generate	Run2	generate/STIM_014.jpg	99
1255.261	1.63	1629.5	generate	Run2	generate/STIM_014.jpg	99
1259.339	1.681	1681.3	generate	Run2	generate/STIM_015.jpg	99
1263.594	2.381	2381.1	generate	Run2	generate/STIM_015.jpg	99
1269.476	1.764	1763.7	generate	Run2	generate/STIM_015.jpg	99
1274.46	1.683	1683.4	generate	Run2	generate/STIM_015.jpg	100
1279.591	1.762	1762.0	generate	Run2	generate/STIM_015.jpg	99
1284.254	1.752	1751.7	generate	Run2	generate/STIM_016.jpg	99
1288.35	1.842	1841.8	generate	Run2	generate/STIM_016.jpg	100
1293.669	2.263	2263.2	generate	Run2	generate/STIM_016.jpg	100
1298.567	0.965	964.6	generate	Run2	generate/STIM_016.jpg	100
1302.103	1.352	1351.7	generate	Run2	generate/STIM_016.jpg	99
1306.033	1.39	1389.9	generate	Run2	generate/STIM_017.jpg	100
1310.575	1.506	1506.4	generate	Run2	generate/STIM_017.jpg	100
1314.445	1.165	1165.2	generate	Run2	generate/STIM_017.jpg	100
1318.673	0.979	978.9	generate	Run2	generate/STIM_017.jpg	99
1322.485	1.63	1629.9	generate	Run2	generate/STIM_017.jpg	100
1327.029	1.181	1181.4	generate	Run2	generate/STIM_018.jpg	99
1331.643	1.255	1255.2	generate	Run2	generate/STIM_018.jpg	99
1335.25	0.982	981.6	generate	Run2	generate/STIM_018.jpg	100
1338.285	1.37	1369.7	generate	Run2	generate/STIM_018.jpg	99
1342.677	1.217	1217.3	generate	Run2	generate/STIM_018.jpg	100
1347.154	2.015	2014.9	generate	Run2	generate/STIM_019.jpg	100
1351.194	1.731	1730.8	generate	Run2	generate/STIM_019.jpg	99
1356.682	1.127	1127.0	generate	Run2	generate/STIM_019.jpg	100
1359.741	1.436	1436.5	generate	Run2	generate/STIM_019.jpg	99
1364.079	2.172	2171.8	generate	Run2	generate/STIM_019.jpg	100
1369.558	1.59	1589.9	generate	Run2	generate/STIM_020.jpg	100
1373.237	2.28	2280.0	generate	Run2	generate/STIM_020.jpg	100
1377.794	1.517	1516.7	generate	Run2	generate/STIM_020.jpg	99
1382.366	1.851	1851.3	generate	Run2	generate/STIM_020.jpg	99
1387.744	1.749	1749.0	generate	Run2	generate/STIM_020.jpg	99
1391.498	2.399	2398.9	generate	Run2	generate/STIM_021.jpg	99
1396.903	2.451	2450.6	generate	Run2	generate/STIM_021.jpg	99
1402.283	2.07	2069.9	generate	Run2	generate/STIM_021.jpg	99
1406.351	1.342	1341.7	generate	Run2	generate/STIM_021.jpg	100
1411.247	1.67	1670.5	generate	Run2	generate/STIM_021.jpg	99
1416.38	1.627	1626.8	generate	Run2	generate/STIM_022.jpg	100
1420.089	1.651	1650.8	generate	Run2	generate/STIM_022.jpg	100
1424.72	1.649	1649.1	generate	Run2	generate/STIM_022.jpg	100
1430.017	2.086	2086.1	generate	Run2	generate/STIM_022.jpg	99
1434.221	0.96	960.4	generate	Run2	generate/STIM_022.jpg	99
1439.017	1.85	1850.4	generate	Run2	generate/STIM_023.jpg	99
1443.394	2.489	2488.7	generate	Run2	generate/STIM_023.jpg	99
1448.618	1.617	1616.8	generate	Run2	generate/STIM_023.jpg	100
1453.374	1.808	1808.1	generate	Run2	generate/STIM_023.jpg	100
1457.763	1.002	1001.6	generate	Run2	generate/STIM_023.jpg	100
1462.377	2.26	2260.2	generate	Run2	generate/STIM_024.jpg	100
1467.789	2.283	2282.6	generate	Run2	generate/STIM_024.jpg	99
1473.135	1.361	1361.1	generate	Run2	generate/STIM_024.jpg	99
1477.631	1.777	1776.9	generate	Run2	generate/STIM_024.jpg	99
1482.596	1.483	1482.8	generate	Run2	generate/STIM_024.jpg	99
1487.676	0.778	778.1	repeat	Run2	repeat/STIM_000.jpg	100
1490.85	0.775	775.3	repeat	Run2	repeat/STIM_000.jpg	99
1494.025	0.585	585.0	repeat	Run2	repeat/STIM_000.jpg	99
1498.203	0.566	566.4	repeat	Run2	repeat/STIM_000.jpg	100
1502.034	0.578	578.3	repeat	Run2	repeat/STIM_000.jpg	100
1505.037	1.002	1002.3	repeat	Run2	repeat/STIM_001.jpg	99
1508.533	1.012	1011.7	repeat	Run2	repeat/STIM_001.jpg	100
1512.911	0.985	984.9	repeat	Run2	repeat/STIM_001.jpg	99
1516.431	0.906	905.9	repeat	Run2	repeat/STIM_001.jpg	100
1519.674	0.767	766.8	repeat	Run2	repeat/STIM_001.jpg	100
1523.075	0.825	825.0	repeat	Run2	repeat/STIM_002.jpg	99
1527.192	0.736	735.5	repeat	Run2	repeat/STIM_002.jpg	100
1530.92	0.575	574.9	repeat	Run2	repeat/STIM_002.jpg	99
1534.15	0.694	694.2	repeat	Run2	repeat/STIM_002.jpg	99
1537.198	0.943	942.7	repeat	Run2	repeat/STIM_002.jpg	99
1540.255	0.823	823.4	repeat	Run2	repeat/STIM_003.jpg	100
1543.062	0.881	881.0	repeat	Run2	repeat/STIM_003.jpg	99
1546.629	0.572	572.3	repeat	Run2	repeat/STIM_003.jpg	99
1550.255	0.753	753.4	repeat	Run2	repeat/STIM_003.jpg	100
1552.964	0.717	716.6	repeat	Run2	repeat/STIM_003.jpg	100
1555.946	1.018	1017.6	repeat	Run2	repeat/STIM_004.jpg	100
1559.129	1.033	1033.3	repeat	Run2	repeat/STIM_004.jpg	100
1562.365	0.917	917.1	repeat	Run2	repeat/STIM_004.jpg	99
1565.899	1.005	1005.3	repeat	Run2	repeat/STIM_004.jpg	99
1569.339	0.939	939.3	repeat	Run2	repeat/STIM_004.jpg	99
1573.152	0.791	790.9	repeat	Run2	repeat/STIM_005.jpg	99
1577.865	1.016	1016.5	repeat	Run2	repeat/STIM_005.jpg	99
1581.374	0.882	881.5	repeat	Run2	repeat/STIM_005.jpg	100
1585.523	0.764	764.0	repeat	Run2	repeat/STIM_005.jpg	100
1589.411	0.653	652.7	repeat	Run2	repeat/STIM_005.jpg	100
1593.277	0.821	820.8	repeat	Run2	repeat/STIM_006.jpg	100
1596.222	0.859	858.6	repeat	Run2	repeat/STIM_006.jpg	99
1599.272	0.776	776.2	repeat	Run2	repeat/STIM_006.jpg	100
1603.08	0.649	649.2	repeat	Run2	repeat/STIM_006.jpg	99
1607.337	0.629	628.7	repeat	Run2	repeat/STIM_006.jpg	99
1610.053	0.778	778.0	repeat	Run2	repeat/STIM_007.jpg	100
1612.845	0.653	652.6	repeat	Run2	repeat/STIM_007.jpg	100
1616.007	0.918	918.0	repeat	Run2	repeat/STIM_007.jpg	100
1620.646	0.974	973.6	repeat	Run2	repeat/STIM_007.jpg	100
1623.759	0.626	626.3	repeat	Run2	repeat/STIM_007.jpg	100
1626.999	0.984	984.5	repeat	Run2	repeat/STIM_008.jpg	100
1630.989	0.812	811.8	repeat	Run2	repeat/STIM_008.jpg	100
1633.952	0.861	860.7	repeat	Run2	repeat/STIM_008.jpg	100
1638.042	0.819	819.1	repeat	Run2	repeat/STIM_008.jpg	100
1640.88	0.594	594.4	repeat	Run2	repeat/STIM_008.jpg	100
1644.363	0.761	761.1	repeat	Run2	repeat/STIM_009.jpg	100
1648.405	1.067	1067.4	repeat	Run2	repeat/STIM_009.jpg	100
1652.437	1.076	1076.3	repeat	Run2	repeat/STIM_009.jpg	100
1656.729	0.818	818.0	repeat	Run2	repeat/STIM_009.jpg	99
1661.308	0.716	715.9	repeat	Run2	repeat/STIM_009.jpg	100
1664.442	0.761	761.2	repeat	Run2	repeat/STIM_010.jpg	99
1668.285	1.034	1033.5	repeat	Run2	repeat/STIM_010.jpg	99
1673.132	0.775	774.7	repeat	Run2	repeat/STIM_010.jpg	100
1676.798	0.922	922.4	repeat	Run2	repeat/STIM_010.jpg	99
1680.732	1.036	1036.0	repeat	Run2	repeat/STIM_010.jpg	100
1684.412	0.601	600.6	repeat	Run2	repeat/STIM_011.jpg	100
1688.304	0.687	687.2	repeat	Run2	repeat/STIM_011.jpg	99
1692.913	0.773	773.3	repeat	Run2	repeat/STIM_011.jpg	100
1697.061	0.74	739.5	repeat	Run2	repeat/STIM_011.jpg	100
1701.302	0.646	646.2	repeat	Run2	repeat/STIM_011.jpg	100
1705.12	0.629	629.2	repeat	Run2	repeat/STIM_012.jpg	100
1709.018	0.914	914.2	repeat	Run2	repeat/STIM_012.jpg	99
1713.737	0.853	853.3	repeat	Run2	repeat/STIM_012.jpg	99
1716.916	1.048	1047.9	repeat	Run2	repeat/STIM_012.jpg	100
1721.328	0.8	800.0	repeat	Run2	repeat/STIM_012.jpg	99
1724.887	0.617	616.8	repeat	Run2	repeat/STIM_013.jpg	99
1728.35	1.076	1076.2	repeat	Run2	repeat/STIM_013.jpg	99
1733.284	0.96	959.8	repeat	Run2	repeat/STIM_013.jpg	100
1738.08	1.042	1042.2	repeat	Run2	repeat/STIM_013.jpg	99
1742.609	0.606	606.4	repeat	Run2	repeat/STIM_013.jpg	99
1746.725	1.07	1070.3	repeat	Run2	repeat/STIM_014.jpg	99
1750.601	0.638	637.9	repeat	Run2	repeat/STIM_014.jpg	99
1755.027	0.586	585.5	repeat	Run2	repeat/STIM_014.jpg	100
1759.115	0.547	547.3	repeat	Run2	repeat/STIM_014.jpg	99
1763.329	0.582	582.2	repeat	Run2	repeat/STIM_014.jpg	100
1767.797	1.0	999.6	generate	Run3	generate/STIM_000.jpg	99
1771.632	1.274	1274.3	generate	Run3	generate/STIM_000.jpg	100
1776.342	1.22	1219.8	generate	Run3	generate/STIM_000.jpg	100
1780.126	1.224	1223.5	generate	Run3	generate/STIM_000.jpg	99
1783.415	2.029	2028.5	generate	Run3	generate/STIM_000.jpg	99
1788.868	1.347	1346.6	generate	Run3	generate/STIM_001.jpg	99
1793.712	1.521	1520.8	generate	Run3	generate/STIM_001.jpg	99
1798.032	1.736	1736.4	generate	Run3	generate/STIM_001.jpg	100
1803.263	1.759	1758.9	generate	Run3	generate/STIM_001.jpg	100
1808.417	1.961	1961.2	generate	Run3	generate/STIM_001.jpg	100
1812.255	1.269	1268.9	generate	Run3	generate/STIM_002.jpg	100
1815.792	1.269	1269.1	generate	Run3	generate/STIM_002.jpg	100
1819.527	2.104	2103.6	generate	Run3	generate/STIM_002.jpg	100
1825.18	1.762	1761.6	generate	Run3	generate/STIM_002.jpg	100
1829.82	1.435	1435.3	generate	Run3	generate/STIM_002.jpg	100
1833.737	1.759	1758.8	generate	Run3	generate/STIM_003.jpg	100
1839.098	0.985	984.6	generate	Run3	generate/STIM_003.jpg	99
1842.422	1.944	1944.1	generate	Run3	generate/STIM_003.jpg	100
1847.132	1.381	1381.3	generate	Run3	generate/STIM_003.jpg	100
1852.074	1.497	1496.7	generate	Run3	generate/STIM_003.jpg	99
1857.423	1.337	1336.8	generate	Run3	generate/STIM_004.jpg	99
1861.851	1.005	1004.9	generate	Run3	generate/STIM_004.jpg	100
1865.477	1.965	1964.9	generate	Run3	generate/STIM_004.jpg	100
1870.449	2.182	2181.6	generate	Run3	generate/STIM_004.jpg	100
1875.848	1.8	1800.1	generate	Run3	generate/STIM_004.jpg	99
1879.929	1.274	1274.0	generate	Run3	generate/STIM_005.jpg	100
1884.502	2.185	2184.6	generate	Run3	generate/STIM_005.jpg	100
1889.447	0.925	924.9	generate	Run3	generate/STIM_005.jpg	100
1892.975	1.169	1168.8	generate	Run3	generate/STIM_005.jpg	99
1897.42	2.053	2052.9	generate	Run3	generate/STIM_005.jpg	99
1901.848	1.853	1852.8	generate	Run3	generate/STIM_006.jpg	99
1905.701	1.757	1757.3	generate	Run3	generate/STIM_006.jpg	99
1910.901	0.991	991.2	generate	Run3	generate/STIM_006.jpg	99
1914.77	1.663	1663.0	generate	Run3	generate/STIM_006.jpg	99
1919.919	1.802	1801.5	generate	Run3	generate/STIM_006.jpg	100
1925.473	2.078	2078.1	generate	Run3	generate/STIM_007.jpg	99
1930.708	1.915	1915.2	generate	Run3	generate/STIM_007.jpg	99
1936.102	1.82	1819.7	generate	Run3	generate/STIM_007.jpg	99
1940.844	1.453	1453.3	generate	Run3	generate/STIM_007.jpg	99
1944.597	1.88	1879.6	generate	Run3	generate/STIM_007.jpg	100
1950.031	1.877	1877.0	generate	Run3	generate/STIM_008.jpg	100
1955.223	1.793	1792.9	generate	Run3	generate/STIM_008.jpg	99
1960.315	0.951	951.0	generate	Run3	generate/STIM_008.jpg	100
1964.899	1.788	1787.9	generate	Run3	generate/STIM_008.jpg	99
1969.617	1.192	1192.1	generate	Run3	generate/STIM_008.jpg	99
1974.47	1.857	1857.4	generate	Run3	generate/STIM_009.jpg	99
1979.863	1.934	1934.4	generate	Run3	generate/STIM_009.jpg	99
1985.55	2.076	2076.1	generate	Run3	generate/STIM_009.jpg	100
1989.666	2.196	2196.4	generate	Run3	generate/STIM_009.jpg	100
1995.644	1.405	1405.3	generate	Run3	generate/STIM_009.jpg	99
1999.435	1.815	1815.0	generate	Run3	generate/STIM_010.jpg	100
2004.178	2.162	2161.5	generate	Run3	generate/STIM_010.jpg	100
2008.969	1.298	1298.1	generate	Run3	generate/STIM_010.jpg	100
2013.176	1.738	1738.3	generate	Run3	generate/STIM_010.jpg	99
2017.893	2.094	2094.1	generate	Run3	generate/STIM_010.jpg	100
2023.361	1.604	1604.3	generate	Run3	generate/STIM_011.jpg	99
2027.824	1.251	1251.4	generate	Run3	generate/STIM_011.jpg	99
2031.133	1.81	1810.5	generate	Run3	generate/STIM_011.jpg	100
2036.645	1.704	1704.3	generate	Run3	generate/STIM_011.jpg	100
2041.37	2.229	2229.2	generate	Run3	generate/STIM_011.jpg	100
2046.022	1.374	1373.9	generate	Run3	generate/STIM_012.jpg	100
2050.791	1.021	1020.6	generate	Run3	generate/STIM_012.jpg	99
2054.614	2.094	2094.2	generate	Run3	generate/STIM_012.jpg	100
2059.786	1.96	1959.7	generate	Run3	generate/STIM_012.jpg	100
2063.65	2.254	2254.4	generate	Run3	generate/STIM_012.jpg	99
2068.634	1.605	1604.9	generate	Run3	generate/STIM_013.jpg	100
2072.989	1.822	1822.0	generate	Run3	generate/STIM_013.jpg	99
2076.806	1.529	1528.7	generate	Run3	generate/STIM_013.jpg	99
2082.112	1.719	1718.6	generate	Run3	generate/STIM_013.jpg	99
2087.167	1.173	1173.4	generate	Run3	generate/STIM_013.jpg	100
2090.912	1.172	1171.8	generate	Run3	generate/STIM_014.jpg	100
2094.413	1.58	1580.3	generate	Run3	generate/STIM_014.jpg	100
2098.315	2.074	2073.6	generate	Run3	generate/STIM_014.jpg	100
2104.004	1.832	1831.8	generate	Run3	generate/STIM_014.jpg	99
2108.839	1.491	1491.1	generate	Run3	generate/STIM_014.jpg	99
2113.892	1.787	1786.9	generate	Run3	generate/STIM_015.jpg	100
2118.76	1.996	1995.8	generate	Run3	generate/STIM_015.jpg	99
2123.23	1.836	1836.2	generate	Run3	generate/STIM_015.jpg	99
2128.598	2.144	2143.6	generate	Run3	generate/STIM_015.jpg	100
2134.368	1.195	1194.9	generate	Run3	generate/STIM_015.jpg	100
2137.785	1.733	1732.9	generate	Run3	generate/STIM_016.jpg	99
2142.056	2.125	2125.2	generate	Run3	generate/STIM_016.jpg	99
2146.587	1.285	1285.0	generate	Run3	generate/STIM_016.jpg	99
2151.748	1.019	1018.6	generate	Run3	generate/STIM_016.jpg	100
2154.903	2.14	2139.6	generate	Run3	generate/STIM_016.jpg	100
2159.176	1.703	1702.6	generate	Run3	generate/STIM_017.jpg	99
2163.918	1.971	1971.0	generate	Run3	generate/STIM_017.jpg	99
2168.113	1.463	1462.7	generate	Run3	generate/STIM_017.jpg	100
2172.989	1.905	1904.7	generate	Run3	generate/STIM_017.jpg	99
2176.82	1.228	1227.6	generate	Run3	generate/STIM_017.jpg	99
2180.248	1.971	1970.7	generate	Run3	generate/STIM_018.jpg	100
2185.828	2.077	2077.0	generate	Run3	generate/STIM_018.jpg	100
2190.885	1.58	1579.6	generate	Run3	generate/STIM_018.jpg	100
2194.461	2.191	2191.4	generate	Run3	generate/STIM_018.jpg	99
2200.352	1.955	1954.7	generate	Run3	generate/STIM_018.jpg	99
2204.55	1.362	1362.3	generate	Run3	generate/STIM_019.jpg	99
2208.284	2.098	2097.7	generate	Run3	generate/STIM_019.jpg	100
2212.353	1.689	1688.7	generate	Run3	generate/STIM_019.jpg	99
2217.119	0.993	992.9	generate	Run3	generate/STIM_019.jpg	100
2221.725	1.453	1453.4	generate	Run3	generate/STIM_019.jpg	99
2226.207	1.466	1465.6	generate	Run3	generate/STIM_020.jpg	100
2230.974	1.004	1003.6	generate	Run3	generate/STIM_020.jpg	99
2235.355	2.131	2131.2	generate	Run3	generate/STIM_020.jpg	99
2240.271	2.181	2180.9	generate	Run3	generate/STIM_020.jpg	99
2244.577	2.186	2185.7	generate	Run3	generate/STIM_020.jpg	99
2250.603	1.91	1910.3	generate	Run3	generate/STIM_021.jpg	100
2255.553	1.555	1555.4	generate	Run3	generate/STIM_021.jpg	99
2260.983	2.03	2030.3	generate	Run3	generate/STIM_021.jpg	99
2266.212	1.196	1196.1	generate	Run3	generate/STIM_021.jpg	100
2269.717	1.467	1467.4	generate	Run3	generate/STIM_021.jpg	99
2274.348	1.974	1974.2	generate	Run3	generate/STIM_022.jpg	100
2278.34	1.944	1944.2	generate	Run3	generate/STIM_022.jpg	100
2283.369	1.843	1843.3	generate	Run3	generate/STIM_022.jpg	99
2287.75	1.584	1584.1	generate	Run3	generate/STIM_022.jpg	100
2293.156	1.118	1117.9	generate	Run3	generate/STIM_022.jpg	99
2297.464	0.994	993.8	generate	Run3	generate/STIM_023.jpg	100
2301.474	1.858	1857.6	generate	Run3	generate/STIM_023.jpg	100
2305.366	1.166	1166.2	generate	Run3	generate/STIM_023.jpg	100
2308.507	2.126	2126.4	generate	Run3	generate/STIM_023.jpg	100
2314.229	1.447	1446.9	generate	Run3	generate/STIM_023.jpg	100
2318.664	2.047	2047.2	generate	Run3	generate/STIM_024.jpg	99
2323.792	1.074	1073.5	generate	Run3	generate/STIM_024.jpg	100
2328.643	1.657	1657.2	generate	Run3	generate/STIM_024.jpg	100
2334.152	1.414	1414.1	generate	Run3	generate/STIM_024.jpg	100
2338.1	2.2	2200.4	generate	Run3	generate/STIM_024.jpg	99
2342.275	0.65	650.5	repeat	Run3	repeat/STIM_000.jpg	99
2346.543	1.02	1019.6	repeat	Run3	repeat/STIM_000.jpg	100
2351.26	1.035	1034.6	repeat	Run3	repeat/STIM_000.jpg	99
2355.166	0.928	927.5	repeat	Run3	repeat/STIM_000.jpg	99
2358.968	1.034	1034.1	repeat	Run3	repeat/STIM_000.jpg	100
2363.539	0.75	750.0	repeat	Run3	repeat/STIM_001.jpg	100
2367.122	0.941	941.4	repeat	Run3	repeat/STIM_001.jpg	99
2370.877	0.549	548.6	repeat	Run3	repeat/STIM_001.jpg	99
2375.053	1.032	1031.6	repeat	Run3	repeat/STIM_001.jpg	100
2378.569	0.79	790.5	repeat	Run3	repeat/STIM_001.jpg	99
2382.337	1.042	1041.7	repeat	Run3	repeat/STIM_002.jpg	99
2386.652	0.642	642.1	repeat	Run3	repeat/STIM_002.jpg	100
2389.343	0.761	760.7	repeat	Run3	repeat/STIM_002.jpg	99
2393.67	0.682	682.0	repeat	Run3	repeat/STIM_002.jpg	100
2397.941	1.038	1038.3	repeat	Run3	repeat/STIM_002.jpg	100
2401.797	0.797	797.0	repeat	Run3	repeat/STIM_003.jpg	99
2404.712	1.072	1072.3	repeat	Run3	repeat/STIM_003.jpg	100
2408.829	0.609	608.9	repeat	Run3	repeat/STIM_003.jpg	99
2411.685	0.902	901.7	repeat	Run3	repeat/STIM_003.jpg	99
2415.164	0.914	914.2	repeat	Run3	repeat/STIM_003.jpg	100
2418.849	0.853	852.7	repeat	Run3	repeat/STIM_004.jpg	100
2421.879	0.962	962.2	repeat	Run3	repeat/STIM_004.jpg	100
2424.944	0.845	845.4	repeat	Run3	repeat/STIM_004.jpg	99
2428.106	0.986	986.3	repeat	Run3	repeat/STIM_004.jpg	99
2432.351	1.066	1065.6	repeat	Run3	repeat/STIM_004.jpg	99
2435.517	0.558	557.6	repeat	Run3	repeat/STIM_005.jpg	99
2438.326	0.715	715.4	repeat	Run3	repeat/STIM_005.jpg	99
2441.208	0.599	598.7	repeat	Run3	repeat/STIM_005.jpg	99
2445.632	0.784	783.8	repeat	Run3	repeat/STIM_005.jpg	99
2448.606	0.886	886.2	repeat	Run3	repeat/STIM_005.jpg	100
2451.774	0.68	680.3	repeat	Run3	repeat/STIM_006.jpg	100
2455.372	1.041	1041.0	repeat	Run3	repeat/STIM_006.jpg	100
2458.678	0.609	608.9	repeat	Run3	repeat/STIM_006.jpg	99
2462.039	0.651	650.9	repeat	Run3	repeat/STIM_006.jpg	100
2465.11	0.851	851.0	repeat	Run3	repeat/STIM_006.jpg	99
2468.307	0.654	654.5	repeat	Run3	repeat/STIM_007.jpg	99
2471.397	0.614	613.7	repeat	Run3	repeat/STIM_007.jpg	99
2474.932	0.731	731.2	repeat	Run3	repeat/STIM_007.jpg	100
2478.857	0.975	975.0	repeat	Run3	repeat/STIM_007.jpg	99
2483.474	0.729	729.1	repeat	Run3	repeat/STIM_007.jpg	100
2487.541	0.902	902.2	repeat	Run3	repeat/STIM_008.jpg	100
2490.838	0.656	656.5	repeat	Run3	repeat/STIM_008.jpg	100
2494.394	1.032	1032.3	repeat	Run3	repeat/STIM_008.jpg	99
2497.472	0.604	604.5	repeat	Run3	repeat/STIM_008.jpg	100
2501.109	0.601	601.4	repeat	Run3	repeat/STIM_008.jpg	100
2504.556	0.634	634.1	repeat	Run3	repeat/STIM_009.jpg	99
2508.103	0.654	654.3	repeat	Run3	repeat/STIM_009.jpg	100
2512.664	0.974	974.5	repeat	Run3	repeat/STIM_009.jpg	99
2515.782	0.731	731.0	repeat	Run3	repeat/STIM_009.jpg	99
2520.155	0.802	802.0	repeat	Run3	repeat/STIM_009.jpg	100
2524.328	1.01	1009.7	repeat	Run3	repeat/STIM_010.jpg	100
2529.193	0.664	663.7	repeat	Run3	repeat/STIM_010.jpg	100
2532.823	0.611	610.6	repeat	Run3	repeat/STIM_010.jpg	99
2536.961	0.746	746.5	repeat	Run3	repeat/STIM_010.jpg	100
2540.647	0.956	956.5	repeat	Run3	repeat/STIM_010.jpg	100
2545.433	1.029	1029.4	repeat	Run3	repeat/STIM_011.jpg	99
2550.056	0.595	595.2	repeat	Run3	repeat/STIM_011.jpg	99
2553.135	0.707	707.3	repeat	Run3	repeat/STIM_011.jpg	99
2557.363	1.07	1070.1	repeat	Run3	repeat/STIM_011.jpg	99
2562.192	0.736	736.1	repeat	Run3	repeat/STIM_011.jpg	99
2565.737	0.93	929.9	repeat	Run3	repeat/STIM_012.jpg	100
2568.776	1.056	1056.4	repeat	Run3	repeat/STIM_012.jpg	100
2572.563	1.027	1026.7	repeat	Run3	repeat/STIM_012.jpg	99
2577.379	0.869	868.7	repeat	Run3	repeat/STIM_012.jpg	100
2582.16	0.844	844.2	repeat	Run3	repeat/STIM_012.jpg	99
2586.315	0.834	833.9	repeat	Run3	repeat/STIM_013.jpg	99
2590.772	0.823	823.2	repeat	Run3	repeat/STIM_013.jpg	100
2593.543	0.761	761.2	repeat	Run3	repeat/STIM_013.jpg	99
2596.625	0.698	697.9	repeat	Run3	repeat/STIM_013.jpg	99
2599.886	0.58	579.8	repeat	Run3	repeat/STIM_013.jpg	99
2603.408	1.065	1065.2	repeat	Run3	repeat/STIM_014.jpg	99
2607.142	0.681	680.9	repeat	Run3	repeat/STIM_014.jpg	100
2610.815	0.786	785.5	repeat	Run3	repeat/STIM_014.jpg	100
2614.207	0.82	819.6	repeat	Run3	repeat/STIM_014.jpg	99
2618.818	1.073	1072.8	repeat	Run3	repeat/STIM_014.jpg	100
2623.097	1.676	1676.0	generate	Run4	generate/STIM_000.jpg	99
2627.923	1.789	1789.3	generate	Run4	generate/STIM_000.jpg	100
2633.024	1.977	1977.1	generate	Run4	generate/STIM_000.jpg	99
2637.613	1.104	1104.0	generate	Run4	generate/STIM_000.jpg	99
2642.345	0.997	997.4	generate	Run4	generate/STIM_000.jpg	99
2647.106	1.839	1839.1	generate	Run4	generate/STIM_001.jpg	100
2652.121	2.263	2262.6	generate	Run4	generate/STIM_001.jpg	99
2656.936	1.217	1217.0	generate	Run4	generate/STIM_001.jpg	100
2661.513	2.05	2049.5	generate	Run4	generate/STIM_001.jpg	99
2667.051	1.626	1625.7	generate	Run4	generate/STIM_001.jpg	99
2671.547	1.465	1465.4	generate	Run4	generate/STIM_002.jpg	99
2676.766	1.374	1374.4	generate	Run4	generate/STIM_002.jpg	100
2680.516	1.78	1779.7	generate	Run4	generate/STIM_002.jpg	100
2684.393	1.485	1485.2	generate	Run4	generate/STIM_002.jpg	99
2689.37	1.046	1045.5	generate	Run4	generate/STIM_002.jpg	100
2692.437	1.508	1508.5	generate	Run4	generate/STIM_003.jpg	99
2696.809	2.149	2149.4	generate	Run4	generate/STIM_003.jpg	100
2702.43	2.106	2106.0	generate	Run4	generate/STIM_003.jpg	99
2706.964	1.626	1626.0	generate	Run4	generate/STIM_003.jpg	100
2711.816	1.925	1925.0	generate	Run4	generate/STIM_003.jpg	100
2716.174	1.583	1583.4	generate	Run4	generate/STIM_004.jpg	100
2720.711	1.144	1144.3	generate	Run4	generate/STIM_004.jpg	99
2724.056	1.695	1695.0	generate	Run4	generate/STIM_004.jpg	99
2728.973	1.746	1745.9	generate	Run4	generate/STIM_004.jpg	99
2733.144	2.029	2028.7	generate	Run4	generate/STIM_004.jpg	99
2737.49	1.399	1399.2	generate	Run4	generate/STIM_005.jpg	99
2741.579	1.725	1725.3	generate	Run4	generate/STIM_005.jpg	100
2746.386	0.968	968.4	generate	Run4	generate/STIM_005.jpg	100
2749.442	1.609	1608.8	generate	Run4	generate/STIM_005.jpg	100
2753.37	1.648	1648.4	generate	Run4	generate/STIM_005.jpg	100
2758.397	0.923	923.1	generate	Run4	generate/STIM_006.jpg	100
2761.304	1.87	1870.5	generate	Run4	generate/STIM_006.jpg	100
2765.163	0.912	911.5	generate	Run4	generate/STIM_006.jpg	100
2768.778	1.205	1205.1	generate	Run4	generate/STIM_006.jpg	99
2772.214	1.035	1035.0	generate	Run4	generate/STIM_006.jpg	99
2775.994	0.919	919.0	generate	Run4	generate/STIM_007.jpg	100
2778.857	1.467	1466.8	generate	Run4	generate/STIM_007.jpg	100
2782.224	2.253	2253.1	generate	Run4	generate/STIM_007.jpg	100
2786.827	1.867	1867.3	generate	Run4	generate/STIM_007.jpg	99
2790.948	1.72	1719.5	generate	Run4	generate/STIM_007.jpg	100
2794.796	1.159	1159.4	generate	Run4	generate/STIM_008.jpg	99
2798.281	1.627	1627.4	generate	Run4	generate/STIM_008.jpg	99
2803.389	1.626	1625.6	generate	Run4	generate/STIM_008.jpg	100
2808.197	1.362	1361.6	generate	Run4	generate/STIM_008.jpg	99
2812.333	2.068	2067.7	generate	Run4	generate/STIM_008.jpg	99
2816.283	1.179	1178.9	generate	Run4	generate/STIM_009.jpg	99
2821.343	1.382	1381.7	generate	Run4	generate/STIM_009.jpg	99
2826.121	1.716	1715.7	generate	Run4	generate/STIM_009.jpg	99
2830.899	1.658	1658.0	generate	Run4	generate/STIM_009.jpg	100
2835.388	1.542	1542.3	generate	Run4	generate/STIM_009.jpg	99
2839.756	1.799	1798.9	generate	Run4	generate/STIM_010.jpg	99
2845.166	1.521	1521.3	generate	Run4	generate/STIM_010.jpg	99
2850.495	1.563	1563.0	generate	Run4	generate/STIM_010.jpg	99
2853.997	2.044	2044.2	generate	Run4	generate/STIM_010.jpg	100
2858.75	1.756	1756.4	generate	Run4	generate/STIM_010.jpg	100
2864.33	0.96	959.7	generate	Run4	generate/STIM_011.jpg	99
2867.732	0.98	979.9	generate	Run4	generate/STIM_011.jpg	99
2872.558	1.988	1987.9	generate	Run4	generate/STIM_011.jpg	99
2876.954	1.929	1929.2	generate	Run4	generate/STIM_011.jpg	99
2882.116	1.262	1262.3	generate	Run4	generate/STIM_011.jpg	100
2885.602	1.019	1019.1	generate	Run4	generate/STIM_012.jpg	99
2889.994	1.943	1943.1	generate	Run4	generate/STIM_012.jpg	100
2895.667	1.905	1904.9	generate	Run4	generate/STIM_012.jpg	100
2900.43	1.896	1896.4	generate	Run4	generate/STIM_012.jpg	100
2904.451	1.93	1930.2	generate	Run4	generate/STIM_012.jpg	99
2909.38	1.77	1770.0	generate	Run4	generate/STIM_013.jpg	100
2914.724	1.466	1466.3	generate	Run4	generate/STIM_013.jpg	100
2918.541	1.13	1130.1	generate	Run4	generate/STIM_013.jpg	100
2923.002	1.704	1704.2	generate	Run4	generate/STIM_013.jpg	99
2927.51	1.418	1418.0	generate	Run4	generate/STIM_013.jpg	99
2932.28	1.473	1473.1	generate	Run4	generate/STIM_014.jpg	100
2935.711	1.422	1421.5	generate	Run4	generate/STIM_014.jpg	100
2939.378	1.482	1482.3	generate	Run4	generate/STIM_014.jpg	99
2944.267	1.151	1150.7	generate	Run4	generate/STIM_014.jpg	99
2947.737	1.912	1912.3	generate	Run4	generate/STIM_014.jpg	99
2952.897	1.889	1888.9	generate	Run4	generate/STIM_015.jpg	100
2958.251	0.992	992.3	generate	Run4	generate/STIM_015.jpg	99
2961.818	0.932	931.8	generate	Run4	generate/STIM_015.jpg	99
2966.085	1.906	1906.1	generate	Run4	generate/STIM_015.jpg	100
2971.292	2.112	2111.9	generate	Run4	generate/STIM_015.jpg	100
2976.431	1.308	1308.5	generate	Run4	generate/STIM_016.jpg	99
2980.417	1.116	1115.7	generate	Run4	generate/STIM_016.jpg	100
2984.655	1.25	1250.2	generate	Run4	generate/STIM_016.jpg	100
2989.685	1.453	1453.0	generate	Run4	generate/STIM_016.jpg	99
2994.364	1.393	1393.1	generate	Run4	generate/STIM_016.jpg	99
2998.213	0.977	977.2	generate	Run4	generate/STIM_017.jpg	100
3002.707	1.114	1114.1	generate	Run4	generate/STIM_017.jpg	99
3006.778	1.437	1437.0	generate	Run4	generate/STIM_017.jpg	99
3010.458	1.187	1186.9	generate	Run4	generate/STIM_017.jpg	99
3014.995	2.064	2064.3	generate	Run4	generate/STIM_017.jpg	99
3020.374	1.574	1573.9	generate	Run4	generate/STIM_018.jpg	100
3024.241	1.492	1491.9	generate	Run4	generate/STIM_018.jpg	99
3027.648	1.961	1961.3	generate	Run4	generate/STIM_018.jpg	100
3033.22	1.645	1645.1	generate	Run4	generate/STIM_018.jpg	99
3037.808	1.443	1443.3	generate	Run4	generate/STIM_018.jpg	100
3041.576	1.221	1221.4	generate	Run4	generate/STIM_019.jpg	99
3046.416	2.013	2013.3	generate	Run4	generate/STIM_019.jpg	100
3051.396	1.734	1733.5	generate	Run4	generate/STIM_019.jpg	99
3055.583	0.929	929.4	generate	Run4	generate/STIM_019.jpg	100
3060.248	1.917	1917.2	generate	Run4	generate/STIM_019.jpg	100
3064.99	1.609	1609.4	generate	Run4	generate/STIM_020.jpg	100
3070.472	1.023	1022.6	generate	Run4	generate/STIM_020.jpg	100
3073.852	1.448	1447.9	generate	Run4	generate/STIM_020.jpg	99
3077.737	1.261	1260.9	generate	Run4	generate/STIM_020.jpg	99
3080.982	2.013	2012.9	generate	Run4	generate/STIM_020.jpg	99
3084.926	1.671	1671.1	generate	Run4	generate/STIM_021.jpg	100
3089.421	1.721	1721.2	generate	Run4	generate/STIM_021.jpg	100
3093.735	1.404	1404.5	generate	Run4	generate/STIM_021.jpg	100
3098.878	1.657	1656.7	generate	Run4	generate/STIM_021.jpg	100
3104.134	1.888	1887.5	generate	Run4	generate/STIM_021.jpg	100
3108.381	1.705	1705.0	generate	Run4	generate/STIM_022.jpg	100
3112.429	2.16	2160.1	generate	Run4	generate/STIM_022.jpg	99
3118.24	2.066	2065.8	generate	Run4	generate/STIM_022.jpg	100
3123.4	1.49	1489.6	generate	Run4	generate/STIM_022.jpg	99
3127.751	1.875	1875.3	generate	Run4	generate/STIM_022.jpg	100
3132.159	1.478	1477.8	generate	Run4	generate/STIM_023.jpg	99
3137.443	2.058	2057.8	generate	Run4	generate/STIM_023.jpg	99
3142.926	1.226	1226.4	generate	Run4	generate/STIM_023.jpg	100
3147.513	1.611	1610.9	generate	Run4	generate/STIM_023.jpg	100
3151.417	0.965	965.4	generate	Run4	generate/STIM_023.jpg	100
3156.007	1.775	1774.7	generate	Run4	generate/STIM_024.jpg	100
3159.945	2.09	2089.5	generate	Run4	generate/STIM_024.jpg	99
3165.688	2.169	2169.3	generate	Run4	generate/STIM_024.jpg	99
3169.982	1.904	1904.0	generate	Run4	generate/STIM_024.jpg	99
3174.01	2.001	2000.9	generate	Run4	generate/STIM_024.jpg	99
3177.975	1.053	1052.6	repeat	Run4	repeat/STIM_000.jpg	100
3182.137	0.586	585.6	repeat	Run4	repeat/STIM_000.jpg	100
3186.365	0.929	929.4	repeat	Run4	repeat/STIM_000.jpg	100
3190.366	0.556	556.3	repeat	Run4	repeat/STIM_000.jpg	99
3193.024	0.892	891.6	repeat	Run4	repeat/STIM_000.jpg	100
3195.954	1.06	1059.5	repeat	Run4	repeat/STIM_001.jpg	100
3199.744	0.577	577.1	repeat	Run4	repeat/STIM_001.jpg	100
3204.208	1.0	1000.3	repeat	Run4	repeat/STIM_001.jpg	99
3208.625	0.799	798.9	repeat	Run4	repeat/STIM_001.jpg	99
3211.978	0.99	990.0	repeat	Run4	repeat/STIM_001.jpg	99
3215.633	0.657	657.4	repeat	Run4	repeat/STIM_002.jpg	99
3220.213	0.896	896.3	repeat	Run4	repeat/STIM_002.jpg	99
3223.21	0.945	944.8	repeat	Run4	repeat/STIM_002.jpg	100
3227.887	0.747	747.0	repeat	Run4	repeat/STIM_002.jpg	100
3231.549	0.783	783.4	repeat	Run4	repeat/STIM_002.jpg	99
3234.646	0.897	896.9	repeat	Run4	repeat/STIM_003.jpg	100
3239.339	0.987	986.8	repeat	Run4	repeat/STIM_003.jpg	100
3243.312	1.074	1074.5	repeat	Run4	repeat/STIM_003.jpg	99
3246.481	0.567	566.6	repeat	Run4	repeat/STIM_003.jpg	100
3249.834	0.787	787.4	repeat	Run4	repeat/STIM_003.jpg	100
3253.958	0.766	766.1	repeat	Run4	repeat/STIM_004.jpg	99
3258.5	0.887	887.0	repeat	Run4	repeat/STIM_004.jpg	99
3261.955	0.958	958.3	repeat	Run4	repeat/STIM_004.jpg	99
3266.708	0.977	977.3	repeat	Run4	repeat/STIM_004.jpg	99
3271.529	0.814	813.6	repeat	Run4	repeat/STIM_004.jpg	99
3276.193	0.745	745.2	repeat	Run4	repeat/STIM_005.jpg	99
3280.863	0.831	831.2	repeat	Run4	repeat/STIM_005.jpg	100
3285.474	1.024	1024.5	repeat	Run4	repeat/STIM_005.jpg	100
3290.284	0.924	923.7	repeat	Run4	repeat/STIM_005.jpg	99
3294.261	1.021	1020.6	repeat	Run4	repeat/STIM_005.jpg	99
3298.057	1.026	1026.0	repeat	Run4	repeat/STIM_006.jpg	100
3301.48	0.713	713.3	repeat	Run4	repeat/STIM_006.jpg	99
3305.549	0.935	934.6	repeat	Run4	repeat/STIM_006.jpg	100
3309.099	0.64	639.6	repeat	Run4	repeat/STIM_006.jpg	100
3312.054	0.838	838.5	repeat	Run4	repeat/STIM_006.jpg	99
3315.251	0.682	681.5	repeat	Run4	repeat/STIM_007.jpg	99
3319.16	0.824	823.9	repeat	Run4	repeat/STIM_007.jpg	99
3323.526	0.938	938.3	repeat	Run4	repeat/STIM_007.jpg	100
3328.148	0.572	572.2	repeat	Run4	repeat/STIM_007.jpg	99
3330.922	0.921	921.0	repeat	Run4	repeat/STIM_007.jpg	99
3335.607	1.002	1001.5	repeat	Run4	repeat/STIM_008.jpg	99
3338.583	0.853	853.0	repeat	Run4	repeat/STIM_008.jpg	100
3343.003	0.649	648.6	repeat	Run4	repeat/STIM_008.jpg	99
3346.999	0.866	866.4	repeat	Run4	repeat/STIM_008.jpg	99
3351.693	0.873	873.4	repeat	Run4	repeat/STIM_008.jpg	100
3356.439	1.061	1060.6	repeat	Run4	repeat/STIM_009.jpg	100
3360.781	0.952	951.5	repeat	Run4	repeat/STIM_009.jpg	100
3363.92	0.917	917.4	repeat	Run4	repeat/STIM_009.jpg	99
3368.679	0.605	604.6	repeat	Run4	repeat/STIM_009.jpg	99
3373.216	0.604	604.0	repeat	Run4	repeat/STIM_009.jpg	99
3376.814	0.684	684.4	repeat	Run4	repeat/STIM_010.jpg	99
3380.258	0.728	727.7	repeat	Run4	repeat/STIM_010.jpg	100
3384.398	0.955	955.0	repeat	Run4	repeat/STIM_010.jpg	99
3387.611	0.742	741.9	repeat	Run4	repeat/STIM_010.jpg	99
3391.838	0.981	981.2	repeat	Run4	repeat/STIM_010.jpg	100
3395.687	0.818	818.2	repeat	Run4	repeat/STIM_011.jpg	99
3399.667	0.546	545.8	repeat	Run4	repeat/STIM_011.jpg	99
3402.224	1.002	1002.1	repeat	Run4	repeat/STIM_011.jpg	99
3406.369	0.937	937.0	repeat	Run4	repeat/STIM_011.jpg	99
3409.642	1.022	1022.3	repeat	Run4	repeat/STIM_011.jpg	100
3414.297	0.626	626.2	repeat	Run4	repeat/STIM_012.jpg	99
3417.494	0.988	988.3	repeat	Run4	repeat/STIM_012.jpg	100
3422.201	0.878	877.5	repeat	Run4	repeat/STIM_012.jpg	100
3425.256	0.693	692.8	repeat	Run4	repeat/STIM_012.jpg	100
3429.659	0.982	982.1	repeat	Run4	repeat/STIM_012.jpg	100
3432.651	0.892	891.5	repeat	Run4	repeat/STIM_013.jpg	100
3435.785	0.579	579.3	repeat	Run4	repeat/STIM_013.jpg	99
3439.927	0.566	566.4	repeat	Run4	repeat/STIM_013.jpg	99
3443.833	0.957	956.6	repeat	Run4	repeat/STIM_013.jpg	100
3448.035	0.572	571.7	repeat	Run4	repeat/STIM_013.jpg	100
3451.373	0.912	912.4	repeat	Run4	repeat/STIM_014.jpg	100
3455.934	0.916	916.4	repeat	Run4	repeat/STIM_014.jpg	100
3458.95	1.048	1047.6	repeat	Run4	repeat/STIM_014.jpg	100
3463.467	0.625	625.3	repeat	Run4	repeat/STIM_014.jpg	99
3467.816	0.628	628.4	repeat	Run4	repeat/STIM_014.jpg	99
