onset	duration	accuracy	trial_type	learning_stage	stimulus
0.0	2.225	correct	generate	Run1	generate/STIM_000.jpg
5.933	2.584	correct	generate	Run1	generate/STIM_000.jpg
11.991	2.269	incorrect	generate	Run1	generate/STIM_000.jpg
16.973	2.333	correct	generate	Run1	generate/STIM_000.jpg
21.284	1.778	correct	generate	Run1	generate/STIM_000.jpg
26.335	2.872	incorrect	generate	Run1	generate/STIM_001.jpg
31.474	2.626	correct	generate	Run1	generate/STIM_001.jpg
37.375	2.11	correct	generate	Run1	generate/STIM_001.jpg
42.606	2.058	correct	generate	Run1	generate/STIM_001.jpg
48.085	1.038	correct	generate	Run1	generate/STIM_001.jpg
52.598	3.058	incorrect	generate	Run1	generate/STIM_002.jpg
58.136	1.791	incorrect	generate	Run1	generate/STIM_002.jpg
62.426	1.729	correct	generate	Run1	generate/STIM_002.jpg
66.323	1.371	incorrect	generate	Run1	generate/STIM_002.jpg
70.895	2.148	correct	generate	Run1	generate/STIM_002.jpg
75.118	2.886	correct	generate	Run1	generate/STIM_003.jpg
80.114	2.852	correct	generate	Run1	generate/STIM_003.jpg
86.444	1.388	correct	generate	Run1	generate/STIM_003.jpg
91.062	1.58	correct	generate	Run1	generate/STIM_003.jpg
95.756	1.094	correct	generate	Run1	generate/STIM_003.jpg
99.854	2.91	correct	generate	Run1	generate/STIM_004.jpg
105.833	2.424	correct	generate	Run1	generate/STIM_004.jpg
111.957	2.322	incorrect	generate	Run1	generate/STIM_004.jpg
117.597	2.449	incorrect	generate	Run1	generate/STIM_004.jpg
122.79	1.406	correct	generate	Run1	generate/STIM_004.jpg
127.416	2.95	incorrect	generate	Run1	generate/STIM_005.jpg
133.672	2.851	correct	generate	Run1	generate/STIM_005.jpg
139.912	2.076	correct	generate	Run1	generate/STIM_005.jpg
145.159	2.113	correct	generate	Run1	generate/STIM_005.jpg
149.257	1.095	correct	generate	Run1	generate/STIM_005.jpg
153.614	2.177	incorrect	generate	Run1	generate/STIM_006.jpg
157.99	2.369	correct	generate	Run1	generate/STIM_006.jpg
162.255	1.71	correct	generate	Run1	generate/STIM_006.jpg
166.24	1.353	correct	generate	Run1	generate/STIM_006.jpg
171.057	1.259	incorrect	generate	Run1	generate/STIM_006.jpg
175.27	2.583	correct	generate	Run1	generate/STIM_007.jpg
180.682	2.042	correct	generate	Run1	generate/STIM_007.jpg
186.039	1.563	incorrect	generate	Run1	generate/STIM_007.jpg
190.478	1.794	correct	generate	Run1	generate/STIM_007.jpg
195.307	1.383	correct	generate	Run1	generate/STIM_007.jpg
198.763	2.815	correct	generate	Run1	generate/STIM_008.jpg
204.779	1.546	correct	generate	Run1	generate/STIM_008.jpg
208.552	1.278	correct	generate	Run1	generate/STIM_008.jpg
212.968	1.433	correct	generate	Run1	generate/STIM_008.jpg
217.579	1.616	correct	generate	Run1	generate/STIM_008.jpg
222.347	1.82	incorrect	generate	Run1	generate/STIM_009.jpg
227.28	3.065	correct	generate	Run1	generate/STIM_009.jpg
233.124	1.984	correct	generate	Run1	generate/STIM_009.jpg
238.49	2.195	correct	generate	Run1	generate/STIM_009.jpg
244.485	1.581	incorrect	generate	Run1	generate/STIM_009.jpg
248.415	2.893	incorrect	generate	Run1	generate/STIM_010.jpg
253.196	2.589	correct	generate	Run1	generate/STIM_010.jpg
257.816	2.375	incorrect	generate	Run1	generate/STIM_010.jpg
262.222	2.573	correct	generate	Run1	generate/STIM_010.jpg
267.471	1.559	correct	generate	Run1	generate/STIM_010.jpg
271.533	2.518	incorrect	generate	Run1	generate/STIM_011.jpg
277.794	2.688	correct	generate	Run1	generate/STIM_011.jpg
283.028	2.174	incorrect	generate	Run1	generate/STIM_011.jpg
288.986	1.32	correct	generate	Run1	generate/STIM_011.jpg
292.909	1.632	correct	generate	Run1	generate/STIM_011.jpg
296.777	1.884	correct	generate	Run1	generate/STIM_012.jpg
300.777	1.431	correct	generate	Run1	generate/STIM_012.jpg
304.357	2.893	correct	generate	Run1	generate/STIM_012.jpg
310.847	1.555	incorrect	generate	Run1	generate/STIM_012.jpg
315.698	2.076	correct	generate	Run1	generate/STIM_012.jpg
320.963	2.832	correct	generate	Run1	generate/STIM_013.jpg
327.463	2.913	correct	generate	Run1	generate/STIM_013.jpg
332.929	1.722	correct	generate	Run1	generate/STIM_013.jpg
338.472	1.387	correct	generate	Run1	generate/STIM_013.jpg
342.451	1.158	correct	generate	Run1	generate/STIM_013.jpg
346.274	2.373	correct	generate	Run1	generate/STIM_014.jpg
350.782	1.633	correct	generate	Run1	generate/STIM_014.jpg
354.885	1.856	correct	generate	Run1	generate/STIM_014.jpg
359.13	1.798	incorrect	generate	Run1	generate/STIM_014.jpg
364.54	1.239	correct	generate	Run1	generate/STIM_014.jpg
368.373	2.006	correct	generate	Run1	generate/STIM_015.jpg
372.398	1.805	correct	generate	Run1	generate/STIM_015.jpg
378.02	1.594	incorrect	generate	Run1	generate/STIM_015.jpg
382.826	2.121	incorrect	generate	Run1	generate/STIM_015.jpg
387.887	1.872	incorrect	generate	Run1	generate/STIM_015.jpg
393.468	2.249	correct	generate	Run1	generate/STIM_016.jpg
398.387	3.07	correct	generate	Run1	generate/STIM_016.jpg
405.13	1.666	correct	generate	Run1	generate/STIM_016.jpg
410.574	1.496	correct	generate	Run1	generate/STIM_016.jpg
415.689	1.24	correct	generate	Run1	generate/STIM_016.jpg
420.609	1.943	correct	generate	Run1	generate/STIM_017.jpg
425.239	2.268	correct	generate	Run1	generate/STIM_017.jpg
429.97	2.356	correct	generate	Run1	generate/STIM_017.jpg
434.175	2.642	correct	generate	Run1	generate/STIM_017.jpg
440.467	2.282	incorrect	generate	Run1	generate/STIM_017.jpg
444.661	2.545	correct	generate	Run1	generate/STIM_018.jpg
450.549	2.037	incorrect	generate	Run1	generate/STIM_018.jpg
455.03	2.689	correct	generate	Run1	generate/STIM_018.jpg
459.647	2.187	correct	generate	Run1	generate/STIM_018.jpg
464.141	2.462	correct	generate	Run1	generate/STIM_018.jpg
470.369	1.504	correct	generate	Run1	generate/STIM_019.jpg
474.087	2.94	correct	generate	Run1	generate/STIM_019.jpg
478.886	2.881	incorrect	generate	Run1	generate/STIM_019.jpg
485.029	1.406	correct	generate	Run1	generate/STIM_019.jpg
490.328	2.412	incorrect	generate	Run1	generate/STIM_019.jpg
495.464	1.911	correct	generate	Run1	generate/STIM_020.jpg
500.362	2.299	correct	generate	Run1	generate/STIM_020.jpg
506.14	2.018	correct	generate	Run1	generate/STIM_020.jpg
510.743	1.497	correct	generate	Run1	generate/STIM_020.jpg
515.69	1.06	correct	generate	Run1	generate/STIM_020.jpg
519.762	1.952	incorrect	generate	Run1	generate/STIM_021.jpg
524.44	3.051	correct	generate	Run1	generate/STIM_021.jpg
530.612	1.209	correct	generate	Run1	generate/STIM_021.jpg
534.43	1.735	correct	generate	Run1	generate/STIM_021.jpg
539.254	1.915	correct	generate	Run1	generate/STIM_021.jpg
544.618	2.044	correct	generate	Run1	generate/STIM_022.jpg
549.338	1.602	incorrect	generate	Run1	generate/STIM_022.jpg
553.944	1.784	correct	generate	Run1	generate/STIM_022.jpg
558.663	1.504	incorrect	generate	Run1	generate/STIM_022.jpg
562.53	1.064	correct	generate	Run1	generate/STIM_022.jpg
566.686	1.797	correct	generate	Run1	generate/STIM_023.jpg
571.116	2.988	correct	generate	Run1	generate/STIM_023.jpg
576.998	2.876	correct	generate	Run1	generate/STIM_023.jpg
582.719	1.711	correct	generate	Run1	generate/STIM_023.jpg
586.556	1.394	correct	generate	Run1	generate/STIM_023.jpg
591.13	2.292	correct	generate	Run1	generate/STIM_024.jpg
595.476	2.982	correct	generate	Run1	generate/STIM_024.jpg
601.703	1.966	correct	generate	Run1	generate/STIM_024.jpg
607.331	2.263	incorrect	generate	Run1	generate/STIM_024.jpg
612.389	2.489	correct	generate	Run1	generate/STIM_024.jpg
617.311	0.971	correct	repeat	Run1	repeat/STIM_000.jpg
621.798	0.978	correct	repeat	Run1	repeat/STIM_000.jpg
624.743	0.68	correct	repeat	Run1	repeat/STIM_000.jpg
628.167	0.86	correct	repeat	Run1	repeat/STIM_000.jpg
631.499	0.65	correct	repeat	Run1	repeat/STIM_000.jpg
635.587	0.865	correct	repeat	Run1	repeat/STIM_001.jpg
638.803	1.05	correct	repeat	Run1	repeat/STIM_001.jpg
643.44	0.988	correct	repeat	Run1	repeat/STIM_001.jpg
647.955	0.85	correct	repeat	Run1	repeat/STIM_001.jpg
651.49	0.851	correct	repeat	Run1	repeat/STIM_001.jpg
654.341	0.935	correct	repeat	Run1	repeat/STIM_002.jpg
657.365	0.83	correct	repeat	Run1	repeat/STIM_002.jpg
660.374	1.034	correct	repeat	Run1	repeat/STIM_002.jpg
663.432	0.751	correct	repeat	Run1	repeat/STIM_002.jpg
667.274	1.014	correct	repeat	Run1	repeat/STIM_002.jpg
670.264	0.839	correct	repeat	Run1	repeat/STIM_003.jpg
674.712	0.842	correct	repeat	Run1	repeat/STIM_003.jpg
679.446	0.674	correct	repeat	Run1	repeat/STIM_003.jpg
684.023	1.077	correct	repeat	Run1	repeat/STIM_003.jpg
687.654	1.074	correct	repeat	Run1	repeat/STIM_003.jpg
692.575	0.895	correct	repeat	Run1	repeat/STIM_004.jpg
696.096	1.062	correct	repeat	Run1	repeat/STIM_004.jpg
699.519	0.778	correct	repeat	Run1	repeat/STIM_004.jpg
704.161	0.875	correct	repeat	Run1	repeat/STIM_004.jpg
707.699	0.814	correct	repeat	Run1	repeat/STIM_004.jpg
711.69	0.558	correct	repeat	Run1	repeat/STIM_005.jpg
715.567	1.058	correct	repeat	Run1	repeat/STIM_005.jpg
719.018	0.657	correct	repeat	Run1	repeat/STIM_005.jpg
722.852	0.67	correct	repeat	Run1	repeat/STIM_005.jpg
727.275	0.856	correct	repeat	Run1	repeat/STIM_005.jpg
731.783	0.75	correct	repeat	Run1	repeat/STIM_006.jpg
736.39	0.656	correct	repeat	Run1	repeat/STIM_006.jpg
740.492	0.937	incorrect	repeat	Run1	repeat/STIM_006.jpg
744.827	0.571	correct	repeat	Run1	repeat/STIM_006.jpg
748.098	0.816	correct	repeat	Run1	repeat/STIM_006.jpg
751.38	0.547	correct	repeat	Run1	repeat/STIM_007.jpg
755.329	0.819	correct	repeat	Run1	repeat/STIM_007.jpg
758.191	0.625	correct	repeat	Run1	repeat/STIM_007.jpg
762.626	0.858	correct	repeat	Run1	repeat/STIM_007.jpg
767.143	0.921	correct	repeat	Run1	repeat/STIM_007.jpg
770.543	0.764	correct	repeat	Run1	repeat/STIM_008.jpg
774.032	0.608	correct	repeat	Run1	repeat/STIM_008.jpg
776.936	0.892	correct	repeat	Run1	repeat/STIM_008.jpg
781.164	0.662	correct	repeat	Run1	repeat/STIM_008.jpg
784.104	1.045	incorrect	repeat	Run1	repeat/STIM_008.jpg
787.61	0.828	correct	repeat	Run1	repeat/STIM_009.jpg
791.746	1.035	correct	repeat	Run1	repeat/STIM_009.jpg
796.222	0.848	correct	repeat	Run1	repeat/STIM_009.jpg
800.808	0.695	correct	repeat	Run1	repeat/STIM_009.jpg
804.966	0.911	correct	repeat	Run1	repeat/STIM_009.jpg
809.404	0.982	correct	repeat	Run1	repeat/STIM_010.jpg
813.682	0.563	correct	repeat	Run1	repeat/STIM_010.jpg
818.02	1.064	correct	repeat	Run1	repeat/STIM_010.jpg
822.687	0.628	correct	repeat	Run1	repeat/STIM_010.jpg
826.919	1.06	correct	repeat	Run1	repeat/STIM_010.jpg
830.073	0.697	correct	repeat	Run1	repeat/STIM_011.jpg
833.523	0.95	correct	repeat	Run1	repeat/STIM_011.jpg
838.05	0.832	correct	repeat	Run1	repeat/STIM_011.jpg
842.156	1.037	correct	repeat	Run1	repeat/STIM_011.jpg
846.993	0.546	correct	repeat	Run1	repeat/STIM_011.jpg
851.111	0.776	correct	repeat	Run1	repeat/STIM_012.jpg
855.036	0.557	correct	repeat	Run1	repeat/STIM_012.jpg
858.599	0.842	incorrect	repeat	Run1	repeat/STIM_012.jpg
862.778	0.566	correct	repeat	Run1	repeat/STIM_012.jpg
865.651	0.923	correct	repeat	Run1	repeat/STIM_012.jpg
869.68	0.887	correct	repeat	Run1	repeat/STIM_013.jpg
873.183	0.71	correct	repeat	Run1	repeat/STIM_013.jpg
877.333	0.799	correct	repeat	Run1	repeat/STIM_013.jpg
881.219	0.608	correct	repeat	Run1	repeat/STIM_013.jpg
885.42	0.872	correct	repeat	Run1	repeat/STIM_013.jpg
889.096	0.694	correct	repeat	Run1	repeat/STIM_014.jpg
893.499	0.59	correct	repeat	Run1	repeat/STIM_014.jpg
896.771	0.772	correct	repeat	Run1	repeat/STIM_014.jpg
901.265	0.932	correct	repeat	Run1	repeat/STIM_014.jpg
904.377	0.83	correct	repeat	Run1	repeat/STIM_014.jpg
908.607	1.198	correct	generate	Run2	generate/STIM_000.jpg
913.184	2.422	correct	generate	Run2	generate/STIM_000.jpg
918.469	1.654	correct	generate	Run2	generate/STIM_000.jpg
922.915	1.742	correct	generate	Run2	generate/STIM_000.jpg
926.771	1.333	correct	generate	Run2	generate/STIM_000.jpg
930.643	1.445	correct	generate	Run2	generate/STIM_001.jpg
934.555	2.529	correct	generate	Run2	generate/STIM_001.jpg
940.369	1.912	correct	generate	Run2	generate/STIM_001.jpg
946.027	0.914	incorrect	generate	Run2	generate/STIM_001.jpg
949.758	2.173	correct	generate	Run2	generate/STIM_001.jpg
955.322	2.123	incorrect	generate	Run2	generate/STIM_002.jpg
961.006	2.522	correct	generate	Run2	generate/STIM_002.jpg
966.953	1.954	correct	generate	Run2	generate/STIM_002.jpg
971.867	1.578	correct	generate	Run2	generate/STIM_002.jpg
976.611	1.675	correct	generate	Run2	generate/STIM_002.jpg
981.745	2.027	correct	generate	Run2	generate/STIM_003.jpg
986.646	1.094	correct	generate	Run2	generate/STIM_003.jpg
989.875	2.157	correct	generate	Run2	generate/STIM_003.jpg
995.085	1.958	correct	generate	Run2	generate/STIM_003.jpg
999.674	1.869	correct	generate	Run2	generate/STIM_003.jpg
1004.32	1.851	correct	generate	Run2	generate/STIM_004.jpg
1008.672	1.424	correct	generate	Run2	generate/STIM_004.jpg
1013.942	2.11	correct	generate	Run2	generate/STIM_004.jpg
1018.726	1.696	correct	generate	Run2	generate/STIM_004.jpg
1024.021	1.784	correct	generate	Run2	generate/STIM_004.jpg
1027.833	1.685	correct	generate	Run2	generate/STIM_005.jpg
1032.379	2.166	correct	generate	Run2	generate/STIM_005.jpg
1038.243	1.883	correct	generate	Run2	generate/STIM_005.jpg
1043.85	1.627	correct	generate	Run2	generate/STIM_005.jpg
1048.47	2.255	correct	generate	Run2	generate/STIM_005.jpg
1052.917	2.586	correct	generate	Run2	generate/STIM_006.jpg
1058.471	2.045	correct	generate	Run2	generate/STIM_006.jpg
1064.103	2.006	correct	generate	Run2	generate/STIM_006.jpg
1068.477	1.019	correct	generate	Run2	generate/STIM_006.jpg
1073.317	2.207	correct	generate	Run2	generate/STIM_006.jpg
1079.156	1.152	correct	generate	Run2	generate/STIM_007.jpg
1082.235	2.556	correct	generate	Run2	generate/STIM_007.jpg
1087.871	2.278	correct	generate	Run2	generate/STIM_007.jpg
1093.186	1.331	correct	generate	Run2	generate/STIM_007.jpg
1097.588	1.615	correct	generate	Run2	generate/STIM_007.jpg
1101.518	2.524	incorrect	generate	Run2	generate/STIM_008.jpg
1106.234	1.036	correct	generate	Run2	generate/STIM_008.jpg
1109.909	1.066	correct	generate	Run2	generate/STIM_008.jpg
1114.676	2.012	correct	generate	Run2	generate/STIM_008.jpg
1118.911	1.33	incorrect	generate	Run2	generate/STIM_008.jpg
1122.463	1.399	correct	generate	Run2	generate/STIM_009.jpg
1127.75	1.315	incorrect	generate	Run2	generate/STIM_009.jpg
1131.242	2.034	correct	generate	Run2	generate/STIM_009.jpg
1136.589	1.089	correct	generate	Run2	generate/STIM_009.jpg
1140.144	2.245	correct	generate	Run2	generate/STIM_009.jpg
1145.474	1.269	correct	generate	Run2	generate/STIM_010.jpg
1149.445	1.987	correct	generate	Run2	generate/STIM_010.jpg
1154.76	1.908	correct	generate	Run2	generate/STIM_010.jpg
1158.689	1.801	correct	generate	Run2	generate/STIM_010.jpg
1163.952	1.108	correct	generate	Run2	generate/STIM_010.jpg
1167.136	1.114	correct	generate	Run2	generate/STIM_011.jpg
1170.58	1.162	incorrect	generate	Run2	generate/STIM_011.jpg
1175.194	1.857	correct	generate	Run2	generate/STIM_011.jpg
1180.589	1.3	correct	generate	Run2	generate/STIM_011.jpg
1183.804	2.03	correct	generate	Run2	generate/STIM_011.jpg
1189.074	1.368	correct	generate	Run2	generate/STIM_012.jpg
1194.149	2.487	correct	generate	Run2	generate/STIM_012.jpg
1199.762	1.863	correct	generate	Run2	generate/STIM_012.jpg
1205.279	1.785	incorrect	generate	Run2	generate/STIM_012.jpg
1209.393	1.703	correct	generate	Run2	generate/STIM_012.jpg
1214.927	1.623	correct	generate	Run2	generate/STIM_013.jpg
1219.872	1.617	correct	generate	Run2	generate/STIM_013.jpg
1224.643	1.536	correct	generate	Run2	generate/STIM_013.jpg
1229.22	1.267	correct	generate	Run2	generate/STIM_013.jpg
1234.096	1.474	correct	generate	Run2	generate/STIM_013.jpg
1237.636	1.423	correct	generate	Run2	generate/STIM_014.jpg
1241.4	2.258	correct	generate	Run2	generate/STIM_014.jpg
1246.177	1.147	correct	generate	Run2	generate/STIM_014.jpg
1250.36	1.243	correct	generate	Run2	generate/STIM_014.jpg
1255.261	1.63	correct	generate	Run2	generate/STIM_014.jpg
1259.339	1.681	incorrect	generate	Run2	generate/STIM_015.jpg
1263.594	2.381	correct	generate	Run2	generate/STIM_015.jpg
1269.476	1.764	correct	generate	Run2	generate/STIM_015.jpg
1274.46	1.683	correct	generate	Run2	generate/STIM_015.jpg
1279.591	1.762	correct	generate	Run2	generate/STIM_015.jpg
1284.254	1.752	correct	generate	Run2	generate/STIM_016.jpg
1288.35	1.842	correct	generate	Run2	generate/STIM_016.jpg
1293.669	2.263	correct	generate	Run2	generate/STIM_016.jpg
1298.567	0.965	correct	generate	Run2	generate/STIM_016.jpg
1302.103	1.352	correct	generate	Run2	generate/STIM_016.jpg
1306.033	1.39	correct	generate	Run2	generate/STIM_017.jpg
1310.575	1.506	correct	generate	Run2	generate/STIM_017.jpg
1314.445	1.165	correct	generate	Run2	generate/STIM_017.jpg
1318.673	0.979	correct	generate	Run2	generate/STIM_017.jpg
1322.485	1.63	correct	generate	Run2	generate/STIM_017.jpg
1327.029	1.181	correct	generate	Run2	generate/STIM_018.jpg
1331.643	1.255	correct	generate	Run2	generate/STIM_018.jpg
1335.25	0.982	correct	generate	Run2	generate/STIM_018.jpg
1338.285	1.37	correct	generate	Run2	generate/STIM_018.jpg
1342.677	1.217	correct	generate	Run2	generate/STIM_018.jpg
1347.154	2.015	correct	generate	Run2	generate/STIM_019.jpg
1351.194	1.731	correct	generate	Run2	generate/STIM_019.jpg
1356.682	1.127	correct	generate	Run2	generate/STIM_019.jpg
1359.741	1.436	correct	generate	Run2	generate/STIM_019.jpg
1364.079	2.172	correct	generate	Run2	generate/STIM_019.jpg
1369.558	1.59	correct	generate	Run2	generate/STIM_020.jpg
1373.237	2.28	correct	generate	Run2	generate/STIM_020.jpg
1377.794	1.517	correct	generate	Run2	generate/STIM_020.jpg
1382.366	1.851	correct	generate	Run2	generate/STIM_020.jpg
1387.744	1.749	correct	generate	Run2	generate/STIM_020.jpg
1391.498	2.399	correct	generate	Run2	generate/STIM_021.jpg
1396.903	2.451	correct	generate	Run2	generate/STIM_021.jpg
1402.283	2.07	correct	generate	Run2	generate/STIM_021.jpg
1406.351	1.342	correct	generate	Run2	generate/STIM_021.jpg
1411.247	1.67	correct	generate	Run2	generate/STIM_021.jpg
1416.38	1.627	correct	generate	Run2	generate/STIM_022.jpg
1420.089	1.651	incorrect	generate	Run2	generate/STIM_022.jpg
1424.72	1.649	correct	generate	Run2	generate/STIM_022.jpg
1430.017	2.086	correct	generate	Run2	generate/STIM_022.jpg
1434.221	0.96	correct	generate	Run2	generate/STIM_022.jpg
1439.017	1.85	correct	generate	Run2	generate/STIM_023.jpg
1443.394	2.489	correct	generate	Run2	generate/STIM_023.jpg
1448.618	1.617	correct	generate	Run2	generate/STIM_023.jpg
1453.374	1.808	correct	generate	Run2	generate/STIM_023.jpg
1457.763	1.002	correct	generate	Run2	generate/STIM_023.jpg
1462.377	2.26	correct	generate	Run2	generate/STIM_024.jpg
1467.789	2.283	correct	generate	Run2	generate/STIM_024.jpg
1473.135	1.361	correct	generate	Run2	generate/STIM_024.jpg
1477.631	1.777	correct	generate	Run2	generate/STIM_024.jpg
1482.596	1.483	correct	generate	Run2	generate/STIM_024.jpg
1487.676	0.778	correct	repeat	Run2	repeat/STIM_000.jpg
1490.85	0.775	correct	repeat	Run2	repeat/STIM_000.jpg
1494.025	0.585	correct	repeat	Run2	repeat/STIM_000.jpg
1498.203	0.566	correct	repeat	Run2	repeat/STIM_000.jpg
1502.034	0.578	correct	repeat	Run2	repeat/STIM_000.jpg
1505.037	1.002	correct	repeat	Run2	repeat/STIM_001.jpg
1508.533	1.012	correct	repeat	Run2	repeat/STIM_001.jpg
1512.911	0.985	correct	repeat	Run2	repeat/STIM_001.jpg
1516.431	0.906	correct	repeat	Run2	repeat/STIM_001.jpg
1519.674	0.767	correct	repeat	Run2	repeat/STIM_001.jpg
1523.075	0.825	correct	repeat	Run2	repeat/STIM_002.jpg
1527.192	0.736	incorrect	repeat	Run2	repeat/STIM_002.jpg
1530.92	0.575	correct	repeat	Run2	repeat/STIM_002.jpg
1534.15	0.694	correct	repeat	Run2	repeat/STIM_002.jpg
1537.198	0.943	correct	repeat	Run2	repeat/STIM_002.jpg
1540.255	0.823	correct	repeat	Run2	repeat/STIM_003.jpg
1543.062	0.881	correct	repeat	Run2	repeat/STIM_003.jpg
1546.629	0.572	correct	repeat	Run2	repeat/STIM_003.jpg
1550.255	0.753	correct	repeat	Run2	repeat/STIM_003.jpg
1552.964	0.717	correct	repeat	Run2	repeat/STIM_003.jpg
1555.946	1.018	correct	repeat	Run2	repeat/STIM_004.jpg
1559.129	1.033	correct	repeat	Run2	repeat/STIM_004.jpg
1562.365	0.917	correct	repeat	Run2	repeat/STIM_004.jpg
1565.899	1.005	correct	repeat	Run2	repeat/STIM_004.jpg
1569.339	0.939	correct	repeat	Run2	repeat/STIM_004.jpg
1573.152	0.791	correct	repeat	Run2	repeat/STIM_005.jpg
1577.865	1.016	correct	repeat	Run2	repeat/STIM_005.jpg
1581.374	0.882	correct	repeat	Run2	repeat/STIM_005.jpg
1585.523	0.764	correct	repeat	Run2	repeat/STIM_005.jpg
1589.411	0.653	correct	repeat	Run2	repeat/STIM_005.jpg
1593.277	0.821	correct	repeat	Run2	repeat/STIM_006.jpg
1596.222	0.859	correct	repeat	Run2	repeat/STIM_006.jpg
1599.272	0.776	correct	repeat	Run2	repeat/STIM_006.jpg
1603.08	0.649	correct	repeat	Run2	repeat/STIM_006.jpg
1607.337	0.629	correct	repeat	Run2	repeat/STIM_006.jpg
1610.053	0.778	correct	repeat	Run2	repeat/STIM_007.jpg
1612.845	0.653	correct	repeat	Run2	repeat/STIM_007.jpg
1616.007	0.918	correct	repeat	Run2	repeat/STIM_007.jpg
1620.646	0.974	correct	repeat	Run2	repeat/STIM_007.jpg
1623.759	0.626	correct	repeat	Run2	repeat/STIM_007.jpg
1626.999	0.984	correct	repeat	Run2	repeat/STIM_008.jpg
1630.989	0.812	incorrect	repeat	Run2	repeat/STIM_008.jpg
1633.952	0.861	correct	repeat	Run2	repeat/STIM_008.jpg
1638.042	0.819	correct	repeat	Run2	repeat/STIM_008.jpg
1640.88	0.594	incorrect	repeat	Run2	repeat/STIM_008.jpg
1644.363	0.761	correct	repeat	Run2	repeat/STIM_009.jpg
1648.405	1.067	correct	repeat	Run2	repeat/STIM_009.jpg
1652.437	1.076	correct	repeat	Run2	repeat/STIM_009.jpg
1656.729	0.818	correct	repeat	Run2	repeat/STIM_009.jpg
1661.308	0.716	correct	repeat	Run2	repeat/STIM_009.jpg
1664.442	0.761	correct	repeat	Run2	repeat/STIM_010.jpg
1668.285	1.034	correct	repeat	Run2	repeat/STIM_010.jpg
1673.132	0.775	correct	repeat	Run2	repeat/STIM_010.jpg
1676.798	0.922	correct	repeat	Run2	repeat/STIM_010.jpg
1680.732	1.036	correct	repeat	Run2	repeat/STIM_010.jpg
1684.412	0.601	correct	repeat	Run2	repeat/STIM_011.jpg
1688.304	0.687	correct	repeat	Run2	repeat/STIM_011.jpg
1692.913	0.773	correct	repeat	Run2	repeat/STIM_011.jpg
1697.061	0.74	correct	repeat	Run2	repeat/STIM_011.jpg
1701.302	0.646	correct	repeat	Run2	repeat/STIM_011.jpg
1705.12	0.629	correct	repeat	Run2	repeat/STIM_012.jpg
1709.018	0.914	correct	repeat	Run2	repeat/STIM_012.jpg
1713.737	0.853	correct	repeat	Run2	repeat/STIM_012.jpg
1716.916	1.048	correct	repeat	Run2	repeat/STIM_012.jpg
1721.328	0.8	correct	repeat	Run2	repeat/STIM_012.jpg
1724.887	0.617	correct	repeat	Run2	repeat/STIM_013.jpg
1728.35	1.076	correct	repeat	Run2	repeat/STIM_013.jpg
1733.284	0.96	correct	repeat	Run2	repeat/STIM_013.jpg
1738.08	1.042	correct	repeat	Run2	repeat/STIM_013.jpg
1742.609	0.606	correct	repeat	Run2	repeat/STIM_013.jpg
1746.725	1.07	correct	repeat	Run2	repeat/STIM_014.jpg
1750.601	0.638	correct	repeat	Run2	repeat/STIM_014.jpg
1755.027	0.586	correct	repeat	Run2	repeat/STIM_014.jpg
1759.115	0.547	correct	repeat	Run2	repeat/STIM_014.jpg
1763.329	0.582	correct	repeat	Run2	repeat/STIM_014.jpg
1767.797	1.0	correct	generate	Run3	generate/STIM_000.jpg
1771.632	1.274	correct	generate	Run3	generate/STIM_000.jpg
1776.342	1.22	correct	generate	Run3	generate/STIM_000.jpg
1780.126	1.224	correct	generate	Run3	generate/STIM_000.jpg
1783.415	2.029	correct	generate	Run3	generate/STIM_000.jpg
1788.868	1.347	correct	generate	Run3	generate/STIM_001.jpg
1793.712	1.521	correct	generate	Run3	generate/STIM_001.jpg
1798.032	1.736	correct	generate	Run3	generate/STIM_001.jpg
1803.263	1.759	correct	generate	Run3	generate/STIM_001.jpg
1808.417	1.961	correct	generate	Run3	generate/STIM_001.jpg
1812.255	1.269	incorrect	generate	Run3	generate/STIM_002.jpg
1815.792	1.269	correct	generate	Run3	generate/STIM_002.jpg
1819.527	2.104	correct	generate	Run3	generate/STIM_002.jpg
1825.18	1.762	correct	generate	Run3	generate/STIM_002.jpg
1829.82	1.435	correct	generate	Run3	generate/STIM_002.jpg
1833.737	1.759	correct	generate	Run3	generate/STIM_003.jpg
1839.098	0.985	correct	generate	Run3	generate/STIM_003.jpg
1842.422	1.944	correct	generate	Run3	generate/STIM_003.jpg
1847.132	1.381	correct	generate	Run3	generate/STIM_003.jpg
1852.074	1.497	correct	generate	Run3	generate/STIM_003.jpg
1857.423	1.337	correct	generate	Run3	generate/STIM_004.jpg
1861.851	1.005	correct	generate	Run3	generate/STIM_004.jpg
1865.477	1.965	correct	generate	Run3	generate/STIM_004.jpg
1870.449	2.182	correct	generate	Run3	generate/STIM_004.jpg
1875.848	1.8	correct	generate	Run3	generate/STIM_004.jpg
1879.929	1.274	correct	generate	Run3	generate/STIM_005.jpg
1884.502	2.185	correct	generate	Run3	generate/STIM_005.jpg
1889.447	0.925	correct	generate	Run3	generate/STIM_005.jpg
1892.975	1.169	correct	generate	Run3	generate/STIM_005.jpg
1897.42	2.053	correct	generate	Run3	generate/STIM_005.jpg
1901.848	1.853	correct	generate	Run3	generate/STIM_006.jpg
1905.701	1.757	correct	generate	Run3	generate/STIM_006.jpg
1910.901	0.991	correct	generate	Run3	generate/STIM_006.jpg
1914.77	1.663	correct	generate	Run3	generate/STIM_006.jpg
1919.919	1.802	correct	generate	Run3	generate/STIM_006.jpg
1925.473	2.078	correct	generate	Run3	generate/STIM_007.jpg
1930.708	1.915	correct	generate	Run3	generate/STIM_007.jpg
1936.102	1.82	correct	generate	Run3	generate/STIM_007.jpg
1940.844	1.453	incorrect	generate	Run3	generate/STIM_007.jpg
1944.597	1.88	correct	generate	Run3	generate/STIM_007.jpg
1950.031	1.877	correct	generate	Run3	generate/STIM_008.jpg
1955.223	1.793	correct	generate	Run3	generate/STIM_008.jpg
1960.315	0.951	correct	generate	Run3	generate/STIM_008.jpg
1964.899	1.788	correct	generate	Run3	generate/STIM_008.jpg
1969.617	1.192	correct	generate	Run3	generate/STIM_008.jpg
1974.47	1.857	incorrect	generate	Run3	generate/STIM_009.jpg
1979.863	1.934	correct	generate	Run3	generate/STIM_009.jpg
1985.55	2.076	correct	generate	Run3	generate/STIM_009.jpg
1989.666	2.196	correct	generate	Run3	generate/STIM_009.jpg
1995.644	1.405	correct	generate	Run3	generate/STIM_009.jpg
1999.435	1.815	correct	generate	Run3	generate/STIM_010.jpg
2004.178	2.162	correct	generate	Run3	generate/STIM_010.jpg
2008.969	1.298	correct	generate	Run3	generate/STIM_010.jpg
2013.176	1.738	correct	generate	Run3	generate/STIM_010.jpg
2017.893	2.094	correct	generate	Run3	generate/STIM_010.jpg
2023.361	1.604	correct	generate	Run3	generate/STIM_011.jpg
2027.824	1.251	correct	generate	Run3	generate/STIM_011.jpg
2031.133	1.81	correct	generate	Run3	generate/STIM_011.jpg
2036.645	1.704	correct	generate	Run3	generate/STIM_011.jpg
2041.37	2.229	correct	generate	Run3	generate/STIM_011.jpg
2046.022	1.374	correct	generate	Run3	generate/STIM_012.jpg
2050.791	1.021	correct	generate	Run3	generate/STIM_012.jpg
2054.614	2.094	correct	generate	Run3	generate/STIM_012.jpg
2059.786	1.96	correct	generate	Run3	generate/STIM_012.jpg
2063.65	2.254	correct	generate	Run3	generate/STIM_012.jpg
2068.634	1.605	correct	generate	Run3	generate/STIM_013.jpg
2072.989	1.822	correct	generate	Run3	generate/STIM_013.jpg
2076.806	1.529	correct	generate	Run3	generate/STIM_013.jpg
2082.112	1.719	correct	generate	Run3	generate/STIM_013.jpg
2087.167	1.173	correct	generate	Run3	generate/STIM_013.jpg
2090.912	1.172	correct	generate	Run3	generate/STIM_014.jpg
2094.413	1.58	incorrect	generate	Run3	generate/STIM_014.jpg
2098.315	2.074	correct	generate	Run3	generate/STIM_014.jpg
2104.004	1.832	correct	generate	Run3	generate/STIM_014.jpg
2108.839	1.491	correct	generate	Run3	generate/STIM_014.jpg
2113.892	1.787	correct	generate	Run3	generate/STIM_015.jpg
2118.76	1.996	correct	generate	Run3	generate/STIM_015.jpg
2123.23	1.836	correct	generate	Run3	generate/STIM_015.jpg
2128.598	2.144	correct	generate	Run3	generate/STIM_015.jpg
2134.368	1.195	incorrect	generate	Run3	generate/STIM_015.jpg
2137.785	1.733	correct	generate	Run3	generate/STIM_016.jpg
2142.056	2.125	correct	generate	Run3	generate/STIM_016.jpg
2146.587	1.285	correct	generate	Run3	generate/STIM_016.jpg
2151.748	1.019	correct	generate	Run3	generate/STIM_016.jpg
2154.903	2.14	correct	generate	Run3	generate/STIM_016.jpg
2159.176	1.703	correct	generate	Run3	generate/STIM_017.jpg
2163.918	1.971	correct	generate	Run3	generate/STIM_017.jpg
2168.113	1.463	correct	generate	Run3	generate/STIM_017.jpg
2172.989	1.905	correct	generate	Run3	generate/STIM_017.jpg
2176.82	1.228	correct	generate	Run3	generate/STIM_017.jpg
2180.248	1.971	correct	generate	Run3	generate/STIM_018.jpg
2185.828	2.077	correct	generate	Run3	generate/STIM_018.jpg
2190.885	1.58	incorrect	generate	Run3	generate/STIM_018.jpg
2194.461	2.191	correct	generate	Run3	generate/STIM_018.jpg
2200.352	1.955	correct	generate	Run3	generate/STIM_018.jpg
2204.55	1.362	correct	generate	Run3	generate/STIM_019.jpg
2208.284	2.098	incorrect	generate	Run3	generate/STIM_019.jpg
2212.353	1.689	incorrect	generate	Run3	generate/STIM_019.jpg
2217.119	0.993	correct	generate	Run3	generate/STIM_019.jpg
2221.725	1.453	correct	generate	Run3	generate/STIM_019.jpg
2226.207	1.466	correct	generate	Run3	generate/STIM_020.jpg
2230.974	1.004	incorrect	generate	Run3	generate/STIM_020.jpg
2235.355	2.131	correct	generate	Run3	generate/STIM_020.jpg
2240.271	2.181	correct	generate	Run3	generate/STIM_020.jpg
2244.577	2.186	correct	generate	Run3	generate/STIM_020.jpg
2250.603	1.91	incorrect	generate	Run3	generate/STIM_021.jpg
2255.553	1.555	correct	generate	Run3	generate/STIM_021.jpg
2260.983	2.03	correct	generate	Run3	generate/STIM_021.jpg
2266.212	1.196	correct	generate	Run3	generate/STIM_021.jpg
2269.717	1.467	correct	generate	Run3	generate/STIM_021.jpg
2274.348	1.974	correct	generate	Run3	generate/STIM_022.jpg
2278.34	1.944	correct	generate	Run3	generate/STIM_022.jpg
2283.369	1.843	correct	generate	Run3	generate/STIM_022.jpg
2287.75	1.584	correct	generate	Run3	generate/STIM_022.jpg
2293.156	1.118	correct	generate	Run3	generate/STIM_022.jpg
2297.464	0.994	correct	generate	Run3	generate/STIM_023.jpg
2301.474	1.858	correct	generate	Run3	generate/STIM_023.jpg
2305.366	1.166	correct	generate	Run3	generate/STIM_023.jpg
2308.507	2.126	correct	generate	Run3	generate/STIM_023.jpg
2314.229	1.447	correct	generate	Run3	generate/STIM_023.jpg
2318.664	2.047	correct	generate	Run3	generate/STIM_024.jpg
2323.792	1.074	correct	generate	Run3	generate/STIM_024.jpg
2328.643	1.657	incorrect	generate	Run3	generate/STIM_024.jpg
2334.152	1.414	correct	generate	Run3	generate/STIM_024.jpg
2338.1	2.2	correct	generate	Run3	generate/STIM_024.jpg
2342.275	0.65	correct	repeat	Run3	repeat/STIM_000.jpg
2346.543	1.02	correct	repeat	Run3	repeat/STIM_000.jpg
2351.26	1.035	correct	repeat	Run3	repeat/STIM_000.jpg
2355.166	0.928	correct	repeat	Run3	repeat/STIM_000.jpg
2358.968	1.034	correct	repeat	Run3	repeat/STIM_000.jpg
2363.539	0.75	correct	repeat	Run3	repeat/STIM_001.jpg
2367.122	0.941	correct	repeat	Run3	repeat/STIM_001.jpg
2370.877	0.549	correct	repeat	Run3	repeat/STIM_001.jpg
2375.053	1.032	correct	repeat	Run3	repeat/STIM_001.jpg
2378.569	0.79	correct	repeat	Run3	repeat/STIM_001.jpg
2382.337	1.042	incorrect	repeat	Run3	repeat/STIM_002.jpg
2386.652	0.642	correct	repeat	Run3	repeat/STIM_002.jpg
2389.343	0.761	correct	repeat	Run3	repeat/STIM_002.jpg
2393.67	0.682	correct	repeat	Run3	repeat/STIM_002.jpg
2397.941	1.038	correct	repeat	Run3	repeat/STIM_002.jpg
2401.797	0.797	correct	repeat	Run3	repeat/STIM_003.jpg
2404.712	1.072	correct	repeat	Run3	repeat/STIM_003.jpg
2408.829	0.609	correct	repeat	Run3	repeat/STIM_003.jpg
2411.685	0.902	incorrect	repeat	Run3	repeat/STIM_003.jpg
2415.164	0.914	correct	repeat	Run3	repeat/STIM_003.jpg
2418.849	0.853	correct	repeat	Run3	repeat/STIM_004.jpg
2421.879	0.962	correct	repeat	Run3	repeat/STIM_004.jpg
2424.944	0.845	correct	repeat	Run3	repeat/STIM_004.jpg
2428.106	0.986	correct	repeat	Run3	repeat/STIM_004.jpg
2432.351	1.066	correct	repeat	Run3	repeat/STIM_004.jpg
2435.517	0.558	correct	repeat	Run3	repeat/STIM_005.jpg
2438.326	0.715	correct	repeat	Run3	repeat/STIM_005.jpg
2441.208	0.599	correct	repeat	Run3	repeat/STIM_005.jpg
2445.632	0.784	correct	repeat	Run3	repeat/STIM_005.jpg
2448.606	0.886	correct	repeat	Run3	repeat/STIM_005.jpg
2451.774	0.68	correct	repeat	Run3	repeat/STIM_006.jpg
2455.372	1.041	correct	repeat	Run3	repeat/STIM_006.jpg
2458.678	0.609	correct	repeat	Run3	repeat/STIM_006.jpg
2462.039	0.651	correct	repeat	Run3	repeat/STIM_006.jpg
2465.11	0.851	correct	repeat	Run3	repeat/STIM_006.jpg
2468.307	0.654	correct	repeat	Run3	repeat/STIM_007.jpg
2471.397	0.614	incorrect	repeat	Run3	repeat/STIM_007.jpg
2474.932	0.731	correct	repeat	Run3	repeat/STIM_007.jpg
2478.857	0.975	correct	repeat	Run3	repeat/STIM_007.jpg
2483.474	0.729	correct	repeat	Run3	repeat/STIM_007.jpg
2487.541	0.902	correct	repeat	Run3	repeat/STIM_008.jpg
2490.838	0.656	correct	repeat	Run3	repeat/STIM_008.jpg
2494.394	1.032	correct	repeat	Run3	repeat/STIM_008.jpg
2497.472	0.604	correct	repeat	Run3	repeat/STIM_008.jpg
2501.109	0.601	correct	repeat	Run3	repeat/STIM_008.jpg
2504.556	0.634	correct	repeat	Run3	repeat/STIM_009.jpg
2508.103	0.654	correct	repeat	Run3	repeat/STIM_009.jpg
2512.664	0.974	correct	repeat	Run3	repeat/STIM_009.jpg
2515.782	0.731	correct	repeat	Run3	repeat/STIM_009.jpg
2520.155	0.802	correct	repeat	Run3	repeat/STIM_009.jpg
2524.328	1.01	correct	repeat	Run3	repeat/STIM_010.jpg
2529.193	0.664	correct	repeat	Run3	repeat/STIM_010.jpg
2532.823	0.611	correct	repeat	Run3	repeat/STIM_010.jpg
2536.961	0.746	correct	repeat	Run3	repeat/STIM_010.jpg
2540.647	0.956	correct	repeat	Run3	repeat/STIM_010.jpg
2545.433	1.029	correct	repeat	Run3	repeat/STIM_011.jpg
2550.056	0.595	correct	repeat	Run3	repeat/STIM_011.jpg
2553.135	0.707	correct	repeat	Run3	repeat/STIM_011.jpg
2557.363	1.07	correct	repeat	Run3	repeat/STIM_011.jpg
2562.192	0.736	correct	repeat	Run3	repeat/STIM_011.jpg
2565.737	0.93	correct	repeat	Run3	repeat/STIM_012.jpg
2568.776	1.056	correct	repeat	Run3	repeat/STIM_012.jpg
2572.563	1.027	correct	repeat	Run3	repeat/STIM_012.jpg
2577.379	0.869	correct	repeat	Run3	repeat/STIM_012.jpg
2582.16	0.844	correct	repeat	Run3	repeat/STIM_012.jpg
2586.315	0.834	correct	repeat	Run3	repeat/STIM_013.jpg
2590.772	0.823	correct	repeat	Run3	repeat/STIM_013.jpg
2593.543	0.761	correct	repeat	Run3	repeat/STIM_013.jpg
2596.625	0.698	correct	repeat	Run3	repeat/STIM_013.jpg
2599.886	0.58	correct	repeat	Run3	repeat/STIM_013.jpg
2603.408	1.065	correct	repeat	Run3	repeat/STIM_014.jpg
2607.142	0.681	correct	repeat	Run3	repeat/STIM_014.jpg
2610.815	0.786	correct	repeat	Run3	repeat/STIM_014.jpg
2614.207	0.82	correct	repeat	Run3	repeat/STIM_014.jpg
2618.818	1.073	correct	repeat	Run3	repeat/STIM_014.jpg
2623.097	1.676	correct	generate	Run4	generate/STIM_000.jpg
2627.923	1.789	correct	generate	Run4	generate/STIM_000.jpg
2633.024	1.977	correct	generate	Run4	generate/STIM_000.jpg
2637.613	1.104	correct	generate	Run4	generate/STIM_000.jpg
2642.345	0.997	correct	generate	Run4	generate/STIM_000.jpg
2647.106	1.839	correct	generate	Run4	generate/STIM_001.jpg
2652.121	2.263	correct	generate	Run4	generate/STIM_001.jpg
2656.936	1.217	incorrect	generate	Run4	generate/STIM_001.jpg
2661.513	2.05	correct	generate	Run4	generate/STIM_001.jpg
2667.051	1.626	correct	generate	Run4	generate/STIM_001.jpg
2671.547	1.465	correct	generate	Run4	generate/STIM_002.jpg
2676.766	1.374	correct	generate	Run4	generate/STIM_002.jpg
2680.516	1.78	correct	generate	Run4	generate/STIM_002.jpg
2684.393	1.485	correct	generate	Run4	generate/STIM_002.jpg
2689.37	1.046	correct	generate	Run4	generate/STIM_002.jpg
2692.437	1.508	incorrect	generate	Run4	generate/STIM_003.jpg
2696.809	2.149	correct	generate	Run4	generate/STIM_003.jpg
2702.43	2.106	correct	generate	Run4	generate/STIM_003.jpg
2706.964	1.626	correct	generate	Run4	generate/STIM_003.jpg
2711.816	1.925	correct	generate	Run4	generate/STIM_003.jpg
2716.174	1.583	correct	generate	Run4	generate/STIM_004.jpg
2720.711	1.144	correct	generate	Run4	generate/STIM_004.jpg
2724.056	1.695	correct	generate	Run4	generate/STIM_004.jpg
2728.973	1.746	correct	generate	Run4	generate/STIM_004.jpg
2733.144	2.029	correct	generate	Run4	generate/STIM_004.jpg
2737.49	1.399	correct	generate	Run4	generate/STIM_005.jpg
2741.579	1.725	correct	generate	Run4	generate/STIM_005.jpg
2746.386	0.968	correct	generate	Run4	generate/STIM_005.jpg
2749.442	1.609	correct	generate	Run4	generate/STIM_005.jpg
2753.37	1.648	correct	generate	Run4	generate/STIM_005.jpg
2758.397	0.923	correct	generate	Run4	generate/STIM_006.jpg
2761.304	1.87	correct	generate	Run4	generate/STIM_006.jpg
2765.163	0.912	correct	generate	Run4	generate/STIM_006.jpg
2768.778	1.205	correct	generate	Run4	generate/STIM_006.jpg
2772.214	1.035	correct	generate	Run4	generate/STIM_006.jpg
2775.994	0.919	correct	generate	Run4	generate/STIM_007.jpg
2778.857	1.467	correct	generate	Run4	generate/STIM_007.jpg
2782.224	2.253	correct	generate	Run4	generate/STIM_007.jpg
2786.827	1.867	correct	generate	Run4	generate/STIM_007.jpg
2790.948	1.72	correct	generate	Run4	generate/STIM_007.jpg
2794.796	1.159	correct	generate	Run4	generate/STIM_008.jpg
2798.281	1.627	incorrect	generate	Run4	generate/STIM_008.jpg
2803.389	1.626	correct	generate	Run4	generate/STIM_008.jpg
2808.197	1.362	correct	generate	Run4	generate/STIM_008.jpg
2812.333	2.068	correct	generate	Run4	generate/STIM_008.jpg
2816.283	1.179	correct	generate	Run4	generate/STIM_009.jpg
2821.343	1.382	correct	generate	Run4	generate/STIM_009.jpg
2826.121	1.716	correct	generate	Run4	generate/STIM_009.jpg
2830.899	1.658	correct	generate	Run4	generate/STIM_009.jpg
2835.388	1.542	correct	generate	Run4	generate/STIM_009.jpg
2839.756	1.799	correct	generate	Run4	generate/STIM_010.jpg
2845.166	1.521	correct	generate	Run4	generate/STIM_010.jpg
2850.495	1.563	correct	generate	Run4	generate/STIM_010.jpg
2853.997	2.044	correct	generate	Run4	generate/STIM_010.jpg
2858.75	1.756	correct	generate	Run4	generate/STIM_010.jpg
2864.33	0.96	correct	generate	Run4	generate/STIM_011.jpg
2867.732	0.98	correct	generate	Run4	generate/STIM_011.jpg
2872.558	1.988	correct	generate	Run4	generate/STIM_011.jpg
2876.954	1.929	correct	generate	Run4	generate/STIM_011.jpg
2882.116	1.262	incorrect	generate	Run4	generate/STIM_011.jpg
2885.602	1.019	correct	generate	Run4	generate/STIM_012.jpg
2889.994	1.943	incorrect	generate	Run4	generate/STIM_012.jpg
2895.667	1.905	correct	generate	Run4	generate/STIM_012.jpg
2900.43	1.896	correct	generate	Run4	generate/STIM_012.jpg
2904.451	1.93	correct	generate	Run4	generate/STIM_012.jpg
2909.38	1.77	correct	generate	Run4	generate/STIM_013.jpg
2914.724	1.466	correct	generate	Run4	generate/STIM_013.jpg
2918.541	1.13	correct	generate	Run4	generate/STIM_013.jpg
2923.002	1.704	correct	generate	Run4	generate/STIM_013.jpg
2927.51	1.418	correct	generate	Run4	generate/STIM_013.jpg
2932.28	1.473	correct	generate	Run4	generate/STIM_014.jpg
2935.711	1.422	correct	generate	Run4	generate/STIM_014.jpg
2939.378	1.482	correct	generate	Run4	generate/STIM_014.jpg
2944.267	1.151	correct	generate	Run4	generate/STIM_014.jpg
2947.737	1.912	correct	generate	Run4	generate/STIM_014.jpg
2952.897	1.889	correct	generate	Run4	generate/STIM_015.jpg
2958.251	0.992	correct	generate	Run4	generate/STIM_015.jpg
2961.818	0.932	correct	generate	Run4	generate/STIM_015.jpg
2966.085	1.906	correct	generate	Run4	generate/STIM_015.jpg
2971.292	2.112	correct	generate	Run4	generate/STIM_015.jpg
2976.431	1.308	correct	generate	Run4	generate/STIM_016.jpg
2980.417	1.116	correct	generate	Run4	generate/STIM_016.jpg
2984.655	1.25	correct	generate	Run4	generate/STIM_016.jpg
2989.685	1.453	correct	generate	Run4	generate/STIM_016.jpg
2994.364	1.393	correct	generate	Run4	generate/STIM_016.jpg
2998.213	0.977	correct	generate	Run4	generate/STIM_017.jpg
3002.707	1.114	correct	generate	Run4	generate/STIM_017.jpg
3006.778	1.437	correct	generate	Run4	generate/STIM_017.jpg
3010.458	1.187	correct	generate	Run4	generate/STIM_017.jpg
3014.995	2.064	correct	generate	Run4	generate/STIM_017.jpg
3020.374	1.574	correct	generate	Run4	generate/STIM_018.jpg
3024.241	1.492	correct	generate	Run4	generate/STIM_018.jpg
3027.648	1.961	correct	generate	Run4	generate/STIM_018.jpg
3033.22	1.645	correct	generate	Run4	generate/STIM_018.jpg
3037.808	1.443	correct	generate	Run4	generate/STIM_018.jpg
3041.576	1.221	correct	generate	Run4	generate/STIM_019.jpg
3046.416	2.013	correct	generate	Run4	generate/STIM_019.jpg
3051.396	1.734	correct	generate	Run4	generate/STIM_019.jpg
3055.583	0.929	correct	generate	Run4	generate/STIM_019.jpg
3060.248	1.917	correct	generate	Run4	generate/STIM_019.jpg
3064.99	1.609	correct	generate	Run4	generate/STIM_020.jpg
3070.472	1.023	correct	generate	Run4	generate/STIM_020.jpg
3073.852	1.448	correct	generate	Run4	generate/STIM_020.jpg
3077.737	1.261	correct	generate	Run4	generate/STIM_020.jpg
3080.982	2.013	correct	generate	Run4	generate/STIM_020.jpg
3084.926	1.671	correct	generate	Run4	generate/STIM_021.jpg
3089.421	1.721	correct	generate	Run4	generate/STIM_021.jpg
3093.735	1.404	correct	generate	Run4	generate/STIM_021.jpg
3098.878	1.657	correct	generate	Run4	generate/STIM_021.jpg
3104.134	1.888	correct	generate	Run4	generate/STIM_021.jpg
3108.381	1.705	correct	generate	Run4	generate/STIM_022.jpg
3112.429	2.16	correct	generate	Run4	generate/STIM_022.jpg
3118.24	2.066	correct	generate	Run4	generate/STIM_022.jpg
3123.4	1.49	correct	generate	Run4	generate/STIM_022.jpg
3127.751	1.875	correct	generate	Run4	generate/STIM_022.jpg
3132.159	1.478	correct	generate	Run4	generate/STIM_023.jpg
3137.443	2.058	correct	generate	Run4	generate/STIM_023.jpg
3142.926	1.226	correct	generate	Run4	generate/STIM_023.jpg
3147.513	1.611	correct	generate	Run4	generate/STIM_023.jpg
3151.417	0.965	correct	generate	Run4	generate/STIM_023.jpg
3156.007	1.775	correct	generate	Run4	generate/STIM_024.jpg
3159.945	2.09	correct	generate	Run4	generate/STIM_024.jpg
3165.688	2.169	correct	generate	Run4	generate/STIM_024.jpg
3169.982	1.904	correct	generate	Run4	generate/STIM_024.jpg
3174.01	2.001	correct	generate	Run4	generate/STIM_024.jpg
3177.975	1.053	correct	repeat	Run4	repeat/STIM_000.jpg
3182.137	0.586	correct	repeat	Run4	repeat/STIM_000.jpg
3186.365	0.929	correct	repeat	Run4	repeat/STIM_000.jpg
3190.366	0.556	correct	repeat	Run4	repeat/STIM_000.jpg
3193.024	0.892	correct	repeat	Run4	repeat/STIM_000.jpg
3195.954	1.06	correct	repeat	Run4	repeat/STIM_001.jpg
3199.744	0.577	correct	repeat	Run4	repeat/STIM_001.jpg
3204.208	1.0	correct	repeat	Run4	repeat/STIM_001.jpg
3208.625	0.799	correct	repeat	Run4	repeat/STIM_001.jpg
3211.978	0.99	correct	repeat	Run4	repeat/STIM_001.jpg
3215.633	0.657	correct	repeat	Run4	repeat/STIM_002.jpg
3220.213	0.896	incorrect	repeat	Run4	repeat/STIM_002.jpg
3223.21	0.945	correct	repeat	Run4	repeat/STIM_002.jpg
3227.887	0.747	correct	repeat	Run4	repeat/STIM_002.jpg
3231.549	0.783	correct	repeat	Run4	repeat/STIM_002.jpg
3234.646	0.897	incorrect	repeat	Run4	repeat/STIM_003.jpg
3239.339	0.987	correct	repeat	Run4	repeat/STIM_003.jpg
3243.312	1.074	correct	repeat	Run4	repeat/STIM_003.jpg
3246.481	0.567	correct	repeat	Run4	repeat/STIM_003.jpg
3249.834	0.787	correct	repeat	Run4	repeat/STIM_003.jpg
3253.958	0.766	correct	repeat	Run4	repeat/STIM_004.jpg
3258.5	0.887	correct	repeat	Run4	repeat/STIM_004.jpg
3261.955	0.958	correct	repeat	Run4	repeat/STIM_004.jpg
3266.708	0.977	correct	repeat	Run4	repeat/STIM_004.jpg
3271.529	0.814	correct	repeat	Run4	repeat/STIM_004.jpg
3276.193	0.745	incorrect	repeat	Run4	repeat/STIM_005.jpg
3280.863	0.831	correct	repeat	Run4	repeat/STIM_005.jpg
3285.474	1.024	correct	repeat	Run4	repeat/STIM_005.jpg
3290.284	0.924	correct	repeat	Run4	repeat/STIM_005.jpg
3294.261	1.021	correct	repeat	Run4	repeat/STIM_005.jpg
3298.057	1.026	correct	repeat	Run4	repeat/STIM_006.jpg
3301.48	0.713	correct	repeat	Run4	repeat/STIM_006.jpg
3305.549	0.935	correct	repeat	Run4	repeat/STIM_006.jpg
3309.099	0.64	correct	repeat	Run4	repeat/STIM_006.jpg
3312.054	0.838	correct	repeat	Run4	repeat/STIM_006.jpg
3315.251	0.682	correct	repeat	Run4	repeat/STIM_007.jpg
3319.16	0.824	correct	repeat	Run4	repeat/STIM_007.jpg
3323.526	0.938	correct	repeat	Run4	repeat/STIM_007.jpg
3328.148	0.572	correct	repeat	Run4	repeat/STIM_007.jpg
3330.922	0.921	incorrect	repeat	Run4	repeat/STIM_007.jpg
3335.607	1.002	correct	repeat	Run4	repeat/STIM_008.jpg
3338.583	0.853	correct	repeat	Run4	repeat/STIM_008.jpg
3343.003	0.649	correct	repeat	Run4	repeat/STIM_008.jpg
3346.999	0.866	correct	repeat	Run4	repeat/STIM_008.jpg
3351.693	0.873	correct	repeat	Run4	repeat/STIM_008.jpg
3356.439	1.061	correct	repeat	Run4	repeat/STIM_009.jpg
3360.781	0.952	correct	repeat	Run4	repeat/STIM_009.jpg
3363.92	0.917	correct	repeat	Run4	repeat/STIM_009.jpg
3368.679	0.605	incorrect	repeat	Run4	repeat/STIM_009.jpg
3373.216	0.604	correct	repeat	Run4	repeat/STIM_009.jpg
3376.814	0.684	correct	repeat	Run4	repeat/STIM_010.jpg
3380.258	0.728	correct	repeat	Run4	repeat/STIM_010.jpg
3384.398	0.955	correct	repeat	Run4	repeat/STIM_010.jpg
3387.611	0.742	correct	repeat	Run4	repeat/STIM_010.jpg
3391.838	0.981	correct	repeat	Run4	repeat/STIM_010.jpg
3395.687	0.818	correct	repeat	Run4	repeat/STIM_011.jpg
3399.667	0.546	correct	repeat	Run4	repeat/STIM_011.jpg
3402.224	1.002	correct	repeat	Run4	repeat/STIM_011.jpg
3406.369	0.937	correct	repeat	Run4	repeat/STIM_011.jpg
3409.642	1.022	correct	repeat	Run4	repeat/STIM_011.jpg
3414.297	0.626	correct	repeat	Run4	repeat/STIM_012.jpg
3417.494	0.988	correct	repeat	Run4	repeat/STIM_012.jpg
3422.201	0.878	correct	repeat	Run4	repeat/STIM_012.jpg
3425.256	0.693	correct	repeat	Run4	repeat/STIM_012.jpg
3429.659	0.982	correct	repeat	Run4	repeat/STIM_012.jpg
3432.651	0.892	correct	repeat	Run4	repeat/STIM_013.jpg
3435.785	0.579	correct	repeat	Run4	repeat/STIM_013.jpg
3439.927	0.566	correct	repeat	Run4	repeat/STIM_013.jpg
3443.833	0.957	correct	repeat	Run4	repeat/STIM_013.jpg
3448.035	0.572	correct	repeat	Run4	repeat/STIM_013.jpg
3451.373	0.912	correct	repeat	Run4	repeat/STIM_014.jpg
3455.934	0.916	correct	repeat	Run4	repeat/STIM_014.jpg
3458.95	1.048	incorrect	repeat	Run4	repeat/STIM_014.jpg
3463.467	0.625	correct	repeat	Run4	repeat/STIM_014.jpg
3467.816	0.628	correct	repeat	Run4	repeat/STIM_014.jpg
