onset	duration	accuracy_binary	trial_type	learning_stage	stimulus
0.0	1.405	0	generate	Run1	generate/STIM_000.jpg
4.974	1.07	0	generate	Run1	generate/STIM_000.jpg
8.985	1.95	0	generate	Run1	generate/STIM_000.jpg
14.615	0.901	0	generate	Run1	generate/STIM_000.jpg
17.871	2.074	1	generate	Run1	generate/STIM_000.jpg
23.732	2.238	0	generate	Run1	generate/STIM_001.jpg
29.712	1.054	0	generate	Run1	generate/STIM_001.jpg
34.721	1.004	0	generate	Run1	generate/STIM_001.jpg
39.546	1.573	1	generate	Run1	generate/STIM_001.jpg
43.828	1.614	0	generate	Run1	generate/STIM_001.jpg
47.799	1.52	0	generate	Run1	generate/STIM_002.jpg
52.887	2.181	0	generate	Run1	generate/STIM_002.jpg
57.183	2.069	1	generate	Run1	generate/STIM_002.jpg
62.653	2.154	0	generate	Run1	generate/STIM_002.jpg
67.994	2.023	1	generate	Run1	generate/STIM_002.jpg
73.681	1.106	1	generate	Run1	generate/STIM_003.jpg
78.778	2.128	1	generate	Run1	generate/STIM_003.jpg
84.272	1.766	0	generate	Run1	generate/STIM_003.jpg
89.852	1.902	0	generate	Run1	generate/STIM_003.jpg
93.901	1.924	0	generate	Run1	generate/STIM_003.jpg
98.36	2.118	1	generate	Run1	generate/STIM_004.jpg
103.172	1.523	1	generate	Run1	generate/STIM_004.jpg
108.316	1.337	0	generate	Run1	generate/STIM_004.jpg
112.93	1.79	0	generate	Run1	generate/STIM_004.jpg
118.675	1.84	1	generate	Run1	generate/STIM_004.jpg
123.983	2.437	0	generate	Run1	generate/STIM_005.jpg
129.676	1.213	1	generate	Run1	generate/STIM_005.jpg
133.889	1.443	0	generate	Run1	generate/STIM_005.jpg
138.293	1.437	0	generate	Run1	generate/STIM_005.jpg
141.865	1.307	1	generate	Run1	generate/STIM_005.jpg
146.037	1.172	0	generate	Run1	generate/STIM_006.jpg
150.797	1.778	1	generate	Run1	generate/STIM_006.jpg
155.522	0.964	1	generate	Run1	generate/STIM_006.jpg
159.051	1.437	0	generate	Run1	generate/STIM_006.jpg
163.24	0.985	0	generate	Run1	generate/STIM_006.jpg
167.291	1.498	1	generate	Run1	generate/STIM_007.jpg
170.977	2.209	1	generate	Run1	generate/STIM_007.jpg
176.811	2.366	0	generate	Run1	generate/STIM_007.jpg
181.567	1.758	1	generate	Run1	generate/STIM_007.jpg
186.612	1.834	1	generate	Run1	generate/STIM_007.jpg
191.741	2.034	1	generate	Run1	generate/STIM_008.jpg
197.331	1.638	0	generate	Run1	generate/STIM_008.jpg
201.375	1.93	1	generate	Run1	generate/STIM_008.jpg
205.729	1.013	1	generate	Run1	generate/STIM_008.jpg
208.753	0.95	1	generate	Run1	generate/STIM_008.jpg
213.581	2.575	0	generate	Run1	generate/STIM_009.jpg
219.486	2.427	0	generate	Run1	generate/STIM_009.jpg
225.796	1.218	1	generate	Run1	generate/STIM_009.jpg
230.368	2.135	0	generate	Run1	generate/STIM_009.jpg
236.338	1.954	0	generate	Run1	generate/STIM_009.jpg
242.234	2.3	0	generate	Run1	generate/STIM_010.jpg
246.932	1.923	1	generate	Run1	generate/STIM_010.jpg
251.715	1.934	0	generate	Run1	generate/STIM_010.jpg
256.619	0.986	1	generate	Run1	generate/STIM_010.jpg
260.235	0.853	1	generate	Run1	generate/STIM_010.jpg
264.886	2.476	0	generate	Run1	generate/STIM_011.jpg
270.959	2.079	0	generate	Run1	generate/STIM_011.jpg
276.053	1.963	0	generate	Run1	generate/STIM_011.jpg
280.118	1.56	0	generate	Run1	generate/STIM_011.jpg
284.414	1.063	1	generate	Run1	generate/STIM_011.jpg
288.531	1.182	1	generate	Run1	generate/STIM_012.jpg
292.912	2.086	0	generate	Run1	generate/STIM_012.jpg
298.523	1.234	1	generate	Run1	generate/STIM_012.jpg
303.73	0.988	0	generate	Run1	generate/STIM_012.jpg
308.119	1.114	1	generate	Run1	generate/STIM_012.jpg
311.499	2.008	0	generate	Run1	generate/STIM_013.jpg
315.56	1.698	0	generate	Run1	generate/STIM_013.jpg
319.279	0.968	0	generate	Run1	generate/STIM_013.jpg
322.882	1.961	1	generate	Run1	generate/STIM_013.jpg
328.262	1.769	1	generate	Run1	generate/STIM_013.jpg
333.57	1.271	0	generate	Run1	generate/STIM_014.jpg
337.658	1.228	0	generate	Run1	generate/STIM_014.jpg
342.557	2.166	1	generate	Run1	generate/STIM_014.jpg
346.83	1.785	0	generate	Run1	generate/STIM_014.jpg
351.783	1.204	1	generate	Run1	generate/STIM_014.jpg
356.043	1.782	1	generate	Run1	generate/STIM_015.jpg
361.285	2.074	1	generate	Run1	generate/STIM_015.jpg
365.965	1.697	0	generate	Run1	generate/STIM_015.jpg
370.446	1.303	0	generate	Run1	generate/STIM_015.jpg
374.115	1.569	0	generate	Run1	generate/STIM_015.jpg
379.09	1.498	1	generate	Run1	generate/STIM_016.jpg
383.578	2.339	0	generate	Run1	generate/STIM_016.jpg
388.338	1.919	1	generate	Run1	generate/STIM_016.jpg
392.743	1.502	1	generate	Run1	generate/STIM_016.jpg
397.92	1.402	0	generate	Run1	generate/STIM_016.jpg
402.612	1.741	1	generate	Run1	generate/STIM_017.jpg
406.738	1.54	1	generate	Run1	generate/STIM_017.jpg
412.142	2.082	1	generate	Run1	generate/STIM_017.jpg
416.408	2.145	1	generate	Run1	generate/STIM_017.jpg
421.094	1.812	0	generate	Run1	generate/STIM_017.jpg
425.602	1.32	0	generate	Run1	generate/STIM_018.jpg
429.596	1.034	0	generate	Run1	generate/STIM_018.jpg
434.288	1.538	1	generate	Run1	generate/STIM_018.jpg
439.229	1.055	1	generate	Run1	generate/STIM_018.jpg
443.503	1.213	1	generate	Run1	generate/STIM_018.jpg
448.068	1.217	1	generate	Run1	generate/STIM_019.jpg
452.15	2.028	1	generate	Run1	generate/STIM_019.jpg
456.75	1.308	0	generate	Run1	generate/STIM_019.jpg
461.572	2.174	1	generate	Run1	generate/STIM_019.jpg
466.48	1.529	0	generate	Run1	generate/STIM_019.jpg
470.094	1.504	1	generate	Run1	generate/STIM_020.jpg
475.066	2.325	0	generate	Run1	generate/STIM_020.jpg
480.988	1.088	1	generate	Run1	generate/STIM_020.jpg
485.705	1.401	1	generate	Run1	generate/STIM_020.jpg
490.011	1.305	1	generate	Run1	generate/STIM_020.jpg
493.812	2.285	0	generate	Run1	generate/STIM_021.jpg
498.609	1.566	0	generate	Run1	generate/STIM_021.jpg
503.82	1.163	1	generate	Run1	generate/STIM_021.jpg
507.089	0.951	1	generate	Run1	generate/STIM_021.jpg
511.168	0.854	0	generate	Run1	generate/STIM_021.jpg
514.863	1.992	1	generate	Run1	generate/STIM_022.jpg
520.131	2.424	0	generate	Run1	generate/STIM_022.jpg
525.451	1.417	0	generate	Run1	generate/STIM_022.jpg
530.162	1.633	0	generate	Run1	generate/STIM_022.jpg
535.636	1.946	1	generate	Run1	generate/STIM_022.jpg
539.798	1.664	1	generate	Run1	generate/STIM_023.jpg
544.014	1.448	1	generate	Run1	generate/STIM_023.jpg
548.928	1.934	0	generate	Run1	generate/STIM_023.jpg
553.752	0.913	1	generate	Run1	generate/STIM_023.jpg
556.708	1.539	0	generate	Run1	generate/STIM_023.jpg
561.391	1.369	1	generate	Run1	generate/STIM_024.jpg
566.161	1.706	1	generate	Run1	generate/STIM_024.jpg
570.781	1.43	1	generate	Run1	generate/STIM_024.jpg
575.754	1.467	0	generate	Run1	generate/STIM_024.jpg
580.695	1.319	1	generate	Run1	generate/STIM_024.jpg
585.384	0.666	0	repeat	Run1	repeat/STIM_000.jpg
588.662	0.614	1	repeat	Run1	repeat/STIM_000.jpg
591.663	0.762	1	repeat	Run1	repeat/STIM_000.jpg
596.08	0.867	1	repeat	Run1	repeat/STIM_000.jpg
599.846	0.857	1	repeat	Run1	repeat/STIM_000.jpg
602.926	0.785	1	repeat	Run1	repeat/STIM_001.jpg
606.488	0.769	1	repeat	Run1	repeat/STIM_001.jpg
610.922	0.728	1	repeat	Run1	repeat/STIM_001.jpg
614.426	0.795	1	repeat	Run1	repeat/STIM_001.jpg
618.773	0.847	1	repeat	Run1	repeat/STIM_001.jpg
623.322	0.649	0	repeat	Run1	repeat/STIM_002.jpg
627.782	0.81	1	repeat	Run1	repeat/STIM_002.jpg
632.578	0.49	0	repeat	Run1	repeat/STIM_002.jpg
636.81	0.574	0	repeat	Run1	repeat/STIM_002.jpg
641.129	0.785	0	repeat	Run1	repeat/STIM_002.jpg
645.623	0.531	1	repeat	Run1	repeat/STIM_003.jpg
649.767	0.752	1	repeat	Run1	repeat/STIM_003.jpg
653.089	0.866	1	repeat	Run1	repeat/STIM_003.jpg
656.285	0.664	1	repeat	Run1	repeat/STIM_003.jpg
659.902	0.685	1	repeat	Run1	repeat/STIM_003.jpg
663.13	0.799	1	repeat	Run1	repeat/STIM_004.jpg
666.841	0.853	1	repeat	Run1	repeat/STIM_004.jpg
670.837	0.788	0	repeat	Run1	repeat/STIM_004.jpg
675.207	0.704	0	repeat	Run1	repeat/STIM_004.jpg
678.775	0.813	0	repeat	Run1	repeat/STIM_004.jpg
683.056	0.793	1	repeat	Run1	repeat/STIM_005.jpg
686.98	0.457	1	repeat	Run1	repeat/STIM_005.jpg
689.958	0.559	1	repeat	Run1	repeat/STIM_005.jpg
692.948	0.745	1	repeat	Run1	repeat/STIM_005.jpg
696.559	0.623	1	repeat	Run1	repeat/STIM_005.jpg
699.306	0.844	0	repeat	Run1	repeat/STIM_006.jpg
702.439	0.51	1	repeat	Run1	repeat/STIM_006.jpg
706.1	0.692	0	repeat	Run1	repeat/STIM_006.jpg
710.425	0.874	0	repeat	Run1	repeat/STIM_006.jpg
714.522	0.464	1	repeat	Run1	repeat/STIM_006.jpg
718.362	0.697	1	repeat	Run1	repeat/STIM_007.jpg
721.755	0.851	1	repeat	Run1	repeat/STIM_007.jpg
725.045	0.77	1	repeat	Run1	repeat/STIM_007.jpg
729.471	0.855	1	repeat	Run1	repeat/STIM_007.jpg
732.672	0.453	1	repeat	Run1	repeat/STIM_007.jpg
735.362	0.861	0	repeat	Run1	repeat/STIM_008.jpg
739.067	0.441	0	repeat	Run1	repeat/STIM_008.jpg
742.771	0.634	1	repeat	Run1	repeat/STIM_008.jpg
746.225	0.543	0	repeat	Run1	repeat/STIM_008.jpg
750.598	0.866	0	repeat	Run1	repeat/STIM_008.jpg
754.133	0.646	0	repeat	Run1	repeat/STIM_009.jpg
757.554	0.678	1	repeat	Run1	repeat/STIM_009.jpg
760.321	0.649	1	repeat	Run1	repeat/STIM_009.jpg
763.819	0.69	1	repeat	Run1	repeat/STIM_009.jpg
768.077	0.85	1	repeat	Run1	repeat/STIM_009.jpg
771.492	0.54	1	repeat	Run1	repeat/STIM_010.jpg
775.928	0.85	1	repeat	Run1	repeat/STIM_010.jpg
779.637	0.509	1	repeat	Run1	repeat/STIM_010.jpg
782.918	0.683	1	repeat	Run1	repeat/STIM_010.jpg
786.396	0.481	1	repeat	Run1	repeat/STIM_010.jpg
790.5	0.681	1	repeat	Run1	repeat/STIM_011.jpg
794.582	0.64	1	repeat	Run1	repeat/STIM_011.jpg
798.111	0.867	1	repeat	Run1	repeat/STIM_011.jpg
802.207	0.459	1	repeat	Run1	repeat/STIM_011.jpg
805.91	0.62	1	repeat	Run1	repeat/STIM_011.jpg
808.924	0.582	1	repeat	Run1	repeat/STIM_012.jpg
811.522	0.519	1	repeat	Run1	repeat/STIM_012.jpg
814.277	0.667	0	repeat	Run1	repeat/STIM_012.jpg
818.556	0.842	1	repeat	Run1	repeat/STIM_012.jpg
822.422	0.82	1	repeat	Run1	repeat/STIM_012.jpg
826.499	0.575	1	repeat	Run1	repeat/STIM_013.jpg
830.486	0.788	1	repeat	Run1	repeat/STIM_013.jpg
833.676	0.677	0	repeat	Run1	repeat/STIM_013.jpg
836.988	0.848	1	repeat	Run1	repeat/STIM_013.jpg
841.253	0.76	1	repeat	Run1	repeat/STIM_013.jpg
845.071	0.794	0	repeat	Run1	repeat/STIM_014.jpg
849.383	0.84	1	repeat	Run1	repeat/STIM_014.jpg
854.148	0.841	1	repeat	Run1	repeat/STIM_014.jpg
858.09	0.441	1	repeat	Run1	repeat/STIM_014.jpg
862.369	0.634	1	repeat	Run1	repeat/STIM_014.jpg
866.483	1.701	1	generate	Run2	generate/STIM_000.jpg
870.543	1.24	1	generate	Run2	generate/STIM_000.jpg
875.104	1.766	0	generate	Run2	generate/STIM_000.jpg
879.316	1.403	1	generate	Run2	generate/STIM_000.jpg
884.026	1.449	0	generate	Run2	generate/STIM_000.jpg
888.886	1.975	1	generate	Run2	generate/STIM_001.jpg
893.912	1.942	1	generate	Run2	generate/STIM_001.jpg
898.514	1.122	1	generate	Run2	generate/STIM_001.jpg
903.02	1.278	0	generate	Run2	generate/STIM_001.jpg
906.885	1.71	1	generate	Run2	generate/STIM_001.jpg
911.625	1.325	0	generate	Run2	generate/STIM_002.jpg
915.344	1.89	1	generate	Run2	generate/STIM_002.jpg
920.113	1.88	1	generate	Run2	generate/STIM_002.jpg
925.547	1.802	1	generate	Run2	generate/STIM_002.jpg
930.845	1.033	1	generate	Run2	generate/STIM_002.jpg
934.7	1.41	1	generate	Run2	generate/STIM_003.jpg
938.232	1.291	1	generate	Run2	generate/STIM_003.jpg
942.06	1.146	1	generate	Run2	generate/STIM_003.jpg
945.33	1.647	1	generate	Run2	generate/STIM_003.jpg
949.263	0.996	1	generate	Run2	generate/STIM_003.jpg
953.201	1.314	1	generate	Run2	generate/STIM_004.jpg
958.068	0.996	0	generate	Run2	generate/STIM_004.jpg
961.603	1.7	1	generate	Run2	generate/STIM_004.jpg
967.171	1.827	1	generate	Run2	generate/STIM_004.jpg
972.94	0.952	0	generate	Run2	generate/STIM_004.jpg
976.235	0.923	0	generate	Run2	generate/STIM_005.jpg
980.367	0.898	1	generate	Run2	generate/STIM_005.jpg
984.166	1.052	1	generate	Run2	generate/STIM_005.jpg
987.832	0.762	1	generate	Run2	generate/STIM_005.jpg
990.821	1.675	1	generate	Run2	generate/STIM_005.jpg
994.679	1.384	0	generate	Run2	generate/STIM_006.jpg
999.6	2.067	0	generate	Run2	generate/STIM_006.jpg
1004.101	1.67	0	generate	Run2	generate/STIM_006.jpg
1009.244	0.795	1	generate	Run2	generate/STIM_006.jpg
1013.008	1.658	1	generate	Run2	generate/STIM_006.jpg
1016.98	1.375	0	generate	Run2	generate/STIM_007.jpg
1020.679	0.962	1	generate	Run2	generate/STIM_007.jpg
1023.971	0.909	0	generate	Run2	generate/STIM_007.jpg
1028.576	1.68	0	generate	Run2	generate/STIM_007.jpg
1033.087	1.64	1	generate	Run2	generate/STIM_007.jpg
1038.565	1.714	0	generate	Run2	generate/STIM_008.jpg
1043.906	1.085	0	generate	Run2	generate/STIM_008.jpg
1048.412	1.836	1	generate	Run2	generate/STIM_008.jpg
1052.551	1.416	1	generate	Run2	generate/STIM_008.jpg
1057.256	1.67	0	generate	Run2	generate/STIM_008.jpg
1061.088	2.144	1	generate	Run2	generate/STIM_009.jpg
1067.176	1.904	0	generate	Run2	generate/STIM_009.jpg
1071.921	0.879	1	generate	Run2	generate/STIM_009.jpg
1075.422	0.924	1	generate	Run2	generate/STIM_009.jpg
1080.036	1.142	0	generate	Run2	generate/STIM_009.jpg
1084.492	1.287	1	generate	Run2	generate/STIM_010.jpg
1089.064	1.621	1	generate	Run2	generate/STIM_010.jpg
1093.415	1.427	0	generate	Run2	generate/STIM_010.jpg
1097.188	1.377	1	generate	Run2	generate/STIM_010.jpg
1100.567	1.626	1	generate	Run2	generate/STIM_010.jpg
1105.303	1.488	0	generate	Run2	generate/STIM_011.jpg
1109.821	1.718	0	generate	Run2	generate/STIM_011.jpg
1115.002	1.802	1	generate	Run2	generate/STIM_011.jpg
1118.94	0.753	1	generate	Run2	generate/STIM_011.jpg
1123.67	1.363	1	generate	Run2	generate/STIM_011.jpg
1128.341	1.374	1	generate	Run2	generate/STIM_012.jpg
1133.016	1.942	1	generate	Run2	generate/STIM_012.jpg
1138.019	1.722	1	generate	Run2	generate/STIM_012.jpg
1142.863	0.784	0	generate	Run2	generate/STIM_012.jpg
1146.621	0.896	1	generate	Run2	generate/STIM_012.jpg
1150.492	1.275	0	generate	Run2	generate/STIM_013.jpg
1155.024	1.368	1	generate	Run2	generate/STIM_013.jpg
1159.672	1.253	1	generate	Run2	generate/STIM_013.jpg
1163.52	1.414	0	generate	Run2	generate/STIM_013.jpg
1167.704	1.6	1	generate	Run2	generate/STIM_013.jpg
1173.053	1.852	1	generate	Run2	generate/STIM_014.jpg
1177.691	0.873	1	generate	Run2	generate/STIM_014.jpg
1182.303	1.111	1	generate	Run2	generate/STIM_014.jpg
1186.561	0.866	1	generate	Run2	generate/STIM_014.jpg
1190.125	0.863	0	generate	Run2	generate/STIM_014.jpg
1193.478	1.965	0	generate	Run2	generate/STIM_015.jpg
1198.222	1.273	1	generate	Run2	generate/STIM_015.jpg
1201.626	1.283	1	generate	Run2	generate/STIM_015.jpg
1206.362	1.146	0	generate	Run2	generate/STIM_015.jpg
1210.744	1.637	0	generate	Run2	generate/STIM_015.jpg
1214.742	1.34	0	generate	Run2	generate/STIM_016.jpg
1218.288	1.892	1	generate	Run2	generate/STIM_016.jpg
1224.05	1.546	0	generate	Run2	generate/STIM_016.jpg
1228.222	1.175	1	generate	Run2	generate/STIM_016.jpg
1231.788	1.159	1	generate	Run2	generate/STIM_016.jpg
1235.802	1.44	1	generate	Run2	generate/STIM_017.jpg
1240.218	1.381	0	generate	Run2	generate/STIM_017.jpg
1245.593	1.208	1	generate	Run2	generate/STIM_017.jpg
1250.608	1.654	0	generate	Run2	generate/STIM_017.jpg
1254.861	1.671	1	generate	Run2	generate/STIM_017.jpg
1259.506	1.58	0	generate	Run2	generate/STIM_018.jpg
1263.225	1.752	1	generate	Run2	generate/STIM_018.jpg
1267.578	0.949	1	generate	Run2	generate/STIM_018.jpg
1270.775	1.558	1	generate	Run2	generate/STIM_018.jpg
1274.63	1.408	1	generate	Run2	generate/STIM_018.jpg
1279.1	1.363	1	generate	Run2	generate/STIM_019.jpg
1284.363	0.86	1	generate	Run2	generate/STIM_019.jpg
1288.272	1.259	0	generate	Run2	generate/STIM_019.jpg
1293.205	0.962	0	generate	Run2	generate/STIM_019.jpg
1296.354	1.589	1	generate	Run2	generate/STIM_019.jpg
1301.871	0.981	1	generate	Run2	generate/STIM_020.jpg
1305.801	1.62	0	generate	Run2	generate/STIM_020.jpg
1310.967	1.31	0	generate	Run2	generate/STIM_020.jpg
1316.274	1.727	1	generate	Run2	generate/STIM_020.jpg
1321.03	1.668	1	generate	Run2	generate/STIM_020.jpg
1326.566	1.514	1	generate	Run2	generate/STIM_021.jpg
1331.867	1.495	1	generate	Run2	generate/STIM_021.jpg
1335.779	1.722	0	generate	Run2	generate/STIM_021.jpg
1341.33	1.717	1	generate	Run2	generate/STIM_021.jpg
1346.669	0.939	1	generate	Run2	generate/STIM_021.jpg
1349.654	0.922	1	generate	Run2	generate/STIM_022.jpg
1353.696	1.508	0	generate	Run2	generate/STIM_022.jpg
1359.088	1.54	1	generate	Run2	generate/STIM_022.jpg
1363.672	1.455	1	generate	Run2	generate/STIM_022.jpg
1367.996	0.849	1	generate	Run2	generate/STIM_022.jpg
1372.816	1.234	1	generate	Run2	generate/STIM_023.jpg
1377.527	1.138	0	generate	Run2	generate/STIM_023.jpg
1382.157	1.748	1	generate	Run2	generate/STIM_023.jpg
1386.451	1.681	1	generate	Run2	generate/STIM_023.jpg
1392.005	0.893	1	generate	Run2	generate/STIM_023.jpg
1395.86	1.297	0	generate	Run2	generate/STIM_024.jpg
1399.346	1.838	1	generate	Run2	generate/STIM_024.jpg
1403.228	1.23	1	generate	Run2	generate/STIM_024.jpg
1407.604	1.435	1	generate	Run2	generate/STIM_024.jpg
1412.523	1.49	1	generate	Run2	generate/STIM_024.jpg
1417.915	0.858	1	repeat	Run2	repeat/STIM_000.jpg
1422.075	0.613	1	repeat	Run2	repeat/STIM_000.jpg
1425.784	0.439	0	repeat	Run2	repeat/STIM_000.jpg
1429.598	0.823	1	repeat	Run2	repeat/STIM_000.jpg
1432.992	0.676	1	repeat	Run2	repeat/STIM_000.jpg
1435.92	0.737	1	repeat	Run2	repeat/STIM_001.jpg
1440.22	0.632	1	repeat	Run2	repeat/STIM_001.jpg
1443.377	0.582	1	repeat	Run2	repeat/STIM_001.jpg
1445.983	0.632	1	repeat	Run2	repeat/STIM_001.jpg
1449.875	0.654	1	repeat	Run2	repeat/STIM_001.jpg
1453.43	0.639	1	repeat	Run2	repeat/STIM_002.jpg
1456.519	0.768	0	repeat	Run2	repeat/STIM_002.jpg
1459.822	0.45	1	repeat	Run2	repeat/STIM_002.jpg
1463.367	0.827	0	repeat	Run2	repeat/STIM_002.jpg
1466.553	0.659	1	repeat	Run2	repeat/STIM_002.jpg
1470.773	0.785	1	repeat	Run2	repeat/STIM_003.jpg
1474.325	0.832	1	repeat	Run2	repeat/STIM_003.jpg
1477.79	0.778	1	repeat	Run2	repeat/STIM_003.jpg
1481.736	0.677	1	repeat	Run2	repeat/STIM_003.jpg
1484.653	0.741	1	repeat	Run2	repeat/STIM_003.jpg
1488.237	0.484	1	repeat	Run2	repeat/STIM_004.jpg
1492.583	0.463	1	repeat	Run2	repeat/STIM_004.jpg
1495.433	0.595	1	repeat	Run2	repeat/STIM_004.jpg
1498.676	0.626	1	repeat	Run2	repeat/STIM_004.jpg
1501.681	0.581	1	repeat	Run2	repeat/STIM_004.jpg
1505.35	0.809	1	repeat	Run2	repeat/STIM_005.jpg
1509.147	0.869	1	repeat	Run2	repeat/STIM_005.jpg
1512.51	0.85	1	repeat	Run2	repeat/STIM_005.jpg
1517.028	0.542	0	repeat	Run2	repeat/STIM_005.jpg
1519.807	0.592	1	repeat	Run2	repeat/STIM_005.jpg
1523.28	0.864	1	repeat	Run2	repeat/STIM_006.jpg
1526.543	0.482	1	repeat	Run2	repeat/STIM_006.jpg
1529.859	0.781	1	repeat	Run2	repeat/STIM_006.jpg
1533.469	0.748	1	repeat	Run2	repeat/STIM_006.jpg
1536.486	0.755	1	repeat	Run2	repeat/STIM_006.jpg
1540.172	0.68	0	repeat	Run2	repeat/STIM_007.jpg
1543.861	0.679	1	repeat	Run2	repeat/STIM_007.jpg
1547.696	0.733	1	repeat	Run2	repeat/STIM_007.jpg
1552.016	0.612	0	repeat	Run2	repeat/STIM_007.jpg
1556.082	0.759	0	repeat	Run2	repeat/STIM_007.jpg
1559.455	0.72	1	repeat	Run2	repeat/STIM_008.jpg
1563.454	0.767	0	repeat	Run2	repeat/STIM_008.jpg
1566.593	0.455	1	repeat	Run2	repeat/STIM_008.jpg
1570.456	0.81	1	repeat	Run2	repeat/STIM_008.jpg
1574.029	0.727	0	repeat	Run2	repeat/STIM_008.jpg
1576.852	0.725	0	repeat	Run2	repeat/STIM_009.jpg
1579.762	0.787	1	repeat	Run2	repeat/STIM_009.jpg
1582.859	0.787	1	repeat	Run2	repeat/STIM_009.jpg
1586.029	0.692	1	repeat	Run2	repeat/STIM_009.jpg
1589.512	0.469	1	repeat	Run2	repeat/STIM_009.jpg
1592.008	0.784	1	repeat	Run2	repeat/STIM_010.jpg
1596.026	0.708	0	repeat	Run2	repeat/STIM_010.jpg
1598.979	0.873	0	repeat	Run2	repeat/STIM_010.jpg
1602.568	0.658	1	repeat	Run2	repeat/STIM_010.jpg
1606.045	0.794	1	repeat	Run2	repeat/STIM_010.jpg
1609.508	0.823	1	repeat	Run2	repeat/STIM_011.jpg
1614.143	0.774	0	repeat	Run2	repeat/STIM_011.jpg
1618.848	0.727	1	repeat	Run2	repeat/STIM_011.jpg
1622.383	0.72	1	repeat	Run2	repeat/STIM_011.jpg
1626.006	0.742	1	repeat	Run2	repeat/STIM_011.jpg
1628.989	0.779	1	repeat	Run2	repeat/STIM_012.jpg
1633.192	0.737	0	repeat	Run2	repeat/STIM_012.jpg
1636.006	0.628	1	repeat	Run2	repeat/STIM_012.jpg
1640.441	0.647	1	repeat	Run2	repeat/STIM_012.jpg
1643.636	0.76	1	repeat	Run2	repeat/STIM_012.jpg
1646.732	0.819	1	repeat	Run2	repeat/STIM_013.jpg
1650.477	0.756	1	repeat	Run2	repeat/STIM_013.jpg
1654.887	0.444	1	repeat	Run2	repeat/STIM_013.jpg
1657.406	0.642	1	repeat	Run2	repeat/STIM_013.jpg
1660.383	0.816	1	repeat	Run2	repeat/STIM_013.jpg
1663.598	0.536	1	repeat	Run2	repeat/STIM_014.jpg
1667.324	0.802	1	repeat	Run2	repeat/STIM_014.jpg
1670.728	0.629	1	repeat	Run2	repeat/STIM_014.jpg
1675.172	0.591	1	repeat	Run2	repeat/STIM_014.jpg
1678.085	0.721	0	repeat	Run2	repeat/STIM_014.jpg
1682.012	1.518	0	generate	Run3	generate/STIM_000.jpg
1686.782	1.161	1	generate	Run3	generate/STIM_000.jpg
1691.452	1.372	1	generate	Run3	generate/STIM_000.jpg
1694.879	1.612	0	generate	Run3	generate/STIM_000.jpg
1699.285	0.887	1	generate	Run3	generate/STIM_000.jpg
1702.536	0.754	0	generate	Run3	generate/STIM_001.jpg
1705.978	1.055	0	generate	Run3	generate/STIM_001.jpg
1709.229	1.711	0	generate	Run3	generate/STIM_001.jpg
1714.172	0.83	1	generate	Run3	generate/STIM_001.jpg
1718.546	0.789	1	generate	Run3	generate/STIM_001.jpg
1722.43	0.949	0	generate	Run3	generate/STIM_002.jpg
1726.564	0.799	0	generate	Run3	generate/STIM_002.jpg
1729.837	1.473	1	generate	Run3	generate/STIM_002.jpg
1734.511	1.26	1	generate	Run3	generate/STIM_002.jpg
1739.151	1.682	1	generate	Run3	generate/STIM_002.jpg
1743.085	0.844	1	generate	Run3	generate/STIM_003.jpg
1747.905	0.74	0	generate	Run3	generate/STIM_003.jpg
1751.068	1.408	0	generate	Run3	generate/STIM_003.jpg
1754.983	1.36	1	generate	Run3	generate/STIM_003.jpg
1759.9	0.994	1	generate	Run3	generate/STIM_003.jpg
1763.518	1.193	1	generate	Run3	generate/STIM_004.jpg
1767.893	0.827	1	generate	Run3	generate/STIM_004.jpg
1771.441	1.486	1	generate	Run3	generate/STIM_004.jpg
1775.621	1.738	1	generate	Run3	generate/STIM_004.jpg
1779.365	0.819	1	generate	Run3	generate/STIM_004.jpg
1783.885	1.081	1	generate	Run3	generate/STIM_005.jpg
1787.764	0.887	0	generate	Run3	generate/STIM_005.jpg
1791.963	1.726	1	generate	Run3	generate/STIM_005.jpg
1797.564	1.744	1	generate	Run3	generate/STIM_005.jpg
1802.017	0.827	1	generate	Run3	generate/STIM_005.jpg
1806.001	0.961	0	generate	Run3	generate/STIM_006.jpg
1810.077	1.638	1	generate	Run3	generate/STIM_006.jpg
1813.856	1.466	1	generate	Run3	generate/STIM_006.jpg
1818.691	1.378	1	generate	Run3	generate/STIM_006.jpg
1823.759	1.24	1	generate	Run3	generate/STIM_006.jpg
1828.397	1.052	1	generate	Run3	generate/STIM_007.jpg
1831.82	1.621	1	generate	Run3	generate/STIM_007.jpg
1835.632	1.565	1	generate	Run3	generate/STIM_007.jpg
1839.306	1.649	0	generate	Run3	generate/STIM_007.jpg
1844.57	1.344	1	generate	Run3	generate/STIM_007.jpg
1848.396	1.66	1	generate	Run3	generate/STIM_008.jpg
1853.922	1.257	1	generate	Run3	generate/STIM_008.jpg
1857.215	1.793	0	generate	Run3	generate/STIM_008.jpg
1862.602	1.526	1	generate	Run3	generate/STIM_008.jpg
1867.943	1.369	0	generate	Run3	generate/STIM_008.jpg
1871.748	1.509	0	generate	Run3	generate/STIM_009.jpg
1877.074	1.413	1	generate	Run3	generate/STIM_009.jpg
1881.723	1.39	0	generate	Run3	generate/STIM_009.jpg
1885.57	0.779	1	generate	Run3	generate/STIM_009.jpg
1889.977	1.562	1	generate	Run3	generate/STIM_009.jpg
1894.013	1.57	1	generate	Run3	generate/STIM_010.jpg
1898.155	0.988	1	generate	Run3	generate/STIM_010.jpg
1902.106	1.601	1	generate	Run3	generate/STIM_010.jpg
1907.099	1.297	1	generate	Run3	generate/STIM_010.jpg
1912.329	0.758	0	generate	Run3	generate/STIM_010.jpg
1916.892	1.012	1	generate	Run3	generate/STIM_011.jpg
1920.077	1.172	1	generate	Run3	generate/STIM_011.jpg
1923.262	0.759	1	generate	Run3	generate/STIM_011.jpg
1927.546	0.842	0	generate	Run3	generate/STIM_011.jpg
1931.573	1.252	1	generate	Run3	generate/STIM_011.jpg
1935.835	1.775	1	generate	Run3	generate/STIM_012.jpg
1941.204	1.154	1	generate	Run3	generate/STIM_012.jpg
1946.342	1.256	1	generate	Run3	generate/STIM_012.jpg
1950.703	1.477	1	generate	Run3	generate/STIM_012.jpg
1954.902	1.105	1	generate	Run3	generate/STIM_012.jpg
1959.719	1.53	1	generate	Run3	generate/STIM_013.jpg
1964.787	1.703	1	generate	Run3	generate/STIM_013.jpg
1970.131	1.668	1	generate	Run3	generate/STIM_013.jpg
1975.261	1.533	1	generate	Run3	generate/STIM_013.jpg
1979.35	1.834	1	generate	Run3	generate/STIM_013.jpg
1984.488	1.358	1	generate	Run3	generate/STIM_014.jpg
1988.861	1.464	0	generate	Run3	generate/STIM_014.jpg
1993.68	0.784	1	generate	Run3	generate/STIM_014.jpg
1998.014	1.268	1	generate	Run3	generate/STIM_014.jpg
2001.523	1.69	1	generate	Run3	generate/STIM_014.jpg
2007.061	0.963	1	generate	Run3	generate/STIM_015.jpg
2011.324	1.257	1	generate	Run3	generate/STIM_015.jpg
2016.207	1.482	1	generate	Run3	generate/STIM_015.jpg
2021.54	1.705	1	generate	Run3	generate/STIM_015.jpg
2026.431	1.66	0	generate	Run3	generate/STIM_015.jpg
2030.123	1.777	1	generate	Run3	generate/STIM_016.jpg
2034.726	1.443	1	generate	Run3	generate/STIM_016.jpg
2039.945	1.104	1	generate	Run3	generate/STIM_016.jpg
2044.86	1.318	1	generate	Run3	generate/STIM_016.jpg
2049.294	1.405	1	generate	Run3	generate/STIM_016.jpg
2053.758	1.115	1	generate	Run3	generate/STIM_017.jpg
2058.183	1.166	1	generate	Run3	generate/STIM_017.jpg
2062.066	1.13	1	generate	Run3	generate/STIM_017.jpg
2065.813	1.826	1	generate	Run3	generate/STIM_017.jpg
2070.372	0.774	1	generate	Run3	generate/STIM_017.jpg
2075.019	1.216	0	generate	Run3	generate/STIM_018.jpg
2079.32	0.822	1	generate	Run3	generate/STIM_018.jpg
2084.133	1.781	0	generate	Run3	generate/STIM_018.jpg
2088.043	1.391	1	generate	Run3	generate/STIM_018.jpg
2091.798	1.428	1	generate	Run3	generate/STIM_018.jpg
2096.805	1.355	0	generate	Run3	generate/STIM_019.jpg
2102.139	1.66	0	generate	Run3	generate/STIM_019.jpg
2107.784	0.86	0	generate	Run3	generate/STIM_019.jpg
2112.197	0.854	1	generate	Run3	generate/STIM_019.jpg
2115.713	1.015	1	generate	Run3	generate/STIM_019.jpg
2119.103	0.813	0	generate	Run3	generate/STIM_020.jpg
2122.822	1.155	0	generate	Run3	generate/STIM_020.jpg
2127.05	0.774	1	generate	Run3	generate/STIM_020.jpg
2131.088	0.925	1	generate	Run3	generate/STIM_020.jpg
2135.841	1.682	1	generate	Run3	generate/STIM_020.jpg
2139.756	1.547	0	generate	Run3	generate/STIM_021.jpg
2143.933	1.758	1	generate	Run3	generate/STIM_021.jpg
2149.591	1.372	0	generate	Run3	generate/STIM_021.jpg
2154.164	1.372	1	generate	Run3	generate/STIM_021.jpg
2158.735	1.026	1	generate	Run3	generate/STIM_021.jpg
2162.295	1.739	1	generate	Run3	generate/STIM_022.jpg
2166.131	1.584	0	generate	Run3	generate/STIM_022.jpg
2170.328	1.216	1	generate	Run3	generate/STIM_022.jpg
2175.159	0.856	1	generate	Run3	generate/STIM_022.jpg
2178.684	1.414	0	generate	Run3	generate/STIM_022.jpg
2182.613	1.294	1	generate	Run3	generate/STIM_023.jpg
2186.554	1.065	1	generate	Run3	generate/STIM_023.jpg
2191.455	1.557	1	generate	Run3	generate/STIM_023.jpg
2195.103	1.072	0	generate	Run3	generate/STIM_023.jpg
2198.867	1.674	1	generate	Run3	generate/STIM_023.jpg
2203.137	0.803	1	generate	Run3	generate/STIM_024.jpg
2206.717	1.307	0	generate	Run3	generate/STIM_024.jpg
2211.377	1.378	0	generate	Run3	generate/STIM_024.jpg
2215.239	0.75	1	generate	Run3	generate/STIM_024.jpg
2219.703	1.064	1	generate	Run3	generate/STIM_024.jpg
2223.944	0.745	1	repeat	Run3	repeat/STIM_000.jpg
2228.325	0.539	1	repeat	Run3	repeat/STIM_000.jpg
2232.278	0.506	1	repeat	Run3	repeat/STIM_000.jpg
2235.628	0.663	1	repeat	Run3	repeat/STIM_000.jpg
2238.453	0.561	1	repeat	Run3	repeat/STIM_000.jpg
2242.291	0.652	1	repeat	Run3	repeat/STIM_001.jpg
2245.4	0.52	0	repeat	Run3	repeat/STIM_001.jpg
2249.749	0.723	1	repeat	Run3	repeat/STIM_001.jpg
2252.724	0.452	1	repeat	Run3	repeat/STIM_001.jpg
2255.903	0.448	1	repeat	Run3	repeat/STIM_001.jpg
2258.804	0.837	0	repeat	Run3	repeat/STIM_002.jpg
2262.131	0.621	1	repeat	Run3	repeat/STIM_002.jpg
2265.664	0.723	1	repeat	Run3	repeat/STIM_002.jpg
2269.205	0.782	0	repeat	Run3	repeat/STIM_002.jpg
2272.938	0.592	1	repeat	Run3	repeat/STIM_002.jpg
2275.747	0.754	1	repeat	Run3	repeat/STIM_003.jpg
2278.986	0.44	1	repeat	Run3	repeat/STIM_003.jpg
2282.585	0.788	1	repeat	Run3	repeat/STIM_003.jpg
2285.567	0.601	0	repeat	Run3	repeat/STIM_003.jpg
2289.462	0.792	1	repeat	Run3	repeat/STIM_003.jpg
2293.095	0.837	1	repeat	Run3	repeat/STIM_004.jpg
2296.563	0.846	0	repeat	Run3	repeat/STIM_004.jpg
2300.206	0.448	1	repeat	Run3	repeat/STIM_004.jpg
2302.916	0.486	1	repeat	Run3	repeat/STIM_004.jpg
2306.294	0.689	1	repeat	Run3	repeat/STIM_004.jpg
2309.299	0.667	1	repeat	Run3	repeat/STIM_005.jpg
2313.579	0.682	1	repeat	Run3	repeat/STIM_005.jpg
2317.026	0.724	1	repeat	Run3	repeat/STIM_005.jpg
2319.936	0.734	1	repeat	Run3	repeat/STIM_005.jpg
2322.819	0.83	1	repeat	Run3	repeat/STIM_005.jpg
2326.311	0.629	0	repeat	Run3	repeat/STIM_006.jpg
2329.318	0.696	1	repeat	Run3	repeat/STIM_006.jpg
2333.035	0.691	1	repeat	Run3	repeat/STIM_006.jpg
2336.039	0.865	0	repeat	Run3	repeat/STIM_006.jpg
2339.771	0.843	1	repeat	Run3	repeat/STIM_006.jpg
2343.284	0.847	1	repeat	Run3	repeat/STIM_007.jpg
2346.459	0.697	0	repeat	Run3	repeat/STIM_007.jpg
2350.667	0.721	1	repeat	Run3	repeat/STIM_007.jpg
2354.472	0.795	0	repeat	Run3	repeat/STIM_007.jpg
2358.058	0.577	1	repeat	Run3	repeat/STIM_007.jpg
2360.875	0.874	1	repeat	Run3	repeat/STIM_008.jpg
2364.834	0.571	1	repeat	Run3	repeat/STIM_008.jpg
2368.066	0.589	1	repeat	Run3	repeat/STIM_008.jpg
2370.973	0.835	1	repeat	Run3	repeat/STIM_008.jpg
2375.575	0.87	1	repeat	Run3	repeat/STIM_008.jpg
2379.292	0.83	1	repeat	Run3	repeat/STIM_009.jpg
2384.074	0.649	1	repeat	Run3	repeat/STIM_009.jpg
2388.144	0.469	1	repeat	Run3	repeat/STIM_009.jpg
2391.806	0.74	1	repeat	Run3	repeat/STIM_009.jpg
2396.013	0.623	1	repeat	Run3	repeat/STIM_009.jpg
2399.567	0.479	1	repeat	Run3	repeat/STIM_010.jpg
2402.917	0.497	1	repeat	Run3	repeat/STIM_010.jpg
2407.241	0.847	1	repeat	Run3	repeat/STIM_010.jpg
2411.181	0.802	1	repeat	Run3	repeat/STIM_010.jpg
2414.862	0.717	0	repeat	Run3	repeat/STIM_010.jpg
2417.682	0.825	1	repeat	Run3	repeat/STIM_011.jpg
2420.551	0.698	1	repeat	Run3	repeat/STIM_011.jpg
2424.507	0.696	1	repeat	Run3	repeat/STIM_011.jpg
2427.313	0.602	1	repeat	Run3	repeat/STIM_011.jpg
2430.759	0.872	1	repeat	Run3	repeat/STIM_011.jpg
2434.404	0.638	1	repeat	Run3	repeat/STIM_012.jpg
2437.855	0.765	1	repeat	Run3	repeat/STIM_012.jpg
2441.632	0.543	1	repeat	Run3	repeat/STIM_012.jpg
2445.135	0.65	1	repeat	Run3	repeat/STIM_012.jpg
2449.148	0.854	1	repeat	Run3	repeat/STIM_012.jpg
2452.483	0.874	1	repeat	Run3	repeat/STIM_013.jpg
2455.759	0.775	1	repeat	Run3	repeat/STIM_013.jpg
2460.282	0.794	1	repeat	Run3	repeat/STIM_013.jpg
2464.568	0.51	1	repeat	Run3	repeat/STIM_013.jpg
2467.924	0.67	0	repeat	Run3	repeat/STIM_013.jpg
2471.289	0.686	1	repeat	Run3	repeat/STIM_014.jpg
2475.33	0.508	1	repeat	Run3	repeat/STIM_014.jpg
2479.207	0.754	1	repeat	Run3	repeat/STIM_014.jpg
2483.9	0.47	1	repeat	Run3	repeat/STIM_014.jpg
2487.688	0.664	1	repeat	Run3	repeat/STIM_014.jpg
2491.173	1.217	1	generate	Run4	generate/STIM_000.jpg
2495.229	1.126	1	generate	Run4	generate/STIM_000.jpg
2499.941	1.225	1	generate	Run4	generate/STIM_000.jpg
2505.013	1.386	1	generate	Run4	generate/STIM_000.jpg
2510.044	1.402	1	generate	Run4	generate/STIM_000.jpg
2514.586	1.505	1	generate	Run4	generate/STIM_001.jpg
2518.542	1.63	1	generate	Run4	generate/STIM_001.jpg
2522.87	1.038	0	generate	Run4	generate/STIM_001.jpg
2526.849	1.727	1	generate	Run4	generate/STIM_001.jpg
2531.652	1.284	1	generate	Run4	generate/STIM_001.jpg
2535.905	0.88	0	generate	Run4	generate/STIM_002.jpg
2539.243	0.994	1	generate	Run4	generate/STIM_002.jpg
2543.512	0.843	1	generate	Run4	generate/STIM_002.jpg
2547.459	1.705	1	generate	Run4	generate/STIM_002.jpg
2552.533	1.597	1	generate	Run4	generate/STIM_002.jpg
2557.962	1.12	0	generate	Run4	generate/STIM_003.jpg
2562.809	1.823	1	generate	Run4	generate/STIM_003.jpg
2566.938	1.516	1	generate	Run4	generate/STIM_003.jpg
2572.044	1.393	1	generate	Run4	generate/STIM_003.jpg
2576.784	1.13	1	generate	Run4	generate/STIM_003.jpg
2580.626	1.539	1	generate	Run4	generate/STIM_004.jpg
2584.603	1.245	0	generate	Run4	generate/STIM_004.jpg
2588.457	1.607	1	generate	Run4	generate/STIM_004.jpg
2593.211	1.194	1	generate	Run4	generate/STIM_004.jpg
2597.696	1.306	1	generate	Run4	generate/STIM_004.jpg
2602.8	1.311	1	generate	Run4	generate/STIM_005.jpg
2607.971	1.835	1	generate	Run4	generate/STIM_005.jpg
2612.094	1.697	0	generate	Run4	generate/STIM_005.jpg
2616.055	1.461	1	generate	Run4	generate/STIM_005.jpg
2619.792	0.864	1	generate	Run4	generate/STIM_005.jpg
2623.994	1.754	1	generate	Run4	generate/STIM_006.jpg
2628.96	1.075	0	generate	Run4	generate/STIM_006.jpg
2632.578	1.271	1	generate	Run4	generate/STIM_006.jpg
2636.16	1.418	1	generate	Run4	generate/STIM_006.jpg
2641.183	1.401	0	generate	Run4	generate/STIM_006.jpg
2644.91	1.022	1	generate	Run4	generate/STIM_007.jpg
2648.792	1.476	1	generate	Run4	generate/STIM_007.jpg
2653.186	1.73	1	generate	Run4	generate/STIM_007.jpg
2657.886	1.098	1	generate	Run4	generate/STIM_007.jpg
2661.04	0.916	1	generate	Run4	generate/STIM_007.jpg
2665.697	1.506	1	generate	Run4	generate/STIM_008.jpg
2671.035	1.249	0	generate	Run4	generate/STIM_008.jpg
2675.688	1.75	1	generate	Run4	generate/STIM_008.jpg
2680.064	1.514	1	generate	Run4	generate/STIM_008.jpg
2684.242	1.469	1	generate	Run4	generate/STIM_008.jpg
2689.393	0.738	0	generate	Run4	generate/STIM_009.jpg
2692.631	1.6	1	generate	Run4	generate/STIM_009.jpg
2697.968	1.228	1	generate	Run4	generate/STIM_009.jpg
2701.676	1.522	1	generate	Run4	generate/STIM_009.jpg
2706.54	1.489	1	generate	Run4	generate/STIM_009.jpg
2711.442	1.667	1	generate	Run4	generate/STIM_010.jpg
2716.305	1.135	0	generate	Run4	generate/STIM_010.jpg
2719.764	0.994	1	generate	Run4	generate/STIM_010.jpg
2724.235	1.305	1	generate	Run4	generate/STIM_010.jpg
2729.194	1.374	1	generate	Run4	generate/STIM_010.jpg
2733.324	1.438	1	generate	Run4	generate/STIM_011.jpg
2736.891	1.479	1	generate	Run4	generate/STIM_011.jpg
2740.478	1.502	1	generate	Run4	generate/STIM_011.jpg
2744.551	1.105	1	generate	Run4	generate/STIM_011.jpg
2748.673	1.748	1	generate	Run4	generate/STIM_011.jpg
2753.615	1.289	1	generate	Run4	generate/STIM_012.jpg
2756.918	1.582	0	generate	Run4	generate/STIM_012.jpg
2761.765	0.985	1	generate	Run4	generate/STIM_012.jpg
2765.373	0.975	1	generate	Run4	generate/STIM_012.jpg
2768.901	1.251	1	generate	Run4	generate/STIM_012.jpg
2773.662	1.483	1	generate	Run4	generate/STIM_013.jpg
2779.123	1.592	1	generate	Run4	generate/STIM_013.jpg
2783.737	1.836	1	generate	Run4	generate/STIM_013.jpg
2789.018	1.729	0	generate	Run4	generate/STIM_013.jpg
2794.069	1.606	1	generate	Run4	generate/STIM_013.jpg
2799.089	0.879	1	generate	Run4	generate/STIM_014.jpg
2803.398	0.838	1	generate	Run4	generate/STIM_014.jpg
2806.725	1.364	1	generate	Run4	generate/STIM_014.jpg
2811.532	1.788	1	generate	Run4	generate/STIM_014.jpg
2816.563	0.936	1	generate	Run4	generate/STIM_014.jpg
2821.45	0.827	1	generate	Run4	generate/STIM_015.jpg
2825.209	1.526	1	generate	Run4	generate/STIM_015.jpg
2829.631	1.366	1	generate	Run4	generate/STIM_015.jpg
2834.956	1.792	1	generate	Run4	generate/STIM_015.jpg
2840.011	1.72	1	generate	Run4	generate/STIM_015.jpg
2843.999	0.876	1	generate	Run4	generate/STIM_016.jpg
2848.86	1.041	1	generate	Run4	generate/STIM_016.jpg
2853.515	1.011	1	generate	Run4	generate/STIM_016.jpg
2856.73	1.513	0	generate	Run4	generate/STIM_016.jpg
2860.398	1.582	1	generate	Run4	generate/STIM_016.jpg
2865.559	1.357	1	generate	Run4	generate/STIM_017.jpg
2869.262	0.998	1	generate	Run4	generate/STIM_017.jpg
2873.519	1.014	1	generate	Run4	generate/STIM_017.jpg
2878.222	0.792	1	generate	Run4	generate/STIM_017.jpg
2882.678	1.351	1	generate	Run4	generate/STIM_017.jpg
2887.976	1.048	1	generate	Run4	generate/STIM_018.jpg
2892.964	1.23	1	generate	Run4	generate/STIM_018.jpg
2896.958	0.91	1	generate	Run4	generate/STIM_018.jpg
2900.405	1.779	1	generate	Run4	generate/STIM_018.jpg
2905.216	0.866	1	generate	Run4	generate/STIM_018.jpg
2908.561	1.139	1	generate	Run4	generate/STIM_019.jpg
2911.985	1.394	1	generate	Run4	generate/STIM_019.jpg
2916.543	1.396	1	generate	Run4	generate/STIM_019.jpg
2920.564	0.98	0	generate	Run4	generate/STIM_019.jpg
2925.36	1.032	1	generate	Run4	generate/STIM_019.jpg
2930.369	1.201	0	generate	Run4	generate/STIM_020.jpg
2933.905	1.57	1	generate	Run4	generate/STIM_020.jpg
2939.332	1.256	0	generate	Run4	generate/STIM_020.jpg
2944.228	1.513	1	generate	Run4	generate/STIM_020.jpg
2949.569	1.536	1	generate	Run4	generate/STIM_020.jpg
2953.492	1.291	1	generate	Run4	generate/STIM_021.jpg
2958.006	1.519	1	generate	Run4	generate/STIM_021.jpg
2961.536	1.39	1	generate	Run4	generate/STIM_021.jpg
2965.533	1.295	0	generate	Run4	generate/STIM_021.jpg
2969.841	1.77	0	generate	Run4	generate/STIM_021.jpg
2974.258	1.578	1	generate	Run4	generate/STIM_022.jpg
2978.648	1.612	1	generate	Run4	generate/STIM_022.jpg
2984.126	1.477	1	generate	Run4	generate/STIM_022.jpg
2989.115	0.999	1	generate	Run4	generate/STIM_022.jpg
2993.836	1.753	1	generate	Run4	generate/STIM_022.jpg
2998.54	1.632	1	generate	Run4	generate/STIM_023.jpg
3002.889	0.787	1	generate	Run4	generate/STIM_023.jpg
3007.076	1.646	1	generate	Run4	generate/STIM_023.jpg
3011.907	0.807	1	generate	Run4	generate/STIM_023.jpg
3016.533	1.045	1	generate	Run4	generate/STIM_023.jpg
3019.804	1.573	1	generate	Run4	generate/STIM_024.jpg
3024.974	0.932	0	generate	Run4	generate/STIM_024.jpg
3028.953	1.304	1	generate	Run4	generate/STIM_024.jpg
3033.486	1.213	1	generate	Run4	generate/STIM_024.jpg
3038.323	1.746	1	generate	Run4	generate/STIM_024.jpg
3043.721	0.734	1	repeat	Run4	repeat/STIM_000.jpg
3047.722	0.494	1	repeat	Run4	repeat/STIM_000.jpg
3051.406	0.446	1	repeat	Run4	repeat/STIM_000.jpg
3054.955	0.736	0	repeat	Run4	repeat/STIM_000.jpg
3058.463	0.666	0	repeat	Run4	repeat/STIM_000.jpg
3062.801	0.616	1	repeat	Run4	repeat/STIM_001.jpg
3067.339	0.763	1	repeat	Run4	repeat/STIM_001.jpg
3071.772	0.82	1	repeat	Run4	repeat/STIM_001.jpg
3075.422	0.569	1	repeat	Run4	repeat/STIM_001.jpg
3078.396	0.604	1	repeat	Run4	repeat/STIM_001.jpg
3081.047	0.768	1	repeat	Run4	repeat/STIM_002.jpg
3085.164	0.632	0	repeat	Run4	repeat/STIM_002.jpg
3088.714	0.654	1	repeat	Run4	repeat/STIM_002.jpg
3092.666	0.545	1	repeat	Run4	repeat/STIM_002.jpg
3097.152	0.626	1	repeat	Run4	repeat/STIM_002.jpg
3100.597	0.562	0	repeat	Run4	repeat/STIM_003.jpg
3104.199	0.864	1	repeat	Run4	repeat/STIM_003.jpg
3108.146	0.529	0	repeat	Run4	repeat/STIM_003.jpg
3112.06	0.872	1	repeat	Run4	repeat/STIM_003.jpg
3116.898	0.523	1	repeat	Run4	repeat/STIM_003.jpg
3120.314	0.469	1	repeat	Run4	repeat/STIM_004.jpg
3123.965	0.542	1	repeat	Run4	repeat/STIM_004.jpg
3127.396	0.852	1	repeat	Run4	repeat/STIM_004.jpg
3131.807	0.645	1	repeat	Run4	repeat/STIM_004.jpg
3135.092	0.756	1	repeat	Run4	repeat/STIM_004.jpg
3139.4	0.46	0	repeat	Run4	repeat/STIM_005.jpg
3141.94	0.675	1	repeat	Run4	repeat/STIM_005.jpg
3145.18	0.71	1	repeat	Run4	repeat/STIM_005.jpg
3148.94	0.53	1	repeat	Run4	repeat/STIM_005.jpg
3151.942	0.738	0	repeat	Run4	repeat/STIM_005.jpg
3155.14	0.741	1	repeat	Run4	repeat/STIM_006.jpg
3158.31	0.742	1	repeat	Run4	repeat/STIM_006.jpg
3162.377	0.65	1	repeat	Run4	repeat/STIM_006.jpg
3166.463	0.862	1	repeat	Run4	repeat/STIM_006.jpg
3169.419	0.768	1	repeat	Run4	repeat/STIM_006.jpg
3173.194	0.673	0	repeat	Run4	repeat/STIM_007.jpg
3176.198	0.604	1	repeat	Run4	repeat/STIM_007.jpg
3179.304	0.439	1	repeat	Run4	repeat/STIM_007.jpg
3182.185	0.45	0	repeat	Run4	repeat/STIM_007.jpg
3185.224	0.831	0	repeat	Run4	repeat/STIM_007.jpg
3188.618	0.734	1	repeat	Run4	repeat/STIM_008.jpg
3191.991	0.762	1	repeat	Run4	repeat/STIM_008.jpg
3195.808	0.444	1	repeat	Run4	repeat/STIM_008.jpg
3199.652	0.871	1	repeat	Run4	repeat/STIM_008.jpg
3204.293	0.634	1	repeat	Run4	repeat/STIM_008.jpg
3207.704	0.534	1	repeat	Run4	repeat/STIM_009.jpg
3210.879	0.496	1	repeat	Run4	repeat/STIM_009.jpg
3213.536	0.676	1	repeat	Run4	repeat/STIM_009.jpg
3216.508	0.638	0	repeat	Run4	repeat/STIM_009.jpg
3220.237	0.645	1	repeat	Run4	repeat/STIM_009.jpg
3224.769	0.861	1	repeat	Run4	repeat/STIM_010.jpg
3229.563	0.651	0	repeat	Run4	repeat/STIM_010.jpg
3233.538	0.708	1	repeat	Run4	repeat/STIM_010.jpg
3237.669	0.487	1	repeat	Run4	repeat/STIM_010.jpg
3240.293	0.829	1	repeat	Run4	repeat/STIM_010.jpg
3244.547	0.656	1	repeat	Run4	repeat/STIM_011.jpg
3248.001	0.629	1	repeat	Run4	repeat/STIM_011.jpg
3251.645	0.705	1	repeat	Run4	repeat/STIM_011.jpg
3255.909	0.812	0	repeat	Run4	repeat/STIM_011.jpg
3259.536	0.677	1	repeat	Run4	repeat/STIM_011.jpg
3262.982	0.475	1	repeat	Run4	repeat/STIM_012.jpg
3265.891	0.489	1	repeat	Run4	repeat/STIM_012.jpg
3268.756	0.736	1	repeat	Run4	repeat/STIM_012.jpg
3272.788	0.638	1	repeat	Run4	repeat/STIM_012.jpg
3277.062	0.494	1	repeat	Run4	repeat/STIM_012.jpg
3281.438	0.578	1	repeat	Run4	repeat/STIM_013.jpg
3285.992	0.796	0	repeat	Run4	repeat/STIM_013.jpg
3290.445	0.847	1	repeat	Run4	repeat/STIM_013.jpg
3293.657	0.694	1	repeat	Run4	repeat/STIM_013.jpg
3297.852	0.603	1	repeat	Run4	repeat/STIM_013.jpg
3302.046	0.509	1	repeat	Run4	repeat/STIM_014.jpg
3306.392	0.781	1	repeat	Run4	repeat/STIM_014.jpg
3310.086	0.612	0	repeat	Run4	repeat/STIM_014.jpg
3313.51	0.518	1	repeat	Run4	repeat/STIM_014.jpg
3317.684	0.513	1	repeat	Run4	repeat/STIM_014.jpg
