onset	duration	accuracy	trial_type	learning_stage	stimulus
0.0	1.444	correct	study	Phase1	study/STIM_000.jpg
3.604	0.734	correct	study	Phase1	study/STIM_000.jpg
8.281	1.175	correct	study	Phase1	study/STIM_000.jpg
11.695	1.306	correct	study	Phase1	study/STIM_001.jpg
16.582	1.204	incorrect	study	Phase1	study/STIM_001.jpg
20.741	1.332	correct	study	Phase1	study/STIM_001.jpg
25.139	1.125	correct	study	Phase1	study/STIM_002.jpg
29.796	1.379	correct	study	Phase1	study/STIM_002.jpg
34.749	0.756	correct	study	Phase1	study/STIM_002.jpg
39.004	1.101	correct	study	Phase1	study/STIM_003.jpg
43.633	0.855	correct	study	Phase1	study/STIM_003.jpg
47.789	0.709	incorrect	study	Phase1	study/STIM_003.jpg
50.887	1.01	correct	study	Phase1	study/STIM_004.jpg
54.732	0.972	correct	study	Phase1	study/STIM_004.jpg
59.425	0.715	correct	study	Phase1	study/STIM_004.jpg
62.218	1.198	correct	study	Phase1	study/STIM_005.jpg
66.538	1.603	correct	study	Phase1	study/STIM_005.jpg
71.82	1.37	correct	study	Phase1	study/STIM_005.jpg
75.723	1.364	correct	study	Phase1	study/STIM_006.jpg
80.054	1.57	incorrect	study	Phase1	study/STIM_006.jpg
83.692	1.296	correct	study	Phase1	study/STIM_006.jpg
87.382	0.92	incorrect	study	Phase1	study/STIM_007.jpg
91.827	1.563	correct	study	Phase1	study/STIM_007.jpg
95.946	1.492	correct	study	Phase1	study/STIM_007.jpg
100.285	1.638	correct	study	Phase1	study/STIM_008.jpg
104.452	1.599	correct	study	Phase1	study/STIM_008.jpg
109.322	1.349	correct	study	Phase1	study/STIM_008.jpg
114.341	1.656	correct	study	Phase1	study/STIM_009.jpg
118.23	0.779	correct	study	Phase1	study/STIM_009.jpg
122.555	1.434	correct	study	Phase1	study/STIM_009.jpg
126.236	1.486	correct	study	Phase1	study/STIM_010.jpg
129.94	1.118	correct	study	Phase1	study/STIM_010.jpg
134.566	1.514	incorrect	study	Phase1	study/STIM_010.jpg
139.898	1.584	incorrect	study	Phase1	study/STIM_011.jpg
144.666	1.369	correct	study	Phase1	study/STIM_011.jpg
149.146	0.88	correct	study	Phase1	study/STIM_011.jpg
152.69	1.681	correct	study	Phase1	study/STIM_012.jpg
157.302	1.632	correct	study	Phase1	study/STIM_012.jpg
161.806	1.266	incorrect	study	Phase1	study/STIM_012.jpg
166.765	1.226	correct	study	Phase1	study/STIM_013.jpg
170.84	1.354	correct	study	Phase1	study/STIM_013.jpg
175.218	1.208	correct	study	Phase1	study/STIM_013.jpg
180.04	1.27	correct	study	Phase1	study/STIM_014.jpg
184.231	1.012	incorrect	study	Phase1	study/STIM_014.jpg
187.692	1.277	correct	study	Phase1	study/STIM_014.jpg
191.231	1.228	correct	study	Phase1	study/STIM_015.jpg
195.269	0.952	correct	study	Phase1	study/STIM_015.jpg
199.948	0.949	correct	study	Phase1	study/STIM_015.jpg
203.895	0.936	correct	study	Phase1	study/STIM_016.jpg
208.564	1.168	correct	study	Phase1	study/STIM_016.jpg
213.277	0.791	correct	study	Phase1	study/STIM_016.jpg
216.296	1.139	correct	study	Phase1	study/STIM_017.jpg
219.973	0.739	incorrect	study	Phase1	study/STIM_017.jpg
224.594	1.059	correct	study	Phase1	study/STIM_017.jpg
228.493	1.717	incorrect	study	Phase1	study/STIM_018.jpg
234.037	0.839	correct	study	Phase1	study/STIM_018.jpg
236.972	0.831	correct	study	Phase1	study/STIM_018.jpg
241.446	1.089	incorrect	study	Phase1	study/STIM_019.jpg
245.657	0.843	correct	study	Phase1	study/STIM_019.jpg
250.266	1.144	correct	study	Phase1	study/STIM_019.jpg
254.04	1.136	correct	study	Phase1	study/STIM_020.jpg
258.896	1.228	correct	study	Phase1	study/STIM_020.jpg
262.32	0.85	correct	study	Phase1	study/STIM_020.jpg
265.422	0.788	incorrect	study	Phase1	study/STIM_021.jpg
268.418	1.407	correct	study	Phase1	study/STIM_021.jpg
273.453	1.549	correct	study	Phase1	study/STIM_021.jpg
277.856	1.2	incorrect	study	Phase1	study/STIM_022.jpg
281.493	1.453	correct	study	Phase1	study/STIM_022.jpg
285.226	1.298	correct	study	Phase1	study/STIM_022.jpg
289.35	1.626	incorrect	study	Phase1	study/STIM_023.jpg
293.72	0.752	correct	study	Phase1	study/STIM_023.jpg
297.825	0.692	correct	study	Phase1	study/STIM_023.jpg
301.814	1.64	correct	study	Phase1	study/STIM_024.jpg
305.773	1.353	correct	study	Phase1	study/STIM_024.jpg
309.473	1.235	correct	study	Phase1	study/STIM_024.jpg
313.024	1.474	correct	study	Phase1	study/STIM_025.jpg
317.696	1.448	correct	study	Phase1	study/STIM_025.jpg
321.3	1.55	correct	study	Phase1	study/STIM_025.jpg
326.788	1.339	incorrect	study	Phase1	study/STIM_026.jpg
330.719	1.522	incorrect	study	Phase1	study/STIM_026.jpg
335.998	0.938	correct	study	Phase1	study/STIM_026.jpg
340.501	1.522	correct	study	Phase1	study/STIM_027.jpg
346.015	1.604	correct	study	Phase1	study/STIM_027.jpg
350.358	1.138	correct	study	Phase1	study/STIM_027.jpg
354.85	1.417	correct	study	Phase1	study/STIM_028.jpg
358.942	0.918	correct	study	Phase1	study/STIM_028.jpg
362.697	1.097	correct	study	Phase1	study/STIM_028.jpg
367.627	1.037	correct	study	Phase1	study/STIM_029.jpg
371.761	1.328	correct	study	Phase1	study/STIM_029.jpg
377.057	1.284	correct	study	Phase1	study/STIM_029.jpg
381.482	1.161	correct	test	Phase1	test/STIM_000.jpg
385.081	0.581	correct	test	Phase1	test/STIM_000.jpg
388.758	0.828	correct	test	Phase1	test/STIM_000.jpg
392.557	0.703	correct	test	Phase1	test/STIM_001.jpg
395.946	1.14	correct	test	Phase1	test/STIM_001.jpg
399.773	1.008	correct	test	Phase1	test/STIM_001.jpg
403.213	1.21	correct	test	Phase1	test/STIM_002.jpg
408.257	1.24	correct	test	Phase1	test/STIM_002.jpg
412.19	0.717	correct	test	Phase1	test/STIM_002.jpg
415.338	0.743	correct	test	Phase1	test/STIM_003.jpg
418.955	0.722	correct	test	Phase1	test/STIM_003.jpg
422.064	0.738	correct	test	Phase1	test/STIM_003.jpg
426.51	1.219	correct	test	Phase1	test/STIM_004.jpg
430.543	0.622	correct	test	Phase1	test/STIM_004.jpg
433.303	1.045	correct	test	Phase1	test/STIM_004.jpg
436.644	1.089	incorrect	test	Phase1	test/STIM_005.jpg
440.495	0.618	correct	test	Phase1	test/STIM_005.jpg
443.72	1.006	correct	test	Phase1	test/STIM_005.jpg
447.964	0.779	correct	test	Phase1	test/STIM_006.jpg
452.227	0.784	correct	test	Phase1	test/STIM_006.jpg
456.928	1.153	correct	test	Phase1	test/STIM_006.jpg
460.229	0.934	correct	test	Phase1	test/STIM_007.jpg
464.826	0.862	correct	test	Phase1	test/STIM_007.jpg
469.216	0.688	correct	test	Phase1	test/STIM_007.jpg
473.183	0.685	correct	test	Phase1	test/STIM_008.jpg
477.432	1.1	correct	test	Phase1	test/STIM_008.jpg
480.724	0.692	correct	test	Phase1	test/STIM_008.jpg
485.291	0.641	correct	test	Phase1	test/STIM_009.jpg
489.716	0.871	correct	test	Phase1	test/STIM_009.jpg
493.234	0.874	correct	test	Phase1	test/STIM_009.jpg
497.41	0.841	correct	test	Phase1	test/STIM_010.jpg
501.476	1.149	correct	test	Phase1	test/STIM_010.jpg
505.744	1.087	correct	test	Phase1	test/STIM_010.jpg
509.073	0.63	correct	test	Phase1	test/STIM_011.jpg
512.129	0.933	correct	test	Phase1	test/STIM_011.jpg
515.556	0.687	correct	test	Phase1	test/STIM_011.jpg
519.988	0.888	correct	test	Phase1	test/STIM_012.jpg
524.72	1.0	correct	test	Phase1	test/STIM_012.jpg
529.341	0.786	correct	test	Phase1	test/STIM_012.jpg
533.198	1.043	correct	test	Phase1	test/STIM_013.jpg
536.336	1.072	correct	test	Phase1	test/STIM_013.jpg
540.935	0.784	correct	test	Phase1	test/STIM_013.jpg
544.928	1.242	incorrect	test	Phase1	test/STIM_014.jpg
548.203	0.7	correct	test	Phase1	test/STIM_014.jpg
552.36	0.982	incorrect	test	Phase1	test/STIM_014.jpg
555.574	1.089	correct	test	Phase1	test/STIM_015.jpg
558.955	0.614	correct	test	Phase1	test/STIM_015.jpg
563.452	1.143	correct	test	Phase1	test/STIM_015.jpg
567.092	1.12	correct	test	Phase1	test/STIM_016.jpg
570.581	1.095	correct	test	Phase1	test/STIM_016.jpg
575.653	1.189	correct	test	Phase1	test/STIM_016.jpg
579.777	0.934	correct	test	Phase1	test/STIM_017.jpg
583.047	0.951	correct	test	Phase1	test/STIM_017.jpg
586.107	0.728	correct	test	Phase1	test/STIM_017.jpg
589.655	0.684	correct	test	Phase1	test/STIM_018.jpg
593.777	0.994	correct	test	Phase1	test/STIM_018.jpg
597.584	1.068	correct	test	Phase1	test/STIM_018.jpg
602.102	1.114	correct	test	Phase1	test/STIM_019.jpg
607.038	0.805	correct	test	Phase1	test/STIM_019.jpg
611.161	1.224	correct	test	Phase1	test/STIM_019.jpg
614.765	0.611	correct	test	Phase1	test/STIM_020.jpg
619.186	1.182	correct	test	Phase1	test/STIM_020.jpg
622.87	0.905	correct	test	Phase1	test/STIM_020.jpg
626.931	1.224	correct	test	Phase1	test/STIM_021.jpg
631.036	1.019	correct	test	Phase1	test/STIM_021.jpg
635.369	0.616	correct	test	Phase1	test/STIM_021.jpg
639.122	1.242	correct	test	Phase1	test/STIM_022.jpg
643.106	1.147	correct	test	Phase1	test/STIM_022.jpg
648.235	0.628	incorrect	test	Phase1	test/STIM_022.jpg
652.333	1.216	correct	test	Phase1	test/STIM_023.jpg
656.941	0.878	correct	test	Phase1	test/STIM_023.jpg
661.234	0.728	correct	test	Phase1	test/STIM_023.jpg
665.311	0.694	incorrect	test	Phase1	test/STIM_024.jpg
668.95	0.622	correct	test	Phase1	test/STIM_024.jpg
671.58	0.648	correct	test	Phase1	test/STIM_024.jpg
674.325	1.208	correct	test	Phase1	test/STIM_025.jpg
678.49	0.969	correct	test	Phase1	test/STIM_025.jpg
681.917	0.858	correct	test	Phase1	test/STIM_025.jpg
685.491	1.201	correct	test	Phase1	test/STIM_026.jpg
690.174	1.018	correct	test	Phase1	test/STIM_026.jpg
694.905	1.212	correct	test	Phase1	test/STIM_026.jpg
700.071	1.128	correct	test	Phase1	test/STIM_027.jpg
704.024	0.861	incorrect	test	Phase1	test/STIM_027.jpg
708.289	1.039	correct	test	Phase1	test/STIM_027.jpg
712.438	0.938	correct	test	Phase1	test/STIM_028.jpg
716.173	0.976	correct	test	Phase1	test/STIM_028.jpg
719.84	0.747	correct	test	Phase1	test/STIM_028.jpg
723.801	1.076	correct	test	Phase1	test/STIM_029.jpg
728.112	1.228	correct	test	Phase1	test/STIM_029.jpg
732.54	0.619	correct	test	Phase1	test/STIM_029.jpg
736.095	1.063	correct	study	Phase2	study/STIM_000.jpg
740.086	1.004	correct	study	Phase2	study/STIM_000.jpg
743.517	0.716	correct	study	Phase2	study/STIM_000.jpg
747.319	1.168	correct	study	Phase2	study/STIM_001.jpg
751.192	0.778	incorrect	study	Phase2	study/STIM_001.jpg
754.317	0.772	correct	study	Phase2	study/STIM_001.jpg
757.236	0.824	correct	study	Phase2	study/STIM_002.jpg
761.948	0.988	incorrect	study	Phase2	study/STIM_002.jpg
765.308	0.763	correct	study	Phase2	study/STIM_002.jpg
768.799	1.417	incorrect	study	Phase2	study/STIM_003.jpg
773.942	0.966	correct	study	Phase2	study/STIM_003.jpg
778.396	0.765	correct	study	Phase2	study/STIM_003.jpg
782.586	0.844	correct	study	Phase2	study/STIM_004.jpg
786.566	0.876	correct	study	Phase2	study/STIM_004.jpg
791.298	1.229	correct	study	Phase2	study/STIM_004.jpg
795.978	0.974	correct	study	Phase2	study/STIM_005.jpg
800.258	0.83	correct	study	Phase2	study/STIM_005.jpg
804.552	1.21	correct	study	Phase2	study/STIM_005.jpg
807.852	1.236	correct	study	Phase2	study/STIM_006.jpg
812.963	1.038	correct	study	Phase2	study/STIM_006.jpg
817.429	0.941	correct	study	Phase2	study/STIM_006.jpg
821.997	1.172	correct	study	Phase2	study/STIM_007.jpg
827.104	1.252	incorrect	study	Phase2	study/STIM_007.jpg
830.388	1.268	correct	study	Phase2	study/STIM_007.jpg
834.315	0.804	correct	study	Phase2	study/STIM_008.jpg
837.788	0.826	correct	study	Phase2	study/STIM_008.jpg
842.604	0.952	correct	study	Phase2	study/STIM_008.jpg
846.813	1.101	incorrect	study	Phase2	study/STIM_009.jpg
851.61	0.683	correct	study	Phase2	study/STIM_009.jpg
855.775	0.922	correct	study	Phase2	study/STIM_009.jpg
859.775	0.975	correct	study	Phase2	study/STIM_010.jpg
862.839	0.886	correct	study	Phase2	study/STIM_010.jpg
866.831	1.085	correct	study	Phase2	study/STIM_010.jpg
870.35	0.994	correct	study	Phase2	study/STIM_011.jpg
874.77	0.652	correct	study	Phase2	study/STIM_011.jpg
879.192	0.81	correct	study	Phase2	study/STIM_011.jpg
883.318	1.429	correct	study	Phase2	study/STIM_012.jpg
886.936	0.941	correct	study	Phase2	study/STIM_012.jpg
891.54	0.914	correct	study	Phase2	study/STIM_012.jpg
895.6	1.432	correct	study	Phase2	study/STIM_013.jpg
900.324	1.355	correct	study	Phase2	study/STIM_013.jpg
904.327	0.787	correct	study	Phase2	study/STIM_013.jpg
908.054	1.342	correct	study	Phase2	study/STIM_014.jpg
913.392	1.302	correct	study	Phase2	study/STIM_014.jpg
918.41	1.297	correct	study	Phase2	study/STIM_014.jpg
922.338	1.077	correct	study	Phase2	study/STIM_015.jpg
926.809	0.671	correct	study	Phase2	study/STIM_015.jpg
929.869	0.91	correct	study	Phase2	study/STIM_015.jpg
933.728	0.71	correct	study	Phase2	study/STIM_016.jpg
937.33	0.991	correct	study	Phase2	study/STIM_016.jpg
941.164	1.017	correct	study	Phase2	study/STIM_016.jpg
944.631	0.705	correct	study	Phase2	study/STIM_017.jpg
948.34	1.324	correct	study	Phase2	study/STIM_017.jpg
952.109	0.624	correct	study	Phase2	study/STIM_017.jpg
954.858	1.442	correct	study	Phase2	study/STIM_018.jpg
958.455	0.737	incorrect	study	Phase2	study/STIM_018.jpg
961.646	0.97	correct	study	Phase2	study/STIM_018.jpg
966.383	1.109	correct	study	Phase2	study/STIM_019.jpg
971.308	1.018	correct	study	Phase2	study/STIM_019.jpg
975.118	0.667	correct	study	Phase2	study/STIM_019.jpg
978.732	1.234	correct	study	Phase2	study/STIM_020.jpg
982.277	1.015	correct	study	Phase2	study/STIM_020.jpg
986.166	0.98	correct	study	Phase2	study/STIM_020.jpg
990.947	0.707	correct	study	Phase2	study/STIM_021.jpg
994.905	0.735	incorrect	study	Phase2	study/STIM_021.jpg
999.303	0.595	correct	study	Phase2	study/STIM_021.jpg
1003.654	1.414	correct	study	Phase2	study/STIM_022.jpg
1008.998	1.122	correct	study	Phase2	study/STIM_022.jpg
1013.831	0.605	correct	study	Phase2	study/STIM_022.jpg
1017.242	0.919	correct	study	Phase2	study/STIM_023.jpg
1020.457	0.8	correct	study	Phase2	study/STIM_023.jpg
1024.401	1.178	correct	study	Phase2	study/STIM_023.jpg
1028.707	0.813	correct	study	Phase2	study/STIM_024.jpg
1031.762	0.939	correct	study	Phase2	study/STIM_024.jpg
1034.882	0.874	correct	study	Phase2	study/STIM_024.jpg
1038.903	1.071	correct	study	Phase2	study/STIM_025.jpg
1042.985	1.289	incorrect	study	Phase2	study/STIM_025.jpg
1047.208	1.209	correct	study	Phase2	study/STIM_025.jpg
1050.863	0.846	correct	study	Phase2	study/STIM_026.jpg
1055.292	1.271	correct	study	Phase2	study/STIM_026.jpg
1060.209	0.76	correct	study	Phase2	study/STIM_026.jpg
1064.547	1.398	correct	study	Phase2	study/STIM_027.jpg
1069.682	1.297	correct	study	Phase2	study/STIM_027.jpg
1073.626	1.154	correct	study	Phase2	study/STIM_027.jpg
1078.404	0.835	correct	study	Phase2	study/STIM_028.jpg
1082.509	0.983	correct	study	Phase2	study/STIM_028.jpg
1087.284	1.002	correct	study	Phase2	study/STIM_028.jpg
1091.224	1.103	correct	study	Phase2	study/STIM_029.jpg
1095.734	1.071	correct	study	Phase2	study/STIM_029.jpg
1099.005	1.26	correct	study	Phase2	study/STIM_029.jpg
1102.827	1.142	correct	test	Phase2	test/STIM_000.jpg
1107.162	0.974	correct	test	Phase2	test/STIM_000.jpg
1110.938	1.189	correct	test	Phase2	test/STIM_000.jpg
1115.536	0.911	incorrect	test	Phase2	test/STIM_001.jpg
1119.409	0.838	correct	test	Phase2	test/STIM_001.jpg
1122.654	0.819	correct	test	Phase2	test/STIM_001.jpg
1126.988	0.767	correct	test	Phase2	test/STIM_002.jpg
1130.684	0.924	correct	test	Phase2	test/STIM_002.jpg
1133.954	0.767	correct	test	Phase2	test/STIM_002.jpg
1137.593	0.818	correct	test	Phase2	test/STIM_003.jpg
1140.772	0.945	correct	test	Phase2	test/STIM_003.jpg
1145.672	0.698	correct	test	Phase2	test/STIM_003.jpg
1149.753	0.842	incorrect	test	Phase2	test/STIM_004.jpg
1152.706	1.013	correct	test	Phase2	test/STIM_004.jpg
1157.68	0.883	correct	test	Phase2	test/STIM_004.jpg
1160.96	1.091	correct	test	Phase2	test/STIM_005.jpg
1165.759	1.142	correct	test	Phase2	test/STIM_005.jpg
1170.178	1.139	correct	test	Phase2	test/STIM_005.jpg
1174.749	0.723	correct	test	Phase2	test/STIM_006.jpg
1178.68	0.759	correct	test	Phase2	test/STIM_006.jpg
1182.294	1.051	correct	test	Phase2	test/STIM_006.jpg
1185.351	1.213	correct	test	Phase2	test/STIM_007.jpg
1188.869	0.947	correct	test	Phase2	test/STIM_007.jpg
1193.372	0.827	correct	test	Phase2	test/STIM_007.jpg
1196.253	0.74	correct	test	Phase2	test/STIM_008.jpg
1200.984	1.217	correct	test	Phase2	test/STIM_008.jpg
1204.969	0.588	correct	test	Phase2	test/STIM_008.jpg
1209.089	0.645	correct	test	Phase2	test/STIM_009.jpg
1212.265	0.622	correct	test	Phase2	test/STIM_009.jpg
1215.581	0.89	correct	test	Phase2	test/STIM_009.jpg
1218.911	0.916	correct	test	Phase2	test/STIM_010.jpg
1222.007	0.644	correct	test	Phase2	test/STIM_010.jpg
1225.637	0.698	correct	test	Phase2	test/STIM_010.jpg
1229.116	0.65	correct	test	Phase2	test/STIM_011.jpg
1233.0	1.08	correct	test	Phase2	test/STIM_011.jpg
1236.974	1.214	correct	test	Phase2	test/STIM_011.jpg
1242.078	0.998	correct	test	Phase2	test/STIM_012.jpg
1246.429	1.136	correct	test	Phase2	test/STIM_012.jpg
1250.796	1.033	correct	test	Phase2	test/STIM_012.jpg
1254.857	1.166	incorrect	test	Phase2	test/STIM_013.jpg
1259.694	0.971	incorrect	test	Phase2	test/STIM_013.jpg
1263.052	0.79	correct	test	Phase2	test/STIM_013.jpg
1266.647	1.045	correct	test	Phase2	test/STIM_014.jpg
1270.014	0.958	correct	test	Phase2	test/STIM_014.jpg
1274.053	0.621	correct	test	Phase2	test/STIM_014.jpg
1277.326	0.736	correct	test	Phase2	test/STIM_015.jpg
1281.49	0.945	correct	test	Phase2	test/STIM_015.jpg
1284.765	0.811	correct	test	Phase2	test/STIM_015.jpg
1289.338	0.773	correct	test	Phase2	test/STIM_016.jpg
1293.55	1.211	correct	test	Phase2	test/STIM_016.jpg
1298.29	0.693	correct	test	Phase2	test/STIM_016.jpg
1302.064	0.896	correct	test	Phase2	test/STIM_017.jpg
1306.336	0.925	correct	test	Phase2	test/STIM_017.jpg
1309.447	0.622	correct	test	Phase2	test/STIM_017.jpg
1312.703	1.12	correct	test	Phase2	test/STIM_018.jpg
1317.039	0.948	correct	test	Phase2	test/STIM_018.jpg
1320.015	1.051	correct	test	Phase2	test/STIM_018.jpg
1325.011	1.031	correct	test	Phase2	test/STIM_019.jpg
1329.097	0.796	correct	test	Phase2	test/STIM_019.jpg
1331.975	1.228	correct	test	Phase2	test/STIM_019.jpg
1335.53	0.92	correct	test	Phase2	test/STIM_020.jpg
1340.196	0.782	correct	test	Phase2	test/STIM_020.jpg
1343.825	0.834	correct	test	Phase2	test/STIM_020.jpg
1348.286	0.709	correct	test	Phase2	test/STIM_021.jpg
1352.655	0.719	correct	test	Phase2	test/STIM_021.jpg
1355.772	1.208	correct	test	Phase2	test/STIM_021.jpg
1360.36	0.679	incorrect	test	Phase2	test/STIM_022.jpg
1364.763	1.034	correct	test	Phase2	test/STIM_022.jpg
1368.663	1.055	correct	test	Phase2	test/STIM_022.jpg
1372.438	1.056	correct	test	Phase2	test/STIM_023.jpg
1376.77	1.14	incorrect	test	Phase2	test/STIM_023.jpg
1381.774	0.586	correct	test	Phase2	test/STIM_023.jpg
1384.489	0.832	correct	test	Phase2	test/STIM_024.jpg
1387.813	0.77	correct	test	Phase2	test/STIM_024.jpg
1391.746	1.013	incorrect	test	Phase2	test/STIM_024.jpg
1395.043	0.857	correct	test	Phase2	test/STIM_025.jpg
1399.738	1.113	correct	test	Phase2	test/STIM_025.jpg
1403.059	0.834	correct	test	Phase2	test/STIM_025.jpg
1406.243	1.102	correct	test	Phase2	test/STIM_026.jpg
1409.893	1.227	correct	test	Phase2	test/STIM_026.jpg
1413.456	0.963	correct	test	Phase2	test/STIM_026.jpg
1417.343	0.92	correct	test	Phase2	test/STIM_027.jpg
1421.493	0.815	correct	test	Phase2	test/STIM_027.jpg
1424.464	0.953	correct	test	Phase2	test/STIM_027.jpg
1428.547	1.162	correct	test	Phase2	test/STIM_028.jpg
1433.619	0.623	correct	test	Phase2	test/STIM_028.jpg
1438.078	1.108	correct	test	Phase2	test/STIM_028.jpg
1441.725	0.809	correct	test	Phase2	test/STIM_029.jpg
1444.954	1.056	correct	test	Phase2	test/STIM_029.jpg
1449.676	0.748	correct	test	Phase2	test/STIM_029.jpg
1453.023	0.758	correct	study	Phase3	study/STIM_000.jpg
1457.225	0.798	correct	study	Phase3	study/STIM_000.jpg
1461.365	1.003	correct	study	Phase3	study/STIM_000.jpg
1464.8	0.93	correct	study	Phase3	study/STIM_001.jpg
1468.117	0.582	correct	study	Phase3	study/STIM_001.jpg
1470.953	1.125	correct	study	Phase3	study/STIM_001.jpg
1475.783	0.959	correct	study	Phase3	study/STIM_002.jpg
1480.565	1.056	correct	study	Phase3	study/STIM_002.jpg
1484.81	0.759	correct	study	Phase3	study/STIM_002.jpg
1487.684	0.902	correct	study	Phase3	study/STIM_003.jpg
1491.296	0.742	correct	study	Phase3	study/STIM_003.jpg
1494.377	1.065	correct	study	Phase3	study/STIM_003.jpg
1499.08	0.866	correct	study	Phase3	study/STIM_004.jpg
1502.215	0.935	correct	study	Phase3	study/STIM_004.jpg
1505.764	0.95	correct	study	Phase3	study/STIM_004.jpg
1509.311	1.179	correct	study	Phase3	study/STIM_005.jpg
1514.032	1.126	correct	study	Phase3	study/STIM_005.jpg
1517.193	1.048	correct	study	Phase3	study/STIM_005.jpg
1521.776	0.624	correct	study	Phase3	study/STIM_006.jpg
1525.146	0.547	correct	study	Phase3	study/STIM_006.jpg
1528.878	1.161	correct	study	Phase3	study/STIM_006.jpg
1533.438	0.793	correct	study	Phase3	study/STIM_007.jpg
1537.663	0.806	correct	study	Phase3	study/STIM_007.jpg
1541.152	0.591	correct	study	Phase3	study/STIM_007.jpg
1545.165	0.773	correct	study	Phase3	study/STIM_008.jpg
1548.53	1.134	correct	study	Phase3	study/STIM_008.jpg
1553.174	0.597	correct	study	Phase3	study/STIM_008.jpg
1557.55	0.632	correct	study	Phase3	study/STIM_009.jpg
1561.212	0.539	correct	study	Phase3	study/STIM_009.jpg
1564.306	0.898	correct	study	Phase3	study/STIM_009.jpg
1568.102	0.76	correct	study	Phase3	study/STIM_010.jpg
1571.61	0.655	correct	study	Phase3	study/STIM_010.jpg
1574.481	0.918	correct	study	Phase3	study/STIM_010.jpg
1579.0	0.856	correct	study	Phase3	study/STIM_011.jpg
1582.377	0.594	correct	study	Phase3	study/STIM_011.jpg
1585.824	1.047	correct	study	Phase3	study/STIM_011.jpg
1590.704	1.158	correct	study	Phase3	study/STIM_012.jpg
1594.323	1.053	correct	study	Phase3	study/STIM_012.jpg
1598.366	1.07	correct	study	Phase3	study/STIM_012.jpg
1602.435	1.059	correct	study	Phase3	study/STIM_013.jpg
1607.339	0.954	correct	study	Phase3	study/STIM_013.jpg
1612.21	0.585	correct	study	Phase3	study/STIM_013.jpg
1616.066	0.624	correct	study	Phase3	study/STIM_014.jpg
1619.904	0.638	correct	study	Phase3	study/STIM_014.jpg
1623.613	1.038	correct	study	Phase3	study/STIM_014.jpg
1626.996	0.779	incorrect	study	Phase3	study/STIM_015.jpg
1630.793	1.1	correct	study	Phase3	study/STIM_015.jpg
1635.747	0.899	correct	study	Phase3	study/STIM_015.jpg
1640.29	1.184	correct	study	Phase3	study/STIM_016.jpg
1643.803	1.208	correct	study	Phase3	study/STIM_016.jpg
1647.678	1.022	correct	study	Phase3	study/STIM_016.jpg
1650.877	1.1	correct	study	Phase3	study/STIM_017.jpg
1655.666	0.907	correct	study	Phase3	study/STIM_017.jpg
1660.283	1.142	correct	study	Phase3	study/STIM_017.jpg
1664.776	0.898	correct	study	Phase3	study/STIM_018.jpg
1667.923	0.865	correct	study	Phase3	study/STIM_018.jpg
1670.888	0.901	correct	study	Phase3	study/STIM_018.jpg
1674.076	0.819	correct	study	Phase3	study/STIM_019.jpg
1678.531	0.67	correct	study	Phase3	study/STIM_019.jpg
1683.005	1.03	correct	study	Phase3	study/STIM_019.jpg
1686.23	1.056	correct	study	Phase3	study/STIM_020.jpg
1691.054	0.806	correct	study	Phase3	study/STIM_020.jpg
1695.405	0.882	correct	study	Phase3	study/STIM_020.jpg
1699.127	1.123	correct	study	Phase3	study/STIM_021.jpg
1703.658	0.851	correct	study	Phase3	study/STIM_021.jpg
1707.522	0.628	correct	study	Phase3	study/STIM_021.jpg
1711.816	1.061	correct	study	Phase3	study/STIM_022.jpg
1715.922	0.842	correct	study	Phase3	study/STIM_022.jpg
1720.088	1.15	correct	study	Phase3	study/STIM_022.jpg
1725.072	1.106	correct	study	Phase3	study/STIM_023.jpg
1728.28	0.844	correct	study	Phase3	study/STIM_023.jpg
1731.879	0.688	correct	study	Phase3	study/STIM_023.jpg
1736.083	0.882	correct	study	Phase3	study/STIM_024.jpg
1739.228	0.991	correct	study	Phase3	study/STIM_024.jpg
1743.229	0.627	correct	study	Phase3	study/STIM_024.jpg
1747.275	0.63	correct	study	Phase3	study/STIM_025.jpg
1749.966	0.739	correct	study	Phase3	study/STIM_025.jpg
1753.573	0.98	incorrect	study	Phase3	study/STIM_025.jpg
1757.891	0.858	correct	study	Phase3	study/STIM_026.jpg
1761.021	0.969	correct	study	Phase3	study/STIM_026.jpg
1765.801	1.145	correct	study	Phase3	study/STIM_026.jpg
1770.72	1.061	correct	study	Phase3	study/STIM_027.jpg
1774.784	0.721	correct	study	Phase3	study/STIM_027.jpg
1779.287	1.18	correct	study	Phase3	study/STIM_027.jpg
1783.427	0.758	correct	study	Phase3	study/STIM_028.jpg
1787.342	0.856	correct	study	Phase3	study/STIM_028.jpg
1791.61	1.195	correct	study	Phase3	study/STIM_028.jpg
1795.95	1.193	incorrect	study	Phase3	study/STIM_029.jpg
1800.185	1.038	correct	study	Phase3	study/STIM_029.jpg
1804.946	1.039	correct	study	Phase3	study/STIM_029.jpg
1809.469	0.616	correct	test	Phase3	test/STIM_000.jpg
1812.822	0.915	correct	test	Phase3	test/STIM_000.jpg
1816.882	1.175	correct	test	Phase3	test/STIM_000.jpg
1821.632	1.222	correct	test	Phase3	test/STIM_001.jpg
1826.332	0.835	correct	test	Phase3	test/STIM_001.jpg
1830.641	0.938	correct	test	Phase3	test/STIM_001.jpg
1834.834	1.219	correct	test	Phase3	test/STIM_002.jpg
1839.837	0.719	correct	test	Phase3	test/STIM_002.jpg
1843.424	1.007	correct	test	Phase3	test/STIM_002.jpg
1847.308	1.044	incorrect	test	Phase3	test/STIM_003.jpg
1850.6	0.938	correct	test	Phase3	test/STIM_003.jpg
1854.867	1.106	correct	test	Phase3	test/STIM_003.jpg
1859.535	0.98	correct	test	Phase3	test/STIM_004.jpg
1863.426	0.707	correct	test	Phase3	test/STIM_004.jpg
1867.755	1.089	correct	test	Phase3	test/STIM_004.jpg
1872.793	0.827	correct	test	Phase3	test/STIM_005.jpg
1877.015	1.157	correct	test	Phase3	test/STIM_005.jpg
1881.283	0.944	correct	test	Phase3	test/STIM_005.jpg
1884.653	0.69	incorrect	test	Phase3	test/STIM_006.jpg
1888.4	0.914	correct	test	Phase3	test/STIM_006.jpg
1891.701	0.979	correct	test	Phase3	test/STIM_006.jpg
1894.867	0.978	correct	test	Phase3	test/STIM_007.jpg
1897.958	0.801	correct	test	Phase3	test/STIM_007.jpg
1902.15	1.17	correct	test	Phase3	test/STIM_007.jpg
1907.175	0.766	correct	test	Phase3	test/STIM_008.jpg
1911.891	1.1	correct	test	Phase3	test/STIM_008.jpg
1916.134	0.943	correct	test	Phase3	test/STIM_008.jpg
1920.957	0.961	correct	test	Phase3	test/STIM_009.jpg
1925.511	0.959	correct	test	Phase3	test/STIM_009.jpg
1929.551	1.235	correct	test	Phase3	test/STIM_009.jpg
1934.785	0.671	correct	test	Phase3	test/STIM_010.jpg
1938.869	1.023	correct	test	Phase3	test/STIM_010.jpg
1942.763	0.699	correct	test	Phase3	test/STIM_010.jpg
1947.32	0.821	correct	test	Phase3	test/STIM_011.jpg
1950.669	0.915	correct	test	Phase3	test/STIM_011.jpg
1953.775	0.65	correct	test	Phase3	test/STIM_011.jpg
1957.888	0.88	correct	test	Phase3	test/STIM_012.jpg
1962.131	0.585	correct	test	Phase3	test/STIM_012.jpg
1965.408	0.609	correct	test	Phase3	test/STIM_012.jpg
1969.514	0.742	correct	test	Phase3	test/STIM_013.jpg
1973.232	0.682	correct	test	Phase3	test/STIM_013.jpg
1976.673	0.877	correct	test	Phase3	test/STIM_013.jpg
1980.665	1.113	correct	test	Phase3	test/STIM_014.jpg
1984.11	0.594	correct	test	Phase3	test/STIM_014.jpg
1988.426	0.644	correct	test	Phase3	test/STIM_014.jpg
1992.819	0.604	correct	test	Phase3	test/STIM_015.jpg
1996.313	0.63	correct	test	Phase3	test/STIM_015.jpg
1998.99	1.21	correct	test	Phase3	test/STIM_015.jpg
2003.292	1.016	correct	test	Phase3	test/STIM_016.jpg
2007.808	0.753	correct	test	Phase3	test/STIM_016.jpg
2012.213	0.869	correct	test	Phase3	test/STIM_016.jpg
2015.513	0.97	correct	test	Phase3	test/STIM_017.jpg
2019.066	0.689	correct	test	Phase3	test/STIM_017.jpg
2023.158	1.082	correct	test	Phase3	test/STIM_017.jpg
2026.511	1.164	correct	test	Phase3	test/STIM_018.jpg
2030.074	1.206	correct	test	Phase3	test/STIM_018.jpg
2033.998	0.768	correct	test	Phase3	test/STIM_018.jpg
2037.668	0.693	correct	test	Phase3	test/STIM_019.jpg
2040.677	0.84	correct	test	Phase3	test/STIM_019.jpg
2043.611	1.048	correct	test	Phase3	test/STIM_019.jpg
2046.725	0.87	correct	test	Phase3	test/STIM_020.jpg
2050.242	0.848	correct	test	Phase3	test/STIM_020.jpg
2054.333	1.079	incorrect	test	Phase3	test/STIM_020.jpg
2057.771	0.601	correct	test	Phase3	test/STIM_021.jpg
2061.754	1.059	correct	test	Phase3	test/STIM_021.jpg
2066.751	1.239	correct	test	Phase3	test/STIM_021.jpg
2071.364	0.824	incorrect	test	Phase3	test/STIM_022.jpg
2076.003	0.762	correct	test	Phase3	test/STIM_022.jpg
2079.066	0.796	correct	test	Phase3	test/STIM_022.jpg
2083.1	1.077	correct	test	Phase3	test/STIM_023.jpg
2086.977	0.827	correct	test	Phase3	test/STIM_023.jpg
2090.706	1.068	correct	test	Phase3	test/STIM_023.jpg
2094.784	0.925	incorrect	test	Phase3	test/STIM_024.jpg
2098.819	1.054	correct	test	Phase3	test/STIM_024.jpg
2103.258	1.147	correct	test	Phase3	test/STIM_024.jpg
2107.91	1.124	correct	test	Phase3	test/STIM_025.jpg
2111.496	0.655	correct	test	Phase3	test/STIM_025.jpg
2114.833	0.7	correct	test	Phase3	test/STIM_025.jpg
2119.269	1.24	correct	test	Phase3	test/STIM_026.jpg
2124.267	0.902	correct	test	Phase3	test/STIM_026.jpg
2128.303	1.164	correct	test	Phase3	test/STIM_026.jpg
2132.962	0.804	correct	test	Phase3	test/STIM_027.jpg
2137.718	1.199	correct	test	Phase3	test/STIM_027.jpg
2141.225	1.158	correct	test	Phase3	test/STIM_027.jpg
2145.409	1.242	correct	test	Phase3	test/STIM_028.jpg
2148.946	1.024	correct	test	Phase3	test/STIM_028.jpg
2152.332	0.703	correct	test	Phase3	test/STIM_028.jpg
2155.115	0.996	correct	test	Phase3	test/STIM_029.jpg
2158.858	0.669	correct	test	Phase3	test/STIM_029.jpg
2162.048	0.698	correct	test	Phase3	test/STIM_029.jpg
