onset	duration	response_time_ms	trial_type	learning_stage	stimulus	response_port
0.0	1.444	1444.5	study	Phase1	study/STIM_000.jpg	100
3.604	0.734	734.3	study	Phase1	study/STIM_000.jpg	100
8.281	1.175	1175.1	study	Phase1	study/STIM_000.jpg	100
11.695	1.306	1306.0	study	Phase1	study/STIM_001.jpg	99
16.582	1.204	1204.3	study	Phase1	study/STIM_001.jpg	99
20.741	1.332	1331.7	study	Phase1	study/STIM_001.jpg	99
25.139	1.125	1125.4	study	Phase1	study/STIM_002.jpg	99
29.796	1.379	1378.9	study	Phase1	study/STIM_002.jpg	99
34.749	0.756	755.7	study	Phase1	study/STIM_002.jpg	99
39.004	1.101	1101.1	study	Phase1	study/STIM_003.jpg	99
43.633	0.855	855.0	study	Phase1	study/STIM_003.jpg	99
47.789	0.709	709.1	study	Phase1	study/STIM_003.jpg	99
50.887	1.01	1010.1	study	Phase1	study/STIM_004.jpg	99
54.732	0.972	971.9	study	Phase1	study/STIM_004.jpg	99
59.425	0.715	715.1	study	Phase1	study/STIM_004.jpg	99
62.218	1.198	1198.4	study	Phase1	study/STIM_005.jpg	99
66.538	1.603	1603.1	study	Phase1	study/STIM_005.jpg	99
71.82	1.37	1369.6	study	Phase1	study/STIM_005.jpg	100
75.723	1.364	1364.2	study	Phase1	study/STIM_006.jpg	99
80.054	1.57	1570.1	study	Phase1	study/STIM_006.jpg	99
83.692	1.296	1295.8	study	Phase1	study/STIM_006.jpg	100
87.382	0.92	920.5	study	Phase1	study/STIM_007.jpg	99
91.827	1.563	1562.6	study	Phase1	study/STIM_007.jpg	99
95.946	1.492	1491.9	study	Phase1	study/STIM_007.jpg	99
100.285	1.638	1637.7	study	Phase1	study/STIM_008.jpg	100
104.452	1.599	1598.9	study	Phase1	study/STIM_008.jpg	99
109.322	1.349	1349.0	study	Phase1	study/STIM_008.jpg	99
114.341	1.656	1655.8	study	Phase1	study/STIM_009.jpg	100
118.23	0.779	779.0	study	Phase1	study/STIM_009.jpg	99
122.555	1.434	1434.2	study	Phase1	study/STIM_009.jpg	99
126.236	1.486	1486.2	study	Phase1	study/STIM_010.jpg	100
129.94	1.118	1118.1	study	Phase1	study/STIM_010.jpg	100
134.566	1.514	1514.0	study	Phase1	study/STIM_010.jpg	99
139.898	1.584	1584.1	study	Phase1	study/STIM_011.jpg	100
144.666	1.369	1369.4	study	Phase1	study/STIM_011.jpg	99
149.146	0.88	880.2	study	Phase1	study/STIM_011.jpg	100
152.69	1.681	1681.0	study	Phase1	study/STIM_012.jpg	100
157.302	1.632	1632.2	study	Phase1	study/STIM_012.jpg	99
161.806	1.266	1265.6	study	Phase1	study/STIM_012.jpg	100
166.765	1.226	1226.1	study	Phase1	study/STIM_013.jpg	99
170.84	1.354	1353.8	study	Phase1	study/STIM_013.jpg	99
175.218	1.208	1207.5	study	Phase1	study/STIM_013.jpg	99
180.04	1.27	1270.1	study	Phase1	study/STIM_014.jpg	100
184.231	1.012	1012.1	study	Phase1	study/STIM_014.jpg	100
187.692	1.277	1277.3	study	Phase1	study/STIM_014.jpg	99
191.231	1.228	1228.1	study	Phase1	study/STIM_015.jpg	99
195.269	0.952	952.2	study	Phase1	study/STIM_015.jpg	99
199.948	0.949	949.3	study	Phase1	study/STIM_015.jpg	99
203.895	0.936	936.2	study	Phase1	study/STIM_016.jpg	99
208.564	1.168	1167.5	study	Phase1	study/STIM_016.jpg	99
213.277	0.791	790.8	study	Phase1	study/STIM_016.jpg	99
216.296	1.139	1139.3	study	Phase1	study/STIM_017.jpg	100
219.973	0.739	738.9	study	Phase1	study/STIM_017.jpg	100
224.594	1.059	1059.0	study	Phase1	study/STIM_017.jpg	99
228.493	1.717	1717.0	study	Phase1	study/STIM_018.jpg	99
234.037	0.839	838.6	study	Phase1	study/STIM_018.jpg	99
236.972	0.831	830.9	study	Phase1	study/STIM_018.jpg	100
241.446	1.089	1089.3	study	Phase1	study/STIM_019.jpg	100
245.657	0.843	843.0	study	Phase1	study/STIM_019.jpg	99
250.266	1.144	1144.4	study	Phase1	study/STIM_019.jpg	100
254.04	1.136	1135.8	study	Phase1	study/STIM_020.jpg	100
258.896	1.228	1228.5	study	Phase1	study/STIM_020.jpg	99
262.32	0.85	849.9	study	Phase1	study/STIM_020.jpg	100
265.422	0.788	788.2	study	Phase1	study/STIM_021.jpg	99
268.418	1.407	1406.9	study	Phase1	study/STIM_021.jpg	100
273.453	1.549	1549.1	study	Phase1	study/STIM_021.jpg	99
277.856	1.2	1200.1	study	Phase1	study/STIM_022.jpg	99
281.493	1.453	1453.1	study	Phase1	study/STIM_022.jpg	99
285.226	1.298	1298.2	study	Phase1	study/STIM_022.jpg	99
289.35	1.626	1626.1	study	Phase1	study/STIM_023.jpg	99
293.72	0.752	751.6	study	Phase1	study/STIM_023.jpg	100
297.825	0.692	692.3	study	Phase1	study/STIM_023.jpg	100
301.814	1.64	1640.4	study	Phase1	study/STIM_024.jpg	100
305.773	1.353	1353.0	study	Phase1	study/STIM_024.jpg	100
309.473	1.235	1234.7	study	Phase1	study/STIM_024.jpg	100
313.024	1.474	1473.6	study	Phase1	study/STIM_025.jpg	99
317.696	1.448	1448.4	study	Phase1	study/STIM_025.jpg	99
321.3	1.55	1550.1	study	Phase1	study/STIM_025.jpg	99
326.788	1.339	1339.1	study	Phase1	study/STIM_026.jpg	100
330.719	1.522	1522.3	study	Phase1	study/STIM_026.jpg	100
335.998	0.938	938.2	study	Phase1	study/STIM_026.jpg	100
340.501	1.522	1522.3	study	Phase1	study/STIM_027.jpg	100
346.015	1.604	1604.1	study	Phase1	study/STIM_027.jpg	100
350.358	1.138	1138.3	study	Phase1	study/STIM_027.jpg	100
354.85	1.417	1416.7	study	Phase1	study/STIM_028.jpg	99
358.942	0.918	917.9	study	Phase1	study/STIM_028.jpg	100
362.697	1.097	1096.6	study	Phase1	study/STIM_028.jpg	100
367.627	1.037	1037.3	study	Phase1	study/STIM_029.jpg	99
371.761	1.328	1327.6	study	Phase1	study/STIM_029.jpg	99
377.057	1.284	1283.6	study	Phase1	study/STIM_029.jpg	99
381.482	1.161	1160.6	test	Phase1	test/STIM_000.jpg	99
385.081	0.581	581.4	test	Phase1	test/STIM_000.jpg	100
388.758	0.828	828.3	test	Phase1	test/STIM_000.jpg	100
392.557	0.703	703.3	test	Phase1	test/STIM_001.jpg	100
395.946	1.14	1140.3	test	Phase1	test/STIM_001.jpg	100
399.773	1.008	1008.5	test	Phase1	test/STIM_001.jpg	99
403.213	1.21	1209.5	test	Phase1	test/STIM_002.jpg	99
408.257	1.24	1239.5	test	Phase1	test/STIM_002.jpg	100
412.19	0.717	716.9	test	Phase1	test/STIM_002.jpg	99
415.338	0.743	742.9	test	Phase1	test/STIM_003.jpg	99
418.955	0.722	721.5	test	Phase1	test/STIM_003.jpg	99
422.064	0.738	738.3	test	Phase1	test/STIM_003.jpg	99
426.51	1.219	1218.6	test	Phase1	test/STIM_004.jpg	100
430.543	0.622	621.5	test	Phase1	test/STIM_004.jpg	100
433.303	1.045	1045.4	test	Phase1	test/STIM_004.jpg	99
436.644	1.089	1089.3	test	Phase1	test/STIM_005.jpg	99
440.495	0.618	617.9	test	Phase1	test/STIM_005.jpg	100
443.72	1.006	1005.8	test	Phase1	test/STIM_005.jpg	99
447.964	0.779	779.0	test	Phase1	test/STIM_006.jpg	100
452.227	0.784	784.0	test	Phase1	test/STIM_006.jpg	99
456.928	1.153	1152.7	test	Phase1	test/STIM_006.jpg	99
460.229	0.934	934.0	test	Phase1	test/STIM_007.jpg	100
464.826	0.862	861.7	test	Phase1	test/STIM_007.jpg	100
469.216	0.688	687.7	test	Phase1	test/STIM_007.jpg	99
473.183	0.685	685.1	test	Phase1	test/STIM_008.jpg	100
477.432	1.1	1099.6	test	Phase1	test/STIM_008.jpg	100
480.724	0.692	691.7	test	Phase1	test/STIM_008.jpg	100
485.291	0.641	641.0	test	Phase1	test/STIM_009.jpg	99
489.716	0.871	871.3	test	Phase1	test/STIM_009.jpg	100
493.234	0.874	874.1	test	Phase1	test/STIM_009.jpg	100
497.41	0.841	840.7	test	Phase1	test/STIM_010.jpg	99
501.476	1.149	1149.3	test	Phase1	test/STIM_010.jpg	100
505.744	1.087	1086.9	test	Phase1	test/STIM_010.jpg	100
509.073	0.63	630.1	test	Phase1	test/STIM_011.jpg	99
512.129	0.933	932.6	test	Phase1	test/STIM_011.jpg	100
515.556	0.687	686.8	test	Phase1	test/STIM_011.jpg	99
519.988	0.888	887.8	test	Phase1	test/STIM_012.jpg	100
524.72	1.0	1000.4	test	Phase1	test/STIM_012.jpg	100
529.341	0.786	785.5	test	Phase1	test/STIM_012.jpg	99
533.198	1.043	1042.7	test	Phase1	test/STIM_013.jpg	100
536.336	1.072	1072.3	test	Phase1	test/STIM_013.jpg	100
540.935	0.784	783.9	test	Phase1	test/STIM_013.jpg	99
544.928	1.242	1241.9	test	Phase1	test/STIM_014.jpg	99
548.203	0.7	700.2	test	Phase1	test/STIM_014.jpg	99
552.36	0.982	982.4	test	Phase1	test/STIM_014.jpg	99
555.574	1.089	1088.7	test	Phase1	test/STIM_015.jpg	100
558.955	0.614	614.2	test	Phase1	test/STIM_015.jpg	100
563.452	1.143	1143.0	test	Phase1	test/STIM_015.jpg	100
567.092	1.12	1120.2	test	Phase1	test/STIM_016.jpg	99
570.581	1.095	1095.4	test	Phase1	test/STIM_016.jpg	100
575.653	1.189	1188.6	test	Phase1	test/STIM_016.jpg	100
579.777	0.934	933.6	test	Phase1	test/STIM_017.jpg	99
583.047	0.951	951.2	test	Phase1	test/STIM_017.jpg	99
586.107	0.728	727.8	test	Phase1	test/STIM_017.jpg	100
589.655	0.684	683.6	test	Phase1	test/STIM_018.jpg	100
593.777	0.994	994.3	test	Phase1	test/STIM_018.jpg	99
597.584	1.068	1068.5	test	Phase1	test/STIM_018.jpg	100
602.102	1.114	1113.5	test	Phase1	test/STIM_019.jpg	100
607.038	0.805	805.2	test	Phase1	test/STIM_019.jpg	99
611.161	1.224	1224.5	test	Phase1	test/STIM_019.jpg	100
614.765	0.611	611.0	test	Phase1	test/STIM_020.jpg	99
619.186	1.182	1182.2	test	Phase1	test/STIM_020.jpg	100
622.87	0.905	904.7	test	Phase1	test/STIM_020.jpg	99
626.931	1.224	1223.9	test	Phase1	test/STIM_021.jpg	99
631.036	1.019	1019.4	test	Phase1	test/STIM_021.jpg	99
635.369	0.616	616.0	test	Phase1	test/STIM_021.jpg	100
639.122	1.242	1241.9	test	Phase1	test/STIM_022.jpg	99
643.106	1.147	1146.7	test	Phase1	test/STIM_022.jpg	99
648.235	0.628	627.7	test	Phase1	test/STIM_022.jpg	100
652.333	1.216	1216.0	test	Phase1	test/STIM_023.jpg	99
656.941	0.878	877.5	test	Phase1	test/STIM_023.jpg	99
661.234	0.728	728.0	test	Phase1	test/STIM_023.jpg	99
665.311	0.694	693.5	test	Phase1	test/STIM_024.jpg	99
668.95	0.622	622.5	test	Phase1	test/STIM_024.jpg	99
671.58	0.648	648.5	test	Phase1	test/STIM_024.jpg	99
674.325	1.208	1208.3	test	Phase1	test/STIM_025.jpg	99
678.49	0.969	969.2	test	Phase1	test/STIM_025.jpg	100
681.917	0.858	858.0	test	Phase1	test/STIM_025.jpg	99
685.491	1.201	1200.7	test	Phase1	test/STIM_026.jpg	100
690.174	1.018	1017.5	test	Phase1	test/STIM_026.jpg	100
694.905	1.212	1212.5	test	Phase1	test/STIM_026.jpg	100
700.071	1.128	1128.1	test	Phase1	test/STIM_027.jpg	100
704.024	0.861	860.8	test	Phase1	test/STIM_027.jpg	99
708.289	1.039	1038.7	test	Phase1	test/STIM_027.jpg	100
712.438	0.938	937.5	test	Phase1	test/STIM_028.jpg	100
716.173	0.976	975.8	test	Phase1	test/STIM_028.jpg	100
719.84	0.747	747.4	test	Phase1	test/STIM_028.jpg	99
723.801	1.076	1076.5	test	Phase1	test/STIM_029.jpg	99
728.112	1.228	1227.5	test	Phase1	test/STIM_029.jpg	100
732.54	0.619	618.7	test	Phase1	test/STIM_029.jpg	100
736.095	1.063	1063.3	study	Phase2	study/STIM_000.jpg	99
740.086	1.004	1003.8	study	Phase2	study/STIM_000.jpg	99
743.517	0.716	716.3	study	Phase2	study/STIM_000.jpg	99
747.319	1.168	1167.6	study	Phase2	study/STIM_001.jpg	99
751.192	0.778	777.9	study	Phase2	study/STIM_001.jpg	99
754.317	0.772	771.5	study	Phase2	study/STIM_001.jpg	99
757.236	0.824	824.4	study	Phase2	study/STIM_002.jpg	99
761.948	0.988	988.3	study	Phase2	study/STIM_002.jpg	100
765.308	0.763	763.3	study	Phase2	study/STIM_002.jpg	99
768.799	1.417	1416.8	study	Phase2	study/STIM_003.jpg	99
773.942	0.966	965.5	study	Phase2	study/STIM_003.jpg	100
778.396	0.765	765.1	study	Phase2	study/STIM_003.jpg	99
782.586	0.844	843.8	study	Phase2	study/STIM_004.jpg	99
786.566	0.876	876.5	study	Phase2	study/STIM_004.jpg	100
791.298	1.229	1229.4	study	Phase2	study/STIM_004.jpg	100
795.978	0.974	974.1	study	Phase2	study/STIM_005.jpg	100
800.258	0.83	830.4	study	Phase2	study/STIM_005.jpg	100
804.552	1.21	1210.4	study	Phase2	study/STIM_005.jpg	99
807.852	1.236	1236.3	study	Phase2	study/STIM_006.jpg	100
812.963	1.038	1037.6	study	Phase2	study/STIM_006.jpg	99
817.429	0.941	941.1	study	Phase2	study/STIM_006.jpg	100
821.997	1.172	1171.6	study	Phase2	study/STIM_007.jpg	99
827.104	1.252	1252.5	study	Phase2	study/STIM_007.jpg	99
830.388	1.268	1267.6	study	Phase2	study/STIM_007.jpg	99
834.315	0.804	804.0	study	Phase2	study/STIM_008.jpg	99
837.788	0.826	825.6	study	Phase2	study/STIM_008.jpg	99
842.604	0.952	952.5	study	Phase2	study/STIM_008.jpg	100
846.813	1.101	1101.4	study	Phase2	study/STIM_009.jpg	100
851.61	0.683	682.6	study	Phase2	study/STIM_009.jpg	100
855.775	0.922	921.8	study	Phase2	study/STIM_009.jpg	100
859.775	0.975	974.7	study	Phase2	study/STIM_010.jpg	100
862.839	0.886	886.2	study	Phase2	study/STIM_010.jpg	99
866.831	1.085	1085.2	study	Phase2	study/STIM_010.jpg	100
870.35	0.994	994.4	study	Phase2	study/STIM_011.jpg	100
874.77	0.652	651.9	study	Phase2	study/STIM_011.jpg	99
879.192	0.81	810.0	study	Phase2	study/STIM_011.jpg	99
883.318	1.429	1429.2	study	Phase2	study/STIM_012.jpg	100
886.936	0.941	940.8	study	Phase2	study/STIM_012.jpg	100
891.54	0.914	914.1	study	Phase2	study/STIM_012.jpg	99
895.6	1.432	1431.8	study	Phase2	study/STIM_013.jpg	100
900.324	1.355	1355.3	study	Phase2	study/STIM_013.jpg	99
904.327	0.787	786.8	study	Phase2	study/STIM_013.jpg	100
908.054	1.342	1341.5	study	Phase2	study/STIM_014.jpg	99
913.392	1.302	1301.9	study	Phase2	study/STIM_014.jpg	100
918.41	1.297	1296.7	study	Phase2	study/STIM_014.jpg	100
922.338	1.077	1076.8	study	Phase2	study/STIM_015.jpg	99
926.809	0.671	671.2	study	Phase2	study/STIM_015.jpg	99
929.869	0.91	910.1	study	Phase2	study/STIM_015.jpg	99
933.728	0.71	710.3	study	Phase2	study/STIM_016.jpg	99
937.33	0.991	991.4	study	Phase2	study/STIM_016.jpg	100
941.164	1.017	1017.0	study	Phase2	study/STIM_016.jpg	99
944.631	0.705	705.3	study	Phase2	study/STIM_017.jpg	99
948.34	1.324	1323.5	study	Phase2	study/STIM_017.jpg	99
952.109	0.624	624.3	study	Phase2	study/STIM_017.jpg	99
954.858	1.442	1442.0	study	Phase2	study/STIM_018.jpg	99
958.455	0.737	736.6	study	Phase2	study/STIM_018.jpg	100
961.646	0.97	969.9	study	Phase2	study/STIM_018.jpg	99
966.383	1.109	1108.6	study	Phase2	study/STIM_019.jpg	100
971.308	1.018	1017.6	study	Phase2	study/STIM_019.jpg	100
975.118	0.667	666.7	study	Phase2	study/STIM_019.jpg	100
978.732	1.234	1234.1	study	Phase2	study/STIM_020.jpg	100
982.277	1.015	1015.1	study	Phase2	study/STIM_020.jpg	99
986.166	0.98	979.6	study	Phase2	study/STIM_020.jpg	99
990.947	0.707	707.4	study	Phase2	study/STIM_021.jpg	100
994.905	0.735	735.1	study	Phase2	study/STIM_021.jpg	99
999.303	0.595	595.1	study	Phase2	study/STIM_021.jpg	99
1003.654	1.414	1414.0	study	Phase2	study/STIM_022.jpg	99
1008.998	1.122	1122.2	study	Phase2	study/STIM_022.jpg	100
1013.831	0.605	605.0	study	Phase2	study/STIM_022.jpg	99
1017.242	0.919	919.3	study	Phase2	study/STIM_023.jpg	99
1020.457	0.8	800.0	study	Phase2	study/STIM_023.jpg	99
1024.401	1.178	1178.1	study	Phase2	study/STIM_023.jpg	99
1028.707	0.813	813.3	study	Phase2	study/STIM_024.jpg	99
1031.762	0.939	939.1	study	Phase2	study/STIM_024.jpg	100
1034.882	0.874	874.0	study	Phase2	study/STIM_024.jpg	100
1038.903	1.071	1071.4	study	Phase2	study/STIM_025.jpg	100
1042.985	1.289	1289.3	study	Phase2	study/STIM_025.jpg	100
1047.208	1.209	1208.6	study	Phase2	study/STIM_025.jpg	99
1050.863	0.846	846.0	study	Phase2	study/STIM_026.jpg	100
1055.292	1.271	1271.2	study	Phase2	study/STIM_026.jpg	100
1060.209	0.76	759.6	study	Phase2	study/STIM_026.jpg	100
1064.547	1.398	1398.2	study	Phase2	study/STIM_027.jpg	99
1069.682	1.297	1297.2	study	Phase2	study/STIM_027.jpg	99
1073.626	1.154	1154.4	study	Phase2	study/STIM_027.jpg	99
1078.404	0.835	835.0	study	Phase2	study/STIM_028.jpg	99
1082.509	0.983	982.8	study	Phase2	study/STIM_028.jpg	100
1087.284	1.002	1002.4	study	Phase2	study/STIM_028.jpg	99
1091.224	1.103	1103.1	study	Phase2	study/STIM_029.jpg	99
1095.734	1.071	1070.8	study	Phase2	study/STIM_029.jpg	99
1099.005	1.26	1259.9	study	Phase2	study/STIM_029.jpg	99
1102.827	1.142	1142.2	test	Phase2	test/STIM_000.jpg	100
1107.162	0.974	973.8	test	Phase2	test/STIM_000.jpg	100
1110.938	1.189	1189.3	test	Phase2	test/STIM_000.jpg	99
1115.536	0.911	910.8	test	Phase2	test/STIM_001.jpg	99
1119.409	0.838	838.5	test	Phase2	test/STIM_001.jpg	99
1122.654	0.819	819.3	test	Phase2	test/STIM_001.jpg	99
1126.988	0.767	767.0	test	Phase2	test/STIM_002.jpg	99
1130.684	0.924	924.0	test	Phase2	test/STIM_002.jpg	100
1133.954	0.767	766.7	test	Phase2	test/STIM_002.jpg	100
1137.593	0.818	818.3	test	Phase2	test/STIM_003.jpg	100
1140.772	0.945	945.2	test	Phase2	test/STIM_003.jpg	99
1145.672	0.698	698.1	test	Phase2	test/STIM_003.jpg	100
1149.753	0.842	842.4	test	Phase2	test/STIM_004.jpg	99
1152.706	1.013	1013.2	test	Phase2	test/STIM_004.jpg	100
1157.68	0.883	882.9	test	Phase2	test/STIM_004.jpg	100
1160.96	1.091	1090.8	test	Phase2	test/STIM_005.jpg	99
1165.759	1.142	1141.8	test	Phase2	test/STIM_005.jpg	100
1170.178	1.139	1139.1	test	Phase2	test/STIM_005.jpg	100
1174.749	0.723	722.8	test	Phase2	test/STIM_006.jpg	99
1178.68	0.759	759.1	test	Phase2	test/STIM_006.jpg	100
1182.294	1.051	1051.1	test	Phase2	test/STIM_006.jpg	100
1185.351	1.213	1213.1	test	Phase2	test/STIM_007.jpg	99
1188.869	0.947	946.8	test	Phase2	test/STIM_007.jpg	99
1193.372	0.827	827.2	test	Phase2	test/STIM_007.jpg	100
1196.253	0.74	740.2	test	Phase2	test/STIM_008.jpg	99
1200.984	1.217	1217.2	test	Phase2	test/STIM_008.jpg	100
1204.969	0.588	588.0	test	Phase2	test/STIM_008.jpg	100
1209.089	0.645	645.4	test	Phase2	test/STIM_009.jpg	99
1212.265	0.622	622.5	test	Phase2	test/STIM_009.jpg	100
1215.581	0.89	889.6	test	Phase2	test/STIM_009.jpg	99
1218.911	0.916	916.0	test	Phase2	test/STIM_010.jpg	99
1222.007	0.644	643.8	test	Phase2	test/STIM_010.jpg	100
1225.637	0.698	698.5	test	Phase2	test/STIM_010.jpg	99
1229.116	0.65	650.0	test	Phase2	test/STIM_011.jpg	100
1233.0	1.08	1079.7	test	Phase2	test/STIM_011.jpg	100
1236.974	1.214	1214.5	test	Phase2	test/STIM_011.jpg	99
1242.078	0.998	998.0	test	Phase2	test/STIM_012.jpg	100
1246.429	1.136	1135.9	test	Phase2	test/STIM_012.jpg	100
1250.796	1.033	1032.8	test	Phase2	test/STIM_012.jpg	99
1254.857	1.166	1166.4	test	Phase2	test/STIM_013.jpg	99
1259.694	0.971	971.4	test	Phase2	test/STIM_013.jpg	99
1263.052	0.79	790.2	test	Phase2	test/STIM_013.jpg	99
1266.647	1.045	1045.1	test	Phase2	test/STIM_014.jpg	100
1270.014	0.958	958.3	test	Phase2	test/STIM_014.jpg	100
1274.053	0.621	621.2	test	Phase2	test/STIM_014.jpg	99
1277.326	0.736	736.1	test	Phase2	test/STIM_015.jpg	100
1281.49	0.945	945.3	test	Phase2	test/STIM_015.jpg	99
1284.765	0.811	810.9	test	Phase2	test/STIM_015.jpg	99
1289.338	0.773	772.7	test	Phase2	test/STIM_016.jpg	99
1293.55	1.211	1211.0	test	Phase2	test/STIM_016.jpg	99
1298.29	0.693	692.9	test	Phase2	test/STIM_016.jpg	99
1302.064	0.896	895.7	test	Phase2	test/STIM_017.jpg	99
1306.336	0.925	924.8	test	Phase2	test/STIM_017.jpg	100
1309.447	0.622	621.8	test	Phase2	test/STIM_017.jpg	99
1312.703	1.12	1120.4	test	Phase2	test/STIM_018.jpg	99
1317.039	0.948	948.0	test	Phase2	test/STIM_018.jpg	99
1320.015	1.051	1050.9	test	Phase2	test/STIM_018.jpg	100
1325.011	1.031	1031.0	test	Phase2	test/STIM_019.jpg	100
1329.097	0.796	796.2	test	Phase2	test/STIM_019.jpg	100
1331.975	1.228	1228.2	test	Phase2	test/STIM_019.jpg	99
1335.53	0.92	920.5	test	Phase2	test/STIM_020.jpg	99
1340.196	0.782	782.1	test	Phase2	test/STIM_020.jpg	99
1343.825	0.834	833.5	test	Phase2	test/STIM_020.jpg	99
1348.286	0.709	709.2	test	Phase2	test/STIM_021.jpg	100
1352.655	0.719	718.9	test	Phase2	test/STIM_021.jpg	100
1355.772	1.208	1207.6	test	Phase2	test/STIM_021.jpg	99
1360.36	0.679	679.1	test	Phase2	test/STIM_022.jpg	99
1364.763	1.034	1034.1	test	Phase2	test/STIM_022.jpg	99
1368.663	1.055	1055.1	test	Phase2	test/STIM_022.jpg	99
1372.438	1.056	1056.3	test	Phase2	test/STIM_023.jpg	100
1376.77	1.14	1140.3	test	Phase2	test/STIM_023.jpg	100
1381.774	0.586	585.7	test	Phase2	test/STIM_023.jpg	99
1384.489	0.832	831.9	test	Phase2	test/STIM_024.jpg	100
1387.813	0.77	770.5	test	Phase2	test/STIM_024.jpg	100
1391.746	1.013	1013.3	test	Phase2	test/STIM_024.jpg	100
1395.043	0.857	856.9	test	Phase2	test/STIM_025.jpg	100
1399.738	1.113	1113.4	test	Phase2	test/STIM_025.jpg	100
1403.059	0.834	834.2	test	Phase2	test/STIM_025.jpg	99
1406.243	1.102	1101.5	test	Phase2	test/STIM_026.jpg	99
1409.893	1.227	1227.1	test	Phase2	test/STIM_026.jpg	99
1413.456	0.963	962.7	test	Phase2	test/STIM_026.jpg	100
1417.343	0.92	919.6	test	Phase2	test/STIM_027.jpg	100
1421.493	0.815	815.1	test	Phase2	test/STIM_027.jpg	99
1424.464	0.953	953.1	test	Phase2	test/STIM_027.jpg	100
1428.547	1.162	1161.7	test	Phase2	test/STIM_028.jpg	100
1433.619	0.623	622.8	test	Phase2	test/STIM_028.jpg	100
1438.078	1.108	1108.0	test	Phase2	test/STIM_028.jpg	100
1441.725	0.809	809.3	test	Phase2	test/STIM_029.jpg	100
1444.954	1.056	1056.3	test	Phase2	test/STIM_029.jpg	100
1449.676	0.748	747.6	test	Phase2	test/STIM_029.jpg	100
1453.023	0.758	758.2	study	Phase3	study/STIM_000.jpg	99
1457.225	0.798	798.3	study	Phase3	study/STIM_000.jpg	100
1461.365	1.003	1002.7	study	Phase3	study/STIM_000.jpg	100
1464.8	0.93	929.8	study	Phase3	study/STIM_001.jpg	99
1468.117	0.582	582.5	study	Phase3	study/STIM_001.jpg	100
1470.953	1.125	1124.8	study	Phase3	study/STIM_001.jpg	100
1475.783	0.959	958.9	study	Phase3	study/STIM_002.jpg	100
1480.565	1.056	1056.4	study	Phase3	study/STIM_002.jpg	99
1484.81	0.759	759.1	study	Phase3	study/STIM_002.jpg	99
1487.684	0.902	901.9	study	Phase3	study/STIM_003.jpg	99
1491.296	0.742	741.5	study	Phase3	study/STIM_003.jpg	99
1494.377	1.065	1065.0	study	Phase3	study/STIM_003.jpg	99
1499.08	0.866	865.9	study	Phase3	study/STIM_004.jpg	99
1502.215	0.935	935.1	study	Phase3	study/STIM_004.jpg	100
1505.764	0.95	950.4	study	Phase3	study/STIM_004.jpg	100
1509.311	1.179	1179.3	study	Phase3	study/STIM_005.jpg	100
1514.032	1.126	1126.5	study	Phase3	study/STIM_005.jpg	99
1517.193	1.048	1048.3	study	Phase3	study/STIM_005.jpg	100
1521.776	0.624	624.4	study	Phase3	study/STIM_006.jpg	99
1525.146	0.547	547.1	study	Phase3	study/STIM_006.jpg	99
1528.878	1.161	1161.0	study	Phase3	study/STIM_006.jpg	100
1533.438	0.793	792.7	study	Phase3	study/STIM_007.jpg	99
1537.663	0.806	806.2	study	Phase3	study/STIM_007.jpg	100
1541.152	0.591	591.0	study	Phase3	study/STIM_007.jpg	99
1545.165	0.773	773.2	study	Phase3	study/STIM_008.jpg	99
1548.53	1.134	1134.0	study	Phase3	study/STIM_008.jpg	100
1553.174	0.597	597.0	study	Phase3	study/STIM_008.jpg	100
1557.55	0.632	632.0	study	Phase3	study/STIM_009.jpg	100
1561.212	0.539	539.1	study	Phase3	study/STIM_009.jpg	99
1564.306	0.898	897.9	study	Phase3	study/STIM_009.jpg	100
1568.102	0.76	760.2	study	Phase3	study/STIM_010.jpg	100
1571.61	0.655	655.3	study	Phase3	study/STIM_010.jpg	100
1574.481	0.918	918.5	study	Phase3	study/STIM_010.jpg	100
1579.0	0.856	855.6	study	Phase3	study/STIM_011.jpg	100
1582.377	0.594	593.9	study	Phase3	study/STIM_011.jpg	100
1585.824	1.047	1047.4	study	Phase3	study/STIM_011.jpg	99
1590.704	1.158	1158.1	study	Phase3	study/STIM_012.jpg	100
1594.323	1.053	1052.6	study	Phase3	study/STIM_012.jpg	99
1598.366	1.07	1069.8	study	Phase3	study/STIM_012.jpg	99
1602.435	1.059	1059.3	study	Phase3	study/STIM_013.jpg	99
1607.339	0.954	953.6	study	Phase3	study/STIM_013.jpg	99
1612.21	0.585	585.2	study	Phase3	study/STIM_013.jpg	100
1616.066	0.624	624.1	study	Phase3	study/STIM_014.jpg	99
1619.904	0.638	638.5	study	Phase3	study/STIM_014.jpg	99
1623.613	1.038	1038.2	study	Phase3	study/STIM_014.jpg	100
1626.996	0.779	778.8	study	Phase3	study/STIM_015.jpg	99
1630.793	1.1	1100.5	study	Phase3	study/STIM_015.jpg	99
1635.747	0.899	899.4	study	Phase3	study/STIM_015.jpg	100
1640.29	1.184	1184.2	study	Phase3	study/STIM_016.jpg	99
1643.803	1.208	1207.5	study	Phase3	study/STIM_016.jpg	100
1647.678	1.022	1021.8	study	Phase3	study/STIM_016.jpg	99
1650.877	1.1	1099.5	study	Phase3	study/STIM_017.jpg	100
1655.666	0.907	906.8	study	Phase3	study/STIM_017.jpg	100
1660.283	1.142	1142.1	study	Phase3	study/STIM_017.jpg	99
1664.776	0.898	898.3	study	Phase3	study/STIM_018.jpg	100
1667.923	0.865	865.4	study	Phase3	study/STIM_018.jpg	99
1670.888	0.901	901.3	study	Phase3	study/STIM_018.jpg	100
1674.076	0.819	818.9	study	Phase3	study/STIM_019.jpg	99
1678.531	0.67	669.9	study	Phase3	study/STIM_019.jpg	100
1683.005	1.03	1030.3	study	Phase3	study/STIM_019.jpg	100
1686.23	1.056	1055.5	study	Phase3	study/STIM_020.jpg	100
1691.054	0.806	806.2	study	Phase3	study/STIM_020.jpg	99
1695.405	0.882	881.6	study	Phase3	study/STIM_020.jpg	99
1699.127	1.123	1122.9	study	Phase3	study/STIM_021.jpg	99
1703.658	0.851	850.8	study	Phase3	study/STIM_021.jpg	99
1707.522	0.628	628.1	study	Phase3	study/STIM_021.jpg	100
1711.816	1.061	1060.6	study	Phase3	study/STIM_022.jpg	100
1715.922	0.842	841.9	study	Phase3	study/STIM_022.jpg	99
1720.088	1.15	1149.8	study	Phase3	study/STIM_022.jpg	99
1725.072	1.106	1106.0	study	Phase3	study/STIM_023.jpg	100
1728.28	0.844	843.7	study	Phase3	study/STIM_023.jpg	100
1731.879	0.688	687.6	study	Phase3	study/STIM_023.jpg	100
1736.083	0.882	882.3	study	Phase3	study/STIM_024.jpg	99
1739.228	0.991	990.7	study	Phase3	study/STIM_024.jpg	100
1743.229	0.627	627.0	study	Phase3	study/STIM_024.jpg	99
1747.275	0.63	629.5	study	Phase3	study/STIM_025.jpg	100
1749.966	0.739	738.7	study	Phase3	study/STIM_025.jpg	99
1753.573	0.98	980.3	study	Phase3	study/STIM_025.jpg	100
1757.891	0.858	857.8	study	Phase3	study/STIM_026.jpg	99
1761.021	0.969	968.6	study	Phase3	study/STIM_026.jpg	99
1765.801	1.145	1145.3	study	Phase3	study/STIM_026.jpg	100
1770.72	1.061	1060.6	study	Phase3	study/STIM_027.jpg	100
1774.784	0.721	721.1	study	Phase3	study/STIM_027.jpg	99
1779.287	1.18	1179.9	study	Phase3	study/STIM_027.jpg	99
1783.427	0.758	758.4	study	Phase3	study/STIM_028.jpg	100
1787.342	0.856	855.7	study	Phase3	study/STIM_028.jpg	100
1791.61	1.195	1195.0	study	Phase3	study/STIM_028.jpg	99
1795.95	1.193	1192.6	study	Phase3	study/STIM_029.jpg	100
1800.185	1.038	1037.5	study	Phase3	study/STIM_029.jpg	99
1804.946	1.039	1038.9	study	Phase3	study/STIM_029.jpg	100
1809.469	0.616	615.8	test	Phase3	test/STIM_000.jpg	100
1812.822	0.915	914.9	test	Phase3	test/STIM_000.jpg	100
1816.882	1.175	1175.2	test	Phase3	test/STIM_000.jpg	99
1821.632	1.222	1221.9	test	Phase3	test/STIM_001.jpg	99
1826.332	0.835	834.9	test	Phase3	test/STIM_001.jpg	99
1830.641	0.938	937.8	test	Phase3	test/STIM_001.jpg	100
1834.834	1.219	1218.6	test	Phase3	test/STIM_002.jpg	100
1839.837	0.719	718.8	test	Phase3	test/STIM_002.jpg	100
1843.424	1.007	1007.2	test	Phase3	test/STIM_002.jpg	100
1847.308	1.044	1044.2	test	Phase3	test/STIM_003.jpg	100
1850.6	0.938	938.5	test	Phase3	test/STIM_003.jpg	99
1854.867	1.106	1106.0	test	Phase3	test/STIM_003.jpg	100
1859.535	0.98	979.6	test	Phase3	test/STIM_004.jpg	100
1863.426	0.707	707.1	test	Phase3	test/STIM_004.jpg	99
1867.755	1.089	1089.4	test	Phase3	test/STIM_004.jpg	100
1872.793	0.827	827.1	test	Phase3	test/STIM_005.jpg	99
1877.015	1.157	1157.2	test	Phase3	test/STIM_005.jpg	99
1881.283	0.944	943.8	test	Phase3	test/STIM_005.jpg	100
1884.653	0.69	689.8	test	Phase3	test/STIM_006.jpg	99
1888.4	0.914	913.9	test	Phase3	test/STIM_006.jpg	100
1891.701	0.979	979.0	test	Phase3	test/STIM_006.jpg	99
1894.867	0.978	977.9	test	Phase3	test/STIM_007.jpg	99
1897.958	0.801	801.1	test	Phase3	test/STIM_007.jpg	100
1902.15	1.17	1169.7	test	Phase3	test/STIM_007.jpg	100
1907.175	0.766	766.0	test	Phase3	test/STIM_008.jpg	99
1911.891	1.1	1099.8	test	Phase3	test/STIM_008.jpg	100
1916.134	0.943	943.2	test	Phase3	test/STIM_008.jpg	99
1920.957	0.961	960.8	test	Phase3	test/STIM_009.jpg	100
1925.511	0.959	958.7	test	Phase3	test/STIM_009.jpg	100
1929.551	1.235	1234.7	test	Phase3	test/STIM_009.jpg	99
1934.785	0.671	670.6	test	Phase3	test/STIM_010.jpg	100
1938.869	1.023	1023.4	test	Phase3	test/STIM_010.jpg	99
1942.763	0.699	699.0	test	Phase3	test/STIM_010.jpg	99
1947.32	0.821	820.7	test	Phase3	test/STIM_011.jpg	100
1950.669	0.915	915.0	test	Phase3	test/STIM_011.jpg	99
1953.775	0.65	650.3	test	Phase3	test/STIM_011.jpg	100
1957.888	0.88	879.7	test	Phase3	test/STIM_012.jpg	100
1962.131	0.585	585.3	test	Phase3	test/STIM_012.jpg	100
1965.408	0.609	609.1	test	Phase3	test/STIM_012.jpg	100
1969.514	0.742	742.5	test	Phase3	test/STIM_013.jpg	100
1973.232	0.682	681.6	test	Phase3	test/STIM_013.jpg	99
1976.673	0.877	876.6	test	Phase3	test/STIM_013.jpg	99
1980.665	1.113	1113.3	test	Phase3	test/STIM_014.jpg	99
1984.11	0.594	593.7	test	Phase3	test/STIM_014.jpg	99
1988.426	0.644	644.5	test	Phase3	test/STIM_014.jpg	99
1992.819	0.604	604.5	test	Phase3	test/STIM_015.jpg	99
1996.313	0.63	630.4	test	Phase3	test/STIM_015.jpg	99
1998.99	1.21	1210.3	test	Phase3	test/STIM_015.jpg	99
2003.292	1.016	1016.5	test	Phase3	test/STIM_016.jpg	100
2007.808	0.753	752.7	test	Phase3	test/STIM_016.jpg	100
2012.213	0.869	869.0	test	Phase3	test/STIM_016.jpg	99
2015.513	0.97	969.5	test	Phase3	test/STIM_017.jpg	99
2019.066	0.689	688.9	test	Phase3	test/STIM_017.jpg	100
2023.158	1.082	1082.3	test	Phase3	test/STIM_017.jpg	100
2026.511	1.164	1164.0	test	Phase3	test/STIM_018.jpg	100
2030.074	1.206	1205.7	test	Phase3	test/STIM_018.jpg	100
2033.998	0.768	767.7	test	Phase3	test/STIM_018.jpg	99
2037.668	0.693	693.0	test	Phase3	test/STIM_019.jpg	100
2040.677	0.84	840.5	test	Phase3	test/STIM_019.jpg	100
2043.611	1.048	1048.5	test	Phase3	test/STIM_019.jpg	100
2046.725	0.87	870.4	test	Phase3	test/STIM_020.jpg	99
2050.242	0.848	848.2	test	Phase3	test/STIM_020.jpg	99
2054.333	1.079	1079.3	test	Phase3	test/STIM_020.jpg	100
2057.771	0.601	600.8	test	Phase3	test/STIM_021.jpg	99
2061.754	1.059	1059.0	test	Phase3	test/STIM_021.jpg	100
2066.751	1.239	1238.6	test	Phase3	test/STIM_021.jpg	100
2071.364	0.824	824.0	test	Phase3	test/STIM_022.jpg	99
2076.003	0.762	762.1	test	Phase3	test/STIM_022.jpg	100
2079.066	0.796	795.6	test	Phase3	test/STIM_022.jpg	99
2083.1	1.077	1077.2	test	Phase3	test/STIM_023.jpg	99
2086.977	0.827	826.7	test	Phase3	test/STIM_023.jpg	99
2090.706	1.068	1068.1	test	Phase3	test/STIM_023.jpg	100
2094.784	0.925	924.9	test	Phase3	test/STIM_024.jpg	99
2098.819	1.054	1053.8	test	Phase3	test/STIM_024.jpg	99
2103.258	1.147	1147.3	test	Phase3	test/STIM_024.jpg	99
2107.91	1.124	1124.2	test	Phase3	test/STIM_025.jpg	99
2111.496	0.655	655.2	test	Phase3	test/STIM_025.jpg	100
2114.833	0.7	699.7	test	Phase3	test/STIM_025.jpg	99
2119.269	1.24	1239.6	test	Phase3	test/STIM_026.jpg	100
2124.267	0.902	902.0	test	Phase3	test/STIM_026.jpg	100
2128.303	1.164	1164.5	test	Phase3	test/STIM_026.jpg	99
2132.962	0.804	804.1	test	Phase3	test/STIM_027.jpg	100
2137.718	1.199	1199.3	test	Phase3	test/STIM_027.jpg	99
2141.225	1.158	1157.6	test	Phase3	test/STIM_027.jpg	100
2145.409	1.242	1242.1	test	Phase3	test/STIM_028.jpg	100
2148.946	1.024	1023.7	test	Phase3	test/STIM_028.jpg	99
2152.332	0.703	703.2	test	Phase3	test/STIM_028.jpg	100
2155.115	0.996	995.8	test	Phase3	test/STIM_029.jpg	99
2158.858	0.669	669.1	test	Phase3	test/STIM_029.jpg	100
2162.048	0.698	698.0	test	Phase3	test/STIM_029.jpg	100
