onset	duration	accuracy_binary	trial_type	learning_stage	stimulus
0.0	1.444	1	study	Phase1	study/STIM_000.jpg
3.604	0.734	1	study	Phase1	study/STIM_000.jpg
8.281	1.175	1	study	Phase1	study/STIM_000.jpg
11.695	1.306	1	study	Phase1	study/STIM_001.jpg
16.582	1.204	0	study	Phase1	study/STIM_001.jpg
20.741	1.332	1	study	Phase1	study/STIM_001.jpg
25.139	1.125	1	study	Phase1	study/STIM_002.jpg
29.796	1.379	1	study	Phase1	study/STIM_002.jpg
34.749	0.756	1	study	Phase1	study/STIM_002.jpg
39.004	1.101	1	study	Phase1	study/STIM_003.jpg
43.633	0.855	1	study	Phase1	study/STIM_003.jpg
47.789	0.709	0	study	Phase1	study/STIM_003.jpg
50.887	1.01	1	study	Phase1	study/STIM_004.jpg
54.732	0.972	1	study	Phase1	study/STIM_004.jpg
59.425	0.715	1	study	Phase1	study/STIM_004.jpg
62.218	1.198	1	study	Phase1	study/STIM_005.jpg
66.538	1.603	1	study	Phase1	study/STIM_005.jpg
71.82	1.37	1	study	Phase1	study/STIM_005.jpg
75.723	1.364	1	study	Phase1	study/STIM_006.jpg
80.054	1.57	0	study	Phase1	study/STIM_006.jpg
83.692	1.296	1	study	Phase1	study/STIM_006.jpg
87.382	0.92	0	study	Phase1	study/STIM_007.jpg
91.827	1.563	1	study	Phase1	study/STIM_007.jpg
95.946	1.492	1	study	Phase1	study/STIM_007.jpg
100.285	1.638	1	study	Phase1	study/STIM_008.jpg
104.452	1.599	1	study	Phase1	study/STIM_008.jpg
109.322	1.349	1	study	Phase1	study/STIM_008.jpg
114.341	1.656	1	study	Phase1	study/STIM_009.jpg
118.23	0.779	1	study	Phase1	study/STIM_009.jpg
122.555	1.434	1	study	Phase1	study/STIM_009.jpg
126.236	1.486	1	study	Phase1	study/STIM_010.jpg
129.94	1.118	1	study	Phase1	study/STIM_010.jpg
134.566	1.514	0	study	Phase1	study/STIM_010.jpg
139.898	1.584	0	study	Phase1	study/STIM_011.jpg
144.666	1.369	1	study	Phase1	study/STIM_011.jpg
149.146	0.88	1	study	Phase1	study/STIM_011.jpg
152.69	1.681	1	study	Phase1	study/STIM_012.jpg
157.302	1.632	1	study	Phase1	study/STIM_012.jpg
161.806	1.266	0	study	Phase1	study/STIM_012.jpg
166.765	1.226	1	study	Phase1	study/STIM_013.jpg
170.84	1.354	1	study	Phase1	study/STIM_013.jpg
175.218	1.208	1	study	Phase1	study/STIM_013.jpg
180.04	1.27	1	study	Phase1	study/STIM_014.jpg
184.231	1.012	0	study	Phase1	study/STIM_014.jpg
187.692	1.277	1	study	Phase1	study/STIM_014.jpg
191.231	1.228	1	study	Phase1	study/STIM_015.jpg
195.269	0.952	1	study	Phase1	study/STIM_015.jpg
199.948	0.949	1	study	Phase1	study/STIM_015.jpg
203.895	0.936	1	study	Phase1	study/STIM_016.jpg
208.564	1.168	1	study	Phase1	study/STIM_016.jpg
213.277	0.791	1	study	Phase1	study/STIM_016.jpg
216.296	1.139	1	study	Phase1	study/STIM_017.jpg
219.973	0.739	0	study	Phase1	study/STIM_017.jpg
224.594	1.059	1	study	Phase1	study/STIM_017.jpg
228.493	1.717	0	study	Phase1	study/STIM_018.jpg
234.037	0.839	1	study	Phase1	study/STIM_018.jpg
236.972	0.831	1	study	Phase1	study/STIM_018.jpg
241.446	1.089	0	study	Phase1	study/STIM_019.jpg
245.657	0.843	1	study	Phase1	study/STIM_019.jpg
250.266	1.144	1	study	Phase1	study/STIM_019.jpg
254.04	1.136	1	study	Phase1	study/STIM_020.jpg
258.896	1.228	1	study	Phase1	study/STIM_020.jpg
262.32	0.85	1	study	Phase1	study/STIM_020.jpg
265.422	0.788	0	study	Phase1	study/STIM_021.jpg
268.418	1.407	1	study	Phase1	study/STIM_021.jpg
273.453	1.549	1	study	Phase1	study/STIM_021.jpg
277.856	1.2	0	study	Phase1	study/STIM_022.jpg
281.493	1.453	1	study	Phase1	study/STIM_022.jpg
285.226	1.298	1	study	Phase1	study/STIM_022.jpg
289.35	1.626	0	study	Phase1	study/STIM_023.jpg
293.72	0.752	1	study	Phase1	study/STIM_023.jpg
297.825	0.692	1	study	Phase1	study/STIM_023.jpg
301.814	1.64	1	study	Phase1	study/STIM_024.jpg
305.773	1.353	1	study	Phase1	study/STIM_024.jpg
309.473	1.235	1	study	Phase1	study/STIM_024.jpg
313.024	1.474	1	study	Phase1	study/STIM_025.jpg
317.696	1.448	1	study	Phase1	study/STIM_025.jpg
321.3	1.55	1	study	Phase1	study/STIM_025.jpg
326.788	1.339	0	study	Phase1	study/STIM_026.jpg
330.719	1.522	0	study	Phase1	study/STIM_026.jpg
335.998	0.938	1	study	Phase1	study/STIM_026.jpg
340.501	1.522	1	study	Phase1	study/STIM_027.jpg
346.015	1.604	1	study	Phase1	study/STIM_027.jpg
350.358	1.138	1	study	Phase1	study/STIM_027.jpg
354.85	1.417	1	study	Phase1	study/STIM_028.jpg
358.942	0.918	1	study	Phase1	study/STIM_028.jpg
362.697	1.097	1	study	Phase1	study/STIM_028.jpg
367.627	1.037	1	study	Phase1	study/STIM_029.jpg
371.761	1.328	1	study	Phase1	study/STIM_029.jpg
377.057	1.284	1	study	Phase1	study/STIM_029.jpg
381.482	1.161	1	test	Phase1	test/STIM_000.jpg
385.081	0.581	1	test	Phase1	test/STIM_000.jpg
388.758	0.828	1	test	Phase1	test/STIM_000.jpg
392.557	0.703	1	test	Phase1	test/STIM_001.jpg
395.946	1.14	1	test	Phase1	test/STIM_001.jpg
399.773	1.008	1	test	Phase1	test/STIM_001.jpg
403.213	1.21	1	test	Phase1	test/STIM_002.jpg
408.257	1.24	1	test	Phase1	test/STIM_002.jpg
412.19	0.717	1	test	Phase1	test/STIM_002.jpg
415.338	0.743	1	test	Phase1	test/STIM_003.jpg
418.955	0.722	1	test	Phase1	test/STIM_003.jpg
422.064	0.738	1	test	Phase1	test/STIM_003.jpg
426.51	1.219	1	test	Phase1	test/STIM_004.jpg
430.543	0.622	1	test	Phase1	test/STIM_004.jpg
433.303	1.045	1	test	Phase1	test/STIM_004.jpg
436.644	1.089	0	test	Phase1	test/STIM_005.jpg
440.495	0.618	1	test	Phase1	test/STIM_005.jpg
443.72	1.006	1	test	Phase1	test/STIM_005.jpg
447.964	0.779	1	test	Phase1	test/STIM_006.jpg
452.227	0.784	1	test	Phase1	test/STIM_006.jpg
456.928	1.153	1	test	Phase1	test/STIM_006.jpg
460.229	0.934	1	test	Phase1	test/STIM_007.jpg
464.826	0.862	1	test	Phase1	test/STIM_007.jpg
469.216	0.688	1	test	Phase1	test/STIM_007.jpg
473.183	0.685	1	test	Phase1	test/STIM_008.jpg
477.432	1.1	1	test	Phase1	test/STIM_008.jpg
480.724	0.692	1	test	Phase1	test/STIM_008.jpg
485.291	0.641	1	test	Phase1	test/STIM_009.jpg
489.716	0.871	1	test	Phase1	test/STIM_009.jpg
493.234	0.874	1	test	Phase1	test/STIM_009.jpg
497.41	0.841	1	test	Phase1	test/STIM_010.jpg
501.476	1.149	1	test	Phase1	test/STIM_010.jpg
505.744	1.087	1	test	Phase1	test/STIM_010.jpg
509.073	0.63	1	test	Phase1	test/STIM_011.jpg
512.129	0.933	1	test	Phase1	test/STIM_011.jpg
515.556	0.687	1	test	Phase1	test/STIM_011.jpg
519.988	0.888	1	test	Phase1	test/STIM_012.jpg
524.72	1.0	1	test	Phase1	test/STIM_012.jpg
529.341	0.786	1	test	Phase1	test/STIM_012.jpg
533.198	1.043	1	test	Phase1	test/STIM_013.jpg
536.336	1.072	1	test	Phase1	test/STIM_013.jpg
540.935	0.784	1	test	Phase1	test/STIM_013.jpg
544.928	1.242	0	test	Phase1	test/STIM_014.jpg
548.203	0.7	1	test	Phase1	test/STIM_014.jpg
552.36	0.982	0	test	Phase1	test/STIM_014.jpg
555.574	1.089	1	test	Phase1	test/STIM_015.jpg
558.955	0.614	1	test	Phase1	test/STIM_015.jpg
563.452	1.143	1	test	Phase1	test/STIM_015.jpg
567.092	1.12	1	test	Phase1	test/STIM_016.jpg
570.581	1.095	1	test	Phase1	test/STIM_016.jpg
575.653	1.189	1	test	Phase1	test/STIM_016.jpg
579.777	0.934	1	test	Phase1	test/STIM_017.jpg
583.047	0.951	1	test	Phase1	test/STIM_017.jpg
586.107	0.728	1	test	Phase1	test/STIM_017.jpg
589.655	0.684	1	test	Phase1	test/STIM_018.jpg
593.777	0.994	1	test	Phase1	test/STIM_018.jpg
597.584	1.068	1	test	Phase1	test/STIM_018.jpg
602.102	1.114	1	test	Phase1	test/STIM_019.jpg
607.038	0.805	1	test	Phase1	test/STIM_019.jpg
611.161	1.224	1	test	Phase1	test/STIM_019.jpg
614.765	0.611	1	test	Phase1	test/STIM_020.jpg
619.186	1.182	1	test	Phase1	test/STIM_020.jpg
622.87	0.905	1	test	Phase1	test/STIM_020.jpg
626.931	1.224	1	test	Phase1	test/STIM_021.jpg
631.036	1.019	1	test	Phase1	test/STIM_021.jpg
635.369	0.616	1	test	Phase1	test/STIM_021.jpg
639.122	1.242	1	test	Phase1	test/STIM_022.jpg
643.106	1.147	1	test	Phase1	test/STIM_022.jpg
648.235	0.628	0	test	Phase1	test/STIM_022.jpg
652.333	1.216	1	test	Phase1	test/STIM_023.jpg
656.941	0.878	1	test	Phase1	test/STIM_023.jpg
661.234	0.728	1	test	Phase1	test/STIM_023.jpg
665.311	0.694	0	test	Phase1	test/STIM_024.jpg
668.95	0.622	1	test	Phase1	test/STIM_024.jpg
671.58	0.648	1	test	Phase1	test/STIM_024.jpg
674.325	1.208	1	test	Phase1	test/STIM_025.jpg
678.49	0.969	1	test	Phase1	test/STIM_025.jpg
681.917	0.858	1	test	Phase1	test/STIM_025.jpg
685.491	1.201	1	test	Phase1	test/STIM_026.jpg
690.174	1.018	1	test	Phase1	test/STIM_026.jpg
694.905	1.212	1	test	Phase1	test/STIM_026.jpg
700.071	1.128	1	test	Phase1	test/STIM_027.jpg
704.024	0.861	0	test	Phase1	test/STIM_027.jpg
708.289	1.039	1	test	Phase1	test/STIM_027.jpg
712.438	0.938	1	test	Phase1	test/STIM_028.jpg
716.173	0.976	1	test	Phase1	test/STIM_028.jpg
719.84	0.747	1	test	Phase1	test/STIM_028.jpg
723.801	1.076	1	test	Phase1	test/STIM_029.jpg
728.112	1.228	1	test	Phase1	test/STIM_029.jpg
732.54	0.619	1	test	Phase1	test/STIM_029.jpg
736.095	1.063	1	study	Phase2	study/STIM_000.jpg
740.086	1.004	1	study	Phase2	study/STIM_000.jpg
743.517	0.716	1	study	Phase2	study/STIM_000.jpg
747.319	1.168	1	study	Phase2	study/STIM_001.jpg
751.192	0.778	0	study	Phase2	study/STIM_001.jpg
754.317	0.772	1	study	Phase2	study/STIM_001.jpg
757.236	0.824	1	study	Phase2	study/STIM_002.jpg
761.948	0.988	0	study	Phase2	study/STIM_002.jpg
765.308	0.763	1	study	Phase2	study/STIM_002.jpg
768.799	1.417	0	study	Phase2	study/STIM_003.jpg
773.942	0.966	1	study	Phase2	study/STIM_003.jpg
778.396	0.765	1	study	Phase2	study/STIM_003.jpg
782.586	0.844	1	study	Phase2	study/STIM_004.jpg
786.566	0.876	1	study	Phase2	study/STIM_004.jpg
791.298	1.229	1	study	Phase2	study/STIM_004.jpg
795.978	0.974	1	study	Phase2	study/STIM_005.jpg
800.258	0.83	1	study	Phase2	study/STIM_005.jpg
804.552	1.21	1	study	Phase2	study/STIM_005.jpg
807.852	1.236	1	study	Phase2	study/STIM_006.jpg
812.963	1.038	1	study	Phase2	study/STIM_006.jpg
817.429	0.941	1	study	Phase2	study/STIM_006.jpg
821.997	1.172	1	study	Phase2	study/STIM_007.jpg
827.104	1.252	0	study	Phase2	study/STIM_007.jpg
830.388	1.268	1	study	Phase2	study/STIM_007.jpg
834.315	0.804	1	study	Phase2	study/STIM_008.jpg
837.788	0.826	1	study	Phase2	study/STIM_008.jpg
842.604	0.952	1	study	Phase2	study/STIM_008.jpg
846.813	1.101	0	study	Phase2	study/STIM_009.jpg
851.61	0.683	1	study	Phase2	study/STIM_009.jpg
855.775	0.922	1	study	Phase2	study/STIM_009.jpg
859.775	0.975	1	study	Phase2	study/STIM_010.jpg
862.839	0.886	1	study	Phase2	study/STIM_010.jpg
866.831	1.085	1	study	Phase2	study/STIM_010.jpg
870.35	0.994	1	study	Phase2	study/STIM_011.jpg
874.77	0.652	1	study	Phase2	study/STIM_011.jpg
879.192	0.81	1	study	Phase2	study/STIM_011.jpg
883.318	1.429	1	study	Phase2	study/STIM_012.jpg
886.936	0.941	1	study	Phase2	study/STIM_012.jpg
891.54	0.914	1	study	Phase2	study/STIM_012.jpg
895.6	1.432	1	study	Phase2	study/STIM_013.jpg
900.324	1.355	1	study	Phase2	study/STIM_013.jpg
904.327	0.787	1	study	Phase2	study/STIM_013.jpg
908.054	1.342	1	study	Phase2	study/STIM_014.jpg
913.392	1.302	1	study	Phase2	study/STIM_014.jpg
918.41	1.297	1	study	Phase2	study/STIM_014.jpg
922.338	1.077	1	study	Phase2	study/STIM_015.jpg
926.809	0.671	1	study	Phase2	study/STIM_015.jpg
929.869	0.91	1	study	Phase2	study/STIM_015.jpg
933.728	0.71	1	study	Phase2	study/STIM_016.jpg
937.33	0.991	1	study	Phase2	study/STIM_016.jpg
941.164	1.017	1	study	Phase2	study/STIM_016.jpg
944.631	0.705	1	study	Phase2	study/STIM_017.jpg
948.34	1.324	1	study	Phase2	study/STIM_017.jpg
952.109	0.624	1	study	Phase2	study/STIM_017.jpg
954.858	1.442	1	study	Phase2	study/STIM_018.jpg
958.455	0.737	0	study	Phase2	study/STIM_018.jpg
961.646	0.97	1	study	Phase2	study/STIM_018.jpg
966.383	1.109	1	study	Phase2	study/STIM_019.jpg
971.308	1.018	1	study	Phase2	study/STIM_019.jpg
975.118	0.667	1	study	Phase2	study/STIM_019.jpg
978.732	1.234	1	study	Phase2	study/STIM_020.jpg
982.277	1.015	1	study	Phase2	study/STIM_020.jpg
986.166	0.98	1	study	Phase2	study/STIM_020.jpg
990.947	0.707	1	study	Phase2	study/STIM_021.jpg
994.905	0.735	0	study	Phase2	study/STIM_021.jpg
999.303	0.595	1	study	Phase2	study/STIM_021.jpg
1003.654	1.414	1	study	Phase2	study/STIM_022.jpg
1008.998	1.122	1	study	Phase2	study/STIM_022.jpg
1013.831	0.605	1	study	Phase2	study/STIM_022.jpg
1017.242	0.919	1	study	Phase2	study/STIM_023.jpg
1020.457	0.8	1	study	Phase2	study/STIM_023.jpg
1024.401	1.178	1	study	Phase2	study/STIM_023.jpg
1028.707	0.813	1	study	Phase2	study/STIM_024.jpg
1031.762	0.939	1	study	Phase2	study/STIM_024.jpg
1034.882	0.874	1	study	Phase2	study/STIM_024.jpg
1038.903	1.071	1	study	Phase2	study/STIM_025.jpg
1042.985	1.289	0	study	Phase2	study/STIM_025.jpg
1047.208	1.209	1	study	Phase2	study/STIM_025.jpg
1050.863	0.846	1	study	Phase2	study/STIM_026.jpg
1055.292	1.271	1	study	Phase2	study/STIM_026.jpg
1060.209	0.76	1	study	Phase2	study/STIM_026.jpg
1064.547	1.398	1	study	Phase2	study/STIM_027.jpg
1069.682	1.297	1	study	Phase2	study/STIM_027.jpg
1073.626	1.154	1	study	Phase2	study/STIM_027.jpg
1078.404	0.835	1	study	Phase2	study/STIM_028.jpg
1082.509	0.983	1	study	Phase2	study/STIM_028.jpg
1087.284	1.002	1	study	Phase2	study/STIM_028.jpg
1091.224	1.103	1	study	Phase2	study/STIM_029.jpg
1095.734	1.071	1	study	Phase2	study/STIM_029.jpg
1099.005	1.26	1	study	Phase2	study/STIM_029.jpg
1102.827	1.142	1	test	Phase2	test/STIM_000.jpg
1107.162	0.974	1	test	Phase2	test/STIM_000.jpg
1110.938	1.189	1	test	Phase2	test/STIM_000.jpg
1115.536	0.911	0	test	Phase2	test/STIM_001.jpg
1119.409	0.838	1	test	Phase2	test/STIM_001.jpg
1122.654	0.819	1	test	Phase2	test/STIM_001.jpg
1126.988	0.767	1	test	Phase2	test/STIM_002.jpg
1130.684	0.924	1	test	Phase2	test/STIM_002.jpg
1133.954	0.767	1	test	Phase2	test/STIM_002.jpg
1137.593	0.818	1	test	Phase2	test/STIM_003.jpg
1140.772	0.945	1	test	Phase2	test/STIM_003.jpg
1145.672	0.698	1	test	Phase2	test/STIM_003.jpg
1149.753	0.842	0	test	Phase2	test/STIM_004.jpg
1152.706	1.013	1	test	Phase2	test/STIM_004.jpg
1157.68	0.883	1	test	Phase2	test/STIM_004.jpg
1160.96	1.091	1	test	Phase2	test/STIM_005.jpg
1165.759	1.142	1	test	Phase2	test/STIM_005.jpg
1170.178	1.139	1	test	Phase2	test/STIM_005.jpg
1174.749	0.723	1	test	Phase2	test/STIM_006.jpg
1178.68	0.759	1	test	Phase2	test/STIM_006.jpg
1182.294	1.051	1	test	Phase2	test/STIM_006.jpg
1185.351	1.213	1	test	Phase2	test/STIM_007.jpg
1188.869	0.947	1	test	Phase2	test/STIM_007.jpg
1193.372	0.827	1	test	Phase2	test/STIM_007.jpg
1196.253	0.74	1	test	Phase2	test/STIM_008.jpg
1200.984	1.217	1	test	Phase2	test/STIM_008.jpg
1204.969	0.588	1	test	Phase2	test/STIM_008.jpg
1209.089	0.645	1	test	Phase2	test/STIM_009.jpg
1212.265	0.622	1	test	Phase2	test/STIM_009.jpg
1215.581	0.89	1	test	Phase2	test/STIM_009.jpg
1218.911	0.916	1	test	Phase2	test/STIM_010.jpg
1222.007	0.644	1	test	Phase2	test/STIM_010.jpg
1225.637	0.698	1	test	Phase2	test/STIM_010.jpg
1229.116	0.65	1	test	Phase2	test/STIM_011.jpg
1233.0	1.08	1	test	Phase2	test/STIM_011.jpg
1236.974	1.214	1	test	Phase2	test/STIM_011.jpg
1242.078	0.998	1	test	Phase2	test/STIM_012.jpg
1246.429	1.136	1	test	Phase2	test/STIM_012.jpg
1250.796	1.033	1	test	Phase2	test/STIM_012.jpg
1254.857	1.166	0	test	Phase2	test/STIM_013.jpg
1259.694	0.971	0	test	Phase2	test/STIM_013.jpg
1263.052	0.79	1	test	Phase2	test/STIM_013.jpg
1266.647	1.045	1	test	Phase2	test/STIM_014.jpg
1270.014	0.958	1	test	Phase2	test/STIM_014.jpg
1274.053	0.621	1	test	Phase2	test/STIM_014.jpg
1277.326	0.736	1	test	Phase2	test/STIM_015.jpg
1281.49	0.945	1	test	Phase2	test/STIM_015.jpg
1284.765	0.811	1	test	Phase2	test/STIM_015.jpg
1289.338	0.773	1	test	Phase2	test/STIM_016.jpg
1293.55	1.211	1	test	Phase2	test/STIM_016.jpg
1298.29	0.693	1	test	Phase2	test/STIM_016.jpg
1302.064	0.896	1	test	Phase2	test/STIM_017.jpg
1306.336	0.925	1	test	Phase2	test/STIM_017.jpg
1309.447	0.622	1	test	Phase2	test/STIM_017.jpg
1312.703	1.12	1	test	Phase2	test/STIM_018.jpg
1317.039	0.948	1	test	Phase2	test/STIM_018.jpg
1320.015	1.051	1	test	Phase2	test/STIM_018.jpg
1325.011	1.031	1	test	Phase2	test/STIM_019.jpg
1329.097	0.796	1	test	Phase2	test/STIM_019.jpg
1331.975	1.228	1	test	Phase2	test/STIM_019.jpg
1335.53	0.92	1	test	Phase2	test/STIM_020.jpg
1340.196	0.782	1	test	Phase2	test/STIM_020.jpg
1343.825	0.834	1	test	Phase2	test/STIM_020.jpg
1348.286	0.709	1	test	Phase2	test/STIM_021.jpg
1352.655	0.719	1	test	Phase2	test/STIM_021.jpg
1355.772	1.208	1	test	Phase2	test/STIM_021.jpg
1360.36	0.679	0	test	Phase2	test/STIM_022.jpg
1364.763	1.034	1	test	Phase2	test/STIM_022.jpg
1368.663	1.055	1	test	Phase2	test/STIM_022.jpg
1372.438	1.056	1	test	Phase2	test/STIM_023.jpg
1376.77	1.14	0	test	Phase2	test/STIM_023.jpg
1381.774	0.586	1	test	Phase2	test/STIM_023.jpg
1384.489	0.832	1	test	Phase2	test/STIM_024.jpg
1387.813	0.77	1	test	Phase2	test/STIM_024.jpg
1391.746	1.013	0	test	Phase2	test/STIM_024.jpg
1395.043	0.857	1	test	Phase2	test/STIM_025.jpg
1399.738	1.113	1	test	Phase2	test/STIM_025.jpg
1403.059	0.834	1	test	Phase2	test/STIM_025.jpg
1406.243	1.102	1	test	Phase2	test/STIM_026.jpg
1409.893	1.227	1	test	Phase2	test/STIM_026.jpg
1413.456	0.963	1	test	Phase2	test/STIM_026.jpg
1417.343	0.92	1	test	Phase2	test/STIM_027.jpg
1421.493	0.815	1	test	Phase2	test/STIM_027.jpg
1424.464	0.953	1	test	Phase2	test/STIM_027.jpg
1428.547	1.162	1	test	Phase2	test/STIM_028.jpg
1433.619	0.623	1	test	Phase2	test/STIM_028.jpg
1438.078	1.108	1	test	Phase2	test/STIM_028.jpg
1441.725	0.809	1	test	Phase2	test/STIM_029.jpg
1444.954	1.056	1	test	Phase2	test/STIM_029.jpg
1449.676	0.748	1	test	Phase2	test/STIM_029.jpg
1453.023	0.758	1	study	Phase3	study/STIM_000.jpg
1457.225	0.798	1	study	Phase3	study/STIM_000.jpg
1461.365	1.003	1	study	Phase3	study/STIM_000.jpg
1464.8	0.93	1	study	Phase3	study/STIM_001.jpg
1468.117	0.582	1	study	Phase3	study/STIM_001.jpg
1470.953	1.125	1	study	Phase3	study/STIM_001.jpg
1475.783	0.959	1	study	Phase3	study/STIM_002.jpg
1480.565	1.056	1	study	Phase3	study/STIM_002.jpg
1484.81	0.759	1	study	Phase3	study/STIM_002.jpg
1487.684	0.902	1	study	Phase3	study/STIM_003.jpg
1491.296	0.742	1	study	Phase3	study/STIM_003.jpg
1494.377	1.065	1	study	Phase3	study/STIM_003.jpg
1499.08	0.866	1	study	Phase3	study/STIM_004.jpg
1502.215	0.935	1	study	Phase3	study/STIM_004.jpg
1505.764	0.95	1	study	Phase3	study/STIM_004.jpg
1509.311	1.179	1	study	Phase3	study/STIM_005.jpg
1514.032	1.126	1	study	Phase3	study/STIM_005.jpg
1517.193	1.048	1	study	Phase3	study/STIM_005.jpg
1521.776	0.624	1	study	Phase3	study/STIM_006.jpg
1525.146	0.547	1	study	Phase3	study/STIM_006.jpg
1528.878	1.161	1	study	Phase3	study/STIM_006.jpg
1533.438	0.793	1	study	Phase3	study/STIM_007.jpg
1537.663	0.806	1	study	Phase3	study/STIM_007.jpg
1541.152	0.591	1	study	Phase3	study/STIM_007.jpg
1545.165	0.773	1	study	Phase3	study/STIM_008.jpg
1548.53	1.134	1	study	Phase3	study/STIM_008.jpg
1553.174	0.597	1	study	Phase3	study/STIM_008.jpg
1557.55	0.632	1	study	Phase3	study/STIM_009.jpg
1561.212	0.539	1	study	Phase3	study/STIM_009.jpg
1564.306	0.898	1	study	Phase3	study/STIM_009.jpg
1568.102	0.76	1	study	Phase3	study/STIM_010.jpg
1571.61	0.655	1	study	Phase3	study/STIM_010.jpg
1574.481	0.918	1	study	Phase3	study/STIM_010.jpg
1579.0	0.856	1	study	Phase3	study/STIM_011.jpg
1582.377	0.594	1	study	Phase3	study/STIM_011.jpg
1585.824	1.047	1	study	Phase3	study/STIM_011.jpg
1590.704	1.158	1	study	Phase3	study/STIM_012.jpg
1594.323	1.053	1	study	Phase3	study/STIM_012.jpg
1598.366	1.07	1	study	Phase3	study/STIM_012.jpg
1602.435	1.059	1	study	Phase3	study/STIM_013.jpg
1607.339	0.954	1	study	Phase3	study/STIM_013.jpg
1612.21	0.585	1	study	Phase3	study/STIM_013.jpg
1616.066	0.624	1	study	Phase3	study/STIM_014.jpg
1619.904	0.638	1	study	Phase3	study/STIM_014.jpg
1623.613	1.038	1	study	Phase3	study/STIM_014.jpg
1626.996	0.779	0	study	Phase3	study/STIM_015.jpg
1630.793	1.1	1	study	Phase3	study/STIM_015.jpg
1635.747	0.899	1	study	Phase3	study/STIM_015.jpg
1640.29	1.184	1	study	Phase3	study/STIM_016.jpg
1643.803	1.208	1	study	Phase3	study/STIM_016.jpg
1647.678	1.022	1	study	Phase3	study/STIM_016.jpg
1650.877	1.1	1	study	Phase3	study/STIM_017.jpg
1655.666	0.907	1	study	Phase3	study/STIM_017.jpg
1660.283	1.142	1	study	Phase3	study/STIM_017.jpg
1664.776	0.898	1	study	Phase3	study/STIM_018.jpg
1667.923	0.865	1	study	Phase3	study/STIM_018.jpg
1670.888	0.901	1	study	Phase3	study/STIM_018.jpg
1674.076	0.819	1	study	Phase3	study/STIM_019.jpg
1678.531	0.67	1	study	Phase3	study/STIM_019.jpg
1683.005	1.03	1	study	Phase3	study/STIM_019.jpg
1686.23	1.056	1	study	Phase3	study/STIM_020.jpg
1691.054	0.806	1	study	Phase3	study/STIM_020.jpg
1695.405	0.882	1	study	Phase3	study/STIM_020.jpg
1699.127	1.123	1	study	Phase3	study/STIM_021.jpg
1703.658	0.851	1	study	Phase3	study/STIM_021.jpg
1707.522	0.628	1	study	Phase3	study/STIM_021.jpg
1711.816	1.061	1	study	Phase3	study/STIM_022.jpg
1715.922	0.842	1	study	Phase3	study/STIM_022.jpg
1720.088	1.15	1	study	Phase3	study/STIM_022.jpg
1725.072	1.106	1	study	Phase3	study/STIM_023.jpg
1728.28	0.844	1	study	Phase3	study/STIM_023.jpg
1731.879	0.688	1	study	Phase3	study/STIM_023.jpg
1736.083	0.882	1	study	Phase3	study/STIM_024.jpg
1739.228	0.991	1	study	Phase3	study/STIM_024.jpg
1743.229	0.627	1	study	Phase3	study/STIM_024.jpg
1747.275	0.63	1	study	Phase3	study/STIM_025.jpg
1749.966	0.739	1	study	Phase3	study/STIM_025.jpg
1753.573	0.98	0	study	Phase3	study/STIM_025.jpg
1757.891	0.858	1	study	Phase3	study/STIM_026.jpg
1761.021	0.969	1	study	Phase3	study/STIM_026.jpg
1765.801	1.145	1	study	Phase3	study/STIM_026.jpg
1770.72	1.061	1	study	Phase3	study/STIM_027.jpg
1774.784	0.721	1	study	Phase3	study/STIM_027.jpg
1779.287	1.18	1	study	Phase3	study/STIM_027.jpg
1783.427	0.758	1	study	Phase3	study/STIM_028.jpg
1787.342	0.856	1	study	Phase3	study/STIM_028.jpg
1791.61	1.195	1	study	Phase3	study/STIM_028.jpg
1795.95	1.193	0	study	Phase3	study/STIM_029.jpg
1800.185	1.038	1	study	Phase3	study/STIM_029.jpg
1804.946	1.039	1	study	Phase3	study/STIM_029.jpg
1809.469	0.616	1	test	Phase3	test/STIM_000.jpg
1812.822	0.915	1	test	Phase3	test/STIM_000.jpg
1816.882	1.175	1	test	Phase3	test/STIM_000.jpg
1821.632	1.222	1	test	Phase3	test/STIM_001.jpg
1826.332	0.835	1	test	Phase3	test/STIM_001.jpg
1830.641	0.938	1	test	Phase3	test/STIM_001.jpg
1834.834	1.219	1	test	Phase3	test/STIM_002.jpg
1839.837	0.719	1	test	Phase3	test/STIM_002.jpg
1843.424	1.007	1	test	Phase3	test/STIM_002.jpg
1847.308	1.044	0	test	Phase3	test/STIM_003.jpg
1850.6	0.938	1	test	Phase3	test/STIM_003.jpg
1854.867	1.106	1	test	Phase3	test/STIM_003.jpg
1859.535	0.98	1	test	Phase3	test/STIM_004.jpg
1863.426	0.707	1	test	Phase3	test/STIM_004.jpg
1867.755	1.089	1	test	Phase3	test/STIM_004.jpg
1872.793	0.827	1	test	Phase3	test/STIM_005.jpg
1877.015	1.157	1	test	Phase3	test/STIM_005.jpg
1881.283	0.944	1	test	Phase3	test/STIM_005.jpg
1884.653	0.69	0	test	Phase3	test/STIM_006.jpg
1888.4	0.914	1	test	Phase3	test/STIM_006.jpg
1891.701	0.979	1	test	Phase3	test/STIM_006.jpg
1894.867	0.978	1	test	Phase3	test/STIM_007.jpg
1897.958	0.801	1	test	Phase3	test/STIM_007.jpg
1902.15	1.17	1	test	Phase3	test/STIM_007.jpg
1907.175	0.766	1	test	Phase3	test/STIM_008.jpg
1911.891	1.1	1	test	Phase3	test/STIM_008.jpg
1916.134	0.943	1	test	Phase3	test/STIM_008.jpg
1920.957	0.961	1	test	Phase3	test/STIM_009.jpg
1925.511	0.959	1	test	Phase3	test/STIM_009.jpg
1929.551	1.235	1	test	Phase3	test/STIM_009.jpg
1934.785	0.671	1	test	Phase3	test/STIM_010.jpg
1938.869	1.023	1	test	Phase3	test/STIM_010.jpg
1942.763	0.699	1	test	Phase3	test/STIM_010.jpg
1947.32	0.821	1	test	Phase3	test/STIM_011.jpg
1950.669	0.915	1	test	Phase3	test/STIM_011.jpg
1953.775	0.65	1	test	Phase3	test/STIM_011.jpg
1957.888	0.88	1	test	Phase3	test/STIM_012.jpg
1962.131	0.585	1	test	Phase3	test/STIM_012.jpg
1965.408	0.609	1	test	Phase3	test/STIM_012.jpg
1969.514	0.742	1	test	Phase3	test/STIM_013.jpg
1973.232	0.682	1	test	Phase3	test/STIM_013.jpg
1976.673	0.877	1	test	Phase3	test/STIM_013.jpg
1980.665	1.113	1	test	Phase3	test/STIM_014.jpg
1984.11	0.594	1	test	Phase3	test/STIM_014.jpg
1988.426	0.644	1	test	Phase3	test/STIM_014.jpg
1992.819	0.604	1	test	Phase3	test/STIM_015.jpg
1996.313	0.63	1	test	Phase3	test/STIM_015.jpg
1998.99	1.21	1	test	Phase3	test/STIM_015.jpg
2003.292	1.016	1	test	Phase3	test/STIM_016.jpg
2007.808	0.753	1	test	Phase3	test/STIM_016.jpg
2012.213	0.869	1	test	Phase3	test/STIM_016.jpg
2015.513	0.97	1	test	Phase3	test/STIM_017.jpg
2019.066	0.689	1	test	Phase3	test/STIM_017.jpg
2023.158	1.082	1	test	Phase3	test/STIM_017.jpg
2026.511	1.164	1	test	Phase3	test/STIM_018.jpg
2030.074	1.206	1	test	Phase3	test/STIM_018.jpg
2033.998	0.768	1	test	Phase3	test/STIM_018.jpg
2037.668	0.693	1	test	Phase3	test/STIM_019.jpg
2040.677	0.84	1	test	Phase3	test/STIM_019.jpg
2043.611	1.048	1	test	Phase3	test/STIM_019.jpg
2046.725	0.87	1	test	Phase3	test/STIM_020.jpg
2050.242	0.848	1	test	Phase3	test/STIM_020.jpg
2054.333	1.079	0	test	Phase3	test/STIM_020.jpg
2057.771	0.601	1	test	Phase3	test/STIM_021.jpg
2061.754	1.059	1	test	Phase3	test/STIM_021.jpg
2066.751	1.239	1	test	Phase3	test/STIM_021.jpg
2071.364	0.824	0	test	Phase3	test/STIM_022.jpg
2076.003	0.762	1	test	Phase3	test/STIM_022.jpg
2079.066	0.796	1	test	Phase3	test/STIM_022.jpg
2083.1	1.077	1	test	Phase3	test/STIM_023.jpg
2086.977	0.827	1	test	Phase3	test/STIM_023.jpg
2090.706	1.068	1	test	Phase3	test/STIM_023.jpg
2094.784	0.925	0	test	Phase3	test/STIM_024.jpg
2098.819	1.054	1	test	Phase3	test/STIM_024.jpg
2103.258	1.147	1	test	Phase3	test/STIM_024.jpg
2107.91	1.124	1	test	Phase3	test/STIM_025.jpg
2111.496	0.655	1	test	Phase3	test/STIM_025.jpg
2114.833	0.7	1	test	Phase3	test/STIM_025.jpg
2119.269	1.24	1	test	Phase3	test/STIM_026.jpg
2124.267	0.902	1	test	Phase3	test/STIM_026.jpg
2128.303	1.164	1	test	Phase3	test/STIM_026.jpg
2132.962	0.804	1	test	Phase3	test/STIM_027.jpg
2137.718	1.199	1	test	Phase3	test/STIM_027.jpg
2141.225	1.158	1	test	Phase3	test/STIM_027.jpg
2145.409	1.242	1	test	Phase3	test/STIM_028.jpg
2148.946	1.024	1	test	Phase3	test/STIM_028.jpg
2152.332	0.703	1	test	Phase3	test/STIM_028.jpg
2155.115	0.996	1	test	Phase3	test/STIM_029.jpg
2158.858	0.669	1	test	Phase3	test/STIM_029.jpg
2162.048	0.698	1	test	Phase3	test/STIM_029.jpg
