onset	duration	accuracy	trial_type	learning_stage	stimulus
0.0	1.045	incorrect	study	Phase1	study/STIM_000.jpg
3.996	1.137	incorrect	study	Phase1	study/STIM_000.jpg
8.854	1.323	incorrect	study	Phase1	study/STIM_000.jpg
14.122	1.727	correct	study	Phase1	study/STIM_001.jpg
19.093	1.524	correct	study	Phase1	study/STIM_001.jpg
22.885	0.946	incorrect	study	Phase1	study/STIM_001.jpg
27.769	1.568	correct	study	Phase1	study/STIM_002.jpg
32.922	0.914	correct	study	Phase1	study/STIM_002.jpg
36.48	0.958	correct	study	Phase1	study/STIM_002.jpg
40.954	1.058	correct	study	Phase1	study/STIM_003.jpg
44.202	1.315	correct	study	Phase1	study/STIM_003.jpg
47.686	1.281	correct	study	Phase1	study/STIM_003.jpg
51.642	0.894	correct	study	Phase1	study/STIM_004.jpg
55.161	1.074	incorrect	study	Phase1	study/STIM_004.jpg
60.134	1.012	correct	study	Phase1	study/STIM_004.jpg
65.067	0.891	correct	study	Phase1	study/STIM_005.jpg
67.988	1.532	correct	study	Phase1	study/STIM_005.jpg
72.197	1.328	correct	study	Phase1	study/STIM_005.jpg
76.336	1.454	correct	study	Phase1	study/STIM_006.jpg
81.575	1.415	incorrect	study	Phase1	study/STIM_006.jpg
86.753	1.365	correct	study	Phase1	study/STIM_006.jpg
91.764	1.292	correct	study	Phase1	study/STIM_007.jpg
95.084	0.782	correct	study	Phase1	study/STIM_007.jpg
98.982	1.394	correct	study	Phase1	study/STIM_007.jpg
103.292	0.881	correct	study	Phase1	study/STIM_008.jpg
106.38	1.34	incorrect	study	Phase1	study/STIM_008.jpg
111.154	1.028	correct	study	Phase1	study/STIM_008.jpg
114.663	1.472	correct	study	Phase1	study/STIM_009.jpg
119.228	1.058	correct	study	Phase1	study/STIM_009.jpg
124.294	0.993	correct	study	Phase1	study/STIM_009.jpg
127.637	1.53	correct	study	Phase1	study/STIM_010.jpg
132.39	0.978	correct	study	Phase1	study/STIM_010.jpg
135.722	1.543	incorrect	study	Phase1	study/STIM_010.jpg
139.854	1.352	correct	study	Phase1	study/STIM_011.jpg
144.371	0.958	correct	study	Phase1	study/STIM_011.jpg
148.529	0.922	correct	study	Phase1	study/STIM_011.jpg
152.808	1.469	correct	study	Phase1	study/STIM_012.jpg
158.08	1.531	correct	study	Phase1	study/STIM_012.jpg
161.688	1.384	correct	study	Phase1	study/STIM_012.jpg
165.694	1.396	correct	study	Phase1	study/STIM_013.jpg
170.379	1.624	correct	study	Phase1	study/STIM_013.jpg
175.079	0.748	correct	study	Phase1	study/STIM_013.jpg
178.358	1.764	correct	study	Phase1	study/STIM_014.jpg
182.644	1.211	correct	study	Phase1	study/STIM_014.jpg
186.745	1.028	correct	study	Phase1	study/STIM_014.jpg
191.698	1.748	correct	study	Phase1	study/STIM_015.jpg
196.821	1.434	correct	study	Phase1	study/STIM_015.jpg
200.493	1.196	correct	study	Phase1	study/STIM_015.jpg
204.1	1.139	incorrect	study	Phase1	study/STIM_016.jpg
209.022	1.563	incorrect	study	Phase1	study/STIM_016.jpg
214.119	1.039	incorrect	study	Phase1	study/STIM_016.jpg
218.153	1.262	correct	study	Phase1	study/STIM_017.jpg
222.699	0.976	correct	study	Phase1	study/STIM_017.jpg
227.55	0.851	correct	study	Phase1	study/STIM_017.jpg
231.399	0.933	incorrect	study	Phase1	study/STIM_018.jpg
236.148	0.868	correct	study	Phase1	study/STIM_018.jpg
240.723	1.162	correct	study	Phase1	study/STIM_018.jpg
244.777	1.203	correct	study	Phase1	study/STIM_019.jpg
249.116	0.905	correct	study	Phase1	study/STIM_019.jpg
253.126	1.471	correct	study	Phase1	study/STIM_019.jpg
258.41	1.39	correct	study	Phase1	study/STIM_020.jpg
262.526	1.369	correct	study	Phase1	study/STIM_020.jpg
266.228	1.605	correct	study	Phase1	study/STIM_020.jpg
271.061	1.32	incorrect	study	Phase1	study/STIM_021.jpg
275.459	0.809	correct	study	Phase1	study/STIM_021.jpg
280.237	1.182	correct	study	Phase1	study/STIM_021.jpg
283.794	0.85	incorrect	study	Phase1	study/STIM_022.jpg
287.608	1.146	correct	study	Phase1	study/STIM_022.jpg
292.509	0.777	correct	study	Phase1	study/STIM_022.jpg
296.695	1.757	correct	study	Phase1	study/STIM_023.jpg
301.562	1.477	correct	study	Phase1	study/STIM_023.jpg
306.828	0.794	correct	study	Phase1	study/STIM_023.jpg
311.201	1.46	correct	study	Phase1	study/STIM_024.jpg
315.318	1.345	correct	study	Phase1	study/STIM_024.jpg
319.457	1.462	correct	study	Phase1	study/STIM_024.jpg
324.22	1.66	correct	study	Phase1	study/STIM_025.jpg
328.879	0.787	incorrect	study	Phase1	study/STIM_025.jpg
333.668	1.436	correct	study	Phase1	study/STIM_025.jpg
338.054	1.016	correct	study	Phase1	study/STIM_026.jpg
341.433	1.59	correct	study	Phase1	study/STIM_026.jpg
345.835	0.907	correct	study	Phase1	study/STIM_026.jpg
350.11	1.094	correct	study	Phase1	study/STIM_027.jpg
354.454	1.105	correct	study	Phase1	study/STIM_027.jpg
359.291	0.725	correct	study	Phase1	study/STIM_027.jpg
362.856	1.506	incorrect	study	Phase1	study/STIM_028.jpg
366.541	1.68	correct	study	Phase1	study/STIM_028.jpg
370.551	1.09	correct	study	Phase1	study/STIM_028.jpg
374.236	1.358	correct	study	Phase1	study/STIM_029.jpg
378.264	1.41	correct	study	Phase1	study/STIM_029.jpg
382.843	0.902	correct	study	Phase1	study/STIM_029.jpg
385.973	1.075	correct	test	Phase1	test/STIM_000.jpg
389.224	0.615	incorrect	test	Phase1	test/STIM_000.jpg
393.424	1.094	correct	test	Phase1	test/STIM_000.jpg
397.321	1.285	incorrect	test	Phase1	test/STIM_001.jpg
402.228	0.839	correct	test	Phase1	test/STIM_001.jpg
405.747	0.729	incorrect	test	Phase1	test/STIM_001.jpg
409.209	0.697	correct	test	Phase1	test/STIM_002.jpg
411.983	0.895	correct	test	Phase1	test/STIM_002.jpg
415.603	0.691	correct	test	Phase1	test/STIM_002.jpg
419.881	0.813	correct	test	Phase1	test/STIM_003.jpg
424.279	0.776	incorrect	test	Phase1	test/STIM_003.jpg
427.187	0.716	correct	test	Phase1	test/STIM_003.jpg
430.836	1.165	correct	test	Phase1	test/STIM_004.jpg
434.772	0.804	correct	test	Phase1	test/STIM_004.jpg
438.39	1.22	correct	test	Phase1	test/STIM_004.jpg
442.868	1.212	correct	test	Phase1	test/STIM_005.jpg
447.392	1.002	correct	test	Phase1	test/STIM_005.jpg
450.676	0.748	correct	test	Phase1	test/STIM_005.jpg
454.96	0.965	incorrect	test	Phase1	test/STIM_006.jpg
458.513	1.154	correct	test	Phase1	test/STIM_006.jpg
461.919	0.966	correct	test	Phase1	test/STIM_006.jpg
465.721	0.953	correct	test	Phase1	test/STIM_007.jpg
469.597	0.744	correct	test	Phase1	test/STIM_007.jpg
473.341	1.113	correct	test	Phase1	test/STIM_007.jpg
477.606	1.055	incorrect	test	Phase1	test/STIM_008.jpg
481.767	1.089	incorrect	test	Phase1	test/STIM_008.jpg
485.532	1.168	correct	test	Phase1	test/STIM_008.jpg
489.142	1.213	correct	test	Phase1	test/STIM_009.jpg
493.261	1.216	correct	test	Phase1	test/STIM_009.jpg
497.031	0.844	correct	test	Phase1	test/STIM_009.jpg
500.864	0.795	correct	test	Phase1	test/STIM_010.jpg
504.099	1.019	correct	test	Phase1	test/STIM_010.jpg
508.029	0.669	correct	test	Phase1	test/STIM_010.jpg
511.037	1.116	correct	test	Phase1	test/STIM_011.jpg
515.75	1.081	correct	test	Phase1	test/STIM_011.jpg
520.797	0.726	correct	test	Phase1	test/STIM_011.jpg
524.943	0.693	incorrect	test	Phase1	test/STIM_012.jpg
529.394	0.826	correct	test	Phase1	test/STIM_012.jpg
533.944	1.271	correct	test	Phase1	test/STIM_012.jpg
537.471	1.11	incorrect	test	Phase1	test/STIM_013.jpg
541.75	0.965	incorrect	test	Phase1	test/STIM_013.jpg
546.023	1.186	correct	test	Phase1	test/STIM_013.jpg
550.329	0.829	correct	test	Phase1	test/STIM_014.jpg
553.205	1.012	correct	test	Phase1	test/STIM_014.jpg
557.747	0.764	correct	test	Phase1	test/STIM_014.jpg
561.112	1.119	correct	test	Phase1	test/STIM_015.jpg
564.908	0.597	incorrect	test	Phase1	test/STIM_015.jpg
567.921	1.025	correct	test	Phase1	test/STIM_015.jpg
571.026	0.964	correct	test	Phase1	test/STIM_016.jpg
574.901	0.857	incorrect	test	Phase1	test/STIM_016.jpg
578.539	0.825	incorrect	test	Phase1	test/STIM_016.jpg
581.432	0.761	correct	test	Phase1	test/STIM_017.jpg
585.914	0.885	correct	test	Phase1	test/STIM_017.jpg
590.19	1.24	correct	test	Phase1	test/STIM_017.jpg
593.855	1.083	correct	test	Phase1	test/STIM_018.jpg
598.335	0.995	correct	test	Phase1	test/STIM_018.jpg
603.203	1.235	correct	test	Phase1	test/STIM_018.jpg
607.275	0.95	incorrect	test	Phase1	test/STIM_019.jpg
610.332	0.923	correct	test	Phase1	test/STIM_019.jpg
613.407	1.162	correct	test	Phase1	test/STIM_019.jpg
617.732	0.864	correct	test	Phase1	test/STIM_020.jpg
622.344	1.271	incorrect	test	Phase1	test/STIM_020.jpg
626.906	0.982	correct	test	Phase1	test/STIM_020.jpg
629.978	1.132	correct	test	Phase1	test/STIM_021.jpg
633.735	1.28	incorrect	test	Phase1	test/STIM_021.jpg
637.563	1.19	correct	test	Phase1	test/STIM_021.jpg
641.931	0.629	correct	test	Phase1	test/STIM_022.jpg
644.839	0.744	correct	test	Phase1	test/STIM_022.jpg
648.583	1.163	correct	test	Phase1	test/STIM_022.jpg
652.039	0.88	correct	test	Phase1	test/STIM_023.jpg
654.949	0.945	correct	test	Phase1	test/STIM_023.jpg
659.515	1.114	correct	test	Phase1	test/STIM_023.jpg
663.561	0.65	correct	test	Phase1	test/STIM_024.jpg
666.37	0.629	correct	test	Phase1	test/STIM_024.jpg
670.882	1.088	incorrect	test	Phase1	test/STIM_024.jpg
674.548	0.607	incorrect	test	Phase1	test/STIM_025.jpg
678.531	1.123	correct	test	Phase1	test/STIM_025.jpg
683.483	0.849	correct	test	Phase1	test/STIM_025.jpg
687.795	0.969	correct	test	Phase1	test/STIM_026.jpg
692.666	1.219	correct	test	Phase1	test/STIM_026.jpg
696.311	1.221	correct	test	Phase1	test/STIM_026.jpg
701.136	1.072	correct	test	Phase1	test/STIM_027.jpg
704.27	0.894	correct	test	Phase1	test/STIM_027.jpg
708.15	1.075	correct	test	Phase1	test/STIM_027.jpg
711.475	0.703	correct	test	Phase1	test/STIM_028.jpg
714.293	0.833	correct	test	Phase1	test/STIM_028.jpg
718.281	1.228	correct	test	Phase1	test/STIM_028.jpg
722.792	0.794	correct	test	Phase1	test/STIM_029.jpg
727.574	0.718	correct	test	Phase1	test/STIM_029.jpg
731.981	1.152	correct	test	Phase1	test/STIM_029.jpg
735.286	0.754	correct	study	Phase2	study/STIM_000.jpg
739.23	0.665	correct	study	Phase2	study/STIM_000.jpg
743.307	1.093	incorrect	study	Phase2	study/STIM_000.jpg
748.271	0.889	incorrect	study	Phase2	study/STIM_001.jpg
753.014	1.024	correct	study	Phase2	study/STIM_001.jpg
756.602	1.196	correct	study	Phase2	study/STIM_001.jpg
761.052	1.153	incorrect	study	Phase2	study/STIM_002.jpg
766.18	1.307	correct	study	Phase2	study/STIM_002.jpg
770.342	0.862	correct	study	Phase2	study/STIM_002.jpg
773.74	1.517	correct	study	Phase2	study/STIM_003.jpg
777.756	1.164	correct	study	Phase2	study/STIM_003.jpg
782.707	0.677	correct	study	Phase2	study/STIM_003.jpg
787.139	1.383	correct	study	Phase2	study/STIM_004.jpg
791.56	0.997	correct	study	Phase2	study/STIM_004.jpg
794.634	0.879	correct	study	Phase2	study/STIM_004.jpg
798.259	1.011	correct	study	Phase2	study/STIM_005.jpg
803.093	0.869	correct	study	Phase2	study/STIM_005.jpg
806.533	1.202	correct	study	Phase2	study/STIM_005.jpg
809.891	1.36	correct	study	Phase2	study/STIM_006.jpg
814.043	0.976	correct	study	Phase2	study/STIM_006.jpg
817.552	0.772	correct	study	Phase2	study/STIM_006.jpg
820.401	1.217	correct	study	Phase2	study/STIM_007.jpg
825.083	1.007	correct	study	Phase2	study/STIM_007.jpg
828.15	1.274	correct	study	Phase2	study/STIM_007.jpg
832.068	0.922	correct	study	Phase2	study/STIM_008.jpg
836.166	0.784	correct	study	Phase2	study/STIM_008.jpg
840.308	0.817	correct	study	Phase2	study/STIM_008.jpg
843.641	0.735	correct	study	Phase2	study/STIM_009.jpg
847.846	0.805	correct	study	Phase2	study/STIM_009.jpg
851.996	0.973	correct	study	Phase2	study/STIM_009.jpg
856.744	1.15	correct	study	Phase2	study/STIM_010.jpg
860.458	1.365	correct	study	Phase2	study/STIM_010.jpg
865.318	0.69	correct	study	Phase2	study/STIM_010.jpg
868.521	0.834	correct	study	Phase2	study/STIM_011.jpg
873.28	0.721	correct	study	Phase2	study/STIM_011.jpg
876.446	1.312	correct	study	Phase2	study/STIM_011.jpg
881.125	1.101	correct	study	Phase2	study/STIM_012.jpg
884.814	0.758	correct	study	Phase2	study/STIM_012.jpg
888.519	0.786	correct	study	Phase2	study/STIM_012.jpg
891.73	1.087	correct	study	Phase2	study/STIM_013.jpg
896.345	0.89	correct	study	Phase2	study/STIM_013.jpg
900.752	1.086	correct	study	Phase2	study/STIM_013.jpg
903.988	1.452	correct	study	Phase2	study/STIM_014.jpg
908.921	1.385	correct	study	Phase2	study/STIM_014.jpg
912.468	0.781	correct	study	Phase2	study/STIM_014.jpg
916.158	1.118	correct	study	Phase2	study/STIM_015.jpg
921.086	1.004	correct	study	Phase2	study/STIM_015.jpg
924.352	0.84	correct	study	Phase2	study/STIM_015.jpg
928.582	1.44	correct	study	Phase2	study/STIM_016.jpg
932.687	0.821	correct	study	Phase2	study/STIM_016.jpg
936.089	0.656	correct	study	Phase2	study/STIM_016.jpg
939.18	0.682	incorrect	study	Phase2	study/STIM_017.jpg
943.264	1.126	correct	study	Phase2	study/STIM_017.jpg
947.203	0.926	correct	study	Phase2	study/STIM_017.jpg
950.44	1.258	incorrect	study	Phase2	study/STIM_018.jpg
955.255	1.195	correct	study	Phase2	study/STIM_018.jpg
959.84	1.122	correct	study	Phase2	study/STIM_018.jpg
964.328	1.118	correct	study	Phase2	study/STIM_019.jpg
967.89	0.957	incorrect	study	Phase2	study/STIM_019.jpg
972.633	0.795	correct	study	Phase2	study/STIM_019.jpg
976.283	1.362	correct	study	Phase2	study/STIM_020.jpg
980.182	1.067	correct	study	Phase2	study/STIM_020.jpg
984.776	1.19	correct	study	Phase2	study/STIM_020.jpg
987.985	0.676	correct	study	Phase2	study/STIM_021.jpg
991.195	0.859	correct	study	Phase2	study/STIM_021.jpg
995.224	0.94	correct	study	Phase2	study/STIM_021.jpg
998.335	1.268	correct	study	Phase2	study/STIM_022.jpg
1002.484	1.219	correct	study	Phase2	study/STIM_022.jpg
1007.461	1.238	correct	study	Phase2	study/STIM_022.jpg
1012.563	1.251	correct	study	Phase2	study/STIM_023.jpg
1016.002	0.666	correct	study	Phase2	study/STIM_023.jpg
1020.33	0.899	correct	study	Phase2	study/STIM_023.jpg
1023.705	0.708	correct	study	Phase2	study/STIM_024.jpg
1027.671	0.984	correct	study	Phase2	study/STIM_024.jpg
1032.312	0.837	correct	study	Phase2	study/STIM_024.jpg
1035.845	1.199	incorrect	study	Phase2	study/STIM_025.jpg
1039.582	0.99	correct	study	Phase2	study/STIM_025.jpg
1042.839	0.954	correct	study	Phase2	study/STIM_025.jpg
1046.118	0.822	incorrect	study	Phase2	study/STIM_026.jpg
1049.007	0.92	correct	study	Phase2	study/STIM_026.jpg
1053.772	0.744	correct	study	Phase2	study/STIM_026.jpg
1057.33	0.837	correct	study	Phase2	study/STIM_027.jpg
1061.679	1.077	correct	study	Phase2	study/STIM_027.jpg
1065.701	0.624	correct	study	Phase2	study/STIM_027.jpg
1069.056	1.369	correct	study	Phase2	study/STIM_028.jpg
1074.23	0.746	correct	study	Phase2	study/STIM_028.jpg
1077.023	1.21	correct	study	Phase2	study/STIM_028.jpg
1080.38	0.948	correct	study	Phase2	study/STIM_029.jpg
1084.868	0.736	correct	study	Phase2	study/STIM_029.jpg
1089.198	1.146	correct	study	Phase2	study/STIM_029.jpg
1092.353	0.841	incorrect	test	Phase2	test/STIM_000.jpg
1095.268	1.163	correct	test	Phase2	test/STIM_000.jpg
1099.496	0.876	correct	test	Phase2	test/STIM_000.jpg
1102.908	0.828	correct	test	Phase2	test/STIM_001.jpg
1105.872	1.137	correct	test	Phase2	test/STIM_001.jpg
1110.822	0.658	correct	test	Phase2	test/STIM_001.jpg
1113.543	0.83	incorrect	test	Phase2	test/STIM_002.jpg
1116.482	1.265	correct	test	Phase2	test/STIM_002.jpg
1120.769	0.67	correct	test	Phase2	test/STIM_002.jpg
1124.084	0.784	correct	test	Phase2	test/STIM_003.jpg
1128.456	0.903	correct	test	Phase2	test/STIM_003.jpg
1132.669	0.682	correct	test	Phase2	test/STIM_003.jpg
1137.031	0.971	correct	test	Phase2	test/STIM_004.jpg
1141.011	0.669	correct	test	Phase2	test/STIM_004.jpg
1144.307	0.811	correct	test	Phase2	test/STIM_004.jpg
1147.969	1.144	correct	test	Phase2	test/STIM_005.jpg
1151.754	0.681	correct	test	Phase2	test/STIM_005.jpg
1155.966	0.713	incorrect	test	Phase2	test/STIM_005.jpg
1160.216	1.278	correct	test	Phase2	test/STIM_006.jpg
1164.873	1.231	correct	test	Phase2	test/STIM_006.jpg
1168.133	0.818	correct	test	Phase2	test/STIM_006.jpg
1172.722	0.63	correct	test	Phase2	test/STIM_007.jpg
1175.515	1.143	correct	test	Phase2	test/STIM_007.jpg
1180.491	0.633	correct	test	Phase2	test/STIM_007.jpg
1183.928	0.782	incorrect	test	Phase2	test/STIM_008.jpg
1187.687	0.838	correct	test	Phase2	test/STIM_008.jpg
1191.854	0.649	correct	test	Phase2	test/STIM_008.jpg
1195.929	0.648	correct	test	Phase2	test/STIM_009.jpg
1200.19	1.173	correct	test	Phase2	test/STIM_009.jpg
1204.768	1.149	correct	test	Phase2	test/STIM_009.jpg
1209.011	0.779	correct	test	Phase2	test/STIM_010.jpg
1212.8	0.7	correct	test	Phase2	test/STIM_010.jpg
1216.109	0.761	correct	test	Phase2	test/STIM_010.jpg
1220.553	0.764	correct	test	Phase2	test/STIM_011.jpg
1223.831	0.694	correct	test	Phase2	test/STIM_011.jpg
1227.797	0.668	correct	test	Phase2	test/STIM_011.jpg
1230.823	1.212	correct	test	Phase2	test/STIM_012.jpg
1235.658	0.734	correct	test	Phase2	test/STIM_012.jpg
1240.222	0.801	correct	test	Phase2	test/STIM_012.jpg
1244.134	0.715	correct	test	Phase2	test/STIM_013.jpg
1248.036	0.836	correct	test	Phase2	test/STIM_013.jpg
1251.356	1.232	correct	test	Phase2	test/STIM_013.jpg
1256.124	0.775	correct	test	Phase2	test/STIM_014.jpg
1258.968	0.8	correct	test	Phase2	test/STIM_014.jpg
1262.677	0.898	correct	test	Phase2	test/STIM_014.jpg
1267.544	0.765	correct	test	Phase2	test/STIM_015.jpg
1271.21	0.828	correct	test	Phase2	test/STIM_015.jpg
1275.311	0.827	correct	test	Phase2	test/STIM_015.jpg
1280.081	0.753	correct	test	Phase2	test/STIM_016.jpg
1283.471	0.92	correct	test	Phase2	test/STIM_016.jpg
1288.339	1.136	correct	test	Phase2	test/STIM_016.jpg
1292.231	0.807	correct	test	Phase2	test/STIM_017.jpg
1296.09	1.11	correct	test	Phase2	test/STIM_017.jpg
1300.136	0.796	correct	test	Phase2	test/STIM_017.jpg
1304.332	0.989	incorrect	test	Phase2	test/STIM_018.jpg
1307.735	1.203	correct	test	Phase2	test/STIM_018.jpg
1311.229	0.85	correct	test	Phase2	test/STIM_018.jpg
1314.995	0.872	correct	test	Phase2	test/STIM_019.jpg
1317.982	0.923	correct	test	Phase2	test/STIM_019.jpg
1321.081	0.918	correct	test	Phase2	test/STIM_019.jpg
1324.523	0.947	correct	test	Phase2	test/STIM_020.jpg
1328.847	0.789	incorrect	test	Phase2	test/STIM_020.jpg
1332.455	0.702	incorrect	test	Phase2	test/STIM_020.jpg
1335.459	0.958	correct	test	Phase2	test/STIM_021.jpg
1339.606	1.274	correct	test	Phase2	test/STIM_021.jpg
1344.863	0.919	incorrect	test	Phase2	test/STIM_021.jpg
1349.676	0.921	correct	test	Phase2	test/STIM_022.jpg
1353.032	0.781	correct	test	Phase2	test/STIM_022.jpg
1356.427	1.274	correct	test	Phase2	test/STIM_022.jpg
1360.175	0.723	correct	test	Phase2	test/STIM_023.jpg
1363.377	1.079	correct	test	Phase2	test/STIM_023.jpg
1368.135	1.174	incorrect	test	Phase2	test/STIM_023.jpg
1372.826	1.191	correct	test	Phase2	test/STIM_024.jpg
1376.759	0.902	correct	test	Phase2	test/STIM_024.jpg
1380.254	0.828	correct	test	Phase2	test/STIM_024.jpg
1383.887	0.655	correct	test	Phase2	test/STIM_025.jpg
1387.294	0.773	correct	test	Phase2	test/STIM_025.jpg
1391.116	1.196	correct	test	Phase2	test/STIM_025.jpg
1394.796	0.793	correct	test	Phase2	test/STIM_026.jpg
1398.651	0.686	correct	test	Phase2	test/STIM_026.jpg
1401.651	0.637	correct	test	Phase2	test/STIM_026.jpg
1404.629	1.015	correct	test	Phase2	test/STIM_027.jpg
1409.101	0.95	correct	test	Phase2	test/STIM_027.jpg
1413.112	0.897	correct	test	Phase2	test/STIM_027.jpg
1417.377	1.264	correct	test	Phase2	test/STIM_028.jpg
1421.498	0.627	correct	test	Phase2	test/STIM_028.jpg
1425.988	1.16	correct	test	Phase2	test/STIM_028.jpg
1430.958	0.612	correct	test	Phase2	test/STIM_029.jpg
1434.576	1.174	correct	test	Phase2	test/STIM_029.jpg
1439.354	1.198	correct	test	Phase2	test/STIM_029.jpg
1444.122	0.603	correct	study	Phase3	study/STIM_000.jpg
1446.79	1.191	correct	study	Phase3	study/STIM_000.jpg
1450.158	0.925	correct	study	Phase3	study/STIM_000.jpg
1453.776	0.869	correct	study	Phase3	study/STIM_001.jpg
1457.013	0.957	correct	study	Phase3	study/STIM_001.jpg
1461.177	0.777	correct	study	Phase3	study/STIM_001.jpg
1465.16	1.047	correct	study	Phase3	study/STIM_002.jpg
1468.748	1.248	correct	study	Phase3	study/STIM_002.jpg
1472.723	1.162	correct	study	Phase3	study/STIM_002.jpg
1476.964	0.702	correct	study	Phase3	study/STIM_003.jpg
1480.071	0.582	correct	study	Phase3	study/STIM_003.jpg
1484.236	1.217	correct	study	Phase3	study/STIM_003.jpg
1488.24	1.09	correct	study	Phase3	study/STIM_004.jpg
1492.074	0.68	correct	study	Phase3	study/STIM_004.jpg
1495.76	1.225	correct	study	Phase3	study/STIM_004.jpg
1499.835	1.07	correct	study	Phase3	study/STIM_005.jpg
1503.073	0.914	correct	study	Phase3	study/STIM_005.jpg
1507.706	0.955	correct	study	Phase3	study/STIM_005.jpg
1510.689	0.772	incorrect	study	Phase3	study/STIM_006.jpg
1514.92	1.054	correct	study	Phase3	study/STIM_006.jpg
1519.222	0.962	correct	study	Phase3	study/STIM_006.jpg
1523.08	1.16	correct	study	Phase3	study/STIM_007.jpg
1527.93	1.137	correct	study	Phase3	study/STIM_007.jpg
1531.152	0.658	correct	study	Phase3	study/STIM_007.jpg
1535.511	1.162	correct	study	Phase3	study/STIM_008.jpg
1539.331	1.146	correct	study	Phase3	study/STIM_008.jpg
1544.439	0.895	correct	study	Phase3	study/STIM_008.jpg
1548.199	0.78	correct	study	Phase3	study/STIM_009.jpg
1552.754	0.785	correct	study	Phase3	study/STIM_009.jpg
1556.485	1.21	correct	study	Phase3	study/STIM_009.jpg
1560.562	0.642	correct	study	Phase3	study/STIM_010.jpg
1564.015	0.598	correct	study	Phase3	study/STIM_010.jpg
1567.369	0.898	correct	study	Phase3	study/STIM_010.jpg
1571.251	0.567	correct	study	Phase3	study/STIM_011.jpg
1574.487	1.059	correct	study	Phase3	study/STIM_011.jpg
1578.602	1.187	correct	study	Phase3	study/STIM_011.jpg
1582.193	0.624	correct	study	Phase3	study/STIM_012.jpg
1585.3	1.233	correct	study	Phase3	study/STIM_012.jpg
1589.504	0.874	correct	study	Phase3	study/STIM_012.jpg
1593.449	1.023	correct	study	Phase3	study/STIM_013.jpg
1597.525	1.12	correct	study	Phase3	study/STIM_013.jpg
1601.041	0.834	correct	study	Phase3	study/STIM_013.jpg
1604.149	1.05	correct	study	Phase3	study/STIM_014.jpg
1608.41	1.064	correct	study	Phase3	study/STIM_014.jpg
1612.285	0.977	correct	study	Phase3	study/STIM_014.jpg
1616.936	0.794	correct	study	Phase3	study/STIM_015.jpg
1621.727	0.886	correct	study	Phase3	study/STIM_015.jpg
1625.053	0.598	correct	study	Phase3	study/STIM_015.jpg
1628.242	0.676	correct	study	Phase3	study/STIM_016.jpg
1631.541	0.973	correct	study	Phase3	study/STIM_016.jpg
1635.19	0.896	correct	study	Phase3	study/STIM_016.jpg
1639.834	0.606	correct	study	Phase3	study/STIM_017.jpg
1643.258	0.676	correct	study	Phase3	study/STIM_017.jpg
1646.646	0.737	correct	study	Phase3	study/STIM_017.jpg
1649.828	0.764	correct	study	Phase3	study/STIM_018.jpg
1654.325	0.813	correct	study	Phase3	study/STIM_018.jpg
1658.709	0.571	correct	study	Phase3	study/STIM_018.jpg
1662.189	0.973	incorrect	study	Phase3	study/STIM_019.jpg
1666.035	0.949	correct	study	Phase3	study/STIM_019.jpg
1670.14	1.016	correct	study	Phase3	study/STIM_019.jpg
1673.291	0.594	correct	study	Phase3	study/STIM_020.jpg
1677.245	1.086	correct	study	Phase3	study/STIM_020.jpg
1681.841	1.036	correct	study	Phase3	study/STIM_020.jpg
1685.403	1.22	correct	study	Phase3	study/STIM_021.jpg
1689.077	0.701	correct	study	Phase3	study/STIM_021.jpg
1692.284	0.584	correct	study	Phase3	study/STIM_021.jpg
1696.508	0.843	correct	study	Phase3	study/STIM_022.jpg
1701.012	1.151	correct	study	Phase3	study/STIM_022.jpg
1705.572	0.737	correct	study	Phase3	study/STIM_022.jpg
1709.381	0.563	correct	study	Phase3	study/STIM_023.jpg
1712.152	0.631	correct	study	Phase3	study/STIM_023.jpg
1716.069	1.004	correct	study	Phase3	study/STIM_023.jpg
1719.907	0.766	correct	study	Phase3	study/STIM_024.jpg
1723.854	0.685	correct	study	Phase3	study/STIM_024.jpg
1727.534	0.823	correct	study	Phase3	study/STIM_024.jpg
1732.007	0.789	correct	study	Phase3	study/STIM_025.jpg
1736.755	1.13	correct	study	Phase3	study/STIM_025.jpg
1740.455	0.614	correct	study	Phase3	study/STIM_025.jpg
1743.707	0.928	correct	study	Phase3	study/STIM_026.jpg
1748.315	0.782	correct	study	Phase3	study/STIM_026.jpg
1752.799	0.82	correct	study	Phase3	study/STIM_026.jpg
1755.926	1.189	correct	study	Phase3	study/STIM_027.jpg
1759.464	0.927	correct	study	Phase3	study/STIM_027.jpg
1763.178	0.679	correct	study	Phase3	study/STIM_027.jpg
1767.531	0.64	correct	study	Phase3	study/STIM_028.jpg
1770.289	0.716	incorrect	study	Phase3	study/STIM_028.jpg
1773.867	1.04	correct	study	Phase3	study/STIM_028.jpg
1778.189	0.761	correct	study	Phase3	study/STIM_029.jpg
1782.11	1.154	correct	study	Phase3	study/STIM_029.jpg
1785.633	0.996	correct	study	Phase3	study/STIM_029.jpg
1790.563	1.084	correct	test	Phase3	test/STIM_000.jpg
1795.014	0.663	correct	test	Phase3	test/STIM_000.jpg
1798.985	0.754	correct	test	Phase3	test/STIM_000.jpg
1803.386	0.786	correct	test	Phase3	test/STIM_001.jpg
1807.944	0.599	correct	test	Phase3	test/STIM_001.jpg
1811.361	1.062	correct	test	Phase3	test/STIM_001.jpg
1815.174	1.254	correct	test	Phase3	test/STIM_002.jpg
1819.829	0.71	correct	test	Phase3	test/STIM_002.jpg
1824.287	0.818	correct	test	Phase3	test/STIM_002.jpg
1828.157	0.9	correct	test	Phase3	test/STIM_003.jpg
1832.876	1.013	correct	test	Phase3	test/STIM_003.jpg
1837.889	0.691	correct	test	Phase3	test/STIM_003.jpg
1841.047	0.762	incorrect	test	Phase3	test/STIM_004.jpg
1845.138	1.075	correct	test	Phase3	test/STIM_004.jpg
1848.795	1.054	correct	test	Phase3	test/STIM_004.jpg
1853.197	0.78	correct	test	Phase3	test/STIM_005.jpg
1857.279	0.689	correct	test	Phase3	test/STIM_005.jpg
1860.917	0.829	correct	test	Phase3	test/STIM_005.jpg
1865.025	1.27	correct	test	Phase3	test/STIM_006.jpg
1869.367	0.705	correct	test	Phase3	test/STIM_006.jpg
1872.15	0.699	incorrect	test	Phase3	test/STIM_006.jpg
1876.12	0.989	correct	test	Phase3	test/STIM_007.jpg
1880.046	0.925	correct	test	Phase3	test/STIM_007.jpg
1884.464	0.598	correct	test	Phase3	test/STIM_007.jpg
1887.443	1.131	correct	test	Phase3	test/STIM_008.jpg
1891.996	0.698	correct	test	Phase3	test/STIM_008.jpg
1896.082	0.597	incorrect	test	Phase3	test/STIM_008.jpg
1898.858	1.068	correct	test	Phase3	test/STIM_009.jpg
1902.465	0.65	correct	test	Phase3	test/STIM_009.jpg
1905.185	1.182	correct	test	Phase3	test/STIM_009.jpg
1908.501	1.04	correct	test	Phase3	test/STIM_010.jpg
1913.333	0.653	correct	test	Phase3	test/STIM_010.jpg
1917.034	0.614	correct	test	Phase3	test/STIM_010.jpg
1920.548	1.004	correct	test	Phase3	test/STIM_011.jpg
1924.109	1.039	correct	test	Phase3	test/STIM_011.jpg
1928.027	1.045	correct	test	Phase3	test/STIM_011.jpg
1932.806	1.039	correct	test	Phase3	test/STIM_012.jpg
1936.702	1.142	incorrect	test	Phase3	test/STIM_012.jpg
1941.028	0.946	correct	test	Phase3	test/STIM_012.jpg
1944.356	1.078	correct	test	Phase3	test/STIM_013.jpg
1947.803	0.908	correct	test	Phase3	test/STIM_013.jpg
1952.521	0.68	correct	test	Phase3	test/STIM_013.jpg
1955.537	1.282	correct	test	Phase3	test/STIM_014.jpg
1960.058	0.688	incorrect	test	Phase3	test/STIM_014.jpg
1964.182	1.217	correct	test	Phase3	test/STIM_014.jpg
1969.409	0.692	correct	test	Phase3	test/STIM_015.jpg
1973.857	1.047	correct	test	Phase3	test/STIM_015.jpg
1978.728	0.948	correct	test	Phase3	test/STIM_015.jpg
1983.07	0.987	correct	test	Phase3	test/STIM_016.jpg
1987.088	1.159	incorrect	test	Phase3	test/STIM_016.jpg
1991.755	1.112	correct	test	Phase3	test/STIM_016.jpg
1995.819	1.271	correct	test	Phase3	test/STIM_017.jpg
2000.78	0.946	incorrect	test	Phase3	test/STIM_017.jpg
2005.06	1.101	correct	test	Phase3	test/STIM_017.jpg
2008.883	0.762	correct	test	Phase3	test/STIM_018.jpg
2012.073	0.885	correct	test	Phase3	test/STIM_018.jpg
2016.918	0.996	correct	test	Phase3	test/STIM_018.jpg
2020.778	1.013	correct	test	Phase3	test/STIM_019.jpg
2024.209	0.753	correct	test	Phase3	test/STIM_019.jpg
2027.401	0.769	correct	test	Phase3	test/STIM_019.jpg
2031.734	0.634	correct	test	Phase3	test/STIM_020.jpg
2035.436	0.637	correct	test	Phase3	test/STIM_020.jpg
2038.848	0.871	correct	test	Phase3	test/STIM_020.jpg
2042.394	1.194	correct	test	Phase3	test/STIM_021.jpg
2047.468	1.081	correct	test	Phase3	test/STIM_021.jpg
2051.076	1.058	correct	test	Phase3	test/STIM_021.jpg
2054.281	0.903	correct	test	Phase3	test/STIM_022.jpg
2058.813	1.022	correct	test	Phase3	test/STIM_022.jpg
2061.969	1.224	correct	test	Phase3	test/STIM_022.jpg
2065.778	0.704	correct	test	Phase3	test/STIM_023.jpg
2068.831	0.929	correct	test	Phase3	test/STIM_023.jpg
2073.563	0.989	correct	test	Phase3	test/STIM_023.jpg
2076.718	0.938	correct	test	Phase3	test/STIM_024.jpg
2080.905	1.0	correct	test	Phase3	test/STIM_024.jpg
2084.736	0.978	correct	test	Phase3	test/STIM_024.jpg
2087.731	0.734	correct	test	Phase3	test/STIM_025.jpg
2091.488	1.084	correct	test	Phase3	test/STIM_025.jpg
2095.751	0.843	correct	test	Phase3	test/STIM_025.jpg
2099.423	0.915	correct	test	Phase3	test/STIM_026.jpg
2102.861	1.028	correct	test	Phase3	test/STIM_026.jpg
2106.301	1.122	correct	test	Phase3	test/STIM_026.jpg
2111.206	0.981	correct	test	Phase3	test/STIM_027.jpg
2115.922	0.79	correct	test	Phase3	test/STIM_027.jpg
2119.099	1.032	correct	test	Phase3	test/STIM_027.jpg
2123.219	0.922	correct	test	Phase3	test/STIM_028.jpg
2126.194	0.826	correct	test	Phase3	test/STIM_028.jpg
2130.311	0.972	correct	test	Phase3	test/STIM_028.jpg
2133.934	0.645	correct	test	Phase3	test/STIM_029.jpg
2137.257	0.928	correct	test	Phase3	test/STIM_029.jpg
2141.235	0.732	incorrect	test	Phase3	test/STIM_029.jpg
