onset	duration	response_time_ms	trial_type	learning_stage	stimulus	response_port
0.0	1.045	1045.3	study	Phase1	study/STIM_000.jpg	100
3.996	1.137	1136.9	study	Phase1	study/STIM_000.jpg	100
8.854	1.323	1323.2	study	Phase1	study/STIM_000.jpg	100
14.122	1.727	1726.8	study	Phase1	study/STIM_001.jpg	100
19.093	1.524	1524.1	study	Phase1	study/STIM_001.jpg	100
22.885	0.946	946.3	study	Phase1	study/STIM_001.jpg	99
27.769	1.568	1568.0	study	Phase1	study/STIM_002.jpg	99
32.922	0.914	913.9	study	Phase1	study/STIM_002.jpg	100
36.48	0.958	957.5	study	Phase1	study/STIM_002.jpg	100
40.954	1.058	1058.2	study	Phase1	study/STIM_003.jpg	99
44.202	1.315	1314.9	study	Phase1	study/STIM_003.jpg	99
47.686	1.281	1281.2	study	Phase1	study/STIM_003.jpg	99
51.642	0.894	893.6	study	Phase1	study/STIM_004.jpg	100
55.161	1.074	1073.5	study	Phase1	study/STIM_004.jpg	99
60.134	1.012	1012.3	study	Phase1	study/STIM_004.jpg	99
65.067	0.891	890.7	study	Phase1	study/STIM_005.jpg	99
67.988	1.532	1531.7	study	Phase1	study/STIM_005.jpg	99
72.197	1.328	1328.0	study	Phase1	study/STIM_005.jpg	100
76.336	1.454	1453.9	study	Phase1	study/STIM_006.jpg	100
81.575	1.415	1415.0	study	Phase1	study/STIM_006.jpg	100
86.753	1.365	1365.2	study	Phase1	study/STIM_006.jpg	100
91.764	1.292	1292.0	study	Phase1	study/STIM_007.jpg	100
95.084	0.782	782.5	study	Phase1	study/STIM_007.jpg	99
98.982	1.394	1393.8	study	Phase1	study/STIM_007.jpg	99
103.292	0.881	881.4	study	Phase1	study/STIM_008.jpg	99
106.38	1.34	1339.6	study	Phase1	study/STIM_008.jpg	100
111.154	1.028	1027.7	study	Phase1	study/STIM_008.jpg	99
114.663	1.472	1471.9	study	Phase1	study/STIM_009.jpg	99
119.228	1.058	1058.4	study	Phase1	study/STIM_009.jpg	99
124.294	0.993	993.1	study	Phase1	study/STIM_009.jpg	100
127.637	1.53	1530.2	study	Phase1	study/STIM_010.jpg	100
132.39	0.978	977.9	study	Phase1	study/STIM_010.jpg	99
135.722	1.543	1543.4	study	Phase1	study/STIM_010.jpg	99
139.854	1.352	1352.2	study	Phase1	study/STIM_011.jpg	100
144.371	0.958	957.7	study	Phase1	study/STIM_011.jpg	100
148.529	0.922	921.8	study	Phase1	study/STIM_011.jpg	99
152.808	1.469	1468.8	study	Phase1	study/STIM_012.jpg	100
158.08	1.531	1531.4	study	Phase1	study/STIM_012.jpg	99
161.688	1.384	1383.6	study	Phase1	study/STIM_012.jpg	100
165.694	1.396	1395.8	study	Phase1	study/STIM_013.jpg	99
170.379	1.624	1623.5	study	Phase1	study/STIM_013.jpg	99
175.079	0.748	748.5	study	Phase1	study/STIM_013.jpg	99
178.358	1.764	1764.4	study	Phase1	study/STIM_014.jpg	100
182.644	1.211	1210.8	study	Phase1	study/STIM_014.jpg	99
186.745	1.028	1028.4	study	Phase1	study/STIM_014.jpg	99
191.698	1.748	1748.1	study	Phase1	study/STIM_015.jpg	99
196.821	1.434	1434.4	study	Phase1	study/STIM_015.jpg	99
200.493	1.196	1196.0	study	Phase1	study/STIM_015.jpg	100
204.1	1.139	1139.1	study	Phase1	study/STIM_016.jpg	100
209.022	1.563	1563.2	study	Phase1	study/STIM_016.jpg	100
214.119	1.039	1039.3	study	Phase1	study/STIM_016.jpg	100
218.153	1.262	1262.0	study	Phase1	study/STIM_017.jpg	100
222.699	0.976	976.2	study	Phase1	study/STIM_017.jpg	100
227.55	0.851	851.2	study	Phase1	study/STIM_017.jpg	99
231.399	0.933	932.7	study	Phase1	study/STIM_018.jpg	100
236.148	0.868	868.5	study	Phase1	study/STIM_018.jpg	99
240.723	1.162	1161.7	study	Phase1	study/STIM_018.jpg	100
244.777	1.203	1202.8	study	Phase1	study/STIM_019.jpg	100
249.116	0.905	904.6	study	Phase1	study/STIM_019.jpg	99
253.126	1.471	1471.1	study	Phase1	study/STIM_019.jpg	100
258.41	1.39	1390.2	study	Phase1	study/STIM_020.jpg	99
262.526	1.369	1369.0	study	Phase1	study/STIM_020.jpg	99
266.228	1.605	1605.4	study	Phase1	study/STIM_020.jpg	99
271.061	1.32	1320.5	study	Phase1	study/STIM_021.jpg	100
275.459	0.809	808.6	study	Phase1	study/STIM_021.jpg	100
280.237	1.182	1182.5	study	Phase1	study/STIM_021.jpg	99
283.794	0.85	850.2	study	Phase1	study/STIM_022.jpg	99
287.608	1.146	1146.4	study	Phase1	study/STIM_022.jpg	100
292.509	0.777	777.4	study	Phase1	study/STIM_022.jpg	100
296.695	1.757	1756.7	study	Phase1	study/STIM_023.jpg	99
301.562	1.477	1476.7	study	Phase1	study/STIM_023.jpg	100
306.828	0.794	793.9	study	Phase1	study/STIM_023.jpg	99
311.201	1.46	1460.3	study	Phase1	study/STIM_024.jpg	99
315.318	1.345	1345.0	study	Phase1	study/STIM_024.jpg	99
319.457	1.462	1461.5	study	Phase1	study/STIM_024.jpg	100
324.22	1.66	1660.2	study	Phase1	study/STIM_025.jpg	99
328.879	0.787	787.2	study	Phase1	study/STIM_025.jpg	99
333.668	1.436	1436.2	study	Phase1	study/STIM_025.jpg	100
338.054	1.016	1016.2	study	Phase1	study/STIM_026.jpg	99
341.433	1.59	1590.1	study	Phase1	study/STIM_026.jpg	100
345.835	0.907	907.2	study	Phase1	study/STIM_026.jpg	99
350.11	1.094	1094.1	study	Phase1	study/STIM_027.jpg	99
354.454	1.105	1105.0	study	Phase1	study/STIM_027.jpg	100
359.291	0.725	724.9	study	Phase1	study/STIM_027.jpg	100
362.856	1.506	1505.7	study	Phase1	study/STIM_028.jpg	99
366.541	1.68	1679.6	study	Phase1	study/STIM_028.jpg	100
370.551	1.09	1089.6	study	Phase1	study/STIM_028.jpg	99
374.236	1.358	1357.9	study	Phase1	study/STIM_029.jpg	99
378.264	1.41	1410.3	study	Phase1	study/STIM_029.jpg	99
382.843	0.902	901.9	study	Phase1	study/STIM_029.jpg	99
385.973	1.075	1074.7	test	Phase1	test/STIM_000.jpg	100
389.224	0.615	615.2	test	Phase1	test/STIM_000.jpg	100
393.424	1.094	1093.5	test	Phase1	test/STIM_000.jpg	99
397.321	1.285	1285.4	test	Phase1	test/STIM_001.jpg	100
402.228	0.839	838.9	test	Phase1	test/STIM_001.jpg	99
405.747	0.729	729.1	test	Phase1	test/STIM_001.jpg	99
409.209	0.697	697.3	test	Phase1	test/STIM_002.jpg	100
411.983	0.895	894.8	test	Phase1	test/STIM_002.jpg	100
415.603	0.691	690.8	test	Phase1	test/STIM_002.jpg	100
419.881	0.813	813.1	test	Phase1	test/STIM_003.jpg	100
424.279	0.776	776.2	test	Phase1	test/STIM_003.jpg	99
427.187	0.716	716.1	test	Phase1	test/STIM_003.jpg	99
430.836	1.165	1165.4	test	Phase1	test/STIM_004.jpg	99
434.772	0.804	804.3	test	Phase1	test/STIM_004.jpg	100
438.39	1.22	1219.9	test	Phase1	test/STIM_004.jpg	99
442.868	1.212	1211.8	test	Phase1	test/STIM_005.jpg	100
447.392	1.002	1002.0	test	Phase1	test/STIM_005.jpg	99
450.676	0.748	747.8	test	Phase1	test/STIM_005.jpg	100
454.96	0.965	965.3	test	Phase1	test/STIM_006.jpg	99
458.513	1.154	1154.1	test	Phase1	test/STIM_006.jpg	99
461.919	0.966	966.0	test	Phase1	test/STIM_006.jpg	99
465.721	0.953	953.2	test	Phase1	test/STIM_007.jpg	99
469.597	0.744	744.1	test	Phase1	test/STIM_007.jpg	100
473.341	1.113	1112.6	test	Phase1	test/STIM_007.jpg	100
477.606	1.055	1055.1	test	Phase1	test/STIM_008.jpg	100
481.767	1.089	1088.8	test	Phase1	test/STIM_008.jpg	99
485.532	1.168	1168.0	test	Phase1	test/STIM_008.jpg	100
489.142	1.213	1213.0	test	Phase1	test/STIM_009.jpg	99
493.261	1.216	1215.5	test	Phase1	test/STIM_009.jpg	99
497.031	0.844	844.2	test	Phase1	test/STIM_009.jpg	100
500.864	0.795	795.3	test	Phase1	test/STIM_010.jpg	100
504.099	1.019	1019.1	test	Phase1	test/STIM_010.jpg	99
508.029	0.669	668.9	test	Phase1	test/STIM_010.jpg	100
511.037	1.116	1115.8	test	Phase1	test/STIM_011.jpg	100
515.75	1.081	1080.9	test	Phase1	test/STIM_011.jpg	100
520.797	0.726	726.2	test	Phase1	test/STIM_011.jpg	99
524.943	0.693	692.8	test	Phase1	test/STIM_012.jpg	99
529.394	0.826	825.8	test	Phase1	test/STIM_012.jpg	100
533.944	1.271	1271.1	test	Phase1	test/STIM_012.jpg	99
537.471	1.11	1109.7	test	Phase1	test/STIM_013.jpg	100
541.75	0.965	965.2	test	Phase1	test/STIM_013.jpg	100
546.023	1.186	1186.2	test	Phase1	test/STIM_013.jpg	100
550.329	0.829	829.1	test	Phase1	test/STIM_014.jpg	100
553.205	1.012	1011.6	test	Phase1	test/STIM_014.jpg	100
557.747	0.764	763.9	test	Phase1	test/STIM_014.jpg	99
561.112	1.119	1118.7	test	Phase1	test/STIM_015.jpg	99
564.908	0.597	596.8	test	Phase1	test/STIM_015.jpg	99
567.921	1.025	1024.9	test	Phase1	test/STIM_015.jpg	100
571.026	0.964	964.2	test	Phase1	test/STIM_016.jpg	99
574.901	0.857	856.6	test	Phase1	test/STIM_016.jpg	100
578.539	0.825	825.0	test	Phase1	test/STIM_016.jpg	100
581.432	0.761	761.2	test	Phase1	test/STIM_017.jpg	100
585.914	0.885	885.1	test	Phase1	test/STIM_017.jpg	100
590.19	1.24	1239.7	test	Phase1	test/STIM_017.jpg	99
593.855	1.083	1082.8	test	Phase1	test/STIM_018.jpg	99
598.335	0.995	994.9	test	Phase1	test/STIM_018.jpg	100
603.203	1.235	1235.1	test	Phase1	test/STIM_018.jpg	99
607.275	0.95	949.9	test	Phase1	test/STIM_019.jpg	99
610.332	0.923	923.3	test	Phase1	test/STIM_019.jpg	99
613.407	1.162	1162.5	test	Phase1	test/STIM_019.jpg	99
617.732	0.864	864.0	test	Phase1	test/STIM_020.jpg	99
622.344	1.271	1271.3	test	Phase1	test/STIM_020.jpg	100
626.906	0.982	981.7	test	Phase1	test/STIM_020.jpg	100
629.978	1.132	1132.4	test	Phase1	test/STIM_021.jpg	100
633.735	1.28	1279.7	test	Phase1	test/STIM_021.jpg	99
637.563	1.19	1190.3	test	Phase1	test/STIM_021.jpg	99
641.931	0.629	628.9	test	Phase1	test/STIM_022.jpg	100
644.839	0.744	743.5	test	Phase1	test/STIM_022.jpg	100
648.583	1.163	1162.6	test	Phase1	test/STIM_022.jpg	99
652.039	0.88	879.9	test	Phase1	test/STIM_023.jpg	99
654.949	0.945	945.3	test	Phase1	test/STIM_023.jpg	99
659.515	1.114	1113.5	test	Phase1	test/STIM_023.jpg	100
663.561	0.65	649.9	test	Phase1	test/STIM_024.jpg	99
666.37	0.629	628.9	test	Phase1	test/STIM_024.jpg	99
670.882	1.088	1088.3	test	Phase1	test/STIM_024.jpg	100
674.548	0.607	607.4	test	Phase1	test/STIM_025.jpg	99
678.531	1.123	1122.9	test	Phase1	test/STIM_025.jpg	99
683.483	0.849	849.3	test	Phase1	test/STIM_025.jpg	99
687.795	0.969	968.7	test	Phase1	test/STIM_026.jpg	100
692.666	1.219	1218.6	test	Phase1	test/STIM_026.jpg	99
696.311	1.221	1221.0	test	Phase1	test/STIM_026.jpg	100
701.136	1.072	1072.4	test	Phase1	test/STIM_027.jpg	99
704.27	0.894	893.9	test	Phase1	test/STIM_027.jpg	100
708.15	1.075	1074.6	test	Phase1	test/STIM_027.jpg	100
711.475	0.703	703.4	test	Phase1	test/STIM_028.jpg	100
714.293	0.833	832.7	test	Phase1	test/STIM_028.jpg	100
718.281	1.228	1227.5	test	Phase1	test/STIM_028.jpg	99
722.792	0.794	794.4	test	Phase1	test/STIM_029.jpg	99
727.574	0.718	717.7	test	Phase1	test/STIM_029.jpg	99
731.981	1.152	1152.4	test	Phase1	test/STIM_029.jpg	100
735.286	0.754	754.0	study	Phase2	study/STIM_000.jpg	100
739.23	0.665	665.1	study	Phase2	study/STIM_000.jpg	99
743.307	1.093	1092.7	study	Phase2	study/STIM_000.jpg	99
748.271	0.889	889.4	study	Phase2	study/STIM_001.jpg	100
753.014	1.024	1024.0	study	Phase2	study/STIM_001.jpg	99
756.602	1.196	1196.0	study	Phase2	study/STIM_001.jpg	100
761.052	1.153	1152.9	study	Phase2	study/STIM_002.jpg	100
766.18	1.307	1306.7	study	Phase2	study/STIM_002.jpg	100
770.342	0.862	862.3	study	Phase2	study/STIM_002.jpg	100
773.74	1.517	1516.6	study	Phase2	study/STIM_003.jpg	100
777.756	1.164	1163.7	study	Phase2	study/STIM_003.jpg	99
782.707	0.677	677.0	study	Phase2	study/STIM_003.jpg	100
787.139	1.383	1382.7	study	Phase2	study/STIM_004.jpg	100
791.56	0.997	997.2	study	Phase2	study/STIM_004.jpg	100
794.634	0.879	879.3	study	Phase2	study/STIM_004.jpg	100
798.259	1.011	1010.6	study	Phase2	study/STIM_005.jpg	100
803.093	0.869	868.7	study	Phase2	study/STIM_005.jpg	99
806.533	1.202	1201.9	study	Phase2	study/STIM_005.jpg	100
809.891	1.36	1359.7	study	Phase2	study/STIM_006.jpg	100
814.043	0.976	976.1	study	Phase2	study/STIM_006.jpg	100
817.552	0.772	771.9	study	Phase2	study/STIM_006.jpg	99
820.401	1.217	1216.7	study	Phase2	study/STIM_007.jpg	100
825.083	1.007	1007.4	study	Phase2	study/STIM_007.jpg	99
828.15	1.274	1274.2	study	Phase2	study/STIM_007.jpg	99
832.068	0.922	922.2	study	Phase2	study/STIM_008.jpg	99
836.166	0.784	784.1	study	Phase2	study/STIM_008.jpg	99
840.308	0.817	816.7	study	Phase2	study/STIM_008.jpg	99
843.641	0.735	735.1	study	Phase2	study/STIM_009.jpg	99
847.846	0.805	804.7	study	Phase2	study/STIM_009.jpg	99
851.996	0.973	972.8	study	Phase2	study/STIM_009.jpg	99
856.744	1.15	1149.6	study	Phase2	study/STIM_010.jpg	99
860.458	1.365	1365.3	study	Phase2	study/STIM_010.jpg	100
865.318	0.69	690.4	study	Phase2	study/STIM_010.jpg	100
868.521	0.834	833.9	study	Phase2	study/STIM_011.jpg	100
873.28	0.721	721.4	study	Phase2	study/STIM_011.jpg	100
876.446	1.312	1311.8	study	Phase2	study/STIM_011.jpg	100
881.125	1.101	1100.6	study	Phase2	study/STIM_012.jpg	100
884.814	0.758	757.6	study	Phase2	study/STIM_012.jpg	100
888.519	0.786	785.8	study	Phase2	study/STIM_012.jpg	100
891.73	1.087	1086.9	study	Phase2	study/STIM_013.jpg	99
896.345	0.89	889.5	study	Phase2	study/STIM_013.jpg	99
900.752	1.086	1086.1	study	Phase2	study/STIM_013.jpg	100
903.988	1.452	1451.9	study	Phase2	study/STIM_014.jpg	100
908.921	1.385	1385.3	study	Phase2	study/STIM_014.jpg	100
912.468	0.781	781.0	study	Phase2	study/STIM_014.jpg	100
916.158	1.118	1117.6	study	Phase2	study/STIM_015.jpg	100
921.086	1.004	1003.8	study	Phase2	study/STIM_015.jpg	100
924.352	0.84	839.9	study	Phase2	study/STIM_015.jpg	100
928.582	1.44	1440.1	study	Phase2	study/STIM_016.jpg	100
932.687	0.821	820.9	study	Phase2	study/STIM_016.jpg	100
936.089	0.656	656.5	study	Phase2	study/STIM_016.jpg	100
939.18	0.682	681.5	study	Phase2	study/STIM_017.jpg	99
943.264	1.126	1126.5	study	Phase2	study/STIM_017.jpg	100
947.203	0.926	925.8	study	Phase2	study/STIM_017.jpg	100
950.44	1.258	1257.9	study	Phase2	study/STIM_018.jpg	99
955.255	1.195	1195.0	study	Phase2	study/STIM_018.jpg	99
959.84	1.122	1121.8	study	Phase2	study/STIM_018.jpg	100
964.328	1.118	1118.4	study	Phase2	study/STIM_019.jpg	100
967.89	0.957	956.6	study	Phase2	study/STIM_019.jpg	100
972.633	0.795	794.9	study	Phase2	study/STIM_019.jpg	100
976.283	1.362	1362.5	study	Phase2	study/STIM_020.jpg	99
980.182	1.067	1067.4	study	Phase2	study/STIM_020.jpg	100
984.776	1.19	1190.3	study	Phase2	study/STIM_020.jpg	100
987.985	0.676	676.4	study	Phase2	study/STIM_021.jpg	99
991.195	0.859	859.1	study	Phase2	study/STIM_021.jpg	100
995.224	0.94	940.2	study	Phase2	study/STIM_021.jpg	99
998.335	1.268	1268.0	study	Phase2	study/STIM_022.jpg	100
1002.484	1.219	1219.2	study	Phase2	study/STIM_022.jpg	100
1007.461	1.238	1238.2	study	Phase2	study/STIM_022.jpg	100
1012.563	1.251	1251.2	study	Phase2	study/STIM_023.jpg	99
1016.002	0.666	666.3	study	Phase2	study/STIM_023.jpg	100
1020.33	0.899	899.3	study	Phase2	study/STIM_023.jpg	99
1023.705	0.708	707.8	study	Phase2	study/STIM_024.jpg	99
1027.671	0.984	984.3	study	Phase2	study/STIM_024.jpg	99
1032.312	0.837	836.7	study	Phase2	study/STIM_024.jpg	99
1035.845	1.199	1199.1	study	Phase2	study/STIM_025.jpg	99
1039.582	0.99	990.4	study	Phase2	study/STIM_025.jpg	99
1042.839	0.954	954.1	study	Phase2	study/STIM_025.jpg	99
1046.118	0.822	821.7	study	Phase2	study/STIM_026.jpg	100
1049.007	0.92	919.6	study	Phase2	study/STIM_026.jpg	100
1053.772	0.744	743.7	study	Phase2	study/STIM_026.jpg	100
1057.33	0.837	836.9	study	Phase2	study/STIM_027.jpg	100
1061.679	1.077	1077.1	study	Phase2	study/STIM_027.jpg	99
1065.701	0.624	624.1	study	Phase2	study/STIM_027.jpg	100
1069.056	1.369	1368.6	study	Phase2	study/STIM_028.jpg	100
1074.23	0.746	746.5	study	Phase2	study/STIM_028.jpg	99
1077.023	1.21	1209.5	study	Phase2	study/STIM_028.jpg	100
1080.38	0.948	948.5	study	Phase2	study/STIM_029.jpg	100
1084.868	0.736	735.5	study	Phase2	study/STIM_029.jpg	99
1089.198	1.146	1145.6	study	Phase2	study/STIM_029.jpg	100
1092.353	0.841	841.0	test	Phase2	test/STIM_000.jpg	99
1095.268	1.163	1162.9	test	Phase2	test/STIM_000.jpg	100
1099.496	0.876	876.5	test	Phase2	test/STIM_000.jpg	99
1102.908	0.828	827.6	test	Phase2	test/STIM_001.jpg	100
1105.872	1.137	1137.4	test	Phase2	test/STIM_001.jpg	100
1110.822	0.658	658.2	test	Phase2	test/STIM_001.jpg	100
1113.543	0.83	829.8	test	Phase2	test/STIM_002.jpg	99
1116.482	1.265	1265.2	test	Phase2	test/STIM_002.jpg	99
1120.769	0.67	670.4	test	Phase2	test/STIM_002.jpg	100
1124.084	0.784	783.9	test	Phase2	test/STIM_003.jpg	100
1128.456	0.903	903.1	test	Phase2	test/STIM_003.jpg	99
1132.669	0.682	681.8	test	Phase2	test/STIM_003.jpg	99
1137.031	0.971	971.0	test	Phase2	test/STIM_004.jpg	100
1141.011	0.669	668.9	test	Phase2	test/STIM_004.jpg	99
1144.307	0.811	811.4	test	Phase2	test/STIM_004.jpg	99
1147.969	1.144	1143.6	test	Phase2	test/STIM_005.jpg	100
1151.754	0.681	681.3	test	Phase2	test/STIM_005.jpg	100
1155.966	0.713	712.7	test	Phase2	test/STIM_005.jpg	100
1160.216	1.278	1278.3	test	Phase2	test/STIM_006.jpg	100
1164.873	1.231	1231.0	test	Phase2	test/STIM_006.jpg	99
1168.133	0.818	818.2	test	Phase2	test/STIM_006.jpg	100
1172.722	0.63	630.2	test	Phase2	test/STIM_007.jpg	100
1175.515	1.143	1143.2	test	Phase2	test/STIM_007.jpg	100
1180.491	0.633	633.1	test	Phase2	test/STIM_007.jpg	100
1183.928	0.782	781.6	test	Phase2	test/STIM_008.jpg	100
1187.687	0.838	837.5	test	Phase2	test/STIM_008.jpg	100
1191.854	0.649	648.8	test	Phase2	test/STIM_008.jpg	99
1195.929	0.648	648.0	test	Phase2	test/STIM_009.jpg	99
1200.19	1.173	1173.1	test	Phase2	test/STIM_009.jpg	100
1204.768	1.149	1148.8	test	Phase2	test/STIM_009.jpg	99
1209.011	0.779	779.4	test	Phase2	test/STIM_010.jpg	100
1212.8	0.7	700.2	test	Phase2	test/STIM_010.jpg	99
1216.109	0.761	760.8	test	Phase2	test/STIM_010.jpg	99
1220.553	0.764	763.5	test	Phase2	test/STIM_011.jpg	100
1223.831	0.694	694.0	test	Phase2	test/STIM_011.jpg	99
1227.797	0.668	667.9	test	Phase2	test/STIM_011.jpg	100
1230.823	1.212	1211.9	test	Phase2	test/STIM_012.jpg	99
1235.658	0.734	733.6	test	Phase2	test/STIM_012.jpg	100
1240.222	0.801	800.8	test	Phase2	test/STIM_012.jpg	100
1244.134	0.715	714.9	test	Phase2	test/STIM_013.jpg	100
1248.036	0.836	835.9	test	Phase2	test/STIM_013.jpg	100
1251.356	1.232	1232.1	test	Phase2	test/STIM_013.jpg	99
1256.124	0.775	774.8	test	Phase2	test/STIM_014.jpg	99
1258.968	0.8	800.5	test	Phase2	test/STIM_014.jpg	100
1262.677	0.898	897.5	test	Phase2	test/STIM_014.jpg	99
1267.544	0.765	764.8	test	Phase2	test/STIM_015.jpg	100
1271.21	0.828	827.8	test	Phase2	test/STIM_015.jpg	99
1275.311	0.827	827.0	test	Phase2	test/STIM_015.jpg	99
1280.081	0.753	753.0	test	Phase2	test/STIM_016.jpg	100
1283.471	0.92	919.7	test	Phase2	test/STIM_016.jpg	99
1288.339	1.136	1136.4	test	Phase2	test/STIM_016.jpg	99
1292.231	0.807	806.9	test	Phase2	test/STIM_017.jpg	100
1296.09	1.11	1110.3	test	Phase2	test/STIM_017.jpg	100
1300.136	0.796	796.1	test	Phase2	test/STIM_017.jpg	100
1304.332	0.989	989.4	test	Phase2	test/STIM_018.jpg	99
1307.735	1.203	1203.2	test	Phase2	test/STIM_018.jpg	100
1311.229	0.85	850.4	test	Phase2	test/STIM_018.jpg	99
1314.995	0.872	871.6	test	Phase2	test/STIM_019.jpg	100
1317.982	0.923	922.7	test	Phase2	test/STIM_019.jpg	100
1321.081	0.918	918.1	test	Phase2	test/STIM_019.jpg	99
1324.523	0.947	947.4	test	Phase2	test/STIM_020.jpg	99
1328.847	0.789	789.4	test	Phase2	test/STIM_020.jpg	99
1332.455	0.702	701.9	test	Phase2	test/STIM_020.jpg	100
1335.459	0.958	957.6	test	Phase2	test/STIM_021.jpg	100
1339.606	1.274	1274.3	test	Phase2	test/STIM_021.jpg	100
1344.863	0.919	919.4	test	Phase2	test/STIM_021.jpg	99
1349.676	0.921	920.7	test	Phase2	test/STIM_022.jpg	99
1353.032	0.781	781.3	test	Phase2	test/STIM_022.jpg	99
1356.427	1.274	1274.4	test	Phase2	test/STIM_022.jpg	99
1360.175	0.723	722.7	test	Phase2	test/STIM_023.jpg	100
1363.377	1.079	1079.3	test	Phase2	test/STIM_023.jpg	99
1368.135	1.174	1174.5	test	Phase2	test/STIM_023.jpg	99
1372.826	1.191	1190.8	test	Phase2	test/STIM_024.jpg	100
1376.759	0.902	901.5	test	Phase2	test/STIM_024.jpg	99
1380.254	0.828	827.5	test	Phase2	test/STIM_024.jpg	100
1383.887	0.655	655.4	test	Phase2	test/STIM_025.jpg	100
1387.294	0.773	772.7	test	Phase2	test/STIM_025.jpg	100
1391.116	1.196	1196.1	test	Phase2	test/STIM_025.jpg	100
1394.796	0.793	793.2	test	Phase2	test/STIM_026.jpg	99
1398.651	0.686	686.1	test	Phase2	test/STIM_026.jpg	100
1401.651	0.637	637.1	test	Phase2	test/STIM_026.jpg	99
1404.629	1.015	1015.4	test	Phase2	test/STIM_027.jpg	99
1409.101	0.95	950.5	test	Phase2	test/STIM_027.jpg	100
1413.112	0.897	897.0	test	Phase2	test/STIM_027.jpg	99
1417.377	1.264	1263.5	test	Phase2	test/STIM_028.jpg	99
1421.498	0.627	627.0	test	Phase2	test/STIM_028.jpg	99
1425.988	1.16	1160.0	test	Phase2	test/STIM_028.jpg	99
1430.958	0.612	611.9	test	Phase2	test/STIM_029.jpg	99
1434.576	1.174	1174.5	test	Phase2	test/STIM_029.jpg	99
1439.354	1.198	1198.0	test	Phase2	test/STIM_029.jpg	99
1444.122	0.603	602.8	study	Phase3	study/STIM_000.jpg	100
1446.79	1.191	1191.2	study	Phase3	study/STIM_000.jpg	99
1450.158	0.925	925.4	study	Phase3	study/STIM_000.jpg	99
1453.776	0.869	868.6	study	Phase3	study/STIM_001.jpg	100
1457.013	0.957	956.6	study	Phase3	study/STIM_001.jpg	100
1461.177	0.777	777.0	study	Phase3	study/STIM_001.jpg	100
1465.16	1.047	1047.4	study	Phase3	study/STIM_002.jpg	100
1468.748	1.248	1247.8	study	Phase3	study/STIM_002.jpg	99
1472.723	1.162	1162.5	study	Phase3	study/STIM_002.jpg	99
1476.964	0.702	701.6	study	Phase3	study/STIM_003.jpg	99
1480.071	0.582	581.9	study	Phase3	study/STIM_003.jpg	99
1484.236	1.217	1216.7	study	Phase3	study/STIM_003.jpg	100
1488.24	1.09	1090.2	study	Phase3	study/STIM_004.jpg	99
1492.074	0.68	680.0	study	Phase3	study/STIM_004.jpg	100
1495.76	1.225	1225.0	study	Phase3	study/STIM_004.jpg	99
1499.835	1.07	1070.1	study	Phase3	study/STIM_005.jpg	99
1503.073	0.914	914.4	study	Phase3	study/STIM_005.jpg	99
1507.706	0.955	954.9	study	Phase3	study/STIM_005.jpg	99
1510.689	0.772	771.9	study	Phase3	study/STIM_006.jpg	99
1514.92	1.054	1053.9	study	Phase3	study/STIM_006.jpg	100
1519.222	0.962	962.5	study	Phase3	study/STIM_006.jpg	100
1523.08	1.16	1160.4	study	Phase3	study/STIM_007.jpg	99
1527.93	1.137	1137.4	study	Phase3	study/STIM_007.jpg	100
1531.152	0.658	658.4	study	Phase3	study/STIM_007.jpg	99
1535.511	1.162	1162.1	study	Phase3	study/STIM_008.jpg	99
1539.331	1.146	1146.2	study	Phase3	study/STIM_008.jpg	100
1544.439	0.895	895.4	study	Phase3	study/STIM_008.jpg	99
1548.199	0.78	780.5	study	Phase3	study/STIM_009.jpg	100
1552.754	0.785	785.3	study	Phase3	study/STIM_009.jpg	100
1556.485	1.21	1209.6	study	Phase3	study/STIM_009.jpg	99
1560.562	0.642	642.1	study	Phase3	study/STIM_010.jpg	100
1564.015	0.598	597.9	study	Phase3	study/STIM_010.jpg	99
1567.369	0.898	898.4	study	Phase3	study/STIM_010.jpg	100
1571.251	0.567	566.9	study	Phase3	study/STIM_011.jpg	99
1574.487	1.059	1058.7	study	Phase3	study/STIM_011.jpg	100
1578.602	1.187	1186.8	study	Phase3	study/STIM_011.jpg	100
1582.193	0.624	624.4	study	Phase3	study/STIM_012.jpg	100
1585.3	1.233	1232.7	study	Phase3	study/STIM_012.jpg	99
1589.504	0.874	873.7	study	Phase3	study/STIM_012.jpg	99
1593.449	1.023	1022.7	study	Phase3	study/STIM_013.jpg	100
1597.525	1.12	1119.9	study	Phase3	study/STIM_013.jpg	99
1601.041	0.834	834.5	study	Phase3	study/STIM_013.jpg	99
1604.149	1.05	1050.2	study	Phase3	study/STIM_014.jpg	100
1608.41	1.064	1064.0	study	Phase3	study/STIM_014.jpg	99
1612.285	0.977	977.0	study	Phase3	study/STIM_014.jpg	100
1616.936	0.794	794.1	study	Phase3	study/STIM_015.jpg	100
1621.727	0.886	885.8	study	Phase3	study/STIM_015.jpg	100
1625.053	0.598	597.6	study	Phase3	study/STIM_015.jpg	100
1628.242	0.676	675.5	study	Phase3	study/STIM_016.jpg	99
1631.541	0.973	972.6	study	Phase3	study/STIM_016.jpg	100
1635.19	0.896	895.5	study	Phase3	study/STIM_016.jpg	99
1639.834	0.606	606.3	study	Phase3	study/STIM_017.jpg	100
1643.258	0.676	675.6	study	Phase3	study/STIM_017.jpg	99
1646.646	0.737	737.1	study	Phase3	study/STIM_017.jpg	100
1649.828	0.764	763.7	study	Phase3	study/STIM_018.jpg	100
1654.325	0.813	813.1	study	Phase3	study/STIM_018.jpg	100
1658.709	0.571	571.2	study	Phase3	study/STIM_018.jpg	100
1662.189	0.973	972.8	study	Phase3	study/STIM_019.jpg	99
1666.035	0.949	948.9	study	Phase3	study/STIM_019.jpg	100
1670.14	1.016	1015.6	study	Phase3	study/STIM_019.jpg	100
1673.291	0.594	594.2	study	Phase3	study/STIM_020.jpg	100
1677.245	1.086	1086.3	study	Phase3	study/STIM_020.jpg	100
1681.841	1.036	1036.4	study	Phase3	study/STIM_020.jpg	99
1685.403	1.22	1220.4	study	Phase3	study/STIM_021.jpg	100
1689.077	0.701	701.3	study	Phase3	study/STIM_021.jpg	100
1692.284	0.584	584.4	study	Phase3	study/STIM_021.jpg	100
1696.508	0.843	843.4	study	Phase3	study/STIM_022.jpg	100
1701.012	1.151	1151.2	study	Phase3	study/STIM_022.jpg	100
1705.572	0.737	737.4	study	Phase3	study/STIM_022.jpg	100
1709.381	0.563	562.9	study	Phase3	study/STIM_023.jpg	99
1712.152	0.631	630.9	study	Phase3	study/STIM_023.jpg	100
1716.069	1.004	1003.7	study	Phase3	study/STIM_023.jpg	99
1719.907	0.766	766.1	study	Phase3	study/STIM_024.jpg	100
1723.854	0.685	685.2	study	Phase3	study/STIM_024.jpg	100
1727.534	0.823	822.8	study	Phase3	study/STIM_024.jpg	99
1732.007	0.789	788.9	study	Phase3	study/STIM_025.jpg	99
1736.755	1.13	1130.2	study	Phase3	study/STIM_025.jpg	99
1740.455	0.614	613.5	study	Phase3	study/STIM_025.jpg	100
1743.707	0.928	928.2	study	Phase3	study/STIM_026.jpg	100
1748.315	0.782	781.6	study	Phase3	study/STIM_026.jpg	100
1752.799	0.82	820.4	study	Phase3	study/STIM_026.jpg	99
1755.926	1.189	1188.9	study	Phase3	study/STIM_027.jpg	99
1759.464	0.927	927.1	study	Phase3	study/STIM_027.jpg	100
1763.178	0.679	679.2	study	Phase3	study/STIM_027.jpg	100
1767.531	0.64	639.8	study	Phase3	study/STIM_028.jpg	99
1770.289	0.716	715.6	study	Phase3	study/STIM_028.jpg	100
1773.867	1.04	1040.1	study	Phase3	study/STIM_028.jpg	99
1778.189	0.761	761.2	study	Phase3	study/STIM_029.jpg	100
1782.11	1.154	1153.6	study	Phase3	study/STIM_029.jpg	99
1785.633	0.996	996.4	study	Phase3	study/STIM_029.jpg	100
1790.563	1.084	1083.7	test	Phase3	test/STIM_000.jpg	99
1795.014	0.663	663.0	test	Phase3	test/STIM_000.jpg	99
1798.985	0.754	754.5	test	Phase3	test/STIM_000.jpg	99
1803.386	0.786	786.3	test	Phase3	test/STIM_001.jpg	99
1807.944	0.599	598.8	test	Phase3	test/STIM_001.jpg	99
1811.361	1.062	1062.2	test	Phase3	test/STIM_001.jpg	100
1815.174	1.254	1254.2	test	Phase3	test/STIM_002.jpg	100
1819.829	0.71	710.2	test	Phase3	test/STIM_002.jpg	99
1824.287	0.818	817.5	test	Phase3	test/STIM_002.jpg	99
1828.157	0.9	900.5	test	Phase3	test/STIM_003.jpg	100
1832.876	1.013	1013.1	test	Phase3	test/STIM_003.jpg	100
1837.889	0.691	690.8	test	Phase3	test/STIM_003.jpg	99
1841.047	0.762	761.6	test	Phase3	test/STIM_004.jpg	100
1845.138	1.075	1074.8	test	Phase3	test/STIM_004.jpg	99
1848.795	1.054	1054.0	test	Phase3	test/STIM_004.jpg	100
1853.197	0.78	779.9	test	Phase3	test/STIM_005.jpg	100
1857.279	0.689	689.2	test	Phase3	test/STIM_005.jpg	99
1860.917	0.829	829.1	test	Phase3	test/STIM_005.jpg	100
1865.025	1.27	1269.9	test	Phase3	test/STIM_006.jpg	100
1869.367	0.705	704.7	test	Phase3	test/STIM_006.jpg	100
1872.15	0.699	699.3	test	Phase3	test/STIM_006.jpg	100
1876.12	0.989	989.2	test	Phase3	test/STIM_007.jpg	99
1880.046	0.925	925.0	test	Phase3	test/STIM_007.jpg	99
1884.464	0.598	597.8	test	Phase3	test/STIM_007.jpg	100
1887.443	1.131	1130.7	test	Phase3	test/STIM_008.jpg	100
1891.996	0.698	698.4	test	Phase3	test/STIM_008.jpg	100
1896.082	0.597	597.1	test	Phase3	test/STIM_008.jpg	99
1898.858	1.068	1068.5	test	Phase3	test/STIM_009.jpg	100
1902.465	0.65	649.6	test	Phase3	test/STIM_009.jpg	100
1905.185	1.182	1182.5	test	Phase3	test/STIM_009.jpg	100
1908.501	1.04	1040.0	test	Phase3	test/STIM_010.jpg	100
1913.333	0.653	653.3	test	Phase3	test/STIM_010.jpg	100
1917.034	0.614	613.7	test	Phase3	test/STIM_010.jpg	99
1920.548	1.004	1003.9	test	Phase3	test/STIM_011.jpg	99
1924.109	1.039	1039.1	test	Phase3	test/STIM_011.jpg	99
1928.027	1.045	1044.8	test	Phase3	test/STIM_011.jpg	100
1932.806	1.039	1039.4	test	Phase3	test/STIM_012.jpg	100
1936.702	1.142	1141.9	test	Phase3	test/STIM_012.jpg	99
1941.028	0.946	946.0	test	Phase3	test/STIM_012.jpg	99
1944.356	1.078	1078.4	test	Phase3	test/STIM_013.jpg	100
1947.803	0.908	907.5	test	Phase3	test/STIM_013.jpg	99
1952.521	0.68	680.1	test	Phase3	test/STIM_013.jpg	99
1955.537	1.282	1282.3	test	Phase3	test/STIM_014.jpg	100
1960.058	0.688	687.6	test	Phase3	test/STIM_014.jpg	100
1964.182	1.217	1217.4	test	Phase3	test/STIM_014.jpg	99
1969.409	0.692	692.3	test	Phase3	test/STIM_015.jpg	99
1973.857	1.047	1046.6	test	Phase3	test/STIM_015.jpg	100
1978.728	0.948	947.6	test	Phase3	test/STIM_015.jpg	100
1983.07	0.987	986.6	test	Phase3	test/STIM_016.jpg	99
1987.088	1.159	1158.6	test	Phase3	test/STIM_016.jpg	100
1991.755	1.112	1111.8	test	Phase3	test/STIM_016.jpg	100
1995.819	1.271	1270.7	test	Phase3	test/STIM_017.jpg	100
2000.78	0.946	946.3	test	Phase3	test/STIM_017.jpg	99
2005.06	1.101	1101.2	test	Phase3	test/STIM_017.jpg	100
2008.883	0.762	761.5	test	Phase3	test/STIM_018.jpg	100
2012.073	0.885	884.7	test	Phase3	test/STIM_018.jpg	99
2016.918	0.996	996.1	test	Phase3	test/STIM_018.jpg	100
2020.778	1.013	1013.4	test	Phase3	test/STIM_019.jpg	100
2024.209	0.753	752.8	test	Phase3	test/STIM_019.jpg	100
2027.401	0.769	768.6	test	Phase3	test/STIM_019.jpg	99
2031.734	0.634	633.7	test	Phase3	test/STIM_020.jpg	100
2035.436	0.637	637.3	test	Phase3	test/STIM_020.jpg	99
2038.848	0.871	871.1	test	Phase3	test/STIM_020.jpg	99
2042.394	1.194	1193.7	test	Phase3	test/STIM_021.jpg	99
2047.468	1.081	1080.7	test	Phase3	test/STIM_021.jpg	99
2051.076	1.058	1058.4	test	Phase3	test/STIM_021.jpg	99
2054.281	0.903	902.9	test	Phase3	test/STIM_022.jpg	100
2058.813	1.022	1021.8	test	Phase3	test/STIM_022.jpg	99
2061.969	1.224	1224.3	test	Phase3	test/STIM_022.jpg	99
2065.778	0.704	703.7	test	Phase3	test/STIM_023.jpg	100
2068.831	0.929	928.8	test	Phase3	test/STIM_023.jpg	99
2073.563	0.989	988.9	test	Phase3	test/STIM_023.jpg	99
2076.718	0.938	938.4	test	Phase3	test/STIM_024.jpg	99
2080.905	1.0	1000.0	test	Phase3	test/STIM_024.jpg	99
2084.736	0.978	977.5	test	Phase3	test/STIM_024.jpg	99
2087.731	0.734	733.9	test	Phase3	test/STIM_025.jpg	100
2091.488	1.084	1083.9	test	Phase3	test/STIM_025.jpg	99
2095.751	0.843	842.8	test	Phase3	test/STIM_025.jpg	99
2099.423	0.915	914.6	test	Phase3	test/STIM_026.jpg	100
2102.861	1.028	1028.5	test	Phase3	test/STIM_026.jpg	99
2106.301	1.122	1122.0	test	Phase3	test/STIM_026.jpg	99
2111.206	0.981	980.7	test	Phase3	test/STIM_027.jpg	100
2115.922	0.79	789.9	test	Phase3	test/STIM_027.jpg	99
2119.099	1.032	1032.2	test	Phase3	test/STIM_027.jpg	100
2123.219	0.922	922.3	test	Phase3	test/STIM_028.jpg	99
2126.194	0.826	825.6	test	Phase3	test/STIM_028.jpg	100
2130.311	0.972	971.8	test	Phase3	test/STIM_028.jpg	99
2133.934	0.645	644.7	test	Phase3	test/STIM_029.jpg	100
2137.257	0.928	928.5	test	Phase3	test/STIM_029.jpg	99
2141.235	0.732	731.5	test	Phase3	test/STIM_029.jpg	99
