onset	duration	response_time_ms	trial_type	learning_stage	stimulus	response_port
0.0	3.552	3551.8	generate	Run1	generate/STIM_000.jpg	100
6.71	1.43	1430.3	generate	Run1	generate/STIM_000.jpg	99
11.599	2.632	2631.7	generate	Run1	generate/STIM_000.jpg	100
16.815	1.907	1906.9	generate	Run1	generate/STIM_000.jpg	100
20.862	2.366	2365.7	generate	Run1	generate/STIM_000.jpg	100
26.624	3.36	3360.1	generate	Run1	generate/STIM_001.jpg	100
32.258	2.209	2208.6	generate	Run1	generate/STIM_001.jpg	100
36.645	2.498	2498.3	generate	Run1	generate/STIM_001.jpg	100
42.438	1.28	1280.4	generate	Run1	generate/STIM_001.jpg	99
46.943	1.973	1972.6	generate	Run1	generate/STIM_001.jpg	99
50.934	2.826	2825.9	generate	Run1	generate/STIM_002.jpg	99
55.733	1.545	1545.1	generate	Run1	generate/STIM_002.jpg	100
59.934	1.25	1250.4	generate	Run1	generate/STIM_002.jpg	99
63.822	2.084	2083.8	generate	Run1	generate/STIM_002.jpg	99
69.61	2.22	2219.6	generate	Run1	generate/STIM_002.jpg	100
73.846	1.8	1800.1	generate	Run1	generate/STIM_003.jpg	100
78.196	2.45	2450.0	generate	Run1	generate/STIM_003.jpg	100
83.173	2.01	2009.8	generate	Run1	generate/STIM_003.jpg	99
87.611	2.785	2784.6	generate	Run1	generate/STIM_003.jpg	100
93.909	2.34	2339.6	generate	Run1	generate/STIM_003.jpg	100
98.68	2.972	2972.2	generate	Run1	generate/STIM_004.jpg	99
103.303	2.679	2678.8	generate	Run1	generate/STIM_004.jpg	100
107.656	1.827	1827.4	generate	Run1	generate/STIM_004.jpg	99
113.1	1.573	1572.8	generate	Run1	generate/STIM_004.jpg	99
118.452	1.497	1496.6	generate	Run1	generate/STIM_004.jpg	99
122.824	3.114	3114.0	generate	Run1	generate/STIM_005.jpg	99
127.634	2.52	2519.7	generate	Run1	generate/STIM_005.jpg	99
131.962	2.854	2853.9	generate	Run1	generate/STIM_005.jpg	100
137.028	2.718	2717.8	generate	Run1	generate/STIM_005.jpg	99
143.244	1.657	1657.4	generate	Run1	generate/STIM_005.jpg	99
146.708	2.836	2836.0	generate	Run1	generate/STIM_006.jpg	99
151.709	1.34	1340.5	generate	Run1	generate/STIM_006.jpg	99
154.907	1.523	1522.7	generate	Run1	generate/STIM_006.jpg	100
158.617	2.692	2691.5	generate	Run1	generate/STIM_006.jpg	100
163.899	1.342	1342.1	generate	Run1	generate/STIM_006.jpg	99
167.803	1.611	1611.0	generate	Run1	generate/STIM_007.jpg	100
172.406	1.568	1568.3	generate	Run1	generate/STIM_007.jpg	100
177.114	2.993	2992.7	generate	Run1	generate/STIM_007.jpg	99
182.264	1.818	1818.4	generate	Run1	generate/STIM_007.jpg	99
186.83	1.974	1974.1	generate	Run1	generate/STIM_007.jpg	100
191.229	3.368	3368.5	generate	Run1	generate/STIM_008.jpg	100
196.955	2.198	2198.5	generate	Run1	generate/STIM_008.jpg	100
202.221	2.788	2788.0	generate	Run1	generate/STIM_008.jpg	100
207.424	2.323	2323.2	generate	Run1	generate/STIM_008.jpg	99
213.094	2.38	2380.4	generate	Run1	generate/STIM_008.jpg	99
217.567	2.73	2730.5	generate	Run1	generate/STIM_009.jpg	99
223.238	1.384	1384.0	generate	Run1	generate/STIM_009.jpg	99
227.604	2.093	2093.0	generate	Run1	generate/STIM_009.jpg	99
232.419	1.336	1336.4	generate	Run1	generate/STIM_009.jpg	99
237.455	1.42	1420.1	generate	Run1	generate/STIM_009.jpg	100
242.147	1.798	1798.3	generate	Run1	generate/STIM_010.jpg	100
247.134	1.557	1556.8	generate	Run1	generate/STIM_010.jpg	100
252.074	2.723	2723.4	generate	Run1	generate/STIM_010.jpg	99
257.841	2.244	2244.0	generate	Run1	generate/STIM_010.jpg	100
262.151	1.236	1236.3	generate	Run1	generate/STIM_010.jpg	99
265.754	3.042	3041.8	generate	Run1	generate/STIM_011.jpg	100
271.719	2.246	2245.6	generate	Run1	generate/STIM_011.jpg	99
275.94	2.651	2651.2	generate	Run1	generate/STIM_011.jpg	100
281.316	2.102	2102.4	generate	Run1	generate/STIM_011.jpg	99
285.638	2.438	2438.4	generate	Run1	generate/STIM_011.jpg	100
290.523	2.907	2907.0	generate	Run1	generate/STIM_012.jpg	99
295.4	1.764	1764.2	generate	Run1	generate/STIM_012.jpg	100
300.14	2.237	2236.6	generate	Run1	generate/STIM_012.jpg	99
305.277	2.152	2151.6	generate	Run1	generate/STIM_012.jpg	100
309.946	1.49	1490.0	generate	Run1	generate/STIM_012.jpg	99
313.907	2.531	2530.6	generate	Run1	generate/STIM_013.jpg	100
318.602	2.458	2458.0	generate	Run1	generate/STIM_013.jpg	100
323.469	1.206	1206.4	generate	Run1	generate/STIM_013.jpg	99
327.676	2.367	2367.0	generate	Run1	generate/STIM_013.jpg	99
333.684	2.223	2223.3	generate	Run1	generate/STIM_013.jpg	99
339.225	2.388	2388.0	generate	Run1	generate/STIM_014.jpg	100
343.867	2.028	2028.3	generate	Run1	generate/STIM_014.jpg	100
349.627	1.84	1839.8	generate	Run1	generate/STIM_014.jpg	99
353.712	2.304	2303.5	generate	Run1	generate/STIM_014.jpg	100
358.287	2.641	2640.9	generate	Run1	generate/STIM_014.jpg	100
363.216	2.388	2387.6	generate	Run1	generate/STIM_015.jpg	100
368.74	2.737	2737.0	generate	Run1	generate/STIM_015.jpg	100
374.701	1.988	1988.4	generate	Run1	generate/STIM_015.jpg	100
379.108	1.552	1552.1	generate	Run1	generate/STIM_015.jpg	100
383.264	2.612	2611.5	generate	Run1	generate/STIM_015.jpg	99
388.664	3.436	3436.3	generate	Run1	generate/STIM_016.jpg	99
393.969	3.012	3011.9	generate	Run1	generate/STIM_016.jpg	100
399.448	1.304	1304.0	generate	Run1	generate/STIM_016.jpg	99
404.257	2.009	2008.6	generate	Run1	generate/STIM_016.jpg	99
409.894	2.126	2125.9	generate	Run1	generate/STIM_016.jpg	99
414.466	1.49	1490.4	generate	Run1	generate/STIM_017.jpg	99
418.019	1.52	1520.5	generate	Run1	generate/STIM_017.jpg	100
422.427	2.752	2751.8	generate	Run1	generate/STIM_017.jpg	99
428.084	1.525	1525.4	generate	Run1	generate/STIM_017.jpg	100
431.703	1.226	1225.5	generate	Run1	generate/STIM_017.jpg	99
436.125	3.429	3428.6	generate	Run1	generate/STIM_018.jpg	100
443.041	2.316	2316.2	generate	Run1	generate/STIM_018.jpg	100
447.179	2.666	2666.4	generate	Run1	generate/STIM_018.jpg	100
452.486	2.186	2185.5	generate	Run1	generate/STIM_018.jpg	99
457.476	1.692	1692.2	generate	Run1	generate/STIM_018.jpg	100
462.313	2.598	2597.6	generate	Run1	generate/STIM_019.jpg	100
468.219	3.208	3208.0	generate	Run1	generate/STIM_019.jpg	100
473.704	2.286	2286.5	generate	Run1	generate/STIM_019.jpg	99
477.815	2.51	2509.9	generate	Run1	generate/STIM_019.jpg	99
482.047	2.593	2593.4	generate	Run1	generate/STIM_019.jpg	99
488.141	2.355	2355.0	generate	Run1	generate/STIM_020.jpg	100
493.085	2.818	2817.6	generate	Run1	generate/STIM_020.jpg	99
498.785	1.659	1658.8	generate	Run1	generate/STIM_020.jpg	100
503.575	1.961	1960.6	generate	Run1	generate/STIM_020.jpg	99
509.218	1.143	1143.4	generate	Run1	generate/STIM_020.jpg	100
513.254	3.136	3136.0	generate	Run1	generate/STIM_021.jpg	100
519.542	1.86	1859.9	generate	Run1	generate/STIM_021.jpg	99
524.901	2.151	2150.8	generate	Run1	generate/STIM_021.jpg	99
529.576	1.835	1834.9	generate	Run1	generate/STIM_021.jpg	99
534.738	1.77	1769.9	generate	Run1	generate/STIM_021.jpg	100
539.707	2.566	2566.5	generate	Run1	generate/STIM_022.jpg	99
544.724	2.312	2311.6	generate	Run1	generate/STIM_022.jpg	99
550.133	2.772	2771.9	generate	Run1	generate/STIM_022.jpg	99
555.346	1.23	1230.3	generate	Run1	generate/STIM_022.jpg	100
560.37	2.434	2434.2	generate	Run1	generate/STIM_022.jpg	99
565.392	2.315	2315.4	generate	Run1	generate/STIM_023.jpg	99
569.808	2.326	2326.3	generate	Run1	generate/STIM_023.jpg	99
573.777	2.408	2407.8	generate	Run1	generate/STIM_023.jpg	99
578.081	1.223	1222.8	generate	Run1	generate/STIM_023.jpg	100
583.032	2.197	2196.6	generate	Run1	generate/STIM_023.jpg	99
587.526	2.557	2557.1	generate	Run1	generate/STIM_024.jpg	100
593.613	1.945	1945.3	generate	Run1	generate/STIM_024.jpg	99
598.913	2.825	2824.9	generate	Run1	generate/STIM_024.jpg	100
605.094	2.065	2065.4	generate	Run1	generate/STIM_024.jpg	99
609.376	2.428	2427.7	generate	Run1	generate/STIM_024.jpg	100
614.393	0.99	990.5	repeat	Run1	repeat/STIM_000.jpg	99
617.847	0.791	791.0	repeat	Run1	repeat/STIM_000.jpg	100
620.681	0.686	686.4	repeat	Run1	repeat/STIM_000.jpg	99
623.904	0.769	769.0	repeat	Run1	repeat/STIM_000.jpg	100
627.312	1.111	1111.2	repeat	Run1	repeat/STIM_000.jpg	100
631.774	1.113	1113.0	repeat	Run1	repeat/STIM_001.jpg	99
636.155	1.139	1139.3	repeat	Run1	repeat/STIM_001.jpg	99
640.869	0.678	677.5	repeat	Run1	repeat/STIM_001.jpg	99
645.324	1.132	1132.4	repeat	Run1	repeat/STIM_001.jpg	99
649.725	0.815	814.8	repeat	Run1	repeat/STIM_001.jpg	100
652.6	0.911	910.9	repeat	Run1	repeat/STIM_002.jpg	99
655.859	0.605	605.0	repeat	Run1	repeat/STIM_002.jpg	100
659.194	0.662	661.6	repeat	Run1	repeat/STIM_002.jpg	99
663.089	0.918	917.8	repeat	Run1	repeat/STIM_002.jpg	100
667.105	0.963	963.1	repeat	Run1	repeat/STIM_002.jpg	100
670.099	0.668	667.7	repeat	Run1	repeat/STIM_003.jpg	100
672.728	1.068	1067.8	repeat	Run1	repeat/STIM_003.jpg	100
676.995	0.591	591.3	repeat	Run1	repeat/STIM_003.jpg	100
679.595	0.773	772.9	repeat	Run1	repeat/STIM_003.jpg	100
683.363	0.995	995.3	repeat	Run1	repeat/STIM_003.jpg	100
686.507	1.094	1093.6	repeat	Run1	repeat/STIM_004.jpg	99
690.747	0.762	761.6	repeat	Run1	repeat/STIM_004.jpg	99
694.974	0.536	536.5	repeat	Run1	repeat/STIM_004.jpg	100
697.946	0.812	812.2	repeat	Run1	repeat/STIM_004.jpg	99
702.396	1.134	1134.5	repeat	Run1	repeat/STIM_004.jpg	100
705.728	0.869	869.0	repeat	Run1	repeat/STIM_005.jpg	99
709.51	1.122	1122.3	repeat	Run1	repeat/STIM_005.jpg	99
712.873	0.772	771.5	repeat	Run1	repeat/STIM_005.jpg	99
715.776	0.909	909.1	repeat	Run1	repeat/STIM_005.jpg	99
720.156	0.604	603.7	repeat	Run1	repeat/STIM_005.jpg	100
724.337	1.11	1110.0	repeat	Run1	repeat/STIM_006.jpg	100
727.859	0.753	753.1	repeat	Run1	repeat/STIM_006.jpg	100
730.63	0.618	618.1	repeat	Run1	repeat/STIM_006.jpg	100
734.831	0.616	615.9	repeat	Run1	repeat/STIM_006.jpg	99
737.447	0.947	947.4	repeat	Run1	repeat/STIM_006.jpg	99
741.122	1.064	1064.0	repeat	Run1	repeat/STIM_007.jpg	100
745.835	0.951	950.7	repeat	Run1	repeat/STIM_007.jpg	99
749.633	0.762	761.5	repeat	Run1	repeat/STIM_007.jpg	99
752.85	1.173	1173.3	repeat	Run1	repeat/STIM_007.jpg	99
756.412	0.9	899.7	repeat	Run1	repeat/STIM_007.jpg	100
760.88	0.739	739.1	repeat	Run1	repeat/STIM_008.jpg	99
764.114	1.095	1094.9	repeat	Run1	repeat/STIM_008.jpg	99
768.872	0.992	992.4	repeat	Run1	repeat/STIM_008.jpg	99
772.947	0.602	601.5	repeat	Run1	repeat/STIM_008.jpg	100
776.54	0.727	726.7	repeat	Run1	repeat/STIM_008.jpg	99
780.162	0.93	929.8	repeat	Run1	repeat/STIM_009.jpg	100
783.077	0.958	958.4	repeat	Run1	repeat/STIM_009.jpg	100
787.23	0.893	892.7	repeat	Run1	repeat/STIM_009.jpg	99
790.865	0.864	864.5	repeat	Run1	repeat/STIM_009.jpg	100
794.739	0.81	810.0	repeat	Run1	repeat/STIM_009.jpg	100
797.639	0.668	668.0	repeat	Run1	repeat/STIM_010.jpg	100
801.652	0.565	565.0	repeat	Run1	repeat/STIM_010.jpg	99
805.463	0.795	795.1	repeat	Run1	repeat/STIM_010.jpg	99
809.049	1.131	1131.4	repeat	Run1	repeat/STIM_010.jpg	100
812.091	1.055	1054.6	repeat	Run1	repeat/STIM_010.jpg	100
816.864	0.884	884.2	repeat	Run1	repeat/STIM_011.jpg	100
821.621	0.756	756.2	repeat	Run1	repeat/STIM_011.jpg	99
824.397	0.654	654.3	repeat	Run1	repeat/STIM_011.jpg	100
828.155	0.579	578.8	repeat	Run1	repeat/STIM_011.jpg	100
831.528	1.046	1046.3	repeat	Run1	repeat/STIM_011.jpg	100
835.02	1.075	1075.1	repeat	Run1	repeat/STIM_012.jpg	99
838.723	1.041	1041.1	repeat	Run1	repeat/STIM_012.jpg	99
842.857	0.951	951.1	repeat	Run1	repeat/STIM_012.jpg	99
846.819	0.578	577.6	repeat	Run1	repeat/STIM_012.jpg	99
851.235	0.823	822.7	repeat	Run1	repeat/STIM_012.jpg	100
855.498	0.91	910.0	repeat	Run1	repeat/STIM_013.jpg	99
859.283	1.093	1092.9	repeat	Run1	repeat/STIM_013.jpg	99
862.518	0.643	642.6	repeat	Run1	repeat/STIM_013.jpg	100
867.095	0.647	647.1	repeat	Run1	repeat/STIM_013.jpg	100
869.745	0.751	751.3	repeat	Run1	repeat/STIM_013.jpg	99
872.427	0.696	696.4	repeat	Run1	repeat/STIM_014.jpg	100
876.472	0.822	822.2	repeat	Run1	repeat/STIM_014.jpg	99
880.32	0.678	677.7	repeat	Run1	repeat/STIM_014.jpg	100
883.574	0.691	691.3	repeat	Run1	repeat/STIM_014.jpg	100
886.21	1.06	1059.9	repeat	Run1	repeat/STIM_014.jpg	100
889.322	2.485	2485.4	generate	Run2	generate/STIM_000.jpg	100
894.022	1.598	1598.1	generate	Run2	generate/STIM_000.jpg	100
897.797	2.216	2216.0	generate	Run2	generate/STIM_000.jpg	99
902.545	0.961	960.9	generate	Run2	generate/STIM_000.jpg	100
906.107	1.53	1530.5	generate	Run2	generate/STIM_000.jpg	100
910.559	2.29	2289.5	generate	Run2	generate/STIM_001.jpg	99
915.317	1.79	1789.8	generate	Run2	generate/STIM_001.jpg	99
920.861	1.485	1485.4	generate	Run2	generate/STIM_001.jpg	100
925.07	1.516	1515.5	generate	Run2	generate/STIM_001.jpg	99
930.399	1.291	1291.4	generate	Run2	generate/STIM_001.jpg	100
934.036	1.111	1110.7	generate	Run2	generate/STIM_002.jpg	100
937.212	1.741	1741.3	generate	Run2	generate/STIM_002.jpg	100
941.628	1.559	1559.0	generate	Run2	generate/STIM_002.jpg	99
945.477	1.043	1043.2	generate	Run2	generate/STIM_002.jpg	100
948.35	2.028	2027.6	generate	Run2	generate/STIM_002.jpg	100
952.46	1.852	1851.9	generate	Run2	generate/STIM_003.jpg	99
956.514	1.142	1141.9	generate	Run2	generate/STIM_003.jpg	99
961.458	2.276	2276.2	generate	Run2	generate/STIM_003.jpg	100
966.495	1.031	1030.6	generate	Run2	generate/STIM_003.jpg	100
970.908	1.4	1400.1	generate	Run2	generate/STIM_003.jpg	99
976.166	1.584	1584.2	generate	Run2	generate/STIM_004.jpg	100
980.348	1.298	1298.2	generate	Run2	generate/STIM_004.jpg	99
984.383	2.065	2064.9	generate	Run2	generate/STIM_004.jpg	100
988.975	2.07	2069.5	generate	Run2	generate/STIM_004.jpg	99
993.903	1.532	1531.8	generate	Run2	generate/STIM_004.jpg	100
999.159	1.327	1327.1	generate	Run2	generate/STIM_005.jpg	100
1003.972	2.472	2471.9	generate	Run2	generate/STIM_005.jpg	100
1009.278	1.258	1258.5	generate	Run2	generate/STIM_005.jpg	99
1012.754	1.262	1262.1	generate	Run2	generate/STIM_005.jpg	100
1017.411	1.172	1172.3	generate	Run2	generate/STIM_005.jpg	99
1020.782	1.366	1365.5	generate	Run2	generate/STIM_006.jpg	99
1025.295	2.41	2409.9	generate	Run2	generate/STIM_006.jpg	99
1030.691	2.202	2202.0	generate	Run2	generate/STIM_006.jpg	99
1035.59	1.386	1385.7	generate	Run2	generate/STIM_006.jpg	99
1039.074	2.17	2169.8	generate	Run2	generate/STIM_006.jpg	99
1044.157	1.633	1633.0	generate	Run2	generate/STIM_007.jpg	99
1048.88	1.512	1511.8	generate	Run2	generate/STIM_007.jpg	100
1053.759	1.989	1989.4	generate	Run2	generate/STIM_007.jpg	99
1057.525	2.375	2375.1	generate	Run2	generate/STIM_007.jpg	99
1062.861	2.054	2054.0	generate	Run2	generate/STIM_007.jpg	99
1068.53	2.204	2203.9	generate	Run2	generate/STIM_008.jpg	100
1074.489	2.249	2249.1	generate	Run2	generate/STIM_008.jpg	100
1080.151	2.146	2145.5	generate	Run2	generate/STIM_008.jpg	99
1084.017	1.94	1939.9	generate	Run2	generate/STIM_008.jpg	100
1089.375	1.028	1027.5	generate	Run2	generate/STIM_008.jpg	100
1094.175	2.755	2755.1	generate	Run2	generate/STIM_009.jpg	100
1099.567	1.667	1666.8	generate	Run2	generate/STIM_009.jpg	100
1103.904	2.263	2262.7	generate	Run2	generate/STIM_009.jpg	99
1108.414	2.188	2187.5	generate	Run2	generate/STIM_009.jpg	100
1112.536	1.652	1652.5	generate	Run2	generate/STIM_009.jpg	99
1117.087	1.648	1648.5	generate	Run2	generate/STIM_010.jpg	100
1122.373	1.621	1621.2	generate	Run2	generate/STIM_010.jpg	99
1127.071	2.071	2071.4	generate	Run2	generate/STIM_010.jpg	99
1131.425	1.534	1534.5	generate	Run2	generate/STIM_010.jpg	99
1134.747	1.213	1213.1	generate	Run2	generate/STIM_010.jpg	99
1139.322	2.188	2188.4	generate	Run2	generate/STIM_011.jpg	100
1144.031	2.476	2476.4	generate	Run2	generate/STIM_011.jpg	99
1149.451	1.94	1939.6	generate	Run2	generate/STIM_011.jpg	100
1154.052	1.109	1108.8	generate	Run2	generate/STIM_011.jpg	100
1158.766	1.246	1246.5	generate	Run2	generate/STIM_011.jpg	100
1163.681	2.829	2828.8	generate	Run2	generate/STIM_012.jpg	99
1168.578	1.761	1761.1	generate	Run2	generate/STIM_012.jpg	100
1173.269	1.472	1472.4	generate	Run2	generate/STIM_012.jpg	99
1176.843	1.173	1172.7	generate	Run2	generate/STIM_012.jpg	99
1181.402	2.169	2169.2	generate	Run2	generate/STIM_012.jpg	99
1187.315	2.643	2643.1	generate	Run2	generate/STIM_013.jpg	100
1193.198	1.196	1195.7	generate	Run2	generate/STIM_013.jpg	100
1197.105	1.517	1516.7	generate	Run2	generate/STIM_013.jpg	99
1201.387	1.19	1190.5	generate	Run2	generate/STIM_013.jpg	99
1204.625	1.606	1606.5	generate	Run2	generate/STIM_013.jpg	100
1208.046	2.505	2504.8	generate	Run2	generate/STIM_014.jpg	99
1212.51	1.922	1921.7	generate	Run2	generate/STIM_014.jpg	99
1216.968	2.526	2525.6	generate	Run2	generate/STIM_014.jpg	99
1222.55	2.269	2268.6	generate	Run2	generate/STIM_014.jpg	100
1227.436	1.818	1817.8	generate	Run2	generate/STIM_014.jpg	99
1231.927	2.209	2209.1	generate	Run2	generate/STIM_015.jpg	100
1235.994	1.067	1067.3	generate	Run2	generate/STIM_015.jpg	99
1239.781	2.421	2421.4	generate	Run2	generate/STIM_015.jpg	99
1244.619	1.54	1540.0	generate	Run2	generate/STIM_015.jpg	100
1248.18	0.941	940.7	generate	Run2	generate/STIM_015.jpg	100
1252.036	2.544	2543.9	generate	Run2	generate/STIM_016.jpg	100
1257.081	2.182	2181.7	generate	Run2	generate/STIM_016.jpg	99
1262.761	2.319	2319.4	generate	Run2	generate/STIM_016.jpg	100
1267.609	2.47	2469.5	generate	Run2	generate/STIM_016.jpg	99
1273.144	1.28	1279.8	generate	Run2	generate/STIM_016.jpg	100
1276.977	2.57	2569.9	generate	Run2	generate/STIM_017.jpg	100
1281.434	2.561	2560.9	generate	Run2	generate/STIM_017.jpg	100
1286.544	1.059	1058.9	generate	Run2	generate/STIM_017.jpg	100
1290.211	1.56	1559.6	generate	Run2	generate/STIM_017.jpg	99
1295.439	1.107	1106.7	generate	Run2	generate/STIM_017.jpg	100
1300.176	2.397	2397.4	generate	Run2	generate/STIM_018.jpg	100
1304.767	2.413	2412.7	generate	Run2	generate/STIM_018.jpg	99
1310.011	1.982	1982.3	generate	Run2	generate/STIM_018.jpg	100
1314.209	1.933	1932.9	generate	Run2	generate/STIM_018.jpg	99
1318.602	1.256	1256.2	generate	Run2	generate/STIM_018.jpg	100
1322.57	2.33	2330.3	generate	Run2	generate/STIM_019.jpg	99
1326.647	2.62	2619.8	generate	Run2	generate/STIM_019.jpg	100
1332.064	1.528	1528.5	generate	Run2	generate/STIM_019.jpg	100
1336.885	1.255	1255.0	generate	Run2	generate/STIM_019.jpg	100
1341.098	1.616	1615.5	generate	Run2	generate/STIM_019.jpg	100
1345.538	2.294	2293.6	generate	Run2	generate/STIM_020.jpg	99
1349.909	1.453	1453.2	generate	Run2	generate/STIM_020.jpg	100
1353.485	2.22	2219.8	generate	Run2	generate/STIM_020.jpg	99
1358.829	1.294	1294.5	generate	Run2	generate/STIM_020.jpg	99
1363.195	2.124	2124.0	generate	Run2	generate/STIM_020.jpg	100
1367.262	1.971	1971.4	generate	Run2	generate/STIM_021.jpg	99
1371.46	2.307	2307.0	generate	Run2	generate/STIM_021.jpg	100
1376.809	2.216	2215.8	generate	Run2	generate/STIM_021.jpg	99
1380.781	1.782	1781.6	generate	Run2	generate/STIM_021.jpg	99
1386.378	2.131	2130.9	generate	Run2	generate/STIM_021.jpg	100
1390.484	1.814	1813.5	generate	Run2	generate/STIM_022.jpg	100
1394.284	2.191	2191.3	generate	Run2	generate/STIM_022.jpg	100
1398.501	2.346	2346.4	generate	Run2	generate/STIM_022.jpg	99
1403.788	1.613	1613.2	generate	Run2	generate/STIM_022.jpg	99
1408.421	1.926	1926.1	generate	Run2	generate/STIM_022.jpg	99
1412.911	1.14	1140.2	generate	Run2	generate/STIM_023.jpg	99
1416.352	1.704	1704.0	generate	Run2	generate/STIM_023.jpg	99
1421.075	2.553	2553.0	generate	Run2	generate/STIM_023.jpg	100
1426.366	2.283	2282.6	generate	Run2	generate/STIM_023.jpg	99
1430.404	1.223	1223.2	generate	Run2	generate/STIM_023.jpg	100
1434.628	2.521	2520.7	generate	Run2	generate/STIM_024.jpg	100
1439.882	2.142	2142.3	generate	Run2	generate/STIM_024.jpg	100
1445.141	2.368	2368.1	generate	Run2	generate/STIM_024.jpg	100
1449.85	1.611	1610.9	generate	Run2	generate/STIM_024.jpg	99
1454.842	1.158	1158.0	generate	Run2	generate/STIM_024.jpg	100
1458.653	0.819	818.7	repeat	Run2	repeat/STIM_000.jpg	100
1462.824	0.696	696.0	repeat	Run2	repeat/STIM_000.jpg	99
1466.39	1.053	1053.3	repeat	Run2	repeat/STIM_000.jpg	100
1471.128	0.91	910.1	repeat	Run2	repeat/STIM_000.jpg	99
1475.673	0.832	832.5	repeat	Run2	repeat/STIM_000.jpg	100
1479.461	0.598	598.0	repeat	Run2	repeat/STIM_001.jpg	100
1482.645	0.843	843.3	repeat	Run2	repeat/STIM_001.jpg	99
1486.311	0.955	954.8	repeat	Run2	repeat/STIM_001.jpg	99
1489.793	0.852	851.8	repeat	Run2	repeat/STIM_001.jpg	100
1493.512	0.912	912.2	repeat	Run2	repeat/STIM_001.jpg	99
1498.311	0.558	557.5	repeat	Run2	repeat/STIM_002.jpg	100
1502.044	1.063	1063.1	repeat	Run2	repeat/STIM_002.jpg	99
1506.672	0.618	617.9	repeat	Run2	repeat/STIM_002.jpg	100
1510.149	0.971	970.7	repeat	Run2	repeat/STIM_002.jpg	99
1513.111	1.039	1039.3	repeat	Run2	repeat/STIM_002.jpg	99
1517.051	0.897	896.6	repeat	Run2	repeat/STIM_003.jpg	99
1520.603	0.762	761.9	repeat	Run2	repeat/STIM_003.jpg	99
1525.222	0.579	579.1	repeat	Run2	repeat/STIM_003.jpg	99
1529.751	0.813	812.7	repeat	Run2	repeat/STIM_003.jpg	99
1533.214	0.64	639.7	repeat	Run2	repeat/STIM_003.jpg	100
1537.226	0.827	827.2	repeat	Run2	repeat/STIM_004.jpg	100
1541.635	0.683	683.4	repeat	Run2	repeat/STIM_004.jpg	99
1546.082	0.692	691.8	repeat	Run2	repeat/STIM_004.jpg	99
1549.948	0.581	580.7	repeat	Run2	repeat/STIM_004.jpg	100
1553.074	0.857	856.7	repeat	Run2	repeat/STIM_004.jpg	99
1556.514	1.014	1014.4	repeat	Run2	repeat/STIM_005.jpg	100
1559.735	1.022	1022.1	repeat	Run2	repeat/STIM_005.jpg	100
1564.465	0.799	798.7	repeat	Run2	repeat/STIM_005.jpg	99
1568.809	0.965	965.2	repeat	Run2	repeat/STIM_005.jpg	99
1573.469	0.951	950.9	repeat	Run2	repeat/STIM_005.jpg	100
1577.186	0.92	920.4	repeat	Run2	repeat/STIM_006.jpg	100
1581.645	0.836	835.8	repeat	Run2	repeat/STIM_006.jpg	100
1585.842	0.942	942.2	repeat	Run2	repeat/STIM_006.jpg	100
1589.906	1.1	1100.2	repeat	Run2	repeat/STIM_006.jpg	100
1594.746	0.779	779.1	repeat	Run2	repeat/STIM_006.jpg	100
1597.646	0.969	968.8	repeat	Run2	repeat/STIM_007.jpg	100
1602.435	0.681	680.9	repeat	Run2	repeat/STIM_007.jpg	99
1605.007	0.847	846.8	repeat	Run2	repeat/STIM_007.jpg	99
1609.038	0.82	820.0	repeat	Run2	repeat/STIM_007.jpg	100
1611.875	0.768	768.0	repeat	Run2	repeat/STIM_007.jpg	100
1616.312	0.844	843.8	repeat	Run2	repeat/STIM_008.jpg	99
1619.854	0.735	734.7	repeat	Run2	repeat/STIM_008.jpg	99
1622.959	0.948	948.1	repeat	Run2	repeat/STIM_008.jpg	100
1626.126	0.546	546.5	repeat	Run2	repeat/STIM_008.jpg	99
1630.182	0.929	929.2	repeat	Run2	repeat/STIM_008.jpg	100
1634.5	0.813	813.1	repeat	Run2	repeat/STIM_009.jpg	100
1638.064	0.885	884.6	repeat	Run2	repeat/STIM_009.jpg	99
1642.744	0.645	644.9	repeat	Run2	repeat/STIM_009.jpg	100
1646.817	0.998	997.5	repeat	Run2	repeat/STIM_009.jpg	100
1649.911	0.808	807.8	repeat	Run2	repeat/STIM_009.jpg	99
1652.894	0.599	599.1	repeat	Run2	repeat/STIM_010.jpg	99
1655.814	0.975	974.9	repeat	Run2	repeat/STIM_010.jpg	99
1660.213	1.133	1132.6	repeat	Run2	repeat/STIM_010.jpg	99
1663.512	0.648	647.8	repeat	Run2	repeat/STIM_010.jpg	100
1667.016	0.641	641.4	repeat	Run2	repeat/STIM_010.jpg	99
1669.605	0.644	643.9	repeat	Run2	repeat/STIM_011.jpg	100
1673.797	0.944	943.7	repeat	Run2	repeat/STIM_011.jpg	100
1677.838	0.622	622.1	repeat	Run2	repeat/STIM_011.jpg	100
1680.735	0.593	593.2	repeat	Run2	repeat/STIM_011.jpg	100
1685.194	0.905	904.6	repeat	Run2	repeat/STIM_011.jpg	100
1688.31	0.866	866.4	repeat	Run2	repeat/STIM_012.jpg	100
1692.72	1.191	1190.9	repeat	Run2	repeat/STIM_012.jpg	99
1696.098	0.983	982.7	repeat	Run2	repeat/STIM_012.jpg	99
1699.958	1.102	1101.7	repeat	Run2	repeat/STIM_012.jpg	100
1703.861	0.809	808.9	repeat	Run2	repeat/STIM_012.jpg	100
1706.596	1.054	1053.9	repeat	Run2	repeat/STIM_013.jpg	100
1710.145	0.993	993.4	repeat	Run2	repeat/STIM_013.jpg	99
1713.824	0.753	752.8	repeat	Run2	repeat/STIM_013.jpg	100
1716.566	0.844	843.5	repeat	Run2	repeat/STIM_013.jpg	99
1720.138	0.528	527.8	repeat	Run2	repeat/STIM_013.jpg	100
1723.47	1.138	1138.0	repeat	Run2	repeat/STIM_014.jpg	100
1727.694	0.852	852.2	repeat	Run2	repeat/STIM_014.jpg	99
1731.487	1.059	1059.1	repeat	Run2	repeat/STIM_014.jpg	100
1734.655	0.773	773.0	repeat	Run2	repeat/STIM_014.jpg	100
1737.884	0.742	742.0	repeat	Run2	repeat/STIM_014.jpg	100
1740.788	2.279	2278.6	generate	Run3	generate/STIM_000.jpg	99
1746.421	1.56	1560.0	generate	Run3	generate/STIM_000.jpg	100
1750.649	1.066	1065.5	generate	Run3	generate/STIM_000.jpg	99
1753.965	2.264	2263.7	generate	Run3	generate/STIM_000.jpg	100
1759.526	1.642	1641.9	generate	Run3	generate/STIM_000.jpg	100
1764.986	1.853	1852.7	generate	Run3	generate/STIM_001.jpg	100
1768.8	2.38	2379.9	generate	Run3	generate/STIM_001.jpg	99
1774.433	1.563	1563.2	generate	Run3	generate/STIM_001.jpg	99
1778.022	1.482	1482.0	generate	Run3	generate/STIM_001.jpg	100
1781.909	1.493	1493.0	generate	Run3	generate/STIM_001.jpg	100
1785.458	2.161	2160.8	generate	Run3	generate/STIM_002.jpg	100
1789.379	1.565	1564.6	generate	Run3	generate/STIM_002.jpg	99
1793.511	1.38	1379.6	generate	Run3	generate/STIM_002.jpg	99
1797.658	2.384	2384.1	generate	Run3	generate/STIM_002.jpg	100
1803.643	2.214	2213.6	generate	Run3	generate/STIM_002.jpg	99
1808.156	2.158	2157.9	generate	Run3	generate/STIM_003.jpg	100
1812.402	1.735	1735.2	generate	Run3	generate/STIM_003.jpg	99
1816.902	2.29	2289.6	generate	Run3	generate/STIM_003.jpg	100
1821.683	1.386	1385.7	generate	Run3	generate/STIM_003.jpg	100
1825.864	1.998	1997.8	generate	Run3	generate/STIM_003.jpg	99
1830.544	2.303	2303.0	generate	Run3	generate/STIM_004.jpg	99
1835.366	1.667	1666.6	generate	Run3	generate/STIM_004.jpg	99
1839.012	1.258	1258.2	generate	Run3	generate/STIM_004.jpg	100
1842.791	1.133	1133.0	generate	Run3	generate/STIM_004.jpg	100
1846.296	1.641	1641.1	generate	Run3	generate/STIM_004.jpg	99
1850.184	2.14	2139.5	generate	Run3	generate/STIM_005.jpg	99
1855.799	1.669	1669.0	generate	Run3	generate/STIM_005.jpg	99
1861.17	1.175	1175.0	generate	Run3	generate/STIM_005.jpg	100
1864.203	1.05	1049.9	generate	Run3	generate/STIM_005.jpg	100
1867.203	1.804	1803.5	generate	Run3	generate/STIM_005.jpg	100
1871.656	2.256	2255.6	generate	Run3	generate/STIM_006.jpg	99
1877.0	2.26	2260.1	generate	Run3	generate/STIM_006.jpg	99
1882.312	1.616	1615.5	generate	Run3	generate/STIM_006.jpg	99
1886.829	2.154	2154.5	generate	Run3	generate/STIM_006.jpg	100
1891.493	1.974	1973.5	generate	Run3	generate/STIM_006.jpg	100
1895.481	1.84	1840.3	generate	Run3	generate/STIM_007.jpg	100
1899.595	1.248	1248.0	generate	Run3	generate/STIM_007.jpg	100
1904.116	2.284	2284.5	generate	Run3	generate/STIM_007.jpg	99
1909.783	1.891	1891.1	generate	Run3	generate/STIM_007.jpg	100
1915.148	2.308	2308.2	generate	Run3	generate/STIM_007.jpg	100
1921.009	1.27	1270.4	generate	Run3	generate/STIM_008.jpg	100
1924.129	2.204	2203.8	generate	Run3	generate/STIM_008.jpg	100
1929.373	1.702	1702.5	generate	Run3	generate/STIM_008.jpg	99
1933.035	1.989	1988.6	generate	Run3	generate/STIM_008.jpg	99
1938.206	1.08	1080.0	generate	Run3	generate/STIM_008.jpg	100
1943.026	1.397	1397.4	generate	Run3	generate/STIM_009.jpg	99
1946.872	1.326	1325.9	generate	Run3	generate/STIM_009.jpg	100
1951.166	1.026	1025.7	generate	Run3	generate/STIM_009.jpg	100
1955.086	1.492	1491.6	generate	Run3	generate/STIM_009.jpg	100
1958.789	1.789	1788.9	generate	Run3	generate/STIM_009.jpg	100
1962.811	1.096	1095.6	generate	Run3	generate/STIM_010.jpg	100
1966.672	2.325	2325.3	generate	Run3	generate/STIM_010.jpg	100
1972.633	1.456	1456.5	generate	Run3	generate/STIM_010.jpg	100
1977.286	1.968	1967.5	generate	Run3	generate/STIM_010.jpg	100
1980.975	1.175	1174.8	generate	Run3	generate/STIM_010.jpg	100
1985.623	1.407	1406.7	generate	Run3	generate/STIM_011.jpg	99
1989.829	2.218	2217.9	generate	Run3	generate/STIM_011.jpg	100
1994.798	1.817	1817.0	generate	Run3	generate/STIM_011.jpg	100
1999.56	2.043	2043.1	generate	Run3	generate/STIM_011.jpg	99
2004.648	2.32	2319.6	generate	Run3	generate/STIM_011.jpg	99
2010.374	1.275	1275.3	generate	Run3	generate/STIM_012.jpg	100
2014.476	2.078	2077.6	generate	Run3	generate/STIM_012.jpg	99
2018.463	1.786	1785.5	generate	Run3	generate/STIM_012.jpg	99
2023.51	1.931	1931.4	generate	Run3	generate/STIM_012.jpg	99
2027.415	2.304	2303.5	generate	Run3	generate/STIM_012.jpg	100
2032.584	0.952	952.2	generate	Run3	generate/STIM_013.jpg	100
2036.681	2.175	2174.8	generate	Run3	generate/STIM_013.jpg	100
2042.158	2.114	2114.0	generate	Run3	generate/STIM_013.jpg	100
2047.827	0.961	960.8	generate	Run3	generate/STIM_013.jpg	100
2052.525	2.294	2294.0	generate	Run3	generate/STIM_013.jpg	99
2056.666	1.318	1318.2	generate	Run3	generate/STIM_014.jpg	99
2060.959	1.847	1846.9	generate	Run3	generate/STIM_014.jpg	100
2065.155	1.231	1231.3	generate	Run3	generate/STIM_014.jpg	100
2068.661	1.093	1093.3	generate	Run3	generate/STIM_014.jpg	99
2072.796	2.276	2275.5	generate	Run3	generate/STIM_014.jpg	100
2078.243	2.063	2062.6	generate	Run3	generate/STIM_015.jpg	99
2082.161	1.71	1709.8	generate	Run3	generate/STIM_015.jpg	100
2087.365	1.813	1813.3	generate	Run3	generate/STIM_015.jpg	99
2091.118	1.136	1135.5	generate	Run3	generate/STIM_015.jpg	100
2095.165	1.788	1787.7	generate	Run3	generate/STIM_015.jpg	99
2099.327	1.231	1230.7	generate	Run3	generate/STIM_016.jpg	100
2104.206	1.57	1570.2	generate	Run3	generate/STIM_016.jpg	99
2108.183	2.245	2245.3	generate	Run3	generate/STIM_016.jpg	100
2112.913	1.569	1569.1	generate	Run3	generate/STIM_016.jpg	100
2117.287	1.139	1138.8	generate	Run3	generate/STIM_016.jpg	100
2122.024	1.094	1093.8	generate	Run3	generate/STIM_017.jpg	100
2125.039	2.238	2237.7	generate	Run3	generate/STIM_017.jpg	100
2129.848	2.476	2476.2	generate	Run3	generate/STIM_017.jpg	99
2134.257	0.986	986.2	generate	Run3	generate/STIM_017.jpg	100
2138.682	1.959	1959.0	generate	Run3	generate/STIM_017.jpg	99
2142.626	2.249	2248.6	generate	Run3	generate/STIM_018.jpg	99
2147.074	1.635	1634.6	generate	Run3	generate/STIM_018.jpg	100
2150.967	1.75	1749.6	generate	Run3	generate/STIM_018.jpg	100
2155.29	1.047	1047.0	generate	Run3	generate/STIM_018.jpg	100
2159.037	1.684	1683.7	generate	Run3	generate/STIM_018.jpg	99
2163.195	0.998	998.1	generate	Run3	generate/STIM_019.jpg	100
2166.669	1.148	1147.5	generate	Run3	generate/STIM_019.jpg	99
2170.368	1.261	1261.0	generate	Run3	generate/STIM_019.jpg	99
2173.887	1.961	1961.4	generate	Run3	generate/STIM_019.jpg	100
2179.112	1.715	1715.0	generate	Run3	generate/STIM_019.jpg	99
2183.234	2.073	2073.4	generate	Run3	generate/STIM_020.jpg	100
2188.14	2.346	2345.6	generate	Run3	generate/STIM_020.jpg	99
2192.836	1.295	1294.9	generate	Run3	generate/STIM_020.jpg	99
2197.671	1.071	1071.0	generate	Run3	generate/STIM_020.jpg	100
2202.022	1.942	1942.0	generate	Run3	generate/STIM_020.jpg	100
2207.385	2.004	2004.1	generate	Run3	generate/STIM_021.jpg	100
2211.542	1.808	1807.8	generate	Run3	generate/STIM_021.jpg	99
2216.572	1.679	1679.1	generate	Run3	generate/STIM_021.jpg	100
2221.837	1.194	1194.4	generate	Run3	generate/STIM_021.jpg	99
2225.336	1.16	1159.8	generate	Run3	generate/STIM_021.jpg	100
2228.655	1.1	1100.1	generate	Run3	generate/STIM_022.jpg	99
2231.698	2.146	2146.4	generate	Run3	generate/STIM_022.jpg	100
2236.956	1.539	1539.0	generate	Run3	generate/STIM_022.jpg	100
2240.464	2.024	2024.0	generate	Run3	generate/STIM_022.jpg	99
2244.304	2.056	2056.4	generate	Run3	generate/STIM_022.jpg	100
2250.119	1.046	1045.9	generate	Run3	generate/STIM_023.jpg	99
2253.01	2.236	2236.5	generate	Run3	generate/STIM_023.jpg	100
2257.646	1.218	1218.3	generate	Run3	generate/STIM_023.jpg	100
2261.285	1.09	1090.1	generate	Run3	generate/STIM_023.jpg	100
2264.512	1.469	1469.1	generate	Run3	generate/STIM_023.jpg	99
2268.205	2.256	2255.5	generate	Run3	generate/STIM_024.jpg	99
2274.195	1.786	1785.8	generate	Run3	generate/STIM_024.jpg	100
2278.791	1.208	1207.9	generate	Run3	generate/STIM_024.jpg	100
2283.39	2.266	2266.5	generate	Run3	generate/STIM_024.jpg	100
2287.915	1.431	1430.8	generate	Run3	generate/STIM_024.jpg	100
2291.991	0.94	939.6	repeat	Run3	repeat/STIM_000.jpg	99
2295.624	0.862	862.1	repeat	Run3	repeat/STIM_000.jpg	99
2299.246	0.851	850.9	repeat	Run3	repeat/STIM_000.jpg	99
2303.53	0.6	599.5	repeat	Run3	repeat/STIM_000.jpg	99
2307.57	0.746	745.7	repeat	Run3	repeat/STIM_000.jpg	99
2311.954	0.783	782.7	repeat	Run3	repeat/STIM_001.jpg	100
2315.398	0.912	912.5	repeat	Run3	repeat/STIM_001.jpg	99
2319.202	0.625	625.3	repeat	Run3	repeat/STIM_001.jpg	99
2322.715	0.717	717.1	repeat	Run3	repeat/STIM_001.jpg	99
2327.045	1.057	1057.1	repeat	Run3	repeat/STIM_001.jpg	99
2331.548	0.734	734.3	repeat	Run3	repeat/STIM_002.jpg	100
2334.943	0.903	902.8	repeat	Run3	repeat/STIM_002.jpg	100
2338.345	1.072	1072.0	repeat	Run3	repeat/STIM_002.jpg	100
2343.033	0.949	949.1	repeat	Run3	repeat/STIM_002.jpg	99
2346.728	0.973	973.2	repeat	Run3	repeat/STIM_002.jpg	100
2350.51	1.184	1183.8	repeat	Run3	repeat/STIM_003.jpg	100
2354.891	0.742	741.8	repeat	Run3	repeat/STIM_003.jpg	100
2359.048	0.964	964.4	repeat	Run3	repeat/STIM_003.jpg	100
2363.536	1.015	1015.1	repeat	Run3	repeat/STIM_003.jpg	100
2367.467	1.132	1131.7	repeat	Run3	repeat/STIM_003.jpg	100
2371.239	0.788	787.8	repeat	Run3	repeat/STIM_004.jpg	100
2374.954	0.9	900.0	repeat	Run3	repeat/STIM_004.jpg	99
2379.032	1.075	1075.1	repeat	Run3	repeat/STIM_004.jpg	100
2382.747	0.767	766.7	repeat	Run3	repeat/STIM_004.jpg	99
2386.325	0.937	937.1	repeat	Run3	repeat/STIM_004.jpg	100
2390.767	1.098	1098.0	repeat	Run3	repeat/STIM_005.jpg	100
2394.144	0.561	560.9	repeat	Run3	repeat/STIM_005.jpg	99
2397.371	0.85	850.4	repeat	Run3	repeat/STIM_005.jpg	99
2401.494	0.927	926.9	repeat	Run3	repeat/STIM_005.jpg	99
2405.803	0.598	598.3	repeat	Run3	repeat/STIM_005.jpg	99
2409.203	0.994	994.3	repeat	Run3	repeat/STIM_006.jpg	100
2412.721	0.72	719.8	repeat	Run3	repeat/STIM_006.jpg	99
2417.121	1.214	1214.3	repeat	Run3	repeat/STIM_006.jpg	99
2420.693	1.208	1208.2	repeat	Run3	repeat/STIM_006.jpg	99
2424.333	0.8	800.1	repeat	Run3	repeat/STIM_006.jpg	100
2428.379	0.645	645.1	repeat	Run3	repeat/STIM_007.jpg	100
2432.043	1.123	1123.0	repeat	Run3	repeat/STIM_007.jpg	99
2435.215	0.546	546.0	repeat	Run3	repeat/STIM_007.jpg	99
2439.679	0.895	895.3	repeat	Run3	repeat/STIM_007.jpg	99
2442.728	1.062	1062.5	repeat	Run3	repeat/STIM_007.jpg	99
2445.954	0.593	592.7	repeat	Run3	repeat/STIM_008.jpg	99
2450.002	0.876	876.5	repeat	Run3	repeat/STIM_008.jpg	99
2454.401	0.498	497.8	repeat	Run3	repeat/STIM_008.jpg	99
2457.69	0.731	731.1	repeat	Run3	repeat/STIM_008.jpg	99
2461.554	1.07	1069.9	repeat	Run3	repeat/STIM_008.jpg	99
2464.951	0.689	689.0	repeat	Run3	repeat/STIM_009.jpg	100
2469.409	0.972	971.6	repeat	Run3	repeat/STIM_009.jpg	100
2472.291	1.176	1176.3	repeat	Run3	repeat/STIM_009.jpg	100
2475.944	0.902	902.0	repeat	Run3	repeat/STIM_009.jpg	99
2479.454	0.749	748.8	repeat	Run3	repeat/STIM_009.jpg	99
2483.689	0.699	699.4	repeat	Run3	repeat/STIM_010.jpg	99
2487.258	0.702	701.7	repeat	Run3	repeat/STIM_010.jpg	100
2491.178	1.066	1065.7	repeat	Run3	repeat/STIM_010.jpg	100
2494.108	0.784	783.8	repeat	Run3	repeat/STIM_010.jpg	100
2498.725	1.056	1056.4	repeat	Run3	repeat/STIM_010.jpg	100
2502.05	0.595	595.0	repeat	Run3	repeat/STIM_011.jpg	100
2505.512	0.926	925.5	repeat	Run3	repeat/STIM_011.jpg	100
2509.026	0.78	779.5	repeat	Run3	repeat/STIM_011.jpg	100
2511.844	1.138	1137.7	repeat	Run3	repeat/STIM_011.jpg	100
2516.329	0.754	753.5	repeat	Run3	repeat/STIM_011.jpg	100
2520.788	0.868	867.5	repeat	Run3	repeat/STIM_012.jpg	99
2524.678	0.809	809.0	repeat	Run3	repeat/STIM_012.jpg	99
2528.263	0.555	555.1	repeat	Run3	repeat/STIM_012.jpg	99
2531.279	1.175	1175.0	repeat	Run3	repeat/STIM_012.jpg	100
2536.054	0.911	910.7	repeat	Run3	repeat/STIM_012.jpg	100
2539.057	1.098	1098.3	repeat	Run3	repeat/STIM_013.jpg	99
2543.666	0.915	915.3	repeat	Run3	repeat/STIM_013.jpg	99
2547.133	0.849	849.3	repeat	Run3	repeat/STIM_013.jpg	99
2550.542	1.078	1077.7	repeat	Run3	repeat/STIM_013.jpg	100
2555.342	0.804	804.4	repeat	Run3	repeat/STIM_013.jpg	99
2558.507	1.138	1138.1	repeat	Run3	repeat/STIM_014.jpg	99
2561.735	0.69	690.3	repeat	Run3	repeat/STIM_014.jpg	99
2565.96	0.556	556.2	repeat	Run3	repeat/STIM_014.jpg	99
2569.898	0.718	717.6	repeat	Run3	repeat/STIM_014.jpg	99
2574.46	0.9	899.9	repeat	Run3	repeat/STIM_014.jpg	99
2578.893	1.242	1242.2	generate	Run4	generate/STIM_000.jpg	100
2582.739	2.1	2100.0	generate	Run4	generate/STIM_000.jpg	100
2586.61	1.903	1903.0	generate	Run4	generate/STIM_000.jpg	99
2590.909	2.179	2179.3	generate	Run4	generate/STIM_000.jpg	99
2596.343	1.682	1682.2	generate	Run4	generate/STIM_000.jpg	99
2601.24	1.91	1910.5	generate	Run4	generate/STIM_001.jpg	99
2605.804	1.554	1554.1	generate	Run4	generate/STIM_001.jpg	100
2609.16	2.126	2126.4	generate	Run4	generate/STIM_001.jpg	99
2613.157	1.598	1598.4	generate	Run4	generate/STIM_001.jpg	100
2617.393	2.139	2139.1	generate	Run4	generate/STIM_001.jpg	100
2623.274	1.654	1653.6	generate	Run4	generate/STIM_002.jpg	100
2628.473	2.359	2359.1	generate	Run4	generate/STIM_002.jpg	99
2633.102	2.393	2393.3	generate	Run4	generate/STIM_002.jpg	99
2638.226	1.47	1470.0	generate	Run4	generate/STIM_002.jpg	100
2643.169	1.73	1730.0	generate	Run4	generate/STIM_002.jpg	99
2647.784	1.444	1444.5	generate	Run4	generate/STIM_003.jpg	99
2652.135	1.668	1668.2	generate	Run4	generate/STIM_003.jpg	99
2657.379	2.077	2076.9	generate	Run4	generate/STIM_003.jpg	99
2662.137	1.472	1471.7	generate	Run4	generate/STIM_003.jpg	100
2666.244	1.708	1707.7	generate	Run4	generate/STIM_003.jpg	100
2670.228	1.587	1587.4	generate	Run4	generate/STIM_004.jpg	99
2674.491	2.375	2375.4	generate	Run4	generate/STIM_004.jpg	100
2679.855	1.764	1764.0	generate	Run4	generate/STIM_004.jpg	100
2685.063	1.362	1361.8	generate	Run4	generate/STIM_004.jpg	100
2690.194	2.104	2103.5	generate	Run4	generate/STIM_004.jpg	99
2694.686	1.629	1629.3	generate	Run4	generate/STIM_005.jpg	100
2699.168	2.314	2313.8	generate	Run4	generate/STIM_005.jpg	99
2705.093	1.097	1096.6	generate	Run4	generate/STIM_005.jpg	100
2709.941	1.939	1939.2	generate	Run4	generate/STIM_005.jpg	99
2714.24	1.539	1539.4	generate	Run4	generate/STIM_005.jpg	99
2719.451	1.243	1242.7	generate	Run4	generate/STIM_006.jpg	100
2723.484	1.094	1094.0	generate	Run4	generate/STIM_006.jpg	99
2726.754	1.175	1175.1	generate	Run4	generate/STIM_006.jpg	99
2730.799	1.611	1610.6	generate	Run4	generate/STIM_006.jpg	99
2735.408	1.278	1277.7	generate	Run4	generate/STIM_006.jpg	99
2739.12	1.546	1546.0	generate	Run4	generate/STIM_007.jpg	100
2743.299	1.229	1228.6	generate	Run4	generate/STIM_007.jpg	100
2747.13	1.637	1637.4	generate	Run4	generate/STIM_007.jpg	99
2751.013	1.683	1683.2	generate	Run4	generate/STIM_007.jpg	100
2755.84	1.115	1115.1	generate	Run4	generate/STIM_007.jpg	99
2759.225	1.94	1939.7	generate	Run4	generate/STIM_008.jpg	99
2763.931	1.182	1181.8	generate	Run4	generate/STIM_008.jpg	99
2768.391	1.473	1473.3	generate	Run4	generate/STIM_008.jpg	99
2771.777	2.018	2018.0	generate	Run4	generate/STIM_008.jpg	100
2776.509	1.468	1468.1	generate	Run4	generate/STIM_008.jpg	99
2780.686	1.698	1697.8	generate	Run4	generate/STIM_009.jpg	99
2785.576	1.818	1817.9	generate	Run4	generate/STIM_009.jpg	99
2789.694	2.078	2077.6	generate	Run4	generate/STIM_009.jpg	99
2795.36	1.135	1134.6	generate	Run4	generate/STIM_009.jpg	99
2800.161	1.948	1948.1	generate	Run4	generate/STIM_009.jpg	100
2804.695	1.617	1616.6	generate	Run4	generate/STIM_010.jpg	100
2808.507	1.212	1211.7	generate	Run4	generate/STIM_010.jpg	99
2812.251	1.481	1480.6	generate	Run4	generate/STIM_010.jpg	99
2817.571	2.13	2130.5	generate	Run4	generate/STIM_010.jpg	100
2822.396	1.755	1754.9	generate	Run4	generate/STIM_010.jpg	99
2826.759	2.126	2125.8	generate	Run4	generate/STIM_011.jpg	100
2832.213	1.51	1510.2	generate	Run4	generate/STIM_011.jpg	100
2836.898	1.277	1276.6	generate	Run4	generate/STIM_011.jpg	100
2840.955	1.034	1033.6	generate	Run4	generate/STIM_011.jpg	99
2845.814	2.189	2189.0	generate	Run4	generate/STIM_011.jpg	100
2851.585	1.449	1449.4	generate	Run4	generate/STIM_012.jpg	100
2854.838	1.964	1964.3	generate	Run4	generate/STIM_012.jpg	100
2860.067	1.855	1854.9	generate	Run4	generate/STIM_012.jpg	100
2865.343	1.846	1845.8	generate	Run4	generate/STIM_012.jpg	99
2869.461	1.595	1595.1	generate	Run4	generate/STIM_012.jpg	100
2874.367	1.8	1799.8	generate	Run4	generate/STIM_013.jpg	99
2879.885	2.346	2346.1	generate	Run4	generate/STIM_013.jpg	100
2885.005	1.901	1901.4	generate	Run4	generate/STIM_013.jpg	99
2890.321	1.945	1944.7	generate	Run4	generate/STIM_013.jpg	100
2894.248	1.327	1326.8	generate	Run4	generate/STIM_013.jpg	99
2897.609	1.941	1940.6	generate	Run4	generate/STIM_014.jpg	100
2902.589	2.32	2319.6	generate	Run4	generate/STIM_014.jpg	99
2906.705	1.525	1525.1	generate	Run4	generate/STIM_014.jpg	100
2911.646	2.353	2353.1	generate	Run4	generate/STIM_014.jpg	100
2916.096	2.115	2115.2	generate	Run4	generate/STIM_014.jpg	100
2920.371	1.451	1450.8	generate	Run4	generate/STIM_015.jpg	99
2925.313	1.413	1412.6	generate	Run4	generate/STIM_015.jpg	100
2928.483	2.016	2015.6	generate	Run4	generate/STIM_015.jpg	100
2932.279	1.778	1778.2	generate	Run4	generate/STIM_015.jpg	100
2935.93	1.602	1601.5	generate	Run4	generate/STIM_015.jpg	99
2939.544	2.308	2308.5	generate	Run4	generate/STIM_016.jpg	99
2945.581	2.31	2309.5	generate	Run4	generate/STIM_016.jpg	100
2949.905	1.629	1628.8	generate	Run4	generate/STIM_016.jpg	100
2954.988	1.984	1983.6	generate	Run4	generate/STIM_016.jpg	100
2959.525	1.536	1535.5	generate	Run4	generate/STIM_016.jpg	100
2963.811	0.939	938.6	generate	Run4	generate/STIM_017.jpg	100
2968.354	2.127	2126.6	generate	Run4	generate/STIM_017.jpg	100
2974.143	1.243	1243.2	generate	Run4	generate/STIM_017.jpg	100
2977.216	1.134	1134.2	generate	Run4	generate/STIM_017.jpg	100
2980.989	1.172	1172.0	generate	Run4	generate/STIM_017.jpg	99
2985.864	2.417	2417.1	generate	Run4	generate/STIM_018.jpg	100
2991.52	2.437	2437.2	generate	Run4	generate/STIM_018.jpg	100
2997.127	1.672	1671.9	generate	Run4	generate/STIM_018.jpg	100
3001.177	1.532	1532.4	generate	Run4	generate/STIM_018.jpg	100
3005.562	1.904	1903.8	generate	Run4	generate/STIM_018.jpg	100
3009.679	1.765	1765.3	generate	Run4	generate/STIM_019.jpg	99
3013.645	1.764	1763.6	generate	Run4	generate/STIM_019.jpg	99
3017.282	1.404	1404.1	generate	Run4	generate/STIM_019.jpg	100
3021.699	1.095	1094.9	generate	Run4	generate/STIM_019.jpg	100
3024.842	1.961	1961.1	generate	Run4	generate/STIM_019.jpg	99
3028.752	1.249	1249.4	generate	Run4	generate/STIM_020.jpg	100
3032.742	1.693	1692.8	generate	Run4	generate/STIM_020.jpg	100
3036.369	1.865	1864.8	generate	Run4	generate/STIM_020.jpg	100
3040.542	1.24	1240.3	generate	Run4	generate/STIM_020.jpg	100
3044.16	1.75	1750.0	generate	Run4	generate/STIM_020.jpg	100
3048.018	2.478	2477.8	generate	Run4	generate/STIM_021.jpg	100
3053.416	1.313	1313.0	generate	Run4	generate/STIM_021.jpg	99
3056.812	1.537	1537.1	generate	Run4	generate/STIM_021.jpg	99
3060.696	1.797	1796.6	generate	Run4	generate/STIM_021.jpg	99
3065.014	1.452	1452.5	generate	Run4	generate/STIM_021.jpg	99
3069.853	1.17	1170.5	generate	Run4	generate/STIM_022.jpg	100
3074.241	1.758	1757.8	generate	Run4	generate/STIM_022.jpg	99
3079.238	1.993	1993.4	generate	Run4	generate/STIM_022.jpg	99
3083.967	1.583	1582.7	generate	Run4	generate/STIM_022.jpg	99
3087.272	1.203	1203.0	generate	Run4	generate/STIM_022.jpg	99
3090.968	1.432	1431.9	generate	Run4	generate/STIM_023.jpg	100
3094.267	2.005	2004.5	generate	Run4	generate/STIM_023.jpg	99
3098.39	1.207	1206.8	generate	Run4	generate/STIM_023.jpg	100
3103.157	1.276	1276.3	generate	Run4	generate/STIM_023.jpg	100
3106.483	1.215	1214.8	generate	Run4	generate/STIM_023.jpg	100
3111.048	1.301	1301.3	generate	Run4	generate/STIM_024.jpg	100
3114.562	1.325	1324.6	generate	Run4	generate/STIM_024.jpg	100
3119.364	1.603	1602.9	generate	Run4	generate/STIM_024.jpg	99
3123.558	1.264	1263.8	generate	Run4	generate/STIM_024.jpg	99
3127.899	2.123	2123.1	generate	Run4	generate/STIM_024.jpg	100
3133.049	0.807	807.3	repeat	Run4	repeat/STIM_000.jpg	100
3135.845	0.63	630.5	repeat	Run4	repeat/STIM_000.jpg	99
3139.666	0.72	719.8	repeat	Run4	repeat/STIM_000.jpg	100
3143.675	1.133	1132.8	repeat	Run4	repeat/STIM_000.jpg	99
3147.295	1.1	1099.9	repeat	Run4	repeat/STIM_000.jpg	100
3150.546	0.699	698.7	repeat	Run4	repeat/STIM_001.jpg	100
3153.834	0.917	917.3	repeat	Run4	repeat/STIM_001.jpg	99
3157.394	0.618	617.5	repeat	Run4	repeat/STIM_001.jpg	99
3160.121	0.996	995.6	repeat	Run4	repeat/STIM_001.jpg	99
3164.867	1.114	1114.4	repeat	Run4	repeat/STIM_001.jpg	100
3169.429	0.75	750.2	repeat	Run4	repeat/STIM_002.jpg	100
3172.478	0.865	864.6	repeat	Run4	repeat/STIM_002.jpg	100
3175.951	1.048	1047.5	repeat	Run4	repeat/STIM_002.jpg	100
3179.279	0.711	711.4	repeat	Run4	repeat/STIM_002.jpg	100
3183.252	0.601	600.9	repeat	Run4	repeat/STIM_002.jpg	100
3185.867	0.647	647.2	repeat	Run4	repeat/STIM_003.jpg	99
3189.399	0.888	888.5	repeat	Run4	repeat/STIM_003.jpg	99
3192.682	0.564	564.5	repeat	Run4	repeat/STIM_003.jpg	99
3195.968	0.954	953.5	repeat	Run4	repeat/STIM_003.jpg	99
3198.733	0.979	978.9	repeat	Run4	repeat/STIM_003.jpg	99
3201.854	1.0	999.6	repeat	Run4	repeat/STIM_004.jpg	100
3205.633	1.12	1120.4	repeat	Run4	repeat/STIM_004.jpg	99
3209.15	0.795	795.1	repeat	Run4	repeat/STIM_004.jpg	99
3213.747	0.869	868.9	repeat	Run4	repeat/STIM_004.jpg	99
3217.73	0.625	624.9	repeat	Run4	repeat/STIM_004.jpg	99
3220.729	0.79	790.1	repeat	Run4	repeat/STIM_005.jpg	100
3223.474	1.05	1049.5	repeat	Run4	repeat/STIM_005.jpg	99
3227.082	0.984	984.5	repeat	Run4	repeat/STIM_005.jpg	100
3231.038	0.899	899.2	repeat	Run4	repeat/STIM_005.jpg	100
3235.217	0.67	670.5	repeat	Run4	repeat/STIM_005.jpg	100
3238.66	1.192	1191.7	repeat	Run4	repeat/STIM_006.jpg	99
3242.967	0.778	777.6	repeat	Run4	repeat/STIM_006.jpg	100
3247.274	0.877	877.2	repeat	Run4	repeat/STIM_006.jpg	100
3250.12	1.062	1062.0	repeat	Run4	repeat/STIM_006.jpg	100
3253.317	0.79	790.3	repeat	Run4	repeat/STIM_006.jpg	100
3256.643	0.819	818.8	repeat	Run4	repeat/STIM_007.jpg	100
3261.188	0.838	837.6	repeat	Run4	repeat/STIM_007.jpg	99
3265.484	0.849	849.3	repeat	Run4	repeat/STIM_007.jpg	100
3269.809	0.984	983.7	repeat	Run4	repeat/STIM_007.jpg	99
3273.626	0.805	805.1	repeat	Run4	repeat/STIM_007.jpg	99
3276.978	0.63	629.9	repeat	Run4	repeat/STIM_008.jpg	99
3279.923	0.616	616.0	repeat	Run4	repeat/STIM_008.jpg	99
3284.405	0.972	972.1	repeat	Run4	repeat/STIM_008.jpg	100
3288.591	1.0	1000.5	repeat	Run4	repeat/STIM_008.jpg	99
3291.632	0.571	570.8	repeat	Run4	repeat/STIM_008.jpg	100
3294.849	0.892	891.6	repeat	Run4	repeat/STIM_009.jpg	99
3299.38	0.815	814.8	repeat	Run4	repeat/STIM_009.jpg	100
3303.807	1.087	1086.6	repeat	Run4	repeat/STIM_009.jpg	100
3308.676	0.617	616.8	repeat	Run4	repeat/STIM_009.jpg	100
3312.345	1.104	1104.1	repeat	Run4	repeat/STIM_009.jpg	99
3315.887	0.826	825.6	repeat	Run4	repeat/STIM_010.jpg	100
3320.086	0.898	898.4	repeat	Run4	repeat/STIM_010.jpg	99
3324.958	1.078	1077.5	repeat	Run4	repeat/STIM_010.jpg	100
3328.531	0.834	833.6	repeat	Run4	repeat/STIM_010.jpg	100
3331.235	0.643	643.0	repeat	Run4	repeat/STIM_010.jpg	100
3334.677	0.64	640.4	repeat	Run4	repeat/STIM_011.jpg	99
3338.944	1.21	1210.4	repeat	Run4	repeat/STIM_011.jpg	100
3342.688	0.665	665.4	repeat	Run4	repeat/STIM_011.jpg	99
3347.26	0.902	902.1	repeat	Run4	repeat/STIM_011.jpg	100
3350.024	0.761	760.6	repeat	Run4	repeat/STIM_011.jpg	99
3353.064	0.852	852.5	repeat	Run4	repeat/STIM_012.jpg	99
3356.42	0.972	971.9	repeat	Run4	repeat/STIM_012.jpg	100
3359.985	1.227	1227.1	repeat	Run4	repeat/STIM_012.jpg	99
3364.484	0.494	493.5	repeat	Run4	repeat/STIM_012.jpg	100
3367.27	0.731	730.9	repeat	Run4	repeat/STIM_012.jpg	100
3371.775	0.752	752.1	repeat	Run4	repeat/STIM_013.jpg	99
3376.052	1.018	1018.1	repeat	Run4	repeat/STIM_013.jpg	100
3380.066	1.149	1149.0	repeat	Run4	repeat/STIM_013.jpg	100
3384.443	0.943	943.1	repeat	Run4	repeat/STIM_013.jpg	99
3387.689	1.073	1072.9	repeat	Run4	repeat/STIM_013.jpg	100
3390.797	0.727	726.8	repeat	Run4	repeat/STIM_014.jpg	99
3394.751	1.183	1183.1	repeat	Run4	repeat/STIM_014.jpg	99
3398.391	0.833	832.7	repeat	Run4	repeat/STIM_014.jpg	100
3401.401	1.074	1074.0	repeat	Run4	repeat/STIM_014.jpg	99
3405.447	0.815	814.8	repeat	Run4	repeat/STIM_014.jpg	100
