onset	duration	accuracy_binary	trial_type	learning_stage	stimulus
0.0	3.552	0	generate	Run1	generate/STIM_000.jpg
6.71	1.43	1	generate	Run1	generate/STIM_000.jpg
11.599	2.632	1	generate	Run1	generate/STIM_000.jpg
16.815	1.907	1	generate	Run1	generate/STIM_000.jpg
20.862	2.366	1	generate	Run1	generate/STIM_000.jpg
26.624	3.36	1	generate	Run1	generate/STIM_001.jpg
32.258	2.209	1	generate	Run1	generate/STIM_001.jpg
36.645	2.498	0	generate	Run1	generate/STIM_001.jpg
42.438	1.28	1	generate	Run1	generate/STIM_001.jpg
46.943	1.973	0	generate	Run1	generate/STIM_001.jpg
50.934	2.826	0	generate	Run1	generate/STIM_002.jpg
55.733	1.545	0	generate	Run1	generate/STIM_002.jpg
59.934	1.25	1	generate	Run1	generate/STIM_002.jpg
63.822	2.084	1	generate	Run1	generate/STIM_002.jpg
69.61	2.22	1	generate	Run1	generate/STIM_002.jpg
73.846	1.8	1	generate	Run1	generate/STIM_003.jpg
78.196	2.45	1	generate	Run1	generate/STIM_003.jpg
83.173	2.01	1	generate	Run1	generate/STIM_003.jpg
87.611	2.785	0	generate	Run1	generate/STIM_003.jpg
93.909	2.34	0	generate	Run1	generate/STIM_003.jpg
98.68	2.972	1	generate	Run1	generate/STIM_004.jpg
103.303	2.679	1	generate	Run1	generate/STIM_004.jpg
107.656	1.827	1	generate	Run1	generate/STIM_004.jpg
113.1	1.573	1	generate	Run1	generate/STIM_004.jpg
118.452	1.497	1	generate	Run1	generate/STIM_004.jpg
122.824	3.114	1	generate	Run1	generate/STIM_005.jpg
127.634	2.52	1	generate	Run1	generate/STIM_005.jpg
131.962	2.854	0	generate	Run1	generate/STIM_005.jpg
137.028	2.718	1	generate	Run1	generate/STIM_005.jpg
143.244	1.657	1	generate	Run1	generate/STIM_005.jpg
146.708	2.836	1	generate	Run1	generate/STIM_006.jpg
151.709	1.34	0	generate	Run1	generate/STIM_006.jpg
154.907	1.523	1	generate	Run1	generate/STIM_006.jpg
158.617	2.692	1	generate	Run1	generate/STIM_006.jpg
163.899	1.342	0	generate	Run1	generate/STIM_006.jpg
167.803	1.611	1	generate	Run1	generate/STIM_007.jpg
172.406	1.568	1	generate	Run1	generate/STIM_007.jpg
177.114	2.993	1	generate	Run1	generate/STIM_007.jpg
182.264	1.818	1	generate	Run1	generate/STIM_007.jpg
186.83	1.974	1	generate	Run1	generate/STIM_007.jpg
191.229	3.368	1	generate	Run1	generate/STIM_008.jpg
196.955	2.198	0	generate	Run1	generate/STIM_008.jpg
202.221	2.788	1	generate	Run1	generate/STIM_008.jpg
207.424	2.323	1	generate	Run1	generate/STIM_008.jpg
213.094	2.38	0	generate	Run1	generate/STIM_008.jpg
217.567	2.73	1	generate	Run1	generate/STIM_009.jpg
223.238	1.384	1	generate	Run1	generate/STIM_009.jpg
227.604	2.093	1	generate	Run1	generate/STIM_009.jpg
232.419	1.336	1	generate	Run1	generate/STIM_009.jpg
237.455	1.42	1	generate	Run1	generate/STIM_009.jpg
242.147	1.798	1	generate	Run1	generate/STIM_010.jpg
247.134	1.557	1	generate	Run1	generate/STIM_010.jpg
252.074	2.723	1	generate	Run1	generate/STIM_010.jpg
257.841	2.244	1	generate	Run1	generate/STIM_010.jpg
262.151	1.236	1	generate	Run1	generate/STIM_010.jpg
265.754	3.042	1	generate	Run1	generate/STIM_011.jpg
271.719	2.246	1	generate	Run1	generate/STIM_011.jpg
275.94	2.651	1	generate	Run1	generate/STIM_011.jpg
281.316	2.102	1	generate	Run1	generate/STIM_011.jpg
285.638	2.438	1	generate	Run1	generate/STIM_011.jpg
290.523	2.907	1	generate	Run1	generate/STIM_012.jpg
295.4	1.764	1	generate	Run1	generate/STIM_012.jpg
300.14	2.237	1	generate	Run1	generate/STIM_012.jpg
305.277	2.152	0	generate	Run1	generate/STIM_012.jpg
309.946	1.49	1	generate	Run1	generate/STIM_012.jpg
313.907	2.531	1	generate	Run1	generate/STIM_013.jpg
318.602	2.458	1	generate	Run1	generate/STIM_013.jpg
323.469	1.206	1	generate	Run1	generate/STIM_013.jpg
327.676	2.367	1	generate	Run1	generate/STIM_013.jpg
333.684	2.223	1	generate	Run1	generate/STIM_013.jpg
339.225	2.388	1	generate	Run1	generate/STIM_014.jpg
343.867	2.028	1	generate	Run1	generate/STIM_014.jpg
349.627	1.84	1	generate	Run1	generate/STIM_014.jpg
353.712	2.304	1	generate	Run1	generate/STIM_014.jpg
358.287	2.641	1	generate	Run1	generate/STIM_014.jpg
363.216	2.388	1	generate	Run1	generate/STIM_015.jpg
368.74	2.737	1	generate	Run1	generate/STIM_015.jpg
374.701	1.988	1	generate	Run1	generate/STIM_015.jpg
379.108	1.552	1	generate	Run1	generate/STIM_015.jpg
383.264	2.612	1	generate	Run1	generate/STIM_015.jpg
388.664	3.436	0	generate	Run1	generate/STIM_016.jpg
393.969	3.012	0	generate	Run1	generate/STIM_016.jpg
399.448	1.304	1	generate	Run1	generate/STIM_016.jpg
404.257	2.009	1	generate	Run1	generate/STIM_016.jpg
409.894	2.126	1	generate	Run1	generate/STIM_016.jpg
414.466	1.49	1	generate	Run1	generate/STIM_017.jpg
418.019	1.52	1	generate	Run1	generate/STIM_017.jpg
422.427	2.752	0	generate	Run1	generate/STIM_017.jpg
428.084	1.525	1	generate	Run1	generate/STIM_017.jpg
431.703	1.226	1	generate	Run1	generate/STIM_017.jpg
436.125	3.429	1	generate	Run1	generate/STIM_018.jpg
443.041	2.316	1	generate	Run1	generate/STIM_018.jpg
447.179	2.666	1	generate	Run1	generate/STIM_018.jpg
452.486	2.186	1	generate	Run1	generate/STIM_018.jpg
457.476	1.692	0	generate	Run1	generate/STIM_018.jpg
462.313	2.598	0	generate	Run1	generate/STIM_019.jpg
468.219	3.208	1	generate	Run1	generate/STIM_019.jpg
473.704	2.286	1	generate	Run1	generate/STIM_019.jpg
477.815	2.51	1	generate	Run1	generate/STIM_019.jpg
482.047	2.593	1	generate	Run1	generate/STIM_019.jpg
488.141	2.355	0	generate	Run1	generate/STIM_020.jpg
493.085	2.818	1	generate	Run1	generate/STIM_020.jpg
498.785	1.659	0	generate	Run1	generate/STIM_020.jpg
503.575	1.961	1	generate	Run1	generate/STIM_020.jpg
509.218	1.143	0	generate	Run1	generate/STIM_020.jpg
513.254	3.136	0	generate	Run1	generate/STIM_021.jpg
519.542	1.86	1	generate	Run1	generate/STIM_021.jpg
524.901	2.151	1	generate	Run1	generate/STIM_021.jpg
529.576	1.835	1	generate	Run1	generate/STIM_021.jpg
534.738	1.77	1	generate	Run1	generate/STIM_021.jpg
539.707	2.566	1	generate	Run1	generate/STIM_022.jpg
544.724	2.312	1	generate	Run1	generate/STIM_022.jpg
550.133	2.772	0	generate	Run1	generate/STIM_022.jpg
555.346	1.23	1	generate	Run1	generate/STIM_022.jpg
560.37	2.434	0	generate	Run1	generate/STIM_022.jpg
565.392	2.315	1	generate	Run1	generate/STIM_023.jpg
569.808	2.326	1	generate	Run1	generate/STIM_023.jpg
573.777	2.408	1	generate	Run1	generate/STIM_023.jpg
578.081	1.223	1	generate	Run1	generate/STIM_023.jpg
583.032	2.197	0	generate	Run1	generate/STIM_023.jpg
587.526	2.557	1	generate	Run1	generate/STIM_024.jpg
593.613	1.945	1	generate	Run1	generate/STIM_024.jpg
598.913	2.825	0	generate	Run1	generate/STIM_024.jpg
605.094	2.065	1	generate	Run1	generate/STIM_024.jpg
609.376	2.428	1	generate	Run1	generate/STIM_024.jpg
614.393	0.99	1	repeat	Run1	repeat/STIM_000.jpg
617.847	0.791	1	repeat	Run1	repeat/STIM_000.jpg
620.681	0.686	1	repeat	Run1	repeat/STIM_000.jpg
623.904	0.769	1	repeat	Run1	repeat/STIM_000.jpg
627.312	1.111	1	repeat	Run1	repeat/STIM_000.jpg
631.774	1.113	1	repeat	Run1	repeat/STIM_001.jpg
636.155	1.139	1	repeat	Run1	repeat/STIM_001.jpg
640.869	0.678	1	repeat	Run1	repeat/STIM_001.jpg
645.324	1.132	1	repeat	Run1	repeat/STIM_001.jpg
649.725	0.815	1	repeat	Run1	repeat/STIM_001.jpg
652.6	0.911	1	repeat	Run1	repeat/STIM_002.jpg
655.859	0.605	1	repeat	Run1	repeat/STIM_002.jpg
659.194	0.662	1	repeat	Run1	repeat/STIM_002.jpg
663.089	0.918	1	repeat	Run1	repeat/STIM_002.jpg
667.105	0.963	1	repeat	Run1	repeat/STIM_002.jpg
670.099	0.668	1	repeat	Run1	repeat/STIM_003.jpg
672.728	1.068	1	repeat	Run1	repeat/STIM_003.jpg
676.995	0.591	1	repeat	Run1	repeat/STIM_003.jpg
679.595	0.773	1	repeat	Run1	repeat/STIM_003.jpg
683.363	0.995	1	repeat	Run1	repeat/STIM_003.jpg
686.507	1.094	1	repeat	Run1	repeat/STIM_004.jpg
690.747	0.762	1	repeat	Run1	repeat/STIM_004.jpg
694.974	0.536	1	repeat	Run1	repeat/STIM_004.jpg
697.946	0.812	1	repeat	Run1	repeat/STIM_004.jpg
702.396	1.134	1	repeat	Run1	repeat/STIM_004.jpg
705.728	0.869	1	repeat	Run1	repeat/STIM_005.jpg
709.51	1.122	1	repeat	Run1	repeat/STIM_005.jpg
712.873	0.772	1	repeat	Run1	repeat/STIM_005.jpg
715.776	0.909	1	repeat	Run1	repeat/STIM_005.jpg
720.156	0.604	1	repeat	Run1	repeat/STIM_005.jpg
724.337	1.11	1	repeat	Run1	repeat/STIM_006.jpg
727.859	0.753	1	repeat	Run1	repeat/STIM_006.jpg
730.63	0.618	1	repeat	Run1	repeat/STIM_006.jpg
734.831	0.616	1	repeat	Run1	repeat/STIM_006.jpg
737.447	0.947	1	repeat	Run1	repeat/STIM_006.jpg
741.122	1.064	1	repeat	Run1	repeat/STIM_007.jpg
745.835	0.951	1	repeat	Run1	repeat/STIM_007.jpg
749.633	0.762	1	repeat	Run1	repeat/STIM_007.jpg
752.85	1.173	1	repeat	Run1	repeat/STIM_007.jpg
756.412	0.9	1	repeat	Run1	repeat/STIM_007.jpg
760.88	0.739	1	repeat	Run1	repeat/STIM_008.jpg
764.114	1.095	1	repeat	Run1	repeat/STIM_008.jpg
768.872	0.992	1	repeat	Run1	repeat/STIM_008.jpg
772.947	0.602	1	repeat	Run1	repeat/STIM_008.jpg
776.54	0.727	1	repeat	Run1	repeat/STIM_008.jpg
780.162	0.93	1	repeat	Run1	repeat/STIM_009.jpg
783.077	0.958	1	repeat	Run1	repeat/STIM_009.jpg
787.23	0.893	1	repeat	Run1	repeat/STIM_009.jpg
790.865	0.864	1	repeat	Run1	repeat/STIM_009.jpg
794.739	0.81	1	repeat	Run1	repeat/STIM_009.jpg
797.639	0.668	1	repeat	Run1	repeat/STIM_010.jpg
801.652	0.565	1	repeat	Run1	repeat/STIM_010.jpg
805.463	0.795	1	repeat	Run1	repeat/STIM_010.jpg
809.049	1.131	1	repeat	Run1	repeat/STIM_010.jpg
812.091	1.055	1	repeat	Run1	repeat/STIM_010.jpg
816.864	0.884	1	repeat	Run1	repeat/STIM_011.jpg
821.621	0.756	1	repeat	Run1	repeat/STIM_011.jpg
824.397	0.654	1	repeat	Run1	repeat/STIM_011.jpg
828.155	0.579	1	repeat	Run1	repeat/STIM_011.jpg
831.528	1.046	1	repeat	Run1	repeat/STIM_011.jpg
835.02	1.075	1	repeat	Run1	repeat/STIM_012.jpg
838.723	1.041	1	repeat	Run1	repeat/STIM_012.jpg
842.857	0.951	1	repeat	Run1	repeat/STIM_012.jpg
846.819	0.578	1	repeat	Run1	repeat/STIM_012.jpg
851.235	0.823	1	repeat	Run1	repeat/STIM_012.jpg
855.498	0.91	1	repeat	Run1	repeat/STIM_013.jpg
859.283	1.093	1	repeat	Run1	repeat/STIM_013.jpg
862.518	0.643	1	repeat	Run1	repeat/STIM_013.jpg
867.095	0.647	1	repeat	Run1	repeat/STIM_013.jpg
869.745	0.751	1	repeat	Run1	repeat/STIM_013.jpg
872.427	0.696	0	repeat	Run1	repeat/STIM_014.jpg
876.472	0.822	0	repeat	Run1	repeat/STIM_014.jpg
880.32	0.678	1	repeat	Run1	repeat/STIM_014.jpg
883.574	0.691	0	repeat	Run1	repeat/STIM_014.jpg
886.21	1.06	1	repeat	Run1	repeat/STIM_014.jpg
889.322	2.485	1	generate	Run2	generate/STIM_000.jpg
894.022	1.598	1	generate	Run2	generate/STIM_000.jpg
897.797	2.216	1	generate	Run2	generate/STIM_000.jpg
902.545	0.961	1	generate	Run2	generate/STIM_000.jpg
906.107	1.53	1	generate	Run2	generate/STIM_000.jpg
910.559	2.29	1	generate	Run2	generate/STIM_001.jpg
915.317	1.79	1	generate	Run2	generate/STIM_001.jpg
920.861	1.485	1	generate	Run2	generate/STIM_001.jpg
925.07	1.516	1	generate	Run2	generate/STIM_001.jpg
930.399	1.291	0	generate	Run2	generate/STIM_001.jpg
934.036	1.111	1	generate	Run2	generate/STIM_002.jpg
937.212	1.741	1	generate	Run2	generate/STIM_002.jpg
941.628	1.559	0	generate	Run2	generate/STIM_002.jpg
945.477	1.043	1	generate	Run2	generate/STIM_002.jpg
948.35	2.028	1	generate	Run2	generate/STIM_002.jpg
952.46	1.852	1	generate	Run2	generate/STIM_003.jpg
956.514	1.142	1	generate	Run2	generate/STIM_003.jpg
961.458	2.276	1	generate	Run2	generate/STIM_003.jpg
966.495	1.031	1	generate	Run2	generate/STIM_003.jpg
970.908	1.4	1	generate	Run2	generate/STIM_003.jpg
976.166	1.584	1	generate	Run2	generate/STIM_004.jpg
980.348	1.298	1	generate	Run2	generate/STIM_004.jpg
984.383	2.065	1	generate	Run2	generate/STIM_004.jpg
988.975	2.07	1	generate	Run2	generate/STIM_004.jpg
993.903	1.532	1	generate	Run2	generate/STIM_004.jpg
999.159	1.327	1	generate	Run2	generate/STIM_005.jpg
1003.972	2.472	1	generate	Run2	generate/STIM_005.jpg
1009.278	1.258	1	generate	Run2	generate/STIM_005.jpg
1012.754	1.262	1	generate	Run2	generate/STIM_005.jpg
1017.411	1.172	0	generate	Run2	generate/STIM_005.jpg
1020.782	1.366	1	generate	Run2	generate/STIM_006.jpg
1025.295	2.41	0	generate	Run2	generate/STIM_006.jpg
1030.691	2.202	1	generate	Run2	generate/STIM_006.jpg
1035.59	1.386	1	generate	Run2	generate/STIM_006.jpg
1039.074	2.17	1	generate	Run2	generate/STIM_006.jpg
1044.157	1.633	1	generate	Run2	generate/STIM_007.jpg
1048.88	1.512	1	generate	Run2	generate/STIM_007.jpg
1053.759	1.989	1	generate	Run2	generate/STIM_007.jpg
1057.525	2.375	0	generate	Run2	generate/STIM_007.jpg
1062.861	2.054	1	generate	Run2	generate/STIM_007.jpg
1068.53	2.204	1	generate	Run2	generate/STIM_008.jpg
1074.489	2.249	1	generate	Run2	generate/STIM_008.jpg
1080.151	2.146	1	generate	Run2	generate/STIM_008.jpg
1084.017	1.94	1	generate	Run2	generate/STIM_008.jpg
1089.375	1.028	1	generate	Run2	generate/STIM_008.jpg
1094.175	2.755	1	generate	Run2	generate/STIM_009.jpg
1099.567	1.667	1	generate	Run2	generate/STIM_009.jpg
1103.904	2.263	1	generate	Run2	generate/STIM_009.jpg
1108.414	2.188	1	generate	Run2	generate/STIM_009.jpg
1112.536	1.652	1	generate	Run2	generate/STIM_009.jpg
1117.087	1.648	1	generate	Run2	generate/STIM_010.jpg
1122.373	1.621	1	generate	Run2	generate/STIM_010.jpg
1127.071	2.071	1	generate	Run2	generate/STIM_010.jpg
1131.425	1.534	1	generate	Run2	generate/STIM_010.jpg
1134.747	1.213	0	generate	Run2	generate/STIM_010.jpg
1139.322	2.188	1	generate	Run2	generate/STIM_011.jpg
1144.031	2.476	1	generate	Run2	generate/STIM_011.jpg
1149.451	1.94	1	generate	Run2	generate/STIM_011.jpg
1154.052	1.109	1	generate	Run2	generate/STIM_011.jpg
1158.766	1.246	1	generate	Run2	generate/STIM_011.jpg
1163.681	2.829	1	generate	Run2	generate/STIM_012.jpg
1168.578	1.761	1	generate	Run2	generate/STIM_012.jpg
1173.269	1.472	1	generate	Run2	generate/STIM_012.jpg
1176.843	1.173	0	generate	Run2	generate/STIM_012.jpg
1181.402	2.169	1	generate	Run2	generate/STIM_012.jpg
1187.315	2.643	1	generate	Run2	generate/STIM_013.jpg
1193.198	1.196	1	generate	Run2	generate/STIM_013.jpg
1197.105	1.517	1	generate	Run2	generate/STIM_013.jpg
1201.387	1.19	1	generate	Run2	generate/STIM_013.jpg
1204.625	1.606	1	generate	Run2	generate/STIM_013.jpg
1208.046	2.505	1	generate	Run2	generate/STIM_014.jpg
1212.51	1.922	1	generate	Run2	generate/STIM_014.jpg
1216.968	2.526	1	generate	Run2	generate/STIM_014.jpg
1222.55	2.269	1	generate	Run2	generate/STIM_014.jpg
1227.436	1.818	1	generate	Run2	generate/STIM_014.jpg
1231.927	2.209	1	generate	Run2	generate/STIM_015.jpg
1235.994	1.067	0	generate	Run2	generate/STIM_015.jpg
1239.781	2.421	1	generate	Run2	generate/STIM_015.jpg
1244.619	1.54	1	generate	Run2	generate/STIM_015.jpg
1248.18	0.941	1	generate	Run2	generate/STIM_015.jpg
1252.036	2.544	1	generate	Run2	generate/STIM_016.jpg
1257.081	2.182	1	generate	Run2	generate/STIM_016.jpg
1262.761	2.319	0	generate	Run2	generate/STIM_016.jpg
1267.609	2.47	1	generate	Run2	generate/STIM_016.jpg
1273.144	1.28	1	generate	Run2	generate/STIM_016.jpg
1276.977	2.57	1	generate	Run2	generate/STIM_017.jpg
1281.434	2.561	1	generate	Run2	generate/STIM_017.jpg
1286.544	1.059	1	generate	Run2	generate/STIM_017.jpg
1290.211	1.56	1	generate	Run2	generate/STIM_017.jpg
1295.439	1.107	1	generate	Run2	generate/STIM_017.jpg
1300.176	2.397	0	generate	Run2	generate/STIM_018.jpg
1304.767	2.413	1	generate	Run2	generate/STIM_018.jpg
1310.011	1.982	0	generate	Run2	generate/STIM_018.jpg
1314.209	1.933	0	generate	Run2	generate/STIM_018.jpg
1318.602	1.256	1	generate	Run2	generate/STIM_018.jpg
1322.57	2.33	1	generate	Run2	generate/STIM_019.jpg
1326.647	2.62	1	generate	Run2	generate/STIM_019.jpg
1332.064	1.528	1	generate	Run2	generate/STIM_019.jpg
1336.885	1.255	1	generate	Run2	generate/STIM_019.jpg
1341.098	1.616	1	generate	Run2	generate/STIM_019.jpg
1345.538	2.294	1	generate	Run2	generate/STIM_020.jpg
1349.909	1.453	1	generate	Run2	generate/STIM_020.jpg
1353.485	2.22	0	generate	Run2	generate/STIM_020.jpg
1358.829	1.294	1	generate	Run2	generate/STIM_020.jpg
1363.195	2.124	1	generate	Run2	generate/STIM_020.jpg
1367.262	1.971	0	generate	Run2	generate/STIM_021.jpg
1371.46	2.307	1	generate	Run2	generate/STIM_021.jpg
1376.809	2.216	0	generate	Run2	generate/STIM_021.jpg
1380.781	1.782	1	generate	Run2	generate/STIM_021.jpg
1386.378	2.131	1	generate	Run2	generate/STIM_021.jpg
1390.484	1.814	1	generate	Run2	generate/STIM_022.jpg
1394.284	2.191	1	generate	Run2	generate/STIM_022.jpg
1398.501	2.346	1	generate	Run2	generate/STIM_022.jpg
1403.788	1.613	1	generate	Run2	generate/STIM_022.jpg
1408.421	1.926	1	generate	Run2	generate/STIM_022.jpg
1412.911	1.14	1	generate	Run2	generate/STIM_023.jpg
1416.352	1.704	0	generate	Run2	generate/STIM_023.jpg
1421.075	2.553	1	generate	Run2	generate/STIM_023.jpg
1426.366	2.283	1	generate	Run2	generate/STIM_023.jpg
1430.404	1.223	1	generate	Run2	generate/STIM_023.jpg
1434.628	2.521	1	generate	Run2	generate/STIM_024.jpg
1439.882	2.142	1	generate	Run2	generate/STIM_024.jpg
1445.141	2.368	1	generate	Run2	generate/STIM_024.jpg
1449.85	1.611	1	generate	Run2	generate/STIM_024.jpg
1454.842	1.158	0	generate	Run2	generate/STIM_024.jpg
1458.653	0.819	1	repeat	Run2	repeat/STIM_000.jpg
1462.824	0.696	1	repeat	Run2	repeat/STIM_000.jpg
1466.39	1.053	1	repeat	Run2	repeat/STIM_000.jpg
1471.128	0.91	1	repeat	Run2	repeat/STIM_000.jpg
1475.673	0.832	1	repeat	Run2	repeat/STIM_000.jpg
1479.461	0.598	1	repeat	Run2	repeat/STIM_001.jpg
1482.645	0.843	1	repeat	Run2	repeat/STIM_001.jpg
1486.311	0.955	1	repeat	Run2	repeat/STIM_001.jpg
1489.793	0.852	1	repeat	Run2	repeat/STIM_001.jpg
1493.512	0.912	1	repeat	Run2	repeat/STIM_001.jpg
1498.311	0.558	1	repeat	Run2	repeat/STIM_002.jpg
1502.044	1.063	1	repeat	Run2	repeat/STIM_002.jpg
1506.672	0.618	1	repeat	Run2	repeat/STIM_002.jpg
1510.149	0.971	1	repeat	Run2	repeat/STIM_002.jpg
1513.111	1.039	1	repeat	Run2	repeat/STIM_002.jpg
1517.051	0.897	1	repeat	Run2	repeat/STIM_003.jpg
1520.603	0.762	1	repeat	Run2	repeat/STIM_003.jpg
1525.222	0.579	1	repeat	Run2	repeat/STIM_003.jpg
1529.751	0.813	1	repeat	Run2	repeat/STIM_003.jpg
1533.214	0.64	1	repeat	Run2	repeat/STIM_003.jpg
1537.226	0.827	1	repeat	Run2	repeat/STIM_004.jpg
1541.635	0.683	1	repeat	Run2	repeat/STIM_004.jpg
1546.082	0.692	1	repeat	Run2	repeat/STIM_004.jpg
1549.948	0.581	1	repeat	Run2	repeat/STIM_004.jpg
1553.074	0.857	1	repeat	Run2	repeat/STIM_004.jpg
1556.514	1.014	1	repeat	Run2	repeat/STIM_005.jpg
1559.735	1.022	1	repeat	Run2	repeat/STIM_005.jpg
1564.465	0.799	0	repeat	Run2	repeat/STIM_005.jpg
1568.809	0.965	1	repeat	Run2	repeat/STIM_005.jpg
1573.469	0.951	1	repeat	Run2	repeat/STIM_005.jpg
1577.186	0.92	1	repeat	Run2	repeat/STIM_006.jpg
1581.645	0.836	1	repeat	Run2	repeat/STIM_006.jpg
1585.842	0.942	1	repeat	Run2	repeat/STIM_006.jpg
1589.906	1.1	1	repeat	Run2	repeat/STIM_006.jpg
1594.746	0.779	1	repeat	Run2	repeat/STIM_006.jpg
1597.646	0.969	1	repeat	Run2	repeat/STIM_007.jpg
1602.435	0.681	1	repeat	Run2	repeat/STIM_007.jpg
1605.007	0.847	1	repeat	Run2	repeat/STIM_007.jpg
1609.038	0.82	1	repeat	Run2	repeat/STIM_007.jpg
1611.875	0.768	1	repeat	Run2	repeat/STIM_007.jpg
1616.312	0.844	1	repeat	Run2	repeat/STIM_008.jpg
1619.854	0.735	0	repeat	Run2	repeat/STIM_008.jpg
1622.959	0.948	1	repeat	Run2	repeat/STIM_008.jpg
1626.126	0.546	1	repeat	Run2	repeat/STIM_008.jpg
1630.182	0.929	1	repeat	Run2	repeat/STIM_008.jpg
1634.5	0.813	1	repeat	Run2	repeat/STIM_009.jpg
1638.064	0.885	1	repeat	Run2	repeat/STIM_009.jpg
1642.744	0.645	1	repeat	Run2	repeat/STIM_009.jpg
1646.817	0.998	1	repeat	Run2	repeat/STIM_009.jpg
1649.911	0.808	1	repeat	Run2	repeat/STIM_009.jpg
1652.894	0.599	1	repeat	Run2	repeat/STIM_010.jpg
1655.814	0.975	0	repeat	Run2	repeat/STIM_010.jpg
1660.213	1.133	1	repeat	Run2	repeat/STIM_010.jpg
1663.512	0.648	0	repeat	Run2	repeat/STIM_010.jpg
1667.016	0.641	1	repeat	Run2	repeat/STIM_010.jpg
1669.605	0.644	1	repeat	Run2	repeat/STIM_011.jpg
1673.797	0.944	1	repeat	Run2	repeat/STIM_011.jpg
1677.838	0.622	1	repeat	Run2	repeat/STIM_011.jpg
1680.735	0.593	1	repeat	Run2	repeat/STIM_011.jpg
1685.194	0.905	1	repeat	Run2	repeat/STIM_011.jpg
1688.31	0.866	1	repeat	Run2	repeat/STIM_012.jpg
1692.72	1.191	1	repeat	Run2	repeat/STIM_012.jpg
1696.098	0.983	1	repeat	Run2	repeat/STIM_012.jpg
1699.958	1.102	1	repeat	Run2	repeat/STIM_012.jpg
1703.861	0.809	1	repeat	Run2	repeat/STIM_012.jpg
1706.596	1.054	1	repeat	Run2	repeat/STIM_013.jpg
1710.145	0.993	1	repeat	Run2	repeat/STIM_013.jpg
1713.824	0.753	1	repeat	Run2	repeat/STIM_013.jpg
1716.566	0.844	1	repeat	Run2	repeat/STIM_013.jpg
1720.138	0.528	1	repeat	Run2	repeat/STIM_013.jpg
1723.47	1.138	1	repeat	Run2	repeat/STIM_014.jpg
1727.694	0.852	1	repeat	Run2	repeat/STIM_014.jpg
1731.487	1.059	1	repeat	Run2	repeat/STIM_014.jpg
1734.655	0.773	1	repeat	Run2	repeat/STIM_014.jpg
1737.884	0.742	1	repeat	Run2	repeat/STIM_014.jpg
1740.788	2.279	1	generate	Run3	generate/STIM_000.jpg
1746.421	1.56	1	generate	Run3	generate/STIM_000.jpg
1750.649	1.066	1	generate	Run3	generate/STIM_000.jpg
1753.965	2.264	1	generate	Run3	generate/STIM_000.jpg
1759.526	1.642	1	generate	Run3	generate/STIM_000.jpg
1764.986	1.853	1	generate	Run3	generate/STIM_001.jpg
1768.8	2.38	0	generate	Run3	generate/STIM_001.jpg
1774.433	1.563	1	generate	Run3	generate/STIM_001.jpg
1778.022	1.482	1	generate	Run3	generate/STIM_001.jpg
1781.909	1.493	1	generate	Run3	generate/STIM_001.jpg
1785.458	2.161	1	generate	Run3	generate/STIM_002.jpg
1789.379	1.565	1	generate	Run3	generate/STIM_002.jpg
1793.511	1.38	1	generate	Run3	generate/STIM_002.jpg
1797.658	2.384	1	generate	Run3	generate/STIM_002.jpg
1803.643	2.214	1	generate	Run3	generate/STIM_002.jpg
1808.156	2.158	1	generate	Run3	generate/STIM_003.jpg
1812.402	1.735	1	generate	Run3	generate/STIM_003.jpg
1816.902	2.29	1	generate	Run3	generate/STIM_003.jpg
1821.683	1.386	1	generate	Run3	generate/STIM_003.jpg
1825.864	1.998	1	generate	Run3	generate/STIM_003.jpg
1830.544	2.303	1	generate	Run3	generate/STIM_004.jpg
1835.366	1.667	0	generate	Run3	generate/STIM_004.jpg
1839.012	1.258	1	generate	Run3	generate/STIM_004.jpg
1842.791	1.133	1	generate	Run3	generate/STIM_004.jpg
1846.296	1.641	1	generate	Run3	generate/STIM_004.jpg
1850.184	2.14	1	generate	Run3	generate/STIM_005.jpg
1855.799	1.669	1	generate	Run3	generate/STIM_005.jpg
1861.17	1.175	1	generate	Run3	generate/STIM_005.jpg
1864.203	1.05	1	generate	Run3	generate/STIM_005.jpg
1867.203	1.804	1	generate	Run3	generate/STIM_005.jpg
1871.656	2.256	1	generate	Run3	generate/STIM_006.jpg
1877.0	2.26	1	generate	Run3	generate/STIM_006.jpg
1882.312	1.616	1	generate	Run3	generate/STIM_006.jpg
1886.829	2.154	1	generate	Run3	generate/STIM_006.jpg
1891.493	1.974	1	generate	Run3	generate/STIM_006.jpg
1895.481	1.84	1	generate	Run3	generate/STIM_007.jpg
1899.595	1.248	1	generate	Run3	generate/STIM_007.jpg
1904.116	2.284	1	generate	Run3	generate/STIM_007.jpg
1909.783	1.891	1	generate	Run3	generate/STIM_007.jpg
1915.148	2.308	1	generate	Run3	generate/STIM_007.jpg
1921.009	1.27	1	generate	Run3	generate/STIM_008.jpg
1924.129	2.204	0	generate	Run3	generate/STIM_008.jpg
1929.373	1.702	1	generate	Run3	generate/STIM_008.jpg
1933.035	1.989	1	generate	Run3	generate/STIM_008.jpg
1938.206	1.08	1	generate	Run3	generate/STIM_008.jpg
1943.026	1.397	0	generate	Run3	generate/STIM_009.jpg
1946.872	1.326	1	generate	Run3	generate/STIM_009.jpg
1951.166	1.026	1	generate	Run3	generate/STIM_009.jpg
1955.086	1.492	1	generate	Run3	generate/STIM_009.jpg
1958.789	1.789	1	generate	Run3	generate/STIM_009.jpg
1962.811	1.096	1	generate	Run3	generate/STIM_010.jpg
1966.672	2.325	1	generate	Run3	generate/STIM_010.jpg
1972.633	1.456	1	generate	Run3	generate/STIM_010.jpg
1977.286	1.968	1	generate	Run3	generate/STIM_010.jpg
1980.975	1.175	1	generate	Run3	generate/STIM_010.jpg
1985.623	1.407	1	generate	Run3	generate/STIM_011.jpg
1989.829	2.218	1	generate	Run3	generate/STIM_011.jpg
1994.798	1.817	1	generate	Run3	generate/STIM_011.jpg
1999.56	2.043	1	generate	Run3	generate/STIM_011.jpg
2004.648	2.32	1	generate	Run3	generate/STIM_011.jpg
2010.374	1.275	1	generate	Run3	generate/STIM_012.jpg
2014.476	2.078	1	generate	Run3	generate/STIM_012.jpg
2018.463	1.786	1	generate	Run3	generate/STIM_012.jpg
2023.51	1.931	1	generate	Run3	generate/STIM_012.jpg
2027.415	2.304	1	generate	Run3	generate/STIM_012.jpg
2032.584	0.952	1	generate	Run3	generate/STIM_013.jpg
2036.681	2.175	1	generate	Run3	generate/STIM_013.jpg
2042.158	2.114	1	generate	Run3	generate/STIM_013.jpg
2047.827	0.961	1	generate	Run3	generate/STIM_013.jpg
2052.525	2.294	1	generate	Run3	generate/STIM_013.jpg
2056.666	1.318	1	generate	Run3	generate/STIM_014.jpg
2060.959	1.847	1	generate	Run3	generate/STIM_014.jpg
2065.155	1.231	1	generate	Run3	generate/STIM_014.jpg
2068.661	1.093	1	generate	Run3	generate/STIM_014.jpg
2072.796	2.276	1	generate	Run3	generate/STIM_014.jpg
2078.243	2.063	0	generate	Run3	generate/STIM_015.jpg
2082.161	1.71	1	generate	Run3	generate/STIM_015.jpg
2087.365	1.813	1	generate	Run3	generate/STIM_015.jpg
2091.118	1.136	1	generate	Run3	generate/STIM_015.jpg
2095.165	1.788	1	generate	Run3	generate/STIM_015.jpg
2099.327	1.231	1	generate	Run3	generate/STIM_016.jpg
2104.206	1.57	1	generate	Run3	generate/STIM_016.jpg
2108.183	2.245	1	generate	Run3	generate/STIM_016.jpg
2112.913	1.569	1	generate	Run3	generate/STIM_016.jpg
2117.287	1.139	1	generate	Run3	generate/STIM_016.jpg
2122.024	1.094	1	generate	Run3	generate/STIM_017.jpg
2125.039	2.238	1	generate	Run3	generate/STIM_017.jpg
2129.848	2.476	1	generate	Run3	generate/STIM_017.jpg
2134.257	0.986	1	generate	Run3	generate/STIM_017.jpg
2138.682	1.959	1	generate	Run3	generate/STIM_017.jpg
2142.626	2.249	1	generate	Run3	generate/STIM_018.jpg
2147.074	1.635	1	generate	Run3	generate/STIM_018.jpg
2150.967	1.75	1	generate	Run3	generate/STIM_018.jpg
2155.29	1.047	1	generate	Run3	generate/STIM_018.jpg
2159.037	1.684	1	generate	Run3	generate/STIM_018.jpg
2163.195	0.998	1	generate	Run3	generate/STIM_019.jpg
2166.669	1.148	1	generate	Run3	generate/STIM_019.jpg
2170.368	1.261	1	generate	Run3	generate/STIM_019.jpg
2173.887	1.961	1	generate	Run3	generate/STIM_019.jpg
2179.112	1.715	1	generate	Run3	generate/STIM_019.jpg
2183.234	2.073	1	generate	Run3	generate/STIM_020.jpg
2188.14	2.346	1	generate	Run3	generate/STIM_020.jpg
2192.836	1.295	1	generate	Run3	generate/STIM_020.jpg
2197.671	1.071	1	generate	Run3	generate/STIM_020.jpg
2202.022	1.942	1	generate	Run3	generate/STIM_020.jpg
2207.385	2.004	1	generate	Run3	generate/STIM_021.jpg
2211.542	1.808	1	generate	Run3	generate/STIM_021.jpg
2216.572	1.679	1	generate	Run3	generate/STIM_021.jpg
2221.837	1.194	1	generate	Run3	generate/STIM_021.jpg
2225.336	1.16	1	generate	Run3	generate/STIM_021.jpg
2228.655	1.1	1	generate	Run3	generate/STIM_022.jpg
2231.698	2.146	1	generate	Run3	generate/STIM_022.jpg
2236.956	1.539	1	generate	Run3	generate/STIM_022.jpg
2240.464	2.024	1	generate	Run3	generate/STIM_022.jpg
2244.304	2.056	1	generate	Run3	generate/STIM_022.jpg
2250.119	1.046	0	generate	Run3	generate/STIM_023.jpg
2253.01	2.236	1	generate	Run3	generate/STIM_023.jpg
2257.646	1.218	1	generate	Run3	generate/STIM_023.jpg
2261.285	1.09	1	generate	Run3	generate/STIM_023.jpg
2264.512	1.469	1	generate	Run3	generate/STIM_023.jpg
2268.205	2.256	1	generate	Run3	generate/STIM_024.jpg
2274.195	1.786	1	generate	Run3	generate/STIM_024.jpg
2278.791	1.208	1	generate	Run3	generate/STIM_024.jpg
2283.39	2.266	1	generate	Run3	generate/STIM_024.jpg
2287.915	1.431	1	generate	Run3	generate/STIM_024.jpg
2291.991	0.94	1	repeat	Run3	repeat/STIM_000.jpg
2295.624	0.862	1	repeat	Run3	repeat/STIM_000.jpg
2299.246	0.851	1	repeat	Run3	repeat/STIM_000.jpg
2303.53	0.6	0	repeat	Run3	repeat/STIM_000.jpg
2307.57	0.746	1	repeat	Run3	repeat/STIM_000.jpg
2311.954	0.783	1	repeat	Run3	repeat/STIM_001.jpg
2315.398	0.912	1	repeat	Run3	repeat/STIM_001.jpg
2319.202	0.625	0	repeat	Run3	repeat/STIM_001.jpg
2322.715	0.717	1	repeat	Run3	repeat/STIM_001.jpg
2327.045	1.057	1	repeat	Run3	repeat/STIM_001.jpg
2331.548	0.734	1	repeat	Run3	repeat/STIM_002.jpg
2334.943	0.903	1	repeat	Run3	repeat/STIM_002.jpg
2338.345	1.072	1	repeat	Run3	repeat/STIM_002.jpg
2343.033	0.949	1	repeat	Run3	repeat/STIM_002.jpg
2346.728	0.973	1	repeat	Run3	repeat/STIM_002.jpg
2350.51	1.184	1	repeat	Run3	repeat/STIM_003.jpg
2354.891	0.742	0	repeat	Run3	repeat/STIM_003.jpg
2359.048	0.964	1	repeat	Run3	repeat/STIM_003.jpg
2363.536	1.015	1	repeat	Run3	repeat/STIM_003.jpg
2367.467	1.132	1	repeat	Run3	repeat/STIM_003.jpg
2371.239	0.788	1	repeat	Run3	repeat/STIM_004.jpg
2374.954	0.9	1	repeat	Run3	repeat/STIM_004.jpg
2379.032	1.075	1	repeat	Run3	repeat/STIM_004.jpg
2382.747	0.767	1	repeat	Run3	repeat/STIM_004.jpg
2386.325	0.937	1	repeat	Run3	repeat/STIM_004.jpg
2390.767	1.098	1	repeat	Run3	repeat/STIM_005.jpg
2394.144	0.561	1	repeat	Run3	repeat/STIM_005.jpg
2397.371	0.85	1	repeat	Run3	repeat/STIM_005.jpg
2401.494	0.927	0	repeat	Run3	repeat/STIM_005.jpg
2405.803	0.598	0	repeat	Run3	repeat/STIM_005.jpg
2409.203	0.994	1	repeat	Run3	repeat/STIM_006.jpg
2412.721	0.72	1	repeat	Run3	repeat/STIM_006.jpg
2417.121	1.214	1	repeat	Run3	repeat/STIM_006.jpg
2420.693	1.208	1	repeat	Run3	repeat/STIM_006.jpg
2424.333	0.8	1	repeat	Run3	repeat/STIM_006.jpg
2428.379	0.645	0	repeat	Run3	repeat/STIM_007.jpg
2432.043	1.123	1	repeat	Run3	repeat/STIM_007.jpg
2435.215	0.546	1	repeat	Run3	repeat/STIM_007.jpg
2439.679	0.895	1	repeat	Run3	repeat/STIM_007.jpg
2442.728	1.062	1	repeat	Run3	repeat/STIM_007.jpg
2445.954	0.593	1	repeat	Run3	repeat/STIM_008.jpg
2450.002	0.876	1	repeat	Run3	repeat/STIM_008.jpg
2454.401	0.498	1	repeat	Run3	repeat/STIM_008.jpg
2457.69	0.731	1	repeat	Run3	repeat/STIM_008.jpg
2461.554	1.07	1	repeat	Run3	repeat/STIM_008.jpg
2464.951	0.689	1	repeat	Run3	repeat/STIM_009.jpg
2469.409	0.972	1	repeat	Run3	repeat/STIM_009.jpg
2472.291	1.176	1	repeat	Run3	repeat/STIM_009.jpg
2475.944	0.902	1	repeat	Run3	repeat/STIM_009.jpg
2479.454	0.749	1	repeat	Run3	repeat/STIM_009.jpg
2483.689	0.699	1	repeat	Run3	repeat/STIM_010.jpg
2487.258	0.702	1	repeat	Run3	repeat/STIM_010.jpg
2491.178	1.066	1	repeat	Run3	repeat/STIM_010.jpg
2494.108	0.784	1	repeat	Run3	repeat/STIM_010.jpg
2498.725	1.056	1	repeat	Run3	repeat/STIM_010.jpg
2502.05	0.595	1	repeat	Run3	repeat/STIM_011.jpg
2505.512	0.926	1	repeat	Run3	repeat/STIM_011.jpg
2509.026	0.78	1	repeat	Run3	repeat/STIM_011.jpg
2511.844	1.138	1	repeat	Run3	repeat/STIM_011.jpg
2516.329	0.754	1	repeat	Run3	repeat/STIM_011.jpg
2520.788	0.868	1	repeat	Run3	repeat/STIM_012.jpg
2524.678	0.809	1	repeat	Run3	repeat/STIM_012.jpg
2528.263	0.555	1	repeat	Run3	repeat/STIM_012.jpg
2531.279	1.175	1	repeat	Run3	repeat/STIM_012.jpg
2536.054	0.911	1	repeat	Run3	repeat/STIM_012.jpg
2539.057	1.098	1	repeat	Run3	repeat/STIM_013.jpg
2543.666	0.915	1	repeat	Run3	repeat/STIM_013.jpg
2547.133	0.849	1	repeat	Run3	repeat/STIM_013.jpg
2550.542	1.078	1	repeat	Run3	repeat/STIM_013.jpg
2555.342	0.804	1	repeat	Run3	repeat/STIM_013.jpg
2558.507	1.138	1	repeat	Run3	repeat/STIM_014.jpg
2561.735	0.69	1	repeat	Run3	repeat/STIM_014.jpg
2565.96	0.556	1	repeat	Run3	repeat/STIM_014.jpg
2569.898	0.718	1	repeat	Run3	repeat/STIM_014.jpg
2574.46	0.9	1	repeat	Run3	repeat/STIM_014.jpg
2578.893	1.242	1	generate	Run4	generate/STIM_000.jpg
2582.739	2.1	1	generate	Run4	generate/STIM_000.jpg
2586.61	1.903	1	generate	Run4	generate/STIM_000.jpg
2590.909	2.179	1	generate	Run4	generate/STIM_000.jpg
2596.343	1.682	1	generate	Run4	generate/STIM_000.jpg
2601.24	1.91	1	generate	Run4	generate/STIM_001.jpg
2605.804	1.554	1	generate	Run4	generate/STIM_001.jpg
2609.16	2.126	1	generate	Run4	generate/STIM_001.jpg
2613.157	1.598	1	generate	Run4	generate/STIM_001.jpg
2617.393	2.139	1	generate	Run4	generate/STIM_001.jpg
2623.274	1.654	1	generate	Run4	generate/STIM_002.jpg
2628.473	2.359	1	generate	Run4	generate/STIM_002.jpg
2633.102	2.393	1	generate	Run4	generate/STIM_002.jpg
2638.226	1.47	1	generate	Run4	generate/STIM_002.jpg
2643.169	1.73	1	generate	Run4	generate/STIM_002.jpg
2647.784	1.444	1	generate	Run4	generate/STIM_003.jpg
2652.135	1.668	1	generate	Run4	generate/STIM_003.jpg
2657.379	2.077	1	generate	Run4	generate/STIM_003.jpg
2662.137	1.472	1	generate	Run4	generate/STIM_003.jpg
2666.244	1.708	1	generate	Run4	generate/STIM_003.jpg
2670.228	1.587	1	generate	Run4	generate/STIM_004.jpg
2674.491	2.375	1	generate	Run4	generate/STIM_004.jpg
2679.855	1.764	0	generate	Run4	generate/STIM_004.jpg
2685.063	1.362	1	generate	Run4	generate/STIM_004.jpg
2690.194	2.104	1	generate	Run4	generate/STIM_004.jpg
2694.686	1.629	1	generate	Run4	generate/STIM_005.jpg
2699.168	2.314	1	generate	Run4	generate/STIM_005.jpg
2705.093	1.097	1	generate	Run4	generate/STIM_005.jpg
2709.941	1.939	1	generate	Run4	generate/STIM_005.jpg
2714.24	1.539	1	generate	Run4	generate/STIM_005.jpg
2719.451	1.243	1	generate	Run4	generate/STIM_006.jpg
2723.484	1.094	1	generate	Run4	generate/STIM_006.jpg
2726.754	1.175	1	generate	Run4	generate/STIM_006.jpg
2730.799	1.611	1	generate	Run4	generate/STIM_006.jpg
2735.408	1.278	1	generate	Run4	generate/STIM_006.jpg
2739.12	1.546	1	generate	Run4	generate/STIM_007.jpg
2743.299	1.229	1	generate	Run4	generate/STIM_007.jpg
2747.13	1.637	1	generate	Run4	generate/STIM_007.jpg
2751.013	1.683	1	generate	Run4	generate/STIM_007.jpg
2755.84	1.115	1	generate	Run4	generate/STIM_007.jpg
2759.225	1.94	1	generate	Run4	generate/STIM_008.jpg
2763.931	1.182	1	generate	Run4	generate/STIM_008.jpg
2768.391	1.473	1	generate	Run4	generate/STIM_008.jpg
2771.777	2.018	1	generate	Run4	generate/STIM_008.jpg
2776.509	1.468	1	generate	Run4	generate/STIM_008.jpg
2780.686	1.698	1	generate	Run4	generate/STIM_009.jpg
2785.576	1.818	1	generate	Run4	generate/STIM_009.jpg
2789.694	2.078	1	generate	Run4	generate/STIM_009.jpg
2795.36	1.135	0	generate	Run4	generate/STIM_009.jpg
2800.161	1.948	1	generate	Run4	generate/STIM_009.jpg
2804.695	1.617	1	generate	Run4	generate/STIM_010.jpg
2808.507	1.212	1	generate	Run4	generate/STIM_010.jpg
2812.251	1.481	1	generate	Run4	generate/STIM_010.jpg
2817.571	2.13	1	generate	Run4	generate/STIM_010.jpg
2822.396	1.755	1	generate	Run4	generate/STIM_010.jpg
2826.759	2.126	1	generate	Run4	generate/STIM_011.jpg
2832.213	1.51	1	generate	Run4	generate/STIM_011.jpg
2836.898	1.277	1	generate	Run4	generate/STIM_011.jpg
2840.955	1.034	1	generate	Run4	generate/STIM_011.jpg
2845.814	2.189	0	generate	Run4	generate/STIM_011.jpg
2851.585	1.449	1	generate	Run4	generate/STIM_012.jpg
2854.838	1.964	1	generate	Run4	generate/STIM_012.jpg
2860.067	1.855	1	generate	Run4	generate/STIM_012.jpg
2865.343	1.846	1	generate	Run4	generate/STIM_012.jpg
2869.461	1.595	1	generate	Run4	generate/STIM_012.jpg
2874.367	1.8	1	generate	Run4	generate/STIM_013.jpg
2879.885	2.346	1	generate	Run4	generate/STIM_013.jpg
2885.005	1.901	1	generate	Run4	generate/STIM_013.jpg
2890.321	1.945	1	generate	Run4	generate/STIM_013.jpg
2894.248	1.327	1	generate	Run4	generate/STIM_013.jpg
2897.609	1.941	1	generate	Run4	generate/STIM_014.jpg
2902.589	2.32	1	generate	Run4	generate/STIM_014.jpg
2906.705	1.525	1	generate	Run4	generate/STIM_014.jpg
2911.646	2.353	1	generate	Run4	generate/STIM_014.jpg
2916.096	2.115	1	generate	Run4	generate/STIM_014.jpg
2920.371	1.451	0	generate	Run4	generate/STIM_015.jpg
2925.313	1.413	1	generate	Run4	generate/STIM_015.jpg
2928.483	2.016	1	generate	Run4	generate/STIM_015.jpg
2932.279	1.778	1	generate	Run4	generate/STIM_015.jpg
2935.93	1.602	1	generate	Run4	generate/STIM_015.jpg
2939.544	2.308	1	generate	Run4	generate/STIM_016.jpg
2945.581	2.31	1	generate	Run4	generate/STIM_016.jpg
2949.905	1.629	1	generate	Run4	generate/STIM_016.jpg
2954.988	1.984	1	generate	Run4	generate/STIM_016.jpg
2959.525	1.536	1	generate	Run4	generate/STIM_016.jpg
2963.811	0.939	0	generate	Run4	generate/STIM_017.jpg
2968.354	2.127	1	generate	Run4	generate/STIM_017.jpg
2974.143	1.243	1	generate	Run4	generate/STIM_017.jpg
2977.216	1.134	1	generate	Run4	generate/STIM_017.jpg
2980.989	1.172	1	generate	Run4	generate/STIM_017.jpg
2985.864	2.417	1	generate	Run4	generate/STIM_018.jpg
2991.52	2.437	1	generate	Run4	generate/STIM_018.jpg
2997.127	1.672	1	generate	Run4	generate/STIM_018.jpg
3001.177	1.532	1	generate	Run4	generate/STIM_018.jpg
3005.562	1.904	1	generate	Run4	generate/STIM_018.jpg
3009.679	1.765	0	generate	Run4	generate/STIM_019.jpg
3013.645	1.764	1	generate	Run4	generate/STIM_019.jpg
3017.282	1.404	1	generate	Run4	generate/STIM_019.jpg
3021.699	1.095	1	generate	Run4	generate/STIM_019.jpg
3024.842	1.961	1	generate	Run4	generate/STIM_019.jpg
3028.752	1.249	1	generate	Run4	generate/STIM_020.jpg
3032.742	1.693	1	generate	Run4	generate/STIM_020.jpg
3036.369	1.865	1	generate	Run4	generate/STIM_020.jpg
3040.542	1.24	1	generate	Run4	generate/STIM_020.jpg
3044.16	1.75	1	generate	Run4	generate/STIM_020.jpg
3048.018	2.478	1	generate	Run4	generate/STIM_021.jpg
3053.416	1.313	1	generate	Run4	generate/STIM_021.jpg
3056.812	1.537	1	generate	Run4	generate/STIM_021.jpg
3060.696	1.797	1	generate	Run4	generate/STIM_021.jpg
3065.014	1.452	1	generate	Run4	generate/STIM_021.jpg
3069.853	1.17	1	generate	Run4	generate/STIM_022.jpg
3074.241	1.758	1	generate	Run4	generate/STIM_022.jpg
3079.238	1.993	1	generate	Run4	generate/STIM_022.jpg
3083.967	1.583	1	generate	Run4	generate/STIM_022.jpg
3087.272	1.203	1	generate	Run4	generate/STIM_022.jpg
3090.968	1.432	1	generate	Run4	generate/STIM_023.jpg
3094.267	2.005	1	generate	Run4	generate/STIM_023.jpg
3098.39	1.207	1	generate	Run4	generate/STIM_023.jpg
3103.157	1.276	1	generate	Run4	generate/STIM_023.jpg
3106.483	1.215	1	generate	Run4	generate/STIM_023.jpg
3111.048	1.301	1	generate	Run4	generate/STIM_024.jpg
3114.562	1.325	1	generate	Run4	generate/STIM_024.jpg
3119.364	1.603	1	generate	Run4	generate/STIM_024.jpg
3123.558	1.264	1	generate	Run4	generate/STIM_024.jpg
3127.899	2.123	1	generate	Run4	generate/STIM_024.jpg
3133.049	0.807	1	repeat	Run4	repeat/STIM_000.jpg
3135.845	0.63	1	repeat	Run4	repeat/STIM_000.jpg
3139.666	0.72	0	repeat	Run4	repeat/STIM_000.jpg
3143.675	1.133	1	repeat	Run4	repeat/STIM_000.jpg
3147.295	1.1	1	repeat	Run4	repeat/STIM_000.jpg
3150.546	0.699	1	repeat	Run4	repeat/STIM_001.jpg
3153.834	0.917	1	repeat	Run4	repeat/STIM_001.jpg
3157.394	0.618	1	repeat	Run4	repeat/STIM_001.jpg
3160.121	0.996	1	repeat	Run4	repeat/STIM_001.jpg
3164.867	1.114	1	repeat	Run4	repeat/STIM_001.jpg
3169.429	0.75	1	repeat	Run4	repeat/STIM_002.jpg
3172.478	0.865	1	repeat	Run4	repeat/STIM_002.jpg
3175.951	1.048	1	repeat	Run4	repeat/STIM_002.jpg
3179.279	0.711	1	repeat	Run4	repeat/STIM_002.jpg
3183.252	0.601	1	repeat	Run4	repeat/STIM_002.jpg
3185.867	0.647	1	repeat	Run4	repeat/STIM_003.jpg
3189.399	0.888	1	repeat	Run4	repeat/STIM_003.jpg
3192.682	0.564	1	repeat	Run4	repeat/STIM_003.jpg
3195.968	0.954	1	repeat	Run4	repeat/STIM_003.jpg
3198.733	0.979	1	repeat	Run4	repeat/STIM_003.jpg
3201.854	1.0	1	repeat	Run4	repeat/STIM_004.jpg
3205.633	1.12	1	repeat	Run4	repeat/STIM_004.jpg
3209.15	0.795	1	repeat	Run4	repeat/STIM_004.jpg
3213.747	0.869	1	repeat	Run4	repeat/STIM_004.jpg
3217.73	0.625	1	repeat	Run4	repeat/STIM_004.jpg
3220.729	0.79	1	repeat	Run4	repeat/STIM_005.jpg
3223.474	1.05	1	repeat	Run4	repeat/STIM_005.jpg
3227.082	0.984	1	repeat	Run4	repeat/STIM_005.jpg
3231.038	0.899	1	repeat	Run4	repeat/STIM_005.jpg
3235.217	0.67	1	repeat	Run4	repeat/STIM_005.jpg
3238.66	1.192	1	repeat	Run4	repeat/STIM_006.jpg
3242.967	0.778	1	repeat	Run4	repeat/STIM_006.jpg
3247.274	0.877	1	repeat	Run4	repeat/STIM_006.jpg
3250.12	1.062	1	repeat	Run4	repeat/STIM_006.jpg
3253.317	0.79	1	repeat	Run4	repeat/STIM_006.jpg
3256.643	0.819	1	repeat	Run4	repeat/STIM_007.jpg
3261.188	0.838	1	repeat	Run4	repeat/STIM_007.jpg
3265.484	0.849	1	repeat	Run4	repeat/STIM_007.jpg
3269.809	0.984	1	repeat	Run4	repeat/STIM_007.jpg
3273.626	0.805	1	repeat	Run4	repeat/STIM_007.jpg
3276.978	0.63	1	repeat	Run4	repeat/STIM_008.jpg
3279.923	0.616	1	repeat	Run4	repeat/STIM_008.jpg
3284.405	0.972	0	repeat	Run4	repeat/STIM_008.jpg
3288.591	1.0	1	repeat	Run4	repeat/STIM_008.jpg
3291.632	0.571	1	repeat	Run4	repeat/STIM_008.jpg
3294.849	0.892	1	repeat	Run4	repeat/STIM_009.jpg
3299.38	0.815	1	repeat	Run4	repeat/STIM_009.jpg
3303.807	1.087	1	repeat	Run4	repeat/STIM_009.jpg
3308.676	0.617	0	repeat	Run4	repeat/STIM_009.jpg
3312.345	1.104	1	repeat	Run4	repeat/STIM_009.jpg
3315.887	0.826	1	repeat	Run4	repeat/STIM_010.jpg
3320.086	0.898	1	repeat	Run4	repeat/STIM_010.jpg
3324.958	1.078	1	repeat	Run4	repeat/STIM_010.jpg
3328.531	0.834	1	repeat	Run4	repeat/STIM_010.jpg
3331.235	0.643	0	repeat	Run4	repeat/STIM_010.jpg
3334.677	0.64	1	repeat	Run4	repeat/STIM_011.jpg
3338.944	1.21	1	repeat	Run4	repeat/STIM_011.jpg
3342.688	0.665	1	repeat	Run4	repeat/STIM_011.jpg
3347.26	0.902	1	repeat	Run4	repeat/STIM_011.jpg
3350.024	0.761	0	repeat	Run4	repeat/STIM_011.jpg
3353.064	0.852	1	repeat	Run4	repeat/STIM_012.jpg
3356.42	0.972	1	repeat	Run4	repeat/STIM_012.jpg
3359.985	1.227	1	repeat	Run4	repeat/STIM_012.jpg
3364.484	0.494	1	repeat	Run4	repeat/STIM_012.jpg
3367.27	0.731	1	repeat	Run4	repeat/STIM_012.jpg
3371.775	0.752	1	repeat	Run4	repeat/STIM_013.jpg
3376.052	1.018	1	repeat	Run4	repeat/STIM_013.jpg
3380.066	1.149	0	repeat	Run4	repeat/STIM_013.jpg
3384.443	0.943	1	repeat	Run4	repeat/STIM_013.jpg
3387.689	1.073	1	repeat	Run4	repeat/STIM_013.jpg
3390.797	0.727	1	repeat	Run4	repeat/STIM_014.jpg
3394.751	1.183	1	repeat	Run4	repeat/STIM_014.jpg
3398.391	0.833	1	repeat	Run4	repeat/STIM_014.jpg
3401.401	1.074	1	repeat	Run4	repeat/STIM_014.jpg
3405.447	0.815	1	repeat	Run4	repeat/STIM_014.jpg
