onset	duration	accuracy_binary	trial_type	learning_stage	stimulus
0.0	1.707	0	generate	Run1	generate/STIM_000.jpg
4.103	2.003	1	generate	Run1	generate/STIM_000.jpg
9.411	2.275	1	generate	Run1	generate/STIM_000.jpg
15.594	1.248	1	generate	Run1	generate/STIM_000.jpg
20.101	1.354	1	generate	Run1	generate/STIM_000.jpg
25.22	2.215	1	generate	Run1	generate/STIM_001.jpg
31.16	2.314	1	generate	Run1	generate/STIM_001.jpg
37.087	2.271	0	generate	Run1	generate/STIM_001.jpg
42.802	1.217	1	generate	Run1	generate/STIM_001.jpg
47.973	1.227	1	generate	Run1	generate/STIM_001.jpg
51.334	2.017	0	generate	Run1	generate/STIM_002.jpg
56.488	2.365	0	generate	Run1	generate/STIM_002.jpg
62.618	1.196	1	generate	Run1	generate/STIM_002.jpg
67.582	1.089	1	generate	Run1	generate/STIM_002.jpg
71.787	0.956	0	generate	Run1	generate/STIM_002.jpg
75.062	2.584	1	generate	Run1	generate/STIM_003.jpg
79.675	1.853	0	generate	Run1	generate/STIM_003.jpg
83.529	2.356	1	generate	Run1	generate/STIM_003.jpg
88.399	1.714	0	generate	Run1	generate/STIM_003.jpg
92.937	1.5	0	generate	Run1	generate/STIM_003.jpg
96.781	1.18	0	generate	Run1	generate/STIM_004.jpg
100.671	1.302	1	generate	Run1	generate/STIM_004.jpg
105.95	1.125	1	generate	Run1	generate/STIM_004.jpg
109.475	2.172	1	generate	Run1	generate/STIM_004.jpg
114.384	1.726	1	generate	Run1	generate/STIM_004.jpg
119.662	1.613	1	generate	Run1	generate/STIM_005.jpg
124.991	1.939	1	generate	Run1	generate/STIM_005.jpg
130.506	2.303	0	generate	Run1	generate/STIM_005.jpg
135.252	1.712	1	generate	Run1	generate/STIM_005.jpg
139.65	0.891	1	generate	Run1	generate/STIM_005.jpg
144.495	1.696	1	generate	Run1	generate/STIM_006.jpg
148.294	1.158	0	generate	Run1	generate/STIM_006.jpg
153.154	1.123	1	generate	Run1	generate/STIM_006.jpg
156.872	1.648	1	generate	Run1	generate/STIM_006.jpg
160.99	1.084	0	generate	Run1	generate/STIM_006.jpg
165.522	1.434	1	generate	Run1	generate/STIM_007.jpg
169.282	1.354	1	generate	Run1	generate/STIM_007.jpg
174.48	2.242	1	generate	Run1	generate/STIM_007.jpg
180.56	1.64	1	generate	Run1	generate/STIM_007.jpg
184.856	1.568	1	generate	Run1	generate/STIM_007.jpg
188.527	1.453	1	generate	Run1	generate/STIM_008.jpg
193.089	2.093	0	generate	Run1	generate/STIM_008.jpg
198.25	1.105	1	generate	Run1	generate/STIM_008.jpg
202.105	1.478	1	generate	Run1	generate/STIM_008.jpg
206.087	1.675	0	generate	Run1	generate/STIM_008.jpg
211.592	1.859	1	generate	Run1	generate/STIM_009.jpg
216.514	2.399	1	generate	Run1	generate/STIM_009.jpg
222.271	2.29	0	generate	Run1	generate/STIM_009.jpg
227.447	1.478	1	generate	Run1	generate/STIM_009.jpg
232.891	1.825	1	generate	Run1	generate/STIM_009.jpg
238.137	2.22	1	generate	Run1	generate/STIM_010.jpg
243.185	2.308	0	generate	Run1	generate/STIM_010.jpg
249.122	1.859	1	generate	Run1	generate/STIM_010.jpg
254.348	1.38	1	generate	Run1	generate/STIM_010.jpg
259.141	0.952	1	generate	Run1	generate/STIM_010.jpg
262.759	1.652	1	generate	Run1	generate/STIM_011.jpg
268.249	2.298	1	generate	Run1	generate/STIM_011.jpg
274.28	1.159	1	generate	Run1	generate/STIM_011.jpg
278.911	2.069	1	generate	Run1	generate/STIM_011.jpg
283.312	1.944	0	generate	Run1	generate/STIM_011.jpg
287.737	2.538	1	generate	Run1	generate/STIM_012.jpg
292.448	1.448	1	generate	Run1	generate/STIM_012.jpg
297.493	2.364	0	generate	Run1	generate/STIM_012.jpg
302.329	1.054	0	generate	Run1	generate/STIM_012.jpg
305.414	1.88	1	generate	Run1	generate/STIM_012.jpg
311.168	2.587	1	generate	Run1	generate/STIM_013.jpg
317.05	2.187	1	generate	Run1	generate/STIM_013.jpg
323.009	2.063	1	generate	Run1	generate/STIM_013.jpg
327.936	1.776	1	generate	Run1	generate/STIM_013.jpg
333.686	1.695	1	generate	Run1	generate/STIM_013.jpg
339.075	2.534	1	generate	Run1	generate/STIM_014.jpg
344.794	1.721	1	generate	Run1	generate/STIM_014.jpg
348.807	1.283	1	generate	Run1	generate/STIM_014.jpg
352.989	1.606	0	generate	Run1	generate/STIM_014.jpg
357.575	1.285	1	generate	Run1	generate/STIM_014.jpg
362.433	2.518	0	generate	Run1	generate/STIM_015.jpg
368.723	1.722	1	generate	Run1	generate/STIM_015.jpg
373.095	1.365	1	generate	Run1	generate/STIM_015.jpg
377.085	1.668	1	generate	Run1	generate/STIM_015.jpg
382.739	1.325	1	generate	Run1	generate/STIM_015.jpg
387.403	1.307	0	generate	Run1	generate/STIM_016.jpg
392.678	1.719	0	generate	Run1	generate/STIM_016.jpg
396.687	2.005	1	generate	Run1	generate/STIM_016.jpg
402.009	1.903	1	generate	Run1	generate/STIM_016.jpg
406.358	2.105	0	generate	Run1	generate/STIM_016.jpg
412.444	2.606	1	generate	Run1	generate/STIM_017.jpg
417.382	1.145	1	generate	Run1	generate/STIM_017.jpg
422.037	1.127	0	generate	Run1	generate/STIM_017.jpg
426.052	1.286	1	generate	Run1	generate/STIM_017.jpg
431.008	1.24	1	generate	Run1	generate/STIM_017.jpg
435.527	1.879	1	generate	Run1	generate/STIM_018.jpg
439.917	2.154	1	generate	Run1	generate/STIM_018.jpg
445.857	1.894	1	generate	Run1	generate/STIM_018.jpg
451.417	2.206	1	generate	Run1	generate/STIM_018.jpg
457.073	1.145	0	generate	Run1	generate/STIM_018.jpg
461.694	1.306	0	generate	Run1	generate/STIM_019.jpg
465.57	1.196	1	generate	Run1	generate/STIM_019.jpg
470.641	2.308	1	generate	Run1	generate/STIM_019.jpg
475.396	0.914	0	generate	Run1	generate/STIM_019.jpg
479.132	1.158	0	generate	Run1	generate/STIM_019.jpg
483.311	1.84	0	generate	Run1	generate/STIM_020.jpg
487.517	2.172	1	generate	Run1	generate/STIM_020.jpg
491.728	1.284	0	generate	Run1	generate/STIM_020.jpg
495.584	1.109	1	generate	Run1	generate/STIM_020.jpg
500.021	1.918	0	generate	Run1	generate/STIM_020.jpg
505.116	1.196	0	generate	Run1	generate/STIM_021.jpg
508.366	1.985	1	generate	Run1	generate/STIM_021.jpg
512.387	1.336	1	generate	Run1	generate/STIM_021.jpg
517.577	1.462	1	generate	Run1	generate/STIM_021.jpg
521.805	1.962	0	generate	Run1	generate/STIM_021.jpg
527.367	1.832	1	generate	Run1	generate/STIM_022.jpg
531.47	1.451	1	generate	Run1	generate/STIM_022.jpg
535.549	2.282	0	generate	Run1	generate/STIM_022.jpg
541.281	1.063	1	generate	Run1	generate/STIM_022.jpg
544.383	1.722	1	generate	Run1	generate/STIM_022.jpg
548.632	1.992	1	generate	Run1	generate/STIM_023.jpg
552.73	1.655	1	generate	Run1	generate/STIM_023.jpg
556.987	2.046	1	generate	Run1	generate/STIM_023.jpg
562.06	2.069	1	generate	Run1	generate/STIM_023.jpg
567.845	0.93	0	generate	Run1	generate/STIM_023.jpg
571.675	2.426	1	generate	Run1	generate/STIM_024.jpg
577.01	1.806	1	generate	Run1	generate/STIM_024.jpg
582.433	1.103	0	generate	Run1	generate/STIM_024.jpg
586.702	0.926	1	generate	Run1	generate/STIM_024.jpg
590.009	1.116	0	generate	Run1	generate/STIM_024.jpg
594.951	0.636	1	repeat	Run1	repeat/STIM_000.jpg
597.765	0.448	1	repeat	Run1	repeat/STIM_000.jpg
601.781	0.817	1	repeat	Run1	repeat/STIM_000.jpg
604.744	0.471	1	repeat	Run1	repeat/STIM_000.jpg
608.6	0.79	0	repeat	Run1	repeat/STIM_000.jpg
612.416	0.571	1	repeat	Run1	repeat/STIM_001.jpg
616.924	0.591	1	repeat	Run1	repeat/STIM_001.jpg
619.539	0.754	1	repeat	Run1	repeat/STIM_001.jpg
623.746	0.828	1	repeat	Run1	repeat/STIM_001.jpg
626.728	0.613	1	repeat	Run1	repeat/STIM_001.jpg
630.611	0.757	1	repeat	Run1	repeat/STIM_002.jpg
634.931	0.662	1	repeat	Run1	repeat/STIM_002.jpg
638.031	0.445	1	repeat	Run1	repeat/STIM_002.jpg
641.137	0.859	1	repeat	Run1	repeat/STIM_002.jpg
645.806	0.881	1	repeat	Run1	repeat/STIM_002.jpg
648.722	0.601	1	repeat	Run1	repeat/STIM_003.jpg
652.575	0.84	1	repeat	Run1	repeat/STIM_003.jpg
656.77	0.494	1	repeat	Run1	repeat/STIM_003.jpg
659.811	0.551	1	repeat	Run1	repeat/STIM_003.jpg
662.435	0.522	1	repeat	Run1	repeat/STIM_003.jpg
664.97	0.784	1	repeat	Run1	repeat/STIM_004.jpg
668.663	0.776	1	repeat	Run1	repeat/STIM_004.jpg
672.82	0.659	1	repeat	Run1	repeat/STIM_004.jpg
677.336	0.721	1	repeat	Run1	repeat/STIM_004.jpg
681.373	0.524	1	repeat	Run1	repeat/STIM_004.jpg
684.232	0.795	1	repeat	Run1	repeat/STIM_005.jpg
687.102	0.732	1	repeat	Run1	repeat/STIM_005.jpg
690.879	0.813	1	repeat	Run1	repeat/STIM_005.jpg
695.383	0.568	1	repeat	Run1	repeat/STIM_005.jpg
699.151	0.753	0	repeat	Run1	repeat/STIM_005.jpg
702.909	0.445	1	repeat	Run1	repeat/STIM_006.jpg
706.107	0.479	1	repeat	Run1	repeat/STIM_006.jpg
710.398	0.597	1	repeat	Run1	repeat/STIM_006.jpg
713.544	0.634	1	repeat	Run1	repeat/STIM_006.jpg
716.646	0.822	1	repeat	Run1	repeat/STIM_006.jpg
720.131	0.739	1	repeat	Run1	repeat/STIM_007.jpg
724.402	0.875	1	repeat	Run1	repeat/STIM_007.jpg
727.444	0.684	0	repeat	Run1	repeat/STIM_007.jpg
730.917	0.739	1	repeat	Run1	repeat/STIM_007.jpg
735.428	0.681	1	repeat	Run1	repeat/STIM_007.jpg
738.238	0.602	1	repeat	Run1	repeat/STIM_008.jpg
741.984	0.601	0	repeat	Run1	repeat/STIM_008.jpg
744.835	0.685	1	repeat	Run1	repeat/STIM_008.jpg
748.197	0.737	0	repeat	Run1	repeat/STIM_008.jpg
752.08	0.68	0	repeat	Run1	repeat/STIM_008.jpg
756.191	0.45	1	repeat	Run1	repeat/STIM_009.jpg
758.859	0.679	1	repeat	Run1	repeat/STIM_009.jpg
762.329	0.789	1	repeat	Run1	repeat/STIM_009.jpg
766.097	0.663	1	repeat	Run1	repeat/STIM_009.jpg
770.474	0.772	1	repeat	Run1	repeat/STIM_009.jpg
774.973	0.636	1	repeat	Run1	repeat/STIM_010.jpg
777.762	0.584	0	repeat	Run1	repeat/STIM_010.jpg
781.997	0.781	1	repeat	Run1	repeat/STIM_010.jpg
786.05	0.847	1	repeat	Run1	repeat/STIM_010.jpg
790.493	0.614	1	repeat	Run1	repeat/STIM_010.jpg
793.446	0.457	1	repeat	Run1	repeat/STIM_011.jpg
796.955	0.708	1	repeat	Run1	repeat/STIM_011.jpg
800.587	0.823	1	repeat	Run1	repeat/STIM_011.jpg
805.094	0.822	1	repeat	Run1	repeat/STIM_011.jpg
808.02	0.482	1	repeat	Run1	repeat/STIM_011.jpg
811.976	0.552	1	repeat	Run1	repeat/STIM_012.jpg
816.15	0.635	1	repeat	Run1	repeat/STIM_012.jpg
820.101	0.603	1	repeat	Run1	repeat/STIM_012.jpg
823.377	0.852	1	repeat	Run1	repeat/STIM_012.jpg
827.479	0.678	1	repeat	Run1	repeat/STIM_012.jpg
831.758	0.706	1	repeat	Run1	repeat/STIM_013.jpg
834.834	0.549	1	repeat	Run1	repeat/STIM_013.jpg
838.855	0.667	1	repeat	Run1	repeat/STIM_013.jpg
843.069	0.627	1	repeat	Run1	repeat/STIM_013.jpg
847.001	0.669	1	repeat	Run1	repeat/STIM_013.jpg
851.167	0.862	0	repeat	Run1	repeat/STIM_014.jpg
854.388	0.694	0	repeat	Run1	repeat/STIM_014.jpg
858.648	0.505	1	repeat	Run1	repeat/STIM_014.jpg
862.702	0.64	0	repeat	Run1	repeat/STIM_014.jpg
866.907	0.501	1	repeat	Run1	repeat/STIM_014.jpg
871.022	1.684	1	generate	Run2	generate/STIM_000.jpg
876.643	0.874	1	generate	Run2	generate/STIM_000.jpg
879.671	1.188	1	generate	Run2	generate/STIM_000.jpg
883.743	0.902	1	generate	Run2	generate/STIM_000.jpg
887.881	1.22	0	generate	Run2	generate/STIM_000.jpg
892.046	2.065	1	generate	Run2	generate/STIM_001.jpg
896.643	1.013	1	generate	Run2	generate/STIM_001.jpg
900.072	1.546	1	generate	Run2	generate/STIM_001.jpg
903.967	1.586	1	generate	Run2	generate/STIM_001.jpg
909.18	1.786	0	generate	Run2	generate/STIM_001.jpg
914.54	1.025	1	generate	Run2	generate/STIM_002.jpg
917.609	2.03	1	generate	Run2	generate/STIM_002.jpg
923.306	1.98	0	generate	Run2	generate/STIM_002.jpg
928.672	0.809	1	generate	Run2	generate/STIM_002.jpg
931.833	1.374	1	generate	Run2	generate/STIM_002.jpg
935.269	0.92	1	generate	Run2	generate/STIM_003.jpg
938.47	1.993	1	generate	Run2	generate/STIM_003.jpg
943.403	1.609	1	generate	Run2	generate/STIM_003.jpg
948.734	1.307	1	generate	Run2	generate/STIM_003.jpg
952.644	0.913	1	generate	Run2	generate/STIM_003.jpg
957.142	1.092	1	generate	Run2	generate/STIM_004.jpg
960.251	2.034	1	generate	Run2	generate/STIM_004.jpg
965.02	0.893	1	generate	Run2	generate/STIM_004.jpg
969.885	1.486	0	generate	Run2	generate/STIM_004.jpg
973.992	1.209	1	generate	Run2	generate/STIM_004.jpg
978.353	2.024	1	generate	Run2	generate/STIM_005.jpg
983.372	1.925	1	generate	Run2	generate/STIM_005.jpg
987.439	0.982	1	generate	Run2	generate/STIM_005.jpg
992.083	1.435	1	generate	Run2	generate/STIM_005.jpg
996.578	0.873	0	generate	Run2	generate/STIM_005.jpg
999.826	1.199	1	generate	Run2	generate/STIM_006.jpg
1004.24	1.06	0	generate	Run2	generate/STIM_006.jpg
1009.048	1.033	1	generate	Run2	generate/STIM_006.jpg
1013.005	0.932	1	generate	Run2	generate/STIM_006.jpg
1017.694	1.581	1	generate	Run2	generate/STIM_006.jpg
1021.515	1.915	1	generate	Run2	generate/STIM_007.jpg
1026.427	1.591	0	generate	Run2	generate/STIM_007.jpg
1030.551	1.607	1	generate	Run2	generate/STIM_007.jpg
1034.197	1.772	0	generate	Run2	generate/STIM_007.jpg
1039.623	0.865	0	generate	Run2	generate/STIM_007.jpg
1043.46	0.959	1	generate	Run2	generate/STIM_008.jpg
1046.755	1.714	1	generate	Run2	generate/STIM_008.jpg
1051.824	1.223	0	generate	Run2	generate/STIM_008.jpg
1056.339	1.13	1	generate	Run2	generate/STIM_008.jpg
1059.788	0.951	1	generate	Run2	generate/STIM_008.jpg
1063.583	1.16	0	generate	Run2	generate/STIM_009.jpg
1066.983	1.571	1	generate	Run2	generate/STIM_009.jpg
1070.958	1.468	1	generate	Run2	generate/STIM_009.jpg
1075.751	1.644	1	generate	Run2	generate/STIM_009.jpg
1079.692	0.782	1	generate	Run2	generate/STIM_009.jpg
1083.871	2.123	1	generate	Run2	generate/STIM_010.jpg
1089.044	1.177	1	generate	Run2	generate/STIM_010.jpg
1092.359	1.61	1	generate	Run2	generate/STIM_010.jpg
1096.576	1.168	0	generate	Run2	generate/STIM_010.jpg
1101.125	1.11	1	generate	Run2	generate/STIM_010.jpg
1105.56	1.76	1	generate	Run2	generate/STIM_011.jpg
1110.843	0.93	0	generate	Run2	generate/STIM_011.jpg
1115.53	1.299	1	generate	Run2	generate/STIM_011.jpg
1119.324	1.503	1	generate	Run2	generate/STIM_011.jpg
1122.847	1.734	1	generate	Run2	generate/STIM_011.jpg
1128.197	1.043	1	generate	Run2	generate/STIM_012.jpg
1132.694	1.275	1	generate	Run2	generate/STIM_012.jpg
1137.842	1.053	1	generate	Run2	generate/STIM_012.jpg
1141.028	1.276	0	generate	Run2	generate/STIM_012.jpg
1145.376	1.506	1	generate	Run2	generate/STIM_012.jpg
1149.086	1.474	1	generate	Run2	generate/STIM_013.jpg
1152.917	2.02	1	generate	Run2	generate/STIM_013.jpg
1158.377	1.601	0	generate	Run2	generate/STIM_013.jpg
1162.484	1.411	0	generate	Run2	generate/STIM_013.jpg
1166.795	1.451	1	generate	Run2	generate/STIM_013.jpg
1170.451	1.795	1	generate	Run2	generate/STIM_014.jpg
1175.739	0.966	1	generate	Run2	generate/STIM_014.jpg
1179.594	0.953	0	generate	Run2	generate/STIM_014.jpg
1183.202	1.242	0	generate	Run2	generate/STIM_014.jpg
1187.476	1.104	1	generate	Run2	generate/STIM_014.jpg
1191.145	2.14	1	generate	Run2	generate/STIM_015.jpg
1195.519	1.468	0	generate	Run2	generate/STIM_015.jpg
1199.669	0.853	1	generate	Run2	generate/STIM_015.jpg
1202.974	1.365	1	generate	Run2	generate/STIM_015.jpg
1207.84	1.44	1	generate	Run2	generate/STIM_015.jpg
1212.281	2.242	1	generate	Run2	generate/STIM_016.jpg
1217.358	1.022	1	generate	Run2	generate/STIM_016.jpg
1221.644	1.369	0	generate	Run2	generate/STIM_016.jpg
1225.104	1.175	0	generate	Run2	generate/STIM_016.jpg
1228.771	1.334	1	generate	Run2	generate/STIM_016.jpg
1233.818	1.656	1	generate	Run2	generate/STIM_017.jpg
1238.572	1.14	1	generate	Run2	generate/STIM_017.jpg
1243.703	1.554	1	generate	Run2	generate/STIM_017.jpg
1248.896	0.753	1	generate	Run2	generate/STIM_017.jpg
1253.036	0.905	1	generate	Run2	generate/STIM_017.jpg
1257.379	2.116	0	generate	Run2	generate/STIM_018.jpg
1263.474	1.529	1	generate	Run2	generate/STIM_018.jpg
1267.387	0.809	0	generate	Run2	generate/STIM_018.jpg
1271.42	1.791	0	generate	Run2	generate/STIM_018.jpg
1277.052	1.118	0	generate	Run2	generate/STIM_018.jpg
1281.487	1.636	0	generate	Run2	generate/STIM_019.jpg
1285.606	1.056	0	generate	Run2	generate/STIM_019.jpg
1289.981	1.0	1	generate	Run2	generate/STIM_019.jpg
1293.288	1.73	0	generate	Run2	generate/STIM_019.jpg
1298.118	1.22	1	generate	Run2	generate/STIM_019.jpg
1302.786	1.0	1	generate	Run2	generate/STIM_020.jpg
1307.064	1.451	1	generate	Run2	generate/STIM_020.jpg
1311.915	1.173	0	generate	Run2	generate/STIM_020.jpg
1315.311	0.792	1	generate	Run2	generate/STIM_020.jpg
1318.587	1.259	1	generate	Run2	generate/STIM_020.jpg
1322.794	1.344	0	generate	Run2	generate/STIM_021.jpg
1326.625	0.986	1	generate	Run2	generate/STIM_021.jpg
1330.407	1.392	0	generate	Run2	generate/STIM_021.jpg
1335.263	1.354	1	generate	Run2	generate/STIM_021.jpg
1340.259	1.775	1	generate	Run2	generate/STIM_021.jpg
1344.058	1.8	1	generate	Run2	generate/STIM_022.jpg
1349.847	0.88	1	generate	Run2	generate/STIM_022.jpg
1353.455	1.608	1	generate	Run2	generate/STIM_022.jpg
1357.89	1.715	1	generate	Run2	generate/STIM_022.jpg
1361.958	1.235	1	generate	Run2	generate/STIM_022.jpg
1366.826	1.361	1	generate	Run2	generate/STIM_023.jpg
1371.395	1.796	0	generate	Run2	generate/STIM_023.jpg
1376.5	0.858	0	generate	Run2	generate/STIM_023.jpg
1381.097	1.728	1	generate	Run2	generate/STIM_023.jpg
1386.508	1.655	1	generate	Run2	generate/STIM_023.jpg
1391.698	0.946	1	generate	Run2	generate/STIM_024.jpg
1395.911	1.79	0	generate	Run2	generate/STIM_024.jpg
1401.264	1.191	1	generate	Run2	generate/STIM_024.jpg
1406.162	1.503	1	generate	Run2	generate/STIM_024.jpg
1410.657	1.397	0	generate	Run2	generate/STIM_024.jpg
1415.915	0.622	1	repeat	Run2	repeat/STIM_000.jpg
1419.174	0.726	1	repeat	Run2	repeat/STIM_000.jpg
1423.523	0.881	1	repeat	Run2	repeat/STIM_000.jpg
1428.202	0.634	1	repeat	Run2	repeat/STIM_000.jpg
1431.82	0.526	1	repeat	Run2	repeat/STIM_000.jpg
1435.845	0.59	1	repeat	Run2	repeat/STIM_001.jpg
1439.245	0.549	1	repeat	Run2	repeat/STIM_001.jpg
1442.303	0.667	1	repeat	Run2	repeat/STIM_001.jpg
1446.795	0.475	1	repeat	Run2	repeat/STIM_001.jpg
1451.252	0.866	1	repeat	Run2	repeat/STIM_001.jpg
1455.07	0.444	1	repeat	Run2	repeat/STIM_002.jpg
1459.261	0.671	1	repeat	Run2	repeat/STIM_002.jpg
1463.282	0.846	1	repeat	Run2	repeat/STIM_002.jpg
1468.054	0.804	1	repeat	Run2	repeat/STIM_002.jpg
1472.329	0.603	1	repeat	Run2	repeat/STIM_002.jpg
1475.257	0.57	1	repeat	Run2	repeat/STIM_003.jpg
1478.225	0.759	1	repeat	Run2	repeat/STIM_003.jpg
1481.834	0.768	1	repeat	Run2	repeat/STIM_003.jpg
1485.348	0.448	1	repeat	Run2	repeat/STIM_003.jpg
1489.534	0.787	0	repeat	Run2	repeat/STIM_003.jpg
1493.094	0.606	1	repeat	Run2	repeat/STIM_004.jpg
1496.876	0.454	1	repeat	Run2	repeat/STIM_004.jpg
1499.601	0.683	1	repeat	Run2	repeat/STIM_004.jpg
1504.167	0.719	1	repeat	Run2	repeat/STIM_004.jpg
1508.568	0.648	1	repeat	Run2	repeat/STIM_004.jpg
1511.527	0.829	1	repeat	Run2	repeat/STIM_005.jpg
1516.002	0.748	1	repeat	Run2	repeat/STIM_005.jpg
1519.598	0.513	0	repeat	Run2	repeat/STIM_005.jpg
1523.856	0.512	1	repeat	Run2	repeat/STIM_005.jpg
1527.943	0.609	1	repeat	Run2	repeat/STIM_005.jpg
1530.696	0.747	1	repeat	Run2	repeat/STIM_006.jpg
1534.252	0.459	1	repeat	Run2	repeat/STIM_006.jpg
1537.236	0.866	0	repeat	Run2	repeat/STIM_006.jpg
1541.337	0.49	1	repeat	Run2	repeat/STIM_006.jpg
1544.14	0.822	1	repeat	Run2	repeat/STIM_006.jpg
1547.541	0.737	1	repeat	Run2	repeat/STIM_007.jpg
1551.838	0.624	1	repeat	Run2	repeat/STIM_007.jpg
1555.342	0.607	1	repeat	Run2	repeat/STIM_007.jpg
1558.742	0.658	1	repeat	Run2	repeat/STIM_007.jpg
1563.138	0.774	1	repeat	Run2	repeat/STIM_007.jpg
1566.636	0.841	1	repeat	Run2	repeat/STIM_008.jpg
1570.07	0.478	0	repeat	Run2	repeat/STIM_008.jpg
1573.972	0.838	1	repeat	Run2	repeat/STIM_008.jpg
1577.752	0.881	1	repeat	Run2	repeat/STIM_008.jpg
1582.427	0.782	1	repeat	Run2	repeat/STIM_008.jpg
1586.424	0.714	1	repeat	Run2	repeat/STIM_009.jpg
1589.244	0.668	1	repeat	Run2	repeat/STIM_009.jpg
1592.827	0.792	0	repeat	Run2	repeat/STIM_009.jpg
1597.612	0.71	1	repeat	Run2	repeat/STIM_009.jpg
1601.259	0.709	1	repeat	Run2	repeat/STIM_009.jpg
1605.496	0.647	1	repeat	Run2	repeat/STIM_010.jpg
1609.429	0.556	0	repeat	Run2	repeat/STIM_010.jpg
1612.296	0.716	1	repeat	Run2	repeat/STIM_010.jpg
1615.827	0.824	0	repeat	Run2	repeat/STIM_010.jpg
1619.11	0.815	1	repeat	Run2	repeat/STIM_010.jpg
1622.441	0.775	1	repeat	Run2	repeat/STIM_011.jpg
1626.645	0.826	1	repeat	Run2	repeat/STIM_011.jpg
1631.395	0.635	1	repeat	Run2	repeat/STIM_011.jpg
1634.48	0.493	1	repeat	Run2	repeat/STIM_011.jpg
1638.396	0.639	1	repeat	Run2	repeat/STIM_011.jpg
1641.37	0.762	1	repeat	Run2	repeat/STIM_012.jpg
1645.069	0.859	1	repeat	Run2	repeat/STIM_012.jpg
1649.626	0.743	1	repeat	Run2	repeat/STIM_012.jpg
1654.256	0.708	0	repeat	Run2	repeat/STIM_012.jpg
1658.07	0.646	1	repeat	Run2	repeat/STIM_012.jpg
1662.7	0.551	1	repeat	Run2	repeat/STIM_013.jpg
1667.224	0.655	1	repeat	Run2	repeat/STIM_013.jpg
1671.18	0.526	1	repeat	Run2	repeat/STIM_013.jpg
1675.245	0.721	0	repeat	Run2	repeat/STIM_013.jpg
1677.982	0.554	1	repeat	Run2	repeat/STIM_013.jpg
1680.709	0.827	1	repeat	Run2	repeat/STIM_014.jpg
1684.779	0.582	1	repeat	Run2	repeat/STIM_014.jpg
1687.732	0.623	1	repeat	Run2	repeat/STIM_014.jpg
1690.52	0.694	1	repeat	Run2	repeat/STIM_014.jpg
1694.101	0.731	1	repeat	Run2	repeat/STIM_014.jpg
1697.854	0.838	1	generate	Run3	generate/STIM_000.jpg
1701.406	1.141	1	generate	Run3	generate/STIM_000.jpg
1705.878	0.965	1	generate	Run3	generate/STIM_000.jpg
1709.31	1.776	0	generate	Run3	generate/STIM_000.jpg
1713.879	1.396	1	generate	Run3	generate/STIM_000.jpg
1718.052	1.117	1	generate	Run3	generate/STIM_001.jpg
1721.909	1.333	0	generate	Run3	generate/STIM_001.jpg
1725.261	0.898	1	generate	Run3	generate/STIM_001.jpg
1730.132	0.887	1	generate	Run3	generate/STIM_001.jpg
1733.928	0.778	0	generate	Run3	generate/STIM_001.jpg
1736.97	0.887	1	generate	Run3	generate/STIM_002.jpg
1741.827	1.121	0	generate	Run3	generate/STIM_002.jpg
1746.777	1.381	1	generate	Run3	generate/STIM_002.jpg
1752.049	1.249	1	generate	Run3	generate/STIM_002.jpg
1755.74	1.091	1	generate	Run3	generate/STIM_002.jpg
1760.103	1.039	1	generate	Run3	generate/STIM_003.jpg
1763.354	1.331	1	generate	Run3	generate/STIM_003.jpg
1768.136	0.98	1	generate	Run3	generate/STIM_003.jpg
1772.181	1.206	1	generate	Run3	generate/STIM_003.jpg
1775.473	1.706	0	generate	Run3	generate/STIM_003.jpg
1779.34	1.853	1	generate	Run3	generate/STIM_004.jpg
1783.953	1.048	1	generate	Run3	generate/STIM_004.jpg
1787.573	1.838	1	generate	Run3	generate/STIM_004.jpg
1792.889	1.65	0	generate	Run3	generate/STIM_004.jpg
1797.226	0.934	1	generate	Run3	generate/STIM_004.jpg
1800.266	1.147	1	generate	Run3	generate/STIM_005.jpg
1804.543	1.176	0	generate	Run3	generate/STIM_005.jpg
1807.879	1.459	1	generate	Run3	generate/STIM_005.jpg
1811.952	0.875	0	generate	Run3	generate/STIM_005.jpg
1815.373	1.23	1	generate	Run3	generate/STIM_005.jpg
1819.442	1.19	1	generate	Run3	generate/STIM_006.jpg
1823.671	1.386	1	generate	Run3	generate/STIM_006.jpg
1828.086	1.456	1	generate	Run3	generate/STIM_006.jpg
1831.991	1.816	1	generate	Run3	generate/STIM_006.jpg
1837.386	1.827	1	generate	Run3	generate/STIM_006.jpg
1841.439	1.542	1	generate	Run3	generate/STIM_007.jpg
1845.893	1.406	1	generate	Run3	generate/STIM_007.jpg
1850.277	1.43	1	generate	Run3	generate/STIM_007.jpg
1855.105	1.817	1	generate	Run3	generate/STIM_007.jpg
1859.082	1.706	0	generate	Run3	generate/STIM_007.jpg
1864.207	1.526	1	generate	Run3	generate/STIM_008.jpg
1869.664	1.116	1	generate	Run3	generate/STIM_008.jpg
1873.766	1.16	1	generate	Run3	generate/STIM_008.jpg
1878.835	1.059	1	generate	Run3	generate/STIM_008.jpg
1882.518	1.214	1	generate	Run3	generate/STIM_008.jpg
1885.898	0.795	0	generate	Run3	generate/STIM_009.jpg
1889.737	1.498	1	generate	Run3	generate/STIM_009.jpg
1894.102	0.824	1	generate	Run3	generate/STIM_009.jpg
1898.368	0.867	1	generate	Run3	generate/STIM_009.jpg
1902.358	1.086	1	generate	Run3	generate/STIM_009.jpg
1906.724	0.938	1	generate	Run3	generate/STIM_010.jpg
1911.073	1.144	1	generate	Run3	generate/STIM_010.jpg
1915.037	0.966	1	generate	Run3	generate/STIM_010.jpg
1919.381	1.8	1	generate	Run3	generate/STIM_010.jpg
1923.788	1.161	1	generate	Run3	generate/STIM_010.jpg
1927.453	0.768	1	generate	Run3	generate/STIM_011.jpg
1931.637	1.624	1	generate	Run3	generate/STIM_011.jpg
1935.642	0.823	1	generate	Run3	generate/STIM_011.jpg
1939.564	1.198	1	generate	Run3	generate/STIM_011.jpg
1943.249	1.534	1	generate	Run3	generate/STIM_011.jpg
1948.701	1.642	1	generate	Run3	generate/STIM_012.jpg
1953.513	1.841	1	generate	Run3	generate/STIM_012.jpg
1958.416	1.461	1	generate	Run3	generate/STIM_012.jpg
1962.48	1.065	1	generate	Run3	generate/STIM_012.jpg
1965.561	1.35	0	generate	Run3	generate/STIM_012.jpg
1969.046	1.496	1	generate	Run3	generate/STIM_013.jpg
1973.278	1.224	1	generate	Run3	generate/STIM_013.jpg
1978.432	1.721	1	generate	Run3	generate/STIM_013.jpg
1983.066	0.912	1	generate	Run3	generate/STIM_013.jpg
1986.455	1.417	1	generate	Run3	generate/STIM_013.jpg
1990.392	0.765	1	generate	Run3	generate/STIM_014.jpg
1993.823	1.129	1	generate	Run3	generate/STIM_014.jpg
1997.967	1.458	1	generate	Run3	generate/STIM_014.jpg
2003.071	1.173	1	generate	Run3	generate/STIM_014.jpg
2007.239	0.858	1	generate	Run3	generate/STIM_014.jpg
2010.985	1.704	0	generate	Run3	generate/STIM_015.jpg
2015.769	1.717	1	generate	Run3	generate/STIM_015.jpg
2020.572	1.679	1	generate	Run3	generate/STIM_015.jpg
2026.144	0.747	1	generate	Run3	generate/STIM_015.jpg
2029.899	0.977	1	generate	Run3	generate/STIM_015.jpg
2034.346	1.526	1	generate	Run3	generate/STIM_016.jpg
2039.461	1.448	1	generate	Run3	generate/STIM_016.jpg
2044.628	0.833	1	generate	Run3	generate/STIM_016.jpg
2048.055	1.382	1	generate	Run3	generate/STIM_016.jpg
2052.178	0.823	1	generate	Run3	generate/STIM_016.jpg
2055.594	1.778	1	generate	Run3	generate/STIM_017.jpg
2059.564	0.804	1	generate	Run3	generate/STIM_017.jpg
2064.108	1.405	1	generate	Run3	generate/STIM_017.jpg
2067.701	1.49	1	generate	Run3	generate/STIM_017.jpg
2072.011	1.634	1	generate	Run3	generate/STIM_017.jpg
2077.48	1.49	0	generate	Run3	generate/STIM_018.jpg
2082.391	1.202	0	generate	Run3	generate/STIM_018.jpg
2087.123	1.326	1	generate	Run3	generate/STIM_018.jpg
2091.442	1.683	1	generate	Run3	generate/STIM_018.jpg
2096.528	0.837	1	generate	Run3	generate/STIM_018.jpg
2100.383	0.899	1	generate	Run3	generate/STIM_019.jpg
2105.085	1.269	1	generate	Run3	generate/STIM_019.jpg
2109.344	1.699	1	generate	Run3	generate/STIM_019.jpg
2114.0	1.282	1	generate	Run3	generate/STIM_019.jpg
2118.211	0.954	1	generate	Run3	generate/STIM_019.jpg
2121.296	1.277	0	generate	Run3	generate/STIM_020.jpg
2125.708	1.384	1	generate	Run3	generate/STIM_020.jpg
2129.726	1.034	1	generate	Run3	generate/STIM_020.jpg
2134.407	1.003	1	generate	Run3	generate/STIM_020.jpg
2138.216	1.167	1	generate	Run3	generate/STIM_020.jpg
2142.371	0.903	1	generate	Run3	generate/STIM_021.jpg
2145.935	0.998	1	generate	Run3	generate/STIM_021.jpg
2149.262	0.995	1	generate	Run3	generate/STIM_021.jpg
2153.139	1.19	1	generate	Run3	generate/STIM_021.jpg
2157.945	1.638	1	generate	Run3	generate/STIM_021.jpg
2162.354	1.002	1	generate	Run3	generate/STIM_022.jpg
2167.108	1.342	1	generate	Run3	generate/STIM_022.jpg
2172.253	1.487	1	generate	Run3	generate/STIM_022.jpg
2177.618	0.989	1	generate	Run3	generate/STIM_022.jpg
2182.278	1.215	1	generate	Run3	generate/STIM_022.jpg
2186.291	0.873	0	generate	Run3	generate/STIM_023.jpg
2190.105	1.268	1	generate	Run3	generate/STIM_023.jpg
2194.297	1.172	0	generate	Run3	generate/STIM_023.jpg
2199.229	0.937	1	generate	Run3	generate/STIM_023.jpg
2203.147	1.1	1	generate	Run3	generate/STIM_023.jpg
2208.15	1.653	1	generate	Run3	generate/STIM_024.jpg
2212.689	1.526	1	generate	Run3	generate/STIM_024.jpg
2216.508	1.042	1	generate	Run3	generate/STIM_024.jpg
2220.881	1.453	1	generate	Run3	generate/STIM_024.jpg
2224.58	1.086	1	generate	Run3	generate/STIM_024.jpg
2227.875	0.546	1	repeat	Run3	repeat/STIM_000.jpg
2232.174	0.88	1	repeat	Run3	repeat/STIM_000.jpg
2236.293	0.611	1	repeat	Run3	repeat/STIM_000.jpg
2240.311	0.858	0	repeat	Run3	repeat/STIM_000.jpg
2245.081	0.67	0	repeat	Run3	repeat/STIM_000.jpg
2248.98	0.63	1	repeat	Run3	repeat/STIM_001.jpg
2253.24	0.568	1	repeat	Run3	repeat/STIM_001.jpg
2256.315	0.74	0	repeat	Run3	repeat/STIM_001.jpg
2259.23	0.459	1	repeat	Run3	repeat/STIM_001.jpg
2263.133	0.814	1	repeat	Run3	repeat/STIM_001.jpg
2267.625	0.521	1	repeat	Run3	repeat/STIM_002.jpg
2270.881	0.815	1	repeat	Run3	repeat/STIM_002.jpg
2274.287	0.882	1	repeat	Run3	repeat/STIM_002.jpg
2278.845	0.637	1	repeat	Run3	repeat/STIM_002.jpg
2283.415	0.607	1	repeat	Run3	repeat/STIM_002.jpg
2287.432	0.789	1	repeat	Run3	repeat/STIM_003.jpg
2290.556	0.734	0	repeat	Run3	repeat/STIM_003.jpg
2293.65	0.505	1	repeat	Run3	repeat/STIM_003.jpg
2296.399	0.54	1	repeat	Run3	repeat/STIM_003.jpg
2299.768	0.566	1	repeat	Run3	repeat/STIM_003.jpg
2304.22	0.872	0	repeat	Run3	repeat/STIM_004.jpg
2307.869	0.467	1	repeat	Run3	repeat/STIM_004.jpg
2311.722	0.459	1	repeat	Run3	repeat/STIM_004.jpg
2314.265	0.882	1	repeat	Run3	repeat/STIM_004.jpg
2318.422	0.853	1	repeat	Run3	repeat/STIM_004.jpg
2321.709	0.838	0	repeat	Run3	repeat/STIM_005.jpg
2324.701	0.486	0	repeat	Run3	repeat/STIM_005.jpg
2328.807	0.853	1	repeat	Run3	repeat/STIM_005.jpg
2331.79	0.712	0	repeat	Run3	repeat/STIM_005.jpg
2335.782	0.831	0	repeat	Run3	repeat/STIM_005.jpg
2338.973	0.52	1	repeat	Run3	repeat/STIM_006.jpg
2343.363	0.672	0	repeat	Run3	repeat/STIM_006.jpg
2347.992	0.758	1	repeat	Run3	repeat/STIM_006.jpg
2351.72	0.662	1	repeat	Run3	repeat/STIM_006.jpg
2355.943	0.667	1	repeat	Run3	repeat/STIM_006.jpg
2359.55	0.752	0	repeat	Run3	repeat/STIM_007.jpg
2364.234	0.553	1	repeat	Run3	repeat/STIM_007.jpg
2368.118	0.448	0	repeat	Run3	repeat/STIM_007.jpg
2371.251	0.605	1	repeat	Run3	repeat/STIM_007.jpg
2374.345	0.622	1	repeat	Run3	repeat/STIM_007.jpg
2377.392	0.832	1	repeat	Run3	repeat/STIM_008.jpg
2381.702	0.86	1	repeat	Run3	repeat/STIM_008.jpg
2385.6	0.777	1	repeat	Run3	repeat/STIM_008.jpg
2388.556	0.46	1	repeat	Run3	repeat/STIM_008.jpg
2391.744	0.692	1	repeat	Run3	repeat/STIM_008.jpg
2396.042	0.494	1	repeat	Run3	repeat/STIM_009.jpg
2399.701	0.593	1	repeat	Run3	repeat/STIM_009.jpg
2404.157	0.725	1	repeat	Run3	repeat/STIM_009.jpg
2407.785	0.673	1	repeat	Run3	repeat/STIM_009.jpg
2412.083	0.529	1	repeat	Run3	repeat/STIM_009.jpg
2415.317	0.6	1	repeat	Run3	repeat/STIM_010.jpg
2417.976	0.82	1	repeat	Run3	repeat/STIM_010.jpg
2422.333	0.598	1	repeat	Run3	repeat/STIM_010.jpg
2426.248	0.459	0	repeat	Run3	repeat/STIM_010.jpg
2430.106	0.679	1	repeat	Run3	repeat/STIM_010.jpg
2433.624	0.587	1	repeat	Run3	repeat/STIM_011.jpg
2436.443	0.47	1	repeat	Run3	repeat/STIM_011.jpg
2439.613	0.849	1	repeat	Run3	repeat/STIM_011.jpg
2443.132	0.665	1	repeat	Run3	repeat/STIM_011.jpg
2447.579	0.518	1	repeat	Run3	repeat/STIM_011.jpg
2450.998	0.445	1	repeat	Run3	repeat/STIM_012.jpg
2455.433	0.868	1	repeat	Run3	repeat/STIM_012.jpg
2458.493	0.856	1	repeat	Run3	repeat/STIM_012.jpg
2462.276	0.687	0	repeat	Run3	repeat/STIM_012.jpg
2466.206	0.69	1	repeat	Run3	repeat/STIM_012.jpg
2470.143	0.797	1	repeat	Run3	repeat/STIM_013.jpg
2473.531	0.467	1	repeat	Run3	repeat/STIM_013.jpg
2476.145	0.862	0	repeat	Run3	repeat/STIM_013.jpg
2479.389	0.713	1	repeat	Run3	repeat/STIM_013.jpg
2482.192	0.607	1	repeat	Run3	repeat/STIM_013.jpg
2485.791	0.641	1	repeat	Run3	repeat/STIM_014.jpg
2490.213	0.6	1	repeat	Run3	repeat/STIM_014.jpg
2493.291	0.873	1	repeat	Run3	repeat/STIM_014.jpg
2498.164	0.712	1	repeat	Run3	repeat/STIM_014.jpg
2501.498	0.512	1	repeat	Run3	repeat/STIM_014.jpg
2504.032	1.092	1	generate	Run4	generate/STIM_000.jpg
2507.897	1.079	1	generate	Run4	generate/STIM_000.jpg
2511.806	1.658	1	generate	Run4	generate/STIM_000.jpg
2516.758	1.529	1	generate	Run4	generate/STIM_000.jpg
2520.475	0.864	1	generate	Run4	generate/STIM_000.jpg
2523.752	1.716	1	generate	Run4	generate/STIM_001.jpg
2528.485	1.52	1	generate	Run4	generate/STIM_001.jpg
2533.743	1.187	1	generate	Run4	generate/STIM_001.jpg
2538.542	1.374	1	generate	Run4	generate/STIM_001.jpg
2541.986	0.939	1	generate	Run4	generate/STIM_001.jpg
2545.883	1.49	1	generate	Run4	generate/STIM_002.jpg
2549.899	1.349	1	generate	Run4	generate/STIM_002.jpg
2553.499	1.319	1	generate	Run4	generate/STIM_002.jpg
2557.859	1.412	1	generate	Run4	generate/STIM_002.jpg
2561.932	1.168	1	generate	Run4	generate/STIM_002.jpg
2565.264	1.477	1	generate	Run4	generate/STIM_003.jpg
2569.372	1.362	1	generate	Run4	generate/STIM_003.jpg
2573.377	1.586	1	generate	Run4	generate/STIM_003.jpg
2578.375	1.778	1	generate	Run4	generate/STIM_003.jpg
2583.022	1.651	1	generate	Run4	generate/STIM_003.jpg
2587.9	1.52	1	generate	Run4	generate/STIM_004.jpg
2592.008	1.041	1	generate	Run4	generate/STIM_004.jpg
2595.553	0.788	0	generate	Run4	generate/STIM_004.jpg
2600.221	0.934	1	generate	Run4	generate/STIM_004.jpg
2603.952	0.947	1	generate	Run4	generate/STIM_004.jpg
2607.742	1.39	1	generate	Run4	generate/STIM_005.jpg
2612.95	1.031	1	generate	Run4	generate/STIM_005.jpg
2617.525	0.99	1	generate	Run4	generate/STIM_005.jpg
2621.849	1.229	1	generate	Run4	generate/STIM_005.jpg
2627.058	1.312	1	generate	Run4	generate/STIM_005.jpg
2630.884	1.834	0	generate	Run4	generate/STIM_006.jpg
2635.517	1.364	1	generate	Run4	generate/STIM_006.jpg
2638.889	1.573	1	generate	Run4	generate/STIM_006.jpg
2643.328	1.031	1	generate	Run4	generate/STIM_006.jpg
2648.109	1.666	1	generate	Run4	generate/STIM_006.jpg
2651.906	1.543	1	generate	Run4	generate/STIM_007.jpg
2656.505	1.82	1	generate	Run4	generate/STIM_007.jpg
2662.227	1.178	1	generate	Run4	generate/STIM_007.jpg
2665.783	1.631	1	generate	Run4	generate/STIM_007.jpg
2669.662	0.914	1	generate	Run4	generate/STIM_007.jpg
2674.333	1.624	1	generate	Run4	generate/STIM_008.jpg
2678.734	1.765	1	generate	Run4	generate/STIM_008.jpg
2684.452	0.909	1	generate	Run4	generate/STIM_008.jpg
2687.709	1.156	1	generate	Run4	generate/STIM_008.jpg
2692.268	1.327	1	generate	Run4	generate/STIM_008.jpg
2696.905	1.504	1	generate	Run4	generate/STIM_009.jpg
2701.268	1.278	1	generate	Run4	generate/STIM_009.jpg
2704.678	1.057	1	generate	Run4	generate/STIM_009.jpg
2708.807	1.342	0	generate	Run4	generate/STIM_009.jpg
2712.332	1.704	1	generate	Run4	generate/STIM_009.jpg
2718.023	1.818	1	generate	Run4	generate/STIM_010.jpg
2723.277	1.378	1	generate	Run4	generate/STIM_010.jpg
2726.781	0.758	1	generate	Run4	generate/STIM_010.jpg
2731.437	1.046	1	generate	Run4	generate/STIM_010.jpg
2735.415	0.857	1	generate	Run4	generate/STIM_010.jpg
2739.416	1.451	1	generate	Run4	generate/STIM_011.jpg
2743.443	0.974	1	generate	Run4	generate/STIM_011.jpg
2747.953	0.87	1	generate	Run4	generate/STIM_011.jpg
2752.15	1.799	1	generate	Run4	generate/STIM_011.jpg
2757.247	1.432	0	generate	Run4	generate/STIM_011.jpg
2762.601	0.926	1	generate	Run4	generate/STIM_012.jpg
2766.158	1.081	1	generate	Run4	generate/STIM_012.jpg
2769.905	1.351	1	generate	Run4	generate/STIM_012.jpg
2774.308	1.56	1	generate	Run4	generate/STIM_012.jpg
2778.48	0.763	1	generate	Run4	generate/STIM_012.jpg
2783.046	0.772	1	generate	Run4	generate/STIM_013.jpg
2787.389	0.929	1	generate	Run4	generate/STIM_013.jpg
2791.683	1.466	1	generate	Run4	generate/STIM_013.jpg
2796.114	1.381	0	generate	Run4	generate/STIM_013.jpg
2801.156	0.801	1	generate	Run4	generate/STIM_013.jpg
2804.715	0.943	1	generate	Run4	generate/STIM_014.jpg
2808.19	1.211	1	generate	Run4	generate/STIM_014.jpg
2812.149	1.372	1	generate	Run4	generate/STIM_014.jpg
2815.56	1.559	1	generate	Run4	generate/STIM_014.jpg
2819.782	1.092	1	generate	Run4	generate/STIM_014.jpg
2824.057	1.11	0	generate	Run4	generate/STIM_015.jpg
2828.612	1.749	1	generate	Run4	generate/STIM_015.jpg
2833.996	1.598	1	generate	Run4	generate/STIM_015.jpg
2839.026	1.037	1	generate	Run4	generate/STIM_015.jpg
2843.633	0.833	1	generate	Run4	generate/STIM_015.jpg
2846.994	0.896	1	generate	Run4	generate/STIM_016.jpg
2850.857	1.672	1	generate	Run4	generate/STIM_016.jpg
2854.869	0.795	1	generate	Run4	generate/STIM_016.jpg
2858.218	1.782	1	generate	Run4	generate/STIM_016.jpg
2863.061	1.012	1	generate	Run4	generate/STIM_016.jpg
2866.742	1.565	0	generate	Run4	generate/STIM_017.jpg
2871.39	1.463	1	generate	Run4	generate/STIM_017.jpg
2875.871	0.918	1	generate	Run4	generate/STIM_017.jpg
2880.366	1.644	1	generate	Run4	generate/STIM_017.jpg
2885.602	1.034	1	generate	Run4	generate/STIM_017.jpg
2890.243	1.564	1	generate	Run4	generate/STIM_018.jpg
2894.195	0.958	1	generate	Run4	generate/STIM_018.jpg
2899.12	1.571	1	generate	Run4	generate/STIM_018.jpg
2903.131	1.42	1	generate	Run4	generate/STIM_018.jpg
2907.574	0.813	1	generate	Run4	generate/STIM_018.jpg
2911.799	1.327	0	generate	Run4	generate/STIM_019.jpg
2915.664	1.58	1	generate	Run4	generate/STIM_019.jpg
2921.228	1.605	1	generate	Run4	generate/STIM_019.jpg
2924.965	0.923	1	generate	Run4	generate/STIM_019.jpg
2929.642	1.061	1	generate	Run4	generate/STIM_019.jpg
2934.491	1.852	1	generate	Run4	generate/STIM_020.jpg
2939.442	1.356	1	generate	Run4	generate/STIM_020.jpg
2944.194	0.975	1	generate	Run4	generate/STIM_020.jpg
2947.343	1.583	1	generate	Run4	generate/STIM_020.jpg
2951.509	1.488	1	generate	Run4	generate/STIM_020.jpg
2955.209	1.499	0	generate	Run4	generate/STIM_021.jpg
2958.983	1.032	1	generate	Run4	generate/STIM_021.jpg
2962.763	1.643	1	generate	Run4	generate/STIM_021.jpg
2967.014	0.998	1	generate	Run4	generate/STIM_021.jpg
2970.013	1.811	1	generate	Run4	generate/STIM_021.jpg
2974.77	1.707	1	generate	Run4	generate/STIM_022.jpg
2979.896	0.827	1	generate	Run4	generate/STIM_022.jpg
2982.77	1.024	1	generate	Run4	generate/STIM_022.jpg
2986.282	1.721	1	generate	Run4	generate/STIM_022.jpg
2991.151	1.218	1	generate	Run4	generate/STIM_022.jpg
2996.292	0.844	1	generate	Run4	generate/STIM_023.jpg
2999.756	1.64	1	generate	Run4	generate/STIM_023.jpg
3003.529	1.576	1	generate	Run4	generate/STIM_023.jpg
3007.376	1.138	1	generate	Run4	generate/STIM_023.jpg
3011.119	1.524	1	generate	Run4	generate/STIM_023.jpg
3015.422	0.814	1	generate	Run4	generate/STIM_024.jpg
3019.899	0.912	1	generate	Run4	generate/STIM_024.jpg
3023.877	1.089	1	generate	Run4	generate/STIM_024.jpg
3028.148	0.96	1	generate	Run4	generate/STIM_024.jpg
3031.493	1.172	1	generate	Run4	generate/STIM_024.jpg
3036.176	0.447	1	repeat	Run4	repeat/STIM_000.jpg
3039.564	0.66	1	repeat	Run4	repeat/STIM_000.jpg
3043.699	0.479	0	repeat	Run4	repeat/STIM_000.jpg
3047.306	0.67	1	repeat	Run4	repeat/STIM_000.jpg
3050.811	0.548	1	repeat	Run4	repeat/STIM_000.jpg
3053.78	0.766	1	repeat	Run4	repeat/STIM_001.jpg
3057.442	0.54	1	repeat	Run4	repeat/STIM_001.jpg
3061.804	0.589	1	repeat	Run4	repeat/STIM_001.jpg
3065.984	0.722	1	repeat	Run4	repeat/STIM_001.jpg
3069.617	0.497	1	repeat	Run4	repeat/STIM_001.jpg
3073.591	0.453	1	repeat	Run4	repeat/STIM_002.jpg
3076.124	0.457	1	repeat	Run4	repeat/STIM_002.jpg
3079.549	0.619	1	repeat	Run4	repeat/STIM_002.jpg
3083.944	0.444	0	repeat	Run4	repeat/STIM_002.jpg
3087.203	0.712	1	repeat	Run4	repeat/STIM_002.jpg
3091.844	0.544	1	repeat	Run4	repeat/STIM_003.jpg
3095.979	0.773	1	repeat	Run4	repeat/STIM_003.jpg
3099.726	0.622	0	repeat	Run4	repeat/STIM_003.jpg
3102.633	0.492	1	repeat	Run4	repeat/STIM_003.jpg
3107.078	0.559	1	repeat	Run4	repeat/STIM_003.jpg
3110.42	0.692	1	repeat	Run4	repeat/STIM_004.jpg
3115.099	0.456	1	repeat	Run4	repeat/STIM_004.jpg
3118.817	0.514	1	repeat	Run4	repeat/STIM_004.jpg
3121.873	0.604	1	repeat	Run4	repeat/STIM_004.jpg
3126.169	0.547	1	repeat	Run4	repeat/STIM_004.jpg
3129.796	0.67	1	repeat	Run4	repeat/STIM_005.jpg
3134.078	0.742	0	repeat	Run4	repeat/STIM_005.jpg
3138.554	0.649	1	repeat	Run4	repeat/STIM_005.jpg
3143.157	0.735	1	repeat	Run4	repeat/STIM_005.jpg
3147.722	0.875	1	repeat	Run4	repeat/STIM_005.jpg
3152.082	0.457	0	repeat	Run4	repeat/STIM_006.jpg
3155.351	0.629	1	repeat	Run4	repeat/STIM_006.jpg
3158.82	0.513	1	repeat	Run4	repeat/STIM_006.jpg
3162.998	0.508	1	repeat	Run4	repeat/STIM_006.jpg
3167.249	0.608	1	repeat	Run4	repeat/STIM_006.jpg
3171.669	0.701	0	repeat	Run4	repeat/STIM_007.jpg
3176.297	0.805	1	repeat	Run4	repeat/STIM_007.jpg
3179.424	0.823	1	repeat	Run4	repeat/STIM_007.jpg
3183.633	0.595	0	repeat	Run4	repeat/STIM_007.jpg
3187.74	0.64	1	repeat	Run4	repeat/STIM_007.jpg
3192.361	0.791	1	repeat	Run4	repeat/STIM_008.jpg
3195.201	0.472	1	repeat	Run4	repeat/STIM_008.jpg
3198.623	0.775	0	repeat	Run4	repeat/STIM_008.jpg
3202.863	0.821	1	repeat	Run4	repeat/STIM_008.jpg
3207.242	0.68	1	repeat	Run4	repeat/STIM_008.jpg
3211.749	0.673	1	repeat	Run4	repeat/STIM_009.jpg
3216.383	0.445	1	repeat	Run4	repeat/STIM_009.jpg
3219.859	0.601	1	repeat	Run4	repeat/STIM_009.jpg
3223.984	0.61	0	repeat	Run4	repeat/STIM_009.jpg
3227.633	0.641	0	repeat	Run4	repeat/STIM_009.jpg
3231.161	0.518	1	repeat	Run4	repeat/STIM_010.jpg
3235.674	0.579	1	repeat	Run4	repeat/STIM_010.jpg
3238.605	0.82	1	repeat	Run4	repeat/STIM_010.jpg
3241.558	0.65	1	repeat	Run4	repeat/STIM_010.jpg
3245.385	0.452	0	repeat	Run4	repeat/STIM_010.jpg
3248.167	0.467	1	repeat	Run4	repeat/STIM_011.jpg
3252.081	0.668	1	repeat	Run4	repeat/STIM_011.jpg
3256.0	0.533	1	repeat	Run4	repeat/STIM_011.jpg
3260.304	0.664	1	repeat	Run4	repeat/STIM_011.jpg
3263.101	0.876	0	repeat	Run4	repeat/STIM_011.jpg
3266.44	0.87	1	repeat	Run4	repeat/STIM_012.jpg
3270.252	0.79	1	repeat	Run4	repeat/STIM_012.jpg
3274.486	0.569	1	repeat	Run4	repeat/STIM_012.jpg
3277.506	0.497	1	repeat	Run4	repeat/STIM_012.jpg
3281.017	0.714	1	repeat	Run4	repeat/STIM_012.jpg
3283.844	0.701	1	repeat	Run4	repeat/STIM_013.jpg
3287.488	0.857	1	repeat	Run4	repeat/STIM_013.jpg
3291.263	0.467	0	repeat	Run4	repeat/STIM_013.jpg
3294.045	0.663	1	repeat	Run4	repeat/STIM_013.jpg
3298.046	0.63	1	repeat	Run4	repeat/STIM_013.jpg
3300.845	0.875	1	repeat	Run4	repeat/STIM_014.jpg
3303.794	0.862	1	repeat	Run4	repeat/STIM_014.jpg
3308.082	0.533	0	repeat	Run4	repeat/STIM_014.jpg
3310.769	0.775	1	repeat	Run4	repeat/STIM_014.jpg
3315.101	0.84	1	repeat	Run4	repeat/STIM_014.jpg
