onset	duration	accuracy	trial_type	learning_stage	stimulus
0.0	1.707	incorrect	generate	Run1	generate/STIM_000.jpg
4.103	2.003	correct	generate	Run1	generate/STIM_000.jpg
9.411	2.275	correct	generate	Run1	generate/STIM_000.jpg
15.594	1.248	correct	generate	Run1	generate/STIM_000.jpg
20.101	1.354	correct	generate	Run1	generate/STIM_000.jpg
25.22	2.215	correct	generate	Run1	generate/STIM_001.jpg
31.16	2.314	correct	generate	Run1	generate/STIM_001.jpg
37.087	2.271	incorrect	generate	Run1	generate/STIM_001.jpg
42.802	1.217	correct	generate	Run1	generate/STIM_001.jpg
47.973	1.227	correct	generate	Run1	generate/STIM_001.jpg
51.334	2.017	incorrect	generate	Run1	generate/STIM_002.jpg
56.488	2.365	incorrect	generate	Run1	generate/STIM_002.jpg
62.618	1.196	correct	generate	Run1	generate/STIM_002.jpg
67.582	1.089	correct	generate	Run1	generate/STIM_002.jpg
71.787	0.956	incorrect	generate	Run1	generate/STIM_002.jpg
75.062	2.584	correct	generate	Run1	generate/STIM_003.jpg
79.675	1.853	incorrect	generate	Run1	generate/STIM_003.jpg
83.529	2.356	correct	generate	Run1	generate/STIM_003.jpg
88.399	1.714	incorrect	generate	Run1	generate/STIM_003.jpg
92.937	1.5	incorrect	generate	Run1	generate/STIM_003.jpg
96.781	1.18	incorrect	generate	Run1	generate/STIM_004.jpg
100.671	1.302	correct	generate	Run1	generate/STIM_004.jpg
105.95	1.125	correct	generate	Run1	generate/STIM_004.jpg
109.475	2.172	correct	generate	Run1	generate/STIM_004.jpg
114.384	1.726	correct	generate	Run1	generate/STIM_004.jpg
119.662	1.613	correct	generate	Run1	generate/STIM_005.jpg
124.991	1.939	correct	generate	Run1	generate/STIM_005.jpg
130.506	2.303	incorrect	generate	Run1	generate/STIM_005.jpg
135.252	1.712	correct	generate	Run1	generate/STIM_005.jpg
139.65	0.891	correct	generate	Run1	generate/STIM_005.jpg
144.495	1.696	correct	generate	Run1	generate/STIM_006.jpg
148.294	1.158	incorrect	generate	Run1	generate/STIM_006.jpg
153.154	1.123	correct	generate	Run1	generate/STIM_006.jpg
156.872	1.648	correct	generate	Run1	generate/STIM_006.jpg
160.99	1.084	incorrect	generate	Run1	generate/STIM_006.jpg
165.522	1.434	correct	generate	Run1	generate/STIM_007.jpg
169.282	1.354	correct	generate	Run1	generate/STIM_007.jpg
174.48	2.242	correct	generate	Run1	generate/STIM_007.jpg
180.56	1.64	correct	generate	Run1	generate/STIM_007.jpg
184.856	1.568	correct	generate	Run1	generate/STIM_007.jpg
188.527	1.453	correct	generate	Run1	generate/STIM_008.jpg
193.089	2.093	incorrect	generate	Run1	generate/STIM_008.jpg
198.25	1.105	correct	generate	Run1	generate/STIM_008.jpg
202.105	1.478	correct	generate	Run1	generate/STIM_008.jpg
206.087	1.675	incorrect	generate	Run1	generate/STIM_008.jpg
211.592	1.859	correct	generate	Run1	generate/STIM_009.jpg
216.514	2.399	correct	generate	Run1	generate/STIM_009.jpg
222.271	2.29	incorrect	generate	Run1	generate/STIM_009.jpg
227.447	1.478	correct	generate	Run1	generate/STIM_009.jpg
232.891	1.825	correct	generate	Run1	generate/STIM_009.jpg
238.137	2.22	correct	generate	Run1	generate/STIM_010.jpg
243.185	2.308	incorrect	generate	Run1	generate/STIM_010.jpg
249.122	1.859	correct	generate	Run1	generate/STIM_010.jpg
254.348	1.38	correct	generate	Run1	generate/STIM_010.jpg
259.141	0.952	correct	generate	Run1	generate/STIM_010.jpg
262.759	1.652	correct	generate	Run1	generate/STIM_011.jpg
268.249	2.298	correct	generate	Run1	generate/STIM_011.jpg
274.28	1.159	correct	generate	Run1	generate/STIM_011.jpg
278.911	2.069	correct	generate	Run1	generate/STIM_011.jpg
283.312	1.944	incorrect	generate	Run1	generate/STIM_011.jpg
287.737	2.538	correct	generate	Run1	generate/STIM_012.jpg
292.448	1.448	correct	generate	Run1	generate/STIM_012.jpg
297.493	2.364	incorrect	generate	Run1	generate/STIM_012.jpg
302.329	1.054	incorrect	generate	Run1	generate/STIM_012.jpg
305.414	1.88	correct	generate	Run1	generate/STIM_012.jpg
311.168	2.587	correct	generate	Run1	generate/STIM_013.jpg
317.05	2.187	correct	generate	Run1	generate/STIM_013.jpg
323.009	2.063	correct	generate	Run1	generate/STIM_013.jpg
327.936	1.776	correct	generate	Run1	generate/STIM_013.jpg
333.686	1.695	correct	generate	Run1	generate/STIM_013.jpg
339.075	2.534	correct	generate	Run1	generate/STIM_014.jpg
344.794	1.721	correct	generate	Run1	generate/STIM_014.jpg
348.807	1.283	correct	generate	Run1	generate/STIM_014.jpg
352.989	1.606	incorrect	generate	Run1	generate/STIM_014.jpg
357.575	1.285	correct	generate	Run1	generate/STIM_014.jpg
362.433	2.518	incorrect	generate	Run1	generate/STIM_015.jpg
368.723	1.722	correct	generate	Run1	generate/STIM_015.jpg
373.095	1.365	correct	generate	Run1	generate/STIM_015.jpg
377.085	1.668	correct	generate	Run1	generate/STIM_015.jpg
382.739	1.325	correct	generate	Run1	generate/STIM_015.jpg
387.403	1.307	incorrect	generate	Run1	generate/STIM_016.jpg
392.678	1.719	incorrect	generate	Run1	generate/STIM_016.jpg
396.687	2.005	correct	generate	Run1	generate/STIM_016.jpg
402.009	1.903	correct	generate	Run1	generate/STIM_016.jpg
406.358	2.105	incorrect	generate	Run1	generate/STIM_016.jpg
412.444	2.606	correct	generate	Run1	generate/STIM_017.jpg
417.382	1.145	correct	generate	Run1	generate/STIM_017.jpg
422.037	1.127	incorrect	generate	Run1	generate/STIM_017.jpg
426.052	1.286	correct	generate	Run1	generate/STIM_017.jpg
431.008	1.24	correct	generate	Run1	generate/STIM_017.jpg
435.527	1.879	correct	generate	Run1	generate/STIM_018.jpg
439.917	2.154	correct	generate	Run1	generate/STIM_018.jpg
445.857	1.894	correct	generate	Run1	generate/STIM_018.jpg
451.417	2.206	correct	generate	Run1	generate/STIM_018.jpg
457.073	1.145	incorrect	generate	Run1	generate/STIM_018.jpg
461.694	1.306	incorrect	generate	Run1	generate/STIM_019.jpg
465.57	1.196	correct	generate	Run1	generate/STIM_019.jpg
470.641	2.308	correct	generate	Run1	generate/STIM_019.jpg
475.396	0.914	incorrect	generate	Run1	generate/STIM_019.jpg
479.132	1.158	incorrect	generate	Run1	generate/STIM_019.jpg
483.311	1.84	incorrect	generate	Run1	generate/STIM_020.jpg
487.517	2.172	correct	generate	Run1	generate/STIM_020.jpg
491.728	1.284	incorrect	generate	Run1	generate/STIM_020.jpg
495.584	1.109	correct	generate	Run1	generate/STIM_020.jpg
500.021	1.918	incorrect	generate	Run1	generate/STIM_020.jpg
505.116	1.196	incorrect	generate	Run1	generate/STIM_021.jpg
508.366	1.985	correct	generate	Run1	generate/STIM_021.jpg
512.387	1.336	correct	generate	Run1	generate/STIM_021.jpg
517.577	1.462	correct	generate	Run1	generate/STIM_021.jpg
521.805	1.962	incorrect	generate	Run1	generate/STIM_021.jpg
527.367	1.832	correct	generate	Run1	generate/STIM_022.jpg
531.47	1.451	correct	generate	Run1	generate/STIM_022.jpg
535.549	2.282	incorrect	generate	Run1	generate/STIM_022.jpg
541.281	1.063	correct	generate	Run1	generate/STIM_022.jpg
544.383	1.722	correct	generate	Run1	generate/STIM_022.jpg
548.632	1.992	correct	generate	Run1	generate/STIM_023.jpg
552.73	1.655	correct	generate	Run1	generate/STIM_023.jpg
556.987	2.046	correct	generate	Run1	generate/STIM_023.jpg
562.06	2.069	correct	generate	Run1	generate/STIM_023.jpg
567.845	0.93	incorrect	generate	Run1	generate/STIM_023.jpg
571.675	2.426	correct	generate	Run1	generate/STIM_024.jpg
577.01	1.806	correct	generate	Run1	generate/STIM_024.jpg
582.433	1.103	incorrect	generate	Run1	generate/STIM_024.jpg
586.702	0.926	correct	generate	Run1	generate/STIM_024.jpg
590.009	1.116	incorrect	generate	Run1	generate/STIM_024.jpg
594.951	0.636	correct	repeat	Run1	repeat/STIM_000.jpg
597.765	0.448	correct	repeat	Run1	repeat/STIM_000.jpg
601.781	0.817	correct	repeat	Run1	repeat/STIM_000.jpg
604.744	0.471	correct	repeat	Run1	repeat/STIM_000.jpg
608.6	0.79	incorrect	repeat	Run1	repeat/STIM_000.jpg
612.416	0.571	correct	repeat	Run1	repeat/STIM_001.jpg
616.924	0.591	correct	repeat	Run1	repeat/STIM_001.jpg
619.539	0.754	correct	repeat	Run1	repeat/STIM_001.jpg
623.746	0.828	correct	repeat	Run1	repeat/STIM_001.jpg
626.728	0.613	correct	repeat	Run1	repeat/STIM_001.jpg
630.611	0.757	correct	repeat	Run1	repeat/STIM_002.jpg
634.931	0.662	correct	repeat	Run1	repeat/STIM_002.jpg
638.031	0.445	correct	repeat	Run1	repeat/STIM_002.jpg
641.137	0.859	correct	repeat	Run1	repeat/STIM_002.jpg
645.806	0.881	correct	repeat	Run1	repeat/STIM_002.jpg
648.722	0.601	correct	repeat	Run1	repeat/STIM_003.jpg
652.575	0.84	correct	repeat	Run1	repeat/STIM_003.jpg
656.77	0.494	correct	repeat	Run1	repeat/STIM_003.jpg
659.811	0.551	correct	repeat	Run1	repeat/STIM_003.jpg
662.435	0.522	correct	repeat	Run1	repeat/STIM_003.jpg
664.97	0.784	correct	repeat	Run1	repeat/STIM_004.jpg
668.663	0.776	correct	repeat	Run1	repeat/STIM_004.jpg
672.82	0.659	correct	repeat	Run1	repeat/STIM_004.jpg
677.336	0.721	correct	repeat	Run1	repeat/STIM_004.jpg
681.373	0.524	correct	repeat	Run1	repeat/STIM_004.jpg
684.232	0.795	correct	repeat	Run1	repeat/STIM_005.jpg
687.102	0.732	correct	repeat	Run1	repeat/STIM_005.jpg
690.879	0.813	correct	repeat	Run1	repeat/STIM_005.jpg
695.383	0.568	correct	repeat	Run1	repeat/STIM_005.jpg
699.151	0.753	incorrect	repeat	Run1	repeat/STIM_005.jpg
702.909	0.445	correct	repeat	Run1	repeat/STIM_006.jpg
706.107	0.479	correct	repeat	Run1	repeat/STIM_006.jpg
710.398	0.597	correct	repeat	Run1	repeat/STIM_006.jpg
713.544	0.634	correct	repeat	Run1	repeat/STIM_006.jpg
716.646	0.822	correct	repeat	Run1	repeat/STIM_006.jpg
720.131	0.739	correct	repeat	Run1	repeat/STIM_007.jpg
724.402	0.875	correct	repeat	Run1	repeat/STIM_007.jpg
727.444	0.684	incorrect	repeat	Run1	repeat/STIM_007.jpg
730.917	0.739	correct	repeat	Run1	repeat/STIM_007.jpg
735.428	0.681	correct	repeat	Run1	repeat/STIM_007.jpg
738.238	0.602	correct	repeat	Run1	repeat/STIM_008.jpg
741.984	0.601	incorrect	repeat	Run1	repeat/STIM_008.jpg
744.835	0.685	correct	repeat	Run1	repeat/STIM_008.jpg
748.197	0.737	incorrect	repeat	Run1	repeat/STIM_008.jpg
752.08	0.68	incorrect	repeat	Run1	repeat/STIM_008.jpg
756.191	0.45	correct	repeat	Run1	repeat/STIM_009.jpg
758.859	0.679	correct	repeat	Run1	repeat/STIM_009.jpg
762.329	0.789	correct	repeat	Run1	repeat/STIM_009.jpg
766.097	0.663	correct	repeat	Run1	repeat/STIM_009.jpg
770.474	0.772	correct	repeat	Run1	repeat/STIM_009.jpg
774.973	0.636	correct	repeat	Run1	repeat/STIM_010.jpg
777.762	0.584	incorrect	repeat	Run1	repeat/STIM_010.jpg
781.997	0.781	correct	repeat	Run1	repeat/STIM_010.jpg
786.05	0.847	correct	repeat	Run1	repeat/STIM_010.jpg
790.493	0.614	correct	repeat	Run1	repeat/STIM_010.jpg
793.446	0.457	correct	repeat	Run1	repeat/STIM_011.jpg
796.955	0.708	correct	repeat	Run1	repeat/STIM_011.jpg
800.587	0.823	correct	repeat	Run1	repeat/STIM_011.jpg
805.094	0.822	correct	repeat	Run1	repeat/STIM_011.jpg
808.02	0.482	correct	repeat	Run1	repeat/STIM_011.jpg
811.976	0.552	correct	repeat	Run1	repeat/STIM_012.jpg
816.15	0.635	correct	repeat	Run1	repeat/STIM_012.jpg
820.101	0.603	correct	repeat	Run1	repeat/STIM_012.jpg
823.377	0.852	correct	repeat	Run1	repeat/STIM_012.jpg
827.479	0.678	correct	repeat	Run1	repeat/STIM_012.jpg
831.758	0.706	correct	repeat	Run1	repeat/STIM_013.jpg
834.834	0.549	correct	repeat	Run1	repeat/STIM_013.jpg
838.855	0.667	correct	repeat	Run1	repeat/STIM_013.jpg
843.069	0.627	correct	repeat	Run1	repeat/STIM_013.jpg
847.001	0.669	correct	repeat	Run1	repeat/STIM_013.jpg
851.167	0.862	incorrect	repeat	Run1	repeat/STIM_014.jpg
854.388	0.694	incorrect	repeat	Run1	repeat/STIM_014.jpg
858.648	0.505	correct	repeat	Run1	repeat/STIM_014.jpg
862.702	0.64	incorrect	repeat	Run1	repeat/STIM_014.jpg
866.907	0.501	correct	repeat	Run1	repeat/STIM_014.jpg
871.022	1.684	correct	generate	Run2	generate/STIM_000.jpg
876.643	0.874	correct	generate	Run2	generate/STIM_000.jpg
879.671	1.188	correct	generate	Run2	generate/STIM_000.jpg
883.743	0.902	correct	generate	Run2	generate/STIM_000.jpg
887.881	1.22	incorrect	generate	Run2	generate/STIM_000.jpg
892.046	2.065	correct	generate	Run2	generate/STIM_001.jpg
896.643	1.013	correct	generate	Run2	generate/STIM_001.jpg
900.072	1.546	correct	generate	Run2	generate/STIM_001.jpg
903.967	1.586	correct	generate	Run2	generate/STIM_001.jpg
909.18	1.786	incorrect	generate	Run2	generate/STIM_001.jpg
914.54	1.025	correct	generate	Run2	generate/STIM_002.jpg
917.609	2.03	correct	generate	Run2	generate/STIM_002.jpg
923.306	1.98	incorrect	generate	Run2	generate/STIM_002.jpg
928.672	0.809	correct	generate	Run2	generate/STIM_002.jpg
931.833	1.374	correct	generate	Run2	generate/STIM_002.jpg
935.269	0.92	correct	generate	Run2	generate/STIM_003.jpg
938.47	1.993	correct	generate	Run2	generate/STIM_003.jpg
943.403	1.609	correct	generate	Run2	generate/STIM_003.jpg
948.734	1.307	correct	generate	Run2	generate/STIM_003.jpg
952.644	0.913	correct	generate	Run2	generate/STIM_003.jpg
957.142	1.092	correct	generate	Run2	generate/STIM_004.jpg
960.251	2.034	correct	generate	Run2	generate/STIM_004.jpg
965.02	0.893	correct	generate	Run2	generate/STIM_004.jpg
969.885	1.486	incorrect	generate	Run2	generate/STIM_004.jpg
973.992	1.209	correct	generate	Run2	generate/STIM_004.jpg
978.353	2.024	correct	generate	Run2	generate/STIM_005.jpg
983.372	1.925	correct	generate	Run2	generate/STIM_005.jpg
987.439	0.982	correct	generate	Run2	generate/STIM_005.jpg
992.083	1.435	correct	generate	Run2	generate/STIM_005.jpg
996.578	0.873	incorrect	generate	Run2	generate/STIM_005.jpg
999.826	1.199	correct	generate	Run2	generate/STIM_006.jpg
1004.24	1.06	incorrect	generate	Run2	generate/STIM_006.jpg
1009.048	1.033	correct	generate	Run2	generate/STIM_006.jpg
1013.005	0.932	correct	generate	Run2	generate/STIM_006.jpg
1017.694	1.581	correct	generate	Run2	generate/STIM_006.jpg
1021.515	1.915	correct	generate	Run2	generate/STIM_007.jpg
1026.427	1.591	incorrect	generate	Run2	generate/STIM_007.jpg
1030.551	1.607	correct	generate	Run2	generate/STIM_007.jpg
1034.197	1.772	incorrect	generate	Run2	generate/STIM_007.jpg
1039.623	0.865	incorrect	generate	Run2	generate/STIM_007.jpg
1043.46	0.959	correct	generate	Run2	generate/STIM_008.jpg
1046.755	1.714	correct	generate	Run2	generate/STIM_008.jpg
1051.824	1.223	incorrect	generate	Run2	generate/STIM_008.jpg
1056.339	1.13	correct	generate	Run2	generate/STIM_008.jpg
1059.788	0.951	correct	generate	Run2	generate/STIM_008.jpg
1063.583	1.16	incorrect	generate	Run2	generate/STIM_009.jpg
1066.983	1.571	correct	generate	Run2	generate/STIM_009.jpg
1070.958	1.468	correct	generate	Run2	generate/STIM_009.jpg
1075.751	1.644	correct	generate	Run2	generate/STIM_009.jpg
1079.692	0.782	correct	generate	Run2	generate/STIM_009.jpg
1083.871	2.123	correct	generate	Run2	generate/STIM_010.jpg
1089.044	1.177	correct	generate	Run2	generate/STIM_010.jpg
1092.359	1.61	correct	generate	Run2	generate/STIM_010.jpg
1096.576	1.168	incorrect	generate	Run2	generate/STIM_010.jpg
1101.125	1.11	correct	generate	Run2	generate/STIM_010.jpg
1105.56	1.76	correct	generate	Run2	generate/STIM_011.jpg
1110.843	0.93	incorrect	generate	Run2	generate/STIM_011.jpg
1115.53	1.299	correct	generate	Run2	generate/STIM_011.jpg
1119.324	1.503	correct	generate	Run2	generate/STIM_011.jpg
1122.847	1.734	correct	generate	Run2	generate/STIM_011.jpg
1128.197	1.043	correct	generate	Run2	generate/STIM_012.jpg
1132.694	1.275	correct	generate	Run2	generate/STIM_012.jpg
1137.842	1.053	correct	generate	Run2	generate/STIM_012.jpg
1141.028	1.276	incorrect	generate	Run2	generate/STIM_012.jpg
1145.376	1.506	correct	generate	Run2	generate/STIM_012.jpg
1149.086	1.474	correct	generate	Run2	generate/STIM_013.jpg
1152.917	2.02	correct	generate	Run2	generate/STIM_013.jpg
1158.377	1.601	incorrect	generate	Run2	generate/STIM_013.jpg
1162.484	1.411	incorrect	generate	Run2	generate/STIM_013.jpg
1166.795	1.451	correct	generate	Run2	generate/STIM_013.jpg
1170.451	1.795	correct	generate	Run2	generate/STIM_014.jpg
1175.739	0.966	correct	generate	Run2	generate/STIM_014.jpg
1179.594	0.953	incorrect	generate	Run2	generate/STIM_014.jpg
1183.202	1.242	incorrect	generate	Run2	generate/STIM_014.jpg
1187.476	1.104	correct	generate	Run2	generate/STIM_014.jpg
1191.145	2.14	correct	generate	Run2	generate/STIM_015.jpg
1195.519	1.468	incorrect	generate	Run2	generate/STIM_015.jpg
1199.669	0.853	correct	generate	Run2	generate/STIM_015.jpg
1202.974	1.365	correct	generate	Run2	generate/STIM_015.jpg
1207.84	1.44	correct	generate	Run2	generate/STIM_015.jpg
1212.281	2.242	correct	generate	Run2	generate/STIM_016.jpg
1217.358	1.022	correct	generate	Run2	generate/STIM_016.jpg
1221.644	1.369	incorrect	generate	Run2	generate/STIM_016.jpg
1225.104	1.175	incorrect	generate	Run2	generate/STIM_016.jpg
1228.771	1.334	correct	generate	Run2	generate/STIM_016.jpg
1233.818	1.656	correct	generate	Run2	generate/STIM_017.jpg
1238.572	1.14	correct	generate	Run2	generate/STIM_017.jpg
1243.703	1.554	correct	generate	Run2	generate/STIM_017.jpg
1248.896	0.753	correct	generate	Run2	generate/STIM_017.jpg
1253.036	0.905	correct	generate	Run2	generate/STIM_017.jpg
1257.379	2.116	incorrect	generate	Run2	generate/STIM_018.jpg
1263.474	1.529	correct	generate	Run2	generate/STIM_018.jpg
1267.387	0.809	incorrect	generate	Run2	generate/STIM_018.jpg
1271.42	1.791	incorrect	generate	Run2	generate/STIM_018.jpg
1277.052	1.118	incorrect	generate	Run2	generate/STIM_018.jpg
1281.487	1.636	incorrect	generate	Run2	generate/STIM_019.jpg
1285.606	1.056	incorrect	generate	Run2	generate/STIM_019.jpg
1289.981	1.0	correct	generate	Run2	generate/STIM_019.jpg
1293.288	1.73	incorrect	generate	Run2	generate/STIM_019.jpg
1298.118	1.22	correct	generate	Run2	generate/STIM_019.jpg
1302.786	1.0	correct	generate	Run2	generate/STIM_020.jpg
1307.064	1.451	correct	generate	Run2	generate/STIM_020.jpg
1311.915	1.173	incorrect	generate	Run2	generate/STIM_020.jpg
1315.311	0.792	correct	generate	Run2	generate/STIM_020.jpg
1318.587	1.259	correct	generate	Run2	generate/STIM_020.jpg
1322.794	1.344	incorrect	generate	Run2	generate/STIM_021.jpg
1326.625	0.986	correct	generate	Run2	generate/STIM_021.jpg
1330.407	1.392	incorrect	generate	Run2	generate/STIM_021.jpg
1335.263	1.354	correct	generate	Run2	generate/STIM_021.jpg
1340.259	1.775	correct	generate	Run2	generate/STIM_021.jpg
1344.058	1.8	correct	generate	Run2	generate/STIM_022.jpg
1349.847	0.88	correct	generate	Run2	generate/STIM_022.jpg
1353.455	1.608	correct	generate	Run2	generate/STIM_022.jpg
1357.89	1.715	correct	generate	Run2	generate/STIM_022.jpg
1361.958	1.235	correct	generate	Run2	generate/STIM_022.jpg
1366.826	1.361	correct	generate	Run2	generate/STIM_023.jpg
1371.395	1.796	incorrect	generate	Run2	generate/STIM_023.jpg
1376.5	0.858	incorrect	generate	Run2	generate/STIM_023.jpg
1381.097	1.728	correct	generate	Run2	generate/STIM_023.jpg
1386.508	1.655	correct	generate	Run2	generate/STIM_023.jpg
1391.698	0.946	correct	generate	Run2	generate/STIM_024.jpg
1395.911	1.79	incorrect	generate	Run2	generate/STIM_024.jpg
1401.264	1.191	correct	generate	Run2	generate/STIM_024.jpg
1406.162	1.503	correct	generate	Run2	generate/STIM_024.jpg
1410.657	1.397	incorrect	generate	Run2	generate/STIM_024.jpg
1415.915	0.622	correct	repeat	Run2	repeat/STIM_000.jpg
1419.174	0.726	correct	repeat	Run2	repeat/STIM_000.jpg
1423.523	0.881	correct	repeat	Run2	repeat/STIM_000.jpg
1428.202	0.634	correct	repeat	Run2	repeat/STIM_000.jpg
1431.82	0.526	correct	repeat	Run2	repeat/STIM_000.jpg
1435.845	0.59	correct	repeat	Run2	repeat/STIM_001.jpg
1439.245	0.549	correct	repeat	Run2	repeat/STIM_001.jpg
1442.303	0.667	correct	repeat	Run2	repeat/STIM_001.jpg
1446.795	0.475	correct	repeat	Run2	repeat/STIM_001.jpg
1451.252	0.866	correct	repeat	Run2	repeat/STIM_001.jpg
1455.07	0.444	correct	repeat	Run2	repeat/STIM_002.jpg
1459.261	0.671	correct	repeat	Run2	repeat/STIM_002.jpg
1463.282	0.846	correct	repeat	Run2	repeat/STIM_002.jpg
1468.054	0.804	correct	repeat	Run2	repeat/STIM_002.jpg
1472.329	0.603	correct	repeat	Run2	repeat/STIM_002.jpg
1475.257	0.57	correct	repeat	Run2	repeat/STIM_003.jpg
1478.225	0.759	correct	repeat	Run2	repeat/STIM_003.jpg
1481.834	0.768	correct	repeat	Run2	repeat/STIM_003.jpg
1485.348	0.448	correct	repeat	Run2	repeat/STIM_003.jpg
1489.534	0.787	incorrect	repeat	Run2	repeat/STIM_003.jpg
1493.094	0.606	correct	repeat	Run2	repeat/STIM_004.jpg
1496.876	0.454	correct	repeat	Run2	repeat/STIM_004.jpg
1499.601	0.683	correct	repeat	Run2	repeat/STIM_004.jpg
1504.167	0.719	correct	repeat	Run2	repeat/STIM_004.jpg
1508.568	0.648	correct	repeat	Run2	repeat/STIM_004.jpg
1511.527	0.829	correct	repeat	Run2	repeat/STIM_005.jpg
1516.002	0.748	correct	repeat	Run2	repeat/STIM_005.jpg
1519.598	0.513	incorrect	repeat	Run2	repeat/STIM_005.jpg
1523.856	0.512	correct	repeat	Run2	repeat/STIM_005.jpg
1527.943	0.609	correct	repeat	Run2	repeat/STIM_005.jpg
1530.696	0.747	correct	repeat	Run2	repeat/STIM_006.jpg
1534.252	0.459	correct	repeat	Run2	repeat/STIM_006.jpg
1537.236	0.866	incorrect	repeat	Run2	repeat/STIM_006.jpg
1541.337	0.49	correct	repeat	Run2	repeat/STIM_006.jpg
1544.14	0.822	correct	repeat	Run2	repeat/STIM_006.jpg
1547.541	0.737	correct	repeat	Run2	repeat/STIM_007.jpg
1551.838	0.624	correct	repeat	Run2	repeat/STIM_007.jpg
1555.342	0.607	correct	repeat	Run2	repeat/STIM_007.jpg
1558.742	0.658	correct	repeat	Run2	repeat/STIM_007.jpg
1563.138	0.774	correct	repeat	Run2	repeat/STIM_007.jpg
1566.636	0.841	correct	repeat	Run2	repeat/STIM_008.jpg
1570.07	0.478	incorrect	repeat	Run2	repeat/STIM_008.jpg
1573.972	0.838	correct	repeat	Run2	repeat/STIM_008.jpg
1577.752	0.881	correct	repeat	Run2	repeat/STIM_008.jpg
1582.427	0.782	correct	repeat	Run2	repeat/STIM_008.jpg
1586.424	0.714	correct	repeat	Run2	repeat/STIM_009.jpg
1589.244	0.668	correct	repeat	Run2	repeat/STIM_009.jpg
1592.827	0.792	incorrect	repeat	Run2	repeat/STIM_009.jpg
1597.612	0.71	correct	repeat	Run2	repeat/STIM_009.jpg
1601.259	0.709	correct	repeat	Run2	repeat/STIM_009.jpg
1605.496	0.647	correct	repeat	Run2	repeat/STIM_010.jpg
1609.429	0.556	incorrect	repeat	Run2	repeat/STIM_010.jpg
1612.296	0.716	correct	repeat	Run2	repeat/STIM_010.jpg
1615.827	0.824	incorrect	repeat	Run2	repeat/STIM_010.jpg
1619.11	0.815	correct	repeat	Run2	repeat/STIM_010.jpg
1622.441	0.775	correct	repeat	Run2	repeat/STIM_011.jpg
1626.645	0.826	correct	repeat	Run2	repeat/STIM_011.jpg
1631.395	0.635	correct	repeat	Run2	repeat/STIM_011.jpg
1634.48	0.493	correct	repeat	Run2	repeat/STIM_011.jpg
1638.396	0.639	correct	repeat	Run2	repeat/STIM_011.jpg
1641.37	0.762	correct	repeat	Run2	repeat/STIM_012.jpg
1645.069	0.859	correct	repeat	Run2	repeat/STIM_012.jpg
1649.626	0.743	correct	repeat	Run2	repeat/STIM_012.jpg
1654.256	0.708	incorrect	repeat	Run2	repeat/STIM_012.jpg
1658.07	0.646	correct	repeat	Run2	repeat/STIM_012.jpg
1662.7	0.551	correct	repeat	Run2	repeat/STIM_013.jpg
1667.224	0.655	correct	repeat	Run2	repeat/STIM_013.jpg
1671.18	0.526	correct	repeat	Run2	repeat/STIM_013.jpg
1675.245	0.721	incorrect	repeat	Run2	repeat/STIM_013.jpg
1677.982	0.554	correct	repeat	Run2	repeat/STIM_013.jpg
1680.709	0.827	correct	repeat	Run2	repeat/STIM_014.jpg
1684.779	0.582	correct	repeat	Run2	repeat/STIM_014.jpg
1687.732	0.623	correct	repeat	Run2	repeat/STIM_014.jpg
1690.52	0.694	correct	repeat	Run2	repeat/STIM_014.jpg
1694.101	0.731	correct	repeat	Run2	repeat/STIM_014.jpg
1697.854	0.838	correct	generate	Run3	generate/STIM_000.jpg
1701.406	1.141	correct	generate	Run3	generate/STIM_000.jpg
1705.878	0.965	correct	generate	Run3	generate/STIM_000.jpg
1709.31	1.776	incorrect	generate	Run3	generate/STIM_000.jpg
1713.879	1.396	correct	generate	Run3	generate/STIM_000.jpg
1718.052	1.117	correct	generate	Run3	generate/STIM_001.jpg
1721.909	1.333	incorrect	generate	Run3	generate/STIM_001.jpg
1725.261	0.898	correct	generate	Run3	generate/STIM_001.jpg
1730.132	0.887	correct	generate	Run3	generate/STIM_001.jpg
1733.928	0.778	incorrect	generate	Run3	generate/STIM_001.jpg
1736.97	0.887	correct	generate	Run3	generate/STIM_002.jpg
1741.827	1.121	incorrect	generate	Run3	generate/STIM_002.jpg
1746.777	1.381	correct	generate	Run3	generate/STIM_002.jpg
1752.049	1.249	correct	generate	Run3	generate/STIM_002.jpg
1755.74	1.091	correct	generate	Run3	generate/STIM_002.jpg
1760.103	1.039	correct	generate	Run3	generate/STIM_003.jpg
1763.354	1.331	correct	generate	Run3	generate/STIM_003.jpg
1768.136	0.98	correct	generate	Run3	generate/STIM_003.jpg
1772.181	1.206	correct	generate	Run3	generate/STIM_003.jpg
1775.473	1.706	incorrect	generate	Run3	generate/STIM_003.jpg
1779.34	1.853	correct	generate	Run3	generate/STIM_004.jpg
1783.953	1.048	correct	generate	Run3	generate/STIM_004.jpg
1787.573	1.838	correct	generate	Run3	generate/STIM_004.jpg
1792.889	1.65	incorrect	generate	Run3	generate/STIM_004.jpg
1797.226	0.934	correct	generate	Run3	generate/STIM_004.jpg
1800.266	1.147	correct	generate	Run3	generate/STIM_005.jpg
1804.543	1.176	incorrect	generate	Run3	generate/STIM_005.jpg
1807.879	1.459	correct	generate	Run3	generate/STIM_005.jpg
1811.952	0.875	incorrect	generate	Run3	generate/STIM_005.jpg
1815.373	1.23	correct	generate	Run3	generate/STIM_005.jpg
1819.442	1.19	correct	generate	Run3	generate/STIM_006.jpg
1823.671	1.386	correct	generate	Run3	generate/STIM_006.jpg
1828.086	1.456	correct	generate	Run3	generate/STIM_006.jpg
1831.991	1.816	correct	generate	Run3	generate/STIM_006.jpg
1837.386	1.827	correct	generate	Run3	generate/STIM_006.jpg
1841.439	1.542	correct	generate	Run3	generate/STIM_007.jpg
1845.893	1.406	correct	generate	Run3	generate/STIM_007.jpg
1850.277	1.43	correct	generate	Run3	generate/STIM_007.jpg
1855.105	1.817	correct	generate	Run3	generate/STIM_007.jpg
1859.082	1.706	incorrect	generate	Run3	generate/STIM_007.jpg
1864.207	1.526	correct	generate	Run3	generate/STIM_008.jpg
1869.664	1.116	correct	generate	Run3	generate/STIM_008.jpg
1873.766	1.16	correct	generate	Run3	generate/STIM_008.jpg
1878.835	1.059	correct	generate	Run3	generate/STIM_008.jpg
1882.518	1.214	correct	generate	Run3	generate/STIM_008.jpg
1885.898	0.795	incorrect	generate	Run3	generate/STIM_009.jpg
1889.737	1.498	correct	generate	Run3	generate/STIM_009.jpg
1894.102	0.824	correct	generate	Run3	generate/STIM_009.jpg
1898.368	0.867	correct	generate	Run3	generate/STIM_009.jpg
1902.358	1.086	correct	generate	Run3	generate/STIM_009.jpg
1906.724	0.938	correct	generate	Run3	generate/STIM_010.jpg
1911.073	1.144	correct	generate	Run3	generate/STIM_010.jpg
1915.037	0.966	correct	generate	Run3	generate/STIM_010.jpg
1919.381	1.8	correct	generate	Run3	generate/STIM_010.jpg
1923.788	1.161	correct	generate	Run3	generate/STIM_010.jpg
1927.453	0.768	correct	generate	Run3	generate/STIM_011.jpg
1931.637	1.624	correct	generate	Run3	generate/STIM_011.jpg
1935.642	0.823	correct	generate	Run3	generate/STIM_011.jpg
1939.564	1.198	correct	generate	Run3	generate/STIM_011.jpg
1943.249	1.534	correct	generate	Run3	generate/STIM_011.jpg
1948.701	1.642	correct	generate	Run3	generate/STIM_012.jpg
1953.513	1.841	correct	generate	Run3	generate/STIM_012.jpg
1958.416	1.461	correct	generate	Run3	generate/STIM_012.jpg
1962.48	1.065	correct	generate	Run3	generate/STIM_012.jpg
1965.561	1.35	incorrect	generate	Run3	generate/STIM_012.jpg
1969.046	1.496	correct	generate	Run3	generate/STIM_013.jpg
1973.278	1.224	correct	generate	Run3	generate/STIM_013.jpg
1978.432	1.721	correct	generate	Run3	generate/STIM_013.jpg
1983.066	0.912	correct	generate	Run3	generate/STIM_013.jpg
1986.455	1.417	correct	generate	Run3	generate/STIM_013.jpg
1990.392	0.765	correct	generate	Run3	generate/STIM_014.jpg
1993.823	1.129	correct	generate	Run3	generate/STIM_014.jpg
1997.967	1.458	correct	generate	Run3	generate/STIM_014.jpg
2003.071	1.173	correct	generate	Run3	generate/STIM_014.jpg
2007.239	0.858	correct	generate	Run3	generate/STIM_014.jpg
2010.985	1.704	incorrect	generate	Run3	generate/STIM_015.jpg
2015.769	1.717	correct	generate	Run3	generate/STIM_015.jpg
2020.572	1.679	correct	generate	Run3	generate/STIM_015.jpg
2026.144	0.747	correct	generate	Run3	generate/STIM_015.jpg
2029.899	0.977	correct	generate	Run3	generate/STIM_015.jpg
2034.346	1.526	correct	generate	Run3	generate/STIM_016.jpg
2039.461	1.448	correct	generate	Run3	generate/STIM_016.jpg
2044.628	0.833	correct	generate	Run3	generate/STIM_016.jpg
2048.055	1.382	correct	generate	Run3	generate/STIM_016.jpg
2052.178	0.823	correct	generate	Run3	generate/STIM_016.jpg
2055.594	1.778	correct	generate	Run3	generate/STIM_017.jpg
2059.564	0.804	correct	generate	Run3	generate/STIM_017.jpg
2064.108	1.405	correct	generate	Run3	generate/STIM_017.jpg
2067.701	1.49	correct	generate	Run3	generate/STIM_017.jpg
2072.011	1.634	correct	generate	Run3	generate/STIM_017.jpg
2077.48	1.49	incorrect	generate	Run3	generate/STIM_018.jpg
2082.391	1.202	incorrect	generate	Run3	generate/STIM_018.jpg
2087.123	1.326	correct	generate	Run3	generate/STIM_018.jpg
2091.442	1.683	correct	generate	Run3	generate/STIM_018.jpg
2096.528	0.837	correct	generate	Run3	generate/STIM_018.jpg
2100.383	0.899	correct	generate	Run3	generate/STIM_019.jpg
2105.085	1.269	correct	generate	Run3	generate/STIM_019.jpg
2109.344	1.699	correct	generate	Run3	generate/STIM_019.jpg
2114.0	1.282	correct	generate	Run3	generate/STIM_019.jpg
2118.211	0.954	correct	generate	Run3	generate/STIM_019.jpg
2121.296	1.277	incorrect	generate	Run3	generate/STIM_020.jpg
2125.708	1.384	correct	generate	Run3	generate/STIM_020.jpg
2129.726	1.034	correct	generate	Run3	generate/STIM_020.jpg
2134.407	1.003	correct	generate	Run3	generate/STIM_020.jpg
2138.216	1.167	correct	generate	Run3	generate/STIM_020.jpg
2142.371	0.903	correct	generate	Run3	generate/STIM_021.jpg
2145.935	0.998	correct	generate	Run3	generate/STIM_021.jpg
2149.262	0.995	correct	generate	Run3	generate/STIM_021.jpg
2153.139	1.19	correct	generate	Run3	generate/STIM_021.jpg
2157.945	1.638	correct	generate	Run3	generate/STIM_021.jpg
2162.354	1.002	correct	generate	Run3	generate/STIM_022.jpg
2167.108	1.342	correct	generate	Run3	generate/STIM_022.jpg
2172.253	1.487	correct	generate	Run3	generate/STIM_022.jpg
2177.618	0.989	correct	generate	Run3	generate/STIM_022.jpg
2182.278	1.215	correct	generate	Run3	generate/STIM_022.jpg
2186.291	0.873	incorrect	generate	Run3	generate/STIM_023.jpg
2190.105	1.268	correct	generate	Run3	generate/STIM_023.jpg
2194.297	1.172	incorrect	generate	Run3	generate/STIM_023.jpg
2199.229	0.937	correct	generate	Run3	generate/STIM_023.jpg
2203.147	1.1	correct	generate	Run3	generate/STIM_023.jpg
2208.15	1.653	correct	generate	Run3	generate/STIM_024.jpg
2212.689	1.526	correct	generate	Run3	generate/STIM_024.jpg
2216.508	1.042	correct	generate	Run3	generate/STIM_024.jpg
2220.881	1.453	correct	generate	Run3	generate/STIM_024.jpg
2224.58	1.086	correct	generate	Run3	generate/STIM_024.jpg
2227.875	0.546	correct	repeat	Run3	repeat/STIM_000.jpg
2232.174	0.88	correct	repeat	Run3	repeat/STIM_000.jpg
2236.293	0.611	correct	repeat	Run3	repeat/STIM_000.jpg
2240.311	0.858	incorrect	repeat	Run3	repeat/STIM_000.jpg
2245.081	0.67	incorrect	repeat	Run3	repeat/STIM_000.jpg
2248.98	0.63	correct	repeat	Run3	repeat/STIM_001.jpg
2253.24	0.568	correct	repeat	Run3	repeat/STIM_001.jpg
2256.315	0.74	incorrect	repeat	Run3	repeat/STIM_001.jpg
2259.23	0.459	correct	repeat	Run3	repeat/STIM_001.jpg
2263.133	0.814	correct	repeat	Run3	repeat/STIM_001.jpg
2267.625	0.521	correct	repeat	Run3	repeat/STIM_002.jpg
2270.881	0.815	correct	repeat	Run3	repeat/STIM_002.jpg
2274.287	0.882	correct	repeat	Run3	repeat/STIM_002.jpg
2278.845	0.637	correct	repeat	Run3	repeat/STIM_002.jpg
2283.415	0.607	correct	repeat	Run3	repeat/STIM_002.jpg
2287.432	0.789	correct	repeat	Run3	repeat/STIM_003.jpg
2290.556	0.734	incorrect	repeat	Run3	repeat/STIM_003.jpg
2293.65	0.505	correct	repeat	Run3	repeat/STIM_003.jpg
2296.399	0.54	correct	repeat	Run3	repeat/STIM_003.jpg
2299.768	0.566	correct	repeat	Run3	repeat/STIM_003.jpg
2304.22	0.872	incorrect	repeat	Run3	repeat/STIM_004.jpg
2307.869	0.467	correct	repeat	Run3	repeat/STIM_004.jpg
2311.722	0.459	correct	repeat	Run3	repeat/STIM_004.jpg
2314.265	0.882	correct	repeat	Run3	repeat/STIM_004.jpg
2318.422	0.853	correct	repeat	Run3	repeat/STIM_004.jpg
2321.709	0.838	incorrect	repeat	Run3	repeat/STIM_005.jpg
2324.701	0.486	incorrect	repeat	Run3	repeat/STIM_005.jpg
2328.807	0.853	correct	repeat	Run3	repeat/STIM_005.jpg
2331.79	0.712	incorrect	repeat	Run3	repeat/STIM_005.jpg
2335.782	0.831	incorrect	repeat	Run3	repeat/STIM_005.jpg
2338.973	0.52	correct	repeat	Run3	repeat/STIM_006.jpg
2343.363	0.672	incorrect	repeat	Run3	repeat/STIM_006.jpg
2347.992	0.758	correct	repeat	Run3	repeat/STIM_006.jpg
2351.72	0.662	correct	repeat	Run3	repeat/STIM_006.jpg
2355.943	0.667	correct	repeat	Run3	repeat/STIM_006.jpg
2359.55	0.752	incorrect	repeat	Run3	repeat/STIM_007.jpg
2364.234	0.553	correct	repeat	Run3	repeat/STIM_007.jpg
2368.118	0.448	incorrect	repeat	Run3	repeat/STIM_007.jpg
2371.251	0.605	correct	repeat	Run3	repeat/STIM_007.jpg
2374.345	0.622	correct	repeat	Run3	repeat/STIM_007.jpg
2377.392	0.832	correct	repeat	Run3	repeat/STIM_008.jpg
2381.702	0.86	correct	repeat	Run3	repeat/STIM_008.jpg
2385.6	0.777	correct	repeat	Run3	repeat/STIM_008.jpg
2388.556	0.46	correct	repeat	Run3	repeat/STIM_008.jpg
2391.744	0.692	correct	repeat	Run3	repeat/STIM_008.jpg
2396.042	0.494	correct	repeat	Run3	repeat/STIM_009.jpg
2399.701	0.593	correct	repeat	Run3	repeat/STIM_009.jpg
2404.157	0.725	correct	repeat	Run3	repeat/STIM_009.jpg
2407.785	0.673	correct	repeat	Run3	repeat/STIM_009.jpg
2412.083	0.529	correct	repeat	Run3	repeat/STIM_009.jpg
2415.317	0.6	correct	repeat	Run3	repeat/STIM_010.jpg
2417.976	0.82	correct	repeat	Run3	repeat/STIM_010.jpg
2422.333	0.598	correct	repeat	Run3	repeat/STIM_010.jpg
2426.248	0.459	incorrect	repeat	Run3	repeat/STIM_010.jpg
2430.106	0.679	correct	repeat	Run3	repeat/STIM_010.jpg
2433.624	0.587	correct	repeat	Run3	repeat/STIM_011.jpg
2436.443	0.47	correct	repeat	Run3	repeat/STIM_011.jpg
2439.613	0.849	correct	repeat	Run3	repeat/STIM_011.jpg
2443.132	0.665	correct	repeat	Run3	repeat/STIM_011.jpg
2447.579	0.518	correct	repeat	Run3	repeat/STIM_011.jpg
2450.998	0.445	correct	repeat	Run3	repeat/STIM_012.jpg
2455.433	0.868	correct	repeat	Run3	repeat/STIM_012.jpg
2458.493	0.856	correct	repeat	Run3	repeat/STIM_012.jpg
2462.276	0.687	incorrect	repeat	Run3	repeat/STIM_012.jpg
2466.206	0.69	correct	repeat	Run3	repeat/STIM_012.jpg
2470.143	0.797	correct	repeat	Run3	repeat/STIM_013.jpg
2473.531	0.467	correct	repeat	Run3	repeat/STIM_013.jpg
2476.145	0.862	incorrect	repeat	Run3	repeat/STIM_013.jpg
2479.389	0.713	correct	repeat	Run3	repeat/STIM_013.jpg
2482.192	0.607	correct	repeat	Run3	repeat/STIM_013.jpg
2485.791	0.641	correct	repeat	Run3	repeat/STIM_014.jpg
2490.213	0.6	correct	repeat	Run3	repeat/STIM_014.jpg
2493.291	0.873	correct	repeat	Run3	repeat/STIM_014.jpg
2498.164	0.712	correct	repeat	Run3	repeat/STIM_014.jpg
2501.498	0.512	correct	repeat	Run3	repeat/STIM_014.jpg
2504.032	1.092	correct	generate	Run4	generate/STIM_000.jpg
2507.897	1.079	correct	generate	Run4	generate/STIM_000.jpg
2511.806	1.658	correct	generate	Run4	generate/STIM_000.jpg
2516.758	1.529	correct	generate	Run4	generate/STIM_000.jpg
2520.475	0.864	correct	generate	Run4	generate/STIM_000.jpg
2523.752	1.716	correct	generate	Run4	generate/STIM_001.jpg
2528.485	1.52	correct	generate	Run4	generate/STIM_001.jpg
2533.743	1.187	correct	generate	Run4	generate/STIM_001.jpg
2538.542	1.374	correct	generate	Run4	generate/STIM_001.jpg
2541.986	0.939	correct	generate	Run4	generate/STIM_001.jpg
2545.883	1.49	correct	generate	Run4	generate/STIM_002.jpg
2549.899	1.349	correct	generate	Run4	generate/STIM_002.jpg
2553.499	1.319	correct	generate	Run4	generate/STIM_002.jpg
2557.859	1.412	correct	generate	Run4	generate/STIM_002.jpg
2561.932	1.168	correct	generate	Run4	generate/STIM_002.jpg
2565.264	1.477	correct	generate	Run4	generate/STIM_003.jpg
2569.372	1.362	correct	generate	Run4	generate/STIM_003.jpg
2573.377	1.586	correct	generate	Run4	generate/STIM_003.jpg
2578.375	1.778	correct	generate	Run4	generate/STIM_003.jpg
2583.022	1.651	correct	generate	Run4	generate/STIM_003.jpg
2587.9	1.52	correct	generate	Run4	generate/STIM_004.jpg
2592.008	1.041	correct	generate	Run4	generate/STIM_004.jpg
2595.553	0.788	incorrect	generate	Run4	generate/STIM_004.jpg
2600.221	0.934	correct	generate	Run4	generate/STIM_004.jpg
2603.952	0.947	correct	generate	Run4	generate/STIM_004.jpg
2607.742	1.39	correct	generate	Run4	generate/STIM_005.jpg
2612.95	1.031	correct	generate	Run4	generate/STIM_005.jpg
2617.525	0.99	correct	generate	Run4	generate/STIM_005.jpg
2621.849	1.229	correct	generate	Run4	generate/STIM_005.jpg
2627.058	1.312	correct	generate	Run4	generate/STIM_005.jpg
2630.884	1.834	incorrect	generate	Run4	generate/STIM_006.jpg
2635.517	1.364	correct	generate	Run4	generate/STIM_006.jpg
2638.889	1.573	correct	generate	Run4	generate/STIM_006.jpg
2643.328	1.031	correct	generate	Run4	generate/STIM_006.jpg
2648.109	1.666	correct	generate	Run4	generate/STIM_006.jpg
2651.906	1.543	correct	generate	Run4	generate/STIM_007.jpg
2656.505	1.82	correct	generate	Run4	generate/STIM_007.jpg
2662.227	1.178	correct	generate	Run4	generate/STIM_007.jpg
2665.783	1.631	correct	generate	Run4	generate/STIM_007.jpg
2669.662	0.914	correct	generate	Run4	generate/STIM_007.jpg
2674.333	1.624	correct	generate	Run4	generate/STIM_008.jpg
2678.734	1.765	correct	generate	Run4	generate/STIM_008.jpg
2684.452	0.909	correct	generate	Run4	generate/STIM_008.jpg
2687.709	1.156	correct	generate	Run4	generate/STIM_008.jpg
2692.268	1.327	correct	generate	Run4	generate/STIM_008.jpg
2696.905	1.504	correct	generate	Run4	generate/STIM_009.jpg
2701.268	1.278	correct	generate	Run4	generate/STIM_009.jpg
2704.678	1.057	correct	generate	Run4	generate/STIM_009.jpg
2708.807	1.342	incorrect	generate	Run4	generate/STIM_009.jpg
2712.332	1.704	correct	generate	Run4	generate/STIM_009.jpg
2718.023	1.818	correct	generate	Run4	generate/STIM_010.jpg
2723.277	1.378	correct	generate	Run4	generate/STIM_010.jpg
2726.781	0.758	correct	generate	Run4	generate/STIM_010.jpg
2731.437	1.046	correct	generate	Run4	generate/STIM_010.jpg
2735.415	0.857	correct	generate	Run4	generate/STIM_010.jpg
2739.416	1.451	correct	generate	Run4	generate/STIM_011.jpg
2743.443	0.974	correct	generate	Run4	generate/STIM_011.jpg
2747.953	0.87	correct	generate	Run4	generate/STIM_011.jpg
2752.15	1.799	correct	generate	Run4	generate/STIM_011.jpg
2757.247	1.432	incorrect	generate	Run4	generate/STIM_011.jpg
2762.601	0.926	correct	generate	Run4	generate/STIM_012.jpg
2766.158	1.081	correct	generate	Run4	generate/STIM_012.jpg
2769.905	1.351	correct	generate	Run4	generate/STIM_012.jpg
2774.308	1.56	correct	generate	Run4	generate/STIM_012.jpg
2778.48	0.763	correct	generate	Run4	generate/STIM_012.jpg
2783.046	0.772	correct	generate	Run4	generate/STIM_013.jpg
2787.389	0.929	correct	generate	Run4	generate/STIM_013.jpg
2791.683	1.466	correct	generate	Run4	generate/STIM_013.jpg
2796.114	1.381	incorrect	generate	Run4	generate/STIM_013.jpg
2801.156	0.801	correct	generate	Run4	generate/STIM_013.jpg
2804.715	0.943	correct	generate	Run4	generate/STIM_014.jpg
2808.19	1.211	correct	generate	Run4	generate/STIM_014.jpg
2812.149	1.372	correct	generate	Run4	generate/STIM_014.jpg
2815.56	1.559	correct	generate	Run4	generate/STIM_014.jpg
2819.782	1.092	correct	generate	Run4	generate/STIM_014.jpg
2824.057	1.11	incorrect	generate	Run4	generate/STIM_015.jpg
2828.612	1.749	correct	generate	Run4	generate/STIM_015.jpg
2833.996	1.598	correct	generate	Run4	generate/STIM_015.jpg
2839.026	1.037	correct	generate	Run4	generate/STIM_015.jpg
2843.633	0.833	correct	generate	Run4	generate/STIM_015.jpg
2846.994	0.896	correct	generate	Run4	generate/STIM_016.jpg
2850.857	1.672	correct	generate	Run4	generate/STIM_016.jpg
2854.869	0.795	correct	generate	Run4	generate/STIM_016.jpg
2858.218	1.782	correct	generate	Run4	generate/STIM_016.jpg
2863.061	1.012	correct	generate	Run4	generate/STIM_016.jpg
2866.742	1.565	incorrect	generate	Run4	generate/STIM_017.jpg
2871.39	1.463	correct	generate	Run4	generate/STIM_017.jpg
2875.871	0.918	correct	generate	Run4	generate/STIM_017.jpg
2880.366	1.644	correct	generate	Run4	generate/STIM_017.jpg
2885.602	1.034	correct	generate	Run4	generate/STIM_017.jpg
2890.243	1.564	correct	generate	Run4	generate/STIM_018.jpg
2894.195	0.958	correct	generate	Run4	generate/STIM_018.jpg
2899.12	1.571	correct	generate	Run4	generate/STIM_018.jpg
2903.131	1.42	correct	generate	Run4	generate/STIM_018.jpg
2907.574	0.813	correct	generate	Run4	generate/STIM_018.jpg
2911.799	1.327	incorrect	generate	Run4	generate/STIM_019.jpg
2915.664	1.58	correct	generate	Run4	generate/STIM_019.jpg
2921.228	1.605	correct	generate	Run4	generate/STIM_019.jpg
2924.965	0.923	correct	generate	Run4	generate/STIM_019.jpg
2929.642	1.061	correct	generate	Run4	generate/STIM_019.jpg
2934.491	1.852	correct	generate	Run4	generate/STIM_020.jpg
2939.442	1.356	correct	generate	Run4	generate/STIM_020.jpg
2944.194	0.975	correct	generate	Run4	generate/STIM_020.jpg
2947.343	1.583	correct	generate	Run4	generate/STIM_020.jpg
2951.509	1.488	correct	generate	Run4	generate/STIM_020.jpg
2955.209	1.499	incorrect	generate	Run4	generate/STIM_021.jpg
2958.983	1.032	correct	generate	Run4	generate/STIM_021.jpg
2962.763	1.643	correct	generate	Run4	generate/STIM_021.jpg
2967.014	0.998	correct	generate	Run4	generate/STIM_021.jpg
2970.013	1.811	correct	generate	Run4	generate/STIM_021.jpg
2974.77	1.707	correct	generate	Run4	generate/STIM_022.jpg
2979.896	0.827	correct	generate	Run4	generate/STIM_022.jpg
2982.77	1.024	correct	generate	Run4	generate/STIM_022.jpg
2986.282	1.721	correct	generate	Run4	generate/STIM_022.jpg
2991.151	1.218	correct	generate	Run4	generate/STIM_022.jpg
2996.292	0.844	correct	generate	Run4	generate/STIM_023.jpg
2999.756	1.64	correct	generate	Run4	generate/STIM_023.jpg
3003.529	1.576	correct	generate	Run4	generate/STIM_023.jpg
3007.376	1.138	correct	generate	Run4	generate/STIM_023.jpg
3011.119	1.524	correct	generate	Run4	generate/STIM_023.jpg
3015.422	0.814	correct	generate	Run4	generate/STIM_024.jpg
3019.899	0.912	correct	generate	Run4	generate/STIM_024.jpg
3023.877	1.089	correct	generate	Run4	generate/STIM_024.jpg
3028.148	0.96	correct	generate	Run4	generate/STIM_024.jpg
3031.493	1.172	correct	generate	Run4	generate/STIM_024.jpg
3036.176	0.447	correct	repeat	Run4	repeat/STIM_000.jpg
3039.564	0.66	correct	repeat	Run4	repeat/STIM_000.jpg
3043.699	0.479	incorrect	repeat	Run4	repeat/STIM_000.jpg
3047.306	0.67	correct	repeat	Run4	repeat/STIM_000.jpg
3050.811	0.548	correct	repeat	Run4	repeat/STIM_000.jpg
3053.78	0.766	correct	repeat	Run4	repeat/STIM_001.jpg
3057.442	0.54	correct	repeat	Run4	repeat/STIM_001.jpg
3061.804	0.589	correct	repeat	Run4	repeat/STIM_001.jpg
3065.984	0.722	correct	repeat	Run4	repeat/STIM_001.jpg
3069.617	0.497	correct	repeat	Run4	repeat/STIM_001.jpg
3073.591	0.453	correct	repeat	Run4	repeat/STIM_002.jpg
3076.124	0.457	correct	repeat	Run4	repeat/STIM_002.jpg
3079.549	0.619	correct	repeat	Run4	repeat/STIM_002.jpg
3083.944	0.444	incorrect	repeat	Run4	repeat/STIM_002.jpg
3087.203	0.712	correct	repeat	Run4	repeat/STIM_002.jpg
3091.844	0.544	correct	repeat	Run4	repeat/STIM_003.jpg
3095.979	0.773	correct	repeat	Run4	repeat/STIM_003.jpg
3099.726	0.622	incorrect	repeat	Run4	repeat/STIM_003.jpg
3102.633	0.492	correct	repeat	Run4	repeat/STIM_003.jpg
3107.078	0.559	correct	repeat	Run4	repeat/STIM_003.jpg
3110.42	0.692	correct	repeat	Run4	repeat/STIM_004.jpg
3115.099	0.456	correct	repeat	Run4	repeat/STIM_004.jpg
3118.817	0.514	correct	repeat	Run4	repeat/STIM_004.jpg
3121.873	0.604	correct	repeat	Run4	repeat/STIM_004.jpg
3126.169	0.547	correct	repeat	Run4	repeat/STIM_004.jpg
3129.796	0.67	correct	repeat	Run4	repeat/STIM_005.jpg
3134.078	0.742	incorrect	repeat	Run4	repeat/STIM_005.jpg
3138.554	0.649	correct	repeat	Run4	repeat/STIM_005.jpg
3143.157	0.735	correct	repeat	Run4	repeat/STIM_005.jpg
3147.722	0.875	correct	repeat	Run4	repeat/STIM_005.jpg
3152.082	0.457	incorrect	repeat	Run4	repeat/STIM_006.jpg
3155.351	0.629	correct	repeat	Run4	repeat/STIM_006.jpg
3158.82	0.513	correct	repeat	Run4	repeat/STIM_006.jpg
3162.998	0.508	correct	repeat	Run4	repeat/STIM_006.jpg
3167.249	0.608	correct	repeat	Run4	repeat/STIM_006.jpg
3171.669	0.701	incorrect	repeat	Run4	repeat/STIM_007.jpg
3176.297	0.805	correct	repeat	Run4	repeat/STIM_007.jpg
3179.424	0.823	correct	repeat	Run4	repeat/STIM_007.jpg
3183.633	0.595	incorrect	repeat	Run4	repeat/STIM_007.jpg
3187.74	0.64	correct	repeat	Run4	repeat/STIM_007.jpg
3192.361	0.791	correct	repeat	Run4	repeat/STIM_008.jpg
3195.201	0.472	correct	repeat	Run4	repeat/STIM_008.jpg
3198.623	0.775	incorrect	repeat	Run4	repeat/STIM_008.jpg
3202.863	0.821	correct	repeat	Run4	repeat/STIM_008.jpg
3207.242	0.68	correct	repeat	Run4	repeat/STIM_008.jpg
3211.749	0.673	correct	repeat	Run4	repeat/STIM_009.jpg
3216.383	0.445	correct	repeat	Run4	repeat/STIM_009.jpg
3219.859	0.601	correct	repeat	Run4	repeat/STIM_009.jpg
3223.984	0.61	incorrect	repeat	Run4	repeat/STIM_009.jpg
3227.633	0.641	incorrect	repeat	Run4	repeat/STIM_009.jpg
3231.161	0.518	correct	repeat	Run4	repeat/STIM_010.jpg
3235.674	0.579	correct	repeat	Run4	repeat/STIM_010.jpg
3238.605	0.82	correct	repeat	Run4	repeat/STIM_010.jpg
3241.558	0.65	correct	repeat	Run4	repeat/STIM_010.jpg
3245.385	0.452	incorrect	repeat	Run4	repeat/STIM_010.jpg
3248.167	0.467	correct	repeat	Run4	repeat/STIM_011.jpg
3252.081	0.668	correct	repeat	Run4	repeat/STIM_011.jpg
3256.0	0.533	correct	repeat	Run4	repeat/STIM_011.jpg
3260.304	0.664	correct	repeat	Run4	repeat/STIM_011.jpg
3263.101	0.876	incorrect	repeat	Run4	repeat/STIM_011.jpg
3266.44	0.87	correct	repeat	Run4	repeat/STIM_012.jpg
3270.252	0.79	correct	repeat	Run4	repeat/STIM_012.jpg
3274.486	0.569	correct	repeat	Run4	repeat/STIM_012.jpg
3277.506	0.497	correct	repeat	Run4	repeat/STIM_012.jpg
3281.017	0.714	correct	repeat	Run4	repeat/STIM_012.jpg
3283.844	0.701	correct	repeat	Run4	repeat/STIM_013.jpg
3287.488	0.857	correct	repeat	Run4	repeat/STIM_013.jpg
3291.263	0.467	incorrect	repeat	Run4	repeat/STIM_013.jpg
3294.045	0.663	correct	repeat	Run4	repeat/STIM_013.jpg
3298.046	0.63	correct	repeat	Run4	repeat/STIM_013.jpg
3300.845	0.875	correct	repeat	Run4	repeat/STIM_014.jpg
3303.794	0.862	correct	repeat	Run4	repeat/STIM_014.jpg
3308.082	0.533	incorrect	repeat	Run4	repeat/STIM_014.jpg
3310.769	0.775	correct	repeat	Run4	repeat/STIM_014.jpg
3315.101	0.84	correct	repeat	Run4	repeat/STIM_014.jpg
