onset	duration	response_time_ms	trial_type	learning_stage	stimulus	response_port
0.0	1.707	1706.6	generate	Run1	generate/STIM_000.jpg	100
4.103	2.003	2002.7	generate	Run1	generate/STIM_000.jpg	99
9.411	2.275	2275.2	generate	Run1	generate/STIM_000.jpg	100
15.594	1.248	1247.6	generate	Run1	generate/STIM_000.jpg	100
20.101	1.354	1354.3	generate	Run1	generate/STIM_000.jpg	100
25.22	2.215	2215.2	generate	Run1	generate/STIM_001.jpg	100
31.16	2.314	2313.6	generate	Run1	generate/STIM_001.jpg	100
37.087	2.271	2271.2	generate	Run1	generate/STIM_001.jpg	100
42.802	1.217	1216.9	generate	Run1	generate/STIM_001.jpg	99
47.973	1.227	1227.2	generate	Run1	generate/STIM_001.jpg	99
51.334	2.017	2017.3	generate	Run1	generate/STIM_002.jpg	99
56.488	2.365	2365.0	generate	Run1	generate/STIM_002.jpg	100
62.618	1.196	1195.9	generate	Run1	generate/STIM_002.jpg	99
67.582	1.089	1088.7	generate	Run1	generate/STIM_002.jpg	99
71.787	0.956	955.9	generate	Run1	generate/STIM_002.jpg	100
75.062	2.584	2584.5	generate	Run1	generate/STIM_003.jpg	100
79.675	1.853	1853.0	generate	Run1	generate/STIM_003.jpg	100
83.529	2.356	2356.0	generate	Run1	generate/STIM_003.jpg	99
88.399	1.714	1714.0	generate	Run1	generate/STIM_003.jpg	100
92.937	1.5	1499.5	generate	Run1	generate/STIM_003.jpg	100
96.781	1.18	1179.7	generate	Run1	generate/STIM_004.jpg	99
100.671	1.302	1302.1	generate	Run1	generate/STIM_004.jpg	100
105.95	1.125	1124.7	generate	Run1	generate/STIM_004.jpg	99
109.475	2.172	2171.5	generate	Run1	generate/STIM_004.jpg	99
114.384	1.726	1726.1	generate	Run1	generate/STIM_004.jpg	99
119.662	1.613	1612.6	generate	Run1	generate/STIM_005.jpg	99
124.991	1.939	1939.4	generate	Run1	generate/STIM_005.jpg	99
130.506	2.303	2303.1	generate	Run1	generate/STIM_005.jpg	100
135.252	1.712	1711.9	generate	Run1	generate/STIM_005.jpg	99
139.65	0.891	891.1	generate	Run1	generate/STIM_005.jpg	99
144.495	1.696	1696.5	generate	Run1	generate/STIM_006.jpg	99
148.294	1.158	1158.0	generate	Run1	generate/STIM_006.jpg	99
153.154	1.123	1123.3	generate	Run1	generate/STIM_006.jpg	100
156.872	1.648	1648.5	generate	Run1	generate/STIM_006.jpg	100
160.99	1.084	1084.2	generate	Run1	generate/STIM_006.jpg	99
165.522	1.434	1434.1	generate	Run1	generate/STIM_007.jpg	100
169.282	1.354	1354.1	generate	Run1	generate/STIM_007.jpg	100
174.48	2.242	2242.4	generate	Run1	generate/STIM_007.jpg	99
180.56	1.64	1640.1	generate	Run1	generate/STIM_007.jpg	99
184.856	1.568	1568.3	generate	Run1	generate/STIM_007.jpg	100
188.527	1.453	1453.1	generate	Run1	generate/STIM_008.jpg	100
193.089	2.093	2092.8	generate	Run1	generate/STIM_008.jpg	100
198.25	1.105	1104.8	generate	Run1	generate/STIM_008.jpg	100
202.105	1.478	1478.5	generate	Run1	generate/STIM_008.jpg	99
206.087	1.675	1674.6	generate	Run1	generate/STIM_008.jpg	99
211.592	1.859	1858.6	generate	Run1	generate/STIM_009.jpg	99
216.514	2.399	2398.6	generate	Run1	generate/STIM_009.jpg	99
222.271	2.29	2290.4	generate	Run1	generate/STIM_009.jpg	99
227.447	1.478	1477.7	generate	Run1	generate/STIM_009.jpg	99
232.891	1.825	1824.6	generate	Run1	generate/STIM_009.jpg	100
238.137	2.22	2220.0	generate	Run1	generate/STIM_010.jpg	100
243.185	2.308	2308.4	generate	Run1	generate/STIM_010.jpg	100
249.122	1.859	1858.7	generate	Run1	generate/STIM_010.jpg	99
254.348	1.38	1379.6	generate	Run1	generate/STIM_010.jpg	100
259.141	0.952	952.3	generate	Run1	generate/STIM_010.jpg	99
262.759	1.652	1652.0	generate	Run1	generate/STIM_011.jpg	100
268.249	2.298	2298.3	generate	Run1	generate/STIM_011.jpg	99
274.28	1.159	1159.1	generate	Run1	generate/STIM_011.jpg	100
278.911	2.069	2069.3	generate	Run1	generate/STIM_011.jpg	99
283.312	1.944	1944.2	generate	Run1	generate/STIM_011.jpg	100
287.737	2.538	2537.8	generate	Run1	generate/STIM_012.jpg	99
292.448	1.448	1448.5	generate	Run1	generate/STIM_012.jpg	100
297.493	2.364	2363.6	generate	Run1	generate/STIM_012.jpg	99
302.329	1.054	1053.9	generate	Run1	generate/STIM_012.jpg	100
305.414	1.88	1880.0	generate	Run1	generate/STIM_012.jpg	99
311.168	2.587	2587.3	generate	Run1	generate/STIM_013.jpg	100
317.05	2.187	2186.9	generate	Run1	generate/STIM_013.jpg	100
323.009	2.063	2062.9	generate	Run1	generate/STIM_013.jpg	99
327.936	1.776	1776.1	generate	Run1	generate/STIM_013.jpg	99
333.686	1.695	1694.8	generate	Run1	generate/STIM_013.jpg	99
339.075	2.534	2533.5	generate	Run1	generate/STIM_014.jpg	100
344.794	1.721	1721.3	generate	Run1	generate/STIM_014.jpg	100
348.807	1.283	1282.6	generate	Run1	generate/STIM_014.jpg	99
352.989	1.606	1605.9	generate	Run1	generate/STIM_014.jpg	100
357.575	1.285	1285.1	generate	Run1	generate/STIM_014.jpg	100
362.433	2.518	2518.3	generate	Run1	generate/STIM_015.jpg	100
368.723	1.722	1721.5	generate	Run1	generate/STIM_015.jpg	100
373.095	1.365	1364.8	generate	Run1	generate/STIM_015.jpg	100
377.085	1.668	1667.7	generate	Run1	generate/STIM_015.jpg	100
382.739	1.325	1325.3	generate	Run1	generate/STIM_015.jpg	99
387.403	1.307	1307.2	generate	Run1	generate/STIM_016.jpg	99
392.678	1.719	1719.2	generate	Run1	generate/STIM_016.jpg	100
396.687	2.005	2005.1	generate	Run1	generate/STIM_016.jpg	99
402.009	1.903	1902.6	generate	Run1	generate/STIM_016.jpg	99
406.358	2.105	2105.1	generate	Run1	generate/STIM_016.jpg	99
412.444	2.606	2606.2	generate	Run1	generate/STIM_017.jpg	99
417.382	1.145	1145.4	generate	Run1	generate/STIM_017.jpg	100
422.037	1.127	1127.4	generate	Run1	generate/STIM_017.jpg	99
426.052	1.286	1286.0	generate	Run1	generate/STIM_017.jpg	100
431.008	1.24	1239.9	generate	Run1	generate/STIM_017.jpg	99
435.527	1.879	1878.6	generate	Run1	generate/STIM_018.jpg	100
439.917	2.154	2154.0	generate	Run1	generate/STIM_018.jpg	100
445.857	1.894	1893.7	generate	Run1	generate/STIM_018.jpg	100
451.417	2.206	2205.7	generate	Run1	generate/STIM_018.jpg	99
457.073	1.145	1145.2	generate	Run1	generate/STIM_018.jpg	100
461.694	1.306	1306.3	generate	Run1	generate/STIM_019.jpg	100
465.57	1.196	1195.8	generate	Run1	generate/STIM_019.jpg	100
470.641	2.308	2308.0	generate	Run1	generate/STIM_019.jpg	99
475.396	0.914	914.5	generate	Run1	generate/STIM_019.jpg	99
479.132	1.158	1157.6	generate	Run1	generate/STIM_019.jpg	99
483.311	1.84	1839.5	generate	Run1	generate/STIM_020.jpg	100
487.517	2.172	2171.8	generate	Run1	generate/STIM_020.jpg	99
491.728	1.284	1283.9	generate	Run1	generate/STIM_020.jpg	100
495.584	1.109	1109.0	generate	Run1	generate/STIM_020.jpg	99
500.021	1.918	1917.5	generate	Run1	generate/STIM_020.jpg	100
505.116	1.196	1196.5	generate	Run1	generate/STIM_021.jpg	100
508.366	1.985	1985.2	generate	Run1	generate/STIM_021.jpg	99
512.387	1.336	1336.5	generate	Run1	generate/STIM_021.jpg	99
517.577	1.462	1461.5	generate	Run1	generate/STIM_021.jpg	99
521.805	1.962	1961.7	generate	Run1	generate/STIM_021.jpg	100
527.367	1.832	1831.9	generate	Run1	generate/STIM_022.jpg	99
531.47	1.451	1450.8	generate	Run1	generate/STIM_022.jpg	99
535.549	2.282	2282.1	generate	Run1	generate/STIM_022.jpg	99
541.281	1.063	1063.3	generate	Run1	generate/STIM_022.jpg	100
544.383	1.722	1721.8	generate	Run1	generate/STIM_022.jpg	99
548.632	1.992	1991.7	generate	Run1	generate/STIM_023.jpg	99
552.73	1.655	1655.1	generate	Run1	generate/STIM_023.jpg	99
556.987	2.046	2046.5	generate	Run1	generate/STIM_023.jpg	99
562.06	2.069	2068.7	generate	Run1	generate/STIM_023.jpg	100
567.845	0.93	929.9	generate	Run1	generate/STIM_023.jpg	99
571.675	2.426	2426.1	generate	Run1	generate/STIM_024.jpg	100
577.01	1.806	1806.0	generate	Run1	generate/STIM_024.jpg	99
582.433	1.103	1103.1	generate	Run1	generate/STIM_024.jpg	100
586.702	0.926	926.3	generate	Run1	generate/STIM_024.jpg	99
590.009	1.116	1116.4	generate	Run1	generate/STIM_024.jpg	100
594.951	0.636	635.8	repeat	Run1	repeat/STIM_000.jpg	99
597.765	0.448	447.7	repeat	Run1	repeat/STIM_000.jpg	100
601.781	0.817	817.0	repeat	Run1	repeat/STIM_000.jpg	99
604.744	0.471	471.4	repeat	Run1	repeat/STIM_000.jpg	100
608.6	0.79	789.9	repeat	Run1	repeat/STIM_000.jpg	100
612.416	0.571	571.0	repeat	Run1	repeat/STIM_001.jpg	99
616.924	0.591	590.6	repeat	Run1	repeat/STIM_001.jpg	99
619.539	0.754	754.3	repeat	Run1	repeat/STIM_001.jpg	99
623.746	0.828	828.0	repeat	Run1	repeat/STIM_001.jpg	99
626.728	0.613	612.7	repeat	Run1	repeat/STIM_001.jpg	100
630.611	0.757	757.3	repeat	Run1	repeat/STIM_002.jpg	99
634.931	0.662	661.6	repeat	Run1	repeat/STIM_002.jpg	100
638.031	0.445	444.9	repeat	Run1	repeat/STIM_002.jpg	99
641.137	0.859	858.7	repeat	Run1	repeat/STIM_002.jpg	100
645.806	0.881	880.9	repeat	Run1	repeat/STIM_002.jpg	100
648.722	0.601	601.2	repeat	Run1	repeat/STIM_003.jpg	100
652.575	0.84	839.5	repeat	Run1	repeat/STIM_003.jpg	100
656.77	0.494	494.2	repeat	Run1	repeat/STIM_003.jpg	100
659.811	0.551	551.2	repeat	Run1	repeat/STIM_003.jpg	100
662.435	0.522	521.8	repeat	Run1	repeat/STIM_003.jpg	100
664.97	0.784	783.7	repeat	Run1	repeat/STIM_004.jpg	99
668.663	0.776	776.2	repeat	Run1	repeat/STIM_004.jpg	99
672.82	0.659	659.2	repeat	Run1	repeat/STIM_004.jpg	100
677.336	0.721	720.7	repeat	Run1	repeat/STIM_004.jpg	99
681.373	0.524	524.4	repeat	Run1	repeat/STIM_004.jpg	100
684.232	0.795	794.7	repeat	Run1	repeat/STIM_005.jpg	99
687.102	0.732	732.1	repeat	Run1	repeat/STIM_005.jpg	99
690.879	0.813	812.9	repeat	Run1	repeat/STIM_005.jpg	99
695.383	0.568	568.1	repeat	Run1	repeat/STIM_005.jpg	99
699.151	0.753	753.2	repeat	Run1	repeat/STIM_005.jpg	100
702.909	0.445	445.4	repeat	Run1	repeat/STIM_006.jpg	100
706.107	0.479	478.6	repeat	Run1	repeat/STIM_006.jpg	100
710.398	0.597	597.0	repeat	Run1	repeat/STIM_006.jpg	100
713.544	0.634	634.5	repeat	Run1	repeat/STIM_006.jpg	99
716.646	0.822	822.5	repeat	Run1	repeat/STIM_006.jpg	99
720.131	0.739	739.3	repeat	Run1	repeat/STIM_007.jpg	100
724.402	0.875	874.8	repeat	Run1	repeat/STIM_007.jpg	99
727.444	0.684	683.9	repeat	Run1	repeat/STIM_007.jpg	99
730.917	0.739	738.8	repeat	Run1	repeat/STIM_007.jpg	99
735.428	0.681	680.6	repeat	Run1	repeat/STIM_007.jpg	100
738.238	0.602	601.9	repeat	Run1	repeat/STIM_008.jpg	99
741.984	0.601	601.0	repeat	Run1	repeat/STIM_008.jpg	99
744.835	0.685	684.7	repeat	Run1	repeat/STIM_008.jpg	99
748.197	0.737	736.9	repeat	Run1	repeat/STIM_008.jpg	100
752.08	0.68	680.3	repeat	Run1	repeat/STIM_008.jpg	99
756.191	0.45	450.2	repeat	Run1	repeat/STIM_009.jpg	100
758.859	0.679	678.9	repeat	Run1	repeat/STIM_009.jpg	100
762.329	0.789	788.9	repeat	Run1	repeat/STIM_009.jpg	99
766.097	0.663	662.7	repeat	Run1	repeat/STIM_009.jpg	100
770.474	0.772	771.8	repeat	Run1	repeat/STIM_009.jpg	100
774.973	0.636	636.1	repeat	Run1	repeat/STIM_010.jpg	100
777.762	0.584	583.8	repeat	Run1	repeat/STIM_010.jpg	99
781.997	0.781	780.8	repeat	Run1	repeat/STIM_010.jpg	99
786.05	0.847	847.3	repeat	Run1	repeat/STIM_010.jpg	100
790.493	0.614	614.3	repeat	Run1	repeat/STIM_010.jpg	100
793.446	0.457	457.3	repeat	Run1	repeat/STIM_011.jpg	100
796.955	0.708	707.8	repeat	Run1	repeat/STIM_011.jpg	99
800.587	0.823	823.2	repeat	Run1	repeat/STIM_011.jpg	100
805.094	0.822	822.4	repeat	Run1	repeat/STIM_011.jpg	100
808.02	0.482	481.8	repeat	Run1	repeat/STIM_011.jpg	100
811.976	0.552	551.5	repeat	Run1	repeat/STIM_012.jpg	99
816.15	0.635	635.4	repeat	Run1	repeat/STIM_012.jpg	99
820.101	0.603	603.2	repeat	Run1	repeat/STIM_012.jpg	99
823.377	0.852	851.7	repeat	Run1	repeat/STIM_012.jpg	99
827.479	0.678	677.5	repeat	Run1	repeat/STIM_012.jpg	100
831.758	0.706	706.5	repeat	Run1	repeat/STIM_013.jpg	99
834.834	0.549	549.1	repeat	Run1	repeat/STIM_013.jpg	99
838.855	0.667	666.7	repeat	Run1	repeat/STIM_013.jpg	100
843.069	0.627	626.7	repeat	Run1	repeat/STIM_013.jpg	100
847.001	0.669	668.9	repeat	Run1	repeat/STIM_013.jpg	99
851.167	0.862	862.4	repeat	Run1	repeat/STIM_014.jpg	100
854.388	0.694	693.7	repeat	Run1	repeat/STIM_014.jpg	99
858.648	0.505	505.2	repeat	Run1	repeat/STIM_014.jpg	100
862.702	0.64	640.0	repeat	Run1	repeat/STIM_014.jpg	100
866.907	0.501	501.2	repeat	Run1	repeat/STIM_014.jpg	100
871.022	1.684	1684.1	generate	Run2	generate/STIM_000.jpg	100
876.643	0.874	874.2	generate	Run2	generate/STIM_000.jpg	100
879.671	1.188	1187.8	generate	Run2	generate/STIM_000.jpg	99
883.743	0.902	901.8	generate	Run2	generate/STIM_000.jpg	100
887.881	1.22	1219.5	generate	Run2	generate/STIM_000.jpg	100
892.046	2.065	2065.1	generate	Run2	generate/STIM_001.jpg	99
896.643	1.013	1013.4	generate	Run2	generate/STIM_001.jpg	99
900.072	1.546	1546.5	generate	Run2	generate/STIM_001.jpg	100
903.967	1.586	1585.6	generate	Run2	generate/STIM_001.jpg	99
909.18	1.786	1785.6	generate	Run2	generate/STIM_001.jpg	100
914.54	1.025	1024.6	generate	Run2	generate/STIM_002.jpg	100
917.609	2.03	2029.8	generate	Run2	generate/STIM_002.jpg	100
923.306	1.98	1980.1	generate	Run2	generate/STIM_002.jpg	99
928.672	0.809	809.3	generate	Run2	generate/STIM_002.jpg	100
931.833	1.374	1373.6	generate	Run2	generate/STIM_002.jpg	100
935.269	0.92	920.5	generate	Run2	generate/STIM_003.jpg	99
938.47	1.993	1993.3	generate	Run2	generate/STIM_003.jpg	99
943.403	1.609	1609.2	generate	Run2	generate/STIM_003.jpg	100
948.734	1.307	1306.8	generate	Run2	generate/STIM_003.jpg	100
952.644	0.913	912.7	generate	Run2	generate/STIM_003.jpg	99
957.142	1.092	1092.3	generate	Run2	generate/STIM_004.jpg	100
960.251	2.034	2033.8	generate	Run2	generate/STIM_004.jpg	99
965.02	0.893	893.0	generate	Run2	generate/STIM_004.jpg	100
969.885	1.486	1486.5	generate	Run2	generate/STIM_004.jpg	99
973.992	1.209	1208.6	generate	Run2	generate/STIM_004.jpg	100
978.353	2.024	2024.1	generate	Run2	generate/STIM_005.jpg	100
983.372	1.925	1924.9	generate	Run2	generate/STIM_005.jpg	100
987.439	0.982	982.0	generate	Run2	generate/STIM_005.jpg	99
992.083	1.435	1435.1	generate	Run2	generate/STIM_005.jpg	100
996.578	0.873	873.0	generate	Run2	generate/STIM_005.jpg	99
999.826	1.199	1199.3	generate	Run2	generate/STIM_006.jpg	99
1004.24	1.06	1060.0	generate	Run2	generate/STIM_006.jpg	99
1009.048	1.033	1032.8	generate	Run2	generate/STIM_006.jpg	99
1013.005	0.932	931.6	generate	Run2	generate/STIM_006.jpg	99
1017.694	1.581	1580.9	generate	Run2	generate/STIM_006.jpg	99
1021.515	1.915	1915.3	generate	Run2	generate/STIM_007.jpg	99
1026.427	1.591	1590.8	generate	Run2	generate/STIM_007.jpg	100
1030.551	1.607	1606.9	generate	Run2	generate/STIM_007.jpg	99
1034.197	1.772	1771.6	generate	Run2	generate/STIM_007.jpg	99
1039.623	0.865	865.4	generate	Run2	generate/STIM_007.jpg	99
1043.46	0.959	959.0	generate	Run2	generate/STIM_008.jpg	100
1046.755	1.714	1714.1	generate	Run2	generate/STIM_008.jpg	100
1051.824	1.223	1223.4	generate	Run2	generate/STIM_008.jpg	99
1056.339	1.13	1130.5	generate	Run2	generate/STIM_008.jpg	100
1059.788	0.951	951.0	generate	Run2	generate/STIM_008.jpg	100
1063.583	1.16	1160.0	generate	Run2	generate/STIM_009.jpg	100
1066.983	1.571	1570.9	generate	Run2	generate/STIM_009.jpg	100
1070.958	1.468	1467.9	generate	Run2	generate/STIM_009.jpg	99
1075.751	1.644	1644.4	generate	Run2	generate/STIM_009.jpg	100
1079.692	0.782	781.7	generate	Run2	generate/STIM_009.jpg	99
1083.871	2.123	2122.6	generate	Run2	generate/STIM_010.jpg	100
1089.044	1.177	1177.3	generate	Run2	generate/STIM_010.jpg	99
1092.359	1.61	1610.0	generate	Run2	generate/STIM_010.jpg	99
1096.576	1.168	1168.3	generate	Run2	generate/STIM_010.jpg	99
1101.125	1.11	1110.2	generate	Run2	generate/STIM_010.jpg	99
1105.56	1.76	1759.5	generate	Run2	generate/STIM_011.jpg	100
1110.843	0.93	929.6	generate	Run2	generate/STIM_011.jpg	99
1115.53	1.299	1299.3	generate	Run2	generate/STIM_011.jpg	100
1119.324	1.503	1503.4	generate	Run2	generate/STIM_011.jpg	100
1122.847	1.734	1733.7	generate	Run2	generate/STIM_011.jpg	100
1128.197	1.043	1042.8	generate	Run2	generate/STIM_012.jpg	99
1132.694	1.275	1274.6	generate	Run2	generate/STIM_012.jpg	100
1137.842	1.053	1052.6	generate	Run2	generate/STIM_012.jpg	99
1141.028	1.276	1276.1	generate	Run2	generate/STIM_012.jpg	99
1145.376	1.506	1506.2	generate	Run2	generate/STIM_012.jpg	99
1149.086	1.474	1474.0	generate	Run2	generate/STIM_013.jpg	100
1152.917	2.02	2019.9	generate	Run2	generate/STIM_013.jpg	100
1158.377	1.601	1601.3	generate	Run2	generate/STIM_013.jpg	99
1162.484	1.411	1411.1	generate	Run2	generate/STIM_013.jpg	99
1166.795	1.451	1451.4	generate	Run2	generate/STIM_013.jpg	100
1170.451	1.795	1795.4	generate	Run2	generate/STIM_014.jpg	99
1175.739	0.966	966.0	generate	Run2	generate/STIM_014.jpg	99
1179.594	0.953	953.3	generate	Run2	generate/STIM_014.jpg	99
1183.202	1.242	1242.5	generate	Run2	generate/STIM_014.jpg	100
1187.476	1.104	1104.1	generate	Run2	generate/STIM_014.jpg	99
1191.145	2.14	2139.9	generate	Run2	generate/STIM_015.jpg	100
1195.519	1.468	1468.4	generate	Run2	generate/STIM_015.jpg	99
1199.669	0.853	853.4	generate	Run2	generate/STIM_015.jpg	99
1202.974	1.365	1364.6	generate	Run2	generate/STIM_015.jpg	100
1207.84	1.44	1440.4	generate	Run2	generate/STIM_015.jpg	100
1212.281	2.242	2242.5	generate	Run2	generate/STIM_016.jpg	100
1217.358	1.022	1021.8	generate	Run2	generate/STIM_016.jpg	99
1221.644	1.369	1369.2	generate	Run2	generate/STIM_016.jpg	100
1225.104	1.175	1174.8	generate	Run2	generate/STIM_016.jpg	99
1228.771	1.334	1334.3	generate	Run2	generate/STIM_016.jpg	100
1233.818	1.656	1656.5	generate	Run2	generate/STIM_017.jpg	100
1238.572	1.14	1140.0	generate	Run2	generate/STIM_017.jpg	100
1243.703	1.554	1554.5	generate	Run2	generate/STIM_017.jpg	100
1248.896	0.753	752.7	generate	Run2	generate/STIM_017.jpg	99
1253.036	0.905	905.2	generate	Run2	generate/STIM_017.jpg	100
1257.379	2.116	2116.0	generate	Run2	generate/STIM_018.jpg	100
1263.474	1.529	1528.9	generate	Run2	generate/STIM_018.jpg	99
1267.387	0.809	808.7	generate	Run2	generate/STIM_018.jpg	100
1271.42	1.791	1791.2	generate	Run2	generate/STIM_018.jpg	99
1277.052	1.118	1118.1	generate	Run2	generate/STIM_018.jpg	100
1281.487	1.636	1635.7	generate	Run2	generate/STIM_019.jpg	99
1285.606	1.056	1056.5	generate	Run2	generate/STIM_019.jpg	100
1289.981	1.0	1000.2	generate	Run2	generate/STIM_019.jpg	100
1293.288	1.73	1729.6	generate	Run2	generate/STIM_019.jpg	100
1298.118	1.22	1220.3	generate	Run2	generate/STIM_019.jpg	100
1302.786	1.0	1000.0	generate	Run2	generate/STIM_020.jpg	99
1307.064	1.451	1450.8	generate	Run2	generate/STIM_020.jpg	100
1311.915	1.173	1173.1	generate	Run2	generate/STIM_020.jpg	99
1315.311	0.792	792.0	generate	Run2	generate/STIM_020.jpg	99
1318.587	1.259	1259.2	generate	Run2	generate/STIM_020.jpg	100
1322.794	1.344	1344.0	generate	Run2	generate/STIM_021.jpg	99
1326.625	0.986	985.9	generate	Run2	generate/STIM_021.jpg	100
1330.407	1.392	1392.3	generate	Run2	generate/STIM_021.jpg	99
1335.263	1.354	1354.5	generate	Run2	generate/STIM_021.jpg	99
1340.259	1.775	1775.0	generate	Run2	generate/STIM_021.jpg	100
1344.058	1.8	1799.7	generate	Run2	generate/STIM_022.jpg	100
1349.847	0.88	880.0	generate	Run2	generate/STIM_022.jpg	100
1353.455	1.608	1607.6	generate	Run2	generate/STIM_022.jpg	99
1357.89	1.715	1714.6	generate	Run2	generate/STIM_022.jpg	99
1361.958	1.235	1234.6	generate	Run2	generate/STIM_022.jpg	99
1366.826	1.361	1361.0	generate	Run2	generate/STIM_023.jpg	99
1371.395	1.796	1796.4	generate	Run2	generate/STIM_023.jpg	99
1376.5	0.858	857.8	generate	Run2	generate/STIM_023.jpg	100
1381.097	1.728	1727.9	generate	Run2	generate/STIM_023.jpg	99
1386.508	1.655	1654.6	generate	Run2	generate/STIM_023.jpg	100
1391.698	0.946	946.4	generate	Run2	generate/STIM_024.jpg	100
1395.911	1.79	1790.4	generate	Run2	generate/STIM_024.jpg	100
1401.264	1.191	1191.3	generate	Run2	generate/STIM_024.jpg	100
1406.162	1.503	1502.8	generate	Run2	generate/STIM_024.jpg	99
1410.657	1.397	1397.3	generate	Run2	generate/STIM_024.jpg	100
1415.915	0.622	622.0	repeat	Run2	repeat/STIM_000.jpg	100
1419.174	0.726	726.3	repeat	Run2	repeat/STIM_000.jpg	99
1423.523	0.881	881.1	repeat	Run2	repeat/STIM_000.jpg	100
1428.202	0.634	633.5	repeat	Run2	repeat/STIM_000.jpg	99
1431.82	0.526	525.8	repeat	Run2	repeat/STIM_000.jpg	100
1435.845	0.59	590.0	repeat	Run2	repeat/STIM_001.jpg	100
1439.245	0.549	549.0	repeat	Run2	repeat/STIM_001.jpg	99
1442.303	0.667	666.9	repeat	Run2	repeat/STIM_001.jpg	99
1446.795	0.475	474.9	repeat	Run2	repeat/STIM_001.jpg	100
1451.252	0.866	866.4	repeat	Run2	repeat/STIM_001.jpg	99
1455.07	0.444	444.0	repeat	Run2	repeat/STIM_002.jpg	100
1459.261	0.671	670.9	repeat	Run2	repeat/STIM_002.jpg	99
1463.282	0.846	845.5	repeat	Run2	repeat/STIM_002.jpg	100
1468.054	0.804	804.4	repeat	Run2	repeat/STIM_002.jpg	99
1472.329	0.603	602.6	repeat	Run2	repeat/STIM_002.jpg	99
1475.257	0.57	570.1	repeat	Run2	repeat/STIM_003.jpg	99
1478.225	0.759	758.6	repeat	Run2	repeat/STIM_003.jpg	99
1481.834	0.768	767.5	repeat	Run2	repeat/STIM_003.jpg	99
1485.348	0.448	448.2	repeat	Run2	repeat/STIM_003.jpg	99
1489.534	0.787	787.1	repeat	Run2	repeat/STIM_003.jpg	100
1493.094	0.606	605.9	repeat	Run2	repeat/STIM_004.jpg	100
1496.876	0.454	453.9	repeat	Run2	repeat/STIM_004.jpg	99
1499.601	0.683	682.8	repeat	Run2	repeat/STIM_004.jpg	99
1504.167	0.719	719.3	repeat	Run2	repeat/STIM_004.jpg	100
1508.568	0.648	648.0	repeat	Run2	repeat/STIM_004.jpg	99
1511.527	0.829	829.4	repeat	Run2	repeat/STIM_005.jpg	100
1516.002	0.748	748.0	repeat	Run2	repeat/STIM_005.jpg	100
1519.598	0.513	513.4	repeat	Run2	repeat/STIM_005.jpg	99
1523.856	0.512	512.3	repeat	Run2	repeat/STIM_005.jpg	99
1527.943	0.609	608.9	repeat	Run2	repeat/STIM_005.jpg	100
1530.696	0.747	747.4	repeat	Run2	repeat/STIM_006.jpg	100
1534.252	0.459	459.1	repeat	Run2	repeat/STIM_006.jpg	100
1537.236	0.866	865.8	repeat	Run2	repeat/STIM_006.jpg	100
1541.337	0.49	490.5	repeat	Run2	repeat/STIM_006.jpg	100
1544.14	0.822	822.2	repeat	Run2	repeat/STIM_006.jpg	100
1547.541	0.737	737.0	repeat	Run2	repeat/STIM_007.jpg	100
1551.838	0.624	624.3	repeat	Run2	repeat/STIM_007.jpg	99
1555.342	0.607	607.0	repeat	Run2	repeat/STIM_007.jpg	99
1558.742	0.658	657.6	repeat	Run2	repeat/STIM_007.jpg	100
1563.138	0.774	773.5	repeat	Run2	repeat/STIM_007.jpg	100
1566.636	0.841	841.4	repeat	Run2	repeat/STIM_008.jpg	99
1570.07	0.478	478.5	repeat	Run2	repeat/STIM_008.jpg	99
1573.972	0.838	837.8	repeat	Run2	repeat/STIM_008.jpg	100
1577.752	0.881	880.8	repeat	Run2	repeat/STIM_008.jpg	99
1582.427	0.782	782.0	repeat	Run2	repeat/STIM_008.jpg	100
1586.424	0.714	714.2	repeat	Run2	repeat/STIM_009.jpg	100
1589.244	0.668	667.6	repeat	Run2	repeat/STIM_009.jpg	99
1592.827	0.792	792.2	repeat	Run2	repeat/STIM_009.jpg	100
1597.612	0.71	710.0	repeat	Run2	repeat/STIM_009.jpg	100
1601.259	0.709	708.8	repeat	Run2	repeat/STIM_009.jpg	99
1605.496	0.647	646.6	repeat	Run2	repeat/STIM_010.jpg	99
1609.429	0.556	556.3	repeat	Run2	repeat/STIM_010.jpg	99
1612.296	0.716	715.6	repeat	Run2	repeat/STIM_010.jpg	99
1615.827	0.824	823.8	repeat	Run2	repeat/STIM_010.jpg	100
1619.11	0.815	815.1	repeat	Run2	repeat/STIM_010.jpg	99
1622.441	0.775	775.3	repeat	Run2	repeat/STIM_011.jpg	100
1626.645	0.826	825.9	repeat	Run2	repeat/STIM_011.jpg	100
1631.395	0.635	634.7	repeat	Run2	repeat/STIM_011.jpg	100
1634.48	0.493	493.3	repeat	Run2	repeat/STIM_011.jpg	100
1638.396	0.639	638.6	repeat	Run2	repeat/STIM_011.jpg	100
1641.37	0.762	762.3	repeat	Run2	repeat/STIM_012.jpg	100
1645.069	0.859	859.4	repeat	Run2	repeat/STIM_012.jpg	99
1649.626	0.743	743.1	repeat	Run2	repeat/STIM_012.jpg	99
1654.256	0.708	707.7	repeat	Run2	repeat/STIM_012.jpg	100
1658.07	0.646	645.6	repeat	Run2	repeat/STIM_012.jpg	100
1662.7	0.551	551.4	repeat	Run2	repeat/STIM_013.jpg	100
1667.224	0.655	655.3	repeat	Run2	repeat/STIM_013.jpg	99
1671.18	0.526	526.4	repeat	Run2	repeat/STIM_013.jpg	100
1675.245	0.721	721.2	repeat	Run2	repeat/STIM_013.jpg	99
1677.982	0.554	553.8	repeat	Run2	repeat/STIM_013.jpg	100
1680.709	0.827	827.0	repeat	Run2	repeat/STIM_014.jpg	100
1684.779	0.582	582.5	repeat	Run2	repeat/STIM_014.jpg	99
1687.732	0.623	623.1	repeat	Run2	repeat/STIM_014.jpg	100
1690.52	0.694	694.2	repeat	Run2	repeat/STIM_014.jpg	100
1694.101	0.731	731.0	repeat	Run2	repeat/STIM_014.jpg	100
1697.854	0.838	837.9	generate	Run3	generate/STIM_000.jpg	99
1701.406	1.141	1140.6	generate	Run3	generate/STIM_000.jpg	100
1705.878	0.965	964.6	generate	Run3	generate/STIM_000.jpg	99
1709.31	1.776	1775.5	generate	Run3	generate/STIM_000.jpg	100
1713.879	1.396	1395.8	generate	Run3	generate/STIM_000.jpg	100
1718.052	1.117	1116.7	generate	Run3	generate/STIM_001.jpg	100
1721.909	1.333	1332.7	generate	Run3	generate/STIM_001.jpg	99
1725.261	0.898	898.3	generate	Run3	generate/STIM_001.jpg	99
1730.132	0.887	887.2	generate	Run3	generate/STIM_001.jpg	100
1733.928	0.778	777.6	generate	Run3	generate/STIM_001.jpg	100
1736.97	0.887	887.4	generate	Run3	generate/STIM_002.jpg	100
1741.827	1.121	1121.1	generate	Run3	generate/STIM_002.jpg	99
1746.777	1.381	1380.8	generate	Run3	generate/STIM_002.jpg	99
1752.049	1.249	1249.2	generate	Run3	generate/STIM_002.jpg	100
1755.74	1.091	1091.3	generate	Run3	generate/STIM_002.jpg	99
1760.103	1.039	1039.1	generate	Run3	generate/STIM_003.jpg	100
1763.354	1.331	1330.7	generate	Run3	generate/STIM_003.jpg	99
1768.136	0.98	979.7	generate	Run3	generate/STIM_003.jpg	100
1772.181	1.206	1206.2	generate	Run3	generate/STIM_003.jpg	100
1775.473	1.706	1706.5	generate	Run3	generate/STIM_003.jpg	99
1779.34	1.853	1852.9	generate	Run3	generate/STIM_004.jpg	99
1783.953	1.048	1048.1	generate	Run3	generate/STIM_004.jpg	99
1787.573	1.838	1837.8	generate	Run3	generate/STIM_004.jpg	100
1792.889	1.65	1649.7	generate	Run3	generate/STIM_004.jpg	100
1797.226	0.934	933.5	generate	Run3	generate/STIM_004.jpg	99
1800.266	1.147	1146.6	generate	Run3	generate/STIM_005.jpg	99
1804.543	1.176	1176.0	generate	Run3	generate/STIM_005.jpg	99
1807.879	1.459	1459.0	generate	Run3	generate/STIM_005.jpg	100
1811.952	0.875	875.3	generate	Run3	generate/STIM_005.jpg	100
1815.373	1.23	1230.2	generate	Run3	generate/STIM_005.jpg	100
1819.442	1.19	1190.2	generate	Run3	generate/STIM_006.jpg	99
1823.671	1.386	1386.2	generate	Run3	generate/STIM_006.jpg	99
1828.086	1.456	1455.8	generate	Run3	generate/STIM_006.jpg	99
1831.991	1.816	1815.7	generate	Run3	generate/STIM_006.jpg	100
1837.386	1.827	1826.9	generate	Run3	generate/STIM_006.jpg	100
1841.439	1.542	1542.4	generate	Run3	generate/STIM_007.jpg	100
1845.893	1.406	1405.7	generate	Run3	generate/STIM_007.jpg	100
1850.277	1.43	1429.7	generate	Run3	generate/STIM_007.jpg	99
1855.105	1.817	1817.3	generate	Run3	generate/STIM_007.jpg	100
1859.082	1.706	1705.8	generate	Run3	generate/STIM_007.jpg	100
1864.207	1.526	1526.5	generate	Run3	generate/STIM_008.jpg	100
1869.664	1.116	1116.3	generate	Run3	generate/STIM_008.jpg	100
1873.766	1.16	1160.3	generate	Run3	generate/STIM_008.jpg	99
1878.835	1.059	1059.4	generate	Run3	generate/STIM_008.jpg	99
1882.518	1.214	1213.5	generate	Run3	generate/STIM_008.jpg	100
1885.898	0.795	795.2	generate	Run3	generate/STIM_009.jpg	99
1889.737	1.498	1498.0	generate	Run3	generate/STIM_009.jpg	100
1894.102	0.824	823.9	generate	Run3	generate/STIM_009.jpg	100
1898.368	0.867	867.2	generate	Run3	generate/STIM_009.jpg	100
1902.358	1.086	1086.1	generate	Run3	generate/STIM_009.jpg	100
1906.724	0.938	938.3	generate	Run3	generate/STIM_010.jpg	100
1911.073	1.144	1144.4	generate	Run3	generate/STIM_010.jpg	100
1915.037	0.966	966.2	generate	Run3	generate/STIM_010.jpg	100
1919.381	1.8	1799.9	generate	Run3	generate/STIM_010.jpg	100
1923.788	1.161	1161.4	generate	Run3	generate/STIM_010.jpg	100
1927.453	0.768	767.8	generate	Run3	generate/STIM_011.jpg	99
1931.637	1.624	1624.1	generate	Run3	generate/STIM_011.jpg	100
1935.642	0.823	822.7	generate	Run3	generate/STIM_011.jpg	100
1939.564	1.198	1197.7	generate	Run3	generate/STIM_011.jpg	99
1943.249	1.534	1533.9	generate	Run3	generate/STIM_011.jpg	99
1948.701	1.642	1642.0	generate	Run3	generate/STIM_012.jpg	100
1953.513	1.841	1841.2	generate	Run3	generate/STIM_012.jpg	99
1958.416	1.461	1461.0	generate	Run3	generate/STIM_012.jpg	99
1962.48	1.065	1065.3	generate	Run3	generate/STIM_012.jpg	99
1965.561	1.35	1349.8	generate	Run3	generate/STIM_012.jpg	100
1969.046	1.496	1496.5	generate	Run3	generate/STIM_013.jpg	100
1973.278	1.224	1224.0	generate	Run3	generate/STIM_013.jpg	100
1978.432	1.721	1721.0	generate	Run3	generate/STIM_013.jpg	100
1983.066	0.912	912.0	generate	Run3	generate/STIM_013.jpg	100
1986.455	1.417	1417.2	generate	Run3	generate/STIM_013.jpg	99
1990.392	0.765	764.6	generate	Run3	generate/STIM_014.jpg	99
1993.823	1.129	1129.3	generate	Run3	generate/STIM_014.jpg	100
1997.967	1.458	1457.8	generate	Run3	generate/STIM_014.jpg	100
2003.071	1.173	1172.8	generate	Run3	generate/STIM_014.jpg	99
2007.239	0.858	858.1	generate	Run3	generate/STIM_014.jpg	100
2010.985	1.704	1703.5	generate	Run3	generate/STIM_015.jpg	99
2015.769	1.717	1716.8	generate	Run3	generate/STIM_015.jpg	100
2020.572	1.679	1678.9	generate	Run3	generate/STIM_015.jpg	99
2026.144	0.747	746.6	generate	Run3	generate/STIM_015.jpg	100
2029.899	0.977	976.9	generate	Run3	generate/STIM_015.jpg	99
2034.346	1.526	1525.9	generate	Run3	generate/STIM_016.jpg	100
2039.461	1.448	1448.3	generate	Run3	generate/STIM_016.jpg	99
2044.628	0.833	833.3	generate	Run3	generate/STIM_016.jpg	100
2048.055	1.382	1382.3	generate	Run3	generate/STIM_016.jpg	100
2052.178	0.823	823.2	generate	Run3	generate/STIM_016.jpg	100
2055.594	1.778	1777.5	generate	Run3	generate/STIM_017.jpg	100
2059.564	0.804	803.7	generate	Run3	generate/STIM_017.jpg	100
2064.108	1.405	1405.4	generate	Run3	generate/STIM_017.jpg	99
2067.701	1.49	1489.7	generate	Run3	generate/STIM_017.jpg	100
2072.011	1.634	1634.1	generate	Run3	generate/STIM_017.jpg	99
2077.48	1.49	1489.5	generate	Run3	generate/STIM_018.jpg	99
2082.391	1.202	1201.9	generate	Run3	generate/STIM_018.jpg	100
2087.123	1.326	1325.5	generate	Run3	generate/STIM_018.jpg	100
2091.442	1.683	1682.9	generate	Run3	generate/STIM_018.jpg	100
2096.528	0.837	837.1	generate	Run3	generate/STIM_018.jpg	99
2100.383	0.899	898.7	generate	Run3	generate/STIM_019.jpg	100
2105.085	1.269	1268.7	generate	Run3	generate/STIM_019.jpg	99
2109.344	1.699	1698.8	generate	Run3	generate/STIM_019.jpg	99
2114.0	1.282	1282.3	generate	Run3	generate/STIM_019.jpg	100
2118.211	0.954	953.5	generate	Run3	generate/STIM_019.jpg	99
2121.296	1.277	1277.3	generate	Run3	generate/STIM_020.jpg	100
2125.708	1.384	1384.2	generate	Run3	generate/STIM_020.jpg	99
2129.726	1.034	1034.5	generate	Run3	generate/STIM_020.jpg	99
2134.407	1.003	1003.3	generate	Run3	generate/STIM_020.jpg	100
2138.216	1.167	1166.7	generate	Run3	generate/STIM_020.jpg	100
2142.371	0.903	903.1	generate	Run3	generate/STIM_021.jpg	100
2145.935	0.998	997.5	generate	Run3	generate/STIM_021.jpg	99
2149.262	0.995	995.4	generate	Run3	generate/STIM_021.jpg	100
2153.139	1.19	1190.2	generate	Run3	generate/STIM_021.jpg	99
2157.945	1.638	1638.5	generate	Run3	generate/STIM_021.jpg	100
2162.354	1.002	1002.2	generate	Run3	generate/STIM_022.jpg	99
2167.108	1.342	1342.1	generate	Run3	generate/STIM_022.jpg	100
2172.253	1.487	1487.2	generate	Run3	generate/STIM_022.jpg	100
2177.618	0.989	988.9	generate	Run3	generate/STIM_022.jpg	99
2182.278	1.215	1214.6	generate	Run3	generate/STIM_022.jpg	100
2186.291	0.873	873.4	generate	Run3	generate/STIM_023.jpg	99
2190.105	1.268	1268.4	generate	Run3	generate/STIM_023.jpg	100
2194.297	1.172	1172.0	generate	Run3	generate/STIM_023.jpg	100
2199.229	0.937	937.0	generate	Run3	generate/STIM_023.jpg	100
2203.147	1.1	1100.4	generate	Run3	generate/STIM_023.jpg	99
2208.15	1.653	1653.0	generate	Run3	generate/STIM_024.jpg	99
2212.689	1.526	1526.2	generate	Run3	generate/STIM_024.jpg	100
2216.508	1.042	1042.3	generate	Run3	generate/STIM_024.jpg	100
2220.881	1.453	1453.4	generate	Run3	generate/STIM_024.jpg	100
2224.58	1.086	1086.5	generate	Run3	generate/STIM_024.jpg	100
2227.875	0.546	545.9	repeat	Run3	repeat/STIM_000.jpg	99
2232.174	0.88	879.5	repeat	Run3	repeat/STIM_000.jpg	99
2236.293	0.611	610.8	repeat	Run3	repeat/STIM_000.jpg	99
2240.311	0.858	857.9	repeat	Run3	repeat/STIM_000.jpg	99
2245.081	0.67	669.5	repeat	Run3	repeat/STIM_000.jpg	99
2248.98	0.63	630.3	repeat	Run3	repeat/STIM_001.jpg	100
2253.24	0.568	568.4	repeat	Run3	repeat/STIM_001.jpg	99
2256.315	0.74	739.6	repeat	Run3	repeat/STIM_001.jpg	99
2259.23	0.459	459.1	repeat	Run3	repeat/STIM_001.jpg	99
2263.133	0.814	813.7	repeat	Run3	repeat/STIM_001.jpg	99
2267.625	0.521	520.7	repeat	Run3	repeat/STIM_002.jpg	100
2270.881	0.815	815.2	repeat	Run3	repeat/STIM_002.jpg	100
2274.287	0.882	882.1	repeat	Run3	repeat/STIM_002.jpg	100
2278.845	0.637	636.9	repeat	Run3	repeat/STIM_002.jpg	99
2283.415	0.607	607.3	repeat	Run3	repeat/STIM_002.jpg	100
2287.432	0.789	789.0	repeat	Run3	repeat/STIM_003.jpg	100
2290.556	0.734	734.1	repeat	Run3	repeat/STIM_003.jpg	100
2293.65	0.505	504.7	repeat	Run3	repeat/STIM_003.jpg	100
2296.399	0.54	540.1	repeat	Run3	repeat/STIM_003.jpg	100
2299.768	0.566	565.7	repeat	Run3	repeat/STIM_003.jpg	100
2304.22	0.872	871.8	repeat	Run3	repeat/STIM_004.jpg	100
2307.869	0.467	467.0	repeat	Run3	repeat/STIM_004.jpg	99
2311.722	0.459	459.4	repeat	Run3	repeat/STIM_004.jpg	100
2314.265	0.882	882.3	repeat	Run3	repeat/STIM_004.jpg	99
2318.422	0.853	852.7	repeat	Run3	repeat/STIM_004.jpg	100
2321.709	0.838	838.4	repeat	Run3	repeat/STIM_005.jpg	100
2324.701	0.486	486.5	repeat	Run3	repeat/STIM_005.jpg	99
2328.807	0.853	852.9	repeat	Run3	repeat/STIM_005.jpg	99
2331.79	0.712	712.1	repeat	Run3	repeat/STIM_005.jpg	99
2335.782	0.831	830.9	repeat	Run3	repeat/STIM_005.jpg	99
2338.973	0.52	520.1	repeat	Run3	repeat/STIM_006.jpg	100
2343.363	0.672	672.3	repeat	Run3	repeat/STIM_006.jpg	99
2347.992	0.758	758.1	repeat	Run3	repeat/STIM_006.jpg	99
2351.72	0.662	662.0	repeat	Run3	repeat/STIM_006.jpg	99
2355.943	0.667	666.6	repeat	Run3	repeat/STIM_006.jpg	100
2359.55	0.752	751.9	repeat	Run3	repeat/STIM_007.jpg	100
2364.234	0.553	553.0	repeat	Run3	repeat/STIM_007.jpg	99
2368.118	0.448	447.7	repeat	Run3	repeat/STIM_007.jpg	99
2371.251	0.605	605.1	repeat	Run3	repeat/STIM_007.jpg	99
2374.345	0.622	621.7	repeat	Run3	repeat/STIM_007.jpg	99
2377.392	0.832	831.9	repeat	Run3	repeat/STIM_008.jpg	99
2381.702	0.86	859.8	repeat	Run3	repeat/STIM_008.jpg	99
2385.6	0.777	777.3	repeat	Run3	repeat/STIM_008.jpg	99
2388.556	0.46	459.6	repeat	Run3	repeat/STIM_008.jpg	99
2391.744	0.692	692.2	repeat	Run3	repeat/STIM_008.jpg	99
2396.042	0.494	494.1	repeat	Run3	repeat/STIM_009.jpg	100
2399.701	0.593	592.8	repeat	Run3	repeat/STIM_009.jpg	100
2404.157	0.725	725.3	repeat	Run3	repeat/STIM_009.jpg	100
2407.785	0.673	672.8	repeat	Run3	repeat/STIM_009.jpg	99
2412.083	0.529	528.7	repeat	Run3	repeat/STIM_009.jpg	99
2415.317	0.6	599.5	repeat	Run3	repeat/STIM_010.jpg	99
2417.976	0.82	820.3	repeat	Run3	repeat/STIM_010.jpg	100
2422.333	0.598	598.1	repeat	Run3	repeat/STIM_010.jpg	100
2426.248	0.459	459.4	repeat	Run3	repeat/STIM_010.jpg	100
2430.106	0.679	679.1	repeat	Run3	repeat/STIM_010.jpg	100
2433.624	0.587	587.4	repeat	Run3	repeat/STIM_011.jpg	100
2436.443	0.47	470.3	repeat	Run3	repeat/STIM_011.jpg	100
2439.613	0.849	849.0	repeat	Run3	repeat/STIM_011.jpg	100
2443.132	0.665	665.4	repeat	Run3	repeat/STIM_011.jpg	100
2447.579	0.518	517.7	repeat	Run3	repeat/STIM_011.jpg	100
2450.998	0.445	445.4	repeat	Run3	repeat/STIM_012.jpg	99
2455.433	0.868	867.6	repeat	Run3	repeat/STIM_012.jpg	99
2458.493	0.856	855.8	repeat	Run3	repeat/STIM_012.jpg	99
2462.276	0.687	686.9	repeat	Run3	repeat/STIM_012.jpg	100
2466.206	0.69	690.3	repeat	Run3	repeat/STIM_012.jpg	100
2470.143	0.797	796.7	repeat	Run3	repeat/STIM_013.jpg	99
2473.531	0.467	467.1	repeat	Run3	repeat/STIM_013.jpg	99
2476.145	0.862	861.8	repeat	Run3	repeat/STIM_013.jpg	99
2479.389	0.713	713.4	repeat	Run3	repeat/STIM_013.jpg	100
2482.192	0.607	606.7	repeat	Run3	repeat/STIM_013.jpg	99
2485.791	0.641	641.1	repeat	Run3	repeat/STIM_014.jpg	99
2490.213	0.6	600.2	repeat	Run3	repeat/STIM_014.jpg	99
2493.291	0.873	873.0	repeat	Run3	repeat/STIM_014.jpg	99
2498.164	0.712	712.0	repeat	Run3	repeat/STIM_014.jpg	99
2501.498	0.512	512.0	repeat	Run3	repeat/STIM_014.jpg	99
2504.032	1.092	1091.9	generate	Run4	generate/STIM_000.jpg	100
2507.897	1.079	1078.6	generate	Run4	generate/STIM_000.jpg	100
2511.806	1.658	1657.9	generate	Run4	generate/STIM_000.jpg	99
2516.758	1.529	1528.6	generate	Run4	generate/STIM_000.jpg	99
2520.475	0.864	863.8	generate	Run4	generate/STIM_000.jpg	99
2523.752	1.716	1715.7	generate	Run4	generate/STIM_001.jpg	99
2528.485	1.52	1519.7	generate	Run4	generate/STIM_001.jpg	100
2533.743	1.187	1186.7	generate	Run4	generate/STIM_001.jpg	99
2538.542	1.374	1373.9	generate	Run4	generate/STIM_001.jpg	100
2541.986	0.939	939.2	generate	Run4	generate/STIM_001.jpg	100
2545.883	1.49	1490.5	generate	Run4	generate/STIM_002.jpg	100
2549.899	1.349	1348.8	generate	Run4	generate/STIM_002.jpg	99
2553.499	1.319	1318.9	generate	Run4	generate/STIM_002.jpg	99
2557.859	1.412	1412.1	generate	Run4	generate/STIM_002.jpg	100
2561.932	1.168	1167.8	generate	Run4	generate/STIM_002.jpg	99
2565.264	1.477	1477.4	generate	Run4	generate/STIM_003.jpg	99
2569.372	1.362	1362.0	generate	Run4	generate/STIM_003.jpg	99
2573.377	1.586	1586.2	generate	Run4	generate/STIM_003.jpg	99
2578.375	1.778	1777.6	generate	Run4	generate/STIM_003.jpg	100
2583.022	1.651	1651.4	generate	Run4	generate/STIM_003.jpg	100
2587.9	1.52	1519.5	generate	Run4	generate/STIM_004.jpg	99
2592.008	1.041	1041.3	generate	Run4	generate/STIM_004.jpg	100
2595.553	0.788	787.8	generate	Run4	generate/STIM_004.jpg	100
2600.221	0.934	933.9	generate	Run4	generate/STIM_004.jpg	100
2603.952	0.947	947.4	generate	Run4	generate/STIM_004.jpg	99
2607.742	1.39	1390.0	generate	Run4	generate/STIM_005.jpg	100
2612.95	1.031	1031.3	generate	Run4	generate/STIM_005.jpg	99
2617.525	0.99	989.7	generate	Run4	generate/STIM_005.jpg	100
2621.849	1.229	1228.9	generate	Run4	generate/STIM_005.jpg	99
2627.058	1.312	1311.6	generate	Run4	generate/STIM_005.jpg	99
2630.884	1.834	1833.6	generate	Run4	generate/STIM_006.jpg	100
2635.517	1.364	1363.5	generate	Run4	generate/STIM_006.jpg	99
2638.889	1.573	1573.0	generate	Run4	generate/STIM_006.jpg	99
2643.328	1.031	1031.1	generate	Run4	generate/STIM_006.jpg	99
2648.109	1.666	1666.5	generate	Run4	generate/STIM_006.jpg	99
2651.906	1.543	1543.1	generate	Run4	generate/STIM_007.jpg	100
2656.505	1.82	1819.6	generate	Run4	generate/STIM_007.jpg	100
2662.227	1.178	1178.3	generate	Run4	generate/STIM_007.jpg	99
2665.783	1.631	1631.3	generate	Run4	generate/STIM_007.jpg	100
2669.662	0.914	913.8	generate	Run4	generate/STIM_007.jpg	99
2674.333	1.624	1623.8	generate	Run4	generate/STIM_008.jpg	99
2678.734	1.765	1764.6	generate	Run4	generate/STIM_008.jpg	99
2684.452	0.909	908.7	generate	Run4	generate/STIM_008.jpg	99
2687.709	1.156	1156.3	generate	Run4	generate/STIM_008.jpg	100
2692.268	1.327	1326.8	generate	Run4	generate/STIM_008.jpg	99
2696.905	1.504	1503.5	generate	Run4	generate/STIM_009.jpg	99
2701.268	1.278	1278.3	generate	Run4	generate/STIM_009.jpg	99
2704.678	1.057	1056.6	generate	Run4	generate/STIM_009.jpg	99
2708.807	1.342	1341.8	generate	Run4	generate/STIM_009.jpg	99
2712.332	1.704	1703.7	generate	Run4	generate/STIM_009.jpg	100
2718.023	1.818	1818.1	generate	Run4	generate/STIM_010.jpg	100
2723.277	1.378	1378.3	generate	Run4	generate/STIM_010.jpg	99
2726.781	0.758	757.7	generate	Run4	generate/STIM_010.jpg	99
2731.437	1.046	1045.7	generate	Run4	generate/STIM_010.jpg	100
2735.415	0.857	857.1	generate	Run4	generate/STIM_010.jpg	99
2739.416	1.451	1451.1	generate	Run4	generate/STIM_011.jpg	100
2743.443	0.974	973.5	generate	Run4	generate/STIM_011.jpg	100
2747.953	0.87	869.6	generate	Run4	generate/STIM_011.jpg	100
2752.15	1.799	1798.8	generate	Run4	generate/STIM_011.jpg	99
2757.247	1.432	1432.1	generate	Run4	generate/STIM_011.jpg	100
2762.601	0.926	925.5	generate	Run4	generate/STIM_012.jpg	100
2766.158	1.081	1081.4	generate	Run4	generate/STIM_012.jpg	100
2769.905	1.351	1351.0	generate	Run4	generate/STIM_012.jpg	100
2774.308	1.56	1559.6	generate	Run4	generate/STIM_012.jpg	99
2778.48	0.763	763.2	generate	Run4	generate/STIM_012.jpg	100
2783.046	0.772	771.7	generate	Run4	generate/STIM_013.jpg	99
2787.389	0.929	928.6	generate	Run4	generate/STIM_013.jpg	100
2791.683	1.466	1465.6	generate	Run4	generate/STIM_013.jpg	99
2796.114	1.381	1381.0	generate	Run4	generate/STIM_013.jpg	100
2801.156	0.801	800.7	generate	Run4	generate/STIM_013.jpg	99
2804.715	0.943	942.8	generate	Run4	generate/STIM_014.jpg	100
2808.19	1.211	1211.0	generate	Run4	generate/STIM_014.jpg	99
2812.149	1.372	1372.5	generate	Run4	generate/STIM_014.jpg	100
2815.56	1.559	1559.0	generate	Run4	generate/STIM_014.jpg	100
2819.782	1.092	1091.8	generate	Run4	generate/STIM_014.jpg	100
2824.057	1.11	1110.0	generate	Run4	generate/STIM_015.jpg	99
2828.612	1.749	1749.2	generate	Run4	generate/STIM_015.jpg	100
2833.996	1.598	1597.7	generate	Run4	generate/STIM_015.jpg	100
2839.026	1.037	1036.8	generate	Run4	generate/STIM_015.jpg	100
2843.633	0.833	832.9	generate	Run4	generate/STIM_015.jpg	99
2846.994	0.896	895.6	generate	Run4	generate/STIM_016.jpg	99
2850.857	1.672	1672.4	generate	Run4	generate/STIM_016.jpg	100
2854.869	0.795	794.8	generate	Run4	generate/STIM_016.jpg	100
2858.218	1.782	1781.6	generate	Run4	generate/STIM_016.jpg	100
2863.061	1.012	1011.7	generate	Run4	generate/STIM_016.jpg	100
2866.742	1.565	1564.6	generate	Run4	generate/STIM_017.jpg	100
2871.39	1.463	1463.1	generate	Run4	generate/STIM_017.jpg	100
2875.871	0.918	917.9	generate	Run4	generate/STIM_017.jpg	100
2880.366	1.644	1644.5	generate	Run4	generate/STIM_017.jpg	100
2885.602	1.034	1033.5	generate	Run4	generate/STIM_017.jpg	99
2890.243	1.564	1563.8	generate	Run4	generate/STIM_018.jpg	100
2894.195	0.958	958.1	generate	Run4	generate/STIM_018.jpg	100
2899.12	1.571	1571.4	generate	Run4	generate/STIM_018.jpg	100
2903.131	1.42	1419.5	generate	Run4	generate/STIM_018.jpg	100
2907.574	0.813	813.1	generate	Run4	generate/STIM_018.jpg	100
2911.799	1.327	1327.2	generate	Run4	generate/STIM_019.jpg	99
2915.664	1.58	1579.5	generate	Run4	generate/STIM_019.jpg	99
2921.228	1.605	1605.4	generate	Run4	generate/STIM_019.jpg	100
2924.965	0.923	922.6	generate	Run4	generate/STIM_019.jpg	100
2929.642	1.061	1061.3	generate	Run4	generate/STIM_019.jpg	99
2934.491	1.852	1852.5	generate	Run4	generate/STIM_020.jpg	100
2939.442	1.356	1355.7	generate	Run4	generate/STIM_020.jpg	100
2944.194	0.975	974.6	generate	Run4	generate/STIM_020.jpg	100
2947.343	1.583	1582.9	generate	Run4	generate/STIM_020.jpg	100
2951.509	1.488	1488.1	generate	Run4	generate/STIM_020.jpg	100
2955.209	1.499	1499.0	generate	Run4	generate/STIM_021.jpg	100
2958.983	1.032	1031.6	generate	Run4	generate/STIM_021.jpg	99
2962.763	1.643	1643.4	generate	Run4	generate/STIM_021.jpg	99
2967.014	0.998	998.2	generate	Run4	generate/STIM_021.jpg	99
2970.013	1.811	1810.7	generate	Run4	generate/STIM_021.jpg	99
2974.77	1.707	1706.8	generate	Run4	generate/STIM_022.jpg	100
2979.896	0.827	826.9	generate	Run4	generate/STIM_022.jpg	99
2982.77	1.024	1024.1	generate	Run4	generate/STIM_022.jpg	99
2986.282	1.721	1721.1	generate	Run4	generate/STIM_022.jpg	99
2991.151	1.218	1218.0	generate	Run4	generate/STIM_022.jpg	99
2996.292	0.844	844.1	generate	Run4	generate/STIM_023.jpg	100
2999.756	1.64	1640.3	generate	Run4	generate/STIM_023.jpg	99
3003.529	1.576	1575.9	generate	Run4	generate/STIM_023.jpg	100
3007.376	1.138	1138.3	generate	Run4	generate/STIM_023.jpg	100
3011.119	1.524	1523.6	generate	Run4	generate/STIM_023.jpg	100
3015.422	0.814	813.7	generate	Run4	generate/STIM_024.jpg	100
3019.899	0.912	912.2	generate	Run4	generate/STIM_024.jpg	100
3023.877	1.089	1088.8	generate	Run4	generate/STIM_024.jpg	99
3028.148	0.96	959.5	generate	Run4	generate/STIM_024.jpg	99
3031.493	1.172	1171.8	generate	Run4	generate/STIM_024.jpg	100
3036.176	0.447	447.4	repeat	Run4	repeat/STIM_000.jpg	100
3039.564	0.66	660.1	repeat	Run4	repeat/STIM_000.jpg	99
3043.699	0.479	479.1	repeat	Run4	repeat/STIM_000.jpg	100
3047.306	0.67	670.3	repeat	Run4	repeat/STIM_000.jpg	99
3050.811	0.548	547.8	repeat	Run4	repeat/STIM_000.jpg	100
3053.78	0.766	765.8	repeat	Run4	repeat/STIM_001.jpg	100
3057.442	0.54	540.5	repeat	Run4	repeat/STIM_001.jpg	99
3061.804	0.589	589.0	repeat	Run4	repeat/STIM_001.jpg	99
3065.984	0.722	721.9	repeat	Run4	repeat/STIM_001.jpg	99
3069.617	0.497	496.8	repeat	Run4	repeat/STIM_001.jpg	100
3073.591	0.453	453.0	repeat	Run4	repeat/STIM_002.jpg	100
3076.124	0.457	457.0	repeat	Run4	repeat/STIM_002.jpg	100
3079.549	0.619	618.9	repeat	Run4	repeat/STIM_002.jpg	100
3083.944	0.444	443.7	repeat	Run4	repeat/STIM_002.jpg	100
3087.203	0.712	711.9	repeat	Run4	repeat/STIM_002.jpg	100
3091.844	0.544	543.7	repeat	Run4	repeat/STIM_003.jpg	99
3095.979	0.773	772.6	repeat	Run4	repeat/STIM_003.jpg	99
3099.726	0.622	621.9	repeat	Run4	repeat/STIM_003.jpg	99
3102.633	0.492	492.5	repeat	Run4	repeat/STIM_003.jpg	99
3107.078	0.559	559.4	repeat	Run4	repeat/STIM_003.jpg	99
3110.42	0.692	692.3	repeat	Run4	repeat/STIM_004.jpg	100
3115.099	0.456	456.2	repeat	Run4	repeat/STIM_004.jpg	99
3118.817	0.514	513.9	repeat	Run4	repeat/STIM_004.jpg	99
3121.873	0.604	604.1	repeat	Run4	repeat/STIM_004.jpg	99
3126.169	0.547	547.1	repeat	Run4	repeat/STIM_004.jpg	99
3129.796	0.67	670.4	repeat	Run4	repeat/STIM_005.jpg	100
3134.078	0.742	742.0	repeat	Run4	repeat/STIM_005.jpg	99
3138.554	0.649	649.4	repeat	Run4	repeat/STIM_005.jpg	100
3143.157	0.735	734.9	repeat	Run4	repeat/STIM_005.jpg	100
3147.722	0.875	875.4	repeat	Run4	repeat/STIM_005.jpg	100
3152.082	0.457	456.6	repeat	Run4	repeat/STIM_006.jpg	99
3155.351	0.629	629.3	repeat	Run4	repeat/STIM_006.jpg	100
3158.82	0.513	512.8	repeat	Run4	repeat/STIM_006.jpg	100
3162.998	0.508	508.5	repeat	Run4	repeat/STIM_006.jpg	100
3167.249	0.608	607.9	repeat	Run4	repeat/STIM_006.jpg	100
3171.669	0.701	700.9	repeat	Run4	repeat/STIM_007.jpg	100
3176.297	0.805	805.1	repeat	Run4	repeat/STIM_007.jpg	99
3179.424	0.823	823.2	repeat	Run4	repeat/STIM_007.jpg	100
3183.633	0.595	594.8	repeat	Run4	repeat/STIM_007.jpg	99
3187.74	0.64	640.5	repeat	Run4	repeat/STIM_007.jpg	99
3192.361	0.791	790.7	repeat	Run4	repeat/STIM_008.jpg	99
3195.201	0.472	471.5	repeat	Run4	repeat/STIM_008.jpg	99
3198.623	0.775	775.1	repeat	Run4	repeat/STIM_008.jpg	100
3202.863	0.821	820.7	repeat	Run4	repeat/STIM_008.jpg	99
3207.242	0.68	679.5	repeat	Run4	repeat/STIM_008.jpg	100
3211.749	0.673	672.7	repeat	Run4	repeat/STIM_009.jpg	99
3216.383	0.445	445.3	repeat	Run4	repeat/STIM_009.jpg	100
3219.859	0.601	601.4	repeat	Run4	repeat/STIM_009.jpg	100
3223.984	0.61	609.7	repeat	Run4	repeat/STIM_009.jpg	100
3227.633	0.641	641.2	repeat	Run4	repeat/STIM_009.jpg	99
3231.161	0.518	518.2	repeat	Run4	repeat/STIM_010.jpg	100
3235.674	0.579	579.1	repeat	Run4	repeat/STIM_010.jpg	99
3238.605	0.82	819.8	repeat	Run4	repeat/STIM_010.jpg	100
3241.558	0.65	650.5	repeat	Run4	repeat/STIM_010.jpg	100
3245.385	0.452	451.5	repeat	Run4	repeat/STIM_010.jpg	100
3248.167	0.467	467.0	repeat	Run4	repeat/STIM_011.jpg	99
3252.081	0.668	667.5	repeat	Run4	repeat/STIM_011.jpg	100
3256.0	0.533	532.7	repeat	Run4	repeat/STIM_011.jpg	99
3260.304	0.664	663.8	repeat	Run4	repeat/STIM_011.jpg	100
3263.101	0.876	875.8	repeat	Run4	repeat/STIM_011.jpg	99
3266.44	0.87	869.6	repeat	Run4	repeat/STIM_012.jpg	99
3270.252	0.79	789.9	repeat	Run4	repeat/STIM_012.jpg	100
3274.486	0.569	568.8	repeat	Run4	repeat/STIM_012.jpg	99
3277.506	0.497	496.9	repeat	Run4	repeat/STIM_012.jpg	100
3281.017	0.714	713.5	repeat	Run4	repeat/STIM_012.jpg	100
3283.844	0.701	700.6	repeat	Run4	repeat/STIM_013.jpg	99
3287.488	0.857	857.2	repeat	Run4	repeat/STIM_013.jpg	100
3291.263	0.467	467.2	repeat	Run4	repeat/STIM_013.jpg	100
3294.045	0.663	662.9	repeat	Run4	repeat/STIM_013.jpg	99
3298.046	0.63	629.8	repeat	Run4	repeat/STIM_013.jpg	100
3300.845	0.875	874.7	repeat	Run4	repeat/STIM_014.jpg	99
3303.794	0.862	862.0	repeat	Run4	repeat/STIM_014.jpg	99
3308.082	0.533	533.2	repeat	Run4	repeat/STIM_014.jpg	100
3310.769	0.775	774.8	repeat	Run4	repeat/STIM_014.jpg	99
3315.101	0.84	839.9	repeat	Run4	repeat/STIM_014.jpg	100
