onset	duration	accuracy	trial_type	learning_stage	stimulus
0.0	3.552	incorrect	generate	Run1	generate/STIM_000.jpg
6.71	1.43	correct	generate	Run1	generate/STIM_000.jpg
11.599	2.632	correct	generate	Run1	generate/STIM_000.jpg
16.815	1.907	correct	generate	Run1	generate/STIM_000.jpg
20.862	2.366	correct	generate	Run1	generate/STIM_000.jpg
26.624	3.36	correct	generate	Run1	generate/STIM_001.jpg
32.258	2.209	correct	generate	Run1	generate/STIM_001.jpg
36.645	2.498	incorrect	generate	Run1	generate/STIM_001.jpg
42.438	1.28	correct	generate	Run1	generate/STIM_001.jpg
46.943	1.973	incorrect	generate	Run1	generate/STIM_001.jpg
50.934	2.826	incorrect	generate	Run1	generate/STIM_002.jpg
55.733	1.545	incorrect	generate	Run1	generate/STIM_002.jpg
59.934	1.25	correct	generate	Run1	generate/STIM_002.jpg
63.822	2.084	correct	generate	Run1	generate/STIM_002.jpg
69.61	2.22	correct	generate	Run1	generate/STIM_002.jpg
73.846	1.8	correct	generate	Run1	generate/STIM_003.jpg
78.196	2.45	correct	generate	Run1	generate/STIM_003.jpg
83.173	2.01	correct	generate	Run1	generate/STIM_003.jpg
87.611	2.785	incorrect	generate	Run1	generate/STIM_003.jpg
93.909	2.34	incorrect	generate	Run1	generate/STIM_003.jpg
98.68	2.972	correct	generate	Run1	generate/STIM_004.jpg
103.303	2.679	correct	generate	Run1	generate/STIM_004.jpg
107.656	1.827	correct	generate	Run1	generate/STIM_004.jpg
113.1	1.573	correct	generate	Run1	generate/STIM_004.jpg
118.452	1.497	correct	generate	Run1	generate/STIM_004.jpg
122.824	3.114	correct	generate	Run1	generate/STIM_005.jpg
127.634	2.52	correct	generate	Run1	generate/STIM_005.jpg
131.962	2.854	incorrect	generate	Run1	generate/STIM_005.jpg
137.028	2.718	correct	generate	Run1	generate/STIM_005.jpg
143.244	1.657	correct	generate	Run1	generate/STIM_005.jpg
146.708	2.836	correct	generate	Run1	generate/STIM_006.jpg
151.709	1.34	incorrect	generate	Run1	generate/STIM_006.jpg
154.907	1.523	correct	generate	Run1	generate/STIM_006.jpg
158.617	2.692	correct	generate	Run1	generate/STIM_006.jpg
163.899	1.342	incorrect	generate	Run1	generate/STIM_006.jpg
167.803	1.611	correct	generate	Run1	generate/STIM_007.jpg
172.406	1.568	correct	generate	Run1	generate/STIM_007.jpg
177.114	2.993	correct	generate	Run1	generate/STIM_007.jpg
182.264	1.818	correct	generate	Run1	generate/STIM_007.jpg
186.83	1.974	correct	generate	Run1	generate/STIM_007.jpg
191.229	3.368	correct	generate	Run1	generate/STIM_008.jpg
196.955	2.198	incorrect	generate	Run1	generate/STIM_008.jpg
202.221	2.788	correct	generate	Run1	generate/STIM_008.jpg
207.424	2.323	correct	generate	Run1	generate/STIM_008.jpg
213.094	2.38	incorrect	generate	Run1	generate/STIM_008.jpg
217.567	2.73	correct	generate	Run1	generate/STIM_009.jpg
223.238	1.384	correct	generate	Run1	generate/STIM_009.jpg
227.604	2.093	correct	generate	Run1	generate/STIM_009.jpg
232.419	1.336	correct	generate	Run1	generate/STIM_009.jpg
237.455	1.42	correct	generate	Run1	generate/STIM_009.jpg
242.147	1.798	correct	generate	Run1	generate/STIM_010.jpg
247.134	1.557	correct	generate	Run1	generate/STIM_010.jpg
252.074	2.723	correct	generate	Run1	generate/STIM_010.jpg
257.841	2.244	correct	generate	Run1	generate/STIM_010.jpg
262.151	1.236	correct	generate	Run1	generate/STIM_010.jpg
265.754	3.042	correct	generate	Run1	generate/STIM_011.jpg
271.719	2.246	correct	generate	Run1	generate/STIM_011.jpg
275.94	2.651	correct	generate	Run1	generate/STIM_011.jpg
281.316	2.102	correct	generate	Run1	generate/STIM_011.jpg
285.638	2.438	correct	generate	Run1	generate/STIM_011.jpg
290.523	2.907	correct	generate	Run1	generate/STIM_012.jpg
295.4	1.764	correct	generate	Run1	generate/STIM_012.jpg
300.14	2.237	correct	generate	Run1	generate/STIM_012.jpg
305.277	2.152	incorrect	generate	Run1	generate/STIM_012.jpg
309.946	1.49	correct	generate	Run1	generate/STIM_012.jpg
313.907	2.531	correct	generate	Run1	generate/STIM_013.jpg
318.602	2.458	correct	generate	Run1	generate/STIM_013.jpg
323.469	1.206	correct	generate	Run1	generate/STIM_013.jpg
327.676	2.367	correct	generate	Run1	generate/STIM_013.jpg
333.684	2.223	correct	generate	Run1	generate/STIM_013.jpg
339.225	2.388	correct	generate	Run1	generate/STIM_014.jpg
343.867	2.028	correct	generate	Run1	generate/STIM_014.jpg
349.627	1.84	correct	generate	Run1	generate/STIM_014.jpg
353.712	2.304	correct	generate	Run1	generate/STIM_014.jpg
358.287	2.641	correct	generate	Run1	generate/STIM_014.jpg
363.216	2.388	correct	generate	Run1	generate/STIM_015.jpg
368.74	2.737	correct	generate	Run1	generate/STIM_015.jpg
374.701	1.988	correct	generate	Run1	generate/STIM_015.jpg
379.108	1.552	correct	generate	Run1	generate/STIM_015.jpg
383.264	2.612	correct	generate	Run1	generate/STIM_015.jpg
388.664	3.436	incorrect	generate	Run1	generate/STIM_016.jpg
393.969	3.012	incorrect	generate	Run1	generate/STIM_016.jpg
399.448	1.304	correct	generate	Run1	generate/STIM_016.jpg
404.257	2.009	correct	generate	Run1	generate/STIM_016.jpg
409.894	2.126	correct	generate	Run1	generate/STIM_016.jpg
414.466	1.49	correct	generate	Run1	generate/STIM_017.jpg
418.019	1.52	correct	generate	Run1	generate/STIM_017.jpg
422.427	2.752	incorrect	generate	Run1	generate/STIM_017.jpg
428.084	1.525	correct	generate	Run1	generate/STIM_017.jpg
431.703	1.226	correct	generate	Run1	generate/STIM_017.jpg
436.125	3.429	correct	generate	Run1	generate/STIM_018.jpg
443.041	2.316	correct	generate	Run1	generate/STIM_018.jpg
447.179	2.666	correct	generate	Run1	generate/STIM_018.jpg
452.486	2.186	correct	generate	Run1	generate/STIM_018.jpg
457.476	1.692	incorrect	generate	Run1	generate/STIM_018.jpg
462.313	2.598	incorrect	generate	Run1	generate/STIM_019.jpg
468.219	3.208	correct	generate	Run1	generate/STIM_019.jpg
473.704	2.286	correct	generate	Run1	generate/STIM_019.jpg
477.815	2.51	correct	generate	Run1	generate/STIM_019.jpg
482.047	2.593	correct	generate	Run1	generate/STIM_019.jpg
488.141	2.355	incorrect	generate	Run1	generate/STIM_020.jpg
493.085	2.818	correct	generate	Run1	generate/STIM_020.jpg
498.785	1.659	incorrect	generate	Run1	generate/STIM_020.jpg
503.575	1.961	correct	generate	Run1	generate/STIM_020.jpg
509.218	1.143	incorrect	generate	Run1	generate/STIM_020.jpg
513.254	3.136	incorrect	generate	Run1	generate/STIM_021.jpg
519.542	1.86	correct	generate	Run1	generate/STIM_021.jpg
524.901	2.151	correct	generate	Run1	generate/STIM_021.jpg
529.576	1.835	correct	generate	Run1	generate/STIM_021.jpg
534.738	1.77	correct	generate	Run1	generate/STIM_021.jpg
539.707	2.566	correct	generate	Run1	generate/STIM_022.jpg
544.724	2.312	correct	generate	Run1	generate/STIM_022.jpg
550.133	2.772	incorrect	generate	Run1	generate/STIM_022.jpg
555.346	1.23	correct	generate	Run1	generate/STIM_022.jpg
560.37	2.434	incorrect	generate	Run1	generate/STIM_022.jpg
565.392	2.315	correct	generate	Run1	generate/STIM_023.jpg
569.808	2.326	correct	generate	Run1	generate/STIM_023.jpg
573.777	2.408	correct	generate	Run1	generate/STIM_023.jpg
578.081	1.223	correct	generate	Run1	generate/STIM_023.jpg
583.032	2.197	incorrect	generate	Run1	generate/STIM_023.jpg
587.526	2.557	correct	generate	Run1	generate/STIM_024.jpg
593.613	1.945	correct	generate	Run1	generate/STIM_024.jpg
598.913	2.825	incorrect	generate	Run1	generate/STIM_024.jpg
605.094	2.065	correct	generate	Run1	generate/STIM_024.jpg
609.376	2.428	correct	generate	Run1	generate/STIM_024.jpg
614.393	0.99	correct	repeat	Run1	repeat/STIM_000.jpg
617.847	0.791	correct	repeat	Run1	repeat/STIM_000.jpg
620.681	0.686	correct	repeat	Run1	repeat/STIM_000.jpg
623.904	0.769	correct	repeat	Run1	repeat/STIM_000.jpg
627.312	1.111	correct	repeat	Run1	repeat/STIM_000.jpg
631.774	1.113	correct	repeat	Run1	repeat/STIM_001.jpg
636.155	1.139	correct	repeat	Run1	repeat/STIM_001.jpg
640.869	0.678	correct	repeat	Run1	repeat/STIM_001.jpg
645.324	1.132	correct	repeat	Run1	repeat/STIM_001.jpg
649.725	0.815	correct	repeat	Run1	repeat/STIM_001.jpg
652.6	0.911	correct	repeat	Run1	repeat/STIM_002.jpg
655.859	0.605	correct	repeat	Run1	repeat/STIM_002.jpg
659.194	0.662	correct	repeat	Run1	repeat/STIM_002.jpg
663.089	0.918	correct	repeat	Run1	repeat/STIM_002.jpg
667.105	0.963	correct	repeat	Run1	repeat/STIM_002.jpg
670.099	0.668	correct	repeat	Run1	repeat/STIM_003.jpg
672.728	1.068	correct	repeat	Run1	repeat/STIM_003.jpg
676.995	0.591	correct	repeat	Run1	repeat/STIM_003.jpg
679.595	0.773	correct	repeat	Run1	repeat/STIM_003.jpg
683.363	0.995	correct	repeat	Run1	repeat/STIM_003.jpg
686.507	1.094	correct	repeat	Run1	repeat/STIM_004.jpg
690.747	0.762	correct	repeat	Run1	repeat/STIM_004.jpg
694.974	0.536	correct	repeat	Run1	repeat/STIM_004.jpg
697.946	0.812	correct	repeat	Run1	repeat/STIM_004.jpg
702.396	1.134	correct	repeat	Run1	repeat/STIM_004.jpg
705.728	0.869	correct	repeat	Run1	repeat/STIM_005.jpg
709.51	1.122	correct	repeat	Run1	repeat/STIM_005.jpg
712.873	0.772	correct	repeat	Run1	repeat/STIM_005.jpg
715.776	0.909	correct	repeat	Run1	repeat/STIM_005.jpg
720.156	0.604	correct	repeat	Run1	repeat/STIM_005.jpg
724.337	1.11	correct	repeat	Run1	repeat/STIM_006.jpg
727.859	0.753	correct	repeat	Run1	repeat/STIM_006.jpg
730.63	0.618	correct	repeat	Run1	repeat/STIM_006.jpg
734.831	0.616	correct	repeat	Run1	repeat/STIM_006.jpg
737.447	0.947	correct	repeat	Run1	repeat/STIM_006.jpg
741.122	1.064	correct	repeat	Run1	repeat/STIM_007.jpg
745.835	0.951	correct	repeat	Run1	repeat/STIM_007.jpg
749.633	0.762	correct	repeat	Run1	repeat/STIM_007.jpg
752.85	1.173	correct	repeat	Run1	repeat/STIM_007.jpg
756.412	0.9	correct	repeat	Run1	repeat/STIM_007.jpg
760.88	0.739	correct	repeat	Run1	repeat/STIM_008.jpg
764.114	1.095	correct	repeat	Run1	repeat/STIM_008.jpg
768.872	0.992	correct	repeat	Run1	repeat/STIM_008.jpg
772.947	0.602	correct	repeat	Run1	repeat/STIM_008.jpg
776.54	0.727	correct	repeat	Run1	repeat/STIM_008.jpg
780.162	0.93	correct	repeat	Run1	repeat/STIM_009.jpg
783.077	0.958	correct	repeat	Run1	repeat/STIM_009.jpg
787.23	0.893	correct	repeat	Run1	repeat/STIM_009.jpg
790.865	0.864	correct	repeat	Run1	repeat/STIM_009.jpg
794.739	0.81	correct	repeat	Run1	repeat/STIM_009.jpg
797.639	0.668	correct	repeat	Run1	repeat/STIM_010.jpg
801.652	0.565	correct	repeat	Run1	repeat/STIM_010.jpg
805.463	0.795	correct	repeat	Run1	repeat/STIM_010.jpg
809.049	1.131	correct	repeat	Run1	repeat/STIM_010.jpg
812.091	1.055	correct	repeat	Run1	repeat/STIM_010.jpg
816.864	0.884	correct	repeat	Run1	repeat/STIM_011.jpg
821.621	0.756	correct	repeat	Run1	repeat/STIM_011.jpg
824.397	0.654	correct	repeat	Run1	repeat/STIM_011.jpg
828.155	0.579	correct	repeat	Run1	repeat/STIM_011.jpg
831.528	1.046	correct	repeat	Run1	repeat/STIM_011.jpg
835.02	1.075	correct	repeat	Run1	repeat/STIM_012.jpg
838.723	1.041	correct	repeat	Run1	repeat/STIM_012.jpg
842.857	0.951	correct	repeat	Run1	repeat/STIM_012.jpg
846.819	0.578	correct	repeat	Run1	repeat/STIM_012.jpg
851.235	0.823	correct	repeat	Run1	repeat/STIM_012.jpg
855.498	0.91	correct	repeat	Run1	repeat/STIM_013.jpg
859.283	1.093	correct	repeat	Run1	repeat/STIM_013.jpg
862.518	0.643	correct	repeat	Run1	repeat/STIM_013.jpg
867.095	0.647	correct	repeat	Run1	repeat/STIM_013.jpg
869.745	0.751	correct	repeat	Run1	repeat/STIM_013.jpg
872.427	0.696	incorrect	repeat	Run1	repeat/STIM_014.jpg
876.472	0.822	incorrect	repeat	Run1	repeat/STIM_014.jpg
880.32	0.678	correct	repeat	Run1	repeat/STIM_014.jpg
883.574	0.691	incorrect	repeat	Run1	repeat/STIM_014.jpg
886.21	1.06	correct	repeat	Run1	repeat/STIM_014.jpg
889.322	2.485	correct	generate	Run2	generate/STIM_000.jpg
894.022	1.598	correct	generate	Run2	generate/STIM_000.jpg
897.797	2.216	correct	generate	Run2	generate/STIM_000.jpg
902.545	0.961	correct	generate	Run2	generate/STIM_000.jpg
906.107	1.53	correct	generate	Run2	generate/STIM_000.jpg
910.559	2.29	correct	generate	Run2	generate/STIM_001.jpg
915.317	1.79	correct	generate	Run2	generate/STIM_001.jpg
920.861	1.485	correct	generate	Run2	generate/STIM_001.jpg
925.07	1.516	correct	generate	Run2	generate/STIM_001.jpg
930.399	1.291	incorrect	generate	Run2	generate/STIM_001.jpg
934.036	1.111	correct	generate	Run2	generate/STIM_002.jpg
937.212	1.741	correct	generate	Run2	generate/STIM_002.jpg
941.628	1.559	incorrect	generate	Run2	generate/STIM_002.jpg
945.477	1.043	correct	generate	Run2	generate/STIM_002.jpg
948.35	2.028	correct	generate	Run2	generate/STIM_002.jpg
952.46	1.852	correct	generate	Run2	generate/STIM_003.jpg
956.514	1.142	correct	generate	Run2	generate/STIM_003.jpg
961.458	2.276	correct	generate	Run2	generate/STIM_003.jpg
966.495	1.031	correct	generate	Run2	generate/STIM_003.jpg
970.908	1.4	correct	generate	Run2	generate/STIM_003.jpg
976.166	1.584	correct	generate	Run2	generate/STIM_004.jpg
980.348	1.298	correct	generate	Run2	generate/STIM_004.jpg
984.383	2.065	correct	generate	Run2	generate/STIM_004.jpg
988.975	2.07	correct	generate	Run2	generate/STIM_004.jpg
993.903	1.532	correct	generate	Run2	generate/STIM_004.jpg
999.159	1.327	correct	generate	Run2	generate/STIM_005.jpg
1003.972	2.472	correct	generate	Run2	generate/STIM_005.jpg
1009.278	1.258	correct	generate	Run2	generate/STIM_005.jpg
1012.754	1.262	correct	generate	Run2	generate/STIM_005.jpg
1017.411	1.172	incorrect	generate	Run2	generate/STIM_005.jpg
1020.782	1.366	correct	generate	Run2	generate/STIM_006.jpg
1025.295	2.41	incorrect	generate	Run2	generate/STIM_006.jpg
1030.691	2.202	correct	generate	Run2	generate/STIM_006.jpg
1035.59	1.386	correct	generate	Run2	generate/STIM_006.jpg
1039.074	2.17	correct	generate	Run2	generate/STIM_006.jpg
1044.157	1.633	correct	generate	Run2	generate/STIM_007.jpg
1048.88	1.512	correct	generate	Run2	generate/STIM_007.jpg
1053.759	1.989	correct	generate	Run2	generate/STIM_007.jpg
1057.525	2.375	incorrect	generate	Run2	generate/STIM_007.jpg
1062.861	2.054	correct	generate	Run2	generate/STIM_007.jpg
1068.53	2.204	correct	generate	Run2	generate/STIM_008.jpg
1074.489	2.249	correct	generate	Run2	generate/STIM_008.jpg
1080.151	2.146	correct	generate	Run2	generate/STIM_008.jpg
1084.017	1.94	correct	generate	Run2	generate/STIM_008.jpg
1089.375	1.028	correct	generate	Run2	generate/STIM_008.jpg
1094.175	2.755	correct	generate	Run2	generate/STIM_009.jpg
1099.567	1.667	correct	generate	Run2	generate/STIM_009.jpg
1103.904	2.263	correct	generate	Run2	generate/STIM_009.jpg
1108.414	2.188	correct	generate	Run2	generate/STIM_009.jpg
1112.536	1.652	correct	generate	Run2	generate/STIM_009.jpg
1117.087	1.648	correct	generate	Run2	generate/STIM_010.jpg
1122.373	1.621	correct	generate	Run2	generate/STIM_010.jpg
1127.071	2.071	correct	generate	Run2	generate/STIM_010.jpg
1131.425	1.534	correct	generate	Run2	generate/STIM_010.jpg
1134.747	1.213	incorrect	generate	Run2	generate/STIM_010.jpg
1139.322	2.188	correct	generate	Run2	generate/STIM_011.jpg
1144.031	2.476	correct	generate	Run2	generate/STIM_011.jpg
1149.451	1.94	correct	generate	Run2	generate/STIM_011.jpg
1154.052	1.109	correct	generate	Run2	generate/STIM_011.jpg
1158.766	1.246	correct	generate	Run2	generate/STIM_011.jpg
1163.681	2.829	correct	generate	Run2	generate/STIM_012.jpg
1168.578	1.761	correct	generate	Run2	generate/STIM_012.jpg
1173.269	1.472	correct	generate	Run2	generate/STIM_012.jpg
1176.843	1.173	incorrect	generate	Run2	generate/STIM_012.jpg
1181.402	2.169	correct	generate	Run2	generate/STIM_012.jpg
1187.315	2.643	correct	generate	Run2	generate/STIM_013.jpg
1193.198	1.196	correct	generate	Run2	generate/STIM_013.jpg
1197.105	1.517	correct	generate	Run2	generate/STIM_013.jpg
1201.387	1.19	correct	generate	Run2	generate/STIM_013.jpg
1204.625	1.606	correct	generate	Run2	generate/STIM_013.jpg
1208.046	2.505	correct	generate	Run2	generate/STIM_014.jpg
1212.51	1.922	correct	generate	Run2	generate/STIM_014.jpg
1216.968	2.526	correct	generate	Run2	generate/STIM_014.jpg
1222.55	2.269	correct	generate	Run2	generate/STIM_014.jpg
1227.436	1.818	correct	generate	Run2	generate/STIM_014.jpg
1231.927	2.209	correct	generate	Run2	generate/STIM_015.jpg
1235.994	1.067	incorrect	generate	Run2	generate/STIM_015.jpg
1239.781	2.421	correct	generate	Run2	generate/STIM_015.jpg
1244.619	1.54	correct	generate	Run2	generate/STIM_015.jpg
1248.18	0.941	correct	generate	Run2	generate/STIM_015.jpg
1252.036	2.544	correct	generate	Run2	generate/STIM_016.jpg
1257.081	2.182	correct	generate	Run2	generate/STIM_016.jpg
1262.761	2.319	incorrect	generate	Run2	generate/STIM_016.jpg
1267.609	2.47	correct	generate	Run2	generate/STIM_016.jpg
1273.144	1.28	correct	generate	Run2	generate/STIM_016.jpg
1276.977	2.57	correct	generate	Run2	generate/STIM_017.jpg
1281.434	2.561	correct	generate	Run2	generate/STIM_017.jpg
1286.544	1.059	correct	generate	Run2	generate/STIM_017.jpg
1290.211	1.56	correct	generate	Run2	generate/STIM_017.jpg
1295.439	1.107	correct	generate	Run2	generate/STIM_017.jpg
1300.176	2.397	incorrect	generate	Run2	generate/STIM_018.jpg
1304.767	2.413	correct	generate	Run2	generate/STIM_018.jpg
1310.011	1.982	incorrect	generate	Run2	generate/STIM_018.jpg
1314.209	1.933	incorrect	generate	Run2	generate/STIM_018.jpg
1318.602	1.256	correct	generate	Run2	generate/STIM_018.jpg
1322.57	2.33	correct	generate	Run2	generate/STIM_019.jpg
1326.647	2.62	correct	generate	Run2	generate/STIM_019.jpg
1332.064	1.528	correct	generate	Run2	generate/STIM_019.jpg
1336.885	1.255	correct	generate	Run2	generate/STIM_019.jpg
1341.098	1.616	correct	generate	Run2	generate/STIM_019.jpg
1345.538	2.294	correct	generate	Run2	generate/STIM_020.jpg
1349.909	1.453	correct	generate	Run2	generate/STIM_020.jpg
1353.485	2.22	incorrect	generate	Run2	generate/STIM_020.jpg
1358.829	1.294	correct	generate	Run2	generate/STIM_020.jpg
1363.195	2.124	correct	generate	Run2	generate/STIM_020.jpg
1367.262	1.971	incorrect	generate	Run2	generate/STIM_021.jpg
1371.46	2.307	correct	generate	Run2	generate/STIM_021.jpg
1376.809	2.216	incorrect	generate	Run2	generate/STIM_021.jpg
1380.781	1.782	correct	generate	Run2	generate/STIM_021.jpg
1386.378	2.131	correct	generate	Run2	generate/STIM_021.jpg
1390.484	1.814	correct	generate	Run2	generate/STIM_022.jpg
1394.284	2.191	correct	generate	Run2	generate/STIM_022.jpg
1398.501	2.346	correct	generate	Run2	generate/STIM_022.jpg
1403.788	1.613	correct	generate	Run2	generate/STIM_022.jpg
1408.421	1.926	correct	generate	Run2	generate/STIM_022.jpg
1412.911	1.14	correct	generate	Run2	generate/STIM_023.jpg
1416.352	1.704	incorrect	generate	Run2	generate/STIM_023.jpg
1421.075	2.553	correct	generate	Run2	generate/STIM_023.jpg
1426.366	2.283	correct	generate	Run2	generate/STIM_023.jpg
1430.404	1.223	correct	generate	Run2	generate/STIM_023.jpg
1434.628	2.521	correct	generate	Run2	generate/STIM_024.jpg
1439.882	2.142	correct	generate	Run2	generate/STIM_024.jpg
1445.141	2.368	correct	generate	Run2	generate/STIM_024.jpg
1449.85	1.611	correct	generate	Run2	generate/STIM_024.jpg
1454.842	1.158	incorrect	generate	Run2	generate/STIM_024.jpg
1458.653	0.819	correct	repeat	Run2	repeat/STIM_000.jpg
1462.824	0.696	correct	repeat	Run2	repeat/STIM_000.jpg
1466.39	1.053	correct	repeat	Run2	repeat/STIM_000.jpg
1471.128	0.91	correct	repeat	Run2	repeat/STIM_000.jpg
1475.673	0.832	correct	repeat	Run2	repeat/STIM_000.jpg
1479.461	0.598	correct	repeat	Run2	repeat/STIM_001.jpg
1482.645	0.843	correct	repeat	Run2	repeat/STIM_001.jpg
1486.311	0.955	correct	repeat	Run2	repeat/STIM_001.jpg
1489.793	0.852	correct	repeat	Run2	repeat/STIM_001.jpg
1493.512	0.912	correct	repeat	Run2	repeat/STIM_001.jpg
1498.311	0.558	correct	repeat	Run2	repeat/STIM_002.jpg
1502.044	1.063	correct	repeat	Run2	repeat/STIM_002.jpg
1506.672	0.618	correct	repeat	Run2	repeat/STIM_002.jpg
1510.149	0.971	correct	repeat	Run2	repeat/STIM_002.jpg
1513.111	1.039	correct	repeat	Run2	repeat/STIM_002.jpg
1517.051	0.897	correct	repeat	Run2	repeat/STIM_003.jpg
1520.603	0.762	correct	repeat	Run2	repeat/STIM_003.jpg
1525.222	0.579	correct	repeat	Run2	repeat/STIM_003.jpg
1529.751	0.813	correct	repeat	Run2	repeat/STIM_003.jpg
1533.214	0.64	correct	repeat	Run2	repeat/STIM_003.jpg
1537.226	0.827	correct	repeat	Run2	repeat/STIM_004.jpg
1541.635	0.683	correct	repeat	Run2	repeat/STIM_004.jpg
1546.082	0.692	correct	repeat	Run2	repeat/STIM_004.jpg
1549.948	0.581	correct	repeat	Run2	repeat/STIM_004.jpg
1553.074	0.857	correct	repeat	Run2	repeat/STIM_004.jpg
1556.514	1.014	correct	repeat	Run2	repeat/STIM_005.jpg
1559.735	1.022	correct	repeat	Run2	repeat/STIM_005.jpg
1564.465	0.799	incorrect	repeat	Run2	repeat/STIM_005.jpg
1568.809	0.965	correct	repeat	Run2	repeat/STIM_005.jpg
1573.469	0.951	correct	repeat	Run2	repeat/STIM_005.jpg
1577.186	0.92	correct	repeat	Run2	repeat/STIM_006.jpg
1581.645	0.836	correct	repeat	Run2	repeat/STIM_006.jpg
1585.842	0.942	correct	repeat	Run2	repeat/STIM_006.jpg
1589.906	1.1	correct	repeat	Run2	repeat/STIM_006.jpg
1594.746	0.779	correct	repeat	Run2	repeat/STIM_006.jpg
1597.646	0.969	correct	repeat	Run2	repeat/STIM_007.jpg
1602.435	0.681	correct	repeat	Run2	repeat/STIM_007.jpg
1605.007	0.847	correct	repeat	Run2	repeat/STIM_007.jpg
1609.038	0.82	correct	repeat	Run2	repeat/STIM_007.jpg
1611.875	0.768	correct	repeat	Run2	repeat/STIM_007.jpg
1616.312	0.844	correct	repeat	Run2	repeat/STIM_008.jpg
1619.854	0.735	incorrect	repeat	Run2	repeat/STIM_008.jpg
1622.959	0.948	correct	repeat	Run2	repeat/STIM_008.jpg
1626.126	0.546	correct	repeat	Run2	repeat/STIM_008.jpg
1630.182	0.929	correct	repeat	Run2	repeat/STIM_008.jpg
1634.5	0.813	correct	repeat	Run2	repeat/STIM_009.jpg
1638.064	0.885	correct	repeat	Run2	repeat/STIM_009.jpg
1642.744	0.645	correct	repeat	Run2	repeat/STIM_009.jpg
1646.817	0.998	correct	repeat	Run2	repeat/STIM_009.jpg
1649.911	0.808	correct	repeat	Run2	repeat/STIM_009.jpg
1652.894	0.599	correct	repeat	Run2	repeat/STIM_010.jpg
1655.814	0.975	incorrect	repeat	Run2	repeat/STIM_010.jpg
1660.213	1.133	correct	repeat	Run2	repeat/STIM_010.jpg
1663.512	0.648	incorrect	repeat	Run2	repeat/STIM_010.jpg
1667.016	0.641	correct	repeat	Run2	repeat/STIM_010.jpg
1669.605	0.644	correct	repeat	Run2	repeat/STIM_011.jpg
1673.797	0.944	correct	repeat	Run2	repeat/STIM_011.jpg
1677.838	0.622	correct	repeat	Run2	repeat/STIM_011.jpg
1680.735	0.593	correct	repeat	Run2	repeat/STIM_011.jpg
1685.194	0.905	correct	repeat	Run2	repeat/STIM_011.jpg
1688.31	0.866	correct	repeat	Run2	repeat/STIM_012.jpg
1692.72	1.191	correct	repeat	Run2	repeat/STIM_012.jpg
1696.098	0.983	correct	repeat	Run2	repeat/STIM_012.jpg
1699.958	1.102	correct	repeat	Run2	repeat/STIM_012.jpg
1703.861	0.809	correct	repeat	Run2	repeat/STIM_012.jpg
1706.596	1.054	correct	repeat	Run2	repeat/STIM_013.jpg
1710.145	0.993	correct	repeat	Run2	repeat/STIM_013.jpg
1713.824	0.753	correct	repeat	Run2	repeat/STIM_013.jpg
1716.566	0.844	correct	repeat	Run2	repeat/STIM_013.jpg
1720.138	0.528	correct	repeat	Run2	repeat/STIM_013.jpg
1723.47	1.138	correct	repeat	Run2	repeat/STIM_014.jpg
1727.694	0.852	correct	repeat	Run2	repeat/STIM_014.jpg
1731.487	1.059	correct	repeat	Run2	repeat/STIM_014.jpg
1734.655	0.773	correct	repeat	Run2	repeat/STIM_014.jpg
1737.884	0.742	correct	repeat	Run2	repeat/STIM_014.jpg
1740.788	2.279	correct	generate	Run3	generate/STIM_000.jpg
1746.421	1.56	correct	generate	Run3	generate/STIM_000.jpg
1750.649	1.066	correct	generate	Run3	generate/STIM_000.jpg
1753.965	2.264	correct	generate	Run3	generate/STIM_000.jpg
1759.526	1.642	correct	generate	Run3	generate/STIM_000.jpg
1764.986	1.853	correct	generate	Run3	generate/STIM_001.jpg
1768.8	2.38	incorrect	generate	Run3	generate/STIM_001.jpg
1774.433	1.563	correct	generate	Run3	generate/STIM_001.jpg
1778.022	1.482	correct	generate	Run3	generate/STIM_001.jpg
1781.909	1.493	correct	generate	Run3	generate/STIM_001.jpg
1785.458	2.161	correct	generate	Run3	generate/STIM_002.jpg
1789.379	1.565	correct	generate	Run3	generate/STIM_002.jpg
1793.511	1.38	correct	generate	Run3	generate/STIM_002.jpg
1797.658	2.384	correct	generate	Run3	generate/STIM_002.jpg
1803.643	2.214	correct	generate	Run3	generate/STIM_002.jpg
1808.156	2.158	correct	generate	Run3	generate/STIM_003.jpg
1812.402	1.735	correct	generate	Run3	generate/STIM_003.jpg
1816.902	2.29	correct	generate	Run3	generate/STIM_003.jpg
1821.683	1.386	correct	generate	Run3	generate/STIM_003.jpg
1825.864	1.998	correct	generate	Run3	generate/STIM_003.jpg
1830.544	2.303	correct	generate	Run3	generate/STIM_004.jpg
1835.366	1.667	incorrect	generate	Run3	generate/STIM_004.jpg
1839.012	1.258	correct	generate	Run3	generate/STIM_004.jpg
1842.791	1.133	correct	generate	Run3	generate/STIM_004.jpg
1846.296	1.641	correct	generate	Run3	generate/STIM_004.jpg
1850.184	2.14	correct	generate	Run3	generate/STIM_005.jpg
1855.799	1.669	correct	generate	Run3	generate/STIM_005.jpg
1861.17	1.175	correct	generate	Run3	generate/STIM_005.jpg
1864.203	1.05	correct	generate	Run3	generate/STIM_005.jpg
1867.203	1.804	correct	generate	Run3	generate/STIM_005.jpg
1871.656	2.256	correct	generate	Run3	generate/STIM_006.jpg
1877.0	2.26	correct	generate	Run3	generate/STIM_006.jpg
1882.312	1.616	correct	generate	Run3	generate/STIM_006.jpg
1886.829	2.154	correct	generate	Run3	generate/STIM_006.jpg
1891.493	1.974	correct	generate	Run3	generate/STIM_006.jpg
1895.481	1.84	correct	generate	Run3	generate/STIM_007.jpg
1899.595	1.248	correct	generate	Run3	generate/STIM_007.jpg
1904.116	2.284	correct	generate	Run3	generate/STIM_007.jpg
1909.783	1.891	correct	generate	Run3	generate/STIM_007.jpg
1915.148	2.308	correct	generate	Run3	generate/STIM_007.jpg
1921.009	1.27	correct	generate	Run3	generate/STIM_008.jpg
1924.129	2.204	incorrect	generate	Run3	generate/STIM_008.jpg
1929.373	1.702	correct	generate	Run3	generate/STIM_008.jpg
1933.035	1.989	correct	generate	Run3	generate/STIM_008.jpg
1938.206	1.08	correct	generate	Run3	generate/STIM_008.jpg
1943.026	1.397	incorrect	generate	Run3	generate/STIM_009.jpg
1946.872	1.326	correct	generate	Run3	generate/STIM_009.jpg
1951.166	1.026	correct	generate	Run3	generate/STIM_009.jpg
1955.086	1.492	correct	generate	Run3	generate/STIM_009.jpg
1958.789	1.789	correct	generate	Run3	generate/STIM_009.jpg
1962.811	1.096	correct	generate	Run3	generate/STIM_010.jpg
1966.672	2.325	correct	generate	Run3	generate/STIM_010.jpg
1972.633	1.456	correct	generate	Run3	generate/STIM_010.jpg
1977.286	1.968	correct	generate	Run3	generate/STIM_010.jpg
1980.975	1.175	correct	generate	Run3	generate/STIM_010.jpg
1985.623	1.407	correct	generate	Run3	generate/STIM_011.jpg
1989.829	2.218	correct	generate	Run3	generate/STIM_011.jpg
1994.798	1.817	correct	generate	Run3	generate/STIM_011.jpg
1999.56	2.043	correct	generate	Run3	generate/STIM_011.jpg
2004.648	2.32	correct	generate	Run3	generate/STIM_011.jpg
2010.374	1.275	correct	generate	Run3	generate/STIM_012.jpg
2014.476	2.078	correct	generate	Run3	generate/STIM_012.jpg
2018.463	1.786	correct	generate	Run3	generate/STIM_012.jpg
2023.51	1.931	correct	generate	Run3	generate/STIM_012.jpg
2027.415	2.304	correct	generate	Run3	generate/STIM_012.jpg
2032.584	0.952	correct	generate	Run3	generate/STIM_013.jpg
2036.681	2.175	correct	generate	Run3	generate/STIM_013.jpg
2042.158	2.114	correct	generate	Run3	generate/STIM_013.jpg
2047.827	0.961	correct	generate	Run3	generate/STIM_013.jpg
2052.525	2.294	correct	generate	Run3	generate/STIM_013.jpg
2056.666	1.318	correct	generate	Run3	generate/STIM_014.jpg
2060.959	1.847	correct	generate	Run3	generate/STIM_014.jpg
2065.155	1.231	correct	generate	Run3	generate/STIM_014.jpg
2068.661	1.093	correct	generate	Run3	generate/STIM_014.jpg
2072.796	2.276	correct	generate	Run3	generate/STIM_014.jpg
2078.243	2.063	incorrect	generate	Run3	generate/STIM_015.jpg
2082.161	1.71	correct	generate	Run3	generate/STIM_015.jpg
2087.365	1.813	correct	generate	Run3	generate/STIM_015.jpg
2091.118	1.136	correct	generate	Run3	generate/STIM_015.jpg
2095.165	1.788	correct	generate	Run3	generate/STIM_015.jpg
2099.327	1.231	correct	generate	Run3	generate/STIM_016.jpg
2104.206	1.57	correct	generate	Run3	generate/STIM_016.jpg
2108.183	2.245	correct	generate	Run3	generate/STIM_016.jpg
2112.913	1.569	correct	generate	Run3	generate/STIM_016.jpg
2117.287	1.139	correct	generate	Run3	generate/STIM_016.jpg
2122.024	1.094	correct	generate	Run3	generate/STIM_017.jpg
2125.039	2.238	correct	generate	Run3	generate/STIM_017.jpg
2129.848	2.476	correct	generate	Run3	generate/STIM_017.jpg
2134.257	0.986	correct	generate	Run3	generate/STIM_017.jpg
2138.682	1.959	correct	generate	Run3	generate/STIM_017.jpg
2142.626	2.249	correct	generate	Run3	generate/STIM_018.jpg
2147.074	1.635	correct	generate	Run3	generate/STIM_018.jpg
2150.967	1.75	correct	generate	Run3	generate/STIM_018.jpg
2155.29	1.047	correct	generate	Run3	generate/STIM_018.jpg
2159.037	1.684	correct	generate	Run3	generate/STIM_018.jpg
2163.195	0.998	correct	generate	Run3	generate/STIM_019.jpg
2166.669	1.148	correct	generate	Run3	generate/STIM_019.jpg
2170.368	1.261	correct	generate	Run3	generate/STIM_019.jpg
2173.887	1.961	correct	generate	Run3	generate/STIM_019.jpg
2179.112	1.715	correct	generate	Run3	generate/STIM_019.jpg
2183.234	2.073	correct	generate	Run3	generate/STIM_020.jpg
2188.14	2.346	correct	generate	Run3	generate/STIM_020.jpg
2192.836	1.295	correct	generate	Run3	generate/STIM_020.jpg
2197.671	1.071	correct	generate	Run3	generate/STIM_020.jpg
2202.022	1.942	correct	generate	Run3	generate/STIM_020.jpg
2207.385	2.004	correct	generate	Run3	generate/STIM_021.jpg
2211.542	1.808	correct	generate	Run3	generate/STIM_021.jpg
2216.572	1.679	correct	generate	Run3	generate/STIM_021.jpg
2221.837	1.194	correct	generate	Run3	generate/STIM_021.jpg
2225.336	1.16	correct	generate	Run3	generate/STIM_021.jpg
2228.655	1.1	correct	generate	Run3	generate/STIM_022.jpg
2231.698	2.146	correct	generate	Run3	generate/STIM_022.jpg
2236.956	1.539	correct	generate	Run3	generate/STIM_022.jpg
2240.464	2.024	correct	generate	Run3	generate/STIM_022.jpg
2244.304	2.056	correct	generate	Run3	generate/STIM_022.jpg
2250.119	1.046	incorrect	generate	Run3	generate/STIM_023.jpg
2253.01	2.236	correct	generate	Run3	generate/STIM_023.jpg
2257.646	1.218	correct	generate	Run3	generate/STIM_023.jpg
2261.285	1.09	correct	generate	Run3	generate/STIM_023.jpg
2264.512	1.469	correct	generate	Run3	generate/STIM_023.jpg
2268.205	2.256	correct	generate	Run3	generate/STIM_024.jpg
2274.195	1.786	correct	generate	Run3	generate/STIM_024.jpg
2278.791	1.208	correct	generate	Run3	generate/STIM_024.jpg
2283.39	2.266	correct	generate	Run3	generate/STIM_024.jpg
2287.915	1.431	correct	generate	Run3	generate/STIM_024.jpg
2291.991	0.94	correct	repeat	Run3	repeat/STIM_000.jpg
2295.624	0.862	correct	repeat	Run3	repeat/STIM_000.jpg
2299.246	0.851	correct	repeat	Run3	repeat/STIM_000.jpg
2303.53	0.6	incorrect	repeat	Run3	repeat/STIM_000.jpg
2307.57	0.746	correct	repeat	Run3	repeat/STIM_000.jpg
2311.954	0.783	correct	repeat	Run3	repeat/STIM_001.jpg
2315.398	0.912	correct	repeat	Run3	repeat/STIM_001.jpg
2319.202	0.625	incorrect	repeat	Run3	repeat/STIM_001.jpg
2322.715	0.717	correct	repeat	Run3	repeat/STIM_001.jpg
2327.045	1.057	correct	repeat	Run3	repeat/STIM_001.jpg
2331.548	0.734	correct	repeat	Run3	repeat/STIM_002.jpg
2334.943	0.903	correct	repeat	Run3	repeat/STIM_002.jpg
2338.345	1.072	correct	repeat	Run3	repeat/STIM_002.jpg
2343.033	0.949	correct	repeat	Run3	repeat/STIM_002.jpg
2346.728	0.973	correct	repeat	Run3	repeat/STIM_002.jpg
2350.51	1.184	correct	repeat	Run3	repeat/STIM_003.jpg
2354.891	0.742	incorrect	repeat	Run3	repeat/STIM_003.jpg
2359.048	0.964	correct	repeat	Run3	repeat/STIM_003.jpg
2363.536	1.015	correct	repeat	Run3	repeat/STIM_003.jpg
2367.467	1.132	correct	repeat	Run3	repeat/STIM_003.jpg
2371.239	0.788	correct	repeat	Run3	repeat/STIM_004.jpg
2374.954	0.9	correct	repeat	Run3	repeat/STIM_004.jpg
2379.032	1.075	correct	repeat	Run3	repeat/STIM_004.jpg
2382.747	0.767	correct	repeat	Run3	repeat/STIM_004.jpg
2386.325	0.937	correct	repeat	Run3	repeat/STIM_004.jpg
2390.767	1.098	correct	repeat	Run3	repeat/STIM_005.jpg
2394.144	0.561	correct	repeat	Run3	repeat/STIM_005.jpg
2397.371	0.85	correct	repeat	Run3	repeat/STIM_005.jpg
2401.494	0.927	incorrect	repeat	Run3	repeat/STIM_005.jpg
2405.803	0.598	incorrect	repeat	Run3	repeat/STIM_005.jpg
2409.203	0.994	correct	repeat	Run3	repeat/STIM_006.jpg
2412.721	0.72	correct	repeat	Run3	repeat/STIM_006.jpg
2417.121	1.214	correct	repeat	Run3	repeat/STIM_006.jpg
2420.693	1.208	correct	repeat	Run3	repeat/STIM_006.jpg
2424.333	0.8	correct	repeat	Run3	repeat/STIM_006.jpg
2428.379	0.645	incorrect	repeat	Run3	repeat/STIM_007.jpg
2432.043	1.123	correct	repeat	Run3	repeat/STIM_007.jpg
2435.215	0.546	correct	repeat	Run3	repeat/STIM_007.jpg
2439.679	0.895	correct	repeat	Run3	repeat/STIM_007.jpg
2442.728	1.062	correct	repeat	Run3	repeat/STIM_007.jpg
2445.954	0.593	correct	repeat	Run3	repeat/STIM_008.jpg
2450.002	0.876	correct	repeat	Run3	repeat/STIM_008.jpg
2454.401	0.498	correct	repeat	Run3	repeat/STIM_008.jpg
2457.69	0.731	correct	repeat	Run3	repeat/STIM_008.jpg
2461.554	1.07	correct	repeat	Run3	repeat/STIM_008.jpg
2464.951	0.689	correct	repeat	Run3	repeat/STIM_009.jpg
2469.409	0.972	correct	repeat	Run3	repeat/STIM_009.jpg
2472.291	1.176	correct	repeat	Run3	repeat/STIM_009.jpg
2475.944	0.902	correct	repeat	Run3	repeat/STIM_009.jpg
2479.454	0.749	correct	repeat	Run3	repeat/STIM_009.jpg
2483.689	0.699	correct	repeat	Run3	repeat/STIM_010.jpg
2487.258	0.702	correct	repeat	Run3	repeat/STIM_010.jpg
2491.178	1.066	correct	repeat	Run3	repeat/STIM_010.jpg
2494.108	0.784	correct	repeat	Run3	repeat/STIM_010.jpg
2498.725	1.056	correct	repeat	Run3	repeat/STIM_010.jpg
2502.05	0.595	correct	repeat	Run3	repeat/STIM_011.jpg
2505.512	0.926	correct	repeat	Run3	repeat/STIM_011.jpg
2509.026	0.78	correct	repeat	Run3	repeat/STIM_011.jpg
2511.844	1.138	correct	repeat	Run3	repeat/STIM_011.jpg
2516.329	0.754	correct	repeat	Run3	repeat/STIM_011.jpg
2520.788	0.868	correct	repeat	Run3	repeat/STIM_012.jpg
2524.678	0.809	correct	repeat	Run3	repeat/STIM_012.jpg
2528.263	0.555	correct	repeat	Run3	repeat/STIM_012.jpg
2531.279	1.175	correct	repeat	Run3	repeat/STIM_012.jpg
2536.054	0.911	correct	repeat	Run3	repeat/STIM_012.jpg
2539.057	1.098	correct	repeat	Run3	repeat/STIM_013.jpg
2543.666	0.915	correct	repeat	Run3	repeat/STIM_013.jpg
2547.133	0.849	correct	repeat	Run3	repeat/STIM_013.jpg
2550.542	1.078	correct	repeat	Run3	repeat/STIM_013.jpg
2555.342	0.804	correct	repeat	Run3	repeat/STIM_013.jpg
2558.507	1.138	correct	repeat	Run3	repeat/STIM_014.jpg
2561.735	0.69	correct	repeat	Run3	repeat/STIM_014.jpg
2565.96	0.556	correct	repeat	Run3	repeat/STIM_014.jpg
2569.898	0.718	correct	repeat	Run3	repeat/STIM_014.jpg
2574.46	0.9	correct	repeat	Run3	repeat/STIM_014.jpg
2578.893	1.242	correct	generate	Run4	generate/STIM_000.jpg
2582.739	2.1	correct	generate	Run4	generate/STIM_000.jpg
2586.61	1.903	correct	generate	Run4	generate/STIM_000.jpg
2590.909	2.179	correct	generate	Run4	generate/STIM_000.jpg
2596.343	1.682	correct	generate	Run4	generate/STIM_000.jpg
2601.24	1.91	correct	generate	Run4	generate/STIM_001.jpg
2605.804	1.554	correct	generate	Run4	generate/STIM_001.jpg
2609.16	2.126	correct	generate	Run4	generate/STIM_001.jpg
2613.157	1.598	correct	generate	Run4	generate/STIM_001.jpg
2617.393	2.139	correct	generate	Run4	generate/STIM_001.jpg
2623.274	1.654	correct	generate	Run4	generate/STIM_002.jpg
2628.473	2.359	correct	generate	Run4	generate/STIM_002.jpg
2633.102	2.393	correct	generate	Run4	generate/STIM_002.jpg
2638.226	1.47	correct	generate	Run4	generate/STIM_002.jpg
2643.169	1.73	correct	generate	Run4	generate/STIM_002.jpg
2647.784	1.444	correct	generate	Run4	generate/STIM_003.jpg
2652.135	1.668	correct	generate	Run4	generate/STIM_003.jpg
2657.379	2.077	correct	generate	Run4	generate/STIM_003.jpg
2662.137	1.472	correct	generate	Run4	generate/STIM_003.jpg
2666.244	1.708	correct	generate	Run4	generate/STIM_003.jpg
2670.228	1.587	correct	generate	Run4	generate/STIM_004.jpg
2674.491	2.375	correct	generate	Run4	generate/STIM_004.jpg
2679.855	1.764	incorrect	generate	Run4	generate/STIM_004.jpg
2685.063	1.362	correct	generate	Run4	generate/STIM_004.jpg
2690.194	2.104	correct	generate	Run4	generate/STIM_004.jpg
2694.686	1.629	correct	generate	Run4	generate/STIM_005.jpg
2699.168	2.314	correct	generate	Run4	generate/STIM_005.jpg
2705.093	1.097	correct	generate	Run4	generate/STIM_005.jpg
2709.941	1.939	correct	generate	Run4	generate/STIM_005.jpg
2714.24	1.539	correct	generate	Run4	generate/STIM_005.jpg
2719.451	1.243	correct	generate	Run4	generate/STIM_006.jpg
2723.484	1.094	correct	generate	Run4	generate/STIM_006.jpg
2726.754	1.175	correct	generate	Run4	generate/STIM_006.jpg
2730.799	1.611	correct	generate	Run4	generate/STIM_006.jpg
2735.408	1.278	correct	generate	Run4	generate/STIM_006.jpg
2739.12	1.546	correct	generate	Run4	generate/STIM_007.jpg
2743.299	1.229	correct	generate	Run4	generate/STIM_007.jpg
2747.13	1.637	correct	generate	Run4	generate/STIM_007.jpg
2751.013	1.683	correct	generate	Run4	generate/STIM_007.jpg
2755.84	1.115	correct	generate	Run4	generate/STIM_007.jpg
2759.225	1.94	correct	generate	Run4	generate/STIM_008.jpg
2763.931	1.182	correct	generate	Run4	generate/STIM_008.jpg
2768.391	1.473	correct	generate	Run4	generate/STIM_008.jpg
2771.777	2.018	correct	generate	Run4	generate/STIM_008.jpg
2776.509	1.468	correct	generate	Run4	generate/STIM_008.jpg
2780.686	1.698	correct	generate	Run4	generate/STIM_009.jpg
2785.576	1.818	correct	generate	Run4	generate/STIM_009.jpg
2789.694	2.078	correct	generate	Run4	generate/STIM_009.jpg
2795.36	1.135	incorrect	generate	Run4	generate/STIM_009.jpg
2800.161	1.948	correct	generate	Run4	generate/STIM_009.jpg
2804.695	1.617	correct	generate	Run4	generate/STIM_010.jpg
2808.507	1.212	correct	generate	Run4	generate/STIM_010.jpg
2812.251	1.481	correct	generate	Run4	generate/STIM_010.jpg
2817.571	2.13	correct	generate	Run4	generate/STIM_010.jpg
2822.396	1.755	correct	generate	Run4	generate/STIM_010.jpg
2826.759	2.126	correct	generate	Run4	generate/STIM_011.jpg
2832.213	1.51	correct	generate	Run4	generate/STIM_011.jpg
2836.898	1.277	correct	generate	Run4	generate/STIM_011.jpg
2840.955	1.034	correct	generate	Run4	generate/STIM_011.jpg
2845.814	2.189	incorrect	generate	Run4	generate/STIM_011.jpg
2851.585	1.449	correct	generate	Run4	generate/STIM_012.jpg
2854.838	1.964	correct	generate	Run4	generate/STIM_012.jpg
2860.067	1.855	correct	generate	Run4	generate/STIM_012.jpg
2865.343	1.846	correct	generate	Run4	generate/STIM_012.jpg
2869.461	1.595	correct	generate	Run4	generate/STIM_012.jpg
2874.367	1.8	correct	generate	Run4	generate/STIM_013.jpg
2879.885	2.346	correct	generate	Run4	generate/STIM_013.jpg
2885.005	1.901	correct	generate	Run4	generate/STIM_013.jpg
2890.321	1.945	correct	generate	Run4	generate/STIM_013.jpg
2894.248	1.327	correct	generate	Run4	generate/STIM_013.jpg
2897.609	1.941	correct	generate	Run4	generate/STIM_014.jpg
2902.589	2.32	correct	generate	Run4	generate/STIM_014.jpg
2906.705	1.525	correct	generate	Run4	generate/STIM_014.jpg
2911.646	2.353	correct	generate	Run4	generate/STIM_014.jpg
2916.096	2.115	correct	generate	Run4	generate/STIM_014.jpg
2920.371	1.451	incorrect	generate	Run4	generate/STIM_015.jpg
2925.313	1.413	correct	generate	Run4	generate/STIM_015.jpg
2928.483	2.016	correct	generate	Run4	generate/STIM_015.jpg
2932.279	1.778	correct	generate	Run4	generate/STIM_015.jpg
2935.93	1.602	correct	generate	Run4	generate/STIM_015.jpg
2939.544	2.308	correct	generate	Run4	generate/STIM_016.jpg
2945.581	2.31	correct	generate	Run4	generate/STIM_016.jpg
2949.905	1.629	correct	generate	Run4	generate/STIM_016.jpg
2954.988	1.984	correct	generate	Run4	generate/STIM_016.jpg
2959.525	1.536	correct	generate	Run4	generate/STIM_016.jpg
2963.811	0.939	incorrect	generate	Run4	generate/STIM_017.jpg
2968.354	2.127	correct	generate	Run4	generate/STIM_017.jpg
2974.143	1.243	correct	generate	Run4	generate/STIM_017.jpg
2977.216	1.134	correct	generate	Run4	generate/STIM_017.jpg
2980.989	1.172	correct	generate	Run4	generate/STIM_017.jpg
2985.864	2.417	correct	generate	Run4	generate/STIM_018.jpg
2991.52	2.437	correct	generate	Run4	generate/STIM_018.jpg
2997.127	1.672	correct	generate	Run4	generate/STIM_018.jpg
3001.177	1.532	correct	generate	Run4	generate/STIM_018.jpg
3005.562	1.904	correct	generate	Run4	generate/STIM_018.jpg
3009.679	1.765	incorrect	generate	Run4	generate/STIM_019.jpg
3013.645	1.764	correct	generate	Run4	generate/STIM_019.jpg
3017.282	1.404	correct	generate	Run4	generate/STIM_019.jpg
3021.699	1.095	correct	generate	Run4	generate/STIM_019.jpg
3024.842	1.961	correct	generate	Run4	generate/STIM_019.jpg
3028.752	1.249	correct	generate	Run4	generate/STIM_020.jpg
3032.742	1.693	correct	generate	Run4	generate/STIM_020.jpg
3036.369	1.865	correct	generate	Run4	generate/STIM_020.jpg
3040.542	1.24	correct	generate	Run4	generate/STIM_020.jpg
3044.16	1.75	correct	generate	Run4	generate/STIM_020.jpg
3048.018	2.478	correct	generate	Run4	generate/STIM_021.jpg
3053.416	1.313	correct	generate	Run4	generate/STIM_021.jpg
3056.812	1.537	correct	generate	Run4	generate/STIM_021.jpg
3060.696	1.797	correct	generate	Run4	generate/STIM_021.jpg
3065.014	1.452	correct	generate	Run4	generate/STIM_021.jpg
3069.853	1.17	correct	generate	Run4	generate/STIM_022.jpg
3074.241	1.758	correct	generate	Run4	generate/STIM_022.jpg
3079.238	1.993	correct	generate	Run4	generate/STIM_022.jpg
3083.967	1.583	correct	generate	Run4	generate/STIM_022.jpg
3087.272	1.203	correct	generate	Run4	generate/STIM_022.jpg
3090.968	1.432	correct	generate	Run4	generate/STIM_023.jpg
3094.267	2.005	correct	generate	Run4	generate/STIM_023.jpg
3098.39	1.207	correct	generate	Run4	generate/STIM_023.jpg
3103.157	1.276	correct	generate	Run4	generate/STIM_023.jpg
3106.483	1.215	correct	generate	Run4	generate/STIM_023.jpg
3111.048	1.301	correct	generate	Run4	generate/STIM_024.jpg
3114.562	1.325	correct	generate	Run4	generate/STIM_024.jpg
3119.364	1.603	correct	generate	Run4	generate/STIM_024.jpg
3123.558	1.264	correct	generate	Run4	generate/STIM_024.jpg
3127.899	2.123	correct	generate	Run4	generate/STIM_024.jpg
3133.049	0.807	correct	repeat	Run4	repeat/STIM_000.jpg
3135.845	0.63	correct	repeat	Run4	repeat/STIM_000.jpg
3139.666	0.72	incorrect	repeat	Run4	repeat/STIM_000.jpg
3143.675	1.133	correct	repeat	Run4	repeat/STIM_000.jpg
3147.295	1.1	correct	repeat	Run4	repeat/STIM_000.jpg
3150.546	0.699	correct	repeat	Run4	repeat/STIM_001.jpg
3153.834	0.917	correct	repeat	Run4	repeat/STIM_001.jpg
3157.394	0.618	correct	repeat	Run4	repeat/STIM_001.jpg
3160.121	0.996	correct	repeat	Run4	repeat/STIM_001.jpg
3164.867	1.114	correct	repeat	Run4	repeat/STIM_001.jpg
3169.429	0.75	correct	repeat	Run4	repeat/STIM_002.jpg
3172.478	0.865	correct	repeat	Run4	repeat/STIM_002.jpg
3175.951	1.048	correct	repeat	Run4	repeat/STIM_002.jpg
3179.279	0.711	correct	repeat	Run4	repeat/STIM_002.jpg
3183.252	0.601	correct	repeat	Run4	repeat/STIM_002.jpg
3185.867	0.647	correct	repeat	Run4	repeat/STIM_003.jpg
3189.399	0.888	correct	repeat	Run4	repeat/STIM_003.jpg
3192.682	0.564	correct	repeat	Run4	repeat/STIM_003.jpg
3195.968	0.954	correct	repeat	Run4	repeat/STIM_003.jpg
3198.733	0.979	correct	repeat	Run4	repeat/STIM_003.jpg
3201.854	1.0	correct	repeat	Run4	repeat/STIM_004.jpg
3205.633	1.12	correct	repeat	Run4	repeat/STIM_004.jpg
3209.15	0.795	correct	repeat	Run4	repeat/STIM_004.jpg
3213.747	0.869	correct	repeat	Run4	repeat/STIM_004.jpg
3217.73	0.625	correct	repeat	Run4	repeat/STIM_004.jpg
3220.729	0.79	correct	repeat	Run4	repeat/STIM_005.jpg
3223.474	1.05	correct	repeat	Run4	repeat/STIM_005.jpg
3227.082	0.984	correct	repeat	Run4	repeat/STIM_005.jpg
3231.038	0.899	correct	repeat	Run4	repeat/STIM_005.jpg
3235.217	0.67	correct	repeat	Run4	repeat/STIM_005.jpg
3238.66	1.192	correct	repeat	Run4	repeat/STIM_006.jpg
3242.967	0.778	correct	repeat	Run4	repeat/STIM_006.jpg
3247.274	0.877	correct	repeat	Run4	repeat/STIM_006.jpg
3250.12	1.062	correct	repeat	Run4	repeat/STIM_006.jpg
3253.317	0.79	correct	repeat	Run4	repeat/STIM_006.jpg
3256.643	0.819	correct	repeat	Run4	repeat/STIM_007.jpg
3261.188	0.838	correct	repeat	Run4	repeat/STIM_007.jpg
3265.484	0.849	correct	repeat	Run4	repeat/STIM_007.jpg
3269.809	0.984	correct	repeat	Run4	repeat/STIM_007.jpg
3273.626	0.805	correct	repeat	Run4	repeat/STIM_007.jpg
3276.978	0.63	correct	repeat	Run4	repeat/STIM_008.jpg
3279.923	0.616	correct	repeat	Run4	repeat/STIM_008.jpg
3284.405	0.972	incorrect	repeat	Run4	repeat/STIM_008.jpg
3288.591	1.0	correct	repeat	Run4	repeat/STIM_008.jpg
3291.632	0.571	correct	repeat	Run4	repeat/STIM_008.jpg
3294.849	0.892	correct	repeat	Run4	repeat/STIM_009.jpg
3299.38	0.815	correct	repeat	Run4	repeat/STIM_009.jpg
3303.807	1.087	correct	repeat	Run4	repeat/STIM_009.jpg
3308.676	0.617	incorrect	repeat	Run4	repeat/STIM_009.jpg
3312.345	1.104	correct	repeat	Run4	repeat/STIM_009.jpg
3315.887	0.826	correct	repeat	Run4	repeat/STIM_010.jpg
3320.086	0.898	correct	repeat	Run4	repeat/STIM_010.jpg
3324.958	1.078	correct	repeat	Run4	repeat/STIM_010.jpg
3328.531	0.834	correct	repeat	Run4	repeat/STIM_010.jpg
3331.235	0.643	incorrect	repeat	Run4	repeat/STIM_010.jpg
3334.677	0.64	correct	repeat	Run4	repeat/STIM_011.jpg
3338.944	1.21	correct	repeat	Run4	repeat/STIM_011.jpg
3342.688	0.665	correct	repeat	Run4	repeat/STIM_011.jpg
3347.26	0.902	correct	repeat	Run4	repeat/STIM_011.jpg
3350.024	0.761	incorrect	repeat	Run4	repeat/STIM_011.jpg
3353.064	0.852	correct	repeat	Run4	repeat/STIM_012.jpg
3356.42	0.972	correct	repeat	Run4	repeat/STIM_012.jpg
3359.985	1.227	correct	repeat	Run4	repeat/STIM_012.jpg
3364.484	0.494	correct	repeat	Run4	repeat/STIM_012.jpg
3367.27	0.731	correct	repeat	Run4	repeat/STIM_012.jpg
3371.775	0.752	correct	repeat	Run4	repeat/STIM_013.jpg
3376.052	1.018	correct	repeat	Run4	repeat/STIM_013.jpg
3380.066	1.149	incorrect	repeat	Run4	repeat/STIM_013.jpg
3384.443	0.943	correct	repeat	Run4	repeat/STIM_013.jpg
3387.689	1.073	correct	repeat	Run4	repeat/STIM_013.jpg
3390.797	0.727	correct	repeat	Run4	repeat/STIM_014.jpg
3394.751	1.183	correct	repeat	Run4	repeat/STIM_014.jpg
3398.391	0.833	correct	repeat	Run4	repeat/STIM_014.jpg
3401.401	1.074	correct	repeat	Run4	repeat/STIM_014.jpg
3405.447	0.815	correct	repeat	Run4	repeat/STIM_014.jpg
