onset	duration	response_time_ms	trial_type	learning_stage	stimulus	response_port
0.0	1.167	1166.6	study	Phase1	study/STIM_000.jpg	100
5.114	1.042	1042.0	study	Phase1	study/STIM_000.jpg	99
8.711	1.352	1352.2	study	Phase1	study/STIM_000.jpg	100
13.156	1.058	1058.1	study	Phase1	study/STIM_001.jpg	99
16.747	0.914	914.3	study	Phase1	study/STIM_001.jpg	99
21.111	0.788	787.6	study	Phase1	study/STIM_001.jpg	99
24.372	0.97	970.0	study	Phase1	study/STIM_002.jpg	100
29.104	0.724	724.4	study	Phase1	study/STIM_002.jpg	99
32.491	0.964	963.5	study	Phase1	study/STIM_002.jpg	100
36.491	1.098	1097.8	study	Phase1	study/STIM_003.jpg	99
40.016	1.147	1147.0	study	Phase1	study/STIM_003.jpg	99
44.532	1.17	1169.8	study	Phase1	study/STIM_003.jpg	99
49.258	1.258	1258.3	study	Phase1	study/STIM_004.jpg	100
53.998	0.965	965.3	study	Phase1	study/STIM_004.jpg	100
58.591	0.814	813.5	study	Phase1	study/STIM_004.jpg	99
62.904	1.109	1109.2	study	Phase1	study/STIM_005.jpg	100
67.654	1.082	1082.0	study	Phase1	study/STIM_005.jpg	99
71.402	0.848	848.3	study	Phase1	study/STIM_005.jpg	100
74.738	1.346	1345.7	study	Phase1	study/STIM_006.jpg	100
78.414	1.304	1303.8	study	Phase1	study/STIM_006.jpg	100
82.044	0.882	882.5	study	Phase1	study/STIM_006.jpg	99
86.471	1.065	1065.3	study	Phase1	study/STIM_007.jpg	100
90.192	0.831	831.3	study	Phase1	study/STIM_007.jpg	100
93.785	0.809	809.2	study	Phase1	study/STIM_007.jpg	100
98.458	1.386	1385.5	study	Phase1	study/STIM_008.jpg	99
103.29	0.846	845.7	study	Phase1	study/STIM_008.jpg	99
107.918	1.386	1386.5	study	Phase1	study/STIM_008.jpg	100
112.262	0.948	948.3	study	Phase1	study/STIM_009.jpg	99
116.83	0.839	838.8	study	Phase1	study/STIM_009.jpg	100
121.702	1.373	1373.3	study	Phase1	study/STIM_009.jpg	100
125.356	1.541	1541.2	study	Phase1	study/STIM_010.jpg	100
130.597	0.837	837.0	study	Phase1	study/STIM_010.jpg	100
134.367	1.041	1040.6	study	Phase1	study/STIM_010.jpg	99
138.809	0.885	885.0	study	Phase1	study/STIM_011.jpg	99
142.094	0.961	961.1	study	Phase1	study/STIM_011.jpg	99
145.802	1.257	1257.1	study	Phase1	study/STIM_011.jpg	100
151.083	1.175	1175.4	study	Phase1	study/STIM_012.jpg	100
154.783	0.971	971.3	study	Phase1	study/STIM_012.jpg	100
158.954	0.927	927.0	study	Phase1	study/STIM_012.jpg	100
163.376	1.429	1429.2	study	Phase1	study/STIM_013.jpg	99
167.011	1.448	1447.5	study	Phase1	study/STIM_013.jpg	100
172.169	0.984	983.5	study	Phase1	study/STIM_013.jpg	100
175.794	1.182	1181.7	study	Phase1	study/STIM_014.jpg	99
180.495	1.128	1128.5	study	Phase1	study/STIM_014.jpg	99
184.639	1.263	1263.2	study	Phase1	study/STIM_014.jpg	99
188.292	1.361	1361.2	study	Phase1	study/STIM_015.jpg	100
193.391	1.44	1440.2	study	Phase1	study/STIM_015.jpg	100
198.578	0.734	734.0	study	Phase1	study/STIM_015.jpg	99
202.452	1.523	1523.1	study	Phase1	study/STIM_016.jpg	100
206.588	1.207	1207.0	study	Phase1	study/STIM_016.jpg	100
209.98	1.316	1316.4	study	Phase1	study/STIM_016.jpg	99
214.513	0.993	993.4	study	Phase1	study/STIM_017.jpg	100
218.139	1.382	1382.4	study	Phase1	study/STIM_017.jpg	99
223.556	0.98	980.5	study	Phase1	study/STIM_017.jpg	100
227.506	1.597	1597.0	study	Phase1	study/STIM_018.jpg	99
232.056	1.411	1411.0	study	Phase1	study/STIM_018.jpg	100
236.0	1.42	1420.3	study	Phase1	study/STIM_018.jpg	99
239.685	1.384	1383.8	study	Phase1	study/STIM_019.jpg	100
244.302	1.111	1110.7	study	Phase1	study/STIM_019.jpg	100
248.31	1.282	1282.2	study	Phase1	study/STIM_019.jpg	99
252.054	1.352	1351.6	study	Phase1	study/STIM_020.jpg	99
256.074	1.145	1144.7	study	Phase1	study/STIM_020.jpg	100
260.395	1.043	1043.3	study	Phase1	study/STIM_020.jpg	100
264.155	1.075	1075.3	study	Phase1	study/STIM_021.jpg	99
269.101	0.7	699.9	study	Phase1	study/STIM_021.jpg	100
272.649	1.068	1068.1	study	Phase1	study/STIM_021.jpg	100
276.449	1.261	1261.1	study	Phase1	study/STIM_022.jpg	99
279.979	0.872	872.3	study	Phase1	study/STIM_022.jpg	100
283.504	1.009	1009.2	study	Phase1	study/STIM_022.jpg	99
288.102	1.091	1090.6	study	Phase1	study/STIM_023.jpg	99
293.264	1.383	1383.4	study	Phase1	study/STIM_023.jpg	100
297.066	1.134	1133.9	study	Phase1	study/STIM_023.jpg	99
302.095	1.085	1085.4	study	Phase1	study/STIM_024.jpg	100
305.744	0.69	690.5	study	Phase1	study/STIM_024.jpg	99
309.534	1.38	1379.6	study	Phase1	study/STIM_024.jpg	99
313.71	1.473	1472.9	study	Phase1	study/STIM_025.jpg	100
318.077	0.901	901.4	study	Phase1	study/STIM_025.jpg	100
321.862	0.852	851.6	study	Phase1	study/STIM_025.jpg	100
326.234	1.084	1083.7	study	Phase1	study/STIM_026.jpg	99
330.787	1.084	1084.4	study	Phase1	study/STIM_026.jpg	99
334.147	1.179	1179.4	study	Phase1	study/STIM_026.jpg	100
338.016	1.078	1077.8	study	Phase1	study/STIM_027.jpg	100
343.051	0.943	942.9	study	Phase1	study/STIM_027.jpg	99
346.44	0.674	673.8	study	Phase1	study/STIM_027.jpg	99
350.294	0.787	787.4	study	Phase1	study/STIM_028.jpg	99
354.041	1.08	1080.4	study	Phase1	study/STIM_028.jpg	100
358.278	1.026	1025.6	study	Phase1	study/STIM_028.jpg	100
362.371	1.205	1205.0	study	Phase1	study/STIM_029.jpg	99
366.806	1.187	1187.1	study	Phase1	study/STIM_029.jpg	100
371.83	1.155	1154.7	study	Phase1	study/STIM_029.jpg	100
375.32	0.9	899.8	test	Phase1	test/STIM_000.jpg	100
379.915	1.111	1111.0	test	Phase1	test/STIM_000.jpg	99
384.395	0.963	962.6	test	Phase1	test/STIM_000.jpg	99
388.451	0.567	567.0	test	Phase1	test/STIM_001.jpg	100
391.188	0.854	853.6	test	Phase1	test/STIM_001.jpg	99
394.195	0.719	718.9	test	Phase1	test/STIM_001.jpg	99
397.107	0.834	834.1	test	Phase1	test/STIM_002.jpg	100
400.63	1.092	1092.3	test	Phase1	test/STIM_002.jpg	100
405.245	0.792	791.7	test	Phase1	test/STIM_002.jpg	100
409.032	0.873	873.4	test	Phase1	test/STIM_003.jpg	99
413.849	0.599	599.4	test	Phase1	test/STIM_003.jpg	99
417.486	1.07	1070.1	test	Phase1	test/STIM_003.jpg	99
421.882	1.108	1108.4	test	Phase1	test/STIM_004.jpg	100
426.17	1.108	1107.9	test	Phase1	test/STIM_004.jpg	99
431.185	0.546	545.9	test	Phase1	test/STIM_004.jpg	100
435.543	0.539	539.4	test	Phase1	test/STIM_005.jpg	99
438.994	0.816	816.4	test	Phase1	test/STIM_005.jpg	100
442.067	0.545	544.8	test	Phase1	test/STIM_005.jpg	100
446.256	0.732	731.6	test	Phase1	test/STIM_006.jpg	100
449.879	0.95	949.5	test	Phase1	test/STIM_006.jpg	100
453.045	0.988	987.5	test	Phase1	test/STIM_006.jpg	100
456.418	0.76	760.2	test	Phase1	test/STIM_007.jpg	99
459.51	0.722	722.3	test	Phase1	test/STIM_007.jpg	99
463.335	0.626	625.8	test	Phase1	test/STIM_007.jpg	99
467.362	0.837	837.0	test	Phase1	test/STIM_008.jpg	99
470.367	1.146	1145.6	test	Phase1	test/STIM_008.jpg	100
475.4	0.535	535.4	test	Phase1	test/STIM_008.jpg	100
479.871	0.666	666.4	test	Phase1	test/STIM_009.jpg	100
483.812	0.638	637.6	test	Phase1	test/STIM_009.jpg	99
488.083	1.041	1040.8	test	Phase1	test/STIM_009.jpg	99
492.169	0.896	895.7	test	Phase1	test/STIM_010.jpg	99
495.696	0.592	591.7	test	Phase1	test/STIM_010.jpg	100
499.463	0.549	549.2	test	Phase1	test/STIM_010.jpg	99
503.093	0.889	889.1	test	Phase1	test/STIM_011.jpg	99
508.077	0.804	804.3	test	Phase1	test/STIM_011.jpg	100
512.89	0.54	539.9	test	Phase1	test/STIM_011.jpg	99
516.132	0.996	995.9	test	Phase1	test/STIM_012.jpg	100
520.467	0.886	885.7	test	Phase1	test/STIM_012.jpg	99
524.657	1.083	1083.0	test	Phase1	test/STIM_012.jpg	100
528.729	0.888	888.2	test	Phase1	test/STIM_013.jpg	99
533.523	0.589	588.6	test	Phase1	test/STIM_013.jpg	100
537.262	0.914	914.4	test	Phase1	test/STIM_013.jpg	100
540.436	1.121	1121.3	test	Phase1	test/STIM_014.jpg	99
544.091	0.773	773.4	test	Phase1	test/STIM_014.jpg	99
548.085	0.61	609.8	test	Phase1	test/STIM_014.jpg	99
552.731	1.145	1145.0	test	Phase1	test/STIM_015.jpg	100
556.903	1.129	1129.4	test	Phase1	test/STIM_015.jpg	99
561.118	0.61	609.7	test	Phase1	test/STIM_015.jpg	100
565.1	0.988	987.5	test	Phase1	test/STIM_016.jpg	100
569.792	0.957	956.7	test	Phase1	test/STIM_016.jpg	99
573.588	0.985	984.7	test	Phase1	test/STIM_016.jpg	100
578.221	0.945	944.8	test	Phase1	test/STIM_017.jpg	100
581.954	0.633	632.9	test	Phase1	test/STIM_017.jpg	99
586.015	0.578	578.3	test	Phase1	test/STIM_017.jpg	99
588.935	0.715	714.8	test	Phase1	test/STIM_018.jpg	99
592.53	1.076	1075.6	test	Phase1	test/STIM_018.jpg	99
596.474	0.634	634.0	test	Phase1	test/STIM_018.jpg	100
600.037	0.846	846.4	test	Phase1	test/STIM_019.jpg	99
603.723	0.985	985.4	test	Phase1	test/STIM_019.jpg	100
607.048	0.874	873.5	test	Phase1	test/STIM_019.jpg	100
610.825	0.655	655.3	test	Phase1	test/STIM_020.jpg	99
614.532	0.867	866.9	test	Phase1	test/STIM_020.jpg	99
617.776	0.826	825.8	test	Phase1	test/STIM_020.jpg	99
622.06	0.856	855.6	test	Phase1	test/STIM_021.jpg	100
626.238	0.847	847.2	test	Phase1	test/STIM_021.jpg	99
629.496	0.775	774.8	test	Phase1	test/STIM_021.jpg	100
633.417	1.095	1095.2	test	Phase1	test/STIM_022.jpg	100
636.71	0.763	762.7	test	Phase1	test/STIM_022.jpg	99
640.834	0.974	973.8	test	Phase1	test/STIM_022.jpg	100
644.298	0.71	710.1	test	Phase1	test/STIM_023.jpg	99
648.244	0.967	967.2	test	Phase1	test/STIM_023.jpg	99
652.199	0.817	817.2	test	Phase1	test/STIM_023.jpg	100
656.623	1.072	1072.3	test	Phase1	test/STIM_024.jpg	100
660.621	0.906	905.7	test	Phase1	test/STIM_024.jpg	99
664.97	0.886	886.2	test	Phase1	test/STIM_024.jpg	99
669.804	1.045	1044.7	test	Phase1	test/STIM_025.jpg	99
673.754	0.565	565.3	test	Phase1	test/STIM_025.jpg	100
677.746	0.712	711.8	test	Phase1	test/STIM_025.jpg	99
681.043	0.994	994.3	test	Phase1	test/STIM_026.jpg	99
685.201	0.767	766.7	test	Phase1	test/STIM_026.jpg	99
689.69	0.777	777.3	test	Phase1	test/STIM_026.jpg	100
692.912	1.071	1071.3	test	Phase1	test/STIM_027.jpg	99
696.457	0.922	921.7	test	Phase1	test/STIM_027.jpg	99
701.45	0.881	881.3	test	Phase1	test/STIM_027.jpg	99
704.721	1.114	1113.5	test	Phase1	test/STIM_028.jpg	99
708.685	0.966	965.6	test	Phase1	test/STIM_028.jpg	99
712.057	0.996	996.5	test	Phase1	test/STIM_028.jpg	99
717.14	0.7	699.7	test	Phase1	test/STIM_029.jpg	99
721.091	0.596	595.6	test	Phase1	test/STIM_029.jpg	99
724.502	1.139	1138.7	test	Phase1	test/STIM_029.jpg	99
728.814	0.872	872.1	study	Phase2	study/STIM_000.jpg	100
732.511	0.651	650.8	study	Phase2	study/STIM_000.jpg	99
736.901	0.749	749.1	study	Phase2	study/STIM_000.jpg	100
740.602	0.754	754.2	study	Phase2	study/STIM_001.jpg	100
745.157	1.07	1070.3	study	Phase2	study/STIM_001.jpg	100
748.865	0.852	851.8	study	Phase2	study/STIM_001.jpg	99
753.472	0.716	716.3	study	Phase2	study/STIM_002.jpg	99
757.509	0.842	842.5	study	Phase2	study/STIM_002.jpg	99
760.675	0.849	848.7	study	Phase2	study/STIM_002.jpg	100
763.736	1.164	1164.3	study	Phase2	study/STIM_003.jpg	99
767.706	0.59	590.3	study	Phase2	study/STIM_003.jpg	99
771.124	1.156	1155.5	study	Phase2	study/STIM_003.jpg	100
775.561	0.853	853.1	study	Phase2	study/STIM_004.jpg	100
779.841	0.901	900.9	study	Phase2	study/STIM_004.jpg	99
782.912	0.779	779.0	study	Phase2	study/STIM_004.jpg	100
787.651	0.798	798.1	study	Phase2	study/STIM_005.jpg	99
790.883	0.659	659.2	study	Phase2	study/STIM_005.jpg	99
794.108	1.168	1168.4	study	Phase2	study/STIM_005.jpg	99
797.873	1.116	1116.3	study	Phase2	study/STIM_006.jpg	100
801.784	0.832	831.9	study	Phase2	study/STIM_006.jpg	100
805.682	1.162	1161.6	study	Phase2	study/STIM_006.jpg	99
809.063	0.976	975.9	study	Phase2	study/STIM_007.jpg	99
813.202	1.032	1031.5	study	Phase2	study/STIM_007.jpg	99
816.632	0.72	719.8	study	Phase2	study/STIM_007.jpg	100
819.582	0.888	887.9	study	Phase2	study/STIM_008.jpg	100
823.569	0.689	689.2	study	Phase2	study/STIM_008.jpg	99
828.3	0.554	553.9	study	Phase2	study/STIM_008.jpg	100
832.144	1.27	1270.1	study	Phase2	study/STIM_009.jpg	100
836.416	1.258	1257.6	study	Phase2	study/STIM_009.jpg	100
841.046	1.001	1000.8	study	Phase2	study/STIM_009.jpg	100
845.6	1.102	1102.5	study	Phase2	study/STIM_010.jpg	100
850.54	1.021	1021.4	study	Phase2	study/STIM_010.jpg	100
854.943	0.816	816.4	study	Phase2	study/STIM_010.jpg	99
859.588	0.922	922.5	study	Phase2	study/STIM_011.jpg	99
862.834	0.969	969.3	study	Phase2	study/STIM_011.jpg	100
866.68	0.559	559.3	study	Phase2	study/STIM_011.jpg	100
869.421	0.671	671.0	study	Phase2	study/STIM_012.jpg	99
872.744	0.936	936.1	study	Phase2	study/STIM_012.jpg	99
876.488	0.997	996.6	study	Phase2	study/STIM_012.jpg	99
880.815	0.862	862.2	study	Phase2	study/STIM_013.jpg	100
885.658	1.264	1264.2	study	Phase2	study/STIM_013.jpg	100
889.918	0.68	679.8	study	Phase2	study/STIM_013.jpg	100
893.657	0.766	766.2	study	Phase2	study/STIM_014.jpg	100
898.305	1.064	1063.5	study	Phase2	study/STIM_014.jpg	99
902.2	0.791	791.3	study	Phase2	study/STIM_014.jpg	100
906.369	0.932	932.3	study	Phase2	study/STIM_015.jpg	100
911.156	0.767	767.3	study	Phase2	study/STIM_015.jpg	99
915.442	0.949	948.7	study	Phase2	study/STIM_015.jpg	99
918.912	0.901	900.8	study	Phase2	study/STIM_016.jpg	99
923.668	1.257	1256.8	study	Phase2	study/STIM_016.jpg	99
927.332	0.552	552.4	study	Phase2	study/STIM_016.jpg	100
930.768	0.699	698.6	study	Phase2	study/STIM_017.jpg	99
935.356	0.853	852.6	study	Phase2	study/STIM_017.jpg	100
938.899	0.802	802.5	study	Phase2	study/STIM_017.jpg	99
943.225	0.614	614.2	study	Phase2	study/STIM_018.jpg	99
946.368	1.017	1016.6	study	Phase2	study/STIM_018.jpg	100
950.63	0.588	588.4	study	Phase2	study/STIM_018.jpg	99
955.065	1.197	1196.7	study	Phase2	study/STIM_019.jpg	100
958.866	0.777	776.6	study	Phase2	study/STIM_019.jpg	100
963.101	0.734	734.2	study	Phase2	study/STIM_019.jpg	99
967.61	0.906	906.5	study	Phase2	study/STIM_020.jpg	99
971.355	0.695	694.7	study	Phase2	study/STIM_020.jpg	100
975.909	0.996	996.2	study	Phase2	study/STIM_020.jpg	100
980.231	1.147	1147.4	study	Phase2	study/STIM_021.jpg	99
983.658	0.594	593.9	study	Phase2	study/STIM_021.jpg	99
987.139	0.588	588.1	study	Phase2	study/STIM_021.jpg	99
991.333	0.972	971.6	study	Phase2	study/STIM_022.jpg	100
995.966	0.623	623.3	study	Phase2	study/STIM_022.jpg	100
999.611	0.928	927.5	study	Phase2	study/STIM_022.jpg	99
1003.589	0.853	852.7	study	Phase2	study/STIM_023.jpg	99
1006.756	0.66	660.2	study	Phase2	study/STIM_023.jpg	100
1009.984	0.714	714.4	study	Phase2	study/STIM_023.jpg	100
1012.814	0.951	951.1	study	Phase2	study/STIM_024.jpg	100
1016.577	0.946	946.0	study	Phase2	study/STIM_024.jpg	100
1020.526	0.857	857.0	study	Phase2	study/STIM_024.jpg	100
1024.407	1.317	1316.8	study	Phase2	study/STIM_025.jpg	99
1027.963	0.698	697.9	study	Phase2	study/STIM_025.jpg	100
1031.016	1.116	1116.2	study	Phase2	study/STIM_025.jpg	100
1034.595	1.117	1116.6	study	Phase2	study/STIM_026.jpg	100
1038.873	0.672	672.4	study	Phase2	study/STIM_026.jpg	99
1043.411	1.147	1147.4	study	Phase2	study/STIM_026.jpg	100
1047.9	1.134	1134.0	study	Phase2	study/STIM_027.jpg	100
1052.296	0.603	602.9	study	Phase2	study/STIM_027.jpg	100
1056.741	0.955	954.8	study	Phase2	study/STIM_027.jpg	99
1060.36	1.139	1138.7	study	Phase2	study/STIM_028.jpg	99
1063.774	0.87	870.5	study	Phase2	study/STIM_028.jpg	100
1068.408	1.0	1000.1	study	Phase2	study/STIM_028.jpg	100
1072.051	0.627	627.4	study	Phase2	study/STIM_029.jpg	99
1075.373	0.824	824.3	study	Phase2	study/STIM_029.jpg	99
1078.825	0.919	919.2	study	Phase2	study/STIM_029.jpg	99
1083.496	0.718	718.3	test	Phase2	test/STIM_000.jpg	100
1087.679	0.622	622.5	test	Phase2	test/STIM_000.jpg	100
1091.964	0.618	618.2	test	Phase2	test/STIM_000.jpg	100
1094.791	0.858	857.6	test	Phase2	test/STIM_001.jpg	100
1098.709	0.862	861.9	test	Phase2	test/STIM_001.jpg	100
1103.619	0.997	997.1	test	Phase2	test/STIM_001.jpg	99
1108.475	0.81	809.7	test	Phase2	test/STIM_002.jpg	100
1112.582	0.821	820.7	test	Phase2	test/STIM_002.jpg	100
1115.544	0.553	552.9	test	Phase2	test/STIM_002.jpg	99
1119.907	1.051	1050.8	test	Phase2	test/STIM_003.jpg	99
1123.168	0.574	573.5	test	Phase2	test/STIM_003.jpg	99
1126.248	0.77	769.9	test	Phase2	test/STIM_003.jpg	99
1129.719	0.572	572.3	test	Phase2	test/STIM_004.jpg	99
1133.42	0.983	983.2	test	Phase2	test/STIM_004.jpg	99
1138.372	0.809	809.4	test	Phase2	test/STIM_004.jpg	100
1143.201	0.859	859.4	test	Phase2	test/STIM_005.jpg	99
1146.222	1.078	1078.0	test	Phase2	test/STIM_005.jpg	99
1150.729	0.81	809.8	test	Phase2	test/STIM_005.jpg	100
1154.184	0.67	669.7	test	Phase2	test/STIM_006.jpg	99
1157.077	1.098	1097.5	test	Phase2	test/STIM_006.jpg	100
1162.198	0.772	771.9	test	Phase2	test/STIM_006.jpg	100
1165.16	1.046	1046.4	test	Phase2	test/STIM_007.jpg	99
1169.763	0.991	991.4	test	Phase2	test/STIM_007.jpg	100
1174.223	0.542	541.7	test	Phase2	test/STIM_007.jpg	100
1178.668	0.681	680.8	test	Phase2	test/STIM_008.jpg	99
1182.845	1.114	1114.0	test	Phase2	test/STIM_008.jpg	99
1187.958	0.948	948.0	test	Phase2	test/STIM_008.jpg	99
1191.897	1.104	1104.3	test	Phase2	test/STIM_009.jpg	99
1196.37	0.945	945.2	test	Phase2	test/STIM_009.jpg	99
1199.543	0.637	637.2	test	Phase2	test/STIM_009.jpg	99
1202.685	0.86	859.8	test	Phase2	test/STIM_010.jpg	100
1206.39	0.842	842.0	test	Phase2	test/STIM_010.jpg	100
1210.241	0.882	881.9	test	Phase2	test/STIM_010.jpg	99
1214.47	0.763	763.0	test	Phase2	test/STIM_011.jpg	100
1219.156	1.014	1013.6	test	Phase2	test/STIM_011.jpg	99
1224.241	0.65	649.7	test	Phase2	test/STIM_011.jpg	100
1227.274	0.687	687.1	test	Phase2	test/STIM_012.jpg	100
1230.3	0.746	745.7	test	Phase2	test/STIM_012.jpg	100
1233.381	0.917	917.0	test	Phase2	test/STIM_012.jpg	100
1237.154	1.089	1088.7	test	Phase2	test/STIM_013.jpg	100
1241.792	1.103	1103.0	test	Phase2	test/STIM_013.jpg	99
1246.354	0.702	702.5	test	Phase2	test/STIM_013.jpg	99
1249.56	0.58	579.5	test	Phase2	test/STIM_014.jpg	100
1254.056	0.715	714.7	test	Phase2	test/STIM_014.jpg	100
1257.993	0.63	630.2	test	Phase2	test/STIM_014.jpg	100
1261.656	0.64	640.0	test	Phase2	test/STIM_015.jpg	100
1264.599	0.922	922.5	test	Phase2	test/STIM_015.jpg	100
1269.148	0.958	958.4	test	Phase2	test/STIM_015.jpg	99
1272.384	0.732	731.8	test	Phase2	test/STIM_016.jpg	100
1275.863	0.661	660.9	test	Phase2	test/STIM_016.jpg	99
1278.862	0.555	555.3	test	Phase2	test/STIM_016.jpg	100
1282.234	0.546	545.7	test	Phase2	test/STIM_017.jpg	100
1286.338	0.828	828.2	test	Phase2	test/STIM_017.jpg	99
1290.717	0.997	997.0	test	Phase2	test/STIM_017.jpg	100
1294.037	0.899	899.2	test	Phase2	test/STIM_018.jpg	100
1297.832	0.637	637.1	test	Phase2	test/STIM_018.jpg	100
1302.121	0.808	807.9	test	Phase2	test/STIM_018.jpg	100
1305.86	0.831	831.3	test	Phase2	test/STIM_019.jpg	100
1308.889	0.959	959.1	test	Phase2	test/STIM_019.jpg	100
1313.299	0.977	976.6	test	Phase2	test/STIM_019.jpg	100
1317.998	0.89	889.7	test	Phase2	test/STIM_020.jpg	99
1322.704	1.15	1149.8	test	Phase2	test/STIM_020.jpg	100
1327.099	0.939	939.1	test	Phase2	test/STIM_020.jpg	100
1330.976	0.97	969.7	test	Phase2	test/STIM_021.jpg	99
1335.309	0.625	624.9	test	Phase2	test/STIM_021.jpg	99
1338.196	0.617	617.2	test	Phase2	test/STIM_021.jpg	99
1342.007	0.846	846.5	test	Phase2	test/STIM_022.jpg	99
1345.624	0.74	739.8	test	Phase2	test/STIM_022.jpg	99
1350.143	0.662	661.7	test	Phase2	test/STIM_022.jpg	100
1354.343	1.148	1148.1	test	Phase2	test/STIM_023.jpg	99
1358.761	1.078	1077.7	test	Phase2	test/STIM_023.jpg	99
1363.332	0.682	682.4	test	Phase2	test/STIM_023.jpg	100
1367.537	0.911	911.0	test	Phase2	test/STIM_024.jpg	100
1370.975	0.838	837.9	test	Phase2	test/STIM_024.jpg	99
1375.857	0.909	909.2	test	Phase2	test/STIM_024.jpg	100
1380.584	0.602	602.0	test	Phase2	test/STIM_025.jpg	100
1383.341	1.118	1118.0	test	Phase2	test/STIM_025.jpg	99
1387.335	0.924	924.0	test	Phase2	test/STIM_025.jpg	100
1390.76	0.756	755.9	test	Phase2	test/STIM_026.jpg	99
1393.75	0.745	745.0	test	Phase2	test/STIM_026.jpg	100
1397.463	1.142	1141.9	test	Phase2	test/STIM_026.jpg	99
1402.603	1.127	1127.4	test	Phase2	test/STIM_027.jpg	100
1407.554	1.124	1123.6	test	Phase2	test/STIM_027.jpg	99
1412.384	0.867	866.6	test	Phase2	test/STIM_027.jpg	99
1415.613	0.755	754.6	test	Phase2	test/STIM_028.jpg	100
1418.898	1.121	1121.1	test	Phase2	test/STIM_028.jpg	100
1424.092	0.898	898.2	test	Phase2	test/STIM_028.jpg	100
1427.879	0.655	655.4	test	Phase2	test/STIM_029.jpg	99
1432.071	1.038	1038.3	test	Phase2	test/STIM_029.jpg	100
1435.448	0.991	991.1	test	Phase2	test/STIM_029.jpg	100
1439.324	0.99	990.3	study	Phase3	study/STIM_000.jpg	100
1444.267	0.709	708.8	study	Phase3	study/STIM_000.jpg	100
1448.026	0.94	939.8	study	Phase3	study/STIM_000.jpg	99
1451.533	1.084	1083.8	study	Phase3	study/STIM_001.jpg	99
1455.205	0.671	671.4	study	Phase3	study/STIM_001.jpg	99
1458.304	1.029	1029.1	study	Phase3	study/STIM_001.jpg	100
1462.338	0.806	806.4	study	Phase3	study/STIM_002.jpg	99
1465.726	0.645	645.2	study	Phase3	study/STIM_002.jpg	100
1469.323	0.522	522.0	study	Phase3	study/STIM_002.jpg	99
1472.813	0.603	603.1	study	Phase3	study/STIM_003.jpg	100
1475.812	0.645	645.1	study	Phase3	study/STIM_003.jpg	100
1480.071	0.644	643.5	study	Phase3	study/STIM_003.jpg	99
1484.465	0.913	913.1	study	Phase3	study/STIM_004.jpg	99
1487.765	0.842	841.6	study	Phase3	study/STIM_004.jpg	100
1491.008	0.569	569.0	study	Phase3	study/STIM_004.jpg	100
1495.108	0.883	883.4	study	Phase3	study/STIM_005.jpg	100
1499.0	0.668	667.6	study	Phase3	study/STIM_005.jpg	99
1501.884	0.685	685.2	study	Phase3	study/STIM_005.jpg	99
1505.459	0.556	556.2	study	Phase3	study/STIM_006.jpg	100
1509.909	0.616	616.3	study	Phase3	study/STIM_006.jpg	99
1513.397	0.656	656.1	study	Phase3	study/STIM_006.jpg	99
1518.08	0.829	828.7	study	Phase3	study/STIM_007.jpg	99
1521.176	0.758	757.9	study	Phase3	study/STIM_007.jpg	100
1524.654	1.025	1024.6	study	Phase3	study/STIM_007.jpg	99
1528.54	0.697	696.9	study	Phase3	study/STIM_008.jpg	99
1533.111	0.713	713.3	study	Phase3	study/STIM_008.jpg	99
1537.081	0.782	781.8	study	Phase3	study/STIM_008.jpg	100
1540.584	0.82	819.9	study	Phase3	study/STIM_009.jpg	99
1545.191	0.883	883.0	study	Phase3	study/STIM_009.jpg	99
1548.209	0.89	889.5	study	Phase3	study/STIM_009.jpg	99
1552.418	1.111	1111.4	study	Phase3	study/STIM_010.jpg	99
1556.259	0.76	759.8	study	Phase3	study/STIM_010.jpg	100
1560.598	0.578	577.9	study	Phase3	study/STIM_010.jpg	99
1563.311	0.926	926.2	study	Phase3	study/STIM_011.jpg	99
1567.308	0.734	733.9	study	Phase3	study/STIM_011.jpg	100
1571.088	0.564	563.7	study	Phase3	study/STIM_011.jpg	100
1574.609	0.51	509.9	study	Phase3	study/STIM_012.jpg	99
1579.033	0.702	701.5	study	Phase3	study/STIM_012.jpg	100
1583.65	0.639	639.4	study	Phase3	study/STIM_012.jpg	99
1587.534	1.013	1012.7	study	Phase3	study/STIM_013.jpg	99
1592.242	0.67	669.9	study	Phase3	study/STIM_013.jpg	99
1596.006	0.845	844.6	study	Phase3	study/STIM_013.jpg	99
1600.588	0.641	640.9	study	Phase3	study/STIM_014.jpg	100
1605.307	0.533	533.3	study	Phase3	study/STIM_014.jpg	99
1608.932	0.838	837.8	study	Phase3	study/STIM_014.jpg	99
1613.703	1.068	1068.1	study	Phase3	study/STIM_015.jpg	100
1618.416	0.904	904.5	study	Phase3	study/STIM_015.jpg	100
1623.323	1.023	1023.0	study	Phase3	study/STIM_015.jpg	100
1628.445	1.022	1022.2	study	Phase3	study/STIM_016.jpg	100
1632.639	1.061	1060.9	study	Phase3	study/STIM_016.jpg	99
1636.146	0.524	524.1	study	Phase3	study/STIM_016.jpg	100
1640.478	0.899	898.6	study	Phase3	study/STIM_017.jpg	100
1643.943	0.657	656.8	study	Phase3	study/STIM_017.jpg	99
1647.007	0.581	581.3	study	Phase3	study/STIM_017.jpg	100
1651.42	0.981	981.1	study	Phase3	study/STIM_018.jpg	100
1656.088	1.059	1059.3	study	Phase3	study/STIM_018.jpg	100
1660.816	1.044	1043.9	study	Phase3	study/STIM_018.jpg	100
1665.074	0.874	874.1	study	Phase3	study/STIM_019.jpg	99
1668.92	0.828	827.6	study	Phase3	study/STIM_019.jpg	100
1672.809	0.892	892.2	study	Phase3	study/STIM_019.jpg	99
1675.906	0.838	838.1	study	Phase3	study/STIM_020.jpg	100
1679.22	0.71	709.7	study	Phase3	study/STIM_020.jpg	99
1682.814	0.661	661.3	study	Phase3	study/STIM_020.jpg	99
1685.918	0.669	668.8	study	Phase3	study/STIM_021.jpg	99
1688.7	0.698	697.5	study	Phase3	study/STIM_021.jpg	100
1693.354	0.727	727.1	study	Phase3	study/STIM_021.jpg	100
1697.947	1.004	1003.9	study	Phase3	study/STIM_022.jpg	100
1701.196	1.024	1024.4	study	Phase3	study/STIM_022.jpg	99
1705.265	0.589	589.1	study	Phase3	study/STIM_022.jpg	100
1708.341	0.893	893.4	study	Phase3	study/STIM_023.jpg	99
1712.692	0.826	825.7	study	Phase3	study/STIM_023.jpg	99
1716.323	1.078	1078.2	study	Phase3	study/STIM_023.jpg	99
1721.326	0.839	838.9	study	Phase3	study/STIM_024.jpg	100
1725.879	0.65	650.5	study	Phase3	study/STIM_024.jpg	99
1729.601	0.94	939.7	study	Phase3	study/STIM_024.jpg	100
1734.444	0.709	708.9	study	Phase3	study/STIM_025.jpg	100
1738.717	0.599	599.2	study	Phase3	study/STIM_025.jpg	100
1742.705	0.685	685.2	study	Phase3	study/STIM_025.jpg	99
1746.309	0.839	838.7	study	Phase3	study/STIM_026.jpg	99
1749.471	0.875	874.9	study	Phase3	study/STIM_026.jpg	100
1753.196	1.043	1042.9	study	Phase3	study/STIM_026.jpg	99
1756.796	0.836	836.3	study	Phase3	study/STIM_027.jpg	100
1760.311	1.067	1066.6	study	Phase3	study/STIM_027.jpg	100
1764.066	0.675	674.7	study	Phase3	study/STIM_027.jpg	99
1767.869	1.084	1084.0	study	Phase3	study/STIM_028.jpg	100
1772.377	0.996	995.9	study	Phase3	study/STIM_028.jpg	99
1776.885	0.517	517.0	study	Phase3	study/STIM_028.jpg	100
1779.984	0.754	754.3	study	Phase3	study/STIM_029.jpg	100
1783.792	0.992	991.7	study	Phase3	study/STIM_029.jpg	100
1788.005	0.585	584.7	study	Phase3	study/STIM_029.jpg	99
1792.432	0.826	826.0	test	Phase3	test/STIM_000.jpg	100
1795.911	0.923	923.3	test	Phase3	test/STIM_000.jpg	100
1799.193	0.974	973.9	test	Phase3	test/STIM_000.jpg	100
1802.791	0.541	541.0	test	Phase3	test/STIM_001.jpg	99
1807.351	0.561	561.1	test	Phase3	test/STIM_001.jpg	100
1810.647	0.826	826.5	test	Phase3	test/STIM_001.jpg	99
1814.487	0.988	987.9	test	Phase3	test/STIM_002.jpg	100
1818.929	0.623	623.2	test	Phase3	test/STIM_002.jpg	99
1821.997	0.908	907.8	test	Phase3	test/STIM_002.jpg	99
1825.062	0.558	557.9	test	Phase3	test/STIM_003.jpg	99
1828.559	0.894	893.5	test	Phase3	test/STIM_003.jpg	99
1832.388	1.094	1094.0	test	Phase3	test/STIM_003.jpg	100
1836.249	0.981	980.7	test	Phase3	test/STIM_004.jpg	100
1839.402	0.576	575.7	test	Phase3	test/STIM_004.jpg	99
1842.167	0.998	998.3	test	Phase3	test/STIM_004.jpg	99
1846.31	0.55	550.4	test	Phase3	test/STIM_005.jpg	100
1850.604	1.126	1126.4	test	Phase3	test/STIM_005.jpg	99
1855.841	0.594	594.1	test	Phase3	test/STIM_005.jpg	100
1860.018	0.604	604.5	test	Phase3	test/STIM_006.jpg	100
1863.995	1.122	1122.1	test	Phase3	test/STIM_006.jpg	100
1867.917	0.652	652.0	test	Phase3	test/STIM_006.jpg	100
1872.37	0.706	706.1	test	Phase3	test/STIM_007.jpg	100
1877.087	0.613	612.6	test	Phase3	test/STIM_007.jpg	100
1881.549	1.094	1094.2	test	Phase3	test/STIM_007.jpg	99
1886.659	1.152	1151.9	test	Phase3	test/STIM_008.jpg	100
1891.629	0.836	835.9	test	Phase3	test/STIM_008.jpg	100
1895.516	1.093	1092.8	test	Phase3	test/STIM_008.jpg	99
1899.423	0.928	928.0	test	Phase3	test/STIM_009.jpg	100
1903.604	0.864	864.5	test	Phase3	test/STIM_009.jpg	99
1907.405	0.794	793.5	test	Phase3	test/STIM_009.jpg	100
1910.858	0.83	830.2	test	Phase3	test/STIM_010.jpg	100
1914.736	0.742	742.4	test	Phase3	test/STIM_010.jpg	100
1918.438	1.087	1087.0	test	Phase3	test/STIM_010.jpg	99
1922.478	0.777	777.3	test	Phase3	test/STIM_011.jpg	100
1925.817	1.086	1085.5	test	Phase3	test/STIM_011.jpg	99
1930.955	0.635	635.1	test	Phase3	test/STIM_011.jpg	99
1935.422	0.855	855.4	test	Phase3	test/STIM_012.jpg	99
1939.001	0.682	681.7	test	Phase3	test/STIM_012.jpg	100
1942.399	0.554	554.2	test	Phase3	test/STIM_012.jpg	99
1946.663	0.86	860.3	test	Phase3	test/STIM_013.jpg	100
1950.285	0.555	554.6	test	Phase3	test/STIM_013.jpg	100
1953.58	1.048	1047.7	test	Phase3	test/STIM_013.jpg	100
1957.581	1.071	1071.4	test	Phase3	test/STIM_014.jpg	100
1962.635	0.547	547.2	test	Phase3	test/STIM_014.jpg	99
1966.668	0.744	743.8	test	Phase3	test/STIM_014.jpg	99
1970.909	0.908	908.1	test	Phase3	test/STIM_015.jpg	100
1975.727	0.676	676.0	test	Phase3	test/STIM_015.jpg	99
1979.406	0.955	954.9	test	Phase3	test/STIM_015.jpg	99
1984.459	0.696	696.0	test	Phase3	test/STIM_016.jpg	99
1987.658	1.064	1064.1	test	Phase3	test/STIM_016.jpg	100
1992.769	0.982	981.8	test	Phase3	test/STIM_016.jpg	100
1996.005	0.896	895.7	test	Phase3	test/STIM_017.jpg	99
1999.164	1.124	1123.9	test	Phase3	test/STIM_017.jpg	99
2004.3	0.691	691.2	test	Phase3	test/STIM_017.jpg	99
2009.021	0.822	821.6	test	Phase3	test/STIM_018.jpg	99
2012.745	1.109	1109.4	test	Phase3	test/STIM_018.jpg	99
2017.851	0.584	583.9	test	Phase3	test/STIM_018.jpg	100
2021.497	0.741	741.4	test	Phase3	test/STIM_019.jpg	100
2025.417	0.704	704.1	test	Phase3	test/STIM_019.jpg	100
2029.389	0.66	660.3	test	Phase3	test/STIM_019.jpg	100
2033.108	0.986	986.3	test	Phase3	test/STIM_020.jpg	100
2037.334	1.034	1033.8	test	Phase3	test/STIM_020.jpg	100
2041.889	0.66	659.9	test	Phase3	test/STIM_020.jpg	99
2045.366	0.543	542.9	test	Phase3	test/STIM_021.jpg	100
2048.161	0.843	842.6	test	Phase3	test/STIM_021.jpg	99
2051.295	0.823	823.0	test	Phase3	test/STIM_021.jpg	100
2056.045	0.844	843.8	test	Phase3	test/STIM_022.jpg	99
2060.185	0.811	810.7	test	Phase3	test/STIM_022.jpg	100
2064.542	1.06	1060.1	test	Phase3	test/STIM_022.jpg	100
2069.495	0.839	839.0	test	Phase3	test/STIM_023.jpg	100
2073.671	0.925	925.0	test	Phase3	test/STIM_023.jpg	99
2077.126	0.853	853.4	test	Phase3	test/STIM_023.jpg	100
2080.298	0.973	973.3	test	Phase3	test/STIM_024.jpg	99
2083.516	0.98	980.2	test	Phase3	test/STIM_024.jpg	99
2087.681	0.649	648.7	test	Phase3	test/STIM_024.jpg	100
2090.608	0.889	888.8	test	Phase3	test/STIM_025.jpg	100
2095.085	1.001	1001.1	test	Phase3	test/STIM_025.jpg	99
2100.183	0.535	534.6	test	Phase3	test/STIM_025.jpg	100
2104.588	1.053	1053.3	test	Phase3	test/STIM_026.jpg	100
2108.382	0.631	630.7	test	Phase3	test/STIM_026.jpg	99
2112.27	1.044	1044.0	test	Phase3	test/STIM_026.jpg	100
2116.392	1.134	1134.3	test	Phase3	test/STIM_027.jpg	100
2121.361	1.14	1139.7	test	Phase3	test/STIM_027.jpg	100
2126.371	0.993	993.2	test	Phase3	test/STIM_027.jpg	100
2129.686	1.12	1119.9	test	Phase3	test/STIM_028.jpg	100
2133.251	1.1	1100.4	test	Phase3	test/STIM_028.jpg	99
2137.513	0.966	965.9	test	Phase3	test/STIM_028.jpg	100
2141.063	0.706	706.3	test	Phase3	test/STIM_029.jpg	99
2144.41	0.6	600.2	test	Phase3	test/STIM_029.jpg	99
2147.411	0.771	771.1	test	Phase3	test/STIM_029.jpg	99
