onset	duration	accuracy	trial_type	learning_stage	stimulus
0.0	1.167	correct	study	Phase1	study/STIM_000.jpg
5.114	1.042	correct	study	Phase1	study/STIM_000.jpg
8.711	1.352	correct	study	Phase1	study/STIM_000.jpg
13.156	1.058	correct	study	Phase1	study/STIM_001.jpg
16.747	0.914	correct	study	Phase1	study/STIM_001.jpg
21.111	0.788	correct	study	Phase1	study/STIM_001.jpg
24.372	0.97	correct	study	Phase1	study/STIM_002.jpg
29.104	0.724	correct	study	Phase1	study/STIM_002.jpg
32.491	0.964	correct	study	Phase1	study/STIM_002.jpg
36.491	1.098	correct	study	Phase1	study/STIM_003.jpg
40.016	1.147	incorrect	study	Phase1	study/STIM_003.jpg
44.532	1.17	incorrect	study	Phase1	study/STIM_003.jpg
49.258	1.258	correct	study	Phase1	study/STIM_004.jpg
53.998	0.965	correct	study	Phase1	study/STIM_004.jpg
58.591	0.814	correct	study	Phase1	study/STIM_004.jpg
62.904	1.109	correct	study	Phase1	study/STIM_005.jpg
67.654	1.082	correct	study	Phase1	study/STIM_005.jpg
71.402	0.848	incorrect	study	Phase1	study/STIM_005.jpg
74.738	1.346	correct	study	Phase1	study/STIM_006.jpg
78.414	1.304	incorrect	study	Phase1	study/STIM_006.jpg
82.044	0.882	correct	study	Phase1	study/STIM_006.jpg
86.471	1.065	correct	study	Phase1	study/STIM_007.jpg
90.192	0.831	correct	study	Phase1	study/STIM_007.jpg
93.785	0.809	correct	study	Phase1	study/STIM_007.jpg
98.458	1.386	correct	study	Phase1	study/STIM_008.jpg
103.29	0.846	correct	study	Phase1	study/STIM_008.jpg
107.918	1.386	correct	study	Phase1	study/STIM_008.jpg
112.262	0.948	correct	study	Phase1	study/STIM_009.jpg
116.83	0.839	incorrect	study	Phase1	study/STIM_009.jpg
121.702	1.373	correct	study	Phase1	study/STIM_009.jpg
125.356	1.541	correct	study	Phase1	study/STIM_010.jpg
130.597	0.837	incorrect	study	Phase1	study/STIM_010.jpg
134.367	1.041	correct	study	Phase1	study/STIM_010.jpg
138.809	0.885	correct	study	Phase1	study/STIM_011.jpg
142.094	0.961	correct	study	Phase1	study/STIM_011.jpg
145.802	1.257	incorrect	study	Phase1	study/STIM_011.jpg
151.083	1.175	correct	study	Phase1	study/STIM_012.jpg
154.783	0.971	correct	study	Phase1	study/STIM_012.jpg
158.954	0.927	correct	study	Phase1	study/STIM_012.jpg
163.376	1.429	correct	study	Phase1	study/STIM_013.jpg
167.011	1.448	correct	study	Phase1	study/STIM_013.jpg
172.169	0.984	correct	study	Phase1	study/STIM_013.jpg
175.794	1.182	correct	study	Phase1	study/STIM_014.jpg
180.495	1.128	correct	study	Phase1	study/STIM_014.jpg
184.639	1.263	correct	study	Phase1	study/STIM_014.jpg
188.292	1.361	correct	study	Phase1	study/STIM_015.jpg
193.391	1.44	correct	study	Phase1	study/STIM_015.jpg
198.578	0.734	correct	study	Phase1	study/STIM_015.jpg
202.452	1.523	correct	study	Phase1	study/STIM_016.jpg
206.588	1.207	incorrect	study	Phase1	study/STIM_016.jpg
209.98	1.316	incorrect	study	Phase1	study/STIM_016.jpg
214.513	0.993	correct	study	Phase1	study/STIM_017.jpg
218.139	1.382	correct	study	Phase1	study/STIM_017.jpg
223.556	0.98	correct	study	Phase1	study/STIM_017.jpg
227.506	1.597	correct	study	Phase1	study/STIM_018.jpg
232.056	1.411	incorrect	study	Phase1	study/STIM_018.jpg
236.0	1.42	incorrect	study	Phase1	study/STIM_018.jpg
239.685	1.384	incorrect	study	Phase1	study/STIM_019.jpg
244.302	1.111	correct	study	Phase1	study/STIM_019.jpg
248.31	1.282	correct	study	Phase1	study/STIM_019.jpg
252.054	1.352	correct	study	Phase1	study/STIM_020.jpg
256.074	1.145	correct	study	Phase1	study/STIM_020.jpg
260.395	1.043	correct	study	Phase1	study/STIM_020.jpg
264.155	1.075	correct	study	Phase1	study/STIM_021.jpg
269.101	0.7	correct	study	Phase1	study/STIM_021.jpg
272.649	1.068	correct	study	Phase1	study/STIM_021.jpg
276.449	1.261	correct	study	Phase1	study/STIM_022.jpg
279.979	0.872	correct	study	Phase1	study/STIM_022.jpg
283.504	1.009	correct	study	Phase1	study/STIM_022.jpg
288.102	1.091	incorrect	study	Phase1	study/STIM_023.jpg
293.264	1.383	incorrect	study	Phase1	study/STIM_023.jpg
297.066	1.134	correct	study	Phase1	study/STIM_023.jpg
302.095	1.085	incorrect	study	Phase1	study/STIM_024.jpg
305.744	0.69	correct	study	Phase1	study/STIM_024.jpg
309.534	1.38	correct	study	Phase1	study/STIM_024.jpg
313.71	1.473	correct	study	Phase1	study/STIM_025.jpg
318.077	0.901	correct	study	Phase1	study/STIM_025.jpg
321.862	0.852	correct	study	Phase1	study/STIM_025.jpg
326.234	1.084	correct	study	Phase1	study/STIM_026.jpg
330.787	1.084	correct	study	Phase1	study/STIM_026.jpg
334.147	1.179	correct	study	Phase1	study/STIM_026.jpg
338.016	1.078	correct	study	Phase1	study/STIM_027.jpg
343.051	0.943	correct	study	Phase1	study/STIM_027.jpg
346.44	0.674	correct	study	Phase1	study/STIM_027.jpg
350.294	0.787	incorrect	study	Phase1	study/STIM_028.jpg
354.041	1.08	correct	study	Phase1	study/STIM_028.jpg
358.278	1.026	correct	study	Phase1	study/STIM_028.jpg
362.371	1.205	incorrect	study	Phase1	study/STIM_029.jpg
366.806	1.187	correct	study	Phase1	study/STIM_029.jpg
371.83	1.155	incorrect	study	Phase1	study/STIM_029.jpg
375.32	0.9	correct	test	Phase1	test/STIM_000.jpg
379.915	1.111	correct	test	Phase1	test/STIM_000.jpg
384.395	0.963	correct	test	Phase1	test/STIM_000.jpg
388.451	0.567	correct	test	Phase1	test/STIM_001.jpg
391.188	0.854	correct	test	Phase1	test/STIM_001.jpg
394.195	0.719	correct	test	Phase1	test/STIM_001.jpg
397.107	0.834	correct	test	Phase1	test/STIM_002.jpg
400.63	1.092	correct	test	Phase1	test/STIM_002.jpg
405.245	0.792	incorrect	test	Phase1	test/STIM_002.jpg
409.032	0.873	incorrect	test	Phase1	test/STIM_003.jpg
413.849	0.599	correct	test	Phase1	test/STIM_003.jpg
417.486	1.07	correct	test	Phase1	test/STIM_003.jpg
421.882	1.108	correct	test	Phase1	test/STIM_004.jpg
426.17	1.108	correct	test	Phase1	test/STIM_004.jpg
431.185	0.546	correct	test	Phase1	test/STIM_004.jpg
435.543	0.539	correct	test	Phase1	test/STIM_005.jpg
438.994	0.816	correct	test	Phase1	test/STIM_005.jpg
442.067	0.545	correct	test	Phase1	test/STIM_005.jpg
446.256	0.732	correct	test	Phase1	test/STIM_006.jpg
449.879	0.95	incorrect	test	Phase1	test/STIM_006.jpg
453.045	0.988	correct	test	Phase1	test/STIM_006.jpg
456.418	0.76	correct	test	Phase1	test/STIM_007.jpg
459.51	0.722	correct	test	Phase1	test/STIM_007.jpg
463.335	0.626	correct	test	Phase1	test/STIM_007.jpg
467.362	0.837	correct	test	Phase1	test/STIM_008.jpg
470.367	1.146	correct	test	Phase1	test/STIM_008.jpg
475.4	0.535	correct	test	Phase1	test/STIM_008.jpg
479.871	0.666	correct	test	Phase1	test/STIM_009.jpg
483.812	0.638	correct	test	Phase1	test/STIM_009.jpg
488.083	1.041	correct	test	Phase1	test/STIM_009.jpg
492.169	0.896	correct	test	Phase1	test/STIM_010.jpg
495.696	0.592	correct	test	Phase1	test/STIM_010.jpg
499.463	0.549	correct	test	Phase1	test/STIM_010.jpg
503.093	0.889	correct	test	Phase1	test/STIM_011.jpg
508.077	0.804	correct	test	Phase1	test/STIM_011.jpg
512.89	0.54	correct	test	Phase1	test/STIM_011.jpg
516.132	0.996	correct	test	Phase1	test/STIM_012.jpg
520.467	0.886	correct	test	Phase1	test/STIM_012.jpg
524.657	1.083	correct	test	Phase1	test/STIM_012.jpg
528.729	0.888	correct	test	Phase1	test/STIM_013.jpg
533.523	0.589	correct	test	Phase1	test/STIM_013.jpg
537.262	0.914	correct	test	Phase1	test/STIM_013.jpg
540.436	1.121	correct	test	Phase1	test/STIM_014.jpg
544.091	0.773	correct	test	Phase1	test/STIM_014.jpg
548.085	0.61	correct	test	Phase1	test/STIM_014.jpg
552.731	1.145	correct	test	Phase1	test/STIM_015.jpg
556.903	1.129	correct	test	Phase1	test/STIM_015.jpg
561.118	0.61	correct	test	Phase1	test/STIM_015.jpg
565.1	0.988	correct	test	Phase1	test/STIM_016.jpg
569.792	0.957	correct	test	Phase1	test/STIM_016.jpg
573.588	0.985	correct	test	Phase1	test/STIM_016.jpg
578.221	0.945	correct	test	Phase1	test/STIM_017.jpg
581.954	0.633	correct	test	Phase1	test/STIM_017.jpg
586.015	0.578	correct	test	Phase1	test/STIM_017.jpg
588.935	0.715	correct	test	Phase1	test/STIM_018.jpg
592.53	1.076	correct	test	Phase1	test/STIM_018.jpg
596.474	0.634	correct	test	Phase1	test/STIM_018.jpg
600.037	0.846	correct	test	Phase1	test/STIM_019.jpg
603.723	0.985	incorrect	test	Phase1	test/STIM_019.jpg
607.048	0.874	correct	test	Phase1	test/STIM_019.jpg
610.825	0.655	correct	test	Phase1	test/STIM_020.jpg
614.532	0.867	correct	test	Phase1	test/STIM_020.jpg
617.776	0.826	correct	test	Phase1	test/STIM_020.jpg
622.06	0.856	incorrect	test	Phase1	test/STIM_021.jpg
626.238	0.847	incorrect	test	Phase1	test/STIM_021.jpg
629.496	0.775	correct	test	Phase1	test/STIM_021.jpg
633.417	1.095	correct	test	Phase1	test/STIM_022.jpg
636.71	0.763	correct	test	Phase1	test/STIM_022.jpg
640.834	0.974	correct	test	Phase1	test/STIM_022.jpg
644.298	0.71	correct	test	Phase1	test/STIM_023.jpg
648.244	0.967	correct	test	Phase1	test/STIM_023.jpg
652.199	0.817	correct	test	Phase1	test/STIM_023.jpg
656.623	1.072	correct	test	Phase1	test/STIM_024.jpg
660.621	0.906	correct	test	Phase1	test/STIM_024.jpg
664.97	0.886	correct	test	Phase1	test/STIM_024.jpg
669.804	1.045	correct	test	Phase1	test/STIM_025.jpg
673.754	0.565	correct	test	Phase1	test/STIM_025.jpg
677.746	0.712	correct	test	Phase1	test/STIM_025.jpg
681.043	0.994	correct	test	Phase1	test/STIM_026.jpg
685.201	0.767	incorrect	test	Phase1	test/STIM_026.jpg
689.69	0.777	correct	test	Phase1	test/STIM_026.jpg
692.912	1.071	correct	test	Phase1	test/STIM_027.jpg
696.457	0.922	correct	test	Phase1	test/STIM_027.jpg
701.45	0.881	correct	test	Phase1	test/STIM_027.jpg
704.721	1.114	correct	test	Phase1	test/STIM_028.jpg
708.685	0.966	correct	test	Phase1	test/STIM_028.jpg
712.057	0.996	incorrect	test	Phase1	test/STIM_028.jpg
717.14	0.7	correct	test	Phase1	test/STIM_029.jpg
721.091	0.596	correct	test	Phase1	test/STIM_029.jpg
724.502	1.139	correct	test	Phase1	test/STIM_029.jpg
728.814	0.872	correct	study	Phase2	study/STIM_000.jpg
732.511	0.651	correct	study	Phase2	study/STIM_000.jpg
736.901	0.749	incorrect	study	Phase2	study/STIM_000.jpg
740.602	0.754	correct	study	Phase2	study/STIM_001.jpg
745.157	1.07	correct	study	Phase2	study/STIM_001.jpg
748.865	0.852	correct	study	Phase2	study/STIM_001.jpg
753.472	0.716	correct	study	Phase2	study/STIM_002.jpg
757.509	0.842	correct	study	Phase2	study/STIM_002.jpg
760.675	0.849	correct	study	Phase2	study/STIM_002.jpg
763.736	1.164	correct	study	Phase2	study/STIM_003.jpg
767.706	0.59	correct	study	Phase2	study/STIM_003.jpg
771.124	1.156	correct	study	Phase2	study/STIM_003.jpg
775.561	0.853	correct	study	Phase2	study/STIM_004.jpg
779.841	0.901	correct	study	Phase2	study/STIM_004.jpg
782.912	0.779	correct	study	Phase2	study/STIM_004.jpg
787.651	0.798	incorrect	study	Phase2	study/STIM_005.jpg
790.883	0.659	correct	study	Phase2	study/STIM_005.jpg
794.108	1.168	correct	study	Phase2	study/STIM_005.jpg
797.873	1.116	correct	study	Phase2	study/STIM_006.jpg
801.784	0.832	correct	study	Phase2	study/STIM_006.jpg
805.682	1.162	correct	study	Phase2	study/STIM_006.jpg
809.063	0.976	correct	study	Phase2	study/STIM_007.jpg
813.202	1.032	correct	study	Phase2	study/STIM_007.jpg
816.632	0.72	correct	study	Phase2	study/STIM_007.jpg
819.582	0.888	correct	study	Phase2	study/STIM_008.jpg
823.569	0.689	correct	study	Phase2	study/STIM_008.jpg
828.3	0.554	correct	study	Phase2	study/STIM_008.jpg
832.144	1.27	correct	study	Phase2	study/STIM_009.jpg
836.416	1.258	correct	study	Phase2	study/STIM_009.jpg
841.046	1.001	correct	study	Phase2	study/STIM_009.jpg
845.6	1.102	correct	study	Phase2	study/STIM_010.jpg
850.54	1.021	correct	study	Phase2	study/STIM_010.jpg
854.943	0.816	correct	study	Phase2	study/STIM_010.jpg
859.588	0.922	correct	study	Phase2	study/STIM_011.jpg
862.834	0.969	correct	study	Phase2	study/STIM_011.jpg
866.68	0.559	correct	study	Phase2	study/STIM_011.jpg
869.421	0.671	incorrect	study	Phase2	study/STIM_012.jpg
872.744	0.936	correct	study	Phase2	study/STIM_012.jpg
876.488	0.997	correct	study	Phase2	study/STIM_012.jpg
880.815	0.862	correct	study	Phase2	study/STIM_013.jpg
885.658	1.264	correct	study	Phase2	study/STIM_013.jpg
889.918	0.68	correct	study	Phase2	study/STIM_013.jpg
893.657	0.766	correct	study	Phase2	study/STIM_014.jpg
898.305	1.064	correct	study	Phase2	study/STIM_014.jpg
902.2	0.791	incorrect	study	Phase2	study/STIM_014.jpg
906.369	0.932	correct	study	Phase2	study/STIM_015.jpg
911.156	0.767	correct	study	Phase2	study/STIM_015.jpg
915.442	0.949	correct	study	Phase2	study/STIM_015.jpg
918.912	0.901	correct	study	Phase2	study/STIM_016.jpg
923.668	1.257	correct	study	Phase2	study/STIM_016.jpg
927.332	0.552	correct	study	Phase2	study/STIM_016.jpg
930.768	0.699	correct	study	Phase2	study/STIM_017.jpg
935.356	0.853	correct	study	Phase2	study/STIM_017.jpg
938.899	0.802	correct	study	Phase2	study/STIM_017.jpg
943.225	0.614	incorrect	study	Phase2	study/STIM_018.jpg
946.368	1.017	correct	study	Phase2	study/STIM_018.jpg
950.63	0.588	correct	study	Phase2	study/STIM_018.jpg
955.065	1.197	correct	study	Phase2	study/STIM_019.jpg
958.866	0.777	correct	study	Phase2	study/STIM_019.jpg
963.101	0.734	correct	study	Phase2	study/STIM_019.jpg
967.61	0.906	correct	study	Phase2	study/STIM_020.jpg
971.355	0.695	correct	study	Phase2	study/STIM_020.jpg
975.909	0.996	correct	study	Phase2	study/STIM_020.jpg
980.231	1.147	correct	study	Phase2	study/STIM_021.jpg
983.658	0.594	correct	study	Phase2	study/STIM_021.jpg
987.139	0.588	correct	study	Phase2	study/STIM_021.jpg
991.333	0.972	correct	study	Phase2	study/STIM_022.jpg
995.966	0.623	correct	study	Phase2	study/STIM_022.jpg
999.611	0.928	correct	study	Phase2	study/STIM_022.jpg
1003.589	0.853	correct	study	Phase2	study/STIM_023.jpg
1006.756	0.66	correct	study	Phase2	study/STIM_023.jpg
1009.984	0.714	correct	study	Phase2	study/STIM_023.jpg
1012.814	0.951	correct	study	Phase2	study/STIM_024.jpg
1016.577	0.946	correct	study	Phase2	study/STIM_024.jpg
1020.526	0.857	correct	study	Phase2	study/STIM_024.jpg
1024.407	1.317	correct	study	Phase2	study/STIM_025.jpg
1027.963	0.698	incorrect	study	Phase2	study/STIM_025.jpg
1031.016	1.116	incorrect	study	Phase2	study/STIM_025.jpg
1034.595	1.117	correct	study	Phase2	study/STIM_026.jpg
1038.873	0.672	correct	study	Phase2	study/STIM_026.jpg
1043.411	1.147	correct	study	Phase2	study/STIM_026.jpg
1047.9	1.134	correct	study	Phase2	study/STIM_027.jpg
1052.296	0.603	correct	study	Phase2	study/STIM_027.jpg
1056.741	0.955	correct	study	Phase2	study/STIM_027.jpg
1060.36	1.139	correct	study	Phase2	study/STIM_028.jpg
1063.774	0.87	correct	study	Phase2	study/STIM_028.jpg
1068.408	1.0	correct	study	Phase2	study/STIM_028.jpg
1072.051	0.627	correct	study	Phase2	study/STIM_029.jpg
1075.373	0.824	correct	study	Phase2	study/STIM_029.jpg
1078.825	0.919	correct	study	Phase2	study/STIM_029.jpg
1083.496	0.718	correct	test	Phase2	test/STIM_000.jpg
1087.679	0.622	correct	test	Phase2	test/STIM_000.jpg
1091.964	0.618	correct	test	Phase2	test/STIM_000.jpg
1094.791	0.858	correct	test	Phase2	test/STIM_001.jpg
1098.709	0.862	correct	test	Phase2	test/STIM_001.jpg
1103.619	0.997	correct	test	Phase2	test/STIM_001.jpg
1108.475	0.81	correct	test	Phase2	test/STIM_002.jpg
1112.582	0.821	correct	test	Phase2	test/STIM_002.jpg
1115.544	0.553	correct	test	Phase2	test/STIM_002.jpg
1119.907	1.051	correct	test	Phase2	test/STIM_003.jpg
1123.168	0.574	correct	test	Phase2	test/STIM_003.jpg
1126.248	0.77	correct	test	Phase2	test/STIM_003.jpg
1129.719	0.572	correct	test	Phase2	test/STIM_004.jpg
1133.42	0.983	correct	test	Phase2	test/STIM_004.jpg
1138.372	0.809	correct	test	Phase2	test/STIM_004.jpg
1143.201	0.859	incorrect	test	Phase2	test/STIM_005.jpg
1146.222	1.078	correct	test	Phase2	test/STIM_005.jpg
1150.729	0.81	correct	test	Phase2	test/STIM_005.jpg
1154.184	0.67	correct	test	Phase2	test/STIM_006.jpg
1157.077	1.098	correct	test	Phase2	test/STIM_006.jpg
1162.198	0.772	correct	test	Phase2	test/STIM_006.jpg
1165.16	1.046	correct	test	Phase2	test/STIM_007.jpg
1169.763	0.991	incorrect	test	Phase2	test/STIM_007.jpg
1174.223	0.542	correct	test	Phase2	test/STIM_007.jpg
1178.668	0.681	correct	test	Phase2	test/STIM_008.jpg
1182.845	1.114	correct	test	Phase2	test/STIM_008.jpg
1187.958	0.948	correct	test	Phase2	test/STIM_008.jpg
1191.897	1.104	correct	test	Phase2	test/STIM_009.jpg
1196.37	0.945	correct	test	Phase2	test/STIM_009.jpg
1199.543	0.637	correct	test	Phase2	test/STIM_009.jpg
1202.685	0.86	correct	test	Phase2	test/STIM_010.jpg
1206.39	0.842	correct	test	Phase2	test/STIM_010.jpg
1210.241	0.882	correct	test	Phase2	test/STIM_010.jpg
1214.47	0.763	correct	test	Phase2	test/STIM_011.jpg
1219.156	1.014	correct	test	Phase2	test/STIM_011.jpg
1224.241	0.65	correct	test	Phase2	test/STIM_011.jpg
1227.274	0.687	correct	test	Phase2	test/STIM_012.jpg
1230.3	0.746	correct	test	Phase2	test/STIM_012.jpg
1233.381	0.917	correct	test	Phase2	test/STIM_012.jpg
1237.154	1.089	correct	test	Phase2	test/STIM_013.jpg
1241.792	1.103	correct	test	Phase2	test/STIM_013.jpg
1246.354	0.702	correct	test	Phase2	test/STIM_013.jpg
1249.56	0.58	correct	test	Phase2	test/STIM_014.jpg
1254.056	0.715	correct	test	Phase2	test/STIM_014.jpg
1257.993	0.63	correct	test	Phase2	test/STIM_014.jpg
1261.656	0.64	correct	test	Phase2	test/STIM_015.jpg
1264.599	0.922	correct	test	Phase2	test/STIM_015.jpg
1269.148	0.958	correct	test	Phase2	test/STIM_015.jpg
1272.384	0.732	correct	test	Phase2	test/STIM_016.jpg
1275.863	0.661	correct	test	Phase2	test/STIM_016.jpg
1278.862	0.555	correct	test	Phase2	test/STIM_016.jpg
1282.234	0.546	correct	test	Phase2	test/STIM_017.jpg
1286.338	0.828	correct	test	Phase2	test/STIM_017.jpg
1290.717	0.997	correct	test	Phase2	test/STIM_017.jpg
1294.037	0.899	correct	test	Phase2	test/STIM_018.jpg
1297.832	0.637	correct	test	Phase2	test/STIM_018.jpg
1302.121	0.808	incorrect	test	Phase2	test/STIM_018.jpg
1305.86	0.831	correct	test	Phase2	test/STIM_019.jpg
1308.889	0.959	correct	test	Phase2	test/STIM_019.jpg
1313.299	0.977	correct	test	Phase2	test/STIM_019.jpg
1317.998	0.89	correct	test	Phase2	test/STIM_020.jpg
1322.704	1.15	correct	test	Phase2	test/STIM_020.jpg
1327.099	0.939	correct	test	Phase2	test/STIM_020.jpg
1330.976	0.97	correct	test	Phase2	test/STIM_021.jpg
1335.309	0.625	correct	test	Phase2	test/STIM_021.jpg
1338.196	0.617	correct	test	Phase2	test/STIM_021.jpg
1342.007	0.846	correct	test	Phase2	test/STIM_022.jpg
1345.624	0.74	correct	test	Phase2	test/STIM_022.jpg
1350.143	0.662	correct	test	Phase2	test/STIM_022.jpg
1354.343	1.148	correct	test	Phase2	test/STIM_023.jpg
1358.761	1.078	correct	test	Phase2	test/STIM_023.jpg
1363.332	0.682	correct	test	Phase2	test/STIM_023.jpg
1367.537	0.911	correct	test	Phase2	test/STIM_024.jpg
1370.975	0.838	correct	test	Phase2	test/STIM_024.jpg
1375.857	0.909	correct	test	Phase2	test/STIM_024.jpg
1380.584	0.602	correct	test	Phase2	test/STIM_025.jpg
1383.341	1.118	correct	test	Phase2	test/STIM_025.jpg
1387.335	0.924	incorrect	test	Phase2	test/STIM_025.jpg
1390.76	0.756	correct	test	Phase2	test/STIM_026.jpg
1393.75	0.745	correct	test	Phase2	test/STIM_026.jpg
1397.463	1.142	incorrect	test	Phase2	test/STIM_026.jpg
1402.603	1.127	correct	test	Phase2	test/STIM_027.jpg
1407.554	1.124	correct	test	Phase2	test/STIM_027.jpg
1412.384	0.867	correct	test	Phase2	test/STIM_027.jpg
1415.613	0.755	correct	test	Phase2	test/STIM_028.jpg
1418.898	1.121	correct	test	Phase2	test/STIM_028.jpg
1424.092	0.898	correct	test	Phase2	test/STIM_028.jpg
1427.879	0.655	correct	test	Phase2	test/STIM_029.jpg
1432.071	1.038	correct	test	Phase2	test/STIM_029.jpg
1435.448	0.991	correct	test	Phase2	test/STIM_029.jpg
1439.324	0.99	correct	study	Phase3	study/STIM_000.jpg
1444.267	0.709	correct	study	Phase3	study/STIM_000.jpg
1448.026	0.94	correct	study	Phase3	study/STIM_000.jpg
1451.533	1.084	correct	study	Phase3	study/STIM_001.jpg
1455.205	0.671	correct	study	Phase3	study/STIM_001.jpg
1458.304	1.029	correct	study	Phase3	study/STIM_001.jpg
1462.338	0.806	incorrect	study	Phase3	study/STIM_002.jpg
1465.726	0.645	correct	study	Phase3	study/STIM_002.jpg
1469.323	0.522	correct	study	Phase3	study/STIM_002.jpg
1472.813	0.603	correct	study	Phase3	study/STIM_003.jpg
1475.812	0.645	correct	study	Phase3	study/STIM_003.jpg
1480.071	0.644	correct	study	Phase3	study/STIM_003.jpg
1484.465	0.913	correct	study	Phase3	study/STIM_004.jpg
1487.765	0.842	correct	study	Phase3	study/STIM_004.jpg
1491.008	0.569	correct	study	Phase3	study/STIM_004.jpg
1495.108	0.883	correct	study	Phase3	study/STIM_005.jpg
1499.0	0.668	correct	study	Phase3	study/STIM_005.jpg
1501.884	0.685	correct	study	Phase3	study/STIM_005.jpg
1505.459	0.556	correct	study	Phase3	study/STIM_006.jpg
1509.909	0.616	incorrect	study	Phase3	study/STIM_006.jpg
1513.397	0.656	correct	study	Phase3	study/STIM_006.jpg
1518.08	0.829	correct	study	Phase3	study/STIM_007.jpg
1521.176	0.758	correct	study	Phase3	study/STIM_007.jpg
1524.654	1.025	correct	study	Phase3	study/STIM_007.jpg
1528.54	0.697	correct	study	Phase3	study/STIM_008.jpg
1533.111	0.713	correct	study	Phase3	study/STIM_008.jpg
1537.081	0.782	correct	study	Phase3	study/STIM_008.jpg
1540.584	0.82	correct	study	Phase3	study/STIM_009.jpg
1545.191	0.883	correct	study	Phase3	study/STIM_009.jpg
1548.209	0.89	correct	study	Phase3	study/STIM_009.jpg
1552.418	1.111	correct	study	Phase3	study/STIM_010.jpg
1556.259	0.76	correct	study	Phase3	study/STIM_010.jpg
1560.598	0.578	correct	study	Phase3	study/STIM_010.jpg
1563.311	0.926	correct	study	Phase3	study/STIM_011.jpg
1567.308	0.734	correct	study	Phase3	study/STIM_011.jpg
1571.088	0.564	correct	study	Phase3	study/STIM_011.jpg
1574.609	0.51	correct	study	Phase3	study/STIM_012.jpg
1579.033	0.702	correct	study	Phase3	study/STIM_012.jpg
1583.65	0.639	correct	study	Phase3	study/STIM_012.jpg
1587.534	1.013	correct	study	Phase3	study/STIM_013.jpg
1592.242	0.67	correct	study	Phase3	study/STIM_013.jpg
1596.006	0.845	correct	study	Phase3	study/STIM_013.jpg
1600.588	0.641	correct	study	Phase3	study/STIM_014.jpg
1605.307	0.533	incorrect	study	Phase3	study/STIM_014.jpg
1608.932	0.838	correct	study	Phase3	study/STIM_014.jpg
1613.703	1.068	correct	study	Phase3	study/STIM_015.jpg
1618.416	0.904	correct	study	Phase3	study/STIM_015.jpg
1623.323	1.023	correct	study	Phase3	study/STIM_015.jpg
1628.445	1.022	correct	study	Phase3	study/STIM_016.jpg
1632.639	1.061	correct	study	Phase3	study/STIM_016.jpg
1636.146	0.524	correct	study	Phase3	study/STIM_016.jpg
1640.478	0.899	correct	study	Phase3	study/STIM_017.jpg
1643.943	0.657	correct	study	Phase3	study/STIM_017.jpg
1647.007	0.581	correct	study	Phase3	study/STIM_017.jpg
1651.42	0.981	correct	study	Phase3	study/STIM_018.jpg
1656.088	1.059	correct	study	Phase3	study/STIM_018.jpg
1660.816	1.044	correct	study	Phase3	study/STIM_018.jpg
1665.074	0.874	correct	study	Phase3	study/STIM_019.jpg
1668.92	0.828	correct	study	Phase3	study/STIM_019.jpg
1672.809	0.892	correct	study	Phase3	study/STIM_019.jpg
1675.906	0.838	correct	study	Phase3	study/STIM_020.jpg
1679.22	0.71	correct	study	Phase3	study/STIM_020.jpg
1682.814	0.661	correct	study	Phase3	study/STIM_020.jpg
1685.918	0.669	correct	study	Phase3	study/STIM_021.jpg
1688.7	0.698	correct	study	Phase3	study/STIM_021.jpg
1693.354	0.727	correct	study	Phase3	study/STIM_021.jpg
1697.947	1.004	correct	study	Phase3	study/STIM_022.jpg
1701.196	1.024	correct	study	Phase3	study/STIM_022.jpg
1705.265	0.589	correct	study	Phase3	study/STIM_022.jpg
1708.341	0.893	correct	study	Phase3	study/STIM_023.jpg
1712.692	0.826	correct	study	Phase3	study/STIM_023.jpg
1716.323	1.078	incorrect	study	Phase3	study/STIM_023.jpg
1721.326	0.839	correct	study	Phase3	study/STIM_024.jpg
1725.879	0.65	correct	study	Phase3	study/STIM_024.jpg
1729.601	0.94	correct	study	Phase3	study/STIM_024.jpg
1734.444	0.709	correct	study	Phase3	study/STIM_025.jpg
1738.717	0.599	correct	study	Phase3	study/STIM_025.jpg
1742.705	0.685	correct	study	Phase3	study/STIM_025.jpg
1746.309	0.839	correct	study	Phase3	study/STIM_026.jpg
1749.471	0.875	correct	study	Phase3	study/STIM_026.jpg
1753.196	1.043	correct	study	Phase3	study/STIM_026.jpg
1756.796	0.836	correct	study	Phase3	study/STIM_027.jpg
1760.311	1.067	correct	study	Phase3	study/STIM_027.jpg
1764.066	0.675	correct	study	Phase3	study/STIM_027.jpg
1767.869	1.084	correct	study	Phase3	study/STIM_028.jpg
1772.377	0.996	correct	study	Phase3	study/STIM_028.jpg
1776.885	0.517	correct	study	Phase3	study/STIM_028.jpg
1779.984	0.754	correct	study	Phase3	study/STIM_029.jpg
1783.792	0.992	correct	study	Phase3	study/STIM_029.jpg
1788.005	0.585	correct	study	Phase3	study/STIM_029.jpg
1792.432	0.826	incorrect	test	Phase3	test/STIM_000.jpg
1795.911	0.923	correct	test	Phase3	test/STIM_000.jpg
1799.193	0.974	correct	test	Phase3	test/STIM_000.jpg
1802.791	0.541	correct	test	Phase3	test/STIM_001.jpg
1807.351	0.561	correct	test	Phase3	test/STIM_001.jpg
1810.647	0.826	correct	test	Phase3	test/STIM_001.jpg
1814.487	0.988	correct	test	Phase3	test/STIM_002.jpg
1818.929	0.623	correct	test	Phase3	test/STIM_002.jpg
1821.997	0.908	correct	test	Phase3	test/STIM_002.jpg
1825.062	0.558	incorrect	test	Phase3	test/STIM_003.jpg
1828.559	0.894	correct	test	Phase3	test/STIM_003.jpg
1832.388	1.094	correct	test	Phase3	test/STIM_003.jpg
1836.249	0.981	correct	test	Phase3	test/STIM_004.jpg
1839.402	0.576	correct	test	Phase3	test/STIM_004.jpg
1842.167	0.998	correct	test	Phase3	test/STIM_004.jpg
1846.31	0.55	incorrect	test	Phase3	test/STIM_005.jpg
1850.604	1.126	correct	test	Phase3	test/STIM_005.jpg
1855.841	0.594	correct	test	Phase3	test/STIM_005.jpg
1860.018	0.604	correct	test	Phase3	test/STIM_006.jpg
1863.995	1.122	incorrect	test	Phase3	test/STIM_006.jpg
1867.917	0.652	correct	test	Phase3	test/STIM_006.jpg
1872.37	0.706	correct	test	Phase3	test/STIM_007.jpg
1877.087	0.613	incorrect	test	Phase3	test/STIM_007.jpg
1881.549	1.094	correct	test	Phase3	test/STIM_007.jpg
1886.659	1.152	correct	test	Phase3	test/STIM_008.jpg
1891.629	0.836	correct	test	Phase3	test/STIM_008.jpg
1895.516	1.093	correct	test	Phase3	test/STIM_008.jpg
1899.423	0.928	incorrect	test	Phase3	test/STIM_009.jpg
1903.604	0.864	correct	test	Phase3	test/STIM_009.jpg
1907.405	0.794	correct	test	Phase3	test/STIM_009.jpg
1910.858	0.83	incorrect	test	Phase3	test/STIM_010.jpg
1914.736	0.742	correct	test	Phase3	test/STIM_010.jpg
1918.438	1.087	correct	test	Phase3	test/STIM_010.jpg
1922.478	0.777	correct	test	Phase3	test/STIM_011.jpg
1925.817	1.086	correct	test	Phase3	test/STIM_011.jpg
1930.955	0.635	correct	test	Phase3	test/STIM_011.jpg
1935.422	0.855	correct	test	Phase3	test/STIM_012.jpg
1939.001	0.682	correct	test	Phase3	test/STIM_012.jpg
1942.399	0.554	correct	test	Phase3	test/STIM_012.jpg
1946.663	0.86	correct	test	Phase3	test/STIM_013.jpg
1950.285	0.555	correct	test	Phase3	test/STIM_013.jpg
1953.58	1.048	correct	test	Phase3	test/STIM_013.jpg
1957.581	1.071	correct	test	Phase3	test/STIM_014.jpg
1962.635	0.547	correct	test	Phase3	test/STIM_014.jpg
1966.668	0.744	correct	test	Phase3	test/STIM_014.jpg
1970.909	0.908	correct	test	Phase3	test/STIM_015.jpg
1975.727	0.676	correct	test	Phase3	test/STIM_015.jpg
1979.406	0.955	correct	test	Phase3	test/STIM_015.jpg
1984.459	0.696	correct	test	Phase3	test/STIM_016.jpg
1987.658	1.064	correct	test	Phase3	test/STIM_016.jpg
1992.769	0.982	correct	test	Phase3	test/STIM_016.jpg
1996.005	0.896	incorrect	test	Phase3	test/STIM_017.jpg
1999.164	1.124	incorrect	test	Phase3	test/STIM_017.jpg
2004.3	0.691	correct	test	Phase3	test/STIM_017.jpg
2009.021	0.822	correct	test	Phase3	test/STIM_018.jpg
2012.745	1.109	correct	test	Phase3	test/STIM_018.jpg
2017.851	0.584	correct	test	Phase3	test/STIM_018.jpg
2021.497	0.741	correct	test	Phase3	test/STIM_019.jpg
2025.417	0.704	correct	test	Phase3	test/STIM_019.jpg
2029.389	0.66	correct	test	Phase3	test/STIM_019.jpg
2033.108	0.986	correct	test	Phase3	test/STIM_020.jpg
2037.334	1.034	incorrect	test	Phase3	test/STIM_020.jpg
2041.889	0.66	correct	test	Phase3	test/STIM_020.jpg
2045.366	0.543	correct	test	Phase3	test/STIM_021.jpg
2048.161	0.843	correct	test	Phase3	test/STIM_021.jpg
2051.295	0.823	correct	test	Phase3	test/STIM_021.jpg
2056.045	0.844	correct	test	Phase3	test/STIM_022.jpg
2060.185	0.811	correct	test	Phase3	test/STIM_022.jpg
2064.542	1.06	correct	test	Phase3	test/STIM_022.jpg
2069.495	0.839	correct	test	Phase3	test/STIM_023.jpg
2073.671	0.925	correct	test	Phase3	test/STIM_023.jpg
2077.126	0.853	correct	test	Phase3	test/STIM_023.jpg
2080.298	0.973	correct	test	Phase3	test/STIM_024.jpg
2083.516	0.98	correct	test	Phase3	test/STIM_024.jpg
2087.681	0.649	correct	test	Phase3	test/STIM_024.jpg
2090.608	0.889	correct	test	Phase3	test/STIM_025.jpg
2095.085	1.001	correct	test	Phase3	test/STIM_025.jpg
2100.183	0.535	incorrect	test	Phase3	test/STIM_025.jpg
2104.588	1.053	correct	test	Phase3	test/STIM_026.jpg
2108.382	0.631	correct	test	Phase3	test/STIM_026.jpg
2112.27	1.044	correct	test	Phase3	test/STIM_026.jpg
2116.392	1.134	correct	test	Phase3	test/STIM_027.jpg
2121.361	1.14	correct	test	Phase3	test/STIM_027.jpg
2126.371	0.993	correct	test	Phase3	test/STIM_027.jpg
2129.686	1.12	correct	test	Phase3	test/STIM_028.jpg
2133.251	1.1	correct	test	Phase3	test/STIM_028.jpg
2137.513	0.966	correct	test	Phase3	test/STIM_028.jpg
2141.063	0.706	correct	test	Phase3	test/STIM_029.jpg
2144.41	0.6	correct	test	Phase3	test/STIM_029.jpg
2147.411	0.771	correct	test	Phase3	test/STIM_029.jpg
