onset	duration	accuracy	trial_type	learning_stage	stimulus
0.0	1.514	correct	study	Phase1	study/STIM_000.jpg
4.614	1.54	correct	study	Phase1	study/STIM_000.jpg
8.98	1.267	correct	study	Phase1	study/STIM_000.jpg
12.921	1.101	correct	study	Phase1	study/STIM_001.jpg
16.598	1.038	correct	study	Phase1	study/STIM_001.jpg
20.075	1.138	correct	study	Phase1	study/STIM_001.jpg
25.043	1.142	correct	study	Phase1	study/STIM_002.jpg
30.167	0.929	correct	study	Phase1	study/STIM_002.jpg
35.008	1.557	correct	study	Phase1	study/STIM_002.jpg
39.412	1.415	correct	study	Phase1	study/STIM_003.jpg
43.298	1.009	incorrect	study	Phase1	study/STIM_003.jpg
46.774	0.852	correct	study	Phase1	study/STIM_003.jpg
51.584	1.422	correct	study	Phase1	study/STIM_004.jpg
56.822	0.874	correct	study	Phase1	study/STIM_004.jpg
60.974	1.006	correct	study	Phase1	study/STIM_004.jpg
64.248	1.275	correct	study	Phase1	study/STIM_005.jpg
67.545	1.16	correct	study	Phase1	study/STIM_005.jpg
71.065	1.021	correct	study	Phase1	study/STIM_005.jpg
74.968	1.176	correct	study	Phase1	study/STIM_006.jpg
78.696	0.912	correct	study	Phase1	study/STIM_006.jpg
83.18	0.737	correct	study	Phase1	study/STIM_006.jpg
86.876	1.19	correct	study	Phase1	study/STIM_007.jpg
91.152	1.314	correct	study	Phase1	study/STIM_007.jpg
96.019	0.879	correct	study	Phase1	study/STIM_007.jpg
99.06	1.299	correct	study	Phase1	study/STIM_008.jpg
103.722	1.474	correct	study	Phase1	study/STIM_008.jpg
107.73	1.046	correct	study	Phase1	study/STIM_008.jpg
110.959	1.538	correct	study	Phase1	study/STIM_009.jpg
115.336	1.352	correct	study	Phase1	study/STIM_009.jpg
120.361	1.074	correct	study	Phase1	study/STIM_009.jpg
125.412	1.108	correct	study	Phase1	study/STIM_010.jpg
128.855	1.084	correct	study	Phase1	study/STIM_010.jpg
133.864	1.434	correct	study	Phase1	study/STIM_010.jpg
138.45	0.805	correct	study	Phase1	study/STIM_011.jpg
142.976	1.222	correct	study	Phase1	study/STIM_011.jpg
147.431	1.535	correct	study	Phase1	study/STIM_011.jpg
152.366	0.863	correct	study	Phase1	study/STIM_012.jpg
157.011	1.389	correct	study	Phase1	study/STIM_012.jpg
161.87	0.801	correct	study	Phase1	study/STIM_012.jpg
166.281	1.52	correct	study	Phase1	study/STIM_013.jpg
169.874	1.471	correct	study	Phase1	study/STIM_013.jpg
175.273	1.249	correct	study	Phase1	study/STIM_013.jpg
178.735	1.377	correct	study	Phase1	study/STIM_014.jpg
182.291	0.793	correct	study	Phase1	study/STIM_014.jpg
186.326	1.444	correct	study	Phase1	study/STIM_014.jpg
191.034	1.058	correct	study	Phase1	study/STIM_015.jpg
194.46	0.824	correct	study	Phase1	study/STIM_015.jpg
198.133	1.344	incorrect	study	Phase1	study/STIM_015.jpg
203.46	1.264	correct	study	Phase1	study/STIM_016.jpg
207.686	0.955	correct	study	Phase1	study/STIM_016.jpg
212.437	1.299	incorrect	study	Phase1	study/STIM_016.jpg
216.438	0.801	correct	study	Phase1	study/STIM_017.jpg
219.984	0.781	correct	study	Phase1	study/STIM_017.jpg
223.629	1.339	correct	study	Phase1	study/STIM_017.jpg
227.909	0.87	correct	study	Phase1	study/STIM_018.jpg
231.892	1.634	incorrect	study	Phase1	study/STIM_018.jpg
236.61	1.507	correct	study	Phase1	study/STIM_018.jpg
240.513	1.147	correct	study	Phase1	study/STIM_019.jpg
244.675	1.537	correct	study	Phase1	study/STIM_019.jpg
249.27	1.186	correct	study	Phase1	study/STIM_019.jpg
253.534	1.63	correct	study	Phase1	study/STIM_020.jpg
257.561	1.208	correct	study	Phase1	study/STIM_020.jpg
262.672	1.342	correct	study	Phase1	study/STIM_020.jpg
266.503	1.257	correct	study	Phase1	study/STIM_021.jpg
270.567	0.961	correct	study	Phase1	study/STIM_021.jpg
275.017	1.037	correct	study	Phase1	study/STIM_021.jpg
278.153	0.964	correct	study	Phase1	study/STIM_022.jpg
283.0	1.261	correct	study	Phase1	study/STIM_022.jpg
286.455	0.798	correct	study	Phase1	study/STIM_022.jpg
290.518	1.326	correct	study	Phase1	study/STIM_023.jpg
293.998	1.128	correct	study	Phase1	study/STIM_023.jpg
297.325	0.997	correct	study	Phase1	study/STIM_023.jpg
302.113	1.009	correct	study	Phase1	study/STIM_024.jpg
305.693	1.303	correct	study	Phase1	study/STIM_024.jpg
310.336	0.698	correct	study	Phase1	study/STIM_024.jpg
313.804	1.373	correct	study	Phase1	study/STIM_025.jpg
319.102	1.234	correct	study	Phase1	study/STIM_025.jpg
324.188	1.108	correct	study	Phase1	study/STIM_025.jpg
327.582	1.648	correct	study	Phase1	study/STIM_026.jpg
333.157	1.154	correct	study	Phase1	study/STIM_026.jpg
337.717	1.098	correct	study	Phase1	study/STIM_026.jpg
341.754	1.526	correct	study	Phase1	study/STIM_027.jpg
346.605	1.585	correct	study	Phase1	study/STIM_027.jpg
350.646	1.181	correct	study	Phase1	study/STIM_027.jpg
354.352	1.429	incorrect	study	Phase1	study/STIM_028.jpg
358.754	0.956	correct	study	Phase1	study/STIM_028.jpg
362.112	1.514	correct	study	Phase1	study/STIM_028.jpg
366.338	0.788	correct	study	Phase1	study/STIM_029.jpg
369.44	1.314	correct	study	Phase1	study/STIM_029.jpg
372.798	0.723	correct	study	Phase1	study/STIM_029.jpg
377.178	1.162	correct	test	Phase1	test/STIM_000.jpg
381.017	0.962	correct	test	Phase1	test/STIM_000.jpg
385.217	0.736	correct	test	Phase1	test/STIM_000.jpg
388.782	0.882	correct	test	Phase1	test/STIM_001.jpg
392.977	0.712	correct	test	Phase1	test/STIM_001.jpg
397.398	1.048	correct	test	Phase1	test/STIM_001.jpg
400.985	1.241	correct	test	Phase1	test/STIM_002.jpg
406.059	1.009	correct	test	Phase1	test/STIM_002.jpg
409.737	1.004	correct	test	Phase1	test/STIM_002.jpg
413.842	1.215	correct	test	Phase1	test/STIM_003.jpg
417.387	0.613	correct	test	Phase1	test/STIM_003.jpg
420.584	1.234	correct	test	Phase1	test/STIM_003.jpg
424.408	1.218	correct	test	Phase1	test/STIM_004.jpg
428.625	0.687	correct	test	Phase1	test/STIM_004.jpg
431.377	1.071	correct	test	Phase1	test/STIM_004.jpg
435.004	1.068	correct	test	Phase1	test/STIM_005.jpg
438.39	1.222	correct	test	Phase1	test/STIM_005.jpg
442.196	1.178	correct	test	Phase1	test/STIM_005.jpg
446.406	0.777	correct	test	Phase1	test/STIM_006.jpg
451.127	0.655	correct	test	Phase1	test/STIM_006.jpg
454.923	0.942	correct	test	Phase1	test/STIM_006.jpg
459.508	1.054	correct	test	Phase1	test/STIM_007.jpg
462.62	0.847	correct	test	Phase1	test/STIM_007.jpg
466.622	0.834	correct	test	Phase1	test/STIM_007.jpg
471.393	0.733	correct	test	Phase1	test/STIM_008.jpg
475.311	0.689	correct	test	Phase1	test/STIM_008.jpg
479.881	1.248	correct	test	Phase1	test/STIM_008.jpg
484.129	0.927	correct	test	Phase1	test/STIM_009.jpg
489.003	0.783	correct	test	Phase1	test/STIM_009.jpg
493.549	1.05	correct	test	Phase1	test/STIM_009.jpg
496.726	0.668	correct	test	Phase1	test/STIM_010.jpg
500.281	0.9	correct	test	Phase1	test/STIM_010.jpg
503.261	0.997	correct	test	Phase1	test/STIM_010.jpg
507.569	0.678	correct	test	Phase1	test/STIM_011.jpg
510.795	0.713	correct	test	Phase1	test/STIM_011.jpg
514.363	0.941	correct	test	Phase1	test/STIM_011.jpg
518.758	0.72	correct	test	Phase1	test/STIM_012.jpg
521.542	0.961	correct	test	Phase1	test/STIM_012.jpg
525.987	0.661	correct	test	Phase1	test/STIM_012.jpg
530.413	0.702	correct	test	Phase1	test/STIM_013.jpg
533.634	0.647	correct	test	Phase1	test/STIM_013.jpg
536.731	0.824	correct	test	Phase1	test/STIM_013.jpg
539.703	1.233	correct	test	Phase1	test/STIM_014.jpg
544.549	0.58	correct	test	Phase1	test/STIM_014.jpg
548.995	0.869	correct	test	Phase1	test/STIM_014.jpg
553.178	1.093	correct	test	Phase1	test/STIM_015.jpg
558.095	1.047	correct	test	Phase1	test/STIM_015.jpg
561.762	0.78	correct	test	Phase1	test/STIM_015.jpg
564.755	0.605	correct	test	Phase1	test/STIM_016.jpg
568.527	0.579	correct	test	Phase1	test/STIM_016.jpg
572.948	0.99	correct	test	Phase1	test/STIM_016.jpg
577.898	0.994	correct	test	Phase1	test/STIM_017.jpg
581.845	0.665	correct	test	Phase1	test/STIM_017.jpg
585.502	0.59	correct	test	Phase1	test/STIM_017.jpg
588.665	1.192	correct	test	Phase1	test/STIM_018.jpg
593.739	0.762	correct	test	Phase1	test/STIM_018.jpg
598.411	1.056	correct	test	Phase1	test/STIM_018.jpg
601.515	0.732	correct	test	Phase1	test/STIM_019.jpg
606.166	0.852	correct	test	Phase1	test/STIM_019.jpg
609.558	0.748	correct	test	Phase1	test/STIM_019.jpg
612.941	1.083	correct	test	Phase1	test/STIM_020.jpg
617.412	0.94	correct	test	Phase1	test/STIM_020.jpg
620.481	1.082	correct	test	Phase1	test/STIM_020.jpg
624.809	1.2	correct	test	Phase1	test/STIM_021.jpg
629.937	0.696	correct	test	Phase1	test/STIM_021.jpg
632.716	0.798	correct	test	Phase1	test/STIM_021.jpg
637.202	0.689	correct	test	Phase1	test/STIM_022.jpg
640.205	1.162	correct	test	Phase1	test/STIM_022.jpg
644.842	1.177	correct	test	Phase1	test/STIM_022.jpg
649.87	0.889	correct	test	Phase1	test/STIM_023.jpg
652.771	0.961	correct	test	Phase1	test/STIM_023.jpg
655.757	0.858	correct	test	Phase1	test/STIM_023.jpg
660.308	0.608	correct	test	Phase1	test/STIM_024.jpg
663.972	0.955	correct	test	Phase1	test/STIM_024.jpg
668.691	1.016	correct	test	Phase1	test/STIM_024.jpg
673.403	1.179	correct	test	Phase1	test/STIM_025.jpg
678.035	0.678	correct	test	Phase1	test/STIM_025.jpg
682.219	0.725	correct	test	Phase1	test/STIM_025.jpg
685.487	0.749	correct	test	Phase1	test/STIM_026.jpg
688.566	1.146	correct	test	Phase1	test/STIM_026.jpg
693.27	0.893	correct	test	Phase1	test/STIM_026.jpg
696.848	0.864	correct	test	Phase1	test/STIM_027.jpg
701.331	0.815	correct	test	Phase1	test/STIM_027.jpg
704.203	0.729	correct	test	Phase1	test/STIM_027.jpg
708.749	1.157	correct	test	Phase1	test/STIM_028.jpg
712.881	0.796	correct	test	Phase1	test/STIM_028.jpg
716.141	1.124	correct	test	Phase1	test/STIM_028.jpg
719.848	1.175	correct	test	Phase1	test/STIM_029.jpg
724.845	0.668	correct	test	Phase1	test/STIM_029.jpg
728.07	0.793	correct	test	Phase1	test/STIM_029.jpg
732.009	0.833	correct	study	Phase2	study/STIM_000.jpg
735.651	1.292	correct	study	Phase2	study/STIM_000.jpg
739.78	0.875	correct	study	Phase2	study/STIM_000.jpg
743.929	0.698	correct	study	Phase2	study/STIM_001.jpg
747.128	0.948	correct	study	Phase2	study/STIM_001.jpg
750.468	0.797	correct	study	Phase2	study/STIM_001.jpg
753.824	0.969	correct	study	Phase2	study/STIM_002.jpg
756.824	0.767	correct	study	Phase2	study/STIM_002.jpg
761.17	1.119	correct	study	Phase2	study/STIM_002.jpg
766.21	0.988	correct	study	Phase2	study/STIM_003.jpg
770.836	1.064	correct	study	Phase2	study/STIM_003.jpg
774.579	1.207	correct	study	Phase2	study/STIM_003.jpg
779.753	1.458	correct	study	Phase2	study/STIM_004.jpg
785.039	0.816	correct	study	Phase2	study/STIM_004.jpg
789.796	0.864	correct	study	Phase2	study/STIM_004.jpg
794.174	1.362	correct	study	Phase2	study/STIM_005.jpg
798.299	0.825	correct	study	Phase2	study/STIM_005.jpg
801.299	0.71	correct	study	Phase2	study/STIM_005.jpg
804.577	0.909	correct	study	Phase2	study/STIM_006.jpg
809.009	1.143	correct	study	Phase2	study/STIM_006.jpg
813.428	0.766	correct	study	Phase2	study/STIM_006.jpg
816.466	0.741	correct	study	Phase2	study/STIM_007.jpg
820.92	0.956	correct	study	Phase2	study/STIM_007.jpg
824.443	1.269	correct	study	Phase2	study/STIM_007.jpg
828.043	0.939	correct	study	Phase2	study/STIM_008.jpg
831.43	0.714	correct	study	Phase2	study/STIM_008.jpg
835.185	0.833	correct	study	Phase2	study/STIM_008.jpg
838.523	1.246	correct	study	Phase2	study/STIM_009.jpg
843.552	0.856	correct	study	Phase2	study/STIM_009.jpg
846.703	0.782	correct	study	Phase2	study/STIM_009.jpg
851.037	1.398	correct	study	Phase2	study/STIM_010.jpg
854.76	0.955	correct	study	Phase2	study/STIM_010.jpg
859.22	0.941	correct	study	Phase2	study/STIM_010.jpg
863.764	1.358	correct	study	Phase2	study/STIM_011.jpg
868.874	1.195	correct	study	Phase2	study/STIM_011.jpg
872.429	0.672	correct	study	Phase2	study/STIM_011.jpg
876.657	1.187	correct	study	Phase2	study/STIM_012.jpg
881.024	0.666	correct	study	Phase2	study/STIM_012.jpg
884.03	0.905	correct	study	Phase2	study/STIM_012.jpg
887.597	1.37	correct	study	Phase2	study/STIM_013.jpg
892.097	0.817	correct	study	Phase2	study/STIM_013.jpg
895.513	0.622	correct	study	Phase2	study/STIM_013.jpg
899.075	1.346	correct	study	Phase2	study/STIM_014.jpg
902.873	1.306	correct	study	Phase2	study/STIM_014.jpg
907.859	0.973	correct	study	Phase2	study/STIM_014.jpg
910.987	0.77	correct	study	Phase2	study/STIM_015.jpg
915.17	1.09	correct	study	Phase2	study/STIM_015.jpg
919.232	0.998	correct	study	Phase2	study/STIM_015.jpg
923.271	0.911	correct	study	Phase2	study/STIM_016.jpg
927.856	1.132	correct	study	Phase2	study/STIM_016.jpg
932.906	0.763	correct	study	Phase2	study/STIM_016.jpg
936.608	1.184	correct	study	Phase2	study/STIM_017.jpg
940.356	0.842	correct	study	Phase2	study/STIM_017.jpg
944.718	1.036	correct	study	Phase2	study/STIM_017.jpg
948.648	0.986	correct	study	Phase2	study/STIM_018.jpg
953.276	1.302	correct	study	Phase2	study/STIM_018.jpg
957.784	1.156	correct	study	Phase2	study/STIM_018.jpg
961.622	0.786	correct	study	Phase2	study/STIM_019.jpg
964.492	0.996	correct	study	Phase2	study/STIM_019.jpg
969.237	0.944	correct	study	Phase2	study/STIM_019.jpg
973.717	0.844	correct	study	Phase2	study/STIM_020.jpg
977.527	0.911	correct	study	Phase2	study/STIM_020.jpg
981.977	0.851	correct	study	Phase2	study/STIM_020.jpg
986.625	1.45	correct	study	Phase2	study/STIM_021.jpg
991.289	0.774	correct	study	Phase2	study/STIM_021.jpg
995.091	1.25	correct	study	Phase2	study/STIM_021.jpg
999.138	1.212	correct	study	Phase2	study/STIM_022.jpg
1002.554	1.072	correct	study	Phase2	study/STIM_022.jpg
1007.18	0.768	correct	study	Phase2	study/STIM_022.jpg
1011.376	1.452	correct	study	Phase2	study/STIM_023.jpg
1015.147	1.226	correct	study	Phase2	study/STIM_023.jpg
1020.074	0.98	correct	study	Phase2	study/STIM_023.jpg
1024.981	0.667	correct	study	Phase2	study/STIM_024.jpg
1028.569	0.932	correct	study	Phase2	study/STIM_024.jpg
1032.952	0.66	correct	study	Phase2	study/STIM_024.jpg
1036.255	0.82	correct	study	Phase2	study/STIM_025.jpg
1040.045	0.706	correct	study	Phase2	study/STIM_025.jpg
1044.566	0.971	correct	study	Phase2	study/STIM_025.jpg
1049.159	1.219	correct	study	Phase2	study/STIM_026.jpg
1052.647	1.194	correct	study	Phase2	study/STIM_026.jpg
1056.452	1.138	correct	study	Phase2	study/STIM_026.jpg
1061.28	1.148	correct	study	Phase2	study/STIM_027.jpg
1065.421	0.85	correct	study	Phase2	study/STIM_027.jpg
1068.509	1.294	correct	study	Phase2	study/STIM_027.jpg
1073.516	1.398	correct	study	Phase2	study/STIM_028.jpg
1078.108	1.272	correct	study	Phase2	study/STIM_028.jpg
1081.502	0.853	correct	study	Phase2	study/STIM_028.jpg
1086.129	1.198	correct	study	Phase2	study/STIM_029.jpg
1090.938	1.007	correct	study	Phase2	study/STIM_029.jpg
1095.547	1.057	correct	study	Phase2	study/STIM_029.jpg
1099.809	0.992	correct	test	Phase2	test/STIM_000.jpg
1103.169	0.988	correct	test	Phase2	test/STIM_000.jpg
1106.192	0.989	correct	test	Phase2	test/STIM_000.jpg
1110.083	0.706	correct	test	Phase2	test/STIM_001.jpg
1112.968	0.936	correct	test	Phase2	test/STIM_001.jpg
1116.847	1.181	correct	test	Phase2	test/STIM_001.jpg
1120.354	0.994	correct	test	Phase2	test/STIM_002.jpg
1124.71	1.093	correct	test	Phase2	test/STIM_002.jpg
1128.654	0.947	correct	test	Phase2	test/STIM_002.jpg
1132.563	1.163	correct	test	Phase2	test/STIM_003.jpg
1136.826	0.79	correct	test	Phase2	test/STIM_003.jpg
1140.29	1.113	correct	test	Phase2	test/STIM_003.jpg
1144.64	1.048	correct	test	Phase2	test/STIM_004.jpg
1148.527	1.144	correct	test	Phase2	test/STIM_004.jpg
1152.608	0.97	correct	test	Phase2	test/STIM_004.jpg
1155.719	0.98	correct	test	Phase2	test/STIM_005.jpg
1159.373	1.037	correct	test	Phase2	test/STIM_005.jpg
1162.627	0.693	correct	test	Phase2	test/STIM_005.jpg
1166.501	0.708	correct	test	Phase2	test/STIM_006.jpg
1170.864	1.049	correct	test	Phase2	test/STIM_006.jpg
1174.325	1.227	correct	test	Phase2	test/STIM_006.jpg
1179.406	0.727	correct	test	Phase2	test/STIM_007.jpg
1183.22	1.212	correct	test	Phase2	test/STIM_007.jpg
1188.414	0.713	correct	test	Phase2	test/STIM_007.jpg
1192.256	1.035	correct	test	Phase2	test/STIM_008.jpg
1196.687	1.214	correct	test	Phase2	test/STIM_008.jpg
1201.673	1.181	correct	test	Phase2	test/STIM_008.jpg
1206.269	1.08	correct	test	Phase2	test/STIM_009.jpg
1210.318	1.018	correct	test	Phase2	test/STIM_009.jpg
1214.614	0.612	correct	test	Phase2	test/STIM_009.jpg
1217.428	1.036	correct	test	Phase2	test/STIM_010.jpg
1221.711	0.75	correct	test	Phase2	test/STIM_010.jpg
1225.29	0.938	correct	test	Phase2	test/STIM_010.jpg
1228.968	1.246	correct	test	Phase2	test/STIM_011.jpg
1233.675	0.739	correct	test	Phase2	test/STIM_011.jpg
1237.475	1.105	correct	test	Phase2	test/STIM_011.jpg
1242.341	1.226	correct	test	Phase2	test/STIM_012.jpg
1247.269	1.028	correct	test	Phase2	test/STIM_012.jpg
1252.134	1.102	correct	test	Phase2	test/STIM_012.jpg
1255.961	0.882	correct	test	Phase2	test/STIM_013.jpg
1259.515	0.753	correct	test	Phase2	test/STIM_013.jpg
1263.025	1.069	correct	test	Phase2	test/STIM_013.jpg
1267.205	1.029	correct	test	Phase2	test/STIM_014.jpg
1271.673	0.797	correct	test	Phase2	test/STIM_014.jpg
1275.067	1.236	correct	test	Phase2	test/STIM_014.jpg
1278.329	0.89	correct	test	Phase2	test/STIM_015.jpg
1282.486	0.646	correct	test	Phase2	test/STIM_015.jpg
1286.03	0.729	correct	test	Phase2	test/STIM_015.jpg
1290.627	1.227	correct	test	Phase2	test/STIM_016.jpg
1294.446	1.234	correct	test	Phase2	test/STIM_016.jpg
1298.933	1.176	correct	test	Phase2	test/STIM_016.jpg
1304.102	0.812	correct	test	Phase2	test/STIM_017.jpg
1307.355	0.701	correct	test	Phase2	test/STIM_017.jpg
1310.987	0.924	correct	test	Phase2	test/STIM_017.jpg
1314.34	1.115	correct	test	Phase2	test/STIM_018.jpg
1318.114	1.112	correct	test	Phase2	test/STIM_018.jpg
1321.368	0.636	incorrect	test	Phase2	test/STIM_018.jpg
1325.196	1.157	correct	test	Phase2	test/STIM_019.jpg
1329.035	1.0	correct	test	Phase2	test/STIM_019.jpg
1332.502	0.641	correct	test	Phase2	test/STIM_019.jpg
1336.942	0.988	correct	test	Phase2	test/STIM_020.jpg
1340.382	1.045	correct	test	Phase2	test/STIM_020.jpg
1344.565	0.614	correct	test	Phase2	test/STIM_020.jpg
1347.466	0.648	correct	test	Phase2	test/STIM_021.jpg
1351.141	1.183	correct	test	Phase2	test/STIM_021.jpg
1354.541	0.79	correct	test	Phase2	test/STIM_021.jpg
1358.646	0.631	correct	test	Phase2	test/STIM_022.jpg
1362.107	0.911	correct	test	Phase2	test/STIM_022.jpg
1366.295	0.901	correct	test	Phase2	test/STIM_022.jpg
1369.431	1.076	correct	test	Phase2	test/STIM_023.jpg
1372.526	0.894	correct	test	Phase2	test/STIM_023.jpg
1375.927	0.614	correct	test	Phase2	test/STIM_023.jpg
1379.101	0.885	correct	test	Phase2	test/STIM_024.jpg
1383.58	0.593	correct	test	Phase2	test/STIM_024.jpg
1386.726	0.809	correct	test	Phase2	test/STIM_024.jpg
1390.473	0.854	correct	test	Phase2	test/STIM_025.jpg
1394.423	0.8	correct	test	Phase2	test/STIM_025.jpg
1397.535	0.602	incorrect	test	Phase2	test/STIM_025.jpg
1400.486	1.171	correct	test	Phase2	test/STIM_026.jpg
1404.91	0.787	correct	test	Phase2	test/STIM_026.jpg
1409.33	0.826	incorrect	test	Phase2	test/STIM_026.jpg
1412.802	0.657	correct	test	Phase2	test/STIM_027.jpg
1416.044	1.129	correct	test	Phase2	test/STIM_027.jpg
1421.142	1.112	correct	test	Phase2	test/STIM_027.jpg
1424.361	1.236	correct	test	Phase2	test/STIM_028.jpg
1428.501	1.135	correct	test	Phase2	test/STIM_028.jpg
1432.452	1.029	correct	test	Phase2	test/STIM_028.jpg
1437.32	0.736	correct	test	Phase2	test/STIM_029.jpg
1441.825	0.647	correct	test	Phase2	test/STIM_029.jpg
1446.044	0.955	correct	test	Phase2	test/STIM_029.jpg
1450.069	1.159	correct	study	Phase3	study/STIM_000.jpg
1453.364	1.176	correct	study	Phase3	study/STIM_000.jpg
1458.093	0.947	correct	study	Phase3	study/STIM_000.jpg
1461.443	1.038	correct	study	Phase3	study/STIM_001.jpg
1464.511	0.872	correct	study	Phase3	study/STIM_001.jpg
1468.448	0.557	correct	study	Phase3	study/STIM_001.jpg
1471.095	0.843	correct	study	Phase3	study/STIM_002.jpg
1474.201	0.768	correct	study	Phase3	study/STIM_002.jpg
1477.756	0.639	correct	study	Phase3	study/STIM_002.jpg
1480.664	0.816	correct	study	Phase3	study/STIM_003.jpg
1484.654	1.048	correct	study	Phase3	study/STIM_003.jpg
1489.44	1.01	correct	study	Phase3	study/STIM_003.jpg
1493.209	0.793	correct	study	Phase3	study/STIM_004.jpg
1496.302	0.58	correct	study	Phase3	study/STIM_004.jpg
1500.616	0.955	correct	study	Phase3	study/STIM_004.jpg
1505.445	0.612	correct	study	Phase3	study/STIM_005.jpg
1509.766	0.976	correct	study	Phase3	study/STIM_005.jpg
1513.876	0.843	correct	study	Phase3	study/STIM_005.jpg
1517.257	1.007	correct	study	Phase3	study/STIM_006.jpg
1521.681	0.715	incorrect	study	Phase3	study/STIM_006.jpg
1526.247	0.88	correct	study	Phase3	study/STIM_006.jpg
1530.757	0.998	correct	study	Phase3	study/STIM_007.jpg
1534.372	0.62	correct	study	Phase3	study/STIM_007.jpg
1538.281	0.855	correct	study	Phase3	study/STIM_007.jpg
1541.253	0.906	correct	study	Phase3	study/STIM_008.jpg
1545.568	0.757	correct	study	Phase3	study/STIM_008.jpg
1548.341	0.883	correct	study	Phase3	study/STIM_008.jpg
1552.62	1.203	correct	study	Phase3	study/STIM_009.jpg
1557.128	0.937	correct	study	Phase3	study/STIM_009.jpg
1561.908	1.189	correct	study	Phase3	study/STIM_009.jpg
1566.274	1.097	correct	study	Phase3	study/STIM_010.jpg
1569.757	0.656	correct	study	Phase3	study/STIM_010.jpg
1573.133	1.045	correct	study	Phase3	study/STIM_010.jpg
1576.712	1.139	correct	study	Phase3	study/STIM_011.jpg
1580.898	0.568	correct	study	Phase3	study/STIM_011.jpg
1585.42	1.138	correct	study	Phase3	study/STIM_011.jpg
1588.872	0.742	correct	study	Phase3	study/STIM_012.jpg
1593.562	0.579	correct	study	Phase3	study/STIM_012.jpg
1597.783	0.654	correct	study	Phase3	study/STIM_012.jpg
1600.51	0.678	correct	study	Phase3	study/STIM_013.jpg
1604.821	0.579	correct	study	Phase3	study/STIM_013.jpg
1608.568	1.177	correct	study	Phase3	study/STIM_013.jpg
1613.03	1.05	correct	study	Phase3	study/STIM_014.jpg
1617.375	0.616	correct	study	Phase3	study/STIM_014.jpg
1620.564	0.612	correct	study	Phase3	study/STIM_014.jpg
1624.423	0.752	correct	study	Phase3	study/STIM_015.jpg
1627.913	1.171	correct	study	Phase3	study/STIM_015.jpg
1631.734	0.685	correct	study	Phase3	study/STIM_015.jpg
1636.379	0.861	correct	study	Phase3	study/STIM_016.jpg
1640.301	1.08	correct	study	Phase3	study/STIM_016.jpg
1644.55	0.822	correct	study	Phase3	study/STIM_016.jpg
1648.36	1.107	correct	study	Phase3	study/STIM_017.jpg
1652.45	0.716	correct	study	Phase3	study/STIM_017.jpg
1656.574	0.877	correct	study	Phase3	study/STIM_017.jpg
1659.504	0.662	correct	study	Phase3	study/STIM_018.jpg
1663.695	0.595	correct	study	Phase3	study/STIM_018.jpg
1668.158	1.075	correct	study	Phase3	study/STIM_018.jpg
1673.178	1.193	correct	study	Phase3	study/STIM_019.jpg
1677.131	0.897	correct	study	Phase3	study/STIM_019.jpg
1681.665	0.669	correct	study	Phase3	study/STIM_019.jpg
1685.049	1.1	correct	study	Phase3	study/STIM_020.jpg
1689.308	1.065	correct	study	Phase3	study/STIM_020.jpg
1694.2	0.642	correct	study	Phase3	study/STIM_020.jpg
1697.618	1.088	correct	study	Phase3	study/STIM_021.jpg
1702.548	0.727	correct	study	Phase3	study/STIM_021.jpg
1706.448	0.572	correct	study	Phase3	study/STIM_021.jpg
1710.554	0.715	correct	study	Phase3	study/STIM_022.jpg
1714.599	0.914	correct	study	Phase3	study/STIM_022.jpg
1718.633	0.874	correct	study	Phase3	study/STIM_022.jpg
1722.251	0.945	correct	study	Phase3	study/STIM_023.jpg
1726.921	0.782	correct	study	Phase3	study/STIM_023.jpg
1729.868	0.782	correct	study	Phase3	study/STIM_023.jpg
1733.591	0.97	correct	study	Phase3	study/STIM_024.jpg
1738.249	0.649	correct	study	Phase3	study/STIM_024.jpg
1742.054	1.09	correct	study	Phase3	study/STIM_024.jpg
1745.547	0.591	correct	study	Phase3	study/STIM_025.jpg
1748.526	0.949	correct	study	Phase3	study/STIM_025.jpg
1752.359	0.845	correct	study	Phase3	study/STIM_025.jpg
1755.492	0.612	correct	study	Phase3	study/STIM_026.jpg
1759.055	1.064	correct	study	Phase3	study/STIM_026.jpg
1762.296	0.878	correct	study	Phase3	study/STIM_026.jpg
1765.428	0.679	correct	study	Phase3	study/STIM_027.jpg
1768.84	0.997	correct	study	Phase3	study/STIM_027.jpg
1773.652	0.947	correct	study	Phase3	study/STIM_027.jpg
1777.62	0.969	correct	study	Phase3	study/STIM_028.jpg
1781.422	0.753	correct	study	Phase3	study/STIM_028.jpg
1784.359	1.091	correct	study	Phase3	study/STIM_028.jpg
1789.114	0.632	correct	study	Phase3	study/STIM_029.jpg
1793.478	0.928	correct	study	Phase3	study/STIM_029.jpg
1796.991	0.764	correct	study	Phase3	study/STIM_029.jpg
1801.68	0.624	correct	test	Phase3	test/STIM_000.jpg
1804.408	0.906	correct	test	Phase3	test/STIM_000.jpg
1808.289	0.935	correct	test	Phase3	test/STIM_000.jpg
1812.121	0.842	correct	test	Phase3	test/STIM_001.jpg
1815.608	0.719	correct	test	Phase3	test/STIM_001.jpg
1819.425	1.209	correct	test	Phase3	test/STIM_001.jpg
1824.456	0.724	correct	test	Phase3	test/STIM_002.jpg
1827.787	1.228	correct	test	Phase3	test/STIM_002.jpg
1832.66	1.125	correct	test	Phase3	test/STIM_002.jpg
1836.196	0.925	incorrect	test	Phase3	test/STIM_003.jpg
1840.148	1.152	correct	test	Phase3	test/STIM_003.jpg
1843.742	0.616	correct	test	Phase3	test/STIM_003.jpg
1847.377	1.209	correct	test	Phase3	test/STIM_004.jpg
1851.211	0.934	correct	test	Phase3	test/STIM_004.jpg
1855.842	0.891	correct	test	Phase3	test/STIM_004.jpg
1858.946	0.692	incorrect	test	Phase3	test/STIM_005.jpg
1863.072	0.693	correct	test	Phase3	test/STIM_005.jpg
1866.374	0.998	correct	test	Phase3	test/STIM_005.jpg
1871.118	1.199	correct	test	Phase3	test/STIM_006.jpg
1875.056	0.99	incorrect	test	Phase3	test/STIM_006.jpg
1879.217	0.854	correct	test	Phase3	test/STIM_006.jpg
1883.654	0.652	correct	test	Phase3	test/STIM_007.jpg
1886.535	0.996	correct	test	Phase3	test/STIM_007.jpg
1891.334	0.929	correct	test	Phase3	test/STIM_007.jpg
1895.644	0.887	correct	test	Phase3	test/STIM_008.jpg
1899.239	0.999	correct	test	Phase3	test/STIM_008.jpg
1902.56	1.146	correct	test	Phase3	test/STIM_008.jpg
1905.914	1.136	incorrect	test	Phase3	test/STIM_009.jpg
1909.147	1.208	correct	test	Phase3	test/STIM_009.jpg
1912.772	0.581	correct	test	Phase3	test/STIM_009.jpg
1915.523	1.173	correct	test	Phase3	test/STIM_010.jpg
1920.186	0.961	correct	test	Phase3	test/STIM_010.jpg
1924.812	0.861	correct	test	Phase3	test/STIM_010.jpg
1927.676	1.175	correct	test	Phase3	test/STIM_011.jpg
1931.879	1.076	correct	test	Phase3	test/STIM_011.jpg
1936.942	0.959	correct	test	Phase3	test/STIM_011.jpg
1940.247	0.778	correct	test	Phase3	test/STIM_012.jpg
1944.841	0.885	correct	test	Phase3	test/STIM_012.jpg
1949.235	1.132	correct	test	Phase3	test/STIM_012.jpg
1952.462	0.673	correct	test	Phase3	test/STIM_013.jpg
1955.968	0.728	correct	test	Phase3	test/STIM_013.jpg
1959.132	1.118	correct	test	Phase3	test/STIM_013.jpg
1962.531	1.035	correct	test	Phase3	test/STIM_014.jpg
1967.407	0.776	correct	test	Phase3	test/STIM_014.jpg
1970.26	0.818	correct	test	Phase3	test/STIM_014.jpg
1973.805	1.181	correct	test	Phase3	test/STIM_015.jpg
1978.152	1.235	correct	test	Phase3	test/STIM_015.jpg
1981.815	1.214	correct	test	Phase3	test/STIM_015.jpg
1985.139	0.664	correct	test	Phase3	test/STIM_016.jpg
1988.769	0.879	correct	test	Phase3	test/STIM_016.jpg
1992.374	1.138	correct	test	Phase3	test/STIM_016.jpg
1996.142	1.034	correct	test	Phase3	test/STIM_017.jpg
1999.49	0.718	correct	test	Phase3	test/STIM_017.jpg
2003.193	0.753	correct	test	Phase3	test/STIM_017.jpg
2005.946	0.787	correct	test	Phase3	test/STIM_018.jpg
2009.978	0.609	correct	test	Phase3	test/STIM_018.jpg
2013.209	0.91	correct	test	Phase3	test/STIM_018.jpg
2016.856	1.001	correct	test	Phase3	test/STIM_019.jpg
2020.805	0.701	correct	test	Phase3	test/STIM_019.jpg
2023.92	1.109	correct	test	Phase3	test/STIM_019.jpg
2027.114	0.842	correct	test	Phase3	test/STIM_020.jpg
2030.671	1.102	correct	test	Phase3	test/STIM_020.jpg
2034.533	0.994	correct	test	Phase3	test/STIM_020.jpg
2038.394	0.941	correct	test	Phase3	test/STIM_021.jpg
2042.216	1.213	correct	test	Phase3	test/STIM_021.jpg
2046.834	0.957	correct	test	Phase3	test/STIM_021.jpg
2051.451	0.655	correct	test	Phase3	test/STIM_022.jpg
2054.863	1.212	correct	test	Phase3	test/STIM_022.jpg
2059.101	0.729	correct	test	Phase3	test/STIM_022.jpg
2063.582	1.044	correct	test	Phase3	test/STIM_023.jpg
2067.769	1.061	correct	test	Phase3	test/STIM_023.jpg
2071.571	0.842	correct	test	Phase3	test/STIM_023.jpg
2076.138	0.668	correct	test	Phase3	test/STIM_024.jpg
2078.865	0.919	correct	test	Phase3	test/STIM_024.jpg
2083.639	1.145	correct	test	Phase3	test/STIM_024.jpg
2087.101	0.979	correct	test	Phase3	test/STIM_025.jpg
2090.241	0.584	correct	test	Phase3	test/STIM_025.jpg
2094.31	0.9	incorrect	test	Phase3	test/STIM_025.jpg
2097.707	0.756	correct	test	Phase3	test/STIM_026.jpg
2101.022	0.72	correct	test	Phase3	test/STIM_026.jpg
2105.51	1.08	correct	test	Phase3	test/STIM_026.jpg
2110.428	1.114	correct	test	Phase3	test/STIM_027.jpg
2113.652	0.642	correct	test	Phase3	test/STIM_027.jpg
2117.005	1.144	correct	test	Phase3	test/STIM_027.jpg
2122.064	1.02	correct	test	Phase3	test/STIM_028.jpg
2125.825	0.593	correct	test	Phase3	test/STIM_028.jpg
2130.223	0.714	correct	test	Phase3	test/STIM_028.jpg
2134.175	0.775	correct	test	Phase3	test/STIM_029.jpg
2137.872	0.822	correct	test	Phase3	test/STIM_029.jpg
2142.149	0.684	correct	test	Phase3	test/STIM_029.jpg
