onset	duration	accuracy	trial_type	learning_stage	stimulus
0.0	2.742	correct	navigation	Trial1	navigation/STIM_000.jpg
5.045	2.627	correct	navigation	Trial1	navigation/STIM_000.jpg
9.792	2.55	correct	navigation	Trial1	navigation/STIM_000.jpg
15.663	4.009	incorrect	navigation	Trial1	navigation/STIM_000.jpg
22.217	2.252	correct	navigation	Trial1	navigation/STIM_000.jpg
28.245	1.527	correct	navigation	Trial1	navigation/STIM_000.jpg
33.849	2.663	correct	navigation	Trial1	navigation/STIM_001.jpg
39.61	4.141	correct	navigation	Trial1	navigation/STIM_001.jpg
47.262	4.302	correct	navigation	Trial1	navigation/STIM_001.jpg
54.267	3.36	correct	navigation	Trial1	navigation/STIM_001.jpg
60.438	3.449	correct	navigation	Trial1	navigation/STIM_001.jpg
66.433	2.06	correct	navigation	Trial1	navigation/STIM_001.jpg
71.524	3.585	correct	navigation	Trial1	navigation/STIM_002.jpg
77.948	3.756	correct	navigation	Trial1	navigation/STIM_002.jpg
84.99	2.368	correct	navigation	Trial1	navigation/STIM_002.jpg
91.457	2.656	correct	navigation	Trial1	navigation/STIM_002.jpg
96.999	1.489	correct	navigation	Trial1	navigation/STIM_002.jpg
101.151	3.449	correct	navigation	Trial1	navigation/STIM_002.jpg
107.126	3.794	correct	navigation	Trial1	navigation/STIM_003.jpg
113.256	4.516	correct	navigation	Trial1	navigation/STIM_003.jpg
120.705	3.99	correct	navigation	Trial1	navigation/STIM_003.jpg
127.487	1.791	correct	navigation	Trial1	navigation/STIM_003.jpg
131.922	2.576	correct	navigation	Trial1	navigation/STIM_003.jpg
137.306	1.712	correct	navigation	Trial1	navigation/STIM_003.jpg
142.536	4.24	incorrect	navigation	Trial1	navigation/STIM_004.jpg
149.956	4.15	correct	navigation	Trial1	navigation/STIM_004.jpg
157.558	3.156	correct	navigation	Trial1	navigation/STIM_004.jpg
164.231	3.202	correct	navigation	Trial1	navigation/STIM_004.jpg
169.784	3.294	correct	navigation	Trial1	navigation/STIM_004.jpg
176.396	3.371	correct	navigation	Trial1	navigation/STIM_004.jpg
182.804	2.595	correct	navigation	Trial1	navigation/STIM_005.jpg
188.779	3.96	incorrect	navigation	Trial1	navigation/STIM_005.jpg
194.893	3.428	incorrect	navigation	Trial1	navigation/STIM_005.jpg
200.497	3.398	incorrect	navigation	Trial1	navigation/STIM_005.jpg
206.112	2.801	incorrect	navigation	Trial1	navigation/STIM_005.jpg
211.97	3.036	correct	navigation	Trial1	navigation/STIM_005.jpg
217.844	3.527	correct	navigation	Trial1	navigation/STIM_006.jpg
224.419	4.202	correct	navigation	Trial1	navigation/STIM_006.jpg
230.882	3.912	incorrect	navigation	Trial1	navigation/STIM_006.jpg
238.957	1.84	correct	navigation	Trial1	navigation/STIM_006.jpg
243.69	1.797	correct	navigation	Trial1	navigation/STIM_006.jpg
248.143	1.769	correct	navigation	Trial1	navigation/STIM_006.jpg
252.874	4.708	correct	navigation	Trial1	navigation/STIM_007.jpg
259.972	3.379	correct	navigation	Trial1	navigation/STIM_007.jpg
266.886	2.72	incorrect	navigation	Trial1	navigation/STIM_007.jpg
271.872	3.798	correct	navigation	Trial1	navigation/STIM_007.jpg
279.222	2.172	correct	navigation	Trial1	navigation/STIM_007.jpg
284.14	3.161	correct	navigation	Trial1	navigation/STIM_007.jpg
289.898	3.495	correct	navigation	Trial1	navigation/STIM_008.jpg
297.29	3.448	correct	navigation	Trial1	navigation/STIM_008.jpg
303.017	3.869	correct	navigation	Trial1	navigation/STIM_008.jpg
310.352	1.797	incorrect	navigation	Trial1	navigation/STIM_008.jpg
314.414	2.796	correct	navigation	Trial1	navigation/STIM_008.jpg
321.237	3.165	correct	navigation	Trial1	navigation/STIM_008.jpg
327.511	2.223	correct	navigation	Trial1	navigation/STIM_009.jpg
332.618	2.954	correct	navigation	Trial1	navigation/STIM_009.jpg
338.809	2.893	correct	navigation	Trial1	navigation/STIM_009.jpg
345.038	1.949	incorrect	navigation	Trial1	navigation/STIM_009.jpg
349.345	2.673	correct	navigation	Trial1	navigation/STIM_009.jpg
355.0	1.775	correct	navigation	Trial1	navigation/STIM_009.jpg
358.973	4.052	correct	navigation	Trial1	navigation/STIM_010.jpg
366.837	2.332	correct	navigation	Trial1	navigation/STIM_010.jpg
371.469	4.277	correct	navigation	Trial1	navigation/STIM_010.jpg
379.247	1.952	correct	navigation	Trial1	navigation/STIM_010.jpg
383.68	1.662	incorrect	navigation	Trial1	navigation/STIM_010.jpg
388.801	3.267	correct	navigation	Trial1	navigation/STIM_010.jpg
395.808	2.094	incorrect	navigation	Trial1	navigation/STIM_011.jpg
400.741	1.8	correct	navigation	Trial1	navigation/STIM_011.jpg
405.928	2.834	correct	navigation	Trial1	navigation/STIM_011.jpg
412.105	2.198	incorrect	navigation	Trial1	navigation/STIM_011.jpg
417.67	1.856	correct	navigation	Trial1	navigation/STIM_011.jpg
422.454	3.395	correct	navigation	Trial1	navigation/STIM_011.jpg
429.193	1.278	correct	pointing	Trial1	pointing/STIM_000.jpg
432.643	1.131	correct	pointing	Trial1	pointing/STIM_000.jpg
436.229	0.801	correct	pointing	Trial1	pointing/STIM_000.jpg
439.502	0.839	correct	pointing	Trial1	pointing/STIM_000.jpg
444.049	1.245	correct	pointing	Trial1	pointing/STIM_000.jpg
448.975	0.976	correct	pointing	Trial1	pointing/STIM_000.jpg
452.455	0.867	correct	pointing	Trial1	pointing/STIM_001.jpg
457.329	0.945	correct	pointing	Trial1	pointing/STIM_001.jpg
461.337	0.981	correct	pointing	Trial1	pointing/STIM_001.jpg
465.094	1.099	correct	pointing	Trial1	pointing/STIM_001.jpg
469.923	0.729	correct	pointing	Trial1	pointing/STIM_001.jpg
474.44	1.03	incorrect	pointing	Trial1	pointing/STIM_001.jpg
478.536	1.368	correct	pointing	Trial1	pointing/STIM_002.jpg
483.898	1.23	correct	pointing	Trial1	pointing/STIM_002.jpg
488.271	1.26	correct	pointing	Trial1	pointing/STIM_002.jpg
491.736	0.908	correct	pointing	Trial1	pointing/STIM_002.jpg
495.696	1.028	correct	pointing	Trial1	pointing/STIM_002.jpg
498.802	1.085	correct	pointing	Trial1	pointing/STIM_002.jpg
503.085	1.215	correct	pointing	Trial1	pointing/STIM_003.jpg
507.264	1.364	correct	pointing	Trial1	pointing/STIM_003.jpg
511.969	1.346	correct	pointing	Trial1	pointing/STIM_003.jpg
515.454	0.811	correct	pointing	Trial1	pointing/STIM_003.jpg
520.165	1.142	correct	pointing	Trial1	pointing/STIM_003.jpg
524.665	1.189	correct	pointing	Trial1	pointing/STIM_003.jpg
528.89	1.244	correct	pointing	Trial1	pointing/STIM_004.jpg
533.715	1.09	correct	pointing	Trial1	pointing/STIM_004.jpg
537.834	1.079	correct	pointing	Trial1	pointing/STIM_004.jpg
542.401	0.997	correct	pointing	Trial1	pointing/STIM_004.jpg
545.819	1.155	correct	pointing	Trial1	pointing/STIM_004.jpg
550.683	1.118	correct	pointing	Trial1	pointing/STIM_004.jpg
554.567	0.736	correct	pointing	Trial1	pointing/STIM_005.jpg
559.366	1.306	correct	pointing	Trial1	pointing/STIM_005.jpg
564.021	0.962	correct	pointing	Trial1	pointing/STIM_005.jpg
568.877	1.319	correct	pointing	Trial1	pointing/STIM_005.jpg
573.076	0.943	correct	pointing	Trial1	pointing/STIM_005.jpg
576.104	0.952	correct	pointing	Trial1	pointing/STIM_005.jpg
580.404	1.217	correct	pointing	Trial1	pointing/STIM_006.jpg
584.241	1.115	correct	pointing	Trial1	pointing/STIM_006.jpg
589.186	1.116	correct	pointing	Trial1	pointing/STIM_006.jpg
593.014	1.104	correct	pointing	Trial1	pointing/STIM_006.jpg
597.301	0.88	correct	pointing	Trial1	pointing/STIM_006.jpg
600.632	0.917	correct	pointing	Trial1	pointing/STIM_006.jpg
604.864	1.146	correct	pointing	Trial1	pointing/STIM_007.jpg
609.74	0.877	correct	pointing	Trial1	pointing/STIM_007.jpg
614.461	1.36	correct	pointing	Trial1	pointing/STIM_007.jpg
618.435	1.1	correct	pointing	Trial1	pointing/STIM_007.jpg
622.283	1.411	incorrect	pointing	Trial1	pointing/STIM_007.jpg
626.453	1.264	incorrect	pointing	Trial1	pointing/STIM_007.jpg
629.805	0.808	correct	pointing	Trial1	pointing/STIM_008.jpg
633.372	1.085	correct	pointing	Trial1	pointing/STIM_008.jpg
637.949	1.083	correct	pointing	Trial1	pointing/STIM_008.jpg
641.328	1.343	correct	pointing	Trial1	pointing/STIM_008.jpg
645.44	1.098	correct	pointing	Trial1	pointing/STIM_008.jpg
649.277	1.059	correct	pointing	Trial1	pointing/STIM_008.jpg
652.957	0.962	correct	pointing	Trial1	pointing/STIM_009.jpg
656.603	0.788	correct	pointing	Trial1	pointing/STIM_009.jpg
659.971	0.782	correct	pointing	Trial1	pointing/STIM_009.jpg
663.038	1.22	correct	pointing	Trial1	pointing/STIM_009.jpg
668.13	1.488	correct	pointing	Trial1	pointing/STIM_009.jpg
673.25	1.163	correct	pointing	Trial1	pointing/STIM_009.jpg
677.736	1.365	correct	pointing	Trial1	pointing/STIM_010.jpg
682.937	1.296	correct	pointing	Trial1	pointing/STIM_010.jpg
688.242	1.273	correct	pointing	Trial1	pointing/STIM_010.jpg
693.076	1.248	correct	pointing	Trial1	pointing/STIM_010.jpg
697.824	1.329	correct	pointing	Trial1	pointing/STIM_010.jpg
701.222	1.083	correct	pointing	Trial1	pointing/STIM_010.jpg
706.118	0.861	correct	pointing	Trial1	pointing/STIM_011.jpg
710.713	1.111	correct	pointing	Trial1	pointing/STIM_011.jpg
715.537	1.138	correct	pointing	Trial1	pointing/STIM_011.jpg
719.562	1.166	correct	pointing	Trial1	pointing/STIM_011.jpg
723.828	1.412	correct	pointing	Trial1	pointing/STIM_011.jpg
727.769	1.237	correct	pointing	Trial1	pointing/STIM_011.jpg
732.866	2.589	incorrect	navigation	Trial2	navigation/STIM_000.jpg
738.442	3.835	correct	navigation	Trial2	navigation/STIM_000.jpg
746.193	3.139	correct	navigation	Trial2	navigation/STIM_000.jpg
752.025	2.508	correct	navigation	Trial2	navigation/STIM_000.jpg
757.281	2.547	incorrect	navigation	Trial2	navigation/STIM_000.jpg
763.262	2.974	correct	navigation	Trial2	navigation/STIM_000.jpg
769.745	2.15	correct	navigation	Trial2	navigation/STIM_001.jpg
774.447	3.076	incorrect	navigation	Trial2	navigation/STIM_001.jpg
779.84	2.837	correct	navigation	Trial2	navigation/STIM_001.jpg
786.653	3.103	incorrect	navigation	Trial2	navigation/STIM_001.jpg
793.158	2.818	correct	navigation	Trial2	navigation/STIM_001.jpg
798.635	1.765	correct	navigation	Trial2	navigation/STIM_001.jpg
802.52	3.866	correct	navigation	Trial2	navigation/STIM_002.jpg
808.636	3.518	correct	navigation	Trial2	navigation/STIM_002.jpg
814.713	1.743	correct	navigation	Trial2	navigation/STIM_002.jpg
819.316	3.414	correct	navigation	Trial2	navigation/STIM_002.jpg
825.202	1.868	correct	navigation	Trial2	navigation/STIM_002.jpg
829.133	2.025	correct	navigation	Trial2	navigation/STIM_002.jpg
834.571	3.668	incorrect	navigation	Trial2	navigation/STIM_003.jpg
841.528	3.232	correct	navigation	Trial2	navigation/STIM_003.jpg
847.701	3.484	correct	navigation	Trial2	navigation/STIM_003.jpg
854.806	3.026	incorrect	navigation	Trial2	navigation/STIM_003.jpg
861.036	1.523	incorrect	navigation	Trial2	navigation/STIM_003.jpg
866.081	2.832	correct	navigation	Trial2	navigation/STIM_003.jpg
871.178	2.139	correct	navigation	Trial2	navigation/STIM_004.jpg
876.065	2.029	incorrect	navigation	Trial2	navigation/STIM_004.jpg
882.006	2.929	correct	navigation	Trial2	navigation/STIM_004.jpg
888.697	2.927	correct	navigation	Trial2	navigation/STIM_004.jpg
894.82	2.996	correct	navigation	Trial2	navigation/STIM_004.jpg
900.68	3.105	correct	navigation	Trial2	navigation/STIM_004.jpg
906.212	3.116	correct	navigation	Trial2	navigation/STIM_005.jpg
912.777	1.682	correct	navigation	Trial2	navigation/STIM_005.jpg
916.947	3.349	incorrect	navigation	Trial2	navigation/STIM_005.jpg
924.316	1.612	correct	navigation	Trial2	navigation/STIM_005.jpg
927.964	2.96	correct	navigation	Trial2	navigation/STIM_005.jpg
934.769	1.546	correct	navigation	Trial2	navigation/STIM_005.jpg
939.519	4.004	correct	navigation	Trial2	navigation/STIM_006.jpg
945.832	1.585	correct	navigation	Trial2	navigation/STIM_006.jpg
951.22	2.433	correct	navigation	Trial2	navigation/STIM_006.jpg
957.464	2.818	incorrect	navigation	Trial2	navigation/STIM_006.jpg
962.959	2.321	correct	navigation	Trial2	navigation/STIM_006.jpg
967.688	1.743	correct	navigation	Trial2	navigation/STIM_006.jpg
972.649	1.61	correct	navigation	Trial2	navigation/STIM_007.jpg
977.028	3.573	correct	navigation	Trial2	navigation/STIM_007.jpg
984.095	2.832	correct	navigation	Trial2	navigation/STIM_007.jpg
989.823	1.405	incorrect	navigation	Trial2	navigation/STIM_007.jpg
994.774	2.044	correct	navigation	Trial2	navigation/STIM_007.jpg
999.876	1.762	correct	navigation	Trial2	navigation/STIM_007.jpg
1003.927	1.974	incorrect	navigation	Trial2	navigation/STIM_008.jpg
1009.016	1.702	incorrect	navigation	Trial2	navigation/STIM_008.jpg
1014.529	3.232	correct	navigation	Trial2	navigation/STIM_008.jpg
1021.376	1.801	correct	navigation	Trial2	navigation/STIM_008.jpg
1027.212	2.419	correct	navigation	Trial2	navigation/STIM_008.jpg
1032.189	1.83	incorrect	navigation	Trial2	navigation/STIM_008.jpg
1037.492	1.96	correct	navigation	Trial2	navigation/STIM_009.jpg
1042.444	3.7	correct	navigation	Trial2	navigation/STIM_009.jpg
1048.513	3.273	incorrect	navigation	Trial2	navigation/STIM_009.jpg
1054.622	1.487	correct	navigation	Trial2	navigation/STIM_009.jpg
1058.427	2.362	correct	navigation	Trial2	navigation/STIM_009.jpg
1063.281	3.051	correct	navigation	Trial2	navigation/STIM_009.jpg
1070.281	2.004	correct	navigation	Trial2	navigation/STIM_010.jpg
1076.211	2.097	correct	navigation	Trial2	navigation/STIM_010.jpg
1082.305	1.922	correct	navigation	Trial2	navigation/STIM_010.jpg
1086.627	3.112	correct	navigation	Trial2	navigation/STIM_010.jpg
1092.525	2.224	correct	navigation	Trial2	navigation/STIM_010.jpg
1097.375	2.382	correct	navigation	Trial2	navigation/STIM_010.jpg
1103.02	3.501	correct	navigation	Trial2	navigation/STIM_011.jpg
1110.52	3.424	correct	navigation	Trial2	navigation/STIM_011.jpg
1117.793	1.94	correct	navigation	Trial2	navigation/STIM_011.jpg
1123.621	3.109	correct	navigation	Trial2	navigation/STIM_011.jpg
1130.672	2.619	correct	navigation	Trial2	navigation/STIM_011.jpg
1135.959	2.465	correct	navigation	Trial2	navigation/STIM_011.jpg
1142.13	0.848	correct	pointing	Trial2	pointing/STIM_000.jpg
1146.236	0.875	correct	pointing	Trial2	pointing/STIM_000.jpg
1149.492	1.29	correct	pointing	Trial2	pointing/STIM_000.jpg
1153.113	1.34	correct	pointing	Trial2	pointing/STIM_000.jpg
1157.036	0.829	correct	pointing	Trial2	pointing/STIM_000.jpg
1161.349	1.246	correct	pointing	Trial2	pointing/STIM_000.jpg
1165.126	1.105	correct	pointing	Trial2	pointing/STIM_001.jpg
1169.644	1.249	correct	pointing	Trial2	pointing/STIM_001.jpg
1174.64	1.236	correct	pointing	Trial2	pointing/STIM_001.jpg
1179.318	1.433	correct	pointing	Trial2	pointing/STIM_001.jpg
1184.443	1.385	correct	pointing	Trial2	pointing/STIM_001.jpg
1188.187	0.931	correct	pointing	Trial2	pointing/STIM_001.jpg
1191.653	1.33	correct	pointing	Trial2	pointing/STIM_002.jpg
1196.489	0.777	correct	pointing	Trial2	pointing/STIM_002.jpg
1200.837	1.219	correct	pointing	Trial2	pointing/STIM_002.jpg
1204.22	1.142	incorrect	pointing	Trial2	pointing/STIM_002.jpg
1208.93	1.02	correct	pointing	Trial2	pointing/STIM_002.jpg
1212.189	1.259	correct	pointing	Trial2	pointing/STIM_002.jpg
1216.423	0.834	correct	pointing	Trial2	pointing/STIM_003.jpg
1220.656	0.925	correct	pointing	Trial2	pointing/STIM_003.jpg
1225.262	1.377	correct	pointing	Trial2	pointing/STIM_003.jpg
1229.646	1.356	correct	pointing	Trial2	pointing/STIM_003.jpg
1233.177	0.827	correct	pointing	Trial2	pointing/STIM_003.jpg
1236.523	0.846	correct	pointing	Trial2	pointing/STIM_003.jpg
1241.136	1.318	correct	pointing	Trial2	pointing/STIM_004.jpg
1245.848	1.056	correct	pointing	Trial2	pointing/STIM_004.jpg
1249.069	0.856	correct	pointing	Trial2	pointing/STIM_004.jpg
1253.369	1.031	correct	pointing	Trial2	pointing/STIM_004.jpg
1257.86	1.395	correct	pointing	Trial2	pointing/STIM_004.jpg
1262.383	0.904	correct	pointing	Trial2	pointing/STIM_004.jpg
1266.118	1.502	correct	pointing	Trial2	pointing/STIM_005.jpg
1270.647	1.294	correct	pointing	Trial2	pointing/STIM_005.jpg
1274.703	1.007	correct	pointing	Trial2	pointing/STIM_005.jpg
1278.11	1.414	correct	pointing	Trial2	pointing/STIM_005.jpg
1283.213	0.781	correct	pointing	Trial2	pointing/STIM_005.jpg
1286.198	0.861	correct	pointing	Trial2	pointing/STIM_005.jpg
1289.206	0.85	correct	pointing	Trial2	pointing/STIM_006.jpg
1292.975	0.961	incorrect	pointing	Trial2	pointing/STIM_006.jpg
1297.991	1.006	correct	pointing	Trial2	pointing/STIM_006.jpg
1302.528	1.102	correct	pointing	Trial2	pointing/STIM_006.jpg
1305.962	1.201	incorrect	pointing	Trial2	pointing/STIM_006.jpg
1310.777	0.867	correct	pointing	Trial2	pointing/STIM_006.jpg
1315.146	1.181	correct	pointing	Trial2	pointing/STIM_007.jpg
1318.65	0.956	correct	pointing	Trial2	pointing/STIM_007.jpg
1323.629	1.14	correct	pointing	Trial2	pointing/STIM_007.jpg
1328.881	1.199	correct	pointing	Trial2	pointing/STIM_007.jpg
1332.754	1.088	incorrect	pointing	Trial2	pointing/STIM_007.jpg
1335.979	0.947	correct	pointing	Trial2	pointing/STIM_007.jpg
1339.205	0.82	correct	pointing	Trial2	pointing/STIM_008.jpg
1343.532	1.066	correct	pointing	Trial2	pointing/STIM_008.jpg
1347.873	1.476	correct	pointing	Trial2	pointing/STIM_008.jpg
1352.231	1.348	correct	pointing	Trial2	pointing/STIM_008.jpg
1357.178	1.467	correct	pointing	Trial2	pointing/STIM_008.jpg
1361.052	0.774	correct	pointing	Trial2	pointing/STIM_008.jpg
1365.444	0.857	correct	pointing	Trial2	pointing/STIM_009.jpg
1368.413	1.078	correct	pointing	Trial2	pointing/STIM_009.jpg
1371.679	0.89	correct	pointing	Trial2	pointing/STIM_009.jpg
1374.936	0.825	incorrect	pointing	Trial2	pointing/STIM_009.jpg
1378.418	0.861	correct	pointing	Trial2	pointing/STIM_009.jpg
1381.553	1.255	correct	pointing	Trial2	pointing/STIM_009.jpg
1385.858	0.893	correct	pointing	Trial2	pointing/STIM_010.jpg
1390.486	1.393	correct	pointing	Trial2	pointing/STIM_010.jpg
1394.993	0.895	correct	pointing	Trial2	pointing/STIM_010.jpg
1398.995	0.922	correct	pointing	Trial2	pointing/STIM_010.jpg
1403.473	1.128	correct	pointing	Trial2	pointing/STIM_010.jpg
1407.18	0.969	correct	pointing	Trial2	pointing/STIM_010.jpg
1412.11	1.044	correct	pointing	Trial2	pointing/STIM_011.jpg
1415.857	1.366	correct	pointing	Trial2	pointing/STIM_011.jpg
1419.873	0.985	correct	pointing	Trial2	pointing/STIM_011.jpg
1422.823	1.165	correct	pointing	Trial2	pointing/STIM_011.jpg
1426.471	1.321	correct	pointing	Trial2	pointing/STIM_011.jpg
1431.055	1.385	correct	pointing	Trial2	pointing/STIM_011.jpg
1436.4	3.182	correct	navigation	Trial3	navigation/STIM_000.jpg
1442.615	2.62	incorrect	navigation	Trial3	navigation/STIM_000.jpg
1447.819	2.88	correct	navigation	Trial3	navigation/STIM_000.jpg
1453.082	2.111	correct	navigation	Trial3	navigation/STIM_000.jpg
1458.767	1.597	correct	navigation	Trial3	navigation/STIM_000.jpg
1462.593	2.427	correct	navigation	Trial3	navigation/STIM_000.jpg
1467.285	2.594	correct	navigation	Trial3	navigation/STIM_001.jpg
1472.392	3.174	correct	navigation	Trial3	navigation/STIM_001.jpg
1478.25	1.893	incorrect	navigation	Trial3	navigation/STIM_001.jpg
1482.485	1.831	incorrect	navigation	Trial3	navigation/STIM_001.jpg
1488.189	2.723	correct	navigation	Trial3	navigation/STIM_001.jpg
1493.731	1.678	correct	navigation	Trial3	navigation/STIM_001.jpg
1498.097	1.444	correct	navigation	Trial3	navigation/STIM_002.jpg
1502.941	2.828	correct	navigation	Trial3	navigation/STIM_002.jpg
1509.153	2.424	correct	navigation	Trial3	navigation/STIM_002.jpg
1513.766	2.886	correct	navigation	Trial3	navigation/STIM_002.jpg
1518.996	1.773	correct	navigation	Trial3	navigation/STIM_002.jpg
1523.523	2.877	correct	navigation	Trial3	navigation/STIM_002.jpg
1530.026	1.585	correct	navigation	Trial3	navigation/STIM_003.jpg
1533.873	2.517	correct	navigation	Trial3	navigation/STIM_003.jpg
1538.573	1.622	correct	navigation	Trial3	navigation/STIM_003.jpg
1543.311	3.139	correct	navigation	Trial3	navigation/STIM_003.jpg
1550.34	2.364	correct	navigation	Trial3	navigation/STIM_003.jpg
1556.172	3.036	correct	navigation	Trial3	navigation/STIM_003.jpg
1562.069	1.521	correct	navigation	Trial3	navigation/STIM_004.jpg
1566.746	2.887	correct	navigation	Trial3	navigation/STIM_004.jpg
1572.89	1.687	correct	navigation	Trial3	navigation/STIM_004.jpg
1578.458	1.483	correct	navigation	Trial3	navigation/STIM_004.jpg
1583.515	1.339	correct	navigation	Trial3	navigation/STIM_004.jpg
1588.361	2.532	correct	navigation	Trial3	navigation/STIM_004.jpg
1593.866	2.822	correct	navigation	Trial3	navigation/STIM_005.jpg
1600.623	1.693	correct	navigation	Trial3	navigation/STIM_005.jpg
1606.304	2.332	correct	navigation	Trial3	navigation/STIM_005.jpg
1611.746	2.584	correct	navigation	Trial3	navigation/STIM_005.jpg
1616.495	2.325	correct	navigation	Trial3	navigation/STIM_005.jpg
1621.695	2.321	incorrect	navigation	Trial3	navigation/STIM_005.jpg
1627.074	3.276	correct	navigation	Trial3	navigation/STIM_006.jpg
1634.481	2.012	correct	navigation	Trial3	navigation/STIM_006.jpg
1638.832	1.853	correct	navigation	Trial3	navigation/STIM_006.jpg
1642.684	2.143	correct	navigation	Trial3	navigation/STIM_006.jpg
1648.06	2.823	correct	navigation	Trial3	navigation/STIM_006.jpg
1654.531	1.956	incorrect	navigation	Trial3	navigation/STIM_006.jpg
1660.155	2.175	correct	navigation	Trial3	navigation/STIM_007.jpg
1665.451	2.612	correct	navigation	Trial3	navigation/STIM_007.jpg
1671.947	2.47	correct	navigation	Trial3	navigation/STIM_007.jpg
1678.483	1.97	correct	navigation	Trial3	navigation/STIM_007.jpg
1684.36	3.072	correct	navigation	Trial3	navigation/STIM_007.jpg
1690.605	1.657	correct	navigation	Trial3	navigation/STIM_007.jpg
1694.449	3.21	correct	navigation	Trial3	navigation/STIM_008.jpg
1700.239	2.077	correct	navigation	Trial3	navigation/STIM_008.jpg
1705.341	2.526	incorrect	navigation	Trial3	navigation/STIM_008.jpg
1711.649	1.641	correct	navigation	Trial3	navigation/STIM_008.jpg
1715.972	1.531	correct	navigation	Trial3	navigation/STIM_008.jpg
1721.491	2.637	correct	navigation	Trial3	navigation/STIM_008.jpg
1727.71	3.177	correct	navigation	Trial3	navigation/STIM_009.jpg
1734.587	1.493	correct	navigation	Trial3	navigation/STIM_009.jpg
1738.279	2.602	correct	navigation	Trial3	navigation/STIM_009.jpg
1744.38	1.546	correct	navigation	Trial3	navigation/STIM_009.jpg
1748.603	2.256	correct	navigation	Trial3	navigation/STIM_009.jpg
1753.852	2.517	correct	navigation	Trial3	navigation/STIM_009.jpg
1759.066	2.94	correct	navigation	Trial3	navigation/STIM_010.jpg
1765.55	3.118	correct	navigation	Trial3	navigation/STIM_010.jpg
1772.261	3.19	correct	navigation	Trial3	navigation/STIM_010.jpg
1777.757	1.484	correct	navigation	Trial3	navigation/STIM_010.jpg
1782.631	3.016	correct	navigation	Trial3	navigation/STIM_010.jpg
1789.811	1.882	correct	navigation	Trial3	navigation/STIM_010.jpg
1795.428	1.499	correct	navigation	Trial3	navigation/STIM_011.jpg
1799.737	2.096	correct	navigation	Trial3	navigation/STIM_011.jpg
1804.201	2.659	correct	navigation	Trial3	navigation/STIM_011.jpg
1809.217	2.937	correct	navigation	Trial3	navigation/STIM_011.jpg
1814.601	1.355	correct	navigation	Trial3	navigation/STIM_011.jpg
1819.869	2.385	correct	navigation	Trial3	navigation/STIM_011.jpg
1825.551	1.262	correct	pointing	Trial3	pointing/STIM_000.jpg
1829.672	1.285	correct	pointing	Trial3	pointing/STIM_000.jpg
1834.107	0.947	correct	pointing	Trial3	pointing/STIM_000.jpg
1837.042	0.953	correct	pointing	Trial3	pointing/STIM_000.jpg
1840.281	1.04	correct	pointing	Trial3	pointing/STIM_000.jpg
1844.458	0.778	correct	pointing	Trial3	pointing/STIM_000.jpg
1849.335	1.274	correct	pointing	Trial3	pointing/STIM_001.jpg
1853.485	0.965	correct	pointing	Trial3	pointing/STIM_001.jpg
1856.827	1.101	correct	pointing	Trial3	pointing/STIM_001.jpg
1861.802	1.101	correct	pointing	Trial3	pointing/STIM_001.jpg
1866.536	1.066	correct	pointing	Trial3	pointing/STIM_001.jpg
1871.397	1.297	correct	pointing	Trial3	pointing/STIM_001.jpg
1874.809	1.121	correct	pointing	Trial3	pointing/STIM_002.jpg
1879.143	0.957	correct	pointing	Trial3	pointing/STIM_002.jpg
1882.899	0.795	correct	pointing	Trial3	pointing/STIM_002.jpg
1887.738	0.977	correct	pointing	Trial3	pointing/STIM_002.jpg
1891.108	1.021	correct	pointing	Trial3	pointing/STIM_002.jpg
1895.456	0.988	correct	pointing	Trial3	pointing/STIM_002.jpg
1899.87	1.389	correct	pointing	Trial3	pointing/STIM_003.jpg
1903.811	1.406	correct	pointing	Trial3	pointing/STIM_003.jpg
1908.177	1.426	correct	pointing	Trial3	pointing/STIM_003.jpg
1913.366	0.936	correct	pointing	Trial3	pointing/STIM_003.jpg
1916.526	0.895	correct	pointing	Trial3	pointing/STIM_003.jpg
1919.944	0.901	correct	pointing	Trial3	pointing/STIM_003.jpg
1923.191	0.883	correct	pointing	Trial3	pointing/STIM_004.jpg
1927.665	1.34	correct	pointing	Trial3	pointing/STIM_004.jpg
1932.767	0.847	correct	pointing	Trial3	pointing/STIM_004.jpg
1936.443	1.02	correct	pointing	Trial3	pointing/STIM_004.jpg
1940.09	1.294	correct	pointing	Trial3	pointing/STIM_004.jpg
1944.722	1.429	correct	pointing	Trial3	pointing/STIM_004.jpg
1950.177	0.802	correct	pointing	Trial3	pointing/STIM_005.jpg
1953.568	1.097	correct	pointing	Trial3	pointing/STIM_005.jpg
1957.033	1.168	correct	pointing	Trial3	pointing/STIM_005.jpg
1960.865	0.657	correct	pointing	Trial3	pointing/STIM_005.jpg
1964.054	1.216	correct	pointing	Trial3	pointing/STIM_005.jpg
1969.114	0.701	correct	pointing	Trial3	pointing/STIM_005.jpg
1972.202	1.136	correct	pointing	Trial3	pointing/STIM_006.jpg
1976.778	0.891	correct	pointing	Trial3	pointing/STIM_006.jpg
1981.233	0.769	correct	pointing	Trial3	pointing/STIM_006.jpg
1985.911	1.326	correct	pointing	Trial3	pointing/STIM_006.jpg
1990.628	1.379	correct	pointing	Trial3	pointing/STIM_006.jpg
1994.54	1.412	correct	pointing	Trial3	pointing/STIM_006.jpg
1998.067	0.832	correct	pointing	Trial3	pointing/STIM_007.jpg
2002.386	1.314	correct	pointing	Trial3	pointing/STIM_007.jpg
2006.584	0.842	correct	pointing	Trial3	pointing/STIM_007.jpg
2010.48	0.845	correct	pointing	Trial3	pointing/STIM_007.jpg
2013.713	0.969	correct	pointing	Trial3	pointing/STIM_007.jpg
2017.826	1.338	correct	pointing	Trial3	pointing/STIM_007.jpg
2022.94	0.816	correct	pointing	Trial3	pointing/STIM_008.jpg
2025.956	1.205	correct	pointing	Trial3	pointing/STIM_008.jpg
2031.063	1.3	correct	pointing	Trial3	pointing/STIM_008.jpg
2035.978	1.416	correct	pointing	Trial3	pointing/STIM_008.jpg
2039.754	1.455	correct	pointing	Trial3	pointing/STIM_008.jpg
2043.647	1.24	correct	pointing	Trial3	pointing/STIM_008.jpg
2048.013	1.15	correct	pointing	Trial3	pointing/STIM_009.jpg
2053.219	1.303	correct	pointing	Trial3	pointing/STIM_009.jpg
2058.328	1.382	correct	pointing	Trial3	pointing/STIM_009.jpg
2062.098	1.079	correct	pointing	Trial3	pointing/STIM_009.jpg
2066.071	1.323	correct	pointing	Trial3	pointing/STIM_009.jpg
2069.486	1.305	correct	pointing	Trial3	pointing/STIM_009.jpg
2074.679	0.792	incorrect	pointing	Trial3	pointing/STIM_010.jpg
2078.845	1.136	correct	pointing	Trial3	pointing/STIM_010.jpg
2082.446	0.755	correct	pointing	Trial3	pointing/STIM_010.jpg
2086.789	0.757	correct	pointing	Trial3	pointing/STIM_010.jpg
2089.981	1.412	correct	pointing	Trial3	pointing/STIM_010.jpg
2094.32	1.408	correct	pointing	Trial3	pointing/STIM_010.jpg
2099.52	1.135	correct	pointing	Trial3	pointing/STIM_011.jpg
2103.478	1.398	correct	pointing	Trial3	pointing/STIM_011.jpg
2107.467	0.896	correct	pointing	Trial3	pointing/STIM_011.jpg
2111.075	0.892	correct	pointing	Trial3	pointing/STIM_011.jpg
2115.456	1.218	correct	pointing	Trial3	pointing/STIM_011.jpg
2119.085	1.062	correct	pointing	Trial3	pointing/STIM_011.jpg
