onset	duration	response_time_ms	trial_type	learning_stage	stimulus	response_port
0.0	4.181	4181.3	navigation	Trial1	navigation/STIM_000.jpg	100
8.166	2.534	2533.5	navigation	Trial1	navigation/STIM_000.jpg	99
13.184	3.24	3239.9	navigation	Trial1	navigation/STIM_000.jpg	99
19.307	4.432	4431.7	navigation	Trial1	navigation/STIM_000.jpg	99
27.14	3.435	3435.4	navigation	Trial1	navigation/STIM_000.jpg	99
34.38	3.692	3692.3	navigation	Trial1	navigation/STIM_000.jpg	100
40.567	2.38	2380.2	navigation	Trial1	navigation/STIM_001.jpg	99
45.979	3.899	3899.1	navigation	Trial1	navigation/STIM_001.jpg	99
53.193	1.964	1964.5	navigation	Trial1	navigation/STIM_001.jpg	100
57.52	4.123	4122.9	navigation	Trial1	navigation/STIM_001.jpg	100
63.766	2.982	2982.3	navigation	Trial1	navigation/STIM_001.jpg	99
69.297	1.941	1941.3	navigation	Trial1	navigation/STIM_001.jpg	100
74.408	2.662	2661.6	navigation	Trial1	navigation/STIM_002.jpg	100
80.002	4.05	4050.2	navigation	Trial1	navigation/STIM_002.jpg	100
87.569	4.126	4126.3	navigation	Trial1	navigation/STIM_002.jpg	99
94.591	2.234	2233.6	navigation	Trial1	navigation/STIM_002.jpg	100
100.026	3.391	3390.6	navigation	Trial1	navigation/STIM_002.jpg	99
106.445	3.122	3121.5	navigation	Trial1	navigation/STIM_002.jpg	99
112.823	5.091	5091.2	navigation	Trial1	navigation/STIM_003.jpg	100
121.244	4.9	4899.7	navigation	Trial1	navigation/STIM_003.jpg	99
129.798	2.193	2192.8	navigation	Trial1	navigation/STIM_003.jpg	100
134.979	4.146	4145.9	navigation	Trial1	navigation/STIM_003.jpg	100
142.174	2.74	2740.4	navigation	Trial1	navigation/STIM_003.jpg	99
147.185	3.398	3398.1	navigation	Trial1	navigation/STIM_003.jpg	99
154.428	2.464	2463.5	navigation	Trial1	navigation/STIM_004.jpg	100
160.732	2.777	2777.4	navigation	Trial1	navigation/STIM_004.jpg	100
166.185	2.472	2472.2	navigation	Trial1	navigation/STIM_004.jpg	99
172.022	2.777	2777.1	navigation	Trial1	navigation/STIM_004.jpg	99
177.92	2.296	2295.5	navigation	Trial1	navigation/STIM_004.jpg	99
182.602	3.92	3919.9	navigation	Trial1	navigation/STIM_004.jpg	100
189.408	2.238	2237.9	navigation	Trial1	navigation/STIM_005.jpg	100
194.681	3.387	3387.4	navigation	Trial1	navigation/STIM_005.jpg	99
201.269	2.862	2861.6	navigation	Trial1	navigation/STIM_005.jpg	100
207.232	3.297	3297.3	navigation	Trial1	navigation/STIM_005.jpg	100
214.081	3.732	3732.0	navigation	Trial1	navigation/STIM_005.jpg	100
221.649	2.593	2593.2	navigation	Trial1	navigation/STIM_005.jpg	99
226.283	3.829	3828.9	navigation	Trial1	navigation/STIM_006.jpg	99
232.913	2.678	2678.1	navigation	Trial1	navigation/STIM_006.jpg	100
239.085	2.902	2902.3	navigation	Trial1	navigation/STIM_006.jpg	99
244.102	4.344	4343.5	navigation	Trial1	navigation/STIM_006.jpg	99
252.028	2.879	2879.4	navigation	Trial1	navigation/STIM_006.jpg	99
257.198	3.065	3064.8	navigation	Trial1	navigation/STIM_006.jpg	100
262.991	2.869	2868.9	navigation	Trial1	navigation/STIM_007.jpg	99
268.837	2.637	2637.0	navigation	Trial1	navigation/STIM_007.jpg	100
274.655	3.411	3411.1	navigation	Trial1	navigation/STIM_007.jpg	99
281.751	3.899	3899.0	navigation	Trial1	navigation/STIM_007.jpg	99
289.114	3.876	3876.2	navigation	Trial1	navigation/STIM_007.jpg	99
296.8	1.594	1593.9	navigation	Trial1	navigation/STIM_007.jpg	100
302.108	3.164	3163.8	navigation	Trial1	navigation/STIM_008.jpg	99
307.864	3.263	3262.9	navigation	Trial1	navigation/STIM_008.jpg	99
313.781	4.354	4353.9	navigation	Trial1	navigation/STIM_008.jpg	99
320.353	4.064	4064.3	navigation	Trial1	navigation/STIM_008.jpg	99
328.36	2.379	2378.9	navigation	Trial1	navigation/STIM_008.jpg	99
333.993	3.277	3277.4	navigation	Trial1	navigation/STIM_008.jpg	99
340.115	4.514	4514.4	navigation	Trial1	navigation/STIM_009.jpg	100
346.75	3.11	3109.6	navigation	Trial1	navigation/STIM_009.jpg	100
352.052	3.511	3511.3	navigation	Trial1	navigation/STIM_009.jpg	99
357.749	3.748	3748.4	navigation	Trial1	navigation/STIM_009.jpg	99
363.749	2.879	2879.0	navigation	Trial1	navigation/STIM_009.jpg	100
368.946	2.368	2368.0	navigation	Trial1	navigation/STIM_009.jpg	99
373.437	3.574	3574.2	navigation	Trial1	navigation/STIM_010.jpg	100
379.727	4.566	4565.9	navigation	Trial1	navigation/STIM_010.jpg	100
386.362	2.358	2357.5	navigation	Trial1	navigation/STIM_010.jpg	100
391.338	4.38	4379.7	navigation	Trial1	navigation/STIM_010.jpg	100
397.954	3.751	3750.8	navigation	Trial1	navigation/STIM_010.jpg	100
405.252	1.942	1941.6	navigation	Trial1	navigation/STIM_010.jpg	99
411.07	4.663	4663.0	navigation	Trial1	navigation/STIM_011.jpg	100
418.814	3.532	3531.6	navigation	Trial1	navigation/STIM_011.jpg	99
424.555	2.316	2316.3	navigation	Trial1	navigation/STIM_011.jpg	100
430.447	2.688	2688.2	navigation	Trial1	navigation/STIM_011.jpg	100
436.066	3.16	3159.5	navigation	Trial1	navigation/STIM_011.jpg	100
442.084	3.883	3882.9	navigation	Trial1	navigation/STIM_011.jpg	100
449.845	1.3	1299.9	pointing	Trial1	pointing/STIM_000.jpg	100
454.116	0.902	901.9	pointing	Trial1	pointing/STIM_000.jpg	100
458.322	0.936	935.5	pointing	Trial1	pointing/STIM_000.jpg	99
462.409	1.563	1563.3	pointing	Trial1	pointing/STIM_000.jpg	100
467.671	1.322	1322.5	pointing	Trial1	pointing/STIM_000.jpg	99
472.227	0.854	854.0	pointing	Trial1	pointing/STIM_000.jpg	100
476.025	1.241	1240.7	pointing	Trial1	pointing/STIM_001.jpg	99
479.977	1.197	1197.2	pointing	Trial1	pointing/STIM_001.jpg	99
483.514	0.912	911.7	pointing	Trial1	pointing/STIM_001.jpg	100
486.56	1.205	1205.1	pointing	Trial1	pointing/STIM_001.jpg	100
491.419	1.298	1298.4	pointing	Trial1	pointing/STIM_001.jpg	100
494.758	1.108	1108.3	pointing	Trial1	pointing/STIM_001.jpg	100
499.264	1.187	1187.3	pointing	Trial1	pointing/STIM_002.jpg	99
502.865	0.973	973.3	pointing	Trial1	pointing/STIM_002.jpg	100
507.254	0.959	958.7	pointing	Trial1	pointing/STIM_002.jpg	99
511.536	1.382	1381.5	pointing	Trial1	pointing/STIM_002.jpg	100
515.488	1.158	1158.0	pointing	Trial1	pointing/STIM_002.jpg	100
519.061	1.411	1411.3	pointing	Trial1	pointing/STIM_002.jpg	99
524.02	1.02	1020.1	pointing	Trial1	pointing/STIM_003.jpg	99
528.275	1.12	1119.6	pointing	Trial1	pointing/STIM_003.jpg	99
531.84	0.899	899.0	pointing	Trial1	pointing/STIM_003.jpg	100
536.704	1.232	1231.5	pointing	Trial1	pointing/STIM_003.jpg	99
541.555	1.161	1160.6	pointing	Trial1	pointing/STIM_003.jpg	99
545.704	1.5	1500.5	pointing	Trial1	pointing/STIM_003.jpg	99
550.605	0.89	890.5	pointing	Trial1	pointing/STIM_004.jpg	100
553.526	1.465	1464.6	pointing	Trial1	pointing/STIM_004.jpg	100
558.694	1.481	1481.4	pointing	Trial1	pointing/STIM_004.jpg	100
563.638	1.475	1475.3	pointing	Trial1	pointing/STIM_004.jpg	100
568.248	1.426	1426.3	pointing	Trial1	pointing/STIM_004.jpg	100
573.624	1.071	1070.6	pointing	Trial1	pointing/STIM_004.jpg	100
577.695	0.977	977.3	pointing	Trial1	pointing/STIM_005.jpg	100
581.758	1.39	1390.2	pointing	Trial1	pointing/STIM_005.jpg	99
586.266	1.229	1229.1	pointing	Trial1	pointing/STIM_005.jpg	100
589.745	1.463	1462.7	pointing	Trial1	pointing/STIM_005.jpg	100
593.759	1.56	1560.0	pointing	Trial1	pointing/STIM_005.jpg	99
598.014	1.33	1330.3	pointing	Trial1	pointing/STIM_005.jpg	100
602.499	1.438	1438.1	pointing	Trial1	pointing/STIM_006.jpg	100
606.94	1.046	1046.1	pointing	Trial1	pointing/STIM_006.jpg	99
611.671	1.365	1364.7	pointing	Trial1	pointing/STIM_006.jpg	99
616.617	1.202	1202.4	pointing	Trial1	pointing/STIM_006.jpg	99
620.58	0.886	886.5	pointing	Trial1	pointing/STIM_006.jpg	99
625.083	0.887	887.4	pointing	Trial1	pointing/STIM_006.jpg	100
628.169	1.124	1124.1	pointing	Trial1	pointing/STIM_007.jpg	99
632.35	1.444	1444.3	pointing	Trial1	pointing/STIM_007.jpg	99
636.743	1.508	1507.8	pointing	Trial1	pointing/STIM_007.jpg	99
641.166	1.414	1413.9	pointing	Trial1	pointing/STIM_007.jpg	99
646.336	1.18	1180.0	pointing	Trial1	pointing/STIM_007.jpg	100
650.438	1.307	1306.8	pointing	Trial1	pointing/STIM_007.jpg	99
653.83	1.554	1554.4	pointing	Trial1	pointing/STIM_008.jpg	100
658.541	1.17	1170.2	pointing	Trial1	pointing/STIM_008.jpg	100
663.024	1.149	1149.1	pointing	Trial1	pointing/STIM_008.jpg	100
667.878	1.389	1388.6	pointing	Trial1	pointing/STIM_008.jpg	99
672.896	0.93	929.8	pointing	Trial1	pointing/STIM_008.jpg	99
676.418	1.32	1320.1	pointing	Trial1	pointing/STIM_008.jpg	99
680.375	1.496	1495.9	pointing	Trial1	pointing/STIM_009.jpg	99
685.124	1.282	1282.1	pointing	Trial1	pointing/STIM_009.jpg	99
688.614	1.037	1036.8	pointing	Trial1	pointing/STIM_009.jpg	100
693.528	0.923	922.7	pointing	Trial1	pointing/STIM_009.jpg	99
697.213	1.2	1199.9	pointing	Trial1	pointing/STIM_009.jpg	100
701.932	1.579	1579.3	pointing	Trial1	pointing/STIM_009.jpg	99
707.018	1.196	1195.6	pointing	Trial1	pointing/STIM_010.jpg	100
710.95	0.981	980.6	pointing	Trial1	pointing/STIM_010.jpg	99
714.2	1.114	1114.0	pointing	Trial1	pointing/STIM_010.jpg	100
719.12	0.937	937.1	pointing	Trial1	pointing/STIM_010.jpg	100
723.526	0.957	956.7	pointing	Trial1	pointing/STIM_010.jpg	100
726.918	1.37	1370.0	pointing	Trial1	pointing/STIM_010.jpg	99
731.554	0.881	880.9	pointing	Trial1	pointing/STIM_011.jpg	99
736.251	1.391	1391.0	pointing	Trial1	pointing/STIM_011.jpg	99
740.804	0.873	873.4	pointing	Trial1	pointing/STIM_011.jpg	100
745.397	0.885	885.3	pointing	Trial1	pointing/STIM_011.jpg	100
750.024	1.345	1345.4	pointing	Trial1	pointing/STIM_011.jpg	100
755.035	1.538	1538.1	pointing	Trial1	pointing/STIM_011.jpg	99
759.069	2.89	2890.3	navigation	Trial2	navigation/STIM_000.jpg	100
764.193	3.281	3280.9	navigation	Trial2	navigation/STIM_000.jpg	100
770.057	2.065	2064.9	navigation	Trial2	navigation/STIM_000.jpg	100
774.957	2.516	2516.2	navigation	Trial2	navigation/STIM_000.jpg	99
781.188	1.932	1931.8	navigation	Trial2	navigation/STIM_000.jpg	99
786.308	2.669	2668.8	navigation	Trial2	navigation/STIM_000.jpg	100
792.954	3.559	3559.4	navigation	Trial2	navigation/STIM_001.jpg	100
799.895	1.972	1972.1	navigation	Trial2	navigation/STIM_001.jpg	99
805.051	1.953	1953.3	navigation	Trial2	navigation/STIM_001.jpg	99
810.909	1.563	1562.6	navigation	Trial2	navigation/STIM_001.jpg	99
816.001	2.543	2543.2	navigation	Trial2	navigation/STIM_001.jpg	99
821.663	2.136	2135.5	navigation	Trial2	navigation/STIM_001.jpg	100
827.603	2.681	2680.8	navigation	Trial2	navigation/STIM_002.jpg	100
833.544	2.37	2370.2	navigation	Trial2	navigation/STIM_002.jpg	99
839.874	3.8	3799.7	navigation	Trial2	navigation/STIM_002.jpg	99
847.625	2.508	2507.7	navigation	Trial2	navigation/STIM_002.jpg	99
853.459	2.061	2061.2	navigation	Trial2	navigation/STIM_002.jpg	99
858.81	1.916	1916.5	navigation	Trial2	navigation/STIM_002.jpg	99
862.769	3.946	3946.5	navigation	Trial2	navigation/STIM_003.jpg	100
869.358	3.495	3495.0	navigation	Trial2	navigation/STIM_003.jpg	99
876.294	3.23	3229.5	navigation	Trial2	navigation/STIM_003.jpg	99
883.151	1.96	1959.8	navigation	Trial2	navigation/STIM_003.jpg	99
888.724	3.182	3182.4	navigation	Trial2	navigation/STIM_003.jpg	100
895.756	2.641	2641.1	navigation	Trial2	navigation/STIM_003.jpg	100
900.701	3.984	3983.6	navigation	Trial2	navigation/STIM_004.jpg	100
908.335	2.553	2553.3	navigation	Trial2	navigation/STIM_004.jpg	100
914.348	1.963	1962.8	navigation	Trial2	navigation/STIM_004.jpg	100
920.281	3.005	3005.3	navigation	Trial2	navigation/STIM_004.jpg	99
926.067	3.62	3620.4	navigation	Trial2	navigation/STIM_004.jpg	99
933.308	1.727	1727.0	navigation	Trial2	navigation/STIM_004.jpg	100
937.478	2.862	2861.6	navigation	Trial2	navigation/STIM_005.jpg	99
943.567	3.316	3316.3	navigation	Trial2	navigation/STIM_005.jpg	100
949.606	2.244	2243.9	navigation	Trial2	navigation/STIM_005.jpg	100
954.65	2.501	2500.8	navigation	Trial2	navigation/STIM_005.jpg	100
959.249	2.424	2424.5	navigation	Trial2	navigation/STIM_005.jpg	100
965.398	1.718	1717.8	navigation	Trial2	navigation/STIM_005.jpg	99
969.719	2.08	2080.2	navigation	Trial2	navigation/STIM_006.jpg	99
974.761	2.267	2266.8	navigation	Trial2	navigation/STIM_006.jpg	99
980.718	3.144	3144.5	navigation	Trial2	navigation/STIM_006.jpg	100
987.615	2.822	2821.7	navigation	Trial2	navigation/STIM_006.jpg	100
993.555	3.167	3166.9	navigation	Trial2	navigation/STIM_006.jpg	99
999.386	1.7	1700.5	navigation	Trial2	navigation/STIM_006.jpg	99
1003.308	2.016	2016.3	navigation	Trial2	navigation/STIM_007.jpg	100
1007.338	2.21	2209.9	navigation	Trial2	navigation/STIM_007.jpg	100
1011.671	3.384	3384.5	navigation	Trial2	navigation/STIM_007.jpg	99
1018.792	3.615	3614.9	navigation	Trial2	navigation/STIM_007.jpg	99
1024.946	3.071	3070.9	navigation	Trial2	navigation/STIM_007.jpg	99
1030.551	1.902	1901.7	navigation	Trial2	navigation/STIM_007.jpg	99
1036.408	4.422	4421.8	navigation	Trial2	navigation/STIM_008.jpg	100
1043.482	3.143	3142.7	navigation	Trial2	navigation/STIM_008.jpg	99
1048.726	3.138	3137.7	navigation	Trial2	navigation/STIM_008.jpg	99
1055.75	2.69	2690.4	navigation	Trial2	navigation/STIM_008.jpg	100
1061.843	3.665	3664.6	navigation	Trial2	navigation/STIM_008.jpg	99
1068.938	3.524	3524.4	navigation	Trial2	navigation/STIM_008.jpg	100
1074.656	1.822	1822.5	navigation	Trial2	navigation/STIM_009.jpg	100
1078.638	1.897	1897.2	navigation	Trial2	navigation/STIM_009.jpg	100
1082.606	3.436	3435.6	navigation	Trial2	navigation/STIM_009.jpg	100
1089.754	3.58	3579.5	navigation	Trial2	navigation/STIM_009.jpg	99
1096.919	3.348	3347.5	navigation	Trial2	navigation/STIM_009.jpg	99
1103.586	1.558	1558.2	navigation	Trial2	navigation/STIM_009.jpg	100
1107.53	2.198	2197.6	navigation	Trial2	navigation/STIM_010.jpg	99
1111.942	2.858	2858.2	navigation	Trial2	navigation/STIM_010.jpg	99
1118.732	2.809	2809.1	navigation	Trial2	navigation/STIM_010.jpg	100
1124.876	2.78	2779.6	navigation	Trial2	navigation/STIM_010.jpg	99
1131.533	1.988	1988.1	navigation	Trial2	navigation/STIM_010.jpg	99
1135.814	3.399	3399.2	navigation	Trial2	navigation/STIM_010.jpg	100
1142.159	2.507	2506.7	navigation	Trial2	navigation/STIM_011.jpg	99
1147.981	2.201	2201.0	navigation	Trial2	navigation/STIM_011.jpg	99
1153.038	1.816	1815.9	navigation	Trial2	navigation/STIM_011.jpg	99
1157.709	3.252	3252.2	navigation	Trial2	navigation/STIM_011.jpg	99
1163.662	3.07	3070.4	navigation	Trial2	navigation/STIM_011.jpg	100
1169.72	1.963	1962.6	navigation	Trial2	navigation/STIM_011.jpg	99
1173.918	1.16	1159.9	pointing	Trial2	pointing/STIM_000.jpg	100
1178.286	1.448	1448.4	pointing	Trial2	pointing/STIM_000.jpg	100
1182.324	1.076	1076.1	pointing	Trial2	pointing/STIM_000.jpg	99
1186.023	1.557	1557.4	pointing	Trial2	pointing/STIM_000.jpg	100
1190.713	0.866	865.7	pointing	Trial2	pointing/STIM_000.jpg	99
1194.536	1.421	1421.1	pointing	Trial2	pointing/STIM_000.jpg	100
1199.75	1.267	1267.3	pointing	Trial2	pointing/STIM_001.jpg	100
1204.777	1.07	1069.7	pointing	Trial2	pointing/STIM_001.jpg	100
1208.116	1.512	1511.7	pointing	Trial2	pointing/STIM_001.jpg	100
1212.704	1.101	1100.6	pointing	Trial2	pointing/STIM_001.jpg	99
1217.218	0.846	846.4	pointing	Trial2	pointing/STIM_001.jpg	100
1220.612	1.154	1153.8	pointing	Trial2	pointing/STIM_001.jpg	100
1224.987	1.184	1184.1	pointing	Trial2	pointing/STIM_002.jpg	100
1228.74	1.337	1336.8	pointing	Trial2	pointing/STIM_002.jpg	100
1233.312	1.042	1041.5	pointing	Trial2	pointing/STIM_002.jpg	100
1237.027	0.97	970.2	pointing	Trial2	pointing/STIM_002.jpg	100
1240.678	1.239	1238.9	pointing	Trial2	pointing/STIM_002.jpg	99
1244.535	1.415	1415.0	pointing	Trial2	pointing/STIM_002.jpg	99
1249.309	1.096	1095.9	pointing	Trial2	pointing/STIM_003.jpg	100
1254.153	0.988	988.1	pointing	Trial2	pointing/STIM_003.jpg	100
1257.486	1.469	1468.6	pointing	Trial2	pointing/STIM_003.jpg	99
1261.85	1.332	1331.7	pointing	Trial2	pointing/STIM_003.jpg	100
1266.754	1.38	1379.7	pointing	Trial2	pointing/STIM_003.jpg	99
1270.828	1.133	1132.9	pointing	Trial2	pointing/STIM_003.jpg	100
1275.406	0.956	955.9	pointing	Trial2	pointing/STIM_004.jpg	100
1278.748	1.447	1447.0	pointing	Trial2	pointing/STIM_004.jpg	99
1284.141	1.103	1102.8	pointing	Trial2	pointing/STIM_004.jpg	99
1289.176	0.999	998.7	pointing	Trial2	pointing/STIM_004.jpg	100
1292.866	1.406	1406.5	pointing	Trial2	pointing/STIM_004.jpg	99
1297.996	1.151	1151.2	pointing	Trial2	pointing/STIM_004.jpg	100
1301.374	0.853	853.1	pointing	Trial2	pointing/STIM_005.jpg	99
1305.419	1.109	1108.7	pointing	Trial2	pointing/STIM_005.jpg	99
1310.378	1.22	1219.7	pointing	Trial2	pointing/STIM_005.jpg	100
1315.492	0.908	907.7	pointing	Trial2	pointing/STIM_005.jpg	100
1318.974	1.356	1355.6	pointing	Trial2	pointing/STIM_005.jpg	100
1322.991	1.497	1496.9	pointing	Trial2	pointing/STIM_005.jpg	99
1327.183	1.548	1548.3	pointing	Trial2	pointing/STIM_006.jpg	100
1331.082	1.206	1205.6	pointing	Trial2	pointing/STIM_006.jpg	100
1335.989	1.532	1531.8	pointing	Trial2	pointing/STIM_006.jpg	99
1340.485	1.192	1191.7	pointing	Trial2	pointing/STIM_006.jpg	99
1344.157	1.181	1181.3	pointing	Trial2	pointing/STIM_006.jpg	99
1347.635	1.156	1155.6	pointing	Trial2	pointing/STIM_006.jpg	99
1352.18	1.047	1047.0	pointing	Trial2	pointing/STIM_007.jpg	100
1355.577	1.139	1138.9	pointing	Trial2	pointing/STIM_007.jpg	99
1360.637	1.287	1286.8	pointing	Trial2	pointing/STIM_007.jpg	100
1365.784	0.909	908.9	pointing	Trial2	pointing/STIM_007.jpg	99
1369.585	1.054	1053.8	pointing	Trial2	pointing/STIM_007.jpg	99
1374.283	1.437	1436.9	pointing	Trial2	pointing/STIM_007.jpg	100
1378.54	0.894	893.7	pointing	Trial2	pointing/STIM_008.jpg	100
1382.186	1.387	1386.6	pointing	Trial2	pointing/STIM_008.jpg	100
1387.45	1.379	1378.6	pointing	Trial2	pointing/STIM_008.jpg	100
1392.756	1.176	1175.6	pointing	Trial2	pointing/STIM_008.jpg	100
1397.789	1.266	1266.5	pointing	Trial2	pointing/STIM_008.jpg	100
1402.704	1.266	1266.5	pointing	Trial2	pointing/STIM_008.jpg	99
1407.152	1.581	1580.7	pointing	Trial2	pointing/STIM_009.jpg	100
1411.162	1.561	1560.9	pointing	Trial2	pointing/STIM_009.jpg	100
1415.995	0.849	848.6	pointing	Trial2	pointing/STIM_009.jpg	100
1418.946	1.372	1372.4	pointing	Trial2	pointing/STIM_009.jpg	99
1423.375	1.093	1093.1	pointing	Trial2	pointing/STIM_009.jpg	99
1427.069	1.231	1231.1	pointing	Trial2	pointing/STIM_009.jpg	99
1430.502	0.989	989.1	pointing	Trial2	pointing/STIM_010.jpg	100
1435.108	1.432	1432.2	pointing	Trial2	pointing/STIM_010.jpg	100
1439.421	1.406	1406.5	pointing	Trial2	pointing/STIM_010.jpg	100
1442.973	1.086	1085.6	pointing	Trial2	pointing/STIM_010.jpg	99
1446.34	0.85	850.3	pointing	Trial2	pointing/STIM_010.jpg	100
1450.097	1.442	1441.9	pointing	Trial2	pointing/STIM_010.jpg	100
1454.218	1.146	1145.8	pointing	Trial2	pointing/STIM_011.jpg	99
1458.168	0.992	992.2	pointing	Trial2	pointing/STIM_011.jpg	100
1462.497	1.318	1318.3	pointing	Trial2	pointing/STIM_011.jpg	100
1466.181	1.454	1453.9	pointing	Trial2	pointing/STIM_011.jpg	100
1471.346	1.265	1264.9	pointing	Trial2	pointing/STIM_011.jpg	99
1476.381	1.305	1305.4	pointing	Trial2	pointing/STIM_011.jpg	99
1480.197	2.498	2498.1	navigation	Trial3	navigation/STIM_000.jpg	99
1486.043	3.02	3020.3	navigation	Trial3	navigation/STIM_000.jpg	100
1492.999	2.184	2183.8	navigation	Trial3	navigation/STIM_000.jpg	99
1498.381	2.438	2437.8	navigation	Trial3	navigation/STIM_000.jpg	99
1504.113	2.451	2451.0	navigation	Trial3	navigation/STIM_000.jpg	99
1510.499	3.099	3099.3	navigation	Trial3	navigation/STIM_000.jpg	100
1516.478	2.952	2951.6	navigation	Trial3	navigation/STIM_001.jpg	100
1522.498	3.438	3438.5	navigation	Trial3	navigation/STIM_001.jpg	100
1529.543	2.713	2713.0	navigation	Trial3	navigation/STIM_001.jpg	100
1535.458	2.316	2315.6	navigation	Trial3	navigation/STIM_001.jpg	99
1541.359	3.352	3352.3	navigation	Trial3	navigation/STIM_001.jpg	100
1548.318	2.649	2649.3	navigation	Trial3	navigation/STIM_001.jpg	99
1553.736	2.426	2425.6	navigation	Trial3	navigation/STIM_002.jpg	100
1558.834	2.259	2258.8	navigation	Trial3	navigation/STIM_002.jpg	100
1563.666	2.855	2854.8	navigation	Trial3	navigation/STIM_002.jpg	99
1568.551	1.805	1805.3	navigation	Trial3	navigation/STIM_002.jpg	99
1573.367	3.097	3096.7	navigation	Trial3	navigation/STIM_002.jpg	99
1579.231	1.542	1542.3	navigation	Trial3	navigation/STIM_002.jpg	100
1583.822	3.611	3611.1	navigation	Trial3	navigation/STIM_003.jpg	99
1590.712	1.609	1609.0	navigation	Trial3	navigation/STIM_003.jpg	99
1595.717	1.593	1592.8	navigation	Trial3	navigation/STIM_003.jpg	100
1600.321	2.784	2783.8	navigation	Trial3	navigation/STIM_003.jpg	100
1606.766	2.841	2840.7	navigation	Trial3	navigation/STIM_003.jpg	100
1611.625	2.61	2609.8	navigation	Trial3	navigation/STIM_003.jpg	100
1617.509	1.67	1670.1	navigation	Trial3	navigation/STIM_004.jpg	99
1621.561	3.37	3370.5	navigation	Trial3	navigation/STIM_004.jpg	99
1628.017	2.169	2168.8	navigation	Trial3	navigation/STIM_004.jpg	99
1633.441	2.728	2728.2	navigation	Trial3	navigation/STIM_004.jpg	99
1639.247	1.771	1770.8	navigation	Trial3	navigation/STIM_004.jpg	100
1644.503	2.201	2200.6	navigation	Trial3	navigation/STIM_004.jpg	99
1648.87	2.393	2393.0	navigation	Trial3	navigation/STIM_005.jpg	99
1653.472	3.503	3502.7	navigation	Trial3	navigation/STIM_005.jpg	100
1660.819	2.341	2340.7	navigation	Trial3	navigation/STIM_005.jpg	100
1665.801	2.852	2851.6	navigation	Trial3	navigation/STIM_005.jpg	99
1672.283	3.03	3030.4	navigation	Trial3	navigation/STIM_005.jpg	99
1678.197	1.869	1869.1	navigation	Trial3	navigation/STIM_005.jpg	99
1682.678	1.576	1576.0	navigation	Trial3	navigation/STIM_006.jpg	100
1687.655	2.214	2213.7	navigation	Trial3	navigation/STIM_006.jpg	99
1692.676	3.478	3478.4	navigation	Trial3	navigation/STIM_006.jpg	100
1699.348	2.112	2112.0	navigation	Trial3	navigation/STIM_006.jpg	99
1704.211	2.728	2727.6	navigation	Trial3	navigation/STIM_006.jpg	99
1709.425	2.886	2886.0	navigation	Trial3	navigation/STIM_006.jpg	99
1714.858	3.354	3354.3	navigation	Trial3	navigation/STIM_007.jpg	99
1720.462	3.315	3314.7	navigation	Trial3	navigation/STIM_007.jpg	99
1726.931	2.468	2468.2	navigation	Trial3	navigation/STIM_007.jpg	100
1732.448	2.068	2068.4	navigation	Trial3	navigation/STIM_007.jpg	100
1737.727	3.087	3087.1	navigation	Trial3	navigation/STIM_007.jpg	100
1742.971	3.358	3358.3	navigation	Trial3	navigation/STIM_007.jpg	100
1749.318	2.32	2319.8	navigation	Trial3	navigation/STIM_008.jpg	99
1753.966	2.178	2178.4	navigation	Trial3	navigation/STIM_008.jpg	100
1758.574	1.813	1812.7	navigation	Trial3	navigation/STIM_008.jpg	100
1762.936	2.869	2868.7	navigation	Trial3	navigation/STIM_008.jpg	99
1768.304	1.663	1663.1	navigation	Trial3	navigation/STIM_008.jpg	100
1772.323	2.257	2257.0	navigation	Trial3	navigation/STIM_008.jpg	99
1776.876	3.358	3357.7	navigation	Trial3	navigation/STIM_009.jpg	100
1782.733	2.692	2692.4	navigation	Trial3	navigation/STIM_009.jpg	99
1788.039	3.112	3112.2	navigation	Trial3	navigation/STIM_009.jpg	100
1793.437	2.297	2296.9	navigation	Trial3	navigation/STIM_009.jpg	100
1797.908	3.383	3382.8	navigation	Trial3	navigation/STIM_009.jpg	100
1803.402	1.839	1839.2	navigation	Trial3	navigation/STIM_009.jpg	99
1808.492	1.73	1729.9	navigation	Trial3	navigation/STIM_010.jpg	100
1812.25	3.428	3428.0	navigation	Trial3	navigation/STIM_010.jpg	99
1817.721	3.074	3073.9	navigation	Trial3	navigation/STIM_010.jpg	99
1823.467	3.346	3345.8	navigation	Trial3	navigation/STIM_010.jpg	100
1830.259	3.177	3176.6	navigation	Trial3	navigation/STIM_010.jpg	99
1836.256	2.981	2980.9	navigation	Trial3	navigation/STIM_010.jpg	100
1841.925	3.433	3432.6	navigation	Trial3	navigation/STIM_011.jpg	100
1847.713	1.63	1630.2	navigation	Trial3	navigation/STIM_011.jpg	100
1852.584	1.776	1776.3	navigation	Trial3	navigation/STIM_011.jpg	99
1858.343	2.654	2653.8	navigation	Trial3	navigation/STIM_011.jpg	99
1864.067	2.646	2646.4	navigation	Trial3	navigation/STIM_011.jpg	99
1870.367	1.634	1634.5	navigation	Trial3	navigation/STIM_011.jpg	99
1874.931	1.024	1024.4	pointing	Trial3	pointing/STIM_000.jpg	99
1878.931	1.299	1298.8	pointing	Trial3	pointing/STIM_000.jpg	100
1882.779	1.12	1119.6	pointing	Trial3	pointing/STIM_000.jpg	100
1887.148	1.025	1024.7	pointing	Trial3	pointing/STIM_000.jpg	100
1890.638	0.987	987.2	pointing	Trial3	pointing/STIM_000.jpg	99
1894.999	0.963	963.2	pointing	Trial3	pointing/STIM_000.jpg	100
1898.098	1.269	1268.7	pointing	Trial3	pointing/STIM_001.jpg	99
1903.236	0.979	978.7	pointing	Trial3	pointing/STIM_001.jpg	100
1907.196	0.986	986.0	pointing	Trial3	pointing/STIM_001.jpg	100
1910.591	1.398	1398.0	pointing	Trial3	pointing/STIM_001.jpg	99
1915.911	0.972	972.3	pointing	Trial3	pointing/STIM_001.jpg	100
1919.506	1.328	1327.8	pointing	Trial3	pointing/STIM_001.jpg	100
1923.109	0.935	934.9	pointing	Trial3	pointing/STIM_002.jpg	100
1927.803	1.247	1246.8	pointing	Trial3	pointing/STIM_002.jpg	100
1932.223	0.876	876.1	pointing	Trial3	pointing/STIM_002.jpg	99
1936.881	1.498	1497.6	pointing	Trial3	pointing/STIM_002.jpg	99
1941.693	1.508	1507.7	pointing	Trial3	pointing/STIM_002.jpg	99
1946.663	1.102	1102.5	pointing	Trial3	pointing/STIM_002.jpg	100
1950.562	1.076	1076.2	pointing	Trial3	pointing/STIM_003.jpg	100
1955.554	1.035	1035.0	pointing	Trial3	pointing/STIM_003.jpg	100
1959.134	1.477	1477.2	pointing	Trial3	pointing/STIM_003.jpg	99
1963.56	1.256	1255.6	pointing	Trial3	pointing/STIM_003.jpg	100
1967.352	1.369	1369.2	pointing	Trial3	pointing/STIM_003.jpg	100
1971.251	1.534	1534.0	pointing	Trial3	pointing/STIM_003.jpg	100
1975.971	1.365	1364.7	pointing	Trial3	pointing/STIM_004.jpg	100
1980.101	1.278	1278.0	pointing	Trial3	pointing/STIM_004.jpg	100
1985.084	0.974	974.2	pointing	Trial3	pointing/STIM_004.jpg	99
1989.907	1.487	1486.6	pointing	Trial3	pointing/STIM_004.jpg	100
1994.869	1.442	1442.0	pointing	Trial3	pointing/STIM_004.jpg	99
1999.94	1.051	1051.1	pointing	Trial3	pointing/STIM_004.jpg	100
2003.262	1.469	1468.6	pointing	Trial3	pointing/STIM_005.jpg	100
2007.983	1.048	1048.1	pointing	Trial3	pointing/STIM_005.jpg	100
2011.042	1.292	1292.5	pointing	Trial3	pointing/STIM_005.jpg	100
2015.113	1.397	1397.1	pointing	Trial3	pointing/STIM_005.jpg	100
2019.414	0.994	993.9	pointing	Trial3	pointing/STIM_005.jpg	100
2024.342	1.316	1316.3	pointing	Trial3	pointing/STIM_005.jpg	100
2028.355	1.023	1022.6	pointing	Trial3	pointing/STIM_006.jpg	99
2031.946	1.376	1376.1	pointing	Trial3	pointing/STIM_006.jpg	99
2036.222	0.937	937.2	pointing	Trial3	pointing/STIM_006.jpg	100
2039.313	1.09	1090.0	pointing	Trial3	pointing/STIM_006.jpg	100
2043.479	1.217	1217.3	pointing	Trial3	pointing/STIM_006.jpg	99
2046.937	0.857	856.7	pointing	Trial3	pointing/STIM_006.jpg	99
2050.79	1.577	1577.2	pointing	Trial3	pointing/STIM_007.jpg	99
2054.874	1.233	1233.3	pointing	Trial3	pointing/STIM_007.jpg	100
2059.073	1.485	1485.0	pointing	Trial3	pointing/STIM_007.jpg	99
2062.676	1.515	1514.8	pointing	Trial3	pointing/STIM_007.jpg	100
2066.846	1.089	1089.4	pointing	Trial3	pointing/STIM_007.jpg	100
2071.797	1.298	1298.5	pointing	Trial3	pointing/STIM_007.jpg	99
2075.23	1.252	1252.3	pointing	Trial3	pointing/STIM_008.jpg	100
2079.746	1.404	1404.2	pointing	Trial3	pointing/STIM_008.jpg	99
2083.466	1.336	1335.8	pointing	Trial3	pointing/STIM_008.jpg	99
2087.57	1.296	1295.5	pointing	Trial3	pointing/STIM_008.jpg	100
2091.693	1.041	1040.7	pointing	Trial3	pointing/STIM_008.jpg	99
2096.331	1.344	1344.1	pointing	Trial3	pointing/STIM_008.jpg	99
2100.822	1.064	1063.7	pointing	Trial3	pointing/STIM_009.jpg	99
2105.578	0.955	955.0	pointing	Trial3	pointing/STIM_009.jpg	100
2108.915	1.489	1489.3	pointing	Trial3	pointing/STIM_009.jpg	99
2113.224	1.518	1517.9	pointing	Trial3	pointing/STIM_009.jpg	99
2117.255	0.945	945.3	pointing	Trial3	pointing/STIM_009.jpg	100
2120.693	1.501	1500.7	pointing	Trial3	pointing/STIM_009.jpg	99
2125.593	1.424	1424.1	pointing	Trial3	pointing/STIM_010.jpg	99
2130.567	0.924	923.5	pointing	Trial3	pointing/STIM_010.jpg	99
2134.466	1.215	1214.9	pointing	Trial3	pointing/STIM_010.jpg	99
2138.365	1.275	1275.3	pointing	Trial3	pointing/STIM_010.jpg	100
2143.336	1.364	1364.2	pointing	Trial3	pointing/STIM_010.jpg	100
2148.446	0.888	888.0	pointing	Trial3	pointing/STIM_010.jpg	99
2152.433	1.162	1161.6	pointing	Trial3	pointing/STIM_011.jpg	99
2155.843	0.901	901.0	pointing	Trial3	pointing/STIM_011.jpg	100
2159.608	1.173	1172.8	pointing	Trial3	pointing/STIM_011.jpg	100
2163.308	1.193	1193.1	pointing	Trial3	pointing/STIM_011.jpg	99
2168.468	0.947	946.9	pointing	Trial3	pointing/STIM_011.jpg	99
2172.386	1.333	1332.6	pointing	Trial3	pointing/STIM_011.jpg	100
