onset	duration	accuracy_binary	trial_type	learning_stage	stimulus
0.0	1.945	1	regulate	Run1	regulate/STIM_000.jpg
4.759	2.958	1	regulate	Run1	regulate/STIM_000.jpg
11.258	1.351	1	regulate	Run1	regulate/STIM_000.jpg
15.739	2.701	1	regulate	Run1	regulate/STIM_000.jpg
21.769	2.578	0	regulate	Run1	regulate/STIM_001.jpg
26.909	1.866	1	regulate	Run1	regulate/STIM_001.jpg
32.335	2.312	1	regulate	Run1	regulate/STIM_001.jpg
37.726	2.001	1	regulate	Run1	regulate/STIM_001.jpg
41.782	1.812	1	regulate	Run1	regulate/STIM_002.jpg
47.59	2.257	1	regulate	Run1	regulate/STIM_002.jpg
51.893	2.147	1	regulate	Run1	regulate/STIM_002.jpg
57.199	2.286	0	regulate	Run1	regulate/STIM_002.jpg
62.603	2.649	0	regulate	Run1	regulate/STIM_003.jpg
68.356	2.568	1	regulate	Run1	regulate/STIM_003.jpg
73.816	2.691	1	regulate	Run1	regulate/STIM_003.jpg
79.751	2.553	1	regulate	Run1	regulate/STIM_003.jpg
85.403	2.122	1	regulate	Run1	regulate/STIM_004.jpg
91.163	2.95	1	regulate	Run1	regulate/STIM_004.jpg
97.622	2.608	1	regulate	Run1	regulate/STIM_004.jpg
103.925	2.702	1	regulate	Run1	regulate/STIM_004.jpg
109.902	2.647	0	regulate	Run1	regulate/STIM_005.jpg
116.135	2.94	1	regulate	Run1	regulate/STIM_005.jpg
121.756	1.57	1	regulate	Run1	regulate/STIM_005.jpg
127.05	1.32	1	regulate	Run1	regulate/STIM_005.jpg
130.789	2.853	1	regulate	Run1	regulate/STIM_006.jpg
136.785	1.881	0	regulate	Run1	regulate/STIM_006.jpg
141.825	2.037	1	regulate	Run1	regulate/STIM_006.jpg
146.395	2.311	1	regulate	Run1	regulate/STIM_006.jpg
151.063	2.379	1	regulate	Run1	regulate/STIM_007.jpg
156.367	2.088	0	regulate	Run1	regulate/STIM_007.jpg
162.35	2.294	1	regulate	Run1	regulate/STIM_007.jpg
166.992	1.709	1	regulate	Run1	regulate/STIM_007.jpg
172.308	3.061	1	regulate	Run1	regulate/STIM_008.jpg
177.544	3.034	1	regulate	Run1	regulate/STIM_008.jpg
182.882	1.676	1	regulate	Run1	regulate/STIM_008.jpg
188.285	2.626	1	regulate	Run1	regulate/STIM_008.jpg
193.712	1.899	1	regulate	Run1	regulate/STIM_009.jpg
199.252	2.636	0	regulate	Run1	regulate/STIM_009.jpg
204.925	2.68	1	regulate	Run1	regulate/STIM_009.jpg
209.906	1.763	1	regulate	Run1	regulate/STIM_009.jpg
215.353	2.668	1	regulate	Run1	regulate/STIM_010.jpg
221.932	2.429	1	regulate	Run1	regulate/STIM_010.jpg
227.989	1.327	0	regulate	Run1	regulate/STIM_010.jpg
231.825	2.7	1	regulate	Run1	regulate/STIM_010.jpg
237.3	1.594	1	regulate	Run1	regulate/STIM_011.jpg
241.971	2.451	1	regulate	Run1	regulate/STIM_011.jpg
247.007	2.119	0	regulate	Run1	regulate/STIM_011.jpg
252.28	2.149	1	regulate	Run1	regulate/STIM_011.jpg
258.411	2.468	1	regulate	Run1	regulate/STIM_012.jpg
263.075	1.727	1	regulate	Run1	regulate/STIM_012.jpg
268.406	1.694	0	regulate	Run1	regulate/STIM_012.jpg
272.329	2.021	1	regulate	Run1	regulate/STIM_012.jpg
277.054	2.446	1	regulate	Run1	regulate/STIM_013.jpg
282.389	2.242	1	regulate	Run1	regulate/STIM_013.jpg
288.183	1.844	0	regulate	Run1	regulate/STIM_013.jpg
293.437	1.981	1	regulate	Run1	regulate/STIM_013.jpg
298.87	1.82	1	regulate	Run1	regulate/STIM_014.jpg
304.236	1.37	1	regulate	Run1	regulate/STIM_014.jpg
308.047	2.903	0	regulate	Run1	regulate/STIM_014.jpg
313.44	2.283	1	regulate	Run1	regulate/STIM_014.jpg
318.441	2.379	1	regulate	Run1	regulate/STIM_015.jpg
323.465	2.2	1	regulate	Run1	regulate/STIM_015.jpg
328.992	1.642	1	regulate	Run1	regulate/STIM_015.jpg
334.358	1.874	0	regulate	Run1	regulate/STIM_015.jpg
338.462	1.641	0	regulate	Run1	regulate/STIM_016.jpg
342.868	2.499	1	regulate	Run1	regulate/STIM_016.jpg
348.062	2.097	0	regulate	Run1	regulate/STIM_016.jpg
353.841	2.715	0	regulate	Run1	regulate/STIM_016.jpg
360.452	1.632	1	regulate	Run1	regulate/STIM_017.jpg
364.979	2.635	0	regulate	Run1	regulate/STIM_017.jpg
369.97	2.528	1	regulate	Run1	regulate/STIM_017.jpg
374.967	2.734	1	regulate	Run1	regulate/STIM_017.jpg
381.347	1.572	1	regulate	Run1	regulate/STIM_018.jpg
385.945	2.888	1	regulate	Run1	regulate/STIM_018.jpg
391.214	1.624	0	regulate	Run1	regulate/STIM_018.jpg
394.94	2.827	1	regulate	Run1	regulate/STIM_018.jpg
400.824	2.329	0	regulate	Run1	regulate/STIM_019.jpg
405.931	3.059	0	regulate	Run1	regulate/STIM_019.jpg
412.989	2.242	0	regulate	Run1	regulate/STIM_019.jpg
417.927	1.216	1	regulate	Run1	regulate/STIM_019.jpg
423.028	3.303	1	regulate	Run1	regulate/STIM_020.jpg
428.615	2.883	1	regulate	Run1	regulate/STIM_020.jpg
434.105	2.039	1	regulate	Run1	regulate/STIM_020.jpg
438.838	2.203	1	regulate	Run1	regulate/STIM_020.jpg
444.841	2.06	0	regulate	Run1	regulate/STIM_021.jpg
450.802	2.656	0	regulate	Run1	regulate/STIM_021.jpg
456.332	1.457	1	regulate	Run1	regulate/STIM_021.jpg
460.985	2.354	1	regulate	Run1	regulate/STIM_021.jpg
465.365	2.608	1	regulate	Run1	regulate/STIM_022.jpg
470.395	3.03	1	regulate	Run1	regulate/STIM_022.jpg
475.465	2.946	1	regulate	Run1	regulate/STIM_022.jpg
481.908	2.588	1	regulate	Run1	regulate/STIM_022.jpg
488.055	3.185	1	regulate	Run1	regulate/STIM_023.jpg
494.471	1.6	0	regulate	Run1	regulate/STIM_023.jpg
500.015	1.419	0	regulate	Run1	regulate/STIM_023.jpg
504.506	1.551	1	regulate	Run1	regulate/STIM_023.jpg
508.948	1.896	1	regulate	Run1	regulate/STIM_024.jpg
514.434	1.663	1	regulate	Run1	regulate/STIM_024.jpg
518.349	2.504	1	regulate	Run1	regulate/STIM_024.jpg
523.799	2.56	0	regulate	Run1	regulate/STIM_024.jpg
529.133	2.576	1	regulate	Run1	regulate/STIM_025.jpg
533.832	1.84	1	regulate	Run1	regulate/STIM_025.jpg
538.792	1.99	1	regulate	Run1	regulate/STIM_025.jpg
542.988	2.329	1	regulate	Run1	regulate/STIM_025.jpg
547.761	2.244	1	regulate	Run1	regulate/STIM_026.jpg
553.491	2.951	1	regulate	Run1	regulate/STIM_026.jpg
560.405	2.498	0	regulate	Run1	regulate/STIM_026.jpg
565.186	2.182	1	regulate	Run1	regulate/STIM_026.jpg
569.892	3.144	1	regulate	Run1	regulate/STIM_027.jpg
575.868	2.644	1	regulate	Run1	regulate/STIM_027.jpg
582.12	2.164	1	regulate	Run1	regulate/STIM_027.jpg
587.392	2.719	1	regulate	Run1	regulate/STIM_027.jpg
593.754	1.669	1	regulate	Run1	regulate/STIM_028.jpg
598.328	2.384	0	regulate	Run1	regulate/STIM_028.jpg
604.215	1.728	1	regulate	Run1	regulate/STIM_028.jpg
608.744	2.766	1	regulate	Run1	regulate/STIM_028.jpg
613.793	2.595	0	regulate	Run1	regulate/STIM_029.jpg
619.109	2.986	1	regulate	Run1	regulate/STIM_029.jpg
624.254	2.659	1	regulate	Run1	regulate/STIM_029.jpg
630.033	2.834	1	regulate	Run1	regulate/STIM_029.jpg
635.012	0.973	1	observe	Run1	observe/STIM_000.jpg
639.665	1.27	0	observe	Run1	observe/STIM_000.jpg
643.1	1.519	1	observe	Run1	observe/STIM_000.jpg
646.931	0.942	1	observe	Run1	observe/STIM_000.jpg
651.819	1.484	1	observe	Run1	observe/STIM_001.jpg
657.174	1.061	0	observe	Run1	observe/STIM_001.jpg
661.667	1.324	1	observe	Run1	observe/STIM_001.jpg
665.242	1.4	0	observe	Run1	observe/STIM_001.jpg
669.244	0.955	1	observe	Run1	observe/STIM_002.jpg
673.571	1.159	1	observe	Run1	observe/STIM_002.jpg
676.832	0.795	0	observe	Run1	observe/STIM_002.jpg
681.31	1.058	1	observe	Run1	observe/STIM_002.jpg
686.065	1.401	1	observe	Run1	observe/STIM_003.jpg
689.748	1.03	1	observe	Run1	observe/STIM_003.jpg
692.828	0.898	0	observe	Run1	observe/STIM_003.jpg
697.456	1.307	1	observe	Run1	observe/STIM_003.jpg
701.077	1.507	1	observe	Run1	observe/STIM_004.jpg
706.002	0.882	0	observe	Run1	observe/STIM_004.jpg
708.976	1.503	1	observe	Run1	observe/STIM_004.jpg
713.804	1.129	1	observe	Run1	observe/STIM_004.jpg
717.647	0.843	1	observe	Run1	observe/STIM_005.jpg
720.594	1.465	1	observe	Run1	observe/STIM_005.jpg
724.47	1.444	1	observe	Run1	observe/STIM_005.jpg
729.023	1.459	1	observe	Run1	observe/STIM_005.jpg
732.594	1.457	1	observe	Run1	observe/STIM_006.jpg
737.134	1.014	0	observe	Run1	observe/STIM_006.jpg
741.167	0.934	0	observe	Run1	observe/STIM_006.jpg
744.181	1.065	1	observe	Run1	observe/STIM_006.jpg
749.073	1.308	1	observe	Run1	observe/STIM_007.jpg
754.199	0.79	1	observe	Run1	observe/STIM_007.jpg
757.118	1.316	1	observe	Run1	observe/STIM_007.jpg
760.579	0.769	1	observe	Run1	observe/STIM_007.jpg
763.479	1.188	1	observe	Run1	observe/STIM_008.jpg
767.075	0.981	1	observe	Run1	observe/STIM_008.jpg
770.337	0.921	0	observe	Run1	observe/STIM_008.jpg
773.56	0.884	1	observe	Run1	observe/STIM_008.jpg
778.122	0.803	1	observe	Run1	observe/STIM_009.jpg
782.621	0.986	0	observe	Run1	observe/STIM_009.jpg
786.424	1.476	1	observe	Run1	observe/STIM_009.jpg
790.323	0.959	0	observe	Run1	observe/STIM_009.jpg
794.199	0.87	1	observe	Run1	observe/STIM_010.jpg
798.612	0.824	1	observe	Run1	observe/STIM_010.jpg
802.931	1.512	1	observe	Run1	observe/STIM_010.jpg
808.407	1.061	1	observe	Run1	observe/STIM_010.jpg
811.949	1.258	0	observe	Run1	observe/STIM_011.jpg
816.091	0.92	1	observe	Run1	observe/STIM_011.jpg
819.544	1.047	1	observe	Run1	observe/STIM_011.jpg
824.116	1.503	1	observe	Run1	observe/STIM_011.jpg
827.781	1.019	0	observe	Run1	observe/STIM_012.jpg
831.848	1.285	1	observe	Run1	observe/STIM_012.jpg
835.247	1.187	1	observe	Run1	observe/STIM_012.jpg
840.142	1.249	1	observe	Run1	observe/STIM_012.jpg
843.663	0.8	1	observe	Run1	observe/STIM_013.jpg
847.381	1.487	1	observe	Run1	observe/STIM_013.jpg
851.855	0.863	0	observe	Run1	observe/STIM_013.jpg
856.626	0.939	1	observe	Run1	observe/STIM_013.jpg
860.306	0.849	1	observe	Run1	observe/STIM_014.jpg
864.452	1.485	0	observe	Run1	observe/STIM_014.jpg
869.117	0.906	0	observe	Run1	observe/STIM_014.jpg
872.754	1.289	1	observe	Run1	observe/STIM_014.jpg
876.533	1.299	1	observe	Run1	observe/STIM_015.jpg
880.38	1.504	0	observe	Run1	observe/STIM_015.jpg
885.314	0.999	1	observe	Run1	observe/STIM_015.jpg
889.344	1.501	1	observe	Run1	observe/STIM_015.jpg
894.187	1.242	1	observe	Run1	observe/STIM_016.jpg
898.156	0.774	1	observe	Run1	observe/STIM_016.jpg
902.229	0.775	1	observe	Run1	observe/STIM_016.jpg
905.688	1.018	1	observe	Run1	observe/STIM_016.jpg
909.542	0.768	1	observe	Run1	observe/STIM_017.jpg
912.953	0.901	1	observe	Run1	observe/STIM_017.jpg
916.23	0.991	1	observe	Run1	observe/STIM_017.jpg
920.894	0.813	1	observe	Run1	observe/STIM_017.jpg
924.035	0.769	1	observe	Run1	observe/STIM_018.jpg
927.086	1.107	1	observe	Run1	observe/STIM_018.jpg
931.865	0.913	0	observe	Run1	observe/STIM_018.jpg
935.458	1.086	1	observe	Run1	observe/STIM_018.jpg
938.784	0.832	1	observe	Run1	observe/STIM_019.jpg
942.951	1.357	1	observe	Run1	observe/STIM_019.jpg
947.08	1.415	1	observe	Run1	observe/STIM_019.jpg
950.824	1.257	1	observe	Run1	observe/STIM_019.jpg
955.33	2.638	0	regulate	Run2	regulate/STIM_000.jpg
960.865	1.188	1	regulate	Run2	regulate/STIM_000.jpg
964.586	1.573	1	regulate	Run2	regulate/STIM_000.jpg
969.837	1.356	1	regulate	Run2	regulate/STIM_000.jpg
973.313	2.143	1	regulate	Run2	regulate/STIM_001.jpg
978.26	2.625	1	regulate	Run2	regulate/STIM_001.jpg
984.777	1.569	1	regulate	Run2	regulate/STIM_001.jpg
988.968	1.318	1	regulate	Run2	regulate/STIM_001.jpg
993.94	1.644	1	regulate	Run2	regulate/STIM_002.jpg
998.953	2.014	0	regulate	Run2	regulate/STIM_002.jpg
1003.325	2.411	1	regulate	Run2	regulate/STIM_002.jpg
1008.895	1.56	0	regulate	Run2	regulate/STIM_002.jpg
1013.309	2.736	0	regulate	Run2	regulate/STIM_003.jpg
1018.188	1.956	1	regulate	Run2	regulate/STIM_003.jpg
1023.071	2.372	1	regulate	Run2	regulate/STIM_003.jpg
1028.408	1.864	1	regulate	Run2	regulate/STIM_003.jpg
1032.734	1.218	1	regulate	Run2	regulate/STIM_004.jpg
1035.959	1.512	1	regulate	Run2	regulate/STIM_004.jpg
1040.419	2.23	1	regulate	Run2	regulate/STIM_004.jpg
1045.712	1.322	1	regulate	Run2	regulate/STIM_004.jpg
1049.609	2.611	1	regulate	Run2	regulate/STIM_005.jpg
1055.279	2.333	0	regulate	Run2	regulate/STIM_005.jpg
1061.393	1.854	1	regulate	Run2	regulate/STIM_005.jpg
1066.105	2.294	1	regulate	Run2	regulate/STIM_005.jpg
1072.034	1.415	1	regulate	Run2	regulate/STIM_006.jpg
1076.07	2.517	1	regulate	Run2	regulate/STIM_006.jpg
1081.281	2.089	1	regulate	Run2	regulate/STIM_006.jpg
1086.039	1.423	1	regulate	Run2	regulate/STIM_006.jpg
1091.005	1.98	1	regulate	Run2	regulate/STIM_007.jpg
1095.696	2.418	1	regulate	Run2	regulate/STIM_007.jpg
1101.876	1.318	0	regulate	Run2	regulate/STIM_007.jpg
1105.904	1.502	1	regulate	Run2	regulate/STIM_007.jpg
1110.922	1.428	1	regulate	Run2	regulate/STIM_008.jpg
1115.668	2.068	1	regulate	Run2	regulate/STIM_008.jpg
1120.769	2.286	1	regulate	Run2	regulate/STIM_008.jpg
1126.358	1.794	1	regulate	Run2	regulate/STIM_008.jpg
1131.291	1.276	1	regulate	Run2	regulate/STIM_009.jpg
1136.215	1.728	1	regulate	Run2	regulate/STIM_009.jpg
1140.853	1.713	1	regulate	Run2	regulate/STIM_009.jpg
1146.46	1.569	1	regulate	Run2	regulate/STIM_009.jpg
1151.57	2.031	1	regulate	Run2	regulate/STIM_010.jpg
1155.657	1.294	1	regulate	Run2	regulate/STIM_010.jpg
1159.468	1.13	1	regulate	Run2	regulate/STIM_010.jpg
1164.21	1.03	1	regulate	Run2	regulate/STIM_010.jpg
1168.264	1.74	1	regulate	Run2	regulate/STIM_011.jpg
1173.084	2.558	1	regulate	Run2	regulate/STIM_011.jpg
1179.119	1.388	1	regulate	Run2	regulate/STIM_011.jpg
1184.166	1.406	1	regulate	Run2	regulate/STIM_011.jpg
1189.475	2.419	1	regulate	Run2	regulate/STIM_012.jpg
1194.346	2.189	1	regulate	Run2	regulate/STIM_012.jpg
1198.636	1.278	1	regulate	Run2	regulate/STIM_012.jpg
1202.867	1.449	0	regulate	Run2	regulate/STIM_012.jpg
1207.203	1.596	1	regulate	Run2	regulate/STIM_013.jpg
1212.306	1.19	1	regulate	Run2	regulate/STIM_013.jpg
1217.07	2.39	1	regulate	Run2	regulate/STIM_013.jpg
1221.764	1.44	1	regulate	Run2	regulate/STIM_013.jpg
1226.821	2.558	0	regulate	Run2	regulate/STIM_014.jpg
1232.545	2.592	0	regulate	Run2	regulate/STIM_014.jpg
1238.21	1.736	1	regulate	Run2	regulate/STIM_014.jpg
1242.546	1.238	1	regulate	Run2	regulate/STIM_014.jpg
1245.858	2.013	1	regulate	Run2	regulate/STIM_015.jpg
1251.319	2.471	1	regulate	Run2	regulate/STIM_015.jpg
1256.479	1.565	1	regulate	Run2	regulate/STIM_015.jpg
1260.562	1.788	0	regulate	Run2	regulate/STIM_015.jpg
1265.926	1.308	0	regulate	Run2	regulate/STIM_016.jpg
1269.865	1.427	1	regulate	Run2	regulate/STIM_016.jpg
1274.163	1.248	1	regulate	Run2	regulate/STIM_016.jpg
1278.867	1.468	1	regulate	Run2	regulate/STIM_016.jpg
1282.518	1.641	0	regulate	Run2	regulate/STIM_017.jpg
1286.429	2.188	0	regulate	Run2	regulate/STIM_017.jpg
1291.264	1.19	1	regulate	Run2	regulate/STIM_017.jpg
1295.231	1.53	1	regulate	Run2	regulate/STIM_017.jpg
1300.25	2.154	0	regulate	Run2	regulate/STIM_018.jpg
1304.437	1.22	1	regulate	Run2	regulate/STIM_018.jpg
1308.935	1.251	0	regulate	Run2	regulate/STIM_018.jpg
1312.412	2.187	1	regulate	Run2	regulate/STIM_018.jpg
1316.786	1.563	1	regulate	Run2	regulate/STIM_019.jpg
1321.801	2.395	1	regulate	Run2	regulate/STIM_019.jpg
1326.961	1.952	1	regulate	Run2	regulate/STIM_019.jpg
1332.015	1.851	1	regulate	Run2	regulate/STIM_019.jpg
1335.97	1.912	1	regulate	Run2	regulate/STIM_020.jpg
1341.601	2.668	0	regulate	Run2	regulate/STIM_020.jpg
1347.044	2.104	1	regulate	Run2	regulate/STIM_020.jpg
1352.742	1.876	0	regulate	Run2	regulate/STIM_020.jpg
1357.833	2.022	1	regulate	Run2	regulate/STIM_021.jpg
1363.447	2.217	1	regulate	Run2	regulate/STIM_021.jpg
1368.492	1.303	1	regulate	Run2	regulate/STIM_021.jpg
1372.852	1.751	0	regulate	Run2	regulate/STIM_021.jpg
1377.717	2.722	1	regulate	Run2	regulate/STIM_022.jpg
1382.951	2.567	0	regulate	Run2	regulate/STIM_022.jpg
1389.009	2.489	1	regulate	Run2	regulate/STIM_022.jpg
1394.898	1.412	1	regulate	Run2	regulate/STIM_022.jpg
1400.102	1.64	1	regulate	Run2	regulate/STIM_023.jpg
1405.519	1.166	0	regulate	Run2	regulate/STIM_023.jpg
1410.662	2.054	1	regulate	Run2	regulate/STIM_023.jpg
1415.334	1.825	0	regulate	Run2	regulate/STIM_023.jpg
1419.799	2.472	1	regulate	Run2	regulate/STIM_024.jpg
1424.574	1.481	1	regulate	Run2	regulate/STIM_024.jpg
1428.843	1.772	1	regulate	Run2	regulate/STIM_024.jpg
1433.835	2.103	1	regulate	Run2	regulate/STIM_024.jpg
1438.98	2.37	1	regulate	Run2	regulate/STIM_025.jpg
1443.371	2.518	0	regulate	Run2	regulate/STIM_025.jpg
1449.521	1.279	1	regulate	Run2	regulate/STIM_025.jpg
1453.363	2.172	1	regulate	Run2	regulate/STIM_025.jpg
1459.187	1.973	1	regulate	Run2	regulate/STIM_026.jpg
1464.854	2.298	0	regulate	Run2	regulate/STIM_026.jpg
1469.58	1.463	0	regulate	Run2	regulate/STIM_026.jpg
1474.26	1.771	0	regulate	Run2	regulate/STIM_026.jpg
1479.15	2.28	1	regulate	Run2	regulate/STIM_027.jpg
1485.068	1.163	1	regulate	Run2	regulate/STIM_027.jpg
1489.548	1.82	1	regulate	Run2	regulate/STIM_027.jpg
1494.209	1.842	0	regulate	Run2	regulate/STIM_027.jpg
1499.431	2.186	1	regulate	Run2	regulate/STIM_028.jpg
1504.547	2.377	1	regulate	Run2	regulate/STIM_028.jpg
1508.952	1.6	1	regulate	Run2	regulate/STIM_028.jpg
1513.753	1.19	1	regulate	Run2	regulate/STIM_028.jpg
1517.688	1.817	1	regulate	Run2	regulate/STIM_029.jpg
1522.719	2.264	1	regulate	Run2	regulate/STIM_029.jpg
1527.15	1.126	1	regulate	Run2	regulate/STIM_029.jpg
1531.897	1.349	1	regulate	Run2	regulate/STIM_029.jpg
1535.382	1.004	0	observe	Run2	observe/STIM_000.jpg
1538.471	0.955	1	observe	Run2	observe/STIM_000.jpg
1542.096	0.911	1	observe	Run2	observe/STIM_000.jpg
1546.738	0.915	1	observe	Run2	observe/STIM_000.jpg
1550.551	0.999	1	observe	Run2	observe/STIM_001.jpg
1554.505	0.928	1	observe	Run2	observe/STIM_001.jpg
1559.339	1.156	0	observe	Run2	observe/STIM_001.jpg
1563.143	1.083	1	observe	Run2	observe/STIM_001.jpg
1566.421	0.836	1	observe	Run2	observe/STIM_002.jpg
1570.934	1.336	1	observe	Run2	observe/STIM_002.jpg
1574.935	1.235	1	observe	Run2	observe/STIM_002.jpg
1580.097	0.996	0	observe	Run2	observe/STIM_002.jpg
1584.315	1.011	1	observe	Run2	observe/STIM_003.jpg
1588.336	1.198	0	observe	Run2	observe/STIM_003.jpg
1591.737	1.162	1	observe	Run2	observe/STIM_003.jpg
1595.022	1.024	0	observe	Run2	observe/STIM_003.jpg
1598.639	1.402	1	observe	Run2	observe/STIM_004.jpg
1603.243	0.871	0	observe	Run2	observe/STIM_004.jpg
1607.441	1.224	1	observe	Run2	observe/STIM_004.jpg
1611.935	0.816	1	observe	Run2	observe/STIM_004.jpg
1616.209	0.948	0	observe	Run2	observe/STIM_005.jpg
1620.129	1.078	1	observe	Run2	observe/STIM_005.jpg
1623.508	1.506	1	observe	Run2	observe/STIM_005.jpg
1628.327	0.833	1	observe	Run2	observe/STIM_005.jpg
1631.725	1.2	1	observe	Run2	observe/STIM_006.jpg
1634.98	1.187	0	observe	Run2	observe/STIM_006.jpg
1639.451	0.782	0	observe	Run2	observe/STIM_006.jpg
1643.883	1.079	1	observe	Run2	observe/STIM_006.jpg
1647.543	1.036	1	observe	Run2	observe/STIM_007.jpg
1650.985	0.942	1	observe	Run2	observe/STIM_007.jpg
1654.497	1.122	1	observe	Run2	observe/STIM_007.jpg
1659.093	1.174	0	observe	Run2	observe/STIM_007.jpg
1663.071	0.87	1	observe	Run2	observe/STIM_008.jpg
1667.366	0.969	1	observe	Run2	observe/STIM_008.jpg
1670.96	1.232	0	observe	Run2	observe/STIM_008.jpg
1674.894	1.267	1	observe	Run2	observe/STIM_008.jpg
1678.25	1.184	1	observe	Run2	observe/STIM_009.jpg
1682.334	0.996	0	observe	Run2	observe/STIM_009.jpg
1686.919	1.282	1	observe	Run2	observe/STIM_009.jpg
1691.015	1.468	1	observe	Run2	observe/STIM_009.jpg
1694.546	1.02	1	observe	Run2	observe/STIM_010.jpg
1699.402	1.146	0	observe	Run2	observe/STIM_010.jpg
1704.533	1.182	1	observe	Run2	observe/STIM_010.jpg
1708.808	1.375	1	observe	Run2	observe/STIM_010.jpg
1713.627	1.137	1	observe	Run2	observe/STIM_011.jpg
1717.12	1.5	1	observe	Run2	observe/STIM_011.jpg
1721.119	0.849	1	observe	Run2	observe/STIM_011.jpg
1724.863	1.442	0	observe	Run2	observe/STIM_011.jpg
1728.581	1.06	1	observe	Run2	observe/STIM_012.jpg
1732.109	0.795	1	observe	Run2	observe/STIM_012.jpg
1736.391	0.836	1	observe	Run2	observe/STIM_012.jpg
1740.574	1.398	1	observe	Run2	observe/STIM_012.jpg
1745.514	1.472	1	observe	Run2	observe/STIM_013.jpg
1749.813	0.97	0	observe	Run2	observe/STIM_013.jpg
1754.209	1.119	0	observe	Run2	observe/STIM_013.jpg
1758.534	0.849	1	observe	Run2	observe/STIM_013.jpg
1761.481	1.133	1	observe	Run2	observe/STIM_014.jpg
1765.046	0.936	1	observe	Run2	observe/STIM_014.jpg
1768.945	1.002	1	observe	Run2	observe/STIM_014.jpg
1772.46	1.19	1	observe	Run2	observe/STIM_014.jpg
1776.485	0.769	0	observe	Run2	observe/STIM_015.jpg
1780.76	1.439	1	observe	Run2	observe/STIM_015.jpg
1784.257	1.292	1	observe	Run2	observe/STIM_015.jpg
1788.282	1.091	1	observe	Run2	observe/STIM_015.jpg
1792.849	1.045	1	observe	Run2	observe/STIM_016.jpg
1797.824	1.211	1	observe	Run2	observe/STIM_016.jpg
1802.364	1.428	1	observe	Run2	observe/STIM_016.jpg
1806.703	1.052	1	observe	Run2	observe/STIM_016.jpg
1811.237	1.519	1	observe	Run2	observe/STIM_017.jpg
1816.577	0.852	1	observe	Run2	observe/STIM_017.jpg
1821.266	1.192	1	observe	Run2	observe/STIM_017.jpg
1824.733	1.39	1	observe	Run2	observe/STIM_017.jpg
1828.501	1.232	0	observe	Run2	observe/STIM_018.jpg
1832.315	1.115	1	observe	Run2	observe/STIM_018.jpg
1837.384	0.793	1	observe	Run2	observe/STIM_018.jpg
1840.186	1.416	1	observe	Run2	observe/STIM_018.jpg
1845.453	0.772	1	observe	Run2	observe/STIM_019.jpg
1848.235	1.497	1	observe	Run2	observe/STIM_019.jpg
1852.958	1.193	1	observe	Run2	observe/STIM_019.jpg
1857.75	0.962	1	observe	Run2	observe/STIM_019.jpg
1861.232	1.246	1	regulate	Run3	regulate/STIM_000.jpg
1864.777	1.854	1	regulate	Run3	regulate/STIM_000.jpg
1870.306	1.036	1	regulate	Run3	regulate/STIM_000.jpg
1874.133	2.163	1	regulate	Run3	regulate/STIM_000.jpg
1878.961	1.197	1	regulate	Run3	regulate/STIM_001.jpg
1883.372	1.02	1	regulate	Run3	regulate/STIM_001.jpg
1886.491	1.696	0	regulate	Run3	regulate/STIM_001.jpg
1892.079	1.469	1	regulate	Run3	regulate/STIM_001.jpg
1896.431	1.064	1	regulate	Run3	regulate/STIM_002.jpg
1901.279	1.833	1	regulate	Run3	regulate/STIM_002.jpg
1905.914	1.36	1	regulate	Run3	regulate/STIM_002.jpg
1909.811	1.484	1	regulate	Run3	regulate/STIM_002.jpg
1913.718	1.412	0	regulate	Run3	regulate/STIM_003.jpg
1918.517	1.696	1	regulate	Run3	regulate/STIM_003.jpg
1923.426	1.888	1	regulate	Run3	regulate/STIM_003.jpg
1928.444	1.388	1	regulate	Run3	regulate/STIM_003.jpg
1932.987	1.702	1	regulate	Run3	regulate/STIM_004.jpg
1937.211	1.689	1	regulate	Run3	regulate/STIM_004.jpg
1941.106	1.779	1	regulate	Run3	regulate/STIM_004.jpg
1946.128	1.154	1	regulate	Run3	regulate/STIM_004.jpg
1951.056	1.472	1	regulate	Run3	regulate/STIM_005.jpg
1955.901	1.64	1	regulate	Run3	regulate/STIM_005.jpg
1960.274	2.212	1	regulate	Run3	regulate/STIM_005.jpg
1964.568	1.952	1	regulate	Run3	regulate/STIM_005.jpg
1969.478	1.186	1	regulate	Run3	regulate/STIM_006.jpg
1972.753	1.197	1	regulate	Run3	regulate/STIM_006.jpg
1977.796	1.453	1	regulate	Run3	regulate/STIM_006.jpg
1982.093	1.771	0	regulate	Run3	regulate/STIM_006.jpg
1986.75	2.33	1	regulate	Run3	regulate/STIM_007.jpg
1992.863	1.529	1	regulate	Run3	regulate/STIM_007.jpg
1998.052	1.85	1	regulate	Run3	regulate/STIM_007.jpg
2003.304	1.125	1	regulate	Run3	regulate/STIM_007.jpg
2008.137	1.526	1	regulate	Run3	regulate/STIM_008.jpg
2013.622	2.248	1	regulate	Run3	regulate/STIM_008.jpg
2019.579	1.409	1	regulate	Run3	regulate/STIM_008.jpg
2024.334	2.146	1	regulate	Run3	regulate/STIM_008.jpg
2028.869	1.849	1	regulate	Run3	regulate/STIM_009.jpg
2033.576	1.909	1	regulate	Run3	regulate/STIM_009.jpg
2038.444	2.279	1	regulate	Run3	regulate/STIM_009.jpg
2043.179	2.188	1	regulate	Run3	regulate/STIM_009.jpg
2047.555	1.431	1	regulate	Run3	regulate/STIM_010.jpg
2052.905	1.022	1	regulate	Run3	regulate/STIM_010.jpg
2056.464	1.882	1	regulate	Run3	regulate/STIM_010.jpg
2061.683	1.123	1	regulate	Run3	regulate/STIM_010.jpg
2066.436	1.944	1	regulate	Run3	regulate/STIM_011.jpg
2071.003	2.047	1	regulate	Run3	regulate/STIM_011.jpg
2076.289	1.43	1	regulate	Run3	regulate/STIM_011.jpg
2080.374	1.211	1	regulate	Run3	regulate/STIM_011.jpg
2084.472	1.266	1	regulate	Run3	regulate/STIM_012.jpg
2088.065	1.766	0	regulate	Run3	regulate/STIM_012.jpg
2091.921	1.122	1	regulate	Run3	regulate/STIM_012.jpg
2095.975	1.71	1	regulate	Run3	regulate/STIM_012.jpg
2100.769	1.717	1	regulate	Run3	regulate/STIM_013.jpg
2105.839	1.753	0	regulate	Run3	regulate/STIM_013.jpg
2110.215	1.945	1	regulate	Run3	regulate/STIM_013.jpg
2115.367	1.173	1	regulate	Run3	regulate/STIM_013.jpg
2119.582	2.035	1	regulate	Run3	regulate/STIM_014.jpg
2124.405	1.838	1	regulate	Run3	regulate/STIM_014.jpg
2128.593	1.611	1	regulate	Run3	regulate/STIM_014.jpg
2134.028	2.288	1	regulate	Run3	regulate/STIM_014.jpg
2140.098	1.591	1	regulate	Run3	regulate/STIM_015.jpg
2145.541	2.088	1	regulate	Run3	regulate/STIM_015.jpg
2151.475	1.018	1	regulate	Run3	regulate/STIM_015.jpg
2155.174	2.307	1	regulate	Run3	regulate/STIM_015.jpg
2160.807	1.763	1	regulate	Run3	regulate/STIM_016.jpg
2165.695	1.249	1	regulate	Run3	regulate/STIM_016.jpg
2170.764	1.587	1	regulate	Run3	regulate/STIM_016.jpg
2175.729	1.396	1	regulate	Run3	regulate/STIM_016.jpg
2179.454	1.455	1	regulate	Run3	regulate/STIM_017.jpg
2184.782	1.874	1	regulate	Run3	regulate/STIM_017.jpg
2190.06	1.561	1	regulate	Run3	regulate/STIM_017.jpg
2194.705	1.528	1	regulate	Run3	regulate/STIM_017.jpg
2198.346	1.391	1	regulate	Run3	regulate/STIM_018.jpg
2203.35	2.142	1	regulate	Run3	regulate/STIM_018.jpg
2208.117	1.875	1	regulate	Run3	regulate/STIM_018.jpg
2213.329	1.263	1	regulate	Run3	regulate/STIM_018.jpg
2216.647	1.357	1	regulate	Run3	regulate/STIM_019.jpg
2220.976	1.509	0	regulate	Run3	regulate/STIM_019.jpg
2225.77	1.367	1	regulate	Run3	regulate/STIM_019.jpg
2229.586	1.783	1	regulate	Run3	regulate/STIM_019.jpg
2233.624	1.582	1	regulate	Run3	regulate/STIM_020.jpg
2237.976	1.851	1	regulate	Run3	regulate/STIM_020.jpg
2243.556	1.312	1	regulate	Run3	regulate/STIM_020.jpg
2247.546	2.186	1	regulate	Run3	regulate/STIM_020.jpg
2252.924	2.079	1	regulate	Run3	regulate/STIM_021.jpg
2258.895	1.749	0	regulate	Run3	regulate/STIM_021.jpg
2263.258	1.903	1	regulate	Run3	regulate/STIM_021.jpg
2268.825	1.672	1	regulate	Run3	regulate/STIM_021.jpg
2273.968	1.351	0	regulate	Run3	regulate/STIM_022.jpg
2279.036	1.156	1	regulate	Run3	regulate/STIM_022.jpg
2282.626	1.539	1	regulate	Run3	regulate/STIM_022.jpg
2287.676	1.816	1	regulate	Run3	regulate/STIM_022.jpg
2292.514	1.168	1	regulate	Run3	regulate/STIM_023.jpg
2296.717	2.255	1	regulate	Run3	regulate/STIM_023.jpg
2301.478	1.937	1	regulate	Run3	regulate/STIM_023.jpg
2305.659	1.814	1	regulate	Run3	regulate/STIM_023.jpg
2310.193	1.301	1	regulate	Run3	regulate/STIM_024.jpg
2314.085	1.922	1	regulate	Run3	regulate/STIM_024.jpg
2319.105	2.312	1	regulate	Run3	regulate/STIM_024.jpg
2324.907	1.935	1	regulate	Run3	regulate/STIM_024.jpg
2329.914	1.446	0	regulate	Run3	regulate/STIM_025.jpg
2333.502	1.835	1	regulate	Run3	regulate/STIM_025.jpg
2338.255	1.012	0	regulate	Run3	regulate/STIM_025.jpg
2342.57	1.528	1	regulate	Run3	regulate/STIM_025.jpg
2347.697	1.186	1	regulate	Run3	regulate/STIM_026.jpg
2351.061	1.398	0	regulate	Run3	regulate/STIM_026.jpg
2356.18	1.462	1	regulate	Run3	regulate/STIM_026.jpg
2360.51	1.871	1	regulate	Run3	regulate/STIM_026.jpg
2365.314	1.193	1	regulate	Run3	regulate/STIM_027.jpg
2370.373	1.004	1	regulate	Run3	regulate/STIM_027.jpg
2375.307	1.143	0	regulate	Run3	regulate/STIM_027.jpg
2380.395	1.569	1	regulate	Run3	regulate/STIM_027.jpg
2384.126	1.92	0	regulate	Run3	regulate/STIM_028.jpg
2388.058	1.153	1	regulate	Run3	regulate/STIM_028.jpg
2391.745	1.549	1	regulate	Run3	regulate/STIM_028.jpg
2395.801	1.808	1	regulate	Run3	regulate/STIM_028.jpg
2400.425	1.69	1	regulate	Run3	regulate/STIM_029.jpg
2405.462	1.286	1	regulate	Run3	regulate/STIM_029.jpg
2408.98	1.661	1	regulate	Run3	regulate/STIM_029.jpg
2413.104	1.634	1	regulate	Run3	regulate/STIM_029.jpg
2417.169	1.486	1	observe	Run3	observe/STIM_000.jpg
2422.597	0.929	0	observe	Run3	observe/STIM_000.jpg
2426.153	0.941	0	observe	Run3	observe/STIM_000.jpg
2430.368	1.028	0	observe	Run3	observe/STIM_000.jpg
2434.101	0.89	1	observe	Run3	observe/STIM_001.jpg
2437.405	0.797	1	observe	Run3	observe/STIM_001.jpg
2441.531	1.271	0	observe	Run3	observe/STIM_001.jpg
2445.727	1.376	0	observe	Run3	observe/STIM_001.jpg
2449.568	1.335	1	observe	Run3	observe/STIM_002.jpg
2453.994	0.828	1	observe	Run3	observe/STIM_002.jpg
2458.107	0.91	1	observe	Run3	observe/STIM_002.jpg
2461.646	1.31	1	observe	Run3	observe/STIM_002.jpg
2466.659	1.089	1	observe	Run3	observe/STIM_003.jpg
2469.78	1.232	1	observe	Run3	observe/STIM_003.jpg
2474.368	1.082	1	observe	Run3	observe/STIM_003.jpg
2478.716	1.054	1	observe	Run3	observe/STIM_003.jpg
2482.292	0.883	0	observe	Run3	observe/STIM_004.jpg
2485.829	0.962	1	observe	Run3	observe/STIM_004.jpg
2489.299	1.144	1	observe	Run3	observe/STIM_004.jpg
2492.774	1.339	1	observe	Run3	observe/STIM_004.jpg
2497.792	1.32	0	observe	Run3	observe/STIM_005.jpg
2502.318	1.435	1	observe	Run3	observe/STIM_005.jpg
2506.647	1.442	1	observe	Run3	observe/STIM_005.jpg
2511.861	0.855	1	observe	Run3	observe/STIM_005.jpg
2516.056	0.895	1	observe	Run3	observe/STIM_006.jpg
2520.847	1.401	1	observe	Run3	observe/STIM_006.jpg
2526.188	0.87	1	observe	Run3	observe/STIM_006.jpg
2529.898	1.093	1	observe	Run3	observe/STIM_006.jpg
2534.702	1.43	1	observe	Run3	observe/STIM_007.jpg
2539.237	0.922	1	observe	Run3	observe/STIM_007.jpg
2542.931	1.271	1	observe	Run3	observe/STIM_007.jpg
2547.476	1.311	1	observe	Run3	observe/STIM_007.jpg
2550.957	1.402	1	observe	Run3	observe/STIM_008.jpg
2556.265	0.796	1	observe	Run3	observe/STIM_008.jpg
2559.943	1.115	1	observe	Run3	observe/STIM_008.jpg
2563.779	1.016	0	observe	Run3	observe/STIM_008.jpg
2567.615	1.224	1	observe	Run3	observe/STIM_009.jpg
2571.337	1.222	1	observe	Run3	observe/STIM_009.jpg
2574.678	1.114	1	observe	Run3	observe/STIM_009.jpg
2579.568	1.211	1	observe	Run3	observe/STIM_009.jpg
2583.181	0.936	1	observe	Run3	observe/STIM_010.jpg
2587.554	0.881	1	observe	Run3	observe/STIM_010.jpg
2591.285	0.949	1	observe	Run3	observe/STIM_010.jpg
2595.77	1.067	1	observe	Run3	observe/STIM_010.jpg
2599.475	1.156	0	observe	Run3	observe/STIM_011.jpg
2603.546	1.351	0	observe	Run3	observe/STIM_011.jpg
2607.563	0.862	0	observe	Run3	observe/STIM_011.jpg
2611.061	1.2	1	observe	Run3	observe/STIM_011.jpg
2615.983	1.342	1	observe	Run3	observe/STIM_012.jpg
2619.987	1.256	1	observe	Run3	observe/STIM_012.jpg
2623.73	1.311	0	observe	Run3	observe/STIM_012.jpg
2627.507	0.87	1	observe	Run3	observe/STIM_012.jpg
2631.791	1.456	1	observe	Run3	observe/STIM_013.jpg
2636.367	1.374	1	observe	Run3	observe/STIM_013.jpg
2640.48	1.417	1	observe	Run3	observe/STIM_013.jpg
2644.184	1.181	1	observe	Run3	observe/STIM_013.jpg
2649.274	0.94	1	observe	Run3	observe/STIM_014.jpg
2653.696	1.332	1	observe	Run3	observe/STIM_014.jpg
2658.028	1.009	1	observe	Run3	observe/STIM_014.jpg
2661.241	0.936	1	observe	Run3	observe/STIM_014.jpg
2665.679	1.396	1	observe	Run3	observe/STIM_015.jpg
2669.158	1.524	1	observe	Run3	observe/STIM_015.jpg
2673.044	1.271	1	observe	Run3	observe/STIM_015.jpg
2676.477	1.322	1	observe	Run3	observe/STIM_015.jpg
2680.276	0.897	1	observe	Run3	observe/STIM_016.jpg
2683.35	0.79	1	observe	Run3	observe/STIM_016.jpg
2686.734	1.17	1	observe	Run3	observe/STIM_016.jpg
2689.918	1.227	1	observe	Run3	observe/STIM_016.jpg
2694.605	1.293	1	observe	Run3	observe/STIM_017.jpg
2699.115	0.95	1	observe	Run3	observe/STIM_017.jpg
2703.538	1.275	1	observe	Run3	observe/STIM_017.jpg
2708.81	1.309	1	observe	Run3	observe/STIM_017.jpg
2714.059	1.033	1	observe	Run3	observe/STIM_018.jpg
2717.189	0.799	1	observe	Run3	observe/STIM_018.jpg
2721.739	1.329	1	observe	Run3	observe/STIM_018.jpg
2725.402	0.836	1	observe	Run3	observe/STIM_018.jpg
2730.147	1.382	1	observe	Run3	observe/STIM_019.jpg
2735.389	0.923	0	observe	Run3	observe/STIM_019.jpg
2738.396	1.464	1	observe	Run3	observe/STIM_019.jpg
2743.147	0.941	1	observe	Run3	observe/STIM_019.jpg
