onset	duration	response_time_ms	trial_type	learning_stage	stimulus	response_port
0.0	3.431	3431.3	regulate	Run1	regulate/STIM_000.jpg	100
5.331	1.847	1847.3	regulate	Run1	regulate/STIM_000.jpg	100
9.599	2.308	2308.1	regulate	Run1	regulate/STIM_000.jpg	99
14.441	2.396	2395.7	regulate	Run1	regulate/STIM_000.jpg	99
19.517	3.167	3166.8	regulate	Run1	regulate/STIM_001.jpg	100
25.303	3.549	3548.9	regulate	Run1	regulate/STIM_001.jpg	99
31.904	2.87	2870.0	regulate	Run1	regulate/STIM_001.jpg	100
37.135	2.265	2265.0	regulate	Run1	regulate/STIM_001.jpg	99
42.211	2.059	2059.3	regulate	Run1	regulate/STIM_002.jpg	100
47.371	2.611	2611.0	regulate	Run1	regulate/STIM_002.jpg	100
52.722	2.877	2876.8	regulate	Run1	regulate/STIM_002.jpg	99
57.695	1.923	1923.1	regulate	Run1	regulate/STIM_002.jpg	100
63.359	2.764	2763.5	regulate	Run1	regulate/STIM_003.jpg	100
68.042	1.568	1568.5	regulate	Run1	regulate/STIM_003.jpg	99
71.599	1.725	1725.0	regulate	Run1	regulate/STIM_003.jpg	99
75.559	2.009	2009.2	regulate	Run1	regulate/STIM_003.jpg	100
79.671	3.042	3042.0	regulate	Run1	regulate/STIM_004.jpg	99
86.479	1.528	1527.5	regulate	Run1	regulate/STIM_004.jpg	99
90.566	2.187	2187.2	regulate	Run1	regulate/STIM_004.jpg	100
96.552	1.488	1487.6	regulate	Run1	regulate/STIM_004.jpg	99
101.767	2.752	2751.7	regulate	Run1	regulate/STIM_005.jpg	100
106.664	2.711	2710.6	regulate	Run1	regulate/STIM_005.jpg	100
111.472	3.254	3253.7	regulate	Run1	regulate/STIM_005.jpg	99
117.806	1.77	1770.2	regulate	Run1	regulate/STIM_005.jpg	100
122.529	2.955	2955.0	regulate	Run1	regulate/STIM_006.jpg	100
128.336	2.137	2137.1	regulate	Run1	regulate/STIM_006.jpg	100
133.613	1.804	1804.0	regulate	Run1	regulate/STIM_006.jpg	100
139.002	3.063	3063.3	regulate	Run1	regulate/STIM_006.jpg	100
145.334	3.026	3025.6	regulate	Run1	regulate/STIM_007.jpg	100
150.298	1.6	1600.4	regulate	Run1	regulate/STIM_007.jpg	100
154.031	2.446	2446.0	regulate	Run1	regulate/STIM_007.jpg	100
159.001	2.658	2657.7	regulate	Run1	regulate/STIM_007.jpg	99
164.832	2.693	2693.1	regulate	Run1	regulate/STIM_008.jpg	100
171.132	2.078	2078.4	regulate	Run1	regulate/STIM_008.jpg	100
175.574	1.561	1560.9	regulate	Run1	regulate/STIM_008.jpg	99
179.805	1.387	1387.4	regulate	Run1	regulate/STIM_008.jpg	100
183.159	1.978	1978.2	regulate	Run1	regulate/STIM_009.jpg	99
187.838	2.832	2832.4	regulate	Run1	regulate/STIM_009.jpg	100
193.282	2.758	2758.3	regulate	Run1	regulate/STIM_009.jpg	100
197.952	1.719	1719.0	regulate	Run1	regulate/STIM_009.jpg	99
201.896	2.93	2929.6	regulate	Run1	regulate/STIM_010.jpg	99
207.553	1.853	1853.0	regulate	Run1	regulate/STIM_010.jpg	99
213.009	2.934	2934.0	regulate	Run1	regulate/STIM_010.jpg	99
218.354	1.455	1454.7	regulate	Run1	regulate/STIM_010.jpg	99
223.551	2.314	2314.0	regulate	Run1	regulate/STIM_011.jpg	100
229.598	2.729	2728.9	regulate	Run1	regulate/STIM_011.jpg	99
235.137	2.986	2985.6	regulate	Run1	regulate/STIM_011.jpg	100
241.673	1.566	1566.5	regulate	Run1	regulate/STIM_011.jpg	100
245.433	2.514	2513.9	regulate	Run1	regulate/STIM_012.jpg	99
250.159	2.463	2462.6	regulate	Run1	regulate/STIM_012.jpg	100
255.752	2.779	2779.2	regulate	Run1	regulate/STIM_012.jpg	100
262.086	2.92	2919.6	regulate	Run1	regulate/STIM_012.jpg	99
266.856	3.66	3660.3	regulate	Run1	regulate/STIM_013.jpg	100
273.573	1.574	1573.9	regulate	Run1	regulate/STIM_013.jpg	100
278.605	2.637	2636.8	regulate	Run1	regulate/STIM_013.jpg	99
283.933	1.776	1775.6	regulate	Run1	regulate/STIM_013.jpg	100
288.525	2.096	2095.9	regulate	Run1	regulate/STIM_014.jpg	100
294.065	3.441	3440.7	regulate	Run1	regulate/STIM_014.jpg	99
299.518	1.802	1802.3	regulate	Run1	regulate/STIM_014.jpg	99
304.22	2.683	2682.6	regulate	Run1	regulate/STIM_014.jpg	100
310.72	2.099	2099.1	regulate	Run1	regulate/STIM_015.jpg	99
316.305	2.404	2404.2	regulate	Run1	regulate/STIM_015.jpg	99
321.285	2.44	2439.7	regulate	Run1	regulate/STIM_015.jpg	100
325.768	1.926	1926.3	regulate	Run1	regulate/STIM_015.jpg	99
330.182	2.012	2011.8	regulate	Run1	regulate/STIM_016.jpg	100
335.013	1.584	1583.9	regulate	Run1	regulate/STIM_016.jpg	100
339.873	2.924	2924.1	regulate	Run1	regulate/STIM_016.jpg	100
345.51	1.405	1405.4	regulate	Run1	regulate/STIM_016.jpg	99
350.062	2.932	2931.9	regulate	Run1	regulate/STIM_017.jpg	100
355.213	3.018	3017.5	regulate	Run1	regulate/STIM_017.jpg	99
360.393	2.242	2241.6	regulate	Run1	regulate/STIM_017.jpg	99
365.806	2.25	2250.3	regulate	Run1	regulate/STIM_017.jpg	99
370.114	3.225	3225.1	regulate	Run1	regulate/STIM_018.jpg	100
375.246	3.26	3260.0	regulate	Run1	regulate/STIM_018.jpg	100
382.083	2.899	2899.2	regulate	Run1	regulate/STIM_018.jpg	100
388.748	1.372	1371.8	regulate	Run1	regulate/STIM_018.jpg	100
393.315	3.522	3522.5	regulate	Run1	regulate/STIM_019.jpg	99
399.275	3.333	3333.2	regulate	Run1	regulate/STIM_019.jpg	99
404.757	2.305	2305.4	regulate	Run1	regulate/STIM_019.jpg	99
409.533	2.584	2583.5	regulate	Run1	regulate/STIM_019.jpg	100
415.403	2.23	2230.4	regulate	Run1	regulate/STIM_020.jpg	99
420.157	2.722	2722.3	regulate	Run1	regulate/STIM_020.jpg	100
426.468	2.162	2162.5	regulate	Run1	regulate/STIM_020.jpg	99
430.837	1.509	1509.3	regulate	Run1	regulate/STIM_020.jpg	99
435.077	2.688	2687.7	regulate	Run1	regulate/STIM_021.jpg	100
441.438	2.222	2221.8	regulate	Run1	regulate/STIM_021.jpg	99
446.194	3.111	3110.7	regulate	Run1	regulate/STIM_021.jpg	99
451.814	2.467	2467.3	regulate	Run1	regulate/STIM_021.jpg	99
457.495	2.265	2264.6	regulate	Run1	regulate/STIM_022.jpg	100
461.713	3.015	3014.7	regulate	Run1	regulate/STIM_022.jpg	99
466.929	1.474	1473.6	regulate	Run1	regulate/STIM_022.jpg	99
471.651	1.753	1752.9	regulate	Run1	regulate/STIM_022.jpg	99
475.678	2.493	2493.0	regulate	Run1	regulate/STIM_023.jpg	100
480.921	2.809	2809.2	regulate	Run1	regulate/STIM_023.jpg	99
487.196	1.975	1974.6	regulate	Run1	regulate/STIM_023.jpg	99
492.013	1.451	1451.2	regulate	Run1	regulate/STIM_023.jpg	99
495.756	1.995	1994.8	regulate	Run1	regulate/STIM_024.jpg	100
500.57	3.377	3377.3	regulate	Run1	regulate/STIM_024.jpg	100
507.038	3.268	3268.4	regulate	Run1	regulate/STIM_024.jpg	100
513.643	1.887	1886.7	regulate	Run1	regulate/STIM_024.jpg	100
518.544	1.8	1800.4	regulate	Run1	regulate/STIM_025.jpg	100
523.706	1.715	1714.8	regulate	Run1	regulate/STIM_025.jpg	100
527.666	3.095	3095.4	regulate	Run1	regulate/STIM_025.jpg	100
533.825	2.732	2732.0	regulate	Run1	regulate/STIM_025.jpg	100
540.139	2.693	2693.4	regulate	Run1	regulate/STIM_026.jpg	100
546.333	3.18	3179.9	regulate	Run1	regulate/STIM_026.jpg	100
552.396	2.954	2953.8	regulate	Run1	regulate/STIM_026.jpg	100
558.126	2.152	2152.3	regulate	Run1	regulate/STIM_026.jpg	100
562.841	1.913	1913.3	regulate	Run1	regulate/STIM_027.jpg	100
567.628	3.302	3302.4	regulate	Run1	regulate/STIM_027.jpg	99
573.745	2.446	2446.0	regulate	Run1	regulate/STIM_027.jpg	99
579.424	1.532	1531.6	regulate	Run1	regulate/STIM_027.jpg	99
584.856	2.72	2719.5	regulate	Run1	regulate/STIM_028.jpg	99
590.483	2.557	2557.2	regulate	Run1	regulate/STIM_028.jpg	99
596.135	3.121	3121.0	regulate	Run1	regulate/STIM_028.jpg	100
602.171	2.397	2397.1	regulate	Run1	regulate/STIM_028.jpg	99
608.187	3.568	3568.1	regulate	Run1	regulate/STIM_029.jpg	99
614.292	1.91	1910.3	regulate	Run1	regulate/STIM_029.jpg	100
618.596	2.405	2405.3	regulate	Run1	regulate/STIM_029.jpg	99
623.971	2.312	2312.3	regulate	Run1	regulate/STIM_029.jpg	100
629.071	1.648	1648.5	observe	Run1	observe/STIM_000.jpg	99
633.353	1.04	1039.7	observe	Run1	observe/STIM_000.jpg	99
638.143	1.008	1008.2	observe	Run1	observe/STIM_000.jpg	100
641.728	1.342	1341.9	observe	Run1	observe/STIM_000.jpg	100
644.994	1.496	1496.1	observe	Run1	observe/STIM_001.jpg	100
649.224	1.165	1165.0	observe	Run1	observe/STIM_001.jpg	99
653.753	1.444	1443.8	observe	Run1	observe/STIM_001.jpg	99
658.518	1.68	1679.6	observe	Run1	observe/STIM_001.jpg	100
664.069	1.641	1640.8	observe	Run1	observe/STIM_002.jpg	99
668.832	1.469	1468.8	observe	Run1	observe/STIM_002.jpg	100
673.627	1.517	1516.8	observe	Run1	observe/STIM_002.jpg	100
677.685	1.647	1647.4	observe	Run1	observe/STIM_002.jpg	100
681.451	1.248	1247.8	observe	Run1	observe/STIM_003.jpg	100
685.56	1.468	1468.2	observe	Run1	observe/STIM_003.jpg	99
689.088	1.315	1315.2	observe	Run1	observe/STIM_003.jpg	99
693.754	1.165	1165.2	observe	Run1	observe/STIM_003.jpg	100
697.699	1.558	1558.3	observe	Run1	observe/STIM_004.jpg	99
701.949	0.928	928.5	observe	Run1	observe/STIM_004.jpg	99
706.71	0.889	889.0	observe	Run1	observe/STIM_004.jpg	100
709.689	1.604	1603.5	observe	Run1	observe/STIM_004.jpg	100
713.355	1.069	1069.1	observe	Run1	observe/STIM_005.jpg	100
716.861	1.64	1640.0	observe	Run1	observe/STIM_005.jpg	100
721.338	1.652	1651.8	observe	Run1	observe/STIM_005.jpg	99
725.973	1.253	1253.1	observe	Run1	observe/STIM_005.jpg	99
729.743	1.314	1314.4	observe	Run1	observe/STIM_006.jpg	100
733.991	1.568	1567.6	observe	Run1	observe/STIM_006.jpg	100
738.412	1.464	1464.0	observe	Run1	observe/STIM_006.jpg	99
743.646	1.124	1124.4	observe	Run1	observe/STIM_006.jpg	100
747.389	1.358	1358.4	observe	Run1	observe/STIM_007.jpg	100
751.47	1.614	1613.8	observe	Run1	observe/STIM_007.jpg	99
756.844	1.538	1537.7	observe	Run1	observe/STIM_007.jpg	99
760.76	1.094	1094.3	observe	Run1	observe/STIM_007.jpg	100
765.413	1.578	1578.1	observe	Run1	observe/STIM_008.jpg	99
770.679	1.602	1601.5	observe	Run1	observe/STIM_008.jpg	99
775.26	1.225	1225.1	observe	Run1	observe/STIM_008.jpg	100
780.382	0.859	859.2	observe	Run1	observe/STIM_008.jpg	100
784.354	1.456	1456.1	observe	Run1	observe/STIM_009.jpg	100
787.787	1.098	1097.7	observe	Run1	observe/STIM_009.jpg	99
791.889	1.253	1253.0	observe	Run1	observe/STIM_009.jpg	100
796.97	1.538	1537.8	observe	Run1	observe/STIM_009.jpg	99
801.258	1.128	1127.6	observe	Run1	observe/STIM_010.jpg	100
805.25	0.99	990.1	observe	Run1	observe/STIM_010.jpg	100
809.658	1.296	1295.9	observe	Run1	observe/STIM_010.jpg	100
813.186	1.081	1081.4	observe	Run1	observe/STIM_010.jpg	100
816.967	1.347	1346.6	observe	Run1	observe/STIM_011.jpg	100
821.025	1.191	1191.0	observe	Run1	observe/STIM_011.jpg	99
825.225	1.516	1516.5	observe	Run1	observe/STIM_011.jpg	99
829.572	0.911	910.7	observe	Run1	observe/STIM_011.jpg	100
833.56	1.116	1115.7	observe	Run1	observe/STIM_012.jpg	100
838.488	1.081	1081.4	observe	Run1	observe/STIM_012.jpg	99
842.856	1.451	1450.9	observe	Run1	observe/STIM_012.jpg	100
846.37	1.353	1353.3	observe	Run1	observe/STIM_012.jpg	99
851.412	1.654	1654.1	observe	Run1	observe/STIM_013.jpg	100
856.101	0.966	966.2	observe	Run1	observe/STIM_013.jpg	99
860.011	1.544	1543.9	observe	Run1	observe/STIM_013.jpg	100
863.71	1.654	1653.5	observe	Run1	observe/STIM_013.jpg	99
867.963	1.115	1115.1	observe	Run1	observe/STIM_014.jpg	99
871.315	0.894	893.8	observe	Run1	observe/STIM_014.jpg	99
874.25	0.961	960.9	observe	Run1	observe/STIM_014.jpg	99
878.606	1.45	1450.3	observe	Run1	observe/STIM_014.jpg	99
883.326	1.122	1122.0	observe	Run1	observe/STIM_015.jpg	100
886.659	1.594	1593.5	observe	Run1	observe/STIM_015.jpg	100
892.104	1.233	1233.2	observe	Run1	observe/STIM_015.jpg	100
896.027	1.552	1552.0	observe	Run1	observe/STIM_015.jpg	100
901.378	1.659	1658.6	observe	Run1	observe/STIM_016.jpg	99
906.874	0.862	862.2	observe	Run1	observe/STIM_016.jpg	100
910.719	1.139	1139.0	observe	Run1	observe/STIM_016.jpg	100
914.248	0.858	858.2	observe	Run1	observe/STIM_016.jpg	100
918.833	1.482	1481.5	observe	Run1	observe/STIM_017.jpg	99
922.973	1.351	1350.7	observe	Run1	observe/STIM_017.jpg	100
927.541	1.07	1070.1	observe	Run1	observe/STIM_017.jpg	99
931.68	0.861	860.9	observe	Run1	observe/STIM_017.jpg	100
935.619	1.178	1177.9	observe	Run1	observe/STIM_018.jpg	100
940.034	1.547	1546.6	observe	Run1	observe/STIM_018.jpg	100
945.128	1.587	1587.2	observe	Run1	observe/STIM_018.jpg	99
950.44	1.092	1092.4	observe	Run1	observe/STIM_018.jpg	99
953.922	0.863	863.1	observe	Run1	observe/STIM_019.jpg	100
957.294	1.403	1403.0	observe	Run1	observe/STIM_019.jpg	100
962.035	1.005	1005.3	observe	Run1	observe/STIM_019.jpg	100
965.446	0.93	929.7	observe	Run1	observe/STIM_019.jpg	100
968.497	2.466	2465.6	regulate	Run2	regulate/STIM_000.jpg	100
973.008	1.592	1591.6	regulate	Run2	regulate/STIM_000.jpg	100
976.511	1.688	1688.0	regulate	Run2	regulate/STIM_000.jpg	99
981.099	1.324	1323.6	regulate	Run2	regulate/STIM_000.jpg	100
985.2	2.551	2550.7	regulate	Run2	regulate/STIM_001.jpg	100
990.291	2.213	2213.2	regulate	Run2	regulate/STIM_001.jpg	100
994.91	1.698	1697.6	regulate	Run2	regulate/STIM_001.jpg	99
999.773	1.555	1555.0	regulate	Run2	regulate/STIM_001.jpg	99
1003.778	1.698	1698.2	regulate	Run2	regulate/STIM_002.jpg	99
1008.103	2.929	2929.2	regulate	Run2	regulate/STIM_002.jpg	100
1013.523	1.869	1868.6	regulate	Run2	regulate/STIM_002.jpg	100
1018.685	1.486	1486.3	regulate	Run2	regulate/STIM_002.jpg	100
1023.438	2.736	2736.3	regulate	Run2	regulate/STIM_003.jpg	100
1028.948	2.443	2442.8	regulate	Run2	regulate/STIM_003.jpg	100
1035.092	1.345	1344.7	regulate	Run2	regulate/STIM_003.jpg	100
1039.92	2.284	2283.5	regulate	Run2	regulate/STIM_003.jpg	99
1044.504	1.77	1770.5	regulate	Run2	regulate/STIM_004.jpg	99
1048.659	1.396	1395.9	regulate	Run2	regulate/STIM_004.jpg	100
1052.186	2.397	2396.8	regulate	Run2	regulate/STIM_004.jpg	100
1057.463	2.103	2103.1	regulate	Run2	regulate/STIM_004.jpg	100
1062.119	1.982	1981.5	regulate	Run2	regulate/STIM_005.jpg	99
1066.472	1.48	1480.4	regulate	Run2	regulate/STIM_005.jpg	100
1071.798	2.001	2001.1	regulate	Run2	regulate/STIM_005.jpg	100
1077.481	1.427	1427.3	regulate	Run2	regulate/STIM_005.jpg	99
1081.604	2.093	2092.8	regulate	Run2	regulate/STIM_006.jpg	99
1087.381	2.541	2541.1	regulate	Run2	regulate/STIM_006.jpg	100
1092.189	1.227	1226.7	regulate	Run2	regulate/STIM_006.jpg	99
1096.673	1.245	1245.0	regulate	Run2	regulate/STIM_006.jpg	100
1101.206	1.418	1418.2	regulate	Run2	regulate/STIM_007.jpg	100
1104.908	2.15	2150.2	regulate	Run2	regulate/STIM_007.jpg	100
1110.152	2.099	2099.1	regulate	Run2	regulate/STIM_007.jpg	100
1115.293	1.991	1990.9	regulate	Run2	regulate/STIM_007.jpg	100
1120.662	1.693	1693.4	regulate	Run2	regulate/STIM_008.jpg	99
1125.55	2.29	2290.1	regulate	Run2	regulate/STIM_008.jpg	99
1130.194	1.625	1624.6	regulate	Run2	regulate/STIM_008.jpg	99
1135.421	1.764	1764.5	regulate	Run2	regulate/STIM_008.jpg	99
1140.908	1.602	1601.5	regulate	Run2	regulate/STIM_009.jpg	99
1145.76	2.176	2176.1	regulate	Run2	regulate/STIM_009.jpg	99
1151.336	2.73	2730.4	regulate	Run2	regulate/STIM_009.jpg	99
1157.613	1.24	1240.0	regulate	Run2	regulate/STIM_009.jpg	100
1162.756	2.072	2071.6	regulate	Run2	regulate/STIM_010.jpg	99
1167.516	1.773	1772.9	regulate	Run2	regulate/STIM_010.jpg	100
1171.76	2.323	2323.3	regulate	Run2	regulate/STIM_010.jpg	100
1177.926	1.613	1612.6	regulate	Run2	regulate/STIM_010.jpg	99
1183.299	2.23	2230.0	regulate	Run2	regulate/STIM_011.jpg	99
1188.764	2.434	2434.1	regulate	Run2	regulate/STIM_011.jpg	99
1193.441	2.639	2639.3	regulate	Run2	regulate/STIM_011.jpg	99
1198.8	2.311	2310.6	regulate	Run2	regulate/STIM_011.jpg	99
1204.675	2.958	2957.8	regulate	Run2	regulate/STIM_012.jpg	100
1209.488	2.502	2501.7	regulate	Run2	regulate/STIM_012.jpg	99
1214.205	1.27	1270.1	regulate	Run2	regulate/STIM_012.jpg	99
1217.481	1.617	1616.8	regulate	Run2	regulate/STIM_012.jpg	100
1222.167	1.977	1976.6	regulate	Run2	regulate/STIM_013.jpg	99
1226.637	1.966	1966.2	regulate	Run2	regulate/STIM_013.jpg	99
1230.73	1.693	1693.3	regulate	Run2	regulate/STIM_013.jpg	99
1236.178	1.557	1557.2	regulate	Run2	regulate/STIM_013.jpg	100
1240.494	2.602	2601.7	regulate	Run2	regulate/STIM_014.jpg	100
1245.393	2.37	2369.9	regulate	Run2	regulate/STIM_014.jpg	100
1249.938	2.548	2547.6	regulate	Run2	regulate/STIM_014.jpg	100
1255.794	1.548	1548.2	regulate	Run2	regulate/STIM_014.jpg	100
1260.736	2.168	2168.0	regulate	Run2	regulate/STIM_015.jpg	100
1265.218	1.823	1823.3	regulate	Run2	regulate/STIM_015.jpg	100
1270.549	1.756	1756.4	regulate	Run2	regulate/STIM_015.jpg	99
1276.054	2.237	2237.3	regulate	Run2	regulate/STIM_015.jpg	99
1280.709	2.12	2119.6	regulate	Run2	regulate/STIM_016.jpg	99
1284.918	2.798	2797.7	regulate	Run2	regulate/STIM_016.jpg	99
1289.911	1.771	1771.3	regulate	Run2	regulate/STIM_016.jpg	100
1294.112	1.71	1710.0	regulate	Run2	regulate/STIM_016.jpg	99
1297.83	2.212	2212.0	regulate	Run2	regulate/STIM_017.jpg	99
1301.977	2.628	2627.5	regulate	Run2	regulate/STIM_017.jpg	100
1307.44	2.068	2067.7	regulate	Run2	regulate/STIM_017.jpg	99
1313.223	2.423	2423.1	regulate	Run2	regulate/STIM_017.jpg	100
1317.66	1.666	1666.0	regulate	Run2	regulate/STIM_018.jpg	99
1323.123	1.643	1642.6	regulate	Run2	regulate/STIM_018.jpg	100
1328.471	1.81	1809.5	regulate	Run2	regulate/STIM_018.jpg	100
1333.373	1.341	1341.2	regulate	Run2	regulate/STIM_018.jpg	100
1338.245	2.041	2041.1	regulate	Run2	regulate/STIM_019.jpg	99
1344.138	1.915	1914.6	regulate	Run2	regulate/STIM_019.jpg	99
1348.494	2.232	2231.8	regulate	Run2	regulate/STIM_019.jpg	100
1354.163	1.718	1718.4	regulate	Run2	regulate/STIM_019.jpg	100
1358.102	1.732	1731.6	regulate	Run2	regulate/STIM_020.jpg	99
1362.704	2.387	2386.7	regulate	Run2	regulate/STIM_020.jpg	99
1367.927	1.222	1221.8	regulate	Run2	regulate/STIM_020.jpg	99
1372.662	2.57	2569.9	regulate	Run2	regulate/STIM_020.jpg	100
1377.597	2.308	2308.3	regulate	Run2	regulate/STIM_021.jpg	100
1383.133	1.667	1667.2	regulate	Run2	regulate/STIM_021.jpg	100
1387.115	2.334	2333.6	regulate	Run2	regulate/STIM_021.jpg	99
1391.727	1.13	1129.7	regulate	Run2	regulate/STIM_021.jpg	99
1395.535	3.158	3158.3	regulate	Run2	regulate/STIM_022.jpg	99
1400.958	2.504	2504.4	regulate	Run2	regulate/STIM_022.jpg	99
1405.675	1.97	1969.9	regulate	Run2	regulate/STIM_022.jpg	99
1410.936	1.814	1813.9	regulate	Run2	regulate/STIM_022.jpg	99
1415.999	1.444	1444.1	regulate	Run2	regulate/STIM_023.jpg	99
1420.054	1.31	1309.5	regulate	Run2	regulate/STIM_023.jpg	100
1424.582	1.726	1726.2	regulate	Run2	regulate/STIM_023.jpg	99
1430.08	1.904	1903.7	regulate	Run2	regulate/STIM_023.jpg	100
1434.598	2.791	2790.9	regulate	Run2	regulate/STIM_024.jpg	99
1439.97	2.015	2015.0	regulate	Run2	regulate/STIM_024.jpg	99
1445.661	1.549	1549.0	regulate	Run2	regulate/STIM_024.jpg	99
1450.435	2.469	2469.3	regulate	Run2	regulate/STIM_024.jpg	100
1456.454	1.423	1422.9	regulate	Run2	regulate/STIM_025.jpg	100
1460.372	2.06	2059.5	regulate	Run2	regulate/STIM_025.jpg	100
1466.277	1.574	1573.5	regulate	Run2	regulate/STIM_025.jpg	99
1471.708	1.47	1470.4	regulate	Run2	regulate/STIM_025.jpg	100
1475.266	2.845	2845.4	regulate	Run2	regulate/STIM_026.jpg	100
1481.673	1.754	1754.1	regulate	Run2	regulate/STIM_026.jpg	99
1485.841	2.589	2589.4	regulate	Run2	regulate/STIM_026.jpg	100
1490.282	2.429	2428.8	regulate	Run2	regulate/STIM_026.jpg	100
1494.598	1.792	1791.9	regulate	Run2	regulate/STIM_027.jpg	99
1499.009	1.737	1737.4	regulate	Run2	regulate/STIM_027.jpg	99
1503.68	1.602	1602.2	regulate	Run2	regulate/STIM_027.jpg	99
1508.269	1.431	1431.3	regulate	Run2	regulate/STIM_027.jpg	99
1511.717	2.609	2609.2	regulate	Run2	regulate/STIM_028.jpg	99
1518.091	1.742	1742.5	regulate	Run2	regulate/STIM_028.jpg	99
1522.229	2.741	2741.2	regulate	Run2	regulate/STIM_028.jpg	100
1527.886	1.688	1688.2	regulate	Run2	regulate/STIM_028.jpg	100
1531.467	2.03	2030.3	regulate	Run2	regulate/STIM_029.jpg	99
1535.435	2.332	2332.3	regulate	Run2	regulate/STIM_029.jpg	100
1539.95	1.99	1989.8	regulate	Run2	regulate/STIM_029.jpg	100
1544.887	1.47	1470.1	regulate	Run2	regulate/STIM_029.jpg	99
1549.682	1.174	1174.4	observe	Run2	observe/STIM_000.jpg	100
1553.63	1.699	1699.1	observe	Run2	observe/STIM_000.jpg	99
1559.084	1.557	1557.0	observe	Run2	observe/STIM_000.jpg	100
1564.503	1.624	1623.7	observe	Run2	observe/STIM_000.jpg	99
1568.59	0.886	886.2	observe	Run2	observe/STIM_001.jpg	100
1572.044	0.919	918.7	observe	Run2	observe/STIM_001.jpg	99
1575.354	0.897	896.9	observe	Run2	observe/STIM_001.jpg	100
1578.671	1.079	1078.9	observe	Run2	observe/STIM_001.jpg	99
1583.095	1.042	1042.5	observe	Run2	observe/STIM_002.jpg	99
1586.096	1.499	1499.2	observe	Run2	observe/STIM_002.jpg	100
1590.982	1.114	1114.4	observe	Run2	observe/STIM_002.jpg	99
1594.196	1.405	1405.2	observe	Run2	observe/STIM_002.jpg	99
1599.306	1.701	1701.0	observe	Run2	observe/STIM_003.jpg	100
1604.124	1.327	1326.6	observe	Run2	observe/STIM_003.jpg	100
1608.721	1.244	1244.4	observe	Run2	observe/STIM_003.jpg	100
1612.445	1.282	1282.5	observe	Run2	observe/STIM_003.jpg	100
1616.805	1.452	1451.5	observe	Run2	observe/STIM_004.jpg	100
1621.78	1.118	1117.9	observe	Run2	observe/STIM_004.jpg	100
1626.263	1.052	1051.6	observe	Run2	observe/STIM_004.jpg	100
1630.364	1.147	1146.6	observe	Run2	observe/STIM_004.jpg	100
1633.456	1.219	1219.3	observe	Run2	observe/STIM_005.jpg	100
1636.847	1.514	1513.8	observe	Run2	observe/STIM_005.jpg	100
1641.581	1.014	1013.5	observe	Run2	observe/STIM_005.jpg	100
1644.713	1.462	1461.7	observe	Run2	observe/STIM_005.jpg	100
1649.647	1.452	1451.9	observe	Run2	observe/STIM_006.jpg	99
1654.629	0.966	965.6	observe	Run2	observe/STIM_006.jpg	99
1658.792	1.192	1191.9	observe	Run2	observe/STIM_006.jpg	100
1662.757	0.92	920.5	observe	Run2	observe/STIM_006.jpg	100
1666.641	1.014	1013.9	observe	Run2	observe/STIM_007.jpg	100
1671.441	1.159	1158.7	observe	Run2	observe/STIM_007.jpg	100
1675.635	1.648	1648.4	observe	Run2	observe/STIM_007.jpg	99
1679.607	1.449	1449.2	observe	Run2	observe/STIM_007.jpg	100
1684.065	0.993	993.2	observe	Run2	observe/STIM_008.jpg	100
1688.155	1.702	1701.7	observe	Run2	observe/STIM_008.jpg	100
1692.737	1.297	1297.2	observe	Run2	observe/STIM_008.jpg	99
1697.331	1.052	1051.6	observe	Run2	observe/STIM_008.jpg	99
1700.549	1.708	1707.9	observe	Run2	observe/STIM_009.jpg	99
1705.529	1.142	1141.7	observe	Run2	observe/STIM_009.jpg	99
1709.917	1.2	1199.5	observe	Run2	observe/STIM_009.jpg	100
1713.935	0.923	923.2	observe	Run2	observe/STIM_009.jpg	100
1718.471	1.59	1590.1	observe	Run2	observe/STIM_010.jpg	100
1723.765	1.645	1644.8	observe	Run2	observe/STIM_010.jpg	100
1729.045	0.914	914.0	observe	Run2	observe/STIM_010.jpg	100
1733.46	0.899	899.1	observe	Run2	observe/STIM_010.jpg	100
1738.041	0.899	899.3	observe	Run2	observe/STIM_011.jpg	100
1742.293	0.865	864.9	observe	Run2	observe/STIM_011.jpg	99
1745.642	0.885	884.8	observe	Run2	observe/STIM_011.jpg	100
1749.846	1.122	1121.5	observe	Run2	observe/STIM_011.jpg	99
1753.965	1.327	1327.3	observe	Run2	observe/STIM_012.jpg	100
1758.923	1.488	1488.4	observe	Run2	observe/STIM_012.jpg	100
1764.161	0.9	899.6	observe	Run2	observe/STIM_012.jpg	99
1767.077	1.466	1465.7	observe	Run2	observe/STIM_012.jpg	99
1770.831	1.172	1171.6	observe	Run2	observe/STIM_013.jpg	99
1775.819	0.877	876.9	observe	Run2	observe/STIM_013.jpg	99
1779.584	1.124	1124.3	observe	Run2	observe/STIM_013.jpg	99
1783.816	1.68	1680.5	observe	Run2	observe/STIM_013.jpg	100
1788.359	1.428	1427.7	observe	Run2	observe/STIM_014.jpg	100
1792.589	1.217	1216.7	observe	Run2	observe/STIM_014.jpg	99
1796.796	1.351	1351.4	observe	Run2	observe/STIM_014.jpg	100
1800.277	1.534	1533.7	observe	Run2	observe/STIM_014.jpg	100
1804.969	1.597	1597.1	observe	Run2	observe/STIM_015.jpg	99
1808.562	1.15	1150.0	observe	Run2	observe/STIM_015.jpg	99
1811.911	1.045	1044.9	observe	Run2	observe/STIM_015.jpg	100
1816.857	1.627	1627.1	observe	Run2	observe/STIM_015.jpg	100
1822.248	1.214	1214.5	observe	Run2	observe/STIM_016.jpg	100
1825.668	0.983	982.6	observe	Run2	observe/STIM_016.jpg	100
1828.709	1.639	1639.3	observe	Run2	observe/STIM_016.jpg	99
1833.598	1.531	1531.2	observe	Run2	observe/STIM_016.jpg	99
1838.351	1.082	1081.6	observe	Run2	observe/STIM_017.jpg	99
1842.615	1.648	1647.9	observe	Run2	observe/STIM_017.jpg	100
1847.942	0.965	964.9	observe	Run2	observe/STIM_017.jpg	99
1852.185	1.094	1094.0	observe	Run2	observe/STIM_017.jpg	100
1855.665	0.885	884.8	observe	Run2	observe/STIM_018.jpg	100
1859.75	0.987	987.2	observe	Run2	observe/STIM_018.jpg	100
1864.631	1.166	1166.0	observe	Run2	observe/STIM_018.jpg	100
1867.937	1.503	1502.6	observe	Run2	observe/STIM_018.jpg	99
1873.158	0.95	950.5	observe	Run2	observe/STIM_019.jpg	100
1876.723	1.245	1245.1	observe	Run2	observe/STIM_019.jpg	99
1881.162	1.443	1442.7	observe	Run2	observe/STIM_019.jpg	100
1885.919	1.518	1518.2	observe	Run2	observe/STIM_019.jpg	100
1890.855	2.553	2552.7	regulate	Run3	regulate/STIM_000.jpg	99
1895.776	1.192	1191.9	regulate	Run3	regulate/STIM_000.jpg	99
1900.023	1.178	1178.5	regulate	Run3	regulate/STIM_000.jpg	99
1905.012	1.715	1715.3	regulate	Run3	regulate/STIM_000.jpg	99
1909.465	1.382	1382.2	regulate	Run3	regulate/STIM_001.jpg	100
1913.358	1.198	1198.2	regulate	Run3	regulate/STIM_001.jpg	99
1917.584	1.951	1951.1	regulate	Run3	regulate/STIM_001.jpg	100
1922.841	1.627	1627.3	regulate	Run3	regulate/STIM_001.jpg	100
1928.338	1.716	1716.3	regulate	Run3	regulate/STIM_002.jpg	99
1932.669	2.41	2409.5	regulate	Run3	regulate/STIM_002.jpg	99
1937.953	2.431	2430.7	regulate	Run3	regulate/STIM_002.jpg	99
1943.734	1.456	1455.8	regulate	Run3	regulate/STIM_002.jpg	100
1947.475	2.071	2071.0	regulate	Run3	regulate/STIM_003.jpg	99
1952.35	2.426	2425.6	regulate	Run3	regulate/STIM_003.jpg	99
1957.503	1.451	1450.9	regulate	Run3	regulate/STIM_003.jpg	99
1961.889	1.602	1601.7	regulate	Run3	regulate/STIM_003.jpg	100
1967.007	2.559	2559.2	regulate	Run3	regulate/STIM_004.jpg	100
1972.735	1.4	1400.5	regulate	Run3	regulate/STIM_004.jpg	99
1977.832	2.098	2097.8	regulate	Run3	regulate/STIM_004.jpg	99
1982.989	2.095	2095.0	regulate	Run3	regulate/STIM_004.jpg	100
1987.465	2.549	2549.2	regulate	Run3	regulate/STIM_005.jpg	99
1993.003	2.102	2102.0	regulate	Run3	regulate/STIM_005.jpg	99
1997.829	1.522	1522.0	regulate	Run3	regulate/STIM_005.jpg	100
2002.881	2.289	2289.1	regulate	Run3	regulate/STIM_005.jpg	99
2007.918	1.651	1651.4	regulate	Run3	regulate/STIM_006.jpg	100
2012.076	1.239	1238.7	regulate	Run3	regulate/STIM_006.jpg	99
2016.701	1.404	1404.0	regulate	Run3	regulate/STIM_006.jpg	99
2020.357	2.345	2344.6	regulate	Run3	regulate/STIM_006.jpg	100
2026.09	2.212	2211.8	regulate	Run3	regulate/STIM_007.jpg	100
2031.507	1.612	1611.9	regulate	Run3	regulate/STIM_007.jpg	100
2035.187	1.373	1373.0	regulate	Run3	regulate/STIM_007.jpg	100
2039.729	2.547	2547.2	regulate	Run3	regulate/STIM_007.jpg	100
2044.546	1.456	1456.4	regulate	Run3	regulate/STIM_008.jpg	100
2049.2	1.864	1863.9	regulate	Run3	regulate/STIM_008.jpg	99
2053.248	2.412	2412.4	regulate	Run3	regulate/STIM_008.jpg	99
2058.613	2.483	2482.9	regulate	Run3	regulate/STIM_008.jpg	99
2064.097	1.64	1640.1	regulate	Run3	regulate/STIM_009.jpg	100
2068.32	1.574	1574.5	regulate	Run3	regulate/STIM_009.jpg	99
2072.496	1.634	1634.5	regulate	Run3	regulate/STIM_009.jpg	100
2076.609	2.172	2172.0	regulate	Run3	regulate/STIM_009.jpg	100
2082.19	1.247	1247.1	regulate	Run3	regulate/STIM_010.jpg	100
2085.499	2.289	2288.9	regulate	Run3	regulate/STIM_010.jpg	100
2090.525	1.442	1441.9	regulate	Run3	regulate/STIM_010.jpg	100
2095.06	1.127	1126.7	regulate	Run3	regulate/STIM_010.jpg	100
2099.864	1.752	1752.3	regulate	Run3	regulate/STIM_011.jpg	100
2103.903	1.989	1988.9	regulate	Run3	regulate/STIM_011.jpg	100
2108.083	2.225	2224.7	regulate	Run3	regulate/STIM_011.jpg	100
2114.029	1.173	1173.1	regulate	Run3	regulate/STIM_011.jpg	100
2118.032	2.149	2149.1	regulate	Run3	regulate/STIM_012.jpg	99
2123.333	2.497	2496.8	regulate	Run3	regulate/STIM_012.jpg	100
2128.573	1.131	1130.7	regulate	Run3	regulate/STIM_012.jpg	100
2133.599	2.261	2261.3	regulate	Run3	regulate/STIM_012.jpg	100
2138.11	1.748	1747.8	regulate	Run3	regulate/STIM_013.jpg	100
2143.43	1.557	1556.8	regulate	Run3	regulate/STIM_013.jpg	100
2147.803	1.985	1984.9	regulate	Run3	regulate/STIM_013.jpg	99
2152.147	1.472	1471.9	regulate	Run3	regulate/STIM_013.jpg	99
2156.45	1.378	1377.5	regulate	Run3	regulate/STIM_014.jpg	99
2160.686	1.951	1951.1	regulate	Run3	regulate/STIM_014.jpg	100
2166.156	2.221	2220.8	regulate	Run3	regulate/STIM_014.jpg	99
2170.467	1.966	1965.9	regulate	Run3	regulate/STIM_014.jpg	100
2176.205	1.202	1202.1	regulate	Run3	regulate/STIM_015.jpg	99
2179.618	2.291	2290.6	regulate	Run3	regulate/STIM_015.jpg	100
2184.596	1.459	1459.0	regulate	Run3	regulate/STIM_015.jpg	100
2189.151	1.783	1782.8	regulate	Run3	regulate/STIM_015.jpg	99
2193.964	1.531	1530.7	regulate	Run3	regulate/STIM_016.jpg	99
2198.811	1.198	1198.5	regulate	Run3	regulate/STIM_016.jpg	99
2203.861	1.931	1931.2	regulate	Run3	regulate/STIM_016.jpg	100
2208.422	1.504	1504.1	regulate	Run3	regulate/STIM_016.jpg	100
2213.161	1.508	1508.3	regulate	Run3	regulate/STIM_017.jpg	99
2217.034	1.585	1584.6	regulate	Run3	regulate/STIM_017.jpg	99
2222.167	1.912	1912.1	regulate	Run3	regulate/STIM_017.jpg	99
2227.403	1.562	1561.9	regulate	Run3	regulate/STIM_017.jpg	100
2231.068	2.248	2247.8	regulate	Run3	regulate/STIM_018.jpg	99
2236.551	2.211	2211.0	regulate	Run3	regulate/STIM_018.jpg	100
2240.654	1.801	1800.9	regulate	Run3	regulate/STIM_018.jpg	100
2244.939	2.172	2172.5	regulate	Run3	regulate/STIM_018.jpg	99
2250.652	2.387	2387.3	regulate	Run3	regulate/STIM_019.jpg	99
2255.882	1.971	1970.7	regulate	Run3	regulate/STIM_019.jpg	99
2260.129	2.431	2430.8	regulate	Run3	regulate/STIM_019.jpg	99
2265.598	2.471	2471.1	regulate	Run3	regulate/STIM_019.jpg	99
2270.261	2.335	2335.1	regulate	Run3	regulate/STIM_020.jpg	99
2274.664	1.535	1534.8	regulate	Run3	regulate/STIM_020.jpg	100
2279.812	2.347	2347.0	regulate	Run3	regulate/STIM_020.jpg	99
2284.498	2.216	2216.3	regulate	Run3	regulate/STIM_020.jpg	99
2288.763	2.432	2431.7	regulate	Run3	regulate/STIM_021.jpg	100
2294.356	1.285	1284.6	regulate	Run3	regulate/STIM_021.jpg	99
2298.335	2.127	2127.4	regulate	Run3	regulate/STIM_021.jpg	100
2303.113	2.573	2573.2	regulate	Run3	regulate/STIM_021.jpg	100
2308.853	2.05	2050.4	regulate	Run3	regulate/STIM_022.jpg	99
2313.032	2.461	2461.4	regulate	Run3	regulate/STIM_022.jpg	100
2317.94	1.545	1544.8	regulate	Run3	regulate/STIM_022.jpg	99
2323.099	1.478	1478.4	regulate	Run3	regulate/STIM_022.jpg	100
2327.495	1.233	1233.1	regulate	Run3	regulate/STIM_023.jpg	99
2331.495	1.71	1710.4	regulate	Run3	regulate/STIM_023.jpg	99
2336.275	1.574	1573.9	regulate	Run3	regulate/STIM_023.jpg	99
2339.885	2.603	2603.4	regulate	Run3	regulate/STIM_023.jpg	99
2344.705	1.444	1444.5	regulate	Run3	regulate/STIM_024.jpg	99
2349.289	1.205	1205.3	regulate	Run3	regulate/STIM_024.jpg	99
2354.068	1.357	1357.1	regulate	Run3	regulate/STIM_024.jpg	100
2357.506	1.743	1742.8	regulate	Run3	regulate/STIM_024.jpg	100
2361.414	1.558	1558.4	regulate	Run3	regulate/STIM_025.jpg	100
2365.495	1.142	1142.0	regulate	Run3	regulate/STIM_025.jpg	100
2368.643	1.461	1460.9	regulate	Run3	regulate/STIM_025.jpg	99
2373.713	1.398	1398.5	regulate	Run3	regulate/STIM_025.jpg	99
2378.919	1.732	1732.4	regulate	Run3	regulate/STIM_026.jpg	99
2383.69	1.721	1720.8	regulate	Run3	regulate/STIM_026.jpg	100
2388.652	1.809	1808.7	regulate	Run3	regulate/STIM_026.jpg	100
2392.399	2.178	2178.0	regulate	Run3	regulate/STIM_026.jpg	100
2397.02	1.672	1672.2	regulate	Run3	regulate/STIM_027.jpg	100
2401.569	1.184	1183.6	regulate	Run3	regulate/STIM_027.jpg	99
2405.938	2.351	2351.0	regulate	Run3	regulate/STIM_027.jpg	100
2412.108	1.392	1392.0	regulate	Run3	regulate/STIM_027.jpg	100
2417.398	2.336	2335.7	regulate	Run3	regulate/STIM_028.jpg	99
2422.748	1.72	1719.6	regulate	Run3	regulate/STIM_028.jpg	100
2427.279	1.935	1934.8	regulate	Run3	regulate/STIM_028.jpg	99
2431.797	1.822	1821.9	regulate	Run3	regulate/STIM_028.jpg	100
2437.32	2.424	2423.7	regulate	Run3	regulate/STIM_029.jpg	100
2441.782	1.856	1856.5	regulate	Run3	regulate/STIM_029.jpg	99
2445.742	1.558	1558.2	regulate	Run3	regulate/STIM_029.jpg	99
2449.745	1.423	1422.6	regulate	Run3	regulate/STIM_029.jpg	100
2454.906	1.231	1231.1	observe	Run3	observe/STIM_000.jpg	99
2459.322	1.435	1435.3	observe	Run3	observe/STIM_000.jpg	99
2463.991	1.613	1612.6	observe	Run3	observe/STIM_000.jpg	100
2469.073	1.636	1636.1	observe	Run3	observe/STIM_000.jpg	100
2473.922	0.984	983.5	observe	Run3	observe/STIM_001.jpg	100
2478.095	1.242	1242.1	observe	Run3	observe/STIM_001.jpg	99
2482.508	1.132	1132.3	observe	Run3	observe/STIM_001.jpg	100
2487.253	1.092	1091.9	observe	Run3	observe/STIM_001.jpg	99
2490.397	1.668	1668.2	observe	Run3	observe/STIM_002.jpg	100
2494.123	1.029	1028.9	observe	Run3	observe/STIM_002.jpg	100
2498.225	1.422	1422.5	observe	Run3	observe/STIM_002.jpg	99
2502.492	0.892	891.7	observe	Run3	observe/STIM_002.jpg	100
2505.949	1.313	1312.9	observe	Run3	observe/STIM_003.jpg	99
2510.941	1.318	1318.4	observe	Run3	observe/STIM_003.jpg	100
2515.134	0.97	970.0	observe	Run3	observe/STIM_003.jpg	99
2518.904	0.978	978.5	observe	Run3	observe/STIM_003.jpg	100
2522.277	1.129	1128.6	observe	Run3	observe/STIM_004.jpg	100
2526.95	1.583	1582.7	observe	Run3	observe/STIM_004.jpg	100
2532.306	0.871	871.4	observe	Run3	observe/STIM_004.jpg	99
2535.159	1.259	1259.2	observe	Run3	observe/STIM_004.jpg	100
2539.86	0.881	881.1	observe	Run3	observe/STIM_005.jpg	100
2543.483	1.092	1091.5	observe	Run3	observe/STIM_005.jpg	100
2547.345	1.628	1628.0	observe	Run3	observe/STIM_005.jpg	100
2552.822	0.938	937.9	observe	Run3	observe/STIM_005.jpg	99
2556.267	1.63	1630.0	observe	Run3	observe/STIM_006.jpg	99
2560.728	1.081	1080.6	observe	Run3	observe/STIM_006.jpg	99
2564.832	1.106	1106.4	observe	Run3	observe/STIM_006.jpg	100
2567.989	1.337	1337.2	observe	Run3	observe/STIM_006.jpg	100
2572.71	1.572	1572.4	observe	Run3	observe/STIM_007.jpg	100
2577.131	0.994	993.6	observe	Run3	observe/STIM_007.jpg	100
2580.343	0.947	946.8	observe	Run3	observe/STIM_007.jpg	99
2583.286	0.884	883.8	observe	Run3	observe/STIM_007.jpg	100
2586.672	1.044	1043.9	observe	Run3	observe/STIM_008.jpg	100
2591.36	1.086	1085.8	observe	Run3	observe/STIM_008.jpg	99
2595.521	0.967	966.6	observe	Run3	observe/STIM_008.jpg	99
2600.115	1.236	1235.9	observe	Run3	observe/STIM_008.jpg	99
2603.53	1.584	1584.5	observe	Run3	observe/STIM_009.jpg	100
2607.807	0.887	887.3	observe	Run3	observe/STIM_009.jpg	99
2612.015	1.404	1403.6	observe	Run3	observe/STIM_009.jpg	99
2615.724	1.342	1341.5	observe	Run3	observe/STIM_009.jpg	99
2619.188	1.2	1200.1	observe	Run3	observe/STIM_010.jpg	100
2623.248	1.659	1659.4	observe	Run3	observe/STIM_010.jpg	99
2627.139	1.417	1417.0	observe	Run3	observe/STIM_010.jpg	99
2632.038	1.374	1373.5	observe	Run3	observe/STIM_010.jpg	100
2637.308	1.442	1442.2	observe	Run3	observe/STIM_011.jpg	99
2640.871	1.493	1493.1	observe	Run3	observe/STIM_011.jpg	99
2646.148	1.511	1510.6	observe	Run3	observe/STIM_011.jpg	99
2650.761	0.89	890.4	observe	Run3	observe/STIM_011.jpg	100
2653.629	0.856	856.3	observe	Run3	observe/STIM_012.jpg	100
2656.951	1.096	1096.2	observe	Run3	observe/STIM_012.jpg	99
2660.288	1.243	1243.0	observe	Run3	observe/STIM_012.jpg	100
2665.294	1.295	1295.2	observe	Run3	observe/STIM_012.jpg	100
2670.288	1.146	1145.9	observe	Run3	observe/STIM_013.jpg	99
2674.487	0.902	901.5	observe	Run3	observe/STIM_013.jpg	99
2677.827	1.411	1410.9	observe	Run3	observe/STIM_013.jpg	99
2681.32	0.89	890.3	observe	Run3	observe/STIM_013.jpg	99
2684.189	1.669	1668.7	observe	Run3	observe/STIM_014.jpg	99
2689.708	1.188	1188.3	observe	Run3	observe/STIM_014.jpg	99
2693.811	1.082	1081.6	observe	Run3	observe/STIM_014.jpg	100
2698.565	1.591	1590.8	observe	Run3	observe/STIM_014.jpg	99
2703.338	1.668	1667.8	observe	Run3	observe/STIM_015.jpg	99
2708.808	1.68	1679.6	observe	Run3	observe/STIM_015.jpg	100
2714.123	0.996	996.2	observe	Run3	observe/STIM_015.jpg	99
2717.847	0.963	962.6	observe	Run3	observe/STIM_015.jpg	100
2722.451	1.637	1636.6	observe	Run3	observe/STIM_016.jpg	99
2726.309	1.533	1533.0	observe	Run3	observe/STIM_016.jpg	99
2731.242	1.126	1125.7	observe	Run3	observe/STIM_016.jpg	99
2734.858	1.456	1456.0	observe	Run3	observe/STIM_016.jpg	100
2739.131	1.709	1708.9	observe	Run3	observe/STIM_017.jpg	100
2743.991	1.205	1205.0	observe	Run3	observe/STIM_017.jpg	99
2748.237	0.877	877.4	observe	Run3	observe/STIM_017.jpg	100
2751.575	1.61	1609.7	observe	Run3	observe/STIM_017.jpg	99
2756.51	1.105	1104.6	observe	Run3	observe/STIM_018.jpg	99
2760.703	0.939	938.7	observe	Run3	observe/STIM_018.jpg	100
2765.443	0.928	927.7	observe	Run3	observe/STIM_018.jpg	100
2769.93	1.102	1102.3	observe	Run3	observe/STIM_018.jpg	100
2773.673	1.529	1528.8	observe	Run3	observe/STIM_019.jpg	100
2777.955	1.074	1073.9	observe	Run3	observe/STIM_019.jpg	99
2782.908	1.122	1122.1	observe	Run3	observe/STIM_019.jpg	100
2786.856	1.168	1168.2	observe	Run3	observe/STIM_019.jpg	100
