onset	duration	response_time_ms	trial_type	learning_stage	stimulus	response_port
0.0	1.34	1340.0	2back	Block1	2back/STIM_000.jpg	100
5.09	0.831	831.0	2back	Block1	2back/STIM_000.jpg	99
9.795	1.342	1341.9	2back	Block1	2back/STIM_000.jpg	100
13.253	1.325	1325.0	2back	Block1	2back/STIM_001.jpg	99
17.151	1.118	1117.5	2back	Block1	2back/STIM_001.jpg	99
21.367	0.954	953.7	2back	Block1	2back/STIM_001.jpg	99
25.334	1.1	1100.3	2back	Block1	2back/STIM_002.jpg	99
30.312	1.337	1336.8	2back	Block1	2back/STIM_002.jpg	100
35.209	0.975	975.0	2back	Block1	2back/STIM_002.jpg	100
40.163	1.163	1162.7	2back	Block1	2back/STIM_003.jpg	99
44.133	0.832	832.5	2back	Block1	2back/STIM_003.jpg	100
48.862	1.0	999.7	2back	Block1	2back/STIM_003.jpg	100
52.638	1.31	1310.3	2back	Block1	2back/STIM_004.jpg	100
56.921	1.249	1249.4	2back	Block1	2back/STIM_004.jpg	100
60.387	0.872	872.1	2back	Block1	2back/STIM_004.jpg	99
63.932	0.942	941.9	2back	Block1	2back/STIM_005.jpg	99
68.556	1.362	1361.8	2back	Block1	2back/STIM_005.jpg	99
73.336	1.155	1155.0	2back	Block1	2back/STIM_005.jpg	99
77.827	1.634	1634.2	2back	Block1	2back/STIM_006.jpg	100
83.394	1.558	1557.9	2back	Block1	2back/STIM_006.jpg	99
88.226	0.838	838.1	2back	Block1	2back/STIM_006.jpg	100
92.563	1.435	1434.8	2back	Block1	2back/STIM_007.jpg	99
96.356	0.765	765.1	2back	Block1	2back/STIM_007.jpg	99
99.55	1.014	1014.2	2back	Block1	2back/STIM_007.jpg	100
103.738	1.654	1653.6	2back	Block1	2back/STIM_008.jpg	99
107.404	1.347	1346.6	2back	Block1	2back/STIM_008.jpg	99
110.768	0.66	659.6	2back	Block1	2back/STIM_008.jpg	99
113.912	0.782	782.5	2back	Block1	2back/STIM_009.jpg	100
117.479	1.572	1572.2	2back	Block1	2back/STIM_009.jpg	99
121.772	0.656	656.4	2back	Block1	2back/STIM_009.jpg	99
125.12	0.767	767.2	2back	Block1	2back/STIM_010.jpg	99
128.992	0.796	795.6	2back	Block1	2back/STIM_010.jpg	100
132.571	1.202	1201.8	2back	Block1	2back/STIM_010.jpg	100
137.577	1.607	1607.2	2back	Block1	2back/STIM_011.jpg	100
142.72	0.937	937.0	2back	Block1	2back/STIM_011.jpg	99
147.406	0.983	983.4	2back	Block1	2back/STIM_011.jpg	100
151.782	1.643	1642.7	2back	Block1	2back/STIM_012.jpg	99
157.348	1.113	1113.3	2back	Block1	2back/STIM_012.jpg	99
160.886	1.207	1207.4	2back	Block1	2back/STIM_012.jpg	100
164.185	1.281	1281.0	2back	Block1	2back/STIM_013.jpg	99
168.048	1.038	1037.9	2back	Block1	2back/STIM_013.jpg	99
172.201	0.701	700.8	2back	Block1	2back/STIM_013.jpg	100
176.582	1.471	1471.2	2back	Block1	2back/STIM_014.jpg	100
181.84	1.36	1360.5	2back	Block1	2back/STIM_014.jpg	100
185.861	0.993	993.3	2back	Block1	2back/STIM_014.jpg	99
189.779	0.847	846.8	2back	Block1	2back/STIM_015.jpg	99
193.064	0.71	710.4	2back	Block1	2back/STIM_015.jpg	100
197.101	0.969	969.2	2back	Block1	2back/STIM_015.jpg	99
201.991	0.762	762.0	2back	Block1	2back/STIM_016.jpg	100
206.667	1.232	1232.1	2back	Block1	2back/STIM_016.jpg	99
210.929	1.081	1081.2	2back	Block1	2back/STIM_016.jpg	100
214.783	1.324	1323.9	2back	Block1	2back/STIM_017.jpg	99
218.492	1.245	1244.9	2back	Block1	2back/STIM_017.jpg	99
222.629	0.751	750.7	2back	Block1	2back/STIM_017.jpg	99
225.397	1.531	1530.8	2back	Block1	2back/STIM_018.jpg	100
229.204	1.259	1258.7	2back	Block1	2back/STIM_018.jpg	100
234.009	0.776	776.0	2back	Block1	2back/STIM_018.jpg	99
238.283	1.384	1383.7	2back	Block1	2back/STIM_019.jpg	100
243.521	0.918	918.4	2back	Block1	2back/STIM_019.jpg	99
248.266	1.462	1462.5	2back	Block1	2back/STIM_019.jpg	99
253.575	1.508	1508.1	2back	Block1	2back/STIM_020.jpg	100
258.786	0.97	969.7	2back	Block1	2back/STIM_020.jpg	99
261.996	0.941	940.9	2back	Block1	2back/STIM_020.jpg	99
265.801	1.168	1167.5	2back	Block1	2back/STIM_021.jpg	99
270.944	0.892	892.0	2back	Block1	2back/STIM_021.jpg	100
274.466	1.286	1286.2	2back	Block1	2back/STIM_021.jpg	99
277.816	0.937	937.4	2back	Block1	2back/STIM_022.jpg	99
281.449	1.277	1276.8	2back	Block1	2back/STIM_022.jpg	99
286.213	1.163	1163.3	2back	Block1	2back/STIM_022.jpg	100
290.801	1.568	1568.3	2back	Block1	2back/STIM_023.jpg	100
295.392	0.946	945.9	2back	Block1	2back/STIM_023.jpg	100
298.409	1.442	1442.0	2back	Block1	2back/STIM_023.jpg	100
301.945	0.808	807.9	2back	Block1	2back/STIM_024.jpg	99
305.238	1.226	1226.5	2back	Block1	2back/STIM_024.jpg	99
309.057	1.319	1318.8	2back	Block1	2back/STIM_024.jpg	100
314.37	1.659	1659.3	2back	Block1	2back/STIM_025.jpg	99
318.349	0.852	851.9	2back	Block1	2back/STIM_025.jpg	99
321.661	0.903	903.1	2back	Block1	2back/STIM_025.jpg	100
324.712	1.404	1403.6	2back	Block1	2back/STIM_026.jpg	99
328.154	0.83	830.1	2back	Block1	2back/STIM_026.jpg	99
331.552	0.73	730.5	2back	Block1	2back/STIM_026.jpg	99
335.587	1.101	1100.8	2back	Block1	2back/STIM_027.jpg	100
339.294	0.956	956.3	2back	Block1	2back/STIM_027.jpg	100
343.48	1.505	1504.9	2back	Block1	2back/STIM_027.jpg	100
347.476	0.998	997.9	2back	Block1	2back/STIM_028.jpg	99
351.577	1.057	1056.7	2back	Block1	2back/STIM_028.jpg	100
355.892	1.187	1186.8	2back	Block1	2back/STIM_028.jpg	99
359.589	1.434	1434.1	2back	Block1	2back/STIM_029.jpg	99
364.838	1.209	1209.2	2back	Block1	2back/STIM_029.jpg	100
368.391	1.126	1126.3	2back	Block1	2back/STIM_029.jpg	100
371.843	1.533	1532.7	2back	Block1	2back/STIM_030.jpg	99
375.953	0.867	866.6	2back	Block1	2back/STIM_030.jpg	99
379.562	1.306	1305.7	2back	Block1	2back/STIM_030.jpg	100
383.765	0.852	851.8	2back	Block1	2back/STIM_031.jpg	100
387.464	0.913	912.9	2back	Block1	2back/STIM_031.jpg	99
390.9	1.21	1209.6	2back	Block1	2back/STIM_031.jpg	100
394.814	0.837	836.8	2back	Block1	2back/STIM_032.jpg	100
399.501	1.583	1582.6	2back	Block1	2back/STIM_032.jpg	99
404.239	0.936	935.9	2back	Block1	2back/STIM_032.jpg	100
407.579	1.201	1201.3	2back	Block1	2back/STIM_033.jpg	99
411.463	0.811	811.2	2back	Block1	2back/STIM_033.jpg	99
415.097	1.327	1327.1	2back	Block1	2back/STIM_033.jpg	99
419.04	0.998	998.4	2back	Block1	2back/STIM_034.jpg	100
423.129	0.874	873.7	2back	Block1	2back/STIM_034.jpg	100
426.838	0.72	719.7	2back	Block1	2back/STIM_034.jpg	100
430.946	1.086	1085.6	2back	Block1	2back/STIM_035.jpg	99
434.469	1.166	1166.4	2back	Block1	2back/STIM_035.jpg	99
438.986	0.84	840.4	2back	Block1	2back/STIM_035.jpg	100
442.659	1.669	1669.3	2back	Block1	2back/STIM_036.jpg	99
447.397	0.693	692.7	2back	Block1	2back/STIM_036.jpg	99
451.279	1.033	1033.1	2back	Block1	2back/STIM_036.jpg	100
454.778	1.276	1276.1	2back	Block1	2back/STIM_037.jpg	99
459.078	1.219	1219.0	2back	Block1	2back/STIM_037.jpg	100
463.619	0.922	922.0	2back	Block1	2back/STIM_037.jpg	100
467.252	1.305	1304.8	2back	Block1	2back/STIM_038.jpg	99
472.093	1.404	1404.1	2back	Block1	2back/STIM_038.jpg	100
475.945	1.022	1022.0	2back	Block1	2back/STIM_038.jpg	99
479.819	0.867	866.7	2back	Block1	2back/STIM_039.jpg	100
483.63	1.56	1560.4	2back	Block1	2back/STIM_039.jpg	100
488.652	1.47	1470.5	2back	Block1	2back/STIM_039.jpg	99
492.586	0.692	692.0	0back	Block1	0back/STIM_000.jpg	100
495.921	0.705	705.0	0back	Block1	0back/STIM_000.jpg	100
499.141	0.519	518.7	0back	Block1	0back/STIM_000.jpg	99
502.163	0.513	513.1	0back	Block1	0back/STIM_001.jpg	100
505.232	0.8	800.5	0back	Block1	0back/STIM_001.jpg	99
509.097	0.666	666.0	0back	Block1	0back/STIM_001.jpg	99
513.609	0.712	712.5	0back	Block1	0back/STIM_002.jpg	99
516.533	0.512	511.6	0back	Block1	0back/STIM_002.jpg	100
520.763	0.554	554.5	0back	Block1	0back/STIM_002.jpg	100
524.453	0.611	611.2	0back	Block1	0back/STIM_003.jpg	99
528.37	0.823	823.1	0back	Block1	0back/STIM_003.jpg	99
531.402	0.528	528.4	0back	Block1	0back/STIM_003.jpg	99
534.772	0.892	892.3	0back	Block1	0back/STIM_004.jpg	100
538.067	0.572	571.5	0back	Block1	0back/STIM_004.jpg	100
541.158	0.712	712.0	0back	Block1	0back/STIM_004.jpg	100
545.068	0.894	894.1	0back	Block1	0back/STIM_005.jpg	100
548.967	0.652	652.5	0back	Block1	0back/STIM_005.jpg	100
552.156	0.629	628.7	0back	Block1	0back/STIM_005.jpg	99
556.202	0.492	491.7	0back	Block1	0back/STIM_006.jpg	99
560.484	0.806	806.3	0back	Block1	0back/STIM_006.jpg	100
564.724	0.812	812.3	0back	Block1	0back/STIM_006.jpg	100
569.319	0.623	623.3	0back	Block1	0back/STIM_007.jpg	99
573.585	0.887	886.8	0back	Block1	0back/STIM_007.jpg	100
578.371	0.922	921.7	0back	Block1	0back/STIM_007.jpg	99
581.736	0.584	584.1	0back	Block1	0back/STIM_008.jpg	99
584.653	0.828	827.8	0back	Block1	0back/STIM_008.jpg	99
588.981	0.518	518.2	0back	Block1	0back/STIM_008.jpg	99
592.769	0.662	661.6	0back	Block1	0back/STIM_009.jpg	100
597.393	0.87	869.7	0back	Block1	0back/STIM_009.jpg	99
601.213	0.92	919.8	0back	Block1	0back/STIM_009.jpg	99
605.739	0.874	873.8	0back	Block1	0back/STIM_010.jpg	99
609.082	0.583	582.9	0back	Block1	0back/STIM_010.jpg	99
613.584	0.515	515.3	0back	Block1	0back/STIM_010.jpg	100
617.219	0.953	952.9	0back	Block1	0back/STIM_011.jpg	99
621.027	0.842	842.2	0back	Block1	0back/STIM_011.jpg	99
624.388	0.887	886.8	0back	Block1	0back/STIM_011.jpg	99
627.541	0.574	573.6	0back	Block1	0back/STIM_012.jpg	100
630.963	0.877	876.6	0back	Block1	0back/STIM_012.jpg	100
635.38	0.861	860.6	0back	Block1	0back/STIM_012.jpg	100
638.43	0.579	579.0	0back	Block1	0back/STIM_013.jpg	99
642.099	0.833	833.2	0back	Block1	0back/STIM_013.jpg	100
644.948	0.893	893.0	0back	Block1	0back/STIM_013.jpg	99
648.344	0.659	659.3	0back	Block1	0back/STIM_014.jpg	99
652.866	0.888	887.7	0back	Block1	0back/STIM_014.jpg	100
656.126	0.75	749.5	0back	Block1	0back/STIM_014.jpg	100
660.269	0.623	623.2	0back	Block1	0back/STIM_015.jpg	99
663.297	0.627	626.9	0back	Block1	0back/STIM_015.jpg	99
667.086	0.494	494.0	0back	Block1	0back/STIM_015.jpg	99
670.132	0.658	658.5	0back	Block1	0back/STIM_016.jpg	100
674.696	0.809	809.1	0back	Block1	0back/STIM_016.jpg	99
678.973	0.835	835.1	0back	Block1	0back/STIM_016.jpg	100
683.162	0.521	521.3	0back	Block1	0back/STIM_017.jpg	99
686.657	0.636	635.5	0back	Block1	0back/STIM_017.jpg	99
690.457	0.856	855.9	0back	Block1	0back/STIM_017.jpg	99
693.993	0.87	870.5	0back	Block1	0back/STIM_018.jpg	99
697.07	0.787	787.2	0back	Block1	0back/STIM_018.jpg	100
701.477	0.79	790.1	0back	Block1	0back/STIM_018.jpg	100
706.099	0.94	939.8	0back	Block1	0back/STIM_019.jpg	99
710.002	0.73	730.5	0back	Block1	0back/STIM_019.jpg	99
714.382	0.49	490.4	0back	Block1	0back/STIM_019.jpg	99
717.483	1.394	1394.4	2back	Block2	2back/STIM_000.jpg	100
721.537	0.893	893.2	2back	Block2	2back/STIM_000.jpg	100
724.581	0.673	673.2	2back	Block2	2back/STIM_000.jpg	99
727.461	1.407	1407.2	2back	Block2	2back/STIM_001.jpg	100
732.656	0.785	784.6	2back	Block2	2back/STIM_001.jpg	100
736.078	0.843	843.1	2back	Block2	2back/STIM_001.jpg	100
739.061	1.134	1133.5	2back	Block2	2back/STIM_002.jpg	99
743.456	0.74	739.6	2back	Block2	2back/STIM_002.jpg	100
748.123	0.611	610.7	2back	Block2	2back/STIM_002.jpg	99
751.905	0.767	766.7	2back	Block2	2back/STIM_003.jpg	99
755.582	0.672	671.8	2back	Block2	2back/STIM_003.jpg	100
759.837	1.017	1016.7	2back	Block2	2back/STIM_003.jpg	99
763.443	0.887	887.0	2back	Block2	2back/STIM_004.jpg	100
766.604	0.994	993.5	2back	Block2	2back/STIM_004.jpg	99
771.231	1.142	1142.3	2back	Block2	2back/STIM_004.jpg	99
775.463	1.282	1282.1	2back	Block2	2back/STIM_005.jpg	99
780.472	1.294	1294.5	2back	Block2	2back/STIM_005.jpg	100
784.927	0.752	752.2	2back	Block2	2back/STIM_005.jpg	99
789.287	1.105	1104.7	2back	Block2	2back/STIM_006.jpg	99
793.358	1.158	1157.6	2back	Block2	2back/STIM_006.jpg	100
796.72	1.06	1060.1	2back	Block2	2back/STIM_006.jpg	99
800.365	0.85	849.7	2back	Block2	2back/STIM_007.jpg	100
804.594	1.049	1048.7	2back	Block2	2back/STIM_007.jpg	100
808.994	0.9	899.5	2back	Block2	2back/STIM_007.jpg	99
812.817	1.208	1208.2	2back	Block2	2back/STIM_008.jpg	100
817.266	0.661	661.0	2back	Block2	2back/STIM_008.jpg	99
819.943	0.918	918.2	2back	Block2	2back/STIM_008.jpg	100
824.697	1.325	1325.0	2back	Block2	2back/STIM_009.jpg	99
828.635	0.825	825.3	2back	Block2	2back/STIM_009.jpg	99
832.11	1.252	1251.8	2back	Block2	2back/STIM_009.jpg	99
836.691	0.656	656.1	2back	Block2	2back/STIM_010.jpg	99
840.661	0.886	885.9	2back	Block2	2back/STIM_010.jpg	100
843.828	0.694	694.0	2back	Block2	2back/STIM_010.jpg	99
848.471	0.702	701.5	2back	Block2	2back/STIM_011.jpg	99
851.402	0.837	836.8	2back	Block2	2back/STIM_011.jpg	99
855.173	0.741	740.6	2back	Block2	2back/STIM_011.jpg	100
858.71	0.727	726.9	2back	Block2	2back/STIM_012.jpg	99
863.413	0.792	791.6	2back	Block2	2back/STIM_012.jpg	100
866.718	0.928	928.1	2back	Block2	2back/STIM_012.jpg	100
870.152	0.814	814.2	2back	Block2	2back/STIM_013.jpg	99
873.73	0.805	805.3	2back	Block2	2back/STIM_013.jpg	100
877.975	1.044	1043.9	2back	Block2	2back/STIM_013.jpg	99
882.948	1.119	1119.1	2back	Block2	2back/STIM_014.jpg	100
887.751	1.012	1012.2	2back	Block2	2back/STIM_014.jpg	100
892.217	1.192	1192.1	2back	Block2	2back/STIM_014.jpg	99
896.358	0.968	968.0	2back	Block2	2back/STIM_015.jpg	99
901.187	0.94	940.2	2back	Block2	2back/STIM_015.jpg	100
905.902	1.236	1236.3	2back	Block2	2back/STIM_015.jpg	100
909.827	1.305	1304.7	2back	Block2	2back/STIM_016.jpg	99
913.206	1.115	1114.7	2back	Block2	2back/STIM_016.jpg	99
917.448	0.761	761.3	2back	Block2	2back/STIM_016.jpg	99
921.101	0.731	731.1	2back	Block2	2back/STIM_017.jpg	100
924.01	1.312	1311.9	2back	Block2	2back/STIM_017.jpg	99
928.289	1.018	1018.3	2back	Block2	2back/STIM_017.jpg	100
933.096	0.613	613.2	2back	Block2	2back/STIM_018.jpg	99
936.773	0.766	765.6	2back	Block2	2back/STIM_018.jpg	100
940.177	1.031	1031.2	2back	Block2	2back/STIM_018.jpg	99
943.432	1.327	1326.6	2back	Block2	2back/STIM_019.jpg	99
947.09	1.05	1050.1	2back	Block2	2back/STIM_019.jpg	100
950.595	1.135	1134.7	2back	Block2	2back/STIM_019.jpg	100
955.145	1.327	1327.3	2back	Block2	2back/STIM_020.jpg	100
959.544	0.933	933.4	2back	Block2	2back/STIM_020.jpg	99
962.648	1.232	1232.5	2back	Block2	2back/STIM_020.jpg	100
966.828	0.866	865.6	2back	Block2	2back/STIM_021.jpg	100
970.329	1.255	1255.1	2back	Block2	2back/STIM_021.jpg	99
974.19	0.85	849.7	2back	Block2	2back/STIM_021.jpg	100
978.46	1.258	1258.3	2back	Block2	2back/STIM_022.jpg	99
982.998	0.914	914.4	2back	Block2	2back/STIM_022.jpg	100
985.959	1.022	1022.3	2back	Block2	2back/STIM_022.jpg	100
990.776	1.064	1063.7	2back	Block2	2back/STIM_023.jpg	100
995.091	0.868	867.9	2back	Block2	2back/STIM_023.jpg	99
998.107	0.758	757.5	2back	Block2	2back/STIM_023.jpg	99
1001.914	0.824	823.9	2back	Block2	2back/STIM_024.jpg	99
1004.948	1.132	1132.0	2back	Block2	2back/STIM_024.jpg	100
1008.249	0.833	833.2	2back	Block2	2back/STIM_024.jpg	99
1012.355	1.2	1200.3	2back	Block2	2back/STIM_025.jpg	100
1015.674	0.766	765.5	2back	Block2	2back/STIM_025.jpg	99
1019.883	1.054	1053.6	2back	Block2	2back/STIM_025.jpg	100
1022.978	1.234	1234.3	2back	Block2	2back/STIM_026.jpg	100
1026.549	1.301	1300.6	2back	Block2	2back/STIM_026.jpg	100
1030.194	1.181	1181.4	2back	Block2	2back/STIM_026.jpg	100
1035.1	1.321	1320.6	2back	Block2	2back/STIM_027.jpg	100
1039.902	0.629	629.0	2back	Block2	2back/STIM_027.jpg	99
1044.514	0.778	777.5	2back	Block2	2back/STIM_027.jpg	100
1048.328	1.355	1355.2	2back	Block2	2back/STIM_028.jpg	100
1053.33	1.154	1153.8	2back	Block2	2back/STIM_028.jpg	100
1056.779	0.839	839.0	2back	Block2	2back/STIM_028.jpg	100
1061.519	1.03	1030.1	2back	Block2	2back/STIM_029.jpg	100
1066.101	0.62	620.0	2back	Block2	2back/STIM_029.jpg	99
1068.811	0.753	752.8	2back	Block2	2back/STIM_029.jpg	99
1072.505	1.244	1243.9	2back	Block2	2back/STIM_030.jpg	100
1077.247	0.882	882.5	2back	Block2	2back/STIM_030.jpg	100
1081.88	0.585	585.2	2back	Block2	2back/STIM_030.jpg	100
1085.59	0.811	811.2	2back	Block2	2back/STIM_031.jpg	99
1089.124	0.818	818.4	2back	Block2	2back/STIM_031.jpg	99
1093.507	1.067	1067.4	2back	Block2	2back/STIM_031.jpg	99
1097.46	1.054	1053.9	2back	Block2	2back/STIM_032.jpg	99
1100.855	0.838	837.8	2back	Block2	2back/STIM_032.jpg	100
1104.783	0.808	807.8	2back	Block2	2back/STIM_032.jpg	100
1107.941	0.806	805.9	2back	Block2	2back/STIM_033.jpg	99
1111.22	0.856	855.8	2back	Block2	2back/STIM_033.jpg	100
1115.778	0.664	663.7	2back	Block2	2back/STIM_033.jpg	100
1119.716	0.93	929.9	2back	Block2	2back/STIM_034.jpg	100
1124.011	0.786	786.2	2back	Block2	2back/STIM_034.jpg	100
1128.144	0.784	783.7	2back	Block2	2back/STIM_034.jpg	99
1131.983	1.235	1235.1	2back	Block2	2back/STIM_035.jpg	100
1135.477	0.664	663.7	2back	Block2	2back/STIM_035.jpg	100
1138.363	0.788	787.8	2back	Block2	2back/STIM_035.jpg	100
1141.395	0.696	695.9	2back	Block2	2back/STIM_036.jpg	99
1146.007	1.33	1329.6	2back	Block2	2back/STIM_036.jpg	100
1149.906	1.253	1253.0	2back	Block2	2back/STIM_036.jpg	100
1154.764	1.19	1190.2	2back	Block2	2back/STIM_037.jpg	100
1158.718	1.228	1228.4	2back	Block2	2back/STIM_037.jpg	100
1163.157	0.742	741.7	2back	Block2	2back/STIM_037.jpg	99
1167.898	0.774	774.2	2back	Block2	2back/STIM_038.jpg	99
1171.069	1.303	1302.9	2back	Block2	2back/STIM_038.jpg	100
1175.459	1.234	1233.6	2back	Block2	2back/STIM_038.jpg	100
1180.159	1.391	1390.8	2back	Block2	2back/STIM_039.jpg	100
1185.129	0.975	975.1	2back	Block2	2back/STIM_039.jpg	100
1189.216	0.568	567.5	2back	Block2	2back/STIM_039.jpg	99
1192.44	0.589	589.0	0back	Block2	0back/STIM_000.jpg	99
1195.259	0.678	677.7	0back	Block2	0back/STIM_000.jpg	100
1199.09	0.532	531.9	0back	Block2	0back/STIM_000.jpg	99
1201.987	0.634	634.3	0back	Block2	0back/STIM_001.jpg	100
1206.011	0.7	699.7	0back	Block2	0back/STIM_001.jpg	99
1210.626	0.852	852.5	0back	Block2	0back/STIM_001.jpg	99
1213.544	0.631	630.8	0back	Block2	0back/STIM_002.jpg	100
1216.758	0.536	535.5	0back	Block2	0back/STIM_002.jpg	100
1220.063	0.855	854.9	0back	Block2	0back/STIM_002.jpg	99
1223.739	0.758	758.1	0back	Block2	0back/STIM_003.jpg	99
1227.6	0.536	535.8	0back	Block2	0back/STIM_003.jpg	100
1230.355	0.642	641.9	0back	Block2	0back/STIM_003.jpg	99
1234.198	0.601	600.6	0back	Block2	0back/STIM_004.jpg	100
1238.742	0.798	798.5	0back	Block2	0back/STIM_004.jpg	99
1242.151	0.485	484.9	0back	Block2	0back/STIM_004.jpg	99
1245.368	0.75	749.8	0back	Block2	0back/STIM_005.jpg	99
1249.286	0.808	808.5	0back	Block2	0back/STIM_005.jpg	99
1253.109	0.736	736.4	0back	Block2	0back/STIM_005.jpg	99
1257.481	0.703	702.6	0back	Block2	0back/STIM_006.jpg	99
1261.002	0.821	821.0	0back	Block2	0back/STIM_006.jpg	100
1265.413	0.955	954.7	0back	Block2	0back/STIM_006.jpg	99
1268.899	0.662	661.6	0back	Block2	0back/STIM_007.jpg	100
1271.725	0.888	888.3	0back	Block2	0back/STIM_007.jpg	100
1274.985	0.908	908.4	0back	Block2	0back/STIM_007.jpg	100
1278.618	0.51	509.8	0back	Block2	0back/STIM_008.jpg	100
1281.785	0.546	546.3	0back	Block2	0back/STIM_008.jpg	100
1285.966	0.943	942.7	0back	Block2	0back/STIM_008.jpg	100
1290.118	0.943	942.9	0back	Block2	0back/STIM_009.jpg	100
1293.867	0.521	521.4	0back	Block2	0back/STIM_009.jpg	99
1296.724	0.683	683.3	0back	Block2	0back/STIM_009.jpg	100
1301.024	0.688	688.2	0back	Block2	0back/STIM_010.jpg	99
1304.609	0.842	842.0	0back	Block2	0back/STIM_010.jpg	99
1309.306	0.91	909.7	0back	Block2	0back/STIM_010.jpg	100
1312.479	0.642	641.8	0back	Block2	0back/STIM_011.jpg	100
1315.233	0.598	597.7	0back	Block2	0back/STIM_011.jpg	99
1318.579	0.484	483.6	0back	Block2	0back/STIM_011.jpg	99
1321.321	0.624	624.5	0back	Block2	0back/STIM_012.jpg	99
1323.961	0.49	490.0	0back	Block2	0back/STIM_012.jpg	99
1328.099	0.574	573.7	0back	Block2	0back/STIM_012.jpg	100
1331.906	0.827	826.7	0back	Block2	0back/STIM_013.jpg	100
1335.497	0.488	487.9	0back	Block2	0back/STIM_013.jpg	100
1338.15	0.521	520.6	0back	Block2	0back/STIM_013.jpg	100
1341.356	0.521	520.6	0back	Block2	0back/STIM_014.jpg	100
1344.383	0.789	789.3	0back	Block2	0back/STIM_014.jpg	99
1349.123	0.518	517.8	0back	Block2	0back/STIM_014.jpg	99
1352.963	0.872	871.8	0back	Block2	0back/STIM_015.jpg	100
1356.883	0.936	935.8	0back	Block2	0back/STIM_015.jpg	100
1360.347	0.872	872.1	0back	Block2	0back/STIM_015.jpg	99
1364.894	0.723	723.2	0back	Block2	0back/STIM_016.jpg	100
1367.82	0.706	705.7	0back	Block2	0back/STIM_016.jpg	99
1370.54	0.818	818.4	0back	Block2	0back/STIM_016.jpg	99
1374.397	0.519	519.0	0back	Block2	0back/STIM_017.jpg	99
1378.077	0.85	849.6	0back	Block2	0back/STIM_017.jpg	99
1381.321	0.883	883.0	0back	Block2	0back/STIM_017.jpg	99
1385.383	0.739	739.0	0back	Block2	0back/STIM_018.jpg	100
1388.528	0.643	642.9	0back	Block2	0back/STIM_018.jpg	100
1391.69	0.546	546.3	0back	Block2	0back/STIM_018.jpg	99
1395.531	0.576	575.8	0back	Block2	0back/STIM_019.jpg	99
1399.289	0.955	955.2	0back	Block2	0back/STIM_019.jpg	100
1403.473	0.752	751.8	0back	Block2	0back/STIM_019.jpg	100
1406.772	1.125	1124.7	2back	Block3	2back/STIM_000.jpg	99
1410.172	1.15	1149.7	2back	Block3	2back/STIM_000.jpg	99
1413.325	0.902	901.6	2back	Block3	2back/STIM_000.jpg	100
1416.583	1.171	1170.8	2back	Block3	2back/STIM_001.jpg	99
1421.531	1.141	1141.2	2back	Block3	2back/STIM_001.jpg	99
1424.873	0.973	972.8	2back	Block3	2back/STIM_001.jpg	100
1429.124	1.033	1032.9	2back	Block3	2back/STIM_002.jpg	99
1432.35	0.775	774.7	2back	Block3	2back/STIM_002.jpg	100
1436.345	0.539	538.9	2back	Block3	2back/STIM_002.jpg	100
1439.475	1.073	1073.4	2back	Block3	2back/STIM_003.jpg	99
1443.418	1.013	1013.2	2back	Block3	2back/STIM_003.jpg	99
1448.143	0.99	990.5	2back	Block3	2back/STIM_003.jpg	99
1452.351	0.844	844.1	2back	Block3	2back/STIM_004.jpg	99
1456.221	0.716	715.7	2back	Block3	2back/STIM_004.jpg	100
1459.633	1.017	1017.1	2back	Block3	2back/STIM_004.jpg	99
1464.25	0.804	804.0	2back	Block3	2back/STIM_005.jpg	99
1469.018	0.809	809.3	2back	Block3	2back/STIM_005.jpg	100
1473.014	1.038	1038.4	2back	Block3	2back/STIM_005.jpg	100
1476.078	1.038	1038.4	2back	Block3	2back/STIM_006.jpg	100
1480.381	0.748	747.7	2back	Block3	2back/STIM_006.jpg	100
1483.165	0.554	554.3	2back	Block3	2back/STIM_006.jpg	99
1487.265	1.114	1114.3	2back	Block3	2back/STIM_007.jpg	100
1492.008	1.117	1116.6	2back	Block3	2back/STIM_007.jpg	100
1496.348	0.54	540.5	2back	Block3	2back/STIM_007.jpg	100
1499.311	0.783	782.8	2back	Block3	2back/STIM_008.jpg	99
1503.101	0.943	942.8	2back	Block3	2back/STIM_008.jpg	99
1506.811	1.026	1026.1	2back	Block3	2back/STIM_008.jpg	100
1511.693	0.553	552.7	2back	Block3	2back/STIM_009.jpg	100
1516.173	0.776	776.0	2back	Block3	2back/STIM_009.jpg	100
1519.737	0.597	597.3	2back	Block3	2back/STIM_009.jpg	99
1524.119	0.577	576.7	2back	Block3	2back/STIM_010.jpg	100
1528.645	0.694	693.6	2back	Block3	2back/STIM_010.jpg	99
1532.982	0.678	678.5	2back	Block3	2back/STIM_010.jpg	100
1537.184	0.764	763.8	2back	Block3	2back/STIM_011.jpg	100
1540.546	0.533	532.9	2back	Block3	2back/STIM_011.jpg	99
1543.285	0.708	707.8	2back	Block3	2back/STIM_011.jpg	99
1546.902	0.633	632.6	2back	Block3	2back/STIM_012.jpg	100
1550.398	1.04	1039.8	2back	Block3	2back/STIM_012.jpg	100
1554.297	1.01	1009.5	2back	Block3	2back/STIM_012.jpg	100
1558.417	0.848	847.6	2back	Block3	2back/STIM_013.jpg	100
1562.726	1.146	1145.8	2back	Block3	2back/STIM_013.jpg	99
1566.773	1.004	1004.0	2back	Block3	2back/STIM_013.jpg	99
1569.783	0.965	965.0	2back	Block3	2back/STIM_014.jpg	99
1574.44	0.703	702.8	2back	Block3	2back/STIM_014.jpg	100
1577.636	0.986	985.7	2back	Block3	2back/STIM_014.jpg	99
1581.459	0.835	834.8	2back	Block3	2back/STIM_015.jpg	100
1586.232	0.73	730.5	2back	Block3	2back/STIM_015.jpg	99
1589.69	1.089	1088.7	2back	Block3	2back/STIM_015.jpg	99
1593.611	0.566	565.9	2back	Block3	2back/STIM_016.jpg	99
1597.739	1.103	1103.1	2back	Block3	2back/STIM_016.jpg	99
1601.575	1.127	1126.6	2back	Block3	2back/STIM_016.jpg	99
1604.771	0.728	728.4	2back	Block3	2back/STIM_017.jpg	99
1608.689	0.552	551.8	2back	Block3	2back/STIM_017.jpg	100
1612.667	0.893	893.0	2back	Block3	2back/STIM_017.jpg	99
1615.599	1.15	1149.6	2back	Block3	2back/STIM_018.jpg	99
1619.932	0.69	690.3	2back	Block3	2back/STIM_018.jpg	100
1623.348	0.902	902.5	2back	Block3	2back/STIM_018.jpg	100
1626.83	0.753	753.1	2back	Block3	2back/STIM_019.jpg	99
1630.571	1.106	1106.4	2back	Block3	2back/STIM_019.jpg	100
1634.129	1.138	1137.5	2back	Block3	2back/STIM_019.jpg	100
1639.036	0.598	598.4	2back	Block3	2back/STIM_020.jpg	99
1642.736	0.814	814.1	2back	Block3	2back/STIM_020.jpg	100
1646.161	0.99	990.5	2back	Block3	2back/STIM_020.jpg	100
1651.088	0.897	896.6	2back	Block3	2back/STIM_021.jpg	99
1654.994	0.521	521.4	2back	Block3	2back/STIM_021.jpg	99
1659.479	0.825	825.4	2back	Block3	2back/STIM_021.jpg	100
1664.116	0.612	611.9	2back	Block3	2back/STIM_022.jpg	100
1667.767	0.519	518.9	2back	Block3	2back/STIM_022.jpg	100
1671.44	0.882	881.9	2back	Block3	2back/STIM_022.jpg	100
1674.555	0.742	742.2	2back	Block3	2back/STIM_023.jpg	100
1677.599	0.665	664.8	2back	Block3	2back/STIM_023.jpg	99
1681.223	1.144	1144.2	2back	Block3	2back/STIM_023.jpg	100
1685.182	1.019	1018.8	2back	Block3	2back/STIM_024.jpg	100
1688.346	0.537	537.1	2back	Block3	2back/STIM_024.jpg	100
1692.56	0.661	661.0	2back	Block3	2back/STIM_024.jpg	99
1695.766	0.771	770.9	2back	Block3	2back/STIM_025.jpg	99
1700.102	0.973	973.0	2back	Block3	2back/STIM_025.jpg	100
1704.715	0.989	988.7	2back	Block3	2back/STIM_025.jpg	100
1708.203	0.659	658.6	2back	Block3	2back/STIM_026.jpg	100
1711.036	0.724	724.5	2back	Block3	2back/STIM_026.jpg	100
1714.056	1.072	1072.3	2back	Block3	2back/STIM_026.jpg	99
1717.761	0.608	607.9	2back	Block3	2back/STIM_027.jpg	99
1720.905	0.873	873.3	2back	Block3	2back/STIM_027.jpg	100
1724.276	0.937	936.8	2back	Block3	2back/STIM_027.jpg	99
1727.585	0.64	640.2	2back	Block3	2back/STIM_028.jpg	99
1731.71	1.008	1007.9	2back	Block3	2back/STIM_028.jpg	100
1735.39	0.84	839.7	2back	Block3	2back/STIM_028.jpg	100
1739.271	1.033	1032.8	2back	Block3	2back/STIM_029.jpg	99
1742.743	0.902	902.5	2back	Block3	2back/STIM_029.jpg	100
1747.114	0.72	720.4	2back	Block3	2back/STIM_029.jpg	100
1751.835	0.838	837.6	2back	Block3	2back/STIM_030.jpg	100
1756.177	1.149	1149.1	2back	Block3	2back/STIM_030.jpg	99
1759.858	0.609	609.1	2back	Block3	2back/STIM_030.jpg	100
1763.598	0.99	989.8	2back	Block3	2back/STIM_031.jpg	99
1768.491	0.573	572.7	2back	Block3	2back/STIM_031.jpg	99
1771.756	0.67	670.3	2back	Block3	2back/STIM_031.jpg	99
1775.465	0.635	634.7	2back	Block3	2back/STIM_032.jpg	99
1778.156	0.528	528.1	2back	Block3	2back/STIM_032.jpg	100
1780.778	0.956	955.9	2back	Block3	2back/STIM_032.jpg	100
1784.444	0.839	838.6	2back	Block3	2back/STIM_033.jpg	99
1787.368	0.7	700.5	2back	Block3	2back/STIM_033.jpg	99
1790.107	1.155	1155.3	2back	Block3	2back/STIM_033.jpg	100
1794.804	0.87	869.6	2back	Block3	2back/STIM_034.jpg	99
1797.892	0.899	899.2	2back	Block3	2back/STIM_034.jpg	100
1801.528	1.103	1102.9	2back	Block3	2back/STIM_034.jpg	99
1805.891	1.043	1043.3	2back	Block3	2back/STIM_035.jpg	99
1809.912	0.762	762.2	2back	Block3	2back/STIM_035.jpg	100
1813.177	1.006	1006.0	2back	Block3	2back/STIM_035.jpg	100
1816.537	1.057	1057.0	2back	Block3	2back/STIM_036.jpg	99
1820.238	0.983	982.7	2back	Block3	2back/STIM_036.jpg	100
1823.38	0.511	511.2	2back	Block3	2back/STIM_036.jpg	100
1826.182	0.934	934.2	2back	Block3	2back/STIM_037.jpg	99
1831.068	0.942	942.0	2back	Block3	2back/STIM_037.jpg	100
1834.628	1.123	1123.2	2back	Block3	2back/STIM_037.jpg	100
1838.676	0.638	638.4	2back	Block3	2back/STIM_038.jpg	100
1842.682	0.642	642.4	2back	Block3	2back/STIM_038.jpg	100
1847.174	0.644	644.2	2back	Block3	2back/STIM_038.jpg	100
1851.363	0.947	947.3	2back	Block3	2back/STIM_039.jpg	100
1855.638	0.845	844.8	2back	Block3	2back/STIM_039.jpg	99
1859.559	0.936	935.9	2back	Block3	2back/STIM_039.jpg	100
1863.224	0.902	902.5	0back	Block3	0back/STIM_000.jpg	100
1868.102	0.73	730.5	0back	Block3	0back/STIM_000.jpg	99
1871.564	0.894	894.2	0back	Block3	0back/STIM_000.jpg	100
1876.053	0.648	647.6	0back	Block3	0back/STIM_001.jpg	100
1878.863	0.828	827.8	0back	Block3	0back/STIM_001.jpg	100
1882.281	0.757	757.4	0back	Block3	0back/STIM_001.jpg	100
1885.427	0.71	710.3	0back	Block3	0back/STIM_002.jpg	99
1889.176	0.498	497.9	0back	Block3	0back/STIM_002.jpg	100
1893.206	0.909	908.8	0back	Block3	0back/STIM_002.jpg	100
1897.311	0.498	498.2	0back	Block3	0back/STIM_003.jpg	100
1899.932	0.897	897.2	0back	Block3	0back/STIM_003.jpg	99
1904.825	0.589	588.6	0back	Block3	0back/STIM_003.jpg	100
1907.892	0.506	505.9	0back	Block3	0back/STIM_004.jpg	99
1911.784	0.616	615.5	0back	Block3	0back/STIM_004.jpg	100
1915.236	0.646	645.7	0back	Block3	0back/STIM_004.jpg	99
1919.356	0.583	582.8	0back	Block3	0back/STIM_005.jpg	99
1923.899	0.671	670.6	0back	Block3	0back/STIM_005.jpg	99
1928.14	0.593	593.0	0back	Block3	0back/STIM_005.jpg	100
1932.168	0.518	517.6	0back	Block3	0back/STIM_006.jpg	99
1935.291	0.568	568.2	0back	Block3	0back/STIM_006.jpg	99
1938.891	0.863	862.9	0back	Block3	0back/STIM_006.jpg	99
1943.747	0.577	576.8	0back	Block3	0back/STIM_007.jpg	100
1947.677	0.507	507.1	0back	Block3	0back/STIM_007.jpg	99
1950.208	0.562	562.4	0back	Block3	0back/STIM_007.jpg	100
1954.644	0.527	526.7	0back	Block3	0back/STIM_008.jpg	100
1958.403	0.551	551.3	0back	Block3	0back/STIM_008.jpg	100
1962.567	0.613	612.7	0back	Block3	0back/STIM_008.jpg	99
1966.694	0.726	726.1	0back	Block3	0back/STIM_009.jpg	99
1970.053	0.714	713.8	0back	Block3	0back/STIM_009.jpg	99
1973.132	0.893	893.3	0back	Block3	0back/STIM_009.jpg	100
1977.005	0.922	922.4	0back	Block3	0back/STIM_010.jpg	100
1980.041	0.709	708.9	0back	Block3	0back/STIM_010.jpg	100
1983.198	0.63	629.6	0back	Block3	0back/STIM_010.jpg	100
1986.228	0.491	490.9	0back	Block3	0back/STIM_011.jpg	100
1989.203	0.913	913.3	0back	Block3	0back/STIM_011.jpg	100
1993.599	0.56	559.8	0back	Block3	0back/STIM_011.jpg	100
1997.222	0.545	545.0	0back	Block3	0back/STIM_012.jpg	99
2001.056	0.56	560.0	0back	Block3	0back/STIM_012.jpg	99
2005.201	0.68	679.9	0back	Block3	0back/STIM_012.jpg	99
2008.553	0.839	839.2	0back	Block3	0back/STIM_013.jpg	99
2011.715	0.755	755.1	0back	Block3	0back/STIM_013.jpg	99
2016.469	0.942	941.9	0back	Block3	0back/STIM_013.jpg	100
2019.671	0.762	761.8	0back	Block3	0back/STIM_014.jpg	99
2022.892	0.7	700.4	0back	Block3	0back/STIM_014.jpg	100
2025.957	0.817	816.8	0back	Block3	0back/STIM_014.jpg	100
2029.213	0.892	891.9	0back	Block3	0back/STIM_015.jpg	100
2034.09	0.51	509.6	0back	Block3	0back/STIM_015.jpg	100
2036.855	0.575	574.7	0back	Block3	0back/STIM_015.jpg	100
2040.397	0.748	748.0	0back	Block3	0back/STIM_016.jpg	99
2044.98	0.729	729.1	0back	Block3	0back/STIM_016.jpg	99
2048.66	0.481	481.0	0back	Block3	0back/STIM_016.jpg	99
2052.142	0.757	757.4	0back	Block3	0back/STIM_017.jpg	100
2056.423	0.81	809.7	0back	Block3	0back/STIM_017.jpg	100
2060.821	0.945	944.9	0back	Block3	0back/STIM_017.jpg	100
2065.737	0.501	501.5	0back	Block3	0back/STIM_018.jpg	100
2069.325	0.714	713.6	0back	Block3	0back/STIM_018.jpg	99
2072.934	0.858	857.8	0back	Block3	0back/STIM_018.jpg	100
2076.426	0.837	837.0	0back	Block3	0back/STIM_019.jpg	99
2079.907	0.613	613.4	0back	Block3	0back/STIM_019.jpg	100
2083.276	0.776	776.1	0back	Block3	0back/STIM_019.jpg	100
2086.558	0.618	618.4	2back	Block4	2back/STIM_000.jpg	99
2090.223	0.982	981.7	2back	Block4	2back/STIM_000.jpg	100
2094.557	0.937	936.9	2back	Block4	2back/STIM_000.jpg	100
2098.974	0.96	960.0	2back	Block4	2back/STIM_001.jpg	100
2103.432	1.095	1094.9	2back	Block4	2back/STIM_001.jpg	100
2106.794	0.946	946.1	2back	Block4	2back/STIM_001.jpg	99
2110.356	1.089	1088.7	2back	Block4	2back/STIM_002.jpg	100
2115.425	1.081	1081.2	2back	Block4	2back/STIM_002.jpg	99
2120.434	1.079	1078.9	2back	Block4	2back/STIM_002.jpg	100
2123.867	0.629	629.4	2back	Block4	2back/STIM_003.jpg	99
2127.158	0.74	740.2	2back	Block4	2back/STIM_003.jpg	99
2131.064	0.826	826.2	2back	Block4	2back/STIM_003.jpg	99
2134.805	1.034	1033.5	2back	Block4	2back/STIM_004.jpg	100
2139.106	0.947	947.4	2back	Block4	2back/STIM_004.jpg	99
2143.191	0.974	973.8	2back	Block4	2back/STIM_004.jpg	100
2146.286	0.783	783.1	2back	Block4	2back/STIM_005.jpg	99
2150.105	0.881	881.1	2back	Block4	2back/STIM_005.jpg	100
2153.156	0.51	510.4	2back	Block4	2back/STIM_005.jpg	99
2156.701	0.673	673.4	2back	Block4	2back/STIM_006.jpg	100
2159.732	0.658	657.5	2back	Block4	2back/STIM_006.jpg	100
2163.69	0.634	633.7	2back	Block4	2back/STIM_006.jpg	100
2168.277	0.715	715.2	2back	Block4	2back/STIM_007.jpg	99
2171.577	0.759	758.6	2back	Block4	2back/STIM_007.jpg	100
2175.165	1.124	1123.7	2back	Block4	2back/STIM_007.jpg	100
2180.026	0.513	513.4	2back	Block4	2back/STIM_008.jpg	100
2183.179	0.662	662.5	2back	Block4	2back/STIM_008.jpg	100
2187.234	0.938	938.3	2back	Block4	2back/STIM_008.jpg	99
2191.087	0.907	906.9	2back	Block4	2back/STIM_009.jpg	100
2194.882	0.801	800.7	2back	Block4	2back/STIM_009.jpg	100
2197.824	0.795	795.4	2back	Block4	2back/STIM_009.jpg	100
2200.641	0.55	550.1	2back	Block4	2back/STIM_010.jpg	100
2204.39	1.014	1013.7	2back	Block4	2back/STIM_010.jpg	100
2208.129	1.109	1108.8	2back	Block4	2back/STIM_010.jpg	99
2212.587	0.742	742.1	2back	Block4	2back/STIM_011.jpg	100
2216.774	0.682	681.7	2back	Block4	2back/STIM_011.jpg	100
2220.589	0.955	954.8	2back	Block4	2back/STIM_011.jpg	100
2223.842	1.029	1029.4	2back	Block4	2back/STIM_012.jpg	99
2227.314	0.947	946.9	2back	Block4	2back/STIM_012.jpg	100
2231.638	0.892	892.4	2back	Block4	2back/STIM_012.jpg	99
2235.843	1.02	1019.8	2back	Block4	2back/STIM_013.jpg	100
2239.957	1.167	1167.1	2back	Block4	2back/STIM_013.jpg	100
2244.779	1.066	1066.4	2back	Block4	2back/STIM_013.jpg	99
2249.108	1.104	1104.3	2back	Block4	2back/STIM_014.jpg	99
2253.81	0.737	737.3	2back	Block4	2back/STIM_014.jpg	100
2257.949	0.715	715.0	2back	Block4	2back/STIM_014.jpg	100
2261.157	1.093	1093.1	2back	Block4	2back/STIM_015.jpg	100
2265.367	0.881	880.7	2back	Block4	2back/STIM_015.jpg	100
2269.698	0.539	539.2	2back	Block4	2back/STIM_015.jpg	100
2272.542	0.947	947.1	2back	Block4	2back/STIM_016.jpg	99
2276.403	0.666	665.9	2back	Block4	2back/STIM_016.jpg	99
2280.081	0.676	675.9	2back	Block4	2back/STIM_016.jpg	99
2284.453	0.735	735.4	2back	Block4	2back/STIM_017.jpg	100
2288.726	0.969	968.8	2back	Block4	2back/STIM_017.jpg	100
2293.692	0.681	681.4	2back	Block4	2back/STIM_017.jpg	100
2296.387	0.803	802.8	2back	Block4	2back/STIM_018.jpg	100
2300.683	0.707	706.7	2back	Block4	2back/STIM_018.jpg	99
2303.604	0.841	841.2	2back	Block4	2back/STIM_018.jpg	100
2307.187	0.836	836.1	2back	Block4	2back/STIM_019.jpg	99
2310.049	0.982	982.0	2back	Block4	2back/STIM_019.jpg	100
2314.424	1.05	1049.5	2back	Block4	2back/STIM_019.jpg	100
2318.084	1.049	1048.8	2back	Block4	2back/STIM_020.jpg	99
2321.538	0.998	997.9	2back	Block4	2back/STIM_020.jpg	100
2325.646	0.519	519.0	2back	Block4	2back/STIM_020.jpg	100
2329.459	1.17	1170.0	2back	Block4	2back/STIM_021.jpg	100
2334.16	1.15	1149.7	2back	Block4	2back/STIM_021.jpg	100
2338.285	0.907	907.1	2back	Block4	2back/STIM_021.jpg	100
2341.356	0.657	656.9	2back	Block4	2back/STIM_022.jpg	99
2345.2	0.509	508.8	2back	Block4	2back/STIM_022.jpg	99
2348.075	1.142	1142.2	2back	Block4	2back/STIM_022.jpg	100
2353.207	0.741	741.0	2back	Block4	2back/STIM_023.jpg	99
2356.806	0.874	874.1	2back	Block4	2back/STIM_023.jpg	100
2359.778	0.67	670.0	2back	Block4	2back/STIM_023.jpg	99
2364.01	1.077	1076.7	2back	Block4	2back/STIM_024.jpg	100
2367.641	1.084	1084.3	2back	Block4	2back/STIM_024.jpg	100
2371.426	1.15	1150.3	2back	Block4	2back/STIM_024.jpg	100
2375.823	0.847	847.1	2back	Block4	2back/STIM_025.jpg	99
2379.0	0.892	891.6	2back	Block4	2back/STIM_025.jpg	100
2383.664	0.578	578.4	2back	Block4	2back/STIM_025.jpg	100
2387.313	1.018	1018.0	2back	Block4	2back/STIM_026.jpg	100
2390.676	0.891	890.7	2back	Block4	2back/STIM_026.jpg	99
2393.997	0.939	938.9	2back	Block4	2back/STIM_026.jpg	100
2398.18	0.949	948.7	2back	Block4	2back/STIM_027.jpg	100
2402.285	0.669	668.6	2back	Block4	2back/STIM_027.jpg	100
2405.279	1.115	1114.8	2back	Block4	2back/STIM_027.jpg	99
2409.711	1.038	1037.7	2back	Block4	2back/STIM_028.jpg	100
2413.241	0.597	597.4	2back	Block4	2back/STIM_028.jpg	99
2416.172	0.51	509.6	2back	Block4	2back/STIM_028.jpg	100
2418.74	0.685	684.7	2back	Block4	2back/STIM_029.jpg	99
2421.81	0.787	786.7	2back	Block4	2back/STIM_029.jpg	100
2425.298	0.984	984.5	2back	Block4	2back/STIM_029.jpg	99
2430.076	0.611	610.9	2back	Block4	2back/STIM_030.jpg	100
2433.629	1.117	1117.4	2back	Block4	2back/STIM_030.jpg	99
2438.386	1.154	1154.5	2back	Block4	2back/STIM_030.jpg	100
2441.661	1.154	1153.5	2back	Block4	2back/STIM_031.jpg	99
2445.734	0.854	853.7	2back	Block4	2back/STIM_031.jpg	100
2449.728	0.551	550.8	2back	Block4	2back/STIM_031.jpg	99
2453.146	0.984	983.7	2back	Block4	2back/STIM_032.jpg	99
2456.678	0.976	976.2	2back	Block4	2back/STIM_032.jpg	99
2461.102	0.718	718.5	2back	Block4	2back/STIM_032.jpg	99
2465.135	1.17	1169.8	2back	Block4	2back/STIM_033.jpg	100
2468.622	0.603	603.0	2back	Block4	2back/STIM_033.jpg	100
2472.887	0.915	915.3	2back	Block4	2back/STIM_033.jpg	99
2476.603	0.66	660.5	2back	Block4	2back/STIM_034.jpg	99
2480.967	1.05	1050.4	2back	Block4	2back/STIM_034.jpg	99
2484.937	0.729	728.9	2back	Block4	2back/STIM_034.jpg	100
2489.209	0.523	523.1	2back	Block4	2back/STIM_035.jpg	100
2493.553	0.583	583.0	2back	Block4	2back/STIM_035.jpg	99
2496.742	0.951	950.7	2back	Block4	2back/STIM_035.jpg	100
2500.556	1.099	1099.3	2back	Block4	2back/STIM_036.jpg	100
2504.218	1.065	1065.3	2back	Block4	2back/STIM_036.jpg	99
2508.675	0.68	680.4	2back	Block4	2back/STIM_036.jpg	99
2511.971	1.163	1163.2	2back	Block4	2back/STIM_037.jpg	100
2517.063	0.771	771.1	2back	Block4	2back/STIM_037.jpg	100
2520.167	0.592	592.5	2back	Block4	2back/STIM_037.jpg	100
2522.906	0.78	780.3	2back	Block4	2back/STIM_038.jpg	100
2526.944	0.726	725.7	2back	Block4	2back/STIM_038.jpg	100
2529.952	0.82	820.1	2back	Block4	2back/STIM_038.jpg	100
2533.814	1.092	1091.9	2back	Block4	2back/STIM_039.jpg	99
2537.434	0.56	560.1	2back	Block4	2back/STIM_039.jpg	100
2540.544	0.582	582.5	2back	Block4	2back/STIM_039.jpg	100
2544.111	0.5	500.4	0back	Block4	0back/STIM_000.jpg	100
2548.505	0.896	895.9	0back	Block4	0back/STIM_000.jpg	99
2553.233	0.953	952.9	0back	Block4	0back/STIM_000.jpg	99
2556.698	0.775	775.4	0back	Block4	0back/STIM_001.jpg	99
2560.834	0.952	951.7	0back	Block4	0back/STIM_001.jpg	100
2564.964	0.789	788.6	0back	Block4	0back/STIM_001.jpg	99
2568.744	0.63	630.1	0back	Block4	0back/STIM_002.jpg	99
2571.533	0.615	614.7	0back	Block4	0back/STIM_002.jpg	100
2576.115	0.673	673.3	0back	Block4	0back/STIM_002.jpg	99
2579.509	0.918	918.2	0back	Block4	0back/STIM_003.jpg	100
2582.779	0.872	872.0	0back	Block4	0back/STIM_003.jpg	100
2587.639	0.735	734.8	0back	Block4	0back/STIM_003.jpg	100
2591.973	0.952	951.8	0back	Block4	0back/STIM_004.jpg	99
2596.006	0.692	692.3	0back	Block4	0back/STIM_004.jpg	100
2600.442	0.635	635.2	0back	Block4	0back/STIM_004.jpg	100
2605.049	0.826	826.3	0back	Block4	0back/STIM_005.jpg	100
2608.704	0.927	926.9	0back	Block4	0back/STIM_005.jpg	100
2613.296	0.488	488.3	0back	Block4	0back/STIM_005.jpg	100
2616.613	0.653	652.8	0back	Block4	0back/STIM_006.jpg	100
2620.057	0.587	586.8	0back	Block4	0back/STIM_006.jpg	100
2624.287	0.604	604.1	0back	Block4	0back/STIM_006.jpg	100
2626.912	0.913	912.6	0back	Block4	0back/STIM_007.jpg	100
2631.684	0.877	877.1	0back	Block4	0back/STIM_007.jpg	100
2635.036	0.811	810.8	0back	Block4	0back/STIM_007.jpg	100
2638.581	0.704	703.5	0back	Block4	0back/STIM_008.jpg	99
2642.994	0.817	816.8	0back	Block4	0back/STIM_008.jpg	100
2645.953	0.664	663.9	0back	Block4	0back/STIM_008.jpg	99
2650.426	0.723	723.4	0back	Block4	0back/STIM_009.jpg	100
2653.533	0.643	642.9	0back	Block4	0back/STIM_009.jpg	99
2657.897	0.787	786.9	0back	Block4	0back/STIM_009.jpg	99
2660.943	0.594	594.3	0back	Block4	0back/STIM_010.jpg	99
2663.792	0.796	796.4	0back	Block4	0back/STIM_010.jpg	100
2667.901	0.67	670.5	0back	Block4	0back/STIM_010.jpg	99
2671.428	0.791	791.0	0back	Block4	0back/STIM_011.jpg	99
2675.671	0.791	790.7	0back	Block4	0back/STIM_011.jpg	99
2679.139	0.71	709.8	0back	Block4	0back/STIM_011.jpg	100
2682.8	0.603	603.2	0back	Block4	0back/STIM_012.jpg	99
2686.675	0.834	834.1	0back	Block4	0back/STIM_012.jpg	99
2690.698	0.529	529.2	0back	Block4	0back/STIM_012.jpg	99
2694.071	0.774	773.5	0back	Block4	0back/STIM_013.jpg	100
2696.998	0.921	920.7	0back	Block4	0back/STIM_013.jpg	100
2700.513	0.823	823.3	0back	Block4	0back/STIM_013.jpg	100
2703.548	0.662	662.2	0back	Block4	0back/STIM_014.jpg	99
2706.663	0.651	650.6	0back	Block4	0back/STIM_014.jpg	100
2709.913	0.751	751.4	0back	Block4	0back/STIM_014.jpg	100
2713.513	0.908	908.2	0back	Block4	0back/STIM_015.jpg	100
2717.194	0.952	951.5	0back	Block4	0back/STIM_015.jpg	100
2721.91	0.49	489.5	0back	Block4	0back/STIM_015.jpg	100
2726.307	0.576	575.5	0back	Block4	0back/STIM_016.jpg	99
2729.397	0.719	719.0	0back	Block4	0back/STIM_016.jpg	100
2732.924	0.643	643.3	0back	Block4	0back/STIM_016.jpg	99
2736.21	0.619	619.4	0back	Block4	0back/STIM_017.jpg	99
2740.137	0.948	947.5	0back	Block4	0back/STIM_017.jpg	99
2743.33	0.728	727.6	0back	Block4	0back/STIM_017.jpg	99
2747.656	0.802	801.5	0back	Block4	0back/STIM_018.jpg	100
2752.44	0.805	805.4	0back	Block4	0back/STIM_018.jpg	100
2756.563	0.54	539.7	0back	Block4	0back/STIM_018.jpg	99
2759.275	0.914	913.8	0back	Block4	0back/STIM_019.jpg	100
2762.627	0.781	781.2	0back	Block4	0back/STIM_019.jpg	99
2765.554	0.949	949.0	0back	Block4	0back/STIM_019.jpg	99
