onset	duration	accuracy_binary	trial_type	learning_stage	stimulus
0.0	0.717	1	2back	Block1	2back/STIM_000.jpg
3.036	0.919	1	2back	Block1	2back/STIM_000.jpg
7.226	1.13	1	2back	Block1	2back/STIM_000.jpg
11.543	0.992	0	2back	Block1	2back/STIM_001.jpg
14.931	0.77	0	2back	Block1	2back/STIM_001.jpg
18.883	1.031	1	2back	Block1	2back/STIM_001.jpg
22.839	0.835	1	2back	Block1	2back/STIM_002.jpg
26.133	1.296	1	2back	Block1	2back/STIM_002.jpg
30.64	0.945	1	2back	Block1	2back/STIM_002.jpg
33.622	0.79	1	2back	Block1	2back/STIM_003.jpg
38.143	1.196	0	2back	Block1	2back/STIM_003.jpg
41.621	0.747	1	2back	Block1	2back/STIM_003.jpg
45.29	0.931	0	2back	Block1	2back/STIM_004.jpg
49.509	0.584	0	2back	Block1	2back/STIM_004.jpg
53.979	1.169	0	2back	Block1	2back/STIM_004.jpg
57.944	1.086	1	2back	Block1	2back/STIM_005.jpg
62.354	1.232	1	2back	Block1	2back/STIM_005.jpg
67.193	0.619	1	2back	Block1	2back/STIM_005.jpg
71.621	1.048	1	2back	Block1	2back/STIM_006.jpg
76.4	0.863	1	2back	Block1	2back/STIM_006.jpg
80.229	0.821	1	2back	Block1	2back/STIM_006.jpg
84.594	0.515	0	2back	Block1	2back/STIM_007.jpg
88.492	1.195	0	2back	Block1	2back/STIM_007.jpg
93.067	1.148	1	2back	Block1	2back/STIM_007.jpg
98.118	1.377	1	2back	Block1	2back/STIM_008.jpg
103.235	1.131	1	2back	Block1	2back/STIM_008.jpg
107.803	1.016	1	2back	Block1	2back/STIM_008.jpg
111.852	1.052	0	2back	Block1	2back/STIM_009.jpg
115.838	1.101	0	2back	Block1	2back/STIM_009.jpg
119.885	0.609	1	2back	Block1	2back/STIM_009.jpg
122.645	1.232	1	2back	Block1	2back/STIM_010.jpg
127.572	0.646	1	2back	Block1	2back/STIM_010.jpg
130.658	1.165	1	2back	Block1	2back/STIM_010.jpg
134.838	0.689	1	2back	Block1	2back/STIM_011.jpg
137.7	0.854	1	2back	Block1	2back/STIM_011.jpg
141.62	1.232	1	2back	Block1	2back/STIM_011.jpg
145.773	0.698	1	2back	Block1	2back/STIM_012.jpg
149.545	0.89	1	2back	Block1	2back/STIM_012.jpg
154.12	0.73	1	2back	Block1	2back/STIM_012.jpg
157.417	1.009	1	2back	Block1	2back/STIM_013.jpg
161.514	0.943	1	2back	Block1	2back/STIM_013.jpg
165.967	0.743	1	2back	Block1	2back/STIM_013.jpg
170.653	1.098	1	2back	Block1	2back/STIM_014.jpg
173.833	1.266	1	2back	Block1	2back/STIM_014.jpg
178.274	0.999	1	2back	Block1	2back/STIM_014.jpg
181.624	1.059	1	2back	Block1	2back/STIM_015.jpg
185.502	1.211	0	2back	Block1	2back/STIM_015.jpg
190.646	0.659	0	2back	Block1	2back/STIM_015.jpg
195.257	0.992	1	2back	Block1	2back/STIM_016.jpg
199.421	0.681	1	2back	Block1	2back/STIM_016.jpg
203.132	0.974	1	2back	Block1	2back/STIM_016.jpg
206.408	1.36	1	2back	Block1	2back/STIM_017.jpg
210.316	0.733	1	2back	Block1	2back/STIM_017.jpg
215.042	0.74	1	2back	Block1	2back/STIM_017.jpg
218.676	0.966	1	2back	Block1	2back/STIM_018.jpg
221.951	0.983	1	2back	Block1	2back/STIM_018.jpg
225.17	0.949	1	2back	Block1	2back/STIM_018.jpg
229.762	0.509	1	2back	Block1	2back/STIM_019.jpg
234.075	1.072	1	2back	Block1	2back/STIM_019.jpg
238.675	1.078	1	2back	Block1	2back/STIM_019.jpg
242.773	1.283	1	2back	Block1	2back/STIM_020.jpg
246.832	1.167	1	2back	Block1	2back/STIM_020.jpg
250.989	0.898	1	2back	Block1	2back/STIM_020.jpg
254.877	1.061	0	2back	Block1	2back/STIM_021.jpg
259.028	0.637	1	2back	Block1	2back/STIM_021.jpg
262.858	1.127	1	2back	Block1	2back/STIM_021.jpg
267.133	0.808	1	2back	Block1	2back/STIM_022.jpg
270.391	1.01	1	2back	Block1	2back/STIM_022.jpg
273.677	0.684	1	2back	Block1	2back/STIM_022.jpg
277.229	1.043	1	2back	Block1	2back/STIM_023.jpg
281.106	0.933	1	2back	Block1	2back/STIM_023.jpg
285.005	0.825	1	2back	Block1	2back/STIM_023.jpg
288.976	0.766	1	2back	Block1	2back/STIM_024.jpg
293.365	1.113	0	2back	Block1	2back/STIM_024.jpg
296.766	1.138	1	2back	Block1	2back/STIM_024.jpg
300.788	1.101	1	2back	Block1	2back/STIM_025.jpg
304.938	1.025	1	2back	Block1	2back/STIM_025.jpg
309.095	1.361	1	2back	Block1	2back/STIM_025.jpg
314.194	0.74	1	2back	Block1	2back/STIM_026.jpg
318.544	1.214	1	2back	Block1	2back/STIM_026.jpg
322.561	0.72	1	2back	Block1	2back/STIM_026.jpg
327.174	0.679	1	2back	Block1	2back/STIM_027.jpg
330.996	0.884	1	2back	Block1	2back/STIM_027.jpg
335.69	0.852	1	2back	Block1	2back/STIM_027.jpg
338.558	1.243	1	2back	Block1	2back/STIM_028.jpg
342.83	0.63	1	2back	Block1	2back/STIM_028.jpg
346.462	0.925	1	2back	Block1	2back/STIM_028.jpg
350.773	1.242	0	2back	Block1	2back/STIM_029.jpg
354.157	0.583	1	2back	Block1	2back/STIM_029.jpg
357.283	0.555	1	2back	Block1	2back/STIM_029.jpg
361.078	0.897	1	2back	Block1	2back/STIM_030.jpg
364.989	0.527	1	2back	Block1	2back/STIM_030.jpg
368.955	0.774	1	2back	Block1	2back/STIM_030.jpg
373.429	0.787	1	2back	Block1	2back/STIM_031.jpg
377.361	0.9	1	2back	Block1	2back/STIM_031.jpg
382.123	1.116	1	2back	Block1	2back/STIM_031.jpg
385.487	1.116	1	2back	Block1	2back/STIM_032.jpg
388.704	1.272	1	2back	Block1	2back/STIM_032.jpg
392.815	0.978	1	2back	Block1	2back/STIM_032.jpg
396.778	0.823	0	2back	Block1	2back/STIM_033.jpg
401.247	0.697	1	2back	Block1	2back/STIM_033.jpg
404.122	0.759	1	2back	Block1	2back/STIM_033.jpg
408.468	0.974	1	2back	Block1	2back/STIM_034.jpg
411.474	0.886	1	2back	Block1	2back/STIM_034.jpg
414.71	0.582	1	2back	Block1	2back/STIM_034.jpg
417.726	1.335	0	2back	Block1	2back/STIM_035.jpg
422.774	1.009	0	2back	Block1	2back/STIM_035.jpg
425.992	1.044	1	2back	Block1	2back/STIM_035.jpg
430.081	1.076	1	2back	Block1	2back/STIM_036.jpg
433.171	0.963	1	2back	Block1	2back/STIM_036.jpg
437.862	0.646	0	2back	Block1	2back/STIM_036.jpg
441.26	1.319	1	2back	Block1	2back/STIM_037.jpg
446.432	0.828	0	2back	Block1	2back/STIM_037.jpg
450.854	0.645	1	2back	Block1	2back/STIM_037.jpg
454.152	1.187	0	2back	Block1	2back/STIM_038.jpg
457.506	1.37	0	2back	Block1	2back/STIM_038.jpg
461.109	0.599	1	2back	Block1	2back/STIM_038.jpg
464.577	1.024	1	2back	Block1	2back/STIM_039.jpg
469.206	1.201	1	2back	Block1	2back/STIM_039.jpg
473.232	0.756	1	2back	Block1	2back/STIM_039.jpg
477.19	0.593	1	0back	Block1	0back/STIM_000.jpg
480.747	0.574	1	0back	Block1	0back/STIM_000.jpg
484.428	0.507	1	0back	Block1	0back/STIM_000.jpg
487.999	0.438	1	0back	Block1	0back/STIM_001.jpg
491.989	0.476	1	0back	Block1	0back/STIM_001.jpg
496.047	0.757	1	0back	Block1	0back/STIM_001.jpg
499.016	0.764	1	0back	Block1	0back/STIM_002.jpg
502.575	0.515	1	0back	Block1	0back/STIM_002.jpg
505.997	0.456	1	0back	Block1	0back/STIM_002.jpg
509.523	0.44	1	0back	Block1	0back/STIM_003.jpg
512.699	0.512	1	0back	Block1	0back/STIM_003.jpg
516.001	0.597	1	0back	Block1	0back/STIM_003.jpg
520.309	0.806	1	0back	Block1	0back/STIM_004.jpg
523.623	0.525	0	0back	Block1	0back/STIM_004.jpg
527.394	0.452	1	0back	Block1	0back/STIM_004.jpg
530.231	0.594	1	0back	Block1	0back/STIM_005.jpg
533.366	0.715	1	0back	Block1	0back/STIM_005.jpg
536.593	0.47	1	0back	Block1	0back/STIM_005.jpg
540.188	0.755	1	0back	Block1	0back/STIM_006.jpg
544.003	0.386	1	0back	Block1	0back/STIM_006.jpg
546.6	0.511	1	0back	Block1	0back/STIM_006.jpg
549.34	0.369	1	0back	Block1	0back/STIM_007.jpg
551.767	0.72	1	0back	Block1	0back/STIM_007.jpg
556.296	0.784	1	0back	Block1	0back/STIM_007.jpg
559.708	0.478	0	0back	Block1	0back/STIM_008.jpg
563.656	0.606	1	0back	Block1	0back/STIM_008.jpg
568.065	0.58	1	0back	Block1	0back/STIM_008.jpg
571.794	0.805	1	0back	Block1	0back/STIM_009.jpg
574.794	0.725	0	0back	Block1	0back/STIM_009.jpg
578.27	0.428	1	0back	Block1	0back/STIM_009.jpg
581.24	0.566	1	0back	Block1	0back/STIM_010.jpg
584.164	0.62	0	0back	Block1	0back/STIM_010.jpg
587.667	0.692	1	0back	Block1	0back/STIM_010.jpg
590.284	0.471	1	0back	Block1	0back/STIM_011.jpg
594.41	0.499	1	0back	Block1	0back/STIM_011.jpg
596.959	0.7	1	0back	Block1	0back/STIM_011.jpg
601.648	0.629	1	0back	Block1	0back/STIM_012.jpg
604.486	0.426	1	0back	Block1	0back/STIM_012.jpg
607.172	0.594	1	0back	Block1	0back/STIM_012.jpg
609.939	0.636	1	0back	Block1	0back/STIM_013.jpg
613.206	0.856	1	0back	Block1	0back/STIM_013.jpg
617.198	0.631	1	0back	Block1	0back/STIM_013.jpg
619.896	0.503	1	0back	Block1	0back/STIM_014.jpg
623.818	0.409	1	0back	Block1	0back/STIM_014.jpg
627.228	0.479	1	0back	Block1	0back/STIM_014.jpg
631.151	0.481	1	0back	Block1	0back/STIM_015.jpg
635.325	0.515	1	0back	Block1	0back/STIM_015.jpg
638.744	0.577	1	0back	Block1	0back/STIM_015.jpg
641.44	0.767	1	0back	Block1	0back/STIM_016.jpg
644.317	0.43	1	0back	Block1	0back/STIM_016.jpg
648.694	0.448	1	0back	Block1	0back/STIM_016.jpg
652.382	0.534	1	0back	Block1	0back/STIM_017.jpg
655.646	0.629	1	0back	Block1	0back/STIM_017.jpg
660.196	0.692	0	0back	Block1	0back/STIM_017.jpg
664.33	0.632	1	0back	Block1	0back/STIM_018.jpg
667.321	0.886	1	0back	Block1	0back/STIM_018.jpg
670.377	0.664	1	0back	Block1	0back/STIM_018.jpg
674.563	0.726	1	0back	Block1	0back/STIM_019.jpg
677.851	0.442	1	0back	Block1	0back/STIM_019.jpg
680.814	0.596	1	0back	Block1	0back/STIM_019.jpg
685.024	0.819	1	2back	Block2	2back/STIM_000.jpg
688.675	1.025	1	2back	Block2	2back/STIM_000.jpg
693.419	0.771	1	2back	Block2	2back/STIM_000.jpg
696.78	1.302	1	2back	Block2	2back/STIM_001.jpg
700.354	0.58	1	2back	Block2	2back/STIM_001.jpg
703.12	1.018	1	2back	Block2	2back/STIM_001.jpg
706.561	0.573	1	2back	Block2	2back/STIM_002.jpg
709.846	1.026	1	2back	Block2	2back/STIM_002.jpg
714.898	0.869	1	2back	Block2	2back/STIM_002.jpg
718.0	0.666	0	2back	Block2	2back/STIM_003.jpg
721.508	0.772	1	2back	Block2	2back/STIM_003.jpg
724.864	0.793	1	2back	Block2	2back/STIM_003.jpg
728.356	0.712	1	2back	Block2	2back/STIM_004.jpg
732.551	0.775	1	2back	Block2	2back/STIM_004.jpg
735.846	0.745	0	2back	Block2	2back/STIM_004.jpg
740.533	1.094	1	2back	Block2	2back/STIM_005.jpg
745.362	0.891	0	2back	Block2	2back/STIM_005.jpg
749.311	0.634	0	2back	Block2	2back/STIM_005.jpg
752.721	0.946	1	2back	Block2	2back/STIM_006.jpg
756.721	0.758	1	2back	Block2	2back/STIM_006.jpg
760.223	0.832	1	2back	Block2	2back/STIM_006.jpg
764.102	0.718	1	2back	Block2	2back/STIM_007.jpg
767.189	1.063	1	2back	Block2	2back/STIM_007.jpg
770.61	1.011	1	2back	Block2	2back/STIM_007.jpg
775.108	0.638	1	2back	Block2	2back/STIM_008.jpg
778.789	0.757	1	2back	Block2	2back/STIM_008.jpg
783.154	0.596	0	2back	Block2	2back/STIM_008.jpg
786.229	0.986	1	2back	Block2	2back/STIM_009.jpg
789.831	0.894	1	2back	Block2	2back/STIM_009.jpg
793.544	0.488	0	2back	Block2	2back/STIM_009.jpg
797.702	0.813	0	2back	Block2	2back/STIM_010.jpg
802.522	0.868	1	2back	Block2	2back/STIM_010.jpg
806.548	0.642	1	2back	Block2	2back/STIM_010.jpg
809.367	0.573	1	2back	Block2	2back/STIM_011.jpg
812.481	0.885	0	2back	Block2	2back/STIM_011.jpg
816.755	1.004	1	2back	Block2	2back/STIM_011.jpg
820.978	0.686	1	2back	Block2	2back/STIM_012.jpg
824.026	0.502	1	2back	Block2	2back/STIM_012.jpg
828.38	0.538	1	2back	Block2	2back/STIM_012.jpg
831.597	0.808	1	2back	Block2	2back/STIM_013.jpg
835.836	0.926	1	2back	Block2	2back/STIM_013.jpg
838.953	0.849	1	2back	Block2	2back/STIM_013.jpg
842.091	1.131	1	2back	Block2	2back/STIM_014.jpg
846.032	0.882	1	2back	Block2	2back/STIM_014.jpg
849.421	0.998	1	2back	Block2	2back/STIM_014.jpg
853.022	0.727	0	2back	Block2	2back/STIM_015.jpg
856.551	0.708	1	2back	Block2	2back/STIM_015.jpg
859.417	0.346	1	2back	Block2	2back/STIM_015.jpg
863.287	0.819	1	2back	Block2	2back/STIM_016.jpg
867.062	0.733	1	2back	Block2	2back/STIM_016.jpg
870.325	0.979	0	2back	Block2	2back/STIM_016.jpg
874.526	0.65	0	2back	Block2	2back/STIM_017.jpg
878.969	0.658	1	2back	Block2	2back/STIM_017.jpg
882.135	0.74	1	2back	Block2	2back/STIM_017.jpg
885.757	0.923	0	2back	Block2	2back/STIM_018.jpg
890.397	0.914	1	2back	Block2	2back/STIM_018.jpg
894.765	0.904	1	2back	Block2	2back/STIM_018.jpg
898.118	0.544	1	2back	Block2	2back/STIM_019.jpg
901.277	0.741	1	2back	Block2	2back/STIM_019.jpg
905.556	0.845	1	2back	Block2	2back/STIM_019.jpg
910.207	0.677	1	2back	Block2	2back/STIM_020.jpg
913.007	0.926	1	2back	Block2	2back/STIM_020.jpg
916.94	1.035	1	2back	Block2	2back/STIM_020.jpg
920.16	0.92	1	2back	Block2	2back/STIM_021.jpg
924.7	1.031	1	2back	Block2	2back/STIM_021.jpg
928.998	0.535	1	2back	Block2	2back/STIM_021.jpg
933.321	1.073	1	2back	Block2	2back/STIM_022.jpg
938.28	0.572	1	2back	Block2	2back/STIM_022.jpg
941.806	1.064	0	2back	Block2	2back/STIM_022.jpg
946.534	0.491	1	2back	Block2	2back/STIM_023.jpg
950.844	1.09	1	2back	Block2	2back/STIM_023.jpg
954.256	0.409	1	2back	Block2	2back/STIM_023.jpg
957.504	0.491	1	2back	Block2	2back/STIM_024.jpg
960.642	0.763	1	2back	Block2	2back/STIM_024.jpg
963.96	0.621	1	2back	Block2	2back/STIM_024.jpg
968.173	1.024	0	2back	Block2	2back/STIM_025.jpg
972.073	0.556	1	2back	Block2	2back/STIM_025.jpg
976.016	0.835	1	2back	Block2	2back/STIM_025.jpg
980.377	0.65	1	2back	Block2	2back/STIM_026.jpg
984.592	0.67	0	2back	Block2	2back/STIM_026.jpg
988.234	1.008	1	2back	Block2	2back/STIM_026.jpg
992.067	0.915	1	2back	Block2	2back/STIM_027.jpg
995.396	0.82	0	2back	Block2	2back/STIM_027.jpg
998.42	0.785	1	2back	Block2	2back/STIM_027.jpg
1002.772	0.567	0	2back	Block2	2back/STIM_028.jpg
1005.45	0.735	1	2back	Block2	2back/STIM_028.jpg
1008.657	0.423	1	2back	Block2	2back/STIM_028.jpg
1012.371	1.12	1	2back	Block2	2back/STIM_029.jpg
1015.91	1.157	1	2back	Block2	2back/STIM_029.jpg
1020.954	0.778	0	2back	Block2	2back/STIM_029.jpg
1024.877	1.181	1	2back	Block2	2back/STIM_030.jpg
1029.359	0.727	1	2back	Block2	2back/STIM_030.jpg
1033.357	0.496	0	2back	Block2	2back/STIM_030.jpg
1037.093	1.056	1	2back	Block2	2back/STIM_031.jpg
1040.906	0.936	1	2back	Block2	2back/STIM_031.jpg
1043.828	0.922	1	2back	Block2	2back/STIM_031.jpg
1047.266	0.784	1	2back	Block2	2back/STIM_032.jpg
1050.336	0.654	1	2back	Block2	2back/STIM_032.jpg
1053.168	0.44	1	2back	Block2	2back/STIM_032.jpg
1057.263	0.736	1	2back	Block2	2back/STIM_033.jpg
1060.74	0.869	1	2back	Block2	2back/STIM_033.jpg
1064.005	0.432	1	2back	Block2	2back/STIM_033.jpg
1066.64	0.696	1	2back	Block2	2back/STIM_034.jpg
1069.889	0.683	1	2back	Block2	2back/STIM_034.jpg
1073.298	0.511	1	2back	Block2	2back/STIM_034.jpg
1077.757	0.607	1	2back	Block2	2back/STIM_035.jpg
1080.405	0.43	0	2back	Block2	2back/STIM_035.jpg
1083.822	0.708	0	2back	Block2	2back/STIM_035.jpg
1087.778	0.702	1	2back	Block2	2back/STIM_036.jpg
1091.457	0.613	1	2back	Block2	2back/STIM_036.jpg
1095.592	0.875	1	2back	Block2	2back/STIM_036.jpg
1098.816	0.826	1	2back	Block2	2back/STIM_037.jpg
1102.391	0.645	1	2back	Block2	2back/STIM_037.jpg
1106.607	0.946	1	2back	Block2	2back/STIM_037.jpg
1110.985	0.908	1	2back	Block2	2back/STIM_038.jpg
1114.395	1.008	1	2back	Block2	2back/STIM_038.jpg
1118.396	0.575	1	2back	Block2	2back/STIM_038.jpg
1122.769	0.926	1	2back	Block2	2back/STIM_039.jpg
1127.394	0.784	1	2back	Block2	2back/STIM_039.jpg
1131.109	0.475	1	2back	Block2	2back/STIM_039.jpg
1134.641	0.461	1	0back	Block2	0back/STIM_000.jpg
1137.538	0.536	1	0back	Block2	0back/STIM_000.jpg
1141.532	0.665	1	0back	Block2	0back/STIM_000.jpg
1145.249	0.659	1	0back	Block2	0back/STIM_001.jpg
1149.227	0.483	1	0back	Block2	0back/STIM_001.jpg
1153.596	0.731	1	0back	Block2	0back/STIM_001.jpg
1157.458	0.542	1	0back	Block2	0back/STIM_002.jpg
1161.475	0.411	1	0back	Block2	0back/STIM_002.jpg
1165.225	0.747	1	0back	Block2	0back/STIM_002.jpg
1169.37	0.448	0	0back	Block2	0back/STIM_003.jpg
1173.657	0.749	1	0back	Block2	0back/STIM_003.jpg
1177.655	0.495	1	0back	Block2	0back/STIM_003.jpg
1182.038	0.745	1	0back	Block2	0back/STIM_004.jpg
1186.452	0.421	1	0back	Block2	0back/STIM_004.jpg
1189.269	0.534	1	0back	Block2	0back/STIM_004.jpg
1192.604	0.692	1	0back	Block2	0back/STIM_005.jpg
1196.26	0.606	1	0back	Block2	0back/STIM_005.jpg
1198.94	0.498	1	0back	Block2	0back/STIM_005.jpg
1201.729	0.424	1	0back	Block2	0back/STIM_006.jpg
1205.999	0.612	0	0back	Block2	0back/STIM_006.jpg
1209.85	0.609	1	0back	Block2	0back/STIM_006.jpg
1213.921	0.545	1	0back	Block2	0back/STIM_007.jpg
1217.8	0.564	1	0back	Block2	0back/STIM_007.jpg
1221.294	0.685	1	0back	Block2	0back/STIM_007.jpg
1225.744	0.736	1	0back	Block2	0back/STIM_008.jpg
1228.668	0.577	1	0back	Block2	0back/STIM_008.jpg
1232.215	0.645	1	0back	Block2	0back/STIM_008.jpg
1236.597	0.456	1	0back	Block2	0back/STIM_009.jpg
1240.718	0.261	1	0back	Block2	0back/STIM_009.jpg
1244.997	0.42	1	0back	Block2	0back/STIM_009.jpg
1248.048	0.667	1	0back	Block2	0back/STIM_010.jpg
1251.925	0.552	1	0back	Block2	0back/STIM_010.jpg
1254.591	0.398	1	0back	Block2	0back/STIM_010.jpg
1258.423	0.555	1	0back	Block2	0back/STIM_011.jpg
1261.529	0.49	1	0back	Block2	0back/STIM_011.jpg
1265.154	0.535	1	0back	Block2	0back/STIM_011.jpg
1267.823	0.698	1	0back	Block2	0back/STIM_012.jpg
1270.844	0.803	1	0back	Block2	0back/STIM_012.jpg
1274.258	0.599	1	0back	Block2	0back/STIM_012.jpg
1277.432	0.72	1	0back	Block2	0back/STIM_013.jpg
1280.802	0.766	1	0back	Block2	0back/STIM_013.jpg
1284.118	0.474	1	0back	Block2	0back/STIM_013.jpg
1287.69	0.748	0	0back	Block2	0back/STIM_014.jpg
1290.887	0.678	1	0back	Block2	0back/STIM_014.jpg
1295.49	0.485	0	0back	Block2	0back/STIM_014.jpg
1298.89	0.506	1	0back	Block2	0back/STIM_015.jpg
1303.248	0.633	1	0back	Block2	0back/STIM_015.jpg
1307.264	0.519	1	0back	Block2	0back/STIM_015.jpg
1310.212	0.7	1	0back	Block2	0back/STIM_016.jpg
1314.527	0.631	1	0back	Block2	0back/STIM_016.jpg
1317.48	0.478	1	0back	Block2	0back/STIM_016.jpg
1320.211	0.445	1	0back	Block2	0back/STIM_017.jpg
1323.21	0.465	1	0back	Block2	0back/STIM_017.jpg
1326.112	0.441	1	0back	Block2	0back/STIM_017.jpg
1330.002	0.598	1	0back	Block2	0back/STIM_018.jpg
1333.899	0.684	1	0back	Block2	0back/STIM_018.jpg
1338.104	0.582	1	0back	Block2	0back/STIM_018.jpg
1341.916	0.445	1	0back	Block2	0back/STIM_019.jpg
1346.306	0.479	1	0back	Block2	0back/STIM_019.jpg
1349.201	0.64	1	0back	Block2	0back/STIM_019.jpg
1353.542	0.336	1	2back	Block3	2back/STIM_000.jpg
1356.663	0.457	1	2back	Block3	2back/STIM_000.jpg
1360.072	0.733	1	2back	Block3	2back/STIM_000.jpg
1364.158	0.856	1	2back	Block3	2back/STIM_001.jpg
1367.933	0.593	1	2back	Block3	2back/STIM_001.jpg
1372.515	0.684	1	2back	Block3	2back/STIM_001.jpg
1376.193	0.862	1	2back	Block3	2back/STIM_002.jpg
1380.145	0.598	1	2back	Block3	2back/STIM_002.jpg
1384.313	0.921	1	2back	Block3	2back/STIM_002.jpg
1387.727	0.871	1	2back	Block3	2back/STIM_003.jpg
1392.0	0.848	1	2back	Block3	2back/STIM_003.jpg
1396.403	0.757	1	2back	Block3	2back/STIM_003.jpg
1399.69	0.732	1	2back	Block3	2back/STIM_004.jpg
1403.34	0.903	1	2back	Block3	2back/STIM_004.jpg
1408.088	0.498	1	2back	Block3	2back/STIM_004.jpg
1410.84	0.774	1	2back	Block3	2back/STIM_005.jpg
1414.507	0.699	1	2back	Block3	2back/STIM_005.jpg
1418.449	0.896	1	2back	Block3	2back/STIM_005.jpg
1421.499	0.516	1	2back	Block3	2back/STIM_006.jpg
1424.129	0.947	1	2back	Block3	2back/STIM_006.jpg
1427.911	0.728	1	2back	Block3	2back/STIM_006.jpg
1431.306	0.789	1	2back	Block3	2back/STIM_007.jpg
1434.214	0.848	1	2back	Block3	2back/STIM_007.jpg
1438.638	0.872	1	2back	Block3	2back/STIM_007.jpg
1442.138	0.448	1	2back	Block3	2back/STIM_008.jpg
1445.506	1.044	1	2back	Block3	2back/STIM_008.jpg
1448.672	0.936	1	2back	Block3	2back/STIM_008.jpg
1452.305	0.721	1	2back	Block3	2back/STIM_009.jpg
1455.971	0.98	1	2back	Block3	2back/STIM_009.jpg
1460.427	1.041	1	2back	Block3	2back/STIM_009.jpg
1464.616	0.889	1	2back	Block3	2back/STIM_010.jpg
1469.017	0.642	1	2back	Block3	2back/STIM_010.jpg
1472.854	0.782	1	2back	Block3	2back/STIM_010.jpg
1475.806	0.89	1	2back	Block3	2back/STIM_011.jpg
1478.769	0.394	1	2back	Block3	2back/STIM_011.jpg
1482.117	0.802	1	2back	Block3	2back/STIM_011.jpg
1485.026	0.802	1	2back	Block3	2back/STIM_012.jpg
1488.757	0.455	1	2back	Block3	2back/STIM_012.jpg
1492.281	0.442	1	2back	Block3	2back/STIM_012.jpg
1495.822	0.976	1	2back	Block3	2back/STIM_013.jpg
1500.57	0.764	1	2back	Block3	2back/STIM_013.jpg
1503.716	0.533	0	2back	Block3	2back/STIM_013.jpg
1506.821	0.449	1	2back	Block3	2back/STIM_014.jpg
1510.05	0.745	1	2back	Block3	2back/STIM_014.jpg
1513.483	0.424	1	2back	Block3	2back/STIM_014.jpg
1517.696	0.609	1	2back	Block3	2back/STIM_015.jpg
1521.607	0.494	1	2back	Block3	2back/STIM_015.jpg
1524.566	0.463	1	2back	Block3	2back/STIM_015.jpg
1527.598	0.826	1	2back	Block3	2back/STIM_016.jpg
1530.58	0.672	1	2back	Block3	2back/STIM_016.jpg
1534.282	0.799	1	2back	Block3	2back/STIM_016.jpg
1537.789	0.8	1	2back	Block3	2back/STIM_017.jpg
1541.37	0.738	1	2back	Block3	2back/STIM_017.jpg
1544.791	0.43	1	2back	Block3	2back/STIM_017.jpg
1547.658	0.505	1	2back	Block3	2back/STIM_018.jpg
1550.958	0.635	1	2back	Block3	2back/STIM_018.jpg
1555.295	0.896	1	2back	Block3	2back/STIM_018.jpg
1560.027	0.516	1	2back	Block3	2back/STIM_019.jpg
1563.148	0.633	1	2back	Block3	2back/STIM_019.jpg
1566.089	0.84	1	2back	Block3	2back/STIM_019.jpg
1570.376	0.463	1	2back	Block3	2back/STIM_020.jpg
1574.855	0.745	1	2back	Block3	2back/STIM_020.jpg
1578.804	0.774	0	2back	Block3	2back/STIM_020.jpg
1582.854	0.867	1	2back	Block3	2back/STIM_021.jpg
1587.67	0.827	1	2back	Block3	2back/STIM_021.jpg
1590.485	0.4	1	2back	Block3	2back/STIM_021.jpg
1594.189	0.884	1	2back	Block3	2back/STIM_022.jpg
1598.984	0.676	1	2back	Block3	2back/STIM_022.jpg
1602.244	0.746	1	2back	Block3	2back/STIM_022.jpg
1605.119	0.484	1	2back	Block3	2back/STIM_023.jpg
1608.598	0.83	1	2back	Block3	2back/STIM_023.jpg
1612.619	0.67	1	2back	Block3	2back/STIM_023.jpg
1616.73	0.855	1	2back	Block3	2back/STIM_024.jpg
1620.963	0.421	1	2back	Block3	2back/STIM_024.jpg
1624.392	0.572	1	2back	Block3	2back/STIM_024.jpg
1628.753	0.413	1	2back	Block3	2back/STIM_025.jpg
1631.296	0.767	1	2back	Block3	2back/STIM_025.jpg
1635.109	0.464	1	2back	Block3	2back/STIM_025.jpg
1637.928	0.529	1	2back	Block3	2back/STIM_026.jpg
1641.415	0.559	1	2back	Block3	2back/STIM_026.jpg
1644.338	0.546	1	2back	Block3	2back/STIM_026.jpg
1647.214	0.882	1	2back	Block3	2back/STIM_027.jpg
1651.3	0.82	1	2back	Block3	2back/STIM_027.jpg
1655.072	0.779	1	2back	Block3	2back/STIM_027.jpg
1658.843	0.921	1	2back	Block3	2back/STIM_028.jpg
1663.327	0.85	1	2back	Block3	2back/STIM_028.jpg
1666.776	0.689	1	2back	Block3	2back/STIM_028.jpg
1671.135	0.656	1	2back	Block3	2back/STIM_029.jpg
1674.932	0.871	1	2back	Block3	2back/STIM_029.jpg
1679.526	0.668	1	2back	Block3	2back/STIM_029.jpg
1683.921	0.501	1	2back	Block3	2back/STIM_030.jpg
1687.54	0.571	1	2back	Block3	2back/STIM_030.jpg
1690.666	0.812	1	2back	Block3	2back/STIM_030.jpg
1694.275	0.411	1	2back	Block3	2back/STIM_031.jpg
1698.658	0.549	1	2back	Block3	2back/STIM_031.jpg
1702.369	0.654	0	2back	Block3	2back/STIM_031.jpg
1705.486	0.644	1	2back	Block3	2back/STIM_032.jpg
1709.725	0.717	1	2back	Block3	2back/STIM_032.jpg
1714.014	0.906	1	2back	Block3	2back/STIM_032.jpg
1717.591	0.504	1	2back	Block3	2back/STIM_033.jpg
1720.09	0.593	1	2back	Block3	2back/STIM_033.jpg
1723.741	0.738	1	2back	Block3	2back/STIM_033.jpg
1727.234	0.883	1	2back	Block3	2back/STIM_034.jpg
1730.791	0.516	1	2back	Block3	2back/STIM_034.jpg
1734.438	0.421	1	2back	Block3	2back/STIM_034.jpg
1737.906	0.762	1	2back	Block3	2back/STIM_035.jpg
1741.3	0.557	1	2back	Block3	2back/STIM_035.jpg
1744.576	0.803	1	2back	Block3	2back/STIM_035.jpg
1747.911	0.917	1	2back	Block3	2back/STIM_036.jpg
1751.4	0.84	1	2back	Block3	2back/STIM_036.jpg
1754.73	0.749	1	2back	Block3	2back/STIM_036.jpg
1758.978	0.579	1	2back	Block3	2back/STIM_037.jpg
1763.014	0.516	1	2back	Block3	2back/STIM_037.jpg
1767.542	0.5	1	2back	Block3	2back/STIM_037.jpg
1771.637	0.76	1	2back	Block3	2back/STIM_038.jpg
1776.282	0.98	1	2back	Block3	2back/STIM_038.jpg
1779.388	0.614	1	2back	Block3	2back/STIM_038.jpg
1782.089	0.684	1	2back	Block3	2back/STIM_039.jpg
1786.483	1.049	1	2back	Block3	2back/STIM_039.jpg
1791.107	0.52	1	2back	Block3	2back/STIM_039.jpg
1794.171	0.77	1	0back	Block3	0back/STIM_000.jpg
1798.499	0.704	1	0back	Block3	0back/STIM_000.jpg
1802.605	0.675	1	0back	Block3	0back/STIM_000.jpg
1805.73	0.504	1	0back	Block3	0back/STIM_001.jpg
1808.712	0.596	1	0back	Block3	0back/STIM_001.jpg
1812.127	0.544	1	0back	Block3	0back/STIM_001.jpg
1815.449	0.484	1	0back	Block3	0back/STIM_002.jpg
1819.42	0.614	1	0back	Block3	0back/STIM_002.jpg
1823.014	0.653	1	0back	Block3	0back/STIM_002.jpg
1827.436	0.859	1	0back	Block3	0back/STIM_003.jpg
1831.475	0.415	1	0back	Block3	0back/STIM_003.jpg
1834.307	0.395	1	0back	Block3	0back/STIM_003.jpg
1837.312	0.579	1	0back	Block3	0back/STIM_004.jpg
1840.89	0.467	1	0back	Block3	0back/STIM_004.jpg
1843.631	0.466	1	0back	Block3	0back/STIM_004.jpg
1846.136	0.607	1	0back	Block3	0back/STIM_005.jpg
1849.831	0.466	1	0back	Block3	0back/STIM_005.jpg
1854.035	0.495	1	0back	Block3	0back/STIM_005.jpg
1857.373	0.68	1	0back	Block3	0back/STIM_006.jpg
1861.776	0.767	1	0back	Block3	0back/STIM_006.jpg
1865.421	0.526	1	0back	Block3	0back/STIM_006.jpg
1869.313	0.41	1	0back	Block3	0back/STIM_007.jpg
1872.373	0.653	1	0back	Block3	0back/STIM_007.jpg
1875.089	0.53	1	0back	Block3	0back/STIM_007.jpg
1877.668	0.778	1	0back	Block3	0back/STIM_008.jpg
1881.305	0.381	1	0back	Block3	0back/STIM_008.jpg
1884.18	0.562	1	0back	Block3	0back/STIM_008.jpg
1887.311	0.705	1	0back	Block3	0back/STIM_009.jpg
1891.28	0.548	1	0back	Block3	0back/STIM_009.jpg
1895.797	0.541	1	0back	Block3	0back/STIM_009.jpg
1899.623	0.823	1	0back	Block3	0back/STIM_010.jpg
1902.813	0.665	1	0back	Block3	0back/STIM_010.jpg
1906.35	0.538	1	0back	Block3	0back/STIM_010.jpg
1908.939	0.775	1	0back	Block3	0back/STIM_011.jpg
1912.706	0.72	0	0back	Block3	0back/STIM_011.jpg
1915.782	0.599	1	0back	Block3	0back/STIM_011.jpg
1920.29	0.629	0	0back	Block3	0back/STIM_012.jpg
1924.277	0.477	1	0back	Block3	0back/STIM_012.jpg
1928.533	0.75	1	0back	Block3	0back/STIM_012.jpg
1931.937	0.675	1	0back	Block3	0back/STIM_013.jpg
1935.39	0.46	0	0back	Block3	0back/STIM_013.jpg
1937.937	0.554	1	0back	Block3	0back/STIM_013.jpg
1941.776	0.666	1	0back	Block3	0back/STIM_014.jpg
1945.75	0.374	1	0back	Block3	0back/STIM_014.jpg
1949.518	0.461	1	0back	Block3	0back/STIM_014.jpg
1952.468	0.415	1	0back	Block3	0back/STIM_015.jpg
1956.542	0.474	1	0back	Block3	0back/STIM_015.jpg
1960.311	0.57	1	0back	Block3	0back/STIM_015.jpg
1964.719	0.498	1	0back	Block3	0back/STIM_016.jpg
1968.746	0.597	1	0back	Block3	0back/STIM_016.jpg
1972.537	0.68	1	0back	Block3	0back/STIM_016.jpg
1976.154	0.508	1	0back	Block3	0back/STIM_017.jpg
1979.7	0.718	1	0back	Block3	0back/STIM_017.jpg
1983.572	0.466	1	0back	Block3	0back/STIM_017.jpg
1987.573	0.724	1	0back	Block3	0back/STIM_018.jpg
1990.537	0.558	1	0back	Block3	0back/STIM_018.jpg
1993.756	0.49	1	0back	Block3	0back/STIM_018.jpg
1996.441	0.802	1	0back	Block3	0back/STIM_019.jpg
2000.22	0.647	1	0back	Block3	0back/STIM_019.jpg
2003.061	0.495	1	0back	Block3	0back/STIM_019.jpg
2006.306	0.588	1	2back	Block4	2back/STIM_000.jpg
2009.043	0.871	1	2back	Block4	2back/STIM_000.jpg
2013.168	0.483	1	2back	Block4	2back/STIM_000.jpg
2016.293	0.696	1	2back	Block4	2back/STIM_001.jpg
2020.48	0.558	1	2back	Block4	2back/STIM_001.jpg
2023.758	0.756	1	2back	Block4	2back/STIM_001.jpg
2027.634	0.827	1	2back	Block4	2back/STIM_002.jpg
2030.986	0.934	1	2back	Block4	2back/STIM_002.jpg
2035.273	0.574	1	2back	Block4	2back/STIM_002.jpg
2039.497	0.557	1	2back	Block4	2back/STIM_003.jpg
2043.508	0.539	1	2back	Block4	2back/STIM_003.jpg
2046.45	1.026	1	2back	Block4	2back/STIM_003.jpg
2050.237	0.45	1	2back	Block4	2back/STIM_004.jpg
2054.47	0.438	1	2back	Block4	2back/STIM_004.jpg
2058.639	0.707	1	2back	Block4	2back/STIM_004.jpg
2061.988	0.544	1	2back	Block4	2back/STIM_005.jpg
2064.78	0.509	1	2back	Block4	2back/STIM_005.jpg
2067.651	0.646	1	2back	Block4	2back/STIM_005.jpg
2070.963	0.577	1	2back	Block4	2back/STIM_006.jpg
2074.576	0.877	1	2back	Block4	2back/STIM_006.jpg
2078.141	0.602	1	2back	Block4	2back/STIM_006.jpg
2080.755	0.621	1	2back	Block4	2back/STIM_007.jpg
2084.122	0.459	1	2back	Block4	2back/STIM_007.jpg
2086.914	0.434	1	2back	Block4	2back/STIM_007.jpg
2090.302	0.458	1	2back	Block4	2back/STIM_008.jpg
2093.908	0.729	1	2back	Block4	2back/STIM_008.jpg
2098.467	0.407	1	2back	Block4	2back/STIM_008.jpg
2101.982	0.732	1	2back	Block4	2back/STIM_009.jpg
2105.318	0.589	1	2back	Block4	2back/STIM_009.jpg
2109.198	1.058	1	2back	Block4	2back/STIM_009.jpg
2113.063	0.643	1	2back	Block4	2back/STIM_010.jpg
2117.514	0.692	1	2back	Block4	2back/STIM_010.jpg
2120.742	0.856	1	2back	Block4	2back/STIM_010.jpg
2123.874	0.671	1	2back	Block4	2back/STIM_011.jpg
2126.726	0.901	1	2back	Block4	2back/STIM_011.jpg
2129.955	0.685	1	2back	Block4	2back/STIM_011.jpg
2133.751	0.686	1	2back	Block4	2back/STIM_012.jpg
2136.809	0.932	1	2back	Block4	2back/STIM_012.jpg
2140.037	0.752	1	2back	Block4	2back/STIM_012.jpg
2143.637	0.828	1	2back	Block4	2back/STIM_013.jpg
2147.32	0.769	1	2back	Block4	2back/STIM_013.jpg
2151.236	0.82	1	2back	Block4	2back/STIM_013.jpg
2154.711	0.896	1	2back	Block4	2back/STIM_014.jpg
2157.871	0.43	1	2back	Block4	2back/STIM_014.jpg
2161.821	0.748	1	2back	Block4	2back/STIM_014.jpg
2166.435	0.414	1	2back	Block4	2back/STIM_015.jpg
2170.135	0.713	1	2back	Block4	2back/STIM_015.jpg
2173.364	0.766	1	2back	Block4	2back/STIM_015.jpg
2176.85	0.575	1	2back	Block4	2back/STIM_016.jpg
2179.91	0.91	0	2back	Block4	2back/STIM_016.jpg
2183.625	0.918	1	2back	Block4	2back/STIM_016.jpg
2187.588	0.777	1	2back	Block4	2back/STIM_017.jpg
2192.245	0.918	0	2back	Block4	2back/STIM_017.jpg
2195.923	0.454	1	2back	Block4	2back/STIM_017.jpg
2198.55	0.534	1	2back	Block4	2back/STIM_018.jpg
2201.858	0.623	1	2back	Block4	2back/STIM_018.jpg
2206.112	0.544	1	2back	Block4	2back/STIM_018.jpg
2209.374	0.714	1	2back	Block4	2back/STIM_019.jpg
2212.83	0.694	1	2back	Block4	2back/STIM_019.jpg
2216.311	0.758	1	2back	Block4	2back/STIM_019.jpg
2220.828	0.874	1	2back	Block4	2back/STIM_020.jpg
2224.108	0.722	1	2back	Block4	2back/STIM_020.jpg
2227.457	0.881	1	2back	Block4	2back/STIM_020.jpg
2231.408	0.823	1	2back	Block4	2back/STIM_021.jpg
2234.46	0.744	1	2back	Block4	2back/STIM_021.jpg
2238.393	0.863	1	2back	Block4	2back/STIM_021.jpg
2242.356	0.474	1	2back	Block4	2back/STIM_022.jpg
2245.83	0.529	1	2back	Block4	2back/STIM_022.jpg
2249.736	0.862	1	2back	Block4	2back/STIM_022.jpg
2252.983	0.388	1	2back	Block4	2back/STIM_023.jpg
2255.653	0.668	1	2back	Block4	2back/STIM_023.jpg
2258.851	0.513	1	2back	Block4	2back/STIM_023.jpg
2262.46	0.772	1	2back	Block4	2back/STIM_024.jpg
2265.892	0.512	1	2back	Block4	2back/STIM_024.jpg
2269.978	0.837	1	2back	Block4	2back/STIM_024.jpg
2273.063	0.748	1	2back	Block4	2back/STIM_025.jpg
2276.845	0.783	1	2back	Block4	2back/STIM_025.jpg
2280.77	0.42	1	2back	Block4	2back/STIM_025.jpg
2285.14	0.739	1	2back	Block4	2back/STIM_026.jpg
2289.07	0.718	1	2back	Block4	2back/STIM_026.jpg
2292.034	0.413	1	2back	Block4	2back/STIM_026.jpg
2296.179	0.978	1	2back	Block4	2back/STIM_027.jpg
2299.508	0.448	1	2back	Block4	2back/STIM_027.jpg
2302.248	0.508	1	2back	Block4	2back/STIM_027.jpg
2305.999	0.879	1	2back	Block4	2back/STIM_028.jpg
2309.709	0.541	1	2back	Block4	2back/STIM_028.jpg
2313.124	0.878	1	2back	Block4	2back/STIM_028.jpg
2316.256	0.318	1	2back	Block4	2back/STIM_029.jpg
2319.727	0.428	1	2back	Block4	2back/STIM_029.jpg
2322.427	0.806	1	2back	Block4	2back/STIM_029.jpg
2325.429	0.66	1	2back	Block4	2back/STIM_030.jpg
2328.443	0.73	1	2back	Block4	2back/STIM_030.jpg
2331.554	0.83	1	2back	Block4	2back/STIM_030.jpg
2336.177	0.903	1	2back	Block4	2back/STIM_031.jpg
2340.085	0.666	1	2back	Block4	2back/STIM_031.jpg
2343.61	0.974	1	2back	Block4	2back/STIM_031.jpg
2346.661	0.901	1	2back	Block4	2back/STIM_032.jpg
2350.736	0.66	1	2back	Block4	2back/STIM_032.jpg
2355.203	0.574	1	2back	Block4	2back/STIM_032.jpg
2359.05	0.782	1	2back	Block4	2back/STIM_033.jpg
2363.437	0.578	1	2back	Block4	2back/STIM_033.jpg
2366.484	0.506	1	2back	Block4	2back/STIM_033.jpg
2369.039	0.901	1	2back	Block4	2back/STIM_034.jpg
2373.007	0.388	1	2back	Block4	2back/STIM_034.jpg
2375.715	0.606	1	2back	Block4	2back/STIM_034.jpg
2379.451	0.636	1	2back	Block4	2back/STIM_035.jpg
2382.945	0.441	1	2back	Block4	2back/STIM_035.jpg
2385.554	0.512	1	2back	Block4	2back/STIM_035.jpg
2389.877	0.664	1	2back	Block4	2back/STIM_036.jpg
2393.941	0.577	1	2back	Block4	2back/STIM_036.jpg
2397.951	0.888	1	2back	Block4	2back/STIM_036.jpg
2401.241	0.728	1	2back	Block4	2back/STIM_037.jpg
2405.57	1.053	1	2back	Block4	2back/STIM_037.jpg
2409.199	0.611	1	2back	Block4	2back/STIM_037.jpg
2413.182	0.461	1	2back	Block4	2back/STIM_038.jpg
2417.576	0.498	1	2back	Block4	2back/STIM_038.jpg
2421.332	0.883	1	2back	Block4	2back/STIM_038.jpg
2426.031	0.878	1	2back	Block4	2back/STIM_039.jpg
2430.052	0.565	1	2back	Block4	2back/STIM_039.jpg
2432.719	0.83	1	2back	Block4	2back/STIM_039.jpg
2436.12	0.558	1	0back	Block4	0back/STIM_000.jpg
2439.32	0.694	1	0back	Block4	0back/STIM_000.jpg
2442.698	0.393	1	0back	Block4	0back/STIM_000.jpg
2446.672	0.55	1	0back	Block4	0back/STIM_001.jpg
2450.414	0.765	1	0back	Block4	0back/STIM_001.jpg
2453.509	0.552	1	0back	Block4	0back/STIM_001.jpg
2456.517	0.701	1	0back	Block4	0back/STIM_002.jpg
2461.053	0.549	1	0back	Block4	0back/STIM_002.jpg
2463.675	0.456	1	0back	Block4	0back/STIM_002.jpg
2466.877	0.74	1	0back	Block4	0back/STIM_003.jpg
2470.799	0.463	1	0back	Block4	0back/STIM_003.jpg
2473.583	0.658	1	0back	Block4	0back/STIM_003.jpg
2476.915	0.703	1	0back	Block4	0back/STIM_004.jpg
2480.786	0.81	1	0back	Block4	0back/STIM_004.jpg
2484.293	0.489	1	0back	Block4	0back/STIM_004.jpg
2487.189	0.811	1	0back	Block4	0back/STIM_005.jpg
2491.85	0.434	1	0back	Block4	0back/STIM_005.jpg
2496.049	0.591	1	0back	Block4	0back/STIM_005.jpg
2499.209	0.719	1	0back	Block4	0back/STIM_006.jpg
2503.679	0.675	1	0back	Block4	0back/STIM_006.jpg
2506.75	0.861	1	0back	Block4	0back/STIM_006.jpg
2510.996	0.587	1	0back	Block4	0back/STIM_007.jpg
2515.445	0.546	1	0back	Block4	0back/STIM_007.jpg
2519.649	0.566	1	0back	Block4	0back/STIM_007.jpg
2523.059	0.504	1	0back	Block4	0back/STIM_008.jpg
2527.196	0.435	1	0back	Block4	0back/STIM_008.jpg
2529.822	0.679	1	0back	Block4	0back/STIM_008.jpg
2533.484	0.659	1	0back	Block4	0back/STIM_009.jpg
2537.971	0.743	1	0back	Block4	0back/STIM_009.jpg
2542.65	0.838	1	0back	Block4	0back/STIM_009.jpg
2546.26	0.746	1	0back	Block4	0back/STIM_010.jpg
2550.753	0.566	1	0back	Block4	0back/STIM_010.jpg
2554.898	0.646	1	0back	Block4	0back/STIM_010.jpg
2558.643	0.5	1	0back	Block4	0back/STIM_011.jpg
2562.688	0.853	0	0back	Block4	0back/STIM_011.jpg
2566.851	0.643	1	0back	Block4	0back/STIM_011.jpg
2570.903	0.842	1	0back	Block4	0back/STIM_012.jpg
2575.491	0.668	1	0back	Block4	0back/STIM_012.jpg
2578.829	0.773	1	0back	Block4	0back/STIM_012.jpg
2583.358	0.425	1	0back	Block4	0back/STIM_013.jpg
2585.838	0.53	1	0back	Block4	0back/STIM_013.jpg
2589.365	0.737	0	0back	Block4	0back/STIM_013.jpg
2592.874	0.635	1	0back	Block4	0back/STIM_014.jpg
2597.308	0.608	1	0back	Block4	0back/STIM_014.jpg
2600.321	0.678	1	0back	Block4	0back/STIM_014.jpg
2604.759	0.722	1	0back	Block4	0back/STIM_015.jpg
2609.477	0.633	1	0back	Block4	0back/STIM_015.jpg
2613.839	0.375	1	0back	Block4	0back/STIM_015.jpg
2616.424	0.676	1	0back	Block4	0back/STIM_016.jpg
2620.584	0.548	1	0back	Block4	0back/STIM_016.jpg
2623.998	0.772	1	0back	Block4	0back/STIM_016.jpg
2628.463	0.647	1	0back	Block4	0back/STIM_017.jpg
2632.813	0.615	1	0back	Block4	0back/STIM_017.jpg
2637.129	0.813	1	0back	Block4	0back/STIM_017.jpg
2641.845	0.755	1	0back	Block4	0back/STIM_018.jpg
2644.595	0.422	1	0back	Block4	0back/STIM_018.jpg
2647.35	0.421	1	0back	Block4	0back/STIM_018.jpg
2649.782	0.717	1	0back	Block4	0back/STIM_019.jpg
2653.098	0.682	1	0back	Block4	0back/STIM_019.jpg
2656.574	0.695	1	0back	Block4	0back/STIM_019.jpg
