onset	duration	response_time_ms	trial_type	learning_stage	stimulus	response_port
0.0	1.115	1115.2	study	Phase1	study/STIM_000.jpg	100
3.13	1.083	1082.8	study	Phase1	study/STIM_000.jpg	100
7.225	1.034	1034.2	study	Phase1	study/STIM_000.jpg	99
11.36	1.642	1642.5	study	Phase1	study/STIM_001.jpg	100
15.214	1.188	1187.9	study	Phase1	study/STIM_001.jpg	100
18.677	1.427	1427.3	study	Phase1	study/STIM_001.jpg	99
23.222	1.2	1199.9	study	Phase1	study/STIM_002.jpg	100
27.874	1.164	1164.5	study	Phase1	study/STIM_002.jpg	100
31.112	1.507	1506.6	study	Phase1	study/STIM_002.jpg	99
36.447	1.376	1375.7	study	Phase1	study/STIM_003.jpg	100
40.215	0.796	795.9	study	Phase1	study/STIM_003.jpg	100
44.081	0.723	723.4	study	Phase1	study/STIM_003.jpg	100
47.652	1.236	1235.6	study	Phase1	study/STIM_004.jpg	100
52.605	1.334	1333.8	study	Phase1	study/STIM_004.jpg	100
56.31	0.736	735.6	study	Phase1	study/STIM_004.jpg	99
59.293	1.236	1235.6	study	Phase1	study/STIM_005.jpg	99
63.582	1.16	1160.5	study	Phase1	study/STIM_005.jpg	99
67.774	0.755	754.8	study	Phase1	study/STIM_005.jpg	99
72.229	1.664	1663.8	study	Phase1	study/STIM_006.jpg	99
77.179	0.943	942.8	study	Phase1	study/STIM_006.jpg	99
81.142	1.128	1128.5	study	Phase1	study/STIM_006.jpg	99
84.678	1.492	1492.0	study	Phase1	study/STIM_007.jpg	99
89.959	0.8	800.2	study	Phase1	study/STIM_007.jpg	100
92.936	1.269	1268.6	study	Phase1	study/STIM_007.jpg	99
96.586	1.084	1083.6	study	Phase1	study/STIM_008.jpg	100
100.912	1.534	1534.2	study	Phase1	study/STIM_008.jpg	99
104.778	0.896	896.4	study	Phase1	study/STIM_008.jpg	99
109.095	1.267	1267.0	study	Phase1	study/STIM_009.jpg	99
112.94	1.408	1408.5	study	Phase1	study/STIM_009.jpg	100
117.286	0.9	900.2	study	Phase1	study/STIM_009.jpg	100
121.252	0.829	828.6	study	Phase1	study/STIM_010.jpg	100
125.169	1.313	1312.6	study	Phase1	study/STIM_010.jpg	99
128.565	1.525	1525.4	study	Phase1	study/STIM_010.jpg	100
132.414	1.619	1619.0	study	Phase1	study/STIM_011.jpg	100
137.342	1.371	1370.9	study	Phase1	study/STIM_011.jpg	99
142.08	0.89	890.2	study	Phase1	study/STIM_011.jpg	100
145.839	1.175	1175.1	study	Phase1	study/STIM_012.jpg	99
150.471	1.553	1552.6	study	Phase1	study/STIM_012.jpg	99
155.214	1.12	1120.5	study	Phase1	study/STIM_012.jpg	100
159.987	1.477	1477.2	study	Phase1	study/STIM_013.jpg	99
164.209	1.48	1480.4	study	Phase1	study/STIM_013.jpg	99
167.923	1.532	1532.4	study	Phase1	study/STIM_013.jpg	99
173.116	1.225	1225.1	study	Phase1	study/STIM_014.jpg	99
177.373	0.792	792.3	study	Phase1	study/STIM_014.jpg	100
181.912	1.2	1200.3	study	Phase1	study/STIM_014.jpg	100
185.778	0.938	937.6	study	Phase1	study/STIM_015.jpg	100
189.749	1.351	1350.9	study	Phase1	study/STIM_015.jpg	100
194.882	1.539	1539.2	study	Phase1	study/STIM_015.jpg	100
200.13	0.995	994.8	study	Phase1	study/STIM_016.jpg	100
203.579	0.94	939.8	study	Phase1	study/STIM_016.jpg	100
207.09	1.008	1007.5	study	Phase1	study/STIM_016.jpg	99
211.812	0.85	849.8	study	Phase1	study/STIM_017.jpg	99
215.144	1.552	1551.7	study	Phase1	study/STIM_017.jpg	100
219.171	0.947	947.1	study	Phase1	study/STIM_017.jpg	99
222.499	0.947	947.0	study	Phase1	study/STIM_018.jpg	99
225.79	1.19	1190.4	study	Phase1	study/STIM_018.jpg	99
229.002	1.219	1219.1	study	Phase1	study/STIM_018.jpg	99
232.626	1.325	1324.9	study	Phase1	study/STIM_019.jpg	99
237.432	1.22	1220.5	study	Phase1	study/STIM_019.jpg	99
242.576	1.518	1517.6	study	Phase1	study/STIM_019.jpg	100
246.691	1.0	1000.5	study	Phase1	study/STIM_020.jpg	100
250.059	0.781	781.0	study	Phase1	study/STIM_020.jpg	100
254.345	1.138	1137.5	study	Phase1	study/STIM_020.jpg	99
259.106	0.959	959.1	study	Phase1	study/STIM_021.jpg	100
263.695	1.404	1403.5	study	Phase1	study/STIM_021.jpg	100
268.278	1.198	1198.5	study	Phase1	study/STIM_021.jpg	99
271.518	1.018	1018.5	study	Phase1	study/STIM_022.jpg	99
275.832	1.043	1043.0	study	Phase1	study/STIM_022.jpg	99
280.345	1.211	1211.0	study	Phase1	study/STIM_022.jpg	99
284.152	1.391	1390.9	study	Phase1	study/STIM_023.jpg	100
289.249	0.922	922.0	study	Phase1	study/STIM_023.jpg	99
294.045	0.778	777.7	study	Phase1	study/STIM_023.jpg	99
296.992	0.774	774.0	study	Phase1	study/STIM_024.jpg	99
300.185	1.462	1461.5	study	Phase1	study/STIM_024.jpg	100
304.906	0.824	823.7	study	Phase1	study/STIM_024.jpg	99
308.407	1.35	1349.7	study	Phase1	study/STIM_025.jpg	100
312.115	0.855	855.0	study	Phase1	study/STIM_025.jpg	99
314.985	1.527	1526.9	study	Phase1	study/STIM_025.jpg	99
319.863	1.32	1319.9	study	Phase1	study/STIM_026.jpg	100
324.84	1.532	1531.7	study	Phase1	study/STIM_026.jpg	100
329.148	1.12	1120.1	study	Phase1	study/STIM_026.jpg	99
334.168	1.078	1077.6	study	Phase1	study/STIM_027.jpg	99
338.343	0.818	818.1	study	Phase1	study/STIM_027.jpg	100
343.133	0.994	994.1	study	Phase1	study/STIM_027.jpg	99
346.682	1.172	1172.3	study	Phase1	study/STIM_028.jpg	99
351.79	1.389	1388.6	study	Phase1	study/STIM_028.jpg	100
355.54	1.497	1496.8	study	Phase1	study/STIM_028.jpg	99
359.935	1.206	1206.0	study	Phase1	study/STIM_029.jpg	100
363.872	0.873	873.0	study	Phase1	study/STIM_029.jpg	99
366.967	1.309	1309.2	study	Phase1	study/STIM_029.jpg	99
371.093	1.116	1115.6	test	Phase1	test/STIM_000.jpg	100
375.74	1.051	1050.9	test	Phase1	test/STIM_000.jpg	100
379.619	1.195	1195.4	test	Phase1	test/STIM_000.jpg	99
383.577	1.047	1046.7	test	Phase1	test/STIM_001.jpg	99
387.253	1.113	1113.2	test	Phase1	test/STIM_001.jpg	99
390.457	0.893	893.3	test	Phase1	test/STIM_001.jpg	99
393.852	1.023	1022.9	test	Phase1	test/STIM_002.jpg	100
396.895	0.968	968.2	test	Phase1	test/STIM_002.jpg	99
400.767	0.869	869.4	test	Phase1	test/STIM_002.jpg	99
403.878	0.914	914.1	test	Phase1	test/STIM_003.jpg	100
407.003	1.009	1008.9	test	Phase1	test/STIM_003.jpg	100
410.042	0.892	892.1	test	Phase1	test/STIM_003.jpg	100
413.3	0.991	990.8	test	Phase1	test/STIM_004.jpg	99
417.668	1.068	1067.7	test	Phase1	test/STIM_004.jpg	99
422.276	0.732	731.5	test	Phase1	test/STIM_004.jpg	99
426.831	0.73	730.5	test	Phase1	test/STIM_005.jpg	100
431.133	0.645	644.6	test	Phase1	test/STIM_005.jpg	100
433.793	0.882	881.6	test	Phase1	test/STIM_005.jpg	99
437.4	0.684	684.5	test	Phase1	test/STIM_006.jpg	100
440.39	1.232	1232.0	test	Phase1	test/STIM_006.jpg	100
443.897	1.144	1143.5	test	Phase1	test/STIM_006.jpg	100
447.339	0.969	969.1	test	Phase1	test/STIM_007.jpg	99
451.854	0.716	716.2	test	Phase1	test/STIM_007.jpg	99
455.733	0.901	901.4	test	Phase1	test/STIM_007.jpg	99
459.496	0.674	673.9	test	Phase1	test/STIM_008.jpg	100
462.267	0.895	894.9	test	Phase1	test/STIM_008.jpg	100
466.556	0.835	834.8	test	Phase1	test/STIM_008.jpg	100
469.987	0.92	919.8	test	Phase1	test/STIM_009.jpg	99
474.301	0.611	611.4	test	Phase1	test/STIM_009.jpg	100
478.166	1.242	1242.1	test	Phase1	test/STIM_009.jpg	100
482.337	1.092	1092.5	test	Phase1	test/STIM_010.jpg	100
485.505	0.931	931.0	test	Phase1	test/STIM_010.jpg	99
488.926	0.613	613.4	test	Phase1	test/STIM_010.jpg	100
492.386	0.592	592.1	test	Phase1	test/STIM_011.jpg	100
496.968	1.195	1194.7	test	Phase1	test/STIM_011.jpg	100
501.535	1.117	1116.7	test	Phase1	test/STIM_011.jpg	100
505.62	1.074	1073.8	test	Phase1	test/STIM_012.jpg	100
508.889	0.948	947.6	test	Phase1	test/STIM_012.jpg	99
512.74	1.134	1134.4	test	Phase1	test/STIM_012.jpg	99
517.042	1.169	1168.7	test	Phase1	test/STIM_013.jpg	99
521.674	1.01	1010.5	test	Phase1	test/STIM_013.jpg	100
524.907	0.836	836.5	test	Phase1	test/STIM_013.jpg	99
527.801	1.121	1120.9	test	Phase1	test/STIM_014.jpg	99
530.985	0.951	951.4	test	Phase1	test/STIM_014.jpg	100
534.878	1.166	1165.8	test	Phase1	test/STIM_014.jpg	100
538.213	1.149	1148.9	test	Phase1	test/STIM_015.jpg	100
542.035	0.947	947.4	test	Phase1	test/STIM_015.jpg	99
545.952	0.812	811.6	test	Phase1	test/STIM_015.jpg	99
550.008	0.992	992.4	test	Phase1	test/STIM_016.jpg	100
553.707	1.22	1219.9	test	Phase1	test/STIM_016.jpg	100
558.343	0.844	844.3	test	Phase1	test/STIM_016.jpg	99
563.119	0.834	833.7	test	Phase1	test/STIM_017.jpg	99
567.844	0.759	758.8	test	Phase1	test/STIM_017.jpg	100
571.409	1.214	1214.4	test	Phase1	test/STIM_017.jpg	99
575.856	1.002	1001.7	test	Phase1	test/STIM_018.jpg	99
579.406	0.779	778.7	test	Phase1	test/STIM_018.jpg	99
583.157	0.872	872.3	test	Phase1	test/STIM_018.jpg	99
587.455	1.123	1123.3	test	Phase1	test/STIM_019.jpg	99
591.82	0.727	726.6	test	Phase1	test/STIM_019.jpg	99
596.516	1.137	1137.4	test	Phase1	test/STIM_019.jpg	100
600.625	0.662	661.5	test	Phase1	test/STIM_020.jpg	100
604.246	0.869	868.6	test	Phase1	test/STIM_020.jpg	100
607.137	0.648	648.0	test	Phase1	test/STIM_020.jpg	99
610.561	1.009	1009.4	test	Phase1	test/STIM_021.jpg	100
615.143	0.883	883.3	test	Phase1	test/STIM_021.jpg	99
619.484	0.578	578.1	test	Phase1	test/STIM_021.jpg	99
623.837	1.015	1015.4	test	Phase1	test/STIM_022.jpg	99
627.589	1.188	1188.1	test	Phase1	test/STIM_022.jpg	99
631.632	0.831	831.0	test	Phase1	test/STIM_022.jpg	99
634.552	0.897	897.0	test	Phase1	test/STIM_023.jpg	100
638.695	0.78	780.3	test	Phase1	test/STIM_023.jpg	100
643.311	0.892	892.5	test	Phase1	test/STIM_023.jpg	99
646.983	0.643	642.6	test	Phase1	test/STIM_024.jpg	99
651.176	0.755	755.0	test	Phase1	test/STIM_024.jpg	99
655.731	0.723	723.1	test	Phase1	test/STIM_024.jpg	99
659.263	0.582	582.4	test	Phase1	test/STIM_025.jpg	100
662.847	0.883	883.2	test	Phase1	test/STIM_025.jpg	100
665.788	0.896	895.7	test	Phase1	test/STIM_025.jpg	100
669.167	1.04	1039.9	test	Phase1	test/STIM_026.jpg	100
673.198	0.707	707.1	test	Phase1	test/STIM_026.jpg	99
677.045	0.638	637.6	test	Phase1	test/STIM_026.jpg	100
681.63	0.669	668.7	test	Phase1	test/STIM_027.jpg	100
685.329	0.761	760.6	test	Phase1	test/STIM_027.jpg	99
689.451	1.098	1098.5	test	Phase1	test/STIM_027.jpg	99
693.064	1.183	1183.2	test	Phase1	test/STIM_028.jpg	100
697.58	1.001	1001.4	test	Phase1	test/STIM_028.jpg	99
700.941	0.983	982.8	test	Phase1	test/STIM_028.jpg	99
704.92	0.66	660.4	test	Phase1	test/STIM_029.jpg	99
708.668	0.754	754.4	test	Phase1	test/STIM_029.jpg	99
711.815	0.949	949.0	test	Phase1	test/STIM_029.jpg	100
715.887	1.048	1047.6	study	Phase2	study/STIM_000.jpg	99
720.832	0.711	711.4	study	Phase2	study/STIM_000.jpg	100
725.443	0.884	884.5	study	Phase2	study/STIM_000.jpg	99
728.794	1.08	1080.5	study	Phase2	study/STIM_001.jpg	99
733.774	0.692	692.4	study	Phase2	study/STIM_001.jpg	99
737.487	1.203	1202.7	study	Phase2	study/STIM_001.jpg	99
741.806	0.761	760.7	study	Phase2	study/STIM_002.jpg	100
746.451	0.638	637.9	study	Phase2	study/STIM_002.jpg	99
750.967	0.848	847.5	study	Phase2	study/STIM_002.jpg	100
754.433	0.859	859.4	study	Phase2	study/STIM_003.jpg	100
757.772	0.64	640.3	study	Phase2	study/STIM_003.jpg	99
760.511	1.023	1022.8	study	Phase2	study/STIM_003.jpg	99
763.845	1.311	1310.9	study	Phase2	study/STIM_004.jpg	99
768.008	1.265	1265.0	study	Phase2	study/STIM_004.jpg	99
772.068	1.091	1090.7	study	Phase2	study/STIM_004.jpg	100
775.538	1.275	1274.6	study	Phase2	study/STIM_005.jpg	100
779.467	0.682	682.0	study	Phase2	study/STIM_005.jpg	100
782.765	0.673	673.3	study	Phase2	study/STIM_005.jpg	99
785.738	1.381	1381.2	study	Phase2	study/STIM_006.jpg	99
789.429	0.718	717.5	study	Phase2	study/STIM_006.jpg	99
794.104	0.899	899.1	study	Phase2	study/STIM_006.jpg	99
798.913	1.025	1025.0	study	Phase2	study/STIM_007.jpg	99
802.811	1.155	1154.8	study	Phase2	study/STIM_007.jpg	100
807.264	1.277	1277.1	study	Phase2	study/STIM_007.jpg	100
810.667	0.686	686.3	study	Phase2	study/STIM_008.jpg	99
813.64	0.637	637.0	study	Phase2	study/STIM_008.jpg	99
818.263	0.998	998.2	study	Phase2	study/STIM_008.jpg	100
822.166	0.798	798.2	study	Phase2	study/STIM_009.jpg	100
825.411	1.04	1040.2	study	Phase2	study/STIM_009.jpg	100
830.157	0.73	729.7	study	Phase2	study/STIM_009.jpg	99
832.929	1.307	1307.1	study	Phase2	study/STIM_010.jpg	99
836.364	1.243	1243.3	study	Phase2	study/STIM_010.jpg	100
840.469	1.202	1201.6	study	Phase2	study/STIM_010.jpg	100
844.178	0.906	905.9	study	Phase2	study/STIM_011.jpg	100
848.065	1.266	1265.7	study	Phase2	study/STIM_011.jpg	99
852.029	1.226	1226.3	study	Phase2	study/STIM_011.jpg	100
856.815	1.132	1131.7	study	Phase2	study/STIM_012.jpg	99
861.163	1.229	1228.6	study	Phase2	study/STIM_012.jpg	100
864.626	1.146	1146.2	study	Phase2	study/STIM_012.jpg	100
869.326	0.733	732.9	study	Phase2	study/STIM_013.jpg	99
873.609	0.9	900.1	study	Phase2	study/STIM_013.jpg	100
877.864	0.62	619.9	study	Phase2	study/STIM_013.jpg	99
880.513	0.79	789.6	study	Phase2	study/STIM_014.jpg	100
883.962	1.17	1170.5	study	Phase2	study/STIM_014.jpg	99
888.69	0.775	775.3	study	Phase2	study/STIM_014.jpg	100
892.733	1.421	1420.9	study	Phase2	study/STIM_015.jpg	100
896.774	0.772	771.8	study	Phase2	study/STIM_015.jpg	100
900.485	0.964	964.5	study	Phase2	study/STIM_015.jpg	99
904.575	0.9	900.1	study	Phase2	study/STIM_016.jpg	100
908.201	0.644	644.0	study	Phase2	study/STIM_016.jpg	99
911.458	0.813	813.0	study	Phase2	study/STIM_016.jpg	100
914.857	1.282	1281.9	study	Phase2	study/STIM_017.jpg	99
918.748	0.813	812.7	study	Phase2	study/STIM_017.jpg	99
922.182	1.003	1002.8	study	Phase2	study/STIM_017.jpg	100
925.63	1.295	1295.4	study	Phase2	study/STIM_018.jpg	99
929.557	0.882	882.5	study	Phase2	study/STIM_018.jpg	100
933.52	0.616	615.7	study	Phase2	study/STIM_018.jpg	100
937.445	0.801	801.1	study	Phase2	study/STIM_019.jpg	100
940.42	0.821	820.8	study	Phase2	study/STIM_019.jpg	99
944.402	1.004	1003.8	study	Phase2	study/STIM_019.jpg	99
948.616	1.433	1433.1	study	Phase2	study/STIM_020.jpg	99
952.121	0.907	907.0	study	Phase2	study/STIM_020.jpg	99
956.965	0.71	710.2	study	Phase2	study/STIM_020.jpg	100
961.472	0.961	960.7	study	Phase2	study/STIM_021.jpg	100
964.637	0.878	878.5	study	Phase2	study/STIM_021.jpg	100
969.141	0.746	745.7	study	Phase2	study/STIM_021.jpg	99
972.097	1.466	1466.1	study	Phase2	study/STIM_022.jpg	100
976.029	0.764	763.8	study	Phase2	study/STIM_022.jpg	99
980.02	1.275	1274.6	study	Phase2	study/STIM_022.jpg	99
984.968	0.869	869.3	study	Phase2	study/STIM_023.jpg	100
989.298	1.305	1304.8	study	Phase2	study/STIM_023.jpg	100
993.055	1.189	1188.8	study	Phase2	study/STIM_023.jpg	99
997.206	1.166	1165.9	study	Phase2	study/STIM_024.jpg	99
1000.634	0.769	768.9	study	Phase2	study/STIM_024.jpg	100
1004.59	0.704	703.9	study	Phase2	study/STIM_024.jpg	99
1008.497	0.873	873.4	study	Phase2	study/STIM_025.jpg	99
1012.583	0.826	826.3	study	Phase2	study/STIM_025.jpg	100
1016.648	1.016	1015.9	study	Phase2	study/STIM_025.jpg	100
1021.524	1.326	1325.7	study	Phase2	study/STIM_026.jpg	100
1025.92	0.865	865.0	study	Phase2	study/STIM_026.jpg	100
1030.325	1.191	1191.4	study	Phase2	study/STIM_026.jpg	99
1035.272	1.239	1239.4	study	Phase2	study/STIM_027.jpg	99
1040.185	0.637	637.4	study	Phase2	study/STIM_027.jpg	99
1044.125	1.166	1166.3	study	Phase2	study/STIM_027.jpg	100
1048.811	0.742	742.5	study	Phase2	study/STIM_028.jpg	99
1052.825	0.849	849.3	study	Phase2	study/STIM_028.jpg	99
1057.136	1.269	1268.8	study	Phase2	study/STIM_028.jpg	100
1062.385	1.018	1018.3	study	Phase2	study/STIM_029.jpg	100
1066.627	1.286	1286.3	study	Phase2	study/STIM_029.jpg	99
1070.99	0.876	876.5	study	Phase2	study/STIM_029.jpg	100
1074.856	1.095	1094.6	test	Phase2	test/STIM_000.jpg	99
1079.446	0.67	670.3	test	Phase2	test/STIM_000.jpg	100
1082.279	0.674	673.5	test	Phase2	test/STIM_000.jpg	100
1086.222	0.762	761.5	test	Phase2	test/STIM_001.jpg	100
1090.603	0.906	905.9	test	Phase2	test/STIM_001.jpg	100
1094.283	0.698	697.5	test	Phase2	test/STIM_001.jpg	100
1097.934	0.848	847.8	test	Phase2	test/STIM_002.jpg	99
1102.072	0.793	793.0	test	Phase2	test/STIM_002.jpg	99
1105.113	1.118	1117.6	test	Phase2	test/STIM_002.jpg	99
1108.613	1.238	1238.1	test	Phase2	test/STIM_003.jpg	99
1113.172	0.949	949.2	test	Phase2	test/STIM_003.jpg	100
1117.39	0.767	766.7	test	Phase2	test/STIM_003.jpg	99
1121.294	0.737	737.3	test	Phase2	test/STIM_004.jpg	100
1124.517	0.678	677.7	test	Phase2	test/STIM_004.jpg	100
1128.574	0.768	767.6	test	Phase2	test/STIM_004.jpg	100
1131.716	1.072	1071.6	test	Phase2	test/STIM_005.jpg	99
1134.821	0.63	629.7	test	Phase2	test/STIM_005.jpg	100
1137.81	1.085	1085.3	test	Phase2	test/STIM_005.jpg	99
1141.83	0.977	977.4	test	Phase2	test/STIM_006.jpg	100
1145.641	0.999	999.2	test	Phase2	test/STIM_006.jpg	99
1149.259	0.745	744.8	test	Phase2	test/STIM_006.jpg	99
1153.831	0.606	605.9	test	Phase2	test/STIM_007.jpg	100
1156.854	1.036	1035.7	test	Phase2	test/STIM_007.jpg	99
1161.678	0.836	836.5	test	Phase2	test/STIM_007.jpg	100
1165.867	1.236	1235.9	test	Phase2	test/STIM_008.jpg	99
1169.964	1.19	1189.8	test	Phase2	test/STIM_008.jpg	100
1173.502	1.235	1235.4	test	Phase2	test/STIM_008.jpg	100
1177.212	0.991	990.6	test	Phase2	test/STIM_009.jpg	100
1181.009	1.054	1053.8	test	Phase2	test/STIM_009.jpg	99
1184.902	1.248	1247.6	test	Phase2	test/STIM_009.jpg	99
1188.358	0.953	953.3	test	Phase2	test/STIM_010.jpg	99
1191.88	1.041	1040.9	test	Phase2	test/STIM_010.jpg	99
1195.569	0.954	953.5	test	Phase2	test/STIM_010.jpg	100
1199.567	0.578	578.5	test	Phase2	test/STIM_011.jpg	100
1202.337	0.837	836.8	test	Phase2	test/STIM_011.jpg	99
1205.823	0.961	961.2	test	Phase2	test/STIM_011.jpg	100
1210.764	0.847	847.4	test	Phase2	test/STIM_012.jpg	99
1215.095	0.724	724.0	test	Phase2	test/STIM_012.jpg	100
1218.289	0.594	594.4	test	Phase2	test/STIM_012.jpg	100
1221.162	1.163	1162.8	test	Phase2	test/STIM_013.jpg	100
1226.098	0.792	791.6	test	Phase2	test/STIM_013.jpg	100
1230.546	0.634	633.9	test	Phase2	test/STIM_013.jpg	100
1234.952	1.104	1104.0	test	Phase2	test/STIM_014.jpg	100
1239.057	1.205	1205.4	test	Phase2	test/STIM_014.jpg	100
1243.508	0.613	613.0	test	Phase2	test/STIM_014.jpg	100
1247.953	0.625	625.2	test	Phase2	test/STIM_015.jpg	100
1250.825	0.904	903.5	test	Phase2	test/STIM_015.jpg	100
1254.664	0.844	844.1	test	Phase2	test/STIM_015.jpg	100
1259.2	0.972	971.9	test	Phase2	test/STIM_016.jpg	99
1262.578	0.79	789.7	test	Phase2	test/STIM_016.jpg	100
1265.686	0.637	636.6	test	Phase2	test/STIM_016.jpg	100
1269.186	0.7	699.6	test	Phase2	test/STIM_017.jpg	100
1272.754	1.209	1208.8	test	Phase2	test/STIM_017.jpg	99
1277.274	1.014	1014.2	test	Phase2	test/STIM_017.jpg	99
1282.05	0.998	998.4	test	Phase2	test/STIM_018.jpg	100
1286.967	0.972	972.4	test	Phase2	test/STIM_018.jpg	99
1291.351	0.583	582.7	test	Phase2	test/STIM_018.jpg	99
1294.883	0.947	947.4	test	Phase2	test/STIM_019.jpg	99
1299.223	0.89	889.8	test	Phase2	test/STIM_019.jpg	99
1302.748	1.179	1178.8	test	Phase2	test/STIM_019.jpg	99
1307.744	0.989	989.1	test	Phase2	test/STIM_020.jpg	100
1312.051	1.17	1169.7	test	Phase2	test/STIM_020.jpg	100
1315.291	0.703	703.2	test	Phase2	test/STIM_020.jpg	99
1319.788	1.244	1244.5	test	Phase2	test/STIM_021.jpg	99
1324.929	0.808	807.6	test	Phase2	test/STIM_021.jpg	100
1327.947	0.642	642.4	test	Phase2	test/STIM_021.jpg	100
1331.352	1.219	1219.3	test	Phase2	test/STIM_022.jpg	100
1335.35	1.102	1102.5	test	Phase2	test/STIM_022.jpg	100
1339.491	1.168	1168.0	test	Phase2	test/STIM_022.jpg	99
1344.24	1.007	1006.7	test	Phase2	test/STIM_023.jpg	99
1347.472	1.081	1080.9	test	Phase2	test/STIM_023.jpg	99
1351.465	0.82	819.8	test	Phase2	test/STIM_023.jpg	100
1354.979	0.753	753.4	test	Phase2	test/STIM_024.jpg	100
1358.049	1.013	1013.2	test	Phase2	test/STIM_024.jpg	99
1362.474	0.802	801.9	test	Phase2	test/STIM_024.jpg	100
1366.142	0.9	900.2	test	Phase2	test/STIM_025.jpg	99
1370.327	0.773	773.0	test	Phase2	test/STIM_025.jpg	99
1374.838	1.149	1148.7	test	Phase2	test/STIM_025.jpg	100
1379.717	0.906	906.5	test	Phase2	test/STIM_026.jpg	99
1382.987	1.092	1092.5	test	Phase2	test/STIM_026.jpg	99
1387.082	0.949	949.4	test	Phase2	test/STIM_026.jpg	99
1390.243	0.746	746.3	test	Phase2	test/STIM_027.jpg	99
1392.99	0.831	830.8	test	Phase2	test/STIM_027.jpg	100
1396.811	1.239	1238.6	test	Phase2	test/STIM_027.jpg	100
1401.966	0.733	732.8	test	Phase2	test/STIM_028.jpg	99
1406.131	1.228	1228.2	test	Phase2	test/STIM_028.jpg	100
1410.514	0.825	825.1	test	Phase2	test/STIM_028.jpg	100
1414.022	0.698	698.1	test	Phase2	test/STIM_029.jpg	99
1418.142	0.846	845.9	test	Phase2	test/STIM_029.jpg	99
1421.579	0.734	734.3	test	Phase2	test/STIM_029.jpg	99
1424.343	0.891	891.4	study	Phase3	study/STIM_000.jpg	99
1427.425	0.788	788.1	study	Phase3	study/STIM_000.jpg	99
1431.295	1.205	1204.9	study	Phase3	study/STIM_000.jpg	100
1436.094	1.122	1121.7	study	Phase3	study/STIM_001.jpg	100
1439.246	0.631	631.4	study	Phase3	study/STIM_001.jpg	99
1443.706	0.59	590.2	study	Phase3	study/STIM_001.jpg	99
1448.284	0.797	797.4	study	Phase3	study/STIM_002.jpg	100
1452.894	0.864	864.0	study	Phase3	study/STIM_002.jpg	100
1456.65	0.868	867.5	study	Phase3	study/STIM_002.jpg	99
1461.329	0.696	696.4	study	Phase3	study/STIM_003.jpg	100
1465.934	1.167	1166.6	study	Phase3	study/STIM_003.jpg	100
1470.87	1.178	1177.7	study	Phase3	study/STIM_003.jpg	100
1475.215	1.145	1145.3	study	Phase3	study/STIM_004.jpg	99
1478.585	0.768	767.8	study	Phase3	study/STIM_004.jpg	99
1481.58	0.97	970.1	study	Phase3	study/STIM_004.jpg	100
1484.921	0.743	743.4	study	Phase3	study/STIM_005.jpg	99
1488.766	0.549	549.1	study	Phase3	study/STIM_005.jpg	100
1492.633	0.665	665.1	study	Phase3	study/STIM_005.jpg	99
1497.109	1.091	1090.8	study	Phase3	study/STIM_006.jpg	99
1501.87	1.135	1135.3	study	Phase3	study/STIM_006.jpg	100
1506.51	0.891	891.0	study	Phase3	study/STIM_006.jpg	99
1510.825	0.85	850.0	study	Phase3	study/STIM_007.jpg	99
1515.007	0.937	937.2	study	Phase3	study/STIM_007.jpg	99
1519.328	0.919	918.9	study	Phase3	study/STIM_007.jpg	99
1523.835	1.037	1037.2	study	Phase3	study/STIM_008.jpg	100
1527.904	0.973	973.1	study	Phase3	study/STIM_008.jpg	100
1531.291	0.648	647.9	study	Phase3	study/STIM_008.jpg	100
1534.66	1.117	1117.0	study	Phase3	study/STIM_009.jpg	99
1539.117	0.616	615.5	study	Phase3	study/STIM_009.jpg	99
1542.527	1.021	1021.1	study	Phase3	study/STIM_009.jpg	99
1546.827	1.147	1147.3	study	Phase3	study/STIM_010.jpg	100
1551.486	0.925	925.0	study	Phase3	study/STIM_010.jpg	100
1555.771	0.775	774.6	study	Phase3	study/STIM_010.jpg	100
1560.501	0.977	977.3	study	Phase3	study/STIM_011.jpg	99
1563.929	0.914	913.8	study	Phase3	study/STIM_011.jpg	100
1568.351	1.034	1033.8	study	Phase3	study/STIM_011.jpg	100
1571.389	0.998	997.8	study	Phase3	study/STIM_012.jpg	99
1574.412	1.086	1085.9	study	Phase3	study/STIM_012.jpg	100
1579.209	0.541	541.3	study	Phase3	study/STIM_012.jpg	99
1583.243	1.136	1135.5	study	Phase3	study/STIM_013.jpg	100
1587.823	0.933	932.6	study	Phase3	study/STIM_013.jpg	99
1592.199	1.111	1111.2	study	Phase3	study/STIM_013.jpg	100
1596.512	0.649	648.7	study	Phase3	study/STIM_014.jpg	99
1599.836	0.772	771.9	study	Phase3	study/STIM_014.jpg	99
1603.229	0.842	841.9	study	Phase3	study/STIM_014.jpg	100
1606.861	0.774	773.6	study	Phase3	study/STIM_015.jpg	99
1611.063	1.124	1123.7	study	Phase3	study/STIM_015.jpg	99
1615.704	0.568	568.4	study	Phase3	study/STIM_015.jpg	99
1619.964	0.66	660.4	study	Phase3	study/STIM_016.jpg	100
1624.547	0.634	633.6	study	Phase3	study/STIM_016.jpg	100
1628.647	0.755	754.6	study	Phase3	study/STIM_016.jpg	99
1632.814	1.025	1025.0	study	Phase3	study/STIM_017.jpg	100
1636.477	1.15	1150.1	study	Phase3	study/STIM_017.jpg	99
1640.195	0.792	792.1	study	Phase3	study/STIM_017.jpg	99
1643.137	0.708	708.2	study	Phase3	study/STIM_018.jpg	99
1646.552	1.179	1178.8	study	Phase3	study/STIM_018.jpg	100
1649.845	0.83	830.0	study	Phase3	study/STIM_018.jpg	100
1653.697	0.573	573.3	study	Phase3	study/STIM_019.jpg	100
1656.866	0.758	757.6	study	Phase3	study/STIM_019.jpg	99
1660.131	0.715	714.9	study	Phase3	study/STIM_019.jpg	100
1664.611	0.577	576.8	study	Phase3	study/STIM_020.jpg	99
1668.229	1.208	1208.5	study	Phase3	study/STIM_020.jpg	100
1672.923	0.844	844.3	study	Phase3	study/STIM_020.jpg	99
1676.89	0.624	623.9	study	Phase3	study/STIM_021.jpg	100
1681.329	1.197	1196.8	study	Phase3	study/STIM_021.jpg	100
1685.152	1.126	1125.7	study	Phase3	study/STIM_021.jpg	99
1689.816	1.173	1172.6	study	Phase3	study/STIM_022.jpg	100
1693.018	1.083	1083.1	study	Phase3	study/STIM_022.jpg	99
1696.41	0.621	621.0	study	Phase3	study/STIM_022.jpg	100
1700.921	1.003	1003.1	study	Phase3	study/STIM_023.jpg	99
1705.362	1.016	1015.8	study	Phase3	study/STIM_023.jpg	99
1708.911	1.078	1078.4	study	Phase3	study/STIM_023.jpg	99
1712.523	1.156	1156.1	study	Phase3	study/STIM_024.jpg	100
1717.504	0.893	893.2	study	Phase3	study/STIM_024.jpg	100
1721.275	0.561	561.4	study	Phase3	study/STIM_024.jpg	99
1724.062	1.109	1108.6	study	Phase3	study/STIM_025.jpg	99
1728.766	0.564	563.5	study	Phase3	study/STIM_025.jpg	100
1732.144	0.829	828.6	study	Phase3	study/STIM_025.jpg	100
1736.424	0.902	901.5	study	Phase3	study/STIM_026.jpg	99
1740.698	0.99	990.4	study	Phase3	study/STIM_026.jpg	99
1745.658	1.14	1140.2	study	Phase3	study/STIM_026.jpg	99
1749.911	0.608	608.3	study	Phase3	study/STIM_027.jpg	99
1754.129	1.056	1056.5	study	Phase3	study/STIM_027.jpg	99
1757.425	0.616	616.5	study	Phase3	study/STIM_027.jpg	99
1760.965	1.008	1008.3	study	Phase3	study/STIM_028.jpg	100
1764.007	0.935	934.6	study	Phase3	study/STIM_028.jpg	99
1767.323	0.74	739.6	study	Phase3	study/STIM_028.jpg	99
1771.533	1.151	1150.7	study	Phase3	study/STIM_029.jpg	100
1775.244	0.713	713.4	study	Phase3	study/STIM_029.jpg	100
1779.258	1.038	1037.6	study	Phase3	study/STIM_029.jpg	99
1782.797	0.818	817.9	test	Phase3	test/STIM_000.jpg	99
1787.051	0.678	678.3	test	Phase3	test/STIM_000.jpg	99
1791.652	1.035	1034.6	test	Phase3	test/STIM_000.jpg	100
1794.822	0.625	624.8	test	Phase3	test/STIM_001.jpg	99
1798.078	0.777	777.4	test	Phase3	test/STIM_001.jpg	99
1802.144	0.68	680.2	test	Phase3	test/STIM_001.jpg	100
1806.739	1.048	1048.0	test	Phase3	test/STIM_002.jpg	99
1810.513	0.702	701.9	test	Phase3	test/STIM_002.jpg	99
1814.287	0.703	703.2	test	Phase3	test/STIM_002.jpg	100
1818.725	0.816	816.2	test	Phase3	test/STIM_003.jpg	100
1823.389	0.766	766.3	test	Phase3	test/STIM_003.jpg	99
1827.491	0.707	707.4	test	Phase3	test/STIM_003.jpg	100
1832.165	1.232	1232.2	test	Phase3	test/STIM_004.jpg	100
1836.202	0.726	726.1	test	Phase3	test/STIM_004.jpg	99
1840.261	1.12	1119.5	test	Phase3	test/STIM_004.jpg	100
1845.314	0.654	653.6	test	Phase3	test/STIM_005.jpg	99
1849.179	0.653	653.3	test	Phase3	test/STIM_005.jpg	100
1851.837	1.017	1016.7	test	Phase3	test/STIM_005.jpg	100
1855.734	0.713	713.4	test	Phase3	test/STIM_006.jpg	99
1859.736	0.874	873.6	test	Phase3	test/STIM_006.jpg	99
1863.929	0.917	916.6	test	Phase3	test/STIM_006.jpg	100
1868.211	0.96	960.4	test	Phase3	test/STIM_007.jpg	100
1871.953	0.931	930.8	test	Phase3	test/STIM_007.jpg	100
1875.316	0.719	718.7	test	Phase3	test/STIM_007.jpg	99
1878.684	1.142	1142.2	test	Phase3	test/STIM_008.jpg	100
1883.511	0.956	956.5	test	Phase3	test/STIM_008.jpg	100
1886.727	1.038	1038.3	test	Phase3	test/STIM_008.jpg	100
1891.624	1.124	1124.4	test	Phase3	test/STIM_009.jpg	99
1894.846	0.74	739.8	test	Phase3	test/STIM_009.jpg	100
1898.075	0.797	796.8	test	Phase3	test/STIM_009.jpg	99
1901.117	0.824	824.1	test	Phase3	test/STIM_010.jpg	100
1905.702	0.939	938.7	test	Phase3	test/STIM_010.jpg	100
1909.292	0.675	674.6	test	Phase3	test/STIM_010.jpg	99
1912.865	0.897	897.3	test	Phase3	test/STIM_011.jpg	99
1916.847	0.928	927.8	test	Phase3	test/STIM_011.jpg	99
1921.483	1.164	1163.6	test	Phase3	test/STIM_011.jpg	99
1925.904	1.227	1226.8	test	Phase3	test/STIM_012.jpg	100
1930.407	1.131	1131.2	test	Phase3	test/STIM_012.jpg	100
1933.884	1.184	1184.4	test	Phase3	test/STIM_012.jpg	99
1937.554	0.63	630.1	test	Phase3	test/STIM_013.jpg	100
1940.643	1.026	1025.9	test	Phase3	test/STIM_013.jpg	99
1944.43	0.905	905.3	test	Phase3	test/STIM_013.jpg	99
1948.578	1.154	1154.3	test	Phase3	test/STIM_014.jpg	99
1952.833	0.911	911.2	test	Phase3	test/STIM_014.jpg	99
1955.784	0.649	649.2	test	Phase3	test/STIM_014.jpg	100
1960.114	1.204	1204.2	test	Phase3	test/STIM_015.jpg	99
1963.792	0.86	859.9	test	Phase3	test/STIM_015.jpg	99
1968.346	1.029	1029.2	test	Phase3	test/STIM_015.jpg	99
1971.801	0.948	947.9	test	Phase3	test/STIM_016.jpg	99
1976.464	0.66	659.7	test	Phase3	test/STIM_016.jpg	100
1980.475	0.682	682.5	test	Phase3	test/STIM_016.jpg	99
1984.381	0.698	698.1	test	Phase3	test/STIM_017.jpg	99
1988.776	0.608	608.0	test	Phase3	test/STIM_017.jpg	100
1992.146	0.937	937.1	test	Phase3	test/STIM_017.jpg	100
1995.371	0.652	651.9	test	Phase3	test/STIM_018.jpg	100
1999.498	0.66	660.0	test	Phase3	test/STIM_018.jpg	100
2002.675	0.836	835.6	test	Phase3	test/STIM_018.jpg	100
2006.806	0.92	920.1	test	Phase3	test/STIM_019.jpg	100
2010.341	0.901	901.1	test	Phase3	test/STIM_019.jpg	100
2013.946	1.114	1114.4	test	Phase3	test/STIM_019.jpg	100
2017.692	0.746	746.4	test	Phase3	test/STIM_020.jpg	100
2020.843	1.181	1180.7	test	Phase3	test/STIM_020.jpg	100
2025.67	0.812	811.6	test	Phase3	test/STIM_020.jpg	99
2028.714	1.002	1002.2	test	Phase3	test/STIM_021.jpg	99
2033.018	0.622	621.9	test	Phase3	test/STIM_021.jpg	100
2037.558	1.073	1073.3	test	Phase3	test/STIM_021.jpg	100
2041.409	0.669	669.1	test	Phase3	test/STIM_022.jpg	99
2045.953	0.799	799.1	test	Phase3	test/STIM_022.jpg	99
2048.99	0.808	808.2	test	Phase3	test/STIM_022.jpg	100
2052.172	0.769	769.3	test	Phase3	test/STIM_023.jpg	99
2056.052	1.083	1082.8	test	Phase3	test/STIM_023.jpg	99
2059.814	1.121	1121.4	test	Phase3	test/STIM_023.jpg	99
2063.914	1.127	1127.4	test	Phase3	test/STIM_024.jpg	100
2067.358	1.053	1053.2	test	Phase3	test/STIM_024.jpg	100
2072.231	1.059	1059.2	test	Phase3	test/STIM_024.jpg	99
2076.905	0.946	946.5	test	Phase3	test/STIM_025.jpg	99
2081.768	1.214	1213.9	test	Phase3	test/STIM_025.jpg	99
2085.656	0.764	764.3	test	Phase3	test/STIM_025.jpg	99
2089.458	1.092	1091.5	test	Phase3	test/STIM_026.jpg	99
2094.043	0.669	668.8	test	Phase3	test/STIM_026.jpg	100
2097.516	0.763	763.3	test	Phase3	test/STIM_026.jpg	99
2101.994	0.85	850.5	test	Phase3	test/STIM_027.jpg	100
2105.216	0.958	958.4	test	Phase3	test/STIM_027.jpg	100
2109.372	0.59	589.7	test	Phase3	test/STIM_027.jpg	100
2113.01	1.232	1232.5	test	Phase3	test/STIM_028.jpg	99
2117.252	0.698	697.6	test	Phase3	test/STIM_028.jpg	99
2120.661	0.729	728.7	test	Phase3	test/STIM_028.jpg	99
2123.5	0.882	881.7	test	Phase3	test/STIM_029.jpg	100
2127.926	0.734	733.6	test	Phase3	test/STIM_029.jpg	99
2132.209	0.66	659.7	test	Phase3	test/STIM_029.jpg	99
