onset	duration	response_time_ms	trial_type	learning_stage	stimulus	response_port
0.0	0.956	956.4	study	Phase1	study/STIM_000.jpg	100
4.349	0.883	883.4	study	Phase1	study/STIM_000.jpg	100
7.553	1.313	1313.2	study	Phase1	study/STIM_000.jpg	99
12.232	1.689	1689.0	study	Phase1	study/STIM_001.jpg	100
17.318	1.656	1655.6	study	Phase1	study/STIM_001.jpg	100
22.687	0.859	859.0	study	Phase1	study/STIM_001.jpg	99
27.002	1.291	1290.8	study	Phase1	study/STIM_002.jpg	100
31.314	1.739	1739.2	study	Phase1	study/STIM_002.jpg	100
36.19	1.2	1200.4	study	Phase1	study/STIM_002.jpg	99
41.019	1.628	1628.5	study	Phase1	study/STIM_003.jpg	100
44.851	1.264	1264.3	study	Phase1	study/STIM_003.jpg	100
48.342	0.913	913.1	study	Phase1	study/STIM_003.jpg	100
52.703	1.127	1127.4	study	Phase1	study/STIM_004.jpg	100
56.209	1.689	1689.4	study	Phase1	study/STIM_004.jpg	100
61.269	0.718	718.1	study	Phase1	study/STIM_004.jpg	99
65.023	1.553	1553.2	study	Phase1	study/STIM_005.jpg	99
69.419	1.746	1745.9	study	Phase1	study/STIM_005.jpg	99
74.828	1.594	1593.7	study	Phase1	study/STIM_005.jpg	99
79.904	1.877	1877.2	study	Phase1	study/STIM_006.jpg	99
83.808	1.444	1444.2	study	Phase1	study/STIM_006.jpg	99
87.67	1.468	1467.8	study	Phase1	study/STIM_006.jpg	99
91.592	0.987	987.0	study	Phase1	study/STIM_007.jpg	99
94.558	1.476	1475.5	study	Phase1	study/STIM_007.jpg	100
99.21	0.823	822.8	study	Phase1	study/STIM_007.jpg	99
103.979	1.787	1786.9	study	Phase1	study/STIM_008.jpg	100
108.37	1.347	1347.1	study	Phase1	study/STIM_008.jpg	99
113.285	1.386	1386.3	study	Phase1	study/STIM_008.jpg	99
117.134	1.702	1702.1	study	Phase1	study/STIM_009.jpg	99
120.964	1.789	1788.6	study	Phase1	study/STIM_009.jpg	100
125.72	1.485	1485.4	study	Phase1	study/STIM_009.jpg	100
130.453	1.222	1221.5	study	Phase1	study/STIM_010.jpg	100
135.154	1.677	1677.1	study	Phase1	study/STIM_010.jpg	99
140.601	1.373	1373.2	study	Phase1	study/STIM_010.jpg	100
144.378	1.719	1718.9	study	Phase1	study/STIM_011.jpg	100
149.989	1.45	1449.7	study	Phase1	study/STIM_011.jpg	99
153.529	0.887	887.3	study	Phase1	study/STIM_011.jpg	100
156.514	1.359	1358.6	study	Phase1	study/STIM_012.jpg	99
159.903	1.17	1170.5	study	Phase1	study/STIM_012.jpg	99
164.128	1.314	1313.5	study	Phase1	study/STIM_012.jpg	100
168.761	0.962	962.3	study	Phase1	study/STIM_013.jpg	99
173.532	1.143	1142.6	study	Phase1	study/STIM_013.jpg	99
177.199	1.216	1216.3	study	Phase1	study/STIM_013.jpg	99
180.397	0.917	917.4	study	Phase1	study/STIM_014.jpg	99
183.909	1.029	1028.7	study	Phase1	study/STIM_014.jpg	100
188.368	1.408	1407.7	study	Phase1	study/STIM_014.jpg	100
191.779	0.806	806.4	study	Phase1	study/STIM_015.jpg	100
195.574	1.291	1290.9	study	Phase1	study/STIM_015.jpg	100
199.529	0.947	947.2	study	Phase1	study/STIM_015.jpg	100
204.083	1.49	1490.0	study	Phase1	study/STIM_016.jpg	100
209.04	0.776	775.6	study	Phase1	study/STIM_016.jpg	100
212.48	0.964	964.0	study	Phase1	study/STIM_016.jpg	99
216.178	1.036	1035.9	study	Phase1	study/STIM_017.jpg	99
219.862	0.802	802.1	study	Phase1	study/STIM_017.jpg	100
223.41	1.582	1581.7	study	Phase1	study/STIM_017.jpg	99
227.188	1.352	1351.8	study	Phase1	study/STIM_018.jpg	99
232.112	0.78	780.4	study	Phase1	study/STIM_018.jpg	99
235.092	1.242	1242.5	study	Phase1	study/STIM_018.jpg	99
240.11	1.268	1268.2	study	Phase1	study/STIM_019.jpg	99
245.159	0.822	821.8	study	Phase1	study/STIM_019.jpg	99
248.214	1.591	1590.8	study	Phase1	study/STIM_019.jpg	100
252.341	1.039	1038.7	study	Phase1	study/STIM_020.jpg	100
256.655	0.994	993.5	study	Phase1	study/STIM_020.jpg	100
260.542	0.82	819.6	study	Phase1	study/STIM_020.jpg	99
264.415	1.446	1445.9	study	Phase1	study/STIM_021.jpg	100
268.128	0.979	978.6	study	Phase1	study/STIM_021.jpg	100
271.734	1.17	1169.7	study	Phase1	study/STIM_021.jpg	99
275.295	1.652	1652.3	study	Phase1	study/STIM_022.jpg	99
280.331	1.047	1047.1	study	Phase1	study/STIM_022.jpg	99
284.241	1.027	1027.4	study	Phase1	study/STIM_022.jpg	99
288.734	1.789	1788.8	study	Phase1	study/STIM_023.jpg	100
294.499	1.673	1672.7	study	Phase1	study/STIM_023.jpg	99
298.182	1.648	1647.6	study	Phase1	study/STIM_023.jpg	99
302.956	1.059	1059.0	study	Phase1	study/STIM_024.jpg	99
307.077	1.432	1432.2	study	Phase1	study/STIM_024.jpg	100
312.352	1.35	1350.3	study	Phase1	study/STIM_024.jpg	99
316.972	1.207	1206.8	study	Phase1	study/STIM_025.jpg	100
322.145	0.796	796.4	study	Phase1	study/STIM_025.jpg	99
326.769	1.48	1480.1	study	Phase1	study/STIM_025.jpg	99
331.443	1.501	1501.2	study	Phase1	study/STIM_026.jpg	100
335.621	1.643	1642.8	study	Phase1	study/STIM_026.jpg	100
340.287	0.942	941.8	study	Phase1	study/STIM_026.jpg	99
344.967	1.151	1151.1	study	Phase1	study/STIM_027.jpg	99
348.473	0.746	746.1	study	Phase1	study/STIM_027.jpg	100
351.925	1.632	1632.3	study	Phase1	study/STIM_027.jpg	99
355.889	1.432	1431.9	study	Phase1	study/STIM_028.jpg	99
360.093	1.621	1620.6	study	Phase1	study/STIM_028.jpg	100
365.558	1.206	1206.2	study	Phase1	study/STIM_028.jpg	99
370.087	1.686	1685.6	study	Phase1	study/STIM_029.jpg	100
374.329	0.922	921.7	study	Phase1	study/STIM_029.jpg	99
378.328	0.844	843.6	study	Phase1	study/STIM_029.jpg	99
381.938	1.142	1142.3	test	Phase1	test/STIM_000.jpg	100
386.264	0.934	934.1	test	Phase1	test/STIM_000.jpg	100
390.86	0.77	769.7	test	Phase1	test/STIM_000.jpg	99
395.581	0.637	637.0	test	Phase1	test/STIM_001.jpg	99
400.269	0.76	760.1	test	Phase1	test/STIM_001.jpg	99
403.961	0.632	632.0	test	Phase1	test/STIM_001.jpg	99
407.492	0.948	948.3	test	Phase1	test/STIM_002.jpg	100
410.677	0.851	851.1	test	Phase1	test/STIM_002.jpg	99
413.671	0.947	946.7	test	Phase1	test/STIM_002.jpg	99
417.147	0.828	828.1	test	Phase1	test/STIM_003.jpg	100
421.147	0.856	856.0	test	Phase1	test/STIM_003.jpg	100
425.281	1.072	1072.0	test	Phase1	test/STIM_003.jpg	100
429.734	0.921	921.4	test	Phase1	test/STIM_004.jpg	99
434.183	0.916	916.3	test	Phase1	test/STIM_004.jpg	99
437.519	1.25	1249.5	test	Phase1	test/STIM_004.jpg	99
440.862	0.892	891.9	test	Phase1	test/STIM_005.jpg	100
444.183	0.985	985.3	test	Phase1	test/STIM_005.jpg	100
448.959	1.245	1244.7	test	Phase1	test/STIM_005.jpg	99
452.649	0.694	694.3	test	Phase1	test/STIM_006.jpg	100
456.449	0.941	940.6	test	Phase1	test/STIM_006.jpg	100
460.998	0.97	970.1	test	Phase1	test/STIM_006.jpg	100
464.965	0.884	884.4	test	Phase1	test/STIM_007.jpg	99
469.014	0.825	825.2	test	Phase1	test/STIM_007.jpg	99
472.303	1.101	1101.1	test	Phase1	test/STIM_007.jpg	99
476.616	1.372	1372.2	test	Phase1	test/STIM_008.jpg	100
480.349	1.166	1166.3	test	Phase1	test/STIM_008.jpg	100
483.395	1.377	1377.4	test	Phase1	test/STIM_008.jpg	100
487.06	1.022	1022.2	test	Phase1	test/STIM_009.jpg	99
491.207	1.245	1244.7	test	Phase1	test/STIM_009.jpg	100
495.624	0.801	801.4	test	Phase1	test/STIM_009.jpg	100
499.137	1.153	1152.7	test	Phase1	test/STIM_010.jpg	100
503.94	0.808	807.6	test	Phase1	test/STIM_010.jpg	99
508.734	0.84	839.7	test	Phase1	test/STIM_010.jpg	100
512.416	0.755	754.7	test	Phase1	test/STIM_011.jpg	100
516.202	0.605	604.8	test	Phase1	test/STIM_011.jpg	100
520.012	1.149	1149.1	test	Phase1	test/STIM_011.jpg	100
524.399	1.069	1068.9	test	Phase1	test/STIM_012.jpg	100
528.875	0.765	764.8	test	Phase1	test/STIM_012.jpg	99
533.339	0.701	700.6	test	Phase1	test/STIM_012.jpg	99
537.443	1.201	1200.7	test	Phase1	test/STIM_013.jpg	99
541.658	0.788	787.6	test	Phase1	test/STIM_013.jpg	100
545.259	1.174	1174.2	test	Phase1	test/STIM_013.jpg	99
548.776	1.112	1111.9	test	Phase1	test/STIM_014.jpg	99
552.418	0.99	990.2	test	Phase1	test/STIM_014.jpg	100
555.898	0.841	840.7	test	Phase1	test/STIM_014.jpg	100
558.96	1.146	1145.9	test	Phase1	test/STIM_015.jpg	100
562.056	0.876	876.2	test	Phase1	test/STIM_015.jpg	99
565.268	1.097	1096.8	test	Phase1	test/STIM_015.jpg	99
570.091	0.906	905.6	test	Phase1	test/STIM_016.jpg	100
573.998	0.727	726.8	test	Phase1	test/STIM_016.jpg	100
578.425	0.685	684.9	test	Phase1	test/STIM_016.jpg	99
582.476	1.137	1137.0	test	Phase1	test/STIM_017.jpg	99
586.512	0.73	729.9	test	Phase1	test/STIM_017.jpg	100
589.314	0.921	920.7	test	Phase1	test/STIM_017.jpg	99
593.532	0.572	572.1	test	Phase1	test/STIM_018.jpg	99
598.014	1.16	1160.3	test	Phase1	test/STIM_018.jpg	99
602.554	0.703	702.8	test	Phase1	test/STIM_018.jpg	99
605.611	0.962	961.9	test	Phase1	test/STIM_019.jpg	99
608.731	1.03	1029.7	test	Phase1	test/STIM_019.jpg	99
612.337	1.04	1040.5	test	Phase1	test/STIM_019.jpg	100
616.163	0.715	714.6	test	Phase1	test/STIM_020.jpg	100
618.878	0.719	719.0	test	Phase1	test/STIM_020.jpg	100
622.368	1.26	1260.5	test	Phase1	test/STIM_020.jpg	99
626.199	0.766	766.3	test	Phase1	test/STIM_021.jpg	100
630.906	1.062	1062.2	test	Phase1	test/STIM_021.jpg	99
634.6	1.178	1178.5	test	Phase1	test/STIM_021.jpg	99
638.883	1.279	1278.6	test	Phase1	test/STIM_022.jpg	99
643.995	1.272	1272.3	test	Phase1	test/STIM_022.jpg	99
647.892	0.715	715.2	test	Phase1	test/STIM_022.jpg	99
651.426	0.833	832.7	test	Phase1	test/STIM_023.jpg	100
656.014	0.673	673.4	test	Phase1	test/STIM_023.jpg	100
659.639	1.228	1227.6	test	Phase1	test/STIM_023.jpg	99
663.369	0.849	848.8	test	Phase1	test/STIM_024.jpg	99
666.773	0.626	626.3	test	Phase1	test/STIM_024.jpg	99
669.838	1.218	1218.0	test	Phase1	test/STIM_024.jpg	99
673.951	1.266	1266.1	test	Phase1	test/STIM_025.jpg	100
678.677	0.643	643.4	test	Phase1	test/STIM_025.jpg	100
682.609	1.345	1345.3	test	Phase1	test/STIM_025.jpg	100
685.886	0.898	898.3	test	Phase1	test/STIM_026.jpg	100
689.034	1.147	1146.9	test	Phase1	test/STIM_026.jpg	99
693.625	0.712	711.8	test	Phase1	test/STIM_026.jpg	100
697.269	1.076	1076.2	test	Phase1	test/STIM_027.jpg	100
701.75	0.718	718.5	test	Phase1	test/STIM_027.jpg	99
706.236	0.843	842.7	test	Phase1	test/STIM_027.jpg	99
710.389	0.737	737.1	test	Phase1	test/STIM_028.jpg	100
714.363	1.087	1086.7	test	Phase1	test/STIM_028.jpg	99
719.027	1.282	1282.0	test	Phase1	test/STIM_028.jpg	99
723.624	1.105	1104.9	test	Phase1	test/STIM_029.jpg	99
727.582	1.353	1353.3	test	Phase1	test/STIM_029.jpg	99
731.636	0.775	775.4	test	Phase1	test/STIM_029.jpg	100
734.461	1.309	1309.4	study	Phase2	study/STIM_000.jpg	99
739.249	1.303	1302.8	study	Phase2	study/STIM_000.jpg	100
742.567	0.896	896.4	study	Phase2	study/STIM_000.jpg	99
746.812	1.488	1488.2	study	Phase2	study/STIM_001.jpg	99
750.709	1.033	1032.7	study	Phase2	study/STIM_001.jpg	99
754.643	0.709	709.4	study	Phase2	study/STIM_001.jpg	99
758.572	1.467	1467.1	study	Phase2	study/STIM_002.jpg	100
763.885	1.331	1330.9	study	Phase2	study/STIM_002.jpg	99
769.103	1.435	1435.4	study	Phase2	study/STIM_002.jpg	100
773.526	1.431	1430.8	study	Phase2	study/STIM_003.jpg	100
777.84	0.923	922.6	study	Phase2	study/STIM_003.jpg	99
781.093	0.81	810.2	study	Phase2	study/STIM_003.jpg	99
785.632	1.096	1096.0	study	Phase2	study/STIM_004.jpg	99
788.809	1.217	1216.9	study	Phase2	study/STIM_004.jpg	99
793.563	0.951	951.0	study	Phase2	study/STIM_004.jpg	100
796.83	1.282	1282.3	study	Phase2	study/STIM_005.jpg	100
801.745	1.15	1150.2	study	Phase2	study/STIM_005.jpg	100
805.154	0.769	768.7	study	Phase2	study/STIM_005.jpg	99
808.69	0.82	819.9	study	Phase2	study/STIM_006.jpg	99
813.45	0.752	751.8	study	Phase2	study/STIM_006.jpg	99
817.168	1.272	1272.2	study	Phase2	study/STIM_006.jpg	99
821.92	0.858	858.3	study	Phase2	study/STIM_007.jpg	99
825.895	0.929	928.9	study	Phase2	study/STIM_007.jpg	100
830.587	1.287	1287.1	study	Phase2	study/STIM_007.jpg	100
834.145	1.601	1601.1	study	Phase2	study/STIM_008.jpg	99
837.651	0.74	740.2	study	Phase2	study/STIM_008.jpg	99
841.488	1.099	1099.3	study	Phase2	study/STIM_008.jpg	100
845.878	1.544	1544.5	study	Phase2	study/STIM_009.jpg	100
849.413	1.093	1092.6	study	Phase2	study/STIM_009.jpg	100
852.971	1.036	1036.1	study	Phase2	study/STIM_009.jpg	99
857.218	1.37	1369.5	study	Phase2	study/STIM_010.jpg	99
861.183	0.882	881.9	study	Phase2	study/STIM_010.jpg	100
865.345	0.974	974.5	study	Phase2	study/STIM_010.jpg	100
869.708	1.221	1220.6	study	Phase2	study/STIM_011.jpg	100
874.593	0.766	765.7	study	Phase2	study/STIM_011.jpg	99
877.96	1.411	1411.1	study	Phase2	study/STIM_011.jpg	100
882.447	1.155	1155.4	study	Phase2	study/STIM_012.jpg	99
885.883	1.443	1442.9	study	Phase2	study/STIM_012.jpg	100
890.575	1.391	1391.4	study	Phase2	study/STIM_012.jpg	100
894.406	0.995	995.4	study	Phase2	study/STIM_013.jpg	99
897.844	1.313	1312.6	study	Phase2	study/STIM_013.jpg	100
901.663	1.394	1394.4	study	Phase2	study/STIM_013.jpg	99
905.434	1.409	1409.0	study	Phase2	study/STIM_014.jpg	100
910.448	0.999	999.1	study	Phase2	study/STIM_014.jpg	99
915.428	1.128	1128.5	study	Phase2	study/STIM_014.jpg	100
919.953	1.128	1128.1	study	Phase2	study/STIM_015.jpg	100
923.116	1.0	999.8	study	Phase2	study/STIM_015.jpg	100
926.66	1.285	1285.4	study	Phase2	study/STIM_015.jpg	99
930.805	1.604	1604.0	study	Phase2	study/STIM_016.jpg	100
935.219	0.864	863.9	study	Phase2	study/STIM_016.jpg	99
939.666	0.906	906.2	study	Phase2	study/STIM_016.jpg	100
944.135	1.428	1427.5	study	Phase2	study/STIM_017.jpg	99
947.997	0.9	899.5	study	Phase2	study/STIM_017.jpg	99
952.817	1.202	1201.7	study	Phase2	study/STIM_017.jpg	100
957.883	1.124	1124.1	study	Phase2	study/STIM_018.jpg	99
962.841	1.325	1324.8	study	Phase2	study/STIM_018.jpg	100
967.606	0.804	803.6	study	Phase2	study/STIM_018.jpg	100
970.718	1.021	1020.9	study	Phase2	study/STIM_019.jpg	100
975.451	1.308	1308.3	study	Phase2	study/STIM_019.jpg	99
979.562	0.88	880.2	study	Phase2	study/STIM_019.jpg	99
982.965	1.3	1299.6	study	Phase2	study/STIM_020.jpg	99
987.757	0.825	825.3	study	Phase2	study/STIM_020.jpg	99
992.302	0.938	938.5	study	Phase2	study/STIM_020.jpg	100
996.251	0.911	910.7	study	Phase2	study/STIM_021.jpg	100
999.41	1.216	1215.7	study	Phase2	study/STIM_021.jpg	100
1003.186	0.843	843.2	study	Phase2	study/STIM_021.jpg	99
1007.421	1.182	1181.9	study	Phase2	study/STIM_022.jpg	100
1012.417	1.408	1407.9	study	Phase2	study/STIM_022.jpg	99
1017.148	1.101	1100.6	study	Phase2	study/STIM_022.jpg	99
1021.055	1.055	1054.8	study	Phase2	study/STIM_023.jpg	100
1025.697	0.836	836.0	study	Phase2	study/STIM_023.jpg	100
1028.731	0.916	916.1	study	Phase2	study/STIM_023.jpg	99
1032.913	1.225	1225.4	study	Phase2	study/STIM_024.jpg	99
1036.182	1.443	1442.8	study	Phase2	study/STIM_024.jpg	100
1039.882	1.165	1165.3	study	Phase2	study/STIM_024.jpg	99
1043.998	0.829	828.9	study	Phase2	study/STIM_025.jpg	99
1047.614	1.387	1386.6	study	Phase2	study/STIM_025.jpg	100
1051.746	0.872	872.5	study	Phase2	study/STIM_025.jpg	100
1056.293	1.195	1195.2	study	Phase2	study/STIM_026.jpg	100
1059.562	1.013	1012.9	study	Phase2	study/STIM_026.jpg	100
1063.012	0.708	708.2	study	Phase2	study/STIM_026.jpg	99
1066.097	0.701	700.7	study	Phase2	study/STIM_027.jpg	99
1069.329	1.247	1246.6	study	Phase2	study/STIM_027.jpg	99
1073.531	1.095	1094.9	study	Phase2	study/STIM_027.jpg	100
1077.997	1.296	1295.9	study	Phase2	study/STIM_028.jpg	99
1082.873	1.43	1430.3	study	Phase2	study/STIM_028.jpg	99
1086.844	1.213	1213.3	study	Phase2	study/STIM_028.jpg	100
1090.974	1.595	1594.7	study	Phase2	study/STIM_029.jpg	100
1095.824	1.458	1458.4	study	Phase2	study/STIM_029.jpg	99
1100.589	0.704	703.8	study	Phase2	study/STIM_029.jpg	100
1104.77	0.618	618.2	test	Phase2	test/STIM_000.jpg	99
1108.202	1.1	1099.7	test	Phase2	test/STIM_000.jpg	100
1112.088	0.919	918.9	test	Phase2	test/STIM_000.jpg	100
1116.482	0.955	955.1	test	Phase2	test/STIM_001.jpg	100
1119.839	0.933	933.3	test	Phase2	test/STIM_001.jpg	100
1122.977	1.341	1340.9	test	Phase2	test/STIM_001.jpg	100
1126.778	0.766	765.6	test	Phase2	test/STIM_002.jpg	99
1131.245	0.628	628.2	test	Phase2	test/STIM_002.jpg	99
1135.597	0.859	859.4	test	Phase2	test/STIM_002.jpg	99
1140.472	1.205	1205.1	test	Phase2	test/STIM_003.jpg	99
1145.524	1.081	1080.6	test	Phase2	test/STIM_003.jpg	100
1149.848	0.983	983.1	test	Phase2	test/STIM_003.jpg	99
1153.381	0.711	711.4	test	Phase2	test/STIM_004.jpg	100
1156.387	1.259	1259.4	test	Phase2	test/STIM_004.jpg	100
1159.649	1.043	1043.3	test	Phase2	test/STIM_004.jpg	100
1163.983	1.221	1221.1	test	Phase2	test/STIM_005.jpg	99
1167.151	1.1	1100.5	test	Phase2	test/STIM_005.jpg	100
1171.244	1.139	1139.4	test	Phase2	test/STIM_005.jpg	99
1176.035	1.31	1309.7	test	Phase2	test/STIM_006.jpg	100
1179.951	1.079	1078.8	test	Phase2	test/STIM_006.jpg	99
1183.904	0.93	929.8	test	Phase2	test/STIM_006.jpg	99
1187.615	1.284	1283.5	test	Phase2	test/STIM_007.jpg	100
1191.244	0.786	786.5	test	Phase2	test/STIM_007.jpg	99
1194.275	1.271	1270.8	test	Phase2	test/STIM_007.jpg	100
1198.18	1.052	1052.5	test	Phase2	test/STIM_008.jpg	99
1201.463	1.202	1201.9	test	Phase2	test/STIM_008.jpg	100
1205.661	0.762	761.6	test	Phase2	test/STIM_008.jpg	100
1209.67	0.663	662.7	test	Phase2	test/STIM_009.jpg	100
1213.304	0.887	886.8	test	Phase2	test/STIM_009.jpg	99
1217.585	1.226	1226.0	test	Phase2	test/STIM_009.jpg	99
1222.323	0.807	806.6	test	Phase2	test/STIM_010.jpg	99
1225.48	1.039	1039.3	test	Phase2	test/STIM_010.jpg	99
1229.491	1.275	1275.3	test	Phase2	test/STIM_010.jpg	100
1233.433	0.977	977.3	test	Phase2	test/STIM_011.jpg	100
1238.205	0.969	968.7	test	Phase2	test/STIM_011.jpg	99
1243.085	0.845	844.6	test	Phase2	test/STIM_011.jpg	100
1246.406	1.156	1155.7	test	Phase2	test/STIM_012.jpg	99
1251.123	0.824	823.9	test	Phase2	test/STIM_012.jpg	100
1254.451	1.143	1143.2	test	Phase2	test/STIM_012.jpg	100
1259.241	0.732	731.5	test	Phase2	test/STIM_013.jpg	100
1262.556	0.746	745.5	test	Phase2	test/STIM_013.jpg	100
1266.423	0.924	923.7	test	Phase2	test/STIM_013.jpg	100
1269.789	1.29	1289.9	test	Phase2	test/STIM_014.jpg	100
1274.745	0.767	767.2	test	Phase2	test/STIM_014.jpg	100
1278.431	0.996	995.6	test	Phase2	test/STIM_014.jpg	100
1282.662	1.106	1105.5	test	Phase2	test/STIM_015.jpg	100
1286.446	1.184	1184.5	test	Phase2	test/STIM_015.jpg	100
1291.321	1.017	1017.2	test	Phase2	test/STIM_015.jpg	100
1294.71	1.208	1208.0	test	Phase2	test/STIM_016.jpg	99
1299.038	0.766	765.9	test	Phase2	test/STIM_016.jpg	100
1303.764	0.904	903.6	test	Phase2	test/STIM_016.jpg	100
1308.249	0.862	861.9	test	Phase2	test/STIM_017.jpg	100
1312.629	1.194	1194.1	test	Phase2	test/STIM_017.jpg	99
1316.867	0.776	776.2	test	Phase2	test/STIM_017.jpg	99
1320.882	1.147	1147.1	test	Phase2	test/STIM_018.jpg	100
1325.751	1.226	1226.5	test	Phase2	test/STIM_018.jpg	99
1330.785	0.639	638.6	test	Phase2	test/STIM_018.jpg	99
1335.271	0.744	743.8	test	Phase2	test/STIM_019.jpg	99
1339.723	0.789	789.2	test	Phase2	test/STIM_019.jpg	99
1342.926	1.288	1287.8	test	Phase2	test/STIM_019.jpg	99
1346.658	1.004	1003.7	test	Phase2	test/STIM_020.jpg	100
1349.797	1.111	1111.1	test	Phase2	test/STIM_020.jpg	100
1353.029	1.123	1123.0	test	Phase2	test/STIM_020.jpg	99
1357.602	0.635	635.3	test	Phase2	test/STIM_021.jpg	99
1361.49	0.852	852.2	test	Phase2	test/STIM_021.jpg	100
1366.177	1.161	1161.4	test	Phase2	test/STIM_021.jpg	100
1369.983	0.97	970.3	test	Phase2	test/STIM_022.jpg	100
1373.007	0.998	997.6	test	Phase2	test/STIM_022.jpg	100
1376.722	1.052	1051.6	test	Phase2	test/STIM_022.jpg	99
1380.148	1.275	1275.3	test	Phase2	test/STIM_023.jpg	99
1383.717	0.756	755.5	test	Phase2	test/STIM_023.jpg	99
1387.422	1.08	1080.5	test	Phase2	test/STIM_023.jpg	100
1390.64	0.916	915.8	test	Phase2	test/STIM_024.jpg	100
1393.897	0.837	836.7	test	Phase2	test/STIM_024.jpg	99
1398.117	0.722	722.4	test	Phase2	test/STIM_024.jpg	100
1402.097	0.824	824.1	test	Phase2	test/STIM_025.jpg	99
1406.312	0.971	971.0	test	Phase2	test/STIM_025.jpg	99
1411.007	1.167	1167.1	test	Phase2	test/STIM_025.jpg	100
1414.352	0.798	797.7	test	Phase2	test/STIM_026.jpg	99
1418.027	1.168	1168.1	test	Phase2	test/STIM_026.jpg	99
1422.287	0.873	872.9	test	Phase2	test/STIM_026.jpg	99
1426.96	0.971	971.4	test	Phase2	test/STIM_027.jpg	99
1430.172	0.938	937.5	test	Phase2	test/STIM_027.jpg	100
1434.876	1.187	1187.2	test	Phase2	test/STIM_027.jpg	100
1439.419	0.766	766.1	test	Phase2	test/STIM_028.jpg	99
1443.865	0.882	882.5	test	Phase2	test/STIM_028.jpg	100
1447.32	1.139	1139.3	test	Phase2	test/STIM_028.jpg	100
1451.608	1.152	1151.5	test	Phase2	test/STIM_029.jpg	99
1454.694	0.909	909.4	test	Phase2	test/STIM_029.jpg	99
1458.748	0.614	614.0	test	Phase2	test/STIM_029.jpg	99
1463.034	0.846	846.0	study	Phase3	study/STIM_000.jpg	99
1467.724	1.083	1082.6	study	Phase3	study/STIM_000.jpg	99
1470.819	0.934	934.0	study	Phase3	study/STIM_000.jpg	100
1474.513	0.837	836.6	study	Phase3	study/STIM_001.jpg	100
1477.677	1.018	1017.6	study	Phase3	study/STIM_001.jpg	99
1481.141	0.646	646.1	study	Phase3	study/STIM_001.jpg	99
1485.383	0.851	851.1	study	Phase3	study/STIM_002.jpg	100
1488.828	0.964	964.5	study	Phase3	study/STIM_002.jpg	100
1493.034	1.21	1210.0	study	Phase3	study/STIM_002.jpg	99
1497.893	0.589	588.7	study	Phase3	study/STIM_003.jpg	100
1500.722	1.104	1104.2	study	Phase3	study/STIM_003.jpg	100
1504.974	1.092	1092.2	study	Phase3	study/STIM_003.jpg	100
1508.597	0.741	740.8	study	Phase3	study/STIM_004.jpg	99
1513.268	0.781	780.9	study	Phase3	study/STIM_004.jpg	99
1516.597	1.28	1280.4	study	Phase3	study/STIM_004.jpg	100
1520.857	1.105	1104.6	study	Phase3	study/STIM_005.jpg	99
1525.141	1.224	1224.5	study	Phase3	study/STIM_005.jpg	100
1529.943	1.155	1155.3	study	Phase3	study/STIM_005.jpg	99
1533.428	0.969	968.6	study	Phase3	study/STIM_006.jpg	99
1537.582	1.049	1049.1	study	Phase3	study/STIM_006.jpg	100
1540.715	1.082	1082.0	study	Phase3	study/STIM_006.jpg	99
1544.86	0.601	600.9	study	Phase3	study/STIM_007.jpg	99
1548.796	1.033	1033.2	study	Phase3	study/STIM_007.jpg	99
1552.686	0.722	721.9	study	Phase3	study/STIM_007.jpg	99
1555.872	0.678	678.4	study	Phase3	study/STIM_008.jpg	100
1559.016	0.609	608.6	study	Phase3	study/STIM_008.jpg	100
1561.899	0.713	712.6	study	Phase3	study/STIM_008.jpg	100
1565.755	1.004	1004.4	study	Phase3	study/STIM_009.jpg	99
1569.838	0.789	789.0	study	Phase3	study/STIM_009.jpg	99
1572.66	1.162	1161.9	study	Phase3	study/STIM_009.jpg	99
1576.239	0.787	787.0	study	Phase3	study/STIM_010.jpg	100
1580.752	1.183	1183.1	study	Phase3	study/STIM_010.jpg	100
1585.909	1.288	1288.1	study	Phase3	study/STIM_010.jpg	100
1589.699	1.175	1175.1	study	Phase3	study/STIM_011.jpg	99
1594.457	1.23	1230.0	study	Phase3	study/STIM_011.jpg	100
1597.973	1.093	1093.2	study	Phase3	study/STIM_011.jpg	100
1603.123	1.087	1087.3	study	Phase3	study/STIM_012.jpg	99
1607.769	0.717	717.0	study	Phase3	study/STIM_012.jpg	100
1612.301	1.038	1038.2	study	Phase3	study/STIM_012.jpg	99
1616.705	0.821	821.3	study	Phase3	study/STIM_013.jpg	100
1620.358	0.952	952.1	study	Phase3	study/STIM_013.jpg	99
1624.847	0.795	794.9	study	Phase3	study/STIM_013.jpg	100
1628.006	1.268	1267.8	study	Phase3	study/STIM_014.jpg	99
1632.709	1.171	1170.9	study	Phase3	study/STIM_014.jpg	99
1637.261	1.132	1132.0	study	Phase3	study/STIM_014.jpg	100
1640.511	0.897	897.0	study	Phase3	study/STIM_015.jpg	99
1644.012	0.735	735.1	study	Phase3	study/STIM_015.jpg	99
1646.914	1.011	1011.4	study	Phase3	study/STIM_015.jpg	99
1650.242	1.162	1162.2	study	Phase3	study/STIM_016.jpg	100
1654.461	0.722	722.1	study	Phase3	study/STIM_016.jpg	100
1657.572	1.186	1186.5	study	Phase3	study/STIM_016.jpg	99
1661.36	1.296	1296.3	study	Phase3	study/STIM_017.jpg	100
1665.876	0.96	959.5	study	Phase3	study/STIM_017.jpg	99
1668.817	1.31	1309.6	study	Phase3	study/STIM_017.jpg	99
1673.826	0.678	678.2	study	Phase3	study/STIM_018.jpg	99
1678.065	0.856	855.6	study	Phase3	study/STIM_018.jpg	100
1682.226	0.636	636.4	study	Phase3	study/STIM_018.jpg	100
1685.421	1.406	1405.9	study	Phase3	study/STIM_019.jpg	100
1689.362	0.861	860.9	study	Phase3	study/STIM_019.jpg	99
1692.726	0.818	818.0	study	Phase3	study/STIM_019.jpg	100
1696.43	1.218	1218.1	study	Phase3	study/STIM_020.jpg	99
1701.329	1.257	1257.2	study	Phase3	study/STIM_020.jpg	100
1705.215	1.159	1159.3	study	Phase3	study/STIM_020.jpg	99
1710.301	1.204	1203.6	study	Phase3	study/STIM_021.jpg	100
1713.477	1.258	1258.0	study	Phase3	study/STIM_021.jpg	100
1717.197	0.928	927.6	study	Phase3	study/STIM_021.jpg	99
1721.76	0.509	509.2	study	Phase3	study/STIM_022.jpg	100
1725.107	0.649	648.9	study	Phase3	study/STIM_022.jpg	99
1728.058	0.736	736.3	study	Phase3	study/STIM_022.jpg	100
1732.293	0.96	959.5	study	Phase3	study/STIM_023.jpg	99
1736.232	1.2	1200.0	study	Phase3	study/STIM_023.jpg	99
1741.257	1.221	1221.3	study	Phase3	study/STIM_023.jpg	99
1744.891	0.907	907.1	study	Phase3	study/STIM_024.jpg	100
1749.061	1.128	1127.9	study	Phase3	study/STIM_024.jpg	100
1752.3	0.8	800.1	study	Phase3	study/STIM_024.jpg	99
1755.574	1.259	1258.6	study	Phase3	study/STIM_025.jpg	99
1759.111	0.85	850.4	study	Phase3	study/STIM_025.jpg	100
1762.278	1.077	1076.9	study	Phase3	study/STIM_025.jpg	100
1766.233	0.748	747.8	study	Phase3	study/STIM_026.jpg	99
1769.567	1.312	1312.3	study	Phase3	study/STIM_026.jpg	99
1773.568	1.133	1132.6	study	Phase3	study/STIM_026.jpg	99
1777.385	1.181	1181.3	study	Phase3	study/STIM_027.jpg	99
1781.262	1.022	1021.8	study	Phase3	study/STIM_027.jpg	99
1786.167	0.855	854.8	study	Phase3	study/STIM_027.jpg	99
1789.245	0.52	519.5	study	Phase3	study/STIM_028.jpg	100
1791.864	0.747	747.3	study	Phase3	study/STIM_028.jpg	99
1795.6	0.696	695.7	study	Phase3	study/STIM_028.jpg	99
1798.822	0.948	947.5	study	Phase3	study/STIM_029.jpg	100
1802.856	1.084	1083.6	study	Phase3	study/STIM_029.jpg	100
1806.148	0.826	826.2	study	Phase3	study/STIM_029.jpg	99
1810.252	0.869	868.9	test	Phase3	test/STIM_000.jpg	99
1813.829	1.147	1146.6	test	Phase3	test/STIM_000.jpg	99
1817.88	1.228	1228.3	test	Phase3	test/STIM_000.jpg	100
1821.497	0.681	681.3	test	Phase3	test/STIM_001.jpg	99
1824.799	0.61	609.8	test	Phase3	test/STIM_001.jpg	99
1827.447	0.838	838.5	test	Phase3	test/STIM_001.jpg	100
1831.503	1.311	1311.2	test	Phase3	test/STIM_002.jpg	99
1835.629	1.26	1260.0	test	Phase3	test/STIM_002.jpg	99
1840.513	0.76	760.0	test	Phase3	test/STIM_002.jpg	100
1844.781	0.739	738.6	test	Phase3	test/STIM_003.jpg	100
1848.611	0.948	948.2	test	Phase3	test/STIM_003.jpg	99
1853.368	1.168	1167.9	test	Phase3	test/STIM_003.jpg	100
1857.084	0.836	836.0	test	Phase3	test/STIM_004.jpg	100
1860.6	0.834	834.5	test	Phase3	test/STIM_004.jpg	99
1865.303	1.315	1315.1	test	Phase3	test/STIM_004.jpg	100
1869.488	0.734	733.7	test	Phase3	test/STIM_005.jpg	99
1872.55	0.761	760.8	test	Phase3	test/STIM_005.jpg	100
1876.667	1.051	1051.3	test	Phase3	test/STIM_005.jpg	100
1881.269	0.608	608.4	test	Phase3	test/STIM_006.jpg	99
1885.342	1.242	1242.2	test	Phase3	test/STIM_006.jpg	99
1890.202	0.749	748.8	test	Phase3	test/STIM_006.jpg	100
1893.292	0.966	965.8	test	Phase3	test/STIM_007.jpg	100
1896.684	0.614	614.1	test	Phase3	test/STIM_007.jpg	100
1900.551	1.045	1044.7	test	Phase3	test/STIM_007.jpg	99
1903.544	0.639	638.6	test	Phase3	test/STIM_008.jpg	100
1907.551	1.117	1117.3	test	Phase3	test/STIM_008.jpg	100
1911.64	0.718	717.5	test	Phase3	test/STIM_008.jpg	100
1915.424	0.746	745.6	test	Phase3	test/STIM_009.jpg	99
1919.224	1.094	1093.8	test	Phase3	test/STIM_009.jpg	100
1922.319	0.81	810.0	test	Phase3	test/STIM_009.jpg	99
1926.362	0.881	881.2	test	Phase3	test/STIM_010.jpg	100
1929.426	0.763	762.7	test	Phase3	test/STIM_010.jpg	100
1933.014	1.111	1111.2	test	Phase3	test/STIM_010.jpg	99
1937.041	0.685	685.1	test	Phase3	test/STIM_011.jpg	99
1940.935	1.063	1063.2	test	Phase3	test/STIM_011.jpg	99
1944.599	0.777	776.7	test	Phase3	test/STIM_011.jpg	99
1948.318	0.9	899.7	test	Phase3	test/STIM_012.jpg	100
1951.438	0.841	840.6	test	Phase3	test/STIM_012.jpg	100
1954.406	1.29	1289.6	test	Phase3	test/STIM_012.jpg	99
1959.097	0.858	857.8	test	Phase3	test/STIM_013.jpg	100
1963.172	1.403	1402.8	test	Phase3	test/STIM_013.jpg	99
1967.82	0.937	937.0	test	Phase3	test/STIM_013.jpg	99
1971.921	0.87	870.3	test	Phase3	test/STIM_014.jpg	99
1975.228	0.924	924.4	test	Phase3	test/STIM_014.jpg	99
1978.422	0.612	612.3	test	Phase3	test/STIM_014.jpg	100
1982.692	0.868	868.5	test	Phase3	test/STIM_015.jpg	99
1986.669	1.296	1295.6	test	Phase3	test/STIM_015.jpg	99
1991.148	0.941	941.2	test	Phase3	test/STIM_015.jpg	99
1995.909	0.683	683.4	test	Phase3	test/STIM_016.jpg	99
1999.001	0.988	987.9	test	Phase3	test/STIM_016.jpg	100
2002.66	0.783	782.6	test	Phase3	test/STIM_016.jpg	99
2005.473	0.694	693.9	test	Phase3	test/STIM_017.jpg	99
2009.368	0.819	819.2	test	Phase3	test/STIM_017.jpg	100
2012.494	1.081	1080.6	test	Phase3	test/STIM_017.jpg	100
2015.831	0.798	798.2	test	Phase3	test/STIM_018.jpg	100
2019.485	1.165	1165.3	test	Phase3	test/STIM_018.jpg	100
2023.528	1.348	1348.5	test	Phase3	test/STIM_018.jpg	100
2026.794	1.223	1223.0	test	Phase3	test/STIM_019.jpg	100
2030.354	1.02	1019.9	test	Phase3	test/STIM_019.jpg	100
2034.422	1.3	1300.3	test	Phase3	test/STIM_019.jpg	100
2038.94	1.029	1028.8	test	Phase3	test/STIM_020.jpg	100
2042.889	1.195	1194.6	test	Phase3	test/STIM_020.jpg	100
2047.335	0.835	834.6	test	Phase3	test/STIM_020.jpg	99
2050.364	1.019	1019.1	test	Phase3	test/STIM_021.jpg	99
2054.161	0.766	766.4	test	Phase3	test/STIM_021.jpg	100
2058.344	0.904	903.7	test	Phase3	test/STIM_021.jpg	100
2062.494	1.29	1289.8	test	Phase3	test/STIM_022.jpg	99
2066.879	1.212	1212.5	test	Phase3	test/STIM_022.jpg	99
2070.376	1.233	1233.3	test	Phase3	test/STIM_022.jpg	100
2074.908	1.233	1233.4	test	Phase3	test/STIM_023.jpg	99
2079.868	0.736	736.0	test	Phase3	test/STIM_023.jpg	99
2083.339	0.792	792.2	test	Phase3	test/STIM_023.jpg	99
2086.461	1.002	1002.3	test	Phase3	test/STIM_024.jpg	100
2091.424	1.33	1330.2	test	Phase3	test/STIM_024.jpg	100
2096.106	0.945	944.7	test	Phase3	test/STIM_024.jpg	99
2100.707	0.902	902.0	test	Phase3	test/STIM_025.jpg	99
2104.868	1.166	1165.6	test	Phase3	test/STIM_025.jpg	99
2109.239	1.123	1123.4	test	Phase3	test/STIM_025.jpg	99
2113.004	0.888	887.5	test	Phase3	test/STIM_026.jpg	99
2116.546	1.208	1207.5	test	Phase3	test/STIM_026.jpg	100
2119.977	0.605	604.9	test	Phase3	test/STIM_026.jpg	99
2123.628	0.718	718.1	test	Phase3	test/STIM_027.jpg	100
2128.063	1.114	1113.7	test	Phase3	test/STIM_027.jpg	100
2132.279	0.805	805.0	test	Phase3	test/STIM_027.jpg	100
2135.078	0.72	720.2	test	Phase3	test/STIM_028.jpg	99
2139.149	0.95	950.2	test	Phase3	test/STIM_028.jpg	99
2143.116	0.718	717.8	test	Phase3	test/STIM_028.jpg	99
2147.387	0.956	956.0	test	Phase3	test/STIM_029.jpg	100
2151.249	0.963	963.1	test	Phase3	test/STIM_029.jpg	99
2154.915	1.104	1103.6	test	Phase3	test/STIM_029.jpg	99
