onset	duration	response_time_ms	trial_type	learning_stage	stimulus	response_port
0.0	0.88	880.0	2back	Block1	2back/STIM_000.jpg	100
3.174	1.125	1124.6	2back	Block1	2back/STIM_000.jpg	99
7.304	1.068	1068.1	2back	Block1	2back/STIM_000.jpg	99
11.313	0.825	825.0	2back	Block1	2back/STIM_001.jpg	100
15.917	0.543	542.7	2back	Block1	2back/STIM_001.jpg	99
20.18	0.89	889.6	2back	Block1	2back/STIM_001.jpg	99
23.462	1.13	1130.4	2back	Block1	2back/STIM_002.jpg	99
27.295	0.616	615.5	2back	Block1	2back/STIM_002.jpg	99
31.4	0.888	888.2	2back	Block1	2back/STIM_002.jpg	99
35.877	0.558	558.0	2back	Block1	2back/STIM_003.jpg	99
40.161	0.761	761.2	2back	Block1	2back/STIM_003.jpg	100
43.967	0.484	484.4	2back	Block1	2back/STIM_003.jpg	100
47.627	1.144	1143.7	2back	Block1	2back/STIM_004.jpg	100
51.263	0.597	596.8	2back	Block1	2back/STIM_004.jpg	100
55.624	0.856	856.5	2back	Block1	2back/STIM_004.jpg	99
59.426	1.188	1188.4	2back	Block1	2back/STIM_005.jpg	100
62.944	1.081	1081.1	2back	Block1	2back/STIM_005.jpg	99
67.188	0.864	864.4	2back	Block1	2back/STIM_005.jpg	99
71.046	0.934	934.0	2back	Block1	2back/STIM_006.jpg	100
74.538	0.526	525.5	2back	Block1	2back/STIM_006.jpg	99
77.244	1.034	1033.6	2back	Block1	2back/STIM_006.jpg	99
81.727	0.765	764.9	2back	Block1	2back/STIM_007.jpg	100
84.705	0.765	764.9	2back	Block1	2back/STIM_007.jpg	99
88.581	1.053	1053.0	2back	Block1	2back/STIM_007.jpg	100
93.236	0.93	930.0	2back	Block1	2back/STIM_008.jpg	99
97.997	1.048	1047.8	2back	Block1	2back/STIM_008.jpg	100
102.512	0.808	808.0	2back	Block1	2back/STIM_008.jpg	99
106.025	0.731	731.2	2back	Block1	2back/STIM_009.jpg	100
110.141	0.674	673.8	2back	Block1	2back/STIM_009.jpg	100
114.347	1.013	1013.4	2back	Block1	2back/STIM_009.jpg	100
117.633	1.222	1221.5	2back	Block1	2back/STIM_010.jpg	100
122.633	1.014	1014.4	2back	Block1	2back/STIM_010.jpg	100
126.204	1.1	1100.5	2back	Block1	2back/STIM_010.jpg	99
131.007	1.142	1142.2	2back	Block1	2back/STIM_011.jpg	99
136.155	1.062	1062.1	2back	Block1	2back/STIM_011.jpg	100
139.541	0.861	861.3	2back	Block1	2back/STIM_011.jpg	100
142.567	0.543	543.0	2back	Block1	2back/STIM_012.jpg	99
145.841	1.058	1057.5	2back	Block1	2back/STIM_012.jpg	100
150.091	0.666	666.3	2back	Block1	2back/STIM_012.jpg	100
153.215	0.948	948.5	2back	Block1	2back/STIM_013.jpg	100
156.345	0.949	948.8	2back	Block1	2back/STIM_013.jpg	99
159.459	1.057	1056.8	2back	Block1	2back/STIM_013.jpg	99
163.488	0.534	534.1	2back	Block1	2back/STIM_014.jpg	100
166.121	0.548	547.9	2back	Block1	2back/STIM_014.jpg	100
170.114	1.105	1104.9	2back	Block1	2back/STIM_014.jpg	99
174.207	1.198	1198.1	2back	Block1	2back/STIM_015.jpg	100
178.249	1.09	1090.2	2back	Block1	2back/STIM_015.jpg	99
182.287	0.58	580.1	2back	Block1	2back/STIM_015.jpg	99
185.144	1.19	1190.2	2back	Block1	2back/STIM_016.jpg	100
190.366	0.56	560.2	2back	Block1	2back/STIM_016.jpg	100
194.815	1.042	1041.8	2back	Block1	2back/STIM_016.jpg	99
198.689	0.939	939.3	2back	Block1	2back/STIM_017.jpg	99
202.525	1.167	1166.9	2back	Block1	2back/STIM_017.jpg	100
207.099	0.973	972.9	2back	Block1	2back/STIM_017.jpg	99
210.739	0.747	746.6	2back	Block1	2back/STIM_018.jpg	99
214.403	0.815	815.1	2back	Block1	2back/STIM_018.jpg	99
218.697	0.873	873.0	2back	Block1	2back/STIM_018.jpg	100
223.68	0.607	607.0	2back	Block1	2back/STIM_019.jpg	99
227.78	1.1	1100.1	2back	Block1	2back/STIM_019.jpg	100
232.534	0.781	781.2	2back	Block1	2back/STIM_019.jpg	100
236.727	0.624	624.1	2back	Block1	2back/STIM_020.jpg	100
239.852	0.811	811.2	2back	Block1	2back/STIM_020.jpg	99
243.018	1.059	1058.7	2back	Block1	2back/STIM_020.jpg	100
247.873	0.627	626.6	2back	Block1	2back/STIM_021.jpg	99
250.941	0.716	715.8	2back	Block1	2back/STIM_021.jpg	99
254.08	1.104	1104.5	2back	Block1	2back/STIM_021.jpg	99
257.776	0.658	657.6	2back	Block1	2back/STIM_022.jpg	99
261.744	0.604	604.0	2back	Block1	2back/STIM_022.jpg	100
264.623	0.689	689.1	2back	Block1	2back/STIM_022.jpg	100
268.622	0.97	970.1	2back	Block1	2back/STIM_023.jpg	99
273.44	0.812	812.3	2back	Block1	2back/STIM_023.jpg	99
277.676	0.684	683.7	2back	Block1	2back/STIM_023.jpg	99
281.457	1.004	1004.0	2back	Block1	2back/STIM_024.jpg	100
285.287	0.725	724.7	2back	Block1	2back/STIM_024.jpg	99
288.551	0.73	730.3	2back	Block1	2back/STIM_024.jpg	99
291.49	0.859	859.4	2back	Block1	2back/STIM_025.jpg	99
296.288	1.015	1014.6	2back	Block1	2back/STIM_025.jpg	99
299.933	0.997	996.6	2back	Block1	2back/STIM_025.jpg	100
304.353	1.0	999.5	2back	Block1	2back/STIM_026.jpg	100
307.839	0.995	995.1	2back	Block1	2back/STIM_026.jpg	99
311.071	0.57	569.5	2back	Block1	2back/STIM_026.jpg	100
314.91	1.018	1018.3	2back	Block1	2back/STIM_027.jpg	100
319.083	0.744	744.5	2back	Block1	2back/STIM_027.jpg	100
322.788	0.763	762.9	2back	Block1	2back/STIM_027.jpg	99
326.994	0.906	905.7	2back	Block1	2back/STIM_028.jpg	99
330.509	0.679	679.0	2back	Block1	2back/STIM_028.jpg	99
333.291	0.559	558.9	2back	Block1	2back/STIM_028.jpg	99
337.172	1.11	1110.4	2back	Block1	2back/STIM_029.jpg	99
341.727	0.946	946.1	2back	Block1	2back/STIM_029.jpg	99
346.013	0.881	880.7	2back	Block1	2back/STIM_029.jpg	99
349.918	0.792	791.9	2back	Block1	2back/STIM_030.jpg	100
352.902	1.023	1022.7	2back	Block1	2back/STIM_030.jpg	100
357.575	0.6	599.7	2back	Block1	2back/STIM_030.jpg	100
361.148	0.697	696.7	2back	Block1	2back/STIM_031.jpg	100
364.425	0.892	892.5	2back	Block1	2back/STIM_031.jpg	100
368.775	1.071	1070.9	2back	Block1	2back/STIM_031.jpg	99
372.579	1.028	1028.1	2back	Block1	2back/STIM_032.jpg	100
376.377	0.805	804.7	2back	Block1	2back/STIM_032.jpg	100
380.343	0.733	732.8	2back	Block1	2back/STIM_032.jpg	99
384.953	0.745	745.1	2back	Block1	2back/STIM_033.jpg	99
388.714	0.976	975.7	2back	Block1	2back/STIM_033.jpg	100
392.416	0.824	824.2	2back	Block1	2back/STIM_033.jpg	99
396.698	0.532	532.5	2back	Block1	2back/STIM_034.jpg	99
400.466	1.153	1152.8	2back	Block1	2back/STIM_034.jpg	100
405.593	0.56	560.0	2back	Block1	2back/STIM_034.jpg	99
409.725	0.656	656.3	2back	Block1	2back/STIM_035.jpg	99
413.995	0.617	617.4	2back	Block1	2back/STIM_035.jpg	100
417.184	0.597	597.3	2back	Block1	2back/STIM_035.jpg	100
421.522	0.735	735.3	2back	Block1	2back/STIM_036.jpg	100
425.488	0.574	574.1	2back	Block1	2back/STIM_036.jpg	100
430.08	0.851	850.9	2back	Block1	2back/STIM_036.jpg	100
433.857	1.015	1014.8	2back	Block1	2back/STIM_037.jpg	99
437.335	0.792	791.6	2back	Block1	2back/STIM_037.jpg	99
441.997	0.946	945.8	2back	Block1	2back/STIM_037.jpg	100
445.334	0.556	555.9	2back	Block1	2back/STIM_038.jpg	100
448.398	0.924	923.9	2back	Block1	2back/STIM_038.jpg	99
452.274	0.95	949.5	2back	Block1	2back/STIM_038.jpg	100
456.728	0.953	952.7	2back	Block1	2back/STIM_039.jpg	99
461.499	0.58	579.7	2back	Block1	2back/STIM_039.jpg	100
465.569	0.567	566.7	2back	Block1	2back/STIM_039.jpg	100
469.371	0.44	439.5	0back	Block1	0back/STIM_000.jpg	99
473.751	0.474	474.4	0back	Block1	0back/STIM_000.jpg	99
477.505	0.496	496.2	0back	Block1	0back/STIM_000.jpg	100
481.583	0.38	379.7	0back	Block1	0back/STIM_001.jpg	99
484.719	0.455	455.1	0back	Block1	0back/STIM_001.jpg	100
487.365	0.603	603.3	0back	Block1	0back/STIM_001.jpg	100
492.05	0.494	493.9	0back	Block1	0back/STIM_002.jpg	100
495.175	0.509	508.7	0back	Block1	0back/STIM_002.jpg	99
499.253	0.432	432.1	0back	Block1	0back/STIM_002.jpg	99
502.193	0.388	388.4	0back	Block1	0back/STIM_003.jpg	100
506.212	0.616	615.5	0back	Block1	0back/STIM_003.jpg	99
509.506	0.578	577.9	0back	Block1	0back/STIM_003.jpg	99
513.477	0.431	431.1	0back	Block1	0back/STIM_004.jpg	99
517.053	0.571	570.6	0back	Block1	0back/STIM_004.jpg	100
520.837	0.367	367.0	0back	Block1	0back/STIM_004.jpg	99
523.763	0.472	471.5	0back	Block1	0back/STIM_005.jpg	100
528.037	0.515	514.8	0back	Block1	0back/STIM_005.jpg	99
530.805	0.549	549.3	0back	Block1	0back/STIM_005.jpg	99
534.642	0.596	595.8	0back	Block1	0back/STIM_006.jpg	100
538.456	0.41	409.8	0back	Block1	0back/STIM_006.jpg	99
541.733	0.447	446.9	0back	Block1	0back/STIM_006.jpg	99
545.195	0.478	478.3	0back	Block1	0back/STIM_007.jpg	99
547.987	0.498	497.7	0back	Block1	0back/STIM_007.jpg	100
551.998	0.419	419.3	0back	Block1	0back/STIM_007.jpg	100
556.065	0.492	492.4	0back	Block1	0back/STIM_008.jpg	99
559.21	0.396	395.6	0back	Block1	0back/STIM_008.jpg	100
561.994	0.353	353.0	0back	Block1	0back/STIM_008.jpg	100
564.916	0.65	650.5	0back	Block1	0back/STIM_009.jpg	100
567.943	0.484	484.4	0back	Block1	0back/STIM_009.jpg	99
572.241	0.534	533.5	0back	Block1	0back/STIM_009.jpg	99
576.645	0.374	373.8	0back	Block1	0back/STIM_010.jpg	99
579.269	0.684	683.6	0back	Block1	0back/STIM_010.jpg	99
582.805	0.398	397.8	0back	Block1	0back/STIM_010.jpg	99
585.552	0.517	516.7	0back	Block1	0back/STIM_011.jpg	99
589.561	0.702	702.3	0back	Block1	0back/STIM_011.jpg	99
593.999	0.355	355.1	0back	Block1	0back/STIM_011.jpg	99
597.812	0.558	558.3	0back	Block1	0back/STIM_012.jpg	100
601.286	0.484	483.6	0back	Block1	0back/STIM_012.jpg	100
605.566	0.523	523.2	0back	Block1	0back/STIM_012.jpg	100
608.942	0.432	431.6	0back	Block1	0back/STIM_013.jpg	100
612.81	0.634	633.6	0back	Block1	0back/STIM_013.jpg	100
617.383	0.549	548.7	0back	Block1	0back/STIM_013.jpg	99
620.392	0.62	620.0	0back	Block1	0back/STIM_014.jpg	99
624.814	0.619	619.0	0back	Block1	0back/STIM_014.jpg	99
629.227	0.397	397.1	0back	Block1	0back/STIM_014.jpg	100
632.672	0.381	381.3	0back	Block1	0back/STIM_015.jpg	99
635.456	0.553	552.7	0back	Block1	0back/STIM_015.jpg	100
639.001	0.45	449.8	0back	Block1	0back/STIM_015.jpg	99
643.453	0.392	392.4	0back	Block1	0back/STIM_016.jpg	99
647.196	0.608	607.7	0back	Block1	0back/STIM_016.jpg	99
651.298	0.67	670.1	0back	Block1	0back/STIM_016.jpg	100
654.515	0.541	541.4	0back	Block1	0back/STIM_017.jpg	100
659.042	0.388	388.3	0back	Block1	0back/STIM_017.jpg	99
662.509	0.38	380.0	0back	Block1	0back/STIM_017.jpg	100
666.577	0.656	656.0	0back	Block1	0back/STIM_018.jpg	100
669.977	0.529	529.1	0back	Block1	0back/STIM_018.jpg	100
672.591	0.52	520.3	0back	Block1	0back/STIM_018.jpg	100
676.393	0.567	566.7	0back	Block1	0back/STIM_019.jpg	99
679.268	0.646	646.2	0back	Block1	0back/STIM_019.jpg	99
682.373	0.604	603.7	0back	Block1	0back/STIM_019.jpg	99
685.455	0.613	612.6	2back	Block2	2back/STIM_000.jpg	99
688.465	0.912	911.5	2back	Block2	2back/STIM_000.jpg	100
692.246	0.798	798.2	2back	Block2	2back/STIM_000.jpg	100
695.876	0.505	505.3	2back	Block2	2back/STIM_001.jpg	100
699.49	0.436	435.9	2back	Block2	2back/STIM_001.jpg	99
703.401	0.412	412.5	2back	Block2	2back/STIM_001.jpg	99
707.692	0.498	497.9	2back	Block2	2back/STIM_002.jpg	99
711.873	0.751	751.0	2back	Block2	2back/STIM_002.jpg	100
716.218	0.6	599.5	2back	Block2	2back/STIM_002.jpg	99
720.256	0.996	996.3	2back	Block2	2back/STIM_003.jpg	99
724.507	0.741	741.4	2back	Block2	2back/STIM_003.jpg	99
728.21	0.56	559.5	2back	Block2	2back/STIM_003.jpg	99
732.008	0.889	888.9	2back	Block2	2back/STIM_004.jpg	99
736.252	0.765	764.9	2back	Block2	2back/STIM_004.jpg	99
739.93	0.409	408.6	2back	Block2	2back/STIM_004.jpg	99
743.468	0.872	872.2	2back	Block2	2back/STIM_005.jpg	99
747.1	0.844	844.3	2back	Block2	2back/STIM_005.jpg	100
751.593	0.712	711.8	2back	Block2	2back/STIM_005.jpg	100
754.451	0.559	558.7	2back	Block2	2back/STIM_006.jpg	100
757.885	0.975	975.0	2back	Block2	2back/STIM_006.jpg	100
761.395	0.721	721.1	2back	Block2	2back/STIM_006.jpg	99
765.886	0.623	623.4	2back	Block2	2back/STIM_007.jpg	99
769.427	0.429	429.1	2back	Block2	2back/STIM_007.jpg	99
773.72	0.9	899.8	2back	Block2	2back/STIM_007.jpg	99
777.33	0.908	907.8	2back	Block2	2back/STIM_008.jpg	99
782.183	0.868	867.9	2back	Block2	2back/STIM_008.jpg	99
786.367	0.824	824.4	2back	Block2	2back/STIM_008.jpg	99
791.15	0.734	733.8	2back	Block2	2back/STIM_009.jpg	100
794.058	0.751	750.9	2back	Block2	2back/STIM_009.jpg	99
797.62	0.54	540.5	2back	Block2	2back/STIM_009.jpg	99
800.341	0.548	547.5	2back	Block2	2back/STIM_010.jpg	99
804.528	0.615	614.7	2back	Block2	2back/STIM_010.jpg	99
809.105	0.536	536.1	2back	Block2	2back/STIM_010.jpg	100
813.297	0.492	491.6	2back	Block2	2back/STIM_011.jpg	100
816.704	0.6	600.5	2back	Block2	2back/STIM_011.jpg	99
821.38	0.584	584.2	2back	Block2	2back/STIM_011.jpg	100
825.118	0.976	976.0	2back	Block2	2back/STIM_012.jpg	100
829.925	0.695	695.2	2back	Block2	2back/STIM_012.jpg	100
834.422	0.918	918.3	2back	Block2	2back/STIM_012.jpg	100
837.476	0.664	663.9	2back	Block2	2back/STIM_013.jpg	100
841.973	0.874	874.4	2back	Block2	2back/STIM_013.jpg	100
846.335	0.671	670.9	2back	Block2	2back/STIM_013.jpg	100
851.068	0.884	883.9	2back	Block2	2back/STIM_014.jpg	99
856.068	0.889	889.3	2back	Block2	2back/STIM_014.jpg	99
860.016	0.888	888.0	2back	Block2	2back/STIM_014.jpg	100
864.394	0.52	519.9	2back	Block2	2back/STIM_015.jpg	99
867.185	0.464	463.7	2back	Block2	2back/STIM_015.jpg	100
870.963	0.54	540.5	2back	Block2	2back/STIM_015.jpg	100
875.29	0.931	930.9	2back	Block2	2back/STIM_016.jpg	99
879.517	0.798	797.5	2back	Block2	2back/STIM_016.jpg	100
882.552	0.845	845.1	2back	Block2	2back/STIM_016.jpg	99
885.517	0.726	726.1	2back	Block2	2back/STIM_017.jpg	99
889.834	0.505	505.0	2back	Block2	2back/STIM_017.jpg	100
893.812	0.784	784.3	2back	Block2	2back/STIM_017.jpg	100
898.621	1.045	1044.6	2back	Block2	2back/STIM_018.jpg	100
902.792	0.817	817.3	2back	Block2	2back/STIM_018.jpg	99
905.934	0.553	553.0	2back	Block2	2back/STIM_018.jpg	99
910.442	0.61	609.7	2back	Block2	2back/STIM_019.jpg	99
914.791	0.522	521.8	2back	Block2	2back/STIM_019.jpg	99
917.562	0.828	828.0	2back	Block2	2back/STIM_019.jpg	99
921.08	0.597	596.6	2back	Block2	2back/STIM_020.jpg	100
925.157	0.501	501.1	2back	Block2	2back/STIM_020.jpg	100
929.171	0.742	741.9	2back	Block2	2back/STIM_020.jpg	99
932.249	0.763	763.1	2back	Block2	2back/STIM_021.jpg	99
935.152	0.91	910.3	2back	Block2	2back/STIM_021.jpg	99
938.471	0.574	574.1	2back	Block2	2back/STIM_021.jpg	99
941.181	0.95	949.5	2back	Block2	2back/STIM_022.jpg	99
944.637	0.712	711.9	2back	Block2	2back/STIM_022.jpg	99
948.537	0.819	818.6	2back	Block2	2back/STIM_022.jpg	99
953.205	0.719	719.4	2back	Block2	2back/STIM_023.jpg	99
957.415	0.506	505.9	2back	Block2	2back/STIM_023.jpg	100
960.001	0.571	570.6	2back	Block2	2back/STIM_023.jpg	99
963.87	0.629	629.2	2back	Block2	2back/STIM_024.jpg	99
968.428	0.549	549.3	2back	Block2	2back/STIM_024.jpg	100
971.378	0.433	433.1	2back	Block2	2back/STIM_024.jpg	99
975.452	0.781	780.6	2back	Block2	2back/STIM_025.jpg	100
978.709	0.791	790.9	2back	Block2	2back/STIM_025.jpg	99
983.446	0.692	691.9	2back	Block2	2back/STIM_025.jpg	100
987.863	0.955	954.7	2back	Block2	2back/STIM_026.jpg	99
991.523	0.663	663.0	2back	Block2	2back/STIM_026.jpg	99
996.188	0.447	446.6	2back	Block2	2back/STIM_026.jpg	100
999.719	0.89	890.0	2back	Block2	2back/STIM_027.jpg	100
1003.639	0.866	865.9	2back	Block2	2back/STIM_027.jpg	100
1007.78	0.412	411.9	2back	Block2	2back/STIM_027.jpg	100
1011.638	0.683	682.9	2back	Block2	2back/STIM_028.jpg	99
1016.203	0.969	968.9	2back	Block2	2back/STIM_028.jpg	100
1019.442	0.484	484.2	2back	Block2	2back/STIM_028.jpg	99
1022.848	0.684	683.6	2back	Block2	2back/STIM_029.jpg	100
1027.132	0.479	479.2	2back	Block2	2back/STIM_029.jpg	100
1030.829	0.75	749.6	2back	Block2	2back/STIM_029.jpg	100
1035.362	0.449	448.7	2back	Block2	2back/STIM_030.jpg	100
1038.156	0.594	594.4	2back	Block2	2back/STIM_030.jpg	100
1042.207	0.806	806.0	2back	Block2	2back/STIM_030.jpg	100
1046.443	0.728	727.8	2back	Block2	2back/STIM_031.jpg	99
1049.565	0.799	799.3	2back	Block2	2back/STIM_031.jpg	100
1052.946	0.63	629.7	2back	Block2	2back/STIM_031.jpg	100
1056.39	0.719	719.3	2back	Block2	2back/STIM_032.jpg	99
1061.115	0.648	647.8	2back	Block2	2back/STIM_032.jpg	99
1064.101	0.747	747.2	2back	Block2	2back/STIM_032.jpg	99
1067.497	0.64	640.4	2back	Block2	2back/STIM_033.jpg	99
1071.289	0.549	548.7	2back	Block2	2back/STIM_033.jpg	100
1074.613	0.602	602.3	2back	Block2	2back/STIM_033.jpg	100
1078.265	0.825	825.0	2back	Block2	2back/STIM_034.jpg	100
1083.139	0.972	972.5	2back	Block2	2back/STIM_034.jpg	99
1087.603	0.726	725.8	2back	Block2	2back/STIM_034.jpg	100
1090.834	0.918	918.3	2back	Block2	2back/STIM_035.jpg	100
1095.252	0.948	948.4	2back	Block2	2back/STIM_035.jpg	100
1099.302	0.725	725.0	2back	Block2	2back/STIM_035.jpg	100
1102.277	0.922	921.5	2back	Block2	2back/STIM_036.jpg	100
1107.303	0.802	801.5	2back	Block2	2back/STIM_036.jpg	100
1111.361	0.452	452.2	2back	Block2	2back/STIM_036.jpg	100
1113.951	0.482	482.0	2back	Block2	2back/STIM_037.jpg	100
1118.291	0.858	857.7	2back	Block2	2back/STIM_037.jpg	100
1122.822	0.735	734.6	2back	Block2	2back/STIM_037.jpg	100
1125.883	0.896	895.5	2back	Block2	2back/STIM_038.jpg	99
1129.647	0.508	507.9	2back	Block2	2back/STIM_038.jpg	99
1132.798	0.455	454.7	2back	Block2	2back/STIM_038.jpg	99
1135.668	0.759	759.0	2back	Block2	2back/STIM_039.jpg	99
1139.721	0.728	727.8	2back	Block2	2back/STIM_039.jpg	100
1143.629	0.578	577.9	2back	Block2	2back/STIM_039.jpg	100
1146.454	0.686	685.6	0back	Block2	0back/STIM_000.jpg	100
1150.827	0.486	486.3	0back	Block2	0back/STIM_000.jpg	100
1154.638	0.546	546.0	0back	Block2	0back/STIM_000.jpg	100
1159.238	0.684	684.5	0back	Block2	0back/STIM_001.jpg	100
1163.833	0.602	602.1	0back	Block2	0back/STIM_001.jpg	100
1167.009	0.44	440.3	0back	Block2	0back/STIM_001.jpg	99
1170.804	0.453	453.2	0back	Block2	0back/STIM_002.jpg	99
1173.458	0.543	542.8	0back	Block2	0back/STIM_002.jpg	99
1176.781	0.498	497.5	0back	Block2	0back/STIM_002.jpg	99
1181.01	0.47	470.5	0back	Block2	0back/STIM_003.jpg	100
1185.176	0.592	591.7	0back	Block2	0back/STIM_003.jpg	100
1189.091	0.633	632.7	0back	Block2	0back/STIM_003.jpg	100
1192.775	0.492	492.5	0back	Block2	0back/STIM_004.jpg	99
1195.921	0.67	669.5	0back	Block2	0back/STIM_004.jpg	99
1200.234	0.603	603.0	0back	Block2	0back/STIM_004.jpg	100
1204.551	0.37	370.3	0back	Block2	0back/STIM_005.jpg	100
1207.556	0.672	671.5	0back	Block2	0back/STIM_005.jpg	99
1210.564	0.627	627.1	0back	Block2	0back/STIM_005.jpg	99
1215.147	0.455	454.9	0back	Block2	0back/STIM_006.jpg	99
1219.133	0.535	535.3	0back	Block2	0back/STIM_006.jpg	99
1222.186	0.389	389.1	0back	Block2	0back/STIM_006.jpg	100
1226.257	0.635	635.3	0back	Block2	0back/STIM_007.jpg	99
1229.969	0.661	661.2	0back	Block2	0back/STIM_007.jpg	99
1233.861	0.448	448.5	0back	Block2	0back/STIM_007.jpg	99
1237.728	0.443	443.0	0back	Block2	0back/STIM_008.jpg	100
1240.967	0.603	603.2	0back	Block2	0back/STIM_008.jpg	99
1245.336	0.647	647.1	0back	Block2	0back/STIM_008.jpg	99
1248.476	0.512	512.1	0back	Block2	0back/STIM_009.jpg	99
1252.622	0.688	687.6	0back	Block2	0back/STIM_009.jpg	100
1255.855	0.364	364.0	0back	Block2	0back/STIM_009.jpg	99
1258.949	0.659	658.8	0back	Block2	0back/STIM_010.jpg	99
1261.834	0.701	701.0	0back	Block2	0back/STIM_010.jpg	100
1265.436	0.393	392.8	0back	Block2	0back/STIM_010.jpg	100
1268.205	0.47	469.5	0back	Block2	0back/STIM_011.jpg	99
1271.042	0.453	453.3	0back	Block2	0back/STIM_011.jpg	99
1273.63	0.594	593.7	0back	Block2	0back/STIM_011.jpg	99
1276.883	0.684	684.4	0back	Block2	0back/STIM_012.jpg	99
1281.114	0.695	695.2	0back	Block2	0back/STIM_012.jpg	99
1285.665	0.469	468.9	0back	Block2	0back/STIM_012.jpg	100
1289.591	0.628	627.5	0back	Block2	0back/STIM_013.jpg	100
1294.021	0.515	515.0	0back	Block2	0back/STIM_013.jpg	99
1298.572	0.661	660.8	0back	Block2	0back/STIM_013.jpg	99
1301.846	0.545	544.9	0back	Block2	0back/STIM_014.jpg	99
1304.568	0.559	559.0	0back	Block2	0back/STIM_014.jpg	99
1308.958	0.66	660.0	0back	Block2	0back/STIM_014.jpg	100
1312.406	0.513	513.1	0back	Block2	0back/STIM_015.jpg	100
1316.909	0.495	495.2	0back	Block2	0back/STIM_015.jpg	100
1320.844	0.691	690.8	0back	Block2	0back/STIM_015.jpg	99
1325.605	0.671	671.1	0back	Block2	0back/STIM_016.jpg	100
1329.091	0.493	493.3	0back	Block2	0back/STIM_016.jpg	99
1333.206	0.55	549.5	0back	Block2	0back/STIM_016.jpg	99
1336.739	0.416	416.0	0back	Block2	0back/STIM_017.jpg	100
1340.464	0.499	498.6	0back	Block2	0back/STIM_017.jpg	99
1343.115	0.361	361.2	0back	Block2	0back/STIM_017.jpg	99
1346.691	0.631	631.3	0back	Block2	0back/STIM_018.jpg	100
1349.692	0.552	552.4	0back	Block2	0back/STIM_018.jpg	99
1354.164	0.43	430.5	0back	Block2	0back/STIM_018.jpg	99
1356.936	0.633	633.1	0back	Block2	0back/STIM_019.jpg	100
1360.241	0.372	372.1	0back	Block2	0back/STIM_019.jpg	100
1363.586	0.44	440.2	0back	Block2	0back/STIM_019.jpg	100
1366.675	0.635	635.1	2back	Block3	2back/STIM_000.jpg	99
1369.833	0.841	841.0	2back	Block3	2back/STIM_000.jpg	99
1373.277	0.654	653.9	2back	Block3	2back/STIM_000.jpg	100
1376.57	0.643	643.1	2back	Block3	2back/STIM_001.jpg	99
1380.807	0.822	822.5	2back	Block3	2back/STIM_001.jpg	100
1384.267	0.722	721.7	2back	Block3	2back/STIM_001.jpg	100
1388.876	0.716	716.0	2back	Block3	2back/STIM_002.jpg	100
1391.711	0.473	473.4	2back	Block3	2back/STIM_002.jpg	100
1395.29	0.679	679.2	2back	Block3	2back/STIM_002.jpg	99
1398.231	0.374	373.7	2back	Block3	2back/STIM_003.jpg	100
1401.859	0.755	755.0	2back	Block3	2back/STIM_003.jpg	100
1404.834	0.492	492.2	2back	Block3	2back/STIM_003.jpg	100
1408.95	0.563	563.0	2back	Block3	2back/STIM_004.jpg	100
1411.891	0.482	481.7	2back	Block3	2back/STIM_004.jpg	99
1415.076	0.478	478.3	2back	Block3	2back/STIM_004.jpg	99
1417.976	0.809	809.2	2back	Block3	2back/STIM_005.jpg	100
1421.878	0.484	484.1	2back	Block3	2back/STIM_005.jpg	100
1424.759	0.618	617.9	2back	Block3	2back/STIM_005.jpg	100
1428.914	0.668	667.5	2back	Block3	2back/STIM_006.jpg	100
1433.053	0.841	840.6	2back	Block3	2back/STIM_006.jpg	99
1436.451	0.823	822.6	2back	Block3	2back/STIM_006.jpg	100
1439.465	0.825	825.3	2back	Block3	2back/STIM_007.jpg	100
1443.086	0.82	819.6	2back	Block3	2back/STIM_007.jpg	99
1446.06	0.66	659.8	2back	Block3	2back/STIM_007.jpg	99
1450.65	0.628	627.8	2back	Block3	2back/STIM_008.jpg	100
1454.095	0.458	458.0	2back	Block3	2back/STIM_008.jpg	100
1456.85	0.383	383.0	2back	Block3	2back/STIM_008.jpg	100
1459.892	0.739	738.9	2back	Block3	2back/STIM_009.jpg	99
1463.579	0.771	770.6	2back	Block3	2back/STIM_009.jpg	99
1468.091	0.423	423.2	2back	Block3	2back/STIM_009.jpg	99
1472.165	0.757	756.7	2back	Block3	2back/STIM_010.jpg	99
1476.771	0.384	384.4	2back	Block3	2back/STIM_010.jpg	99
1480.81	0.51	509.8	2back	Block3	2back/STIM_010.jpg	100
1484.914	0.855	854.8	2back	Block3	2back/STIM_011.jpg	100
1489.128	0.696	695.9	2back	Block3	2back/STIM_011.jpg	100
1493.902	0.376	376.4	2back	Block3	2back/STIM_011.jpg	99
1496.99	0.442	441.6	2back	Block3	2back/STIM_012.jpg	99
1501.326	0.553	553.0	2back	Block3	2back/STIM_012.jpg	99
1504.668	0.683	683.1	2back	Block3	2back/STIM_012.jpg	99
1509.428	0.471	470.9	2back	Block3	2back/STIM_013.jpg	100
1513.05	0.461	460.7	2back	Block3	2back/STIM_013.jpg	100
1515.663	0.736	736.1	2back	Block3	2back/STIM_013.jpg	99
1519.709	0.789	789.1	2back	Block3	2back/STIM_014.jpg	99
1523.262	0.434	434.5	2back	Block3	2back/STIM_014.jpg	99
1527.13	0.504	504.4	2back	Block3	2back/STIM_014.jpg	100
1530.202	0.633	632.6	2back	Block3	2back/STIM_015.jpg	99
1534.45	0.62	619.7	2back	Block3	2back/STIM_015.jpg	100
1538.308	0.612	611.6	2back	Block3	2back/STIM_015.jpg	100
1542.333	0.543	542.8	2back	Block3	2back/STIM_016.jpg	100
1545.631	0.734	734.0	2back	Block3	2back/STIM_016.jpg	99
1550.442	0.847	846.6	2back	Block3	2back/STIM_016.jpg	99
1554.484	0.524	523.5	2back	Block3	2back/STIM_017.jpg	99
1557.185	0.713	713.1	2back	Block3	2back/STIM_017.jpg	100
1560.419	0.679	679.2	2back	Block3	2back/STIM_017.jpg	100
1564.155	0.511	511.0	2back	Block3	2back/STIM_018.jpg	99
1568.183	0.422	422.5	2back	Block3	2back/STIM_018.jpg	99
1571.808	0.671	671.1	2back	Block3	2back/STIM_018.jpg	99
1575.268	0.796	795.5	2back	Block3	2back/STIM_019.jpg	100
1578.218	0.592	591.8	2back	Block3	2back/STIM_019.jpg	100
1582.656	0.475	475.4	2back	Block3	2back/STIM_019.jpg	100
1586.158	0.595	595.1	2back	Block3	2back/STIM_020.jpg	99
1590.286	0.787	787.0	2back	Block3	2back/STIM_020.jpg	99
1594.635	0.522	522.2	2back	Block3	2back/STIM_020.jpg	99
1598.505	0.499	499.2	2back	Block3	2back/STIM_021.jpg	100
1601.931	0.478	478.2	2back	Block3	2back/STIM_021.jpg	99
1606.277	0.503	503.5	2back	Block3	2back/STIM_021.jpg	100
1609.544	0.544	543.8	2back	Block3	2back/STIM_022.jpg	99
1612.969	0.53	530.0	2back	Block3	2back/STIM_022.jpg	99
1615.788	0.687	687.2	2back	Block3	2back/STIM_022.jpg	100
1618.807	0.505	504.7	2back	Block3	2back/STIM_023.jpg	100
1622.025	0.394	394.5	2back	Block3	2back/STIM_023.jpg	99
1624.561	0.536	536.5	2back	Block3	2back/STIM_023.jpg	99
1628.648	0.508	507.6	2back	Block3	2back/STIM_024.jpg	100
1632.197	0.75	750.0	2back	Block3	2back/STIM_024.jpg	99
1636.193	0.478	477.5	2back	Block3	2back/STIM_024.jpg	100
1639.869	0.8	799.5	2back	Block3	2back/STIM_025.jpg	100
1643.362	0.654	653.8	2back	Block3	2back/STIM_025.jpg	100
1647.333	0.599	599.3	2back	Block3	2back/STIM_025.jpg	100
1651.719	0.425	425.4	2back	Block3	2back/STIM_026.jpg	100
1655.902	0.432	432.3	2back	Block3	2back/STIM_026.jpg	100
1659.791	0.37	369.5	2back	Block3	2back/STIM_026.jpg	99
1662.716	0.844	844.4	2back	Block3	2back/STIM_027.jpg	100
1666.772	0.595	595.2	2back	Block3	2back/STIM_027.jpg	99
1670.965	0.397	396.7	2back	Block3	2back/STIM_027.jpg	100
1674.782	0.813	813.4	2back	Block3	2back/STIM_028.jpg	100
1678.477	0.749	749.2	2back	Block3	2back/STIM_028.jpg	99
1681.677	0.763	763.2	2back	Block3	2back/STIM_028.jpg	100
1686.327	0.839	838.7	2back	Block3	2back/STIM_029.jpg	100
1689.36	0.485	485.2	2back	Block3	2back/STIM_029.jpg	100
1692.228	0.847	847.4	2back	Block3	2back/STIM_029.jpg	99
1696.747	0.414	413.7	2back	Block3	2back/STIM_030.jpg	99
1700.934	0.538	537.6	2back	Block3	2back/STIM_030.jpg	99
1704.942	0.447	447.1	2back	Block3	2back/STIM_030.jpg	100
1708.841	0.497	497.2	2back	Block3	2back/STIM_031.jpg	99
1713.233	0.782	781.5	2back	Block3	2back/STIM_031.jpg	99
1717.29	0.825	825.3	2back	Block3	2back/STIM_031.jpg	99
1720.743	0.779	779.1	2back	Block3	2back/STIM_032.jpg	99
1723.893	0.662	661.8	2back	Block3	2back/STIM_032.jpg	99
1728.292	0.533	532.8	2back	Block3	2back/STIM_032.jpg	100
1731.525	0.423	423.4	2back	Block3	2back/STIM_033.jpg	100
1735.743	0.785	784.6	2back	Block3	2back/STIM_033.jpg	99
1738.65	0.476	475.9	2back	Block3	2back/STIM_033.jpg	99
1742.375	0.6	599.8	2back	Block3	2back/STIM_034.jpg	99
1745.415	0.446	446.2	2back	Block3	2back/STIM_034.jpg	100
1748.937	0.818	818.1	2back	Block3	2back/STIM_034.jpg	99
1752.292	0.575	574.6	2back	Block3	2back/STIM_035.jpg	99
1756.22	0.767	767.0	2back	Block3	2back/STIM_035.jpg	100
1759.629	0.417	416.8	2back	Block3	2back/STIM_035.jpg	100
1762.89	0.725	724.9	2back	Block3	2back/STIM_036.jpg	99
1767.498	0.376	376.3	2back	Block3	2back/STIM_036.jpg	99
1770.411	0.454	454.0	2back	Block3	2back/STIM_036.jpg	99
1774.13	0.52	519.5	2back	Block3	2back/STIM_037.jpg	99
1777.279	0.708	707.9	2back	Block3	2back/STIM_037.jpg	100
1781.872	0.442	442.0	2back	Block3	2back/STIM_037.jpg	99
1785.215	0.418	417.5	2back	Block3	2back/STIM_038.jpg	100
1789.345	0.835	834.7	2back	Block3	2back/STIM_038.jpg	100
1793.702	0.737	736.6	2back	Block3	2back/STIM_038.jpg	99
1797.595	0.802	801.9	2back	Block3	2back/STIM_039.jpg	100
1800.788	0.813	812.7	2back	Block3	2back/STIM_039.jpg	99
1803.799	0.716	715.5	2back	Block3	2back/STIM_039.jpg	100
1808.199	0.484	484.3	0back	Block3	0back/STIM_000.jpg	99
1811.631	0.601	601.2	0back	Block3	0back/STIM_000.jpg	99
1815.511	0.643	643.4	0back	Block3	0back/STIM_000.jpg	100
1819.063	0.462	462.4	0back	Block3	0back/STIM_001.jpg	99
1823.179	0.375	375.0	0back	Block3	0back/STIM_001.jpg	100
1825.7	0.646	646.4	0back	Block3	0back/STIM_001.jpg	99
1830.426	0.527	527.4	0back	Block3	0back/STIM_002.jpg	100
1834.943	0.524	524.0	0back	Block3	0back/STIM_002.jpg	99
1838.472	0.403	403.0	0back	Block3	0back/STIM_002.jpg	99
1841.248	0.488	487.6	0back	Block3	0back/STIM_003.jpg	99
1844.044	0.585	585.0	0back	Block3	0back/STIM_003.jpg	99
1847.562	0.386	385.6	0back	Block3	0back/STIM_003.jpg	99
1850.996	0.421	421.1	0back	Block3	0back/STIM_004.jpg	100
1854.605	0.394	393.8	0back	Block3	0back/STIM_004.jpg	100
1858.967	0.588	588.3	0back	Block3	0back/STIM_004.jpg	99
1863.345	0.431	431.2	0back	Block3	0back/STIM_005.jpg	99
1866.883	0.599	598.7	0back	Block3	0back/STIM_005.jpg	99
1870.431	0.591	591.4	0back	Block3	0back/STIM_005.jpg	99
1874.967	0.614	613.5	0back	Block3	0back/STIM_006.jpg	99
1879.184	0.515	514.7	0back	Block3	0back/STIM_006.jpg	99
1883.697	0.65	650.5	0back	Block3	0back/STIM_006.jpg	99
1887.863	0.624	623.5	0back	Block3	0back/STIM_007.jpg	100
1892.389	0.453	452.9	0back	Block3	0back/STIM_007.jpg	99
1896.864	0.438	437.5	0back	Block3	0back/STIM_007.jpg	100
1901.208	0.652	652.3	0back	Block3	0back/STIM_008.jpg	100
1905.885	0.591	591.2	0back	Block3	0back/STIM_008.jpg	100
1909.773	0.356	356.3	0back	Block3	0back/STIM_008.jpg	99
1913.736	0.624	624.1	0back	Block3	0back/STIM_009.jpg	99
1917.555	0.428	428.4	0back	Block3	0back/STIM_009.jpg	99
1921.506	0.684	683.7	0back	Block3	0back/STIM_009.jpg	100
1925.766	0.524	523.7	0back	Block3	0back/STIM_010.jpg	99
1930.159	0.446	446.2	0back	Block3	0back/STIM_010.jpg	99
1933.758	0.433	433.4	0back	Block3	0back/STIM_010.jpg	100
1938.166	0.692	691.8	0back	Block3	0back/STIM_011.jpg	99
1942.515	0.471	471.3	0back	Block3	0back/STIM_011.jpg	99
1945.758	0.552	552.4	0back	Block3	0back/STIM_011.jpg	100
1950.052	0.448	448.4	0back	Block3	0back/STIM_012.jpg	100
1952.842	0.634	634.0	0back	Block3	0back/STIM_012.jpg	100
1955.6	0.541	540.6	0back	Block3	0back/STIM_012.jpg	99
1959.78	0.412	412.4	0back	Block3	0back/STIM_013.jpg	100
1963.343	0.678	678.2	0back	Block3	0back/STIM_013.jpg	99
1967.198	0.526	525.5	0back	Block3	0back/STIM_013.jpg	99
1971.567	0.559	558.6	0back	Block3	0back/STIM_014.jpg	99
1975.094	0.602	602.5	0back	Block3	0back/STIM_014.jpg	99
1979.242	0.41	410.1	0back	Block3	0back/STIM_014.jpg	99
1982.722	0.478	477.7	0back	Block3	0back/STIM_015.jpg	100
1985.357	0.544	543.9	0back	Block3	0back/STIM_015.jpg	100
1989.106	0.511	511.3	0back	Block3	0back/STIM_015.jpg	99
1992.717	0.655	655.1	0back	Block3	0back/STIM_016.jpg	100
1997.214	0.38	379.5	0back	Block3	0back/STIM_016.jpg	99
2000.98	0.673	672.6	0back	Block3	0back/STIM_016.jpg	99
2004.529	0.668	668.1	0back	Block3	0back/STIM_017.jpg	100
2007.976	0.67	669.9	0back	Block3	0back/STIM_017.jpg	100
2011.931	0.503	502.9	0back	Block3	0back/STIM_017.jpg	99
2014.938	0.527	527.4	0back	Block3	0back/STIM_018.jpg	99
2018.202	0.586	586.4	0back	Block3	0back/STIM_018.jpg	100
2022.006	0.683	683.3	0back	Block3	0back/STIM_018.jpg	100
2025.896	0.576	576.1	0back	Block3	0back/STIM_019.jpg	100
2028.653	0.493	493.0	0back	Block3	0back/STIM_019.jpg	99
2032.341	0.558	558.1	0back	Block3	0back/STIM_019.jpg	99
2035.792	0.384	384.1	2back	Block4	2back/STIM_000.jpg	99
2040.227	0.656	655.6	2back	Block4	2back/STIM_000.jpg	99
2044.058	0.439	439.4	2back	Block4	2back/STIM_000.jpg	99
2047.483	0.678	677.6	2back	Block4	2back/STIM_001.jpg	100
2052.22	0.499	498.6	2back	Block4	2back/STIM_001.jpg	99
2056.58	0.454	454.1	2back	Block4	2back/STIM_001.jpg	100
2060.46	0.784	784.4	2back	Block4	2back/STIM_002.jpg	100
2065.032	0.801	800.8	2back	Block4	2back/STIM_002.jpg	99
2068.217	0.509	508.8	2back	Block4	2back/STIM_002.jpg	99
2072.684	0.51	510.5	2back	Block4	2back/STIM_003.jpg	99
2077.04	0.839	839.1	2back	Block4	2back/STIM_003.jpg	100
2081.881	0.632	632.1	2back	Block4	2back/STIM_003.jpg	99
2086.551	0.481	481.2	2back	Block4	2back/STIM_004.jpg	100
2089.357	0.422	422.5	2back	Block4	2back/STIM_004.jpg	99
2092.997	0.436	435.9	2back	Block4	2back/STIM_004.jpg	100
2096.045	0.593	592.9	2back	Block4	2back/STIM_005.jpg	100
2100.232	0.58	580.4	2back	Block4	2back/STIM_005.jpg	100
2104.876	0.572	572.4	2back	Block4	2back/STIM_005.jpg	99
2108.861	0.569	568.8	2back	Block4	2back/STIM_006.jpg	100
2112.206	0.417	416.6	2back	Block4	2back/STIM_006.jpg	100
2115.981	0.818	817.9	2back	Block4	2back/STIM_006.jpg	100
2120.79	0.627	626.7	2back	Block4	2back/STIM_007.jpg	100
2125.297	0.515	514.6	2back	Block4	2back/STIM_007.jpg	99
2129.832	0.472	471.8	2back	Block4	2back/STIM_007.jpg	100
2132.473	0.729	728.8	2back	Block4	2back/STIM_008.jpg	100
2135.557	0.522	521.6	2back	Block4	2back/STIM_008.jpg	99
2138.915	0.602	601.5	2back	Block4	2back/STIM_008.jpg	100
2141.789	0.622	621.5	2back	Block4	2back/STIM_009.jpg	100
2145.361	0.514	514.1	2back	Block4	2back/STIM_009.jpg	100
2148.604	0.403	403.2	2back	Block4	2back/STIM_009.jpg	100
2152.043	0.553	553.2	2back	Block4	2back/STIM_010.jpg	99
2156.61	0.408	408.4	2back	Block4	2back/STIM_010.jpg	100
2159.178	0.522	522.2	2back	Block4	2back/STIM_010.jpg	100
2162.87	0.391	390.9	2back	Block4	2back/STIM_011.jpg	100
2167.106	0.522	522.5	2back	Block4	2back/STIM_011.jpg	99
2171.11	0.414	414.3	2back	Block4	2back/STIM_011.jpg	100
2173.805	0.774	773.7	2back	Block4	2back/STIM_012.jpg	100
2177.318	0.682	681.6	2back	Block4	2back/STIM_012.jpg	99
2180.213	0.616	615.7	2back	Block4	2back/STIM_012.jpg	99
2183.988	0.813	812.6	2back	Block4	2back/STIM_013.jpg	100
2187.487	0.748	748.4	2back	Block4	2back/STIM_013.jpg	100
2191.668	0.524	523.8	2back	Block4	2back/STIM_013.jpg	100
2194.602	0.721	720.9	2back	Block4	2back/STIM_014.jpg	100
2198.75	0.438	437.8	2back	Block4	2back/STIM_014.jpg	100
2202.008	0.501	500.8	2back	Block4	2back/STIM_014.jpg	99
2206.185	0.408	407.6	2back	Block4	2back/STIM_015.jpg	99
2210.562	0.37	370.3	2back	Block4	2back/STIM_015.jpg	99
2214.08	0.573	573.0	2back	Block4	2back/STIM_015.jpg	99
2218.498	0.375	374.6	2back	Block4	2back/STIM_016.jpg	99
2221.944	0.658	658.4	2back	Block4	2back/STIM_016.jpg	99
2225.056	0.636	636.3	2back	Block4	2back/STIM_016.jpg	99
2228.925	0.802	801.8	2back	Block4	2back/STIM_017.jpg	99
2233.076	0.816	816.4	2back	Block4	2back/STIM_017.jpg	99
2236.071	0.574	574.1	2back	Block4	2back/STIM_017.jpg	100
2240.316	0.388	387.5	2back	Block4	2back/STIM_018.jpg	99
2244.725	0.723	723.2	2back	Block4	2back/STIM_018.jpg	100
2248.239	0.516	515.5	2back	Block4	2back/STIM_018.jpg	99
2252.668	0.649	648.9	2back	Block4	2back/STIM_019.jpg	99
2255.519	0.781	781.0	2back	Block4	2back/STIM_019.jpg	100
2259.641	0.698	697.9	2back	Block4	2back/STIM_019.jpg	99
2264.163	0.792	792.1	2back	Block4	2back/STIM_020.jpg	100
2267.729	0.41	409.6	2back	Block4	2back/STIM_020.jpg	99
2271.978	0.836	835.9	2back	Block4	2back/STIM_020.jpg	100
2275.27	0.655	655.1	2back	Block4	2back/STIM_021.jpg	99
2279.546	0.63	629.7	2back	Block4	2back/STIM_021.jpg	100
2283.586	0.624	624.1	2back	Block4	2back/STIM_021.jpg	99
2287.739	0.442	442.3	2back	Block4	2back/STIM_022.jpg	99
2291.534	0.845	845.3	2back	Block4	2back/STIM_022.jpg	100
2295.423	0.742	742.4	2back	Block4	2back/STIM_022.jpg	99
2298.514	0.735	735.1	2back	Block4	2back/STIM_023.jpg	99
2302.88	0.535	534.9	2back	Block4	2back/STIM_023.jpg	99
2307.296	0.369	369.2	2back	Block4	2back/STIM_023.jpg	99
2310.209	0.383	383.3	2back	Block4	2back/STIM_024.jpg	99
2312.994	0.436	436.3	2back	Block4	2back/STIM_024.jpg	100
2315.643	0.577	577.1	2back	Block4	2back/STIM_024.jpg	100
2318.453	0.492	492.0	2back	Block4	2back/STIM_025.jpg	99
2321.675	0.55	550.4	2back	Block4	2back/STIM_025.jpg	100
2326.17	0.782	781.9	2back	Block4	2back/STIM_025.jpg	99
2330.841	0.497	496.8	2back	Block4	2back/STIM_026.jpg	99
2333.877	0.8	799.7	2back	Block4	2back/STIM_026.jpg	100
2337.787	0.825	825.0	2back	Block4	2back/STIM_026.jpg	100
2341.728	0.561	560.7	2back	Block4	2back/STIM_027.jpg	99
2344.394	0.85	850.0	2back	Block4	2back/STIM_027.jpg	100
2348.387	0.401	401.2	2back	Block4	2back/STIM_027.jpg	99
2351.448	0.749	749.0	2back	Block4	2back/STIM_028.jpg	100
2355.104	0.844	843.5	2back	Block4	2back/STIM_028.jpg	99
2358.41	0.671	670.7	2back	Block4	2back/STIM_028.jpg	100
2362.077	0.462	462.1	2back	Block4	2back/STIM_029.jpg	99
2365.661	0.585	585.4	2back	Block4	2back/STIM_029.jpg	100
2370.001	0.64	639.5	2back	Block4	2back/STIM_029.jpg	99
2374.314	0.667	666.9	2back	Block4	2back/STIM_030.jpg	99
2377.252	0.535	535.4	2back	Block4	2back/STIM_030.jpg	99
2381.28	0.627	627.1	2back	Block4	2back/STIM_030.jpg	100
2384.105	0.715	714.8	2back	Block4	2back/STIM_031.jpg	99
2388.144	0.732	732.2	2back	Block4	2back/STIM_031.jpg	100
2392.331	0.626	625.8	2back	Block4	2back/STIM_031.jpg	100
2396.917	0.504	503.6	2back	Block4	2back/STIM_032.jpg	100
2399.714	0.808	807.7	2back	Block4	2back/STIM_032.jpg	100
2404.568	0.441	440.8	2back	Block4	2back/STIM_032.jpg	99
2408.255	0.843	843.0	2back	Block4	2back/STIM_033.jpg	100
2412.007	0.72	720.3	2back	Block4	2back/STIM_033.jpg	100
2415.301	0.581	580.7	2back	Block4	2back/STIM_033.jpg	99
2418.92	0.716	716.3	2back	Block4	2back/STIM_034.jpg	99
2422.127	0.662	662.0	2back	Block4	2back/STIM_034.jpg	100
2426.794	0.807	806.6	2back	Block4	2back/STIM_034.jpg	100
2431.432	0.589	589.3	2back	Block4	2back/STIM_035.jpg	99
2435.965	0.503	502.6	2back	Block4	2back/STIM_035.jpg	99
2439.781	0.568	568.1	2back	Block4	2back/STIM_035.jpg	99
2443.572	0.691	690.7	2back	Block4	2back/STIM_036.jpg	99
2447.135	0.655	654.6	2back	Block4	2back/STIM_036.jpg	99
2450.218	0.701	701.0	2back	Block4	2back/STIM_036.jpg	100
2454.627	0.747	747.3	2back	Block4	2back/STIM_037.jpg	99
2458.354	0.487	487.0	2back	Block4	2back/STIM_037.jpg	99
2462.383	0.766	766.5	2back	Block4	2back/STIM_037.jpg	100
2465.492	0.69	690.3	2back	Block4	2back/STIM_038.jpg	99
2469.464	0.573	573.0	2back	Block4	2back/STIM_038.jpg	100
2473.561	0.848	848.2	2back	Block4	2back/STIM_038.jpg	99
2478.114	0.468	467.5	2back	Block4	2back/STIM_039.jpg	99
2481.406	0.615	615.1	2back	Block4	2back/STIM_039.jpg	99
2486.018	0.586	585.9	2back	Block4	2back/STIM_039.jpg	100
2490.069	0.568	568.5	0back	Block4	0back/STIM_000.jpg	99
2492.74	0.555	554.8	0back	Block4	0back/STIM_000.jpg	99
2496.472	0.648	648.3	0back	Block4	0back/STIM_000.jpg	100
2500.656	0.664	663.6	0back	Block4	0back/STIM_001.jpg	99
2504.184	0.56	559.9	0back	Block4	0back/STIM_001.jpg	99
2507.194	0.383	382.8	0back	Block4	0back/STIM_001.jpg	99
2510.205	0.648	648.4	0back	Block4	0back/STIM_002.jpg	99
2513.5	0.396	396.5	0back	Block4	0back/STIM_002.jpg	100
2517.623	0.359	359.4	0back	Block4	0back/STIM_002.jpg	100
2520.442	0.682	682.4	0back	Block4	0back/STIM_003.jpg	99
2523.83	0.617	617.2	0back	Block4	0back/STIM_003.jpg	99
2526.541	0.662	662.0	0back	Block4	0back/STIM_003.jpg	99
2530.994	0.373	373.0	0back	Block4	0back/STIM_004.jpg	100
2534.93	0.404	404.2	0back	Block4	0back/STIM_004.jpg	100
2539.017	0.546	545.6	0back	Block4	0back/STIM_004.jpg	99
2543.244	0.405	405.0	0back	Block4	0back/STIM_005.jpg	99
2547.643	0.49	490.5	0back	Block4	0back/STIM_005.jpg	99
2550.203	0.528	528.0	0back	Block4	0back/STIM_005.jpg	99
2553.168	0.429	429.0	0back	Block4	0back/STIM_006.jpg	100
2557.09	0.532	531.9	0back	Block4	0back/STIM_006.jpg	100
2560.837	0.395	394.8	0back	Block4	0back/STIM_006.jpg	100
2565.23	0.618	617.7	0back	Block4	0back/STIM_007.jpg	100
2568.11	0.53	529.7	0back	Block4	0back/STIM_007.jpg	99
2572.468	0.42	420.4	0back	Block4	0back/STIM_007.jpg	100
2576.286	0.625	625.1	0back	Block4	0back/STIM_008.jpg	99
2580.693	0.615	615.1	0back	Block4	0back/STIM_008.jpg	100
2584.469	0.382	381.9	0back	Block4	0back/STIM_008.jpg	99
2588.14	0.598	597.6	0back	Block4	0back/STIM_009.jpg	100
2591.37	0.634	634.3	0back	Block4	0back/STIM_009.jpg	100
2594.473	0.696	695.9	0back	Block4	0back/STIM_009.jpg	100
2598.233	0.466	465.9	0back	Block4	0back/STIM_010.jpg	99
2601.977	0.663	663.1	0back	Block4	0back/STIM_010.jpg	100
2604.903	0.396	395.5	0back	Block4	0back/STIM_010.jpg	100
2608.263	0.594	593.9	0back	Block4	0back/STIM_011.jpg	99
2612.51	0.502	502.3	0back	Block4	0back/STIM_011.jpg	99
2615.285	0.534	534.1	0back	Block4	0back/STIM_011.jpg	100
2618.35	0.414	414.5	0back	Block4	0back/STIM_012.jpg	99
2622.004	0.551	550.9	0back	Block4	0back/STIM_012.jpg	100
2625.4	0.36	359.8	0back	Block4	0back/STIM_012.jpg	100
2628.893	0.405	404.9	0back	Block4	0back/STIM_013.jpg	99
2631.83	0.688	687.5	0back	Block4	0back/STIM_013.jpg	99
2635.408	0.371	370.9	0back	Block4	0back/STIM_013.jpg	100
2638.335	0.677	677.4	0back	Block4	0back/STIM_014.jpg	99
2642.272	0.415	415.2	0back	Block4	0back/STIM_014.jpg	100
2644.788	0.367	366.6	0back	Block4	0back/STIM_014.jpg	99
2647.877	0.571	571.1	0back	Block4	0back/STIM_015.jpg	99
2651.17	0.475	475.0	0back	Block4	0back/STIM_015.jpg	99
2654.826	0.364	364.5	0back	Block4	0back/STIM_015.jpg	99
2658.35	0.379	379.0	0back	Block4	0back/STIM_016.jpg	100
2662.095	0.379	379.0	0back	Block4	0back/STIM_016.jpg	100
2665.159	0.496	495.8	0back	Block4	0back/STIM_016.jpg	100
2668.264	0.508	508.2	0back	Block4	0back/STIM_017.jpg	99
2672.097	0.56	559.5	0back	Block4	0back/STIM_017.jpg	100
2676.534	0.405	405.4	0back	Block4	0back/STIM_017.jpg	99
2680.248	0.649	649.0	0back	Block4	0back/STIM_018.jpg	100
2684.012	0.608	607.8	0back	Block4	0back/STIM_018.jpg	100
2687.706	0.638	637.9	0back	Block4	0back/STIM_018.jpg	100
2691.669	0.451	451.0	0back	Block4	0back/STIM_019.jpg	99
2695.391	0.512	512.4	0back	Block4	0back/STIM_019.jpg	99
2699.293	0.671	671.3	0back	Block4	0back/STIM_019.jpg	100
