onset	duration	accuracy	trial_type	learning_stage	stimulus
0.0	1.17	incorrect	2back	Block1	2back/STIM_000.jpg
3.636	0.662	correct	2back	Block1	2back/STIM_000.jpg
7.963	0.811	correct	2back	Block1	2back/STIM_000.jpg
11.805	0.642	correct	2back	Block1	2back/STIM_001.jpg
15.748	1.058	correct	2back	Block1	2back/STIM_001.jpg
20.022	0.864	correct	2back	Block1	2back/STIM_001.jpg
23.429	1.025	correct	2back	Block1	2back/STIM_002.jpg
27.487	0.624	incorrect	2back	Block1	2back/STIM_002.jpg
30.902	1.037	correct	2back	Block1	2back/STIM_002.jpg
34.513	0.604	correct	2back	Block1	2back/STIM_003.jpg
38.883	0.639	correct	2back	Block1	2back/STIM_003.jpg
41.59	1.175	correct	2back	Block1	2back/STIM_003.jpg
44.797	1.102	correct	2back	Block1	2back/STIM_004.jpg
49.711	0.702	correct	2back	Block1	2back/STIM_004.jpg
52.688	0.702	correct	2back	Block1	2back/STIM_004.jpg
56.5	0.972	correct	2back	Block1	2back/STIM_005.jpg
61.28	0.674	correct	2back	Block1	2back/STIM_005.jpg
65.591	1.096	correct	2back	Block1	2back/STIM_005.jpg
69.472	1.044	correct	2back	Block1	2back/STIM_006.jpg
73.217	0.885	correct	2back	Block1	2back/STIM_006.jpg
76.759	0.744	correct	2back	Block1	2back/STIM_006.jpg
80.386	0.871	correct	2back	Block1	2back/STIM_007.jpg
84.643	0.758	correct	2back	Block1	2back/STIM_007.jpg
87.747	0.852	correct	2back	Block1	2back/STIM_007.jpg
90.934	1.009	incorrect	2back	Block1	2back/STIM_008.jpg
95.627	1.043	incorrect	2back	Block1	2back/STIM_008.jpg
99.27	0.736	correct	2back	Block1	2back/STIM_008.jpg
102.826	0.913	incorrect	2back	Block1	2back/STIM_009.jpg
107.508	0.743	correct	2back	Block1	2back/STIM_009.jpg
111.746	1.084	correct	2back	Block1	2back/STIM_009.jpg
116.553	0.578	correct	2back	Block1	2back/STIM_010.jpg
119.493	0.812	correct	2back	Block1	2back/STIM_010.jpg
122.718	0.664	correct	2back	Block1	2back/STIM_010.jpg
126.052	0.746	correct	2back	Block1	2back/STIM_011.jpg
128.849	0.84	correct	2back	Block1	2back/STIM_011.jpg
132.648	0.685	correct	2back	Block1	2back/STIM_011.jpg
135.606	1.133	correct	2back	Block1	2back/STIM_012.jpg
139.648	1.232	correct	2back	Block1	2back/STIM_012.jpg
143.564	0.869	correct	2back	Block1	2back/STIM_012.jpg
147.183	1.013	correct	2back	Block1	2back/STIM_013.jpg
151.922	1.177	correct	2back	Block1	2back/STIM_013.jpg
155.547	1.0	correct	2back	Block1	2back/STIM_013.jpg
159.282	0.586	correct	2back	Block1	2back/STIM_014.jpg
162.472	0.966	correct	2back	Block1	2back/STIM_014.jpg
166.723	0.635	correct	2back	Block1	2back/STIM_014.jpg
169.772	1.034	correct	2back	Block1	2back/STIM_015.jpg
174.696	1.188	incorrect	2back	Block1	2back/STIM_015.jpg
178.062	1.125	correct	2back	Block1	2back/STIM_015.jpg
181.894	1.044	incorrect	2back	Block1	2back/STIM_016.jpg
186.209	1.0	incorrect	2back	Block1	2back/STIM_016.jpg
189.478	0.959	correct	2back	Block1	2back/STIM_016.jpg
192.556	1.144	correct	2back	Block1	2back/STIM_017.jpg
196.265	0.75	correct	2back	Block1	2back/STIM_017.jpg
200.941	0.766	correct	2back	Block1	2back/STIM_017.jpg
205.289	0.913	incorrect	2back	Block1	2back/STIM_018.jpg
209.924	1.242	correct	2back	Block1	2back/STIM_018.jpg
213.95	1.013	correct	2back	Block1	2back/STIM_018.jpg
218.601	0.889	correct	2back	Block1	2back/STIM_019.jpg
222.908	1.227	correct	2back	Block1	2back/STIM_019.jpg
226.469	1.118	correct	2back	Block1	2back/STIM_019.jpg
229.811	0.574	incorrect	2back	Block1	2back/STIM_020.jpg
234.118	0.678	correct	2back	Block1	2back/STIM_020.jpg
238.17	0.624	correct	2back	Block1	2back/STIM_020.jpg
242.775	1.093	correct	2back	Block1	2back/STIM_021.jpg
247.099	1.109	correct	2back	Block1	2back/STIM_021.jpg
251.046	0.922	correct	2back	Block1	2back/STIM_021.jpg
255.265	1.099	correct	2back	Block1	2back/STIM_022.jpg
259.83	1.119	correct	2back	Block1	2back/STIM_022.jpg
264.879	0.631	correct	2back	Block1	2back/STIM_022.jpg
267.934	0.606	correct	2back	Block1	2back/STIM_023.jpg
271.565	0.752	correct	2back	Block1	2back/STIM_023.jpg
275.699	0.843	correct	2back	Block1	2back/STIM_023.jpg
280.458	0.675	incorrect	2back	Block1	2back/STIM_024.jpg
283.67	0.81	correct	2back	Block1	2back/STIM_024.jpg
286.763	1.111	correct	2back	Block1	2back/STIM_024.jpg
290.839	0.824	incorrect	2back	Block1	2back/STIM_025.jpg
295.624	0.748	correct	2back	Block1	2back/STIM_025.jpg
298.903	1.19	correct	2back	Block1	2back/STIM_025.jpg
302.48	1.128	correct	2back	Block1	2back/STIM_026.jpg
307.461	0.987	correct	2back	Block1	2back/STIM_026.jpg
310.466	0.75	correct	2back	Block1	2back/STIM_026.jpg
313.694	1.313	correct	2back	Block1	2back/STIM_027.jpg
318.308	1.167	correct	2back	Block1	2back/STIM_027.jpg
322.038	1.002	correct	2back	Block1	2back/STIM_027.jpg
326.052	0.932	correct	2back	Block1	2back/STIM_028.jpg
330.768	1.039	incorrect	2back	Block1	2back/STIM_028.jpg
334.714	1.185	correct	2back	Block1	2back/STIM_028.jpg
338.756	0.947	correct	2back	Block1	2back/STIM_029.jpg
343.581	1.103	correct	2back	Block1	2back/STIM_029.jpg
347.969	0.767	correct	2back	Block1	2back/STIM_029.jpg
350.873	0.879	correct	2back	Block1	2back/STIM_030.jpg
353.96	0.988	correct	2back	Block1	2back/STIM_030.jpg
357.961	1.102	correct	2back	Block1	2back/STIM_030.jpg
361.39	0.878	correct	2back	Block1	2back/STIM_031.jpg
365.324	1.013	correct	2back	Block1	2back/STIM_031.jpg
368.93	1.112	correct	2back	Block1	2back/STIM_031.jpg
372.829	0.735	correct	2back	Block1	2back/STIM_032.jpg
376.819	1.011	incorrect	2back	Block1	2back/STIM_032.jpg
380.046	1.061	correct	2back	Block1	2back/STIM_032.jpg
384.525	0.698	correct	2back	Block1	2back/STIM_033.jpg
388.421	0.943	incorrect	2back	Block1	2back/STIM_033.jpg
392.895	0.945	correct	2back	Block1	2back/STIM_033.jpg
396.575	1.324	correct	2back	Block1	2back/STIM_034.jpg
400.163	0.953	correct	2back	Block1	2back/STIM_034.jpg
404.36	0.527	correct	2back	Block1	2back/STIM_034.jpg
407.696	0.747	correct	2back	Block1	2back/STIM_035.jpg
410.619	0.824	incorrect	2back	Block1	2back/STIM_035.jpg
414.633	0.682	correct	2back	Block1	2back/STIM_035.jpg
417.798	0.59	correct	2back	Block1	2back/STIM_036.jpg
421.766	0.629	correct	2back	Block1	2back/STIM_036.jpg
424.842	0.851	correct	2back	Block1	2back/STIM_036.jpg
427.882	0.935	correct	2back	Block1	2back/STIM_037.jpg
432.603	0.662	correct	2back	Block1	2back/STIM_037.jpg
436.673	0.844	incorrect	2back	Block1	2back/STIM_037.jpg
441.161	1.287	correct	2back	Block1	2back/STIM_038.jpg
444.966	1.142	correct	2back	Block1	2back/STIM_038.jpg
448.568	0.61	correct	2back	Block1	2back/STIM_038.jpg
451.374	1.085	correct	2back	Block1	2back/STIM_039.jpg
454.702	0.738	incorrect	2back	Block1	2back/STIM_039.jpg
458.265	0.52	correct	2back	Block1	2back/STIM_039.jpg
462.281	0.648	correct	0back	Block1	0back/STIM_000.jpg
465.351	0.495	correct	0back	Block1	0back/STIM_000.jpg
468.654	0.448	correct	0back	Block1	0back/STIM_000.jpg
471.655	0.753	correct	0back	Block1	0back/STIM_001.jpg
474.458	0.754	correct	0back	Block1	0back/STIM_001.jpg
477.745	0.389	correct	0back	Block1	0back/STIM_001.jpg
480.866	0.708	correct	0back	Block1	0back/STIM_002.jpg
484.13	0.62	correct	0back	Block1	0back/STIM_002.jpg
488.043	0.404	correct	0back	Block1	0back/STIM_002.jpg
491.249	0.382	correct	0back	Block1	0back/STIM_003.jpg
495.614	0.502	correct	0back	Block1	0back/STIM_003.jpg
499.722	0.552	correct	0back	Block1	0back/STIM_003.jpg
503.131	0.652	correct	0back	Block1	0back/STIM_004.jpg
507.507	0.557	correct	0back	Block1	0back/STIM_004.jpg
511.521	0.444	correct	0back	Block1	0back/STIM_004.jpg
514.851	0.416	correct	0back	Block1	0back/STIM_005.jpg
517.633	0.642	correct	0back	Block1	0back/STIM_005.jpg
521.611	0.694	correct	0back	Block1	0back/STIM_005.jpg
524.877	0.413	correct	0back	Block1	0back/STIM_006.jpg
528.786	0.665	correct	0back	Block1	0back/STIM_006.jpg
533.275	0.584	correct	0back	Block1	0back/STIM_006.jpg
537.695	0.682	correct	0back	Block1	0back/STIM_007.jpg
540.738	0.668	correct	0back	Block1	0back/STIM_007.jpg
544.532	0.537	correct	0back	Block1	0back/STIM_007.jpg
548.935	0.58	correct	0back	Block1	0back/STIM_008.jpg
552.231	0.561	correct	0back	Block1	0back/STIM_008.jpg
556.568	0.558	correct	0back	Block1	0back/STIM_008.jpg
560.146	0.535	correct	0back	Block1	0back/STIM_009.jpg
563.245	0.728	correct	0back	Block1	0back/STIM_009.jpg
567.846	0.696	correct	0back	Block1	0back/STIM_009.jpg
572.535	0.488	correct	0back	Block1	0back/STIM_010.jpg
576.663	0.726	correct	0back	Block1	0back/STIM_010.jpg
579.896	0.493	correct	0back	Block1	0back/STIM_010.jpg
584.179	0.598	correct	0back	Block1	0back/STIM_011.jpg
588.615	0.418	correct	0back	Block1	0back/STIM_011.jpg
591.406	0.394	correct	0back	Block1	0back/STIM_011.jpg
595.362	0.482	correct	0back	Block1	0back/STIM_012.jpg
599.719	0.547	correct	0back	Block1	0back/STIM_012.jpg
604.034	0.649	correct	0back	Block1	0back/STIM_012.jpg
606.903	0.654	correct	0back	Block1	0back/STIM_013.jpg
611.29	0.669	correct	0back	Block1	0back/STIM_013.jpg
613.96	0.391	correct	0back	Block1	0back/STIM_013.jpg
616.765	0.755	correct	0back	Block1	0back/STIM_014.jpg
620.684	0.658	correct	0back	Block1	0back/STIM_014.jpg
624.338	0.593	incorrect	0back	Block1	0back/STIM_014.jpg
628.058	0.496	correct	0back	Block1	0back/STIM_015.jpg
631.108	0.443	correct	0back	Block1	0back/STIM_015.jpg
634.83	0.418	correct	0back	Block1	0back/STIM_015.jpg
638.41	0.715	correct	0back	Block1	0back/STIM_016.jpg
643.082	0.652	correct	0back	Block1	0back/STIM_016.jpg
646.672	0.411	correct	0back	Block1	0back/STIM_016.jpg
650.094	0.475	correct	0back	Block1	0back/STIM_017.jpg
654.356	0.74	correct	0back	Block1	0back/STIM_017.jpg
658.995	0.416	correct	0back	Block1	0back/STIM_017.jpg
662.825	0.584	correct	0back	Block1	0back/STIM_018.jpg
666.714	0.556	incorrect	0back	Block1	0back/STIM_018.jpg
670.064	0.742	correct	0back	Block1	0back/STIM_018.jpg
673.093	0.453	correct	0back	Block1	0back/STIM_019.jpg
675.959	0.505	correct	0back	Block1	0back/STIM_019.jpg
678.722	0.543	correct	0back	Block1	0back/STIM_019.jpg
681.311	0.815	correct	2back	Block2	2back/STIM_000.jpg
684.144	0.74	correct	2back	Block2	2back/STIM_000.jpg
687.839	0.777	correct	2back	Block2	2back/STIM_000.jpg
690.664	0.944	correct	2back	Block2	2back/STIM_001.jpg
694.344	1.029	correct	2back	Block2	2back/STIM_001.jpg
698.318	0.942	correct	2back	Block2	2back/STIM_001.jpg
701.442	0.808	correct	2back	Block2	2back/STIM_002.jpg
705.593	0.499	correct	2back	Block2	2back/STIM_002.jpg
709.264	0.97	correct	2back	Block2	2back/STIM_002.jpg
713.284	0.937	correct	2back	Block2	2back/STIM_003.jpg
716.773	1.049	correct	2back	Block2	2back/STIM_003.jpg
721.183	0.637	correct	2back	Block2	2back/STIM_003.jpg
723.967	0.501	correct	2back	Block2	2back/STIM_004.jpg
728.236	0.859	correct	2back	Block2	2back/STIM_004.jpg
731.725	0.443	correct	2back	Block2	2back/STIM_004.jpg
734.792	0.829	correct	2back	Block2	2back/STIM_005.jpg
738.031	0.723	correct	2back	Block2	2back/STIM_005.jpg
740.818	0.535	correct	2back	Block2	2back/STIM_005.jpg
744.519	0.905	correct	2back	Block2	2back/STIM_006.jpg
749.348	0.93	correct	2back	Block2	2back/STIM_006.jpg
752.683	0.644	correct	2back	Block2	2back/STIM_006.jpg
755.805	0.896	correct	2back	Block2	2back/STIM_007.jpg
760.63	0.551	incorrect	2back	Block2	2back/STIM_007.jpg
763.801	0.772	correct	2back	Block2	2back/STIM_007.jpg
767.882	0.631	correct	2back	Block2	2back/STIM_008.jpg
770.797	0.634	correct	2back	Block2	2back/STIM_008.jpg
774.268	0.506	correct	2back	Block2	2back/STIM_008.jpg
778.047	0.494	correct	2back	Block2	2back/STIM_009.jpg
782.329	0.985	correct	2back	Block2	2back/STIM_009.jpg
786.071	0.882	correct	2back	Block2	2back/STIM_009.jpg
790.676	0.586	correct	2back	Block2	2back/STIM_010.jpg
794.212	0.53	correct	2back	Block2	2back/STIM_010.jpg
798.218	0.723	correct	2back	Block2	2back/STIM_010.jpg
802.736	0.996	correct	2back	Block2	2back/STIM_011.jpg
807.336	0.507	correct	2back	Block2	2back/STIM_011.jpg
811.774	0.939	correct	2back	Block2	2back/STIM_011.jpg
816.063	0.786	correct	2back	Block2	2back/STIM_012.jpg
819.603	0.708	correct	2back	Block2	2back/STIM_012.jpg
823.044	0.613	correct	2back	Block2	2back/STIM_012.jpg
826.564	1.093	correct	2back	Block2	2back/STIM_013.jpg
829.682	0.651	correct	2back	Block2	2back/STIM_013.jpg
833.493	0.808	correct	2back	Block2	2back/STIM_013.jpg
837.498	1.076	correct	2back	Block2	2back/STIM_014.jpg
842.051	0.795	correct	2back	Block2	2back/STIM_014.jpg
846.272	0.804	correct	2back	Block2	2back/STIM_014.jpg
850.857	0.562	correct	2back	Block2	2back/STIM_015.jpg
854.524	0.948	incorrect	2back	Block2	2back/STIM_015.jpg
858.82	0.687	correct	2back	Block2	2back/STIM_015.jpg
863.473	0.889	correct	2back	Block2	2back/STIM_016.jpg
866.518	1.006	correct	2back	Block2	2back/STIM_016.jpg
870.706	0.828	correct	2back	Block2	2back/STIM_016.jpg
874.082	0.634	correct	2back	Block2	2back/STIM_017.jpg
877.87	0.947	incorrect	2back	Block2	2back/STIM_017.jpg
882.486	0.931	correct	2back	Block2	2back/STIM_017.jpg
886.07	1.037	correct	2back	Block2	2back/STIM_018.jpg
890.88	0.817	correct	2back	Block2	2back/STIM_018.jpg
895.568	0.486	incorrect	2back	Block2	2back/STIM_018.jpg
899.702	1.069	correct	2back	Block2	2back/STIM_019.jpg
904.666	0.895	correct	2back	Block2	2back/STIM_019.jpg
909.446	0.882	correct	2back	Block2	2back/STIM_019.jpg
913.088	1.072	correct	2back	Block2	2back/STIM_020.jpg
916.481	0.62	incorrect	2back	Block2	2back/STIM_020.jpg
920.144	0.591	correct	2back	Block2	2back/STIM_020.jpg
923.689	0.977	correct	2back	Block2	2back/STIM_021.jpg
927.477	0.926	correct	2back	Block2	2back/STIM_021.jpg
931.187	0.778	correct	2back	Block2	2back/STIM_021.jpg
935.852	0.859	correct	2back	Block2	2back/STIM_022.jpg
939.018	0.792	correct	2back	Block2	2back/STIM_022.jpg
942.537	0.468	correct	2back	Block2	2back/STIM_022.jpg
946.735	0.66	correct	2back	Block2	2back/STIM_023.jpg
951.286	0.962	correct	2back	Block2	2back/STIM_023.jpg
955.004	0.552	correct	2back	Block2	2back/STIM_023.jpg
957.672	1.011	correct	2back	Block2	2back/STIM_024.jpg
962.045	0.633	correct	2back	Block2	2back/STIM_024.jpg
966.644	0.766	correct	2back	Block2	2back/STIM_024.jpg
970.832	1.001	correct	2back	Block2	2back/STIM_025.jpg
974.162	0.767	correct	2back	Block2	2back/STIM_025.jpg
978.4	0.474	correct	2back	Block2	2back/STIM_025.jpg
982.484	0.766	correct	2back	Block2	2back/STIM_026.jpg
985.361	0.601	correct	2back	Block2	2back/STIM_026.jpg
989.825	0.467	correct	2back	Block2	2back/STIM_026.jpg
994.022	0.602	correct	2back	Block2	2back/STIM_027.jpg
996.916	0.887	correct	2back	Block2	2back/STIM_027.jpg
1000.933	0.626	correct	2back	Block2	2back/STIM_027.jpg
1005.022	1.026	correct	2back	Block2	2back/STIM_028.jpg
1008.444	0.695	correct	2back	Block2	2back/STIM_028.jpg
1012.867	0.938	correct	2back	Block2	2back/STIM_028.jpg
1016.217	0.97	correct	2back	Block2	2back/STIM_029.jpg
1019.567	0.885	correct	2back	Block2	2back/STIM_029.jpg
1024.412	0.515	correct	2back	Block2	2back/STIM_029.jpg
1028.311	0.805	correct	2back	Block2	2back/STIM_030.jpg
1032.222	0.651	correct	2back	Block2	2back/STIM_030.jpg
1036.761	0.753	correct	2back	Block2	2back/STIM_030.jpg
1041.41	0.501	correct	2back	Block2	2back/STIM_031.jpg
1045.709	0.543	correct	2back	Block2	2back/STIM_031.jpg
1049.159	0.732	correct	2back	Block2	2back/STIM_031.jpg
1053.816	0.867	correct	2back	Block2	2back/STIM_032.jpg
1057.32	1.021	correct	2back	Block2	2back/STIM_032.jpg
1061.326	0.831	correct	2back	Block2	2back/STIM_032.jpg
1065.258	0.995	correct	2back	Block2	2back/STIM_033.jpg
1069.9	0.478	correct	2back	Block2	2back/STIM_033.jpg
1073.134	0.512	correct	2back	Block2	2back/STIM_033.jpg
1077.446	0.901	correct	2back	Block2	2back/STIM_034.jpg
1081.966	0.494	correct	2back	Block2	2back/STIM_034.jpg
1085.539	0.583	correct	2back	Block2	2back/STIM_034.jpg
1088.866	0.877	correct	2back	Block2	2back/STIM_035.jpg
1091.952	0.585	correct	2back	Block2	2back/STIM_035.jpg
1095.146	0.884	correct	2back	Block2	2back/STIM_035.jpg
1099.007	0.541	correct	2back	Block2	2back/STIM_036.jpg
1102.278	0.624	correct	2back	Block2	2back/STIM_036.jpg
1105.652	0.607	correct	2back	Block2	2back/STIM_036.jpg
1109.429	0.51	correct	2back	Block2	2back/STIM_037.jpg
1113.411	0.971	correct	2back	Block2	2back/STIM_037.jpg
1117.89	0.595	correct	2back	Block2	2back/STIM_037.jpg
1120.876	0.81	correct	2back	Block2	2back/STIM_038.jpg
1123.845	0.468	correct	2back	Block2	2back/STIM_038.jpg
1127.987	0.993	correct	2back	Block2	2back/STIM_038.jpg
1132.937	0.656	correct	2back	Block2	2back/STIM_039.jpg
1137.005	0.924	correct	2back	Block2	2back/STIM_039.jpg
1141.441	0.807	correct	2back	Block2	2back/STIM_039.jpg
1144.957	0.446	correct	0back	Block2	0back/STIM_000.jpg
1149.364	0.595	correct	0back	Block2	0back/STIM_000.jpg
1153.818	0.38	correct	0back	Block2	0back/STIM_000.jpg
1156.313	0.494	correct	0back	Block2	0back/STIM_001.jpg
1160.184	0.456	correct	0back	Block2	0back/STIM_001.jpg
1163.987	0.582	correct	0back	Block2	0back/STIM_001.jpg
1167.517	0.639	correct	0back	Block2	0back/STIM_002.jpg
1171.498	0.459	correct	0back	Block2	0back/STIM_002.jpg
1174.376	0.53	correct	0back	Block2	0back/STIM_002.jpg
1176.918	0.597	correct	0back	Block2	0back/STIM_003.jpg
1179.967	0.602	correct	0back	Block2	0back/STIM_003.jpg
1184.252	0.75	correct	0back	Block2	0back/STIM_003.jpg
1188.998	0.567	correct	0back	Block2	0back/STIM_004.jpg
1193.419	0.552	correct	0back	Block2	0back/STIM_004.jpg
1197.814	0.668	correct	0back	Block2	0back/STIM_004.jpg
1202.187	0.424	correct	0back	Block2	0back/STIM_005.jpg
1204.788	0.675	correct	0back	Block2	0back/STIM_005.jpg
1208.161	0.532	correct	0back	Block2	0back/STIM_005.jpg
1211.601	0.696	correct	0back	Block2	0back/STIM_006.jpg
1214.749	0.634	correct	0back	Block2	0back/STIM_006.jpg
1217.693	0.536	correct	0back	Block2	0back/STIM_006.jpg
1221.458	0.578	correct	0back	Block2	0back/STIM_007.jpg
1225.761	0.714	correct	0back	Block2	0back/STIM_007.jpg
1229.074	0.732	correct	0back	Block2	0back/STIM_007.jpg
1233.453	0.756	correct	0back	Block2	0back/STIM_008.jpg
1237.136	0.403	correct	0back	Block2	0back/STIM_008.jpg
1240.978	0.456	incorrect	0back	Block2	0back/STIM_008.jpg
1244.173	0.615	correct	0back	Block2	0back/STIM_009.jpg
1246.924	0.67	correct	0back	Block2	0back/STIM_009.jpg
1250.263	0.541	incorrect	0back	Block2	0back/STIM_009.jpg
1252.832	0.433	correct	0back	Block2	0back/STIM_010.jpg
1257.039	0.603	correct	0back	Block2	0back/STIM_010.jpg
1261.434	0.438	correct	0back	Block2	0back/STIM_010.jpg
1264.464	0.397	correct	0back	Block2	0back/STIM_011.jpg
1267.793	0.5	correct	0back	Block2	0back/STIM_011.jpg
1271.286	0.752	correct	0back	Block2	0back/STIM_011.jpg
1274.861	0.409	correct	0back	Block2	0back/STIM_012.jpg
1278.622	0.444	correct	0back	Block2	0back/STIM_012.jpg
1282.147	0.736	correct	0back	Block2	0back/STIM_012.jpg
1285.38	0.612	correct	0back	Block2	0back/STIM_013.jpg
1288.486	0.704	correct	0back	Block2	0back/STIM_013.jpg
1291.368	0.539	incorrect	0back	Block2	0back/STIM_013.jpg
1295.354	0.67	correct	0back	Block2	0back/STIM_014.jpg
1299.937	0.436	correct	0back	Block2	0back/STIM_014.jpg
1302.46	0.525	correct	0back	Block2	0back/STIM_014.jpg
1305.6	0.722	correct	0back	Block2	0back/STIM_015.jpg
1308.735	0.706	correct	0back	Block2	0back/STIM_015.jpg
1311.776	0.6	correct	0back	Block2	0back/STIM_015.jpg
1314.693	0.668	correct	0back	Block2	0back/STIM_016.jpg
1318.603	0.568	correct	0back	Block2	0back/STIM_016.jpg
1321.894	0.724	correct	0back	Block2	0back/STIM_016.jpg
1326.567	0.651	correct	0back	Block2	0back/STIM_017.jpg
1330.249	0.679	correct	0back	Block2	0back/STIM_017.jpg
1334.668	0.636	correct	0back	Block2	0back/STIM_017.jpg
1339.02	0.467	correct	0back	Block2	0back/STIM_018.jpg
1343.094	0.602	correct	0back	Block2	0back/STIM_018.jpg
1346.725	0.606	correct	0back	Block2	0back/STIM_018.jpg
1350.869	0.544	correct	0back	Block2	0back/STIM_019.jpg
1353.838	0.436	correct	0back	Block2	0back/STIM_019.jpg
1357.739	0.417	correct	0back	Block2	0back/STIM_019.jpg
1362.045	0.78	correct	2back	Block3	2back/STIM_000.jpg
1365.863	0.619	correct	2back	Block3	2back/STIM_000.jpg
1369.434	0.51	correct	2back	Block3	2back/STIM_000.jpg
1373.66	0.55	correct	2back	Block3	2back/STIM_001.jpg
1377.382	0.462	correct	2back	Block3	2back/STIM_001.jpg
1380.141	0.756	correct	2back	Block3	2back/STIM_001.jpg
1384.381	0.534	correct	2back	Block3	2back/STIM_002.jpg
1387.641	0.76	correct	2back	Block3	2back/STIM_002.jpg
1390.688	0.886	correct	2back	Block3	2back/STIM_002.jpg
1394.433	0.494	correct	2back	Block3	2back/STIM_003.jpg
1397.67	0.437	correct	2back	Block3	2back/STIM_003.jpg
1400.162	0.419	correct	2back	Block3	2back/STIM_003.jpg
1404.525	0.851	correct	2back	Block3	2back/STIM_004.jpg
1409.157	0.736	correct	2back	Block3	2back/STIM_004.jpg
1412.724	0.619	correct	2back	Block3	2back/STIM_004.jpg
1415.726	0.714	correct	2back	Block3	2back/STIM_005.jpg
1418.752	0.446	correct	2back	Block3	2back/STIM_005.jpg
1421.199	0.87	correct	2back	Block3	2back/STIM_005.jpg
1424.718	0.436	correct	2back	Block3	2back/STIM_006.jpg
1427.302	0.657	correct	2back	Block3	2back/STIM_006.jpg
1430.261	0.491	correct	2back	Block3	2back/STIM_006.jpg
1433.802	0.662	correct	2back	Block3	2back/STIM_007.jpg
1437.098	0.539	correct	2back	Block3	2back/STIM_007.jpg
1440.708	0.862	correct	2back	Block3	2back/STIM_007.jpg
1445.082	0.788	correct	2back	Block3	2back/STIM_008.jpg
1448.487	0.574	correct	2back	Block3	2back/STIM_008.jpg
1452.501	0.811	correct	2back	Block3	2back/STIM_008.jpg
1456.476	0.554	correct	2back	Block3	2back/STIM_009.jpg
1460.202	0.777	correct	2back	Block3	2back/STIM_009.jpg
1464.068	0.899	incorrect	2back	Block3	2back/STIM_009.jpg
1468.435	0.667	correct	2back	Block3	2back/STIM_010.jpg
1472.917	0.7	incorrect	2back	Block3	2back/STIM_010.jpg
1476.198	0.672	correct	2back	Block3	2back/STIM_010.jpg
1480.565	0.682	correct	2back	Block3	2back/STIM_011.jpg
1484.071	0.432	correct	2back	Block3	2back/STIM_011.jpg
1486.827	0.77	correct	2back	Block3	2back/STIM_011.jpg
1490.805	0.468	correct	2back	Block3	2back/STIM_012.jpg
1493.671	0.653	correct	2back	Block3	2back/STIM_012.jpg
1498.303	0.674	correct	2back	Block3	2back/STIM_012.jpg
1501.815	0.776	correct	2back	Block3	2back/STIM_013.jpg
1505.337	0.879	correct	2back	Block3	2back/STIM_013.jpg
1508.933	0.69	incorrect	2back	Block3	2back/STIM_013.jpg
1512.571	0.443	correct	2back	Block3	2back/STIM_014.jpg
1516.917	0.602	correct	2back	Block3	2back/STIM_014.jpg
1520.791	0.9	correct	2back	Block3	2back/STIM_014.jpg
1525.626	0.886	correct	2back	Block3	2back/STIM_015.jpg
1530.143	0.671	correct	2back	Block3	2back/STIM_015.jpg
1532.945	0.529	correct	2back	Block3	2back/STIM_015.jpg
1536.52	0.713	correct	2back	Block3	2back/STIM_016.jpg
1540.423	0.58	correct	2back	Block3	2back/STIM_016.jpg
1543.772	0.798	correct	2back	Block3	2back/STIM_016.jpg
1546.968	0.568	correct	2back	Block3	2back/STIM_017.jpg
1551.329	0.916	correct	2back	Block3	2back/STIM_017.jpg
1554.722	0.824	correct	2back	Block3	2back/STIM_017.jpg
1558.853	0.883	correct	2back	Block3	2back/STIM_018.jpg
1562.915	0.659	correct	2back	Block3	2back/STIM_018.jpg
1567.256	0.574	correct	2back	Block3	2back/STIM_018.jpg
1570.248	0.736	correct	2back	Block3	2back/STIM_019.jpg
1574.924	0.662	correct	2back	Block3	2back/STIM_019.jpg
1578.177	0.72	correct	2back	Block3	2back/STIM_019.jpg
1581.067	0.784	correct	2back	Block3	2back/STIM_020.jpg
1584.89	0.909	correct	2back	Block3	2back/STIM_020.jpg
1588.795	0.454	correct	2back	Block3	2back/STIM_020.jpg
1593.015	0.42	correct	2back	Block3	2back/STIM_021.jpg
1597.102	0.533	correct	2back	Block3	2back/STIM_021.jpg
1600.786	0.528	correct	2back	Block3	2back/STIM_021.jpg
1604.135	0.86	correct	2back	Block3	2back/STIM_022.jpg
1607.129	0.441	correct	2back	Block3	2back/STIM_022.jpg
1609.996	0.669	correct	2back	Block3	2back/STIM_022.jpg
1614.43	0.484	correct	2back	Block3	2back/STIM_023.jpg
1617.95	0.514	correct	2back	Block3	2back/STIM_023.jpg
1620.762	0.615	correct	2back	Block3	2back/STIM_023.jpg
1623.85	0.92	correct	2back	Block3	2back/STIM_024.jpg
1628.539	0.506	correct	2back	Block3	2back/STIM_024.jpg
1631.735	0.488	correct	2back	Block3	2back/STIM_024.jpg
1634.555	0.475	correct	2back	Block3	2back/STIM_025.jpg
1638.424	0.675	correct	2back	Block3	2back/STIM_025.jpg
1642.428	0.748	correct	2back	Block3	2back/STIM_025.jpg
1646.5	0.864	correct	2back	Block3	2back/STIM_026.jpg
1650.477	0.886	correct	2back	Block3	2back/STIM_026.jpg
1653.879	0.488	correct	2back	Block3	2back/STIM_026.jpg
1658.246	0.552	correct	2back	Block3	2back/STIM_027.jpg
1662.027	0.632	correct	2back	Block3	2back/STIM_027.jpg
1665.818	0.414	correct	2back	Block3	2back/STIM_027.jpg
1669.056	0.441	correct	2back	Block3	2back/STIM_028.jpg
1673.176	0.714	correct	2back	Block3	2back/STIM_028.jpg
1676.124	0.579	correct	2back	Block3	2back/STIM_028.jpg
1679.312	0.875	correct	2back	Block3	2back/STIM_029.jpg
1683.737	0.522	correct	2back	Block3	2back/STIM_029.jpg
1687.288	0.682	correct	2back	Block3	2back/STIM_029.jpg
1691.911	0.433	correct	2back	Block3	2back/STIM_030.jpg
1695.798	0.422	correct	2back	Block3	2back/STIM_030.jpg
1698.746	0.499	correct	2back	Block3	2back/STIM_030.jpg
1701.304	0.455	correct	2back	Block3	2back/STIM_031.jpg
1704.307	0.57	correct	2back	Block3	2back/STIM_031.jpg
1707.458	0.838	correct	2back	Block3	2back/STIM_031.jpg
1711.494	0.916	correct	2back	Block3	2back/STIM_032.jpg
1715.104	0.541	correct	2back	Block3	2back/STIM_032.jpg
1718.997	0.476	correct	2back	Block3	2back/STIM_032.jpg
1722.965	0.624	correct	2back	Block3	2back/STIM_033.jpg
1726.464	0.776	correct	2back	Block3	2back/STIM_033.jpg
1730.001	0.795	correct	2back	Block3	2back/STIM_033.jpg
1733.218	0.77	correct	2back	Block3	2back/STIM_034.jpg
1737.21	0.832	correct	2back	Block3	2back/STIM_034.jpg
1740.374	0.426	correct	2back	Block3	2back/STIM_034.jpg
1742.814	0.905	correct	2back	Block3	2back/STIM_035.jpg
1745.917	0.558	correct	2back	Block3	2back/STIM_035.jpg
1749.434	0.691	correct	2back	Block3	2back/STIM_035.jpg
1753.599	0.915	correct	2back	Block3	2back/STIM_036.jpg
1756.522	0.408	correct	2back	Block3	2back/STIM_036.jpg
1759.26	0.413	correct	2back	Block3	2back/STIM_036.jpg
1763.101	0.46	correct	2back	Block3	2back/STIM_037.jpg
1766.415	0.505	correct	2back	Block3	2back/STIM_037.jpg
1770.06	0.872	correct	2back	Block3	2back/STIM_037.jpg
1773.593	0.802	correct	2back	Block3	2back/STIM_038.jpg
1777.354	0.919	correct	2back	Block3	2back/STIM_038.jpg
1780.772	0.916	correct	2back	Block3	2back/STIM_038.jpg
1785.625	0.814	correct	2back	Block3	2back/STIM_039.jpg
1788.876	0.448	correct	2back	Block3	2back/STIM_039.jpg
1791.519	0.803	correct	2back	Block3	2back/STIM_039.jpg
1795.945	0.575	correct	0back	Block3	0back/STIM_000.jpg
1800.113	0.71	correct	0back	Block3	0back/STIM_000.jpg
1803.921	0.525	correct	0back	Block3	0back/STIM_000.jpg
1806.796	0.551	correct	0back	Block3	0back/STIM_001.jpg
1811.34	0.44	correct	0back	Block3	0back/STIM_001.jpg
1815.003	0.734	correct	0back	Block3	0back/STIM_001.jpg
1819.141	0.421	correct	0back	Block3	0back/STIM_002.jpg
1823.489	0.711	correct	0back	Block3	0back/STIM_002.jpg
1827.801	0.637	correct	0back	Block3	0back/STIM_002.jpg
1831.84	0.538	incorrect	0back	Block3	0back/STIM_003.jpg
1835.009	0.515	correct	0back	Block3	0back/STIM_003.jpg
1838.861	0.438	correct	0back	Block3	0back/STIM_003.jpg
1843.097	0.758	correct	0back	Block3	0back/STIM_004.jpg
1846.571	0.618	correct	0back	Block3	0back/STIM_004.jpg
1849.803	0.428	incorrect	0back	Block3	0back/STIM_004.jpg
1852.941	0.617	correct	0back	Block3	0back/STIM_005.jpg
1856.344	0.474	correct	0back	Block3	0back/STIM_005.jpg
1859.958	0.607	correct	0back	Block3	0back/STIM_005.jpg
1862.921	0.598	correct	0back	Block3	0back/STIM_006.jpg
1865.73	0.715	correct	0back	Block3	0back/STIM_006.jpg
1870.05	0.753	correct	0back	Block3	0back/STIM_006.jpg
1874.63	0.709	correct	0back	Block3	0back/STIM_007.jpg
1878.924	0.621	correct	0back	Block3	0back/STIM_007.jpg
1882.607	0.729	correct	0back	Block3	0back/STIM_007.jpg
1886.601	0.589	correct	0back	Block3	0back/STIM_008.jpg
1891.014	0.737	incorrect	0back	Block3	0back/STIM_008.jpg
1894.106	0.702	correct	0back	Block3	0back/STIM_008.jpg
1897.251	0.712	correct	0back	Block3	0back/STIM_009.jpg
1901.569	0.55	correct	0back	Block3	0back/STIM_009.jpg
1905.579	0.455	correct	0back	Block3	0back/STIM_009.jpg
1908.131	0.63	correct	0back	Block3	0back/STIM_010.jpg
1912.21	0.43	correct	0back	Block3	0back/STIM_010.jpg
1915.384	0.74	correct	0back	Block3	0back/STIM_010.jpg
1919.218	0.465	correct	0back	Block3	0back/STIM_011.jpg
1922.704	0.577	correct	0back	Block3	0back/STIM_011.jpg
1926.762	0.624	correct	0back	Block3	0back/STIM_011.jpg
1929.923	0.396	correct	0back	Block3	0back/STIM_012.jpg
1932.359	0.408	correct	0back	Block3	0back/STIM_012.jpg
1934.977	0.392	correct	0back	Block3	0back/STIM_012.jpg
1937.522	0.495	correct	0back	Block3	0back/STIM_013.jpg
1941.968	0.669	correct	0back	Block3	0back/STIM_013.jpg
1946.174	0.457	correct	0back	Block3	0back/STIM_013.jpg
1948.658	0.56	correct	0back	Block3	0back/STIM_014.jpg
1952.2	0.494	correct	0back	Block3	0back/STIM_014.jpg
1956.397	0.413	correct	0back	Block3	0back/STIM_014.jpg
1959.584	0.529	correct	0back	Block3	0back/STIM_015.jpg
1963.784	0.54	correct	0back	Block3	0back/STIM_015.jpg
1967.491	0.755	correct	0back	Block3	0back/STIM_015.jpg
1971.018	0.686	correct	0back	Block3	0back/STIM_016.jpg
1974.639	0.536	correct	0back	Block3	0back/STIM_016.jpg
1977.86	0.7	correct	0back	Block3	0back/STIM_016.jpg
1981.756	0.403	correct	0back	Block3	0back/STIM_017.jpg
1985.34	0.546	incorrect	0back	Block3	0back/STIM_017.jpg
1988.026	0.449	correct	0back	Block3	0back/STIM_017.jpg
1990.777	0.672	correct	0back	Block3	0back/STIM_018.jpg
1995.18	0.693	correct	0back	Block3	0back/STIM_018.jpg
1998.367	0.657	correct	0back	Block3	0back/STIM_018.jpg
2002.407	0.689	correct	0back	Block3	0back/STIM_019.jpg
2006.215	0.567	correct	0back	Block3	0back/STIM_019.jpg
2010.059	0.438	correct	0back	Block3	0back/STIM_019.jpg
2014.245	0.906	correct	2back	Block4	2back/STIM_000.jpg
2017.356	0.625	correct	2back	Block4	2back/STIM_000.jpg
2020.821	0.516	correct	2back	Block4	2back/STIM_000.jpg
2024.739	0.712	correct	2back	Block4	2back/STIM_001.jpg
2029.39	0.694	correct	2back	Block4	2back/STIM_001.jpg
2032.673	0.742	correct	2back	Block4	2back/STIM_001.jpg
2037.214	0.617	correct	2back	Block4	2back/STIM_002.jpg
2041.214	0.608	correct	2back	Block4	2back/STIM_002.jpg
2044.867	0.595	correct	2back	Block4	2back/STIM_002.jpg
2047.609	0.526	correct	2back	Block4	2back/STIM_003.jpg
2051.889	0.486	correct	2back	Block4	2back/STIM_003.jpg
2054.821	0.497	correct	2back	Block4	2back/STIM_003.jpg
2058.116	0.723	correct	2back	Block4	2back/STIM_004.jpg
2062.168	0.399	correct	2back	Block4	2back/STIM_004.jpg
2066.223	0.481	correct	2back	Block4	2back/STIM_004.jpg
2068.787	0.46	correct	2back	Block4	2back/STIM_005.jpg
2071.359	0.877	correct	2back	Block4	2back/STIM_005.jpg
2075.153	0.637	correct	2back	Block4	2back/STIM_005.jpg
2078.511	0.808	correct	2back	Block4	2back/STIM_006.jpg
2082.031	0.7	correct	2back	Block4	2back/STIM_006.jpg
2086.552	0.522	correct	2back	Block4	2back/STIM_006.jpg
2089.137	0.533	correct	2back	Block4	2back/STIM_007.jpg
2092.595	0.587	correct	2back	Block4	2back/STIM_007.jpg
2096.554	0.737	correct	2back	Block4	2back/STIM_007.jpg
2100.051	0.468	correct	2back	Block4	2back/STIM_008.jpg
2102.699	0.822	correct	2back	Block4	2back/STIM_008.jpg
2107.142	0.788	correct	2back	Block4	2back/STIM_008.jpg
2110.58	0.465	correct	2back	Block4	2back/STIM_009.jpg
2113.558	0.855	correct	2back	Block4	2back/STIM_009.jpg
2117.584	0.775	correct	2back	Block4	2back/STIM_009.jpg
2121.737	0.847	correct	2back	Block4	2back/STIM_010.jpg
2125.276	0.573	correct	2back	Block4	2back/STIM_010.jpg
2129.789	0.734	correct	2back	Block4	2back/STIM_010.jpg
2133.739	0.907	correct	2back	Block4	2back/STIM_011.jpg
2137.912	0.552	correct	2back	Block4	2back/STIM_011.jpg
2141.525	0.651	correct	2back	Block4	2back/STIM_011.jpg
2144.83	0.622	correct	2back	Block4	2back/STIM_012.jpg
2148.056	0.557	correct	2back	Block4	2back/STIM_012.jpg
2152.564	0.864	correct	2back	Block4	2back/STIM_012.jpg
2157.226	0.749	correct	2back	Block4	2back/STIM_013.jpg
2161.923	0.896	correct	2back	Block4	2back/STIM_013.jpg
2165.92	0.792	correct	2back	Block4	2back/STIM_013.jpg
2169.349	0.675	correct	2back	Block4	2back/STIM_014.jpg
2173.519	0.78	correct	2back	Block4	2back/STIM_014.jpg
2176.441	0.884	correct	2back	Block4	2back/STIM_014.jpg
2179.366	0.752	correct	2back	Block4	2back/STIM_015.jpg
2183.893	0.732	correct	2back	Block4	2back/STIM_015.jpg
2187.92	0.861	correct	2back	Block4	2back/STIM_015.jpg
2191.414	0.465	correct	2back	Block4	2back/STIM_016.jpg
2195.673	0.549	correct	2back	Block4	2back/STIM_016.jpg
2199.409	0.677	correct	2back	Block4	2back/STIM_016.jpg
2203.934	0.926	correct	2back	Block4	2back/STIM_017.jpg
2207.999	0.671	correct	2back	Block4	2back/STIM_017.jpg
2211.976	0.432	correct	2back	Block4	2back/STIM_017.jpg
2214.597	0.679	correct	2back	Block4	2back/STIM_018.jpg
2219.053	0.767	correct	2back	Block4	2back/STIM_018.jpg
2223.577	0.453	correct	2back	Block4	2back/STIM_018.jpg
2226.472	0.655	correct	2back	Block4	2back/STIM_019.jpg
2230.957	0.451	correct	2back	Block4	2back/STIM_019.jpg
2234.312	0.475	correct	2back	Block4	2back/STIM_019.jpg
2238.033	0.674	correct	2back	Block4	2back/STIM_020.jpg
2240.756	0.701	correct	2back	Block4	2back/STIM_020.jpg
2243.867	0.888	correct	2back	Block4	2back/STIM_020.jpg
2247.972	0.615	correct	2back	Block4	2back/STIM_021.jpg
2250.902	0.922	correct	2back	Block4	2back/STIM_021.jpg
2254.872	0.689	correct	2back	Block4	2back/STIM_021.jpg
2259.538	0.809	correct	2back	Block4	2back/STIM_022.jpg
2262.968	0.464	correct	2back	Block4	2back/STIM_022.jpg
2265.739	0.586	correct	2back	Block4	2back/STIM_022.jpg
2269.54	0.539	correct	2back	Block4	2back/STIM_023.jpg
2272.656	0.589	correct	2back	Block4	2back/STIM_023.jpg
2276.333	0.711	correct	2back	Block4	2back/STIM_023.jpg
2281.016	0.774	correct	2back	Block4	2back/STIM_024.jpg
2285.159	0.78	correct	2back	Block4	2back/STIM_024.jpg
2289.306	0.455	correct	2back	Block4	2back/STIM_024.jpg
2293.015	0.895	correct	2back	Block4	2back/STIM_025.jpg
2296.589	0.882	correct	2back	Block4	2back/STIM_025.jpg
2300.864	0.42	correct	2back	Block4	2back/STIM_025.jpg
2303.616	0.73	correct	2back	Block4	2back/STIM_026.jpg
2306.451	0.477	correct	2back	Block4	2back/STIM_026.jpg
2310.43	0.861	correct	2back	Block4	2back/STIM_026.jpg
2314.969	0.749	correct	2back	Block4	2back/STIM_027.jpg
2318.818	0.607	correct	2back	Block4	2back/STIM_027.jpg
2321.576	0.466	correct	2back	Block4	2back/STIM_027.jpg
2325.031	0.43	correct	2back	Block4	2back/STIM_028.jpg
2329.364	0.756	correct	2back	Block4	2back/STIM_028.jpg
2333.647	0.478	correct	2back	Block4	2back/STIM_028.jpg
2336.79	0.906	correct	2back	Block4	2back/STIM_029.jpg
2340.183	0.877	correct	2back	Block4	2back/STIM_029.jpg
2343.373	0.883	correct	2back	Block4	2back/STIM_029.jpg
2348.069	0.761	correct	2back	Block4	2back/STIM_030.jpg
2351.183	0.476	correct	2back	Block4	2back/STIM_030.jpg
2354.846	0.493	correct	2back	Block4	2back/STIM_030.jpg
2357.783	0.518	correct	2back	Block4	2back/STIM_031.jpg
2361.89	0.423	correct	2back	Block4	2back/STIM_031.jpg
2364.506	0.859	correct	2back	Block4	2back/STIM_031.jpg
2369.291	0.77	correct	2back	Block4	2back/STIM_032.jpg
2373.467	0.418	correct	2back	Block4	2back/STIM_032.jpg
2376.959	0.816	correct	2back	Block4	2back/STIM_032.jpg
2381.15	0.594	correct	2back	Block4	2back/STIM_033.jpg
2385.142	0.8	incorrect	2back	Block4	2back/STIM_033.jpg
2389.918	0.448	correct	2back	Block4	2back/STIM_033.jpg
2392.877	0.477	correct	2back	Block4	2back/STIM_034.jpg
2396.224	0.403	correct	2back	Block4	2back/STIM_034.jpg
2399.935	0.484	correct	2back	Block4	2back/STIM_034.jpg
2402.504	0.695	correct	2back	Block4	2back/STIM_035.jpg
2405.23	0.567	correct	2back	Block4	2back/STIM_035.jpg
2407.818	0.575	correct	2back	Block4	2back/STIM_035.jpg
2410.634	0.851	correct	2back	Block4	2back/STIM_036.jpg
2413.718	0.878	correct	2back	Block4	2back/STIM_036.jpg
2416.761	0.585	correct	2back	Block4	2back/STIM_036.jpg
2420.431	0.479	correct	2back	Block4	2back/STIM_037.jpg
2424.344	0.673	correct	2back	Block4	2back/STIM_037.jpg
2427.493	0.782	correct	2back	Block4	2back/STIM_037.jpg
2431.115	0.834	correct	2back	Block4	2back/STIM_038.jpg
2435.151	0.718	correct	2back	Block4	2back/STIM_038.jpg
2439.081	0.728	correct	2back	Block4	2back/STIM_038.jpg
2443.758	0.784	correct	2back	Block4	2back/STIM_039.jpg
2447.049	0.927	correct	2back	Block4	2back/STIM_039.jpg
2450.359	0.904	correct	2back	Block4	2back/STIM_039.jpg
2454.676	0.433	correct	0back	Block4	0back/STIM_000.jpg
2458.818	0.605	correct	0back	Block4	0back/STIM_000.jpg
2461.867	0.732	correct	0back	Block4	0back/STIM_000.jpg
2466.573	0.654	correct	0back	Block4	0back/STIM_001.jpg
2469.914	0.632	correct	0back	Block4	0back/STIM_001.jpg
2472.917	0.424	correct	0back	Block4	0back/STIM_001.jpg
2475.965	0.516	correct	0back	Block4	0back/STIM_002.jpg
2479.228	0.54	correct	0back	Block4	0back/STIM_002.jpg
2483.748	0.447	correct	0back	Block4	0back/STIM_002.jpg
2486.502	0.591	correct	0back	Block4	0back/STIM_003.jpg
2490.643	0.636	correct	0back	Block4	0back/STIM_003.jpg
2494.084	0.752	correct	0back	Block4	0back/STIM_003.jpg
2498.126	0.45	correct	0back	Block4	0back/STIM_004.jpg
2502.078	0.627	correct	0back	Block4	0back/STIM_004.jpg
2505.05	0.751	correct	0back	Block4	0back/STIM_004.jpg
2509.521	0.486	correct	0back	Block4	0back/STIM_005.jpg
2513.941	0.743	correct	0back	Block4	0back/STIM_005.jpg
2518.527	0.593	correct	0back	Block4	0back/STIM_005.jpg
2522.569	0.45	correct	0back	Block4	0back/STIM_006.jpg
2525.363	0.733	correct	0back	Block4	0back/STIM_006.jpg
2528.487	0.751	correct	0back	Block4	0back/STIM_006.jpg
2532.78	0.639	correct	0back	Block4	0back/STIM_007.jpg
2536.638	0.585	correct	0back	Block4	0back/STIM_007.jpg
2540.364	0.689	correct	0back	Block4	0back/STIM_007.jpg
2543.845	0.43	correct	0back	Block4	0back/STIM_008.jpg
2547.31	0.551	correct	0back	Block4	0back/STIM_008.jpg
2551.848	0.708	correct	0back	Block4	0back/STIM_008.jpg
2555.896	0.518	correct	0back	Block4	0back/STIM_009.jpg
2558.913	0.633	correct	0back	Block4	0back/STIM_009.jpg
2563.326	0.756	correct	0back	Block4	0back/STIM_009.jpg
2567.737	0.502	correct	0back	Block4	0back/STIM_010.jpg
2571.948	0.72	correct	0back	Block4	0back/STIM_010.jpg
2576.573	0.426	correct	0back	Block4	0back/STIM_010.jpg
2580.431	0.574	correct	0back	Block4	0back/STIM_011.jpg
2584.765	0.467	correct	0back	Block4	0back/STIM_011.jpg
2587.625	0.425	correct	0back	Block4	0back/STIM_011.jpg
2591.003	0.469	correct	0back	Block4	0back/STIM_012.jpg
2594.148	0.702	correct	0back	Block4	0back/STIM_012.jpg
2597.106	0.639	correct	0back	Block4	0back/STIM_012.jpg
2601.289	0.556	correct	0back	Block4	0back/STIM_013.jpg
2604.085	0.493	correct	0back	Block4	0back/STIM_013.jpg
2608.045	0.698	correct	0back	Block4	0back/STIM_013.jpg
2612.297	0.697	correct	0back	Block4	0back/STIM_014.jpg
2616.488	0.456	correct	0back	Block4	0back/STIM_014.jpg
2620.937	0.433	incorrect	0back	Block4	0back/STIM_014.jpg
2624.51	0.516	correct	0back	Block4	0back/STIM_015.jpg
2628.878	0.501	correct	0back	Block4	0back/STIM_015.jpg
2632.081	0.389	correct	0back	Block4	0back/STIM_015.jpg
2635.355	0.535	correct	0back	Block4	0back/STIM_016.jpg
2639.626	0.557	correct	0back	Block4	0back/STIM_016.jpg
2642.243	0.533	correct	0back	Block4	0back/STIM_016.jpg
2644.92	0.752	correct	0back	Block4	0back/STIM_017.jpg
2648.993	0.552	incorrect	0back	Block4	0back/STIM_017.jpg
2653.255	0.471	correct	0back	Block4	0back/STIM_017.jpg
2656.856	0.682	correct	0back	Block4	0back/STIM_018.jpg
2660.515	0.571	correct	0back	Block4	0back/STIM_018.jpg
2663.49	0.408	correct	0back	Block4	0back/STIM_018.jpg
2666.892	0.705	correct	0back	Block4	0back/STIM_019.jpg
2671.295	0.417	correct	0back	Block4	0back/STIM_019.jpg
2673.871	0.436	correct	0back	Block4	0back/STIM_019.jpg
