onset	duration	accuracy_binary	trial_type	learning_stage	stimulus
0.0	1.17	0	2back	Block1	2back/STIM_000.jpg
3.636	0.662	1	2back	Block1	2back/STIM_000.jpg
7.963	0.811	1	2back	Block1	2back/STIM_000.jpg
11.805	0.642	1	2back	Block1	2back/STIM_001.jpg
15.748	1.058	1	2back	Block1	2back/STIM_001.jpg
20.022	0.864	1	2back	Block1	2back/STIM_001.jpg
23.429	1.025	1	2back	Block1	2back/STIM_002.jpg
27.487	0.624	0	2back	Block1	2back/STIM_002.jpg
30.902	1.037	1	2back	Block1	2back/STIM_002.jpg
34.513	0.604	1	2back	Block1	2back/STIM_003.jpg
38.883	0.639	1	2back	Block1	2back/STIM_003.jpg
41.59	1.175	1	2back	Block1	2back/STIM_003.jpg
44.797	1.102	1	2back	Block1	2back/STIM_004.jpg
49.711	0.702	1	2back	Block1	2back/STIM_004.jpg
52.688	0.702	1	2back	Block1	2back/STIM_004.jpg
56.5	0.972	1	2back	Block1	2back/STIM_005.jpg
61.28	0.674	1	2back	Block1	2back/STIM_005.jpg
65.591	1.096	1	2back	Block1	2back/STIM_005.jpg
69.472	1.044	1	2back	Block1	2back/STIM_006.jpg
73.217	0.885	1	2back	Block1	2back/STIM_006.jpg
76.759	0.744	1	2back	Block1	2back/STIM_006.jpg
80.386	0.871	1	2back	Block1	2back/STIM_007.jpg
84.643	0.758	1	2back	Block1	2back/STIM_007.jpg
87.747	0.852	1	2back	Block1	2back/STIM_007.jpg
90.934	1.009	0	2back	Block1	2back/STIM_008.jpg
95.627	1.043	0	2back	Block1	2back/STIM_008.jpg
99.27	0.736	1	2back	Block1	2back/STIM_008.jpg
102.826	0.913	0	2back	Block1	2back/STIM_009.jpg
107.508	0.743	1	2back	Block1	2back/STIM_009.jpg
111.746	1.084	1	2back	Block1	2back/STIM_009.jpg
116.553	0.578	1	2back	Block1	2back/STIM_010.jpg
119.493	0.812	1	2back	Block1	2back/STIM_010.jpg
122.718	0.664	1	2back	Block1	2back/STIM_010.jpg
126.052	0.746	1	2back	Block1	2back/STIM_011.jpg
128.849	0.84	1	2back	Block1	2back/STIM_011.jpg
132.648	0.685	1	2back	Block1	2back/STIM_011.jpg
135.606	1.133	1	2back	Block1	2back/STIM_012.jpg
139.648	1.232	1	2back	Block1	2back/STIM_012.jpg
143.564	0.869	1	2back	Block1	2back/STIM_012.jpg
147.183	1.013	1	2back	Block1	2back/STIM_013.jpg
151.922	1.177	1	2back	Block1	2back/STIM_013.jpg
155.547	1.0	1	2back	Block1	2back/STIM_013.jpg
159.282	0.586	1	2back	Block1	2back/STIM_014.jpg
162.472	0.966	1	2back	Block1	2back/STIM_014.jpg
166.723	0.635	1	2back	Block1	2back/STIM_014.jpg
169.772	1.034	1	2back	Block1	2back/STIM_015.jpg
174.696	1.188	0	2back	Block1	2back/STIM_015.jpg
178.062	1.125	1	2back	Block1	2back/STIM_015.jpg
181.894	1.044	0	2back	Block1	2back/STIM_016.jpg
186.209	1.0	0	2back	Block1	2back/STIM_016.jpg
189.478	0.959	1	2back	Block1	2back/STIM_016.jpg
192.556	1.144	1	2back	Block1	2back/STIM_017.jpg
196.265	0.75	1	2back	Block1	2back/STIM_017.jpg
200.941	0.766	1	2back	Block1	2back/STIM_017.jpg
205.289	0.913	0	2back	Block1	2back/STIM_018.jpg
209.924	1.242	1	2back	Block1	2back/STIM_018.jpg
213.95	1.013	1	2back	Block1	2back/STIM_018.jpg
218.601	0.889	1	2back	Block1	2back/STIM_019.jpg
222.908	1.227	1	2back	Block1	2back/STIM_019.jpg
226.469	1.118	1	2back	Block1	2back/STIM_019.jpg
229.811	0.574	0	2back	Block1	2back/STIM_020.jpg
234.118	0.678	1	2back	Block1	2back/STIM_020.jpg
238.17	0.624	1	2back	Block1	2back/STIM_020.jpg
242.775	1.093	1	2back	Block1	2back/STIM_021.jpg
247.099	1.109	1	2back	Block1	2back/STIM_021.jpg
251.046	0.922	1	2back	Block1	2back/STIM_021.jpg
255.265	1.099	1	2back	Block1	2back/STIM_022.jpg
259.83	1.119	1	2back	Block1	2back/STIM_022.jpg
264.879	0.631	1	2back	Block1	2back/STIM_022.jpg
267.934	0.606	1	2back	Block1	2back/STIM_023.jpg
271.565	0.752	1	2back	Block1	2back/STIM_023.jpg
275.699	0.843	1	2back	Block1	2back/STIM_023.jpg
280.458	0.675	0	2back	Block1	2back/STIM_024.jpg
283.67	0.81	1	2back	Block1	2back/STIM_024.jpg
286.763	1.111	1	2back	Block1	2back/STIM_024.jpg
290.839	0.824	0	2back	Block1	2back/STIM_025.jpg
295.624	0.748	1	2back	Block1	2back/STIM_025.jpg
298.903	1.19	1	2back	Block1	2back/STIM_025.jpg
302.48	1.128	1	2back	Block1	2back/STIM_026.jpg
307.461	0.987	1	2back	Block1	2back/STIM_026.jpg
310.466	0.75	1	2back	Block1	2back/STIM_026.jpg
313.694	1.313	1	2back	Block1	2back/STIM_027.jpg
318.308	1.167	1	2back	Block1	2back/STIM_027.jpg
322.038	1.002	1	2back	Block1	2back/STIM_027.jpg
326.052	0.932	1	2back	Block1	2back/STIM_028.jpg
330.768	1.039	0	2back	Block1	2back/STIM_028.jpg
334.714	1.185	1	2back	Block1	2back/STIM_028.jpg
338.756	0.947	1	2back	Block1	2back/STIM_029.jpg
343.581	1.103	1	2back	Block1	2back/STIM_029.jpg
347.969	0.767	1	2back	Block1	2back/STIM_029.jpg
350.873	0.879	1	2back	Block1	2back/STIM_030.jpg
353.96	0.988	1	2back	Block1	2back/STIM_030.jpg
357.961	1.102	1	2back	Block1	2back/STIM_030.jpg
361.39	0.878	1	2back	Block1	2back/STIM_031.jpg
365.324	1.013	1	2back	Block1	2back/STIM_031.jpg
368.93	1.112	1	2back	Block1	2back/STIM_031.jpg
372.829	0.735	1	2back	Block1	2back/STIM_032.jpg
376.819	1.011	0	2back	Block1	2back/STIM_032.jpg
380.046	1.061	1	2back	Block1	2back/STIM_032.jpg
384.525	0.698	1	2back	Block1	2back/STIM_033.jpg
388.421	0.943	0	2back	Block1	2back/STIM_033.jpg
392.895	0.945	1	2back	Block1	2back/STIM_033.jpg
396.575	1.324	1	2back	Block1	2back/STIM_034.jpg
400.163	0.953	1	2back	Block1	2back/STIM_034.jpg
404.36	0.527	1	2back	Block1	2back/STIM_034.jpg
407.696	0.747	1	2back	Block1	2back/STIM_035.jpg
410.619	0.824	0	2back	Block1	2back/STIM_035.jpg
414.633	0.682	1	2back	Block1	2back/STIM_035.jpg
417.798	0.59	1	2back	Block1	2back/STIM_036.jpg
421.766	0.629	1	2back	Block1	2back/STIM_036.jpg
424.842	0.851	1	2back	Block1	2back/STIM_036.jpg
427.882	0.935	1	2back	Block1	2back/STIM_037.jpg
432.603	0.662	1	2back	Block1	2back/STIM_037.jpg
436.673	0.844	0	2back	Block1	2back/STIM_037.jpg
441.161	1.287	1	2back	Block1	2back/STIM_038.jpg
444.966	1.142	1	2back	Block1	2back/STIM_038.jpg
448.568	0.61	1	2back	Block1	2back/STIM_038.jpg
451.374	1.085	1	2back	Block1	2back/STIM_039.jpg
454.702	0.738	0	2back	Block1	2back/STIM_039.jpg
458.265	0.52	1	2back	Block1	2back/STIM_039.jpg
462.281	0.648	1	0back	Block1	0back/STIM_000.jpg
465.351	0.495	1	0back	Block1	0back/STIM_000.jpg
468.654	0.448	1	0back	Block1	0back/STIM_000.jpg
471.655	0.753	1	0back	Block1	0back/STIM_001.jpg
474.458	0.754	1	0back	Block1	0back/STIM_001.jpg
477.745	0.389	1	0back	Block1	0back/STIM_001.jpg
480.866	0.708	1	0back	Block1	0back/STIM_002.jpg
484.13	0.62	1	0back	Block1	0back/STIM_002.jpg
488.043	0.404	1	0back	Block1	0back/STIM_002.jpg
491.249	0.382	1	0back	Block1	0back/STIM_003.jpg
495.614	0.502	1	0back	Block1	0back/STIM_003.jpg
499.722	0.552	1	0back	Block1	0back/STIM_003.jpg
503.131	0.652	1	0back	Block1	0back/STIM_004.jpg
507.507	0.557	1	0back	Block1	0back/STIM_004.jpg
511.521	0.444	1	0back	Block1	0back/STIM_004.jpg
514.851	0.416	1	0back	Block1	0back/STIM_005.jpg
517.633	0.642	1	0back	Block1	0back/STIM_005.jpg
521.611	0.694	1	0back	Block1	0back/STIM_005.jpg
524.877	0.413	1	0back	Block1	0back/STIM_006.jpg
528.786	0.665	1	0back	Block1	0back/STIM_006.jpg
533.275	0.584	1	0back	Block1	0back/STIM_006.jpg
537.695	0.682	1	0back	Block1	0back/STIM_007.jpg
540.738	0.668	1	0back	Block1	0back/STIM_007.jpg
544.532	0.537	1	0back	Block1	0back/STIM_007.jpg
548.935	0.58	1	0back	Block1	0back/STIM_008.jpg
552.231	0.561	1	0back	Block1	0back/STIM_008.jpg
556.568	0.558	1	0back	Block1	0back/STIM_008.jpg
560.146	0.535	1	0back	Block1	0back/STIM_009.jpg
563.245	0.728	1	0back	Block1	0back/STIM_009.jpg
567.846	0.696	1	0back	Block1	0back/STIM_009.jpg
572.535	0.488	1	0back	Block1	0back/STIM_010.jpg
576.663	0.726	1	0back	Block1	0back/STIM_010.jpg
579.896	0.493	1	0back	Block1	0back/STIM_010.jpg
584.179	0.598	1	0back	Block1	0back/STIM_011.jpg
588.615	0.418	1	0back	Block1	0back/STIM_011.jpg
591.406	0.394	1	0back	Block1	0back/STIM_011.jpg
595.362	0.482	1	0back	Block1	0back/STIM_012.jpg
599.719	0.547	1	0back	Block1	0back/STIM_012.jpg
604.034	0.649	1	0back	Block1	0back/STIM_012.jpg
606.903	0.654	1	0back	Block1	0back/STIM_013.jpg
611.29	0.669	1	0back	Block1	0back/STIM_013.jpg
613.96	0.391	1	0back	Block1	0back/STIM_013.jpg
616.765	0.755	1	0back	Block1	0back/STIM_014.jpg
620.684	0.658	1	0back	Block1	0back/STIM_014.jpg
624.338	0.593	0	0back	Block1	0back/STIM_014.jpg
628.058	0.496	1	0back	Block1	0back/STIM_015.jpg
631.108	0.443	1	0back	Block1	0back/STIM_015.jpg
634.83	0.418	1	0back	Block1	0back/STIM_015.jpg
638.41	0.715	1	0back	Block1	0back/STIM_016.jpg
643.082	0.652	1	0back	Block1	0back/STIM_016.jpg
646.672	0.411	1	0back	Block1	0back/STIM_016.jpg
650.094	0.475	1	0back	Block1	0back/STIM_017.jpg
654.356	0.74	1	0back	Block1	0back/STIM_017.jpg
658.995	0.416	1	0back	Block1	0back/STIM_017.jpg
662.825	0.584	1	0back	Block1	0back/STIM_018.jpg
666.714	0.556	0	0back	Block1	0back/STIM_018.jpg
670.064	0.742	1	0back	Block1	0back/STIM_018.jpg
673.093	0.453	1	0back	Block1	0back/STIM_019.jpg
675.959	0.505	1	0back	Block1	0back/STIM_019.jpg
678.722	0.543	1	0back	Block1	0back/STIM_019.jpg
681.311	0.815	1	2back	Block2	2back/STIM_000.jpg
684.144	0.74	1	2back	Block2	2back/STIM_000.jpg
687.839	0.777	1	2back	Block2	2back/STIM_000.jpg
690.664	0.944	1	2back	Block2	2back/STIM_001.jpg
694.344	1.029	1	2back	Block2	2back/STIM_001.jpg
698.318	0.942	1	2back	Block2	2back/STIM_001.jpg
701.442	0.808	1	2back	Block2	2back/STIM_002.jpg
705.593	0.499	1	2back	Block2	2back/STIM_002.jpg
709.264	0.97	1	2back	Block2	2back/STIM_002.jpg
713.284	0.937	1	2back	Block2	2back/STIM_003.jpg
716.773	1.049	1	2back	Block2	2back/STIM_003.jpg
721.183	0.637	1	2back	Block2	2back/STIM_003.jpg
723.967	0.501	1	2back	Block2	2back/STIM_004.jpg
728.236	0.859	1	2back	Block2	2back/STIM_004.jpg
731.725	0.443	1	2back	Block2	2back/STIM_004.jpg
734.792	0.829	1	2back	Block2	2back/STIM_005.jpg
738.031	0.723	1	2back	Block2	2back/STIM_005.jpg
740.818	0.535	1	2back	Block2	2back/STIM_005.jpg
744.519	0.905	1	2back	Block2	2back/STIM_006.jpg
749.348	0.93	1	2back	Block2	2back/STIM_006.jpg
752.683	0.644	1	2back	Block2	2back/STIM_006.jpg
755.805	0.896	1	2back	Block2	2back/STIM_007.jpg
760.63	0.551	0	2back	Block2	2back/STIM_007.jpg
763.801	0.772	1	2back	Block2	2back/STIM_007.jpg
767.882	0.631	1	2back	Block2	2back/STIM_008.jpg
770.797	0.634	1	2back	Block2	2back/STIM_008.jpg
774.268	0.506	1	2back	Block2	2back/STIM_008.jpg
778.047	0.494	1	2back	Block2	2back/STIM_009.jpg
782.329	0.985	1	2back	Block2	2back/STIM_009.jpg
786.071	0.882	1	2back	Block2	2back/STIM_009.jpg
790.676	0.586	1	2back	Block2	2back/STIM_010.jpg
794.212	0.53	1	2back	Block2	2back/STIM_010.jpg
798.218	0.723	1	2back	Block2	2back/STIM_010.jpg
802.736	0.996	1	2back	Block2	2back/STIM_011.jpg
807.336	0.507	1	2back	Block2	2back/STIM_011.jpg
811.774	0.939	1	2back	Block2	2back/STIM_011.jpg
816.063	0.786	1	2back	Block2	2back/STIM_012.jpg
819.603	0.708	1	2back	Block2	2back/STIM_012.jpg
823.044	0.613	1	2back	Block2	2back/STIM_012.jpg
826.564	1.093	1	2back	Block2	2back/STIM_013.jpg
829.682	0.651	1	2back	Block2	2back/STIM_013.jpg
833.493	0.808	1	2back	Block2	2back/STIM_013.jpg
837.498	1.076	1	2back	Block2	2back/STIM_014.jpg
842.051	0.795	1	2back	Block2	2back/STIM_014.jpg
846.272	0.804	1	2back	Block2	2back/STIM_014.jpg
850.857	0.562	1	2back	Block2	2back/STIM_015.jpg
854.524	0.948	0	2back	Block2	2back/STIM_015.jpg
858.82	0.687	1	2back	Block2	2back/STIM_015.jpg
863.473	0.889	1	2back	Block2	2back/STIM_016.jpg
866.518	1.006	1	2back	Block2	2back/STIM_016.jpg
870.706	0.828	1	2back	Block2	2back/STIM_016.jpg
874.082	0.634	1	2back	Block2	2back/STIM_017.jpg
877.87	0.947	0	2back	Block2	2back/STIM_017.jpg
882.486	0.931	1	2back	Block2	2back/STIM_017.jpg
886.07	1.037	1	2back	Block2	2back/STIM_018.jpg
890.88	0.817	1	2back	Block2	2back/STIM_018.jpg
895.568	0.486	0	2back	Block2	2back/STIM_018.jpg
899.702	1.069	1	2back	Block2	2back/STIM_019.jpg
904.666	0.895	1	2back	Block2	2back/STIM_019.jpg
909.446	0.882	1	2back	Block2	2back/STIM_019.jpg
913.088	1.072	1	2back	Block2	2back/STIM_020.jpg
916.481	0.62	0	2back	Block2	2back/STIM_020.jpg
920.144	0.591	1	2back	Block2	2back/STIM_020.jpg
923.689	0.977	1	2back	Block2	2back/STIM_021.jpg
927.477	0.926	1	2back	Block2	2back/STIM_021.jpg
931.187	0.778	1	2back	Block2	2back/STIM_021.jpg
935.852	0.859	1	2back	Block2	2back/STIM_022.jpg
939.018	0.792	1	2back	Block2	2back/STIM_022.jpg
942.537	0.468	1	2back	Block2	2back/STIM_022.jpg
946.735	0.66	1	2back	Block2	2back/STIM_023.jpg
951.286	0.962	1	2back	Block2	2back/STIM_023.jpg
955.004	0.552	1	2back	Block2	2back/STIM_023.jpg
957.672	1.011	1	2back	Block2	2back/STIM_024.jpg
962.045	0.633	1	2back	Block2	2back/STIM_024.jpg
966.644	0.766	1	2back	Block2	2back/STIM_024.jpg
970.832	1.001	1	2back	Block2	2back/STIM_025.jpg
974.162	0.767	1	2back	Block2	2back/STIM_025.jpg
978.4	0.474	1	2back	Block2	2back/STIM_025.jpg
982.484	0.766	1	2back	Block2	2back/STIM_026.jpg
985.361	0.601	1	2back	Block2	2back/STIM_026.jpg
989.825	0.467	1	2back	Block2	2back/STIM_026.jpg
994.022	0.602	1	2back	Block2	2back/STIM_027.jpg
996.916	0.887	1	2back	Block2	2back/STIM_027.jpg
1000.933	0.626	1	2back	Block2	2back/STIM_027.jpg
1005.022	1.026	1	2back	Block2	2back/STIM_028.jpg
1008.444	0.695	1	2back	Block2	2back/STIM_028.jpg
1012.867	0.938	1	2back	Block2	2back/STIM_028.jpg
1016.217	0.97	1	2back	Block2	2back/STIM_029.jpg
1019.567	0.885	1	2back	Block2	2back/STIM_029.jpg
1024.412	0.515	1	2back	Block2	2back/STIM_029.jpg
1028.311	0.805	1	2back	Block2	2back/STIM_030.jpg
1032.222	0.651	1	2back	Block2	2back/STIM_030.jpg
1036.761	0.753	1	2back	Block2	2back/STIM_030.jpg
1041.41	0.501	1	2back	Block2	2back/STIM_031.jpg
1045.709	0.543	1	2back	Block2	2back/STIM_031.jpg
1049.159	0.732	1	2back	Block2	2back/STIM_031.jpg
1053.816	0.867	1	2back	Block2	2back/STIM_032.jpg
1057.32	1.021	1	2back	Block2	2back/STIM_032.jpg
1061.326	0.831	1	2back	Block2	2back/STIM_032.jpg
1065.258	0.995	1	2back	Block2	2back/STIM_033.jpg
1069.9	0.478	1	2back	Block2	2back/STIM_033.jpg
1073.134	0.512	1	2back	Block2	2back/STIM_033.jpg
1077.446	0.901	1	2back	Block2	2back/STIM_034.jpg
1081.966	0.494	1	2back	Block2	2back/STIM_034.jpg
1085.539	0.583	1	2back	Block2	2back/STIM_034.jpg
1088.866	0.877	1	2back	Block2	2back/STIM_035.jpg
1091.952	0.585	1	2back	Block2	2back/STIM_035.jpg
1095.146	0.884	1	2back	Block2	2back/STIM_035.jpg
1099.007	0.541	1	2back	Block2	2back/STIM_036.jpg
1102.278	0.624	1	2back	Block2	2back/STIM_036.jpg
1105.652	0.607	1	2back	Block2	2back/STIM_036.jpg
1109.429	0.51	1	2back	Block2	2back/STIM_037.jpg
1113.411	0.971	1	2back	Block2	2back/STIM_037.jpg
1117.89	0.595	1	2back	Block2	2back/STIM_037.jpg
1120.876	0.81	1	2back	Block2	2back/STIM_038.jpg
1123.845	0.468	1	2back	Block2	2back/STIM_038.jpg
1127.987	0.993	1	2back	Block2	2back/STIM_038.jpg
1132.937	0.656	1	2back	Block2	2back/STIM_039.jpg
1137.005	0.924	1	2back	Block2	2back/STIM_039.jpg
1141.441	0.807	1	2back	Block2	2back/STIM_039.jpg
1144.957	0.446	1	0back	Block2	0back/STIM_000.jpg
1149.364	0.595	1	0back	Block2	0back/STIM_000.jpg
1153.818	0.38	1	0back	Block2	0back/STIM_000.jpg
1156.313	0.494	1	0back	Block2	0back/STIM_001.jpg
1160.184	0.456	1	0back	Block2	0back/STIM_001.jpg
1163.987	0.582	1	0back	Block2	0back/STIM_001.jpg
1167.517	0.639	1	0back	Block2	0back/STIM_002.jpg
1171.498	0.459	1	0back	Block2	0back/STIM_002.jpg
1174.376	0.53	1	0back	Block2	0back/STIM_002.jpg
1176.918	0.597	1	0back	Block2	0back/STIM_003.jpg
1179.967	0.602	1	0back	Block2	0back/STIM_003.jpg
1184.252	0.75	1	0back	Block2	0back/STIM_003.jpg
1188.998	0.567	1	0back	Block2	0back/STIM_004.jpg
1193.419	0.552	1	0back	Block2	0back/STIM_004.jpg
1197.814	0.668	1	0back	Block2	0back/STIM_004.jpg
1202.187	0.424	1	0back	Block2	0back/STIM_005.jpg
1204.788	0.675	1	0back	Block2	0back/STIM_005.jpg
1208.161	0.532	1	0back	Block2	0back/STIM_005.jpg
1211.601	0.696	1	0back	Block2	0back/STIM_006.jpg
1214.749	0.634	1	0back	Block2	0back/STIM_006.jpg
1217.693	0.536	1	0back	Block2	0back/STIM_006.jpg
1221.458	0.578	1	0back	Block2	0back/STIM_007.jpg
1225.761	0.714	1	0back	Block2	0back/STIM_007.jpg
1229.074	0.732	1	0back	Block2	0back/STIM_007.jpg
1233.453	0.756	1	0back	Block2	0back/STIM_008.jpg
1237.136	0.403	1	0back	Block2	0back/STIM_008.jpg
1240.978	0.456	0	0back	Block2	0back/STIM_008.jpg
1244.173	0.615	1	0back	Block2	0back/STIM_009.jpg
1246.924	0.67	1	0back	Block2	0back/STIM_009.jpg
1250.263	0.541	0	0back	Block2	0back/STIM_009.jpg
1252.832	0.433	1	0back	Block2	0back/STIM_010.jpg
1257.039	0.603	1	0back	Block2	0back/STIM_010.jpg
1261.434	0.438	1	0back	Block2	0back/STIM_010.jpg
1264.464	0.397	1	0back	Block2	0back/STIM_011.jpg
1267.793	0.5	1	0back	Block2	0back/STIM_011.jpg
1271.286	0.752	1	0back	Block2	0back/STIM_011.jpg
1274.861	0.409	1	0back	Block2	0back/STIM_012.jpg
1278.622	0.444	1	0back	Block2	0back/STIM_012.jpg
1282.147	0.736	1	0back	Block2	0back/STIM_012.jpg
1285.38	0.612	1	0back	Block2	0back/STIM_013.jpg
1288.486	0.704	1	0back	Block2	0back/STIM_013.jpg
1291.368	0.539	0	0back	Block2	0back/STIM_013.jpg
1295.354	0.67	1	0back	Block2	0back/STIM_014.jpg
1299.937	0.436	1	0back	Block2	0back/STIM_014.jpg
1302.46	0.525	1	0back	Block2	0back/STIM_014.jpg
1305.6	0.722	1	0back	Block2	0back/STIM_015.jpg
1308.735	0.706	1	0back	Block2	0back/STIM_015.jpg
1311.776	0.6	1	0back	Block2	0back/STIM_015.jpg
1314.693	0.668	1	0back	Block2	0back/STIM_016.jpg
1318.603	0.568	1	0back	Block2	0back/STIM_016.jpg
1321.894	0.724	1	0back	Block2	0back/STIM_016.jpg
1326.567	0.651	1	0back	Block2	0back/STIM_017.jpg
1330.249	0.679	1	0back	Block2	0back/STIM_017.jpg
1334.668	0.636	1	0back	Block2	0back/STIM_017.jpg
1339.02	0.467	1	0back	Block2	0back/STIM_018.jpg
1343.094	0.602	1	0back	Block2	0back/STIM_018.jpg
1346.725	0.606	1	0back	Block2	0back/STIM_018.jpg
1350.869	0.544	1	0back	Block2	0back/STIM_019.jpg
1353.838	0.436	1	0back	Block2	0back/STIM_019.jpg
1357.739	0.417	1	0back	Block2	0back/STIM_019.jpg
1362.045	0.78	1	2back	Block3	2back/STIM_000.jpg
1365.863	0.619	1	2back	Block3	2back/STIM_000.jpg
1369.434	0.51	1	2back	Block3	2back/STIM_000.jpg
1373.66	0.55	1	2back	Block3	2back/STIM_001.jpg
1377.382	0.462	1	2back	Block3	2back/STIM_001.jpg
1380.141	0.756	1	2back	Block3	2back/STIM_001.jpg
1384.381	0.534	1	2back	Block3	2back/STIM_002.jpg
1387.641	0.76	1	2back	Block3	2back/STIM_002.jpg
1390.688	0.886	1	2back	Block3	2back/STIM_002.jpg
1394.433	0.494	1	2back	Block3	2back/STIM_003.jpg
1397.67	0.437	1	2back	Block3	2back/STIM_003.jpg
1400.162	0.419	1	2back	Block3	2back/STIM_003.jpg
1404.525	0.851	1	2back	Block3	2back/STIM_004.jpg
1409.157	0.736	1	2back	Block3	2back/STIM_004.jpg
1412.724	0.619	1	2back	Block3	2back/STIM_004.jpg
1415.726	0.714	1	2back	Block3	2back/STIM_005.jpg
1418.752	0.446	1	2back	Block3	2back/STIM_005.jpg
1421.199	0.87	1	2back	Block3	2back/STIM_005.jpg
1424.718	0.436	1	2back	Block3	2back/STIM_006.jpg
1427.302	0.657	1	2back	Block3	2back/STIM_006.jpg
1430.261	0.491	1	2back	Block3	2back/STIM_006.jpg
1433.802	0.662	1	2back	Block3	2back/STIM_007.jpg
1437.098	0.539	1	2back	Block3	2back/STIM_007.jpg
1440.708	0.862	1	2back	Block3	2back/STIM_007.jpg
1445.082	0.788	1	2back	Block3	2back/STIM_008.jpg
1448.487	0.574	1	2back	Block3	2back/STIM_008.jpg
1452.501	0.811	1	2back	Block3	2back/STIM_008.jpg
1456.476	0.554	1	2back	Block3	2back/STIM_009.jpg
1460.202	0.777	1	2back	Block3	2back/STIM_009.jpg
1464.068	0.899	0	2back	Block3	2back/STIM_009.jpg
1468.435	0.667	1	2back	Block3	2back/STIM_010.jpg
1472.917	0.7	0	2back	Block3	2back/STIM_010.jpg
1476.198	0.672	1	2back	Block3	2back/STIM_010.jpg
1480.565	0.682	1	2back	Block3	2back/STIM_011.jpg
1484.071	0.432	1	2back	Block3	2back/STIM_011.jpg
1486.827	0.77	1	2back	Block3	2back/STIM_011.jpg
1490.805	0.468	1	2back	Block3	2back/STIM_012.jpg
1493.671	0.653	1	2back	Block3	2back/STIM_012.jpg
1498.303	0.674	1	2back	Block3	2back/STIM_012.jpg
1501.815	0.776	1	2back	Block3	2back/STIM_013.jpg
1505.337	0.879	1	2back	Block3	2back/STIM_013.jpg
1508.933	0.69	0	2back	Block3	2back/STIM_013.jpg
1512.571	0.443	1	2back	Block3	2back/STIM_014.jpg
1516.917	0.602	1	2back	Block3	2back/STIM_014.jpg
1520.791	0.9	1	2back	Block3	2back/STIM_014.jpg
1525.626	0.886	1	2back	Block3	2back/STIM_015.jpg
1530.143	0.671	1	2back	Block3	2back/STIM_015.jpg
1532.945	0.529	1	2back	Block3	2back/STIM_015.jpg
1536.52	0.713	1	2back	Block3	2back/STIM_016.jpg
1540.423	0.58	1	2back	Block3	2back/STIM_016.jpg
1543.772	0.798	1	2back	Block3	2back/STIM_016.jpg
1546.968	0.568	1	2back	Block3	2back/STIM_017.jpg
1551.329	0.916	1	2back	Block3	2back/STIM_017.jpg
1554.722	0.824	1	2back	Block3	2back/STIM_017.jpg
1558.853	0.883	1	2back	Block3	2back/STIM_018.jpg
1562.915	0.659	1	2back	Block3	2back/STIM_018.jpg
1567.256	0.574	1	2back	Block3	2back/STIM_018.jpg
1570.248	0.736	1	2back	Block3	2back/STIM_019.jpg
1574.924	0.662	1	2back	Block3	2back/STIM_019.jpg
1578.177	0.72	1	2back	Block3	2back/STIM_019.jpg
1581.067	0.784	1	2back	Block3	2back/STIM_020.jpg
1584.89	0.909	1	2back	Block3	2back/STIM_020.jpg
1588.795	0.454	1	2back	Block3	2back/STIM_020.jpg
1593.015	0.42	1	2back	Block3	2back/STIM_021.jpg
1597.102	0.533	1	2back	Block3	2back/STIM_021.jpg
1600.786	0.528	1	2back	Block3	2back/STIM_021.jpg
1604.135	0.86	1	2back	Block3	2back/STIM_022.jpg
1607.129	0.441	1	2back	Block3	2back/STIM_022.jpg
1609.996	0.669	1	2back	Block3	2back/STIM_022.jpg
1614.43	0.484	1	2back	Block3	2back/STIM_023.jpg
1617.95	0.514	1	2back	Block3	2back/STIM_023.jpg
1620.762	0.615	1	2back	Block3	2back/STIM_023.jpg
1623.85	0.92	1	2back	Block3	2back/STIM_024.jpg
1628.539	0.506	1	2back	Block3	2back/STIM_024.jpg
1631.735	0.488	1	2back	Block3	2back/STIM_024.jpg
1634.555	0.475	1	2back	Block3	2back/STIM_025.jpg
1638.424	0.675	1	2back	Block3	2back/STIM_025.jpg
1642.428	0.748	1	2back	Block3	2back/STIM_025.jpg
1646.5	0.864	1	2back	Block3	2back/STIM_026.jpg
1650.477	0.886	1	2back	Block3	2back/STIM_026.jpg
1653.879	0.488	1	2back	Block3	2back/STIM_026.jpg
1658.246	0.552	1	2back	Block3	2back/STIM_027.jpg
1662.027	0.632	1	2back	Block3	2back/STIM_027.jpg
1665.818	0.414	1	2back	Block3	2back/STIM_027.jpg
1669.056	0.441	1	2back	Block3	2back/STIM_028.jpg
1673.176	0.714	1	2back	Block3	2back/STIM_028.jpg
1676.124	0.579	1	2back	Block3	2back/STIM_028.jpg
1679.312	0.875	1	2back	Block3	2back/STIM_029.jpg
1683.737	0.522	1	2back	Block3	2back/STIM_029.jpg
1687.288	0.682	1	2back	Block3	2back/STIM_029.jpg
1691.911	0.433	1	2back	Block3	2back/STIM_030.jpg
1695.798	0.422	1	2back	Block3	2back/STIM_030.jpg
1698.746	0.499	1	2back	Block3	2back/STIM_030.jpg
1701.304	0.455	1	2back	Block3	2back/STIM_031.jpg
1704.307	0.57	1	2back	Block3	2back/STIM_031.jpg
1707.458	0.838	1	2back	Block3	2back/STIM_031.jpg
1711.494	0.916	1	2back	Block3	2back/STIM_032.jpg
1715.104	0.541	1	2back	Block3	2back/STIM_032.jpg
1718.997	0.476	1	2back	Block3	2back/STIM_032.jpg
1722.965	0.624	1	2back	Block3	2back/STIM_033.jpg
1726.464	0.776	1	2back	Block3	2back/STIM_033.jpg
1730.001	0.795	1	2back	Block3	2back/STIM_033.jpg
1733.218	0.77	1	2back	Block3	2back/STIM_034.jpg
1737.21	0.832	1	2back	Block3	2back/STIM_034.jpg
1740.374	0.426	1	2back	Block3	2back/STIM_034.jpg
1742.814	0.905	1	2back	Block3	2back/STIM_035.jpg
1745.917	0.558	1	2back	Block3	2back/STIM_035.jpg
1749.434	0.691	1	2back	Block3	2back/STIM_035.jpg
1753.599	0.915	1	2back	Block3	2back/STIM_036.jpg
1756.522	0.408	1	2back	Block3	2back/STIM_036.jpg
1759.26	0.413	1	2back	Block3	2back/STIM_036.jpg
1763.101	0.46	1	2back	Block3	2back/STIM_037.jpg
1766.415	0.505	1	2back	Block3	2back/STIM_037.jpg
1770.06	0.872	1	2back	Block3	2back/STIM_037.jpg
1773.593	0.802	1	2back	Block3	2back/STIM_038.jpg
1777.354	0.919	1	2back	Block3	2back/STIM_038.jpg
1780.772	0.916	1	2back	Block3	2back/STIM_038.jpg
1785.625	0.814	1	2back	Block3	2back/STIM_039.jpg
1788.876	0.448	1	2back	Block3	2back/STIM_039.jpg
1791.519	0.803	1	2back	Block3	2back/STIM_039.jpg
1795.945	0.575	1	0back	Block3	0back/STIM_000.jpg
1800.113	0.71	1	0back	Block3	0back/STIM_000.jpg
1803.921	0.525	1	0back	Block3	0back/STIM_000.jpg
1806.796	0.551	1	0back	Block3	0back/STIM_001.jpg
1811.34	0.44	1	0back	Block3	0back/STIM_001.jpg
1815.003	0.734	1	0back	Block3	0back/STIM_001.jpg
1819.141	0.421	1	0back	Block3	0back/STIM_002.jpg
1823.489	0.711	1	0back	Block3	0back/STIM_002.jpg
1827.801	0.637	1	0back	Block3	0back/STIM_002.jpg
1831.84	0.538	0	0back	Block3	0back/STIM_003.jpg
1835.009	0.515	1	0back	Block3	0back/STIM_003.jpg
1838.861	0.438	1	0back	Block3	0back/STIM_003.jpg
1843.097	0.758	1	0back	Block3	0back/STIM_004.jpg
1846.571	0.618	1	0back	Block3	0back/STIM_004.jpg
1849.803	0.428	0	0back	Block3	0back/STIM_004.jpg
1852.941	0.617	1	0back	Block3	0back/STIM_005.jpg
1856.344	0.474	1	0back	Block3	0back/STIM_005.jpg
1859.958	0.607	1	0back	Block3	0back/STIM_005.jpg
1862.921	0.598	1	0back	Block3	0back/STIM_006.jpg
1865.73	0.715	1	0back	Block3	0back/STIM_006.jpg
1870.05	0.753	1	0back	Block3	0back/STIM_006.jpg
1874.63	0.709	1	0back	Block3	0back/STIM_007.jpg
1878.924	0.621	1	0back	Block3	0back/STIM_007.jpg
1882.607	0.729	1	0back	Block3	0back/STIM_007.jpg
1886.601	0.589	1	0back	Block3	0back/STIM_008.jpg
1891.014	0.737	0	0back	Block3	0back/STIM_008.jpg
1894.106	0.702	1	0back	Block3	0back/STIM_008.jpg
1897.251	0.712	1	0back	Block3	0back/STIM_009.jpg
1901.569	0.55	1	0back	Block3	0back/STIM_009.jpg
1905.579	0.455	1	0back	Block3	0back/STIM_009.jpg
1908.131	0.63	1	0back	Block3	0back/STIM_010.jpg
1912.21	0.43	1	0back	Block3	0back/STIM_010.jpg
1915.384	0.74	1	0back	Block3	0back/STIM_010.jpg
1919.218	0.465	1	0back	Block3	0back/STIM_011.jpg
1922.704	0.577	1	0back	Block3	0back/STIM_011.jpg
1926.762	0.624	1	0back	Block3	0back/STIM_011.jpg
1929.923	0.396	1	0back	Block3	0back/STIM_012.jpg
1932.359	0.408	1	0back	Block3	0back/STIM_012.jpg
1934.977	0.392	1	0back	Block3	0back/STIM_012.jpg
1937.522	0.495	1	0back	Block3	0back/STIM_013.jpg
1941.968	0.669	1	0back	Block3	0back/STIM_013.jpg
1946.174	0.457	1	0back	Block3	0back/STIM_013.jpg
1948.658	0.56	1	0back	Block3	0back/STIM_014.jpg
1952.2	0.494	1	0back	Block3	0back/STIM_014.jpg
1956.397	0.413	1	0back	Block3	0back/STIM_014.jpg
1959.584	0.529	1	0back	Block3	0back/STIM_015.jpg
1963.784	0.54	1	0back	Block3	0back/STIM_015.jpg
1967.491	0.755	1	0back	Block3	0back/STIM_015.jpg
1971.018	0.686	1	0back	Block3	0back/STIM_016.jpg
1974.639	0.536	1	0back	Block3	0back/STIM_016.jpg
1977.86	0.7	1	0back	Block3	0back/STIM_016.jpg
1981.756	0.403	1	0back	Block3	0back/STIM_017.jpg
1985.34	0.546	0	0back	Block3	0back/STIM_017.jpg
1988.026	0.449	1	0back	Block3	0back/STIM_017.jpg
1990.777	0.672	1	0back	Block3	0back/STIM_018.jpg
1995.18	0.693	1	0back	Block3	0back/STIM_018.jpg
1998.367	0.657	1	0back	Block3	0back/STIM_018.jpg
2002.407	0.689	1	0back	Block3	0back/STIM_019.jpg
2006.215	0.567	1	0back	Block3	0back/STIM_019.jpg
2010.059	0.438	1	0back	Block3	0back/STIM_019.jpg
2014.245	0.906	1	2back	Block4	2back/STIM_000.jpg
2017.356	0.625	1	2back	Block4	2back/STIM_000.jpg
2020.821	0.516	1	2back	Block4	2back/STIM_000.jpg
2024.739	0.712	1	2back	Block4	2back/STIM_001.jpg
2029.39	0.694	1	2back	Block4	2back/STIM_001.jpg
2032.673	0.742	1	2back	Block4	2back/STIM_001.jpg
2037.214	0.617	1	2back	Block4	2back/STIM_002.jpg
2041.214	0.608	1	2back	Block4	2back/STIM_002.jpg
2044.867	0.595	1	2back	Block4	2back/STIM_002.jpg
2047.609	0.526	1	2back	Block4	2back/STIM_003.jpg
2051.889	0.486	1	2back	Block4	2back/STIM_003.jpg
2054.821	0.497	1	2back	Block4	2back/STIM_003.jpg
2058.116	0.723	1	2back	Block4	2back/STIM_004.jpg
2062.168	0.399	1	2back	Block4	2back/STIM_004.jpg
2066.223	0.481	1	2back	Block4	2back/STIM_004.jpg
2068.787	0.46	1	2back	Block4	2back/STIM_005.jpg
2071.359	0.877	1	2back	Block4	2back/STIM_005.jpg
2075.153	0.637	1	2back	Block4	2back/STIM_005.jpg
2078.511	0.808	1	2back	Block4	2back/STIM_006.jpg
2082.031	0.7	1	2back	Block4	2back/STIM_006.jpg
2086.552	0.522	1	2back	Block4	2back/STIM_006.jpg
2089.137	0.533	1	2back	Block4	2back/STIM_007.jpg
2092.595	0.587	1	2back	Block4	2back/STIM_007.jpg
2096.554	0.737	1	2back	Block4	2back/STIM_007.jpg
2100.051	0.468	1	2back	Block4	2back/STIM_008.jpg
2102.699	0.822	1	2back	Block4	2back/STIM_008.jpg
2107.142	0.788	1	2back	Block4	2back/STIM_008.jpg
2110.58	0.465	1	2back	Block4	2back/STIM_009.jpg
2113.558	0.855	1	2back	Block4	2back/STIM_009.jpg
2117.584	0.775	1	2back	Block4	2back/STIM_009.jpg
2121.737	0.847	1	2back	Block4	2back/STIM_010.jpg
2125.276	0.573	1	2back	Block4	2back/STIM_010.jpg
2129.789	0.734	1	2back	Block4	2back/STIM_010.jpg
2133.739	0.907	1	2back	Block4	2back/STIM_011.jpg
2137.912	0.552	1	2back	Block4	2back/STIM_011.jpg
2141.525	0.651	1	2back	Block4	2back/STIM_011.jpg
2144.83	0.622	1	2back	Block4	2back/STIM_012.jpg
2148.056	0.557	1	2back	Block4	2back/STIM_012.jpg
2152.564	0.864	1	2back	Block4	2back/STIM_012.jpg
2157.226	0.749	1	2back	Block4	2back/STIM_013.jpg
2161.923	0.896	1	2back	Block4	2back/STIM_013.jpg
2165.92	0.792	1	2back	Block4	2back/STIM_013.jpg
2169.349	0.675	1	2back	Block4	2back/STIM_014.jpg
2173.519	0.78	1	2back	Block4	2back/STIM_014.jpg
2176.441	0.884	1	2back	Block4	2back/STIM_014.jpg
2179.366	0.752	1	2back	Block4	2back/STIM_015.jpg
2183.893	0.732	1	2back	Block4	2back/STIM_015.jpg
2187.92	0.861	1	2back	Block4	2back/STIM_015.jpg
2191.414	0.465	1	2back	Block4	2back/STIM_016.jpg
2195.673	0.549	1	2back	Block4	2back/STIM_016.jpg
2199.409	0.677	1	2back	Block4	2back/STIM_016.jpg
2203.934	0.926	1	2back	Block4	2back/STIM_017.jpg
2207.999	0.671	1	2back	Block4	2back/STIM_017.jpg
2211.976	0.432	1	2back	Block4	2back/STIM_017.jpg
2214.597	0.679	1	2back	Block4	2back/STIM_018.jpg
2219.053	0.767	1	2back	Block4	2back/STIM_018.jpg
2223.577	0.453	1	2back	Block4	2back/STIM_018.jpg
2226.472	0.655	1	2back	Block4	2back/STIM_019.jpg
2230.957	0.451	1	2back	Block4	2back/STIM_019.jpg
2234.312	0.475	1	2back	Block4	2back/STIM_019.jpg
2238.033	0.674	1	2back	Block4	2back/STIM_020.jpg
2240.756	0.701	1	2back	Block4	2back/STIM_020.jpg
2243.867	0.888	1	2back	Block4	2back/STIM_020.jpg
2247.972	0.615	1	2back	Block4	2back/STIM_021.jpg
2250.902	0.922	1	2back	Block4	2back/STIM_021.jpg
2254.872	0.689	1	2back	Block4	2back/STIM_021.jpg
2259.538	0.809	1	2back	Block4	2back/STIM_022.jpg
2262.968	0.464	1	2back	Block4	2back/STIM_022.jpg
2265.739	0.586	1	2back	Block4	2back/STIM_022.jpg
2269.54	0.539	1	2back	Block4	2back/STIM_023.jpg
2272.656	0.589	1	2back	Block4	2back/STIM_023.jpg
2276.333	0.711	1	2back	Block4	2back/STIM_023.jpg
2281.016	0.774	1	2back	Block4	2back/STIM_024.jpg
2285.159	0.78	1	2back	Block4	2back/STIM_024.jpg
2289.306	0.455	1	2back	Block4	2back/STIM_024.jpg
2293.015	0.895	1	2back	Block4	2back/STIM_025.jpg
2296.589	0.882	1	2back	Block4	2back/STIM_025.jpg
2300.864	0.42	1	2back	Block4	2back/STIM_025.jpg
2303.616	0.73	1	2back	Block4	2back/STIM_026.jpg
2306.451	0.477	1	2back	Block4	2back/STIM_026.jpg
2310.43	0.861	1	2back	Block4	2back/STIM_026.jpg
2314.969	0.749	1	2back	Block4	2back/STIM_027.jpg
2318.818	0.607	1	2back	Block4	2back/STIM_027.jpg
2321.576	0.466	1	2back	Block4	2back/STIM_027.jpg
2325.031	0.43	1	2back	Block4	2back/STIM_028.jpg
2329.364	0.756	1	2back	Block4	2back/STIM_028.jpg
2333.647	0.478	1	2back	Block4	2back/STIM_028.jpg
2336.79	0.906	1	2back	Block4	2back/STIM_029.jpg
2340.183	0.877	1	2back	Block4	2back/STIM_029.jpg
2343.373	0.883	1	2back	Block4	2back/STIM_029.jpg
2348.069	0.761	1	2back	Block4	2back/STIM_030.jpg
2351.183	0.476	1	2back	Block4	2back/STIM_030.jpg
2354.846	0.493	1	2back	Block4	2back/STIM_030.jpg
2357.783	0.518	1	2back	Block4	2back/STIM_031.jpg
2361.89	0.423	1	2back	Block4	2back/STIM_031.jpg
2364.506	0.859	1	2back	Block4	2back/STIM_031.jpg
2369.291	0.77	1	2back	Block4	2back/STIM_032.jpg
2373.467	0.418	1	2back	Block4	2back/STIM_032.jpg
2376.959	0.816	1	2back	Block4	2back/STIM_032.jpg
2381.15	0.594	1	2back	Block4	2back/STIM_033.jpg
2385.142	0.8	0	2back	Block4	2back/STIM_033.jpg
2389.918	0.448	1	2back	Block4	2back/STIM_033.jpg
2392.877	0.477	1	2back	Block4	2back/STIM_034.jpg
2396.224	0.403	1	2back	Block4	2back/STIM_034.jpg
2399.935	0.484	1	2back	Block4	2back/STIM_034.jpg
2402.504	0.695	1	2back	Block4	2back/STIM_035.jpg
2405.23	0.567	1	2back	Block4	2back/STIM_035.jpg
2407.818	0.575	1	2back	Block4	2back/STIM_035.jpg
2410.634	0.851	1	2back	Block4	2back/STIM_036.jpg
2413.718	0.878	1	2back	Block4	2back/STIM_036.jpg
2416.761	0.585	1	2back	Block4	2back/STIM_036.jpg
2420.431	0.479	1	2back	Block4	2back/STIM_037.jpg
2424.344	0.673	1	2back	Block4	2back/STIM_037.jpg
2427.493	0.782	1	2back	Block4	2back/STIM_037.jpg
2431.115	0.834	1	2back	Block4	2back/STIM_038.jpg
2435.151	0.718	1	2back	Block4	2back/STIM_038.jpg
2439.081	0.728	1	2back	Block4	2back/STIM_038.jpg
2443.758	0.784	1	2back	Block4	2back/STIM_039.jpg
2447.049	0.927	1	2back	Block4	2back/STIM_039.jpg
2450.359	0.904	1	2back	Block4	2back/STIM_039.jpg
2454.676	0.433	1	0back	Block4	0back/STIM_000.jpg
2458.818	0.605	1	0back	Block4	0back/STIM_000.jpg
2461.867	0.732	1	0back	Block4	0back/STIM_000.jpg
2466.573	0.654	1	0back	Block4	0back/STIM_001.jpg
2469.914	0.632	1	0back	Block4	0back/STIM_001.jpg
2472.917	0.424	1	0back	Block4	0back/STIM_001.jpg
2475.965	0.516	1	0back	Block4	0back/STIM_002.jpg
2479.228	0.54	1	0back	Block4	0back/STIM_002.jpg
2483.748	0.447	1	0back	Block4	0back/STIM_002.jpg
2486.502	0.591	1	0back	Block4	0back/STIM_003.jpg
2490.643	0.636	1	0back	Block4	0back/STIM_003.jpg
2494.084	0.752	1	0back	Block4	0back/STIM_003.jpg
2498.126	0.45	1	0back	Block4	0back/STIM_004.jpg
2502.078	0.627	1	0back	Block4	0back/STIM_004.jpg
2505.05	0.751	1	0back	Block4	0back/STIM_004.jpg
2509.521	0.486	1	0back	Block4	0back/STIM_005.jpg
2513.941	0.743	1	0back	Block4	0back/STIM_005.jpg
2518.527	0.593	1	0back	Block4	0back/STIM_005.jpg
2522.569	0.45	1	0back	Block4	0back/STIM_006.jpg
2525.363	0.733	1	0back	Block4	0back/STIM_006.jpg
2528.487	0.751	1	0back	Block4	0back/STIM_006.jpg
2532.78	0.639	1	0back	Block4	0back/STIM_007.jpg
2536.638	0.585	1	0back	Block4	0back/STIM_007.jpg
2540.364	0.689	1	0back	Block4	0back/STIM_007.jpg
2543.845	0.43	1	0back	Block4	0back/STIM_008.jpg
2547.31	0.551	1	0back	Block4	0back/STIM_008.jpg
2551.848	0.708	1	0back	Block4	0back/STIM_008.jpg
2555.896	0.518	1	0back	Block4	0back/STIM_009.jpg
2558.913	0.633	1	0back	Block4	0back/STIM_009.jpg
2563.326	0.756	1	0back	Block4	0back/STIM_009.jpg
2567.737	0.502	1	0back	Block4	0back/STIM_010.jpg
2571.948	0.72	1	0back	Block4	0back/STIM_010.jpg
2576.573	0.426	1	0back	Block4	0back/STIM_010.jpg
2580.431	0.574	1	0back	Block4	0back/STIM_011.jpg
2584.765	0.467	1	0back	Block4	0back/STIM_011.jpg
2587.625	0.425	1	0back	Block4	0back/STIM_011.jpg
2591.003	0.469	1	0back	Block4	0back/STIM_012.jpg
2594.148	0.702	1	0back	Block4	0back/STIM_012.jpg
2597.106	0.639	1	0back	Block4	0back/STIM_012.jpg
2601.289	0.556	1	0back	Block4	0back/STIM_013.jpg
2604.085	0.493	1	0back	Block4	0back/STIM_013.jpg
2608.045	0.698	1	0back	Block4	0back/STIM_013.jpg
2612.297	0.697	1	0back	Block4	0back/STIM_014.jpg
2616.488	0.456	1	0back	Block4	0back/STIM_014.jpg
2620.937	0.433	0	0back	Block4	0back/STIM_014.jpg
2624.51	0.516	1	0back	Block4	0back/STIM_015.jpg
2628.878	0.501	1	0back	Block4	0back/STIM_015.jpg
2632.081	0.389	1	0back	Block4	0back/STIM_015.jpg
2635.355	0.535	1	0back	Block4	0back/STIM_016.jpg
2639.626	0.557	1	0back	Block4	0back/STIM_016.jpg
2642.243	0.533	1	0back	Block4	0back/STIM_016.jpg
2644.92	0.752	1	0back	Block4	0back/STIM_017.jpg
2648.993	0.552	0	0back	Block4	0back/STIM_017.jpg
2653.255	0.471	1	0back	Block4	0back/STIM_017.jpg
2656.856	0.682	1	0back	Block4	0back/STIM_018.jpg
2660.515	0.571	1	0back	Block4	0back/STIM_018.jpg
2663.49	0.408	1	0back	Block4	0back/STIM_018.jpg
2666.892	0.705	1	0back	Block4	0back/STIM_019.jpg
2671.295	0.417	1	0back	Block4	0back/STIM_019.jpg
2673.871	0.436	1	0back	Block4	0back/STIM_019.jpg
