onset	duration	response_time_ms	trial_type	learning_stage	stimulus	response_port
0.0	1.17	1169.8	2back	Block1	2back/STIM_000.jpg	100
3.636	0.662	662.2	2back	Block1	2back/STIM_000.jpg	99
7.963	0.811	810.6	2back	Block1	2back/STIM_000.jpg	99
11.805	0.642	642.0	2back	Block1	2back/STIM_001.jpg	100
15.748	1.058	1057.9	2back	Block1	2back/STIM_001.jpg	99
20.022	0.864	864.4	2back	Block1	2back/STIM_001.jpg	99
23.429	1.025	1025.3	2back	Block1	2back/STIM_002.jpg	99
27.487	0.624	624.5	2back	Block1	2back/STIM_002.jpg	99
30.902	1.037	1037.2	2back	Block1	2back/STIM_002.jpg	99
34.513	0.604	604.2	2back	Block1	2back/STIM_003.jpg	99
38.883	0.639	638.7	2back	Block1	2back/STIM_003.jpg	100
41.59	1.175	1175.2	2back	Block1	2back/STIM_003.jpg	100
44.797	1.102	1101.9	2back	Block1	2back/STIM_004.jpg	100
49.711	0.702	701.9	2back	Block1	2back/STIM_004.jpg	100
52.688	0.702	701.7	2back	Block1	2back/STIM_004.jpg	99
56.5	0.972	971.5	2back	Block1	2back/STIM_005.jpg	100
61.28	0.674	674.3	2back	Block1	2back/STIM_005.jpg	99
65.591	1.096	1095.5	2back	Block1	2back/STIM_005.jpg	99
69.472	1.044	1043.8	2back	Block1	2back/STIM_006.jpg	100
73.217	0.885	884.8	2back	Block1	2back/STIM_006.jpg	99
76.759	0.744	743.7	2back	Block1	2back/STIM_006.jpg	99
80.386	0.871	871.4	2back	Block1	2back/STIM_007.jpg	100
84.643	0.758	757.7	2back	Block1	2back/STIM_007.jpg	99
87.747	0.852	852.4	2back	Block1	2back/STIM_007.jpg	100
90.934	1.009	1008.9	2back	Block1	2back/STIM_008.jpg	99
95.627	1.043	1043.3	2back	Block1	2back/STIM_008.jpg	100
99.27	0.736	736.3	2back	Block1	2back/STIM_008.jpg	99
102.826	0.913	913.2	2back	Block1	2back/STIM_009.jpg	100
107.508	0.743	742.9	2back	Block1	2back/STIM_009.jpg	100
111.746	1.084	1084.3	2back	Block1	2back/STIM_009.jpg	100
116.553	0.578	577.9	2back	Block1	2back/STIM_010.jpg	100
119.493	0.812	812.0	2back	Block1	2back/STIM_010.jpg	100
122.718	0.664	663.9	2back	Block1	2back/STIM_010.jpg	99
126.052	0.746	746.2	2back	Block1	2back/STIM_011.jpg	99
128.849	0.84	839.8	2back	Block1	2back/STIM_011.jpg	100
132.648	0.685	685.2	2back	Block1	2back/STIM_011.jpg	100
135.606	1.133	1132.6	2back	Block1	2back/STIM_012.jpg	99
139.648	1.232	1231.6	2back	Block1	2back/STIM_012.jpg	100
143.564	0.869	869.1	2back	Block1	2back/STIM_012.jpg	100
147.183	1.013	1012.7	2back	Block1	2back/STIM_013.jpg	100
151.922	1.177	1176.8	2back	Block1	2back/STIM_013.jpg	99
155.547	1.0	1000.2	2back	Block1	2back/STIM_013.jpg	99
159.282	0.586	585.9	2back	Block1	2back/STIM_014.jpg	100
162.472	0.966	966.4	2back	Block1	2back/STIM_014.jpg	100
166.723	0.635	634.6	2back	Block1	2back/STIM_014.jpg	99
169.772	1.034	1034.0	2back	Block1	2back/STIM_015.jpg	100
174.696	1.188	1187.8	2back	Block1	2back/STIM_015.jpg	99
178.062	1.125	1125.3	2back	Block1	2back/STIM_015.jpg	99
181.894	1.044	1043.9	2back	Block1	2back/STIM_016.jpg	100
186.209	1.0	999.9	2back	Block1	2back/STIM_016.jpg	100
189.478	0.959	959.4	2back	Block1	2back/STIM_016.jpg	99
192.556	1.144	1143.6	2back	Block1	2back/STIM_017.jpg	99
196.265	0.75	750.5	2back	Block1	2back/STIM_017.jpg	100
200.941	0.766	766.1	2back	Block1	2back/STIM_017.jpg	99
205.289	0.913	912.6	2back	Block1	2back/STIM_018.jpg	99
209.924	1.242	1241.6	2back	Block1	2back/STIM_018.jpg	99
213.95	1.013	1013.3	2back	Block1	2back/STIM_018.jpg	100
218.601	0.889	889.2	2back	Block1	2back/STIM_019.jpg	99
222.908	1.227	1226.9	2back	Block1	2back/STIM_019.jpg	100
226.469	1.118	1117.5	2back	Block1	2back/STIM_019.jpg	100
229.811	0.574	573.5	2back	Block1	2back/STIM_020.jpg	100
234.118	0.678	678.2	2back	Block1	2back/STIM_020.jpg	99
238.17	0.624	624.1	2back	Block1	2back/STIM_020.jpg	100
242.775	1.093	1092.8	2back	Block1	2back/STIM_021.jpg	99
247.099	1.109	1109.2	2back	Block1	2back/STIM_021.jpg	99
251.046	0.922	922.1	2back	Block1	2back/STIM_021.jpg	99
255.265	1.099	1099.3	2back	Block1	2back/STIM_022.jpg	99
259.83	1.119	1119.1	2back	Block1	2back/STIM_022.jpg	100
264.879	0.631	631.0	2back	Block1	2back/STIM_022.jpg	100
267.934	0.606	606.5	2back	Block1	2back/STIM_023.jpg	99
271.565	0.752	752.0	2back	Block1	2back/STIM_023.jpg	99
275.699	0.843	842.8	2back	Block1	2back/STIM_023.jpg	99
280.458	0.675	675.0	2back	Block1	2back/STIM_024.jpg	100
283.67	0.81	810.4	2back	Block1	2back/STIM_024.jpg	99
286.763	1.111	1111.1	2back	Block1	2back/STIM_024.jpg	99
290.839	0.824	823.5	2back	Block1	2back/STIM_025.jpg	99
295.624	0.748	748.2	2back	Block1	2back/STIM_025.jpg	99
298.903	1.19	1189.5	2back	Block1	2back/STIM_025.jpg	100
302.48	1.128	1128.3	2back	Block1	2back/STIM_026.jpg	100
307.461	0.987	987.1	2back	Block1	2back/STIM_026.jpg	99
310.466	0.75	750.2	2back	Block1	2back/STIM_026.jpg	100
313.694	1.313	1313.3	2back	Block1	2back/STIM_027.jpg	100
318.308	1.167	1167.1	2back	Block1	2back/STIM_027.jpg	100
322.038	1.002	1001.9	2back	Block1	2back/STIM_027.jpg	99
326.052	0.932	932.0	2back	Block1	2back/STIM_028.jpg	99
330.768	1.039	1038.9	2back	Block1	2back/STIM_028.jpg	99
334.714	1.185	1184.8	2back	Block1	2back/STIM_028.jpg	99
338.756	0.947	947.2	2back	Block1	2back/STIM_029.jpg	99
343.581	1.103	1103.1	2back	Block1	2back/STIM_029.jpg	99
347.969	0.767	767.0	2back	Block1	2back/STIM_029.jpg	99
350.873	0.879	879.2	2back	Block1	2back/STIM_030.jpg	100
353.96	0.988	987.6	2back	Block1	2back/STIM_030.jpg	100
357.961	1.102	1102.2	2back	Block1	2back/STIM_030.jpg	100
361.39	0.878	878.5	2back	Block1	2back/STIM_031.jpg	100
365.324	1.013	1013.1	2back	Block1	2back/STIM_031.jpg	100
368.93	1.112	1111.8	2back	Block1	2back/STIM_031.jpg	99
372.829	0.735	735.1	2back	Block1	2back/STIM_032.jpg	100
376.819	1.011	1010.9	2back	Block1	2back/STIM_032.jpg	100
380.046	1.061	1061.3	2back	Block1	2back/STIM_032.jpg	99
384.525	0.698	698.0	2back	Block1	2back/STIM_033.jpg	99
388.421	0.943	943.4	2back	Block1	2back/STIM_033.jpg	100
392.895	0.945	945.4	2back	Block1	2back/STIM_033.jpg	99
396.575	1.324	1324.0	2back	Block1	2back/STIM_034.jpg	99
400.163	0.953	953.1	2back	Block1	2back/STIM_034.jpg	100
404.36	0.527	527.2	2back	Block1	2back/STIM_034.jpg	99
407.696	0.747	746.7	2back	Block1	2back/STIM_035.jpg	99
410.619	0.824	823.6	2back	Block1	2back/STIM_035.jpg	100
414.633	0.682	681.9	2back	Block1	2back/STIM_035.jpg	100
417.798	0.59	590.3	2back	Block1	2back/STIM_036.jpg	100
421.766	0.629	629.0	2back	Block1	2back/STIM_036.jpg	100
424.842	0.851	851.3	2back	Block1	2back/STIM_036.jpg	100
427.882	0.935	935.3	2back	Block1	2back/STIM_037.jpg	99
432.603	0.662	661.8	2back	Block1	2back/STIM_037.jpg	99
436.673	0.844	844.0	2back	Block1	2back/STIM_037.jpg	100
441.161	1.287	1287.1	2back	Block1	2back/STIM_038.jpg	100
444.966	1.142	1142.2	2back	Block1	2back/STIM_038.jpg	99
448.568	0.61	610.1	2back	Block1	2back/STIM_038.jpg	100
451.374	1.085	1084.7	2back	Block1	2back/STIM_039.jpg	99
454.702	0.738	738.3	2back	Block1	2back/STIM_039.jpg	100
458.265	0.52	520.4	2back	Block1	2back/STIM_039.jpg	100
462.281	0.648	648.0	0back	Block1	0back/STIM_000.jpg	99
465.351	0.495	494.9	0back	Block1	0back/STIM_000.jpg	99
468.654	0.448	448.4	0back	Block1	0back/STIM_000.jpg	100
471.655	0.753	753.0	0back	Block1	0back/STIM_001.jpg	99
474.458	0.754	754.2	0back	Block1	0back/STIM_001.jpg	100
477.745	0.389	389.2	0back	Block1	0back/STIM_001.jpg	100
480.866	0.708	708.1	0back	Block1	0back/STIM_002.jpg	100
484.13	0.62	620.4	0back	Block1	0back/STIM_002.jpg	99
488.043	0.404	404.4	0back	Block1	0back/STIM_002.jpg	99
491.249	0.382	382.0	0back	Block1	0back/STIM_003.jpg	100
495.614	0.502	501.8	0back	Block1	0back/STIM_003.jpg	99
499.722	0.552	552.0	0back	Block1	0back/STIM_003.jpg	99
503.131	0.652	651.5	0back	Block1	0back/STIM_004.jpg	99
507.507	0.557	556.8	0back	Block1	0back/STIM_004.jpg	100
511.521	0.444	443.6	0back	Block1	0back/STIM_004.jpg	99
514.851	0.416	416.1	0back	Block1	0back/STIM_005.jpg	100
517.633	0.642	642.1	0back	Block1	0back/STIM_005.jpg	99
521.611	0.694	693.9	0back	Block1	0back/STIM_005.jpg	99
524.877	0.413	412.8	0back	Block1	0back/STIM_006.jpg	100
528.786	0.665	664.9	0back	Block1	0back/STIM_006.jpg	99
533.275	0.584	583.6	0back	Block1	0back/STIM_006.jpg	99
537.695	0.682	681.8	0back	Block1	0back/STIM_007.jpg	99
540.738	0.668	667.9	0back	Block1	0back/STIM_007.jpg	100
544.532	0.537	536.8	0back	Block1	0back/STIM_007.jpg	100
548.935	0.58	580.3	0back	Block1	0back/STIM_008.jpg	99
552.231	0.561	560.6	0back	Block1	0back/STIM_008.jpg	100
556.568	0.558	557.5	0back	Block1	0back/STIM_008.jpg	100
560.146	0.535	534.9	0back	Block1	0back/STIM_009.jpg	100
563.245	0.728	727.7	0back	Block1	0back/STIM_009.jpg	99
567.846	0.696	695.7	0back	Block1	0back/STIM_009.jpg	99
572.535	0.488	488.0	0back	Block1	0back/STIM_010.jpg	99
576.663	0.726	726.0	0back	Block1	0back/STIM_010.jpg	99
579.896	0.493	493.0	0back	Block1	0back/STIM_010.jpg	99
584.179	0.598	597.5	0back	Block1	0back/STIM_011.jpg	99
588.615	0.418	418.1	0back	Block1	0back/STIM_011.jpg	99
591.406	0.394	393.9	0back	Block1	0back/STIM_011.jpg	99
595.362	0.482	482.1	0back	Block1	0back/STIM_012.jpg	100
599.719	0.547	547.3	0back	Block1	0back/STIM_012.jpg	100
604.034	0.649	649.2	0back	Block1	0back/STIM_012.jpg	100
606.903	0.654	654.2	0back	Block1	0back/STIM_013.jpg	100
611.29	0.669	669.4	0back	Block1	0back/STIM_013.jpg	100
613.96	0.391	391.0	0back	Block1	0back/STIM_013.jpg	99
616.765	0.755	755.1	0back	Block1	0back/STIM_014.jpg	99
620.684	0.658	657.8	0back	Block1	0back/STIM_014.jpg	99
624.338	0.593	593.4	0back	Block1	0back/STIM_014.jpg	100
628.058	0.496	495.7	0back	Block1	0back/STIM_015.jpg	99
631.108	0.443	443.3	0back	Block1	0back/STIM_015.jpg	100
634.83	0.418	417.5	0back	Block1	0back/STIM_015.jpg	99
638.41	0.715	715.4	0back	Block1	0back/STIM_016.jpg	99
643.082	0.652	652.0	0back	Block1	0back/STIM_016.jpg	99
646.672	0.411	411.4	0back	Block1	0back/STIM_016.jpg	100
650.094	0.475	474.7	0back	Block1	0back/STIM_017.jpg	100
654.356	0.74	740.4	0back	Block1	0back/STIM_017.jpg	99
658.995	0.416	416.0	0back	Block1	0back/STIM_017.jpg	100
662.825	0.584	583.8	0back	Block1	0back/STIM_018.jpg	100
666.714	0.556	556.3	0back	Block1	0back/STIM_018.jpg	100
670.064	0.742	742.5	0back	Block1	0back/STIM_018.jpg	100
673.093	0.453	452.8	0back	Block1	0back/STIM_019.jpg	99
675.959	0.505	505.0	0back	Block1	0back/STIM_019.jpg	99
678.722	0.543	542.7	0back	Block1	0back/STIM_019.jpg	99
681.311	0.815	815.0	2back	Block2	2back/STIM_000.jpg	99
684.144	0.74	739.6	2back	Block2	2back/STIM_000.jpg	100
687.839	0.777	776.6	2back	Block2	2back/STIM_000.jpg	100
690.664	0.944	943.6	2back	Block2	2back/STIM_001.jpg	100
694.344	1.029	1029.1	2back	Block2	2back/STIM_001.jpg	99
698.318	0.942	942.1	2back	Block2	2back/STIM_001.jpg	99
701.442	0.808	807.9	2back	Block2	2back/STIM_002.jpg	99
705.593	0.499	499.2	2back	Block2	2back/STIM_002.jpg	100
709.264	0.97	969.5	2back	Block2	2back/STIM_002.jpg	99
713.284	0.937	937.1	2back	Block2	2back/STIM_003.jpg	99
716.773	1.049	1049.1	2back	Block2	2back/STIM_003.jpg	99
721.183	0.637	636.8	2back	Block2	2back/STIM_003.jpg	99
723.967	0.501	501.2	2back	Block2	2back/STIM_004.jpg	99
728.236	0.859	859.3	2back	Block2	2back/STIM_004.jpg	99
731.725	0.443	442.8	2back	Block2	2back/STIM_004.jpg	99
734.792	0.829	828.9	2back	Block2	2back/STIM_005.jpg	99
738.031	0.723	722.6	2back	Block2	2back/STIM_005.jpg	100
740.818	0.535	534.9	2back	Block2	2back/STIM_005.jpg	100
744.519	0.905	904.8	2back	Block2	2back/STIM_006.jpg	100
749.348	0.93	929.6	2back	Block2	2back/STIM_006.jpg	100
752.683	0.644	643.9	2back	Block2	2back/STIM_006.jpg	99
755.805	0.896	896.2	2back	Block2	2back/STIM_007.jpg	99
760.63	0.551	551.0	2back	Block2	2back/STIM_007.jpg	99
763.801	0.772	771.9	2back	Block2	2back/STIM_007.jpg	99
767.882	0.631	631.4	2back	Block2	2back/STIM_008.jpg	99
770.797	0.634	634.2	2back	Block2	2back/STIM_008.jpg	99
774.268	0.506	506.1	2back	Block2	2back/STIM_008.jpg	99
778.047	0.494	494.0	2back	Block2	2back/STIM_009.jpg	100
782.329	0.985	985.0	2back	Block2	2back/STIM_009.jpg	99
786.071	0.882	881.5	2back	Block2	2back/STIM_009.jpg	99
790.676	0.586	585.9	2back	Block2	2back/STIM_010.jpg	99
794.212	0.53	530.5	2back	Block2	2back/STIM_010.jpg	99
798.218	0.723	722.7	2back	Block2	2back/STIM_010.jpg	100
802.736	0.996	996.1	2back	Block2	2back/STIM_011.jpg	100
807.336	0.507	507.4	2back	Block2	2back/STIM_011.jpg	99
811.774	0.939	938.9	2back	Block2	2back/STIM_011.jpg	100
816.063	0.786	786.4	2back	Block2	2back/STIM_012.jpg	100
819.603	0.708	707.6	2back	Block2	2back/STIM_012.jpg	100
823.044	0.613	613.1	2back	Block2	2back/STIM_012.jpg	100
826.564	1.093	1093.1	2back	Block2	2back/STIM_013.jpg	100
829.682	0.651	650.8	2back	Block2	2back/STIM_013.jpg	100
833.493	0.808	808.2	2back	Block2	2back/STIM_013.jpg	100
837.498	1.076	1076.0	2back	Block2	2back/STIM_014.jpg	99
842.051	0.795	795.1	2back	Block2	2back/STIM_014.jpg	99
846.272	0.804	803.7	2back	Block2	2back/STIM_014.jpg	100
850.857	0.562	562.3	2back	Block2	2back/STIM_015.jpg	99
854.524	0.948	947.7	2back	Block2	2back/STIM_015.jpg	100
858.82	0.687	687.1	2back	Block2	2back/STIM_015.jpg	100
863.473	0.889	889.0	2back	Block2	2back/STIM_016.jpg	99
866.518	1.006	1005.5	2back	Block2	2back/STIM_016.jpg	100
870.706	0.828	828.5	2back	Block2	2back/STIM_016.jpg	99
874.082	0.634	634.4	2back	Block2	2back/STIM_017.jpg	99
877.87	0.947	947.1	2back	Block2	2back/STIM_017.jpg	100
882.486	0.931	930.9	2back	Block2	2back/STIM_017.jpg	100
886.07	1.037	1036.7	2back	Block2	2back/STIM_018.jpg	100
890.88	0.817	816.6	2back	Block2	2back/STIM_018.jpg	99
895.568	0.486	486.0	2back	Block2	2back/STIM_018.jpg	99
899.702	1.069	1069.1	2back	Block2	2back/STIM_019.jpg	99
904.666	0.895	894.6	2back	Block2	2back/STIM_019.jpg	99
909.446	0.882	882.3	2back	Block2	2back/STIM_019.jpg	99
913.088	1.072	1072.4	2back	Block2	2back/STIM_020.jpg	100
916.481	0.62	620.2	2back	Block2	2back/STIM_020.jpg	100
920.144	0.591	590.7	2back	Block2	2back/STIM_020.jpg	99
923.689	0.977	977.3	2back	Block2	2back/STIM_021.jpg	99
927.477	0.926	926.2	2back	Block2	2back/STIM_021.jpg	99
931.187	0.778	778.3	2back	Block2	2back/STIM_021.jpg	99
935.852	0.859	859.1	2back	Block2	2back/STIM_022.jpg	99
939.018	0.792	791.7	2back	Block2	2back/STIM_022.jpg	99
942.537	0.468	468.3	2back	Block2	2back/STIM_022.jpg	99
946.735	0.66	660.2	2back	Block2	2back/STIM_023.jpg	99
951.286	0.962	962.3	2back	Block2	2back/STIM_023.jpg	100
955.004	0.552	551.7	2back	Block2	2back/STIM_023.jpg	99
957.672	1.011	1010.9	2back	Block2	2back/STIM_024.jpg	99
962.045	0.633	632.9	2back	Block2	2back/STIM_024.jpg	100
966.644	0.766	766.3	2back	Block2	2back/STIM_024.jpg	99
970.832	1.001	1000.8	2back	Block2	2back/STIM_025.jpg	100
974.162	0.767	767.1	2back	Block2	2back/STIM_025.jpg	99
978.4	0.474	474.3	2back	Block2	2back/STIM_025.jpg	100
982.484	0.766	766.0	2back	Block2	2back/STIM_026.jpg	99
985.361	0.601	600.7	2back	Block2	2back/STIM_026.jpg	99
989.825	0.467	467.1	2back	Block2	2back/STIM_026.jpg	100
994.022	0.602	601.9	2back	Block2	2back/STIM_027.jpg	100
996.916	0.887	887.0	2back	Block2	2back/STIM_027.jpg	100
1000.933	0.626	626.0	2back	Block2	2back/STIM_027.jpg	100
1005.022	1.026	1025.8	2back	Block2	2back/STIM_028.jpg	99
1008.444	0.695	694.6	2back	Block2	2back/STIM_028.jpg	100
1012.867	0.938	937.5	2back	Block2	2back/STIM_028.jpg	99
1016.217	0.97	970.3	2back	Block2	2back/STIM_029.jpg	100
1019.567	0.885	884.6	2back	Block2	2back/STIM_029.jpg	100
1024.412	0.515	514.7	2back	Block2	2back/STIM_029.jpg	100
1028.311	0.805	805.0	2back	Block2	2back/STIM_030.jpg	100
1032.222	0.651	650.7	2back	Block2	2back/STIM_030.jpg	100
1036.761	0.753	752.8	2back	Block2	2back/STIM_030.jpg	100
1041.41	0.501	501.1	2back	Block2	2back/STIM_031.jpg	99
1045.709	0.543	542.8	2back	Block2	2back/STIM_031.jpg	100
1049.159	0.732	731.5	2back	Block2	2back/STIM_031.jpg	100
1053.816	0.867	867.1	2back	Block2	2back/STIM_032.jpg	99
1057.32	1.021	1021.0	2back	Block2	2back/STIM_032.jpg	99
1061.326	0.831	831.4	2back	Block2	2back/STIM_032.jpg	99
1065.258	0.995	995.0	2back	Block2	2back/STIM_033.jpg	99
1069.9	0.478	477.8	2back	Block2	2back/STIM_033.jpg	100
1073.134	0.512	512.3	2back	Block2	2back/STIM_033.jpg	100
1077.446	0.901	900.8	2back	Block2	2back/STIM_034.jpg	100
1081.966	0.494	493.8	2back	Block2	2back/STIM_034.jpg	99
1085.539	0.583	582.7	2back	Block2	2back/STIM_034.jpg	100
1088.866	0.877	876.8	2back	Block2	2back/STIM_035.jpg	100
1091.952	0.585	584.8	2back	Block2	2back/STIM_035.jpg	100
1095.146	0.884	883.9	2back	Block2	2back/STIM_035.jpg	100
1099.007	0.541	541.0	2back	Block2	2back/STIM_036.jpg	100
1102.278	0.624	624.1	2back	Block2	2back/STIM_036.jpg	100
1105.652	0.607	607.3	2back	Block2	2back/STIM_036.jpg	100
1109.429	0.51	509.9	2back	Block2	2back/STIM_037.jpg	100
1113.411	0.971	971.1	2back	Block2	2back/STIM_037.jpg	100
1117.89	0.595	595.0	2back	Block2	2back/STIM_037.jpg	100
1120.876	0.81	810.2	2back	Block2	2back/STIM_038.jpg	99
1123.845	0.468	468.5	2back	Block2	2back/STIM_038.jpg	99
1127.987	0.993	992.7	2back	Block2	2back/STIM_038.jpg	99
1132.937	0.656	655.7	2back	Block2	2back/STIM_039.jpg	99
1137.005	0.924	923.6	2back	Block2	2back/STIM_039.jpg	100
1141.441	0.807	807.0	2back	Block2	2back/STIM_039.jpg	100
1144.957	0.446	445.8	0back	Block2	0back/STIM_000.jpg	100
1149.364	0.595	594.7	0back	Block2	0back/STIM_000.jpg	100
1153.818	0.38	380.2	0back	Block2	0back/STIM_000.jpg	100
1156.313	0.494	494.5	0back	Block2	0back/STIM_001.jpg	100
1160.184	0.456	455.7	0back	Block2	0back/STIM_001.jpg	100
1163.987	0.582	581.9	0back	Block2	0back/STIM_001.jpg	99
1167.517	0.639	638.8	0back	Block2	0back/STIM_002.jpg	99
1171.498	0.459	459.0	0back	Block2	0back/STIM_002.jpg	99
1174.376	0.53	529.9	0back	Block2	0back/STIM_002.jpg	99
1176.918	0.597	596.9	0back	Block2	0back/STIM_003.jpg	100
1179.967	0.602	602.5	0back	Block2	0back/STIM_003.jpg	100
1184.252	0.75	749.6	0back	Block2	0back/STIM_003.jpg	100
1188.998	0.567	567.4	0back	Block2	0back/STIM_004.jpg	99
1193.419	0.552	551.7	0back	Block2	0back/STIM_004.jpg	99
1197.814	0.668	667.5	0back	Block2	0back/STIM_004.jpg	100
1202.187	0.424	424.5	0back	Block2	0back/STIM_005.jpg	100
1204.788	0.675	675.3	0back	Block2	0back/STIM_005.jpg	99
1208.161	0.532	532.1	0back	Block2	0back/STIM_005.jpg	99
1211.601	0.696	696.1	0back	Block2	0back/STIM_006.jpg	99
1214.749	0.634	633.6	0back	Block2	0back/STIM_006.jpg	99
1217.693	0.536	535.9	0back	Block2	0back/STIM_006.jpg	100
1221.458	0.578	578.0	0back	Block2	0back/STIM_007.jpg	99
1225.761	0.714	714.2	0back	Block2	0back/STIM_007.jpg	99
1229.074	0.732	731.5	0back	Block2	0back/STIM_007.jpg	99
1233.453	0.756	756.4	0back	Block2	0back/STIM_008.jpg	100
1237.136	0.403	402.8	0back	Block2	0back/STIM_008.jpg	99
1240.978	0.456	455.7	0back	Block2	0back/STIM_008.jpg	99
1244.173	0.615	615.0	0back	Block2	0back/STIM_009.jpg	99
1246.924	0.67	670.1	0back	Block2	0back/STIM_009.jpg	100
1250.263	0.541	541.1	0back	Block2	0back/STIM_009.jpg	99
1252.832	0.433	433.4	0back	Block2	0back/STIM_010.jpg	99
1257.039	0.603	602.9	0back	Block2	0back/STIM_010.jpg	100
1261.434	0.438	437.8	0back	Block2	0back/STIM_010.jpg	100
1264.464	0.397	397.1	0back	Block2	0back/STIM_011.jpg	99
1267.793	0.5	500.2	0back	Block2	0back/STIM_011.jpg	99
1271.286	0.752	752.1	0back	Block2	0back/STIM_011.jpg	99
1274.861	0.409	408.7	0back	Block2	0back/STIM_012.jpg	99
1278.622	0.444	444.4	0back	Block2	0back/STIM_012.jpg	99
1282.147	0.736	736.2	0back	Block2	0back/STIM_012.jpg	100
1285.38	0.612	612.4	0back	Block2	0back/STIM_013.jpg	100
1288.486	0.704	704.2	0back	Block2	0back/STIM_013.jpg	99
1291.368	0.539	539.2	0back	Block2	0back/STIM_013.jpg	99
1295.354	0.67	669.9	0back	Block2	0back/STIM_014.jpg	99
1299.937	0.436	435.7	0back	Block2	0back/STIM_014.jpg	99
1302.46	0.525	524.8	0back	Block2	0back/STIM_014.jpg	100
1305.6	0.722	722.5	0back	Block2	0back/STIM_015.jpg	100
1308.735	0.706	706.5	0back	Block2	0back/STIM_015.jpg	100
1311.776	0.6	599.8	0back	Block2	0back/STIM_015.jpg	99
1314.693	0.668	668.5	0back	Block2	0back/STIM_016.jpg	100
1318.603	0.568	568.3	0back	Block2	0back/STIM_016.jpg	99
1321.894	0.724	723.5	0back	Block2	0back/STIM_016.jpg	99
1326.567	0.651	650.9	0back	Block2	0back/STIM_017.jpg	100
1330.249	0.679	679.0	0back	Block2	0back/STIM_017.jpg	99
1334.668	0.636	635.9	0back	Block2	0back/STIM_017.jpg	99
1339.02	0.467	467.4	0back	Block2	0back/STIM_018.jpg	100
1343.094	0.602	601.8	0back	Block2	0back/STIM_018.jpg	99
1346.725	0.606	605.7	0back	Block2	0back/STIM_018.jpg	99
1350.869	0.544	543.6	0back	Block2	0back/STIM_019.jpg	100
1353.838	0.436	436.5	0back	Block2	0back/STIM_019.jpg	100
1357.739	0.417	417.2	0back	Block2	0back/STIM_019.jpg	100
1362.045	0.78	780.4	2back	Block3	2back/STIM_000.jpg	99
1365.863	0.619	618.6	2back	Block3	2back/STIM_000.jpg	99
1369.434	0.51	510.4	2back	Block3	2back/STIM_000.jpg	100
1373.66	0.55	549.8	2back	Block3	2back/STIM_001.jpg	99
1377.382	0.462	461.8	2back	Block3	2back/STIM_001.jpg	100
1380.141	0.756	756.3	2back	Block3	2back/STIM_001.jpg	100
1384.381	0.534	533.8	2back	Block3	2back/STIM_002.jpg	100
1387.641	0.76	760.1	2back	Block3	2back/STIM_002.jpg	100
1390.688	0.886	886.5	2back	Block3	2back/STIM_002.jpg	99
1394.433	0.494	493.7	2back	Block3	2back/STIM_003.jpg	100
1397.67	0.437	436.7	2back	Block3	2back/STIM_003.jpg	100
1400.162	0.419	419.4	2back	Block3	2back/STIM_003.jpg	100
1404.525	0.851	851.4	2back	Block3	2back/STIM_004.jpg	100
1409.157	0.736	736.5	2back	Block3	2back/STIM_004.jpg	99
1412.724	0.619	618.8	2back	Block3	2back/STIM_004.jpg	99
1415.726	0.714	713.5	2back	Block3	2back/STIM_005.jpg	100
1418.752	0.446	445.8	2back	Block3	2back/STIM_005.jpg	100
1421.199	0.87	870.4	2back	Block3	2back/STIM_005.jpg	100
1424.718	0.436	436.0	2back	Block3	2back/STIM_006.jpg	100
1427.302	0.657	656.8	2back	Block3	2back/STIM_006.jpg	99
1430.261	0.491	491.3	2back	Block3	2back/STIM_006.jpg	100
1433.802	0.662	662.1	2back	Block3	2back/STIM_007.jpg	100
1437.098	0.539	538.8	2back	Block3	2back/STIM_007.jpg	99
1440.708	0.862	861.8	2back	Block3	2back/STIM_007.jpg	99
1445.082	0.788	788.3	2back	Block3	2back/STIM_008.jpg	100
1448.487	0.574	573.7	2back	Block3	2back/STIM_008.jpg	100
1452.501	0.811	811.0	2back	Block3	2back/STIM_008.jpg	100
1456.476	0.554	554.4	2back	Block3	2back/STIM_009.jpg	99
1460.202	0.777	777.1	2back	Block3	2back/STIM_009.jpg	99
1464.068	0.899	898.8	2back	Block3	2back/STIM_009.jpg	99
1468.435	0.667	666.6	2back	Block3	2back/STIM_010.jpg	99
1472.917	0.7	700.4	2back	Block3	2back/STIM_010.jpg	99
1476.198	0.672	671.6	2back	Block3	2back/STIM_010.jpg	100
1480.565	0.682	682.3	2back	Block3	2back/STIM_011.jpg	100
1484.071	0.432	432.2	2back	Block3	2back/STIM_011.jpg	100
1486.827	0.77	770.2	2back	Block3	2back/STIM_011.jpg	99
1490.805	0.468	468.0	2back	Block3	2back/STIM_012.jpg	99
1493.671	0.653	653.0	2back	Block3	2back/STIM_012.jpg	99
1498.303	0.674	674.2	2back	Block3	2back/STIM_012.jpg	99
1501.815	0.776	775.8	2back	Block3	2back/STIM_013.jpg	100
1505.337	0.879	879.0	2back	Block3	2back/STIM_013.jpg	100
1508.933	0.69	690.4	2back	Block3	2back/STIM_013.jpg	99
1512.571	0.443	442.6	2back	Block3	2back/STIM_014.jpg	99
1516.917	0.602	602.3	2back	Block3	2back/STIM_014.jpg	99
1520.791	0.9	900.0	2back	Block3	2back/STIM_014.jpg	100
1525.626	0.886	885.5	2back	Block3	2back/STIM_015.jpg	99
1530.143	0.671	670.9	2back	Block3	2back/STIM_015.jpg	100
1532.945	0.529	529.3	2back	Block3	2back/STIM_015.jpg	100
1536.52	0.713	713.2	2back	Block3	2back/STIM_016.jpg	100
1540.423	0.58	579.6	2back	Block3	2back/STIM_016.jpg	99
1543.772	0.798	798.2	2back	Block3	2back/STIM_016.jpg	99
1546.968	0.568	568.3	2back	Block3	2back/STIM_017.jpg	99
1551.329	0.916	915.8	2back	Block3	2back/STIM_017.jpg	100
1554.722	0.824	823.6	2back	Block3	2back/STIM_017.jpg	100
1558.853	0.883	883.3	2back	Block3	2back/STIM_018.jpg	99
1562.915	0.659	658.9	2back	Block3	2back/STIM_018.jpg	99
1567.256	0.574	573.6	2back	Block3	2back/STIM_018.jpg	99
1570.248	0.736	736.2	2back	Block3	2back/STIM_019.jpg	100
1574.924	0.662	662.2	2back	Block3	2back/STIM_019.jpg	100
1578.177	0.72	720.2	2back	Block3	2back/STIM_019.jpg	100
1581.067	0.784	784.3	2back	Block3	2back/STIM_020.jpg	99
1584.89	0.909	909.0	2back	Block3	2back/STIM_020.jpg	99
1588.795	0.454	454.5	2back	Block3	2back/STIM_020.jpg	99
1593.015	0.42	420.0	2back	Block3	2back/STIM_021.jpg	100
1597.102	0.533	533.3	2back	Block3	2back/STIM_021.jpg	99
1600.786	0.528	528.5	2back	Block3	2back/STIM_021.jpg	100
1604.135	0.86	860.0	2back	Block3	2back/STIM_022.jpg	99
1607.129	0.441	441.2	2back	Block3	2back/STIM_022.jpg	99
1609.996	0.669	668.8	2back	Block3	2back/STIM_022.jpg	100
1614.43	0.484	483.9	2back	Block3	2back/STIM_023.jpg	100
1617.95	0.514	514.4	2back	Block3	2back/STIM_023.jpg	99
1620.762	0.615	614.7	2back	Block3	2back/STIM_023.jpg	99
1623.85	0.92	920.0	2back	Block3	2back/STIM_024.jpg	100
1628.539	0.506	505.9	2back	Block3	2back/STIM_024.jpg	99
1631.735	0.488	487.5	2back	Block3	2back/STIM_024.jpg	100
1634.555	0.475	474.7	2back	Block3	2back/STIM_025.jpg	100
1638.424	0.675	674.8	2back	Block3	2back/STIM_025.jpg	100
1642.428	0.748	747.8	2back	Block3	2back/STIM_025.jpg	100
1646.5	0.864	863.7	2back	Block3	2back/STIM_026.jpg	100
1650.477	0.886	886.1	2back	Block3	2back/STIM_026.jpg	100
1653.879	0.488	488.0	2back	Block3	2back/STIM_026.jpg	99
1658.246	0.552	551.8	2back	Block3	2back/STIM_027.jpg	100
1662.027	0.632	632.1	2back	Block3	2back/STIM_027.jpg	99
1665.818	0.414	414.4	2back	Block3	2back/STIM_027.jpg	100
1669.056	0.441	441.0	2back	Block3	2back/STIM_028.jpg	100
1673.176	0.714	714.5	2back	Block3	2back/STIM_028.jpg	99
1676.124	0.579	579.2	2back	Block3	2back/STIM_028.jpg	100
1679.312	0.875	874.8	2back	Block3	2back/STIM_029.jpg	100
1683.737	0.522	521.9	2back	Block3	2back/STIM_029.jpg	100
1687.288	0.682	681.9	2back	Block3	2back/STIM_029.jpg	99
1691.911	0.433	433.2	2back	Block3	2back/STIM_030.jpg	99
1695.798	0.422	421.6	2back	Block3	2back/STIM_030.jpg	99
1698.746	0.499	498.7	2back	Block3	2back/STIM_030.jpg	100
1701.304	0.455	454.7	2back	Block3	2back/STIM_031.jpg	99
1704.307	0.57	570.4	2back	Block3	2back/STIM_031.jpg	99
1707.458	0.838	838.0	2back	Block3	2back/STIM_031.jpg	99
1711.494	0.916	916.0	2back	Block3	2back/STIM_032.jpg	99
1715.104	0.541	541.4	2back	Block3	2back/STIM_032.jpg	99
1718.997	0.476	476.2	2back	Block3	2back/STIM_032.jpg	100
1722.965	0.624	623.5	2back	Block3	2back/STIM_033.jpg	100
1726.464	0.776	776.4	2back	Block3	2back/STIM_033.jpg	99
1730.001	0.795	794.9	2back	Block3	2back/STIM_033.jpg	99
1733.218	0.77	770.1	2back	Block3	2back/STIM_034.jpg	99
1737.21	0.832	831.6	2back	Block3	2back/STIM_034.jpg	100
1740.374	0.426	426.4	2back	Block3	2back/STIM_034.jpg	99
1742.814	0.905	905.1	2back	Block3	2back/STIM_035.jpg	99
1745.917	0.558	557.6	2back	Block3	2back/STIM_035.jpg	100
1749.434	0.691	691.2	2back	Block3	2back/STIM_035.jpg	100
1753.599	0.915	914.6	2back	Block3	2back/STIM_036.jpg	99
1756.522	0.408	408.2	2back	Block3	2back/STIM_036.jpg	99
1759.26	0.413	413.0	2back	Block3	2back/STIM_036.jpg	99
1763.101	0.46	460.5	2back	Block3	2back/STIM_037.jpg	99
1766.415	0.505	504.6	2back	Block3	2back/STIM_037.jpg	100
1770.06	0.872	872.5	2back	Block3	2back/STIM_037.jpg	99
1773.593	0.802	801.5	2back	Block3	2back/STIM_038.jpg	100
1777.354	0.919	918.7	2back	Block3	2back/STIM_038.jpg	100
1780.772	0.916	916.4	2back	Block3	2back/STIM_038.jpg	99
1785.625	0.814	814.3	2back	Block3	2back/STIM_039.jpg	100
1788.876	0.448	448.0	2back	Block3	2back/STIM_039.jpg	99
1791.519	0.803	803.3	2back	Block3	2back/STIM_039.jpg	100
1795.945	0.575	574.7	0back	Block3	0back/STIM_000.jpg	99
1800.113	0.71	709.5	0back	Block3	0back/STIM_000.jpg	99
1803.921	0.525	525.1	0back	Block3	0back/STIM_000.jpg	100
1806.796	0.551	550.8	0back	Block3	0back/STIM_001.jpg	99
1811.34	0.44	439.5	0back	Block3	0back/STIM_001.jpg	100
1815.003	0.734	733.9	0back	Block3	0back/STIM_001.jpg	99
1819.141	0.421	421.2	0back	Block3	0back/STIM_002.jpg	100
1823.489	0.711	710.6	0back	Block3	0back/STIM_002.jpg	99
1827.801	0.637	637.2	0back	Block3	0back/STIM_002.jpg	99
1831.84	0.538	538.5	0back	Block3	0back/STIM_003.jpg	99
1835.009	0.515	515.2	0back	Block3	0back/STIM_003.jpg	99
1838.861	0.438	438.3	0back	Block3	0back/STIM_003.jpg	99
1843.097	0.758	758.1	0back	Block3	0back/STIM_004.jpg	100
1846.571	0.618	617.5	0back	Block3	0back/STIM_004.jpg	100
1849.803	0.428	427.8	0back	Block3	0back/STIM_004.jpg	99
1852.941	0.617	617.0	0back	Block3	0back/STIM_005.jpg	99
1856.344	0.474	474.4	0back	Block3	0back/STIM_005.jpg	99
1859.958	0.607	607.2	0back	Block3	0back/STIM_005.jpg	99
1862.921	0.598	597.7	0back	Block3	0back/STIM_006.jpg	99
1865.73	0.715	715.2	0back	Block3	0back/STIM_006.jpg	99
1870.05	0.753	753.0	0back	Block3	0back/STIM_006.jpg	99
1874.63	0.709	709.2	0back	Block3	0back/STIM_007.jpg	100
1878.924	0.621	621.4	0back	Block3	0back/STIM_007.jpg	99
1882.607	0.729	729.0	0back	Block3	0back/STIM_007.jpg	100
1886.601	0.589	589.4	0back	Block3	0back/STIM_008.jpg	100
1891.014	0.737	736.9	0back	Block3	0back/STIM_008.jpg	100
1894.106	0.702	702.2	0back	Block3	0back/STIM_008.jpg	99
1897.251	0.712	712.5	0back	Block3	0back/STIM_009.jpg	99
1901.569	0.55	549.9	0back	Block3	0back/STIM_009.jpg	99
1905.579	0.455	455.4	0back	Block3	0back/STIM_009.jpg	100
1908.131	0.63	630.4	0back	Block3	0back/STIM_010.jpg	99
1912.21	0.43	430.4	0back	Block3	0back/STIM_010.jpg	99
1915.384	0.74	740.5	0back	Block3	0back/STIM_010.jpg	100
1919.218	0.465	465.4	0back	Block3	0back/STIM_011.jpg	99
1922.704	0.577	577.2	0back	Block3	0back/STIM_011.jpg	99
1926.762	0.624	623.7	0back	Block3	0back/STIM_011.jpg	100
1929.923	0.396	395.7	0back	Block3	0back/STIM_012.jpg	100
1932.359	0.408	408.2	0back	Block3	0back/STIM_012.jpg	100
1934.977	0.392	392.3	0back	Block3	0back/STIM_012.jpg	99
1937.522	0.495	494.9	0back	Block3	0back/STIM_013.jpg	100
1941.968	0.669	668.8	0back	Block3	0back/STIM_013.jpg	99
1946.174	0.457	456.6	0back	Block3	0back/STIM_013.jpg	99
1948.658	0.56	559.9	0back	Block3	0back/STIM_014.jpg	99
1952.2	0.494	493.9	0back	Block3	0back/STIM_014.jpg	99
1956.397	0.413	412.7	0back	Block3	0back/STIM_014.jpg	99
1959.584	0.529	529.3	0back	Block3	0back/STIM_015.jpg	100
1963.784	0.54	540.5	0back	Block3	0back/STIM_015.jpg	100
1967.491	0.755	754.8	0back	Block3	0back/STIM_015.jpg	99
1971.018	0.686	686.5	0back	Block3	0back/STIM_016.jpg	100
1974.639	0.536	535.7	0back	Block3	0back/STIM_016.jpg	99
1977.86	0.7	700.0	0back	Block3	0back/STIM_016.jpg	99
1981.756	0.403	402.9	0back	Block3	0back/STIM_017.jpg	100
1985.34	0.546	546.4	0back	Block3	0back/STIM_017.jpg	100
1988.026	0.449	448.6	0back	Block3	0back/STIM_017.jpg	99
1990.777	0.672	671.8	0back	Block3	0back/STIM_018.jpg	99
1995.18	0.693	693.1	0back	Block3	0back/STIM_018.jpg	100
1998.367	0.657	657.3	0back	Block3	0back/STIM_018.jpg	100
2002.407	0.689	688.7	0back	Block3	0back/STIM_019.jpg	100
2006.215	0.567	567.0	0back	Block3	0back/STIM_019.jpg	99
2010.059	0.438	438.5	0back	Block3	0back/STIM_019.jpg	99
2014.245	0.906	906.2	2back	Block4	2back/STIM_000.jpg	99
2017.356	0.625	624.7	2back	Block4	2back/STIM_000.jpg	99
2020.821	0.516	516.1	2back	Block4	2back/STIM_000.jpg	99
2024.739	0.712	711.7	2back	Block4	2back/STIM_001.jpg	100
2029.39	0.694	693.6	2back	Block4	2back/STIM_001.jpg	99
2032.673	0.742	742.0	2back	Block4	2back/STIM_001.jpg	100
2037.214	0.617	616.9	2back	Block4	2back/STIM_002.jpg	100
2041.214	0.608	607.5	2back	Block4	2back/STIM_002.jpg	99
2044.867	0.595	594.8	2back	Block4	2back/STIM_002.jpg	99
2047.609	0.526	526.3	2back	Block4	2back/STIM_003.jpg	99
2051.889	0.486	486.3	2back	Block4	2back/STIM_003.jpg	100
2054.821	0.497	496.8	2back	Block4	2back/STIM_003.jpg	99
2058.116	0.723	723.4	2back	Block4	2back/STIM_004.jpg	100
2062.168	0.399	399.3	2back	Block4	2back/STIM_004.jpg	99
2066.223	0.481	480.7	2back	Block4	2back/STIM_004.jpg	100
2068.787	0.46	460.5	2back	Block4	2back/STIM_005.jpg	100
2071.359	0.877	876.7	2back	Block4	2back/STIM_005.jpg	100
2075.153	0.637	636.9	2back	Block4	2back/STIM_005.jpg	99
2078.511	0.808	808.0	2back	Block4	2back/STIM_006.jpg	100
2082.031	0.7	699.9	2back	Block4	2back/STIM_006.jpg	100
2086.552	0.522	521.7	2back	Block4	2back/STIM_006.jpg	100
2089.137	0.533	532.7	2back	Block4	2back/STIM_007.jpg	100
2092.595	0.587	587.0	2back	Block4	2back/STIM_007.jpg	99
2096.554	0.737	737.2	2back	Block4	2back/STIM_007.jpg	100
2100.051	0.468	468.5	2back	Block4	2back/STIM_008.jpg	100
2102.699	0.822	822.2	2back	Block4	2back/STIM_008.jpg	99
2107.142	0.788	787.8	2back	Block4	2back/STIM_008.jpg	100
2110.58	0.465	465.1	2back	Block4	2back/STIM_009.jpg	100
2113.558	0.855	854.6	2back	Block4	2back/STIM_009.jpg	100
2117.584	0.775	774.8	2back	Block4	2back/STIM_009.jpg	100
2121.737	0.847	847.3	2back	Block4	2back/STIM_010.jpg	99
2125.276	0.573	573.3	2back	Block4	2back/STIM_010.jpg	100
2129.789	0.734	734.0	2back	Block4	2back/STIM_010.jpg	100
2133.739	0.907	906.9	2back	Block4	2back/STIM_011.jpg	100
2137.912	0.552	552.5	2back	Block4	2back/STIM_011.jpg	99
2141.525	0.651	650.6	2back	Block4	2back/STIM_011.jpg	100
2144.83	0.622	621.9	2back	Block4	2back/STIM_012.jpg	100
2148.056	0.557	557.0	2back	Block4	2back/STIM_012.jpg	99
2152.564	0.864	864.0	2back	Block4	2back/STIM_012.jpg	99
2157.226	0.749	749.2	2back	Block4	2back/STIM_013.jpg	100
2161.923	0.896	895.7	2back	Block4	2back/STIM_013.jpg	100
2165.92	0.792	792.3	2back	Block4	2back/STIM_013.jpg	100
2169.349	0.675	674.8	2back	Block4	2back/STIM_014.jpg	100
2173.519	0.78	779.9	2back	Block4	2back/STIM_014.jpg	100
2176.441	0.884	883.6	2back	Block4	2back/STIM_014.jpg	99
2179.366	0.752	752.4	2back	Block4	2back/STIM_015.jpg	99
2183.893	0.732	732.1	2back	Block4	2back/STIM_015.jpg	99
2187.92	0.861	861.0	2back	Block4	2back/STIM_015.jpg	99
2191.414	0.465	464.8	2back	Block4	2back/STIM_016.jpg	99
2195.673	0.549	548.7	2back	Block4	2back/STIM_016.jpg	99
2199.409	0.677	677.4	2back	Block4	2back/STIM_016.jpg	99
2203.934	0.926	926.0	2back	Block4	2back/STIM_017.jpg	99
2207.999	0.671	671.0	2back	Block4	2back/STIM_017.jpg	99
2211.976	0.432	431.6	2back	Block4	2back/STIM_017.jpg	100
2214.597	0.679	678.8	2back	Block4	2back/STIM_018.jpg	99
2219.053	0.767	767.2	2back	Block4	2back/STIM_018.jpg	100
2223.577	0.453	452.7	2back	Block4	2back/STIM_018.jpg	99
2226.472	0.655	655.4	2back	Block4	2back/STIM_019.jpg	99
2230.957	0.451	451.0	2back	Block4	2back/STIM_019.jpg	100
2234.312	0.475	474.9	2back	Block4	2back/STIM_019.jpg	99
2238.033	0.674	674.4	2back	Block4	2back/STIM_020.jpg	100
2240.756	0.701	700.7	2back	Block4	2back/STIM_020.jpg	99
2243.867	0.888	888.1	2back	Block4	2back/STIM_020.jpg	100
2247.972	0.615	614.8	2back	Block4	2back/STIM_021.jpg	99
2250.902	0.922	921.5	2back	Block4	2back/STIM_021.jpg	100
2254.872	0.689	689.3	2back	Block4	2back/STIM_021.jpg	99
2259.538	0.809	809.2	2back	Block4	2back/STIM_022.jpg	99
2262.968	0.464	464.4	2back	Block4	2back/STIM_022.jpg	100
2265.739	0.586	586.3	2back	Block4	2back/STIM_022.jpg	99
2269.54	0.539	538.7	2back	Block4	2back/STIM_023.jpg	99
2272.656	0.589	589.4	2back	Block4	2back/STIM_023.jpg	99
2276.333	0.711	711.4	2back	Block4	2back/STIM_023.jpg	99
2281.016	0.774	774.0	2back	Block4	2back/STIM_024.jpg	99
2285.159	0.78	780.0	2back	Block4	2back/STIM_024.jpg	100
2289.306	0.455	455.4	2back	Block4	2back/STIM_024.jpg	100
2293.015	0.895	895.4	2back	Block4	2back/STIM_025.jpg	99
2296.589	0.882	881.6	2back	Block4	2back/STIM_025.jpg	100
2300.864	0.42	419.5	2back	Block4	2back/STIM_025.jpg	99
2303.616	0.73	729.9	2back	Block4	2back/STIM_026.jpg	99
2306.451	0.477	476.6	2back	Block4	2back/STIM_026.jpg	100
2310.43	0.861	861.2	2back	Block4	2back/STIM_026.jpg	100
2314.969	0.749	749.2	2back	Block4	2back/STIM_027.jpg	99
2318.818	0.607	607.3	2back	Block4	2back/STIM_027.jpg	100
2321.576	0.466	466.0	2back	Block4	2back/STIM_027.jpg	99
2325.031	0.43	430.1	2back	Block4	2back/STIM_028.jpg	100
2329.364	0.756	755.5	2back	Block4	2back/STIM_028.jpg	99
2333.647	0.478	477.7	2back	Block4	2back/STIM_028.jpg	100
2336.79	0.906	906.4	2back	Block4	2back/STIM_029.jpg	99
2340.183	0.877	877.0	2back	Block4	2back/STIM_029.jpg	100
2343.373	0.883	883.3	2back	Block4	2back/STIM_029.jpg	99
2348.069	0.761	760.7	2back	Block4	2back/STIM_030.jpg	99
2351.183	0.476	476.4	2back	Block4	2back/STIM_030.jpg	99
2354.846	0.493	493.4	2back	Block4	2back/STIM_030.jpg	100
2357.783	0.518	518.5	2back	Block4	2back/STIM_031.jpg	99
2361.89	0.423	422.8	2back	Block4	2back/STIM_031.jpg	100
2364.506	0.859	859.3	2back	Block4	2back/STIM_031.jpg	100
2369.291	0.77	769.8	2back	Block4	2back/STIM_032.jpg	100
2373.467	0.418	417.7	2back	Block4	2back/STIM_032.jpg	100
2376.959	0.816	815.5	2back	Block4	2back/STIM_032.jpg	99
2381.15	0.594	594.3	2back	Block4	2back/STIM_033.jpg	100
2385.142	0.8	800.5	2back	Block4	2back/STIM_033.jpg	100
2389.918	0.448	447.5	2back	Block4	2back/STIM_033.jpg	99
2392.877	0.477	476.9	2back	Block4	2back/STIM_034.jpg	99
2396.224	0.403	402.6	2back	Block4	2back/STIM_034.jpg	100
2399.935	0.484	483.8	2back	Block4	2back/STIM_034.jpg	100
2402.504	0.695	695.4	2back	Block4	2back/STIM_035.jpg	99
2405.23	0.567	567.4	2back	Block4	2back/STIM_035.jpg	99
2407.818	0.575	575.4	2back	Block4	2back/STIM_035.jpg	99
2410.634	0.851	851.3	2back	Block4	2back/STIM_036.jpg	99
2413.718	0.878	878.1	2back	Block4	2back/STIM_036.jpg	99
2416.761	0.585	584.8	2back	Block4	2back/STIM_036.jpg	100
2420.431	0.479	478.6	2back	Block4	2back/STIM_037.jpg	99
2424.344	0.673	673.0	2back	Block4	2back/STIM_037.jpg	99
2427.493	0.782	782.0	2back	Block4	2back/STIM_037.jpg	100
2431.115	0.834	833.9	2back	Block4	2back/STIM_038.jpg	99
2435.151	0.718	718.2	2back	Block4	2back/STIM_038.jpg	100
2439.081	0.728	727.8	2back	Block4	2back/STIM_038.jpg	99
2443.758	0.784	784.3	2back	Block4	2back/STIM_039.jpg	99
2447.049	0.927	927.0	2back	Block4	2back/STIM_039.jpg	99
2450.359	0.904	903.8	2back	Block4	2back/STIM_039.jpg	100
2454.676	0.433	432.9	0back	Block4	0back/STIM_000.jpg	99
2458.818	0.605	605.0	0back	Block4	0back/STIM_000.jpg	99
2461.867	0.732	731.5	0back	Block4	0back/STIM_000.jpg	100
2466.573	0.654	654.2	0back	Block4	0back/STIM_001.jpg	99
2469.914	0.632	631.7	0back	Block4	0back/STIM_001.jpg	99
2472.917	0.424	424.0	0back	Block4	0back/STIM_001.jpg	99
2475.965	0.516	516.2	0back	Block4	0back/STIM_002.jpg	99
2479.228	0.54	539.5	0back	Block4	0back/STIM_002.jpg	100
2483.748	0.447	447.4	0back	Block4	0back/STIM_002.jpg	100
2486.502	0.591	590.7	0back	Block4	0back/STIM_003.jpg	99
2490.643	0.636	635.9	0back	Block4	0back/STIM_003.jpg	99
2494.084	0.752	752.5	0back	Block4	0back/STIM_003.jpg	99
2498.126	0.45	450.1	0back	Block4	0back/STIM_004.jpg	100
2502.078	0.627	627.3	0back	Block4	0back/STIM_004.jpg	100
2505.05	0.751	751.2	0back	Block4	0back/STIM_004.jpg	99
2509.521	0.486	486.3	0back	Block4	0back/STIM_005.jpg	99
2513.941	0.743	742.8	0back	Block4	0back/STIM_005.jpg	99
2518.527	0.593	593.4	0back	Block4	0back/STIM_005.jpg	99
2522.569	0.45	449.8	0back	Block4	0back/STIM_006.jpg	100
2525.363	0.733	732.6	0back	Block4	0back/STIM_006.jpg	100
2528.487	0.751	750.8	0back	Block4	0back/STIM_006.jpg	100
2532.78	0.639	638.8	0back	Block4	0back/STIM_007.jpg	100
2536.638	0.585	584.8	0back	Block4	0back/STIM_007.jpg	99
2540.364	0.689	689.1	0back	Block4	0back/STIM_007.jpg	100
2543.845	0.43	430.1	0back	Block4	0back/STIM_008.jpg	99
2547.31	0.551	551.3	0back	Block4	0back/STIM_008.jpg	100
2551.848	0.708	708.0	0back	Block4	0back/STIM_008.jpg	99
2555.896	0.518	517.8	0back	Block4	0back/STIM_009.jpg	100
2558.913	0.633	633.2	0back	Block4	0back/STIM_009.jpg	100
2563.326	0.756	756.1	0back	Block4	0back/STIM_009.jpg	100
2567.737	0.502	501.9	0back	Block4	0back/STIM_010.jpg	99
2571.948	0.72	720.4	0back	Block4	0back/STIM_010.jpg	100
2576.573	0.426	426.4	0back	Block4	0back/STIM_010.jpg	100
2580.431	0.574	573.7	0back	Block4	0back/STIM_011.jpg	99
2584.765	0.467	466.6	0back	Block4	0back/STIM_011.jpg	99
2587.625	0.425	424.7	0back	Block4	0back/STIM_011.jpg	100
2591.003	0.469	469.1	0back	Block4	0back/STIM_012.jpg	99
2594.148	0.702	702.2	0back	Block4	0back/STIM_012.jpg	100
2597.106	0.639	639.0	0back	Block4	0back/STIM_012.jpg	100
2601.289	0.556	556.4	0back	Block4	0back/STIM_013.jpg	99
2604.085	0.493	492.7	0back	Block4	0back/STIM_013.jpg	99
2608.045	0.698	697.6	0back	Block4	0back/STIM_013.jpg	100
2612.297	0.697	697.3	0back	Block4	0back/STIM_014.jpg	99
2616.488	0.456	456.3	0back	Block4	0back/STIM_014.jpg	100
2620.937	0.433	432.6	0back	Block4	0back/STIM_014.jpg	99
2624.51	0.516	515.8	0back	Block4	0back/STIM_015.jpg	99
2628.878	0.501	500.7	0back	Block4	0back/STIM_015.jpg	99
2632.081	0.389	389.2	0back	Block4	0back/STIM_015.jpg	99
2635.355	0.535	534.7	0back	Block4	0back/STIM_016.jpg	100
2639.626	0.557	557.3	0back	Block4	0back/STIM_016.jpg	100
2642.243	0.533	533.2	0back	Block4	0back/STIM_016.jpg	100
2644.92	0.752	752.0	0back	Block4	0back/STIM_017.jpg	99
2648.993	0.552	552.5	0back	Block4	0back/STIM_017.jpg	100
2653.255	0.471	471.4	0back	Block4	0back/STIM_017.jpg	99
2656.856	0.682	681.9	0back	Block4	0back/STIM_018.jpg	100
2660.515	0.571	571.2	0back	Block4	0back/STIM_018.jpg	100
2663.49	0.408	407.7	0back	Block4	0back/STIM_018.jpg	100
2666.892	0.705	704.6	0back	Block4	0back/STIM_019.jpg	99
2671.295	0.417	416.6	0back	Block4	0back/STIM_019.jpg	99
2673.871	0.436	436.5	0back	Block4	0back/STIM_019.jpg	100
