onset	duration	response_time_ms	trial_type	learning_stage	stimulus	response_port
0.0	2.035	2035.3	generate	Run1	generate/STIM_000.jpg	99
5.438	2.712	2712.4	generate	Run1	generate/STIM_000.jpg	99
10.459	1.222	1221.7	generate	Run1	generate/STIM_000.jpg	100
15.142	1.592	1592.2	generate	Run1	generate/STIM_000.jpg	100
19.538	2.003	2003.0	generate	Run1	generate/STIM_000.jpg	99
23.734	1.956	1956.1	generate	Run1	generate/STIM_001.jpg	100
28.426	1.855	1855.4	generate	Run1	generate/STIM_001.jpg	99
32.993	1.886	1886.5	generate	Run1	generate/STIM_001.jpg	99
36.917	1.088	1088.4	generate	Run1	generate/STIM_001.jpg	100
41.454	0.99	990.1	generate	Run1	generate/STIM_001.jpg	100
45.253	1.206	1206.5	generate	Run1	generate/STIM_002.jpg	99
49.79	2.461	2461.2	generate	Run1	generate/STIM_002.jpg	100
54.867	1.563	1563.0	generate	Run1	generate/STIM_002.jpg	99
59.688	1.98	1979.9	generate	Run1	generate/STIM_002.jpg	99
65.647	2.167	2166.9	generate	Run1	generate/STIM_002.jpg	99
70.135	2.22	2219.6	generate	Run1	generate/STIM_003.jpg	100
74.851	2.467	2467.1	generate	Run1	generate/STIM_003.jpg	100
80.596	1.188	1188.0	generate	Run1	generate/STIM_003.jpg	99
84.632	1.986	1986.4	generate	Run1	generate/STIM_003.jpg	99
90.428	1.005	1005.2	generate	Run1	generate/STIM_003.jpg	99
95.077	1.787	1786.7	generate	Run1	generate/STIM_004.jpg	100
98.873	1.143	1143.0	generate	Run1	generate/STIM_004.jpg	100
103.643	2.242	2241.6	generate	Run1	generate/STIM_004.jpg	100
109.185	1.969	1968.7	generate	Run1	generate/STIM_004.jpg	99
114.787	2.316	2315.6	generate	Run1	generate/STIM_004.jpg	99
119.575	1.278	1277.6	generate	Run1	generate/STIM_005.jpg	99
124.304	2.218	2217.5	generate	Run1	generate/STIM_005.jpg	99
129.585	2.035	2034.9	generate	Run1	generate/STIM_005.jpg	100
135.135	1.412	1411.5	generate	Run1	generate/STIM_005.jpg	100
140.304	1.764	1763.9	generate	Run1	generate/STIM_005.jpg	99
145.217	1.585	1584.8	generate	Run1	generate/STIM_006.jpg	99
150.359	1.199	1198.6	generate	Run1	generate/STIM_006.jpg	99
154.627	1.474	1474.1	generate	Run1	generate/STIM_006.jpg	100
159.223	2.318	2318.1	generate	Run1	generate/STIM_006.jpg	100
164.222	2.089	2089.2	generate	Run1	generate/STIM_006.jpg	99
168.848	2.898	2898.3	generate	Run1	generate/STIM_007.jpg	100
173.781	2.355	2355.1	generate	Run1	generate/STIM_007.jpg	100
179.487	2.356	2355.5	generate	Run1	generate/STIM_007.jpg	99
185.66	1.972	1972.0	generate	Run1	generate/STIM_007.jpg	99
190.25	0.998	998.1	generate	Run1	generate/STIM_007.jpg	100
194.869	2.017	2016.9	generate	Run1	generate/STIM_008.jpg	100
199.009	1.696	1696.1	generate	Run1	generate/STIM_008.jpg	100
203.461	1.912	1911.7	generate	Run1	generate/STIM_008.jpg	100
208.42	1.347	1346.8	generate	Run1	generate/STIM_008.jpg	99
212.037	1.763	1762.6	generate	Run1	generate/STIM_008.jpg	100
216.255	1.697	1697.0	generate	Run1	generate/STIM_009.jpg	99
221.62	1.158	1158.3	generate	Run1	generate/STIM_009.jpg	99
224.874	1.075	1075.4	generate	Run1	generate/STIM_009.jpg	99
229.195	1.881	1880.8	generate	Run1	generate/STIM_009.jpg	99
233.958	1.939	1939.3	generate	Run1	generate/STIM_009.jpg	99
238.061	2.608	2607.6	generate	Run1	generate/STIM_010.jpg	99
244.559	1.342	1342.5	generate	Run1	generate/STIM_010.jpg	100
249.574	2.337	2337.2	generate	Run1	generate/STIM_010.jpg	100
255.616	1.739	1739.1	generate	Run1	generate/STIM_010.jpg	100
259.434	1.199	1199.4	generate	Run1	generate/STIM_010.jpg	100
264.117	2.662	2662.4	generate	Run1	generate/STIM_011.jpg	99
270.529	2.623	2623.2	generate	Run1	generate/STIM_011.jpg	100
275.738	1.589	1589.0	generate	Run1	generate/STIM_011.jpg	99
279.825	1.37	1370.4	generate	Run1	generate/STIM_011.jpg	99
283.68	1.865	1865.3	generate	Run1	generate/STIM_011.jpg	99
287.735	2.043	2042.8	generate	Run1	generate/STIM_012.jpg	99
292.018	1.357	1356.6	generate	Run1	generate/STIM_012.jpg	100
297.078	1.343	1343.2	generate	Run1	generate/STIM_012.jpg	99
301.667	1.925	1924.8	generate	Run1	generate/STIM_012.jpg	100
306.371	1.283	1282.7	generate	Run1	generate/STIM_012.jpg	99
309.87	2.108	2108.0	generate	Run1	generate/STIM_013.jpg	100
314.041	1.994	1993.8	generate	Run1	generate/STIM_013.jpg	99
318.494	1.926	1926.1	generate	Run1	generate/STIM_013.jpg	100
324.289	1.482	1482.2	generate	Run1	generate/STIM_013.jpg	99
328.769	1.442	1441.7	generate	Run1	generate/STIM_013.jpg	100
333.068	2.245	2245.4	generate	Run1	generate/STIM_014.jpg	100
337.971	2.742	2742.5	generate	Run1	generate/STIM_014.jpg	99
344.11	1.59	1590.4	generate	Run1	generate/STIM_014.jpg	100
349.597	1.876	1876.2	generate	Run1	generate/STIM_014.jpg	100
354.706	1.366	1365.5	generate	Run1	generate/STIM_014.jpg	99
358.632	2.886	2885.5	generate	Run1	generate/STIM_015.jpg	100
363.75	2.2	2199.8	generate	Run1	generate/STIM_015.jpg	99
369.292	1.642	1641.6	generate	Run1	generate/STIM_015.jpg	100
373.784	1.436	1436.5	generate	Run1	generate/STIM_015.jpg	100
377.783	2.102	2101.6	generate	Run1	generate/STIM_015.jpg	99
382.098	2.403	2403.4	generate	Run1	generate/STIM_016.jpg	100
386.895	2.115	2114.6	generate	Run1	generate/STIM_016.jpg	99
392.306	1.085	1085.0	generate	Run1	generate/STIM_016.jpg	99
396.033	1.996	1995.6	generate	Run1	generate/STIM_016.jpg	99
400.774	1.999	1998.8	generate	Run1	generate/STIM_016.jpg	99
405.473	2.097	2097.3	generate	Run1	generate/STIM_017.jpg	100
410.143	1.411	1411.3	generate	Run1	generate/STIM_017.jpg	100
413.634	1.706	1706.2	generate	Run1	generate/STIM_017.jpg	99
417.911	1.867	1866.7	generate	Run1	generate/STIM_017.jpg	100
423.075	2.051	2050.9	generate	Run1	generate/STIM_017.jpg	100
427.648	2.737	2736.8	generate	Run1	generate/STIM_018.jpg	99
432.789	1.4	1399.8	generate	Run1	generate/STIM_018.jpg	100
437.81	1.868	1868.4	generate	Run1	generate/STIM_018.jpg	100
443.67	1.284	1284.4	generate	Run1	generate/STIM_018.jpg	100
448.088	1.399	1399.1	generate	Run1	generate/STIM_018.jpg	99
452.812	2.873	2872.7	generate	Run1	generate/STIM_019.jpg	100
458.037	1.397	1397.3	generate	Run1	generate/STIM_019.jpg	100
461.663	1.581	1580.9	generate	Run1	generate/STIM_019.jpg	100
465.429	1.79	1790.2	generate	Run1	generate/STIM_019.jpg	100
470.347	1.8	1799.8	generate	Run1	generate/STIM_019.jpg	99
474.191	2.488	2488.3	generate	Run1	generate/STIM_020.jpg	100
479.589	2.604	2603.7	generate	Run1	generate/STIM_020.jpg	99
485.518	1.627	1627.4	generate	Run1	generate/STIM_020.jpg	100
490.121	1.188	1187.7	generate	Run1	generate/STIM_020.jpg	100
495.003	2.026	2026.3	generate	Run1	generate/STIM_020.jpg	99
500.256	1.66	1659.5	generate	Run1	generate/STIM_021.jpg	99
504.34	2.381	2380.8	generate	Run1	generate/STIM_021.jpg	100
509.756	2.276	2276.0	generate	Run1	generate/STIM_021.jpg	99
514.875	2.309	2308.7	generate	Run1	generate/STIM_021.jpg	99
520.889	1.13	1129.8	generate	Run1	generate/STIM_021.jpg	100
524.6	2.29	2289.5	generate	Run1	generate/STIM_022.jpg	99
529.703	1.149	1149.3	generate	Run1	generate/STIM_022.jpg	99
533.538	1.269	1268.8	generate	Run1	generate/STIM_022.jpg	99
537.247	1.276	1275.9	generate	Run1	generate/STIM_022.jpg	100
542.276	1.596	1596.2	generate	Run1	generate/STIM_022.jpg	100
546.882	1.881	1881.4	generate	Run1	generate/STIM_023.jpg	100
551.096	1.276	1275.9	generate	Run1	generate/STIM_023.jpg	100
554.698	2.365	2364.6	generate	Run1	generate/STIM_023.jpg	99
560.418	1.165	1165.1	generate	Run1	generate/STIM_023.jpg	100
564.492	2.12	2119.6	generate	Run1	generate/STIM_023.jpg	99
569.703	2.261	2261.0	generate	Run1	generate/STIM_024.jpg	99
574.48	2.39	2390.1	generate	Run1	generate/STIM_024.jpg	100
579.158	1.17	1169.8	generate	Run1	generate/STIM_024.jpg	99
584.276	1.173	1172.9	generate	Run1	generate/STIM_024.jpg	100
587.557	2.145	2144.8	generate	Run1	generate/STIM_024.jpg	100
592.656	0.897	897.0	repeat	Run1	repeat/STIM_000.jpg	100
596.459	0.632	631.7	repeat	Run1	repeat/STIM_000.jpg	99
600.235	0.862	862.0	repeat	Run1	repeat/STIM_000.jpg	100
603.201	0.913	913.1	repeat	Run1	repeat/STIM_000.jpg	99
607.225	0.715	714.8	repeat	Run1	repeat/STIM_000.jpg	100
610.278	0.902	902.3	repeat	Run1	repeat/STIM_001.jpg	99
614.967	0.735	734.6	repeat	Run1	repeat/STIM_001.jpg	100
617.981	0.652	652.3	repeat	Run1	repeat/STIM_001.jpg	100
621.706	0.692	691.8	repeat	Run1	repeat/STIM_001.jpg	99
624.979	0.67	669.7	repeat	Run1	repeat/STIM_001.jpg	100
627.971	0.78	779.8	repeat	Run1	repeat/STIM_002.jpg	100
631.945	0.55	550.4	repeat	Run1	repeat/STIM_002.jpg	100
635.807	0.906	906.2	repeat	Run1	repeat/STIM_002.jpg	99
638.822	0.944	944.3	repeat	Run1	repeat/STIM_002.jpg	99
643.409	0.59	590.0	repeat	Run1	repeat/STIM_002.jpg	99
647.184	0.661	661.3	repeat	Run1	repeat/STIM_003.jpg	100
651.1	0.948	948.0	repeat	Run1	repeat/STIM_003.jpg	99
654.973	0.63	630.5	repeat	Run1	repeat/STIM_003.jpg	100
659.246	0.901	901.3	repeat	Run1	repeat/STIM_003.jpg	99
662.455	0.75	750.3	repeat	Run1	repeat/STIM_003.jpg	100
666.515	0.607	606.7	repeat	Run1	repeat/STIM_004.jpg	99
669.259	0.878	877.6	repeat	Run1	repeat/STIM_004.jpg	99
673.222	0.5	500.5	repeat	Run1	repeat/STIM_004.jpg	100
677.029	0.9	900.0	repeat	Run1	repeat/STIM_004.jpg	100
680.099	0.539	539.0	repeat	Run1	repeat/STIM_004.jpg	100
683.903	0.596	596.5	repeat	Run1	repeat/STIM_005.jpg	99
687.977	0.87	870.1	repeat	Run1	repeat/STIM_005.jpg	99
692.437	0.794	794.0	repeat	Run1	repeat/STIM_005.jpg	100
696.366	0.929	928.8	repeat	Run1	repeat/STIM_005.jpg	99
699.869	0.897	897.0	repeat	Run1	repeat/STIM_005.jpg	99
704.49	0.692	691.5	repeat	Run1	repeat/STIM_006.jpg	100
707.889	0.88	880.0	repeat	Run1	repeat/STIM_006.jpg	99
712.58	0.824	824.0	repeat	Run1	repeat/STIM_006.jpg	99
716.556	0.911	911.1	repeat	Run1	repeat/STIM_006.jpg	99
720.722	0.814	813.6	repeat	Run1	repeat/STIM_006.jpg	100
724.226	0.903	903.0	repeat	Run1	repeat/STIM_007.jpg	100
727.733	0.793	792.9	repeat	Run1	repeat/STIM_007.jpg	100
731.768	0.855	855.3	repeat	Run1	repeat/STIM_007.jpg	100
734.982	0.53	530.3	repeat	Run1	repeat/STIM_007.jpg	100
738.685	0.49	490.1	repeat	Run1	repeat/STIM_007.jpg	99
742.796	0.759	759.3	repeat	Run1	repeat/STIM_008.jpg	99
746.093	0.598	598.1	repeat	Run1	repeat/STIM_008.jpg	99
749.09	0.513	512.6	repeat	Run1	repeat/STIM_008.jpg	99
752.446	0.517	517.2	repeat	Run1	repeat/STIM_008.jpg	100
755.879	0.783	782.6	repeat	Run1	repeat/STIM_008.jpg	100
760.06	0.507	506.6	repeat	Run1	repeat/STIM_009.jpg	99
762.834	0.719	719.1	repeat	Run1	repeat/STIM_009.jpg	100
767.142	0.653	653.1	repeat	Run1	repeat/STIM_009.jpg	100
771.523	0.945	944.7	repeat	Run1	repeat/STIM_009.jpg	100
775.777	0.848	848.1	repeat	Run1	repeat/STIM_009.jpg	100
779.517	0.527	526.7	repeat	Run1	repeat/STIM_010.jpg	100
782.431	0.702	701.7	repeat	Run1	repeat/STIM_010.jpg	100
785.186	0.837	836.7	repeat	Run1	repeat/STIM_010.jpg	99
789.376	0.737	736.8	repeat	Run1	repeat/STIM_010.jpg	100
792.414	0.509	509.0	repeat	Run1	repeat/STIM_010.jpg	100
795.294	0.654	653.7	repeat	Run1	repeat/STIM_011.jpg	100
798.702	0.572	571.5	repeat	Run1	repeat/STIM_011.jpg	100
801.843	0.909	908.9	repeat	Run1	repeat/STIM_011.jpg	99
806.596	0.633	633.2	repeat	Run1	repeat/STIM_011.jpg	100
810.69	0.879	879.3	repeat	Run1	repeat/STIM_011.jpg	100
813.65	0.798	798.3	repeat	Run1	repeat/STIM_012.jpg	100
818.215	0.716	716.1	repeat	Run1	repeat/STIM_012.jpg	99
821.095	0.861	860.6	repeat	Run1	repeat/STIM_012.jpg	100
824.732	0.666	666.4	repeat	Run1	repeat/STIM_012.jpg	100
829.12	0.627	626.6	repeat	Run1	repeat/STIM_012.jpg	99
831.926	0.51	510.4	repeat	Run1	repeat/STIM_013.jpg	99
835.709	0.73	730.4	repeat	Run1	repeat/STIM_013.jpg	99
839.293	0.901	900.7	repeat	Run1	repeat/STIM_013.jpg	99
843.469	0.657	657.0	repeat	Run1	repeat/STIM_013.jpg	100
848.008	0.91	910.4	repeat	Run1	repeat/STIM_013.jpg	100
852.405	0.496	495.8	repeat	Run1	repeat/STIM_014.jpg	99
855.815	0.688	687.7	repeat	Run1	repeat/STIM_014.jpg	99
858.829	0.703	702.6	repeat	Run1	repeat/STIM_014.jpg	100
862.374	0.642	642.5	repeat	Run1	repeat/STIM_014.jpg	99
866.733	0.825	825.2	repeat	Run1	repeat/STIM_014.jpg	99
869.801	1.355	1354.6	generate	Run2	generate/STIM_000.jpg	100
874.309	1.51	1510.1	generate	Run2	generate/STIM_000.jpg	99
878.462	0.923	923.3	generate	Run2	generate/STIM_000.jpg	100
882.887	2.001	2001.0	generate	Run2	generate/STIM_000.jpg	100
888.695	0.817	816.6	generate	Run2	generate/STIM_000.jpg	100
892.819	2.444	2444.1	generate	Run2	generate/STIM_001.jpg	100
898.289	1.689	1689.0	generate	Run2	generate/STIM_001.jpg	100
902.109	1.085	1085.3	generate	Run2	generate/STIM_001.jpg	99
906.282	1.62	1620.0	generate	Run2	generate/STIM_001.jpg	99
910.176	1.317	1317.4	generate	Run2	generate/STIM_001.jpg	100
914.467	1.086	1086.2	generate	Run2	generate/STIM_002.jpg	100
918.281	1.089	1088.9	generate	Run2	generate/STIM_002.jpg	100
922.313	1.742	1742.2	generate	Run2	generate/STIM_002.jpg	100
927.68	0.843	843.4	generate	Run2	generate/STIM_002.jpg	100
931.462	1.531	1530.8	generate	Run2	generate/STIM_002.jpg	99
935.716	1.73	1730.2	generate	Run2	generate/STIM_003.jpg	100
939.792	1.819	1819.2	generate	Run2	generate/STIM_003.jpg	99
943.929	1.838	1838.0	generate	Run2	generate/STIM_003.jpg	99
947.983	1.787	1787.0	generate	Run2	generate/STIM_003.jpg	99
952.448	1.753	1753.0	generate	Run2	generate/STIM_003.jpg	99
957.564	1.745	1745.0	generate	Run2	generate/STIM_004.jpg	99
962.359	1.286	1285.5	generate	Run2	generate/STIM_004.jpg	100
965.847	1.036	1036.4	generate	Run2	generate/STIM_004.jpg	100
970.161	1.071	1070.9	generate	Run2	generate/STIM_004.jpg	100
974.037	0.851	851.0	generate	Run2	generate/STIM_004.jpg	99
978.883	1.209	1209.2	generate	Run2	generate/STIM_005.jpg	100
983.848	1.118	1118.3	generate	Run2	generate/STIM_005.jpg	100
988.777	0.883	883.0	generate	Run2	generate/STIM_005.jpg	99
992.327	1.364	1363.6	generate	Run2	generate/STIM_005.jpg	99
997.051	1.74	1739.7	generate	Run2	generate/STIM_005.jpg	99
1001.99	2.085	2085.2	generate	Run2	generate/STIM_006.jpg	100
1007.829	1.247	1246.7	generate	Run2	generate/STIM_006.jpg	99
1011.256	1.752	1751.8	generate	Run2	generate/STIM_006.jpg	99
1016.263	1.443	1443.4	generate	Run2	generate/STIM_006.jpg	99
1019.806	2.004	2003.7	generate	Run2	generate/STIM_006.jpg	100
1024.384	1.404	1404.1	generate	Run2	generate/STIM_007.jpg	99
1028.771	1.998	1998.3	generate	Run2	generate/STIM_007.jpg	99
1034.151	2.018	2017.7	generate	Run2	generate/STIM_007.jpg	100
1039.725	1.288	1288.4	generate	Run2	generate/STIM_007.jpg	100
1044.306	1.677	1677.4	generate	Run2	generate/STIM_007.jpg	99
1049.96	1.747	1747.3	generate	Run2	generate/STIM_008.jpg	99
1055.651	2.151	2150.9	generate	Run2	generate/STIM_008.jpg	99
1061.501	0.988	988.1	generate	Run2	generate/STIM_008.jpg	99
1065.905	1.187	1186.6	generate	Run2	generate/STIM_008.jpg	99
1069.404	1.97	1970.1	generate	Run2	generate/STIM_008.jpg	99
1074.405	1.326	1326.0	generate	Run2	generate/STIM_009.jpg	99
1078.374	1.995	1995.0	generate	Run2	generate/STIM_009.jpg	100
1082.582	0.986	985.5	generate	Run2	generate/STIM_009.jpg	99
1086.211	1.333	1332.6	generate	Run2	generate/STIM_009.jpg	99
1089.789	1.039	1039.1	generate	Run2	generate/STIM_009.jpg	100
1093.64	2.304	2303.7	generate	Run2	generate/STIM_010.jpg	100
1099.077	1.996	1995.5	generate	Run2	generate/STIM_010.jpg	100
1104.781	0.953	953.1	generate	Run2	generate/STIM_010.jpg	99
1109.7	1.889	1889.1	generate	Run2	generate/STIM_010.jpg	100
1115.349	0.97	970.4	generate	Run2	generate/STIM_010.jpg	100
1120.097	1.693	1693.4	generate	Run2	generate/STIM_011.jpg	99
1124.345	2.283	2282.8	generate	Run2	generate/STIM_011.jpg	100
1129.042	1.898	1898.5	generate	Run2	generate/STIM_011.jpg	99
1134.443	1.377	1377.3	generate	Run2	generate/STIM_011.jpg	99
1138.985	1.276	1275.9	generate	Run2	generate/STIM_011.jpg	99
1142.527	1.361	1361.4	generate	Run2	generate/STIM_012.jpg	99
1145.914	1.858	1858.2	generate	Run2	generate/STIM_012.jpg	100
1150.146	1.458	1458.3	generate	Run2	generate/STIM_012.jpg	99
1153.956	1.296	1295.9	generate	Run2	generate/STIM_012.jpg	99
1157.306	0.871	870.8	generate	Run2	generate/STIM_012.jpg	100
1161.333	1.71	1710.4	generate	Run2	generate/STIM_013.jpg	100
1165.596	1.067	1066.9	generate	Run2	generate/STIM_013.jpg	99
1169.909	0.886	885.9	generate	Run2	generate/STIM_013.jpg	100
1174.3	1.833	1833.4	generate	Run2	generate/STIM_013.jpg	99
1178.831	1.307	1307.4	generate	Run2	generate/STIM_013.jpg	100
1183.836	2.213	2213.3	generate	Run2	generate/STIM_014.jpg	100
1189.419	2.193	2193.2	generate	Run2	generate/STIM_014.jpg	99
1193.801	1.727	1727.1	generate	Run2	generate/STIM_014.jpg	99
1198.9	1.463	1463.4	generate	Run2	generate/STIM_014.jpg	100
1202.386	0.876	876.1	generate	Run2	generate/STIM_014.jpg	99
1205.598	1.936	1936.4	generate	Run2	generate/STIM_015.jpg	100
1211.376	1.893	1892.7	generate	Run2	generate/STIM_015.jpg	99
1217.23	1.519	1518.8	generate	Run2	generate/STIM_015.jpg	100
1221.452	1.595	1594.6	generate	Run2	generate/STIM_015.jpg	99
1226.487	1.497	1497.4	generate	Run2	generate/STIM_015.jpg	100
1231.57	1.669	1668.8	generate	Run2	generate/STIM_016.jpg	99
1236.958	1.681	1681.2	generate	Run2	generate/STIM_016.jpg	100
1240.732	1.192	1191.7	generate	Run2	generate/STIM_016.jpg	100
1245.102	1.585	1585.1	generate	Run2	generate/STIM_016.jpg	100
1249.449	0.992	992.4	generate	Run2	generate/STIM_016.jpg	99
1254.329	1.232	1231.8	generate	Run2	generate/STIM_017.jpg	100
1258.599	2.299	2298.7	generate	Run2	generate/STIM_017.jpg	99
1263.549	1.674	1673.5	generate	Run2	generate/STIM_017.jpg	100
1267.785	1.385	1385.0	generate	Run2	generate/STIM_017.jpg	100
1272.955	1.219	1219.4	generate	Run2	generate/STIM_017.jpg	100
1276.284	1.561	1561.3	generate	Run2	generate/STIM_018.jpg	99
1279.936	1.89	1889.5	generate	Run2	generate/STIM_018.jpg	99
1285.534	1.318	1318.0	generate	Run2	generate/STIM_018.jpg	100
1289.765	0.88	880.2	generate	Run2	generate/STIM_018.jpg	100
1292.959	0.875	875.4	generate	Run2	generate/STIM_018.jpg	100
1296.287	1.285	1284.8	generate	Run2	generate/STIM_019.jpg	100
1300.464	1.37	1369.7	generate	Run2	generate/STIM_019.jpg	99
1303.926	1.649	1649.0	generate	Run2	generate/STIM_019.jpg	99
1308.778	1.141	1141.1	generate	Run2	generate/STIM_019.jpg	100
1312.0	1.194	1194.2	generate	Run2	generate/STIM_019.jpg	99
1316.659	1.353	1353.1	generate	Run2	generate/STIM_020.jpg	100
1321.511	1.757	1756.8	generate	Run2	generate/STIM_020.jpg	99
1327.102	0.988	988.3	generate	Run2	generate/STIM_020.jpg	99
1331.559	1.67	1670.2	generate	Run2	generate/STIM_020.jpg	99
1335.432	0.962	962.0	generate	Run2	generate/STIM_020.jpg	99
1338.886	1.579	1578.6	generate	Run2	generate/STIM_021.jpg	100
1343.619	1.21	1210.1	generate	Run2	generate/STIM_021.jpg	100
1347.452	1.721	1720.9	generate	Run2	generate/STIM_021.jpg	100
1351.542	1.368	1368.0	generate	Run2	generate/STIM_021.jpg	99
1355.101	1.615	1614.9	generate	Run2	generate/STIM_021.jpg	100
1360.68	1.011	1011.4	generate	Run2	generate/STIM_022.jpg	99
1364.838	1.817	1816.8	generate	Run2	generate/STIM_022.jpg	99
1370.355	1.178	1177.7	generate	Run2	generate/STIM_022.jpg	99
1374.639	0.813	813.0	generate	Run2	generate/STIM_022.jpg	100
1378.81	1.592	1592.3	generate	Run2	generate/STIM_022.jpg	100
1383.337	1.54	1540.4	generate	Run2	generate/STIM_023.jpg	100
1386.968	1.01	1010.2	generate	Run2	generate/STIM_023.jpg	99
1390.141	1.754	1753.8	generate	Run2	generate/STIM_023.jpg	99
1395.697	1.814	1814.5	generate	Run2	generate/STIM_023.jpg	100
1400.828	0.86	859.5	generate	Run2	generate/STIM_023.jpg	100
1404.896	2.375	2375.0	generate	Run2	generate/STIM_024.jpg	99
1410.407	0.98	980.2	generate	Run2	generate/STIM_024.jpg	100
1414.136	1.974	1974.1	generate	Run2	generate/STIM_024.jpg	100
1419.964	1.711	1711.3	generate	Run2	generate/STIM_024.jpg	100
1425.239	1.486	1485.7	generate	Run2	generate/STIM_024.jpg	99
1428.831	0.767	767.2	repeat	Run2	repeat/STIM_000.jpg	100
1432.166	0.511	510.8	repeat	Run2	repeat/STIM_000.jpg	100
1436.52	0.836	835.8	repeat	Run2	repeat/STIM_000.jpg	100
1441.153	0.554	553.6	repeat	Run2	repeat/STIM_000.jpg	99
1444.025	0.62	620.0	repeat	Run2	repeat/STIM_000.jpg	99
1446.871	0.876	875.9	repeat	Run2	repeat/STIM_001.jpg	99
1450.24	0.498	497.7	repeat	Run2	repeat/STIM_001.jpg	100
1452.973	0.833	833.2	repeat	Run2	repeat/STIM_001.jpg	99
1456.255	0.545	545.0	repeat	Run2	repeat/STIM_001.jpg	100
1459.459	0.666	666.4	repeat	Run2	repeat/STIM_001.jpg	100
1463.595	0.764	763.9	repeat	Run2	repeat/STIM_002.jpg	99
1467.64	0.534	534.1	repeat	Run2	repeat/STIM_002.jpg	100
1472.005	0.955	955.1	repeat	Run2	repeat/STIM_002.jpg	100
1475.623	0.875	875.0	repeat	Run2	repeat/STIM_002.jpg	100
1479.175	0.577	576.8	repeat	Run2	repeat/STIM_002.jpg	99
1482.112	0.635	635.0	repeat	Run2	repeat/STIM_003.jpg	99
1485.052	0.954	953.5	repeat	Run2	repeat/STIM_003.jpg	100
1488.891	0.815	814.9	repeat	Run2	repeat/STIM_003.jpg	100
1491.828	0.516	516.5	repeat	Run2	repeat/STIM_003.jpg	99
1495.467	0.734	734.1	repeat	Run2	repeat/STIM_003.jpg	100
1499.474	0.766	765.8	repeat	Run2	repeat/STIM_004.jpg	99
1502.444	0.532	532.5	repeat	Run2	repeat/STIM_004.jpg	99
1505.607	0.687	687.1	repeat	Run2	repeat/STIM_004.jpg	100
1508.647	0.92	920.0	repeat	Run2	repeat/STIM_004.jpg	99
1511.587	0.826	826.3	repeat	Run2	repeat/STIM_004.jpg	100
1514.478	0.805	805.3	repeat	Run2	repeat/STIM_005.jpg	100
1518.828	0.839	839.1	repeat	Run2	repeat/STIM_005.jpg	99
1522.178	0.612	612.1	repeat	Run2	repeat/STIM_005.jpg	100
1525.472	0.845	845.1	repeat	Run2	repeat/STIM_005.jpg	99
1529.963	0.89	890.5	repeat	Run2	repeat/STIM_005.jpg	100
1533.81	0.84	840.1	repeat	Run2	repeat/STIM_006.jpg	99
1537.717	0.504	504.3	repeat	Run2	repeat/STIM_006.jpg	100
1541.816	0.543	543.0	repeat	Run2	repeat/STIM_006.jpg	100
1545.139	0.77	770.5	repeat	Run2	repeat/STIM_006.jpg	99
1549.427	0.579	579.2	repeat	Run2	repeat/STIM_006.jpg	99
1553.318	0.851	850.8	repeat	Run2	repeat/STIM_007.jpg	100
1557.981	0.885	885.1	repeat	Run2	repeat/STIM_007.jpg	99
1561.445	0.834	834.4	repeat	Run2	repeat/STIM_007.jpg	100
1565.39	0.801	801.3	repeat	Run2	repeat/STIM_007.jpg	99
1569.711	0.775	774.6	repeat	Run2	repeat/STIM_007.jpg	99
1572.917	0.809	809.1	repeat	Run2	repeat/STIM_008.jpg	100
1577.688	0.848	847.5	repeat	Run2	repeat/STIM_008.jpg	100
1581.504	0.863	863.4	repeat	Run2	repeat/STIM_008.jpg	99
1584.723	0.618	617.9	repeat	Run2	repeat/STIM_008.jpg	100
1587.474	0.863	863.4	repeat	Run2	repeat/STIM_008.jpg	100
1592.249	0.758	757.8	repeat	Run2	repeat/STIM_009.jpg	99
1595.55	0.706	705.6	repeat	Run2	repeat/STIM_009.jpg	100
1599.688	0.797	796.9	repeat	Run2	repeat/STIM_009.jpg	100
1603.309	0.69	689.8	repeat	Run2	repeat/STIM_009.jpg	99
1606.273	0.681	681.0	repeat	Run2	repeat/STIM_009.jpg	100
1609.053	0.966	965.6	repeat	Run2	repeat/STIM_010.jpg	99
1612.097	0.628	627.5	repeat	Run2	repeat/STIM_010.jpg	99
1615.556	0.53	530.4	repeat	Run2	repeat/STIM_010.jpg	99
1618.278	0.729	728.8	repeat	Run2	repeat/STIM_010.jpg	99
1622.947	0.641	641.4	repeat	Run2	repeat/STIM_010.jpg	100
1626.253	0.911	911.3	repeat	Run2	repeat/STIM_011.jpg	100
1629.5	0.828	827.6	repeat	Run2	repeat/STIM_011.jpg	100
1632.465	0.867	866.6	repeat	Run2	repeat/STIM_011.jpg	99
1635.734	0.66	660.2	repeat	Run2	repeat/STIM_011.jpg	100
1639.722	0.509	509.2	repeat	Run2	repeat/STIM_011.jpg	100
1644.069	0.909	908.9	repeat	Run2	repeat/STIM_012.jpg	99
1647.918	0.642	641.8	repeat	Run2	repeat/STIM_012.jpg	100
1650.672	0.871	871.3	repeat	Run2	repeat/STIM_012.jpg	99
1655.507	0.501	501.2	repeat	Run2	repeat/STIM_012.jpg	100
1659.4	0.872	871.7	repeat	Run2	repeat/STIM_012.jpg	99
1663.203	0.648	648.4	repeat	Run2	repeat/STIM_013.jpg	99
1667.259	0.644	643.5	repeat	Run2	repeat/STIM_013.jpg	99
1671.48	0.683	682.9	repeat	Run2	repeat/STIM_013.jpg	99
1674.469	0.946	946.0	repeat	Run2	repeat/STIM_013.jpg	99
1679.343	0.94	939.7	repeat	Run2	repeat/STIM_013.jpg	100
1683.276	0.518	518.4	repeat	Run2	repeat/STIM_014.jpg	99
1686.16	0.818	818.4	repeat	Run2	repeat/STIM_014.jpg	99
1690.466	0.832	832.0	repeat	Run2	repeat/STIM_014.jpg	99
1693.698	0.558	558.3	repeat	Run2	repeat/STIM_014.jpg	100
1696.569	0.923	923.4	repeat	Run2	repeat/STIM_014.jpg	99
1699.586	1.837	1837.3	generate	Run3	generate/STIM_000.jpg	100
1703.9	1.875	1874.6	generate	Run3	generate/STIM_000.jpg	99
1707.824	1.983	1982.7	generate	Run3	generate/STIM_000.jpg	100
1712.69	1.112	1111.8	generate	Run3	generate/STIM_000.jpg	100
1717.26	1.091	1090.8	generate	Run3	generate/STIM_000.jpg	100
1721.607	1.889	1888.9	generate	Run3	generate/STIM_001.jpg	99
1725.787	1.835	1835.1	generate	Run3	generate/STIM_001.jpg	99
1730.541	1.748	1748.1	generate	Run3	generate/STIM_001.jpg	100
1735.744	0.938	938.3	generate	Run3	generate/STIM_001.jpg	99
1739.083	1.591	1591.1	generate	Run3	generate/STIM_001.jpg	99
1744.62	1.966	1965.8	generate	Run3	generate/STIM_002.jpg	100
1749.963	0.895	895.1	generate	Run3	generate/STIM_002.jpg	100
1753.298	2.013	2013.4	generate	Run3	generate/STIM_002.jpg	100
1758.589	1.394	1394.2	generate	Run3	generate/STIM_002.jpg	99
1762.495	1.495	1495.2	generate	Run3	generate/STIM_002.jpg	100
1767.34	1.282	1281.6	generate	Run3	generate/STIM_003.jpg	100
1771.309	1.515	1514.9	generate	Run3	generate/STIM_003.jpg	99
1775.409	1.29	1290.1	generate	Run3	generate/STIM_003.jpg	99
1779.151	1.368	1367.8	generate	Run3	generate/STIM_003.jpg	100
1783.08	0.952	952.0	generate	Run3	generate/STIM_003.jpg	99
1786.423	1.162	1162.0	generate	Run3	generate/STIM_004.jpg	100
1789.832	1.711	1710.7	generate	Run3	generate/STIM_004.jpg	100
1794.101	0.996	995.5	generate	Run3	generate/STIM_004.jpg	100
1797.922	1.575	1574.6	generate	Run3	generate/STIM_004.jpg	100
1803.045	1.225	1224.6	generate	Run3	generate/STIM_004.jpg	99
1806.42	1.296	1295.8	generate	Run3	generate/STIM_005.jpg	99
1809.922	1.577	1577.4	generate	Run3	generate/STIM_005.jpg	99
1814.573	0.85	850.2	generate	Run3	generate/STIM_005.jpg	100
1818.784	1.676	1676.2	generate	Run3	generate/STIM_005.jpg	100
1823.335	1.239	1239.2	generate	Run3	generate/STIM_005.jpg	100
1828.185	2.023	2023.5	generate	Run3	generate/STIM_006.jpg	99
1833.628	1.16	1160.4	generate	Run3	generate/STIM_006.jpg	100
1837.253	1.641	1641.1	generate	Run3	generate/STIM_006.jpg	99
1842.699	1.539	1538.8	generate	Run3	generate/STIM_006.jpg	100
1847.07	1.234	1234.0	generate	Run3	generate/STIM_006.jpg	99
1851.922	1.103	1102.8	generate	Run3	generate/STIM_007.jpg	99
1857.016	1.271	1270.6	generate	Run3	generate/STIM_007.jpg	99
1860.84	0.907	907.4	generate	Run3	generate/STIM_007.jpg	100
1865.313	1.805	1805.4	generate	Run3	generate/STIM_007.jpg	100
1870.258	0.995	995.2	generate	Run3	generate/STIM_007.jpg	99
1874.661	1.007	1006.7	generate	Run3	generate/STIM_008.jpg	100
1879.626	2.023	2023.5	generate	Run3	generate/STIM_008.jpg	100
1885.478	1.548	1548.1	generate	Run3	generate/STIM_008.jpg	99
1889.493	2.023	2022.9	generate	Run3	generate/STIM_008.jpg	100
1894.33	1.52	1519.7	generate	Run3	generate/STIM_008.jpg	100
1898.318	1.913	1913.4	generate	Run3	generate/STIM_009.jpg	99
1903.471	1.558	1557.7	generate	Run3	generate/STIM_009.jpg	99
1907.357	1.612	1611.8	generate	Run3	generate/STIM_009.jpg	99
1912.435	0.916	915.7	generate	Run3	generate/STIM_009.jpg	100
1917.114	1.574	1574.5	generate	Run3	generate/STIM_009.jpg	99
1921.321	1.963	1963.2	generate	Run3	generate/STIM_010.jpg	100
1927.206	1.018	1018.1	generate	Run3	generate/STIM_010.jpg	99
1930.592	1.963	1962.8	generate	Run3	generate/STIM_010.jpg	100
1934.988	1.277	1276.8	generate	Run3	generate/STIM_010.jpg	99
1939.876	1.644	1643.7	generate	Run3	generate/STIM_010.jpg	99
1945.061	1.235	1235.4	generate	Run3	generate/STIM_011.jpg	99
1949.983	1.863	1862.8	generate	Run3	generate/STIM_011.jpg	100
1954.079	1.748	1748.1	generate	Run3	generate/STIM_011.jpg	99
1959.576	0.813	813.1	generate	Run3	generate/STIM_011.jpg	99
1963.17	1.703	1703.3	generate	Run3	generate/STIM_011.jpg	99
1967.969	0.892	892.4	generate	Run3	generate/STIM_012.jpg	99
1971.65	1.5	1499.5	generate	Run3	generate/STIM_012.jpg	99
1976.111	1.564	1563.9	generate	Run3	generate/STIM_012.jpg	100
1979.698	1.497	1497.4	generate	Run3	generate/STIM_012.jpg	100
1984.022	1.977	1976.9	generate	Run3	generate/STIM_012.jpg	100
1988.029	1.46	1459.9	generate	Run3	generate/STIM_013.jpg	99
1993.081	1.593	1593.0	generate	Run3	generate/STIM_013.jpg	100
1998.057	1.328	1327.5	generate	Run3	generate/STIM_013.jpg	99
2002.431	1.225	1225.3	generate	Run3	generate/STIM_013.jpg	100
2006.987	2.009	2009.4	generate	Run3	generate/STIM_013.jpg	100
2011.578	1.139	1139.1	generate	Run3	generate/STIM_014.jpg	99
2015.419	1.254	1254.0	generate	Run3	generate/STIM_014.jpg	99
2019.342	1.916	1916.5	generate	Run3	generate/STIM_014.jpg	99
2024.477	1.332	1332.0	generate	Run3	generate/STIM_014.jpg	100
2029.22	0.844	844.4	generate	Run3	generate/STIM_014.jpg	99
2032.067	1.923	1922.9	generate	Run3	generate/STIM_015.jpg	99
2036.034	1.453	1453.2	generate	Run3	generate/STIM_015.jpg	99
2039.672	1.407	1407.1	generate	Run3	generate/STIM_015.jpg	100
2044.452	0.864	864.0	generate	Run3	generate/STIM_015.jpg	100
2048.7	1.26	1259.9	generate	Run3	generate/STIM_015.jpg	99
2052.419	1.606	1606.2	generate	Run3	generate/STIM_016.jpg	99
2056.185	1.284	1283.7	generate	Run3	generate/STIM_016.jpg	99
2060.02	1.865	1865.0	generate	Run3	generate/STIM_016.jpg	100
2065.16	1.407	1407.4	generate	Run3	generate/STIM_016.jpg	100
2070.217	1.061	1060.6	generate	Run3	generate/STIM_016.jpg	99
2073.504	1.408	1408.0	generate	Run3	generate/STIM_017.jpg	100
2078.43	0.867	867.4	generate	Run3	generate/STIM_017.jpg	100
2081.935	1.008	1007.6	generate	Run3	generate/STIM_017.jpg	99
2084.986	1.916	1916.5	generate	Run3	generate/STIM_017.jpg	100
2090.442	1.542	1542.4	generate	Run3	generate/STIM_017.jpg	100
2094.92	1.241	1240.6	generate	Run3	generate/STIM_018.jpg	99
2098.932	1.564	1564.5	generate	Run3	generate/STIM_018.jpg	99
2103.199	1.938	1937.9	generate	Run3	generate/STIM_018.jpg	100
2108.518	1.099	1099.1	generate	Run3	generate/STIM_018.jpg	99
2112.331	1.84	1839.9	generate	Run3	generate/STIM_018.jpg	100
2118.15	0.99	990.4	generate	Run3	generate/STIM_019.jpg	100
2123.087	1.45	1450.3	generate	Run3	generate/STIM_019.jpg	99
2127.345	1.694	1694.1	generate	Run3	generate/STIM_019.jpg	100
2132.898	1.755	1755.4	generate	Run3	generate/STIM_019.jpg	99
2138.566	1.84	1840.3	generate	Run3	generate/STIM_019.jpg	99
2144.387	1.878	1877.6	generate	Run3	generate/STIM_020.jpg	100
2149.49	1.805	1805.1	generate	Run3	generate/STIM_020.jpg	100
2154.349	1.076	1075.5	generate	Run3	generate/STIM_020.jpg	99
2158.278	1.228	1228.1	generate	Run3	generate/STIM_020.jpg	99
2162.548	0.84	840.3	generate	Run3	generate/STIM_020.jpg	99
2167.229	1.593	1592.6	generate	Run3	generate/STIM_021.jpg	99
2172.186	0.935	935.2	generate	Run3	generate/STIM_021.jpg	99
2176.976	1.129	1129.1	generate	Run3	generate/STIM_021.jpg	100
2181.581	0.948	948.2	generate	Run3	generate/STIM_021.jpg	99
2185.446	1.75	1750.1	generate	Run3	generate/STIM_021.jpg	100
2189.269	1.239	1238.8	generate	Run3	generate/STIM_022.jpg	100
2192.712	1.768	1768.5	generate	Run3	generate/STIM_022.jpg	100
2198.21	1.083	1083.1	generate	Run3	generate/STIM_022.jpg	99
2202.955	1.694	1694.2	generate	Run3	generate/STIM_022.jpg	100
2207.76	1.782	1781.6	generate	Run3	generate/STIM_022.jpg	99
2213.161	1.621	1620.7	generate	Run3	generate/STIM_023.jpg	99
2218.566	1.587	1586.8	generate	Run3	generate/STIM_023.jpg	100
2222.89	2.022	2021.8	generate	Run3	generate/STIM_023.jpg	100
2228.068	1.215	1214.8	generate	Run3	generate/STIM_023.jpg	99
2231.664	2.009	2009.2	generate	Run3	generate/STIM_023.jpg	100
2236.353	1.882	1882.1	generate	Run3	generate/STIM_024.jpg	99
2241.051	1.973	1973.0	generate	Run3	generate/STIM_024.jpg	100
2245.185	0.938	938.2	generate	Run3	generate/STIM_024.jpg	100
2249.266	1.81	1810.1	generate	Run3	generate/STIM_024.jpg	100
2253.261	1.767	1766.6	generate	Run3	generate/STIM_024.jpg	99
2258.317	0.926	925.8	repeat	Run3	repeat/STIM_000.jpg	100
2261.699	0.501	501.1	repeat	Run3	repeat/STIM_000.jpg	100
2264.642	0.491	491.0	repeat	Run3	repeat/STIM_000.jpg	100
2269.001	0.81	809.9	repeat	Run3	repeat/STIM_000.jpg	100
2272.532	0.85	849.6	repeat	Run3	repeat/STIM_000.jpg	99
2276.021	0.485	484.6	repeat	Run3	repeat/STIM_001.jpg	99
2280.454	0.571	571.1	repeat	Run3	repeat/STIM_001.jpg	100
2284.046	0.904	904.2	repeat	Run3	repeat/STIM_001.jpg	99
2287.108	0.74	739.5	repeat	Run3	repeat/STIM_001.jpg	100
2289.998	0.938	937.6	repeat	Run3	repeat/STIM_001.jpg	100
2294.595	0.894	894.1	repeat	Run3	repeat/STIM_002.jpg	100
2298.289	0.709	709.0	repeat	Run3	repeat/STIM_002.jpg	99
2301.942	0.54	539.9	repeat	Run3	repeat/STIM_002.jpg	99
2305.075	0.522	521.9	repeat	Run3	repeat/STIM_002.jpg	100
2309.178	0.951	951.3	repeat	Run3	repeat/STIM_002.jpg	99
2312.33	0.567	567.3	repeat	Run3	repeat/STIM_003.jpg	99
2315.596	0.829	829.4	repeat	Run3	repeat/STIM_003.jpg	99
2319.158	0.836	836.3	repeat	Run3	repeat/STIM_003.jpg	100
2322.451	0.62	619.9	repeat	Run3	repeat/STIM_003.jpg	100
2325.717	0.53	530.2	repeat	Run3	repeat/STIM_003.jpg	99
2328.794	0.506	506.0	repeat	Run3	repeat/STIM_004.jpg	100
2331.64	0.709	709.3	repeat	Run3	repeat/STIM_004.jpg	100
2336.198	0.727	727.4	repeat	Run3	repeat/STIM_004.jpg	99
2340.699	0.638	638.0	repeat	Run3	repeat/STIM_004.jpg	99
2344.744	0.903	902.9	repeat	Run3	repeat/STIM_004.jpg	99
2348.799	0.762	762.0	repeat	Run3	repeat/STIM_005.jpg	100
2352.679	0.564	564.1	repeat	Run3	repeat/STIM_005.jpg	99
2356.652	0.946	945.7	repeat	Run3	repeat/STIM_005.jpg	100
2359.684	0.85	849.5	repeat	Run3	repeat/STIM_005.jpg	100
2362.949	0.938	938.0	repeat	Run3	repeat/STIM_005.jpg	99
2366.779	0.891	890.8	repeat	Run3	repeat/STIM_006.jpg	100
2371.278	0.548	548.3	repeat	Run3	repeat/STIM_006.jpg	99
2375.342	0.623	623.1	repeat	Run3	repeat/STIM_006.jpg	100
2378.09	0.665	664.6	repeat	Run3	repeat/STIM_006.jpg	100
2381.155	0.589	588.8	repeat	Run3	repeat/STIM_006.jpg	99
2384.173	0.751	751.0	repeat	Run3	repeat/STIM_007.jpg	99
2388.015	0.939	939.0	repeat	Run3	repeat/STIM_007.jpg	99
2391.789	0.829	828.6	repeat	Run3	repeat/STIM_007.jpg	100
2395.049	0.933	933.0	repeat	Run3	repeat/STIM_007.jpg	100
2399.501	0.912	912.0	repeat	Run3	repeat/STIM_007.jpg	100
2404.161	0.951	951.1	repeat	Run3	repeat/STIM_008.jpg	99
2407.719	0.807	807.0	repeat	Run3	repeat/STIM_008.jpg	99
2411.419	0.669	669.2	repeat	Run3	repeat/STIM_008.jpg	100
2414.436	0.839	839.4	repeat	Run3	repeat/STIM_008.jpg	99
2419.196	0.86	859.6	repeat	Run3	repeat/STIM_008.jpg	100
2423.078	0.538	537.9	repeat	Run3	repeat/STIM_009.jpg	99
2426.354	0.593	593.4	repeat	Run3	repeat/STIM_009.jpg	100
2429.992	0.795	794.8	repeat	Run3	repeat/STIM_009.jpg	99
2433.479	0.672	671.5	repeat	Run3	repeat/STIM_009.jpg	99
2437.822	0.671	670.9	repeat	Run3	repeat/STIM_009.jpg	99
2440.93	0.908	907.8	repeat	Run3	repeat/STIM_010.jpg	100
2445.098	0.52	520.4	repeat	Run3	repeat/STIM_010.jpg	99
2448.671	0.543	543.2	repeat	Run3	repeat/STIM_010.jpg	100
2453.061	0.501	500.7	repeat	Run3	repeat/STIM_010.jpg	100
2456.723	0.883	883.3	repeat	Run3	repeat/STIM_010.jpg	99
2459.996	0.8	800.3	repeat	Run3	repeat/STIM_011.jpg	100
2464.179	0.582	582.2	repeat	Run3	repeat/STIM_011.jpg	99
2468.488	0.734	734.4	repeat	Run3	repeat/STIM_011.jpg	100
2473.046	0.853	852.6	repeat	Run3	repeat/STIM_011.jpg	100
2477.466	0.712	711.8	repeat	Run3	repeat/STIM_011.jpg	100
2481.32	0.743	743.4	repeat	Run3	repeat/STIM_012.jpg	99
2485.76	0.627	627.2	repeat	Run3	repeat/STIM_012.jpg	99
2490.284	0.736	736.2	repeat	Run3	repeat/STIM_012.jpg	100
2493.671	0.685	684.7	repeat	Run3	repeat/STIM_012.jpg	100
2498.133	0.912	911.5	repeat	Run3	repeat/STIM_012.jpg	99
2501.31	0.77	770.0	repeat	Run3	repeat/STIM_013.jpg	99
2505.575	0.862	861.6	repeat	Run3	repeat/STIM_013.jpg	100
2508.6	0.922	922.0	repeat	Run3	repeat/STIM_013.jpg	99
2511.696	0.704	704.1	repeat	Run3	repeat/STIM_013.jpg	100
2514.78	0.498	497.8	repeat	Run3	repeat/STIM_013.jpg	100
2518.683	0.858	857.9	repeat	Run3	repeat/STIM_014.jpg	99
2521.656	0.951	951.1	repeat	Run3	repeat/STIM_014.jpg	99
2526.413	0.661	660.6	repeat	Run3	repeat/STIM_014.jpg	99
2529.51	0.845	845.1	repeat	Run3	repeat/STIM_014.jpg	100
2534.218	0.52	520.2	repeat	Run3	repeat/STIM_014.jpg	99
2538.277	0.978	978.2	generate	Run4	generate/STIM_000.jpg	99
2541.977	1.502	1501.6	generate	Run4	generate/STIM_000.jpg	99
2547.285	1.934	1934.2	generate	Run4	generate/STIM_000.jpg	100
2551.512	1.92	1920.3	generate	Run4	generate/STIM_000.jpg	100
2556.391	1.227	1226.9	generate	Run4	generate/STIM_000.jpg	99
2560.698	1.641	1640.6	generate	Run4	generate/STIM_001.jpg	100
2564.456	1.631	1630.7	generate	Run4	generate/STIM_001.jpg	100
2568.891	1.077	1076.9	generate	Run4	generate/STIM_001.jpg	99
2573.219	1.3	1299.7	generate	Run4	generate/STIM_001.jpg	99
2576.697	1.694	1693.7	generate	Run4	generate/STIM_001.jpg	99
2580.912	1.367	1366.7	generate	Run4	generate/STIM_002.jpg	100
2585.642	1.293	1292.7	generate	Run4	generate/STIM_002.jpg	100
2589.216	1.796	1795.9	generate	Run4	generate/STIM_002.jpg	100
2594.27	1.212	1212.5	generate	Run4	generate/STIM_002.jpg	100
2599.358	2.028	2027.6	generate	Run4	generate/STIM_002.jpg	99
2603.624	1.572	1572.3	generate	Run4	generate/STIM_003.jpg	99
2609.16	0.845	844.8	generate	Run4	generate/STIM_003.jpg	99
2613.368	1.571	1571.3	generate	Run4	generate/STIM_003.jpg	100
2618.146	1.297	1296.7	generate	Run4	generate/STIM_003.jpg	99
2622.956	1.975	1975.2	generate	Run4	generate/STIM_003.jpg	99
2628.59	1.252	1252.5	generate	Run4	generate/STIM_004.jpg	99
2632.995	1.317	1317.0	generate	Run4	generate/STIM_004.jpg	100
2636.963	1.448	1448.4	generate	Run4	generate/STIM_004.jpg	100
2641.026	1.757	1757.0	generate	Run4	generate/STIM_004.jpg	99
2646.092	1.045	1044.8	generate	Run4	generate/STIM_004.jpg	99
2649.51	1.988	1988.3	generate	Run4	generate/STIM_005.jpg	99
2653.838	1.574	1574.0	generate	Run4	generate/STIM_005.jpg	100
2657.861	0.858	858.3	generate	Run4	generate/STIM_005.jpg	99
2661.798	1.253	1253.1	generate	Run4	generate/STIM_005.jpg	99
2666.533	1.183	1182.8	generate	Run4	generate/STIM_005.jpg	99
2671.127	0.958	958.4	generate	Run4	generate/STIM_006.jpg	99
2676.055	0.864	864.3	generate	Run4	generate/STIM_006.jpg	99
2679.769	2.03	2030.0	generate	Run4	generate/STIM_006.jpg	100
2685.16	1.48	1480.5	generate	Run4	generate/STIM_006.jpg	99
2689.286	1.397	1397.2	generate	Run4	generate/STIM_006.jpg	100
2694.529	1.996	1996.4	generate	Run4	generate/STIM_007.jpg	100
2698.992	1.392	1392.1	generate	Run4	generate/STIM_007.jpg	100
2703.974	1.592	1592.1	generate	Run4	generate/STIM_007.jpg	99
2708.913	1.377	1377.1	generate	Run4	generate/STIM_007.jpg	100
2712.306	1.953	1953.4	generate	Run4	generate/STIM_007.jpg	99
2716.917	0.881	880.6	generate	Run4	generate/STIM_008.jpg	99
2719.891	1.207	1206.9	generate	Run4	generate/STIM_008.jpg	100
2723.12	1.101	1101.2	generate	Run4	generate/STIM_008.jpg	99
2727.8	1.886	1885.6	generate	Run4	generate/STIM_008.jpg	100
2733.248	1.324	1324.0	generate	Run4	generate/STIM_008.jpg	100
2736.593	1.822	1821.9	generate	Run4	generate/STIM_009.jpg	99
2741.001	1.423	1423.1	generate	Run4	generate/STIM_009.jpg	99
2745.631	1.879	1879.2	generate	Run4	generate/STIM_009.jpg	99
2750.465	1.351	1351.3	generate	Run4	generate/STIM_009.jpg	99
2754.592	0.947	946.8	generate	Run4	generate/STIM_009.jpg	99
2758.699	1.536	1536.0	generate	Run4	generate/STIM_010.jpg	99
2762.91	1.035	1035.2	generate	Run4	generate/STIM_010.jpg	99
2766.151	1.338	1337.8	generate	Run4	generate/STIM_010.jpg	99
2770.821	1.632	1632.3	generate	Run4	generate/STIM_010.jpg	99
2775.362	1.338	1338.2	generate	Run4	generate/STIM_010.jpg	100
2779.279	1.775	1775.3	generate	Run4	generate/STIM_011.jpg	99
2783.354	1.648	1647.5	generate	Run4	generate/STIM_011.jpg	99
2788.131	1.38	1380.3	generate	Run4	generate/STIM_011.jpg	99
2791.659	1.961	1960.6	generate	Run4	generate/STIM_011.jpg	99
2797.529	1.784	1783.6	generate	Run4	generate/STIM_011.jpg	100
2802.528	1.285	1284.7	generate	Run4	generate/STIM_012.jpg	99
2807.806	1.578	1578.4	generate	Run4	generate/STIM_012.jpg	99
2812.625	1.264	1264.5	generate	Run4	generate/STIM_012.jpg	100
2816.393	1.323	1323.0	generate	Run4	generate/STIM_012.jpg	99
2820.087	1.867	1866.6	generate	Run4	generate/STIM_012.jpg	100
2824.275	0.953	953.1	generate	Run4	generate/STIM_013.jpg	99
2827.743	1.089	1088.8	generate	Run4	generate/STIM_013.jpg	100
2832.556	1.409	1409.2	generate	Run4	generate/STIM_013.jpg	100
2836.583	1.167	1167.4	generate	Run4	generate/STIM_013.jpg	100
2840.746	1.339	1339.2	generate	Run4	generate/STIM_013.jpg	99
2844.57	1.866	1866.3	generate	Run4	generate/STIM_014.jpg	100
2848.518	1.446	1446.5	generate	Run4	generate/STIM_014.jpg	99
2852.44	1.291	1291.2	generate	Run4	generate/STIM_014.jpg	99
2856.04	1.013	1013.3	generate	Run4	generate/STIM_014.jpg	100
2859.834	1.559	1559.0	generate	Run4	generate/STIM_014.jpg	99
2864.221	1.77	1770.3	generate	Run4	generate/STIM_015.jpg	99
2869.731	1.808	1808.3	generate	Run4	generate/STIM_015.jpg	99
2875.119	1.543	1542.8	generate	Run4	generate/STIM_015.jpg	100
2880.561	1.554	1554.3	generate	Run4	generate/STIM_015.jpg	100
2885.067	1.974	1974.1	generate	Run4	generate/STIM_015.jpg	99
2889.998	1.719	1719.4	generate	Run4	generate/STIM_016.jpg	100
2894.089	1.288	1287.8	generate	Run4	generate/STIM_016.jpg	99
2898.574	1.687	1687.0	generate	Run4	generate/STIM_016.jpg	100
2904.015	1.142	1142.5	generate	Run4	generate/STIM_016.jpg	100
2907.373	0.932	932.5	generate	Run4	generate/STIM_016.jpg	99
2910.478	1.146	1146.0	generate	Run4	generate/STIM_017.jpg	100
2914.716	1.017	1016.7	generate	Run4	generate/STIM_017.jpg	99
2919.431	1.449	1449.2	generate	Run4	generate/STIM_017.jpg	100
2923.787	1.25	1249.7	generate	Run4	generate/STIM_017.jpg	100
2928.642	1.414	1414.5	generate	Run4	generate/STIM_017.jpg	99
2933.829	1.546	1546.2	generate	Run4	generate/STIM_018.jpg	99
2938.327	1.638	1638.4	generate	Run4	generate/STIM_018.jpg	100
2943.939	1.165	1164.9	generate	Run4	generate/STIM_018.jpg	99
2948.374	1.799	1798.9	generate	Run4	generate/STIM_018.jpg	99
2953.214	0.904	904.2	generate	Run4	generate/STIM_018.jpg	100
2957.476	1.35	1350.4	generate	Run4	generate/STIM_019.jpg	100
2961.783	1.414	1414.2	generate	Run4	generate/STIM_019.jpg	100
2966.087	0.823	822.6	generate	Run4	generate/STIM_019.jpg	99
2969.064	1.143	1143.4	generate	Run4	generate/STIM_019.jpg	99
2972.923	1.166	1166.3	generate	Run4	generate/STIM_019.jpg	99
2976.294	1.508	1508.2	generate	Run4	generate/STIM_020.jpg	100
2981.716	1.091	1090.9	generate	Run4	generate/STIM_020.jpg	99
2986.401	1.598	1597.7	generate	Run4	generate/STIM_020.jpg	100
2990.323	1.25	1249.6	generate	Run4	generate/STIM_020.jpg	100
2995.075	0.924	924.2	generate	Run4	generate/STIM_020.jpg	99
2999.21	1.449	1448.7	generate	Run4	generate/STIM_021.jpg	100
3002.96	0.984	984.3	generate	Run4	generate/STIM_021.jpg	99
3007.877	1.332	1331.6	generate	Run4	generate/STIM_021.jpg	99
3012.682	1.694	1693.9	generate	Run4	generate/STIM_021.jpg	100
3016.704	2.022	2021.9	generate	Run4	generate/STIM_021.jpg	99
3021.325	1.901	1901.2	generate	Run4	generate/STIM_022.jpg	100
3027.049	0.818	817.7	generate	Run4	generate/STIM_022.jpg	100
3031.179	0.949	949.2	generate	Run4	generate/STIM_022.jpg	99
3035.304	2.019	2018.7	generate	Run4	generate/STIM_022.jpg	99
3039.757	1.477	1477.1	generate	Run4	generate/STIM_022.jpg	100
3044.786	0.849	848.9	generate	Run4	generate/STIM_023.jpg	99
3049.221	1.775	1774.7	generate	Run4	generate/STIM_023.jpg	99
3053.705	1.588	1587.6	generate	Run4	generate/STIM_023.jpg	99
3058.425	1.433	1432.7	generate	Run4	generate/STIM_023.jpg	100
3063.131	1.173	1172.7	generate	Run4	generate/STIM_023.jpg	99
3066.396	1.661	1660.7	generate	Run4	generate/STIM_024.jpg	99
3070.876	1.06	1060.4	generate	Run4	generate/STIM_024.jpg	99
3074.295	1.539	1539.2	generate	Run4	generate/STIM_024.jpg	99
3078.376	1.288	1287.6	generate	Run4	generate/STIM_024.jpg	100
3082.087	0.919	919.3	generate	Run4	generate/STIM_024.jpg	99
3086.355	0.648	648.5	repeat	Run4	repeat/STIM_000.jpg	99
3089.18	0.879	878.6	repeat	Run4	repeat/STIM_000.jpg	100
3093.031	0.772	771.9	repeat	Run4	repeat/STIM_000.jpg	99
3097.354	0.932	932.2	repeat	Run4	repeat/STIM_000.jpg	99
3101.479	0.764	764.0	repeat	Run4	repeat/STIM_000.jpg	100
3104.649	0.872	871.7	repeat	Run4	repeat/STIM_001.jpg	100
3109.149	0.817	817.0	repeat	Run4	repeat/STIM_001.jpg	100
3113.21	0.782	781.6	repeat	Run4	repeat/STIM_001.jpg	100
3117.434	0.626	626.5	repeat	Run4	repeat/STIM_001.jpg	100
3120.427	0.889	888.8	repeat	Run4	repeat/STIM_001.jpg	99
3124.702	0.96	960.4	repeat	Run4	repeat/STIM_002.jpg	100
3129.451	0.698	698.4	repeat	Run4	repeat/STIM_002.jpg	99
3132.756	0.703	703.2	repeat	Run4	repeat/STIM_002.jpg	99
3135.901	0.541	541.2	repeat	Run4	repeat/STIM_002.jpg	100
3139.051	0.877	877.4	repeat	Run4	repeat/STIM_002.jpg	99
3143.785	0.547	547.3	repeat	Run4	repeat/STIM_003.jpg	99
3147.669	0.497	496.9	repeat	Run4	repeat/STIM_003.jpg	100
3152.099	0.663	662.9	repeat	Run4	repeat/STIM_003.jpg	100
3156.536	0.555	554.6	repeat	Run4	repeat/STIM_003.jpg	99
3160.739	0.891	891.1	repeat	Run4	repeat/STIM_003.jpg	100
3164.087	0.83	829.9	repeat	Run4	repeat/STIM_004.jpg	100
3167.258	0.615	615.3	repeat	Run4	repeat/STIM_004.jpg	100
3171.863	0.823	823.3	repeat	Run4	repeat/STIM_004.jpg	100
3175.049	0.881	881.0	repeat	Run4	repeat/STIM_004.jpg	99
3179.564	0.801	801.3	repeat	Run4	repeat/STIM_004.jpg	100
3183.689	0.723	723.3	repeat	Run4	repeat/STIM_005.jpg	100
3187.975	0.572	571.5	repeat	Run4	repeat/STIM_005.jpg	100
3192.357	0.839	839.4	repeat	Run4	repeat/STIM_005.jpg	100
3196.809	0.72	720.0	repeat	Run4	repeat/STIM_005.jpg	100
3200.065	0.899	898.8	repeat	Run4	repeat/STIM_005.jpg	99
3204.337	0.873	872.8	repeat	Run4	repeat/STIM_006.jpg	100
3208.575	0.89	889.6	repeat	Run4	repeat/STIM_006.jpg	100
3213.02	0.882	882.0	repeat	Run4	repeat/STIM_006.jpg	100
3215.992	0.51	510.1	repeat	Run4	repeat/STIM_006.jpg	99
3219.313	0.745	744.8	repeat	Run4	repeat/STIM_006.jpg	100
3223.25	0.921	921.0	repeat	Run4	repeat/STIM_007.jpg	99
3227.824	0.496	495.7	repeat	Run4	repeat/STIM_007.jpg	100
3230.436	0.905	905.4	repeat	Run4	repeat/STIM_007.jpg	100
3234.797	0.923	922.6	repeat	Run4	repeat/STIM_007.jpg	100
3239.249	0.912	912.0	repeat	Run4	repeat/STIM_007.jpg	99
3243.293	0.892	891.6	repeat	Run4	repeat/STIM_008.jpg	99
3248.09	0.629	629.3	repeat	Run4	repeat/STIM_008.jpg	99
3250.952	0.804	804.4	repeat	Run4	repeat/STIM_008.jpg	100
3254.811	0.884	884.2	repeat	Run4	repeat/STIM_008.jpg	100
3259.426	0.828	828.0	repeat	Run4	repeat/STIM_008.jpg	99
3263.322	0.95	950.5	repeat	Run4	repeat/STIM_009.jpg	99
3267.514	0.634	634.0	repeat	Run4	repeat/STIM_009.jpg	100
3270.637	0.588	588.5	repeat	Run4	repeat/STIM_009.jpg	99
3273.779	0.587	587.4	repeat	Run4	repeat/STIM_009.jpg	100
3277.263	0.594	594.3	repeat	Run4	repeat/STIM_009.jpg	99
3279.986	0.938	937.6	repeat	Run4	repeat/STIM_010.jpg	99
3283.603	0.522	522.2	repeat	Run4	repeat/STIM_010.jpg	100
3287.209	0.588	588.2	repeat	Run4	repeat/STIM_010.jpg	100
3290.445	0.811	811.2	repeat	Run4	repeat/STIM_010.jpg	99
3294.884	0.931	930.7	repeat	Run4	repeat/STIM_010.jpg	100
3298.078	0.615	615.2	repeat	Run4	repeat/STIM_011.jpg	100
3301.448	0.562	562.1	repeat	Run4	repeat/STIM_011.jpg	99
3304.691	0.842	842.1	repeat	Run4	repeat/STIM_011.jpg	100
3307.982	0.593	592.8	repeat	Run4	repeat/STIM_011.jpg	100
3310.701	0.787	786.6	repeat	Run4	repeat/STIM_011.jpg	99
3314.581	0.642	642.5	repeat	Run4	repeat/STIM_012.jpg	100
3318.005	0.632	631.5	repeat	Run4	repeat/STIM_012.jpg	99
3321.407	0.719	718.8	repeat	Run4	repeat/STIM_012.jpg	100
3325.793	0.803	803.3	repeat	Run4	repeat/STIM_012.jpg	99
3329.771	0.704	704.3	repeat	Run4	repeat/STIM_012.jpg	99
3332.552	0.486	486.1	repeat	Run4	repeat/STIM_013.jpg	99
3335.762	0.753	752.9	repeat	Run4	repeat/STIM_013.jpg	99
3339.169	0.579	579.2	repeat	Run4	repeat/STIM_013.jpg	99
3341.821	0.486	486.0	repeat	Run4	repeat/STIM_013.jpg	99
3344.855	0.957	957.0	repeat	Run4	repeat/STIM_013.jpg	99
3349.154	0.935	934.8	repeat	Run4	repeat/STIM_014.jpg	100
3353.465	0.713	713.2	repeat	Run4	repeat/STIM_014.jpg	100
3356.568	0.561	560.7	repeat	Run4	repeat/STIM_014.jpg	99
3361.007	0.646	645.6	repeat	Run4	repeat/STIM_014.jpg	99
3365.251	0.852	852.3	repeat	Run4	repeat/STIM_014.jpg	99
