onset	duration	accuracy_binary	trial_type	learning_stage	stimulus
0.0	2.035	1	generate	Run1	generate/STIM_000.jpg
5.438	2.712	1	generate	Run1	generate/STIM_000.jpg
10.459	1.222	1	generate	Run1	generate/STIM_000.jpg
15.142	1.592	1	generate	Run1	generate/STIM_000.jpg
19.538	2.003	1	generate	Run1	generate/STIM_000.jpg
23.734	1.956	1	generate	Run1	generate/STIM_001.jpg
28.426	1.855	0	generate	Run1	generate/STIM_001.jpg
32.993	1.886	0	generate	Run1	generate/STIM_001.jpg
36.917	1.088	1	generate	Run1	generate/STIM_001.jpg
41.454	0.99	1	generate	Run1	generate/STIM_001.jpg
45.253	1.206	1	generate	Run1	generate/STIM_002.jpg
49.79	2.461	1	generate	Run1	generate/STIM_002.jpg
54.867	1.563	1	generate	Run1	generate/STIM_002.jpg
59.688	1.98	0	generate	Run1	generate/STIM_002.jpg
65.647	2.167	1	generate	Run1	generate/STIM_002.jpg
70.135	2.22	0	generate	Run1	generate/STIM_003.jpg
74.851	2.467	0	generate	Run1	generate/STIM_003.jpg
80.596	1.188	1	generate	Run1	generate/STIM_003.jpg
84.632	1.986	1	generate	Run1	generate/STIM_003.jpg
90.428	1.005	1	generate	Run1	generate/STIM_003.jpg
95.077	1.787	1	generate	Run1	generate/STIM_004.jpg
98.873	1.143	1	generate	Run1	generate/STIM_004.jpg
103.643	2.242	0	generate	Run1	generate/STIM_004.jpg
109.185	1.969	1	generate	Run1	generate/STIM_004.jpg
114.787	2.316	1	generate	Run1	generate/STIM_004.jpg
119.575	1.278	1	generate	Run1	generate/STIM_005.jpg
124.304	2.218	0	generate	Run1	generate/STIM_005.jpg
129.585	2.035	1	generate	Run1	generate/STIM_005.jpg
135.135	1.412	1	generate	Run1	generate/STIM_005.jpg
140.304	1.764	0	generate	Run1	generate/STIM_005.jpg
145.217	1.585	1	generate	Run1	generate/STIM_006.jpg
150.359	1.199	1	generate	Run1	generate/STIM_006.jpg
154.627	1.474	0	generate	Run1	generate/STIM_006.jpg
159.223	2.318	1	generate	Run1	generate/STIM_006.jpg
164.222	2.089	0	generate	Run1	generate/STIM_006.jpg
168.848	2.898	1	generate	Run1	generate/STIM_007.jpg
173.781	2.355	1	generate	Run1	generate/STIM_007.jpg
179.487	2.356	1	generate	Run1	generate/STIM_007.jpg
185.66	1.972	1	generate	Run1	generate/STIM_007.jpg
190.25	0.998	1	generate	Run1	generate/STIM_007.jpg
194.869	2.017	0	generate	Run1	generate/STIM_008.jpg
199.009	1.696	1	generate	Run1	generate/STIM_008.jpg
203.461	1.912	1	generate	Run1	generate/STIM_008.jpg
208.42	1.347	1	generate	Run1	generate/STIM_008.jpg
212.037	1.763	1	generate	Run1	generate/STIM_008.jpg
216.255	1.697	1	generate	Run1	generate/STIM_009.jpg
221.62	1.158	0	generate	Run1	generate/STIM_009.jpg
224.874	1.075	1	generate	Run1	generate/STIM_009.jpg
229.195	1.881	0	generate	Run1	generate/STIM_009.jpg
233.958	1.939	1	generate	Run1	generate/STIM_009.jpg
238.061	2.608	1	generate	Run1	generate/STIM_010.jpg
244.559	1.342	0	generate	Run1	generate/STIM_010.jpg
249.574	2.337	1	generate	Run1	generate/STIM_010.jpg
255.616	1.739	1	generate	Run1	generate/STIM_010.jpg
259.434	1.199	1	generate	Run1	generate/STIM_010.jpg
264.117	2.662	1	generate	Run1	generate/STIM_011.jpg
270.529	2.623	1	generate	Run1	generate/STIM_011.jpg
275.738	1.589	1	generate	Run1	generate/STIM_011.jpg
279.825	1.37	1	generate	Run1	generate/STIM_011.jpg
283.68	1.865	1	generate	Run1	generate/STIM_011.jpg
287.735	2.043	1	generate	Run1	generate/STIM_012.jpg
292.018	1.357	1	generate	Run1	generate/STIM_012.jpg
297.078	1.343	1	generate	Run1	generate/STIM_012.jpg
301.667	1.925	1	generate	Run1	generate/STIM_012.jpg
306.371	1.283	1	generate	Run1	generate/STIM_012.jpg
309.87	2.108	1	generate	Run1	generate/STIM_013.jpg
314.041	1.994	0	generate	Run1	generate/STIM_013.jpg
318.494	1.926	1	generate	Run1	generate/STIM_013.jpg
324.289	1.482	1	generate	Run1	generate/STIM_013.jpg
328.769	1.442	0	generate	Run1	generate/STIM_013.jpg
333.068	2.245	1	generate	Run1	generate/STIM_014.jpg
337.971	2.742	1	generate	Run1	generate/STIM_014.jpg
344.11	1.59	1	generate	Run1	generate/STIM_014.jpg
349.597	1.876	1	generate	Run1	generate/STIM_014.jpg
354.706	1.366	1	generate	Run1	generate/STIM_014.jpg
358.632	2.886	1	generate	Run1	generate/STIM_015.jpg
363.75	2.2	1	generate	Run1	generate/STIM_015.jpg
369.292	1.642	1	generate	Run1	generate/STIM_015.jpg
373.784	1.436	1	generate	Run1	generate/STIM_015.jpg
377.783	2.102	1	generate	Run1	generate/STIM_015.jpg
382.098	2.403	0	generate	Run1	generate/STIM_016.jpg
386.895	2.115	0	generate	Run1	generate/STIM_016.jpg
392.306	1.085	0	generate	Run1	generate/STIM_016.jpg
396.033	1.996	1	generate	Run1	generate/STIM_016.jpg
400.774	1.999	1	generate	Run1	generate/STIM_016.jpg
405.473	2.097	1	generate	Run1	generate/STIM_017.jpg
410.143	1.411	1	generate	Run1	generate/STIM_017.jpg
413.634	1.706	0	generate	Run1	generate/STIM_017.jpg
417.911	1.867	0	generate	Run1	generate/STIM_017.jpg
423.075	2.051	1	generate	Run1	generate/STIM_017.jpg
427.648	2.737	1	generate	Run1	generate/STIM_018.jpg
432.789	1.4	1	generate	Run1	generate/STIM_018.jpg
437.81	1.868	1	generate	Run1	generate/STIM_018.jpg
443.67	1.284	1	generate	Run1	generate/STIM_018.jpg
448.088	1.399	1	generate	Run1	generate/STIM_018.jpg
452.812	2.873	1	generate	Run1	generate/STIM_019.jpg
458.037	1.397	1	generate	Run1	generate/STIM_019.jpg
461.663	1.581	1	generate	Run1	generate/STIM_019.jpg
465.429	1.79	1	generate	Run1	generate/STIM_019.jpg
470.347	1.8	1	generate	Run1	generate/STIM_019.jpg
474.191	2.488	0	generate	Run1	generate/STIM_020.jpg
479.589	2.604	1	generate	Run1	generate/STIM_020.jpg
485.518	1.627	0	generate	Run1	generate/STIM_020.jpg
490.121	1.188	1	generate	Run1	generate/STIM_020.jpg
495.003	2.026	0	generate	Run1	generate/STIM_020.jpg
500.256	1.66	1	generate	Run1	generate/STIM_021.jpg
504.34	2.381	1	generate	Run1	generate/STIM_021.jpg
509.756	2.276	1	generate	Run1	generate/STIM_021.jpg
514.875	2.309	1	generate	Run1	generate/STIM_021.jpg
520.889	1.13	1	generate	Run1	generate/STIM_021.jpg
524.6	2.29	1	generate	Run1	generate/STIM_022.jpg
529.703	1.149	1	generate	Run1	generate/STIM_022.jpg
533.538	1.269	1	generate	Run1	generate/STIM_022.jpg
537.247	1.276	1	generate	Run1	generate/STIM_022.jpg
542.276	1.596	1	generate	Run1	generate/STIM_022.jpg
546.882	1.881	1	generate	Run1	generate/STIM_023.jpg
551.096	1.276	1	generate	Run1	generate/STIM_023.jpg
554.698	2.365	0	generate	Run1	generate/STIM_023.jpg
560.418	1.165	1	generate	Run1	generate/STIM_023.jpg
564.492	2.12	1	generate	Run1	generate/STIM_023.jpg
569.703	2.261	0	generate	Run1	generate/STIM_024.jpg
574.48	2.39	0	generate	Run1	generate/STIM_024.jpg
579.158	1.17	0	generate	Run1	generate/STIM_024.jpg
584.276	1.173	1	generate	Run1	generate/STIM_024.jpg
587.557	2.145	1	generate	Run1	generate/STIM_024.jpg
592.656	0.897	1	repeat	Run1	repeat/STIM_000.jpg
596.459	0.632	1	repeat	Run1	repeat/STIM_000.jpg
600.235	0.862	1	repeat	Run1	repeat/STIM_000.jpg
603.201	0.913	1	repeat	Run1	repeat/STIM_000.jpg
607.225	0.715	1	repeat	Run1	repeat/STIM_000.jpg
610.278	0.902	1	repeat	Run1	repeat/STIM_001.jpg
614.967	0.735	1	repeat	Run1	repeat/STIM_001.jpg
617.981	0.652	1	repeat	Run1	repeat/STIM_001.jpg
621.706	0.692	1	repeat	Run1	repeat/STIM_001.jpg
624.979	0.67	1	repeat	Run1	repeat/STIM_001.jpg
627.971	0.78	1	repeat	Run1	repeat/STIM_002.jpg
631.945	0.55	1	repeat	Run1	repeat/STIM_002.jpg
635.807	0.906	1	repeat	Run1	repeat/STIM_002.jpg
638.822	0.944	1	repeat	Run1	repeat/STIM_002.jpg
643.409	0.59	1	repeat	Run1	repeat/STIM_002.jpg
647.184	0.661	1	repeat	Run1	repeat/STIM_003.jpg
651.1	0.948	1	repeat	Run1	repeat/STIM_003.jpg
654.973	0.63	1	repeat	Run1	repeat/STIM_003.jpg
659.246	0.901	1	repeat	Run1	repeat/STIM_003.jpg
662.455	0.75	1	repeat	Run1	repeat/STIM_003.jpg
666.515	0.607	1	repeat	Run1	repeat/STIM_004.jpg
669.259	0.878	1	repeat	Run1	repeat/STIM_004.jpg
673.222	0.5	1	repeat	Run1	repeat/STIM_004.jpg
677.029	0.9	1	repeat	Run1	repeat/STIM_004.jpg
680.099	0.539	1	repeat	Run1	repeat/STIM_004.jpg
683.903	0.596	1	repeat	Run1	repeat/STIM_005.jpg
687.977	0.87	1	repeat	Run1	repeat/STIM_005.jpg
692.437	0.794	1	repeat	Run1	repeat/STIM_005.jpg
696.366	0.929	1	repeat	Run1	repeat/STIM_005.jpg
699.869	0.897	1	repeat	Run1	repeat/STIM_005.jpg
704.49	0.692	1	repeat	Run1	repeat/STIM_006.jpg
707.889	0.88	1	repeat	Run1	repeat/STIM_006.jpg
712.58	0.824	1	repeat	Run1	repeat/STIM_006.jpg
716.556	0.911	1	repeat	Run1	repeat/STIM_006.jpg
720.722	0.814	1	repeat	Run1	repeat/STIM_006.jpg
724.226	0.903	1	repeat	Run1	repeat/STIM_007.jpg
727.733	0.793	1	repeat	Run1	repeat/STIM_007.jpg
731.768	0.855	1	repeat	Run1	repeat/STIM_007.jpg
734.982	0.53	0	repeat	Run1	repeat/STIM_007.jpg
738.685	0.49	1	repeat	Run1	repeat/STIM_007.jpg
742.796	0.759	1	repeat	Run1	repeat/STIM_008.jpg
746.093	0.598	1	repeat	Run1	repeat/STIM_008.jpg
749.09	0.513	1	repeat	Run1	repeat/STIM_008.jpg
752.446	0.517	1	repeat	Run1	repeat/STIM_008.jpg
755.879	0.783	1	repeat	Run1	repeat/STIM_008.jpg
760.06	0.507	1	repeat	Run1	repeat/STIM_009.jpg
762.834	0.719	1	repeat	Run1	repeat/STIM_009.jpg
767.142	0.653	1	repeat	Run1	repeat/STIM_009.jpg
771.523	0.945	1	repeat	Run1	repeat/STIM_009.jpg
775.777	0.848	1	repeat	Run1	repeat/STIM_009.jpg
779.517	0.527	1	repeat	Run1	repeat/STIM_010.jpg
782.431	0.702	1	repeat	Run1	repeat/STIM_010.jpg
785.186	0.837	1	repeat	Run1	repeat/STIM_010.jpg
789.376	0.737	1	repeat	Run1	repeat/STIM_010.jpg
792.414	0.509	1	repeat	Run1	repeat/STIM_010.jpg
795.294	0.654	1	repeat	Run1	repeat/STIM_011.jpg
798.702	0.572	1	repeat	Run1	repeat/STIM_011.jpg
801.843	0.909	1	repeat	Run1	repeat/STIM_011.jpg
806.596	0.633	1	repeat	Run1	repeat/STIM_011.jpg
810.69	0.879	1	repeat	Run1	repeat/STIM_011.jpg
813.65	0.798	1	repeat	Run1	repeat/STIM_012.jpg
818.215	0.716	1	repeat	Run1	repeat/STIM_012.jpg
821.095	0.861	1	repeat	Run1	repeat/STIM_012.jpg
824.732	0.666	1	repeat	Run1	repeat/STIM_012.jpg
829.12	0.627	1	repeat	Run1	repeat/STIM_012.jpg
831.926	0.51	1	repeat	Run1	repeat/STIM_013.jpg
835.709	0.73	1	repeat	Run1	repeat/STIM_013.jpg
839.293	0.901	1	repeat	Run1	repeat/STIM_013.jpg
843.469	0.657	1	repeat	Run1	repeat/STIM_013.jpg
848.008	0.91	1	repeat	Run1	repeat/STIM_013.jpg
852.405	0.496	1	repeat	Run1	repeat/STIM_014.jpg
855.815	0.688	1	repeat	Run1	repeat/STIM_014.jpg
858.829	0.703	0	repeat	Run1	repeat/STIM_014.jpg
862.374	0.642	1	repeat	Run1	repeat/STIM_014.jpg
866.733	0.825	1	repeat	Run1	repeat/STIM_014.jpg
869.801	1.355	1	generate	Run2	generate/STIM_000.jpg
874.309	1.51	1	generate	Run2	generate/STIM_000.jpg
878.462	0.923	1	generate	Run2	generate/STIM_000.jpg
882.887	2.001	1	generate	Run2	generate/STIM_000.jpg
888.695	0.817	1	generate	Run2	generate/STIM_000.jpg
892.819	2.444	1	generate	Run2	generate/STIM_001.jpg
898.289	1.689	1	generate	Run2	generate/STIM_001.jpg
902.109	1.085	1	generate	Run2	generate/STIM_001.jpg
906.282	1.62	1	generate	Run2	generate/STIM_001.jpg
910.176	1.317	1	generate	Run2	generate/STIM_001.jpg
914.467	1.086	1	generate	Run2	generate/STIM_002.jpg
918.281	1.089	1	generate	Run2	generate/STIM_002.jpg
922.313	1.742	0	generate	Run2	generate/STIM_002.jpg
927.68	0.843	1	generate	Run2	generate/STIM_002.jpg
931.462	1.531	1	generate	Run2	generate/STIM_002.jpg
935.716	1.73	1	generate	Run2	generate/STIM_003.jpg
939.792	1.819	1	generate	Run2	generate/STIM_003.jpg
943.929	1.838	1	generate	Run2	generate/STIM_003.jpg
947.983	1.787	1	generate	Run2	generate/STIM_003.jpg
952.448	1.753	0	generate	Run2	generate/STIM_003.jpg
957.564	1.745	1	generate	Run2	generate/STIM_004.jpg
962.359	1.286	1	generate	Run2	generate/STIM_004.jpg
965.847	1.036	1	generate	Run2	generate/STIM_004.jpg
970.161	1.071	1	generate	Run2	generate/STIM_004.jpg
974.037	0.851	1	generate	Run2	generate/STIM_004.jpg
978.883	1.209	0	generate	Run2	generate/STIM_005.jpg
983.848	1.118	1	generate	Run2	generate/STIM_005.jpg
988.777	0.883	1	generate	Run2	generate/STIM_005.jpg
992.327	1.364	1	generate	Run2	generate/STIM_005.jpg
997.051	1.74	1	generate	Run2	generate/STIM_005.jpg
1001.99	2.085	1	generate	Run2	generate/STIM_006.jpg
1007.829	1.247	1	generate	Run2	generate/STIM_006.jpg
1011.256	1.752	1	generate	Run2	generate/STIM_006.jpg
1016.263	1.443	0	generate	Run2	generate/STIM_006.jpg
1019.806	2.004	1	generate	Run2	generate/STIM_006.jpg
1024.384	1.404	1	generate	Run2	generate/STIM_007.jpg
1028.771	1.998	1	generate	Run2	generate/STIM_007.jpg
1034.151	2.018	1	generate	Run2	generate/STIM_007.jpg
1039.725	1.288	0	generate	Run2	generate/STIM_007.jpg
1044.306	1.677	1	generate	Run2	generate/STIM_007.jpg
1049.96	1.747	1	generate	Run2	generate/STIM_008.jpg
1055.651	2.151	1	generate	Run2	generate/STIM_008.jpg
1061.501	0.988	1	generate	Run2	generate/STIM_008.jpg
1065.905	1.187	1	generate	Run2	generate/STIM_008.jpg
1069.404	1.97	1	generate	Run2	generate/STIM_008.jpg
1074.405	1.326	0	generate	Run2	generate/STIM_009.jpg
1078.374	1.995	1	generate	Run2	generate/STIM_009.jpg
1082.582	0.986	1	generate	Run2	generate/STIM_009.jpg
1086.211	1.333	1	generate	Run2	generate/STIM_009.jpg
1089.789	1.039	0	generate	Run2	generate/STIM_009.jpg
1093.64	2.304	1	generate	Run2	generate/STIM_010.jpg
1099.077	1.996	1	generate	Run2	generate/STIM_010.jpg
1104.781	0.953	1	generate	Run2	generate/STIM_010.jpg
1109.7	1.889	1	generate	Run2	generate/STIM_010.jpg
1115.349	0.97	1	generate	Run2	generate/STIM_010.jpg
1120.097	1.693	1	generate	Run2	generate/STIM_011.jpg
1124.345	2.283	1	generate	Run2	generate/STIM_011.jpg
1129.042	1.898	0	generate	Run2	generate/STIM_011.jpg
1134.443	1.377	1	generate	Run2	generate/STIM_011.jpg
1138.985	1.276	0	generate	Run2	generate/STIM_011.jpg
1142.527	1.361	1	generate	Run2	generate/STIM_012.jpg
1145.914	1.858	1	generate	Run2	generate/STIM_012.jpg
1150.146	1.458	1	generate	Run2	generate/STIM_012.jpg
1153.956	1.296	1	generate	Run2	generate/STIM_012.jpg
1157.306	0.871	0	generate	Run2	generate/STIM_012.jpg
1161.333	1.71	1	generate	Run2	generate/STIM_013.jpg
1165.596	1.067	1	generate	Run2	generate/STIM_013.jpg
1169.909	0.886	1	generate	Run2	generate/STIM_013.jpg
1174.3	1.833	1	generate	Run2	generate/STIM_013.jpg
1178.831	1.307	1	generate	Run2	generate/STIM_013.jpg
1183.836	2.213	0	generate	Run2	generate/STIM_014.jpg
1189.419	2.193	1	generate	Run2	generate/STIM_014.jpg
1193.801	1.727	1	generate	Run2	generate/STIM_014.jpg
1198.9	1.463	1	generate	Run2	generate/STIM_014.jpg
1202.386	0.876	1	generate	Run2	generate/STIM_014.jpg
1205.598	1.936	1	generate	Run2	generate/STIM_015.jpg
1211.376	1.893	1	generate	Run2	generate/STIM_015.jpg
1217.23	1.519	1	generate	Run2	generate/STIM_015.jpg
1221.452	1.595	1	generate	Run2	generate/STIM_015.jpg
1226.487	1.497	1	generate	Run2	generate/STIM_015.jpg
1231.57	1.669	1	generate	Run2	generate/STIM_016.jpg
1236.958	1.681	1	generate	Run2	generate/STIM_016.jpg
1240.732	1.192	1	generate	Run2	generate/STIM_016.jpg
1245.102	1.585	1	generate	Run2	generate/STIM_016.jpg
1249.449	0.992	1	generate	Run2	generate/STIM_016.jpg
1254.329	1.232	0	generate	Run2	generate/STIM_017.jpg
1258.599	2.299	1	generate	Run2	generate/STIM_017.jpg
1263.549	1.674	1	generate	Run2	generate/STIM_017.jpg
1267.785	1.385	1	generate	Run2	generate/STIM_017.jpg
1272.955	1.219	1	generate	Run2	generate/STIM_017.jpg
1276.284	1.561	1	generate	Run2	generate/STIM_018.jpg
1279.936	1.89	0	generate	Run2	generate/STIM_018.jpg
1285.534	1.318	1	generate	Run2	generate/STIM_018.jpg
1289.765	0.88	1	generate	Run2	generate/STIM_018.jpg
1292.959	0.875	1	generate	Run2	generate/STIM_018.jpg
1296.287	1.285	1	generate	Run2	generate/STIM_019.jpg
1300.464	1.37	1	generate	Run2	generate/STIM_019.jpg
1303.926	1.649	0	generate	Run2	generate/STIM_019.jpg
1308.778	1.141	1	generate	Run2	generate/STIM_019.jpg
1312.0	1.194	1	generate	Run2	generate/STIM_019.jpg
1316.659	1.353	1	generate	Run2	generate/STIM_020.jpg
1321.511	1.757	1	generate	Run2	generate/STIM_020.jpg
1327.102	0.988	1	generate	Run2	generate/STIM_020.jpg
1331.559	1.67	1	generate	Run2	generate/STIM_020.jpg
1335.432	0.962	1	generate	Run2	generate/STIM_020.jpg
1338.886	1.579	1	generate	Run2	generate/STIM_021.jpg
1343.619	1.21	1	generate	Run2	generate/STIM_021.jpg
1347.452	1.721	1	generate	Run2	generate/STIM_021.jpg
1351.542	1.368	1	generate	Run2	generate/STIM_021.jpg
1355.101	1.615	1	generate	Run2	generate/STIM_021.jpg
1360.68	1.011	0	generate	Run2	generate/STIM_022.jpg
1364.838	1.817	1	generate	Run2	generate/STIM_022.jpg
1370.355	1.178	1	generate	Run2	generate/STIM_022.jpg
1374.639	0.813	1	generate	Run2	generate/STIM_022.jpg
1378.81	1.592	1	generate	Run2	generate/STIM_022.jpg
1383.337	1.54	1	generate	Run2	generate/STIM_023.jpg
1386.968	1.01	1	generate	Run2	generate/STIM_023.jpg
1390.141	1.754	0	generate	Run2	generate/STIM_023.jpg
1395.697	1.814	1	generate	Run2	generate/STIM_023.jpg
1400.828	0.86	1	generate	Run2	generate/STIM_023.jpg
1404.896	2.375	1	generate	Run2	generate/STIM_024.jpg
1410.407	0.98	1	generate	Run2	generate/STIM_024.jpg
1414.136	1.974	0	generate	Run2	generate/STIM_024.jpg
1419.964	1.711	0	generate	Run2	generate/STIM_024.jpg
1425.239	1.486	1	generate	Run2	generate/STIM_024.jpg
1428.831	0.767	1	repeat	Run2	repeat/STIM_000.jpg
1432.166	0.511	1	repeat	Run2	repeat/STIM_000.jpg
1436.52	0.836	1	repeat	Run2	repeat/STIM_000.jpg
1441.153	0.554	1	repeat	Run2	repeat/STIM_000.jpg
1444.025	0.62	1	repeat	Run2	repeat/STIM_000.jpg
1446.871	0.876	1	repeat	Run2	repeat/STIM_001.jpg
1450.24	0.498	1	repeat	Run2	repeat/STIM_001.jpg
1452.973	0.833	1	repeat	Run2	repeat/STIM_001.jpg
1456.255	0.545	1	repeat	Run2	repeat/STIM_001.jpg
1459.459	0.666	1	repeat	Run2	repeat/STIM_001.jpg
1463.595	0.764	1	repeat	Run2	repeat/STIM_002.jpg
1467.64	0.534	1	repeat	Run2	repeat/STIM_002.jpg
1472.005	0.955	1	repeat	Run2	repeat/STIM_002.jpg
1475.623	0.875	1	repeat	Run2	repeat/STIM_002.jpg
1479.175	0.577	1	repeat	Run2	repeat/STIM_002.jpg
1482.112	0.635	1	repeat	Run2	repeat/STIM_003.jpg
1485.052	0.954	1	repeat	Run2	repeat/STIM_003.jpg
1488.891	0.815	1	repeat	Run2	repeat/STIM_003.jpg
1491.828	0.516	1	repeat	Run2	repeat/STIM_003.jpg
1495.467	0.734	1	repeat	Run2	repeat/STIM_003.jpg
1499.474	0.766	1	repeat	Run2	repeat/STIM_004.jpg
1502.444	0.532	1	repeat	Run2	repeat/STIM_004.jpg
1505.607	0.687	1	repeat	Run2	repeat/STIM_004.jpg
1508.647	0.92	1	repeat	Run2	repeat/STIM_004.jpg
1511.587	0.826	1	repeat	Run2	repeat/STIM_004.jpg
1514.478	0.805	1	repeat	Run2	repeat/STIM_005.jpg
1518.828	0.839	1	repeat	Run2	repeat/STIM_005.jpg
1522.178	0.612	1	repeat	Run2	repeat/STIM_005.jpg
1525.472	0.845	1	repeat	Run2	repeat/STIM_005.jpg
1529.963	0.89	1	repeat	Run2	repeat/STIM_005.jpg
1533.81	0.84	1	repeat	Run2	repeat/STIM_006.jpg
1537.717	0.504	1	repeat	Run2	repeat/STIM_006.jpg
1541.816	0.543	1	repeat	Run2	repeat/STIM_006.jpg
1545.139	0.77	1	repeat	Run2	repeat/STIM_006.jpg
1549.427	0.579	1	repeat	Run2	repeat/STIM_006.jpg
1553.318	0.851	1	repeat	Run2	repeat/STIM_007.jpg
1557.981	0.885	1	repeat	Run2	repeat/STIM_007.jpg
1561.445	0.834	1	repeat	Run2	repeat/STIM_007.jpg
1565.39	0.801	1	repeat	Run2	repeat/STIM_007.jpg
1569.711	0.775	1	repeat	Run2	repeat/STIM_007.jpg
1572.917	0.809	1	repeat	Run2	repeat/STIM_008.jpg
1577.688	0.848	1	repeat	Run2	repeat/STIM_008.jpg
1581.504	0.863	1	repeat	Run2	repeat/STIM_008.jpg
1584.723	0.618	1	repeat	Run2	repeat/STIM_008.jpg
1587.474	0.863	1	repeat	Run2	repeat/STIM_008.jpg
1592.249	0.758	1	repeat	Run2	repeat/STIM_009.jpg
1595.55	0.706	1	repeat	Run2	repeat/STIM_009.jpg
1599.688	0.797	1	repeat	Run2	repeat/STIM_009.jpg
1603.309	0.69	1	repeat	Run2	repeat/STIM_009.jpg
1606.273	0.681	1	repeat	Run2	repeat/STIM_009.jpg
1609.053	0.966	1	repeat	Run2	repeat/STIM_010.jpg
1612.097	0.628	1	repeat	Run2	repeat/STIM_010.jpg
1615.556	0.53	1	repeat	Run2	repeat/STIM_010.jpg
1618.278	0.729	1	repeat	Run2	repeat/STIM_010.jpg
1622.947	0.641	1	repeat	Run2	repeat/STIM_010.jpg
1626.253	0.911	1	repeat	Run2	repeat/STIM_011.jpg
1629.5	0.828	1	repeat	Run2	repeat/STIM_011.jpg
1632.465	0.867	1	repeat	Run2	repeat/STIM_011.jpg
1635.734	0.66	1	repeat	Run2	repeat/STIM_011.jpg
1639.722	0.509	1	repeat	Run2	repeat/STIM_011.jpg
1644.069	0.909	1	repeat	Run2	repeat/STIM_012.jpg
1647.918	0.642	1	repeat	Run2	repeat/STIM_012.jpg
1650.672	0.871	1	repeat	Run2	repeat/STIM_012.jpg
1655.507	0.501	1	repeat	Run2	repeat/STIM_012.jpg
1659.4	0.872	1	repeat	Run2	repeat/STIM_012.jpg
1663.203	0.648	1	repeat	Run2	repeat/STIM_013.jpg
1667.259	0.644	1	repeat	Run2	repeat/STIM_013.jpg
1671.48	0.683	1	repeat	Run2	repeat/STIM_013.jpg
1674.469	0.946	1	repeat	Run2	repeat/STIM_013.jpg
1679.343	0.94	1	repeat	Run2	repeat/STIM_013.jpg
1683.276	0.518	1	repeat	Run2	repeat/STIM_014.jpg
1686.16	0.818	1	repeat	Run2	repeat/STIM_014.jpg
1690.466	0.832	1	repeat	Run2	repeat/STIM_014.jpg
1693.698	0.558	1	repeat	Run2	repeat/STIM_014.jpg
1696.569	0.923	1	repeat	Run2	repeat/STIM_014.jpg
1699.586	1.837	1	generate	Run3	generate/STIM_000.jpg
1703.9	1.875	1	generate	Run3	generate/STIM_000.jpg
1707.824	1.983	0	generate	Run3	generate/STIM_000.jpg
1712.69	1.112	1	generate	Run3	generate/STIM_000.jpg
1717.26	1.091	1	generate	Run3	generate/STIM_000.jpg
1721.607	1.889	1	generate	Run3	generate/STIM_001.jpg
1725.787	1.835	1	generate	Run3	generate/STIM_001.jpg
1730.541	1.748	1	generate	Run3	generate/STIM_001.jpg
1735.744	0.938	1	generate	Run3	generate/STIM_001.jpg
1739.083	1.591	1	generate	Run3	generate/STIM_001.jpg
1744.62	1.966	1	generate	Run3	generate/STIM_002.jpg
1749.963	0.895	1	generate	Run3	generate/STIM_002.jpg
1753.298	2.013	1	generate	Run3	generate/STIM_002.jpg
1758.589	1.394	1	generate	Run3	generate/STIM_002.jpg
1762.495	1.495	1	generate	Run3	generate/STIM_002.jpg
1767.34	1.282	1	generate	Run3	generate/STIM_003.jpg
1771.309	1.515	1	generate	Run3	generate/STIM_003.jpg
1775.409	1.29	1	generate	Run3	generate/STIM_003.jpg
1779.151	1.368	1	generate	Run3	generate/STIM_003.jpg
1783.08	0.952	1	generate	Run3	generate/STIM_003.jpg
1786.423	1.162	1	generate	Run3	generate/STIM_004.jpg
1789.832	1.711	0	generate	Run3	generate/STIM_004.jpg
1794.101	0.996	1	generate	Run3	generate/STIM_004.jpg
1797.922	1.575	1	generate	Run3	generate/STIM_004.jpg
1803.045	1.225	1	generate	Run3	generate/STIM_004.jpg
1806.42	1.296	1	generate	Run3	generate/STIM_005.jpg
1809.922	1.577	1	generate	Run3	generate/STIM_005.jpg
1814.573	0.85	1	generate	Run3	generate/STIM_005.jpg
1818.784	1.676	1	generate	Run3	generate/STIM_005.jpg
1823.335	1.239	1	generate	Run3	generate/STIM_005.jpg
1828.185	2.023	1	generate	Run3	generate/STIM_006.jpg
1833.628	1.16	1	generate	Run3	generate/STIM_006.jpg
1837.253	1.641	1	generate	Run3	generate/STIM_006.jpg
1842.699	1.539	1	generate	Run3	generate/STIM_006.jpg
1847.07	1.234	1	generate	Run3	generate/STIM_006.jpg
1851.922	1.103	1	generate	Run3	generate/STIM_007.jpg
1857.016	1.271	1	generate	Run3	generate/STIM_007.jpg
1860.84	0.907	1	generate	Run3	generate/STIM_007.jpg
1865.313	1.805	1	generate	Run3	generate/STIM_007.jpg
1870.258	0.995	1	generate	Run3	generate/STIM_007.jpg
1874.661	1.007	1	generate	Run3	generate/STIM_008.jpg
1879.626	2.023	0	generate	Run3	generate/STIM_008.jpg
1885.478	1.548	1	generate	Run3	generate/STIM_008.jpg
1889.493	2.023	1	generate	Run3	generate/STIM_008.jpg
1894.33	1.52	1	generate	Run3	generate/STIM_008.jpg
1898.318	1.913	1	generate	Run3	generate/STIM_009.jpg
1903.471	1.558	1	generate	Run3	generate/STIM_009.jpg
1907.357	1.612	1	generate	Run3	generate/STIM_009.jpg
1912.435	0.916	1	generate	Run3	generate/STIM_009.jpg
1917.114	1.574	1	generate	Run3	generate/STIM_009.jpg
1921.321	1.963	1	generate	Run3	generate/STIM_010.jpg
1927.206	1.018	1	generate	Run3	generate/STIM_010.jpg
1930.592	1.963	0	generate	Run3	generate/STIM_010.jpg
1934.988	1.277	1	generate	Run3	generate/STIM_010.jpg
1939.876	1.644	1	generate	Run3	generate/STIM_010.jpg
1945.061	1.235	1	generate	Run3	generate/STIM_011.jpg
1949.983	1.863	1	generate	Run3	generate/STIM_011.jpg
1954.079	1.748	1	generate	Run3	generate/STIM_011.jpg
1959.576	0.813	1	generate	Run3	generate/STIM_011.jpg
1963.17	1.703	1	generate	Run3	generate/STIM_011.jpg
1967.969	0.892	1	generate	Run3	generate/STIM_012.jpg
1971.65	1.5	1	generate	Run3	generate/STIM_012.jpg
1976.111	1.564	1	generate	Run3	generate/STIM_012.jpg
1979.698	1.497	1	generate	Run3	generate/STIM_012.jpg
1984.022	1.977	1	generate	Run3	generate/STIM_012.jpg
1988.029	1.46	1	generate	Run3	generate/STIM_013.jpg
1993.081	1.593	1	generate	Run3	generate/STIM_013.jpg
1998.057	1.328	1	generate	Run3	generate/STIM_013.jpg
2002.431	1.225	1	generate	Run3	generate/STIM_013.jpg
2006.987	2.009	1	generate	Run3	generate/STIM_013.jpg
2011.578	1.139	1	generate	Run3	generate/STIM_014.jpg
2015.419	1.254	1	generate	Run3	generate/STIM_014.jpg
2019.342	1.916	1	generate	Run3	generate/STIM_014.jpg
2024.477	1.332	1	generate	Run3	generate/STIM_014.jpg
2029.22	0.844	1	generate	Run3	generate/STIM_014.jpg
2032.067	1.923	1	generate	Run3	generate/STIM_015.jpg
2036.034	1.453	1	generate	Run3	generate/STIM_015.jpg
2039.672	1.407	1	generate	Run3	generate/STIM_015.jpg
2044.452	0.864	1	generate	Run3	generate/STIM_015.jpg
2048.7	1.26	1	generate	Run3	generate/STIM_015.jpg
2052.419	1.606	1	generate	Run3	generate/STIM_016.jpg
2056.185	1.284	1	generate	Run3	generate/STIM_016.jpg
2060.02	1.865	1	generate	Run3	generate/STIM_016.jpg
2065.16	1.407	1	generate	Run3	generate/STIM_016.jpg
2070.217	1.061	1	generate	Run3	generate/STIM_016.jpg
2073.504	1.408	1	generate	Run3	generate/STIM_017.jpg
2078.43	0.867	1	generate	Run3	generate/STIM_017.jpg
2081.935	1.008	1	generate	Run3	generate/STIM_017.jpg
2084.986	1.916	1	generate	Run3	generate/STIM_017.jpg
2090.442	1.542	1	generate	Run3	generate/STIM_017.jpg
2094.92	1.241	1	generate	Run3	generate/STIM_018.jpg
2098.932	1.564	1	generate	Run3	generate/STIM_018.jpg
2103.199	1.938	1	generate	Run3	generate/STIM_018.jpg
2108.518	1.099	1	generate	Run3	generate/STIM_018.jpg
2112.331	1.84	1	generate	Run3	generate/STIM_018.jpg
2118.15	0.99	1	generate	Run3	generate/STIM_019.jpg
2123.087	1.45	1	generate	Run3	generate/STIM_019.jpg
2127.345	1.694	1	generate	Run3	generate/STIM_019.jpg
2132.898	1.755	1	generate	Run3	generate/STIM_019.jpg
2138.566	1.84	1	generate	Run3	generate/STIM_019.jpg
2144.387	1.878	1	generate	Run3	generate/STIM_020.jpg
2149.49	1.805	1	generate	Run3	generate/STIM_020.jpg
2154.349	1.076	1	generate	Run3	generate/STIM_020.jpg
2158.278	1.228	1	generate	Run3	generate/STIM_020.jpg
2162.548	0.84	1	generate	Run3	generate/STIM_020.jpg
2167.229	1.593	1	generate	Run3	generate/STIM_021.jpg
2172.186	0.935	1	generate	Run3	generate/STIM_021.jpg
2176.976	1.129	1	generate	Run3	generate/STIM_021.jpg
2181.581	0.948	1	generate	Run3	generate/STIM_021.jpg
2185.446	1.75	1	generate	Run3	generate/STIM_021.jpg
2189.269	1.239	1	generate	Run3	generate/STIM_022.jpg
2192.712	1.768	1	generate	Run3	generate/STIM_022.jpg
2198.21	1.083	1	generate	Run3	generate/STIM_022.jpg
2202.955	1.694	1	generate	Run3	generate/STIM_022.jpg
2207.76	1.782	1	generate	Run3	generate/STIM_022.jpg
2213.161	1.621	0	generate	Run3	generate/STIM_023.jpg
2218.566	1.587	1	generate	Run3	generate/STIM_023.jpg
2222.89	2.022	0	generate	Run3	generate/STIM_023.jpg
2228.068	1.215	1	generate	Run3	generate/STIM_023.jpg
2231.664	2.009	1	generate	Run3	generate/STIM_023.jpg
2236.353	1.882	1	generate	Run3	generate/STIM_024.jpg
2241.051	1.973	1	generate	Run3	generate/STIM_024.jpg
2245.185	0.938	1	generate	Run3	generate/STIM_024.jpg
2249.266	1.81	1	generate	Run3	generate/STIM_024.jpg
2253.261	1.767	1	generate	Run3	generate/STIM_024.jpg
2258.317	0.926	1	repeat	Run3	repeat/STIM_000.jpg
2261.699	0.501	1	repeat	Run3	repeat/STIM_000.jpg
2264.642	0.491	1	repeat	Run3	repeat/STIM_000.jpg
2269.001	0.81	1	repeat	Run3	repeat/STIM_000.jpg
2272.532	0.85	1	repeat	Run3	repeat/STIM_000.jpg
2276.021	0.485	1	repeat	Run3	repeat/STIM_001.jpg
2280.454	0.571	1	repeat	Run3	repeat/STIM_001.jpg
2284.046	0.904	1	repeat	Run3	repeat/STIM_001.jpg
2287.108	0.74	1	repeat	Run3	repeat/STIM_001.jpg
2289.998	0.938	1	repeat	Run3	repeat/STIM_001.jpg
2294.595	0.894	1	repeat	Run3	repeat/STIM_002.jpg
2298.289	0.709	1	repeat	Run3	repeat/STIM_002.jpg
2301.942	0.54	1	repeat	Run3	repeat/STIM_002.jpg
2305.075	0.522	1	repeat	Run3	repeat/STIM_002.jpg
2309.178	0.951	1	repeat	Run3	repeat/STIM_002.jpg
2312.33	0.567	1	repeat	Run3	repeat/STIM_003.jpg
2315.596	0.829	1	repeat	Run3	repeat/STIM_003.jpg
2319.158	0.836	1	repeat	Run3	repeat/STIM_003.jpg
2322.451	0.62	1	repeat	Run3	repeat/STIM_003.jpg
2325.717	0.53	1	repeat	Run3	repeat/STIM_003.jpg
2328.794	0.506	1	repeat	Run3	repeat/STIM_004.jpg
2331.64	0.709	1	repeat	Run3	repeat/STIM_004.jpg
2336.198	0.727	1	repeat	Run3	repeat/STIM_004.jpg
2340.699	0.638	1	repeat	Run3	repeat/STIM_004.jpg
2344.744	0.903	1	repeat	Run3	repeat/STIM_004.jpg
2348.799	0.762	1	repeat	Run3	repeat/STIM_005.jpg
2352.679	0.564	1	repeat	Run3	repeat/STIM_005.jpg
2356.652	0.946	1	repeat	Run3	repeat/STIM_005.jpg
2359.684	0.85	1	repeat	Run3	repeat/STIM_005.jpg
2362.949	0.938	1	repeat	Run3	repeat/STIM_005.jpg
2366.779	0.891	1	repeat	Run3	repeat/STIM_006.jpg
2371.278	0.548	1	repeat	Run3	repeat/STIM_006.jpg
2375.342	0.623	1	repeat	Run3	repeat/STIM_006.jpg
2378.09	0.665	0	repeat	Run3	repeat/STIM_006.jpg
2381.155	0.589	1	repeat	Run3	repeat/STIM_006.jpg
2384.173	0.751	1	repeat	Run3	repeat/STIM_007.jpg
2388.015	0.939	1	repeat	Run3	repeat/STIM_007.jpg
2391.789	0.829	1	repeat	Run3	repeat/STIM_007.jpg
2395.049	0.933	1	repeat	Run3	repeat/STIM_007.jpg
2399.501	0.912	1	repeat	Run3	repeat/STIM_007.jpg
2404.161	0.951	1	repeat	Run3	repeat/STIM_008.jpg
2407.719	0.807	1	repeat	Run3	repeat/STIM_008.jpg
2411.419	0.669	1	repeat	Run3	repeat/STIM_008.jpg
2414.436	0.839	1	repeat	Run3	repeat/STIM_008.jpg
2419.196	0.86	1	repeat	Run3	repeat/STIM_008.jpg
2423.078	0.538	1	repeat	Run3	repeat/STIM_009.jpg
2426.354	0.593	1	repeat	Run3	repeat/STIM_009.jpg
2429.992	0.795	1	repeat	Run3	repeat/STIM_009.jpg
2433.479	0.672	1	repeat	Run3	repeat/STIM_009.jpg
2437.822	0.671	1	repeat	Run3	repeat/STIM_009.jpg
2440.93	0.908	1	repeat	Run3	repeat/STIM_010.jpg
2445.098	0.52	1	repeat	Run3	repeat/STIM_010.jpg
2448.671	0.543	1	repeat	Run3	repeat/STIM_010.jpg
2453.061	0.501	1	repeat	Run3	repeat/STIM_010.jpg
2456.723	0.883	1	repeat	Run3	repeat/STIM_010.jpg
2459.996	0.8	1	repeat	Run3	repeat/STIM_011.jpg
2464.179	0.582	1	repeat	Run3	repeat/STIM_011.jpg
2468.488	0.734	1	repeat	Run3	repeat/STIM_011.jpg
2473.046	0.853	1	repeat	Run3	repeat/STIM_011.jpg
2477.466	0.712	1	repeat	Run3	repeat/STIM_011.jpg
2481.32	0.743	1	repeat	Run3	repeat/STIM_012.jpg
2485.76	0.627	1	repeat	Run3	repeat/STIM_012.jpg
2490.284	0.736	1	repeat	Run3	repeat/STIM_012.jpg
2493.671	0.685	1	repeat	Run3	repeat/STIM_012.jpg
2498.133	0.912	1	repeat	Run3	repeat/STIM_012.jpg
2501.31	0.77	1	repeat	Run3	repeat/STIM_013.jpg
2505.575	0.862	1	repeat	Run3	repeat/STIM_013.jpg
2508.6	0.922	1	repeat	Run3	repeat/STIM_013.jpg
2511.696	0.704	1	repeat	Run3	repeat/STIM_013.jpg
2514.78	0.498	1	repeat	Run3	repeat/STIM_013.jpg
2518.683	0.858	1	repeat	Run3	repeat/STIM_014.jpg
2521.656	0.951	1	repeat	Run3	repeat/STIM_014.jpg
2526.413	0.661	1	repeat	Run3	repeat/STIM_014.jpg
2529.51	0.845	1	repeat	Run3	repeat/STIM_014.jpg
2534.218	0.52	1	repeat	Run3	repeat/STIM_014.jpg
2538.277	0.978	1	generate	Run4	generate/STIM_000.jpg
2541.977	1.502	1	generate	Run4	generate/STIM_000.jpg
2547.285	1.934	1	generate	Run4	generate/STIM_000.jpg
2551.512	1.92	1	generate	Run4	generate/STIM_000.jpg
2556.391	1.227	1	generate	Run4	generate/STIM_000.jpg
2560.698	1.641	1	generate	Run4	generate/STIM_001.jpg
2564.456	1.631	1	generate	Run4	generate/STIM_001.jpg
2568.891	1.077	1	generate	Run4	generate/STIM_001.jpg
2573.219	1.3	1	generate	Run4	generate/STIM_001.jpg
2576.697	1.694	1	generate	Run4	generate/STIM_001.jpg
2580.912	1.367	1	generate	Run4	generate/STIM_002.jpg
2585.642	1.293	1	generate	Run4	generate/STIM_002.jpg
2589.216	1.796	1	generate	Run4	generate/STIM_002.jpg
2594.27	1.212	1	generate	Run4	generate/STIM_002.jpg
2599.358	2.028	0	generate	Run4	generate/STIM_002.jpg
2603.624	1.572	1	generate	Run4	generate/STIM_003.jpg
2609.16	0.845	1	generate	Run4	generate/STIM_003.jpg
2613.368	1.571	1	generate	Run4	generate/STIM_003.jpg
2618.146	1.297	1	generate	Run4	generate/STIM_003.jpg
2622.956	1.975	1	generate	Run4	generate/STIM_003.jpg
2628.59	1.252	1	generate	Run4	generate/STIM_004.jpg
2632.995	1.317	1	generate	Run4	generate/STIM_004.jpg
2636.963	1.448	0	generate	Run4	generate/STIM_004.jpg
2641.026	1.757	1	generate	Run4	generate/STIM_004.jpg
2646.092	1.045	1	generate	Run4	generate/STIM_004.jpg
2649.51	1.988	1	generate	Run4	generate/STIM_005.jpg
2653.838	1.574	1	generate	Run4	generate/STIM_005.jpg
2657.861	0.858	1	generate	Run4	generate/STIM_005.jpg
2661.798	1.253	1	generate	Run4	generate/STIM_005.jpg
2666.533	1.183	1	generate	Run4	generate/STIM_005.jpg
2671.127	0.958	1	generate	Run4	generate/STIM_006.jpg
2676.055	0.864	1	generate	Run4	generate/STIM_006.jpg
2679.769	2.03	1	generate	Run4	generate/STIM_006.jpg
2685.16	1.48	1	generate	Run4	generate/STIM_006.jpg
2689.286	1.397	1	generate	Run4	generate/STIM_006.jpg
2694.529	1.996	1	generate	Run4	generate/STIM_007.jpg
2698.992	1.392	1	generate	Run4	generate/STIM_007.jpg
2703.974	1.592	1	generate	Run4	generate/STIM_007.jpg
2708.913	1.377	1	generate	Run4	generate/STIM_007.jpg
2712.306	1.953	1	generate	Run4	generate/STIM_007.jpg
2716.917	0.881	1	generate	Run4	generate/STIM_008.jpg
2719.891	1.207	1	generate	Run4	generate/STIM_008.jpg
2723.12	1.101	1	generate	Run4	generate/STIM_008.jpg
2727.8	1.886	1	generate	Run4	generate/STIM_008.jpg
2733.248	1.324	1	generate	Run4	generate/STIM_008.jpg
2736.593	1.822	1	generate	Run4	generate/STIM_009.jpg
2741.001	1.423	1	generate	Run4	generate/STIM_009.jpg
2745.631	1.879	1	generate	Run4	generate/STIM_009.jpg
2750.465	1.351	1	generate	Run4	generate/STIM_009.jpg
2754.592	0.947	1	generate	Run4	generate/STIM_009.jpg
2758.699	1.536	1	generate	Run4	generate/STIM_010.jpg
2762.91	1.035	1	generate	Run4	generate/STIM_010.jpg
2766.151	1.338	1	generate	Run4	generate/STIM_010.jpg
2770.821	1.632	1	generate	Run4	generate/STIM_010.jpg
2775.362	1.338	1	generate	Run4	generate/STIM_010.jpg
2779.279	1.775	1	generate	Run4	generate/STIM_011.jpg
2783.354	1.648	1	generate	Run4	generate/STIM_011.jpg
2788.131	1.38	1	generate	Run4	generate/STIM_011.jpg
2791.659	1.961	1	generate	Run4	generate/STIM_011.jpg
2797.529	1.784	1	generate	Run4	generate/STIM_011.jpg
2802.528	1.285	1	generate	Run4	generate/STIM_012.jpg
2807.806	1.578	1	generate	Run4	generate/STIM_012.jpg
2812.625	1.264	1	generate	Run4	generate/STIM_012.jpg
2816.393	1.323	1	generate	Run4	generate/STIM_012.jpg
2820.087	1.867	1	generate	Run4	generate/STIM_012.jpg
2824.275	0.953	1	generate	Run4	generate/STIM_013.jpg
2827.743	1.089	1	generate	Run4	generate/STIM_013.jpg
2832.556	1.409	1	generate	Run4	generate/STIM_013.jpg
2836.583	1.167	1	generate	Run4	generate/STIM_013.jpg
2840.746	1.339	1	generate	Run4	generate/STIM_013.jpg
2844.57	1.866	1	generate	Run4	generate/STIM_014.jpg
2848.518	1.446	1	generate	Run4	generate/STIM_014.jpg
2852.44	1.291	1	generate	Run4	generate/STIM_014.jpg
2856.04	1.013	1	generate	Run4	generate/STIM_014.jpg
2859.834	1.559	1	generate	Run4	generate/STIM_014.jpg
2864.221	1.77	1	generate	Run4	generate/STIM_015.jpg
2869.731	1.808	1	generate	Run4	generate/STIM_015.jpg
2875.119	1.543	1	generate	Run4	generate/STIM_015.jpg
2880.561	1.554	1	generate	Run4	generate/STIM_015.jpg
2885.067	1.974	1	generate	Run4	generate/STIM_015.jpg
2889.998	1.719	1	generate	Run4	generate/STIM_016.jpg
2894.089	1.288	1	generate	Run4	generate/STIM_016.jpg
2898.574	1.687	1	generate	Run4	generate/STIM_016.jpg
2904.015	1.142	1	generate	Run4	generate/STIM_016.jpg
2907.373	0.932	1	generate	Run4	generate/STIM_016.jpg
2910.478	1.146	1	generate	Run4	generate/STIM_017.jpg
2914.716	1.017	1	generate	Run4	generate/STIM_017.jpg
2919.431	1.449	1	generate	Run4	generate/STIM_017.jpg
2923.787	1.25	1	generate	Run4	generate/STIM_017.jpg
2928.642	1.414	1	generate	Run4	generate/STIM_017.jpg
2933.829	1.546	1	generate	Run4	generate/STIM_018.jpg
2938.327	1.638	1	generate	Run4	generate/STIM_018.jpg
2943.939	1.165	1	generate	Run4	generate/STIM_018.jpg
2948.374	1.799	1	generate	Run4	generate/STIM_018.jpg
2953.214	0.904	1	generate	Run4	generate/STIM_018.jpg
2957.476	1.35	1	generate	Run4	generate/STIM_019.jpg
2961.783	1.414	1	generate	Run4	generate/STIM_019.jpg
2966.087	0.823	1	generate	Run4	generate/STIM_019.jpg
2969.064	1.143	1	generate	Run4	generate/STIM_019.jpg
2972.923	1.166	1	generate	Run4	generate/STIM_019.jpg
2976.294	1.508	1	generate	Run4	generate/STIM_020.jpg
2981.716	1.091	1	generate	Run4	generate/STIM_020.jpg
2986.401	1.598	1	generate	Run4	generate/STIM_020.jpg
2990.323	1.25	1	generate	Run4	generate/STIM_020.jpg
2995.075	0.924	1	generate	Run4	generate/STIM_020.jpg
2999.21	1.449	1	generate	Run4	generate/STIM_021.jpg
3002.96	0.984	1	generate	Run4	generate/STIM_021.jpg
3007.877	1.332	1	generate	Run4	generate/STIM_021.jpg
3012.682	1.694	1	generate	Run4	generate/STIM_021.jpg
3016.704	2.022	1	generate	Run4	generate/STIM_021.jpg
3021.325	1.901	1	generate	Run4	generate/STIM_022.jpg
3027.049	0.818	1	generate	Run4	generate/STIM_022.jpg
3031.179	0.949	1	generate	Run4	generate/STIM_022.jpg
3035.304	2.019	1	generate	Run4	generate/STIM_022.jpg
3039.757	1.477	0	generate	Run4	generate/STIM_022.jpg
3044.786	0.849	1	generate	Run4	generate/STIM_023.jpg
3049.221	1.775	1	generate	Run4	generate/STIM_023.jpg
3053.705	1.588	1	generate	Run4	generate/STIM_023.jpg
3058.425	1.433	1	generate	Run4	generate/STIM_023.jpg
3063.131	1.173	1	generate	Run4	generate/STIM_023.jpg
3066.396	1.661	1	generate	Run4	generate/STIM_024.jpg
3070.876	1.06	1	generate	Run4	generate/STIM_024.jpg
3074.295	1.539	1	generate	Run4	generate/STIM_024.jpg
3078.376	1.288	1	generate	Run4	generate/STIM_024.jpg
3082.087	0.919	1	generate	Run4	generate/STIM_024.jpg
3086.355	0.648	1	repeat	Run4	repeat/STIM_000.jpg
3089.18	0.879	1	repeat	Run4	repeat/STIM_000.jpg
3093.031	0.772	1	repeat	Run4	repeat/STIM_000.jpg
3097.354	0.932	1	repeat	Run4	repeat/STIM_000.jpg
3101.479	0.764	1	repeat	Run4	repeat/STIM_000.jpg
3104.649	0.872	1	repeat	Run4	repeat/STIM_001.jpg
3109.149	0.817	0	repeat	Run4	repeat/STIM_001.jpg
3113.21	0.782	1	repeat	Run4	repeat/STIM_001.jpg
3117.434	0.626	1	repeat	Run4	repeat/STIM_001.jpg
3120.427	0.889	1	repeat	Run4	repeat/STIM_001.jpg
3124.702	0.96	1	repeat	Run4	repeat/STIM_002.jpg
3129.451	0.698	1	repeat	Run4	repeat/STIM_002.jpg
3132.756	0.703	1	repeat	Run4	repeat/STIM_002.jpg
3135.901	0.541	1	repeat	Run4	repeat/STIM_002.jpg
3139.051	0.877	1	repeat	Run4	repeat/STIM_002.jpg
3143.785	0.547	1	repeat	Run4	repeat/STIM_003.jpg
3147.669	0.497	1	repeat	Run4	repeat/STIM_003.jpg
3152.099	0.663	1	repeat	Run4	repeat/STIM_003.jpg
3156.536	0.555	1	repeat	Run4	repeat/STIM_003.jpg
3160.739	0.891	1	repeat	Run4	repeat/STIM_003.jpg
3164.087	0.83	1	repeat	Run4	repeat/STIM_004.jpg
3167.258	0.615	1	repeat	Run4	repeat/STIM_004.jpg
3171.863	0.823	1	repeat	Run4	repeat/STIM_004.jpg
3175.049	0.881	1	repeat	Run4	repeat/STIM_004.jpg
3179.564	0.801	1	repeat	Run4	repeat/STIM_004.jpg
3183.689	0.723	1	repeat	Run4	repeat/STIM_005.jpg
3187.975	0.572	1	repeat	Run4	repeat/STIM_005.jpg
3192.357	0.839	1	repeat	Run4	repeat/STIM_005.jpg
3196.809	0.72	1	repeat	Run4	repeat/STIM_005.jpg
3200.065	0.899	1	repeat	Run4	repeat/STIM_005.jpg
3204.337	0.873	1	repeat	Run4	repeat/STIM_006.jpg
3208.575	0.89	1	repeat	Run4	repeat/STIM_006.jpg
3213.02	0.882	1	repeat	Run4	repeat/STIM_006.jpg
3215.992	0.51	1	repeat	Run4	repeat/STIM_006.jpg
3219.313	0.745	1	repeat	Run4	repeat/STIM_006.jpg
3223.25	0.921	1	repeat	Run4	repeat/STIM_007.jpg
3227.824	0.496	1	repeat	Run4	repeat/STIM_007.jpg
3230.436	0.905	1	repeat	Run4	repeat/STIM_007.jpg
3234.797	0.923	1	repeat	Run4	repeat/STIM_007.jpg
3239.249	0.912	1	repeat	Run4	repeat/STIM_007.jpg
3243.293	0.892	1	repeat	Run4	repeat/STIM_008.jpg
3248.09	0.629	1	repeat	Run4	repeat/STIM_008.jpg
3250.952	0.804	1	repeat	Run4	repeat/STIM_008.jpg
3254.811	0.884	1	repeat	Run4	repeat/STIM_008.jpg
3259.426	0.828	1	repeat	Run4	repeat/STIM_008.jpg
3263.322	0.95	1	repeat	Run4	repeat/STIM_009.jpg
3267.514	0.634	1	repeat	Run4	repeat/STIM_009.jpg
3270.637	0.588	1	repeat	Run4	repeat/STIM_009.jpg
3273.779	0.587	1	repeat	Run4	repeat/STIM_009.jpg
3277.263	0.594	1	repeat	Run4	repeat/STIM_009.jpg
3279.986	0.938	1	repeat	Run4	repeat/STIM_010.jpg
3283.603	0.522	1	repeat	Run4	repeat/STIM_010.jpg
3287.209	0.588	0	repeat	Run4	repeat/STIM_010.jpg
3290.445	0.811	1	repeat	Run4	repeat/STIM_010.jpg
3294.884	0.931	1	repeat	Run4	repeat/STIM_010.jpg
3298.078	0.615	1	repeat	Run4	repeat/STIM_011.jpg
3301.448	0.562	1	repeat	Run4	repeat/STIM_011.jpg
3304.691	0.842	1	repeat	Run4	repeat/STIM_011.jpg
3307.982	0.593	1	repeat	Run4	repeat/STIM_011.jpg
3310.701	0.787	1	repeat	Run4	repeat/STIM_011.jpg
3314.581	0.642	1	repeat	Run4	repeat/STIM_012.jpg
3318.005	0.632	1	repeat	Run4	repeat/STIM_012.jpg
3321.407	0.719	0	repeat	Run4	repeat/STIM_012.jpg
3325.793	0.803	1	repeat	Run4	repeat/STIM_012.jpg
3329.771	0.704	1	repeat	Run4	repeat/STIM_012.jpg
3332.552	0.486	1	repeat	Run4	repeat/STIM_013.jpg
3335.762	0.753	1	repeat	Run4	repeat/STIM_013.jpg
3339.169	0.579	1	repeat	Run4	repeat/STIM_013.jpg
3341.821	0.486	1	repeat	Run4	repeat/STIM_013.jpg
3344.855	0.957	1	repeat	Run4	repeat/STIM_013.jpg
3349.154	0.935	1	repeat	Run4	repeat/STIM_014.jpg
3353.465	0.713	1	repeat	Run4	repeat/STIM_014.jpg
3356.568	0.561	1	repeat	Run4	repeat/STIM_014.jpg
3361.007	0.646	1	repeat	Run4	repeat/STIM_014.jpg
3365.251	0.852	1	repeat	Run4	repeat/STIM_014.jpg
