onset	duration	response_time_ms	trial_type	learning_stage	stimulus	response_port
0.0	1.161	1161.1	incongruent	Block1	incongruent/STIM_000.jpg	99
4.606	1.096	1095.5	incongruent	Block1	incongruent/STIM_000.jpg	99
8.394	0.679	678.8	incongruent	Block1	incongruent/STIM_000.jpg	100
12.231	1.1	1100.3	incongruent	Block1	incongruent/STIM_000.jpg	100
16.154	0.954	953.5	incongruent	Block1	incongruent/STIM_000.jpg	99
19.521	0.643	643.2	incongruent	Block1	incongruent/STIM_001.jpg	99
22.883	0.772	771.7	incongruent	Block1	incongruent/STIM_001.jpg	99
26.121	0.643	643.1	incongruent	Block1	incongruent/STIM_001.jpg	99
29.585	0.693	693.0	incongruent	Block1	incongruent/STIM_001.jpg	99
33.313	0.87	870.0	incongruent	Block1	incongruent/STIM_001.jpg	100
36.61	1.084	1084.3	incongruent	Block1	incongruent/STIM_002.jpg	100
40.425	0.975	975.1	incongruent	Block1	incongruent/STIM_002.jpg	99
43.88	0.8	799.7	incongruent	Block1	incongruent/STIM_002.jpg	100
47.347	1.02	1020.0	incongruent	Block1	incongruent/STIM_002.jpg	99
51.053	0.562	562.2	incongruent	Block1	incongruent/STIM_002.jpg	100
55.514	1.14	1140.3	incongruent	Block1	incongruent/STIM_003.jpg	99
59.423	0.962	961.7	incongruent	Block1	incongruent/STIM_003.jpg	99
64.338	0.789	789.4	incongruent	Block1	incongruent/STIM_003.jpg	100
67.553	1.078	1078.2	incongruent	Block1	incongruent/STIM_003.jpg	99
71.635	1.034	1034.5	incongruent	Block1	incongruent/STIM_003.jpg	99
75.476	0.948	947.6	incongruent	Block1	incongruent/STIM_004.jpg	100
79.751	1.171	1171.4	incongruent	Block1	incongruent/STIM_004.jpg	99
83.121	0.602	602.1	incongruent	Block1	incongruent/STIM_004.jpg	100
87.09	0.915	915.1	incongruent	Block1	incongruent/STIM_004.jpg	100
90.552	0.93	929.7	incongruent	Block1	incongruent/STIM_004.jpg	100
93.68	1.27	1270.5	incongruent	Block1	incongruent/STIM_005.jpg	100
97.863	1.186	1185.5	incongruent	Block1	incongruent/STIM_005.jpg	99
102.4	0.711	710.8	incongruent	Block1	incongruent/STIM_005.jpg	99
105.874	0.687	687.1	incongruent	Block1	incongruent/STIM_005.jpg	99
110.411	0.662	661.9	incongruent	Block1	incongruent/STIM_005.jpg	99
113.42	0.736	735.7	incongruent	Block1	incongruent/STIM_006.jpg	100
118.217	0.642	641.5	incongruent	Block1	incongruent/STIM_006.jpg	100
122.918	0.728	728.0	incongruent	Block1	incongruent/STIM_006.jpg	100
126.05	1.044	1044.3	incongruent	Block1	incongruent/STIM_006.jpg	100
129.303	1.071	1071.4	incongruent	Block1	incongruent/STIM_006.jpg	100
133.083	1.213	1213.1	incongruent	Block1	incongruent/STIM_007.jpg	99
137.404	0.736	735.9	incongruent	Block1	incongruent/STIM_007.jpg	99
141.746	0.952	952.2	incongruent	Block1	incongruent/STIM_007.jpg	99
146.067	0.744	743.7	incongruent	Block1	incongruent/STIM_007.jpg	99
150.493	1.001	1000.8	incongruent	Block1	incongruent/STIM_007.jpg	100
155.243	0.772	771.6	incongruent	Block1	incongruent/STIM_008.jpg	99
158.347	1.228	1227.7	incongruent	Block1	incongruent/STIM_008.jpg	99
163.047	1.03	1030.2	incongruent	Block1	incongruent/STIM_008.jpg	100
167.21	0.8	800.2	incongruent	Block1	incongruent/STIM_008.jpg	100
170.56	1.007	1006.9	incongruent	Block1	incongruent/STIM_008.jpg	100
175.43	0.647	647.4	incongruent	Block1	incongruent/STIM_009.jpg	99
178.977	0.769	768.6	incongruent	Block1	incongruent/STIM_009.jpg	100
183.789	1.092	1091.7	incongruent	Block1	incongruent/STIM_009.jpg	100
188.143	0.786	786.2	incongruent	Block1	incongruent/STIM_009.jpg	100
192.191	0.726	726.0	incongruent	Block1	incongruent/STIM_009.jpg	100
195.523	1.344	1343.5	incongruent	Block1	incongruent/STIM_010.jpg	100
199.366	0.721	720.8	incongruent	Block1	incongruent/STIM_010.jpg	99
202.356	1.143	1143.0	incongruent	Block1	incongruent/STIM_010.jpg	100
206.881	0.991	991.0	incongruent	Block1	incongruent/STIM_010.jpg	100
210.619	0.871	871.0	incongruent	Block1	incongruent/STIM_010.jpg	99
213.745	0.728	727.9	incongruent	Block1	incongruent/STIM_011.jpg	99
217.462	1.121	1120.7	incongruent	Block1	incongruent/STIM_011.jpg	99
221.651	0.95	950.4	incongruent	Block1	incongruent/STIM_011.jpg	100
224.81	0.562	562.3	incongruent	Block1	incongruent/STIM_011.jpg	100
228.825	0.636	635.8	incongruent	Block1	incongruent/STIM_011.jpg	99
233.376	0.83	830.4	incongruent	Block1	incongruent/STIM_012.jpg	99
238.192	0.775	774.8	incongruent	Block1	incongruent/STIM_012.jpg	100
242.38	1.035	1034.7	incongruent	Block1	incongruent/STIM_012.jpg	100
246.366	0.709	708.9	incongruent	Block1	incongruent/STIM_012.jpg	100
249.983	1.015	1014.6	incongruent	Block1	incongruent/STIM_012.jpg	100
253.413	0.738	737.8	incongruent	Block1	incongruent/STIM_013.jpg	99
257.434	0.846	846.2	incongruent	Block1	incongruent/STIM_013.jpg	99
261.642	0.682	681.5	incongruent	Block1	incongruent/STIM_013.jpg	99
264.813	0.56	560.5	incongruent	Block1	incongruent/STIM_013.jpg	99
268.991	0.851	851.0	incongruent	Block1	incongruent/STIM_013.jpg	99
272.485	0.726	726.3	incongruent	Block1	incongruent/STIM_014.jpg	99
275.489	0.803	803.4	incongruent	Block1	incongruent/STIM_014.jpg	100
278.697	0.722	722.3	incongruent	Block1	incongruent/STIM_014.jpg	99
283.082	1.085	1085.4	incongruent	Block1	incongruent/STIM_014.jpg	99
287.426	1.005	1005.1	incongruent	Block1	incongruent/STIM_014.jpg	99
292.478	0.882	881.5	incongruent	Block1	incongruent/STIM_015.jpg	100
295.955	0.688	688.1	incongruent	Block1	incongruent/STIM_015.jpg	99
300.588	0.988	988.5	incongruent	Block1	incongruent/STIM_015.jpg	100
304.644	0.687	687.2	incongruent	Block1	incongruent/STIM_015.jpg	99
308.862	0.865	864.9	incongruent	Block1	incongruent/STIM_015.jpg	99
313.046	1.099	1098.7	incongruent	Block1	incongruent/STIM_016.jpg	99
316.587	0.953	953.1	incongruent	Block1	incongruent/STIM_016.jpg	100
320.293	0.836	835.7	incongruent	Block1	incongruent/STIM_016.jpg	100
323.844	0.782	782.5	incongruent	Block1	incongruent/STIM_016.jpg	99
328.371	1.05	1049.5	incongruent	Block1	incongruent/STIM_016.jpg	100
331.869	0.657	657.0	incongruent	Block1	incongruent/STIM_017.jpg	100
334.851	0.605	605.1	incongruent	Block1	incongruent/STIM_017.jpg	100
339.249	1.104	1104.1	incongruent	Block1	incongruent/STIM_017.jpg	99
343.978	0.903	902.7	incongruent	Block1	incongruent/STIM_017.jpg	100
348.98	0.78	780.4	incongruent	Block1	incongruent/STIM_017.jpg	99
353.751	0.672	672.5	incongruent	Block1	incongruent/STIM_018.jpg	99
357.631	0.94	940.5	incongruent	Block1	incongruent/STIM_018.jpg	99
362.311	1.108	1108.2	incongruent	Block1	incongruent/STIM_018.jpg	100
366.389	1.135	1135.4	incongruent	Block1	incongruent/STIM_018.jpg	99
369.734	0.781	781.4	incongruent	Block1	incongruent/STIM_018.jpg	99
373.594	0.679	679.2	incongruent	Block1	incongruent/STIM_019.jpg	99
376.394	0.662	662.1	incongruent	Block1	incongruent/STIM_019.jpg	100
379.283	0.781	781.2	incongruent	Block1	incongruent/STIM_019.jpg	100
382.441	0.89	889.9	incongruent	Block1	incongruent/STIM_019.jpg	99
386.861	1.064	1063.7	incongruent	Block1	incongruent/STIM_019.jpg	100
390.914	1.037	1037.4	incongruent	Block1	incongruent/STIM_020.jpg	99
394.337	0.966	966.1	incongruent	Block1	incongruent/STIM_020.jpg	100
397.978	0.934	933.6	incongruent	Block1	incongruent/STIM_020.jpg	99
402.124	0.778	778.5	incongruent	Block1	incongruent/STIM_020.jpg	99
405.15	0.848	848.2	incongruent	Block1	incongruent/STIM_020.jpg	100
409.611	0.863	863.0	incongruent	Block1	incongruent/STIM_021.jpg	100
413.209	0.888	887.8	incongruent	Block1	incongruent/STIM_021.jpg	99
416.832	0.916	915.6	incongruent	Block1	incongruent/STIM_021.jpg	99
419.917	0.655	654.6	incongruent	Block1	incongruent/STIM_021.jpg	99
424.58	1.007	1007.0	incongruent	Block1	incongruent/STIM_021.jpg	99
428.155	1.201	1201.3	incongruent	Block1	incongruent/STIM_022.jpg	100
431.972	1.095	1094.7	incongruent	Block1	incongruent/STIM_022.jpg	99
435.97	0.905	905.1	incongruent	Block1	incongruent/STIM_022.jpg	100
440.635	1.07	1069.5	incongruent	Block1	incongruent/STIM_022.jpg	99
444.497	1.032	1032.0	incongruent	Block1	incongruent/STIM_022.jpg	100
449.08	1.222	1221.6	incongruent	Block1	incongruent/STIM_023.jpg	100
454.426	1.038	1038.1	incongruent	Block1	incongruent/STIM_023.jpg	100
458.673	0.728	727.5	incongruent	Block1	incongruent/STIM_023.jpg	100
463.307	1.073	1072.9	incongruent	Block1	incongruent/STIM_023.jpg	99
468.004	0.674	674.4	incongruent	Block1	incongruent/STIM_023.jpg	100
471.544	0.867	866.9	incongruent	Block1	incongruent/STIM_024.jpg	99
475.902	1.134	1133.5	incongruent	Block1	incongruent/STIM_024.jpg	100
480.67	0.735	735.3	incongruent	Block1	incongruent/STIM_024.jpg	99
483.816	0.702	701.9	incongruent	Block1	incongruent/STIM_024.jpg	99
488.078	0.663	663.0	incongruent	Block1	incongruent/STIM_024.jpg	100
491.64	1.004	1004.3	incongruent	Block1	incongruent/STIM_025.jpg	99
494.989	0.714	713.8	incongruent	Block1	incongruent/STIM_025.jpg	100
497.928	0.972	971.9	incongruent	Block1	incongruent/STIM_025.jpg	99
501.36	0.659	659.1	incongruent	Block1	incongruent/STIM_025.jpg	99
504.998	1.001	1000.7	incongruent	Block1	incongruent/STIM_025.jpg	100
509.752	1.198	1198.4	incongruent	Block1	incongruent/STIM_026.jpg	99
513.447	1.033	1033.3	incongruent	Block1	incongruent/STIM_026.jpg	100
516.658	0.852	852.1	incongruent	Block1	incongruent/STIM_026.jpg	100
519.962	1.105	1104.8	incongruent	Block1	incongruent/STIM_026.jpg	100
524.522	0.997	997.4	incongruent	Block1	incongruent/STIM_026.jpg	99
528.179	1.24	1240.5	incongruent	Block1	incongruent/STIM_027.jpg	100
531.943	0.863	863.4	incongruent	Block1	incongruent/STIM_027.jpg	99
535.803	0.74	739.8	incongruent	Block1	incongruent/STIM_027.jpg	100
540.164	0.814	814.3	incongruent	Block1	incongruent/STIM_027.jpg	100
543.555	0.647	647.1	incongruent	Block1	incongruent/STIM_027.jpg	100
548.003	1.027	1027.0	incongruent	Block1	incongruent/STIM_028.jpg	99
552.793	0.732	732.1	incongruent	Block1	incongruent/STIM_028.jpg	99
556.106	0.681	681.1	incongruent	Block1	incongruent/STIM_028.jpg	99
559.341	0.966	966.3	incongruent	Block1	incongruent/STIM_028.jpg	100
563.622	0.889	889.1	incongruent	Block1	incongruent/STIM_028.jpg	100
566.824	0.98	980.5	incongruent	Block1	incongruent/STIM_029.jpg	100
571.055	0.868	867.9	incongruent	Block1	incongruent/STIM_029.jpg	100
575.364	0.779	778.8	incongruent	Block1	incongruent/STIM_029.jpg	99
579.993	1.034	1033.9	incongruent	Block1	incongruent/STIM_029.jpg	100
584.017	0.988	987.7	incongruent	Block1	incongruent/STIM_029.jpg	100
588.088	0.768	768.5	congruent	Block1	congruent/STIM_000.jpg	99
591.139	0.641	640.7	congruent	Block1	congruent/STIM_000.jpg	100
595.681	0.532	531.6	congruent	Block1	congruent/STIM_000.jpg	99
600.114	0.587	586.8	congruent	Block1	congruent/STIM_000.jpg	99
603.778	0.595	594.8	congruent	Block1	congruent/STIM_000.jpg	99
606.593	0.756	756.5	congruent	Block1	congruent/STIM_001.jpg	100
610.45	0.535	534.6	congruent	Block1	congruent/STIM_001.jpg	99
613.108	0.762	762.4	congruent	Block1	congruent/STIM_001.jpg	99
617.445	0.566	565.9	congruent	Block1	congruent/STIM_001.jpg	99
621.148	0.472	471.9	congruent	Block1	congruent/STIM_001.jpg	99
624.806	0.677	677.4	congruent	Block1	congruent/STIM_002.jpg	100
628.448	0.8	799.6	congruent	Block1	congruent/STIM_002.jpg	100
632.291	0.794	793.7	congruent	Block1	congruent/STIM_002.jpg	99
635.304	0.451	450.8	congruent	Block1	congruent/STIM_002.jpg	99
638.512	0.489	489.0	congruent	Block1	congruent/STIM_002.jpg	100
641.448	0.76	759.5	congruent	Block1	congruent/STIM_003.jpg	99
645.646	0.742	742.3	congruent	Block1	congruent/STIM_003.jpg	99
649.205	0.62	620.1	congruent	Block1	congruent/STIM_003.jpg	100
652.29	0.713	713.3	congruent	Block1	congruent/STIM_003.jpg	99
656.532	0.708	708.3	congruent	Block1	congruent/STIM_003.jpg	100
660.522	0.804	804.2	congruent	Block1	congruent/STIM_004.jpg	100
664.916	0.604	604.1	congruent	Block1	congruent/STIM_004.jpg	100
668.006	0.596	596.3	congruent	Block1	congruent/STIM_004.jpg	100
671.405	0.572	572.1	congruent	Block1	congruent/STIM_004.jpg	100
675.566	0.683	682.9	congruent	Block1	congruent/STIM_004.jpg	99
679.192	0.713	712.8	congruent	Block1	congruent/STIM_005.jpg	99
682.252	0.744	743.5	congruent	Block1	congruent/STIM_005.jpg	100
685.63	0.458	458.2	congruent	Block1	congruent/STIM_005.jpg	99
688.53	0.74	740.4	congruent	Block1	congruent/STIM_005.jpg	99
691.616	0.77	770.1	congruent	Block1	congruent/STIM_005.jpg	100
694.843	0.467	467.0	congruent	Block1	congruent/STIM_006.jpg	99
698.296	0.584	583.9	congruent	Block1	congruent/STIM_006.jpg	99
701.575	0.6	599.8	congruent	Block1	congruent/STIM_006.jpg	100
704.909	0.788	788.0	congruent	Block1	congruent/STIM_006.jpg	99
708.852	0.738	738.5	congruent	Block1	congruent/STIM_006.jpg	99
711.948	0.588	587.5	congruent	Block1	congruent/STIM_007.jpg	99
716.443	0.632	631.8	congruent	Block1	congruent/STIM_007.jpg	99
719.76	0.781	781.1	congruent	Block1	congruent/STIM_007.jpg	100
723.112	0.472	471.5	congruent	Block1	congruent/STIM_007.jpg	99
725.945	0.695	694.9	congruent	Block1	congruent/STIM_007.jpg	100
729.252	0.45	450.2	congruent	Block1	congruent/STIM_008.jpg	99
733.231	0.734	733.5	congruent	Block1	congruent/STIM_008.jpg	100
737.142	0.764	764.1	congruent	Block1	congruent/STIM_008.jpg	100
740.3	0.741	741.0	congruent	Block1	congruent/STIM_008.jpg	99
744.66	0.681	680.6	congruent	Block1	congruent/STIM_008.jpg	99
747.562	0.616	615.7	congruent	Block1	congruent/STIM_009.jpg	99
751.945	0.767	766.6	congruent	Block1	congruent/STIM_009.jpg	99
755.246	0.615	614.9	congruent	Block1	congruent/STIM_009.jpg	99
759.479	0.468	467.5	congruent	Block1	congruent/STIM_009.jpg	100
763.857	0.539	538.9	congruent	Block1	congruent/STIM_009.jpg	100
768.075	0.61	609.9	congruent	Block1	congruent/STIM_010.jpg	100
771.01	0.624	624.1	congruent	Block1	congruent/STIM_010.jpg	100
773.915	0.677	676.6	congruent	Block1	congruent/STIM_010.jpg	100
777.457	0.479	478.9	congruent	Block1	congruent/STIM_010.jpg	100
781.061	0.618	617.7	congruent	Block1	congruent/STIM_010.jpg	100
785.547	0.795	795.2	congruent	Block1	congruent/STIM_011.jpg	99
788.623	0.714	713.9	congruent	Block1	congruent/STIM_011.jpg	99
792.382	0.726	726.3	congruent	Block1	congruent/STIM_011.jpg	100
795.729	0.536	535.8	congruent	Block1	congruent/STIM_011.jpg	99
799.634	0.749	748.9	congruent	Block1	congruent/STIM_011.jpg	100
803.949	0.738	738.5	congruent	Block1	congruent/STIM_012.jpg	99
807.51	0.587	587.2	congruent	Block1	congruent/STIM_012.jpg	100
811.766	0.468	467.9	congruent	Block1	congruent/STIM_012.jpg	100
814.809	0.657	656.7	congruent	Block1	congruent/STIM_012.jpg	100
818.944	0.658	658.4	congruent	Block1	congruent/STIM_012.jpg	99
823.112	0.725	724.8	congruent	Block1	congruent/STIM_013.jpg	100
826.603	0.598	598.4	congruent	Block1	congruent/STIM_013.jpg	99
829.477	0.805	804.7	congruent	Block1	congruent/STIM_013.jpg	99
834.349	0.745	744.7	congruent	Block1	congruent/STIM_013.jpg	99
838.512	0.658	657.8	congruent	Block1	congruent/STIM_013.jpg	100
842.309	0.75	749.7	congruent	Block1	congruent/STIM_014.jpg	99
846.484	0.647	647.2	congruent	Block1	congruent/STIM_014.jpg	100
850.598	0.705	704.6	congruent	Block1	congruent/STIM_014.jpg	99
854.154	0.597	597.3	congruent	Block1	congruent/STIM_014.jpg	100
858.034	0.584	583.5	congruent	Block1	congruent/STIM_014.jpg	99
862.648	0.752	751.7	congruent	Block1	congruent/STIM_015.jpg	99
865.855	0.557	556.9	congruent	Block1	congruent/STIM_015.jpg	100
869.877	0.566	566.0	congruent	Block1	congruent/STIM_015.jpg	99
873.194	0.723	723.4	congruent	Block1	congruent/STIM_015.jpg	100
877.914	0.776	775.5	congruent	Block1	congruent/STIM_015.jpg	100
880.995	0.666	665.9	congruent	Block1	congruent/STIM_016.jpg	99
883.795	0.731	731.2	congruent	Block1	congruent/STIM_016.jpg	99
888.507	0.536	535.6	congruent	Block1	congruent/STIM_016.jpg	99
891.365	0.726	726.5	congruent	Block1	congruent/STIM_016.jpg	99
894.232	0.544	544.2	congruent	Block1	congruent/STIM_016.jpg	99
897.579	0.544	543.9	congruent	Block1	congruent/STIM_017.jpg	99
900.416	0.525	525.0	congruent	Block1	congruent/STIM_017.jpg	100
903.872	0.73	729.5	congruent	Block1	congruent/STIM_017.jpg	100
908.249	0.546	545.9	congruent	Block1	congruent/STIM_017.jpg	100
911.526	0.575	574.6	congruent	Block1	congruent/STIM_017.jpg	100
914.441	0.695	694.9	congruent	Block1	congruent/STIM_018.jpg	99
918.006	0.665	665.4	congruent	Block1	congruent/STIM_018.jpg	99
921.223	0.758	757.8	congruent	Block1	congruent/STIM_018.jpg	100
925.226	0.573	572.8	congruent	Block1	congruent/STIM_018.jpg	99
928.401	0.752	752.2	congruent	Block1	congruent/STIM_018.jpg	100
932.531	0.724	723.9	congruent	Block1	congruent/STIM_019.jpg	99
936.108	0.791	790.9	congruent	Block1	congruent/STIM_019.jpg	99
940.009	0.484	483.9	congruent	Block1	congruent/STIM_019.jpg	99
943.299	0.545	545.2	congruent	Block1	congruent/STIM_019.jpg	99
947.736	0.54	539.9	congruent	Block1	congruent/STIM_019.jpg	100
951.049	0.512	511.9	congruent	Block1	congruent/STIM_020.jpg	99
954.328	0.492	491.6	congruent	Block1	congruent/STIM_020.jpg	99
958.441	0.575	574.6	congruent	Block1	congruent/STIM_020.jpg	100
962.069	0.624	624.5	congruent	Block1	congruent/STIM_020.jpg	99
965.34	0.47	470.5	congruent	Block1	congruent/STIM_020.jpg	100
969.384	0.492	491.8	congruent	Block1	congruent/STIM_021.jpg	100
973.259	0.73	730.3	congruent	Block1	congruent/STIM_021.jpg	99
976.252	0.793	792.9	congruent	Block1	congruent/STIM_021.jpg	100
980.544	0.779	778.6	congruent	Block1	congruent/STIM_021.jpg	99
984.14	0.448	448.3	congruent	Block1	congruent/STIM_021.jpg	100
986.752	0.524	523.5	congruent	Block1	congruent/STIM_022.jpg	100
991.168	0.643	643.0	congruent	Block1	congruent/STIM_022.jpg	99
994.37	0.685	684.6	congruent	Block1	congruent/STIM_022.jpg	99
997.484	0.77	769.9	congruent	Block1	congruent/STIM_022.jpg	100
1001.111	0.504	504.5	congruent	Block1	congruent/STIM_022.jpg	100
1004.157	0.728	727.7	congruent	Block1	congruent/STIM_023.jpg	100
1007.64	0.715	714.8	congruent	Block1	congruent/STIM_023.jpg	100
1011.362	0.499	499.3	congruent	Block1	congruent/STIM_023.jpg	100
1013.95	0.769	769.0	congruent	Block1	congruent/STIM_023.jpg	100
1018.342	0.561	561.1	congruent	Block1	congruent/STIM_023.jpg	100
1022.208	0.621	621.4	congruent	Block1	congruent/STIM_024.jpg	99
1025.124	0.452	452.0	congruent	Block1	congruent/STIM_024.jpg	99
1029.62	0.474	473.5	congruent	Block1	congruent/STIM_024.jpg	100
1033.083	0.706	705.8	congruent	Block1	congruent/STIM_024.jpg	100
1037.739	0.509	509.1	congruent	Block1	congruent/STIM_024.jpg	100
1040.507	0.706	706.5	congruent	Block1	congruent/STIM_025.jpg	100
1044.96	0.716	716.2	congruent	Block1	congruent/STIM_025.jpg	100
1048.929	0.524	524.2	congruent	Block1	congruent/STIM_025.jpg	99
1051.899	0.579	579.0	congruent	Block1	congruent/STIM_025.jpg	100
1055.277	0.575	575.3	congruent	Block1	congruent/STIM_025.jpg	100
1059.552	0.653	652.8	congruent	Block1	congruent/STIM_026.jpg	99
1063.964	0.593	593.3	congruent	Block1	congruent/STIM_026.jpg	100
1068.396	0.527	526.6	congruent	Block1	congruent/STIM_026.jpg	99
1072.396	0.661	661.0	congruent	Block1	congruent/STIM_026.jpg	100
1075.24	0.464	463.5	congruent	Block1	congruent/STIM_026.jpg	100
1078.571	0.486	486.5	congruent	Block1	congruent/STIM_027.jpg	100
1082.331	0.678	677.8	congruent	Block1	congruent/STIM_027.jpg	99
1086.822	0.695	695.3	congruent	Block1	congruent/STIM_027.jpg	100
1090.059	0.471	470.9	congruent	Block1	congruent/STIM_027.jpg	99
1092.958	0.508	508.0	congruent	Block1	congruent/STIM_027.jpg	99
1097.195	0.614	614.2	congruent	Block1	congruent/STIM_028.jpg	100
1100.293	0.615	614.8	congruent	Block1	congruent/STIM_028.jpg	99
1103.479	0.668	668.0	congruent	Block1	congruent/STIM_028.jpg	100
1106.893	0.578	577.7	congruent	Block1	congruent/STIM_028.jpg	100
1111.425	0.554	553.5	congruent	Block1	congruent/STIM_028.jpg	100
1114.068	0.499	498.7	congruent	Block1	congruent/STIM_029.jpg	100
1117.146	0.764	764.5	congruent	Block1	congruent/STIM_029.jpg	100
1121.463	0.654	654.0	congruent	Block1	congruent/STIM_029.jpg	99
1125.828	0.75	750.4	congruent	Block1	congruent/STIM_029.jpg	99
1129.092	0.548	548.2	congruent	Block1	congruent/STIM_029.jpg	99
1131.88	0.801	801.4	incongruent	Block2	incongruent/STIM_000.jpg	100
1134.933	0.629	629.2	incongruent	Block2	incongruent/STIM_000.jpg	99
1137.95	0.993	993.1	incongruent	Block2	incongruent/STIM_000.jpg	99
1142.824	0.76	760.4	incongruent	Block2	incongruent/STIM_000.jpg	99
1146.254	0.641	640.9	incongruent	Block2	incongruent/STIM_000.jpg	100
1149.463	0.904	903.5	incongruent	Block2	incongruent/STIM_001.jpg	99
1154.28	0.531	531.4	incongruent	Block2	incongruent/STIM_001.jpg	100
1157.317	0.963	962.6	incongruent	Block2	incongruent/STIM_001.jpg	99
1161.593	0.918	918.0	incongruent	Block2	incongruent/STIM_001.jpg	99
1166.059	0.684	683.6	incongruent	Block2	incongruent/STIM_001.jpg	100
1169.357	0.903	903.2	incongruent	Block2	incongruent/STIM_002.jpg	100
1173.797	0.934	934.1	incongruent	Block2	incongruent/STIM_002.jpg	99
1178.517	0.566	565.9	incongruent	Block2	incongruent/STIM_002.jpg	100
1182.392	0.756	755.8	incongruent	Block2	incongruent/STIM_002.jpg	100
1187.106	0.7	699.7	incongruent	Block2	incongruent/STIM_002.jpg	99
1190.174	0.61	610.0	incongruent	Block2	incongruent/STIM_003.jpg	100
1193.004	0.536	535.6	incongruent	Block2	incongruent/STIM_003.jpg	100
1196.786	1.006	1005.7	incongruent	Block2	incongruent/STIM_003.jpg	99
1200.911	0.918	918.4	incongruent	Block2	incongruent/STIM_003.jpg	99
1205.314	0.824	823.8	incongruent	Block2	incongruent/STIM_003.jpg	100
1208.363	0.899	899.1	incongruent	Block2	incongruent/STIM_004.jpg	99
1212.446	0.572	572.1	incongruent	Block2	incongruent/STIM_004.jpg	99
1215.47	0.995	995.2	incongruent	Block2	incongruent/STIM_004.jpg	100
1219.436	0.668	667.9	incongruent	Block2	incongruent/STIM_004.jpg	100
1222.419	0.791	790.9	incongruent	Block2	incongruent/STIM_004.jpg	99
1225.41	0.746	746.0	incongruent	Block2	incongruent/STIM_005.jpg	99
1229.225	1.006	1006.5	incongruent	Block2	incongruent/STIM_005.jpg	99
1233.313	0.789	789.4	incongruent	Block2	incongruent/STIM_005.jpg	100
1237.758	0.581	580.6	incongruent	Block2	incongruent/STIM_005.jpg	100
1240.681	0.543	543.2	incongruent	Block2	incongruent/STIM_005.jpg	99
1244.29	0.881	880.8	incongruent	Block2	incongruent/STIM_006.jpg	100
1248.62	1.074	1074.4	incongruent	Block2	incongruent/STIM_006.jpg	100
1253.647	0.86	859.6	incongruent	Block2	incongruent/STIM_006.jpg	99
1258.133	0.534	534.1	incongruent	Block2	incongruent/STIM_006.jpg	100
1261.135	0.598	597.5	incongruent	Block2	incongruent/STIM_006.jpg	100
1265.057	0.878	877.6	incongruent	Block2	incongruent/STIM_007.jpg	99
1269.939	1.063	1063.3	incongruent	Block2	incongruent/STIM_007.jpg	99
1273.439	0.8	800.4	incongruent	Block2	incongruent/STIM_007.jpg	99
1277.873	0.677	676.9	incongruent	Block2	incongruent/STIM_007.jpg	100
1281.599	0.514	513.5	incongruent	Block2	incongruent/STIM_007.jpg	99
1284.745	0.556	556.1	incongruent	Block2	incongruent/STIM_008.jpg	99
1289.106	0.822	821.6	incongruent	Block2	incongruent/STIM_008.jpg	99
1293.223	0.939	939.0	incongruent	Block2	incongruent/STIM_008.jpg	100
1297.147	0.591	590.8	incongruent	Block2	incongruent/STIM_008.jpg	100
1301.28	0.814	814.4	incongruent	Block2	incongruent/STIM_008.jpg	99
1305.638	0.54	540.1	incongruent	Block2	incongruent/STIM_009.jpg	100
1308.789	0.976	975.5	incongruent	Block2	incongruent/STIM_009.jpg	100
1313.314	0.551	551.2	incongruent	Block2	incongruent/STIM_009.jpg	100
1316.569	0.862	862.2	incongruent	Block2	incongruent/STIM_009.jpg	99
1320.635	0.642	642.0	incongruent	Block2	incongruent/STIM_009.jpg	99
1323.717	1.118	1117.6	incongruent	Block2	incongruent/STIM_010.jpg	99
1328.533	0.965	964.7	incongruent	Block2	incongruent/STIM_010.jpg	100
1331.626	0.56	559.9	incongruent	Block2	incongruent/STIM_010.jpg	99
1334.564	0.767	766.7	incongruent	Block2	incongruent/STIM_010.jpg	100
1338.164	0.766	765.6	incongruent	Block2	incongruent/STIM_010.jpg	100
1341.528	0.646	646.1	incongruent	Block2	incongruent/STIM_011.jpg	100
1345.938	0.512	512.4	incongruent	Block2	incongruent/STIM_011.jpg	100
1349.745	0.785	785.1	incongruent	Block2	incongruent/STIM_011.jpg	100
1354.256	0.776	776.0	incongruent	Block2	incongruent/STIM_011.jpg	99
1357.81	0.598	597.9	incongruent	Block2	incongruent/STIM_011.jpg	100
1361.88	0.971	971.4	incongruent	Block2	incongruent/STIM_012.jpg	99
1366.936	0.852	852.2	incongruent	Block2	incongruent/STIM_012.jpg	100
1370.864	0.934	934.1	incongruent	Block2	incongruent/STIM_012.jpg	99
1375.368	0.897	896.9	incongruent	Block2	incongruent/STIM_012.jpg	100
1380.142	0.869	868.7	incongruent	Block2	incongruent/STIM_012.jpg	100
1384.78	0.872	871.9	incongruent	Block2	incongruent/STIM_013.jpg	99
1388.797	0.742	742.5	incongruent	Block2	incongruent/STIM_013.jpg	100
1393.074	0.905	904.6	incongruent	Block2	incongruent/STIM_013.jpg	99
1396.862	0.514	514.5	incongruent	Block2	incongruent/STIM_013.jpg	100
1401.354	0.452	451.7	incongruent	Block2	incongruent/STIM_013.jpg	99
1405.195	0.689	688.7	incongruent	Block2	incongruent/STIM_014.jpg	99
1409.188	0.829	828.9	incongruent	Block2	incongruent/STIM_014.jpg	100
1412.155	0.851	851.3	incongruent	Block2	incongruent/STIM_014.jpg	99
1416.989	0.578	578.0	incongruent	Block2	incongruent/STIM_014.jpg	100
1421.157	0.762	762.3	incongruent	Block2	incongruent/STIM_014.jpg	99
1424.1	0.789	789.3	incongruent	Block2	incongruent/STIM_015.jpg	99
1428.184	0.904	903.7	incongruent	Block2	incongruent/STIM_015.jpg	99
1432.939	0.57	569.5	incongruent	Block2	incongruent/STIM_015.jpg	100
1437.385	0.576	576.4	incongruent	Block2	incongruent/STIM_015.jpg	99
1440.563	0.916	915.7	incongruent	Block2	incongruent/STIM_015.jpg	100
1445.056	0.868	868.1	incongruent	Block2	incongruent/STIM_016.jpg	100
1449.635	1.009	1009.2	incongruent	Block2	incongruent/STIM_016.jpg	100
1454.008	0.539	539.3	incongruent	Block2	incongruent/STIM_016.jpg	100
1457.761	0.568	567.8	incongruent	Block2	incongruent/STIM_016.jpg	99
1461.017	0.813	812.9	incongruent	Block2	incongruent/STIM_016.jpg	99
1465.882	0.935	934.6	incongruent	Block2	incongruent/STIM_017.jpg	99
1470.343	0.524	523.9	incongruent	Block2	incongruent/STIM_017.jpg	100
1473.731	0.833	832.7	incongruent	Block2	incongruent/STIM_017.jpg	99
1477.719	0.899	899.0	incongruent	Block2	incongruent/STIM_017.jpg	100
1481.046	0.581	580.9	incongruent	Block2	incongruent/STIM_017.jpg	100
1483.819	0.721	721.4	incongruent	Block2	incongruent/STIM_018.jpg	100
1486.753	0.787	786.7	incongruent	Block2	incongruent/STIM_018.jpg	100
1490.944	0.922	922.4	incongruent	Block2	incongruent/STIM_018.jpg	99
1493.999	0.601	601.3	incongruent	Block2	incongruent/STIM_018.jpg	100
1498.584	0.499	499.2	incongruent	Block2	incongruent/STIM_018.jpg	100
1501.795	1.12	1120.4	incongruent	Block2	incongruent/STIM_019.jpg	100
1506.317	0.511	510.8	incongruent	Block2	incongruent/STIM_019.jpg	100
1510.679	0.597	597.3	incongruent	Block2	incongruent/STIM_019.jpg	99
1514.788	0.65	650.0	incongruent	Block2	incongruent/STIM_019.jpg	99
1518.041	0.514	513.5	incongruent	Block2	incongruent/STIM_019.jpg	100
1522.265	0.927	926.7	incongruent	Block2	incongruent/STIM_020.jpg	100
1525.905	0.602	601.7	incongruent	Block2	incongruent/STIM_020.jpg	100
1529.317	0.963	963.2	incongruent	Block2	incongruent/STIM_020.jpg	99
1533.713	0.841	841.1	incongruent	Block2	incongruent/STIM_020.jpg	100
1538.127	0.842	842.5	incongruent	Block2	incongruent/STIM_020.jpg	100
1541.408	0.763	762.6	incongruent	Block2	incongruent/STIM_021.jpg	99
1546.043	0.862	861.8	incongruent	Block2	incongruent/STIM_021.jpg	100
1550.385	0.67	670.0	incongruent	Block2	incongruent/STIM_021.jpg	100
1554.773	0.797	797.0	incongruent	Block2	incongruent/STIM_021.jpg	99
1558.734	0.894	893.8	incongruent	Block2	incongruent/STIM_021.jpg	99
1562.027	0.844	844.0	incongruent	Block2	incongruent/STIM_022.jpg	99
1566.707	1.022	1022.1	incongruent	Block2	incongruent/STIM_022.jpg	99
1570.303	0.539	538.7	incongruent	Block2	incongruent/STIM_022.jpg	99
1574.016	0.901	901.3	incongruent	Block2	incongruent/STIM_022.jpg	99
1578.791	0.938	937.9	incongruent	Block2	incongruent/STIM_022.jpg	100
1581.887	0.832	831.5	incongruent	Block2	incongruent/STIM_023.jpg	99
1585.99	0.811	811.0	incongruent	Block2	incongruent/STIM_023.jpg	100
1589.926	0.962	961.7	incongruent	Block2	incongruent/STIM_023.jpg	100
1594.67	0.889	888.8	incongruent	Block2	incongruent/STIM_023.jpg	99
1598.95	0.758	757.5	incongruent	Block2	incongruent/STIM_023.jpg	99
1602.57	1.128	1128.2	incongruent	Block2	incongruent/STIM_024.jpg	100
1605.882	0.724	724.0	incongruent	Block2	incongruent/STIM_024.jpg	99
1610.471	0.955	954.8	incongruent	Block2	incongruent/STIM_024.jpg	99
1613.812	0.639	638.9	incongruent	Block2	incongruent/STIM_024.jpg	100
1617.261	0.921	921.0	incongruent	Block2	incongruent/STIM_024.jpg	100
1620.812	1.021	1020.8	incongruent	Block2	incongruent/STIM_025.jpg	100
1625.8	0.527	526.8	incongruent	Block2	incongruent/STIM_025.jpg	99
1629.596	0.732	732.0	incongruent	Block2	incongruent/STIM_025.jpg	99
1633.224	0.52	520.2	incongruent	Block2	incongruent/STIM_025.jpg	99
1636.163	0.917	917.2	incongruent	Block2	incongruent/STIM_025.jpg	99
1639.839	0.938	937.7	incongruent	Block2	incongruent/STIM_026.jpg	99
1644.636	0.555	554.8	incongruent	Block2	incongruent/STIM_026.jpg	100
1648.741	0.978	978.0	incongruent	Block2	incongruent/STIM_026.jpg	100
1652.902	0.547	546.7	incongruent	Block2	incongruent/STIM_026.jpg	99
1656.034	0.614	613.6	incongruent	Block2	incongruent/STIM_026.jpg	99
1660.534	0.711	710.6	incongruent	Block2	incongruent/STIM_027.jpg	99
1665.015	0.766	765.5	incongruent	Block2	incongruent/STIM_027.jpg	99
1668.329	0.652	651.7	incongruent	Block2	incongruent/STIM_027.jpg	100
1672.41	0.625	624.9	incongruent	Block2	incongruent/STIM_027.jpg	99
1676.261	0.609	609.1	incongruent	Block2	incongruent/STIM_027.jpg	100
1679.22	0.942	942.4	incongruent	Block2	incongruent/STIM_028.jpg	100
1682.518	0.852	852.0	incongruent	Block2	incongruent/STIM_028.jpg	100
1686.674	0.491	490.8	incongruent	Block2	incongruent/STIM_028.jpg	100
1690.838	0.46	459.6	incongruent	Block2	incongruent/STIM_028.jpg	99
1694.015	0.815	814.8	incongruent	Block2	incongruent/STIM_028.jpg	99
1698.467	0.861	861.0	incongruent	Block2	incongruent/STIM_029.jpg	99
1703.017	0.74	739.5	incongruent	Block2	incongruent/STIM_029.jpg	100
1706.915	0.611	610.9	incongruent	Block2	incongruent/STIM_029.jpg	100
1711.193	0.871	871.1	incongruent	Block2	incongruent/STIM_029.jpg	99
1715.817	0.604	603.5	incongruent	Block2	incongruent/STIM_029.jpg	99
1718.92	0.568	568.1	congruent	Block2	congruent/STIM_000.jpg	100
1722.205	0.791	791.0	congruent	Block2	congruent/STIM_000.jpg	100
1726.838	0.703	702.7	congruent	Block2	congruent/STIM_000.jpg	100
1730.682	0.478	477.7	congruent	Block2	congruent/STIM_000.jpg	99
1734.511	0.584	583.8	congruent	Block2	congruent/STIM_000.jpg	100
1738.813	0.781	781.0	congruent	Block2	congruent/STIM_001.jpg	100
1742.254	0.74	739.6	congruent	Block2	congruent/STIM_001.jpg	100
1745.854	0.564	564.5	congruent	Block2	congruent/STIM_001.jpg	100
1750.451	0.685	684.8	congruent	Block2	congruent/STIM_001.jpg	100
1754.495	0.72	719.7	congruent	Block2	congruent/STIM_001.jpg	100
1757.941	0.732	731.6	congruent	Block2	congruent/STIM_002.jpg	100
1761.977	0.599	599.2	congruent	Block2	congruent/STIM_002.jpg	99
1765.164	0.568	568.2	congruent	Block2	congruent/STIM_002.jpg	99
1768.502	0.511	510.7	congruent	Block2	congruent/STIM_002.jpg	99
1771.269	0.708	707.5	congruent	Block2	congruent/STIM_002.jpg	100
1775.276	0.652	651.6	congruent	Block2	congruent/STIM_003.jpg	100
1778.621	0.596	595.8	congruent	Block2	congruent/STIM_003.jpg	100
1782.395	0.749	748.9	congruent	Block2	congruent/STIM_003.jpg	100
1786.315	0.636	636.1	congruent	Block2	congruent/STIM_003.jpg	99
1790.061	0.572	572.2	congruent	Block2	congruent/STIM_003.jpg	100
1793.077	0.602	602.4	congruent	Block2	congruent/STIM_004.jpg	100
1796.462	0.556	555.9	congruent	Block2	congruent/STIM_004.jpg	99
1799.315	0.607	607.1	congruent	Block2	congruent/STIM_004.jpg	100
1802.955	0.782	782.0	congruent	Block2	congruent/STIM_004.jpg	100
1807.469	0.794	794.1	congruent	Block2	congruent/STIM_004.jpg	100
1810.496	0.758	757.9	congruent	Block2	congruent/STIM_005.jpg	100
1813.852	0.516	516.5	congruent	Block2	congruent/STIM_005.jpg	99
1817.548	0.584	584.4	congruent	Block2	congruent/STIM_005.jpg	99
1821.521	0.593	593.0	congruent	Block2	congruent/STIM_005.jpg	100
1824.309	0.506	506.0	congruent	Block2	congruent/STIM_005.jpg	100
1827.875	0.642	642.2	congruent	Block2	congruent/STIM_006.jpg	99
1830.995	0.63	630.4	congruent	Block2	congruent/STIM_006.jpg	99
1834.147	0.617	617.0	congruent	Block2	congruent/STIM_006.jpg	100
1836.99	0.736	736.2	congruent	Block2	congruent/STIM_006.jpg	99
1840.019	0.591	591.1	congruent	Block2	congruent/STIM_006.jpg	99
1843.113	0.595	595.1	congruent	Block2	congruent/STIM_007.jpg	100
1847.381	0.691	690.9	congruent	Block2	congruent/STIM_007.jpg	100
1851.538	0.762	761.7	congruent	Block2	congruent/STIM_007.jpg	99
1856.11	0.786	786.3	congruent	Block2	congruent/STIM_007.jpg	99
1860.419	0.766	765.7	congruent	Block2	congruent/STIM_007.jpg	99
1864.725	0.663	662.9	congruent	Block2	congruent/STIM_008.jpg	100
1868.648	0.608	607.7	congruent	Block2	congruent/STIM_008.jpg	100
1873.049	0.543	542.7	congruent	Block2	congruent/STIM_008.jpg	100
1877.154	0.668	668.3	congruent	Block2	congruent/STIM_008.jpg	100
1881.717	0.695	694.8	congruent	Block2	congruent/STIM_008.jpg	100
1885.978	0.689	689.2	congruent	Block2	congruent/STIM_009.jpg	99
1890.3	0.713	713.1	congruent	Block2	congruent/STIM_009.jpg	99
1893.509	0.686	686.0	congruent	Block2	congruent/STIM_009.jpg	99
1898.039	0.681	681.0	congruent	Block2	congruent/STIM_009.jpg	100
1902.216	0.502	501.7	congruent	Block2	congruent/STIM_009.jpg	99
1905.85	0.724	723.7	congruent	Block2	congruent/STIM_010.jpg	99
1910.369	0.759	758.7	congruent	Block2	congruent/STIM_010.jpg	100
1913.903	0.515	514.8	congruent	Block2	congruent/STIM_010.jpg	100
1916.877	0.726	726.2	congruent	Block2	congruent/STIM_010.jpg	100
1921.522	0.731	731.2	congruent	Block2	congruent/STIM_010.jpg	99
1924.824	0.781	781.2	congruent	Block2	congruent/STIM_011.jpg	100
1929.551	0.777	776.8	congruent	Block2	congruent/STIM_011.jpg	100
1934.07	0.578	577.5	congruent	Block2	congruent/STIM_011.jpg	99
1937.316	0.652	652.5	congruent	Block2	congruent/STIM_011.jpg	99
1941.641	0.562	562.4	congruent	Block2	congruent/STIM_011.jpg	100
1944.279	0.604	603.7	congruent	Block2	congruent/STIM_012.jpg	100
1947.166	0.514	514.1	congruent	Block2	congruent/STIM_012.jpg	99
1951.267	0.669	668.8	congruent	Block2	congruent/STIM_012.jpg	100
1955.545	0.516	515.6	congruent	Block2	congruent/STIM_012.jpg	100
1958.275	0.597	597.3	congruent	Block2	congruent/STIM_012.jpg	100
1962.113	0.603	603.3	congruent	Block2	congruent/STIM_013.jpg	100
1965.107	0.487	486.9	congruent	Block2	congruent/STIM_013.jpg	100
1968.998	0.506	506.2	congruent	Block2	congruent/STIM_013.jpg	100
1971.622	0.609	608.8	congruent	Block2	congruent/STIM_013.jpg	99
1975.525	0.627	626.7	congruent	Block2	congruent/STIM_013.jpg	100
1979.738	0.602	601.5	congruent	Block2	congruent/STIM_014.jpg	100
1983.386	0.554	554.4	congruent	Block2	congruent/STIM_014.jpg	99
1986.604	0.498	497.7	congruent	Block2	congruent/STIM_014.jpg	100
1989.355	0.471	470.9	congruent	Block2	congruent/STIM_014.jpg	99
1993.615	0.682	681.8	congruent	Block2	congruent/STIM_014.jpg	100
1996.768	0.739	739.3	congruent	Block2	congruent/STIM_015.jpg	100
2000.621	0.701	700.7	congruent	Block2	congruent/STIM_015.jpg	99
2004.822	0.759	759.4	congruent	Block2	congruent/STIM_015.jpg	100
2007.676	0.485	485.2	congruent	Block2	congruent/STIM_015.jpg	99
2011.14	0.506	506.5	congruent	Block2	congruent/STIM_015.jpg	100
2014.78	0.63	629.7	congruent	Block2	congruent/STIM_016.jpg	100
2017.786	0.67	670.0	congruent	Block2	congruent/STIM_016.jpg	100
2022.188	0.474	474.4	congruent	Block2	congruent/STIM_016.jpg	100
2025.843	0.767	766.9	congruent	Block2	congruent/STIM_016.jpg	100
2029.318	0.454	454.3	congruent	Block2	congruent/STIM_016.jpg	99
2032.739	0.485	484.7	congruent	Block2	congruent/STIM_017.jpg	100
2036.565	0.596	596.4	congruent	Block2	congruent/STIM_017.jpg	99
2041.141	0.645	645.2	congruent	Block2	congruent/STIM_017.jpg	99
2044.89	0.502	502.1	congruent	Block2	congruent/STIM_017.jpg	100
2048.553	0.543	543.0	congruent	Block2	congruent/STIM_017.jpg	100
2052.41	0.696	696.1	congruent	Block2	congruent/STIM_018.jpg	100
2057.02	0.599	599.2	congruent	Block2	congruent/STIM_018.jpg	100
2061.218	0.786	786.2	congruent	Block2	congruent/STIM_018.jpg	100
2065.349	0.56	559.6	congruent	Block2	congruent/STIM_018.jpg	99
2068.521	0.497	497.4	congruent	Block2	congruent/STIM_018.jpg	100
2072.412	0.5	500.1	congruent	Block2	congruent/STIM_019.jpg	100
2075.277	0.454	454.5	congruent	Block2	congruent/STIM_019.jpg	100
2078.473	0.769	769.3	congruent	Block2	congruent/STIM_019.jpg	99
2082.85	0.518	517.6	congruent	Block2	congruent/STIM_019.jpg	99
2087.033	0.623	622.6	congruent	Block2	congruent/STIM_019.jpg	99
2090.377	0.712	712.1	congruent	Block2	congruent/STIM_020.jpg	99
2094.89	0.704	704.2	congruent	Block2	congruent/STIM_020.jpg	100
2098.955	0.48	479.8	congruent	Block2	congruent/STIM_020.jpg	100
2102.026	0.547	547.4	congruent	Block2	congruent/STIM_020.jpg	100
2105.262	0.573	572.6	congruent	Block2	congruent/STIM_020.jpg	100
2109.764	0.491	491.1	congruent	Block2	congruent/STIM_021.jpg	99
2113.787	0.709	708.9	congruent	Block2	congruent/STIM_021.jpg	100
2116.895	0.512	512.2	congruent	Block2	congruent/STIM_021.jpg	100
2121.258	0.56	560.3	congruent	Block2	congruent/STIM_021.jpg	99
2125.808	0.786	786.1	congruent	Block2	congruent/STIM_021.jpg	100
2128.78	0.735	735.1	congruent	Block2	congruent/STIM_022.jpg	100
2133.304	0.683	683.0	congruent	Block2	congruent/STIM_022.jpg	100
2136.583	0.55	549.6	congruent	Block2	congruent/STIM_022.jpg	100
2139.778	0.51	509.6	congruent	Block2	congruent/STIM_022.jpg	100
2143.539	0.722	722.1	congruent	Block2	congruent/STIM_022.jpg	100
2146.659	0.695	695.0	congruent	Block2	congruent/STIM_023.jpg	100
2151.179	0.471	471.1	congruent	Block2	congruent/STIM_023.jpg	99
2154.56	0.524	523.8	congruent	Block2	congruent/STIM_023.jpg	99
2158.86	0.674	674.5	congruent	Block2	congruent/STIM_023.jpg	100
2162.922	0.628	628.0	congruent	Block2	congruent/STIM_023.jpg	99
2165.657	0.61	609.6	congruent	Block2	congruent/STIM_024.jpg	100
2168.343	0.565	564.8	congruent	Block2	congruent/STIM_024.jpg	99
2172.265	0.528	527.9	congruent	Block2	congruent/STIM_024.jpg	99
2175.798	0.806	805.6	congruent	Block2	congruent/STIM_024.jpg	99
2180.064	0.745	745.3	congruent	Block2	congruent/STIM_024.jpg	99
2183.571	0.646	646.5	congruent	Block2	congruent/STIM_025.jpg	99
2186.814	0.796	795.8	congruent	Block2	congruent/STIM_025.jpg	100
2190.911	0.702	702.3	congruent	Block2	congruent/STIM_025.jpg	100
2195.484	0.585	585.1	congruent	Block2	congruent/STIM_025.jpg	99
2199.515	0.548	547.7	congruent	Block2	congruent/STIM_025.jpg	100
2203.064	0.628	628.0	congruent	Block2	congruent/STIM_026.jpg	99
2206.707	0.701	701.0	congruent	Block2	congruent/STIM_026.jpg	99
2211.355	0.743	743.1	congruent	Block2	congruent/STIM_026.jpg	100
2214.768	0.742	742.5	congruent	Block2	congruent/STIM_026.jpg	100
2218.939	0.709	708.7	congruent	Block2	congruent/STIM_026.jpg	100
2223.622	0.802	802.5	congruent	Block2	congruent/STIM_027.jpg	100
2227.593	0.618	618.1	congruent	Block2	congruent/STIM_027.jpg	99
2230.372	0.66	659.5	congruent	Block2	congruent/STIM_027.jpg	99
2234.769	0.586	585.6	congruent	Block2	congruent/STIM_027.jpg	99
2239.41	0.724	724.4	congruent	Block2	congruent/STIM_027.jpg	99
2244.161	0.471	471.0	congruent	Block2	congruent/STIM_028.jpg	99
2247.789	0.476	475.9	congruent	Block2	congruent/STIM_028.jpg	99
2250.838	0.497	497.1	congruent	Block2	congruent/STIM_028.jpg	99
2253.456	0.479	478.7	congruent	Block2	congruent/STIM_028.jpg	100
2257.764	0.731	730.8	congruent	Block2	congruent/STIM_028.jpg	99
2261.227	0.766	765.8	congruent	Block2	congruent/STIM_029.jpg	100
2264.141	0.61	609.9	congruent	Block2	congruent/STIM_029.jpg	100
2268.567	0.766	766.2	congruent	Block2	congruent/STIM_029.jpg	100
2273.094	0.542	541.7	congruent	Block2	congruent/STIM_029.jpg	99
2275.712	0.641	641.3	congruent	Block2	congruent/STIM_029.jpg	99
2278.935	0.872	871.5	incongruent	Block3	incongruent/STIM_000.jpg	100
2283.73	0.713	712.9	incongruent	Block3	incongruent/STIM_000.jpg	99
2287.564	0.688	688.2	incongruent	Block3	incongruent/STIM_000.jpg	99
2291.976	0.564	564.1	incongruent	Block3	incongruent/STIM_000.jpg	99
2294.878	0.785	784.6	incongruent	Block3	incongruent/STIM_000.jpg	100
2299.646	0.662	662.4	incongruent	Block3	incongruent/STIM_001.jpg	99
2302.757	0.755	754.9	incongruent	Block3	incongruent/STIM_001.jpg	100
2305.604	0.66	660.4	incongruent	Block3	incongruent/STIM_001.jpg	99
2310.109	0.674	673.7	incongruent	Block3	incongruent/STIM_001.jpg	99
2314.269	0.893	893.3	incongruent	Block3	incongruent/STIM_001.jpg	99
2318.608	0.829	829.0	incongruent	Block3	incongruent/STIM_002.jpg	100
2322.753	0.703	702.7	incongruent	Block3	incongruent/STIM_002.jpg	99
2326.768	0.892	891.5	incongruent	Block3	incongruent/STIM_002.jpg	99
2330.234	0.558	558.3	incongruent	Block3	incongruent/STIM_002.jpg	100
2333.559	0.83	829.8	incongruent	Block3	incongruent/STIM_002.jpg	99
2337.96	0.593	593.0	incongruent	Block3	incongruent/STIM_003.jpg	100
2341.226	0.878	878.4	incongruent	Block3	incongruent/STIM_003.jpg	100
2344.894	0.724	723.8	incongruent	Block3	incongruent/STIM_003.jpg	100
2348.822	0.83	829.7	incongruent	Block3	incongruent/STIM_003.jpg	99
2352.66	0.638	637.7	incongruent	Block3	incongruent/STIM_003.jpg	100
2356.328	0.792	792.0	incongruent	Block3	incongruent/STIM_004.jpg	99
2360.503	0.838	838.2	incongruent	Block3	incongruent/STIM_004.jpg	99
2364.522	0.501	500.6	incongruent	Block3	incongruent/STIM_004.jpg	100
2367.155	0.72	719.9	incongruent	Block3	incongruent/STIM_004.jpg	99
2371.13	0.655	655.0	incongruent	Block3	incongruent/STIM_004.jpg	100
2375.607	0.851	851.2	incongruent	Block3	incongruent/STIM_005.jpg	99
2379.916	0.827	827.1	incongruent	Block3	incongruent/STIM_005.jpg	100
2383.349	0.825	824.8	incongruent	Block3	incongruent/STIM_005.jpg	99
2387.319	0.518	518.1	incongruent	Block3	incongruent/STIM_005.jpg	100
2390.827	0.92	920.5	incongruent	Block3	incongruent/STIM_005.jpg	100
2395.61	0.924	924.5	incongruent	Block3	incongruent/STIM_006.jpg	99
2400.565	0.669	669.0	incongruent	Block3	incongruent/STIM_006.jpg	100
2405.037	0.578	578.2	incongruent	Block3	incongruent/STIM_006.jpg	99
2409.449	0.757	757.2	incongruent	Block3	incongruent/STIM_006.jpg	100
2412.426	0.586	585.8	incongruent	Block3	incongruent/STIM_006.jpg	100
2415.47	0.845	844.6	incongruent	Block3	incongruent/STIM_007.jpg	99
2419.929	0.563	562.9	incongruent	Block3	incongruent/STIM_007.jpg	100
2424.446	0.705	705.3	incongruent	Block3	incongruent/STIM_007.jpg	100
2427.997	0.898	898.5	incongruent	Block3	incongruent/STIM_007.jpg	99
2431.523	0.57	569.5	incongruent	Block3	incongruent/STIM_007.jpg	99
2435.559	0.558	557.7	incongruent	Block3	incongruent/STIM_008.jpg	100
2438.763	0.456	456.1	incongruent	Block3	incongruent/STIM_008.jpg	99
2442.956	0.75	750.2	incongruent	Block3	incongruent/STIM_008.jpg	100
2445.94	0.716	716.5	incongruent	Block3	incongruent/STIM_008.jpg	99
2449.748	0.602	602.5	incongruent	Block3	incongruent/STIM_008.jpg	100
2454.257	0.658	657.7	incongruent	Block3	incongruent/STIM_009.jpg	100
2458.966	0.824	823.9	incongruent	Block3	incongruent/STIM_009.jpg	99
2462.329	0.527	527.4	incongruent	Block3	incongruent/STIM_009.jpg	100
2465.915	0.685	685.2	incongruent	Block3	incongruent/STIM_009.jpg	100
2470.645	0.634	634.1	incongruent	Block3	incongruent/STIM_009.jpg	99
2474.933	0.583	582.6	incongruent	Block3	incongruent/STIM_010.jpg	100
2478.524	0.843	842.9	incongruent	Block3	incongruent/STIM_010.jpg	99
2482.09	0.919	919.1	incongruent	Block3	incongruent/STIM_010.jpg	100
2485.993	0.537	536.6	incongruent	Block3	incongruent/STIM_010.jpg	99
2490.083	0.874	873.5	incongruent	Block3	incongruent/STIM_010.jpg	99
2494.874	0.882	881.8	incongruent	Block3	incongruent/STIM_011.jpg	99
2498.201	0.691	690.7	incongruent	Block3	incongruent/STIM_011.jpg	100
2501.72	0.795	795.4	incongruent	Block3	incongruent/STIM_011.jpg	99
2505.744	0.652	652.5	incongruent	Block3	incongruent/STIM_011.jpg	99
2509.323	0.47	470.1	incongruent	Block3	incongruent/STIM_011.jpg	100
2512.536	0.714	713.7	incongruent	Block3	incongruent/STIM_012.jpg	100
2516.167	0.473	473.1	incongruent	Block3	incongruent/STIM_012.jpg	100
2520.471	0.669	668.8	incongruent	Block3	incongruent/STIM_012.jpg	99
2523.974	0.809	809.1	incongruent	Block3	incongruent/STIM_012.jpg	100
2528.774	0.804	803.7	incongruent	Block3	incongruent/STIM_012.jpg	99
2532.25	0.838	838.4	incongruent	Block3	incongruent/STIM_013.jpg	100
2537.162	0.482	481.8	incongruent	Block3	incongruent/STIM_013.jpg	99
2540.236	0.842	841.7	incongruent	Block3	incongruent/STIM_013.jpg	99
2543.295	0.682	681.8	incongruent	Block3	incongruent/STIM_013.jpg	100
2547.472	0.763	762.7	incongruent	Block3	incongruent/STIM_013.jpg	100
2550.51	0.871	871.1	incongruent	Block3	incongruent/STIM_014.jpg	99
2554.355	0.879	878.8	incongruent	Block3	incongruent/STIM_014.jpg	100
2558.204	0.617	616.7	incongruent	Block3	incongruent/STIM_014.jpg	99
2561.632	0.588	587.7	incongruent	Block3	incongruent/STIM_014.jpg	100
2565.726	0.826	826.0	incongruent	Block3	incongruent/STIM_014.jpg	99
2570.015	0.658	657.7	incongruent	Block3	incongruent/STIM_015.jpg	99
2574.024	0.756	755.9	incongruent	Block3	incongruent/STIM_015.jpg	100
2577.716	0.473	472.9	incongruent	Block3	incongruent/STIM_015.jpg	100
2580.37	0.46	459.5	incongruent	Block3	incongruent/STIM_015.jpg	99
2584.176	0.84	840.4	incongruent	Block3	incongruent/STIM_015.jpg	100
2587.703	0.777	777.3	incongruent	Block3	incongruent/STIM_016.jpg	100
2590.575	0.565	565.2	incongruent	Block3	incongruent/STIM_016.jpg	100
2594.279	0.829	829.0	incongruent	Block3	incongruent/STIM_016.jpg	99
2597.283	0.45	450.3	incongruent	Block3	incongruent/STIM_016.jpg	99
2600.795	0.571	570.6	incongruent	Block3	incongruent/STIM_016.jpg	99
2605.01	0.864	863.6	incongruent	Block3	incongruent/STIM_017.jpg	99
2608.604	0.579	579.0	incongruent	Block3	incongruent/STIM_017.jpg	100
2611.701	0.496	495.6	incongruent	Block3	incongruent/STIM_017.jpg	99
2615.107	0.446	445.8	incongruent	Block3	incongruent/STIM_017.jpg	99
2618.952	0.565	564.7	incongruent	Block3	incongruent/STIM_017.jpg	100
2623.215	0.716	715.7	incongruent	Block3	incongruent/STIM_018.jpg	100
2627.591	0.534	534.0	incongruent	Block3	incongruent/STIM_018.jpg	100
2631.289	0.714	714.2	incongruent	Block3	incongruent/STIM_018.jpg	100
2635.681	0.584	583.9	incongruent	Block3	incongruent/STIM_018.jpg	100
2640.242	0.728	728.2	incongruent	Block3	incongruent/STIM_018.jpg	100
2643.21	0.64	639.5	incongruent	Block3	incongruent/STIM_019.jpg	99
2646.277	0.824	823.8	incongruent	Block3	incongruent/STIM_019.jpg	100
2651.123	0.542	541.7	incongruent	Block3	incongruent/STIM_019.jpg	100
2655.498	0.879	879.4	incongruent	Block3	incongruent/STIM_019.jpg	99
2659.713	0.891	890.7	incongruent	Block3	incongruent/STIM_019.jpg	100
2663.378	0.465	464.9	incongruent	Block3	incongruent/STIM_020.jpg	100
2666.197	0.655	655.4	incongruent	Block3	incongruent/STIM_020.jpg	100
2669.411	0.828	828.2	incongruent	Block3	incongruent/STIM_020.jpg	99
2673.984	0.71	709.5	incongruent	Block3	incongruent/STIM_020.jpg	99
2676.94	0.844	843.7	incongruent	Block3	incongruent/STIM_020.jpg	99
2680.622	0.629	629.3	incongruent	Block3	incongruent/STIM_021.jpg	100
2684.629	0.719	719.2	incongruent	Block3	incongruent/STIM_021.jpg	99
2688.86	0.836	835.5	incongruent	Block3	incongruent/STIM_021.jpg	100
2692.469	0.918	918.2	incongruent	Block3	incongruent/STIM_021.jpg	100
2696.461	0.562	561.9	incongruent	Block3	incongruent/STIM_021.jpg	99
2699.688	0.741	741.3	incongruent	Block3	incongruent/STIM_022.jpg	99
2704.155	0.645	644.7	incongruent	Block3	incongruent/STIM_022.jpg	99
2707.534	0.679	678.7	incongruent	Block3	incongruent/STIM_022.jpg	99
2710.71	0.939	938.8	incongruent	Block3	incongruent/STIM_022.jpg	100
2713.783	0.528	528.0	incongruent	Block3	incongruent/STIM_022.jpg	99
2716.581	0.936	935.8	incongruent	Block3	incongruent/STIM_023.jpg	99
2719.724	0.608	607.6	incongruent	Block3	incongruent/STIM_023.jpg	100
2723.141	0.488	488.0	incongruent	Block3	incongruent/STIM_023.jpg	100
2726.418	0.516	516.4	incongruent	Block3	incongruent/STIM_023.jpg	99
2730.431	0.45	450.5	incongruent	Block3	incongruent/STIM_023.jpg	99
2733.658	0.878	878.5	incongruent	Block3	incongruent/STIM_024.jpg	100
2737.33	0.771	771.4	incongruent	Block3	incongruent/STIM_024.jpg	100
2741.0	0.775	774.6	incongruent	Block3	incongruent/STIM_024.jpg	99
2745.179	0.884	883.9	incongruent	Block3	incongruent/STIM_024.jpg	99
2748.697	0.777	776.7	incongruent	Block3	incongruent/STIM_024.jpg	100
2752.926	0.73	730.3	incongruent	Block3	incongruent/STIM_025.jpg	99
2756.666	0.74	739.5	incongruent	Block3	incongruent/STIM_025.jpg	100
2761.254	0.772	771.5	incongruent	Block3	incongruent/STIM_025.jpg	99
2764.749	0.655	654.9	incongruent	Block3	incongruent/STIM_025.jpg	100
2768.974	0.655	655.1	incongruent	Block3	incongruent/STIM_025.jpg	100
2773.094	0.625	625.2	incongruent	Block3	incongruent/STIM_026.jpg	99
2777.466	0.647	646.7	incongruent	Block3	incongruent/STIM_026.jpg	99
2780.278	0.48	480.0	incongruent	Block3	incongruent/STIM_026.jpg	99
2784.783	0.616	616.4	incongruent	Block3	incongruent/STIM_026.jpg	99
2788.281	0.581	581.3	incongruent	Block3	incongruent/STIM_026.jpg	100
2791.81	0.529	528.8	incongruent	Block3	incongruent/STIM_027.jpg	99
2795.794	0.719	719.1	incongruent	Block3	incongruent/STIM_027.jpg	99
2800.019	0.853	853.2	incongruent	Block3	incongruent/STIM_027.jpg	100
2803.954	0.691	690.9	incongruent	Block3	incongruent/STIM_027.jpg	99
2807.473	0.839	839.0	incongruent	Block3	incongruent/STIM_027.jpg	100
2811.107	0.795	795.0	incongruent	Block3	incongruent/STIM_028.jpg	99
2814.559	0.723	722.8	incongruent	Block3	incongruent/STIM_028.jpg	99
2817.872	0.496	496.3	incongruent	Block3	incongruent/STIM_028.jpg	99
2821.939	0.735	735.1	incongruent	Block3	incongruent/STIM_028.jpg	99
2825.884	0.545	544.8	incongruent	Block3	incongruent/STIM_028.jpg	99
2830.4	0.912	912.5	incongruent	Block3	incongruent/STIM_029.jpg	99
2833.851	0.68	680.2	incongruent	Block3	incongruent/STIM_029.jpg	100
2838.046	0.631	630.9	incongruent	Block3	incongruent/STIM_029.jpg	100
2841.18	0.526	526.1	incongruent	Block3	incongruent/STIM_029.jpg	100
2845.581	0.635	635.1	incongruent	Block3	incongruent/STIM_029.jpg	100
2848.512	0.484	483.7	congruent	Block3	congruent/STIM_000.jpg	100
2852.911	0.576	576.4	congruent	Block3	congruent/STIM_000.jpg	100
2855.558	0.766	766.3	congruent	Block3	congruent/STIM_000.jpg	99
2858.704	0.718	717.5	congruent	Block3	congruent/STIM_000.jpg	99
2863.337	0.73	729.6	congruent	Block3	congruent/STIM_000.jpg	99
2866.347	0.704	704.4	congruent	Block3	congruent/STIM_001.jpg	100
2870.656	0.529	529.2	congruent	Block3	congruent/STIM_001.jpg	100
2875.163	0.573	573.1	congruent	Block3	congruent/STIM_001.jpg	100
2878.179	0.712	712.3	congruent	Block3	congruent/STIM_001.jpg	99
2882.172	0.55	550.1	congruent	Block3	congruent/STIM_001.jpg	100
2885.939	0.669	669.0	congruent	Block3	congruent/STIM_002.jpg	100
2889.991	0.719	718.8	congruent	Block3	congruent/STIM_002.jpg	99
2894.751	0.569	569.2	congruent	Block3	congruent/STIM_002.jpg	99
2898.775	0.584	583.6	congruent	Block3	congruent/STIM_002.jpg	100
2901.756	0.522	521.6	congruent	Block3	congruent/STIM_002.jpg	100
2904.581	0.67	670.3	congruent	Block3	congruent/STIM_003.jpg	100
2907.507	0.566	566.3	congruent	Block3	congruent/STIM_003.jpg	100
2911.085	0.609	609.3	congruent	Block3	congruent/STIM_003.jpg	100
2915.728	0.769	769.1	congruent	Block3	congruent/STIM_003.jpg	100
2920.507	0.459	458.9	congruent	Block3	congruent/STIM_003.jpg	99
2924.151	0.678	678.5	congruent	Block3	congruent/STIM_004.jpg	100
2927.712	0.687	687.1	congruent	Block3	congruent/STIM_004.jpg	99
2931.96	0.704	704.4	congruent	Block3	congruent/STIM_004.jpg	100
2935.219	0.668	668.1	congruent	Block3	congruent/STIM_004.jpg	100
2939.627	0.537	536.8	congruent	Block3	congruent/STIM_004.jpg	100
2943.389	0.689	689.1	congruent	Block3	congruent/STIM_005.jpg	99
2946.818	0.524	524.2	congruent	Block3	congruent/STIM_005.jpg	100
2950.12	0.454	454.2	congruent	Block3	congruent/STIM_005.jpg	99
2952.693	0.456	456.2	congruent	Block3	congruent/STIM_005.jpg	99
2957.199	0.727	727.0	congruent	Block3	congruent/STIM_005.jpg	100
2961.699	0.787	786.6	congruent	Block3	congruent/STIM_006.jpg	99
2965.851	0.796	795.8	congruent	Block3	congruent/STIM_006.jpg	100
2969.379	0.697	696.8	congruent	Block3	congruent/STIM_006.jpg	99
2972.9	0.736	736.3	congruent	Block3	congruent/STIM_006.jpg	100
2977.555	0.71	710.1	congruent	Block3	congruent/STIM_006.jpg	99
2980.773	0.676	676.2	congruent	Block3	congruent/STIM_007.jpg	100
2983.707	0.681	681.1	congruent	Block3	congruent/STIM_007.jpg	99
2987.04	0.452	451.8	congruent	Block3	congruent/STIM_007.jpg	100
2989.797	0.79	789.7	congruent	Block3	congruent/STIM_007.jpg	100
2993.898	0.587	587.4	congruent	Block3	congruent/STIM_007.jpg	99
2997.533	0.595	594.9	congruent	Block3	congruent/STIM_008.jpg	100
3000.65	0.624	623.9	congruent	Block3	congruent/STIM_008.jpg	100
3004.732	0.636	635.7	congruent	Block3	congruent/STIM_008.jpg	100
3009.133	0.806	806.3	congruent	Block3	congruent/STIM_008.jpg	99
3012.205	0.792	791.8	congruent	Block3	congruent/STIM_008.jpg	99
3016.733	0.604	604.0	congruent	Block3	congruent/STIM_009.jpg	99
3019.481	0.703	702.6	congruent	Block3	congruent/STIM_009.jpg	100
3022.973	0.552	551.8	congruent	Block3	congruent/STIM_009.jpg	99
3026.403	0.716	716.5	congruent	Block3	congruent/STIM_009.jpg	99
3030.967	0.613	612.7	congruent	Block3	congruent/STIM_009.jpg	100
3033.897	0.774	773.7	congruent	Block3	congruent/STIM_010.jpg	100
3038.066	0.684	684.3	congruent	Block3	congruent/STIM_010.jpg	99
3042.008	0.506	506.2	congruent	Block3	congruent/STIM_010.jpg	100
3045.479	0.736	736.2	congruent	Block3	congruent/STIM_010.jpg	100
3049.017	0.461	461.2	congruent	Block3	congruent/STIM_010.jpg	99
3052.491	0.644	643.6	congruent	Block3	congruent/STIM_011.jpg	99
3056.502	0.681	681.1	congruent	Block3	congruent/STIM_011.jpg	99
3061.093	0.803	802.9	congruent	Block3	congruent/STIM_011.jpg	100
3064.589	0.587	586.6	congruent	Block3	congruent/STIM_011.jpg	100
3068.677	0.731	731.4	congruent	Block3	congruent/STIM_011.jpg	100
3073.083	0.661	661.4	congruent	Block3	congruent/STIM_012.jpg	100
3077.222	0.627	627.3	congruent	Block3	congruent/STIM_012.jpg	100
3081.266	0.536	535.5	congruent	Block3	congruent/STIM_012.jpg	100
3084.62	0.572	572.2	congruent	Block3	congruent/STIM_012.jpg	100
3087.396	0.53	529.7	congruent	Block3	congruent/STIM_012.jpg	99
3091.522	0.727	727.0	congruent	Block3	congruent/STIM_013.jpg	100
3095.842	0.577	577.0	congruent	Block3	congruent/STIM_013.jpg	99
3099.599	0.664	664.1	congruent	Block3	congruent/STIM_013.jpg	99
3102.562	0.524	523.6	congruent	Block3	congruent/STIM_013.jpg	99
3106.629	0.637	636.8	congruent	Block3	congruent/STIM_013.jpg	99
3111.318	0.555	554.8	congruent	Block3	congruent/STIM_014.jpg	99
3114.655	0.784	784.1	congruent	Block3	congruent/STIM_014.jpg	100
3118.484	0.779	779.4	congruent	Block3	congruent/STIM_014.jpg	100
3122.895	0.584	584.1	congruent	Block3	congruent/STIM_014.jpg	99
3126.869	0.786	785.6	congruent	Block3	congruent/STIM_014.jpg	99
3131.42	0.636	636.0	congruent	Block3	congruent/STIM_015.jpg	99
3134.486	0.551	551.4	congruent	Block3	congruent/STIM_015.jpg	99
3137.323	0.467	466.6	congruent	Block3	congruent/STIM_015.jpg	100
3139.992	0.613	613.4	congruent	Block3	congruent/STIM_015.jpg	100
3144.064	0.557	557.0	congruent	Block3	congruent/STIM_015.jpg	100
3147.546	0.717	716.6	congruent	Block3	congruent/STIM_016.jpg	100
3151.097	0.554	554.0	congruent	Block3	congruent/STIM_016.jpg	100
3153.755	0.633	632.6	congruent	Block3	congruent/STIM_016.jpg	99
3156.541	0.514	513.5	congruent	Block3	congruent/STIM_016.jpg	100
3160.918	0.542	541.8	congruent	Block3	congruent/STIM_016.jpg	99
3164.625	0.7	700.3	congruent	Block3	congruent/STIM_017.jpg	100
3167.67	0.543	542.8	congruent	Block3	congruent/STIM_017.jpg	99
3171.827	0.539	538.7	congruent	Block3	congruent/STIM_017.jpg	99
3176.407	0.53	530.2	congruent	Block3	congruent/STIM_017.jpg	100
3179.511	0.746	745.8	congruent	Block3	congruent/STIM_017.jpg	99
3183.891	0.507	507.2	congruent	Block3	congruent/STIM_018.jpg	99
3187.973	0.657	656.8	congruent	Block3	congruent/STIM_018.jpg	100
3190.812	0.465	464.7	congruent	Block3	congruent/STIM_018.jpg	100
3193.771	0.621	621.0	congruent	Block3	congruent/STIM_018.jpg	100
3198.01	0.622	621.5	congruent	Block3	congruent/STIM_018.jpg	99
3201.124	0.451	451.2	congruent	Block3	congruent/STIM_019.jpg	100
3204.772	0.632	631.8	congruent	Block3	congruent/STIM_019.jpg	100
3208.581	0.784	783.5	congruent	Block3	congruent/STIM_019.jpg	100
3213.225	0.688	687.6	congruent	Block3	congruent/STIM_019.jpg	100
3217.035	0.526	525.8	congruent	Block3	congruent/STIM_019.jpg	100
3220.554	0.645	644.6	congruent	Block3	congruent/STIM_020.jpg	99
3224.872	0.691	691.3	congruent	Block3	congruent/STIM_020.jpg	100
3228.273	0.756	755.8	congruent	Block3	congruent/STIM_020.jpg	99
3232.22	0.581	581.1	congruent	Block3	congruent/STIM_020.jpg	100
3235.767	0.59	589.8	congruent	Block3	congruent/STIM_020.jpg	100
3239.774	0.769	768.8	congruent	Block3	congruent/STIM_021.jpg	99
3242.767	0.798	797.6	congruent	Block3	congruent/STIM_021.jpg	99
3246.175	0.514	514.4	congruent	Block3	congruent/STIM_021.jpg	99
3250.19	0.533	532.9	congruent	Block3	congruent/STIM_021.jpg	100
3254.233	0.743	743.0	congruent	Block3	congruent/STIM_021.jpg	100
3258.21	0.614	614.2	congruent	Block3	congruent/STIM_022.jpg	99
3261.816	0.656	655.8	congruent	Block3	congruent/STIM_022.jpg	100
3265.605	0.719	718.9	congruent	Block3	congruent/STIM_022.jpg	99
3269.869	0.636	636.4	congruent	Block3	congruent/STIM_022.jpg	99
3272.979	0.512	512.4	congruent	Block3	congruent/STIM_022.jpg	100
3277.251	0.805	805.1	congruent	Block3	congruent/STIM_023.jpg	99
3280.564	0.657	657.2	congruent	Block3	congruent/STIM_023.jpg	99
3284.074	0.72	720.0	congruent	Block3	congruent/STIM_023.jpg	100
3286.985	0.62	619.9	congruent	Block3	congruent/STIM_023.jpg	100
3290.246	0.585	585.2	congruent	Block3	congruent/STIM_023.jpg	99
3293.227	0.658	658.2	congruent	Block3	congruent/STIM_024.jpg	99
3296.186	0.671	670.9	congruent	Block3	congruent/STIM_024.jpg	99
3300.326	0.765	765.0	congruent	Block3	congruent/STIM_024.jpg	99
3303.961	0.54	539.7	congruent	Block3	congruent/STIM_024.jpg	99
3307.362	0.579	579.2	congruent	Block3	congruent/STIM_024.jpg	100
3311.603	0.648	648.0	congruent	Block3	congruent/STIM_025.jpg	100
3315.457	0.724	724.4	congruent	Block3	congruent/STIM_025.jpg	100
3319.815	0.478	477.7	congruent	Block3	congruent/STIM_025.jpg	100
3323.98	0.711	711.4	congruent	Block3	congruent/STIM_025.jpg	100
3327.91	0.732	732.1	congruent	Block3	congruent/STIM_025.jpg	100
3332.043	0.706	706.0	congruent	Block3	congruent/STIM_026.jpg	100
3335.294	0.643	643.1	congruent	Block3	congruent/STIM_026.jpg	99
3339.514	0.528	527.9	congruent	Block3	congruent/STIM_026.jpg	99
3344.006	0.466	465.8	congruent	Block3	congruent/STIM_026.jpg	99
3347.768	0.603	603.2	congruent	Block3	congruent/STIM_026.jpg	100
3350.599	0.697	696.6	congruent	Block3	congruent/STIM_027.jpg	99
3355.248	0.77	769.6	congruent	Block3	congruent/STIM_027.jpg	100
3360.066	0.772	771.8	congruent	Block3	congruent/STIM_027.jpg	99
3363.081	0.799	798.7	congruent	Block3	congruent/STIM_027.jpg	99
3367.383	0.671	671.3	congruent	Block3	congruent/STIM_027.jpg	100
3371.086	0.451	450.6	congruent	Block3	congruent/STIM_028.jpg	100
3373.717	0.49	490.1	congruent	Block3	congruent/STIM_028.jpg	100
3377.705	0.674	674.1	congruent	Block3	congruent/STIM_028.jpg	99
3381.18	0.785	784.9	congruent	Block3	congruent/STIM_028.jpg	100
3384.532	0.592	592.0	congruent	Block3	congruent/STIM_028.jpg	99
3388.751	0.801	800.8	congruent	Block3	congruent/STIM_029.jpg	99
3393.381	0.452	452.4	congruent	Block3	congruent/STIM_029.jpg	100
3396.277	0.721	720.9	congruent	Block3	congruent/STIM_029.jpg	99
3400.562	0.764	764.1	congruent	Block3	congruent/STIM_029.jpg	100
3405.229	0.66	660.4	congruent	Block3	congruent/STIM_029.jpg	100
