onset	duration	accuracy_binary	trial_type	learning_stage	stimulus
0.0	1.161	0	incongruent	Block1	incongruent/STIM_000.jpg
4.606	1.096	1	incongruent	Block1	incongruent/STIM_000.jpg
8.394	0.679	1	incongruent	Block1	incongruent/STIM_000.jpg
12.231	1.1	1	incongruent	Block1	incongruent/STIM_000.jpg
16.154	0.954	1	incongruent	Block1	incongruent/STIM_000.jpg
19.521	0.643	1	incongruent	Block1	incongruent/STIM_001.jpg
22.883	0.772	1	incongruent	Block1	incongruent/STIM_001.jpg
26.121	0.643	1	incongruent	Block1	incongruent/STIM_001.jpg
29.585	0.693	1	incongruent	Block1	incongruent/STIM_001.jpg
33.313	0.87	1	incongruent	Block1	incongruent/STIM_001.jpg
36.61	1.084	1	incongruent	Block1	incongruent/STIM_002.jpg
40.425	0.975	1	incongruent	Block1	incongruent/STIM_002.jpg
43.88	0.8	1	incongruent	Block1	incongruent/STIM_002.jpg
47.347	1.02	1	incongruent	Block1	incongruent/STIM_002.jpg
51.053	0.562	1	incongruent	Block1	incongruent/STIM_002.jpg
55.514	1.14	1	incongruent	Block1	incongruent/STIM_003.jpg
59.423	0.962	1	incongruent	Block1	incongruent/STIM_003.jpg
64.338	0.789	1	incongruent	Block1	incongruent/STIM_003.jpg
67.553	1.078	1	incongruent	Block1	incongruent/STIM_003.jpg
71.635	1.034	1	incongruent	Block1	incongruent/STIM_003.jpg
75.476	0.948	1	incongruent	Block1	incongruent/STIM_004.jpg
79.751	1.171	1	incongruent	Block1	incongruent/STIM_004.jpg
83.121	0.602	1	incongruent	Block1	incongruent/STIM_004.jpg
87.09	0.915	1	incongruent	Block1	incongruent/STIM_004.jpg
90.552	0.93	1	incongruent	Block1	incongruent/STIM_004.jpg
93.68	1.27	1	incongruent	Block1	incongruent/STIM_005.jpg
97.863	1.186	1	incongruent	Block1	incongruent/STIM_005.jpg
102.4	0.711	1	incongruent	Block1	incongruent/STIM_005.jpg
105.874	0.687	1	incongruent	Block1	incongruent/STIM_005.jpg
110.411	0.662	1	incongruent	Block1	incongruent/STIM_005.jpg
113.42	0.736	1	incongruent	Block1	incongruent/STIM_006.jpg
118.217	0.642	1	incongruent	Block1	incongruent/STIM_006.jpg
122.918	0.728	1	incongruent	Block1	incongruent/STIM_006.jpg
126.05	1.044	1	incongruent	Block1	incongruent/STIM_006.jpg
129.303	1.071	1	incongruent	Block1	incongruent/STIM_006.jpg
133.083	1.213	0	incongruent	Block1	incongruent/STIM_007.jpg
137.404	0.736	0	incongruent	Block1	incongruent/STIM_007.jpg
141.746	0.952	1	incongruent	Block1	incongruent/STIM_007.jpg
146.067	0.744	1	incongruent	Block1	incongruent/STIM_007.jpg
150.493	1.001	1	incongruent	Block1	incongruent/STIM_007.jpg
155.243	0.772	1	incongruent	Block1	incongruent/STIM_008.jpg
158.347	1.228	1	incongruent	Block1	incongruent/STIM_008.jpg
163.047	1.03	1	incongruent	Block1	incongruent/STIM_008.jpg
167.21	0.8	0	incongruent	Block1	incongruent/STIM_008.jpg
170.56	1.007	1	incongruent	Block1	incongruent/STIM_008.jpg
175.43	0.647	1	incongruent	Block1	incongruent/STIM_009.jpg
178.977	0.769	1	incongruent	Block1	incongruent/STIM_009.jpg
183.789	1.092	1	incongruent	Block1	incongruent/STIM_009.jpg
188.143	0.786	1	incongruent	Block1	incongruent/STIM_009.jpg
192.191	0.726	1	incongruent	Block1	incongruent/STIM_009.jpg
195.523	1.344	1	incongruent	Block1	incongruent/STIM_010.jpg
199.366	0.721	0	incongruent	Block1	incongruent/STIM_010.jpg
202.356	1.143	1	incongruent	Block1	incongruent/STIM_010.jpg
206.881	0.991	1	incongruent	Block1	incongruent/STIM_010.jpg
210.619	0.871	1	incongruent	Block1	incongruent/STIM_010.jpg
213.745	0.728	1	incongruent	Block1	incongruent/STIM_011.jpg
217.462	1.121	1	incongruent	Block1	incongruent/STIM_011.jpg
221.651	0.95	1	incongruent	Block1	incongruent/STIM_011.jpg
224.81	0.562	0	incongruent	Block1	incongruent/STIM_011.jpg
228.825	0.636	1	incongruent	Block1	incongruent/STIM_011.jpg
233.376	0.83	1	incongruent	Block1	incongruent/STIM_012.jpg
238.192	0.775	1	incongruent	Block1	incongruent/STIM_012.jpg
242.38	1.035	1	incongruent	Block1	incongruent/STIM_012.jpg
246.366	0.709	1	incongruent	Block1	incongruent/STIM_012.jpg
249.983	1.015	1	incongruent	Block1	incongruent/STIM_012.jpg
253.413	0.738	1	incongruent	Block1	incongruent/STIM_013.jpg
257.434	0.846	1	incongruent	Block1	incongruent/STIM_013.jpg
261.642	0.682	1	incongruent	Block1	incongruent/STIM_013.jpg
264.813	0.56	1	incongruent	Block1	incongruent/STIM_013.jpg
268.991	0.851	1	incongruent	Block1	incongruent/STIM_013.jpg
272.485	0.726	0	incongruent	Block1	incongruent/STIM_014.jpg
275.489	0.803	1	incongruent	Block1	incongruent/STIM_014.jpg
278.697	0.722	1	incongruent	Block1	incongruent/STIM_014.jpg
283.082	1.085	0	incongruent	Block1	incongruent/STIM_014.jpg
287.426	1.005	1	incongruent	Block1	incongruent/STIM_014.jpg
292.478	0.882	0	incongruent	Block1	incongruent/STIM_015.jpg
295.955	0.688	0	incongruent	Block1	incongruent/STIM_015.jpg
300.588	0.988	0	incongruent	Block1	incongruent/STIM_015.jpg
304.644	0.687	1	incongruent	Block1	incongruent/STIM_015.jpg
308.862	0.865	1	incongruent	Block1	incongruent/STIM_015.jpg
313.046	1.099	1	incongruent	Block1	incongruent/STIM_016.jpg
316.587	0.953	1	incongruent	Block1	incongruent/STIM_016.jpg
320.293	0.836	1	incongruent	Block1	incongruent/STIM_016.jpg
323.844	0.782	1	incongruent	Block1	incongruent/STIM_016.jpg
328.371	1.05	1	incongruent	Block1	incongruent/STIM_016.jpg
331.869	0.657	1	incongruent	Block1	incongruent/STIM_017.jpg
334.851	0.605	1	incongruent	Block1	incongruent/STIM_017.jpg
339.249	1.104	1	incongruent	Block1	incongruent/STIM_017.jpg
343.978	0.903	1	incongruent	Block1	incongruent/STIM_017.jpg
348.98	0.78	1	incongruent	Block1	incongruent/STIM_017.jpg
353.751	0.672	1	incongruent	Block1	incongruent/STIM_018.jpg
357.631	0.94	1	incongruent	Block1	incongruent/STIM_018.jpg
362.311	1.108	0	incongruent	Block1	incongruent/STIM_018.jpg
366.389	1.135	0	incongruent	Block1	incongruent/STIM_018.jpg
369.734	0.781	1	incongruent	Block1	incongruent/STIM_018.jpg
373.594	0.679	0	incongruent	Block1	incongruent/STIM_019.jpg
376.394	0.662	1	incongruent	Block1	incongruent/STIM_019.jpg
379.283	0.781	1	incongruent	Block1	incongruent/STIM_019.jpg
382.441	0.89	0	incongruent	Block1	incongruent/STIM_019.jpg
386.861	1.064	1	incongruent	Block1	incongruent/STIM_019.jpg
390.914	1.037	1	incongruent	Block1	incongruent/STIM_020.jpg
394.337	0.966	0	incongruent	Block1	incongruent/STIM_020.jpg
397.978	0.934	1	incongruent	Block1	incongruent/STIM_020.jpg
402.124	0.778	1	incongruent	Block1	incongruent/STIM_020.jpg
405.15	0.848	1	incongruent	Block1	incongruent/STIM_020.jpg
409.611	0.863	1	incongruent	Block1	incongruent/STIM_021.jpg
413.209	0.888	1	incongruent	Block1	incongruent/STIM_021.jpg
416.832	0.916	1	incongruent	Block1	incongruent/STIM_021.jpg
419.917	0.655	1	incongruent	Block1	incongruent/STIM_021.jpg
424.58	1.007	1	incongruent	Block1	incongruent/STIM_021.jpg
428.155	1.201	1	incongruent	Block1	incongruent/STIM_022.jpg
431.972	1.095	1	incongruent	Block1	incongruent/STIM_022.jpg
435.97	0.905	1	incongruent	Block1	incongruent/STIM_022.jpg
440.635	1.07	1	incongruent	Block1	incongruent/STIM_022.jpg
444.497	1.032	1	incongruent	Block1	incongruent/STIM_022.jpg
449.08	1.222	1	incongruent	Block1	incongruent/STIM_023.jpg
454.426	1.038	1	incongruent	Block1	incongruent/STIM_023.jpg
458.673	0.728	1	incongruent	Block1	incongruent/STIM_023.jpg
463.307	1.073	1	incongruent	Block1	incongruent/STIM_023.jpg
468.004	0.674	0	incongruent	Block1	incongruent/STIM_023.jpg
471.544	0.867	1	incongruent	Block1	incongruent/STIM_024.jpg
475.902	1.134	1	incongruent	Block1	incongruent/STIM_024.jpg
480.67	0.735	1	incongruent	Block1	incongruent/STIM_024.jpg
483.816	0.702	1	incongruent	Block1	incongruent/STIM_024.jpg
488.078	0.663	1	incongruent	Block1	incongruent/STIM_024.jpg
491.64	1.004	1	incongruent	Block1	incongruent/STIM_025.jpg
494.989	0.714	1	incongruent	Block1	incongruent/STIM_025.jpg
497.928	0.972	1	incongruent	Block1	incongruent/STIM_025.jpg
501.36	0.659	1	incongruent	Block1	incongruent/STIM_025.jpg
504.998	1.001	1	incongruent	Block1	incongruent/STIM_025.jpg
509.752	1.198	1	incongruent	Block1	incongruent/STIM_026.jpg
513.447	1.033	1	incongruent	Block1	incongruent/STIM_026.jpg
516.658	0.852	1	incongruent	Block1	incongruent/STIM_026.jpg
519.962	1.105	1	incongruent	Block1	incongruent/STIM_026.jpg
524.522	0.997	1	incongruent	Block1	incongruent/STIM_026.jpg
528.179	1.24	1	incongruent	Block1	incongruent/STIM_027.jpg
531.943	0.863	1	incongruent	Block1	incongruent/STIM_027.jpg
535.803	0.74	1	incongruent	Block1	incongruent/STIM_027.jpg
540.164	0.814	1	incongruent	Block1	incongruent/STIM_027.jpg
543.555	0.647	1	incongruent	Block1	incongruent/STIM_027.jpg
548.003	1.027	1	incongruent	Block1	incongruent/STIM_028.jpg
552.793	0.732	1	incongruent	Block1	incongruent/STIM_028.jpg
556.106	0.681	1	incongruent	Block1	incongruent/STIM_028.jpg
559.341	0.966	1	incongruent	Block1	incongruent/STIM_028.jpg
563.622	0.889	1	incongruent	Block1	incongruent/STIM_028.jpg
566.824	0.98	0	incongruent	Block1	incongruent/STIM_029.jpg
571.055	0.868	1	incongruent	Block1	incongruent/STIM_029.jpg
575.364	0.779	1	incongruent	Block1	incongruent/STIM_029.jpg
579.993	1.034	0	incongruent	Block1	incongruent/STIM_029.jpg
584.017	0.988	1	incongruent	Block1	incongruent/STIM_029.jpg
588.088	0.768	1	congruent	Block1	congruent/STIM_000.jpg
591.139	0.641	1	congruent	Block1	congruent/STIM_000.jpg
595.681	0.532	0	congruent	Block1	congruent/STIM_000.jpg
600.114	0.587	1	congruent	Block1	congruent/STIM_000.jpg
603.778	0.595	1	congruent	Block1	congruent/STIM_000.jpg
606.593	0.756	1	congruent	Block1	congruent/STIM_001.jpg
610.45	0.535	1	congruent	Block1	congruent/STIM_001.jpg
613.108	0.762	1	congruent	Block1	congruent/STIM_001.jpg
617.445	0.566	1	congruent	Block1	congruent/STIM_001.jpg
621.148	0.472	1	congruent	Block1	congruent/STIM_001.jpg
624.806	0.677	1	congruent	Block1	congruent/STIM_002.jpg
628.448	0.8	1	congruent	Block1	congruent/STIM_002.jpg
632.291	0.794	1	congruent	Block1	congruent/STIM_002.jpg
635.304	0.451	1	congruent	Block1	congruent/STIM_002.jpg
638.512	0.489	1	congruent	Block1	congruent/STIM_002.jpg
641.448	0.76	1	congruent	Block1	congruent/STIM_003.jpg
645.646	0.742	1	congruent	Block1	congruent/STIM_003.jpg
649.205	0.62	1	congruent	Block1	congruent/STIM_003.jpg
652.29	0.713	1	congruent	Block1	congruent/STIM_003.jpg
656.532	0.708	1	congruent	Block1	congruent/STIM_003.jpg
660.522	0.804	1	congruent	Block1	congruent/STIM_004.jpg
664.916	0.604	1	congruent	Block1	congruent/STIM_004.jpg
668.006	0.596	1	congruent	Block1	congruent/STIM_004.jpg
671.405	0.572	1	congruent	Block1	congruent/STIM_004.jpg
675.566	0.683	1	congruent	Block1	congruent/STIM_004.jpg
679.192	0.713	1	congruent	Block1	congruent/STIM_005.jpg
682.252	0.744	1	congruent	Block1	congruent/STIM_005.jpg
685.63	0.458	1	congruent	Block1	congruent/STIM_005.jpg
688.53	0.74	1	congruent	Block1	congruent/STIM_005.jpg
691.616	0.77	1	congruent	Block1	congruent/STIM_005.jpg
694.843	0.467	1	congruent	Block1	congruent/STIM_006.jpg
698.296	0.584	1	congruent	Block1	congruent/STIM_006.jpg
701.575	0.6	0	congruent	Block1	congruent/STIM_006.jpg
704.909	0.788	1	congruent	Block1	congruent/STIM_006.jpg
708.852	0.738	1	congruent	Block1	congruent/STIM_006.jpg
711.948	0.588	1	congruent	Block1	congruent/STIM_007.jpg
716.443	0.632	1	congruent	Block1	congruent/STIM_007.jpg
719.76	0.781	1	congruent	Block1	congruent/STIM_007.jpg
723.112	0.472	1	congruent	Block1	congruent/STIM_007.jpg
725.945	0.695	1	congruent	Block1	congruent/STIM_007.jpg
729.252	0.45	1	congruent	Block1	congruent/STIM_008.jpg
733.231	0.734	1	congruent	Block1	congruent/STIM_008.jpg
737.142	0.764	1	congruent	Block1	congruent/STIM_008.jpg
740.3	0.741	1	congruent	Block1	congruent/STIM_008.jpg
744.66	0.681	0	congruent	Block1	congruent/STIM_008.jpg
747.562	0.616	1	congruent	Block1	congruent/STIM_009.jpg
751.945	0.767	1	congruent	Block1	congruent/STIM_009.jpg
755.246	0.615	1	congruent	Block1	congruent/STIM_009.jpg
759.479	0.468	0	congruent	Block1	congruent/STIM_009.jpg
763.857	0.539	1	congruent	Block1	congruent/STIM_009.jpg
768.075	0.61	1	congruent	Block1	congruent/STIM_010.jpg
771.01	0.624	0	congruent	Block1	congruent/STIM_010.jpg
773.915	0.677	1	congruent	Block1	congruent/STIM_010.jpg
777.457	0.479	1	congruent	Block1	congruent/STIM_010.jpg
781.061	0.618	1	congruent	Block1	congruent/STIM_010.jpg
785.547	0.795	0	congruent	Block1	congruent/STIM_011.jpg
788.623	0.714	1	congruent	Block1	congruent/STIM_011.jpg
792.382	0.726	0	congruent	Block1	congruent/STIM_011.jpg
795.729	0.536	1	congruent	Block1	congruent/STIM_011.jpg
799.634	0.749	1	congruent	Block1	congruent/STIM_011.jpg
803.949	0.738	1	congruent	Block1	congruent/STIM_012.jpg
807.51	0.587	1	congruent	Block1	congruent/STIM_012.jpg
811.766	0.468	1	congruent	Block1	congruent/STIM_012.jpg
814.809	0.657	1	congruent	Block1	congruent/STIM_012.jpg
818.944	0.658	1	congruent	Block1	congruent/STIM_012.jpg
823.112	0.725	1	congruent	Block1	congruent/STIM_013.jpg
826.603	0.598	1	congruent	Block1	congruent/STIM_013.jpg
829.477	0.805	1	congruent	Block1	congruent/STIM_013.jpg
834.349	0.745	1	congruent	Block1	congruent/STIM_013.jpg
838.512	0.658	1	congruent	Block1	congruent/STIM_013.jpg
842.309	0.75	1	congruent	Block1	congruent/STIM_014.jpg
846.484	0.647	1	congruent	Block1	congruent/STIM_014.jpg
850.598	0.705	1	congruent	Block1	congruent/STIM_014.jpg
854.154	0.597	1	congruent	Block1	congruent/STIM_014.jpg
858.034	0.584	1	congruent	Block1	congruent/STIM_014.jpg
862.648	0.752	1	congruent	Block1	congruent/STIM_015.jpg
865.855	0.557	1	congruent	Block1	congruent/STIM_015.jpg
869.877	0.566	1	congruent	Block1	congruent/STIM_015.jpg
873.194	0.723	1	congruent	Block1	congruent/STIM_015.jpg
877.914	0.776	1	congruent	Block1	congruent/STIM_015.jpg
880.995	0.666	1	congruent	Block1	congruent/STIM_016.jpg
883.795	0.731	1	congruent	Block1	congruent/STIM_016.jpg
888.507	0.536	1	congruent	Block1	congruent/STIM_016.jpg
891.365	0.726	1	congruent	Block1	congruent/STIM_016.jpg
894.232	0.544	1	congruent	Block1	congruent/STIM_016.jpg
897.579	0.544	1	congruent	Block1	congruent/STIM_017.jpg
900.416	0.525	1	congruent	Block1	congruent/STIM_017.jpg
903.872	0.73	1	congruent	Block1	congruent/STIM_017.jpg
908.249	0.546	1	congruent	Block1	congruent/STIM_017.jpg
911.526	0.575	1	congruent	Block1	congruent/STIM_017.jpg
914.441	0.695	1	congruent	Block1	congruent/STIM_018.jpg
918.006	0.665	1	congruent	Block1	congruent/STIM_018.jpg
921.223	0.758	1	congruent	Block1	congruent/STIM_018.jpg
925.226	0.573	1	congruent	Block1	congruent/STIM_018.jpg
928.401	0.752	1	congruent	Block1	congruent/STIM_018.jpg
932.531	0.724	1	congruent	Block1	congruent/STIM_019.jpg
936.108	0.791	1	congruent	Block1	congruent/STIM_019.jpg
940.009	0.484	0	congruent	Block1	congruent/STIM_019.jpg
943.299	0.545	1	congruent	Block1	congruent/STIM_019.jpg
947.736	0.54	0	congruent	Block1	congruent/STIM_019.jpg
951.049	0.512	1	congruent	Block1	congruent/STIM_020.jpg
954.328	0.492	1	congruent	Block1	congruent/STIM_020.jpg
958.441	0.575	1	congruent	Block1	congruent/STIM_020.jpg
962.069	0.624	1	congruent	Block1	congruent/STIM_020.jpg
965.34	0.47	1	congruent	Block1	congruent/STIM_020.jpg
969.384	0.492	1	congruent	Block1	congruent/STIM_021.jpg
973.259	0.73	1	congruent	Block1	congruent/STIM_021.jpg
976.252	0.793	1	congruent	Block1	congruent/STIM_021.jpg
980.544	0.779	1	congruent	Block1	congruent/STIM_021.jpg
984.14	0.448	1	congruent	Block1	congruent/STIM_021.jpg
986.752	0.524	1	congruent	Block1	congruent/STIM_022.jpg
991.168	0.643	1	congruent	Block1	congruent/STIM_022.jpg
994.37	0.685	1	congruent	Block1	congruent/STIM_022.jpg
997.484	0.77	1	congruent	Block1	congruent/STIM_022.jpg
1001.111	0.504	1	congruent	Block1	congruent/STIM_022.jpg
1004.157	0.728	1	congruent	Block1	congruent/STIM_023.jpg
1007.64	0.715	1	congruent	Block1	congruent/STIM_023.jpg
1011.362	0.499	1	congruent	Block1	congruent/STIM_023.jpg
1013.95	0.769	1	congruent	Block1	congruent/STIM_023.jpg
1018.342	0.561	1	congruent	Block1	congruent/STIM_023.jpg
1022.208	0.621	1	congruent	Block1	congruent/STIM_024.jpg
1025.124	0.452	1	congruent	Block1	congruent/STIM_024.jpg
1029.62	0.474	1	congruent	Block1	congruent/STIM_024.jpg
1033.083	0.706	1	congruent	Block1	congruent/STIM_024.jpg
1037.739	0.509	1	congruent	Block1	congruent/STIM_024.jpg
1040.507	0.706	1	congruent	Block1	congruent/STIM_025.jpg
1044.96	0.716	1	congruent	Block1	congruent/STIM_025.jpg
1048.929	0.524	1	congruent	Block1	congruent/STIM_025.jpg
1051.899	0.579	1	congruent	Block1	congruent/STIM_025.jpg
1055.277	0.575	1	congruent	Block1	congruent/STIM_025.jpg
1059.552	0.653	1	congruent	Block1	congruent/STIM_026.jpg
1063.964	0.593	1	congruent	Block1	congruent/STIM_026.jpg
1068.396	0.527	1	congruent	Block1	congruent/STIM_026.jpg
1072.396	0.661	1	congruent	Block1	congruent/STIM_026.jpg
1075.24	0.464	1	congruent	Block1	congruent/STIM_026.jpg
1078.571	0.486	1	congruent	Block1	congruent/STIM_027.jpg
1082.331	0.678	1	congruent	Block1	congruent/STIM_027.jpg
1086.822	0.695	0	congruent	Block1	congruent/STIM_027.jpg
1090.059	0.471	1	congruent	Block1	congruent/STIM_027.jpg
1092.958	0.508	1	congruent	Block1	congruent/STIM_027.jpg
1097.195	0.614	0	congruent	Block1	congruent/STIM_028.jpg
1100.293	0.615	1	congruent	Block1	congruent/STIM_028.jpg
1103.479	0.668	1	congruent	Block1	congruent/STIM_028.jpg
1106.893	0.578	1	congruent	Block1	congruent/STIM_028.jpg
1111.425	0.554	1	congruent	Block1	congruent/STIM_028.jpg
1114.068	0.499	1	congruent	Block1	congruent/STIM_029.jpg
1117.146	0.764	1	congruent	Block1	congruent/STIM_029.jpg
1121.463	0.654	1	congruent	Block1	congruent/STIM_029.jpg
1125.828	0.75	1	congruent	Block1	congruent/STIM_029.jpg
1129.092	0.548	1	congruent	Block1	congruent/STIM_029.jpg
1131.88	0.801	1	incongruent	Block2	incongruent/STIM_000.jpg
1134.933	0.629	0	incongruent	Block2	incongruent/STIM_000.jpg
1137.95	0.993	1	incongruent	Block2	incongruent/STIM_000.jpg
1142.824	0.76	1	incongruent	Block2	incongruent/STIM_000.jpg
1146.254	0.641	1	incongruent	Block2	incongruent/STIM_000.jpg
1149.463	0.904	1	incongruent	Block2	incongruent/STIM_001.jpg
1154.28	0.531	1	incongruent	Block2	incongruent/STIM_001.jpg
1157.317	0.963	1	incongruent	Block2	incongruent/STIM_001.jpg
1161.593	0.918	1	incongruent	Block2	incongruent/STIM_001.jpg
1166.059	0.684	1	incongruent	Block2	incongruent/STIM_001.jpg
1169.357	0.903	1	incongruent	Block2	incongruent/STIM_002.jpg
1173.797	0.934	0	incongruent	Block2	incongruent/STIM_002.jpg
1178.517	0.566	1	incongruent	Block2	incongruent/STIM_002.jpg
1182.392	0.756	1	incongruent	Block2	incongruent/STIM_002.jpg
1187.106	0.7	1	incongruent	Block2	incongruent/STIM_002.jpg
1190.174	0.61	1	incongruent	Block2	incongruent/STIM_003.jpg
1193.004	0.536	1	incongruent	Block2	incongruent/STIM_003.jpg
1196.786	1.006	1	incongruent	Block2	incongruent/STIM_003.jpg
1200.911	0.918	1	incongruent	Block2	incongruent/STIM_003.jpg
1205.314	0.824	1	incongruent	Block2	incongruent/STIM_003.jpg
1208.363	0.899	1	incongruent	Block2	incongruent/STIM_004.jpg
1212.446	0.572	1	incongruent	Block2	incongruent/STIM_004.jpg
1215.47	0.995	1	incongruent	Block2	incongruent/STIM_004.jpg
1219.436	0.668	1	incongruent	Block2	incongruent/STIM_004.jpg
1222.419	0.791	1	incongruent	Block2	incongruent/STIM_004.jpg
1225.41	0.746	1	incongruent	Block2	incongruent/STIM_005.jpg
1229.225	1.006	1	incongruent	Block2	incongruent/STIM_005.jpg
1233.313	0.789	1	incongruent	Block2	incongruent/STIM_005.jpg
1237.758	0.581	1	incongruent	Block2	incongruent/STIM_005.jpg
1240.681	0.543	1	incongruent	Block2	incongruent/STIM_005.jpg
1244.29	0.881	1	incongruent	Block2	incongruent/STIM_006.jpg
1248.62	1.074	1	incongruent	Block2	incongruent/STIM_006.jpg
1253.647	0.86	1	incongruent	Block2	incongruent/STIM_006.jpg
1258.133	0.534	1	incongruent	Block2	incongruent/STIM_006.jpg
1261.135	0.598	1	incongruent	Block2	incongruent/STIM_006.jpg
1265.057	0.878	1	incongruent	Block2	incongruent/STIM_007.jpg
1269.939	1.063	1	incongruent	Block2	incongruent/STIM_007.jpg
1273.439	0.8	1	incongruent	Block2	incongruent/STIM_007.jpg
1277.873	0.677	1	incongruent	Block2	incongruent/STIM_007.jpg
1281.599	0.514	0	incongruent	Block2	incongruent/STIM_007.jpg
1284.745	0.556	1	incongruent	Block2	incongruent/STIM_008.jpg
1289.106	0.822	1	incongruent	Block2	incongruent/STIM_008.jpg
1293.223	0.939	1	incongruent	Block2	incongruent/STIM_008.jpg
1297.147	0.591	1	incongruent	Block2	incongruent/STIM_008.jpg
1301.28	0.814	1	incongruent	Block2	incongruent/STIM_008.jpg
1305.638	0.54	1	incongruent	Block2	incongruent/STIM_009.jpg
1308.789	0.976	1	incongruent	Block2	incongruent/STIM_009.jpg
1313.314	0.551	0	incongruent	Block2	incongruent/STIM_009.jpg
1316.569	0.862	1	incongruent	Block2	incongruent/STIM_009.jpg
1320.635	0.642	1	incongruent	Block2	incongruent/STIM_009.jpg
1323.717	1.118	1	incongruent	Block2	incongruent/STIM_010.jpg
1328.533	0.965	1	incongruent	Block2	incongruent/STIM_010.jpg
1331.626	0.56	1	incongruent	Block2	incongruent/STIM_010.jpg
1334.564	0.767	1	incongruent	Block2	incongruent/STIM_010.jpg
1338.164	0.766	1	incongruent	Block2	incongruent/STIM_010.jpg
1341.528	0.646	1	incongruent	Block2	incongruent/STIM_011.jpg
1345.938	0.512	1	incongruent	Block2	incongruent/STIM_011.jpg
1349.745	0.785	1	incongruent	Block2	incongruent/STIM_011.jpg
1354.256	0.776	1	incongruent	Block2	incongruent/STIM_011.jpg
1357.81	0.598	1	incongruent	Block2	incongruent/STIM_011.jpg
1361.88	0.971	1	incongruent	Block2	incongruent/STIM_012.jpg
1366.936	0.852	1	incongruent	Block2	incongruent/STIM_012.jpg
1370.864	0.934	1	incongruent	Block2	incongruent/STIM_012.jpg
1375.368	0.897	1	incongruent	Block2	incongruent/STIM_012.jpg
1380.142	0.869	1	incongruent	Block2	incongruent/STIM_012.jpg
1384.78	0.872	1	incongruent	Block2	incongruent/STIM_013.jpg
1388.797	0.742	1	incongruent	Block2	incongruent/STIM_013.jpg
1393.074	0.905	1	incongruent	Block2	incongruent/STIM_013.jpg
1396.862	0.514	1	incongruent	Block2	incongruent/STIM_013.jpg
1401.354	0.452	1	incongruent	Block2	incongruent/STIM_013.jpg
1405.195	0.689	0	incongruent	Block2	incongruent/STIM_014.jpg
1409.188	0.829	1	incongruent	Block2	incongruent/STIM_014.jpg
1412.155	0.851	1	incongruent	Block2	incongruent/STIM_014.jpg
1416.989	0.578	1	incongruent	Block2	incongruent/STIM_014.jpg
1421.157	0.762	0	incongruent	Block2	incongruent/STIM_014.jpg
1424.1	0.789	1	incongruent	Block2	incongruent/STIM_015.jpg
1428.184	0.904	1	incongruent	Block2	incongruent/STIM_015.jpg
1432.939	0.57	1	incongruent	Block2	incongruent/STIM_015.jpg
1437.385	0.576	1	incongruent	Block2	incongruent/STIM_015.jpg
1440.563	0.916	1	incongruent	Block2	incongruent/STIM_015.jpg
1445.056	0.868	1	incongruent	Block2	incongruent/STIM_016.jpg
1449.635	1.009	1	incongruent	Block2	incongruent/STIM_016.jpg
1454.008	0.539	1	incongruent	Block2	incongruent/STIM_016.jpg
1457.761	0.568	1	incongruent	Block2	incongruent/STIM_016.jpg
1461.017	0.813	1	incongruent	Block2	incongruent/STIM_016.jpg
1465.882	0.935	1	incongruent	Block2	incongruent/STIM_017.jpg
1470.343	0.524	1	incongruent	Block2	incongruent/STIM_017.jpg
1473.731	0.833	1	incongruent	Block2	incongruent/STIM_017.jpg
1477.719	0.899	1	incongruent	Block2	incongruent/STIM_017.jpg
1481.046	0.581	1	incongruent	Block2	incongruent/STIM_017.jpg
1483.819	0.721	1	incongruent	Block2	incongruent/STIM_018.jpg
1486.753	0.787	1	incongruent	Block2	incongruent/STIM_018.jpg
1490.944	0.922	1	incongruent	Block2	incongruent/STIM_018.jpg
1493.999	0.601	1	incongruent	Block2	incongruent/STIM_018.jpg
1498.584	0.499	1	incongruent	Block2	incongruent/STIM_018.jpg
1501.795	1.12	1	incongruent	Block2	incongruent/STIM_019.jpg
1506.317	0.511	1	incongruent	Block2	incongruent/STIM_019.jpg
1510.679	0.597	1	incongruent	Block2	incongruent/STIM_019.jpg
1514.788	0.65	1	incongruent	Block2	incongruent/STIM_019.jpg
1518.041	0.514	1	incongruent	Block2	incongruent/STIM_019.jpg
1522.265	0.927	1	incongruent	Block2	incongruent/STIM_020.jpg
1525.905	0.602	1	incongruent	Block2	incongruent/STIM_020.jpg
1529.317	0.963	1	incongruent	Block2	incongruent/STIM_020.jpg
1533.713	0.841	1	incongruent	Block2	incongruent/STIM_020.jpg
1538.127	0.842	1	incongruent	Block2	incongruent/STIM_020.jpg
1541.408	0.763	1	incongruent	Block2	incongruent/STIM_021.jpg
1546.043	0.862	1	incongruent	Block2	incongruent/STIM_021.jpg
1550.385	0.67	1	incongruent	Block2	incongruent/STIM_021.jpg
1554.773	0.797	1	incongruent	Block2	incongruent/STIM_021.jpg
1558.734	0.894	1	incongruent	Block2	incongruent/STIM_021.jpg
1562.027	0.844	1	incongruent	Block2	incongruent/STIM_022.jpg
1566.707	1.022	1	incongruent	Block2	incongruent/STIM_022.jpg
1570.303	0.539	1	incongruent	Block2	incongruent/STIM_022.jpg
1574.016	0.901	1	incongruent	Block2	incongruent/STIM_022.jpg
1578.791	0.938	1	incongruent	Block2	incongruent/STIM_022.jpg
1581.887	0.832	1	incongruent	Block2	incongruent/STIM_023.jpg
1585.99	0.811	1	incongruent	Block2	incongruent/STIM_023.jpg
1589.926	0.962	1	incongruent	Block2	incongruent/STIM_023.jpg
1594.67	0.889	1	incongruent	Block2	incongruent/STIM_023.jpg
1598.95	0.758	1	incongruent	Block2	incongruent/STIM_023.jpg
1602.57	1.128	1	incongruent	Block2	incongruent/STIM_024.jpg
1605.882	0.724	1	incongruent	Block2	incongruent/STIM_024.jpg
1610.471	0.955	1	incongruent	Block2	incongruent/STIM_024.jpg
1613.812	0.639	1	incongruent	Block2	incongruent/STIM_024.jpg
1617.261	0.921	1	incongruent	Block2	incongruent/STIM_024.jpg
1620.812	1.021	1	incongruent	Block2	incongruent/STIM_025.jpg
1625.8	0.527	1	incongruent	Block2	incongruent/STIM_025.jpg
1629.596	0.732	1	incongruent	Block2	incongruent/STIM_025.jpg
1633.224	0.52	1	incongruent	Block2	incongruent/STIM_025.jpg
1636.163	0.917	1	incongruent	Block2	incongruent/STIM_025.jpg
1639.839	0.938	1	incongruent	Block2	incongruent/STIM_026.jpg
1644.636	0.555	1	incongruent	Block2	incongruent/STIM_026.jpg
1648.741	0.978	1	incongruent	Block2	incongruent/STIM_026.jpg
1652.902	0.547	1	incongruent	Block2	incongruent/STIM_026.jpg
1656.034	0.614	1	incongruent	Block2	incongruent/STIM_026.jpg
1660.534	0.711	1	incongruent	Block2	incongruent/STIM_027.jpg
1665.015	0.766	1	incongruent	Block2	incongruent/STIM_027.jpg
1668.329	0.652	1	incongruent	Block2	incongruent/STIM_027.jpg
1672.41	0.625	1	incongruent	Block2	incongruent/STIM_027.jpg
1676.261	0.609	1	incongruent	Block2	incongruent/STIM_027.jpg
1679.22	0.942	1	incongruent	Block2	incongruent/STIM_028.jpg
1682.518	0.852	1	incongruent	Block2	incongruent/STIM_028.jpg
1686.674	0.491	1	incongruent	Block2	incongruent/STIM_028.jpg
1690.838	0.46	1	incongruent	Block2	incongruent/STIM_028.jpg
1694.015	0.815	1	incongruent	Block2	incongruent/STIM_028.jpg
1698.467	0.861	1	incongruent	Block2	incongruent/STIM_029.jpg
1703.017	0.74	1	incongruent	Block2	incongruent/STIM_029.jpg
1706.915	0.611	1	incongruent	Block2	incongruent/STIM_029.jpg
1711.193	0.871	1	incongruent	Block2	incongruent/STIM_029.jpg
1715.817	0.604	1	incongruent	Block2	incongruent/STIM_029.jpg
1718.92	0.568	0	congruent	Block2	congruent/STIM_000.jpg
1722.205	0.791	1	congruent	Block2	congruent/STIM_000.jpg
1726.838	0.703	1	congruent	Block2	congruent/STIM_000.jpg
1730.682	0.478	1	congruent	Block2	congruent/STIM_000.jpg
1734.511	0.584	1	congruent	Block2	congruent/STIM_000.jpg
1738.813	0.781	1	congruent	Block2	congruent/STIM_001.jpg
1742.254	0.74	1	congruent	Block2	congruent/STIM_001.jpg
1745.854	0.564	1	congruent	Block2	congruent/STIM_001.jpg
1750.451	0.685	1	congruent	Block2	congruent/STIM_001.jpg
1754.495	0.72	1	congruent	Block2	congruent/STIM_001.jpg
1757.941	0.732	1	congruent	Block2	congruent/STIM_002.jpg
1761.977	0.599	1	congruent	Block2	congruent/STIM_002.jpg
1765.164	0.568	1	congruent	Block2	congruent/STIM_002.jpg
1768.502	0.511	1	congruent	Block2	congruent/STIM_002.jpg
1771.269	0.708	1	congruent	Block2	congruent/STIM_002.jpg
1775.276	0.652	1	congruent	Block2	congruent/STIM_003.jpg
1778.621	0.596	1	congruent	Block2	congruent/STIM_003.jpg
1782.395	0.749	1	congruent	Block2	congruent/STIM_003.jpg
1786.315	0.636	1	congruent	Block2	congruent/STIM_003.jpg
1790.061	0.572	1	congruent	Block2	congruent/STIM_003.jpg
1793.077	0.602	1	congruent	Block2	congruent/STIM_004.jpg
1796.462	0.556	1	congruent	Block2	congruent/STIM_004.jpg
1799.315	0.607	1	congruent	Block2	congruent/STIM_004.jpg
1802.955	0.782	1	congruent	Block2	congruent/STIM_004.jpg
1807.469	0.794	1	congruent	Block2	congruent/STIM_004.jpg
1810.496	0.758	1	congruent	Block2	congruent/STIM_005.jpg
1813.852	0.516	1	congruent	Block2	congruent/STIM_005.jpg
1817.548	0.584	1	congruent	Block2	congruent/STIM_005.jpg
1821.521	0.593	1	congruent	Block2	congruent/STIM_005.jpg
1824.309	0.506	1	congruent	Block2	congruent/STIM_005.jpg
1827.875	0.642	1	congruent	Block2	congruent/STIM_006.jpg
1830.995	0.63	1	congruent	Block2	congruent/STIM_006.jpg
1834.147	0.617	1	congruent	Block2	congruent/STIM_006.jpg
1836.99	0.736	1	congruent	Block2	congruent/STIM_006.jpg
1840.019	0.591	1	congruent	Block2	congruent/STIM_006.jpg
1843.113	0.595	1	congruent	Block2	congruent/STIM_007.jpg
1847.381	0.691	1	congruent	Block2	congruent/STIM_007.jpg
1851.538	0.762	1	congruent	Block2	congruent/STIM_007.jpg
1856.11	0.786	1	congruent	Block2	congruent/STIM_007.jpg
1860.419	0.766	1	congruent	Block2	congruent/STIM_007.jpg
1864.725	0.663	1	congruent	Block2	congruent/STIM_008.jpg
1868.648	0.608	1	congruent	Block2	congruent/STIM_008.jpg
1873.049	0.543	1	congruent	Block2	congruent/STIM_008.jpg
1877.154	0.668	1	congruent	Block2	congruent/STIM_008.jpg
1881.717	0.695	1	congruent	Block2	congruent/STIM_008.jpg
1885.978	0.689	1	congruent	Block2	congruent/STIM_009.jpg
1890.3	0.713	1	congruent	Block2	congruent/STIM_009.jpg
1893.509	0.686	1	congruent	Block2	congruent/STIM_009.jpg
1898.039	0.681	1	congruent	Block2	congruent/STIM_009.jpg
1902.216	0.502	1	congruent	Block2	congruent/STIM_009.jpg
1905.85	0.724	1	congruent	Block2	congruent/STIM_010.jpg
1910.369	0.759	1	congruent	Block2	congruent/STIM_010.jpg
1913.903	0.515	1	congruent	Block2	congruent/STIM_010.jpg
1916.877	0.726	1	congruent	Block2	congruent/STIM_010.jpg
1921.522	0.731	1	congruent	Block2	congruent/STIM_010.jpg
1924.824	0.781	1	congruent	Block2	congruent/STIM_011.jpg
1929.551	0.777	1	congruent	Block2	congruent/STIM_011.jpg
1934.07	0.578	1	congruent	Block2	congruent/STIM_011.jpg
1937.316	0.652	1	congruent	Block2	congruent/STIM_011.jpg
1941.641	0.562	1	congruent	Block2	congruent/STIM_011.jpg
1944.279	0.604	0	congruent	Block2	congruent/STIM_012.jpg
1947.166	0.514	1	congruent	Block2	congruent/STIM_012.jpg
1951.267	0.669	1	congruent	Block2	congruent/STIM_012.jpg
1955.545	0.516	1	congruent	Block2	congruent/STIM_012.jpg
1958.275	0.597	1	congruent	Block2	congruent/STIM_012.jpg
1962.113	0.603	1	congruent	Block2	congruent/STIM_013.jpg
1965.107	0.487	1	congruent	Block2	congruent/STIM_013.jpg
1968.998	0.506	1	congruent	Block2	congruent/STIM_013.jpg
1971.622	0.609	1	congruent	Block2	congruent/STIM_013.jpg
1975.525	0.627	1	congruent	Block2	congruent/STIM_013.jpg
1979.738	0.602	1	congruent	Block2	congruent/STIM_014.jpg
1983.386	0.554	1	congruent	Block2	congruent/STIM_014.jpg
1986.604	0.498	1	congruent	Block2	congruent/STIM_014.jpg
1989.355	0.471	1	congruent	Block2	congruent/STIM_014.jpg
1993.615	0.682	1	congruent	Block2	congruent/STIM_014.jpg
1996.768	0.739	1	congruent	Block2	congruent/STIM_015.jpg
2000.621	0.701	1	congruent	Block2	congruent/STIM_015.jpg
2004.822	0.759	1	congruent	Block2	congruent/STIM_015.jpg
2007.676	0.485	1	congruent	Block2	congruent/STIM_015.jpg
2011.14	0.506	1	congruent	Block2	congruent/STIM_015.jpg
2014.78	0.63	1	congruent	Block2	congruent/STIM_016.jpg
2017.786	0.67	1	congruent	Block2	congruent/STIM_016.jpg
2022.188	0.474	1	congruent	Block2	congruent/STIM_016.jpg
2025.843	0.767	1	congruent	Block2	congruent/STIM_016.jpg
2029.318	0.454	1	congruent	Block2	congruent/STIM_016.jpg
2032.739	0.485	0	congruent	Block2	congruent/STIM_017.jpg
2036.565	0.596	1	congruent	Block2	congruent/STIM_017.jpg
2041.141	0.645	1	congruent	Block2	congruent/STIM_017.jpg
2044.89	0.502	1	congruent	Block2	congruent/STIM_017.jpg
2048.553	0.543	1	congruent	Block2	congruent/STIM_017.jpg
2052.41	0.696	1	congruent	Block2	congruent/STIM_018.jpg
2057.02	0.599	1	congruent	Block2	congruent/STIM_018.jpg
2061.218	0.786	1	congruent	Block2	congruent/STIM_018.jpg
2065.349	0.56	1	congruent	Block2	congruent/STIM_018.jpg
2068.521	0.497	1	congruent	Block2	congruent/STIM_018.jpg
2072.412	0.5	0	congruent	Block2	congruent/STIM_019.jpg
2075.277	0.454	1	congruent	Block2	congruent/STIM_019.jpg
2078.473	0.769	1	congruent	Block2	congruent/STIM_019.jpg
2082.85	0.518	1	congruent	Block2	congruent/STIM_019.jpg
2087.033	0.623	1	congruent	Block2	congruent/STIM_019.jpg
2090.377	0.712	1	congruent	Block2	congruent/STIM_020.jpg
2094.89	0.704	1	congruent	Block2	congruent/STIM_020.jpg
2098.955	0.48	1	congruent	Block2	congruent/STIM_020.jpg
2102.026	0.547	1	congruent	Block2	congruent/STIM_020.jpg
2105.262	0.573	1	congruent	Block2	congruent/STIM_020.jpg
2109.764	0.491	1	congruent	Block2	congruent/STIM_021.jpg
2113.787	0.709	1	congruent	Block2	congruent/STIM_021.jpg
2116.895	0.512	1	congruent	Block2	congruent/STIM_021.jpg
2121.258	0.56	1	congruent	Block2	congruent/STIM_021.jpg
2125.808	0.786	1	congruent	Block2	congruent/STIM_021.jpg
2128.78	0.735	1	congruent	Block2	congruent/STIM_022.jpg
2133.304	0.683	1	congruent	Block2	congruent/STIM_022.jpg
2136.583	0.55	1	congruent	Block2	congruent/STIM_022.jpg
2139.778	0.51	1	congruent	Block2	congruent/STIM_022.jpg
2143.539	0.722	1	congruent	Block2	congruent/STIM_022.jpg
2146.659	0.695	1	congruent	Block2	congruent/STIM_023.jpg
2151.179	0.471	1	congruent	Block2	congruent/STIM_023.jpg
2154.56	0.524	1	congruent	Block2	congruent/STIM_023.jpg
2158.86	0.674	1	congruent	Block2	congruent/STIM_023.jpg
2162.922	0.628	1	congruent	Block2	congruent/STIM_023.jpg
2165.657	0.61	1	congruent	Block2	congruent/STIM_024.jpg
2168.343	0.565	1	congruent	Block2	congruent/STIM_024.jpg
2172.265	0.528	1	congruent	Block2	congruent/STIM_024.jpg
2175.798	0.806	0	congruent	Block2	congruent/STIM_024.jpg
2180.064	0.745	1	congruent	Block2	congruent/STIM_024.jpg
2183.571	0.646	1	congruent	Block2	congruent/STIM_025.jpg
2186.814	0.796	1	congruent	Block2	congruent/STIM_025.jpg
2190.911	0.702	1	congruent	Block2	congruent/STIM_025.jpg
2195.484	0.585	1	congruent	Block2	congruent/STIM_025.jpg
2199.515	0.548	1	congruent	Block2	congruent/STIM_025.jpg
2203.064	0.628	1	congruent	Block2	congruent/STIM_026.jpg
2206.707	0.701	1	congruent	Block2	congruent/STIM_026.jpg
2211.355	0.743	1	congruent	Block2	congruent/STIM_026.jpg
2214.768	0.742	1	congruent	Block2	congruent/STIM_026.jpg
2218.939	0.709	1	congruent	Block2	congruent/STIM_026.jpg
2223.622	0.802	1	congruent	Block2	congruent/STIM_027.jpg
2227.593	0.618	0	congruent	Block2	congruent/STIM_027.jpg
2230.372	0.66	1	congruent	Block2	congruent/STIM_027.jpg
2234.769	0.586	1	congruent	Block2	congruent/STIM_027.jpg
2239.41	0.724	1	congruent	Block2	congruent/STIM_027.jpg
2244.161	0.471	1	congruent	Block2	congruent/STIM_028.jpg
2247.789	0.476	1	congruent	Block2	congruent/STIM_028.jpg
2250.838	0.497	1	congruent	Block2	congruent/STIM_028.jpg
2253.456	0.479	1	congruent	Block2	congruent/STIM_028.jpg
2257.764	0.731	1	congruent	Block2	congruent/STIM_028.jpg
2261.227	0.766	0	congruent	Block2	congruent/STIM_029.jpg
2264.141	0.61	1	congruent	Block2	congruent/STIM_029.jpg
2268.567	0.766	1	congruent	Block2	congruent/STIM_029.jpg
2273.094	0.542	1	congruent	Block2	congruent/STIM_029.jpg
2275.712	0.641	1	congruent	Block2	congruent/STIM_029.jpg
2278.935	0.872	1	incongruent	Block3	incongruent/STIM_000.jpg
2283.73	0.713	1	incongruent	Block3	incongruent/STIM_000.jpg
2287.564	0.688	1	incongruent	Block3	incongruent/STIM_000.jpg
2291.976	0.564	1	incongruent	Block3	incongruent/STIM_000.jpg
2294.878	0.785	1	incongruent	Block3	incongruent/STIM_000.jpg
2299.646	0.662	1	incongruent	Block3	incongruent/STIM_001.jpg
2302.757	0.755	1	incongruent	Block3	incongruent/STIM_001.jpg
2305.604	0.66	1	incongruent	Block3	incongruent/STIM_001.jpg
2310.109	0.674	1	incongruent	Block3	incongruent/STIM_001.jpg
2314.269	0.893	1	incongruent	Block3	incongruent/STIM_001.jpg
2318.608	0.829	1	incongruent	Block3	incongruent/STIM_002.jpg
2322.753	0.703	1	incongruent	Block3	incongruent/STIM_002.jpg
2326.768	0.892	1	incongruent	Block3	incongruent/STIM_002.jpg
2330.234	0.558	1	incongruent	Block3	incongruent/STIM_002.jpg
2333.559	0.83	1	incongruent	Block3	incongruent/STIM_002.jpg
2337.96	0.593	1	incongruent	Block3	incongruent/STIM_003.jpg
2341.226	0.878	1	incongruent	Block3	incongruent/STIM_003.jpg
2344.894	0.724	1	incongruent	Block3	incongruent/STIM_003.jpg
2348.822	0.83	1	incongruent	Block3	incongruent/STIM_003.jpg
2352.66	0.638	1	incongruent	Block3	incongruent/STIM_003.jpg
2356.328	0.792	1	incongruent	Block3	incongruent/STIM_004.jpg
2360.503	0.838	1	incongruent	Block3	incongruent/STIM_004.jpg
2364.522	0.501	1	incongruent	Block3	incongruent/STIM_004.jpg
2367.155	0.72	1	incongruent	Block3	incongruent/STIM_004.jpg
2371.13	0.655	1	incongruent	Block3	incongruent/STIM_004.jpg
2375.607	0.851	1	incongruent	Block3	incongruent/STIM_005.jpg
2379.916	0.827	1	incongruent	Block3	incongruent/STIM_005.jpg
2383.349	0.825	1	incongruent	Block3	incongruent/STIM_005.jpg
2387.319	0.518	1	incongruent	Block3	incongruent/STIM_005.jpg
2390.827	0.92	1	incongruent	Block3	incongruent/STIM_005.jpg
2395.61	0.924	1	incongruent	Block3	incongruent/STIM_006.jpg
2400.565	0.669	1	incongruent	Block3	incongruent/STIM_006.jpg
2405.037	0.578	1	incongruent	Block3	incongruent/STIM_006.jpg
2409.449	0.757	1	incongruent	Block3	incongruent/STIM_006.jpg
2412.426	0.586	1	incongruent	Block3	incongruent/STIM_006.jpg
2415.47	0.845	1	incongruent	Block3	incongruent/STIM_007.jpg
2419.929	0.563	1	incongruent	Block3	incongruent/STIM_007.jpg
2424.446	0.705	1	incongruent	Block3	incongruent/STIM_007.jpg
2427.997	0.898	1	incongruent	Block3	incongruent/STIM_007.jpg
2431.523	0.57	1	incongruent	Block3	incongruent/STIM_007.jpg
2435.559	0.558	1	incongruent	Block3	incongruent/STIM_008.jpg
2438.763	0.456	1	incongruent	Block3	incongruent/STIM_008.jpg
2442.956	0.75	1	incongruent	Block3	incongruent/STIM_008.jpg
2445.94	0.716	1	incongruent	Block3	incongruent/STIM_008.jpg
2449.748	0.602	1	incongruent	Block3	incongruent/STIM_008.jpg
2454.257	0.658	1	incongruent	Block3	incongruent/STIM_009.jpg
2458.966	0.824	1	incongruent	Block3	incongruent/STIM_009.jpg
2462.329	0.527	1	incongruent	Block3	incongruent/STIM_009.jpg
2465.915	0.685	1	incongruent	Block3	incongruent/STIM_009.jpg
2470.645	0.634	1	incongruent	Block3	incongruent/STIM_009.jpg
2474.933	0.583	1	incongruent	Block3	incongruent/STIM_010.jpg
2478.524	0.843	0	incongruent	Block3	incongruent/STIM_010.jpg
2482.09	0.919	1	incongruent	Block3	incongruent/STIM_010.jpg
2485.993	0.537	1	incongruent	Block3	incongruent/STIM_010.jpg
2490.083	0.874	1	incongruent	Block3	incongruent/STIM_010.jpg
2494.874	0.882	1	incongruent	Block3	incongruent/STIM_011.jpg
2498.201	0.691	1	incongruent	Block3	incongruent/STIM_011.jpg
2501.72	0.795	1	incongruent	Block3	incongruent/STIM_011.jpg
2505.744	0.652	1	incongruent	Block3	incongruent/STIM_011.jpg
2509.323	0.47	1	incongruent	Block3	incongruent/STIM_011.jpg
2512.536	0.714	1	incongruent	Block3	incongruent/STIM_012.jpg
2516.167	0.473	1	incongruent	Block3	incongruent/STIM_012.jpg
2520.471	0.669	1	incongruent	Block3	incongruent/STIM_012.jpg
2523.974	0.809	1	incongruent	Block3	incongruent/STIM_012.jpg
2528.774	0.804	1	incongruent	Block3	incongruent/STIM_012.jpg
2532.25	0.838	1	incongruent	Block3	incongruent/STIM_013.jpg
2537.162	0.482	1	incongruent	Block3	incongruent/STIM_013.jpg
2540.236	0.842	1	incongruent	Block3	incongruent/STIM_013.jpg
2543.295	0.682	1	incongruent	Block3	incongruent/STIM_013.jpg
2547.472	0.763	1	incongruent	Block3	incongruent/STIM_013.jpg
2550.51	0.871	1	incongruent	Block3	incongruent/STIM_014.jpg
2554.355	0.879	1	incongruent	Block3	incongruent/STIM_014.jpg
2558.204	0.617	1	incongruent	Block3	incongruent/STIM_014.jpg
2561.632	0.588	1	incongruent	Block3	incongruent/STIM_014.jpg
2565.726	0.826	1	incongruent	Block3	incongruent/STIM_014.jpg
2570.015	0.658	1	incongruent	Block3	incongruent/STIM_015.jpg
2574.024	0.756	1	incongruent	Block3	incongruent/STIM_015.jpg
2577.716	0.473	0	incongruent	Block3	incongruent/STIM_015.jpg
2580.37	0.46	1	incongruent	Block3	incongruent/STIM_015.jpg
2584.176	0.84	1	incongruent	Block3	incongruent/STIM_015.jpg
2587.703	0.777	1	incongruent	Block3	incongruent/STIM_016.jpg
2590.575	0.565	1	incongruent	Block3	incongruent/STIM_016.jpg
2594.279	0.829	1	incongruent	Block3	incongruent/STIM_016.jpg
2597.283	0.45	1	incongruent	Block3	incongruent/STIM_016.jpg
2600.795	0.571	1	incongruent	Block3	incongruent/STIM_016.jpg
2605.01	0.864	1	incongruent	Block3	incongruent/STIM_017.jpg
2608.604	0.579	1	incongruent	Block3	incongruent/STIM_017.jpg
2611.701	0.496	1	incongruent	Block3	incongruent/STIM_017.jpg
2615.107	0.446	1	incongruent	Block3	incongruent/STIM_017.jpg
2618.952	0.565	1	incongruent	Block3	incongruent/STIM_017.jpg
2623.215	0.716	1	incongruent	Block3	incongruent/STIM_018.jpg
2627.591	0.534	1	incongruent	Block3	incongruent/STIM_018.jpg
2631.289	0.714	1	incongruent	Block3	incongruent/STIM_018.jpg
2635.681	0.584	1	incongruent	Block3	incongruent/STIM_018.jpg
2640.242	0.728	1	incongruent	Block3	incongruent/STIM_018.jpg
2643.21	0.64	1	incongruent	Block3	incongruent/STIM_019.jpg
2646.277	0.824	1	incongruent	Block3	incongruent/STIM_019.jpg
2651.123	0.542	1	incongruent	Block3	incongruent/STIM_019.jpg
2655.498	0.879	1	incongruent	Block3	incongruent/STIM_019.jpg
2659.713	0.891	1	incongruent	Block3	incongruent/STIM_019.jpg
2663.378	0.465	1	incongruent	Block3	incongruent/STIM_020.jpg
2666.197	0.655	1	incongruent	Block3	incongruent/STIM_020.jpg
2669.411	0.828	1	incongruent	Block3	incongruent/STIM_020.jpg
2673.984	0.71	1	incongruent	Block3	incongruent/STIM_020.jpg
2676.94	0.844	1	incongruent	Block3	incongruent/STIM_020.jpg
2680.622	0.629	1	incongruent	Block3	incongruent/STIM_021.jpg
2684.629	0.719	1	incongruent	Block3	incongruent/STIM_021.jpg
2688.86	0.836	1	incongruent	Block3	incongruent/STIM_021.jpg
2692.469	0.918	1	incongruent	Block3	incongruent/STIM_021.jpg
2696.461	0.562	1	incongruent	Block3	incongruent/STIM_021.jpg
2699.688	0.741	1	incongruent	Block3	incongruent/STIM_022.jpg
2704.155	0.645	1	incongruent	Block3	incongruent/STIM_022.jpg
2707.534	0.679	1	incongruent	Block3	incongruent/STIM_022.jpg
2710.71	0.939	1	incongruent	Block3	incongruent/STIM_022.jpg
2713.783	0.528	1	incongruent	Block3	incongruent/STIM_022.jpg
2716.581	0.936	1	incongruent	Block3	incongruent/STIM_023.jpg
2719.724	0.608	1	incongruent	Block3	incongruent/STIM_023.jpg
2723.141	0.488	1	incongruent	Block3	incongruent/STIM_023.jpg
2726.418	0.516	1	incongruent	Block3	incongruent/STIM_023.jpg
2730.431	0.45	1	incongruent	Block3	incongruent/STIM_023.jpg
2733.658	0.878	1	incongruent	Block3	incongruent/STIM_024.jpg
2737.33	0.771	1	incongruent	Block3	incongruent/STIM_024.jpg
2741.0	0.775	1	incongruent	Block3	incongruent/STIM_024.jpg
2745.179	0.884	1	incongruent	Block3	incongruent/STIM_024.jpg
2748.697	0.777	1	incongruent	Block3	incongruent/STIM_024.jpg
2752.926	0.73	1	incongruent	Block3	incongruent/STIM_025.jpg
2756.666	0.74	0	incongruent	Block3	incongruent/STIM_025.jpg
2761.254	0.772	1	incongruent	Block3	incongruent/STIM_025.jpg
2764.749	0.655	1	incongruent	Block3	incongruent/STIM_025.jpg
2768.974	0.655	1	incongruent	Block3	incongruent/STIM_025.jpg
2773.094	0.625	1	incongruent	Block3	incongruent/STIM_026.jpg
2777.466	0.647	1	incongruent	Block3	incongruent/STIM_026.jpg
2780.278	0.48	1	incongruent	Block3	incongruent/STIM_026.jpg
2784.783	0.616	1	incongruent	Block3	incongruent/STIM_026.jpg
2788.281	0.581	1	incongruent	Block3	incongruent/STIM_026.jpg
2791.81	0.529	1	incongruent	Block3	incongruent/STIM_027.jpg
2795.794	0.719	1	incongruent	Block3	incongruent/STIM_027.jpg
2800.019	0.853	1	incongruent	Block3	incongruent/STIM_027.jpg
2803.954	0.691	1	incongruent	Block3	incongruent/STIM_027.jpg
2807.473	0.839	0	incongruent	Block3	incongruent/STIM_027.jpg
2811.107	0.795	1	incongruent	Block3	incongruent/STIM_028.jpg
2814.559	0.723	1	incongruent	Block3	incongruent/STIM_028.jpg
2817.872	0.496	1	incongruent	Block3	incongruent/STIM_028.jpg
2821.939	0.735	1	incongruent	Block3	incongruent/STIM_028.jpg
2825.884	0.545	1	incongruent	Block3	incongruent/STIM_028.jpg
2830.4	0.912	1	incongruent	Block3	incongruent/STIM_029.jpg
2833.851	0.68	1	incongruent	Block3	incongruent/STIM_029.jpg
2838.046	0.631	1	incongruent	Block3	incongruent/STIM_029.jpg
2841.18	0.526	1	incongruent	Block3	incongruent/STIM_029.jpg
2845.581	0.635	1	incongruent	Block3	incongruent/STIM_029.jpg
2848.512	0.484	1	congruent	Block3	congruent/STIM_000.jpg
2852.911	0.576	1	congruent	Block3	congruent/STIM_000.jpg
2855.558	0.766	1	congruent	Block3	congruent/STIM_000.jpg
2858.704	0.718	1	congruent	Block3	congruent/STIM_000.jpg
2863.337	0.73	1	congruent	Block3	congruent/STIM_000.jpg
2866.347	0.704	0	congruent	Block3	congruent/STIM_001.jpg
2870.656	0.529	1	congruent	Block3	congruent/STIM_001.jpg
2875.163	0.573	1	congruent	Block3	congruent/STIM_001.jpg
2878.179	0.712	1	congruent	Block3	congruent/STIM_001.jpg
2882.172	0.55	1	congruent	Block3	congruent/STIM_001.jpg
2885.939	0.669	1	congruent	Block3	congruent/STIM_002.jpg
2889.991	0.719	1	congruent	Block3	congruent/STIM_002.jpg
2894.751	0.569	1	congruent	Block3	congruent/STIM_002.jpg
2898.775	0.584	1	congruent	Block3	congruent/STIM_002.jpg
2901.756	0.522	1	congruent	Block3	congruent/STIM_002.jpg
2904.581	0.67	1	congruent	Block3	congruent/STIM_003.jpg
2907.507	0.566	1	congruent	Block3	congruent/STIM_003.jpg
2911.085	0.609	1	congruent	Block3	congruent/STIM_003.jpg
2915.728	0.769	1	congruent	Block3	congruent/STIM_003.jpg
2920.507	0.459	1	congruent	Block3	congruent/STIM_003.jpg
2924.151	0.678	1	congruent	Block3	congruent/STIM_004.jpg
2927.712	0.687	1	congruent	Block3	congruent/STIM_004.jpg
2931.96	0.704	1	congruent	Block3	congruent/STIM_004.jpg
2935.219	0.668	1	congruent	Block3	congruent/STIM_004.jpg
2939.627	0.537	1	congruent	Block3	congruent/STIM_004.jpg
2943.389	0.689	0	congruent	Block3	congruent/STIM_005.jpg
2946.818	0.524	1	congruent	Block3	congruent/STIM_005.jpg
2950.12	0.454	1	congruent	Block3	congruent/STIM_005.jpg
2952.693	0.456	1	congruent	Block3	congruent/STIM_005.jpg
2957.199	0.727	1	congruent	Block3	congruent/STIM_005.jpg
2961.699	0.787	1	congruent	Block3	congruent/STIM_006.jpg
2965.851	0.796	1	congruent	Block3	congruent/STIM_006.jpg
2969.379	0.697	1	congruent	Block3	congruent/STIM_006.jpg
2972.9	0.736	1	congruent	Block3	congruent/STIM_006.jpg
2977.555	0.71	1	congruent	Block3	congruent/STIM_006.jpg
2980.773	0.676	1	congruent	Block3	congruent/STIM_007.jpg
2983.707	0.681	1	congruent	Block3	congruent/STIM_007.jpg
2987.04	0.452	1	congruent	Block3	congruent/STIM_007.jpg
2989.797	0.79	1	congruent	Block3	congruent/STIM_007.jpg
2993.898	0.587	1	congruent	Block3	congruent/STIM_007.jpg
2997.533	0.595	1	congruent	Block3	congruent/STIM_008.jpg
3000.65	0.624	1	congruent	Block3	congruent/STIM_008.jpg
3004.732	0.636	1	congruent	Block3	congruent/STIM_008.jpg
3009.133	0.806	1	congruent	Block3	congruent/STIM_008.jpg
3012.205	0.792	1	congruent	Block3	congruent/STIM_008.jpg
3016.733	0.604	1	congruent	Block3	congruent/STIM_009.jpg
3019.481	0.703	1	congruent	Block3	congruent/STIM_009.jpg
3022.973	0.552	1	congruent	Block3	congruent/STIM_009.jpg
3026.403	0.716	1	congruent	Block3	congruent/STIM_009.jpg
3030.967	0.613	0	congruent	Block3	congruent/STIM_009.jpg
3033.897	0.774	1	congruent	Block3	congruent/STIM_010.jpg
3038.066	0.684	1	congruent	Block3	congruent/STIM_010.jpg
3042.008	0.506	1	congruent	Block3	congruent/STIM_010.jpg
3045.479	0.736	0	congruent	Block3	congruent/STIM_010.jpg
3049.017	0.461	1	congruent	Block3	congruent/STIM_010.jpg
3052.491	0.644	1	congruent	Block3	congruent/STIM_011.jpg
3056.502	0.681	1	congruent	Block3	congruent/STIM_011.jpg
3061.093	0.803	1	congruent	Block3	congruent/STIM_011.jpg
3064.589	0.587	1	congruent	Block3	congruent/STIM_011.jpg
3068.677	0.731	1	congruent	Block3	congruent/STIM_011.jpg
3073.083	0.661	1	congruent	Block3	congruent/STIM_012.jpg
3077.222	0.627	1	congruent	Block3	congruent/STIM_012.jpg
3081.266	0.536	1	congruent	Block3	congruent/STIM_012.jpg
3084.62	0.572	1	congruent	Block3	congruent/STIM_012.jpg
3087.396	0.53	1	congruent	Block3	congruent/STIM_012.jpg
3091.522	0.727	1	congruent	Block3	congruent/STIM_013.jpg
3095.842	0.577	1	congruent	Block3	congruent/STIM_013.jpg
3099.599	0.664	1	congruent	Block3	congruent/STIM_013.jpg
3102.562	0.524	1	congruent	Block3	congruent/STIM_013.jpg
3106.629	0.637	1	congruent	Block3	congruent/STIM_013.jpg
3111.318	0.555	1	congruent	Block3	congruent/STIM_014.jpg
3114.655	0.784	1	congruent	Block3	congruent/STIM_014.jpg
3118.484	0.779	1	congruent	Block3	congruent/STIM_014.jpg
3122.895	0.584	1	congruent	Block3	congruent/STIM_014.jpg
3126.869	0.786	1	congruent	Block3	congruent/STIM_014.jpg
3131.42	0.636	1	congruent	Block3	congruent/STIM_015.jpg
3134.486	0.551	1	congruent	Block3	congruent/STIM_015.jpg
3137.323	0.467	1	congruent	Block3	congruent/STIM_015.jpg
3139.992	0.613	1	congruent	Block3	congruent/STIM_015.jpg
3144.064	0.557	1	congruent	Block3	congruent/STIM_015.jpg
3147.546	0.717	1	congruent	Block3	congruent/STIM_016.jpg
3151.097	0.554	1	congruent	Block3	congruent/STIM_016.jpg
3153.755	0.633	1	congruent	Block3	congruent/STIM_016.jpg
3156.541	0.514	1	congruent	Block3	congruent/STIM_016.jpg
3160.918	0.542	1	congruent	Block3	congruent/STIM_016.jpg
3164.625	0.7	1	congruent	Block3	congruent/STIM_017.jpg
3167.67	0.543	1	congruent	Block3	congruent/STIM_017.jpg
3171.827	0.539	1	congruent	Block3	congruent/STIM_017.jpg
3176.407	0.53	1	congruent	Block3	congruent/STIM_017.jpg
3179.511	0.746	1	congruent	Block3	congruent/STIM_017.jpg
3183.891	0.507	0	congruent	Block3	congruent/STIM_018.jpg
3187.973	0.657	1	congruent	Block3	congruent/STIM_018.jpg
3190.812	0.465	1	congruent	Block3	congruent/STIM_018.jpg
3193.771	0.621	1	congruent	Block3	congruent/STIM_018.jpg
3198.01	0.622	1	congruent	Block3	congruent/STIM_018.jpg
3201.124	0.451	1	congruent	Block3	congruent/STIM_019.jpg
3204.772	0.632	1	congruent	Block3	congruent/STIM_019.jpg
3208.581	0.784	1	congruent	Block3	congruent/STIM_019.jpg
3213.225	0.688	1	congruent	Block3	congruent/STIM_019.jpg
3217.035	0.526	1	congruent	Block3	congruent/STIM_019.jpg
3220.554	0.645	1	congruent	Block3	congruent/STIM_020.jpg
3224.872	0.691	1	congruent	Block3	congruent/STIM_020.jpg
3228.273	0.756	1	congruent	Block3	congruent/STIM_020.jpg
3232.22	0.581	1	congruent	Block3	congruent/STIM_020.jpg
3235.767	0.59	1	congruent	Block3	congruent/STIM_020.jpg
3239.774	0.769	1	congruent	Block3	congruent/STIM_021.jpg
3242.767	0.798	1	congruent	Block3	congruent/STIM_021.jpg
3246.175	0.514	1	congruent	Block3	congruent/STIM_021.jpg
3250.19	0.533	1	congruent	Block3	congruent/STIM_021.jpg
3254.233	0.743	1	congruent	Block3	congruent/STIM_021.jpg
3258.21	0.614	1	congruent	Block3	congruent/STIM_022.jpg
3261.816	0.656	1	congruent	Block3	congruent/STIM_022.jpg
3265.605	0.719	1	congruent	Block3	congruent/STIM_022.jpg
3269.869	0.636	1	congruent	Block3	congruent/STIM_022.jpg
3272.979	0.512	1	congruent	Block3	congruent/STIM_022.jpg
3277.251	0.805	1	congruent	Block3	congruent/STIM_023.jpg
3280.564	0.657	1	congruent	Block3	congruent/STIM_023.jpg
3284.074	0.72	1	congruent	Block3	congruent/STIM_023.jpg
3286.985	0.62	1	congruent	Block3	congruent/STIM_023.jpg
3290.246	0.585	1	congruent	Block3	congruent/STIM_023.jpg
3293.227	0.658	1	congruent	Block3	congruent/STIM_024.jpg
3296.186	0.671	1	congruent	Block3	congruent/STIM_024.jpg
3300.326	0.765	1	congruent	Block3	congruent/STIM_024.jpg
3303.961	0.54	1	congruent	Block3	congruent/STIM_024.jpg
3307.362	0.579	1	congruent	Block3	congruent/STIM_024.jpg
3311.603	0.648	1	congruent	Block3	congruent/STIM_025.jpg
3315.457	0.724	1	congruent	Block3	congruent/STIM_025.jpg
3319.815	0.478	1	congruent	Block3	congruent/STIM_025.jpg
3323.98	0.711	1	congruent	Block3	congruent/STIM_025.jpg
3327.91	0.732	1	congruent	Block3	congruent/STIM_025.jpg
3332.043	0.706	1	congruent	Block3	congruent/STIM_026.jpg
3335.294	0.643	1	congruent	Block3	congruent/STIM_026.jpg
3339.514	0.528	0	congruent	Block3	congruent/STIM_026.jpg
3344.006	0.466	1	congruent	Block3	congruent/STIM_026.jpg
3347.768	0.603	1	congruent	Block3	congruent/STIM_026.jpg
3350.599	0.697	1	congruent	Block3	congruent/STIM_027.jpg
3355.248	0.77	1	congruent	Block3	congruent/STIM_027.jpg
3360.066	0.772	1	congruent	Block3	congruent/STIM_027.jpg
3363.081	0.799	1	congruent	Block3	congruent/STIM_027.jpg
3367.383	0.671	1	congruent	Block3	congruent/STIM_027.jpg
3371.086	0.451	1	congruent	Block3	congruent/STIM_028.jpg
3373.717	0.49	1	congruent	Block3	congruent/STIM_028.jpg
3377.705	0.674	1	congruent	Block3	congruent/STIM_028.jpg
3381.18	0.785	1	congruent	Block3	congruent/STIM_028.jpg
3384.532	0.592	1	congruent	Block3	congruent/STIM_028.jpg
3388.751	0.801	1	congruent	Block3	congruent/STIM_029.jpg
3393.381	0.452	1	congruent	Block3	congruent/STIM_029.jpg
3396.277	0.721	1	congruent	Block3	congruent/STIM_029.jpg
3400.562	0.764	1	congruent	Block3	congruent/STIM_029.jpg
3405.229	0.66	1	congruent	Block3	congruent/STIM_029.jpg
