onset	duration	accuracy_binary	trial_type	learning_stage	stimulus
0.0	1.794	0	incongruent	Block1	incongruent/STIM_000.jpg
3.924	1.598	0	incongruent	Block1	incongruent/STIM_000.jpg
9.314	0.861	0	incongruent	Block1	incongruent/STIM_000.jpg
13.563	0.96	1	incongruent	Block1	incongruent/STIM_000.jpg
17.091	1.457	1	incongruent	Block1	incongruent/STIM_000.jpg
21.933	1.694	1	incongruent	Block1	incongruent/STIM_001.jpg
26.207	1.115	1	incongruent	Block1	incongruent/STIM_001.jpg
29.363	1.296	1	incongruent	Block1	incongruent/STIM_001.jpg
34.535	1.43	0	incongruent	Block1	incongruent/STIM_001.jpg
38.598	1.033	0	incongruent	Block1	incongruent/STIM_001.jpg
42.222	0.955	0	incongruent	Block1	incongruent/STIM_002.jpg
45.316	1.101	1	incongruent	Block1	incongruent/STIM_002.jpg
49.003	1.346	1	incongruent	Block1	incongruent/STIM_002.jpg
53.753	1.15	1	incongruent	Block1	incongruent/STIM_002.jpg
57.006	1.16	0	incongruent	Block1	incongruent/STIM_002.jpg
62.149	1.465	0	incongruent	Block1	incongruent/STIM_003.jpg
67.236	1.47	1	incongruent	Block1	incongruent/STIM_003.jpg
70.91	1.371	1	incongruent	Block1	incongruent/STIM_003.jpg
75.278	1.035	1	incongruent	Block1	incongruent/STIM_003.jpg
80.155	1.447	1	incongruent	Block1	incongruent/STIM_003.jpg
84.405	1.625	1	incongruent	Block1	incongruent/STIM_004.jpg
89.553	1.418	1	incongruent	Block1	incongruent/STIM_004.jpg
93.271	1.659	1	incongruent	Block1	incongruent/STIM_004.jpg
97.593	1.367	1	incongruent	Block1	incongruent/STIM_004.jpg
102.678	1.342	1	incongruent	Block1	incongruent/STIM_004.jpg
107.642	1.321	0	incongruent	Block1	incongruent/STIM_005.jpg
112.291	1.477	1	incongruent	Block1	incongruent/STIM_005.jpg
117.727	1.518	1	incongruent	Block1	incongruent/STIM_005.jpg
121.695	1.227	1	incongruent	Block1	incongruent/STIM_005.jpg
126.445	0.802	0	incongruent	Block1	incongruent/STIM_005.jpg
130.29	1.456	1	incongruent	Block1	incongruent/STIM_006.jpg
134.189	1.427	1	incongruent	Block1	incongruent/STIM_006.jpg
139.162	1.028	0	incongruent	Block1	incongruent/STIM_006.jpg
143.827	0.788	1	incongruent	Block1	incongruent/STIM_006.jpg
147.425	1.185	1	incongruent	Block1	incongruent/STIM_006.jpg
151.721	0.909	0	incongruent	Block1	incongruent/STIM_007.jpg
155.025	1.255	0	incongruent	Block1	incongruent/STIM_007.jpg
158.738	1.086	1	incongruent	Block1	incongruent/STIM_007.jpg
163.317	0.836	1	incongruent	Block1	incongruent/STIM_007.jpg
167.38	0.746	0	incongruent	Block1	incongruent/STIM_007.jpg
171.115	1.58	0	incongruent	Block1	incongruent/STIM_008.jpg
175.411	1.456	1	incongruent	Block1	incongruent/STIM_008.jpg
179.48	1.481	1	incongruent	Block1	incongruent/STIM_008.jpg
184.364	1.13	0	incongruent	Block1	incongruent/STIM_008.jpg
188.246	1.485	1	incongruent	Block1	incongruent/STIM_008.jpg
192.187	1.718	1	incongruent	Block1	incongruent/STIM_009.jpg
197.15	0.888	1	incongruent	Block1	incongruent/STIM_009.jpg
201.858	1.441	1	incongruent	Block1	incongruent/STIM_009.jpg
206.538	0.99	1	incongruent	Block1	incongruent/STIM_009.jpg
209.996	0.834	1	incongruent	Block1	incongruent/STIM_009.jpg
213.691	0.961	1	incongruent	Block1	incongruent/STIM_010.jpg
217.103	1.431	0	incongruent	Block1	incongruent/STIM_010.jpg
220.97	1.075	1	incongruent	Block1	incongruent/STIM_010.jpg
225.883	1.037	0	incongruent	Block1	incongruent/STIM_010.jpg
230.236	1.167	1	incongruent	Block1	incongruent/STIM_010.jpg
234.684	1.081	1	incongruent	Block1	incongruent/STIM_011.jpg
239.53	1.679	0	incongruent	Block1	incongruent/STIM_011.jpg
243.709	0.829	1	incongruent	Block1	incongruent/STIM_011.jpg
247.258	0.894	0	incongruent	Block1	incongruent/STIM_011.jpg
250.542	1.212	1	incongruent	Block1	incongruent/STIM_011.jpg
253.938	1.847	1	incongruent	Block1	incongruent/STIM_012.jpg
258.06	1.049	0	incongruent	Block1	incongruent/STIM_012.jpg
261.686	1.136	1	incongruent	Block1	incongruent/STIM_012.jpg
266.092	1.075	0	incongruent	Block1	incongruent/STIM_012.jpg
269.397	0.785	1	incongruent	Block1	incongruent/STIM_012.jpg
272.696	1.159	1	incongruent	Block1	incongruent/STIM_013.jpg
277.693	1.501	1	incongruent	Block1	incongruent/STIM_013.jpg
282.772	1.578	1	incongruent	Block1	incongruent/STIM_013.jpg
286.574	1.122	0	incongruent	Block1	incongruent/STIM_013.jpg
289.807	1.203	1	incongruent	Block1	incongruent/STIM_013.jpg
294.99	1.506	0	incongruent	Block1	incongruent/STIM_014.jpg
299.379	1.763	1	incongruent	Block1	incongruent/STIM_014.jpg
304.391	1.672	1	incongruent	Block1	incongruent/STIM_014.jpg
309.11	0.741	0	incongruent	Block1	incongruent/STIM_014.jpg
312.792	1.414	1	incongruent	Block1	incongruent/STIM_014.jpg
317.187	1.314	0	incongruent	Block1	incongruent/STIM_015.jpg
320.503	0.961	0	incongruent	Block1	incongruent/STIM_015.jpg
325.046	0.965	0	incongruent	Block1	incongruent/STIM_015.jpg
329.04	1.486	1	incongruent	Block1	incongruent/STIM_015.jpg
334.278	1.433	0	incongruent	Block1	incongruent/STIM_015.jpg
337.836	1.4	1	incongruent	Block1	incongruent/STIM_016.jpg
342.939	1.202	1	incongruent	Block1	incongruent/STIM_016.jpg
347.242	1.488	0	incongruent	Block1	incongruent/STIM_016.jpg
351.255	1.261	1	incongruent	Block1	incongruent/STIM_016.jpg
354.868	1.264	1	incongruent	Block1	incongruent/STIM_016.jpg
358.989	1.028	0	incongruent	Block1	incongruent/STIM_017.jpg
362.254	1.475	1	incongruent	Block1	incongruent/STIM_017.jpg
366.323	1.053	1	incongruent	Block1	incongruent/STIM_017.jpg
370.027	0.751	0	incongruent	Block1	incongruent/STIM_017.jpg
374.075	1.057	1	incongruent	Block1	incongruent/STIM_017.jpg
378.022	1.535	1	incongruent	Block1	incongruent/STIM_018.jpg
382.028	1.595	0	incongruent	Block1	incongruent/STIM_018.jpg
386.959	1.171	0	incongruent	Block1	incongruent/STIM_018.jpg
391.8	1.066	0	incongruent	Block1	incongruent/STIM_018.jpg
395.08	0.884	1	incongruent	Block1	incongruent/STIM_018.jpg
398.166	1.355	0	incongruent	Block1	incongruent/STIM_019.jpg
401.941	0.963	0	incongruent	Block1	incongruent/STIM_019.jpg
405.326	1.261	1	incongruent	Block1	incongruent/STIM_019.jpg
409.227	1.52	0	incongruent	Block1	incongruent/STIM_019.jpg
413.01	1.412	0	incongruent	Block1	incongruent/STIM_019.jpg
416.873	1.171	1	incongruent	Block1	incongruent/STIM_020.jpg
421.702	1.188	0	incongruent	Block1	incongruent/STIM_020.jpg
426.42	0.939	1	incongruent	Block1	incongruent/STIM_020.jpg
431.18	0.912	1	incongruent	Block1	incongruent/STIM_020.jpg
435.572	0.793	0	incongruent	Block1	incongruent/STIM_020.jpg
438.935	1.451	0	incongruent	Block1	incongruent/STIM_021.jpg
443.203	1.065	0	incongruent	Block1	incongruent/STIM_021.jpg
447.12	0.86	0	incongruent	Block1	incongruent/STIM_021.jpg
450.218	1.044	1	incongruent	Block1	incongruent/STIM_021.jpg
453.852	0.946	0	incongruent	Block1	incongruent/STIM_021.jpg
457.116	1.448	1	incongruent	Block1	incongruent/STIM_022.jpg
460.993	1.726	1	incongruent	Block1	incongruent/STIM_022.jpg
466.227	1.232	0	incongruent	Block1	incongruent/STIM_022.jpg
470.795	0.978	1	incongruent	Block1	incongruent/STIM_022.jpg
474.678	0.714	0	incongruent	Block1	incongruent/STIM_022.jpg
478.685	1.189	0	incongruent	Block1	incongruent/STIM_023.jpg
482.656	1.021	1	incongruent	Block1	incongruent/STIM_023.jpg
487.044	0.97	0	incongruent	Block1	incongruent/STIM_023.jpg
491.31	1.545	1	incongruent	Block1	incongruent/STIM_023.jpg
495.517	0.848	0	incongruent	Block1	incongruent/STIM_023.jpg
498.702	1.184	0	incongruent	Block1	incongruent/STIM_024.jpg
503.825	1.696	0	incongruent	Block1	incongruent/STIM_024.jpg
509.392	1.556	1	incongruent	Block1	incongruent/STIM_024.jpg
513.386	1.551	1	incongruent	Block1	incongruent/STIM_024.jpg
517.296	1.159	1	incongruent	Block1	incongruent/STIM_024.jpg
520.523	0.998	0	incongruent	Block1	incongruent/STIM_025.jpg
525.191	1.496	1	incongruent	Block1	incongruent/STIM_025.jpg
530.658	1.137	1	incongruent	Block1	incongruent/STIM_025.jpg
535.143	1.016	0	incongruent	Block1	incongruent/STIM_025.jpg
538.461	1.195	1	incongruent	Block1	incongruent/STIM_025.jpg
542.629	1.803	1	incongruent	Block1	incongruent/STIM_026.jpg
547.062	0.872	0	incongruent	Block1	incongruent/STIM_026.jpg
549.984	1.084	0	incongruent	Block1	incongruent/STIM_026.jpg
553.341	1.338	1	incongruent	Block1	incongruent/STIM_026.jpg
557.903	1.488	1	incongruent	Block1	incongruent/STIM_026.jpg
563.054	0.872	0	incongruent	Block1	incongruent/STIM_027.jpg
567.693	1.732	0	incongruent	Block1	incongruent/STIM_027.jpg
572.682	0.937	1	incongruent	Block1	incongruent/STIM_027.jpg
577.377	1.043	1	incongruent	Block1	incongruent/STIM_027.jpg
580.918	1.002	0	incongruent	Block1	incongruent/STIM_027.jpg
584.496	1.019	0	incongruent	Block1	incongruent/STIM_028.jpg
588.598	1.576	1	incongruent	Block1	incongruent/STIM_028.jpg
592.768	1.183	1	incongruent	Block1	incongruent/STIM_028.jpg
596.919	1.096	1	incongruent	Block1	incongruent/STIM_028.jpg
600.513	0.707	0	incongruent	Block1	incongruent/STIM_028.jpg
604.831	1.212	0	incongruent	Block1	incongruent/STIM_029.jpg
608.096	1.242	1	incongruent	Block1	incongruent/STIM_029.jpg
612.099	1.668	1	incongruent	Block1	incongruent/STIM_029.jpg
617.436	0.984	0	incongruent	Block1	incongruent/STIM_029.jpg
621.867	0.885	1	incongruent	Block1	incongruent/STIM_029.jpg
626.559	1.002	1	congruent	Block1	congruent/STIM_000.jpg
629.594	1.068	1	congruent	Block1	congruent/STIM_000.jpg
634.649	0.622	0	congruent	Block1	congruent/STIM_000.jpg
637.996	0.677	1	congruent	Block1	congruent/STIM_000.jpg
641.716	1.034	0	congruent	Block1	congruent/STIM_000.jpg
646.077	0.696	1	congruent	Block1	congruent/STIM_001.jpg
649.209	1.101	1	congruent	Block1	congruent/STIM_001.jpg
652.717	0.799	1	congruent	Block1	congruent/STIM_001.jpg
657.03	0.763	1	congruent	Block1	congruent/STIM_001.jpg
660.717	0.716	1	congruent	Block1	congruent/STIM_001.jpg
664.987	0.774	1	congruent	Block1	congruent/STIM_002.jpg
668.765	0.867	1	congruent	Block1	congruent/STIM_002.jpg
672.836	0.747	1	congruent	Block1	congruent/STIM_002.jpg
676.726	0.728	1	congruent	Block1	congruent/STIM_002.jpg
680.997	0.849	0	congruent	Block1	congruent/STIM_002.jpg
684.034	0.75	1	congruent	Block1	congruent/STIM_003.jpg
687.689	0.866	1	congruent	Block1	congruent/STIM_003.jpg
691.191	0.88	0	congruent	Block1	congruent/STIM_003.jpg
696.063	1.074	1	congruent	Block1	congruent/STIM_003.jpg
699.995	0.698	1	congruent	Block1	congruent/STIM_003.jpg
703.474	0.715	1	congruent	Block1	congruent/STIM_004.jpg
707.191	0.641	1	congruent	Block1	congruent/STIM_004.jpg
711.5	0.973	1	congruent	Block1	congruent/STIM_004.jpg
716.217	0.738	1	congruent	Block1	congruent/STIM_004.jpg
720.581	0.869	1	congruent	Block1	congruent/STIM_004.jpg
724.633	0.638	0	congruent	Block1	congruent/STIM_005.jpg
728.871	0.685	0	congruent	Block1	congruent/STIM_005.jpg
731.943	1.075	1	congruent	Block1	congruent/STIM_005.jpg
736.001	0.643	0	congruent	Block1	congruent/STIM_005.jpg
739.776	1.049	1	congruent	Block1	congruent/STIM_005.jpg
743.422	1.107	1	congruent	Block1	congruent/STIM_006.jpg
748.281	1.063	1	congruent	Block1	congruent/STIM_006.jpg
751.762	1.063	0	congruent	Block1	congruent/STIM_006.jpg
756.693	0.747	1	congruent	Block1	congruent/STIM_006.jpg
760.713	0.909	1	congruent	Block1	congruent/STIM_006.jpg
763.634	0.74	0	congruent	Block1	congruent/STIM_007.jpg
766.749	0.82	1	congruent	Block1	congruent/STIM_007.jpg
771.123	0.927	1	congruent	Block1	congruent/STIM_007.jpg
774.152	0.835	1	congruent	Block1	congruent/STIM_007.jpg
778.225	0.978	1	congruent	Block1	congruent/STIM_007.jpg
782.243	0.774	0	congruent	Block1	congruent/STIM_008.jpg
786.245	0.798	1	congruent	Block1	congruent/STIM_008.jpg
790.955	0.622	0	congruent	Block1	congruent/STIM_008.jpg
795.517	0.904	1	congruent	Block1	congruent/STIM_008.jpg
799.411	0.69	0	congruent	Block1	congruent/STIM_008.jpg
802.875	0.932	1	congruent	Block1	congruent/STIM_009.jpg
805.865	0.689	1	congruent	Block1	congruent/STIM_009.jpg
810.509	0.885	0	congruent	Block1	congruent/STIM_009.jpg
814.62	0.911	0	congruent	Block1	congruent/STIM_009.jpg
818.444	0.788	1	congruent	Block1	congruent/STIM_009.jpg
822.529	0.866	1	congruent	Block1	congruent/STIM_010.jpg
826.375	0.634	0	congruent	Block1	congruent/STIM_010.jpg
830.948	0.672	1	congruent	Block1	congruent/STIM_010.jpg
834.265	0.775	1	congruent	Block1	congruent/STIM_010.jpg
837.221	0.651	1	congruent	Block1	congruent/STIM_010.jpg
841.566	1.05	0	congruent	Block1	congruent/STIM_011.jpg
845.079	0.917	1	congruent	Block1	congruent/STIM_011.jpg
848.519	0.755	0	congruent	Block1	congruent/STIM_011.jpg
852.07	0.863	1	congruent	Block1	congruent/STIM_011.jpg
856.415	1.094	1	congruent	Block1	congruent/STIM_011.jpg
860.893	0.625	1	congruent	Block1	congruent/STIM_012.jpg
865.207	0.754	1	congruent	Block1	congruent/STIM_012.jpg
869.282	0.806	1	congruent	Block1	congruent/STIM_012.jpg
872.946	0.922	1	congruent	Block1	congruent/STIM_012.jpg
877.778	0.628	1	congruent	Block1	congruent/STIM_012.jpg
881.995	0.781	0	congruent	Block1	congruent/STIM_013.jpg
885.725	1.096	0	congruent	Block1	congruent/STIM_013.jpg
890.297	0.67	1	congruent	Block1	congruent/STIM_013.jpg
894.299	0.853	1	congruent	Block1	congruent/STIM_013.jpg
898.33	0.86	0	congruent	Block1	congruent/STIM_013.jpg
902.127	0.784	1	congruent	Block1	congruent/STIM_014.jpg
906.516	0.983	0	congruent	Block1	congruent/STIM_014.jpg
911.454	0.958	1	congruent	Block1	congruent/STIM_014.jpg
915.672	0.627	1	congruent	Block1	congruent/STIM_014.jpg
918.776	1.047	0	congruent	Block1	congruent/STIM_014.jpg
922.923	0.728	0	congruent	Block1	congruent/STIM_015.jpg
927.517	0.989	1	congruent	Block1	congruent/STIM_015.jpg
931.964	0.857	1	congruent	Block1	congruent/STIM_015.jpg
935.618	0.834	1	congruent	Block1	congruent/STIM_015.jpg
938.794	1.053	1	congruent	Block1	congruent/STIM_015.jpg
941.98	0.64	1	congruent	Block1	congruent/STIM_016.jpg
944.927	0.744	1	congruent	Block1	congruent/STIM_016.jpg
948.387	1.113	1	congruent	Block1	congruent/STIM_016.jpg
952.904	0.927	1	congruent	Block1	congruent/STIM_016.jpg
957.069	0.869	1	congruent	Block1	congruent/STIM_016.jpg
961.351	0.892	1	congruent	Block1	congruent/STIM_017.jpg
966.196	1.057	1	congruent	Block1	congruent/STIM_017.jpg
969.307	0.934	1	congruent	Block1	congruent/STIM_017.jpg
973.37	1.085	1	congruent	Block1	congruent/STIM_017.jpg
977.387	0.868	1	congruent	Block1	congruent/STIM_017.jpg
980.7	0.974	1	congruent	Block1	congruent/STIM_018.jpg
983.689	0.874	0	congruent	Block1	congruent/STIM_018.jpg
988.346	1.087	1	congruent	Block1	congruent/STIM_018.jpg
993.248	1.092	0	congruent	Block1	congruent/STIM_018.jpg
996.867	0.998	1	congruent	Block1	congruent/STIM_018.jpg
1001.78	0.69	1	congruent	Block1	congruent/STIM_019.jpg
1005.465	1.105	0	congruent	Block1	congruent/STIM_019.jpg
1008.97	1.088	0	congruent	Block1	congruent/STIM_019.jpg
1012.726	0.738	1	congruent	Block1	congruent/STIM_019.jpg
1016.35	1.078	0	congruent	Block1	congruent/STIM_019.jpg
1021.226	0.76	1	congruent	Block1	congruent/STIM_020.jpg
1024.869	0.97	1	congruent	Block1	congruent/STIM_020.jpg
1028.754	1.106	0	congruent	Block1	congruent/STIM_020.jpg
1031.899	0.731	1	congruent	Block1	congruent/STIM_020.jpg
1036.332	0.73	0	congruent	Block1	congruent/STIM_020.jpg
1040.86	0.845	0	congruent	Block1	congruent/STIM_021.jpg
1044.521	0.951	1	congruent	Block1	congruent/STIM_021.jpg
1048.093	0.864	1	congruent	Block1	congruent/STIM_021.jpg
1051.627	0.75	1	congruent	Block1	congruent/STIM_021.jpg
1054.959	1.035	0	congruent	Block1	congruent/STIM_021.jpg
1058.57	0.952	1	congruent	Block1	congruent/STIM_022.jpg
1062.19	0.772	0	congruent	Block1	congruent/STIM_022.jpg
1065.987	0.627	1	congruent	Block1	congruent/STIM_022.jpg
1069.476	0.963	1	congruent	Block1	congruent/STIM_022.jpg
1074.267	0.745	1	congruent	Block1	congruent/STIM_022.jpg
1078.668	0.758	1	congruent	Block1	congruent/STIM_023.jpg
1081.756	0.774	1	congruent	Block1	congruent/STIM_023.jpg
1084.928	0.813	1	congruent	Block1	congruent/STIM_023.jpg
1089.183	1.088	1	congruent	Block1	congruent/STIM_023.jpg
1092.52	0.913	1	congruent	Block1	congruent/STIM_023.jpg
1097.054	0.894	0	congruent	Block1	congruent/STIM_024.jpg
1099.986	1.07	1	congruent	Block1	congruent/STIM_024.jpg
1104.539	1.078	0	congruent	Block1	congruent/STIM_024.jpg
1109.378	0.978	0	congruent	Block1	congruent/STIM_024.jpg
1113.479	1.03	0	congruent	Block1	congruent/STIM_024.jpg
1117.751	1.034	1	congruent	Block1	congruent/STIM_025.jpg
1122.682	0.855	0	congruent	Block1	congruent/STIM_025.jpg
1126.415	1.029	1	congruent	Block1	congruent/STIM_025.jpg
1131.391	0.986	0	congruent	Block1	congruent/STIM_025.jpg
1135.371	0.795	1	congruent	Block1	congruent/STIM_025.jpg
1138.514	0.628	1	congruent	Block1	congruent/STIM_026.jpg
1142.971	0.664	0	congruent	Block1	congruent/STIM_026.jpg
1145.648	0.738	0	congruent	Block1	congruent/STIM_026.jpg
1148.422	1.07	0	congruent	Block1	congruent/STIM_026.jpg
1151.778	1.009	1	congruent	Block1	congruent/STIM_026.jpg
1156.506	1.078	1	congruent	Block1	congruent/STIM_027.jpg
1161.456	0.729	0	congruent	Block1	congruent/STIM_027.jpg
1165.504	0.903	0	congruent	Block1	congruent/STIM_027.jpg
1170.034	0.97	1	congruent	Block1	congruent/STIM_027.jpg
1174.094	0.782	1	congruent	Block1	congruent/STIM_027.jpg
1177.494	1.1	0	congruent	Block1	congruent/STIM_028.jpg
1181.175	0.638	1	congruent	Block1	congruent/STIM_028.jpg
1185.47	0.961	1	congruent	Block1	congruent/STIM_028.jpg
1190.253	0.697	0	congruent	Block1	congruent/STIM_028.jpg
1193.198	0.977	1	congruent	Block1	congruent/STIM_028.jpg
1197.234	0.888	0	congruent	Block1	congruent/STIM_029.jpg
1200.345	0.942	1	congruent	Block1	congruent/STIM_029.jpg
1203.438	1.108	0	congruent	Block1	congruent/STIM_029.jpg
1208.181	0.68	1	congruent	Block1	congruent/STIM_029.jpg
1211.461	0.991	1	congruent	Block1	congruent/STIM_029.jpg
1214.977	0.795	1	incongruent	Block2	incongruent/STIM_000.jpg
1218.469	0.87	0	incongruent	Block2	incongruent/STIM_000.jpg
1223.027	1.206	1	incongruent	Block2	incongruent/STIM_000.jpg
1227.744	1.107	1	incongruent	Block2	incongruent/STIM_000.jpg
1231.487	0.675	0	incongruent	Block2	incongruent/STIM_000.jpg
1236.129	1.048	0	incongruent	Block2	incongruent/STIM_001.jpg
1239.959	0.988	1	incongruent	Block2	incongruent/STIM_001.jpg
1243.692	1.386	0	incongruent	Block2	incongruent/STIM_001.jpg
1248.233	1.104	1	incongruent	Block2	incongruent/STIM_001.jpg
1252.761	1.228	1	incongruent	Block2	incongruent/STIM_001.jpg
1257.062	1.584	1	incongruent	Block2	incongruent/STIM_002.jpg
1260.858	1.06	0	incongruent	Block2	incongruent/STIM_002.jpg
1265.823	0.999	0	incongruent	Block2	incongruent/STIM_002.jpg
1269.913	0.858	1	incongruent	Block2	incongruent/STIM_002.jpg
1274.686	1.275	1	incongruent	Block2	incongruent/STIM_002.jpg
1278.693	1.35	1	incongruent	Block2	incongruent/STIM_003.jpg
1282.835	1.201	1	incongruent	Block2	incongruent/STIM_003.jpg
1287.033	0.887	1	incongruent	Block2	incongruent/STIM_003.jpg
1291.446	0.793	1	incongruent	Block2	incongruent/STIM_003.jpg
1294.44	0.89	1	incongruent	Block2	incongruent/STIM_003.jpg
1298.834	0.89	1	incongruent	Block2	incongruent/STIM_004.jpg
1303.039	1.486	1	incongruent	Block2	incongruent/STIM_004.jpg
1308.049	1.166	1	incongruent	Block2	incongruent/STIM_004.jpg
1312.466	0.61	1	incongruent	Block2	incongruent/STIM_004.jpg
1315.955	0.75	1	incongruent	Block2	incongruent/STIM_004.jpg
1319.236	1.355	1	incongruent	Block2	incongruent/STIM_005.jpg
1322.879	0.841	1	incongruent	Block2	incongruent/STIM_005.jpg
1326.805	0.768	1	incongruent	Block2	incongruent/STIM_005.jpg
1330.374	0.962	0	incongruent	Block2	incongruent/STIM_005.jpg
1334.231	0.814	1	incongruent	Block2	incongruent/STIM_005.jpg
1337.523	1.156	1	incongruent	Block2	incongruent/STIM_006.jpg
1341.423	0.871	1	incongruent	Block2	incongruent/STIM_006.jpg
1344.954	1.108	1	incongruent	Block2	incongruent/STIM_006.jpg
1349.084	0.662	1	incongruent	Block2	incongruent/STIM_006.jpg
1352.871	1.152	1	incongruent	Block2	incongruent/STIM_006.jpg
1356.104	1.251	1	incongruent	Block2	incongruent/STIM_007.jpg
1360.995	1.257	1	incongruent	Block2	incongruent/STIM_007.jpg
1364.798	0.825	1	incongruent	Block2	incongruent/STIM_007.jpg
1367.824	1.016	0	incongruent	Block2	incongruent/STIM_007.jpg
1371.051	0.893	0	incongruent	Block2	incongruent/STIM_007.jpg
1374.974	1.038	1	incongruent	Block2	incongruent/STIM_008.jpg
1378.913	1.2	1	incongruent	Block2	incongruent/STIM_008.jpg
1383.94	0.821	1	incongruent	Block2	incongruent/STIM_008.jpg
1388.224	0.881	1	incongruent	Block2	incongruent/STIM_008.jpg
1391.498	0.902	1	incongruent	Block2	incongruent/STIM_008.jpg
1394.691	1.18	1	incongruent	Block2	incongruent/STIM_009.jpg
1398.958	0.714	1	incongruent	Block2	incongruent/STIM_009.jpg
1402.325	0.989	0	incongruent	Block2	incongruent/STIM_009.jpg
1407.05	1.213	1	incongruent	Block2	incongruent/STIM_009.jpg
1410.862	0.667	1	incongruent	Block2	incongruent/STIM_009.jpg
1413.796	0.984	0	incongruent	Block2	incongruent/STIM_010.jpg
1417.562	1.449	1	incongruent	Block2	incongruent/STIM_010.jpg
1421.893	0.894	1	incongruent	Block2	incongruent/STIM_010.jpg
1424.898	0.813	1	incongruent	Block2	incongruent/STIM_010.jpg
1429.301	1.159	1	incongruent	Block2	incongruent/STIM_010.jpg
1433.398	0.99	1	incongruent	Block2	incongruent/STIM_011.jpg
1436.679	1.232	1	incongruent	Block2	incongruent/STIM_011.jpg
1440.997	1.154	0	incongruent	Block2	incongruent/STIM_011.jpg
1444.321	1.081	0	incongruent	Block2	incongruent/STIM_011.jpg
1448.135	0.999	1	incongruent	Block2	incongruent/STIM_011.jpg
1453.069	1.135	1	incongruent	Block2	incongruent/STIM_012.jpg
1457.727	0.965	1	incongruent	Block2	incongruent/STIM_012.jpg
1461.341	0.756	1	incongruent	Block2	incongruent/STIM_012.jpg
1465.322	0.631	1	incongruent	Block2	incongruent/STIM_012.jpg
1468.655	1.124	0	incongruent	Block2	incongruent/STIM_012.jpg
1473.474	1.096	1	incongruent	Block2	incongruent/STIM_013.jpg
1476.781	1.205	0	incongruent	Block2	incongruent/STIM_013.jpg
1481.756	0.763	1	incongruent	Block2	incongruent/STIM_013.jpg
1486.347	0.753	1	incongruent	Block2	incongruent/STIM_013.jpg
1489.967	0.898	1	incongruent	Block2	incongruent/STIM_013.jpg
1493.627	1.009	0	incongruent	Block2	incongruent/STIM_014.jpg
1498.472	1.136	1	incongruent	Block2	incongruent/STIM_014.jpg
1502.85	1.209	1	incongruent	Block2	incongruent/STIM_014.jpg
1507.003	1.161	0	incongruent	Block2	incongruent/STIM_014.jpg
1511.879	1.124	0	incongruent	Block2	incongruent/STIM_014.jpg
1515.061	1.086	1	incongruent	Block2	incongruent/STIM_015.jpg
1519.274	1.479	0	incongruent	Block2	incongruent/STIM_015.jpg
1523.347	0.924	1	incongruent	Block2	incongruent/STIM_015.jpg
1528.174	0.711	1	incongruent	Block2	incongruent/STIM_015.jpg
1532.577	1.26	1	incongruent	Block2	incongruent/STIM_015.jpg
1535.916	1.394	1	incongruent	Block2	incongruent/STIM_016.jpg
1540.632	0.706	1	incongruent	Block2	incongruent/STIM_016.jpg
1545.306	0.948	1	incongruent	Block2	incongruent/STIM_016.jpg
1549.722	1.228	1	incongruent	Block2	incongruent/STIM_016.jpg
1554.09	1.045	1	incongruent	Block2	incongruent/STIM_016.jpg
1558.448	0.995	1	incongruent	Block2	incongruent/STIM_017.jpg
1563.021	1.024	1	incongruent	Block2	incongruent/STIM_017.jpg
1566.777	0.734	0	incongruent	Block2	incongruent/STIM_017.jpg
1570.699	0.868	1	incongruent	Block2	incongruent/STIM_017.jpg
1574.267	1.304	0	incongruent	Block2	incongruent/STIM_017.jpg
1578.03	1.418	1	incongruent	Block2	incongruent/STIM_018.jpg
1582.875	0.898	1	incongruent	Block2	incongruent/STIM_018.jpg
1586.732	1.321	1	incongruent	Block2	incongruent/STIM_018.jpg
1591.056	1.245	1	incongruent	Block2	incongruent/STIM_018.jpg
1594.664	1.1	1	incongruent	Block2	incongruent/STIM_018.jpg
1599.693	1.031	1	incongruent	Block2	incongruent/STIM_019.jpg
1603.781	1.111	0	incongruent	Block2	incongruent/STIM_019.jpg
1607.928	1.366	0	incongruent	Block2	incongruent/STIM_019.jpg
1611.733	0.886	1	incongruent	Block2	incongruent/STIM_019.jpg
1615.437	0.697	1	incongruent	Block2	incongruent/STIM_019.jpg
1618.737	0.907	1	incongruent	Block2	incongruent/STIM_020.jpg
1622.79	0.833	1	incongruent	Block2	incongruent/STIM_020.jpg
1626.383	1.364	0	incongruent	Block2	incongruent/STIM_020.jpg
1629.818	0.701	0	incongruent	Block2	incongruent/STIM_020.jpg
1634.273	1.142	1	incongruent	Block2	incongruent/STIM_020.jpg
1639.404	1.009	1	incongruent	Block2	incongruent/STIM_021.jpg
1644.285	0.821	1	incongruent	Block2	incongruent/STIM_021.jpg
1647.187	0.898	1	incongruent	Block2	incongruent/STIM_021.jpg
1651.128	1.013	0	incongruent	Block2	incongruent/STIM_021.jpg
1654.593	0.802	0	incongruent	Block2	incongruent/STIM_021.jpg
1659.147	0.935	1	incongruent	Block2	incongruent/STIM_022.jpg
1662.379	0.876	1	incongruent	Block2	incongruent/STIM_022.jpg
1666.209	1.344	1	incongruent	Block2	incongruent/STIM_022.jpg
1669.963	1.206	1	incongruent	Block2	incongruent/STIM_022.jpg
1675.094	1.209	1	incongruent	Block2	incongruent/STIM_022.jpg
1680.161	0.832	1	incongruent	Block2	incongruent/STIM_023.jpg
1683.084	1.112	1	incongruent	Block2	incongruent/STIM_023.jpg
1687.368	0.952	1	incongruent	Block2	incongruent/STIM_023.jpg
1690.433	0.66	1	incongruent	Block2	incongruent/STIM_023.jpg
1694.003	0.827	1	incongruent	Block2	incongruent/STIM_023.jpg
1697.842	1.377	0	incongruent	Block2	incongruent/STIM_024.jpg
1701.405	0.889	1	incongruent	Block2	incongruent/STIM_024.jpg
1706.016	1.18	0	incongruent	Block2	incongruent/STIM_024.jpg
1710.631	0.899	1	incongruent	Block2	incongruent/STIM_024.jpg
1715.212	0.809	1	incongruent	Block2	incongruent/STIM_024.jpg
1719.499	1.444	1	incongruent	Block2	incongruent/STIM_025.jpg
1723.279	1.204	0	incongruent	Block2	incongruent/STIM_025.jpg
1728.32	0.735	1	incongruent	Block2	incongruent/STIM_025.jpg
1732.286	1.265	1	incongruent	Block2	incongruent/STIM_025.jpg
1735.795	0.932	0	incongruent	Block2	incongruent/STIM_025.jpg
1739.715	1.082	1	incongruent	Block2	incongruent/STIM_026.jpg
1743.835	1.179	0	incongruent	Block2	incongruent/STIM_026.jpg
1748.907	0.912	1	incongruent	Block2	incongruent/STIM_026.jpg
1753.179	0.836	1	incongruent	Block2	incongruent/STIM_026.jpg
1756.259	0.795	1	incongruent	Block2	incongruent/STIM_026.jpg
1759.447	1.557	0	incongruent	Block2	incongruent/STIM_027.jpg
1763.915	0.81	1	incongruent	Block2	incongruent/STIM_027.jpg
1767.743	0.66	1	incongruent	Block2	incongruent/STIM_027.jpg
1771.968	1.074	1	incongruent	Block2	incongruent/STIM_027.jpg
1776.15	0.873	1	incongruent	Block2	incongruent/STIM_027.jpg
1779.853	1.003	1	incongruent	Block2	incongruent/STIM_028.jpg
1784.392	1.001	1	incongruent	Block2	incongruent/STIM_028.jpg
1787.818	1.381	1	incongruent	Block2	incongruent/STIM_028.jpg
1792.284	0.802	1	incongruent	Block2	incongruent/STIM_028.jpg
1796.605	0.876	0	incongruent	Block2	incongruent/STIM_028.jpg
1799.533	1.543	1	incongruent	Block2	incongruent/STIM_029.jpg
1804.494	1.211	1	incongruent	Block2	incongruent/STIM_029.jpg
1809.364	1.316	1	incongruent	Block2	incongruent/STIM_029.jpg
1814.453	0.866	1	incongruent	Block2	incongruent/STIM_029.jpg
1818.832	0.614	1	incongruent	Block2	incongruent/STIM_029.jpg
1821.663	0.954	0	congruent	Block2	congruent/STIM_000.jpg
1826.493	0.766	1	congruent	Block2	congruent/STIM_000.jpg
1829.339	0.987	1	congruent	Block2	congruent/STIM_000.jpg
1833.609	0.915	0	congruent	Block2	congruent/STIM_000.jpg
1837.712	0.702	1	congruent	Block2	congruent/STIM_000.jpg
1841.816	0.837	1	congruent	Block2	congruent/STIM_001.jpg
1846.541	0.989	1	congruent	Block2	congruent/STIM_001.jpg
1849.927	0.666	1	congruent	Block2	congruent/STIM_001.jpg
1852.995	0.798	1	congruent	Block2	congruent/STIM_001.jpg
1856.236	1.093	1	congruent	Block2	congruent/STIM_001.jpg
1860.766	1.03	1	congruent	Block2	congruent/STIM_002.jpg
1865.387	1.061	1	congruent	Block2	congruent/STIM_002.jpg
1868.674	1.004	1	congruent	Block2	congruent/STIM_002.jpg
1872.972	0.994	1	congruent	Block2	congruent/STIM_002.jpg
1876.095	1.028	1	congruent	Block2	congruent/STIM_002.jpg
1879.555	0.837	1	congruent	Block2	congruent/STIM_003.jpg
1883.335	0.87	0	congruent	Block2	congruent/STIM_003.jpg
1887.303	0.858	1	congruent	Block2	congruent/STIM_003.jpg
1892.045	0.752	1	congruent	Block2	congruent/STIM_003.jpg
1896.427	1.07	1	congruent	Block2	congruent/STIM_003.jpg
1899.577	0.647	1	congruent	Block2	congruent/STIM_004.jpg
1903.99	0.667	1	congruent	Block2	congruent/STIM_004.jpg
1906.92	1.096	0	congruent	Block2	congruent/STIM_004.jpg
1910.455	0.77	1	congruent	Block2	congruent/STIM_004.jpg
1913.822	1.111	0	congruent	Block2	congruent/STIM_004.jpg
1918.803	0.922	1	congruent	Block2	congruent/STIM_005.jpg
1922.986	1.083	1	congruent	Block2	congruent/STIM_005.jpg
1926.401	0.716	1	congruent	Block2	congruent/STIM_005.jpg
1929.435	0.789	1	congruent	Block2	congruent/STIM_005.jpg
1933.247	0.774	1	congruent	Block2	congruent/STIM_005.jpg
1936.494	0.947	1	congruent	Block2	congruent/STIM_006.jpg
1940.289	0.913	1	congruent	Block2	congruent/STIM_006.jpg
1943.616	0.661	1	congruent	Block2	congruent/STIM_006.jpg
1947.133	0.798	1	congruent	Block2	congruent/STIM_006.jpg
1950.84	0.875	1	congruent	Block2	congruent/STIM_006.jpg
1954.808	1.111	0	congruent	Block2	congruent/STIM_007.jpg
1958.61	0.755	1	congruent	Block2	congruent/STIM_007.jpg
1963.318	0.814	1	congruent	Block2	congruent/STIM_007.jpg
1966.521	1.065	0	congruent	Block2	congruent/STIM_007.jpg
1970.455	0.816	1	congruent	Block2	congruent/STIM_007.jpg
1973.739	0.719	0	congruent	Block2	congruent/STIM_008.jpg
1976.897	1.032	1	congruent	Block2	congruent/STIM_008.jpg
1980.557	0.743	1	congruent	Block2	congruent/STIM_008.jpg
1984.305	0.8	1	congruent	Block2	congruent/STIM_008.jpg
1987.981	0.647	1	congruent	Block2	congruent/STIM_008.jpg
1991.094	1.011	0	congruent	Block2	congruent/STIM_009.jpg
1996.035	1.084	1	congruent	Block2	congruent/STIM_009.jpg
1999.661	0.998	1	congruent	Block2	congruent/STIM_009.jpg
2003.364	0.819	0	congruent	Block2	congruent/STIM_009.jpg
2006.186	0.744	0	congruent	Block2	congruent/STIM_009.jpg
2009.338	1.118	0	congruent	Block2	congruent/STIM_010.jpg
2014.003	0.939	0	congruent	Block2	congruent/STIM_010.jpg
2017.234	0.651	1	congruent	Block2	congruent/STIM_010.jpg
2020.898	0.819	1	congruent	Block2	congruent/STIM_010.jpg
2024.526	0.643	1	congruent	Block2	congruent/STIM_010.jpg
2028.119	0.747	0	congruent	Block2	congruent/STIM_011.jpg
2031.358	1.023	1	congruent	Block2	congruent/STIM_011.jpg
2034.528	0.95	1	congruent	Block2	congruent/STIM_011.jpg
2038.382	0.858	1	congruent	Block2	congruent/STIM_011.jpg
2041.673	1.109	1	congruent	Block2	congruent/STIM_011.jpg
2046.15	0.635	0	congruent	Block2	congruent/STIM_012.jpg
2050.784	0.956	0	congruent	Block2	congruent/STIM_012.jpg
2055.659	1.045	0	congruent	Block2	congruent/STIM_012.jpg
2059.606	0.762	1	congruent	Block2	congruent/STIM_012.jpg
2064.241	1.072	1	congruent	Block2	congruent/STIM_012.jpg
2067.37	0.84	1	congruent	Block2	congruent/STIM_013.jpg
2070.383	1.074	1	congruent	Block2	congruent/STIM_013.jpg
2073.777	0.789	1	congruent	Block2	congruent/STIM_013.jpg
2078.051	0.828	1	congruent	Block2	congruent/STIM_013.jpg
2082.874	0.74	1	congruent	Block2	congruent/STIM_013.jpg
2086.119	1.002	1	congruent	Block2	congruent/STIM_014.jpg
2091.048	0.816	1	congruent	Block2	congruent/STIM_014.jpg
2093.875	0.818	1	congruent	Block2	congruent/STIM_014.jpg
2098.066	1.014	1	congruent	Block2	congruent/STIM_014.jpg
2102.677	0.709	0	congruent	Block2	congruent/STIM_014.jpg
2106.171	1.078	0	congruent	Block2	congruent/STIM_015.jpg
2109.799	0.961	1	congruent	Block2	congruent/STIM_015.jpg
2113.914	1.105	1	congruent	Block2	congruent/STIM_015.jpg
2118.557	0.883	1	congruent	Block2	congruent/STIM_015.jpg
2121.877	0.954	0	congruent	Block2	congruent/STIM_015.jpg
2124.865	1.07	1	congruent	Block2	congruent/STIM_016.jpg
2128.332	0.734	1	congruent	Block2	congruent/STIM_016.jpg
2132.186	1.093	0	congruent	Block2	congruent/STIM_016.jpg
2135.56	0.978	0	congruent	Block2	congruent/STIM_016.jpg
2139.336	0.703	0	congruent	Block2	congruent/STIM_016.jpg
2142.08	0.758	0	congruent	Block2	congruent/STIM_017.jpg
2146.03	1.028	0	congruent	Block2	congruent/STIM_017.jpg
2149.206	0.901	1	congruent	Block2	congruent/STIM_017.jpg
2152.536	0.662	0	congruent	Block2	congruent/STIM_017.jpg
2156.278	0.962	0	congruent	Block2	congruent/STIM_017.jpg
2159.831	0.899	1	congruent	Block2	congruent/STIM_018.jpg
2164.197	0.638	0	congruent	Block2	congruent/STIM_018.jpg
2168.391	0.945	1	congruent	Block2	congruent/STIM_018.jpg
2172.715	0.737	1	congruent	Block2	congruent/STIM_018.jpg
2176.752	0.756	1	congruent	Block2	congruent/STIM_018.jpg
2181.397	1.014	0	congruent	Block2	congruent/STIM_019.jpg
2185.321	1.099	0	congruent	Block2	congruent/STIM_019.jpg
2188.81	0.792	1	congruent	Block2	congruent/STIM_019.jpg
2193.077	1.026	1	congruent	Block2	congruent/STIM_019.jpg
2198.067	0.934	1	congruent	Block2	congruent/STIM_019.jpg
2202.442	1.046	1	congruent	Block2	congruent/STIM_020.jpg
2206.003	1.017	1	congruent	Block2	congruent/STIM_020.jpg
2209.84	0.763	1	congruent	Block2	congruent/STIM_020.jpg
2214.3	1.042	1	congruent	Block2	congruent/STIM_020.jpg
2218.554	0.881	1	congruent	Block2	congruent/STIM_020.jpg
2222.477	1.111	0	congruent	Block2	congruent/STIM_021.jpg
2225.671	1.072	1	congruent	Block2	congruent/STIM_021.jpg
2229.738	0.81	1	congruent	Block2	congruent/STIM_021.jpg
2233.692	1.09	1	congruent	Block2	congruent/STIM_021.jpg
2238.648	0.867	1	congruent	Block2	congruent/STIM_021.jpg
2243.504	1.08	1	congruent	Block2	congruent/STIM_022.jpg
2247.063	0.743	1	congruent	Block2	congruent/STIM_022.jpg
2251.133	0.805	1	congruent	Block2	congruent/STIM_022.jpg
2253.956	0.637	1	congruent	Block2	congruent/STIM_022.jpg
2258.097	0.853	0	congruent	Block2	congruent/STIM_022.jpg
2262.855	0.704	1	congruent	Block2	congruent/STIM_023.jpg
2266.349	0.942	1	congruent	Block2	congruent/STIM_023.jpg
2270.292	0.953	1	congruent	Block2	congruent/STIM_023.jpg
2273.492	1.05	1	congruent	Block2	congruent/STIM_023.jpg
2276.988	0.689	1	congruent	Block2	congruent/STIM_023.jpg
2280.845	0.948	1	congruent	Block2	congruent/STIM_024.jpg
2285.391	0.638	0	congruent	Block2	congruent/STIM_024.jpg
2289.541	0.671	0	congruent	Block2	congruent/STIM_024.jpg
2292.396	0.665	0	congruent	Block2	congruent/STIM_024.jpg
2296.498	0.627	0	congruent	Block2	congruent/STIM_024.jpg
2301.073	0.947	1	congruent	Block2	congruent/STIM_025.jpg
2305.291	0.911	1	congruent	Block2	congruent/STIM_025.jpg
2308.789	0.655	0	congruent	Block2	congruent/STIM_025.jpg
2312.398	1.058	1	congruent	Block2	congruent/STIM_025.jpg
2315.922	1.099	1	congruent	Block2	congruent/STIM_025.jpg
2320.768	1.046	1	congruent	Block2	congruent/STIM_026.jpg
2325.317	1.09	0	congruent	Block2	congruent/STIM_026.jpg
2329.762	0.662	1	congruent	Block2	congruent/STIM_026.jpg
2333.51	0.63	0	congruent	Block2	congruent/STIM_026.jpg
2336.217	0.956	1	congruent	Block2	congruent/STIM_026.jpg
2340.707	0.898	1	congruent	Block2	congruent/STIM_027.jpg
2345.201	0.626	0	congruent	Block2	congruent/STIM_027.jpg
2349.435	1.012	1	congruent	Block2	congruent/STIM_027.jpg
2352.825	0.796	0	congruent	Block2	congruent/STIM_027.jpg
2355.804	0.685	1	congruent	Block2	congruent/STIM_027.jpg
2359.536	0.958	1	congruent	Block2	congruent/STIM_028.jpg
2363.718	1.07	1	congruent	Block2	congruent/STIM_028.jpg
2368.607	0.693	1	congruent	Block2	congruent/STIM_028.jpg
2372.163	0.984	0	congruent	Block2	congruent/STIM_028.jpg
2376.681	0.723	1	congruent	Block2	congruent/STIM_028.jpg
2381.345	0.953	0	congruent	Block2	congruent/STIM_029.jpg
2384.372	0.652	0	congruent	Block2	congruent/STIM_029.jpg
2387.955	0.656	0	congruent	Block2	congruent/STIM_029.jpg
2390.836	1.01	1	congruent	Block2	congruent/STIM_029.jpg
2395.05	0.675	0	congruent	Block2	congruent/STIM_029.jpg
2398.473	0.724	1	incongruent	Block3	incongruent/STIM_000.jpg
2401.557	0.898	0	incongruent	Block3	incongruent/STIM_000.jpg
2405.489	1.024	1	incongruent	Block3	incongruent/STIM_000.jpg
2409.274	1.007	0	incongruent	Block3	incongruent/STIM_000.jpg
2413.404	1.233	0	incongruent	Block3	incongruent/STIM_000.jpg
2417.316	0.631	0	incongruent	Block3	incongruent/STIM_001.jpg
2420.213	1.235	0	incongruent	Block3	incongruent/STIM_001.jpg
2424.761	0.985	1	incongruent	Block3	incongruent/STIM_001.jpg
2428.127	0.783	1	incongruent	Block3	incongruent/STIM_001.jpg
2431.02	1.054	1	incongruent	Block3	incongruent/STIM_001.jpg
2435.218	0.73	1	incongruent	Block3	incongruent/STIM_002.jpg
2438.242	0.761	1	incongruent	Block3	incongruent/STIM_002.jpg
2441.186	0.735	1	incongruent	Block3	incongruent/STIM_002.jpg
2445.5	1.019	1	incongruent	Block3	incongruent/STIM_002.jpg
2449.785	0.628	1	incongruent	Block3	incongruent/STIM_002.jpg
2452.77	1.062	1	incongruent	Block3	incongruent/STIM_003.jpg
2457.559	0.91	1	incongruent	Block3	incongruent/STIM_003.jpg
2461.075	0.751	1	incongruent	Block3	incongruent/STIM_003.jpg
2464.903	0.707	0	incongruent	Block3	incongruent/STIM_003.jpg
2468.383	1.05	1	incongruent	Block3	incongruent/STIM_003.jpg
2472.984	1.062	0	incongruent	Block3	incongruent/STIM_004.jpg
2476.342	1.073	1	incongruent	Block3	incongruent/STIM_004.jpg
2480.247	0.633	1	incongruent	Block3	incongruent/STIM_004.jpg
2482.884	0.893	1	incongruent	Block3	incongruent/STIM_004.jpg
2487.602	1.281	1	incongruent	Block3	incongruent/STIM_004.jpg
2492.873	0.648	1	incongruent	Block3	incongruent/STIM_005.jpg
2496.64	1.23	1	incongruent	Block3	incongruent/STIM_005.jpg
2501.715	1.27	1	incongruent	Block3	incongruent/STIM_005.jpg
2505.986	1.298	0	incongruent	Block3	incongruent/STIM_005.jpg
2509.643	0.931	1	incongruent	Block3	incongruent/STIM_005.jpg
2514.008	1.159	1	incongruent	Block3	incongruent/STIM_006.jpg
2519.121	0.684	0	incongruent	Block3	incongruent/STIM_006.jpg
2521.888	1.13	1	incongruent	Block3	incongruent/STIM_006.jpg
2525.306	1.126	1	incongruent	Block3	incongruent/STIM_006.jpg
2529.001	1.013	1	incongruent	Block3	incongruent/STIM_006.jpg
2532.432	1.028	1	incongruent	Block3	incongruent/STIM_007.jpg
2536.708	0.942	1	incongruent	Block3	incongruent/STIM_007.jpg
2540.56	0.948	1	incongruent	Block3	incongruent/STIM_007.jpg
2544.814	0.84	1	incongruent	Block3	incongruent/STIM_007.jpg
2548.757	0.861	1	incongruent	Block3	incongruent/STIM_007.jpg
2553.346	0.794	0	incongruent	Block3	incongruent/STIM_008.jpg
2556.339	0.98	0	incongruent	Block3	incongruent/STIM_008.jpg
2561.088	0.624	0	incongruent	Block3	incongruent/STIM_008.jpg
2563.974	0.699	1	incongruent	Block3	incongruent/STIM_008.jpg
2568.053	1.226	1	incongruent	Block3	incongruent/STIM_008.jpg
2573.24	1.022	1	incongruent	Block3	incongruent/STIM_009.jpg
2576.557	0.646	0	incongruent	Block3	incongruent/STIM_009.jpg
2580.975	1.069	0	incongruent	Block3	incongruent/STIM_009.jpg
2585.985	0.845	1	incongruent	Block3	incongruent/STIM_009.jpg
2589.797	1.169	1	incongruent	Block3	incongruent/STIM_009.jpg
2593.485	0.862	0	incongruent	Block3	incongruent/STIM_010.jpg
2598.333	0.722	0	incongruent	Block3	incongruent/STIM_010.jpg
2602.339	1.176	1	incongruent	Block3	incongruent/STIM_010.jpg
2606.129	0.628	1	incongruent	Block3	incongruent/STIM_010.jpg
2610.228	1.213	1	incongruent	Block3	incongruent/STIM_010.jpg
2614.249	1.129	1	incongruent	Block3	incongruent/STIM_011.jpg
2619.041	0.994	1	incongruent	Block3	incongruent/STIM_011.jpg
2623.473	0.829	1	incongruent	Block3	incongruent/STIM_011.jpg
2628.034	0.855	1	incongruent	Block3	incongruent/STIM_011.jpg
2631.151	1.129	1	incongruent	Block3	incongruent/STIM_011.jpg
2636.248	1.097	1	incongruent	Block3	incongruent/STIM_012.jpg
2639.404	0.653	1	incongruent	Block3	incongruent/STIM_012.jpg
2642.291	0.633	1	incongruent	Block3	incongruent/STIM_012.jpg
2646.357	1.065	1	incongruent	Block3	incongruent/STIM_012.jpg
2649.457	0.642	1	incongruent	Block3	incongruent/STIM_012.jpg
2652.418	0.816	1	incongruent	Block3	incongruent/STIM_013.jpg
2656.591	0.695	1	incongruent	Block3	incongruent/STIM_013.jpg
2660.756	0.641	1	incongruent	Block3	incongruent/STIM_013.jpg
2665.004	1.137	0	incongruent	Block3	incongruent/STIM_013.jpg
2668.243	0.625	1	incongruent	Block3	incongruent/STIM_013.jpg
2670.994	0.746	1	incongruent	Block3	incongruent/STIM_014.jpg
2675.628	1.073	1	incongruent	Block3	incongruent/STIM_014.jpg
2680.606	0.906	1	incongruent	Block3	incongruent/STIM_014.jpg
2683.919	1.069	1	incongruent	Block3	incongruent/STIM_014.jpg
2687.869	1.077	1	incongruent	Block3	incongruent/STIM_014.jpg
2692.317	1.268	1	incongruent	Block3	incongruent/STIM_015.jpg
2697.354	0.88	0	incongruent	Block3	incongruent/STIM_015.jpg
2700.994	0.624	0	incongruent	Block3	incongruent/STIM_015.jpg
2704.401	0.708	1	incongruent	Block3	incongruent/STIM_015.jpg
2707.844	0.848	1	incongruent	Block3	incongruent/STIM_015.jpg
2711.989	0.798	0	incongruent	Block3	incongruent/STIM_016.jpg
2716.5	0.691	1	incongruent	Block3	incongruent/STIM_016.jpg
2720.258	0.736	0	incongruent	Block3	incongruent/STIM_016.jpg
2723.168	0.646	1	incongruent	Block3	incongruent/STIM_016.jpg
2726.758	0.668	1	incongruent	Block3	incongruent/STIM_016.jpg
2729.525	0.893	0	incongruent	Block3	incongruent/STIM_017.jpg
2733.396	0.891	1	incongruent	Block3	incongruent/STIM_017.jpg
2736.373	1.102	0	incongruent	Block3	incongruent/STIM_017.jpg
2739.712	0.698	1	incongruent	Block3	incongruent/STIM_017.jpg
2742.557	0.9	1	incongruent	Block3	incongruent/STIM_017.jpg
2747.332	1.166	1	incongruent	Block3	incongruent/STIM_018.jpg
2751.874	0.616	1	incongruent	Block3	incongruent/STIM_018.jpg
2755.071	0.972	1	incongruent	Block3	incongruent/STIM_018.jpg
2758.723	0.945	1	incongruent	Block3	incongruent/STIM_018.jpg
2763.255	1.27	0	incongruent	Block3	incongruent/STIM_018.jpg
2768.344	0.699	1	incongruent	Block3	incongruent/STIM_019.jpg
2771.922	0.803	1	incongruent	Block3	incongruent/STIM_019.jpg
2775.982	0.884	1	incongruent	Block3	incongruent/STIM_019.jpg
2779.048	0.69	1	incongruent	Block3	incongruent/STIM_019.jpg
2782.205	0.741	1	incongruent	Block3	incongruent/STIM_019.jpg
2786.662	0.81	1	incongruent	Block3	incongruent/STIM_020.jpg
2791.048	0.818	1	incongruent	Block3	incongruent/STIM_020.jpg
2795.181	1.296	0	incongruent	Block3	incongruent/STIM_020.jpg
2799.537	0.643	1	incongruent	Block3	incongruent/STIM_020.jpg
2802.418	0.957	0	incongruent	Block3	incongruent/STIM_020.jpg
2806.535	0.949	1	incongruent	Block3	incongruent/STIM_021.jpg
2810.865	0.81	1	incongruent	Block3	incongruent/STIM_021.jpg
2814.955	1.25	1	incongruent	Block3	incongruent/STIM_021.jpg
2818.41	1.122	1	incongruent	Block3	incongruent/STIM_021.jpg
2822.978	0.752	1	incongruent	Block3	incongruent/STIM_021.jpg
2826.949	1.197	1	incongruent	Block3	incongruent/STIM_022.jpg
2830.262	1.074	0	incongruent	Block3	incongruent/STIM_022.jpg
2834.259	0.776	1	incongruent	Block3	incongruent/STIM_022.jpg
2838.947	1.212	1	incongruent	Block3	incongruent/STIM_022.jpg
2843.287	0.667	1	incongruent	Block3	incongruent/STIM_022.jpg
2847.657	1.134	1	incongruent	Block3	incongruent/STIM_023.jpg
2852.089	0.775	1	incongruent	Block3	incongruent/STIM_023.jpg
2855.611	0.909	1	incongruent	Block3	incongruent/STIM_023.jpg
2859.913	1.094	1	incongruent	Block3	incongruent/STIM_023.jpg
2863.62	0.928	1	incongruent	Block3	incongruent/STIM_023.jpg
2867.251	1.267	1	incongruent	Block3	incongruent/STIM_024.jpg
2871.948	0.977	1	incongruent	Block3	incongruent/STIM_024.jpg
2874.991	1.052	1	incongruent	Block3	incongruent/STIM_024.jpg
2878.305	0.689	1	incongruent	Block3	incongruent/STIM_024.jpg
2881.261	1.292	1	incongruent	Block3	incongruent/STIM_024.jpg
2885.861	0.742	1	incongruent	Block3	incongruent/STIM_025.jpg
2889.411	1.237	0	incongruent	Block3	incongruent/STIM_025.jpg
2893.743	0.718	1	incongruent	Block3	incongruent/STIM_025.jpg
2897.418	0.903	1	incongruent	Block3	incongruent/STIM_025.jpg
2901.79	0.705	0	incongruent	Block3	incongruent/STIM_025.jpg
2905.372	0.91	0	incongruent	Block3	incongruent/STIM_026.jpg
2910.007	0.684	1	incongruent	Block3	incongruent/STIM_026.jpg
2914.368	0.884	0	incongruent	Block3	incongruent/STIM_026.jpg
2919.047	0.898	1	incongruent	Block3	incongruent/STIM_026.jpg
2922.438	0.807	1	incongruent	Block3	incongruent/STIM_026.jpg
2926.994	0.887	1	incongruent	Block3	incongruent/STIM_027.jpg
2931.071	1.274	1	incongruent	Block3	incongruent/STIM_027.jpg
2935.911	1.055	0	incongruent	Block3	incongruent/STIM_027.jpg
2939.348	1.046	1	incongruent	Block3	incongruent/STIM_027.jpg
2943.944	1.025	0	incongruent	Block3	incongruent/STIM_027.jpg
2948.518	1.076	1	incongruent	Block3	incongruent/STIM_028.jpg
2953.585	0.793	1	incongruent	Block3	incongruent/STIM_028.jpg
2958.024	1.283	1	incongruent	Block3	incongruent/STIM_028.jpg
2961.82	0.62	1	incongruent	Block3	incongruent/STIM_028.jpg
2966.055	0.862	1	incongruent	Block3	incongruent/STIM_028.jpg
2969.651	0.924	1	incongruent	Block3	incongruent/STIM_029.jpg
2973.194	0.612	1	incongruent	Block3	incongruent/STIM_029.jpg
2976.365	0.73	1	incongruent	Block3	incongruent/STIM_029.jpg
2979.573	1.168	1	incongruent	Block3	incongruent/STIM_029.jpg
2983.406	1.234	1	incongruent	Block3	incongruent/STIM_029.jpg
2988.138	0.658	1	congruent	Block3	congruent/STIM_000.jpg
2992.429	1.105	0	congruent	Block3	congruent/STIM_000.jpg
2996.862	0.739	1	congruent	Block3	congruent/STIM_000.jpg
3000.468	1.058	1	congruent	Block3	congruent/STIM_000.jpg
3003.588	1.002	1	congruent	Block3	congruent/STIM_000.jpg
3007.205	1.022	0	congruent	Block3	congruent/STIM_001.jpg
3011.784	0.831	0	congruent	Block3	congruent/STIM_001.jpg
3016.481	0.669	1	congruent	Block3	congruent/STIM_001.jpg
3020.748	0.693	1	congruent	Block3	congruent/STIM_001.jpg
3025.4	1.074	0	congruent	Block3	congruent/STIM_001.jpg
3029.65	1.002	1	congruent	Block3	congruent/STIM_002.jpg
3033.308	0.866	1	congruent	Block3	congruent/STIM_002.jpg
3036.703	0.787	1	congruent	Block3	congruent/STIM_002.jpg
3039.884	0.849	1	congruent	Block3	congruent/STIM_002.jpg
3043.5	0.734	1	congruent	Block3	congruent/STIM_002.jpg
3048.23	0.906	0	congruent	Block3	congruent/STIM_003.jpg
3052.967	1.1	0	congruent	Block3	congruent/STIM_003.jpg
3057.718	0.818	1	congruent	Block3	congruent/STIM_003.jpg
3062.142	0.645	1	congruent	Block3	congruent/STIM_003.jpg
3065.131	0.686	0	congruent	Block3	congruent/STIM_003.jpg
3068.665	0.989	1	congruent	Block3	congruent/STIM_004.jpg
3072.987	0.857	1	congruent	Block3	congruent/STIM_004.jpg
3075.898	1.01	1	congruent	Block3	congruent/STIM_004.jpg
3080.068	0.695	0	congruent	Block3	congruent/STIM_004.jpg
3083.834	0.911	1	congruent	Block3	congruent/STIM_004.jpg
3087.498	0.796	0	congruent	Block3	congruent/STIM_005.jpg
3091.334	0.932	1	congruent	Block3	congruent/STIM_005.jpg
3095.728	0.685	0	congruent	Block3	congruent/STIM_005.jpg
3098.471	0.79	1	congruent	Block3	congruent/STIM_005.jpg
3102.794	0.753	1	congruent	Block3	congruent/STIM_005.jpg
3106.915	0.764	0	congruent	Block3	congruent/STIM_006.jpg
3110.825	0.92	1	congruent	Block3	congruent/STIM_006.jpg
3114.06	0.899	1	congruent	Block3	congruent/STIM_006.jpg
3117.888	0.774	0	congruent	Block3	congruent/STIM_006.jpg
3121.859	1.015	1	congruent	Block3	congruent/STIM_006.jpg
3125.587	0.724	0	congruent	Block3	congruent/STIM_007.jpg
3129.809	0.662	1	congruent	Block3	congruent/STIM_007.jpg
3134.352	1.009	1	congruent	Block3	congruent/STIM_007.jpg
3138.97	0.712	1	congruent	Block3	congruent/STIM_007.jpg
3141.896	0.754	0	congruent	Block3	congruent/STIM_007.jpg
3145.353	1.039	1	congruent	Block3	congruent/STIM_008.jpg
3149.305	0.766	1	congruent	Block3	congruent/STIM_008.jpg
3153.279	0.725	1	congruent	Block3	congruent/STIM_008.jpg
3156.582	0.886	1	congruent	Block3	congruent/STIM_008.jpg
3160.237	1.031	0	congruent	Block3	congruent/STIM_008.jpg
3164.145	0.854	1	congruent	Block3	congruent/STIM_009.jpg
3168.162	1.018	1	congruent	Block3	congruent/STIM_009.jpg
3172.842	0.922	1	congruent	Block3	congruent/STIM_009.jpg
3177.422	0.649	1	congruent	Block3	congruent/STIM_009.jpg
3181.333	0.714	0	congruent	Block3	congruent/STIM_009.jpg
3186.027	0.934	1	congruent	Block3	congruent/STIM_010.jpg
3189.516	0.981	1	congruent	Block3	congruent/STIM_010.jpg
3193.044	0.674	0	congruent	Block3	congruent/STIM_010.jpg
3197.612	1.058	0	congruent	Block3	congruent/STIM_010.jpg
3202.147	0.758	1	congruent	Block3	congruent/STIM_010.jpg
3206.775	0.885	0	congruent	Block3	congruent/STIM_011.jpg
3209.851	0.86	1	congruent	Block3	congruent/STIM_011.jpg
3213.943	0.899	1	congruent	Block3	congruent/STIM_011.jpg
3217.136	0.69	1	congruent	Block3	congruent/STIM_011.jpg
3221.265	1.079	1	congruent	Block3	congruent/STIM_011.jpg
3225.013	1.1	1	congruent	Block3	congruent/STIM_012.jpg
3229.957	0.873	1	congruent	Block3	congruent/STIM_012.jpg
3233.669	0.686	1	congruent	Block3	congruent/STIM_012.jpg
3236.893	1.009	0	congruent	Block3	congruent/STIM_012.jpg
3240.834	0.826	1	congruent	Block3	congruent/STIM_012.jpg
3243.825	0.919	0	congruent	Block3	congruent/STIM_013.jpg
3247.841	1.031	1	congruent	Block3	congruent/STIM_013.jpg
3251.516	1.006	1	congruent	Block3	congruent/STIM_013.jpg
3256.394	0.977	1	congruent	Block3	congruent/STIM_013.jpg
3259.784	0.947	1	congruent	Block3	congruent/STIM_013.jpg
3263.742	0.708	1	congruent	Block3	congruent/STIM_014.jpg
3267.378	1.082	0	congruent	Block3	congruent/STIM_014.jpg
3271.848	0.913	0	congruent	Block3	congruent/STIM_014.jpg
3275.462	0.871	1	congruent	Block3	congruent/STIM_014.jpg
3279.569	1.11	0	congruent	Block3	congruent/STIM_014.jpg
3284.151	0.88	1	congruent	Block3	congruent/STIM_015.jpg
3288.984	0.945	1	congruent	Block3	congruent/STIM_015.jpg
3292.32	0.821	0	congruent	Block3	congruent/STIM_015.jpg
3295.751	0.694	0	congruent	Block3	congruent/STIM_015.jpg
3299.96	0.982	1	congruent	Block3	congruent/STIM_015.jpg
3304.446	1.085	1	congruent	Block3	congruent/STIM_016.jpg
3307.779	1.031	1	congruent	Block3	congruent/STIM_016.jpg
3312.125	0.937	0	congruent	Block3	congruent/STIM_016.jpg
3315.936	0.874	1	congruent	Block3	congruent/STIM_016.jpg
3319.035	1.111	1	congruent	Block3	congruent/STIM_016.jpg
3322.579	1.043	1	congruent	Block3	congruent/STIM_017.jpg
3325.634	0.781	0	congruent	Block3	congruent/STIM_017.jpg
3330.288	0.919	1	congruent	Block3	congruent/STIM_017.jpg
3333.647	0.825	1	congruent	Block3	congruent/STIM_017.jpg
3337.266	0.769	1	congruent	Block3	congruent/STIM_017.jpg
3341.013	0.83	0	congruent	Block3	congruent/STIM_018.jpg
3345.024	0.923	1	congruent	Block3	congruent/STIM_018.jpg
3349.199	0.934	1	congruent	Block3	congruent/STIM_018.jpg
3353.577	1.061	1	congruent	Block3	congruent/STIM_018.jpg
3358.264	1.022	1	congruent	Block3	congruent/STIM_018.jpg
3361.608	0.98	1	congruent	Block3	congruent/STIM_019.jpg
3366.228	1.008	0	congruent	Block3	congruent/STIM_019.jpg
3370.673	0.867	0	congruent	Block3	congruent/STIM_019.jpg
3374.374	0.79	1	congruent	Block3	congruent/STIM_019.jpg
3378.746	0.937	1	congruent	Block3	congruent/STIM_019.jpg
3381.738	0.652	1	congruent	Block3	congruent/STIM_020.jpg
3386.209	1.068	0	congruent	Block3	congruent/STIM_020.jpg
3390.697	1.063	1	congruent	Block3	congruent/STIM_020.jpg
3395.54	0.633	1	congruent	Block3	congruent/STIM_020.jpg
3399.776	1.094	0	congruent	Block3	congruent/STIM_020.jpg
3404.538	0.768	1	congruent	Block3	congruent/STIM_021.jpg
3408.95	1.01	0	congruent	Block3	congruent/STIM_021.jpg
3413.957	0.79	1	congruent	Block3	congruent/STIM_021.jpg
3418.289	0.89	1	congruent	Block3	congruent/STIM_021.jpg
3422.269	0.74	0	congruent	Block3	congruent/STIM_021.jpg
3426.971	0.674	1	congruent	Block3	congruent/STIM_022.jpg
3431.225	1.104	1	congruent	Block3	congruent/STIM_022.jpg
3434.658	0.996	1	congruent	Block3	congruent/STIM_022.jpg
3438.467	0.97	0	congruent	Block3	congruent/STIM_022.jpg
3441.743	0.977	1	congruent	Block3	congruent/STIM_022.jpg
3444.815	0.639	0	congruent	Block3	congruent/STIM_023.jpg
3449.412	0.981	1	congruent	Block3	congruent/STIM_023.jpg
3452.426	0.622	1	congruent	Block3	congruent/STIM_023.jpg
3456.871	1.089	1	congruent	Block3	congruent/STIM_023.jpg
3460.167	0.986	0	congruent	Block3	congruent/STIM_023.jpg
3464.142	0.641	1	congruent	Block3	congruent/STIM_024.jpg
3467.001	0.675	1	congruent	Block3	congruent/STIM_024.jpg
3470.696	1.103	1	congruent	Block3	congruent/STIM_024.jpg
3474.727	1.045	1	congruent	Block3	congruent/STIM_024.jpg
3479.57	0.721	1	congruent	Block3	congruent/STIM_024.jpg
3483.842	1.031	0	congruent	Block3	congruent/STIM_025.jpg
3488.451	0.87	0	congruent	Block3	congruent/STIM_025.jpg
3491.976	0.856	1	congruent	Block3	congruent/STIM_025.jpg
3494.924	0.985	0	congruent	Block3	congruent/STIM_025.jpg
3498.976	0.659	1	congruent	Block3	congruent/STIM_025.jpg
3502.891	0.976	0	congruent	Block3	congruent/STIM_026.jpg
3506.31	0.785	1	congruent	Block3	congruent/STIM_026.jpg
3511.094	0.977	0	congruent	Block3	congruent/STIM_026.jpg
3515.276	0.741	1	congruent	Block3	congruent/STIM_026.jpg
3518.182	0.662	1	congruent	Block3	congruent/STIM_026.jpg
3522.493	1.103	1	congruent	Block3	congruent/STIM_027.jpg
3526.954	0.845	0	congruent	Block3	congruent/STIM_027.jpg
3529.912	0.978	0	congruent	Block3	congruent/STIM_027.jpg
3534.554	0.725	0	congruent	Block3	congruent/STIM_027.jpg
3538.496	1.065	1	congruent	Block3	congruent/STIM_027.jpg
3543.261	0.66	1	congruent	Block3	congruent/STIM_028.jpg
3547.908	1.074	1	congruent	Block3	congruent/STIM_028.jpg
3551.844	0.947	1	congruent	Block3	congruent/STIM_028.jpg
3556.488	1.024	1	congruent	Block3	congruent/STIM_028.jpg
3559.525	0.956	1	congruent	Block3	congruent/STIM_028.jpg
3564.355	0.983	0	congruent	Block3	congruent/STIM_029.jpg
3569.122	0.848	0	congruent	Block3	congruent/STIM_029.jpg
3573.363	1.089	1	congruent	Block3	congruent/STIM_029.jpg
3578.299	0.946	0	congruent	Block3	congruent/STIM_029.jpg
3582.641	1.073	1	congruent	Block3	congruent/STIM_029.jpg
