onset	duration	accuracy_binary	trial_type	learning_stage	stimulus
0.0	1.097	1	study	Phase1	study/STIM_000.jpg
4.27	1.755	1	study	Phase1	study/STIM_000.jpg
8.312	1.625	1	study	Phase1	study/STIM_000.jpg
13.815	1.038	0	study	Phase1	study/STIM_001.jpg
18.686	1.561	1	study	Phase1	study/STIM_001.jpg
22.839	0.792	1	study	Phase1	study/STIM_001.jpg
27.612	1.872	1	study	Phase1	study/STIM_002.jpg
31.86	1.158	1	study	Phase1	study/STIM_002.jpg
36.666	0.972	1	study	Phase1	study/STIM_002.jpg
40.642	1.331	1	study	Phase1	study/STIM_003.jpg
44.559	1.387	1	study	Phase1	study/STIM_003.jpg
48.071	1.744	1	study	Phase1	study/STIM_003.jpg
52.536	1.393	0	study	Phase1	study/STIM_004.jpg
57.026	1.74	1	study	Phase1	study/STIM_004.jpg
61.417	1.341	1	study	Phase1	study/STIM_004.jpg
65.264	1.457	1	study	Phase1	study/STIM_005.jpg
69.477	0.931	1	study	Phase1	study/STIM_005.jpg
72.73	1.087	1	study	Phase1	study/STIM_005.jpg
76.678	1.882	1	study	Phase1	study/STIM_006.jpg
82.509	1.448	1	study	Phase1	study/STIM_006.jpg
87.626	1.519	1	study	Phase1	study/STIM_006.jpg
91.981	1.499	1	study	Phase1	study/STIM_007.jpg
96.716	1.369	1	study	Phase1	study/STIM_007.jpg
101.891	0.92	1	study	Phase1	study/STIM_007.jpg
106.711	1.884	1	study	Phase1	study/STIM_008.jpg
110.691	1.096	1	study	Phase1	study/STIM_008.jpg
115.642	1.528	1	study	Phase1	study/STIM_008.jpg
121.129	1.091	1	study	Phase1	study/STIM_009.jpg
125.438	1.188	1	study	Phase1	study/STIM_009.jpg
129.097	1.458	1	study	Phase1	study/STIM_009.jpg
132.602	1.92	0	study	Phase1	study/STIM_010.jpg
137.933	1.038	1	study	Phase1	study/STIM_010.jpg
142.776	1.373	1	study	Phase1	study/STIM_010.jpg
147.191	1.136	1	study	Phase1	study/STIM_011.jpg
150.755	0.998	1	study	Phase1	study/STIM_011.jpg
154.268	1.641	1	study	Phase1	study/STIM_011.jpg
158.673	1.156	1	study	Phase1	study/STIM_012.jpg
163.024	1.098	1	study	Phase1	study/STIM_012.jpg
167.564	1.687	0	study	Phase1	study/STIM_012.jpg
171.507	1.89	1	study	Phase1	study/STIM_013.jpg
176.609	1.442	1	study	Phase1	study/STIM_013.jpg
180.561	1.394	1	study	Phase1	study/STIM_013.jpg
185.789	0.956	1	study	Phase1	study/STIM_014.jpg
190.298	1.641	1	study	Phase1	study/STIM_014.jpg
194.309	1.152	0	study	Phase1	study/STIM_014.jpg
198.921	1.612	1	study	Phase1	study/STIM_015.jpg
203.393	1.497	1	study	Phase1	study/STIM_015.jpg
208.807	0.86	1	study	Phase1	study/STIM_015.jpg
213.586	1.464	1	study	Phase1	study/STIM_016.jpg
218.876	1.284	1	study	Phase1	study/STIM_016.jpg
222.494	1.683	0	study	Phase1	study/STIM_016.jpg
226.538	1.491	1	study	Phase1	study/STIM_017.jpg
230.323	1.023	1	study	Phase1	study/STIM_017.jpg
234.475	1.569	1	study	Phase1	study/STIM_017.jpg
239.876	1.446	0	study	Phase1	study/STIM_018.jpg
244.148	1.795	1	study	Phase1	study/STIM_018.jpg
249.692	0.947	1	study	Phase1	study/STIM_018.jpg
253.501	1.904	1	study	Phase1	study/STIM_019.jpg
258.724	1.534	1	study	Phase1	study/STIM_019.jpg
263.464	1.332	0	study	Phase1	study/STIM_019.jpg
267.807	1.896	0	study	Phase1	study/STIM_020.jpg
272.537	1.181	1	study	Phase1	study/STIM_020.jpg
277.666	1.367	1	study	Phase1	study/STIM_020.jpg
282.84	0.884	1	study	Phase1	study/STIM_021.jpg
285.773	1.842	1	study	Phase1	study/STIM_021.jpg
290.657	1.202	1	study	Phase1	study/STIM_021.jpg
295.858	0.952	1	study	Phase1	study/STIM_022.jpg
299.546	0.978	1	study	Phase1	study/STIM_022.jpg
304.52	1.142	1	study	Phase1	study/STIM_022.jpg
309.355	1.829	1	study	Phase1	study/STIM_023.jpg
313.781	1.508	1	study	Phase1	study/STIM_023.jpg
318.256	0.929	1	study	Phase1	study/STIM_023.jpg
321.78	1.639	1	study	Phase1	study/STIM_024.jpg
327.216	1.857	1	study	Phase1	study/STIM_024.jpg
331.869	1.087	1	study	Phase1	study/STIM_024.jpg
335.487	1.297	0	study	Phase1	study/STIM_025.jpg
339.343	1.612	1	study	Phase1	study/STIM_025.jpg
343.371	0.896	1	study	Phase1	study/STIM_025.jpg
347.554	1.155	0	study	Phase1	study/STIM_026.jpg
352.614	1.409	1	study	Phase1	study/STIM_026.jpg
356.843	1.339	1	study	Phase1	study/STIM_026.jpg
360.689	1.91	1	study	Phase1	study/STIM_027.jpg
364.821	1.515	1	study	Phase1	study/STIM_027.jpg
369.225	1.51	1	study	Phase1	study/STIM_027.jpg
372.762	1.212	1	study	Phase1	study/STIM_028.jpg
377.827	1.661	1	study	Phase1	study/STIM_028.jpg
383.258	1.258	1	study	Phase1	study/STIM_028.jpg
387.862	1.452	1	study	Phase1	study/STIM_029.jpg
392.676	1.448	0	study	Phase1	study/STIM_029.jpg
396.924	1.519	1	study	Phase1	study/STIM_029.jpg
401.895	1.219	1	test	Phase1	test/STIM_000.jpg
405.64	1.056	1	test	Phase1	test/STIM_000.jpg
409.267	0.981	1	test	Phase1	test/STIM_000.jpg
412.623	0.779	1	test	Phase1	test/STIM_001.jpg
416.761	0.722	1	test	Phase1	test/STIM_001.jpg
419.777	1.349	1	test	Phase1	test/STIM_001.jpg
424.969	1.168	1	test	Phase1	test/STIM_002.jpg
429.015	1.118	1	test	Phase1	test/STIM_002.jpg
432.139	0.679	1	test	Phase1	test/STIM_002.jpg
435.84	0.988	1	test	Phase1	test/STIM_003.jpg
440.429	1.289	1	test	Phase1	test/STIM_003.jpg
444.833	0.924	1	test	Phase1	test/STIM_003.jpg
448.439	0.906	1	test	Phase1	test/STIM_004.jpg
451.495	1.144	1	test	Phase1	test/STIM_004.jpg
455.563	0.72	1	test	Phase1	test/STIM_004.jpg
459.374	0.686	1	test	Phase1	test/STIM_005.jpg
464.047	1.116	1	test	Phase1	test/STIM_005.jpg
468.041	1.17	1	test	Phase1	test/STIM_005.jpg
472.86	1.204	1	test	Phase1	test/STIM_006.jpg
477.177	1.03	1	test	Phase1	test/STIM_006.jpg
480.991	0.862	1	test	Phase1	test/STIM_006.jpg
485.195	1.349	1	test	Phase1	test/STIM_007.jpg
489.705	0.73	1	test	Phase1	test/STIM_007.jpg
493.931	0.851	1	test	Phase1	test/STIM_007.jpg
497.726	1.339	1	test	Phase1	test/STIM_008.jpg
502.667	1.204	1	test	Phase1	test/STIM_008.jpg
506.998	1.207	1	test	Phase1	test/STIM_008.jpg
511.269	0.891	1	test	Phase1	test/STIM_009.jpg
515.24	1.135	1	test	Phase1	test/STIM_009.jpg
518.651	1.082	0	test	Phase1	test/STIM_009.jpg
522.73	1.188	1	test	Phase1	test/STIM_010.jpg
526.203	1.227	1	test	Phase1	test/STIM_010.jpg
530.788	0.769	1	test	Phase1	test/STIM_010.jpg
535.233	0.74	1	test	Phase1	test/STIM_011.jpg
538.878	1.29	1	test	Phase1	test/STIM_011.jpg
542.487	1.176	1	test	Phase1	test/STIM_011.jpg
545.934	1.14	1	test	Phase1	test/STIM_012.jpg
550.004	1.146	0	test	Phase1	test/STIM_012.jpg
554.544	1.273	1	test	Phase1	test/STIM_012.jpg
558.937	0.87	1	test	Phase1	test/STIM_013.jpg
562.582	0.831	1	test	Phase1	test/STIM_013.jpg
565.459	1.123	1	test	Phase1	test/STIM_013.jpg
570.58	1.365	1	test	Phase1	test/STIM_014.jpg
574.271	0.764	1	test	Phase1	test/STIM_014.jpg
577.127	1.377	1	test	Phase1	test/STIM_014.jpg
581.286	1.344	1	test	Phase1	test/STIM_015.jpg
585.561	1.033	1	test	Phase1	test/STIM_015.jpg
589.409	0.907	1	test	Phase1	test/STIM_015.jpg
593.507	1.028	1	test	Phase1	test/STIM_016.jpg
596.672	1.05	1	test	Phase1	test/STIM_016.jpg
601.037	1.345	1	test	Phase1	test/STIM_016.jpg
604.663	1.268	1	test	Phase1	test/STIM_017.jpg
609.587	1.305	1	test	Phase1	test/STIM_017.jpg
613.418	1.082	1	test	Phase1	test/STIM_017.jpg
617.2	0.711	1	test	Phase1	test/STIM_018.jpg
620.529	1.257	1	test	Phase1	test/STIM_018.jpg
625.724	1.144	1	test	Phase1	test/STIM_018.jpg
629.487	1.319	1	test	Phase1	test/STIM_019.jpg
633.02	0.884	1	test	Phase1	test/STIM_019.jpg
637.34	0.788	1	test	Phase1	test/STIM_019.jpg
640.282	1.309	1	test	Phase1	test/STIM_020.jpg
644.466	0.988	1	test	Phase1	test/STIM_020.jpg
648.222	1.354	0	test	Phase1	test/STIM_020.jpg
653.106	0.694	1	test	Phase1	test/STIM_021.jpg
657.494	0.999	1	test	Phase1	test/STIM_021.jpg
660.701	1.182	1	test	Phase1	test/STIM_021.jpg
665.494	0.995	1	test	Phase1	test/STIM_022.jpg
669.638	1.286	1	test	Phase1	test/STIM_022.jpg
673.344	1.237	1	test	Phase1	test/STIM_022.jpg
677.934	0.839	1	test	Phase1	test/STIM_023.jpg
681.29	0.71	1	test	Phase1	test/STIM_023.jpg
685.991	0.838	1	test	Phase1	test/STIM_023.jpg
690.222	1.12	1	test	Phase1	test/STIM_024.jpg
694.649	0.829	1	test	Phase1	test/STIM_024.jpg
697.832	0.852	1	test	Phase1	test/STIM_024.jpg
702.141	1.259	0	test	Phase1	test/STIM_025.jpg
706.164	1.084	1	test	Phase1	test/STIM_025.jpg
710.946	0.765	1	test	Phase1	test/STIM_025.jpg
714.817	1.31	1	test	Phase1	test/STIM_026.jpg
718.695	1.308	1	test	Phase1	test/STIM_026.jpg
723.494	0.805	1	test	Phase1	test/STIM_026.jpg
727.977	1.262	1	test	Phase1	test/STIM_027.jpg
731.307	0.76	1	test	Phase1	test/STIM_027.jpg
734.154	0.707	1	test	Phase1	test/STIM_027.jpg
737.382	1.233	1	test	Phase1	test/STIM_028.jpg
742.582	0.868	1	test	Phase1	test/STIM_028.jpg
745.946	1.12	1	test	Phase1	test/STIM_028.jpg
749.254	0.734	1	test	Phase1	test/STIM_029.jpg
752.646	0.994	1	test	Phase1	test/STIM_029.jpg
756.04	0.712	0	test	Phase1	test/STIM_029.jpg
759.08	0.88	1	study	Phase2	study/STIM_000.jpg
763.3	0.915	0	study	Phase2	study/STIM_000.jpg
766.939	1.426	1	study	Phase2	study/STIM_000.jpg
771.819	1.537	1	study	Phase2	study/STIM_001.jpg
777.056	1.033	1	study	Phase2	study/STIM_001.jpg
781.678	0.856	1	study	Phase2	study/STIM_001.jpg
784.688	1.338	1	study	Phase2	study/STIM_002.jpg
788.939	1.067	1	study	Phase2	study/STIM_002.jpg
793.445	0.953	1	study	Phase2	study/STIM_002.jpg
797.402	1.136	1	study	Phase2	study/STIM_003.jpg
801.969	0.95	1	study	Phase2	study/STIM_003.jpg
805.426	1.036	1	study	Phase2	study/STIM_003.jpg
809.2	1.286	1	study	Phase2	study/STIM_004.jpg
812.511	1.471	1	study	Phase2	study/STIM_004.jpg
817.269	0.758	1	study	Phase2	study/STIM_004.jpg
821.384	0.892	1	study	Phase2	study/STIM_005.jpg
825.791	1.17	1	study	Phase2	study/STIM_005.jpg
830.692	0.714	1	study	Phase2	study/STIM_005.jpg
834.803	0.982	1	study	Phase2	study/STIM_006.jpg
838.863	1.104	1	study	Phase2	study/STIM_006.jpg
843.442	0.855	1	study	Phase2	study/STIM_006.jpg
848.027	1.246	1	study	Phase2	study/STIM_007.jpg
851.347	0.734	1	study	Phase2	study/STIM_007.jpg
854.798	0.808	1	study	Phase2	study/STIM_007.jpg
858.16	1.534	1	study	Phase2	study/STIM_008.jpg
862.45	1.485	1	study	Phase2	study/STIM_008.jpg
867.575	1.257	1	study	Phase2	study/STIM_008.jpg
871.565	1.139	1	study	Phase2	study/STIM_009.jpg
875.05	1.428	1	study	Phase2	study/STIM_009.jpg
878.674	0.676	1	study	Phase2	study/STIM_009.jpg
882.87	0.846	1	study	Phase2	study/STIM_010.jpg
885.843	1.081	1	study	Phase2	study/STIM_010.jpg
890.181	1.085	1	study	Phase2	study/STIM_010.jpg
894.328	1.546	1	study	Phase2	study/STIM_011.jpg
898.334	0.935	1	study	Phase2	study/STIM_011.jpg
901.633	1.122	1	study	Phase2	study/STIM_011.jpg
904.876	1.381	0	study	Phase2	study/STIM_012.jpg
908.855	1.35	1	study	Phase2	study/STIM_012.jpg
913.268	1.142	1	study	Phase2	study/STIM_012.jpg
916.96	1.311	1	study	Phase2	study/STIM_013.jpg
921.591	1.452	1	study	Phase2	study/STIM_013.jpg
925.183	1.206	1	study	Phase2	study/STIM_013.jpg
929.288	1.113	1	study	Phase2	study/STIM_014.jpg
933.504	1.132	1	study	Phase2	study/STIM_014.jpg
936.983	1.218	1	study	Phase2	study/STIM_014.jpg
942.003	1.626	1	study	Phase2	study/STIM_015.jpg
946.497	1.144	1	study	Phase2	study/STIM_015.jpg
949.675	0.801	1	study	Phase2	study/STIM_015.jpg
952.867	0.958	1	study	Phase2	study/STIM_016.jpg
956.414	0.956	1	study	Phase2	study/STIM_016.jpg
960.121	1.064	1	study	Phase2	study/STIM_016.jpg
964.921	0.818	1	study	Phase2	study/STIM_017.jpg
968.913	1.083	1	study	Phase2	study/STIM_017.jpg
972.815	1.452	1	study	Phase2	study/STIM_017.jpg
976.562	0.763	1	study	Phase2	study/STIM_018.jpg
979.351	1.1	1	study	Phase2	study/STIM_018.jpg
982.645	0.958	1	study	Phase2	study/STIM_018.jpg
986.328	1.424	0	study	Phase2	study/STIM_019.jpg
991.311	1.438	1	study	Phase2	study/STIM_019.jpg
996.523	0.971	1	study	Phase2	study/STIM_019.jpg
1000.272	0.781	1	study	Phase2	study/STIM_020.jpg
1003.937	1.57	1	study	Phase2	study/STIM_020.jpg
1009.298	1.414	1	study	Phase2	study/STIM_020.jpg
1013.636	1.214	1	study	Phase2	study/STIM_021.jpg
1017.098	0.99	1	study	Phase2	study/STIM_021.jpg
1021.845	0.716	1	study	Phase2	study/STIM_021.jpg
1025.44	1.412	1	study	Phase2	study/STIM_022.jpg
1029.531	0.901	1	study	Phase2	study/STIM_022.jpg
1034.427	1.258	1	study	Phase2	study/STIM_022.jpg
1038.944	1.089	1	study	Phase2	study/STIM_023.jpg
1042.29	1.13	1	study	Phase2	study/STIM_023.jpg
1047.234	1.414	1	study	Phase2	study/STIM_023.jpg
1051.912	1.488	1	study	Phase2	study/STIM_024.jpg
1055.591	0.906	1	study	Phase2	study/STIM_024.jpg
1059.823	0.712	1	study	Phase2	study/STIM_024.jpg
1062.752	1.114	0	study	Phase2	study/STIM_025.jpg
1066.77	1.325	1	study	Phase2	study/STIM_025.jpg
1070.632	1.185	1	study	Phase2	study/STIM_025.jpg
1075.058	1.569	1	study	Phase2	study/STIM_026.jpg
1080.395	1.554	1	study	Phase2	study/STIM_026.jpg
1085.724	1.062	1	study	Phase2	study/STIM_026.jpg
1090.785	0.837	1	study	Phase2	study/STIM_027.jpg
1094.484	0.721	1	study	Phase2	study/STIM_027.jpg
1098.094	1.315	1	study	Phase2	study/STIM_027.jpg
1103.356	1.371	1	study	Phase2	study/STIM_028.jpg
1106.737	1.223	1	study	Phase2	study/STIM_028.jpg
1111.008	0.949	1	study	Phase2	study/STIM_028.jpg
1115.924	1.477	1	study	Phase2	study/STIM_029.jpg
1119.405	0.977	1	study	Phase2	study/STIM_029.jpg
1123.118	0.933	1	study	Phase2	study/STIM_029.jpg
1126.947	1.317	1	test	Phase2	test/STIM_000.jpg
1131.581	1.193	1	test	Phase2	test/STIM_000.jpg
1135.606	0.884	1	test	Phase2	test/STIM_000.jpg
1139.94	0.789	1	test	Phase2	test/STIM_001.jpg
1143.256	0.848	1	test	Phase2	test/STIM_001.jpg
1147.166	1.078	1	test	Phase2	test/STIM_001.jpg
1152.233	1.295	1	test	Phase2	test/STIM_002.jpg
1155.661	1.191	1	test	Phase2	test/STIM_002.jpg
1160.207	1.178	1	test	Phase2	test/STIM_002.jpg
1164.043	0.672	1	test	Phase2	test/STIM_003.jpg
1168.327	1.371	1	test	Phase2	test/STIM_003.jpg
1172.699	1.232	1	test	Phase2	test/STIM_003.jpg
1177.484	1.155	1	test	Phase2	test/STIM_004.jpg
1180.921	1.141	1	test	Phase2	test/STIM_004.jpg
1185.549	0.916	1	test	Phase2	test/STIM_004.jpg
1190.392	0.713	1	test	Phase2	test/STIM_005.jpg
1193.713	1.318	1	test	Phase2	test/STIM_005.jpg
1198.856	0.985	1	test	Phase2	test/STIM_005.jpg
1202.318	1.016	1	test	Phase2	test/STIM_006.jpg
1205.571	1.217	1	test	Phase2	test/STIM_006.jpg
1209.814	1.102	1	test	Phase2	test/STIM_006.jpg
1213.109	0.672	1	test	Phase2	test/STIM_007.jpg
1216.319	1.144	1	test	Phase2	test/STIM_007.jpg
1220.471	1.133	1	test	Phase2	test/STIM_007.jpg
1223.613	1.304	1	test	Phase2	test/STIM_008.jpg
1227.737	0.743	1	test	Phase2	test/STIM_008.jpg
1231.131	0.712	0	test	Phase2	test/STIM_008.jpg
1234.318	1.17	1	test	Phase2	test/STIM_009.jpg
1237.745	0.765	1	test	Phase2	test/STIM_009.jpg
1242.424	1.082	1	test	Phase2	test/STIM_009.jpg
1246.657	0.738	1	test	Phase2	test/STIM_010.jpg
1249.54	1.241	1	test	Phase2	test/STIM_010.jpg
1253.419	0.79	1	test	Phase2	test/STIM_010.jpg
1257.798	1.387	1	test	Phase2	test/STIM_011.jpg
1261.857	1.037	1	test	Phase2	test/STIM_011.jpg
1266.47	0.715	1	test	Phase2	test/STIM_011.jpg
1271.12	1.261	1	test	Phase2	test/STIM_012.jpg
1274.83	0.999	1	test	Phase2	test/STIM_012.jpg
1278.94	0.717	1	test	Phase2	test/STIM_012.jpg
1283.335	0.816	1	test	Phase2	test/STIM_013.jpg
1287.732	1.149	1	test	Phase2	test/STIM_013.jpg
1292.015	0.987	1	test	Phase2	test/STIM_013.jpg
1296.562	0.974	1	test	Phase2	test/STIM_014.jpg
1301.523	0.894	1	test	Phase2	test/STIM_014.jpg
1304.508	0.822	1	test	Phase2	test/STIM_014.jpg
1308.044	1.09	1	test	Phase2	test/STIM_015.jpg
1312.939	0.78	1	test	Phase2	test/STIM_015.jpg
1316.828	1.01	1	test	Phase2	test/STIM_015.jpg
1320.864	1.08	1	test	Phase2	test/STIM_016.jpg
1325.665	1.101	1	test	Phase2	test/STIM_016.jpg
1330.683	1.136	1	test	Phase2	test/STIM_016.jpg
1333.929	1.346	1	test	Phase2	test/STIM_017.jpg
1338.646	0.742	1	test	Phase2	test/STIM_017.jpg
1341.542	0.701	1	test	Phase2	test/STIM_017.jpg
1344.289	0.78	1	test	Phase2	test/STIM_018.jpg
1348.739	0.796	1	test	Phase2	test/STIM_018.jpg
1352.496	1.393	1	test	Phase2	test/STIM_018.jpg
1355.996	1.306	1	test	Phase2	test/STIM_019.jpg
1360.217	1.051	1	test	Phase2	test/STIM_019.jpg
1363.42	1.081	1	test	Phase2	test/STIM_019.jpg
1367.181	0.925	1	test	Phase2	test/STIM_020.jpg
1370.643	1.007	0	test	Phase2	test/STIM_020.jpg
1375.089	1.056	1	test	Phase2	test/STIM_020.jpg
1378.943	1.209	1	test	Phase2	test/STIM_021.jpg
1382.598	1.285	1	test	Phase2	test/STIM_021.jpg
1387.138	1.058	1	test	Phase2	test/STIM_021.jpg
1391.933	0.732	1	test	Phase2	test/STIM_022.jpg
1396.37	1.115	1	test	Phase2	test/STIM_022.jpg
1401.068	1.417	1	test	Phase2	test/STIM_022.jpg
1404.587	1.013	0	test	Phase2	test/STIM_023.jpg
1408.934	1.037	1	test	Phase2	test/STIM_023.jpg
1412.681	0.82	1	test	Phase2	test/STIM_023.jpg
1416.274	1.181	0	test	Phase2	test/STIM_024.jpg
1420.108	0.984	1	test	Phase2	test/STIM_024.jpg
1423.274	0.884	0	test	Phase2	test/STIM_024.jpg
1428.107	0.97	1	test	Phase2	test/STIM_025.jpg
1431.474	0.668	1	test	Phase2	test/STIM_025.jpg
1435.419	1.189	1	test	Phase2	test/STIM_025.jpg
1440.329	0.747	1	test	Phase2	test/STIM_026.jpg
1444.651	0.992	1	test	Phase2	test/STIM_026.jpg
1449.531	0.767	1	test	Phase2	test/STIM_026.jpg
1452.432	0.968	1	test	Phase2	test/STIM_027.jpg
1456.321	0.684	0	test	Phase2	test/STIM_027.jpg
1459.177	0.971	1	test	Phase2	test/STIM_027.jpg
1463.469	1.21	1	test	Phase2	test/STIM_028.jpg
1467.21	0.702	1	test	Phase2	test/STIM_028.jpg
1470.148	0.795	1	test	Phase2	test/STIM_028.jpg
1473.577	1.286	1	test	Phase2	test/STIM_029.jpg
1478.195	1.399	1	test	Phase2	test/STIM_029.jpg
1481.954	0.934	1	test	Phase2	test/STIM_029.jpg
1486.843	1.164	1	study	Phase3	study/STIM_000.jpg
1490.272	0.994	1	study	Phase3	study/STIM_000.jpg
1493.721	1.101	1	study	Phase3	study/STIM_000.jpg
1497.064	0.732	1	study	Phase3	study/STIM_001.jpg
1500.235	1.295	1	study	Phase3	study/STIM_001.jpg
1504.359	1.184	1	study	Phase3	study/STIM_001.jpg
1509.127	0.754	1	study	Phase3	study/STIM_002.jpg
1512.037	0.8	1	study	Phase3	study/STIM_002.jpg
1516.434	0.798	1	study	Phase3	study/STIM_002.jpg
1520.744	1.134	1	study	Phase3	study/STIM_003.jpg
1524.032	1.314	1	study	Phase3	study/STIM_003.jpg
1528.759	0.91	1	study	Phase3	study/STIM_003.jpg
1532.73	0.674	1	study	Phase3	study/STIM_004.jpg
1536.713	1.199	1	study	Phase3	study/STIM_004.jpg
1541.068	1.075	1	study	Phase3	study/STIM_004.jpg
1544.593	1.137	1	study	Phase3	study/STIM_005.jpg
1548.721	1.029	1	study	Phase3	study/STIM_005.jpg
1551.824	1.197	1	study	Phase3	study/STIM_005.jpg
1555.982	1.257	1	study	Phase3	study/STIM_006.jpg
1561.1	1.004	1	study	Phase3	study/STIM_006.jpg
1565.844	1.228	1	study	Phase3	study/STIM_006.jpg
1570.756	0.621	1	study	Phase3	study/STIM_007.jpg
1574.753	0.905	1	study	Phase3	study/STIM_007.jpg
1577.912	0.77	1	study	Phase3	study/STIM_007.jpg
1582.444	0.714	1	study	Phase3	study/STIM_008.jpg
1586.664	1.185	1	study	Phase3	study/STIM_008.jpg
1591.731	0.984	0	study	Phase3	study/STIM_008.jpg
1595.954	1.18	1	study	Phase3	study/STIM_009.jpg
1599.469	0.698	1	study	Phase3	study/STIM_009.jpg
1602.92	1.05	1	study	Phase3	study/STIM_009.jpg
1607.543	1.005	1	study	Phase3	study/STIM_010.jpg
1612.099	0.933	1	study	Phase3	study/STIM_010.jpg
1616.681	1.187	1	study	Phase3	study/STIM_010.jpg
1620.594	1.266	1	study	Phase3	study/STIM_011.jpg
1625.423	0.924	1	study	Phase3	study/STIM_011.jpg
1629.452	1.018	0	study	Phase3	study/STIM_011.jpg
1634.083	1.146	1	study	Phase3	study/STIM_012.jpg
1637.871	1.263	1	study	Phase3	study/STIM_012.jpg
1642.701	1.378	1	study	Phase3	study/STIM_012.jpg
1646.636	1.278	1	study	Phase3	study/STIM_013.jpg
1650.435	0.671	1	study	Phase3	study/STIM_013.jpg
1654.83	0.791	1	study	Phase3	study/STIM_013.jpg
1658.327	1.162	1	study	Phase3	study/STIM_014.jpg
1662.107	0.989	1	study	Phase3	study/STIM_014.jpg
1666.078	1.374	1	study	Phase3	study/STIM_014.jpg
1669.592	1.117	1	study	Phase3	study/STIM_015.jpg
1674.361	0.69	1	study	Phase3	study/STIM_015.jpg
1678.633	1.266	1	study	Phase3	study/STIM_015.jpg
1681.939	1.3	1	study	Phase3	study/STIM_016.jpg
1685.318	1.242	1	study	Phase3	study/STIM_016.jpg
1688.94	1.229	1	study	Phase3	study/STIM_016.jpg
1693.385	1.246	1	study	Phase3	study/STIM_017.jpg
1696.852	1.354	1	study	Phase3	study/STIM_017.jpg
1702.194	0.619	1	study	Phase3	study/STIM_017.jpg
1706.223	1.31	1	study	Phase3	study/STIM_018.jpg
1710.044	0.801	0	study	Phase3	study/STIM_018.jpg
1713.065	1.128	1	study	Phase3	study/STIM_018.jpg
1717.478	1.023	1	study	Phase3	study/STIM_019.jpg
1721.686	1.159	1	study	Phase3	study/STIM_019.jpg
1726.242	1.155	1	study	Phase3	study/STIM_019.jpg
1731.196	1.246	1	study	Phase3	study/STIM_020.jpg
1735.78	0.963	1	study	Phase3	study/STIM_020.jpg
1740.116	1.162	1	study	Phase3	study/STIM_020.jpg
1745.098	1.08	1	study	Phase3	study/STIM_021.jpg
1749.707	0.77	1	study	Phase3	study/STIM_021.jpg
1752.497	1.064	1	study	Phase3	study/STIM_021.jpg
1756.954	1.261	1	study	Phase3	study/STIM_022.jpg
1761.928	0.689	1	study	Phase3	study/STIM_022.jpg
1766.318	1.149	1	study	Phase3	study/STIM_022.jpg
1769.654	1.211	1	study	Phase3	study/STIM_023.jpg
1773.747	1.022	1	study	Phase3	study/STIM_023.jpg
1777.743	1.147	1	study	Phase3	study/STIM_023.jpg
1782.316	0.844	1	study	Phase3	study/STIM_024.jpg
1786.261	0.971	1	study	Phase3	study/STIM_024.jpg
1790.199	1.194	1	study	Phase3	study/STIM_024.jpg
1794.946	1.197	1	study	Phase3	study/STIM_025.jpg
1798.335	1.267	1	study	Phase3	study/STIM_025.jpg
1801.665	0.923	1	study	Phase3	study/STIM_025.jpg
1805.028	0.746	1	study	Phase3	study/STIM_026.jpg
1809.341	0.65	1	study	Phase3	study/STIM_026.jpg
1812.261	0.997	1	study	Phase3	study/STIM_026.jpg
1815.662	1.342	1	study	Phase3	study/STIM_027.jpg
1820.132	0.758	1	study	Phase3	study/STIM_027.jpg
1824.747	0.904	1	study	Phase3	study/STIM_027.jpg
1829.039	1.118	1	study	Phase3	study/STIM_028.jpg
1833.864	1.121	1	study	Phase3	study/STIM_028.jpg
1836.991	1.36	1	study	Phase3	study/STIM_028.jpg
1841.082	0.946	1	study	Phase3	study/STIM_029.jpg
1845.465	0.747	1	study	Phase3	study/STIM_029.jpg
1848.308	1.371	1	study	Phase3	study/STIM_029.jpg
1852.785	0.988	0	test	Phase3	test/STIM_000.jpg
1856.963	1.188	1	test	Phase3	test/STIM_000.jpg
1860.164	1.197	1	test	Phase3	test/STIM_000.jpg
1863.59	1.238	1	test	Phase3	test/STIM_001.jpg
1867.38	1.204	1	test	Phase3	test/STIM_001.jpg
1871.883	1.05	1	test	Phase3	test/STIM_001.jpg
1875.837	0.986	1	test	Phase3	test/STIM_002.jpg
1880.692	0.685	1	test	Phase3	test/STIM_002.jpg
1883.699	0.868	1	test	Phase3	test/STIM_002.jpg
1886.825	0.666	1	test	Phase3	test/STIM_003.jpg
1890.775	1.351	1	test	Phase3	test/STIM_003.jpg
1896.016	1.126	1	test	Phase3	test/STIM_003.jpg
1900.358	1.233	1	test	Phase3	test/STIM_004.jpg
1904.336	1.141	1	test	Phase3	test/STIM_004.jpg
1908.532	1.412	1	test	Phase3	test/STIM_004.jpg
1913.239	1.366	1	test	Phase3	test/STIM_005.jpg
1917.029	0.936	1	test	Phase3	test/STIM_005.jpg
1921.086	1.153	1	test	Phase3	test/STIM_005.jpg
1924.372	0.993	1	test	Phase3	test/STIM_006.jpg
1928.901	0.714	1	test	Phase3	test/STIM_006.jpg
1933.182	0.764	1	test	Phase3	test/STIM_006.jpg
1936.135	0.885	1	test	Phase3	test/STIM_007.jpg
1940.492	1.174	1	test	Phase3	test/STIM_007.jpg
1943.785	1.016	1	test	Phase3	test/STIM_007.jpg
1946.817	0.861	1	test	Phase3	test/STIM_008.jpg
1951.048	1.319	0	test	Phase3	test/STIM_008.jpg
1954.812	0.956	1	test	Phase3	test/STIM_008.jpg
1959.661	0.845	1	test	Phase3	test/STIM_009.jpg
1963.62	1.07	1	test	Phase3	test/STIM_009.jpg
1968.624	0.906	1	test	Phase3	test/STIM_009.jpg
1972.204	1.14	1	test	Phase3	test/STIM_010.jpg
1976.402	0.938	1	test	Phase3	test/STIM_010.jpg
1980.925	1.126	1	test	Phase3	test/STIM_010.jpg
1984.604	1.358	1	test	Phase3	test/STIM_011.jpg
1989.152	1.281	1	test	Phase3	test/STIM_011.jpg
1993.073	1.011	1	test	Phase3	test/STIM_011.jpg
1997.663	0.754	1	test	Phase3	test/STIM_012.jpg
2002.398	1.362	1	test	Phase3	test/STIM_012.jpg
2006.208	0.851	1	test	Phase3	test/STIM_012.jpg
2010.511	0.824	1	test	Phase3	test/STIM_013.jpg
2013.982	0.99	1	test	Phase3	test/STIM_013.jpg
2017.025	1.148	1	test	Phase3	test/STIM_013.jpg
2021.619	0.824	1	test	Phase3	test/STIM_014.jpg
2026.264	0.747	1	test	Phase3	test/STIM_014.jpg
2029.298	0.767	1	test	Phase3	test/STIM_014.jpg
2033.722	0.687	1	test	Phase3	test/STIM_015.jpg
2038.306	0.872	1	test	Phase3	test/STIM_015.jpg
2041.686	1.222	0	test	Phase3	test/STIM_015.jpg
2045.219	0.83	1	test	Phase3	test/STIM_016.jpg
2049.546	1.163	1	test	Phase3	test/STIM_016.jpg
2052.842	0.852	1	test	Phase3	test/STIM_016.jpg
2055.736	1.406	1	test	Phase3	test/STIM_017.jpg
2060.815	1.03	1	test	Phase3	test/STIM_017.jpg
2064.145	0.743	0	test	Phase3	test/STIM_017.jpg
2068.324	0.893	1	test	Phase3	test/STIM_018.jpg
2072.485	1.101	1	test	Phase3	test/STIM_018.jpg
2076.102	0.708	1	test	Phase3	test/STIM_018.jpg
2079.008	1.353	1	test	Phase3	test/STIM_019.jpg
2083.601	1.005	1	test	Phase3	test/STIM_019.jpg
2087.535	1.23	1	test	Phase3	test/STIM_019.jpg
2091.827	1.282	1	test	Phase3	test/STIM_020.jpg
2095.137	0.846	1	test	Phase3	test/STIM_020.jpg
2099.851	1.344	1	test	Phase3	test/STIM_020.jpg
2105.095	0.873	1	test	Phase3	test/STIM_021.jpg
2108.676	1.101	1	test	Phase3	test/STIM_021.jpg
2111.865	1.047	1	test	Phase3	test/STIM_021.jpg
2116.368	0.726	1	test	Phase3	test/STIM_022.jpg
2120.847	1.329	1	test	Phase3	test/STIM_022.jpg
2125.443	0.699	1	test	Phase3	test/STIM_022.jpg
2129.636	0.758	1	test	Phase3	test/STIM_023.jpg
2133.352	1.02	1	test	Phase3	test/STIM_023.jpg
2137.851	1.368	1	test	Phase3	test/STIM_023.jpg
2141.957	1.413	1	test	Phase3	test/STIM_024.jpg
2145.839	1.401	1	test	Phase3	test/STIM_024.jpg
2150.763	0.717	1	test	Phase3	test/STIM_024.jpg
2153.517	1.254	1	test	Phase3	test/STIM_025.jpg
2157.035	0.798	1	test	Phase3	test/STIM_025.jpg
2160.699	1.38	1	test	Phase3	test/STIM_025.jpg
2165.747	1.077	1	test	Phase3	test/STIM_026.jpg
2169.162	1.233	0	test	Phase3	test/STIM_026.jpg
2173.777	1.015	1	test	Phase3	test/STIM_026.jpg
2177.753	1.315	1	test	Phase3	test/STIM_027.jpg
2181.407	1.068	1	test	Phase3	test/STIM_027.jpg
2185.315	0.862	1	test	Phase3	test/STIM_027.jpg
2188.277	0.689	1	test	Phase3	test/STIM_028.jpg
2191.229	0.884	1	test	Phase3	test/STIM_028.jpg
2195.968	0.691	1	test	Phase3	test/STIM_028.jpg
2199.926	0.699	1	test	Phase3	test/STIM_029.jpg
2204.601	0.987	1	test	Phase3	test/STIM_029.jpg
2208.907	1.223	1	test	Phase3	test/STIM_029.jpg
