onset	duration	accuracy_binary	trial_type	learning_stage	stimulus
0.0	1.363	1	study	Phase1	study/STIM_000.jpg
5.19	1.86	1	study	Phase1	study/STIM_000.jpg
9.656	1.531	1	study	Phase1	study/STIM_000.jpg
14.142	1.022	1	study	Phase1	study/STIM_001.jpg
17.539	1.243	0	study	Phase1	study/STIM_001.jpg
20.981	0.814	1	study	Phase1	study/STIM_001.jpg
25.202	0.9	1	study	Phase1	study/STIM_002.jpg
28.282	1.587	1	study	Phase1	study/STIM_002.jpg
33.685	1.216	1	study	Phase1	study/STIM_002.jpg
36.877	1.903	1	study	Phase1	study/STIM_003.jpg
41.241	0.965	1	study	Phase1	study/STIM_003.jpg
45.614	0.874	0	study	Phase1	study/STIM_003.jpg
49.182	1.811	0	study	Phase1	study/STIM_004.jpg
54.324	0.839	1	study	Phase1	study/STIM_004.jpg
57.142	1.675	0	study	Phase1	study/STIM_004.jpg
62.153	0.973	1	study	Phase1	study/STIM_005.jpg
65.942	0.873	1	study	Phase1	study/STIM_005.jpg
70.242	1.435	1	study	Phase1	study/STIM_005.jpg
73.569	1.173	1	study	Phase1	study/STIM_006.jpg
77.32	1.226	1	study	Phase1	study/STIM_006.jpg
81.642	1.403	1	study	Phase1	study/STIM_006.jpg
86.443	1.838	1	study	Phase1	study/STIM_007.jpg
91.208	1.808	1	study	Phase1	study/STIM_007.jpg
96.166	1.357	1	study	Phase1	study/STIM_007.jpg
100.403	1.484	1	study	Phase1	study/STIM_008.jpg
104.038	1.756	1	study	Phase1	study/STIM_008.jpg
109.045	1.132	1	study	Phase1	study/STIM_008.jpg
112.15	0.962	1	study	Phase1	study/STIM_009.jpg
115.127	0.937	1	study	Phase1	study/STIM_009.jpg
118.729	1.272	1	study	Phase1	study/STIM_009.jpg
123.771	1.92	0	study	Phase1	study/STIM_010.jpg
129.492	1.013	1	study	Phase1	study/STIM_010.jpg
134.091	1.468	1	study	Phase1	study/STIM_010.jpg
138.979	1.604	1	study	Phase1	study/STIM_011.jpg
144.262	1.849	1	study	Phase1	study/STIM_011.jpg
149.361	1.738	1	study	Phase1	study/STIM_011.jpg
154.525	0.936	1	study	Phase1	study/STIM_012.jpg
157.407	1.411	1	study	Phase1	study/STIM_012.jpg
161.303	1.512	0	study	Phase1	study/STIM_012.jpg
165.264	1.075	1	study	Phase1	study/STIM_013.jpg
168.584	1.768	1	study	Phase1	study/STIM_013.jpg
173.234	1.258	1	study	Phase1	study/STIM_013.jpg
176.85	1.796	1	study	Phase1	study/STIM_014.jpg
181.174	0.959	1	study	Phase1	study/STIM_014.jpg
186.009	0.813	1	study	Phase1	study/STIM_014.jpg
190.151	1.078	1	study	Phase1	study/STIM_015.jpg
194.389	1.559	1	study	Phase1	study/STIM_015.jpg
199.557	1.114	1	study	Phase1	study/STIM_015.jpg
202.781	1.939	1	study	Phase1	study/STIM_016.jpg
208.189	1.854	1	study	Phase1	study/STIM_016.jpg
213.532	1.285	0	study	Phase1	study/STIM_016.jpg
217.925	1.805	1	study	Phase1	study/STIM_017.jpg
223.55	1.062	1	study	Phase1	study/STIM_017.jpg
228.123	1.367	1	study	Phase1	study/STIM_017.jpg
232.493	1.43	0	study	Phase1	study/STIM_018.jpg
237.324	1.112	1	study	Phase1	study/STIM_018.jpg
240.766	1.285	1	study	Phase1	study/STIM_018.jpg
245.93	1.174	0	study	Phase1	study/STIM_019.jpg
249.308	1.687	1	study	Phase1	study/STIM_019.jpg
254.622	1.722	0	study	Phase1	study/STIM_019.jpg
259.526	1.223	1	study	Phase1	study/STIM_020.jpg
263.473	1.411	1	study	Phase1	study/STIM_020.jpg
268.461	1.266	1	study	Phase1	study/STIM_020.jpg
272.955	1.178	1	study	Phase1	study/STIM_021.jpg
277.695	1.37	1	study	Phase1	study/STIM_021.jpg
281.267	1.198	0	study	Phase1	study/STIM_021.jpg
285.157	1.97	1	study	Phase1	study/STIM_022.jpg
289.792	1.55	1	study	Phase1	study/STIM_022.jpg
293.913	1.315	1	study	Phase1	study/STIM_022.jpg
298.398	1.029	1	study	Phase1	study/STIM_023.jpg
302.604	1.148	1	study	Phase1	study/STIM_023.jpg
307.567	1.707	1	study	Phase1	study/STIM_023.jpg
311.48	1.737	1	study	Phase1	study/STIM_024.jpg
316.968	1.47	1	study	Phase1	study/STIM_024.jpg
320.933	1.104	1	study	Phase1	study/STIM_024.jpg
325.484	1.246	0	study	Phase1	study/STIM_025.jpg
329.813	1.317	1	study	Phase1	study/STIM_025.jpg
333.573	0.827	1	study	Phase1	study/STIM_025.jpg
338.229	1.426	0	study	Phase1	study/STIM_026.jpg
343.22	0.853	1	study	Phase1	study/STIM_026.jpg
347.306	1.521	1	study	Phase1	study/STIM_026.jpg
352.572	1.307	1	study	Phase1	study/STIM_027.jpg
357.678	1.77	1	study	Phase1	study/STIM_027.jpg
361.997	1.519	1	study	Phase1	study/STIM_027.jpg
367.108	1.428	1	study	Phase1	study/STIM_028.jpg
371.295	1.346	1	study	Phase1	study/STIM_028.jpg
375.431	1.669	1	study	Phase1	study/STIM_028.jpg
380.875	1.63	1	study	Phase1	study/STIM_029.jpg
384.78	1.346	0	study	Phase1	study/STIM_029.jpg
388.178	1.276	1	study	Phase1	study/STIM_029.jpg
391.447	1.151	1	test	Phase1	test/STIM_000.jpg
395.551	0.891	1	test	Phase1	test/STIM_000.jpg
399.446	0.738	0	test	Phase1	test/STIM_000.jpg
403.459	1.113	1	test	Phase1	test/STIM_001.jpg
408.431	1.153	1	test	Phase1	test/STIM_001.jpg
412.424	1.204	1	test	Phase1	test/STIM_001.jpg
416.015	1.155	0	test	Phase1	test/STIM_002.jpg
419.984	1.171	1	test	Phase1	test/STIM_002.jpg
424.478	0.951	1	test	Phase1	test/STIM_002.jpg
427.376	0.802	1	test	Phase1	test/STIM_003.jpg
430.281	1.166	1	test	Phase1	test/STIM_003.jpg
435.064	1.358	1	test	Phase1	test/STIM_003.jpg
439.017	0.911	1	test	Phase1	test/STIM_004.jpg
442.251	1.159	1	test	Phase1	test/STIM_004.jpg
445.991	1.154	0	test	Phase1	test/STIM_004.jpg
449.155	1.274	1	test	Phase1	test/STIM_005.jpg
453.087	1.113	1	test	Phase1	test/STIM_005.jpg
456.837	0.686	0	test	Phase1	test/STIM_005.jpg
459.495	0.983	1	test	Phase1	test/STIM_006.jpg
463.383	0.919	1	test	Phase1	test/STIM_006.jpg
467.13	1.326	1	test	Phase1	test/STIM_006.jpg
470.965	1.406	1	test	Phase1	test/STIM_007.jpg
475.473	1.275	1	test	Phase1	test/STIM_007.jpg
479.052	0.867	1	test	Phase1	test/STIM_007.jpg
483.712	0.756	1	test	Phase1	test/STIM_008.jpg
486.472	1.329	1	test	Phase1	test/STIM_008.jpg
491.234	1.29	1	test	Phase1	test/STIM_008.jpg
494.706	1.36	1	test	Phase1	test/STIM_009.jpg
498.396	0.99	1	test	Phase1	test/STIM_009.jpg
501.492	1.242	0	test	Phase1	test/STIM_009.jpg
505.934	1.005	1	test	Phase1	test/STIM_010.jpg
509.442	1.3	1	test	Phase1	test/STIM_010.jpg
513.776	1.031	1	test	Phase1	test/STIM_010.jpg
516.74	0.963	1	test	Phase1	test/STIM_011.jpg
520.069	1.186	0	test	Phase1	test/STIM_011.jpg
524.205	1.091	1	test	Phase1	test/STIM_011.jpg
527.529	1.074	1	test	Phase1	test/STIM_012.jpg
531.435	1.332	0	test	Phase1	test/STIM_012.jpg
536.472	1.316	1	test	Phase1	test/STIM_012.jpg
540.955	1.321	1	test	Phase1	test/STIM_013.jpg
545.103	1.319	1	test	Phase1	test/STIM_013.jpg
548.925	0.998	1	test	Phase1	test/STIM_013.jpg
552.534	0.905	1	test	Phase1	test/STIM_014.jpg
556.207	0.851	1	test	Phase1	test/STIM_014.jpg
560.541	1.137	1	test	Phase1	test/STIM_014.jpg
563.89	1.29	1	test	Phase1	test/STIM_015.jpg
569.01	0.852	1	test	Phase1	test/STIM_015.jpg
571.803	0.721	1	test	Phase1	test/STIM_015.jpg
574.857	0.687	1	test	Phase1	test/STIM_016.jpg
578.941	1.222	1	test	Phase1	test/STIM_016.jpg
583.929	0.78	1	test	Phase1	test/STIM_016.jpg
586.966	0.766	1	test	Phase1	test/STIM_017.jpg
589.977	1.145	1	test	Phase1	test/STIM_017.jpg
593.518	1.346	1	test	Phase1	test/STIM_017.jpg
598.475	0.891	1	test	Phase1	test/STIM_018.jpg
603.249	1.293	1	test	Phase1	test/STIM_018.jpg
608.075	1.141	1	test	Phase1	test/STIM_018.jpg
612.373	1.304	1	test	Phase1	test/STIM_019.jpg
617.069	1.398	1	test	Phase1	test/STIM_019.jpg
622.195	0.832	1	test	Phase1	test/STIM_019.jpg
625.209	0.781	1	test	Phase1	test/STIM_020.jpg
628.724	0.837	1	test	Phase1	test/STIM_020.jpg
631.891	0.718	0	test	Phase1	test/STIM_020.jpg
634.684	0.872	1	test	Phase1	test/STIM_021.jpg
638.229	0.725	1	test	Phase1	test/STIM_021.jpg
641.916	0.85	0	test	Phase1	test/STIM_021.jpg
646.215	0.71	1	test	Phase1	test/STIM_022.jpg
648.877	1.158	1	test	Phase1	test/STIM_022.jpg
653.028	0.802	1	test	Phase1	test/STIM_022.jpg
657.478	0.983	1	test	Phase1	test/STIM_023.jpg
662.269	0.721	1	test	Phase1	test/STIM_023.jpg
665.282	1.418	1	test	Phase1	test/STIM_023.jpg
670.2	0.783	1	test	Phase1	test/STIM_024.jpg
674.154	0.794	1	test	Phase1	test/STIM_024.jpg
678.741	1.372	1	test	Phase1	test/STIM_024.jpg
683.025	0.81	1	test	Phase1	test/STIM_025.jpg
686.803	0.816	1	test	Phase1	test/STIM_025.jpg
690.389	1.146	1	test	Phase1	test/STIM_025.jpg
694.052	1.101	1	test	Phase1	test/STIM_026.jpg
697.526	0.764	1	test	Phase1	test/STIM_026.jpg
700.732	1.241	1	test	Phase1	test/STIM_026.jpg
705.433	0.76	1	test	Phase1	test/STIM_027.jpg
709.484	0.906	1	test	Phase1	test/STIM_027.jpg
713.746	0.927	1	test	Phase1	test/STIM_027.jpg
717.718	1.134	1	test	Phase1	test/STIM_028.jpg
720.834	0.792	1	test	Phase1	test/STIM_028.jpg
724.62	1.276	1	test	Phase1	test/STIM_028.jpg
728.703	0.948	1	test	Phase1	test/STIM_029.jpg
732.747	0.959	1	test	Phase1	test/STIM_029.jpg
735.627	0.728	0	test	Phase1	test/STIM_029.jpg
739.43	1.453	1	study	Phase2	study/STIM_000.jpg
743.584	0.818	0	study	Phase2	study/STIM_000.jpg
747.8	1.001	1	study	Phase2	study/STIM_000.jpg
752.404	0.904	1	study	Phase2	study/STIM_001.jpg
755.908	1.456	1	study	Phase2	study/STIM_001.jpg
759.69	0.668	1	study	Phase2	study/STIM_001.jpg
763.03	1.406	1	study	Phase2	study/STIM_002.jpg
766.836	1.083	1	study	Phase2	study/STIM_002.jpg
771.36	0.723	1	study	Phase2	study/STIM_002.jpg
774.555	1.174	1	study	Phase2	study/STIM_003.jpg
778.133	0.926	1	study	Phase2	study/STIM_003.jpg
781.588	0.808	1	study	Phase2	study/STIM_003.jpg
785.716	1.033	1	study	Phase2	study/STIM_004.jpg
789.488	0.805	1	study	Phase2	study/STIM_004.jpg
793.946	0.964	1	study	Phase2	study/STIM_004.jpg
798.404	1.226	1	study	Phase2	study/STIM_005.jpg
801.952	1.486	1	study	Phase2	study/STIM_005.jpg
806.829	1.108	1	study	Phase2	study/STIM_005.jpg
811.229	1.364	1	study	Phase2	study/STIM_006.jpg
815.48	0.929	1	study	Phase2	study/STIM_006.jpg
819.352	0.835	1	study	Phase2	study/STIM_006.jpg
823.697	1.044	1	study	Phase2	study/STIM_007.jpg
827.522	1.236	1	study	Phase2	study/STIM_007.jpg
831.635	1.39	1	study	Phase2	study/STIM_007.jpg
835.594	1.012	1	study	Phase2	study/STIM_008.jpg
840.342	0.763	1	study	Phase2	study/STIM_008.jpg
844.514	0.854	1	study	Phase2	study/STIM_008.jpg
847.952	0.851	1	study	Phase2	study/STIM_009.jpg
851.751	0.736	1	study	Phase2	study/STIM_009.jpg
854.706	0.833	1	study	Phase2	study/STIM_009.jpg
859.248	0.765	1	study	Phase2	study/STIM_010.jpg
863.454	0.844	1	study	Phase2	study/STIM_010.jpg
868.035	0.778	1	study	Phase2	study/STIM_010.jpg
872.215	1.184	1	study	Phase2	study/STIM_011.jpg
875.639	1.335	0	study	Phase2	study/STIM_011.jpg
879.336	1.434	1	study	Phase2	study/STIM_011.jpg
883.35	1.416	0	study	Phase2	study/STIM_012.jpg
886.66	1.439	1	study	Phase2	study/STIM_012.jpg
891.951	0.945	1	study	Phase2	study/STIM_012.jpg
896.813	0.996	1	study	Phase2	study/STIM_013.jpg
901.231	1.111	1	study	Phase2	study/STIM_013.jpg
904.486	1.08	1	study	Phase2	study/STIM_013.jpg
907.937	1.057	1	study	Phase2	study/STIM_014.jpg
911.755	1.402	1	study	Phase2	study/STIM_014.jpg
915.579	1.348	1	study	Phase2	study/STIM_014.jpg
920.395	1.438	1	study	Phase2	study/STIM_015.jpg
925.133	0.85	1	study	Phase2	study/STIM_015.jpg
928.272	0.958	1	study	Phase2	study/STIM_015.jpg
932.66	1.343	1	study	Phase2	study/STIM_016.jpg
936.077	0.99	1	study	Phase2	study/STIM_016.jpg
940.185	1.318	1	study	Phase2	study/STIM_016.jpg
943.551	1.344	1	study	Phase2	study/STIM_017.jpg
947.376	1.379	1	study	Phase2	study/STIM_017.jpg
951.687	0.948	1	study	Phase2	study/STIM_017.jpg
956.117	1.588	1	study	Phase2	study/STIM_018.jpg
960.584	1.218	1	study	Phase2	study/STIM_018.jpg
965.553	1.43	1	study	Phase2	study/STIM_018.jpg
969.241	1.037	0	study	Phase2	study/STIM_019.jpg
972.534	0.922	1	study	Phase2	study/STIM_019.jpg
976.915	0.694	1	study	Phase2	study/STIM_019.jpg
981.518	0.956	1	study	Phase2	study/STIM_020.jpg
984.801	0.907	1	study	Phase2	study/STIM_020.jpg
988.603	1.189	1	study	Phase2	study/STIM_020.jpg
992.213	1.327	1	study	Phase2	study/STIM_021.jpg
997.242	0.858	1	study	Phase2	study/STIM_021.jpg
1000.243	1.221	1	study	Phase2	study/STIM_021.jpg
1003.504	1.298	1	study	Phase2	study/STIM_022.jpg
1008.429	1.318	1	study	Phase2	study/STIM_022.jpg
1013.351	1.395	1	study	Phase2	study/STIM_022.jpg
1016.869	1.166	1	study	Phase2	study/STIM_023.jpg
1020.521	0.875	1	study	Phase2	study/STIM_023.jpg
1024.862	1.428	1	study	Phase2	study/STIM_023.jpg
1029.571	1.48	1	study	Phase2	study/STIM_024.jpg
1034.764	0.722	1	study	Phase2	study/STIM_024.jpg
1039.207	0.77	1	study	Phase2	study/STIM_024.jpg
1042.941	1.12	1	study	Phase2	study/STIM_025.jpg
1047.389	0.81	1	study	Phase2	study/STIM_025.jpg
1050.22	1.148	1	study	Phase2	study/STIM_025.jpg
1053.412	1.394	1	study	Phase2	study/STIM_026.jpg
1057.6	1.152	1	study	Phase2	study/STIM_026.jpg
1062.402	1.421	1	study	Phase2	study/STIM_026.jpg
1067.479	0.936	1	study	Phase2	study/STIM_027.jpg
1070.837	0.898	1	study	Phase2	study/STIM_027.jpg
1075.084	0.713	1	study	Phase2	study/STIM_027.jpg
1078.88	1.479	1	study	Phase2	study/STIM_028.jpg
1082.984	1.136	1	study	Phase2	study/STIM_028.jpg
1086.641	0.676	1	study	Phase2	study/STIM_028.jpg
1089.441	1.361	1	study	Phase2	study/STIM_029.jpg
1094.163	0.884	1	study	Phase2	study/STIM_029.jpg
1098.393	1.32	0	study	Phase2	study/STIM_029.jpg
1102.552	0.738	1	test	Phase2	test/STIM_000.jpg
1106.094	0.69	1	test	Phase2	test/STIM_000.jpg
1110.306	0.692	1	test	Phase2	test/STIM_000.jpg
1113.901	1.425	1	test	Phase2	test/STIM_001.jpg
1118.839	0.77	1	test	Phase2	test/STIM_001.jpg
1122.155	0.77	1	test	Phase2	test/STIM_001.jpg
1124.887	0.741	1	test	Phase2	test/STIM_002.jpg
1129.444	0.999	1	test	Phase2	test/STIM_002.jpg
1133.77	0.686	1	test	Phase2	test/STIM_002.jpg
1138.39	0.663	1	test	Phase2	test/STIM_003.jpg
1142.67	0.879	1	test	Phase2	test/STIM_003.jpg
1146.444	1.359	1	test	Phase2	test/STIM_003.jpg
1150.479	1.203	1	test	Phase2	test/STIM_004.jpg
1154.328	1.322	1	test	Phase2	test/STIM_004.jpg
1158.291	0.7	1	test	Phase2	test/STIM_004.jpg
1162.592	0.731	1	test	Phase2	test/STIM_005.jpg
1166.282	1.166	1	test	Phase2	test/STIM_005.jpg
1170.849	1.05	1	test	Phase2	test/STIM_005.jpg
1175.21	1.345	1	test	Phase2	test/STIM_006.jpg
1179.943	0.722	1	test	Phase2	test/STIM_006.jpg
1184.513	0.851	1	test	Phase2	test/STIM_006.jpg
1187.607	1.224	1	test	Phase2	test/STIM_007.jpg
1192.045	1.096	1	test	Phase2	test/STIM_007.jpg
1195.316	0.76	1	test	Phase2	test/STIM_007.jpg
1199.293	0.817	1	test	Phase2	test/STIM_008.jpg
1203.981	1.32	1	test	Phase2	test/STIM_008.jpg
1209.082	1.128	1	test	Phase2	test/STIM_008.jpg
1213.659	1.406	1	test	Phase2	test/STIM_009.jpg
1217.487	0.808	1	test	Phase2	test/STIM_009.jpg
1221.748	1.162	1	test	Phase2	test/STIM_009.jpg
1226.527	1.411	1	test	Phase2	test/STIM_010.jpg
1229.938	1.14	1	test	Phase2	test/STIM_010.jpg
1233.603	1.107	0	test	Phase2	test/STIM_010.jpg
1238.375	1.326	1	test	Phase2	test/STIM_011.jpg
1242.283	0.658	1	test	Phase2	test/STIM_011.jpg
1246.446	0.68	1	test	Phase2	test/STIM_011.jpg
1250.526	1.155	1	test	Phase2	test/STIM_012.jpg
1254.361	0.76	1	test	Phase2	test/STIM_012.jpg
1257.213	0.747	1	test	Phase2	test/STIM_012.jpg
1260.838	0.86	1	test	Phase2	test/STIM_013.jpg
1265.359	1.214	1	test	Phase2	test/STIM_013.jpg
1269.09	1.105	1	test	Phase2	test/STIM_013.jpg
1273.563	1.274	0	test	Phase2	test/STIM_014.jpg
1277.53	0.769	1	test	Phase2	test/STIM_014.jpg
1281.884	0.673	1	test	Phase2	test/STIM_014.jpg
1284.782	0.722	1	test	Phase2	test/STIM_015.jpg
1289.022	1.368	1	test	Phase2	test/STIM_015.jpg
1294.236	0.9	1	test	Phase2	test/STIM_015.jpg
1299.03	0.664	1	test	Phase2	test/STIM_016.jpg
1302.948	0.943	1	test	Phase2	test/STIM_016.jpg
1307.05	0.694	1	test	Phase2	test/STIM_016.jpg
1310.607	1.356	1	test	Phase2	test/STIM_017.jpg
1313.851	1.01	1	test	Phase2	test/STIM_017.jpg
1317.517	0.906	1	test	Phase2	test/STIM_017.jpg
1321.753	1.151	1	test	Phase2	test/STIM_018.jpg
1324.931	1.366	0	test	Phase2	test/STIM_018.jpg
1329.768	0.928	1	test	Phase2	test/STIM_018.jpg
1333.362	0.72	1	test	Phase2	test/STIM_019.jpg
1337.93	0.742	1	test	Phase2	test/STIM_019.jpg
1342.544	0.674	1	test	Phase2	test/STIM_019.jpg
1346.977	1.222	1	test	Phase2	test/STIM_020.jpg
1351.165	1.406	0	test	Phase2	test/STIM_020.jpg
1354.988	0.901	1	test	Phase2	test/STIM_020.jpg
1358.524	0.942	1	test	Phase2	test/STIM_021.jpg
1362.268	1.375	1	test	Phase2	test/STIM_021.jpg
1366.996	0.912	1	test	Phase2	test/STIM_021.jpg
1369.916	0.947	1	test	Phase2	test/STIM_022.jpg
1374.343	1.278	1	test	Phase2	test/STIM_022.jpg
1377.929	1.167	1	test	Phase2	test/STIM_022.jpg
1381.384	1.21	0	test	Phase2	test/STIM_023.jpg
1386.261	0.938	1	test	Phase2	test/STIM_023.jpg
1389.508	1.347	1	test	Phase2	test/STIM_023.jpg
1393.589	0.843	0	test	Phase2	test/STIM_024.jpg
1397.127	0.692	1	test	Phase2	test/STIM_024.jpg
1401.613	1.246	0	test	Phase2	test/STIM_024.jpg
1405.707	0.938	1	test	Phase2	test/STIM_025.jpg
1409.678	1.228	1	test	Phase2	test/STIM_025.jpg
1413.577	1.37	1	test	Phase2	test/STIM_025.jpg
1418.423	0.688	1	test	Phase2	test/STIM_026.jpg
1421.662	0.891	0	test	Phase2	test/STIM_026.jpg
1425.054	0.986	1	test	Phase2	test/STIM_026.jpg
1428.76	1.039	1	test	Phase2	test/STIM_027.jpg
1433.056	0.719	0	test	Phase2	test/STIM_027.jpg
1437.7	0.704	1	test	Phase2	test/STIM_027.jpg
1440.601	0.941	1	test	Phase2	test/STIM_028.jpg
1445.318	1.302	1	test	Phase2	test/STIM_028.jpg
1449.941	0.75	1	test	Phase2	test/STIM_028.jpg
1453.353	0.696	1	test	Phase2	test/STIM_029.jpg
1456.499	0.698	1	test	Phase2	test/STIM_029.jpg
1461.075	1.358	1	test	Phase2	test/STIM_029.jpg
1466.227	1.228	1	study	Phase3	study/STIM_000.jpg
1469.996	0.922	1	study	Phase3	study/STIM_000.jpg
1474.691	0.952	1	study	Phase3	study/STIM_000.jpg
1478.045	0.811	1	study	Phase3	study/STIM_001.jpg
1481.252	0.84	1	study	Phase3	study/STIM_001.jpg
1485.116	0.868	1	study	Phase3	study/STIM_001.jpg
1489.484	1.082	1	study	Phase3	study/STIM_002.jpg
1492.953	0.833	1	study	Phase3	study/STIM_002.jpg
1495.763	1.185	1	study	Phase3	study/STIM_002.jpg
1500.637	1.011	1	study	Phase3	study/STIM_003.jpg
1504.961	1.295	1	study	Phase3	study/STIM_003.jpg
1509.085	1.1	1	study	Phase3	study/STIM_003.jpg
1513.239	0.654	1	study	Phase3	study/STIM_004.jpg
1517.707	1.214	1	study	Phase3	study/STIM_004.jpg
1520.973	1.18	1	study	Phase3	study/STIM_004.jpg
1525.91	1.316	1	study	Phase3	study/STIM_005.jpg
1529.716	1.029	1	study	Phase3	study/STIM_005.jpg
1533.768	0.93	1	study	Phase3	study/STIM_005.jpg
1538.39	1.082	1	study	Phase3	study/STIM_006.jpg
1542.806	1.077	1	study	Phase3	study/STIM_006.jpg
1547.421	1.364	1	study	Phase3	study/STIM_006.jpg
1550.924	1.033	1	study	Phase3	study/STIM_007.jpg
1554.398	0.979	1	study	Phase3	study/STIM_007.jpg
1557.809	0.858	1	study	Phase3	study/STIM_007.jpg
1560.78	1.289	1	study	Phase3	study/STIM_008.jpg
1564.953	1.107	1	study	Phase3	study/STIM_008.jpg
1569.923	0.641	0	study	Phase3	study/STIM_008.jpg
1574.199	1.066	1	study	Phase3	study/STIM_009.jpg
1578.006	1.19	1	study	Phase3	study/STIM_009.jpg
1581.153	1.038	1	study	Phase3	study/STIM_009.jpg
1585.158	1.292	1	study	Phase3	study/STIM_010.jpg
1589.525	1.13	1	study	Phase3	study/STIM_010.jpg
1593.451	0.901	1	study	Phase3	study/STIM_010.jpg
1597.824	0.939	1	study	Phase3	study/STIM_011.jpg
1601.767	1.054	1	study	Phase3	study/STIM_011.jpg
1605.448	1.302	0	study	Phase3	study/STIM_011.jpg
1610.233	1.103	1	study	Phase3	study/STIM_012.jpg
1614.995	0.801	1	study	Phase3	study/STIM_012.jpg
1619.168	1.045	1	study	Phase3	study/STIM_012.jpg
1622.743	1.029	1	study	Phase3	study/STIM_013.jpg
1627.459	1.061	1	study	Phase3	study/STIM_013.jpg
1630.716	1.147	1	study	Phase3	study/STIM_013.jpg
1634.481	0.738	1	study	Phase3	study/STIM_014.jpg
1637.696	1.276	1	study	Phase3	study/STIM_014.jpg
1642.644	1.37	1	study	Phase3	study/STIM_014.jpg
1646.901	0.924	1	study	Phase3	study/STIM_015.jpg
1650.554	0.955	1	study	Phase3	study/STIM_015.jpg
1655.191	0.838	1	study	Phase3	study/STIM_015.jpg
1658.108	0.637	1	study	Phase3	study/STIM_016.jpg
1660.936	1.202	1	study	Phase3	study/STIM_016.jpg
1664.938	0.642	1	study	Phase3	study/STIM_016.jpg
1669.324	1.309	1	study	Phase3	study/STIM_017.jpg
1673.666	0.941	1	study	Phase3	study/STIM_017.jpg
1678.29	1.172	1	study	Phase3	study/STIM_017.jpg
1682.629	0.783	1	study	Phase3	study/STIM_018.jpg
1687.214	1.348	0	study	Phase3	study/STIM_018.jpg
1691.75	1.118	1	study	Phase3	study/STIM_018.jpg
1696.499	1.214	1	study	Phase3	study/STIM_019.jpg
1699.665	1.374	1	study	Phase3	study/STIM_019.jpg
1704.857	0.68	1	study	Phase3	study/STIM_019.jpg
1708.967	0.664	1	study	Phase3	study/STIM_020.jpg
1713.097	1.226	1	study	Phase3	study/STIM_020.jpg
1717.76	0.798	1	study	Phase3	study/STIM_020.jpg
1721.022	1.172	1	study	Phase3	study/STIM_021.jpg
1724.336	1.326	1	study	Phase3	study/STIM_021.jpg
1727.729	0.908	1	study	Phase3	study/STIM_021.jpg
1731.794	0.785	1	study	Phase3	study/STIM_022.jpg
1735.128	1.019	1	study	Phase3	study/STIM_022.jpg
1739.05	1.26	1	study	Phase3	study/STIM_022.jpg
1742.203	0.733	1	study	Phase3	study/STIM_023.jpg
1745.701	1.182	1	study	Phase3	study/STIM_023.jpg
1749.072	1.051	1	study	Phase3	study/STIM_023.jpg
1753.606	1.107	1	study	Phase3	study/STIM_024.jpg
1756.948	1.119	1	study	Phase3	study/STIM_024.jpg
1761.798	1.086	1	study	Phase3	study/STIM_024.jpg
1765.945	1.252	1	study	Phase3	study/STIM_025.jpg
1770.808	0.636	1	study	Phase3	study/STIM_025.jpg
1774.393	0.898	1	study	Phase3	study/STIM_025.jpg
1777.461	1.184	1	study	Phase3	study/STIM_026.jpg
1781.915	1.374	1	study	Phase3	study/STIM_026.jpg
1785.318	1.03	1	study	Phase3	study/STIM_026.jpg
1790.167	1.172	1	study	Phase3	study/STIM_027.jpg
1793.739	1.216	1	study	Phase3	study/STIM_027.jpg
1797.82	0.681	1	study	Phase3	study/STIM_027.jpg
1801.622	0.623	1	study	Phase3	study/STIM_028.jpg
1804.455	1.248	1	study	Phase3	study/STIM_028.jpg
1807.696	1.022	1	study	Phase3	study/STIM_028.jpg
1812.289	0.68	1	study	Phase3	study/STIM_029.jpg
1816.458	0.793	1	study	Phase3	study/STIM_029.jpg
1820.399	1.097	1	study	Phase3	study/STIM_029.jpg
1823.48	1.07	0	test	Phase3	test/STIM_000.jpg
1827.322	0.872	1	test	Phase3	test/STIM_000.jpg
1830.858	0.755	1	test	Phase3	test/STIM_000.jpg
1834.819	0.895	1	test	Phase3	test/STIM_001.jpg
1838.515	0.708	1	test	Phase3	test/STIM_001.jpg
1843.089	0.773	0	test	Phase3	test/STIM_001.jpg
1846.072	1.358	1	test	Phase3	test/STIM_002.jpg
1849.43	1.347	0	test	Phase3	test/STIM_002.jpg
1853.453	1.108	1	test	Phase3	test/STIM_002.jpg
1856.735	1.265	1	test	Phase3	test/STIM_003.jpg
1861.772	0.929	1	test	Phase3	test/STIM_003.jpg
1865.318	0.706	0	test	Phase3	test/STIM_003.jpg
1869.485	0.876	1	test	Phase3	test/STIM_004.jpg
1874.242	0.671	1	test	Phase3	test/STIM_004.jpg
1877.891	1.424	1	test	Phase3	test/STIM_004.jpg
1881.324	0.778	1	test	Phase3	test/STIM_005.jpg
1884.428	0.821	1	test	Phase3	test/STIM_005.jpg
1888.231	1.406	1	test	Phase3	test/STIM_005.jpg
1891.92	1.259	1	test	Phase3	test/STIM_006.jpg
1896.738	1.018	1	test	Phase3	test/STIM_006.jpg
1901.162	1.261	1	test	Phase3	test/STIM_006.jpg
1904.761	1.174	1	test	Phase3	test/STIM_007.jpg
1907.873	1.415	1	test	Phase3	test/STIM_007.jpg
1911.863	0.698	1	test	Phase3	test/STIM_007.jpg
1915.045	1.091	1	test	Phase3	test/STIM_008.jpg
1918.181	1.077	0	test	Phase3	test/STIM_008.jpg
1923.141	0.801	1	test	Phase3	test/STIM_008.jpg
1925.939	1.36	1	test	Phase3	test/STIM_009.jpg
1930.355	0.695	1	test	Phase3	test/STIM_009.jpg
1934.569	1.08	1	test	Phase3	test/STIM_009.jpg
1938.654	1.401	1	test	Phase3	test/STIM_010.jpg
1943.872	1.253	1	test	Phase3	test/STIM_010.jpg
1948.644	1.229	1	test	Phase3	test/STIM_010.jpg
1953.313	0.766	1	test	Phase3	test/STIM_011.jpg
1957.294	0.876	1	test	Phase3	test/STIM_011.jpg
1961.451	0.841	1	test	Phase3	test/STIM_011.jpg
1964.943	0.964	1	test	Phase3	test/STIM_012.jpg
1968.694	1.223	1	test	Phase3	test/STIM_012.jpg
1971.944	1.159	1	test	Phase3	test/STIM_012.jpg
1976.038	1.197	1	test	Phase3	test/STIM_013.jpg
1980.064	0.85	1	test	Phase3	test/STIM_013.jpg
1984.496	1.317	1	test	Phase3	test/STIM_013.jpg
1987.964	0.976	1	test	Phase3	test/STIM_014.jpg
1991.165	1.258	1	test	Phase3	test/STIM_014.jpg
1994.493	0.97	1	test	Phase3	test/STIM_014.jpg
1997.802	0.963	1	test	Phase3	test/STIM_015.jpg
2001.08	1.4	1	test	Phase3	test/STIM_015.jpg
2004.816	1.0	0	test	Phase3	test/STIM_015.jpg
2007.973	0.876	1	test	Phase3	test/STIM_016.jpg
2010.948	0.695	1	test	Phase3	test/STIM_016.jpg
2014.45	0.802	1	test	Phase3	test/STIM_016.jpg
2017.358	0.865	1	test	Phase3	test/STIM_017.jpg
2021.602	1.143	1	test	Phase3	test/STIM_017.jpg
2025.76	1.192	0	test	Phase3	test/STIM_017.jpg
2030.174	0.897	1	test	Phase3	test/STIM_018.jpg
2034.634	1.123	1	test	Phase3	test/STIM_018.jpg
2039.332	0.861	1	test	Phase3	test/STIM_018.jpg
2044.015	0.859	1	test	Phase3	test/STIM_019.jpg
2048.753	0.837	1	test	Phase3	test/STIM_019.jpg
2052.594	1.394	1	test	Phase3	test/STIM_019.jpg
2056.927	1.383	0	test	Phase3	test/STIM_020.jpg
2060.738	0.821	1	test	Phase3	test/STIM_020.jpg
2064.014	0.751	1	test	Phase3	test/STIM_020.jpg
2067.726	1.11	1	test	Phase3	test/STIM_021.jpg
2071.965	1.006	1	test	Phase3	test/STIM_021.jpg
2075.231	1.393	1	test	Phase3	test/STIM_021.jpg
2078.881	1.138	1	test	Phase3	test/STIM_022.jpg
2082.645	0.716	1	test	Phase3	test/STIM_022.jpg
2087.268	0.957	1	test	Phase3	test/STIM_022.jpg
2091.143	0.952	1	test	Phase3	test/STIM_023.jpg
2095.761	1.133	1	test	Phase3	test/STIM_023.jpg
2100.646	1.1	1	test	Phase3	test/STIM_023.jpg
2104.816	1.409	1	test	Phase3	test/STIM_024.jpg
2108.134	0.669	1	test	Phase3	test/STIM_024.jpg
2111.372	1.071	1	test	Phase3	test/STIM_024.jpg
2116.106	0.788	1	test	Phase3	test/STIM_025.jpg
2119.511	0.765	0	test	Phase3	test/STIM_025.jpg
2123.153	1.201	1	test	Phase3	test/STIM_025.jpg
2127.757	0.87	1	test	Phase3	test/STIM_026.jpg
2131.133	1.298	0	test	Phase3	test/STIM_026.jpg
2134.929	1.356	1	test	Phase3	test/STIM_026.jpg
2139.957	0.806	1	test	Phase3	test/STIM_027.jpg
2144.461	0.72	1	test	Phase3	test/STIM_027.jpg
2148.482	1.404	1	test	Phase3	test/STIM_027.jpg
2152.723	1.163	1	test	Phase3	test/STIM_028.jpg
2156.236	1.086	1	test	Phase3	test/STIM_028.jpg
2159.661	0.675	1	test	Phase3	test/STIM_028.jpg
2163.7	0.669	1	test	Phase3	test/STIM_029.jpg
2166.467	0.778	1	test	Phase3	test/STIM_029.jpg
2170.63	1.196	1	test	Phase3	test/STIM_029.jpg
