onset	duration	accuracy	trial_type	learning_stage	stimulus
0.0	1.324	correct	study	Phase1	study/STIM_000.jpg
4.296	1.27	correct	study	Phase1	study/STIM_000.jpg
9.426	0.956	correct	study	Phase1	study/STIM_000.jpg
12.342	1.673	correct	study	Phase1	study/STIM_001.jpg
17.403	1.203	correct	study	Phase1	study/STIM_001.jpg
21.451	1.402	correct	study	Phase1	study/STIM_001.jpg
25.033	1.625	correct	study	Phase1	study/STIM_002.jpg
28.584	1.443	correct	study	Phase1	study/STIM_002.jpg
32.878	0.961	correct	study	Phase1	study/STIM_002.jpg
37.185	1.036	correct	study	Phase1	study/STIM_003.jpg
40.474	1.24	correct	study	Phase1	study/STIM_003.jpg
45.054	0.993	correct	study	Phase1	study/STIM_003.jpg
49.718	1.76	incorrect	study	Phase1	study/STIM_004.jpg
53.893	1.636	correct	study	Phase1	study/STIM_004.jpg
58.066	1.029	correct	study	Phase1	study/STIM_004.jpg
62.967	1.64	correct	study	Phase1	study/STIM_005.jpg
67.184	2.03	correct	study	Phase1	study/STIM_005.jpg
70.896	1.623	correct	study	Phase1	study/STIM_005.jpg
74.637	0.907	correct	study	Phase1	study/STIM_006.jpg
78.755	1.403	correct	study	Phase1	study/STIM_006.jpg
82.102	1.428	correct	study	Phase1	study/STIM_006.jpg
87.382	0.925	correct	study	Phase1	study/STIM_007.jpg
91.097	1.739	correct	study	Phase1	study/STIM_007.jpg
95.103	1.243	incorrect	study	Phase1	study/STIM_007.jpg
98.905	1.086	correct	study	Phase1	study/STIM_008.jpg
103.489	1.038	correct	study	Phase1	study/STIM_008.jpg
108.323	1.184	correct	study	Phase1	study/STIM_008.jpg
112.095	1.433	correct	study	Phase1	study/STIM_009.jpg
115.568	0.957	correct	study	Phase1	study/STIM_009.jpg
120.381	1.298	correct	study	Phase1	study/STIM_009.jpg
125.281	1.306	correct	study	Phase1	study/STIM_010.jpg
129.91	1.655	correct	study	Phase1	study/STIM_010.jpg
134.173	1.167	correct	study	Phase1	study/STIM_010.jpg
137.848	1.776	correct	study	Phase1	study/STIM_011.jpg
142.085	1.175	correct	study	Phase1	study/STIM_011.jpg
145.366	1.791	correct	study	Phase1	study/STIM_011.jpg
150.613	1.804	correct	study	Phase1	study/STIM_012.jpg
155.554	1.319	correct	study	Phase1	study/STIM_012.jpg
159.95	1.29	correct	study	Phase1	study/STIM_012.jpg
164.131	1.296	correct	study	Phase1	study/STIM_013.jpg
168.966	1.724	correct	study	Phase1	study/STIM_013.jpg
173.492	0.863	correct	study	Phase1	study/STIM_013.jpg
176.713	1.402	correct	study	Phase1	study/STIM_014.jpg
181.31	1.377	correct	study	Phase1	study/STIM_014.jpg
185.659	1.031	correct	study	Phase1	study/STIM_014.jpg
189.062	1.577	correct	study	Phase1	study/STIM_015.jpg
192.554	1.238	incorrect	study	Phase1	study/STIM_015.jpg
197.5	1.14	incorrect	study	Phase1	study/STIM_015.jpg
201.897	1.422	correct	study	Phase1	study/STIM_016.jpg
206.746	1.935	correct	study	Phase1	study/STIM_016.jpg
210.593	1.707	correct	study	Phase1	study/STIM_016.jpg
214.943	1.366	correct	study	Phase1	study/STIM_017.jpg
219.754	1.694	correct	study	Phase1	study/STIM_017.jpg
224.014	1.056	correct	study	Phase1	study/STIM_017.jpg
227.037	0.969	correct	study	Phase1	study/STIM_018.jpg
230.831	0.993	correct	study	Phase1	study/STIM_018.jpg
235.076	1.7	correct	study	Phase1	study/STIM_018.jpg
239.829	1.024	incorrect	study	Phase1	study/STIM_019.jpg
244.72	1.255	correct	study	Phase1	study/STIM_019.jpg
248.154	1.8	correct	study	Phase1	study/STIM_019.jpg
252.595	1.582	correct	study	Phase1	study/STIM_020.jpg
256.091	1.338	correct	study	Phase1	study/STIM_020.jpg
259.557	0.956	incorrect	study	Phase1	study/STIM_020.jpg
263.404	1.338	correct	study	Phase1	study/STIM_021.jpg
267.695	1.465	correct	study	Phase1	study/STIM_021.jpg
272.991	1.303	correct	study	Phase1	study/STIM_021.jpg
276.841	1.827	correct	study	Phase1	study/STIM_022.jpg
281.789	1.824	correct	study	Phase1	study/STIM_022.jpg
285.464	1.797	correct	study	Phase1	study/STIM_022.jpg
289.27	1.55	correct	study	Phase1	study/STIM_023.jpg
293.748	1.945	incorrect	study	Phase1	study/STIM_023.jpg
297.493	1.738	correct	study	Phase1	study/STIM_023.jpg
302.54	1.144	correct	study	Phase1	study/STIM_024.jpg
307.357	1.011	correct	study	Phase1	study/STIM_024.jpg
312.067	1.565	correct	study	Phase1	study/STIM_024.jpg
315.845	1.324	correct	study	Phase1	study/STIM_025.jpg
319.36	1.596	correct	study	Phase1	study/STIM_025.jpg
323.742	1.488	correct	study	Phase1	study/STIM_025.jpg
327.526	1.721	correct	study	Phase1	study/STIM_026.jpg
332.453	1.639	correct	study	Phase1	study/STIM_026.jpg
336.227	1.177	correct	study	Phase1	study/STIM_026.jpg
341.086	1.795	correct	study	Phase1	study/STIM_027.jpg
345.14	1.073	correct	study	Phase1	study/STIM_027.jpg
349.435	1.215	correct	study	Phase1	study/STIM_027.jpg
354.257	1.647	correct	study	Phase1	study/STIM_028.jpg
358.346	1.912	correct	study	Phase1	study/STIM_028.jpg
363.598	1.739	correct	study	Phase1	study/STIM_028.jpg
368.47	1.001	correct	study	Phase1	study/STIM_029.jpg
371.787	1.595	correct	study	Phase1	study/STIM_029.jpg
376.174	1.336	incorrect	study	Phase1	study/STIM_029.jpg
380.876	1.284	correct	test	Phase1	test/STIM_000.jpg
385.268	1.389	incorrect	test	Phase1	test/STIM_000.jpg
389.198	0.644	correct	test	Phase1	test/STIM_000.jpg
392.295	1.009	correct	test	Phase1	test/STIM_001.jpg
396.447	1.42	correct	test	Phase1	test/STIM_001.jpg
401.278	0.761	correct	test	Phase1	test/STIM_001.jpg
404.126	0.861	correct	test	Phase1	test/STIM_002.jpg
407.22	0.828	correct	test	Phase1	test/STIM_002.jpg
410.141	1.495	correct	test	Phase1	test/STIM_002.jpg
414.108	1.146	correct	test	Phase1	test/STIM_003.jpg
418.337	1.183	correct	test	Phase1	test/STIM_003.jpg
423.132	1.374	correct	test	Phase1	test/STIM_003.jpg
427.743	1.083	correct	test	Phase1	test/STIM_004.jpg
432.23	1.326	incorrect	test	Phase1	test/STIM_004.jpg
437.23	1.422	correct	test	Phase1	test/STIM_004.jpg
441.738	1.446	correct	test	Phase1	test/STIM_005.jpg
445.144	1.377	correct	test	Phase1	test/STIM_005.jpg
448.537	0.834	correct	test	Phase1	test/STIM_005.jpg
452.927	0.892	correct	test	Phase1	test/STIM_006.jpg
455.996	0.997	correct	test	Phase1	test/STIM_006.jpg
460.162	1.272	correct	test	Phase1	test/STIM_006.jpg
463.526	1.348	correct	test	Phase1	test/STIM_007.jpg
466.854	1.088	correct	test	Phase1	test/STIM_007.jpg
471.302	0.912	correct	test	Phase1	test/STIM_007.jpg
474.278	1.214	correct	test	Phase1	test/STIM_008.jpg
478.082	0.953	correct	test	Phase1	test/STIM_008.jpg
482.565	0.733	correct	test	Phase1	test/STIM_008.jpg
487.074	1.27	correct	test	Phase1	test/STIM_009.jpg
491.776	1.195	correct	test	Phase1	test/STIM_009.jpg
494.777	1.148	correct	test	Phase1	test/STIM_009.jpg
499.632	1.318	correct	test	Phase1	test/STIM_010.jpg
504.219	1.225	correct	test	Phase1	test/STIM_010.jpg
507.337	0.772	correct	test	Phase1	test/STIM_010.jpg
511.076	0.683	correct	test	Phase1	test/STIM_011.jpg
515.407	1.414	correct	test	Phase1	test/STIM_011.jpg
519.956	1.282	correct	test	Phase1	test/STIM_011.jpg
523.474	1.141	correct	test	Phase1	test/STIM_012.jpg
526.783	1.11	correct	test	Phase1	test/STIM_012.jpg
530.4	0.887	correct	test	Phase1	test/STIM_012.jpg
533.776	1.036	correct	test	Phase1	test/STIM_013.jpg
537.599	1.072	correct	test	Phase1	test/STIM_013.jpg
541.227	1.057	correct	test	Phase1	test/STIM_013.jpg
544.373	1.14	correct	test	Phase1	test/STIM_014.jpg
547.507	1.192	correct	test	Phase1	test/STIM_014.jpg
551.444	1.097	correct	test	Phase1	test/STIM_014.jpg
555.509	0.846	incorrect	test	Phase1	test/STIM_015.jpg
558.723	1.039	correct	test	Phase1	test/STIM_015.jpg
561.902	1.126	correct	test	Phase1	test/STIM_015.jpg
565.499	1.29	correct	test	Phase1	test/STIM_016.jpg
569.542	1.147	correct	test	Phase1	test/STIM_016.jpg
573.791	1.09	correct	test	Phase1	test/STIM_016.jpg
578.14	0.984	correct	test	Phase1	test/STIM_017.jpg
582.87	1.105	correct	test	Phase1	test/STIM_017.jpg
587.395	1.032	correct	test	Phase1	test/STIM_017.jpg
591.431	1.387	correct	test	Phase1	test/STIM_018.jpg
595.706	0.762	correct	test	Phase1	test/STIM_018.jpg
599.502	1.394	correct	test	Phase1	test/STIM_018.jpg
604.351	0.915	correct	test	Phase1	test/STIM_019.jpg
607.173	1.382	correct	test	Phase1	test/STIM_019.jpg
610.962	1.079	correct	test	Phase1	test/STIM_019.jpg
614.631	0.826	correct	test	Phase1	test/STIM_020.jpg
618.632	1.518	correct	test	Phase1	test/STIM_020.jpg
623.807	1.264	correct	test	Phase1	test/STIM_020.jpg
628.779	0.694	correct	test	Phase1	test/STIM_021.jpg
632.426	1.157	correct	test	Phase1	test/STIM_021.jpg
635.998	1.306	correct	test	Phase1	test/STIM_021.jpg
641.138	1.389	correct	test	Phase1	test/STIM_022.jpg
645.725	1.381	incorrect	test	Phase1	test/STIM_022.jpg
650.296	0.956	correct	test	Phase1	test/STIM_022.jpg
653.436	1.326	correct	test	Phase1	test/STIM_023.jpg
657.725	0.811	correct	test	Phase1	test/STIM_023.jpg
661.976	1.001	correct	test	Phase1	test/STIM_023.jpg
665.998	0.845	correct	test	Phase1	test/STIM_024.jpg
669.57	1.358	incorrect	test	Phase1	test/STIM_024.jpg
674.049	0.909	correct	test	Phase1	test/STIM_024.jpg
678.763	0.675	incorrect	test	Phase1	test/STIM_025.jpg
681.397	0.985	correct	test	Phase1	test/STIM_025.jpg
685.958	0.876	correct	test	Phase1	test/STIM_025.jpg
689.268	0.736	incorrect	test	Phase1	test/STIM_026.jpg
692.843	1.028	correct	test	Phase1	test/STIM_026.jpg
695.998	0.964	correct	test	Phase1	test/STIM_026.jpg
699.534	0.811	correct	test	Phase1	test/STIM_027.jpg
703.704	1.252	correct	test	Phase1	test/STIM_027.jpg
707.028	1.315	correct	test	Phase1	test/STIM_027.jpg
712.166	0.813	correct	test	Phase1	test/STIM_028.jpg
715.26	1.427	incorrect	test	Phase1	test/STIM_028.jpg
719.532	1.41	correct	test	Phase1	test/STIM_028.jpg
724.022	0.837	correct	test	Phase1	test/STIM_029.jpg
727.112	0.835	correct	test	Phase1	test/STIM_029.jpg
730.426	0.813	correct	test	Phase1	test/STIM_029.jpg
734.149	1.132	correct	study	Phase2	study/STIM_000.jpg
738.13	1.416	correct	study	Phase2	study/STIM_000.jpg
743.346	1.386	correct	study	Phase2	study/STIM_000.jpg
747.064	1.444	correct	study	Phase2	study/STIM_001.jpg
751.089	0.88	correct	study	Phase2	study/STIM_001.jpg
755.012	0.863	correct	study	Phase2	study/STIM_001.jpg
758.585	1.069	correct	study	Phase2	study/STIM_002.jpg
761.604	1.319	correct	study	Phase2	study/STIM_002.jpg
766.167	0.916	correct	study	Phase2	study/STIM_002.jpg
770.069	1.23	correct	study	Phase2	study/STIM_003.jpg
773.302	1.062	correct	study	Phase2	study/STIM_003.jpg
776.678	0.997	correct	study	Phase2	study/STIM_003.jpg
780.152	1.546	correct	study	Phase2	study/STIM_004.jpg
783.645	1.247	incorrect	study	Phase2	study/STIM_004.jpg
787.854	1.04	correct	study	Phase2	study/STIM_004.jpg
792.161	0.877	correct	study	Phase2	study/STIM_005.jpg
796.815	0.928	correct	study	Phase2	study/STIM_005.jpg
799.736	1.028	correct	study	Phase2	study/STIM_005.jpg
803.795	1.093	correct	study	Phase2	study/STIM_006.jpg
807.839	1.507	correct	study	Phase2	study/STIM_006.jpg
813.08	1.195	correct	study	Phase2	study/STIM_006.jpg
817.217	1.376	incorrect	study	Phase2	study/STIM_007.jpg
822.315	0.91	correct	study	Phase2	study/STIM_007.jpg
825.944	1.412	incorrect	study	Phase2	study/STIM_007.jpg
831.011	1.357	correct	study	Phase2	study/STIM_008.jpg
835.23	1.13	correct	study	Phase2	study/STIM_008.jpg
838.923	0.717	correct	study	Phase2	study/STIM_008.jpg
842.834	0.82	correct	study	Phase2	study/STIM_009.jpg
847.305	0.776	correct	study	Phase2	study/STIM_009.jpg
850.026	1.366	correct	study	Phase2	study/STIM_009.jpg
854.924	1.606	correct	study	Phase2	study/STIM_010.jpg
859.488	1.295	correct	study	Phase2	study/STIM_010.jpg
864.263	1.072	correct	study	Phase2	study/STIM_010.jpg
867.903	0.79	correct	study	Phase2	study/STIM_011.jpg
871.256	1.273	correct	study	Phase2	study/STIM_011.jpg
876.163	1.155	correct	study	Phase2	study/STIM_011.jpg
880.561	1.16	incorrect	study	Phase2	study/STIM_012.jpg
883.583	1.273	correct	study	Phase2	study/STIM_012.jpg
888.146	0.718	correct	study	Phase2	study/STIM_012.jpg
892.659	1.44	correct	study	Phase2	study/STIM_013.jpg
897.555	1.497	correct	study	Phase2	study/STIM_013.jpg
901.785	0.694	correct	study	Phase2	study/STIM_013.jpg
904.664	1.18	correct	study	Phase2	study/STIM_014.jpg
909.714	1.069	correct	study	Phase2	study/STIM_014.jpg
914.579	1.156	correct	study	Phase2	study/STIM_014.jpg
918.754	1.45	correct	study	Phase2	study/STIM_015.jpg
923.649	0.88	correct	study	Phase2	study/STIM_015.jpg
928.027	1.225	correct	study	Phase2	study/STIM_015.jpg
932.562	0.788	correct	study	Phase2	study/STIM_016.jpg
935.722	1.267	correct	study	Phase2	study/STIM_016.jpg
939.25	1.004	correct	study	Phase2	study/STIM_016.jpg
943.021	1.346	correct	study	Phase2	study/STIM_017.jpg
946.607	0.757	correct	study	Phase2	study/STIM_017.jpg
950.632	1.139	correct	study	Phase2	study/STIM_017.jpg
954.446	1.115	correct	study	Phase2	study/STIM_018.jpg
957.424	1.27	correct	study	Phase2	study/STIM_018.jpg
961.791	1.256	correct	study	Phase2	study/STIM_018.jpg
966.646	1.118	correct	study	Phase2	study/STIM_019.jpg
970.09	0.758	correct	study	Phase2	study/STIM_019.jpg
974.704	1.264	correct	study	Phase2	study/STIM_019.jpg
978.465	0.827	incorrect	study	Phase2	study/STIM_020.jpg
982.317	1.217	correct	study	Phase2	study/STIM_020.jpg
985.666	0.977	correct	study	Phase2	study/STIM_020.jpg
989.533	0.791	correct	study	Phase2	study/STIM_021.jpg
992.988	1.173	correct	study	Phase2	study/STIM_021.jpg
996.35	0.654	correct	study	Phase2	study/STIM_021.jpg
1000.618	1.047	correct	study	Phase2	study/STIM_022.jpg
1004.576	0.981	correct	study	Phase2	study/STIM_022.jpg
1009.314	0.888	correct	study	Phase2	study/STIM_022.jpg
1013.585	1.494	correct	study	Phase2	study/STIM_023.jpg
1018.35	0.886	correct	study	Phase2	study/STIM_023.jpg
1022.588	0.727	correct	study	Phase2	study/STIM_023.jpg
1027.163	1.052	correct	study	Phase2	study/STIM_024.jpg
1032.111	1.069	correct	study	Phase2	study/STIM_024.jpg
1036.016	0.788	correct	study	Phase2	study/STIM_024.jpg
1040.327	0.746	correct	study	Phase2	study/STIM_025.jpg
1044.686	0.964	correct	study	Phase2	study/STIM_025.jpg
1048.376	1.379	correct	study	Phase2	study/STIM_025.jpg
1052.228	1.452	correct	study	Phase2	study/STIM_026.jpg
1055.708	0.892	correct	study	Phase2	study/STIM_026.jpg
1058.694	1.478	correct	study	Phase2	study/STIM_026.jpg
1063.468	1.1	correct	study	Phase2	study/STIM_027.jpg
1066.762	1.122	correct	study	Phase2	study/STIM_027.jpg
1071.136	1.072	correct	study	Phase2	study/STIM_027.jpg
1075.791	1.059	correct	study	Phase2	study/STIM_028.jpg
1079.7	0.781	incorrect	study	Phase2	study/STIM_028.jpg
1084.007	1.066	correct	study	Phase2	study/STIM_028.jpg
1088.175	1.574	correct	study	Phase2	study/STIM_029.jpg
1092.664	0.957	correct	study	Phase2	study/STIM_029.jpg
1096.298	0.7	correct	study	Phase2	study/STIM_029.jpg
1099.521	1.163	correct	test	Phase2	test/STIM_000.jpg
1102.799	1.046	correct	test	Phase2	test/STIM_000.jpg
1107.712	1.268	incorrect	test	Phase2	test/STIM_000.jpg
1111.596	0.727	correct	test	Phase2	test/STIM_001.jpg
1115.248	1.12	correct	test	Phase2	test/STIM_001.jpg
1118.666	0.747	correct	test	Phase2	test/STIM_001.jpg
1121.46	1.184	incorrect	test	Phase2	test/STIM_002.jpg
1126.32	1.199	correct	test	Phase2	test/STIM_002.jpg
1130.652	0.816	correct	test	Phase2	test/STIM_002.jpg
1135.091	0.703	correct	test	Phase2	test/STIM_003.jpg
1139.18	1.201	correct	test	Phase2	test/STIM_003.jpg
1144.25	1.114	correct	test	Phase2	test/STIM_003.jpg
1148.025	1.134	correct	test	Phase2	test/STIM_004.jpg
1152.42	0.602	incorrect	test	Phase2	test/STIM_004.jpg
1156.671	1.416	incorrect	test	Phase2	test/STIM_004.jpg
1161.396	1.443	incorrect	test	Phase2	test/STIM_005.jpg
1164.741	0.887	correct	test	Phase2	test/STIM_005.jpg
1168.128	1.421	correct	test	Phase2	test/STIM_005.jpg
1171.396	1.086	incorrect	test	Phase2	test/STIM_006.jpg
1175.412	0.866	correct	test	Phase2	test/STIM_006.jpg
1178.762	0.984	correct	test	Phase2	test/STIM_006.jpg
1182.397	1.245	correct	test	Phase2	test/STIM_007.jpg
1186.423	0.858	correct	test	Phase2	test/STIM_007.jpg
1191.102	0.884	correct	test	Phase2	test/STIM_007.jpg
1194.343	0.787	incorrect	test	Phase2	test/STIM_008.jpg
1199.004	1.101	correct	test	Phase2	test/STIM_008.jpg
1202.018	1.156	correct	test	Phase2	test/STIM_008.jpg
1205.776	0.765	correct	test	Phase2	test/STIM_009.jpg
1209.895	0.983	correct	test	Phase2	test/STIM_009.jpg
1212.905	1.076	correct	test	Phase2	test/STIM_009.jpg
1217.634	0.924	correct	test	Phase2	test/STIM_010.jpg
1222.373	1.209	correct	test	Phase2	test/STIM_010.jpg
1225.572	1.429	correct	test	Phase2	test/STIM_010.jpg
1229.228	1.144	correct	test	Phase2	test/STIM_011.jpg
1232.315	1.106	correct	test	Phase2	test/STIM_011.jpg
1236.177	1.227	correct	test	Phase2	test/STIM_011.jpg
1241.161	1.137	correct	test	Phase2	test/STIM_012.jpg
1244.799	0.666	correct	test	Phase2	test/STIM_012.jpg
1247.557	1.248	correct	test	Phase2	test/STIM_012.jpg
1252.188	1.027	correct	test	Phase2	test/STIM_013.jpg
1256.391	0.67	correct	test	Phase2	test/STIM_013.jpg
1260.569	1.344	correct	test	Phase2	test/STIM_013.jpg
1264.868	1.153	correct	test	Phase2	test/STIM_014.jpg
1269.767	1.405	incorrect	test	Phase2	test/STIM_014.jpg
1274.956	1.449	correct	test	Phase2	test/STIM_014.jpg
1278.814	0.967	correct	test	Phase2	test/STIM_015.jpg
1282.004	1.171	correct	test	Phase2	test/STIM_015.jpg
1285.795	0.658	correct	test	Phase2	test/STIM_015.jpg
1288.616	1.255	correct	test	Phase2	test/STIM_016.jpg
1293.406	1.091	correct	test	Phase2	test/STIM_016.jpg
1297.581	1.179	correct	test	Phase2	test/STIM_016.jpg
1301.129	0.942	correct	test	Phase2	test/STIM_017.jpg
1304.265	1.259	correct	test	Phase2	test/STIM_017.jpg
1308.942	1.534	correct	test	Phase2	test/STIM_017.jpg
1313.13	0.894	incorrect	test	Phase2	test/STIM_018.jpg
1317.35	0.847	incorrect	test	Phase2	test/STIM_018.jpg
1320.586	1.328	correct	test	Phase2	test/STIM_018.jpg
1324.315	1.256	correct	test	Phase2	test/STIM_019.jpg
1327.594	1.018	correct	test	Phase2	test/STIM_019.jpg
1332.314	0.995	correct	test	Phase2	test/STIM_019.jpg
1337.135	0.977	correct	test	Phase2	test/STIM_020.jpg
1341.261	1.317	correct	test	Phase2	test/STIM_020.jpg
1345.051	0.84	correct	test	Phase2	test/STIM_020.jpg
1348.206	1.288	correct	test	Phase2	test/STIM_021.jpg
1352.174	1.455	correct	test	Phase2	test/STIM_021.jpg
1356.085	1.214	correct	test	Phase2	test/STIM_021.jpg
1361.053	0.848	correct	test	Phase2	test/STIM_022.jpg
1365.195	1.279	correct	test	Phase2	test/STIM_022.jpg
1368.93	1.164	correct	test	Phase2	test/STIM_022.jpg
1372.046	1.377	incorrect	test	Phase2	test/STIM_023.jpg
1376.25	1.353	correct	test	Phase2	test/STIM_023.jpg
1380.28	1.397	incorrect	test	Phase2	test/STIM_023.jpg
1385.262	0.889	correct	test	Phase2	test/STIM_024.jpg
1388.375	1.29	correct	test	Phase2	test/STIM_024.jpg
1391.698	1.376	correct	test	Phase2	test/STIM_024.jpg
1396.443	1.231	incorrect	test	Phase2	test/STIM_025.jpg
1400.021	0.879	correct	test	Phase2	test/STIM_025.jpg
1404.085	1.432	correct	test	Phase2	test/STIM_025.jpg
1408.318	0.776	correct	test	Phase2	test/STIM_026.jpg
1412.848	0.715	correct	test	Phase2	test/STIM_026.jpg
1416.194	0.992	correct	test	Phase2	test/STIM_026.jpg
1419.933	0.956	correct	test	Phase2	test/STIM_027.jpg
1423.044	1.226	correct	test	Phase2	test/STIM_027.jpg
1427.946	1.36	correct	test	Phase2	test/STIM_027.jpg
1432.577	1.254	correct	test	Phase2	test/STIM_028.jpg
1436.408	0.867	incorrect	test	Phase2	test/STIM_028.jpg
1439.725	1.353	correct	test	Phase2	test/STIM_028.jpg
1443.177	1.141	correct	test	Phase2	test/STIM_029.jpg
1447.674	0.952	correct	test	Phase2	test/STIM_029.jpg
1451.294	0.91	correct	test	Phase2	test/STIM_029.jpg
1455.452	0.957	correct	study	Phase3	study/STIM_000.jpg
1459.521	0.902	correct	study	Phase3	study/STIM_000.jpg
1462.75	0.597	correct	study	Phase3	study/STIM_000.jpg
1467.242	1.239	correct	study	Phase3	study/STIM_001.jpg
1471.943	1.417	correct	study	Phase3	study/STIM_001.jpg
1476.179	0.706	correct	study	Phase3	study/STIM_001.jpg
1479.272	1.093	correct	study	Phase3	study/STIM_002.jpg
1483.363	0.968	correct	study	Phase3	study/STIM_002.jpg
1486.332	1.456	correct	study	Phase3	study/STIM_002.jpg
1491.022	0.738	correct	study	Phase3	study/STIM_003.jpg
1494.969	0.679	incorrect	study	Phase3	study/STIM_003.jpg
1498.849	0.687	correct	study	Phase3	study/STIM_003.jpg
1503.064	1.263	correct	study	Phase3	study/STIM_004.jpg
1507.105	1.128	correct	study	Phase3	study/STIM_004.jpg
1511.767	1.016	correct	study	Phase3	study/STIM_004.jpg
1516.049	1.091	correct	study	Phase3	study/STIM_005.jpg
1520.309	0.904	correct	study	Phase3	study/STIM_005.jpg
1525.036	1.164	correct	study	Phase3	study/STIM_005.jpg
1529.599	0.682	correct	study	Phase3	study/STIM_006.jpg
1532.885	0.874	correct	study	Phase3	study/STIM_006.jpg
1536.154	0.78	correct	study	Phase3	study/STIM_006.jpg
1539.741	0.611	correct	study	Phase3	study/STIM_007.jpg
1543.855	0.591	correct	study	Phase3	study/STIM_007.jpg
1547.415	0.994	correct	study	Phase3	study/STIM_007.jpg
1551.627	0.644	correct	study	Phase3	study/STIM_008.jpg
1554.4	0.936	correct	study	Phase3	study/STIM_008.jpg
1557.611	0.932	correct	study	Phase3	study/STIM_008.jpg
1560.796	1.03	correct	study	Phase3	study/STIM_009.jpg
1564.455	1.302	correct	study	Phase3	study/STIM_009.jpg
1568.742	0.765	correct	study	Phase3	study/STIM_009.jpg
1573.182	1.407	correct	study	Phase3	study/STIM_010.jpg
1578.038	0.707	correct	study	Phase3	study/STIM_010.jpg
1580.916	0.566	correct	study	Phase3	study/STIM_010.jpg
1584.595	1.017	correct	study	Phase3	study/STIM_011.jpg
1587.641	0.891	correct	study	Phase3	study/STIM_011.jpg
1592.147	0.692	correct	study	Phase3	study/STIM_011.jpg
1596.733	1.404	correct	study	Phase3	study/STIM_012.jpg
1600.088	1.175	correct	study	Phase3	study/STIM_012.jpg
1604.78	0.891	correct	study	Phase3	study/STIM_012.jpg
1607.926	1.179	correct	study	Phase3	study/STIM_013.jpg
1612.405	0.966	correct	study	Phase3	study/STIM_013.jpg
1616.982	0.8	correct	study	Phase3	study/STIM_013.jpg
1619.872	0.703	correct	study	Phase3	study/STIM_014.jpg
1624.531	1.37	correct	study	Phase3	study/STIM_014.jpg
1628.8	1.111	correct	study	Phase3	study/STIM_014.jpg
1632.863	0.587	correct	study	Phase3	study/STIM_015.jpg
1637.277	1.396	correct	study	Phase3	study/STIM_015.jpg
1640.922	0.636	correct	study	Phase3	study/STIM_015.jpg
1644.12	0.855	incorrect	study	Phase3	study/STIM_016.jpg
1647.378	0.95	correct	study	Phase3	study/STIM_016.jpg
1650.695	0.587	correct	study	Phase3	study/STIM_016.jpg
1653.502	1.158	correct	study	Phase3	study/STIM_017.jpg
1658.283	1.255	correct	study	Phase3	study/STIM_017.jpg
1662.097	0.685	correct	study	Phase3	study/STIM_017.jpg
1666.077	1.406	correct	study	Phase3	study/STIM_018.jpg
1671.011	1.118	correct	study	Phase3	study/STIM_018.jpg
1675.424	0.692	correct	study	Phase3	study/STIM_018.jpg
1678.994	1.194	correct	study	Phase3	study/STIM_019.jpg
1683.158	1.126	correct	study	Phase3	study/STIM_019.jpg
1686.925	0.729	correct	study	Phase3	study/STIM_019.jpg
1690.426	1.094	correct	study	Phase3	study/STIM_020.jpg
1695.003	1.056	correct	study	Phase3	study/STIM_020.jpg
1698.96	0.9	incorrect	study	Phase3	study/STIM_020.jpg
1702.333	0.958	correct	study	Phase3	study/STIM_021.jpg
1706.648	1.189	correct	study	Phase3	study/STIM_021.jpg
1709.86	1.37	correct	study	Phase3	study/STIM_021.jpg
1713.045	0.982	correct	study	Phase3	study/STIM_022.jpg
1717.302	1.022	correct	study	Phase3	study/STIM_022.jpg
1721.026	1.336	correct	study	Phase3	study/STIM_022.jpg
1725.738	0.992	correct	study	Phase3	study/STIM_023.jpg
1729.393	0.64	correct	study	Phase3	study/STIM_023.jpg
1733.586	1.258	correct	study	Phase3	study/STIM_023.jpg
1737.381	1.26	correct	study	Phase3	study/STIM_024.jpg
1742.107	0.92	correct	study	Phase3	study/STIM_024.jpg
1744.864	1.217	correct	study	Phase3	study/STIM_024.jpg
1748.064	1.251	correct	study	Phase3	study/STIM_025.jpg
1752.135	1.129	correct	study	Phase3	study/STIM_025.jpg
1755.652	1.109	correct	study	Phase3	study/STIM_025.jpg
1759.446	0.808	correct	study	Phase3	study/STIM_026.jpg
1763.42	1.235	correct	study	Phase3	study/STIM_026.jpg
1767.732	0.963	correct	study	Phase3	study/STIM_026.jpg
1770.963	1.177	correct	study	Phase3	study/STIM_027.jpg
1775.742	1.191	correct	study	Phase3	study/STIM_027.jpg
1780.374	1.342	correct	study	Phase3	study/STIM_027.jpg
1784.7	0.965	correct	study	Phase3	study/STIM_028.jpg
1789.499	0.688	correct	study	Phase3	study/STIM_028.jpg
1793.193	1.295	correct	study	Phase3	study/STIM_028.jpg
1796.935	1.024	correct	study	Phase3	study/STIM_029.jpg
1800.567	1.228	correct	study	Phase3	study/STIM_029.jpg
1804.037	1.07	correct	study	Phase3	study/STIM_029.jpg
1807.713	0.698	correct	test	Phase3	test/STIM_000.jpg
1812.083	0.811	correct	test	Phase3	test/STIM_000.jpg
1816.625	1.021	correct	test	Phase3	test/STIM_000.jpg
1820.538	0.902	incorrect	test	Phase3	test/STIM_001.jpg
1825.054	0.966	correct	test	Phase3	test/STIM_001.jpg
1828.405	1.034	correct	test	Phase3	test/STIM_001.jpg
1833.367	0.696	incorrect	test	Phase3	test/STIM_002.jpg
1837.594	0.931	correct	test	Phase3	test/STIM_002.jpg
1842.175	1.05	correct	test	Phase3	test/STIM_002.jpg
1845.991	0.81	correct	test	Phase3	test/STIM_003.jpg
1849.712	1.025	incorrect	test	Phase3	test/STIM_003.jpg
1853.895	1.04	correct	test	Phase3	test/STIM_003.jpg
1857.2	0.94	correct	test	Phase3	test/STIM_004.jpg
1861.481	0.832	correct	test	Phase3	test/STIM_004.jpg
1864.875	1.176	correct	test	Phase3	test/STIM_004.jpg
1869.37	0.667	correct	test	Phase3	test/STIM_005.jpg
1873.175	1.187	correct	test	Phase3	test/STIM_005.jpg
1877.103	0.958	correct	test	Phase3	test/STIM_005.jpg
1881.794	1.389	incorrect	test	Phase3	test/STIM_006.jpg
1886.019	1.068	correct	test	Phase3	test/STIM_006.jpg
1890.83	1.033	correct	test	Phase3	test/STIM_006.jpg
1895.085	1.281	correct	test	Phase3	test/STIM_007.jpg
1899.896	0.858	correct	test	Phase3	test/STIM_007.jpg
1903.859	0.856	correct	test	Phase3	test/STIM_007.jpg
1908.182	1.307	correct	test	Phase3	test/STIM_008.jpg
1911.375	1.368	correct	test	Phase3	test/STIM_008.jpg
1915.402	0.764	incorrect	test	Phase3	test/STIM_008.jpg
1918.729	0.769	correct	test	Phase3	test/STIM_009.jpg
1923.125	1.116	correct	test	Phase3	test/STIM_009.jpg
1928.12	1.262	correct	test	Phase3	test/STIM_009.jpg
1932.086	1.089	correct	test	Phase3	test/STIM_010.jpg
1936.375	0.811	correct	test	Phase3	test/STIM_010.jpg
1939.41	0.676	correct	test	Phase3	test/STIM_010.jpg
1943.924	0.832	correct	test	Phase3	test/STIM_011.jpg
1947.35	1.35	correct	test	Phase3	test/STIM_011.jpg
1950.747	1.014	correct	test	Phase3	test/STIM_011.jpg
1954.55	1.301	correct	test	Phase3	test/STIM_012.jpg
1958.003	1.404	correct	test	Phase3	test/STIM_012.jpg
1962.665	1.279	correct	test	Phase3	test/STIM_012.jpg
1966.921	0.815	correct	test	Phase3	test/STIM_013.jpg
1971.133	0.927	correct	test	Phase3	test/STIM_013.jpg
1974.449	1.31	correct	test	Phase3	test/STIM_013.jpg
1978.059	0.669	correct	test	Phase3	test/STIM_014.jpg
1981.964	1.167	correct	test	Phase3	test/STIM_014.jpg
1985.196	1.419	correct	test	Phase3	test/STIM_014.jpg
1989.233	1.292	correct	test	Phase3	test/STIM_015.jpg
1993.423	1.152	correct	test	Phase3	test/STIM_015.jpg
1998.227	0.7	incorrect	test	Phase3	test/STIM_015.jpg
2002.24	0.639	correct	test	Phase3	test/STIM_016.jpg
2005.718	0.867	correct	test	Phase3	test/STIM_016.jpg
2009.109	1.075	correct	test	Phase3	test/STIM_016.jpg
2013.14	1.347	correct	test	Phase3	test/STIM_017.jpg
2017.664	0.785	incorrect	test	Phase3	test/STIM_017.jpg
2020.72	0.925	correct	test	Phase3	test/STIM_017.jpg
2024.531	1.332	correct	test	Phase3	test/STIM_018.jpg
2028.61	1.152	correct	test	Phase3	test/STIM_018.jpg
2032.08	1.357	correct	test	Phase3	test/STIM_018.jpg
2035.531	1.363	correct	test	Phase3	test/STIM_019.jpg
2040.079	0.847	correct	test	Phase3	test/STIM_019.jpg
2044.414	1.17	correct	test	Phase3	test/STIM_019.jpg
2049.065	0.683	correct	test	Phase3	test/STIM_020.jpg
2053.66	1.294	correct	test	Phase3	test/STIM_020.jpg
2057.387	1.183	correct	test	Phase3	test/STIM_020.jpg
2062.246	0.681	correct	test	Phase3	test/STIM_021.jpg
2066.597	1.247	correct	test	Phase3	test/STIM_021.jpg
2070.16	1.149	correct	test	Phase3	test/STIM_021.jpg
2073.371	0.75	incorrect	test	Phase3	test/STIM_022.jpg
2077.175	0.951	correct	test	Phase3	test/STIM_022.jpg
2081.072	0.938	correct	test	Phase3	test/STIM_022.jpg
2084.114	0.726	correct	test	Phase3	test/STIM_023.jpg
2088.37	1.341	incorrect	test	Phase3	test/STIM_023.jpg
2092.096	1.045	correct	test	Phase3	test/STIM_023.jpg
2096.215	1.2	incorrect	test	Phase3	test/STIM_024.jpg
2100.546	0.774	correct	test	Phase3	test/STIM_024.jpg
2105.201	1.369	correct	test	Phase3	test/STIM_024.jpg
2108.986	0.934	correct	test	Phase3	test/STIM_025.jpg
2111.783	1.456	correct	test	Phase3	test/STIM_025.jpg
2116.517	1.003	correct	test	Phase3	test/STIM_025.jpg
2120.105	1.168	correct	test	Phase3	test/STIM_026.jpg
2125.031	1.432	correct	test	Phase3	test/STIM_026.jpg
2129.829	1.278	correct	test	Phase3	test/STIM_026.jpg
2134.897	1.23	correct	test	Phase3	test/STIM_027.jpg
2138.269	0.948	correct	test	Phase3	test/STIM_027.jpg
2142.142	1.335	correct	test	Phase3	test/STIM_027.jpg
2146.885	0.644	correct	test	Phase3	test/STIM_028.jpg
2151.371	0.803	correct	test	Phase3	test/STIM_028.jpg
2155.214	0.955	correct	test	Phase3	test/STIM_028.jpg
2159.989	0.86	correct	test	Phase3	test/STIM_029.jpg
2163.357	1.219	correct	test	Phase3	test/STIM_029.jpg
2167.365	0.924	correct	test	Phase3	test/STIM_029.jpg
