onset	duration	response_time_ms	trial_type	learning_stage	stimulus	response_port
0.0	1.663	1663.4	study	Phase1	study/STIM_000.jpg	100
4.872	0.951	951.2	study	Phase1	study/STIM_000.jpg	99
8.241	0.766	765.8	study	Phase1	study/STIM_000.jpg	100
12.959	0.794	793.8	study	Phase1	study/STIM_001.jpg	100
17.528	1.117	1116.8	study	Phase1	study/STIM_001.jpg	99
21.342	1.178	1177.9	study	Phase1	study/STIM_001.jpg	99
24.605	1.051	1051.0	study	Phase1	study/STIM_002.jpg	100
28.648	1.469	1469.3	study	Phase1	study/STIM_002.jpg	100
32.428	0.748	748.0	study	Phase1	study/STIM_002.jpg	99
37.114	1.103	1103.1	study	Phase1	study/STIM_003.jpg	100
41.687	0.861	861.4	study	Phase1	study/STIM_003.jpg	100
44.838	1.573	1572.7	study	Phase1	study/STIM_003.jpg	100
48.949	1.413	1412.6	study	Phase1	study/STIM_004.jpg	100
53.669	1.173	1173.1	study	Phase1	study/STIM_004.jpg	99
57.814	1.594	1594.5	study	Phase1	study/STIM_004.jpg	100
63.357	1.7	1699.9	study	Phase1	study/STIM_005.jpg	100
67.727	1.431	1431.4	study	Phase1	study/STIM_005.jpg	99
72.017	1.483	1483.2	study	Phase1	study/STIM_005.jpg	100
76.093	1.704	1704.3	study	Phase1	study/STIM_006.jpg	100
79.928	0.862	862.3	study	Phase1	study/STIM_006.jpg	99
84.387	1.412	1411.8	study	Phase1	study/STIM_006.jpg	100
88.316	1.564	1563.6	study	Phase1	study/STIM_007.jpg	100
92.768	0.877	876.9	study	Phase1	study/STIM_007.jpg	99
95.788	1.251	1251.1	study	Phase1	study/STIM_007.jpg	100
100.071	1.404	1403.9	study	Phase1	study/STIM_008.jpg	99
105.13	1.099	1099.0	study	Phase1	study/STIM_008.jpg	99
109.157	1.563	1563.1	study	Phase1	study/STIM_008.jpg	100
113.342	1.027	1026.9	study	Phase1	study/STIM_009.jpg	100
117.679	1.616	1615.5	study	Phase1	study/STIM_009.jpg	99
122.967	1.326	1326.0	study	Phase1	study/STIM_009.jpg	100
128.076	0.984	984.4	study	Phase1	study/STIM_010.jpg	99
132.741	1.665	1664.6	study	Phase1	study/STIM_010.jpg	100
137.172	1.14	1139.5	study	Phase1	study/STIM_010.jpg	99
141.813	1.593	1592.6	study	Phase1	study/STIM_011.jpg	100
147.014	1.029	1028.9	study	Phase1	study/STIM_011.jpg	100
151.279	1.318	1317.7	study	Phase1	study/STIM_011.jpg	100
155.284	0.988	987.5	study	Phase1	study/STIM_012.jpg	100
158.609	1.292	1291.8	study	Phase1	study/STIM_012.jpg	100
162.708	1.284	1284.3	study	Phase1	study/STIM_012.jpg	100
166.791	1.429	1429.1	study	Phase1	study/STIM_013.jpg	100
171.085	0.931	931.3	study	Phase1	study/STIM_013.jpg	99
174.086	0.858	857.6	study	Phase1	study/STIM_013.jpg	99
178.077	1.572	1571.7	study	Phase1	study/STIM_014.jpg	99
182.689	0.782	782.5	study	Phase1	study/STIM_014.jpg	100
186.856	0.949	948.8	study	Phase1	study/STIM_014.jpg	99
191.012	1.088	1088.4	study	Phase1	study/STIM_015.jpg	100
194.329	1.429	1428.6	study	Phase1	study/STIM_015.jpg	100
197.828	1.48	1480.4	study	Phase1	study/STIM_015.jpg	100
201.634	1.38	1380.4	study	Phase1	study/STIM_016.jpg	99
205.554	1.508	1507.5	study	Phase1	study/STIM_016.jpg	99
209.649	1.546	1545.5	study	Phase1	study/STIM_016.jpg	99
213.478	0.884	883.7	study	Phase1	study/STIM_017.jpg	100
216.868	1.402	1402.0	study	Phase1	study/STIM_017.jpg	100
221.796	1.219	1219.2	study	Phase1	study/STIM_017.jpg	100
225.879	1.649	1649.2	study	Phase1	study/STIM_018.jpg	99
231.312	1.006	1006.3	study	Phase1	study/STIM_018.jpg	100
234.828	1.151	1151.4	study	Phase1	study/STIM_018.jpg	100
238.334	1.359	1359.0	study	Phase1	study/STIM_019.jpg	100
243.049	1.184	1183.6	study	Phase1	study/STIM_019.jpg	99
247.944	1.006	1005.8	study	Phase1	study/STIM_019.jpg	99
251.887	1.71	1710.3	study	Phase1	study/STIM_020.jpg	99
257.391	1.061	1060.6	study	Phase1	study/STIM_020.jpg	100
262.388	1.518	1517.6	study	Phase1	study/STIM_020.jpg	99
266.596	1.391	1391.2	study	Phase1	study/STIM_021.jpg	99
271.067	1.542	1542.3	study	Phase1	study/STIM_021.jpg	99
275.809	1.175	1174.6	study	Phase1	study/STIM_021.jpg	99
279.009	1.385	1384.8	study	Phase1	study/STIM_022.jpg	100
283.931	1.637	1636.6	study	Phase1	study/STIM_022.jpg	100
289.165	1.233	1233.3	study	Phase1	study/STIM_022.jpg	99
293.699	1.578	1578.0	study	Phase1	study/STIM_023.jpg	100
298.598	1.447	1447.3	study	Phase1	study/STIM_023.jpg	100
303.175	0.766	766.5	study	Phase1	study/STIM_023.jpg	100
306.7	1.428	1427.5	study	Phase1	study/STIM_024.jpg	100
311.216	0.761	760.8	study	Phase1	study/STIM_024.jpg	100
315.311	1.171	1170.6	study	Phase1	study/STIM_024.jpg	100
320.347	1.681	1680.8	study	Phase1	study/STIM_025.jpg	99
324.7	0.849	848.8	study	Phase1	study/STIM_025.jpg	99
329.053	1.251	1250.6	study	Phase1	study/STIM_025.jpg	99
332.514	0.944	943.9	study	Phase1	study/STIM_026.jpg	100
336.202	1.094	1093.9	study	Phase1	study/STIM_026.jpg	100
340.888	1.329	1328.7	study	Phase1	study/STIM_026.jpg	99
344.905	1.452	1451.5	study	Phase1	study/STIM_027.jpg	99
350.181	0.981	980.8	study	Phase1	study/STIM_027.jpg	99
354.308	1.069	1069.2	study	Phase1	study/STIM_027.jpg	100
358.681	0.946	945.8	study	Phase1	study/STIM_028.jpg	100
363.216	1.389	1388.7	study	Phase1	study/STIM_028.jpg	100
368.466	0.82	820.2	study	Phase1	study/STIM_028.jpg	100
371.521	0.922	922.2	study	Phase1	study/STIM_029.jpg	99
374.491	1.217	1217.2	study	Phase1	study/STIM_029.jpg	99
378.913	0.986	985.6	study	Phase1	study/STIM_029.jpg	100
383.461	0.86	859.7	test	Phase1	test/STIM_000.jpg	100
387.069	0.649	648.6	test	Phase1	test/STIM_000.jpg	99
391.049	1.214	1213.7	test	Phase1	test/STIM_000.jpg	99
394.421	0.705	705.2	test	Phase1	test/STIM_001.jpg	100
397.365	0.922	922.2	test	Phase1	test/STIM_001.jpg	100
401.583	0.613	613.2	test	Phase1	test/STIM_001.jpg	100
405.551	1.259	1259.0	test	Phase1	test/STIM_002.jpg	100
410.196	0.7	699.9	test	Phase1	test/STIM_002.jpg	100
413.451	0.885	885.0	test	Phase1	test/STIM_002.jpg	99
417.702	0.643	643.0	test	Phase1	test/STIM_003.jpg	99
420.463	1.161	1161.0	test	Phase1	test/STIM_003.jpg	99
424.404	0.88	880.4	test	Phase1	test/STIM_003.jpg	99
427.475	1.234	1234.2	test	Phase1	test/STIM_004.jpg	99
431.502	0.758	758.5	test	Phase1	test/STIM_004.jpg	100
434.276	0.664	664.1	test	Phase1	test/STIM_004.jpg	100
438.877	0.615	615.4	test	Phase1	test/STIM_005.jpg	100
442.922	1.098	1097.9	test	Phase1	test/STIM_005.jpg	100
447.173	0.869	869.1	test	Phase1	test/STIM_005.jpg	100
450.905	1.262	1262.0	test	Phase1	test/STIM_006.jpg	100
454.359	0.791	790.6	test	Phase1	test/STIM_006.jpg	100
458.006	0.809	808.8	test	Phase1	test/STIM_006.jpg	99
460.833	1.027	1027.4	test	Phase1	test/STIM_007.jpg	99
464.567	1.193	1192.6	test	Phase1	test/STIM_007.jpg	100
468.961	1.076	1076.1	test	Phase1	test/STIM_007.jpg	100
473.091	0.865	865.1	test	Phase1	test/STIM_008.jpg	100
476.766	0.97	970.1	test	Phase1	test/STIM_008.jpg	99
480.046	1.113	1112.7	test	Phase1	test/STIM_008.jpg	99
485.073	1.001	1000.9	test	Phase1	test/STIM_009.jpg	99
488.767	0.73	730.1	test	Phase1	test/STIM_009.jpg	100
492.769	1.205	1204.6	test	Phase1	test/STIM_009.jpg	99
496.314	1.062	1061.6	test	Phase1	test/STIM_010.jpg	99
501.356	1.063	1063.2	test	Phase1	test/STIM_010.jpg	99
505.55	0.946	945.9	test	Phase1	test/STIM_010.jpg	99
508.653	0.725	725.0	test	Phase1	test/STIM_011.jpg	100
512.975	0.716	716.2	test	Phase1	test/STIM_011.jpg	99
517.211	1.067	1067.0	test	Phase1	test/STIM_011.jpg	99
520.378	0.917	916.8	test	Phase1	test/STIM_012.jpg	99
523.316	0.662	661.6	test	Phase1	test/STIM_012.jpg	99
527.028	1.048	1047.5	test	Phase1	test/STIM_012.jpg	100
530.676	0.796	796.2	test	Phase1	test/STIM_013.jpg	100
533.807	0.801	801.0	test	Phase1	test/STIM_013.jpg	100
536.78	0.757	756.8	test	Phase1	test/STIM_013.jpg	100
539.844	0.644	644.3	test	Phase1	test/STIM_014.jpg	100
543.544	1.002	1002.3	test	Phase1	test/STIM_014.jpg	100
547.554	0.595	595.2	test	Phase1	test/STIM_014.jpg	99
550.152	1.034	1034.0	test	Phase1	test/STIM_015.jpg	100
553.404	0.652	651.8	test	Phase1	test/STIM_015.jpg	99
557.159	1.147	1146.9	test	Phase1	test/STIM_015.jpg	99
561.445	1.202	1202.5	test	Phase1	test/STIM_016.jpg	99
566.044	0.841	841.2	test	Phase1	test/STIM_016.jpg	100
569.668	0.869	868.9	test	Phase1	test/STIM_016.jpg	100
574.393	0.936	935.6	test	Phase1	test/STIM_017.jpg	99
577.614	0.799	799.3	test	Phase1	test/STIM_017.jpg	99
581.008	1.082	1081.7	test	Phase1	test/STIM_017.jpg	100
584.903	0.738	738.0	test	Phase1	test/STIM_018.jpg	99
588.99	1.132	1131.5	test	Phase1	test/STIM_018.jpg	99
592.584	0.601	601.3	test	Phase1	test/STIM_018.jpg	100
597.033	0.762	762.4	test	Phase1	test/STIM_019.jpg	100
600.434	0.861	860.6	test	Phase1	test/STIM_019.jpg	100
604.217	1.091	1090.9	test	Phase1	test/STIM_019.jpg	100
608.836	0.81	809.7	test	Phase1	test/STIM_020.jpg	99
612.743	0.804	804.0	test	Phase1	test/STIM_020.jpg	99
615.574	0.834	834.5	test	Phase1	test/STIM_020.jpg	99
618.514	0.972	972.0	test	Phase1	test/STIM_021.jpg	100
622.33	0.972	971.5	test	Phase1	test/STIM_021.jpg	100
625.712	0.817	817.3	test	Phase1	test/STIM_021.jpg	100
630.45	1.101	1100.9	test	Phase1	test/STIM_022.jpg	100
634.428	0.881	880.9	test	Phase1	test/STIM_022.jpg	100
638.8	1.083	1083.4	test	Phase1	test/STIM_022.jpg	100
643.175	1.072	1072.5	test	Phase1	test/STIM_023.jpg	99
647.937	0.616	616.3	test	Phase1	test/STIM_023.jpg	99
652.101	0.956	955.6	test	Phase1	test/STIM_023.jpg	99
656.712	0.88	880.0	test	Phase1	test/STIM_024.jpg	99
659.969	0.914	914.4	test	Phase1	test/STIM_024.jpg	100
663.132	1.208	1207.6	test	Phase1	test/STIM_024.jpg	100
667.708	0.85	849.5	test	Phase1	test/STIM_025.jpg	99
671.254	1.103	1102.9	test	Phase1	test/STIM_025.jpg	100
675.218	1.184	1183.5	test	Phase1	test/STIM_025.jpg	100
679.926	1.039	1039.0	test	Phase1	test/STIM_026.jpg	99
684.743	0.985	985.4	test	Phase1	test/STIM_026.jpg	100
689.195	0.958	958.0	test	Phase1	test/STIM_026.jpg	99
694.056	0.63	630.0	test	Phase1	test/STIM_027.jpg	100
697.698	1.107	1107.1	test	Phase1	test/STIM_027.jpg	99
701.574	0.722	722.4	test	Phase1	test/STIM_027.jpg	99
704.383	0.858	857.6	test	Phase1	test/STIM_028.jpg	99
708.867	0.937	936.7	test	Phase1	test/STIM_028.jpg	100
712.821	0.754	753.6	test	Phase1	test/STIM_028.jpg	100
716.664	0.839	839.4	test	Phase1	test/STIM_029.jpg	100
719.848	0.904	903.7	test	Phase1	test/STIM_029.jpg	100
724.268	0.594	594.1	test	Phase1	test/STIM_029.jpg	99
727.007	1.128	1128.4	study	Phase2	study/STIM_000.jpg	99
731.042	0.927	927.1	study	Phase2	study/STIM_000.jpg	99
734.028	0.669	669.2	study	Phase2	study/STIM_000.jpg	100
738.47	0.982	981.7	study	Phase2	study/STIM_001.jpg	99
741.78	1.327	1327.0	study	Phase2	study/STIM_001.jpg	100
746.235	0.678	678.1	study	Phase2	study/STIM_001.jpg	99
750.305	0.916	916.4	study	Phase2	study/STIM_002.jpg	100
753.629	1.337	1337.3	study	Phase2	study/STIM_002.jpg	99
758.628	1.107	1107.3	study	Phase2	study/STIM_002.jpg	100
762.399	1.284	1284.2	study	Phase2	study/STIM_003.jpg	100
765.806	0.825	824.9	study	Phase2	study/STIM_003.jpg	99
770.218	0.795	795.2	study	Phase2	study/STIM_003.jpg	99
774.112	0.889	889.0	study	Phase2	study/STIM_004.jpg	99
777.565	0.726	725.5	study	Phase2	study/STIM_004.jpg	99
780.791	0.715	714.9	study	Phase2	study/STIM_004.jpg	100
784.823	0.82	819.7	study	Phase2	study/STIM_005.jpg	99
788.181	1.17	1169.6	study	Phase2	study/STIM_005.jpg	100
792.152	0.908	907.6	study	Phase2	study/STIM_005.jpg	100
795.958	0.7	699.7	study	Phase2	study/STIM_006.jpg	99
800.562	1.249	1249.0	study	Phase2	study/STIM_006.jpg	100
804.269	1.039	1039.4	study	Phase2	study/STIM_006.jpg	100
807.446	1.404	1404.0	study	Phase2	study/STIM_007.jpg	100
812.816	0.696	696.4	study	Phase2	study/STIM_007.jpg	100
815.622	0.633	632.8	study	Phase2	study/STIM_007.jpg	100
818.382	1.333	1333.2	study	Phase2	study/STIM_008.jpg	100
823.585	1.311	1311.0	study	Phase2	study/STIM_008.jpg	99
827.0	1.327	1327.0	study	Phase2	study/STIM_008.jpg	99
830.66	0.737	737.4	study	Phase2	study/STIM_009.jpg	99
833.571	0.861	860.9	study	Phase2	study/STIM_009.jpg	99
837.428	0.692	691.5	study	Phase2	study/STIM_009.jpg	99
840.801	1.16	1160.2	study	Phase2	study/STIM_010.jpg	99
845.94	1.311	1310.6	study	Phase2	study/STIM_010.jpg	99
849.603	1.265	1265.4	study	Phase2	study/STIM_010.jpg	100
854.387	1.091	1091.2	study	Phase2	study/STIM_011.jpg	100
857.744	1.212	1211.7	study	Phase2	study/STIM_011.jpg	99
861.487	0.863	863.0	study	Phase2	study/STIM_011.jpg	100
866.087	1.43	1429.6	study	Phase2	study/STIM_012.jpg	99
870.832	1.318	1318.0	study	Phase2	study/STIM_012.jpg	100
875.801	0.784	784.3	study	Phase2	study/STIM_012.jpg	99
880.454	1.098	1097.9	study	Phase2	study/STIM_013.jpg	100
885.344	1.091	1091.2	study	Phase2	study/STIM_013.jpg	99
888.456	0.784	783.9	study	Phase2	study/STIM_013.jpg	99
892.497	1.169	1169.2	study	Phase2	study/STIM_014.jpg	99
896.693	0.83	829.7	study	Phase2	study/STIM_014.jpg	100
899.543	1.275	1274.7	study	Phase2	study/STIM_014.jpg	99
903.817	1.335	1335.0	study	Phase2	study/STIM_015.jpg	100
907.555	0.813	813.0	study	Phase2	study/STIM_015.jpg	100
910.686	0.927	926.9	study	Phase2	study/STIM_015.jpg	100
915.025	0.944	943.6	study	Phase2	study/STIM_016.jpg	100
917.974	1.33	1330.1	study	Phase2	study/STIM_016.jpg	99
922.392	0.771	770.7	study	Phase2	study/STIM_016.jpg	100
926.784	0.684	683.9	study	Phase2	study/STIM_017.jpg	100
929.672	0.734	734.5	study	Phase2	study/STIM_017.jpg	99
933.782	0.777	777.4	study	Phase2	study/STIM_017.jpg	100
936.653	0.676	676.3	study	Phase2	study/STIM_018.jpg	100
940.652	0.932	931.5	study	Phase2	study/STIM_018.jpg	99
945.136	1.275	1275.1	study	Phase2	study/STIM_018.jpg	99
948.689	1.216	1215.9	study	Phase2	study/STIM_019.jpg	100
952.236	1.001	1001.2	study	Phase2	study/STIM_019.jpg	100
957.097	1.188	1188.4	study	Phase2	study/STIM_019.jpg	99
962.213	0.986	986.4	study	Phase2	study/STIM_020.jpg	100
966.327	1.142	1142.1	study	Phase2	study/STIM_020.jpg	99
971.314	0.787	787.1	study	Phase2	study/STIM_020.jpg	99
975.632	1.408	1407.6	study	Phase2	study/STIM_021.jpg	100
980.463	0.698	697.6	study	Phase2	study/STIM_021.jpg	99
984.672	0.894	894.2	study	Phase2	study/STIM_021.jpg	100
988.327	0.746	745.5	study	Phase2	study/STIM_022.jpg	99
992.898	1.155	1154.8	study	Phase2	study/STIM_022.jpg	100
998.035	0.991	991.1	study	Phase2	study/STIM_022.jpg	99
1002.435	1.106	1106.2	study	Phase2	study/STIM_023.jpg	99
1007.337	1.376	1376.3	study	Phase2	study/STIM_023.jpg	99
1011.382	1.054	1054.2	study	Phase2	study/STIM_023.jpg	100
1015.749	1.268	1268.2	study	Phase2	study/STIM_024.jpg	99
1019.934	1.179	1179.2	study	Phase2	study/STIM_024.jpg	100
1024.505	1.191	1190.7	study	Phase2	study/STIM_024.jpg	99
1027.901	1.428	1428.5	study	Phase2	study/STIM_025.jpg	99
1032.457	1.373	1372.8	study	Phase2	study/STIM_025.jpg	99
1035.998	0.96	959.6	study	Phase2	study/STIM_025.jpg	100
1039.782	1.38	1379.5	study	Phase2	study/STIM_026.jpg	100
1044.974	0.838	837.6	study	Phase2	study/STIM_026.jpg	99
1048.482	0.986	985.5	study	Phase2	study/STIM_026.jpg	99
1051.951	1.485	1485.1	study	Phase2	study/STIM_027.jpg	99
1055.782	1.031	1030.8	study	Phase2	study/STIM_027.jpg	100
1060.021	0.962	961.6	study	Phase2	study/STIM_027.jpg	99
1063.316	1.036	1036.5	study	Phase2	study/STIM_028.jpg	100
1067.512	1.344	1344.3	study	Phase2	study/STIM_028.jpg	100
1071.12	0.627	626.9	study	Phase2	study/STIM_028.jpg	99
1074.622	0.884	884.4	study	Phase2	study/STIM_029.jpg	100
1078.007	0.801	800.7	study	Phase2	study/STIM_029.jpg	100
1082.698	0.741	740.7	study	Phase2	study/STIM_029.jpg	99
1086.477	0.673	673.2	test	Phase2	test/STIM_000.jpg	99
1091.132	1.171	1170.7	test	Phase2	test/STIM_000.jpg	99
1094.355	0.774	773.6	test	Phase2	test/STIM_000.jpg	100
1098.549	1.052	1051.7	test	Phase2	test/STIM_001.jpg	100
1102.533	0.728	727.7	test	Phase2	test/STIM_001.jpg	100
1106.376	0.86	859.9	test	Phase2	test/STIM_001.jpg	99
1111.043	0.938	938.4	test	Phase2	test/STIM_002.jpg	99
1114.62	0.803	803.0	test	Phase2	test/STIM_002.jpg	99
1119.116	1.003	1002.6	test	Phase2	test/STIM_002.jpg	99
1123.447	1.151	1150.9	test	Phase2	test/STIM_003.jpg	100
1127.339	1.236	1235.9	test	Phase2	test/STIM_003.jpg	100
1131.476	1.216	1216.5	test	Phase2	test/STIM_003.jpg	100
1136.101	0.699	698.8	test	Phase2	test/STIM_004.jpg	100
1140.733	0.737	736.7	test	Phase2	test/STIM_004.jpg	100
1144.247	0.839	839.0	test	Phase2	test/STIM_004.jpg	99
1147.556	0.94	939.5	test	Phase2	test/STIM_005.jpg	99
1151.784	0.758	757.7	test	Phase2	test/STIM_005.jpg	99
1156.023	1.069	1068.6	test	Phase2	test/STIM_005.jpg	100
1161.003	1.18	1179.6	test	Phase2	test/STIM_006.jpg	100
1164.218	1.024	1024.5	test	Phase2	test/STIM_006.jpg	99
1168.861	1.156	1155.5	test	Phase2	test/STIM_006.jpg	99
1173.207	1.178	1177.5	test	Phase2	test/STIM_007.jpg	100
1177.236	0.644	643.8	test	Phase2	test/STIM_007.jpg	100
1180.029	1.003	1003.1	test	Phase2	test/STIM_007.jpg	99
1183.87	1.122	1121.8	test	Phase2	test/STIM_008.jpg	100
1187.013	1.222	1221.6	test	Phase2	test/STIM_008.jpg	99
1190.8	1.191	1191.2	test	Phase2	test/STIM_008.jpg	99
1194.735	0.652	651.5	test	Phase2	test/STIM_009.jpg	99
1199.319	0.663	663.0	test	Phase2	test/STIM_009.jpg	100
1202.632	1.042	1042.1	test	Phase2	test/STIM_009.jpg	100
1206.326	0.628	628.3	test	Phase2	test/STIM_010.jpg	100
1210.086	1.245	1245.0	test	Phase2	test/STIM_010.jpg	99
1213.558	1.194	1194.3	test	Phase2	test/STIM_010.jpg	99
1218.572	1.114	1113.8	test	Phase2	test/STIM_011.jpg	100
1222.569	1.095	1095.2	test	Phase2	test/STIM_011.jpg	99
1226.657	1.263	1262.7	test	Phase2	test/STIM_011.jpg	100
1231.892	1.151	1150.8	test	Phase2	test/STIM_012.jpg	99
1235.194	0.77	769.7	test	Phase2	test/STIM_012.jpg	99
1239.42	1.255	1254.6	test	Phase2	test/STIM_012.jpg	99
1244.463	1.185	1185.0	test	Phase2	test/STIM_013.jpg	99
1248.193	0.932	931.8	test	Phase2	test/STIM_013.jpg	99
1252.307	1.096	1095.7	test	Phase2	test/STIM_013.jpg	99
1255.742	1.032	1031.8	test	Phase2	test/STIM_014.jpg	100
1259.627	0.916	915.7	test	Phase2	test/STIM_014.jpg	99
1262.933	0.989	989.2	test	Phase2	test/STIM_014.jpg	99
1266.15	1.081	1081.4	test	Phase2	test/STIM_015.jpg	100
1269.764	0.718	718.2	test	Phase2	test/STIM_015.jpg	99
1273.32	0.942	941.8	test	Phase2	test/STIM_015.jpg	99
1276.266	0.871	870.7	test	Phase2	test/STIM_016.jpg	99
1280.91	0.726	726.0	test	Phase2	test/STIM_016.jpg	100
1284.399	1.013	1013.0	test	Phase2	test/STIM_016.jpg	100
1287.951	0.764	764.1	test	Phase2	test/STIM_017.jpg	99
1290.951	1.265	1264.6	test	Phase2	test/STIM_017.jpg	100
1294.76	0.84	840.3	test	Phase2	test/STIM_017.jpg	100
1298.948	0.972	972.3	test	Phase2	test/STIM_018.jpg	99
1303.432	0.725	724.8	test	Phase2	test/STIM_018.jpg	99
1308.09	0.719	718.9	test	Phase2	test/STIM_018.jpg	99
1312.774	0.878	878.5	test	Phase2	test/STIM_019.jpg	99
1317.25	0.826	825.6	test	Phase2	test/STIM_019.jpg	100
1320.74	0.789	789.0	test	Phase2	test/STIM_019.jpg	100
1325.02	1.189	1188.8	test	Phase2	test/STIM_020.jpg	99
1328.851	1.219	1219.3	test	Phase2	test/STIM_020.jpg	100
1333.621	1.107	1107.0	test	Phase2	test/STIM_020.jpg	99
1337.083	0.986	985.8	test	Phase2	test/STIM_021.jpg	99
1341.257	1.103	1102.9	test	Phase2	test/STIM_021.jpg	100
1345.348	0.978	977.5	test	Phase2	test/STIM_021.jpg	100
1350.181	1.056	1055.8	test	Phase2	test/STIM_022.jpg	100
1353.725	0.594	594.1	test	Phase2	test/STIM_022.jpg	99
1356.952	1.062	1061.8	test	Phase2	test/STIM_022.jpg	100
1361.7	0.651	650.7	test	Phase2	test/STIM_023.jpg	100
1366.1	0.881	881.4	test	Phase2	test/STIM_023.jpg	99
1369.873	1.135	1134.7	test	Phase2	test/STIM_023.jpg	99
1373.139	0.955	955.3	test	Phase2	test/STIM_024.jpg	100
1376.129	0.716	715.8	test	Phase2	test/STIM_024.jpg	99
1379.425	0.732	732.5	test	Phase2	test/STIM_024.jpg	100
1383.469	1.172	1171.5	test	Phase2	test/STIM_025.jpg	100
1386.741	0.594	593.6	test	Phase2	test/STIM_025.jpg	99
1391.091	0.66	660.5	test	Phase2	test/STIM_025.jpg	99
1395.352	1.033	1032.6	test	Phase2	test/STIM_026.jpg	100
1399.451	1.124	1124.3	test	Phase2	test/STIM_026.jpg	100
1403.353	0.645	644.6	test	Phase2	test/STIM_026.jpg	100
1407.92	0.787	786.6	test	Phase2	test/STIM_027.jpg	100
1412.165	0.752	752.1	test	Phase2	test/STIM_027.jpg	99
1415.649	0.675	675.2	test	Phase2	test/STIM_027.jpg	100
1418.359	1.141	1140.9	test	Phase2	test/STIM_028.jpg	99
1422.465	0.949	949.3	test	Phase2	test/STIM_028.jpg	100
1426.816	0.814	814.3	test	Phase2	test/STIM_028.jpg	99
1430.491	1.071	1071.4	test	Phase2	test/STIM_029.jpg	100
1433.741	0.996	996.5	test	Phase2	test/STIM_029.jpg	100
1438.387	1.051	1050.6	test	Phase2	test/STIM_029.jpg	100
1442.961	0.893	893.2	study	Phase3	study/STIM_000.jpg	99
1447.425	1.087	1087.4	study	Phase3	study/STIM_000.jpg	100
1452.318	0.704	704.0	study	Phase3	study/STIM_000.jpg	100
1455.454	1.217	1217.2	study	Phase3	study/STIM_001.jpg	100
1460.614	0.991	991.3	study	Phase3	study/STIM_001.jpg	100
1464.713	1.16	1159.7	study	Phase3	study/STIM_001.jpg	100
1468.138	0.749	749.3	study	Phase3	study/STIM_002.jpg	99
1471.139	0.777	777.1	study	Phase3	study/STIM_002.jpg	100
1474.681	0.858	857.5	study	Phase3	study/STIM_002.jpg	100
1479.528	0.956	955.6	study	Phase3	study/STIM_003.jpg	100
1483.366	0.668	667.8	study	Phase3	study/STIM_003.jpg	100
1487.561	0.779	778.9	study	Phase3	study/STIM_003.jpg	99
1490.526	0.57	569.7	study	Phase3	study/STIM_004.jpg	100
1494.98	0.789	788.7	study	Phase3	study/STIM_004.jpg	100
1499.203	1.066	1065.8	study	Phase3	study/STIM_004.jpg	99
1503.496	1.004	1004.5	study	Phase3	study/STIM_005.jpg	100
1507.79	0.904	903.7	study	Phase3	study/STIM_005.jpg	99
1511.217	0.991	991.3	study	Phase3	study/STIM_005.jpg	99
1515.83	0.67	669.9	study	Phase3	study/STIM_006.jpg	100
1520.135	1.199	1199.3	study	Phase3	study/STIM_006.jpg	100
1523.462	1.019	1018.7	study	Phase3	study/STIM_006.jpg	99
1526.666	1.142	1141.5	study	Phase3	study/STIM_007.jpg	100
1530.82	1.095	1095.1	study	Phase3	study/STIM_007.jpg	100
1535.708	0.78	780.1	study	Phase3	study/STIM_007.jpg	100
1538.752	0.996	995.8	study	Phase3	study/STIM_008.jpg	100
1543.696	1.033	1032.9	study	Phase3	study/STIM_008.jpg	100
1547.127	1.043	1042.9	study	Phase3	study/STIM_008.jpg	100
1550.977	1.091	1091.1	study	Phase3	study/STIM_009.jpg	100
1554.258	1.095	1095.4	study	Phase3	study/STIM_009.jpg	99
1557.984	0.802	801.8	study	Phase3	study/STIM_009.jpg	100
1562.693	1.199	1198.8	study	Phase3	study/STIM_010.jpg	99
1567.634	0.956	955.8	study	Phase3	study/STIM_010.jpg	100
1572.281	1.103	1103.3	study	Phase3	study/STIM_010.jpg	100
1576.206	0.877	877.2	study	Phase3	study/STIM_011.jpg	100
1580.444	1.166	1166.5	study	Phase3	study/STIM_011.jpg	100
1585.262	0.8	800.2	study	Phase3	study/STIM_011.jpg	99
1588.143	0.882	882.0	study	Phase3	study/STIM_012.jpg	100
1591.037	1.001	1001.4	study	Phase3	study/STIM_012.jpg	99
1596.033	0.624	623.6	study	Phase3	study/STIM_012.jpg	99
1599.091	0.694	693.8	study	Phase3	study/STIM_013.jpg	99
1601.798	0.68	680.2	study	Phase3	study/STIM_013.jpg	99
1604.479	1.046	1045.9	study	Phase3	study/STIM_013.jpg	100
1608.317	0.623	623.1	study	Phase3	study/STIM_014.jpg	100
1611.881	1.24	1239.5	study	Phase3	study/STIM_014.jpg	99
1615.16	0.695	694.7	study	Phase3	study/STIM_014.jpg	100
1618.766	1.016	1016.3	study	Phase3	study/STIM_015.jpg	99
1622.801	1.129	1129.1	study	Phase3	study/STIM_015.jpg	99
1626.086	1.129	1129.3	study	Phase3	study/STIM_015.jpg	99
1630.322	1.129	1128.8	study	Phase3	study/STIM_016.jpg	99
1634.555	1.112	1111.5	study	Phase3	study/STIM_016.jpg	100
1637.733	1.21	1210.5	study	Phase3	study/STIM_016.jpg	99
1642.45	0.856	856.1	study	Phase3	study/STIM_017.jpg	100
1646.286	1.048	1048.4	study	Phase3	study/STIM_017.jpg	99
1649.772	0.844	843.9	study	Phase3	study/STIM_017.jpg	99
1654.227	0.718	717.6	study	Phase3	study/STIM_018.jpg	100
1658.725	1.116	1115.7	study	Phase3	study/STIM_018.jpg	100
1663.46	1.156	1156.4	study	Phase3	study/STIM_018.jpg	100
1668.237	0.842	841.8	study	Phase3	study/STIM_019.jpg	100
1671.184	1.161	1160.6	study	Phase3	study/STIM_019.jpg	99
1674.897	0.77	770.4	study	Phase3	study/STIM_019.jpg	100
1679.511	1.22	1220.2	study	Phase3	study/STIM_020.jpg	99
1683.424	0.59	589.6	study	Phase3	study/STIM_020.jpg	99
1687.558	0.749	748.7	study	Phase3	study/STIM_020.jpg	100
1691.977	0.715	714.9	study	Phase3	study/STIM_021.jpg	100
1695.576	0.7	699.7	study	Phase3	study/STIM_021.jpg	100
1699.951	1.19	1190.4	study	Phase3	study/STIM_021.jpg	99
1703.978	0.968	968.2	study	Phase3	study/STIM_022.jpg	99
1707.582	1.084	1083.7	study	Phase3	study/STIM_022.jpg	99
1712.123	1.171	1170.9	study	Phase3	study/STIM_022.jpg	100
1716.87	0.559	559.2	study	Phase3	study/STIM_023.jpg	99
1721.268	1.132	1131.5	study	Phase3	study/STIM_023.jpg	99
1725.488	0.655	655.0	study	Phase3	study/STIM_023.jpg	100
1728.654	0.656	655.6	study	Phase3	study/STIM_024.jpg	100
1731.975	0.819	818.9	study	Phase3	study/STIM_024.jpg	100
1735.891	1.004	1003.9	study	Phase3	study/STIM_024.jpg	100
1739.158	1.037	1036.6	study	Phase3	study/STIM_025.jpg	99
1743.828	0.928	927.9	study	Phase3	study/STIM_025.jpg	99
1748.553	0.649	649.2	study	Phase3	study/STIM_025.jpg	99
1752.438	0.577	577.2	study	Phase3	study/STIM_026.jpg	100
1756.403	1.179	1178.9	study	Phase3	study/STIM_026.jpg	100
1760.551	1.14	1139.8	study	Phase3	study/STIM_026.jpg	100
1765.402	1.133	1133.3	study	Phase3	study/STIM_027.jpg	100
1769.224	0.959	959.1	study	Phase3	study/STIM_027.jpg	100
1773.456	1.131	1130.6	study	Phase3	study/STIM_027.jpg	99
1777.172	0.728	727.9	study	Phase3	study/STIM_028.jpg	99
1780.764	1.14	1140.4	study	Phase3	study/STIM_028.jpg	100
1785.012	0.83	829.6	study	Phase3	study/STIM_028.jpg	99
1789.418	0.85	850.3	study	Phase3	study/STIM_029.jpg	100
1793.76	0.6	600.5	study	Phase3	study/STIM_029.jpg	99
1796.639	0.682	681.8	study	Phase3	study/STIM_029.jpg	100
1801.28	1.247	1247.3	test	Phase3	test/STIM_000.jpg	100
1804.596	1.179	1178.8	test	Phase3	test/STIM_000.jpg	100
1808.772	0.815	815.2	test	Phase3	test/STIM_000.jpg	99
1811.802	1.039	1039.3	test	Phase3	test/STIM_001.jpg	99
1815.948	1.196	1196.0	test	Phase3	test/STIM_001.jpg	100
1820.101	1.114	1113.9	test	Phase3	test/STIM_001.jpg	99
1824.34	0.778	778.5	test	Phase3	test/STIM_002.jpg	100
1828.6	0.595	594.9	test	Phase3	test/STIM_002.jpg	99
1831.692	1.055	1054.8	test	Phase3	test/STIM_002.jpg	100
1835.5	1.111	1110.6	test	Phase3	test/STIM_003.jpg	99
1839.03	0.85	850.3	test	Phase3	test/STIM_003.jpg	100
1843.055	1.103	1102.7	test	Phase3	test/STIM_003.jpg	99
1846.388	0.7	699.6	test	Phase3	test/STIM_004.jpg	99
1849.148	1.226	1225.5	test	Phase3	test/STIM_004.jpg	100
1852.521	0.916	916.1	test	Phase3	test/STIM_004.jpg	99
1857.366	1.057	1057.2	test	Phase3	test/STIM_005.jpg	100
1860.43	0.822	821.9	test	Phase3	test/STIM_005.jpg	99
1864.763	1.259	1259.0	test	Phase3	test/STIM_005.jpg	99
1868.815	1.213	1213.0	test	Phase3	test/STIM_006.jpg	99
1873.768	1.227	1227.2	test	Phase3	test/STIM_006.jpg	99
1878.383	1.08	1079.9	test	Phase3	test/STIM_006.jpg	99
1882.114	1.165	1164.6	test	Phase3	test/STIM_007.jpg	99
1886.169	0.881	881.1	test	Phase3	test/STIM_007.jpg	100
1890.737	0.787	786.7	test	Phase3	test/STIM_007.jpg	100
1894.346	1.058	1058.4	test	Phase3	test/STIM_008.jpg	100
1897.764	1.19	1189.7	test	Phase3	test/STIM_008.jpg	99
1901.011	0.726	726.2	test	Phase3	test/STIM_008.jpg	99
1904.583	1.14	1139.9	test	Phase3	test/STIM_009.jpg	100
1909.274	0.657	657.3	test	Phase3	test/STIM_009.jpg	99
1913.662	0.876	875.6	test	Phase3	test/STIM_009.jpg	100
1917.8	1.112	1112.5	test	Phase3	test/STIM_010.jpg	100
1921.772	0.649	649.3	test	Phase3	test/STIM_010.jpg	100
1925.565	1.014	1013.9	test	Phase3	test/STIM_010.jpg	100
1930.294	1.173	1173.1	test	Phase3	test/STIM_011.jpg	99
1934.291	0.661	661.3	test	Phase3	test/STIM_011.jpg	100
1937.091	0.899	898.9	test	Phase3	test/STIM_011.jpg	100
1940.447	1.126	1125.5	test	Phase3	test/STIM_012.jpg	100
1943.868	1.269	1269.0	test	Phase3	test/STIM_012.jpg	100
1947.19	0.832	832.3	test	Phase3	test/STIM_012.jpg	99
1951.826	0.695	695.1	test	Phase3	test/STIM_013.jpg	99
1955.758	0.606	605.9	test	Phase3	test/STIM_013.jpg	99
1959.19	0.864	864.0	test	Phase3	test/STIM_013.jpg	99
1963.247	1.083	1083.3	test	Phase3	test/STIM_014.jpg	100
1966.814	1.078	1078.2	test	Phase3	test/STIM_014.jpg	99
1971.835	0.917	917.4	test	Phase3	test/STIM_014.jpg	99
1975.905	0.989	988.7	test	Phase3	test/STIM_015.jpg	99
1978.916	1.278	1277.6	test	Phase3	test/STIM_015.jpg	99
1982.684	0.968	968.5	test	Phase3	test/STIM_015.jpg	100
1985.679	0.669	668.6	test	Phase3	test/STIM_016.jpg	100
1988.844	0.938	938.0	test	Phase3	test/STIM_016.jpg	100
1992.871	0.942	941.7	test	Phase3	test/STIM_016.jpg	99
1996.679	1.041	1041.3	test	Phase3	test/STIM_017.jpg	99
2000.359	0.958	957.8	test	Phase3	test/STIM_017.jpg	99
2003.653	1.266	1266.2	test	Phase3	test/STIM_017.jpg	100
2007.651	0.85	849.5	test	Phase3	test/STIM_018.jpg	99
2011.037	0.996	995.6	test	Phase3	test/STIM_018.jpg	100
2014.079	1.271	1271.0	test	Phase3	test/STIM_018.jpg	99
2019.009	1.013	1013.1	test	Phase3	test/STIM_019.jpg	99
2023.486	0.625	625.4	test	Phase3	test/STIM_019.jpg	99
2027.826	0.784	784.1	test	Phase3	test/STIM_019.jpg	99
2030.816	1.181	1180.9	test	Phase3	test/STIM_020.jpg	100
2034.847	0.851	851.3	test	Phase3	test/STIM_020.jpg	100
2038.539	0.887	887.1	test	Phase3	test/STIM_020.jpg	99
2041.453	1.116	1116.5	test	Phase3	test/STIM_021.jpg	100
2045.551	0.803	802.8	test	Phase3	test/STIM_021.jpg	100
2048.504	0.846	846.2	test	Phase3	test/STIM_021.jpg	100
2053.016	0.813	813.0	test	Phase3	test/STIM_022.jpg	99
2057.347	0.85	849.9	test	Phase3	test/STIM_022.jpg	99
2062.115	1.192	1191.9	test	Phase3	test/STIM_022.jpg	100
2065.815	1.138	1138.4	test	Phase3	test/STIM_023.jpg	99
2069.549	0.794	793.5	test	Phase3	test/STIM_023.jpg	100
2074.132	1.018	1017.6	test	Phase3	test/STIM_023.jpg	99
2078.644	1.115	1115.0	test	Phase3	test/STIM_024.jpg	100
2082.083	1.27	1269.7	test	Phase3	test/STIM_024.jpg	99
2085.916	0.942	942.3	test	Phase3	test/STIM_024.jpg	100
2089.324	1.257	1257.4	test	Phase3	test/STIM_025.jpg	100
2094.561	1.02	1020.0	test	Phase3	test/STIM_025.jpg	100
2099.376	1.038	1037.9	test	Phase3	test/STIM_025.jpg	100
2104.399	0.946	946.1	test	Phase3	test/STIM_026.jpg	99
2109.331	0.814	813.9	test	Phase3	test/STIM_026.jpg	99
2113.579	0.898	898.4	test	Phase3	test/STIM_026.jpg	99
2117.741	0.627	627.3	test	Phase3	test/STIM_027.jpg	100
2121.375	0.929	928.9	test	Phase3	test/STIM_027.jpg	100
2125.966	0.957	957.4	test	Phase3	test/STIM_027.jpg	100
2130.537	0.874	874.4	test	Phase3	test/STIM_028.jpg	99
2134.493	0.935	935.3	test	Phase3	test/STIM_028.jpg	99
2137.464	0.877	876.7	test	Phase3	test/STIM_028.jpg	100
2142.197	1.106	1106.4	test	Phase3	test/STIM_029.jpg	99
2146.685	0.765	765.3	test	Phase3	test/STIM_029.jpg	99
2150.522	0.635	634.8	test	Phase3	test/STIM_029.jpg	99
