onset	duration	accuracy	trial_type	learning_stage	stimulus
0.0	1.164	correct	2back	Block1	2back/STIM_000.jpg
3.489	1.39	correct	2back	Block1	2back/STIM_000.jpg
7.255	0.928	correct	2back	Block1	2back/STIM_000.jpg
12.06	0.845	correct	2back	Block1	2back/STIM_001.jpg
16.581	0.722	correct	2back	Block1	2back/STIM_001.jpg
21.278	1.305	correct	2back	Block1	2back/STIM_001.jpg
25.134	0.904	correct	2back	Block1	2back/STIM_002.jpg
28.334	1.213	correct	2back	Block1	2back/STIM_002.jpg
33.431	0.956	correct	2back	Block1	2back/STIM_002.jpg
36.766	0.644	incorrect	2back	Block1	2back/STIM_003.jpg
41.182	1.092	correct	2back	Block1	2back/STIM_003.jpg
44.643	0.851	correct	2back	Block1	2back/STIM_003.jpg
48.602	0.831	correct	2back	Block1	2back/STIM_004.jpg
52.054	0.698	correct	2back	Block1	2back/STIM_004.jpg
55.969	0.619	correct	2back	Block1	2back/STIM_004.jpg
59.664	1.195	correct	2back	Block1	2back/STIM_005.jpg
64.136	1.127	correct	2back	Block1	2back/STIM_005.jpg
68.012	1.032	correct	2back	Block1	2back/STIM_005.jpg
72.374	1.249	correct	2back	Block1	2back/STIM_006.jpg
76.038	1.254	correct	2back	Block1	2back/STIM_006.jpg
79.664	1.208	correct	2back	Block1	2back/STIM_006.jpg
83.116	0.711	correct	2back	Block1	2back/STIM_007.jpg
87.303	1.232	correct	2back	Block1	2back/STIM_007.jpg
90.887	0.674	correct	2back	Block1	2back/STIM_007.jpg
94.613	1.011	correct	2back	Block1	2back/STIM_008.jpg
98.991	0.767	correct	2back	Block1	2back/STIM_008.jpg
103.504	1.166	correct	2back	Block1	2back/STIM_008.jpg
108.539	1.248	correct	2back	Block1	2back/STIM_009.jpg
111.82	0.604	correct	2back	Block1	2back/STIM_009.jpg
114.665	1.046	correct	2back	Block1	2back/STIM_009.jpg
119.022	1.32	correct	2back	Block1	2back/STIM_010.jpg
123.45	0.978	correct	2back	Block1	2back/STIM_010.jpg
126.679	1.195	correct	2back	Block1	2back/STIM_010.jpg
131.097	0.651	correct	2back	Block1	2back/STIM_011.jpg
134.538	0.976	correct	2back	Block1	2back/STIM_011.jpg
138.639	1.097	correct	2back	Block1	2back/STIM_011.jpg
142.012	0.863	correct	2back	Block1	2back/STIM_012.jpg
146.153	1.126	correct	2back	Block1	2back/STIM_012.jpg
149.787	1.048	correct	2back	Block1	2back/STIM_012.jpg
154.062	0.765	correct	2back	Block1	2back/STIM_013.jpg
158.004	0.887	correct	2back	Block1	2back/STIM_013.jpg
161.764	0.64	correct	2back	Block1	2back/STIM_013.jpg
164.903	1.29	correct	2back	Block1	2back/STIM_014.jpg
169.484	1.338	correct	2back	Block1	2back/STIM_014.jpg
174.52	0.873	correct	2back	Block1	2back/STIM_014.jpg
177.996	1.277	correct	2back	Block1	2back/STIM_015.jpg
183.162	0.909	correct	2back	Block1	2back/STIM_015.jpg
187.708	1.186	correct	2back	Block1	2back/STIM_015.jpg
192.094	1.053	correct	2back	Block1	2back/STIM_016.jpg
196.465	0.698	correct	2back	Block1	2back/STIM_016.jpg
199.461	1.275	incorrect	2back	Block1	2back/STIM_016.jpg
204.289	0.988	correct	2back	Block1	2back/STIM_017.jpg
208.031	1.052	correct	2back	Block1	2back/STIM_017.jpg
211.382	1.141	correct	2back	Block1	2back/STIM_017.jpg
216.285	1.093	correct	2back	Block1	2back/STIM_018.jpg
221.183	0.968	correct	2back	Block1	2back/STIM_018.jpg
225.926	1.123	correct	2back	Block1	2back/STIM_018.jpg
229.135	1.252	correct	2back	Block1	2back/STIM_019.jpg
233.98	1.402	correct	2back	Block1	2back/STIM_019.jpg
237.723	1.133	correct	2back	Block1	2back/STIM_019.jpg
241.521	0.675	correct	2back	Block1	2back/STIM_020.jpg
245.953	0.632	correct	2back	Block1	2back/STIM_020.jpg
250.157	1.287	incorrect	2back	Block1	2back/STIM_020.jpg
253.458	1.046	correct	2back	Block1	2back/STIM_021.jpg
256.935	1.225	correct	2back	Block1	2back/STIM_021.jpg
260.788	0.705	correct	2back	Block1	2back/STIM_021.jpg
264.374	0.856	correct	2back	Block1	2back/STIM_022.jpg
268.626	1.231	correct	2back	Block1	2back/STIM_022.jpg
272.388	0.7	correct	2back	Block1	2back/STIM_022.jpg
276.365	0.803	correct	2back	Block1	2back/STIM_023.jpg
279.351	1.109	correct	2back	Block1	2back/STIM_023.jpg
283.664	0.874	correct	2back	Block1	2back/STIM_023.jpg
287.273	1.109	correct	2back	Block1	2back/STIM_024.jpg
292.215	1.173	correct	2back	Block1	2back/STIM_024.jpg
295.568	0.892	correct	2back	Block1	2back/STIM_024.jpg
299.939	0.906	correct	2back	Block1	2back/STIM_025.jpg
302.883	0.735	correct	2back	Block1	2back/STIM_025.jpg
307.256	0.729	correct	2back	Block1	2back/STIM_025.jpg
310.327	0.808	correct	2back	Block1	2back/STIM_026.jpg
314.539	1.14	correct	2back	Block1	2back/STIM_026.jpg
319.365	1.163	correct	2back	Block1	2back/STIM_026.jpg
324.5	1.046	correct	2back	Block1	2back/STIM_027.jpg
328.437	1.092	correct	2back	Block1	2back/STIM_027.jpg
333.143	0.932	correct	2back	Block1	2back/STIM_027.jpg
336.832	0.988	correct	2back	Block1	2back/STIM_028.jpg
340.481	1.008	correct	2back	Block1	2back/STIM_028.jpg
343.609	1.043	correct	2back	Block1	2back/STIM_028.jpg
347.277	1.194	incorrect	2back	Block1	2back/STIM_029.jpg
352.153	1.017	correct	2back	Block1	2back/STIM_029.jpg
356.519	0.893	correct	2back	Block1	2back/STIM_029.jpg
361.357	0.921	correct	2back	Block1	2back/STIM_030.jpg
365.027	1.259	correct	2back	Block1	2back/STIM_030.jpg
368.52	1.301	correct	2back	Block1	2back/STIM_030.jpg
372.501	0.915	correct	2back	Block1	2back/STIM_031.jpg
375.548	1.361	correct	2back	Block1	2back/STIM_031.jpg
380.571	0.775	correct	2back	Block1	2back/STIM_031.jpg
385.029	1.248	correct	2back	Block1	2back/STIM_032.jpg
388.935	1.327	correct	2back	Block1	2back/STIM_032.jpg
393.746	0.816	correct	2back	Block1	2back/STIM_032.jpg
398.256	0.653	correct	2back	Block1	2back/STIM_033.jpg
402.429	0.985	correct	2back	Block1	2back/STIM_033.jpg
406.524	0.594	correct	2back	Block1	2back/STIM_033.jpg
409.89	1.049	correct	2back	Block1	2back/STIM_034.jpg
414.629	0.927	correct	2back	Block1	2back/STIM_034.jpg
418.117	0.603	correct	2back	Block1	2back/STIM_034.jpg
421.363	1.245	correct	2back	Block1	2back/STIM_035.jpg
425.078	1.208	correct	2back	Block1	2back/STIM_035.jpg
429.89	0.757	correct	2back	Block1	2back/STIM_035.jpg
433.145	0.708	correct	2back	Block1	2back/STIM_036.jpg
437.786	1.279	correct	2back	Block1	2back/STIM_036.jpg
442.232	1.166	correct	2back	Block1	2back/STIM_036.jpg
446.906	0.808	correct	2back	Block1	2back/STIM_037.jpg
450.177	1.303	correct	2back	Block1	2back/STIM_037.jpg
454.708	1.222	correct	2back	Block1	2back/STIM_037.jpg
458.903	0.755	correct	2back	Block1	2back/STIM_038.jpg
463.633	1.175	correct	2back	Block1	2back/STIM_038.jpg
467.244	0.746	correct	2back	Block1	2back/STIM_038.jpg
471.361	0.751	correct	2back	Block1	2back/STIM_039.jpg
475.237	0.621	correct	2back	Block1	2back/STIM_039.jpg
477.859	1.152	correct	2back	Block1	2back/STIM_039.jpg
481.216	0.652	correct	0back	Block1	0back/STIM_000.jpg
485.255	0.483	correct	0back	Block1	0back/STIM_000.jpg
487.858	0.624	correct	0back	Block1	0back/STIM_000.jpg
492.142	0.52	correct	0back	Block1	0back/STIM_001.jpg
495.813	0.526	correct	0back	Block1	0back/STIM_001.jpg
499.203	0.475	correct	0back	Block1	0back/STIM_001.jpg
502.365	0.486	correct	0back	Block1	0back/STIM_002.jpg
506.019	0.564	correct	0back	Block1	0back/STIM_002.jpg
510.579	0.729	correct	0back	Block1	0back/STIM_002.jpg
514.93	0.798	correct	0back	Block1	0back/STIM_003.jpg
519.08	0.582	correct	0back	Block1	0back/STIM_003.jpg
523.133	0.704	correct	0back	Block1	0back/STIM_003.jpg
526.314	0.544	correct	0back	Block1	0back/STIM_004.jpg
530.819	0.652	correct	0back	Block1	0back/STIM_004.jpg
534.193	0.588	correct	0back	Block1	0back/STIM_004.jpg
536.848	0.831	correct	0back	Block1	0back/STIM_005.jpg
540.58	0.479	correct	0back	Block1	0back/STIM_005.jpg
544.697	0.596	incorrect	0back	Block1	0back/STIM_005.jpg
548.116	0.811	correct	0back	Block1	0back/STIM_006.jpg
551.454	0.514	correct	0back	Block1	0back/STIM_006.jpg
555.492	0.763	correct	0back	Block1	0back/STIM_006.jpg
560.036	0.574	correct	0back	Block1	0back/STIM_007.jpg
562.75	0.689	correct	0back	Block1	0back/STIM_007.jpg
566.507	0.499	correct	0back	Block1	0back/STIM_007.jpg
570.735	0.697	correct	0back	Block1	0back/STIM_008.jpg
575.077	0.465	correct	0back	Block1	0back/STIM_008.jpg
578.189	0.645	correct	0back	Block1	0back/STIM_008.jpg
580.834	0.726	correct	0back	Block1	0back/STIM_009.jpg
584.402	0.543	correct	0back	Block1	0back/STIM_009.jpg
587.146	0.756	correct	0back	Block1	0back/STIM_009.jpg
590.75	0.774	correct	0back	Block1	0back/STIM_010.jpg
593.543	0.695	correct	0back	Block1	0back/STIM_010.jpg
598.078	0.439	correct	0back	Block1	0back/STIM_010.jpg
602.15	0.453	correct	0back	Block1	0back/STIM_011.jpg
604.997	0.484	correct	0back	Block1	0back/STIM_011.jpg
609.161	0.545	correct	0back	Block1	0back/STIM_011.jpg
612.505	0.572	correct	0back	Block1	0back/STIM_012.jpg
615.687	0.736	correct	0back	Block1	0back/STIM_012.jpg
618.741	0.498	correct	0back	Block1	0back/STIM_012.jpg
621.505	0.446	correct	0back	Block1	0back/STIM_013.jpg
624.9	0.534	correct	0back	Block1	0back/STIM_013.jpg
628.252	0.46	correct	0back	Block1	0back/STIM_013.jpg
631.014	0.498	correct	0back	Block1	0back/STIM_014.jpg
633.677	0.472	correct	0back	Block1	0back/STIM_014.jpg
637.316	0.773	correct	0back	Block1	0back/STIM_014.jpg
641.594	0.454	correct	0back	Block1	0back/STIM_015.jpg
644.799	0.44	correct	0back	Block1	0back/STIM_015.jpg
648.864	0.454	correct	0back	Block1	0back/STIM_015.jpg
652.097	0.63	correct	0back	Block1	0back/STIM_016.jpg
655.341	0.602	correct	0back	Block1	0back/STIM_016.jpg
659.386	0.656	correct	0back	Block1	0back/STIM_016.jpg
663.161	0.429	correct	0back	Block1	0back/STIM_017.jpg
665.751	0.433	correct	0back	Block1	0back/STIM_017.jpg
668.931	0.666	correct	0back	Block1	0back/STIM_017.jpg
673.118	0.559	correct	0back	Block1	0back/STIM_018.jpg
677.557	0.587	correct	0back	Block1	0back/STIM_018.jpg
680.304	0.649	correct	0back	Block1	0back/STIM_018.jpg
684.115	0.83	correct	0back	Block1	0back/STIM_019.jpg
687.703	0.597	correct	0back	Block1	0back/STIM_019.jpg
691.38	0.514	correct	0back	Block1	0back/STIM_019.jpg
695.744	0.555	correct	2back	Block2	2back/STIM_000.jpg
700.056	0.538	correct	2back	Block2	2back/STIM_000.jpg
703.869	0.696	correct	2back	Block2	2back/STIM_000.jpg
706.692	0.692	correct	2back	Block2	2back/STIM_001.jpg
710.706	0.74	correct	2back	Block2	2back/STIM_001.jpg
715.215	1.014	correct	2back	Block2	2back/STIM_001.jpg
719.236	1.031	correct	2back	Block2	2back/STIM_002.jpg
724.113	1.038	correct	2back	Block2	2back/STIM_002.jpg
727.577	0.982	correct	2back	Block2	2back/STIM_002.jpg
731.936	0.611	correct	2back	Block2	2back/STIM_003.jpg
735.143	0.715	correct	2back	Block2	2back/STIM_003.jpg
739.448	1.014	correct	2back	Block2	2back/STIM_003.jpg
743.286	0.59	correct	2back	Block2	2back/STIM_004.jpg
746.661	0.926	correct	2back	Block2	2back/STIM_004.jpg
749.59	0.659	correct	2back	Block2	2back/STIM_004.jpg
753.056	0.834	correct	2back	Block2	2back/STIM_005.jpg
757.017	0.757	correct	2back	Block2	2back/STIM_005.jpg
761.385	0.727	correct	2back	Block2	2back/STIM_005.jpg
764.496	0.78	correct	2back	Block2	2back/STIM_006.jpg
767.701	1.114	correct	2back	Block2	2back/STIM_006.jpg
772.566	0.664	correct	2back	Block2	2back/STIM_006.jpg
777.167	1.057	correct	2back	Block2	2back/STIM_007.jpg
781.245	1.054	correct	2back	Block2	2back/STIM_007.jpg
785.019	0.567	correct	2back	Block2	2back/STIM_007.jpg
788.348	1.07	correct	2back	Block2	2back/STIM_008.jpg
793.169	1.121	correct	2back	Block2	2back/STIM_008.jpg
796.336	1.003	correct	2back	Block2	2back/STIM_008.jpg
800.749	0.86	correct	2back	Block2	2back/STIM_009.jpg
804.825	0.819	correct	2back	Block2	2back/STIM_009.jpg
808.051	0.6	correct	2back	Block2	2back/STIM_009.jpg
811.734	1.125	correct	2back	Block2	2back/STIM_010.jpg
815.204	1.097	correct	2back	Block2	2back/STIM_010.jpg
818.456	0.719	correct	2back	Block2	2back/STIM_010.jpg
822.227	0.943	correct	2back	Block2	2back/STIM_011.jpg
825.669	0.796	correct	2back	Block2	2back/STIM_011.jpg
829.573	0.815	correct	2back	Block2	2back/STIM_011.jpg
832.504	0.636	correct	2back	Block2	2back/STIM_012.jpg
836.436	0.965	correct	2back	Block2	2back/STIM_012.jpg
840.882	0.669	correct	2back	Block2	2back/STIM_012.jpg
845.175	0.629	correct	2back	Block2	2back/STIM_013.jpg
847.949	0.852	correct	2back	Block2	2back/STIM_013.jpg
851.914	0.722	correct	2back	Block2	2back/STIM_013.jpg
856.046	0.789	correct	2back	Block2	2back/STIM_014.jpg
860.058	1.073	correct	2back	Block2	2back/STIM_014.jpg
865.024	0.494	correct	2back	Block2	2back/STIM_014.jpg
868.37	1.011	correct	2back	Block2	2back/STIM_015.jpg
871.596	0.73	correct	2back	Block2	2back/STIM_015.jpg
874.406	0.992	correct	2back	Block2	2back/STIM_015.jpg
878.985	1.029	correct	2back	Block2	2back/STIM_016.jpg
883.274	0.54	correct	2back	Block2	2back/STIM_016.jpg
886.986	0.931	correct	2back	Block2	2back/STIM_016.jpg
890.083	0.933	correct	2back	Block2	2back/STIM_017.jpg
894.676	1.125	correct	2back	Block2	2back/STIM_017.jpg
899.105	1.003	correct	2back	Block2	2back/STIM_017.jpg
902.836	1.128	correct	2back	Block2	2back/STIM_018.jpg
907.668	0.507	correct	2back	Block2	2back/STIM_018.jpg
910.801	1.1	correct	2back	Block2	2back/STIM_018.jpg
915.175	0.96	correct	2back	Block2	2back/STIM_019.jpg
918.544	0.808	correct	2back	Block2	2back/STIM_019.jpg
921.754	0.982	correct	2back	Block2	2back/STIM_019.jpg
926.322	0.998	correct	2back	Block2	2back/STIM_020.jpg
931.072	1.058	correct	2back	Block2	2back/STIM_020.jpg
935.184	0.872	correct	2back	Block2	2back/STIM_020.jpg
939.486	1.171	incorrect	2back	Block2	2back/STIM_021.jpg
942.782	0.555	correct	2back	Block2	2back/STIM_021.jpg
946.777	0.801	correct	2back	Block2	2back/STIM_021.jpg
951.165	1.256	correct	2back	Block2	2back/STIM_022.jpg
955.446	0.981	correct	2back	Block2	2back/STIM_022.jpg
958.525	0.567	correct	2back	Block2	2back/STIM_022.jpg
962.497	1.078	correct	2back	Block2	2back/STIM_023.jpg
967.222	1.131	correct	2back	Block2	2back/STIM_023.jpg
971.485	0.672	correct	2back	Block2	2back/STIM_023.jpg
975.746	0.64	correct	2back	Block2	2back/STIM_024.jpg
979.705	0.576	correct	2back	Block2	2back/STIM_024.jpg
983.179	0.688	correct	2back	Block2	2back/STIM_024.jpg
986.288	0.744	correct	2back	Block2	2back/STIM_025.jpg
991.012	1.122	correct	2back	Block2	2back/STIM_025.jpg
995.228	1.056	correct	2back	Block2	2back/STIM_025.jpg
998.69	0.73	correct	2back	Block2	2back/STIM_026.jpg
1002.653	0.844	correct	2back	Block2	2back/STIM_026.jpg
1006.19	0.656	correct	2back	Block2	2back/STIM_026.jpg
1009.848	0.907	correct	2back	Block2	2back/STIM_027.jpg
1014.213	0.91	correct	2back	Block2	2back/STIM_027.jpg
1018.973	0.693	correct	2back	Block2	2back/STIM_027.jpg
1023.456	1.236	correct	2back	Block2	2back/STIM_028.jpg
1027.252	1.098	correct	2back	Block2	2back/STIM_028.jpg
1030.809	0.944	correct	2back	Block2	2back/STIM_028.jpg
1034.484	1.198	correct	2back	Block2	2back/STIM_029.jpg
1037.906	1.094	correct	2back	Block2	2back/STIM_029.jpg
1042.471	0.732	correct	2back	Block2	2back/STIM_029.jpg
1045.419	0.949	correct	2back	Block2	2back/STIM_030.jpg
1050.173	0.982	correct	2back	Block2	2back/STIM_030.jpg
1055.141	0.908	correct	2back	Block2	2back/STIM_030.jpg
1058.546	1.02	correct	2back	Block2	2back/STIM_031.jpg
1061.596	0.745	correct	2back	Block2	2back/STIM_031.jpg
1065.784	0.667	correct	2back	Block2	2back/STIM_031.jpg
1068.616	1.018	correct	2back	Block2	2back/STIM_032.jpg
1071.917	0.727	correct	2back	Block2	2back/STIM_032.jpg
1075.151	0.52	correct	2back	Block2	2back/STIM_032.jpg
1078.57	0.766	correct	2back	Block2	2back/STIM_033.jpg
1082.612	1.171	correct	2back	Block2	2back/STIM_033.jpg
1087.129	0.899	correct	2back	Block2	2back/STIM_033.jpg
1090.174	1.044	correct	2back	Block2	2back/STIM_034.jpg
1094.994	1.12	correct	2back	Block2	2back/STIM_034.jpg
1098.744	0.718	correct	2back	Block2	2back/STIM_034.jpg
1101.598	0.954	correct	2back	Block2	2back/STIM_035.jpg
1105.613	1.144	correct	2back	Block2	2back/STIM_035.jpg
1109.153	1.096	correct	2back	Block2	2back/STIM_035.jpg
1112.755	0.699	correct	2back	Block2	2back/STIM_036.jpg
1115.513	0.674	correct	2back	Block2	2back/STIM_036.jpg
1118.446	0.726	correct	2back	Block2	2back/STIM_036.jpg
1122.039	0.579	correct	2back	Block2	2back/STIM_037.jpg
1124.983	0.661	correct	2back	Block2	2back/STIM_037.jpg
1129.04	0.869	correct	2back	Block2	2back/STIM_037.jpg
1133.88	0.621	correct	2back	Block2	2back/STIM_038.jpg
1137.593	1.047	correct	2back	Block2	2back/STIM_038.jpg
1141.762	0.617	correct	2back	Block2	2back/STIM_038.jpg
1144.538	0.572	correct	2back	Block2	2back/STIM_039.jpg
1149.11	0.666	correct	2back	Block2	2back/STIM_039.jpg
1153.003	1.003	correct	2back	Block2	2back/STIM_039.jpg
1156.724	0.447	correct	0back	Block2	0back/STIM_000.jpg
1160.44	0.456	correct	0back	Block2	0back/STIM_000.jpg
1163.59	0.612	correct	0back	Block2	0back/STIM_000.jpg
1167.926	0.827	correct	0back	Block2	0back/STIM_001.jpg
1171.747	0.768	correct	0back	Block2	0back/STIM_001.jpg
1175.433	0.533	correct	0back	Block2	0back/STIM_001.jpg
1179.583	0.65	correct	0back	Block2	0back/STIM_002.jpg
1183.199	0.842	correct	0back	Block2	0back/STIM_002.jpg
1186.698	0.687	correct	0back	Block2	0back/STIM_002.jpg
1190.076	0.651	correct	0back	Block2	0back/STIM_003.jpg
1194.034	0.518	correct	0back	Block2	0back/STIM_003.jpg
1197.909	0.788	correct	0back	Block2	0back/STIM_003.jpg
1201.365	0.671	correct	0back	Block2	0back/STIM_004.jpg
1204.462	0.507	correct	0back	Block2	0back/STIM_004.jpg
1208.423	0.799	correct	0back	Block2	0back/STIM_004.jpg
1212.929	0.502	correct	0back	Block2	0back/STIM_005.jpg
1217.039	0.827	correct	0back	Block2	0back/STIM_005.jpg
1221.263	0.791	correct	0back	Block2	0back/STIM_005.jpg
1224.791	0.673	correct	0back	Block2	0back/STIM_006.jpg
1228.678	0.436	correct	0back	Block2	0back/STIM_006.jpg
1232.247	0.47	correct	0back	Block2	0back/STIM_006.jpg
1235.898	0.789	correct	0back	Block2	0back/STIM_007.jpg
1239.474	0.814	correct	0back	Block2	0back/STIM_007.jpg
1243.933	0.718	correct	0back	Block2	0back/STIM_007.jpg
1247.679	0.528	correct	0back	Block2	0back/STIM_008.jpg
1251.584	0.733	correct	0back	Block2	0back/STIM_008.jpg
1255.581	0.771	correct	0back	Block2	0back/STIM_008.jpg
1259.526	0.497	correct	0back	Block2	0back/STIM_009.jpg
1263.11	0.628	correct	0back	Block2	0back/STIM_009.jpg
1266.429	0.514	correct	0back	Block2	0back/STIM_009.jpg
1269.076	0.514	correct	0back	Block2	0back/STIM_010.jpg
1271.947	0.436	correct	0back	Block2	0back/STIM_010.jpg
1274.819	0.498	correct	0back	Block2	0back/STIM_010.jpg
1278.632	0.717	correct	0back	Block2	0back/STIM_011.jpg
1282.918	0.815	correct	0back	Block2	0back/STIM_011.jpg
1286.021	0.551	correct	0back	Block2	0back/STIM_011.jpg
1290.22	0.707	correct	0back	Block2	0back/STIM_012.jpg
1293.488	0.733	correct	0back	Block2	0back/STIM_012.jpg
1296.992	0.471	correct	0back	Block2	0back/STIM_012.jpg
1299.702	0.593	correct	0back	Block2	0back/STIM_013.jpg
1304.274	0.534	correct	0back	Block2	0back/STIM_013.jpg
1307.184	0.751	incorrect	0back	Block2	0back/STIM_013.jpg
1310.809	0.646	correct	0back	Block2	0back/STIM_014.jpg
1314.559	0.78	correct	0back	Block2	0back/STIM_014.jpg
1318.625	0.598	correct	0back	Block2	0back/STIM_014.jpg
1321.76	0.729	correct	0back	Block2	0back/STIM_015.jpg
1325.83	0.793	correct	0back	Block2	0back/STIM_015.jpg
1329.644	0.809	correct	0back	Block2	0back/STIM_015.jpg
1333.017	0.759	correct	0back	Block2	0back/STIM_016.jpg
1336.238	0.494	correct	0back	Block2	0back/STIM_016.jpg
1338.857	0.516	correct	0back	Block2	0back/STIM_016.jpg
1343.151	0.473	correct	0back	Block2	0back/STIM_017.jpg
1346.389	0.454	correct	0back	Block2	0back/STIM_017.jpg
1348.961	0.655	correct	0back	Block2	0back/STIM_017.jpg
1351.947	0.681	correct	0back	Block2	0back/STIM_018.jpg
1356.077	0.786	correct	0back	Block2	0back/STIM_018.jpg
1359.427	0.816	correct	0back	Block2	0back/STIM_018.jpg
1363.017	0.598	correct	0back	Block2	0back/STIM_019.jpg
1367.5	0.822	correct	0back	Block2	0back/STIM_019.jpg
1372.068	0.838	correct	0back	Block2	0back/STIM_019.jpg
1376.69	0.638	correct	2back	Block3	2back/STIM_000.jpg
1380.964	0.616	correct	2back	Block3	2back/STIM_000.jpg
1383.728	0.868	correct	2back	Block3	2back/STIM_000.jpg
1386.991	0.825	correct	2back	Block3	2back/STIM_001.jpg
1391.101	0.902	correct	2back	Block3	2back/STIM_001.jpg
1394.404	0.887	correct	2back	Block3	2back/STIM_001.jpg
1399.115	0.569	correct	2back	Block3	2back/STIM_002.jpg
1402.933	0.832	correct	2back	Block3	2back/STIM_002.jpg
1406.309	0.902	correct	2back	Block3	2back/STIM_002.jpg
1410.4	0.453	correct	2back	Block3	2back/STIM_003.jpg
1413.242	0.693	correct	2back	Block3	2back/STIM_003.jpg
1417.392	0.708	correct	2back	Block3	2back/STIM_003.jpg
1421.393	0.786	correct	2back	Block3	2back/STIM_004.jpg
1425.048	0.858	correct	2back	Block3	2back/STIM_004.jpg
1429.384	1.021	correct	2back	Block3	2back/STIM_004.jpg
1433.649	0.515	correct	2back	Block3	2back/STIM_005.jpg
1438.054	0.462	correct	2back	Block3	2back/STIM_005.jpg
1441.269	0.92	correct	2back	Block3	2back/STIM_005.jpg
1445.573	0.846	correct	2back	Block3	2back/STIM_006.jpg
1449.409	0.763	correct	2back	Block3	2back/STIM_006.jpg
1452.353	0.987	correct	2back	Block3	2back/STIM_006.jpg
1455.978	0.866	correct	2back	Block3	2back/STIM_007.jpg
1460.007	0.495	correct	2back	Block3	2back/STIM_007.jpg
1463.874	0.48	correct	2back	Block3	2back/STIM_007.jpg
1467.771	0.631	correct	2back	Block3	2back/STIM_008.jpg
1470.902	0.78	correct	2back	Block3	2back/STIM_008.jpg
1475.419	0.61	correct	2back	Block3	2back/STIM_008.jpg
1478.213	0.571	correct	2back	Block3	2back/STIM_009.jpg
1481.17	0.577	correct	2back	Block3	2back/STIM_009.jpg
1485.669	0.692	correct	2back	Block3	2back/STIM_009.jpg
1489.369	0.677	correct	2back	Block3	2back/STIM_010.jpg
1493.678	0.896	correct	2back	Block3	2back/STIM_010.jpg
1498.357	0.741	correct	2back	Block3	2back/STIM_010.jpg
1501.983	0.579	correct	2back	Block3	2back/STIM_011.jpg
1505.46	1.008	correct	2back	Block3	2back/STIM_011.jpg
1508.587	0.578	correct	2back	Block3	2back/STIM_011.jpg
1513.164	0.74	correct	2back	Block3	2back/STIM_012.jpg
1516.433	0.616	correct	2back	Block3	2back/STIM_012.jpg
1519.384	0.571	correct	2back	Block3	2back/STIM_012.jpg
1522.869	0.964	correct	2back	Block3	2back/STIM_013.jpg
1527.829	0.737	correct	2back	Block3	2back/STIM_013.jpg
1532.316	0.834	correct	2back	Block3	2back/STIM_013.jpg
1535.667	0.805	correct	2back	Block3	2back/STIM_014.jpg
1538.597	0.721	correct	2back	Block3	2back/STIM_014.jpg
1542.496	0.77	correct	2back	Block3	2back/STIM_014.jpg
1545.81	0.734	correct	2back	Block3	2back/STIM_015.jpg
1549.934	0.623	correct	2back	Block3	2back/STIM_015.jpg
1553.17	0.64	correct	2back	Block3	2back/STIM_015.jpg
1556.359	0.494	correct	2back	Block3	2back/STIM_016.jpg
1559.294	0.698	correct	2back	Block3	2back/STIM_016.jpg
1563.139	0.86	correct	2back	Block3	2back/STIM_016.jpg
1567.651	1.025	correct	2back	Block3	2back/STIM_017.jpg
1572.231	0.514	correct	2back	Block3	2back/STIM_017.jpg
1575.619	0.986	correct	2back	Block3	2back/STIM_017.jpg
1579.732	0.45	correct	2back	Block3	2back/STIM_018.jpg
1583.077	0.582	correct	2back	Block3	2back/STIM_018.jpg
1587.334	0.523	correct	2back	Block3	2back/STIM_018.jpg
1590.582	0.509	correct	2back	Block3	2back/STIM_019.jpg
1594.683	0.97	correct	2back	Block3	2back/STIM_019.jpg
1599.08	0.686	correct	2back	Block3	2back/STIM_019.jpg
1602.64	0.723	incorrect	2back	Block3	2back/STIM_020.jpg
1606.358	0.862	correct	2back	Block3	2back/STIM_020.jpg
1610.771	1.027	correct	2back	Block3	2back/STIM_020.jpg
1614.403	0.948	correct	2back	Block3	2back/STIM_021.jpg
1617.693	0.566	correct	2back	Block3	2back/STIM_021.jpg
1620.577	0.816	correct	2back	Block3	2back/STIM_021.jpg
1624.928	0.541	correct	2back	Block3	2back/STIM_022.jpg
1629.18	0.465	correct	2back	Block3	2back/STIM_022.jpg
1632.036	0.994	correct	2back	Block3	2back/STIM_022.jpg
1636.146	0.765	correct	2back	Block3	2back/STIM_023.jpg
1639.246	0.841	correct	2back	Block3	2back/STIM_023.jpg
1642.783	0.463	correct	2back	Block3	2back/STIM_023.jpg
1645.635	0.538	correct	2back	Block3	2back/STIM_024.jpg
1649.605	0.695	correct	2back	Block3	2back/STIM_024.jpg
1652.705	0.667	correct	2back	Block3	2back/STIM_024.jpg
1655.469	0.528	correct	2back	Block3	2back/STIM_025.jpg
1658.413	0.969	correct	2back	Block3	2back/STIM_025.jpg
1661.71	0.717	correct	2back	Block3	2back/STIM_025.jpg
1664.879	0.736	correct	2back	Block3	2back/STIM_026.jpg
1667.804	0.556	correct	2back	Block3	2back/STIM_026.jpg
1671.151	1.011	correct	2back	Block3	2back/STIM_026.jpg
1674.349	0.608	correct	2back	Block3	2back/STIM_027.jpg
1678.397	0.958	correct	2back	Block3	2back/STIM_027.jpg
1683.131	0.674	correct	2back	Block3	2back/STIM_027.jpg
1686.495	0.815	correct	2back	Block3	2back/STIM_028.jpg
1689.436	1.002	correct	2back	Block3	2back/STIM_028.jpg
1692.704	0.576	correct	2back	Block3	2back/STIM_028.jpg
1695.503	0.737	correct	2back	Block3	2back/STIM_029.jpg
1699.037	0.583	correct	2back	Block3	2back/STIM_029.jpg
1702.786	1.022	correct	2back	Block3	2back/STIM_029.jpg
1706.168	0.882	correct	2back	Block3	2back/STIM_030.jpg
1709.175	0.571	correct	2back	Block3	2back/STIM_030.jpg
1712.48	0.445	correct	2back	Block3	2back/STIM_030.jpg
1716.337	0.947	correct	2back	Block3	2back/STIM_031.jpg
1719.96	0.566	correct	2back	Block3	2back/STIM_031.jpg
1722.885	0.547	correct	2back	Block3	2back/STIM_031.jpg
1726.516	0.741	correct	2back	Block3	2back/STIM_032.jpg
1730.932	0.578	correct	2back	Block3	2back/STIM_032.jpg
1734.901	0.601	correct	2back	Block3	2back/STIM_032.jpg
1738.612	0.696	correct	2back	Block3	2back/STIM_033.jpg
1741.939	0.795	correct	2back	Block3	2back/STIM_033.jpg
1745.741	0.954	correct	2back	Block3	2back/STIM_033.jpg
1748.81	0.97	correct	2back	Block3	2back/STIM_034.jpg
1752.354	0.565	correct	2back	Block3	2back/STIM_034.jpg
1755.054	0.799	correct	2back	Block3	2back/STIM_034.jpg
1759.771	0.468	correct	2back	Block3	2back/STIM_035.jpg
1763.773	0.761	correct	2back	Block3	2back/STIM_035.jpg
1768.531	1.025	correct	2back	Block3	2back/STIM_035.jpg
1772.975	0.907	correct	2back	Block3	2back/STIM_036.jpg
1776.556	0.679	correct	2back	Block3	2back/STIM_036.jpg
1781.141	0.832	correct	2back	Block3	2back/STIM_036.jpg
1785.57	0.676	correct	2back	Block3	2back/STIM_037.jpg
1790.18	0.622	correct	2back	Block3	2back/STIM_037.jpg
1794.243	0.84	correct	2back	Block3	2back/STIM_037.jpg
1798.965	0.984	correct	2back	Block3	2back/STIM_038.jpg
1803.284	0.646	correct	2back	Block3	2back/STIM_038.jpg
1806.121	0.756	correct	2back	Block3	2back/STIM_038.jpg
1810.39	0.89	correct	2back	Block3	2back/STIM_039.jpg
1814.638	0.853	correct	2back	Block3	2back/STIM_039.jpg
1817.65	0.561	correct	2back	Block3	2back/STIM_039.jpg
1821.937	0.49	correct	0back	Block3	0back/STIM_000.jpg
1826.058	0.539	correct	0back	Block3	0back/STIM_000.jpg
1829.945	0.435	correct	0back	Block3	0back/STIM_000.jpg
1832.755	0.556	correct	0back	Block3	0back/STIM_001.jpg
1835.538	0.711	correct	0back	Block3	0back/STIM_001.jpg
1839.683	0.665	correct	0back	Block3	0back/STIM_001.jpg
1843.0	0.62	correct	0back	Block3	0back/STIM_002.jpg
1846.725	0.712	correct	0back	Block3	0back/STIM_002.jpg
1851.193	0.633	correct	0back	Block3	0back/STIM_002.jpg
1854.23	0.84	correct	0back	Block3	0back/STIM_003.jpg
1857.366	0.685	correct	0back	Block3	0back/STIM_003.jpg
1861.621	0.536	correct	0back	Block3	0back/STIM_003.jpg
1865.031	0.775	correct	0back	Block3	0back/STIM_004.jpg
1868.503	0.507	correct	0back	Block3	0back/STIM_004.jpg
1871.567	0.816	correct	0back	Block3	0back/STIM_004.jpg
1875.137	0.727	correct	0back	Block3	0back/STIM_005.jpg
1878.919	0.557	correct	0back	Block3	0back/STIM_005.jpg
1881.577	0.633	correct	0back	Block3	0back/STIM_005.jpg
1885.851	0.763	correct	0back	Block3	0back/STIM_006.jpg
1888.905	0.64	correct	0back	Block3	0back/STIM_006.jpg
1891.594	0.686	correct	0back	Block3	0back/STIM_006.jpg
1894.698	0.505	correct	0back	Block3	0back/STIM_007.jpg
1897.455	0.668	correct	0back	Block3	0back/STIM_007.jpg
1901.599	0.594	correct	0back	Block3	0back/STIM_007.jpg
1904.411	0.604	correct	0back	Block3	0back/STIM_008.jpg
1908.157	0.594	correct	0back	Block3	0back/STIM_008.jpg
1910.756	0.679	correct	0back	Block3	0back/STIM_008.jpg
1913.923	0.711	correct	0back	Block3	0back/STIM_009.jpg
1918.126	0.813	correct	0back	Block3	0back/STIM_009.jpg
1922.485	0.804	correct	0back	Block3	0back/STIM_009.jpg
1926.969	0.427	correct	0back	Block3	0back/STIM_010.jpg
1930.36	0.596	correct	0back	Block3	0back/STIM_010.jpg
1934.199	0.474	correct	0back	Block3	0back/STIM_010.jpg
1938.121	0.652	correct	0back	Block3	0back/STIM_011.jpg
1942.717	0.559	correct	0back	Block3	0back/STIM_011.jpg
1946.896	0.59	correct	0back	Block3	0back/STIM_011.jpg
1950.316	0.826	correct	0back	Block3	0back/STIM_012.jpg
1953.612	0.733	correct	0back	Block3	0back/STIM_012.jpg
1958.12	0.642	correct	0back	Block3	0back/STIM_012.jpg
1962.388	0.674	correct	0back	Block3	0back/STIM_013.jpg
1966.611	0.551	correct	0back	Block3	0back/STIM_013.jpg
1969.774	0.832	correct	0back	Block3	0back/STIM_013.jpg
1974.428	0.424	correct	0back	Block3	0back/STIM_014.jpg
1977.339	0.728	correct	0back	Block3	0back/STIM_014.jpg
1980.393	0.519	correct	0back	Block3	0back/STIM_014.jpg
1983.267	0.658	correct	0back	Block3	0back/STIM_015.jpg
1987.816	0.798	correct	0back	Block3	0back/STIM_015.jpg
1992.118	0.444	correct	0back	Block3	0back/STIM_015.jpg
1995.267	0.622	correct	0back	Block3	0back/STIM_016.jpg
1999.447	0.795	correct	0back	Block3	0back/STIM_016.jpg
2003.802	0.505	correct	0back	Block3	0back/STIM_016.jpg
2006.912	0.759	correct	0back	Block3	0back/STIM_017.jpg
2011.312	0.476	correct	0back	Block3	0back/STIM_017.jpg
2014.32	0.779	correct	0back	Block3	0back/STIM_017.jpg
2019.027	0.442	correct	0back	Block3	0back/STIM_018.jpg
2023.335	0.556	correct	0back	Block3	0back/STIM_018.jpg
2027.871	0.552	correct	0back	Block3	0back/STIM_018.jpg
2031.81	0.737	correct	0back	Block3	0back/STIM_019.jpg
2035.208	0.696	correct	0back	Block3	0back/STIM_019.jpg
2039.378	0.678	correct	0back	Block3	0back/STIM_019.jpg
2043.438	0.682	correct	2back	Block4	2back/STIM_000.jpg
2046.507	0.797	correct	2back	Block4	2back/STIM_000.jpg
2050.369	0.779	correct	2back	Block4	2back/STIM_000.jpg
2054.119	0.535	correct	2back	Block4	2back/STIM_001.jpg
2058.041	0.688	correct	2back	Block4	2back/STIM_001.jpg
2062.255	0.483	correct	2back	Block4	2back/STIM_001.jpg
2064.989	0.472	correct	2back	Block4	2back/STIM_002.jpg
2069.317	1.002	correct	2back	Block4	2back/STIM_002.jpg
2073.472	0.679	correct	2back	Block4	2back/STIM_002.jpg
2076.221	0.802	correct	2back	Block4	2back/STIM_003.jpg
2079.498	0.518	correct	2back	Block4	2back/STIM_003.jpg
2083.945	0.529	correct	2back	Block4	2back/STIM_003.jpg
2086.719	0.887	correct	2back	Block4	2back/STIM_004.jpg
2090.582	0.615	correct	2back	Block4	2back/STIM_004.jpg
2093.534	0.958	correct	2back	Block4	2back/STIM_004.jpg
2097.043	0.775	correct	2back	Block4	2back/STIM_005.jpg
2100.953	0.949	correct	2back	Block4	2back/STIM_005.jpg
2104.084	0.757	correct	2back	Block4	2back/STIM_005.jpg
2107.12	1.028	correct	2back	Block4	2back/STIM_006.jpg
2110.929	0.587	correct	2back	Block4	2back/STIM_006.jpg
2115.455	0.563	correct	2back	Block4	2back/STIM_006.jpg
2119.423	0.582	correct	2back	Block4	2back/STIM_007.jpg
2123.95	0.881	correct	2back	Block4	2back/STIM_007.jpg
2128.709	0.651	correct	2back	Block4	2back/STIM_007.jpg
2131.847	0.987	correct	2back	Block4	2back/STIM_008.jpg
2135.529	0.696	correct	2back	Block4	2back/STIM_008.jpg
2138.609	0.672	correct	2back	Block4	2back/STIM_008.jpg
2141.651	0.799	correct	2back	Block4	2back/STIM_009.jpg
2146.231	0.946	correct	2back	Block4	2back/STIM_009.jpg
2149.542	0.681	correct	2back	Block4	2back/STIM_009.jpg
2154.012	0.813	correct	2back	Block4	2back/STIM_010.jpg
2157.567	0.636	correct	2back	Block4	2back/STIM_010.jpg
2160.277	0.647	correct	2back	Block4	2back/STIM_010.jpg
2163.673	0.983	correct	2back	Block4	2back/STIM_011.jpg
2166.79	0.979	correct	2back	Block4	2back/STIM_011.jpg
2170.692	0.665	correct	2back	Block4	2back/STIM_011.jpg
2173.433	0.925	correct	2back	Block4	2back/STIM_012.jpg
2177.329	0.499	correct	2back	Block4	2back/STIM_012.jpg
2181.002	0.45	correct	2back	Block4	2back/STIM_012.jpg
2184.437	0.523	correct	2back	Block4	2back/STIM_013.jpg
2187.042	0.91	correct	2back	Block4	2back/STIM_013.jpg
2190.531	0.582	correct	2back	Block4	2back/STIM_013.jpg
2194.884	0.642	correct	2back	Block4	2back/STIM_014.jpg
2198.234	0.534	correct	2back	Block4	2back/STIM_014.jpg
2200.956	0.728	correct	2back	Block4	2back/STIM_014.jpg
2204.343	0.772	correct	2back	Block4	2back/STIM_015.jpg
2208.269	0.883	correct	2back	Block4	2back/STIM_015.jpg
2211.955	0.64	correct	2back	Block4	2back/STIM_015.jpg
2214.694	0.718	correct	2back	Block4	2back/STIM_016.jpg
2217.752	0.882	correct	2back	Block4	2back/STIM_016.jpg
2221.459	0.562	correct	2back	Block4	2back/STIM_016.jpg
2225.817	0.643	correct	2back	Block4	2back/STIM_017.jpg
2230.415	0.79	correct	2back	Block4	2back/STIM_017.jpg
2234.452	0.878	correct	2back	Block4	2back/STIM_017.jpg
2237.846	0.858	correct	2back	Block4	2back/STIM_018.jpg
2241.202	0.88	correct	2back	Block4	2back/STIM_018.jpg
2245.915	0.642	correct	2back	Block4	2back/STIM_018.jpg
2249.09	0.769	correct	2back	Block4	2back/STIM_019.jpg
2252.331	0.639	correct	2back	Block4	2back/STIM_019.jpg
2255.084	0.737	correct	2back	Block4	2back/STIM_019.jpg
2258.65	0.567	correct	2back	Block4	2back/STIM_020.jpg
2261.594	0.766	correct	2back	Block4	2back/STIM_020.jpg
2265.58	0.487	correct	2back	Block4	2back/STIM_020.jpg
2269.01	0.776	correct	2back	Block4	2back/STIM_021.jpg
2273.733	0.803	correct	2back	Block4	2back/STIM_021.jpg
2276.885	0.527	correct	2back	Block4	2back/STIM_021.jpg
2280.723	0.52	correct	2back	Block4	2back/STIM_022.jpg
2284.344	0.85	correct	2back	Block4	2back/STIM_022.jpg
2287.743	0.95	correct	2back	Block4	2back/STIM_022.jpg
2290.753	0.678	correct	2back	Block4	2back/STIM_023.jpg
2294.625	0.954	correct	2back	Block4	2back/STIM_023.jpg
2298.442	0.929	correct	2back	Block4	2back/STIM_023.jpg
2302.704	0.495	correct	2back	Block4	2back/STIM_024.jpg
2306.581	0.62	correct	2back	Block4	2back/STIM_024.jpg
2309.229	0.881	correct	2back	Block4	2back/STIM_024.jpg
2312.413	0.518	correct	2back	Block4	2back/STIM_025.jpg
2316.9	1.014	correct	2back	Block4	2back/STIM_025.jpg
2321.012	0.464	correct	2back	Block4	2back/STIM_025.jpg
2323.485	0.727	correct	2back	Block4	2back/STIM_026.jpg
2326.999	0.9	correct	2back	Block4	2back/STIM_026.jpg
2331.76	0.651	correct	2back	Block4	2back/STIM_026.jpg
2334.448	0.917	correct	2back	Block4	2back/STIM_027.jpg
2338.831	0.49	correct	2back	Block4	2back/STIM_027.jpg
2342.312	0.544	correct	2back	Block4	2back/STIM_027.jpg
2346.346	0.764	correct	2back	Block4	2back/STIM_028.jpg
2350.481	0.797	correct	2back	Block4	2back/STIM_028.jpg
2354.229	0.625	correct	2back	Block4	2back/STIM_028.jpg
2357.693	0.518	correct	2back	Block4	2back/STIM_029.jpg
2361.933	0.557	correct	2back	Block4	2back/STIM_029.jpg
2365.808	1.01	correct	2back	Block4	2back/STIM_029.jpg
2370.497	0.703	correct	2back	Block4	2back/STIM_030.jpg
2373.729	0.945	correct	2back	Block4	2back/STIM_030.jpg
2377.939	0.914	correct	2back	Block4	2back/STIM_030.jpg
2382.245	0.785	correct	2back	Block4	2back/STIM_031.jpg
2385.531	0.606	correct	2back	Block4	2back/STIM_031.jpg
2389.173	0.896	correct	2back	Block4	2back/STIM_031.jpg
2393.739	0.797	correct	2back	Block4	2back/STIM_032.jpg
2397.43	0.919	correct	2back	Block4	2back/STIM_032.jpg
2400.759	0.595	correct	2back	Block4	2back/STIM_032.jpg
2405.257	0.773	correct	2back	Block4	2back/STIM_033.jpg
2408.671	0.559	correct	2back	Block4	2back/STIM_033.jpg
2412.728	0.924	correct	2back	Block4	2back/STIM_033.jpg
2416.173	0.634	correct	2back	Block4	2back/STIM_034.jpg
2418.88	0.484	correct	2back	Block4	2back/STIM_034.jpg
2422.291	0.728	correct	2back	Block4	2back/STIM_034.jpg
2425.824	0.635	correct	2back	Block4	2back/STIM_035.jpg
2430.062	0.732	correct	2back	Block4	2back/STIM_035.jpg
2433.879	0.817	correct	2back	Block4	2back/STIM_035.jpg
2438.073	0.749	correct	2back	Block4	2back/STIM_036.jpg
2441.854	0.534	correct	2back	Block4	2back/STIM_036.jpg
2445.774	0.801	correct	2back	Block4	2back/STIM_036.jpg
2449.983	0.45	correct	2back	Block4	2back/STIM_037.jpg
2454.211	0.82	correct	2back	Block4	2back/STIM_037.jpg
2457.679	0.474	correct	2back	Block4	2back/STIM_037.jpg
2461.282	0.905	correct	2back	Block4	2back/STIM_038.jpg
2464.555	0.789	correct	2back	Block4	2back/STIM_038.jpg
2467.664	0.938	correct	2back	Block4	2back/STIM_038.jpg
2472.052	0.723	correct	2back	Block4	2back/STIM_039.jpg
2475.416	0.942	correct	2back	Block4	2back/STIM_039.jpg
2478.602	0.636	correct	2back	Block4	2back/STIM_039.jpg
2481.792	0.819	correct	0back	Block4	0back/STIM_000.jpg
2484.612	0.751	correct	0back	Block4	0back/STIM_000.jpg
2488.533	0.717	correct	0back	Block4	0back/STIM_000.jpg
2492.43	0.544	correct	0back	Block4	0back/STIM_001.jpg
2496.558	0.584	correct	0back	Block4	0back/STIM_001.jpg
2500.498	0.429	correct	0back	Block4	0back/STIM_001.jpg
2503.287	0.738	correct	0back	Block4	0back/STIM_002.jpg
2507.353	0.827	correct	0back	Block4	0back/STIM_002.jpg
2512.089	0.663	correct	0back	Block4	0back/STIM_002.jpg
2514.911	0.838	correct	0back	Block4	0back/STIM_003.jpg
2518.255	0.637	correct	0back	Block4	0back/STIM_003.jpg
2522.794	0.426	correct	0back	Block4	0back/STIM_003.jpg
2526.354	0.834	correct	0back	Block4	0back/STIM_004.jpg
2531.084	0.626	correct	0back	Block4	0back/STIM_004.jpg
2534.463	0.753	correct	0back	Block4	0back/STIM_004.jpg
2538.504	0.7	correct	0back	Block4	0back/STIM_005.jpg
2542.884	0.441	correct	0back	Block4	0back/STIM_005.jpg
2546.692	0.428	correct	0back	Block4	0back/STIM_005.jpg
2550.3	0.666	correct	0back	Block4	0back/STIM_006.jpg
2554.789	0.473	correct	0back	Block4	0back/STIM_006.jpg
2558.096	0.792	correct	0back	Block4	0back/STIM_006.jpg
2561.694	0.762	correct	0back	Block4	0back/STIM_007.jpg
2565.097	0.832	correct	0back	Block4	0back/STIM_007.jpg
2568.087	0.656	correct	0back	Block4	0back/STIM_007.jpg
2572.307	0.503	correct	0back	Block4	0back/STIM_008.jpg
2574.957	0.591	correct	0back	Block4	0back/STIM_008.jpg
2578.144	0.617	correct	0back	Block4	0back/STIM_008.jpg
2580.988	0.844	incorrect	0back	Block4	0back/STIM_009.jpg
2584.798	0.673	correct	0back	Block4	0back/STIM_009.jpg
2588.514	0.622	correct	0back	Block4	0back/STIM_009.jpg
2591.514	0.713	correct	0back	Block4	0back/STIM_010.jpg
2594.9	0.753	correct	0back	Block4	0back/STIM_010.jpg
2598.192	0.478	correct	0back	Block4	0back/STIM_010.jpg
2602.022	0.546	incorrect	0back	Block4	0back/STIM_011.jpg
2605.407	0.841	correct	0back	Block4	0back/STIM_011.jpg
2609.119	0.702	correct	0back	Block4	0back/STIM_011.jpg
2612.266	0.665	correct	0back	Block4	0back/STIM_012.jpg
2616.392	0.784	correct	0back	Block4	0back/STIM_012.jpg
2619.933	0.715	correct	0back	Block4	0back/STIM_012.jpg
2623.411	0.679	correct	0back	Block4	0back/STIM_013.jpg
2627.671	0.486	correct	0back	Block4	0back/STIM_013.jpg
2630.661	0.781	correct	0back	Block4	0back/STIM_013.jpg
2634.27	0.785	correct	0back	Block4	0back/STIM_014.jpg
2638.089	0.831	correct	0back	Block4	0back/STIM_014.jpg
2641.514	0.673	correct	0back	Block4	0back/STIM_014.jpg
2646.178	0.593	correct	0back	Block4	0back/STIM_015.jpg
2650.121	0.665	correct	0back	Block4	0back/STIM_015.jpg
2654.177	0.624	correct	0back	Block4	0back/STIM_015.jpg
2657.106	0.608	correct	0back	Block4	0back/STIM_016.jpg
2660.131	0.777	correct	0back	Block4	0back/STIM_016.jpg
2663.644	0.701	correct	0back	Block4	0back/STIM_016.jpg
2667.901	0.775	correct	0back	Block4	0back/STIM_017.jpg
2672.278	0.673	correct	0back	Block4	0back/STIM_017.jpg
2676.133	0.818	correct	0back	Block4	0back/STIM_017.jpg
2680.409	0.772	correct	0back	Block4	0back/STIM_018.jpg
2684.479	0.538	correct	0back	Block4	0back/STIM_018.jpg
2688.62	0.51	correct	0back	Block4	0back/STIM_018.jpg
2691.708	0.62	correct	0back	Block4	0back/STIM_019.jpg
2695.794	0.452	correct	0back	Block4	0back/STIM_019.jpg
2699.615	0.448	correct	0back	Block4	0back/STIM_019.jpg
