onset	duration	response_time_ms	trial_type	learning_stage	stimulus	response_port
0.0	1.295	1294.7	2back	Block1	2back/STIM_000.jpg	100
3.941	0.91	910.3	2back	Block1	2back/STIM_000.jpg	100
6.842	1.439	1439.2	2back	Block1	2back/STIM_000.jpg	99
11.717	0.775	774.7	2back	Block1	2back/STIM_001.jpg	100
15.423	0.858	857.5	2back	Block1	2back/STIM_001.jpg	99
18.721	1.511	1511.1	2back	Block1	2back/STIM_001.jpg	99
22.011	0.964	964.5	2back	Block1	2back/STIM_002.jpg	99
25.922	0.853	852.6	2back	Block1	2back/STIM_002.jpg	100
30.462	1.287	1287.0	2back	Block1	2back/STIM_002.jpg	99
35.175	1.484	1484.2	2back	Block1	2back/STIM_003.jpg	100
40.221	1.065	1064.7	2back	Block1	2back/STIM_003.jpg	99
43.468	1.178	1177.5	2back	Block1	2back/STIM_003.jpg	99
47.686	0.995	994.8	2back	Block1	2back/STIM_004.jpg	100
51.124	1.326	1325.8	2back	Block1	2back/STIM_004.jpg	99
55.292	1.365	1364.7	2back	Block1	2back/STIM_004.jpg	100
60.316	1.464	1463.9	2back	Block1	2back/STIM_005.jpg	100
63.866	0.676	676.5	2back	Block1	2back/STIM_005.jpg	99
67.096	1.179	1179.1	2back	Block1	2back/STIM_005.jpg	99
71.128	1.354	1353.8	2back	Block1	2back/STIM_006.jpg	99
75.974	1.113	1113.1	2back	Block1	2back/STIM_006.jpg	100
79.325	1.376	1376.3	2back	Block1	2back/STIM_006.jpg	100
82.482	1.474	1473.8	2back	Block1	2back/STIM_007.jpg	100
87.501	1.52	1519.6	2back	Block1	2back/STIM_007.jpg	99
91.188	1.453	1453.3	2back	Block1	2back/STIM_007.jpg	99
96.373	1.291	1290.6	2back	Block1	2back/STIM_008.jpg	100
101.122	1.488	1487.8	2back	Block1	2back/STIM_008.jpg	99
105.762	1.095	1095.2	2back	Block1	2back/STIM_008.jpg	99
108.9	0.907	906.9	2back	Block1	2back/STIM_009.jpg	99
112.038	1.243	1243.1	2back	Block1	2back/STIM_009.jpg	99
116.36	1.412	1412.5	2back	Block1	2back/STIM_009.jpg	99
121.11	0.854	854.2	2back	Block1	2back/STIM_010.jpg	99
125.533	0.774	774.3	2back	Block1	2back/STIM_010.jpg	99
129.728	0.706	705.7	2back	Block1	2back/STIM_010.jpg	100
133.314	1.325	1324.8	2back	Block1	2back/STIM_011.jpg	100
137.8	1.135	1135.1	2back	Block1	2back/STIM_011.jpg	100
141.51	0.766	766.5	2back	Block1	2back/STIM_011.jpg	100
146.016	0.968	967.9	2back	Block1	2back/STIM_012.jpg	99
149.377	0.793	792.9	2back	Block1	2back/STIM_012.jpg	99
152.777	0.948	947.9	2back	Block1	2back/STIM_012.jpg	100
156.993	1.194	1194.1	2back	Block1	2back/STIM_013.jpg	99
161.796	1.242	1242.4	2back	Block1	2back/STIM_013.jpg	100
166.727	0.951	950.6	2back	Block1	2back/STIM_013.jpg	100
170.344	1.373	1373.1	2back	Block1	2back/STIM_014.jpg	100
174.644	0.698	698.1	2back	Block1	2back/STIM_014.jpg	99
177.363	1.284	1284.4	2back	Block1	2back/STIM_014.jpg	100
181.473	1.515	1514.9	2back	Block1	2back/STIM_015.jpg	100
186.051	1.308	1308.5	2back	Block1	2back/STIM_015.jpg	100
191.105	0.89	890.4	2back	Block1	2back/STIM_015.jpg	99
194.857	0.902	902.0	2back	Block1	2back/STIM_016.jpg	100
198.057	1.2	1200.2	2back	Block1	2back/STIM_016.jpg	99
202.963	0.977	977.4	2back	Block1	2back/STIM_016.jpg	99
206.58	0.693	692.9	2back	Block1	2back/STIM_017.jpg	100
209.61	1.265	1265.4	2back	Block1	2back/STIM_017.jpg	100
212.924	1.188	1187.9	2back	Block1	2back/STIM_017.jpg	100
216.352	1.024	1023.7	2back	Block1	2back/STIM_018.jpg	99
219.801	1.319	1319.0	2back	Block1	2back/STIM_018.jpg	99
223.724	0.999	998.6	2back	Block1	2back/STIM_018.jpg	100
227.507	0.768	767.8	2back	Block1	2back/STIM_019.jpg	100
231.964	1.12	1120.0	2back	Block1	2back/STIM_019.jpg	100
235.839	1.42	1419.9	2back	Block1	2back/STIM_019.jpg	100
239.112	1.103	1102.6	2back	Block1	2back/STIM_020.jpg	100
244.013	0.725	725.1	2back	Block1	2back/STIM_020.jpg	100
248.055	0.842	842.5	2back	Block1	2back/STIM_020.jpg	99
252.584	0.776	776.5	2back	Block1	2back/STIM_021.jpg	100
256.933	1.178	1178.0	2back	Block1	2back/STIM_021.jpg	100
260.037	0.814	813.7	2back	Block1	2back/STIM_021.jpg	100
263.909	1.03	1030.2	2back	Block1	2back/STIM_022.jpg	99
268.131	0.981	981.2	2back	Block1	2back/STIM_022.jpg	100
272.431	1.233	1233.4	2back	Block1	2back/STIM_022.jpg	100
277.52	1.482	1481.7	2back	Block1	2back/STIM_023.jpg	99
282.548	0.835	835.4	2back	Block1	2back/STIM_023.jpg	99
285.72	0.922	922.3	2back	Block1	2back/STIM_023.jpg	100
289.113	1.113	1113.2	2back	Block1	2back/STIM_024.jpg	99
292.366	1.203	1202.6	2back	Block1	2back/STIM_024.jpg	99
296.255	1.107	1106.8	2back	Block1	2back/STIM_024.jpg	99
300.762	1.139	1138.7	2back	Block1	2back/STIM_025.jpg	99
304.136	0.893	892.7	2back	Block1	2back/STIM_025.jpg	99
308.67	0.756	756.2	2back	Block1	2back/STIM_025.jpg	99
312.711	1.343	1343.0	2back	Block1	2back/STIM_026.jpg	99
316.493	0.797	796.7	2back	Block1	2back/STIM_026.jpg	99
320.32	1.287	1287.3	2back	Block1	2back/STIM_026.jpg	99
324.933	1.194	1193.8	2back	Block1	2back/STIM_027.jpg	100
328.206	1.288	1288.4	2back	Block1	2back/STIM_027.jpg	99
332.271	0.99	990.2	2back	Block1	2back/STIM_027.jpg	99
336.436	1.412	1412.2	2back	Block1	2back/STIM_028.jpg	99
340.181	0.682	681.7	2back	Block1	2back/STIM_028.jpg	99
344.003	1.468	1467.9	2back	Block1	2back/STIM_028.jpg	100
348.784	1.446	1446.5	2back	Block1	2back/STIM_029.jpg	100
352.835	0.738	738.2	2back	Block1	2back/STIM_029.jpg	99
355.974	1.325	1325.4	2back	Block1	2back/STIM_029.jpg	99
360.434	1.145	1145.2	2back	Block1	2back/STIM_030.jpg	99
364.755	1.366	1365.8	2back	Block1	2back/STIM_030.jpg	100
368.014	0.747	746.9	2back	Block1	2back/STIM_030.jpg	99
371.623	1.012	1012.1	2back	Block1	2back/STIM_031.jpg	100
375.984	1.451	1450.6	2back	Block1	2back/STIM_031.jpg	99
380.345	0.487	486.8	2back	Block1	2back/STIM_031.jpg	100
384.442	1.248	1247.6	2back	Block1	2back/STIM_032.jpg	99
388.165	1.256	1255.6	2back	Block1	2back/STIM_032.jpg	100
391.76	0.841	840.9	2back	Block1	2back/STIM_032.jpg	99
395.931	0.779	779.0	2back	Block1	2back/STIM_033.jpg	99
400.645	0.806	805.8	2back	Block1	2back/STIM_033.jpg	100
404.416	1.06	1059.7	2back	Block1	2back/STIM_033.jpg	100
408.844	1.434	1433.6	2back	Block1	2back/STIM_034.jpg	99
413.573	1.363	1362.9	2back	Block1	2back/STIM_034.jpg	99
418.606	0.935	935.1	2back	Block1	2back/STIM_034.jpg	100
422.142	1.308	1307.9	2back	Block1	2back/STIM_035.jpg	99
426.101	0.798	797.9	2back	Block1	2back/STIM_035.jpg	100
430.479	1.118	1117.7	2back	Block1	2back/STIM_035.jpg	99
434.681	1.465	1464.7	2back	Block1	2back/STIM_036.jpg	99
438.465	1.19	1189.5	2back	Block1	2back/STIM_036.jpg	100
442.646	1.182	1181.9	2back	Block1	2back/STIM_036.jpg	99
445.741	1.536	1536.0	2back	Block1	2back/STIM_037.jpg	100
449.142	0.738	737.8	2back	Block1	2back/STIM_037.jpg	99
453.667	1.297	1296.9	2back	Block1	2back/STIM_037.jpg	99
457.2	1.005	1004.8	2back	Block1	2back/STIM_038.jpg	100
462.054	1.221	1221.0	2back	Block1	2back/STIM_038.jpg	100
466.723	0.813	813.1	2back	Block1	2back/STIM_038.jpg	99
471.143	1.38	1380.5	2back	Block1	2back/STIM_039.jpg	99
474.388	1.038	1037.7	2back	Block1	2back/STIM_039.jpg	99
477.29	1.312	1312.0	2back	Block1	2back/STIM_039.jpg	100
480.738	0.777	776.7	0back	Block1	0back/STIM_000.jpg	99
484.697	0.576	575.7	0back	Block1	0back/STIM_000.jpg	100
488.842	0.51	509.7	0back	Block1	0back/STIM_000.jpg	100
492.705	0.799	798.9	0back	Block1	0back/STIM_001.jpg	99
496.943	0.43	430.2	0back	Block1	0back/STIM_001.jpg	100
500.213	0.723	723.2	0back	Block1	0back/STIM_001.jpg	99
503.259	0.898	898.3	0back	Block1	0back/STIM_002.jpg	100
507.646	0.487	487.0	0back	Block1	0back/STIM_002.jpg	99
511.628	0.808	808.1	0back	Block1	0back/STIM_002.jpg	99
514.768	0.527	526.7	0back	Block1	0back/STIM_003.jpg	99
518.647	0.806	806.3	0back	Block1	0back/STIM_003.jpg	100
522.686	0.567	567.1	0back	Block1	0back/STIM_003.jpg	100
526.387	0.476	475.6	0back	Block1	0back/STIM_004.jpg	100
528.834	0.538	538.4	0back	Block1	0back/STIM_004.jpg	100
533.09	0.463	463.4	0back	Block1	0back/STIM_004.jpg	100
536.825	0.644	644.1	0back	Block1	0back/STIM_005.jpg	100
539.547	0.775	775.1	0back	Block1	0back/STIM_005.jpg	99
544.126	0.78	779.6	0back	Block1	0back/STIM_005.jpg	99
547.145	0.492	491.5	0back	Block1	0back/STIM_006.jpg	99
550.966	0.651	650.9	0back	Block1	0back/STIM_006.jpg	100
554.451	0.567	567.1	0back	Block1	0back/STIM_006.jpg	100
557.797	0.819	818.9	0back	Block1	0back/STIM_007.jpg	100
560.647	0.496	496.5	0back	Block1	0back/STIM_007.jpg	100
563.462	0.9	900.4	0back	Block1	0back/STIM_007.jpg	99
566.482	0.637	637.1	0back	Block1	0back/STIM_008.jpg	99
569.188	0.709	708.6	0back	Block1	0back/STIM_008.jpg	99
573.117	0.55	550.2	0back	Block1	0back/STIM_008.jpg	100
575.767	0.872	871.7	0back	Block1	0back/STIM_009.jpg	100
579.393	0.549	549.3	0back	Block1	0back/STIM_009.jpg	99
582.284	0.491	490.7	0back	Block1	0back/STIM_009.jpg	100
585.996	0.424	424.4	0back	Block1	0back/STIM_010.jpg	100
589.471	0.685	684.6	0back	Block1	0back/STIM_010.jpg	99
593.36	0.871	871.0	0back	Block1	0back/STIM_010.jpg	100
596.11	0.686	686.2	0back	Block1	0back/STIM_011.jpg	99
599.705	0.365	364.7	0back	Block1	0back/STIM_011.jpg	100
602.994	0.725	724.7	0back	Block1	0back/STIM_011.jpg	100
607.371	0.966	966.0	0back	Block1	0back/STIM_012.jpg	100
612.038	0.558	558.4	0back	Block1	0back/STIM_012.jpg	100
615.595	0.54	540.1	0back	Block1	0back/STIM_012.jpg	99
618.41	0.506	506.2	0back	Block1	0back/STIM_013.jpg	99
621.85	0.532	531.7	0back	Block1	0back/STIM_013.jpg	99
624.566	0.547	547.2	0back	Block1	0back/STIM_013.jpg	99
628.499	0.884	883.5	0back	Block1	0back/STIM_014.jpg	99
631.605	0.646	645.9	0back	Block1	0back/STIM_014.jpg	99
635.437	0.866	866.0	0back	Block1	0back/STIM_014.jpg	100
638.444	0.544	544.5	0back	Block1	0back/STIM_015.jpg	99
641.165	0.715	715.3	0back	Block1	0back/STIM_015.jpg	100
645.62	0.822	821.8	0back	Block1	0back/STIM_015.jpg	100
650.163	0.511	511.2	0back	Block1	0back/STIM_016.jpg	99
653.626	0.544	544.3	0back	Block1	0back/STIM_016.jpg	100
656.688	0.688	687.5	0back	Block1	0back/STIM_016.jpg	99
661.16	0.612	612.1	0back	Block1	0back/STIM_017.jpg	99
665.555	0.639	639.3	0back	Block1	0back/STIM_017.jpg	100
669.513	0.614	614.4	0back	Block1	0back/STIM_017.jpg	100
672.281	0.503	503.2	0back	Block1	0back/STIM_018.jpg	99
675.979	0.7	700.0	0back	Block1	0back/STIM_018.jpg	99
680.502	0.549	549.1	0back	Block1	0back/STIM_018.jpg	100
683.85	0.623	622.8	0back	Block1	0back/STIM_019.jpg	100
687.554	0.556	555.6	0back	Block1	0back/STIM_019.jpg	99
690.48	0.569	569.1	0back	Block1	0back/STIM_019.jpg	99
693.677	0.687	686.7	2back	Block2	2back/STIM_000.jpg	100
696.845	0.831	831.0	2back	Block2	2back/STIM_000.jpg	99
700.663	0.904	904.1	2back	Block2	2back/STIM_000.jpg	99
704.949	1.126	1125.6	2back	Block2	2back/STIM_001.jpg	100
708.573	0.77	769.9	2back	Block2	2back/STIM_001.jpg	100
711.708	0.83	829.6	2back	Block2	2back/STIM_001.jpg	99
714.972	1.147	1146.6	2back	Block2	2back/STIM_002.jpg	100
717.958	1.224	1223.8	2back	Block2	2back/STIM_002.jpg	99
722.457	0.618	618.1	2back	Block2	2back/STIM_002.jpg	99
725.116	0.658	657.8	2back	Block2	2back/STIM_003.jpg	100
729.137	0.905	904.6	2back	Block2	2back/STIM_003.jpg	99
733.338	0.62	619.6	2back	Block2	2back/STIM_003.jpg	99
736.542	1.257	1257.0	2back	Block2	2back/STIM_004.jpg	99
741.1	1.11	1110.0	2back	Block2	2back/STIM_004.jpg	99
745.491	1.11	1109.9	2back	Block2	2back/STIM_004.jpg	99
749.677	1.045	1044.9	2back	Block2	2back/STIM_005.jpg	100
753.722	0.783	782.6	2back	Block2	2back/STIM_005.jpg	100
757.901	0.515	515.3	2back	Block2	2back/STIM_005.jpg	100
760.488	1.295	1295.4	2back	Block2	2back/STIM_006.jpg	99
764.791	0.914	914.4	2back	Block2	2back/STIM_006.jpg	99
769.367	1.221	1220.7	2back	Block2	2back/STIM_006.jpg	99
772.413	1.078	1078.4	2back	Block2	2back/STIM_007.jpg	100
776.619	0.711	710.8	2back	Block2	2back/STIM_007.jpg	99
779.616	1.182	1182.4	2back	Block2	2back/STIM_007.jpg	100
783.46	1.378	1378.3	2back	Block2	2back/STIM_008.jpg	99
786.714	0.988	987.9	2back	Block2	2back/STIM_008.jpg	100
789.543	0.938	937.7	2back	Block2	2back/STIM_008.jpg	100
794.16	0.785	785.4	2back	Block2	2back/STIM_009.jpg	100
798.234	0.773	772.6	2back	Block2	2back/STIM_009.jpg	100
801.513	1.261	1261.1	2back	Block2	2back/STIM_009.jpg	100
806.293	0.564	563.8	2back	Block2	2back/STIM_010.jpg	99
810.18	1.273	1272.7	2back	Block2	2back/STIM_010.jpg	99
815.192	1.04	1040.0	2back	Block2	2back/STIM_010.jpg	100
819.217	1.13	1129.5	2back	Block2	2back/STIM_011.jpg	100
823.435	1.143	1143.3	2back	Block2	2back/STIM_011.jpg	99
827.57	1.123	1123.3	2back	Block2	2back/STIM_011.jpg	99
831.018	0.777	776.7	2back	Block2	2back/STIM_012.jpg	99
835.289	0.488	488.0	2back	Block2	2back/STIM_012.jpg	100
838.415	1.014	1014.3	2back	Block2	2back/STIM_012.jpg	99
842.858	0.772	771.8	2back	Block2	2back/STIM_013.jpg	100
846.715	0.96	959.9	2back	Block2	2back/STIM_013.jpg	99
850.843	0.84	840.3	2back	Block2	2back/STIM_013.jpg	99
855.006	1.017	1017.3	2back	Block2	2back/STIM_014.jpg	99
858.82	1.285	1285.0	2back	Block2	2back/STIM_014.jpg	99
863.305	0.529	528.9	2back	Block2	2back/STIM_014.jpg	99
866.084	0.747	747.0	2back	Block2	2back/STIM_015.jpg	99
870.747	1.136	1136.2	2back	Block2	2back/STIM_015.jpg	99
874.759	1.214	1213.7	2back	Block2	2back/STIM_015.jpg	99
878.299	1.142	1141.5	2back	Block2	2back/STIM_016.jpg	99
882.885	0.769	768.6	2back	Block2	2back/STIM_016.jpg	100
886.294	0.945	945.3	2back	Block2	2back/STIM_016.jpg	99
891.018	0.693	692.8	2back	Block2	2back/STIM_017.jpg	100
895.539	0.722	721.9	2back	Block2	2back/STIM_017.jpg	99
899.06	0.676	676.4	2back	Block2	2back/STIM_017.jpg	99
901.985	1.037	1037.0	2back	Block2	2back/STIM_018.jpg	100
905.969	0.664	663.7	2back	Block2	2back/STIM_018.jpg	99
908.738	0.839	839.3	2back	Block2	2back/STIM_018.jpg	100
912.718	0.674	674.5	2back	Block2	2back/STIM_019.jpg	99
916.541	1.148	1148.3	2back	Block2	2back/STIM_019.jpg	99
919.726	1.017	1016.8	2back	Block2	2back/STIM_019.jpg	99
922.916	0.733	732.7	2back	Block2	2back/STIM_020.jpg	100
926.693	0.51	510.5	2back	Block2	2back/STIM_020.jpg	99
930.798	0.634	633.9	2back	Block2	2back/STIM_020.jpg	99
933.476	0.72	719.6	2back	Block2	2back/STIM_021.jpg	99
936.515	0.79	789.5	2back	Block2	2back/STIM_021.jpg	99
940.568	0.788	787.9	2back	Block2	2back/STIM_021.jpg	99
945.241	0.664	663.7	2back	Block2	2back/STIM_022.jpg	99
948.485	0.706	705.5	2back	Block2	2back/STIM_022.jpg	100
952.084	1.068	1068.3	2back	Block2	2back/STIM_022.jpg	99
956.686	1.183	1182.7	2back	Block2	2back/STIM_023.jpg	99
960.421	1.061	1060.7	2back	Block2	2back/STIM_023.jpg	99
963.494	1.195	1195.2	2back	Block2	2back/STIM_023.jpg	100
967.854	1.369	1369.4	2back	Block2	2back/STIM_024.jpg	99
971.733	1.044	1044.3	2back	Block2	2back/STIM_024.jpg	99
976.27	0.833	832.6	2back	Block2	2back/STIM_024.jpg	99
980.765	0.701	701.2	2back	Block2	2back/STIM_025.jpg	100
984.15	1.144	1143.7	2back	Block2	2back/STIM_025.jpg	100
989.202	0.6	600.0	2back	Block2	2back/STIM_025.jpg	99
991.853	1.353	1352.6	2back	Block2	2back/STIM_026.jpg	99
995.002	0.702	702.5	2back	Block2	2back/STIM_026.jpg	99
999.603	0.904	903.6	2back	Block2	2back/STIM_026.jpg	99
1003.764	0.894	893.5	2back	Block2	2back/STIM_027.jpg	100
1007.088	1.093	1093.4	2back	Block2	2back/STIM_027.jpg	100
1011.907	0.658	657.7	2back	Block2	2back/STIM_027.jpg	100
1016.139	0.603	602.9	2back	Block2	2back/STIM_028.jpg	100
1020.456	1.067	1067.0	2back	Block2	2back/STIM_028.jpg	100
1024.211	0.484	484.0	2back	Block2	2back/STIM_028.jpg	100
1028.54	0.709	709.2	2back	Block2	2back/STIM_029.jpg	100
1031.428	0.906	905.9	2back	Block2	2back/STIM_029.jpg	100
1036.149	0.963	963.1	2back	Block2	2back/STIM_029.jpg	99
1039.722	0.86	860.1	2back	Block2	2back/STIM_030.jpg	100
1042.949	0.962	962.3	2back	Block2	2back/STIM_030.jpg	99
1046.099	0.866	865.5	2back	Block2	2back/STIM_030.jpg	100
1049.146	0.995	994.7	2back	Block2	2back/STIM_031.jpg	100
1052.687	1.18	1179.7	2back	Block2	2back/STIM_031.jpg	99
1055.777	1.17	1170.1	2back	Block2	2back/STIM_031.jpg	100
1059.159	0.672	672.1	2back	Block2	2back/STIM_032.jpg	99
1063.159	0.775	775.0	2back	Block2	2back/STIM_032.jpg	99
1066.724	0.603	602.7	2back	Block2	2back/STIM_032.jpg	100
1070.593	1.082	1082.4	2back	Block2	2back/STIM_033.jpg	100
1075.043	0.874	873.8	2back	Block2	2back/STIM_033.jpg	100
1078.346	0.728	727.7	2back	Block2	2back/STIM_033.jpg	100
1081.895	0.802	801.5	2back	Block2	2back/STIM_034.jpg	100
1085.512	1.228	1228.5	2back	Block2	2back/STIM_034.jpg	100
1088.583	1.099	1099.4	2back	Block2	2back/STIM_034.jpg	100
1092.757	0.946	945.9	2back	Block2	2back/STIM_035.jpg	99
1096.357	1.135	1135.3	2back	Block2	2back/STIM_035.jpg	100
1101.062	0.987	986.6	2back	Block2	2back/STIM_035.jpg	99
1105.592	1.176	1176.2	2back	Block2	2back/STIM_036.jpg	99
1108.704	1.009	1009.4	2back	Block2	2back/STIM_036.jpg	99
1112.995	0.69	689.5	2back	Block2	2back/STIM_036.jpg	100
1115.715	1.24	1239.6	2back	Block2	2back/STIM_037.jpg	100
1120.323	0.712	712.2	2back	Block2	2back/STIM_037.jpg	99
1124.575	0.541	540.8	2back	Block2	2back/STIM_037.jpg	99
1129.04	1.105	1105.1	2back	Block2	2back/STIM_038.jpg	100
1132.819	1.184	1183.9	2back	Block2	2back/STIM_038.jpg	100
1136.149	0.552	552.3	2back	Block2	2back/STIM_038.jpg	100
1139.548	0.749	749.3	2back	Block2	2back/STIM_039.jpg	100
1143.826	1.169	1169.2	2back	Block2	2back/STIM_039.jpg	100
1147.392	1.131	1130.9	2back	Block2	2back/STIM_039.jpg	99
1151.045	0.866	866.5	0back	Block2	0back/STIM_000.jpg	100
1154.613	0.81	810.0	0back	Block2	0back/STIM_000.jpg	99
1159.277	0.611	610.9	0back	Block2	0back/STIM_000.jpg	99
1163.505	0.801	801.2	0back	Block2	0back/STIM_001.jpg	100
1167.665	0.598	597.9	0back	Block2	0back/STIM_001.jpg	99
1171.593	0.888	888.0	0back	Block2	0back/STIM_001.jpg	100
1176.011	0.773	773.4	0back	Block2	0back/STIM_002.jpg	100
1180.235	0.54	540.2	0back	Block2	0back/STIM_002.jpg	99
1183.188	0.666	665.7	0back	Block2	0back/STIM_002.jpg	100
1186.665	0.889	888.7	0back	Block2	0back/STIM_003.jpg	100
1191.247	0.914	913.9	0back	Block2	0back/STIM_003.jpg	99
1194.625	0.8	799.8	0back	Block2	0back/STIM_003.jpg	100
1199.192	0.946	946.0	0back	Block2	0back/STIM_004.jpg	100
1203.6	0.681	681.3	0back	Block2	0back/STIM_004.jpg	100
1206.614	0.963	962.8	0back	Block2	0back/STIM_004.jpg	100
1210.965	0.913	913.2	0back	Block2	0back/STIM_005.jpg	100
1215.498	0.514	513.9	0back	Block2	0back/STIM_005.jpg	99
1219.478	0.45	450.5	0back	Block2	0back/STIM_005.jpg	99
1222.807	0.646	645.6	0back	Block2	0back/STIM_006.jpg	100
1226.2	0.51	510.4	0back	Block2	0back/STIM_006.jpg	99
1228.828	0.875	875.1	0back	Block2	0back/STIM_006.jpg	100
1233.484	0.727	726.8	0back	Block2	0back/STIM_007.jpg	100
1237.718	0.535	534.6	0back	Block2	0back/STIM_007.jpg	100
1241.602	0.854	853.5	0back	Block2	0back/STIM_007.jpg	99
1244.906	0.825	825.0	0back	Block2	0back/STIM_008.jpg	99
1249.008	0.618	617.5	0back	Block2	0back/STIM_008.jpg	100
1252.201	0.641	640.6	0back	Block2	0back/STIM_008.jpg	100
1255.359	0.564	564.2	0back	Block2	0back/STIM_009.jpg	100
1259.232	0.697	697.0	0back	Block2	0back/STIM_009.jpg	99
1263.108	0.568	568.5	0back	Block2	0back/STIM_009.jpg	100
1266.73	0.708	708.4	0back	Block2	0back/STIM_010.jpg	100
1270.854	0.935	935.2	0back	Block2	0back/STIM_010.jpg	100
1274.763	0.582	581.8	0back	Block2	0back/STIM_010.jpg	100
1277.454	0.561	560.7	0back	Block2	0back/STIM_011.jpg	99
1281.057	0.564	563.9	0back	Block2	0back/STIM_011.jpg	99
1283.781	0.516	516.4	0back	Block2	0back/STIM_011.jpg	100
1287.494	0.462	461.9	0back	Block2	0back/STIM_012.jpg	100
1290.31	0.664	664.0	0back	Block2	0back/STIM_012.jpg	99
1294.758	0.546	546.2	0back	Block2	0back/STIM_012.jpg	99
1297.65	0.616	615.9	0back	Block2	0back/STIM_013.jpg	100
1302.142	0.618	618.4	0back	Block2	0back/STIM_013.jpg	99
1305.296	0.9	899.8	0back	Block2	0back/STIM_013.jpg	100
1309.467	0.527	527.3	0back	Block2	0back/STIM_014.jpg	100
1312.37	0.874	873.9	0back	Block2	0back/STIM_014.jpg	99
1315.329	0.832	832.2	0back	Block2	0back/STIM_014.jpg	99
1318.256	0.618	617.7	0back	Block2	0back/STIM_015.jpg	99
1321.612	0.452	452.3	0back	Block2	0back/STIM_015.jpg	100
1325.544	0.755	755.3	0back	Block2	0back/STIM_015.jpg	99
1328.824	0.537	537.4	0back	Block2	0back/STIM_016.jpg	99
1331.574	0.631	631.3	0back	Block2	0back/STIM_016.jpg	99
1336.034	0.646	645.5	0back	Block2	0back/STIM_016.jpg	100
1340.517	0.806	806.2	0back	Block2	0back/STIM_017.jpg	100
1344.737	0.667	667.2	0back	Block2	0back/STIM_017.jpg	99
1348.657	0.871	871.3	0back	Block2	0back/STIM_017.jpg	100
1353.043	0.6	600.3	0back	Block2	0back/STIM_018.jpg	99
1356.484	0.576	575.7	0back	Block2	0back/STIM_018.jpg	99
1359.345	0.644	644.1	0back	Block2	0back/STIM_018.jpg	99
1362.433	0.875	874.8	0back	Block2	0back/STIM_019.jpg	99
1366.469	0.674	674.1	0back	Block2	0back/STIM_019.jpg	99
1369.332	0.523	522.7	0back	Block2	0back/STIM_019.jpg	100
1372.633	1.034	1033.8	2back	Block3	2back/STIM_000.jpg	100
1376.363	0.919	918.7	2back	Block3	2back/STIM_000.jpg	99
1380.968	0.809	808.8	2back	Block3	2back/STIM_000.jpg	99
1385.69	1.07	1070.2	2back	Block3	2back/STIM_001.jpg	100
1390.452	0.87	870.3	2back	Block3	2back/STIM_001.jpg	99
1393.372	0.762	762.3	2back	Block3	2back/STIM_001.jpg	100
1397.573	0.79	790.3	2back	Block3	2back/STIM_002.jpg	100
1401.937	0.748	748.1	2back	Block3	2back/STIM_002.jpg	100
1404.972	0.716	715.7	2back	Block3	2back/STIM_002.jpg	99
1408.582	0.866	866.2	2back	Block3	2back/STIM_003.jpg	99
1413.047	0.59	589.7	2back	Block3	2back/STIM_003.jpg	99
1416.881	1.076	1076.4	2back	Block3	2back/STIM_003.jpg	99
1419.96	1.015	1015.4	2back	Block3	2back/STIM_004.jpg	100
1424.711	0.76	760.0	2back	Block3	2back/STIM_004.jpg	100
1428.835	0.715	715.1	2back	Block3	2back/STIM_004.jpg	99
1432.248	0.772	772.4	2back	Block3	2back/STIM_005.jpg	99
1435.065	0.986	986.5	2back	Block3	2back/STIM_005.jpg	99
1437.849	0.72	720.1	2back	Block3	2back/STIM_005.jpg	99
1440.601	0.615	614.7	2back	Block3	2back/STIM_006.jpg	99
1444.328	0.818	818.0	2back	Block3	2back/STIM_006.jpg	99
1448.083	0.532	531.7	2back	Block3	2back/STIM_006.jpg	100
1451.869	0.692	691.8	2back	Block3	2back/STIM_007.jpg	100
1455.695	0.991	991.0	2back	Block3	2back/STIM_007.jpg	100
1459.225	0.981	980.8	2back	Block3	2back/STIM_007.jpg	100
1462.53	0.53	530.2	2back	Block3	2back/STIM_008.jpg	99
1465.99	0.54	540.4	2back	Block3	2back/STIM_008.jpg	99
1468.582	1.074	1073.9	2back	Block3	2back/STIM_008.jpg	99
1473.073	1.005	1005.0	2back	Block3	2back/STIM_009.jpg	100
1477.556	0.919	918.9	2back	Block3	2back/STIM_009.jpg	99
1481.342	0.77	770.4	2back	Block3	2back/STIM_009.jpg	99
1485.004	0.983	983.3	2back	Block3	2back/STIM_010.jpg	99
1488.078	1.04	1040.1	2back	Block3	2back/STIM_010.jpg	99
1491.199	0.683	682.8	2back	Block3	2back/STIM_010.jpg	100
1495.035	0.862	861.6	2back	Block3	2back/STIM_011.jpg	99
1499.49	0.948	947.9	2back	Block3	2back/STIM_011.jpg	100
1504.265	0.833	833.3	2back	Block3	2back/STIM_011.jpg	99
1507.091	0.904	903.9	2back	Block3	2back/STIM_012.jpg	100
1511.133	0.698	697.5	2back	Block3	2back/STIM_012.jpg	99
1514.312	0.51	510.1	2back	Block3	2back/STIM_012.jpg	100
1518.545	0.769	769.0	2back	Block3	2back/STIM_013.jpg	100
1521.916	0.98	980.3	2back	Block3	2back/STIM_013.jpg	99
1525.85	0.637	637.2	2back	Block3	2back/STIM_013.jpg	100
1528.757	0.999	998.7	2back	Block3	2back/STIM_014.jpg	100
1532.531	0.752	751.8	2back	Block3	2back/STIM_014.jpg	100
1535.994	0.762	761.6	2back	Block3	2back/STIM_014.jpg	99
1539.942	0.581	581.3	2back	Block3	2back/STIM_015.jpg	99
1543.879	0.805	804.6	2back	Block3	2back/STIM_015.jpg	100
1547.357	0.544	543.6	2back	Block3	2back/STIM_015.jpg	100
1550.99	0.9	900.1	2back	Block3	2back/STIM_016.jpg	99
1555.612	0.94	940.2	2back	Block3	2back/STIM_016.jpg	100
1558.697	0.829	829.0	2back	Block3	2back/STIM_016.jpg	100
1562.189	0.853	852.8	2back	Block3	2back/STIM_017.jpg	100
1566.363	0.78	780.3	2back	Block3	2back/STIM_017.jpg	100
1570.263	0.948	948.0	2back	Block3	2back/STIM_017.jpg	100
1573.754	0.984	984.3	2back	Block3	2back/STIM_018.jpg	99
1577.457	0.896	895.8	2back	Block3	2back/STIM_018.jpg	99
1580.244	0.746	746.0	2back	Block3	2back/STIM_018.jpg	99
1584.065	1.096	1096.1	2back	Block3	2back/STIM_019.jpg	99
1588.758	0.565	564.8	2back	Block3	2back/STIM_019.jpg	99
1592.077	0.776	776.1	2back	Block3	2back/STIM_019.jpg	100
1595.738	1.083	1083.3	2back	Block3	2back/STIM_020.jpg	99
1600.129	0.572	571.5	2back	Block3	2back/STIM_020.jpg	99
1604.101	0.579	578.8	2back	Block3	2back/STIM_020.jpg	99
1608.068	0.988	987.5	2back	Block3	2back/STIM_021.jpg	100
1612.417	0.962	962.5	2back	Block3	2back/STIM_021.jpg	100
1615.488	0.717	717.4	2back	Block3	2back/STIM_021.jpg	100
1618.978	0.925	924.7	2back	Block3	2back/STIM_022.jpg	99
1622.17	0.679	678.8	2back	Block3	2back/STIM_022.jpg	99
1626.783	0.586	586.5	2back	Block3	2back/STIM_022.jpg	99
1630.147	0.845	845.3	2back	Block3	2back/STIM_023.jpg	99
1633.674	1.022	1022.3	2back	Block3	2back/STIM_023.jpg	100
1638.203	0.639	639.4	2back	Block3	2back/STIM_023.jpg	100
1641.132	0.856	855.6	2back	Block3	2back/STIM_024.jpg	99
1645.792	0.799	799.1	2back	Block3	2back/STIM_024.jpg	99
1650.199	1.063	1063.4	2back	Block3	2back/STIM_024.jpg	99
1654.152	1.135	1134.6	2back	Block3	2back/STIM_025.jpg	99
1658.696	0.659	658.6	2back	Block3	2back/STIM_025.jpg	100
1663.038	0.771	770.7	2back	Block3	2back/STIM_025.jpg	100
1667.35	0.58	579.9	2back	Block3	2back/STIM_026.jpg	100
1671.245	1.037	1037.2	2back	Block3	2back/STIM_026.jpg	99
1675.595	0.519	519.3	2back	Block3	2back/STIM_026.jpg	99
1678.368	0.847	847.0	2back	Block3	2back/STIM_027.jpg	99
1682.193	0.547	546.7	2back	Block3	2back/STIM_027.jpg	100
1685.021	0.605	605.2	2back	Block3	2back/STIM_027.jpg	99
1689.29	0.876	875.5	2back	Block3	2back/STIM_028.jpg	99
1694.005	0.872	872.5	2back	Block3	2back/STIM_028.jpg	99
1697.298	0.75	750.3	2back	Block3	2back/STIM_028.jpg	100
1701.854	0.807	806.9	2back	Block3	2back/STIM_029.jpg	99
1706.108	0.96	959.6	2back	Block3	2back/STIM_029.jpg	100
1710.525	0.792	791.9	2back	Block3	2back/STIM_029.jpg	99
1715.029	0.625	624.7	2back	Block3	2back/STIM_030.jpg	99
1717.686	1.174	1173.6	2back	Block3	2back/STIM_030.jpg	99
1720.949	0.827	827.1	2back	Block3	2back/STIM_030.jpg	99
1724.543	0.529	529.4	2back	Block3	2back/STIM_031.jpg	99
1728.976	0.772	771.7	2back	Block3	2back/STIM_031.jpg	100
1733.499	0.934	934.3	2back	Block3	2back/STIM_031.jpg	99
1737.517	0.799	799.4	2back	Block3	2back/STIM_032.jpg	100
1741.348	0.683	682.8	2back	Block3	2back/STIM_032.jpg	99
1745.704	0.619	619.1	2back	Block3	2back/STIM_032.jpg	100
1748.989	1.03	1030.4	2back	Block3	2back/STIM_033.jpg	99
1753.285	0.709	709.0	2back	Block3	2back/STIM_033.jpg	99
1756.751	0.996	996.1	2back	Block3	2back/STIM_033.jpg	99
1760.787	1.065	1065.3	2back	Block3	2back/STIM_034.jpg	100
1765.369	1.068	1068.4	2back	Block3	2back/STIM_034.jpg	99
1769.724	0.87	870.4	2back	Block3	2back/STIM_034.jpg	99
1773.053	0.591	590.7	2back	Block3	2back/STIM_035.jpg	100
1775.918	0.857	856.8	2back	Block3	2back/STIM_035.jpg	99
1779.018	0.744	744.0	2back	Block3	2back/STIM_035.jpg	99
1782.036	1.105	1105.3	2back	Block3	2back/STIM_036.jpg	99
1785.42	0.489	489.2	2back	Block3	2back/STIM_036.jpg	100
1789.475	1.066	1065.9	2back	Block3	2back/STIM_036.jpg	99
1793.121	0.717	716.8	2back	Block3	2back/STIM_037.jpg	99
1796.353	0.6	600.4	2back	Block3	2back/STIM_037.jpg	100
1800.616	0.933	932.6	2back	Block3	2back/STIM_037.jpg	99
1804.257	0.667	666.9	2back	Block3	2back/STIM_038.jpg	100
1808.021	0.684	683.9	2back	Block3	2back/STIM_038.jpg	100
1811.888	0.519	519.0	2back	Block3	2back/STIM_038.jpg	99
1814.485	0.755	754.9	2back	Block3	2back/STIM_039.jpg	99
1818.572	0.963	963.3	2back	Block3	2back/STIM_039.jpg	100
1821.916	0.625	624.9	2back	Block3	2back/STIM_039.jpg	100
1826.184	0.47	470.3	0back	Block3	0back/STIM_000.jpg	100
1830.593	0.863	862.6	0back	Block3	0back/STIM_000.jpg	100
1834.457	0.52	520.3	0back	Block3	0back/STIM_000.jpg	100
1838.257	0.66	660.2	0back	Block3	0back/STIM_001.jpg	99
1841.552	0.637	636.9	0back	Block3	0back/STIM_001.jpg	100
1845.853	0.85	850.2	0back	Block3	0back/STIM_001.jpg	100
1848.833	0.67	670.5	0back	Block3	0back/STIM_002.jpg	99
1851.501	0.933	933.2	0back	Block3	0back/STIM_002.jpg	100
1855.077	0.376	376.2	0back	Block3	0back/STIM_002.jpg	99
1858.54	0.866	866.2	0back	Block3	0back/STIM_003.jpg	100
1861.805	0.806	805.7	0back	Block3	0back/STIM_003.jpg	100
1864.719	0.879	879.4	0back	Block3	0back/STIM_003.jpg	100
1868.869	0.835	835.0	0back	Block3	0back/STIM_004.jpg	99
1871.971	0.762	762.0	0back	Block3	0back/STIM_004.jpg	100
1876.331	0.856	856.1	0back	Block3	0back/STIM_004.jpg	99
1879.343	0.707	707.3	0back	Block3	0back/STIM_005.jpg	99
1883.58	0.599	598.9	0back	Block3	0back/STIM_005.jpg	100
1887.387	0.925	925.4	0back	Block3	0back/STIM_005.jpg	99
1890.348	0.527	526.9	0back	Block3	0back/STIM_006.jpg	100
1894.238	0.834	833.5	0back	Block3	0back/STIM_006.jpg	99
1897.746	0.531	530.7	0back	Block3	0back/STIM_006.jpg	100
1902.057	0.61	610.0	0back	Block3	0back/STIM_007.jpg	99
1905.818	0.702	701.8	0back	Block3	0back/STIM_007.jpg	99
1909.133	0.82	820.2	0back	Block3	0back/STIM_007.jpg	99
1913.331	0.749	749.4	0back	Block3	0back/STIM_008.jpg	100
1916.305	0.481	481.3	0back	Block3	0back/STIM_008.jpg	99
1920.297	0.691	691.2	0back	Block3	0back/STIM_008.jpg	99
1923.055	0.662	662.2	0back	Block3	0back/STIM_009.jpg	99
1925.901	0.49	490.5	0back	Block3	0back/STIM_009.jpg	99
1929.45	0.742	741.8	0back	Block3	0back/STIM_009.jpg	99
1932.73	0.688	687.8	0back	Block3	0back/STIM_010.jpg	100
1935.395	0.891	891.2	0back	Block3	0back/STIM_010.jpg	100
1939.251	0.863	862.9	0back	Block3	0back/STIM_010.jpg	99
1943.749	0.72	719.7	0back	Block3	0back/STIM_011.jpg	100
1947.992	0.655	655.3	0back	Block3	0back/STIM_011.jpg	100
1951.453	0.603	603.4	0back	Block3	0back/STIM_011.jpg	100
1955.561	0.48	479.9	0back	Block3	0back/STIM_012.jpg	99
1959.837	0.758	757.9	0back	Block3	0back/STIM_012.jpg	100
1963.223	0.954	954.2	0back	Block3	0back/STIM_012.jpg	100
1965.98	1.002	1002.2	0back	Block3	0back/STIM_013.jpg	99
1969.131	0.405	405.4	0back	Block3	0back/STIM_013.jpg	100
1973.031	0.584	584.5	0back	Block3	0back/STIM_013.jpg	99
1975.695	0.853	852.7	0back	Block3	0back/STIM_014.jpg	100
1979.87	0.715	714.6	0back	Block3	0back/STIM_014.jpg	100
1983.255	0.794	794.5	0back	Block3	0back/STIM_014.jpg	100
1986.328	0.969	968.9	0back	Block3	0back/STIM_015.jpg	99
1989.317	0.662	662.0	0back	Block3	0back/STIM_015.jpg	100
1993.651	0.704	703.7	0back	Block3	0back/STIM_015.jpg	99
1996.528	0.759	759.2	0back	Block3	0back/STIM_016.jpg	100
2000.765	0.636	636.3	0back	Block3	0back/STIM_016.jpg	99
2005.373	0.554	553.7	0back	Block3	0back/STIM_016.jpg	99
2009.506	0.516	516.1	0back	Block3	0back/STIM_017.jpg	99
2012.36	0.677	676.6	0back	Block3	0back/STIM_017.jpg	100
2016.592	0.692	692.1	0back	Block3	0back/STIM_017.jpg	100
2020.606	0.866	866.1	0back	Block3	0back/STIM_018.jpg	99
2025.132	0.73	729.6	0back	Block3	0back/STIM_018.jpg	100
2028.229	0.511	511.3	0back	Block3	0back/STIM_018.jpg	99
2031.816	0.532	531.8	0back	Block3	0back/STIM_019.jpg	100
2036.209	0.581	581.1	0back	Block3	0back/STIM_019.jpg	99
2039.228	0.418	418.0	0back	Block3	0back/STIM_019.jpg	99
2042.559	0.528	528.3	2back	Block4	2back/STIM_000.jpg	99
2045.991	1.076	1076.1	2back	Block4	2back/STIM_000.jpg	99
2049.25	0.696	695.9	2back	Block4	2back/STIM_000.jpg	100
2053.095	0.829	829.2	2back	Block4	2back/STIM_001.jpg	99
2056.278	0.665	665.1	2back	Block4	2back/STIM_001.jpg	100
2059.719	0.815	815.0	2back	Block4	2back/STIM_001.jpg	100
2062.632	0.831	830.7	2back	Block4	2back/STIM_002.jpg	99
2065.64	0.784	783.5	2back	Block4	2back/STIM_002.jpg	100
2069.01	0.777	777.0	2back	Block4	2back/STIM_002.jpg	100
2072.89	1.028	1028.1	2back	Block4	2back/STIM_003.jpg	100
2077.392	1.009	1009.0	2back	Block4	2back/STIM_003.jpg	99
2080.968	0.759	758.9	2back	Block4	2back/STIM_003.jpg	99
2085.352	0.694	694.4	2back	Block4	2back/STIM_004.jpg	99
2088.36	0.86	860.1	2back	Block4	2back/STIM_004.jpg	100
2092.307	0.666	665.7	2back	Block4	2back/STIM_004.jpg	99
2095.904	0.522	521.7	2back	Block4	2back/STIM_005.jpg	99
2099.443	0.737	737.4	2back	Block4	2back/STIM_005.jpg	100
2103.389	0.795	794.6	2back	Block4	2back/STIM_005.jpg	100
2106.042	0.873	872.7	2back	Block4	2back/STIM_006.jpg	100
2110.753	0.482	482.0	2back	Block4	2back/STIM_006.jpg	100
2114.877	0.962	962.3	2back	Block4	2back/STIM_006.jpg	100
2119.316	0.833	832.6	2back	Block4	2back/STIM_007.jpg	100
2122.58	0.614	614.3	2back	Block4	2back/STIM_007.jpg	99
2126.95	0.999	998.7	2back	Block4	2back/STIM_007.jpg	99
2131.752	0.715	715.3	2back	Block4	2back/STIM_008.jpg	99
2135.035	0.475	474.6	2back	Block4	2back/STIM_008.jpg	99
2139.402	1.103	1103.3	2back	Block4	2back/STIM_008.jpg	100
2143.985	0.905	904.8	2back	Block4	2back/STIM_009.jpg	99
2148.715	0.753	752.6	2back	Block4	2back/STIM_009.jpg	100
2152.329	0.544	543.9	2back	Block4	2back/STIM_009.jpg	100
2155.772	0.616	615.7	2back	Block4	2back/STIM_010.jpg	100
2158.432	0.818	817.5	2back	Block4	2back/STIM_010.jpg	100
2162.504	0.612	612.0	2back	Block4	2back/STIM_010.jpg	100
2165.584	0.854	854.0	2back	Block4	2back/STIM_011.jpg	100
2169.679	0.551	551.0	2back	Block4	2back/STIM_011.jpg	99
2172.948	0.978	978.1	2back	Block4	2back/STIM_011.jpg	99
2176.715	0.547	546.8	2back	Block4	2back/STIM_012.jpg	100
2179.347	0.893	893.0	2back	Block4	2back/STIM_012.jpg	99
2183.622	1.042	1041.5	2back	Block4	2back/STIM_012.jpg	99
2187.764	0.921	921.4	2back	Block4	2back/STIM_013.jpg	99
2191.746	0.747	746.6	2back	Block4	2back/STIM_013.jpg	100
2195.915	0.679	679.3	2back	Block4	2back/STIM_013.jpg	100
2200.333	0.828	828.3	2back	Block4	2back/STIM_014.jpg	100
2203.399	0.571	571.1	2back	Block4	2back/STIM_014.jpg	99
2205.988	0.694	693.5	2back	Block4	2back/STIM_014.jpg	100
2209.738	0.971	971.2	2back	Block4	2back/STIM_015.jpg	100
2213.921	1.077	1076.8	2back	Block4	2back/STIM_015.jpg	99
2217.249	0.838	838.4	2back	Block4	2back/STIM_015.jpg	100
2220.016	0.804	804.4	2back	Block4	2back/STIM_016.jpg	99
2223.085	0.96	959.5	2back	Block4	2back/STIM_016.jpg	100
2226.318	0.89	889.7	2back	Block4	2back/STIM_016.jpg	99
2229.14	0.853	853.4	2back	Block4	2back/STIM_017.jpg	99
2231.997	0.974	974.3	2back	Block4	2back/STIM_017.jpg	100
2235.968	0.723	722.9	2back	Block4	2back/STIM_017.jpg	100
2240.142	0.664	664.4	2back	Block4	2back/STIM_018.jpg	99
2244.227	0.578	578.4	2back	Block4	2back/STIM_018.jpg	100
2246.952	0.694	694.0	2back	Block4	2back/STIM_018.jpg	100
2250.028	0.491	491.4	2back	Block4	2back/STIM_019.jpg	100
2254.129	0.978	978.1	2back	Block4	2back/STIM_019.jpg	99
2258.37	0.902	902.1	2back	Block4	2back/STIM_019.jpg	99
2263.107	0.924	924.5	2back	Block4	2back/STIM_020.jpg	99
2266.318	1.067	1067.4	2back	Block4	2back/STIM_020.jpg	100
2270.848	0.808	808.2	2back	Block4	2back/STIM_020.jpg	99
2274.462	1.188	1188.5	2back	Block4	2back/STIM_021.jpg	100
2277.401	0.549	549.4	2back	Block4	2back/STIM_021.jpg	99
2281.719	0.573	572.9	2back	Block4	2back/STIM_021.jpg	100
2284.915	1.066	1065.7	2back	Block4	2back/STIM_022.jpg	99
2288.703	0.766	765.7	2back	Block4	2back/STIM_022.jpg	99
2292.666	0.744	744.5	2back	Block4	2back/STIM_022.jpg	100
2296.738	0.794	794.4	2back	Block4	2back/STIM_023.jpg	100
2300.432	0.904	904.2	2back	Block4	2back/STIM_023.jpg	99
2304.975	0.591	590.8	2back	Block4	2back/STIM_023.jpg	100
2307.882	0.84	839.9	2back	Block4	2back/STIM_024.jpg	100
2312.225	0.47	470.5	2back	Block4	2back/STIM_024.jpg	100
2315.744	0.956	955.7	2back	Block4	2back/STIM_024.jpg	99
2319.593	0.946	945.6	2back	Block4	2back/STIM_025.jpg	99
2323.326	1.137	1136.9	2back	Block4	2back/STIM_025.jpg	100
2327.874	0.978	977.7	2back	Block4	2back/STIM_025.jpg	99
2330.827	0.537	537.4	2back	Block4	2back/STIM_026.jpg	99
2334.881	1.059	1059.2	2back	Block4	2back/STIM_026.jpg	100
2338.382	0.778	778.4	2back	Block4	2back/STIM_026.jpg	99
2342.674	0.818	818.0	2back	Block4	2back/STIM_027.jpg	100
2345.841	0.975	974.9	2back	Block4	2back/STIM_027.jpg	99
2348.95	0.601	600.9	2back	Block4	2back/STIM_027.jpg	99
2352.974	0.461	460.8	2back	Block4	2back/STIM_028.jpg	100
2355.889	0.604	604.4	2back	Block4	2back/STIM_028.jpg	100
2359.949	0.846	845.9	2back	Block4	2back/STIM_028.jpg	100
2363.52	0.796	795.5	2back	Block4	2back/STIM_029.jpg	100
2368.147	0.801	800.8	2back	Block4	2back/STIM_029.jpg	99
2372.541	0.698	697.5	2back	Block4	2back/STIM_029.jpg	99
2376.795	0.704	703.6	2back	Block4	2back/STIM_030.jpg	100
2380.52	0.523	522.8	2back	Block4	2back/STIM_030.jpg	100
2384.571	1.103	1103.0	2back	Block4	2back/STIM_030.jpg	99
2387.89	0.593	592.6	2back	Block4	2back/STIM_031.jpg	100
2391.873	0.75	749.6	2back	Block4	2back/STIM_031.jpg	99
2396.218	0.707	706.9	2back	Block4	2back/STIM_031.jpg	100
2399.358	0.824	824.1	2back	Block4	2back/STIM_032.jpg	99
2402.234	1.026	1025.7	2back	Block4	2back/STIM_032.jpg	100
2405.474	0.72	719.9	2back	Block4	2back/STIM_032.jpg	100
2409.829	0.98	979.8	2back	Block4	2back/STIM_033.jpg	99
2413.718	0.63	630.2	2back	Block4	2back/STIM_033.jpg	100
2416.501	0.857	857.2	2back	Block4	2back/STIM_033.jpg	100
2419.496	0.509	509.1	2back	Block4	2back/STIM_034.jpg	99
2422.875	0.659	659.3	2back	Block4	2back/STIM_034.jpg	99
2426.634	0.763	762.9	2back	Block4	2back/STIM_034.jpg	99
2430.289	0.497	496.9	2back	Block4	2back/STIM_035.jpg	99
2434.563	0.76	760.1	2back	Block4	2back/STIM_035.jpg	100
2438.326	0.554	553.6	2back	Block4	2back/STIM_035.jpg	99
2441.644	0.701	700.7	2back	Block4	2back/STIM_036.jpg	100
2445.443	0.654	653.6	2back	Block4	2back/STIM_036.jpg	99
2448.397	0.565	565.0	2back	Block4	2back/STIM_036.jpg	99
2451.875	0.563	563.4	2back	Block4	2back/STIM_037.jpg	100
2455.662	0.732	731.5	2back	Block4	2back/STIM_037.jpg	100
2459.599	0.943	942.7	2back	Block4	2back/STIM_037.jpg	99
2463.655	0.551	550.8	2back	Block4	2back/STIM_038.jpg	100
2467.681	0.87	869.6	2back	Block4	2back/STIM_038.jpg	100
2472.261	0.851	850.8	2back	Block4	2back/STIM_038.jpg	100
2475.054	0.571	571.2	2back	Block4	2back/STIM_039.jpg	100
2477.713	1.162	1161.6	2back	Block4	2back/STIM_039.jpg	99
2482.003	0.623	622.8	2back	Block4	2back/STIM_039.jpg	100
2485.006	0.5	500.4	0back	Block4	0back/STIM_000.jpg	100
2488.627	0.56	559.8	0back	Block4	0back/STIM_000.jpg	100
2491.257	0.447	446.8	0back	Block4	0back/STIM_000.jpg	99
2495.154	0.495	495.0	0back	Block4	0back/STIM_001.jpg	100
2499.078	0.499	498.8	0back	Block4	0back/STIM_001.jpg	100
2502.479	0.856	855.5	0back	Block4	0back/STIM_001.jpg	100
2505.282	0.892	892.2	0back	Block4	0back/STIM_002.jpg	99
2508.733	0.73	730.3	0back	Block4	0back/STIM_002.jpg	100
2513.112	0.837	837.2	0back	Block4	0back/STIM_002.jpg	99
2517.686	0.699	699.1	0back	Block4	0back/STIM_003.jpg	99
2522.1	0.621	620.9	0back	Block4	0back/STIM_003.jpg	99
2525.226	0.65	649.7	0back	Block4	0back/STIM_003.jpg	100
2528.143	0.875	875.2	0back	Block4	0back/STIM_004.jpg	100
2531.272	0.89	889.5	0back	Block4	0back/STIM_004.jpg	99
2534.448	0.684	684.4	0back	Block4	0back/STIM_004.jpg	99
2537.615	0.652	651.8	0back	Block4	0back/STIM_005.jpg	99
2541.577	0.814	813.9	0back	Block4	0back/STIM_005.jpg	99
2545.655	0.616	616.4	0back	Block4	0back/STIM_005.jpg	100
2548.245	0.679	678.9	0back	Block4	0back/STIM_006.jpg	100
2551.242	0.741	740.9	0back	Block4	0back/STIM_006.jpg	99
2555.686	0.578	577.7	0back	Block4	0back/STIM_006.jpg	99
2559.374	0.823	822.6	0back	Block4	0back/STIM_007.jpg	100
2562.735	0.833	833.3	0back	Block4	0back/STIM_007.jpg	99
2566.534	0.645	645.1	0back	Block4	0back/STIM_007.jpg	100
2569.484	0.587	586.9	0back	Block4	0back/STIM_008.jpg	99
2572.484	0.812	811.9	0back	Block4	0back/STIM_008.jpg	100
2575.491	0.661	661.1	0back	Block4	0back/STIM_008.jpg	100
2578.526	0.643	643.0	0back	Block4	0back/STIM_009.jpg	100
2581.592	0.52	520.5	0back	Block4	0back/STIM_009.jpg	99
2584.513	0.711	711.3	0back	Block4	0back/STIM_009.jpg	100
2588.948	0.74	740.2	0back	Block4	0back/STIM_010.jpg	99
2591.812	0.562	562.1	0back	Block4	0back/STIM_010.jpg	100
2595.813	0.506	506.3	0back	Block4	0back/STIM_010.jpg	100
2599.136	0.548	548.1	0back	Block4	0back/STIM_011.jpg	99
2601.629	0.877	877.1	0back	Block4	0back/STIM_011.jpg	100
2605.168	0.797	796.7	0back	Block4	0back/STIM_011.jpg	99
2609.633	0.567	567.3	0back	Block4	0back/STIM_012.jpg	99
2614.046	0.592	591.7	0back	Block4	0back/STIM_012.jpg	99
2617.452	0.446	445.7	0back	Block4	0back/STIM_012.jpg	99
2620.23	0.634	634.3	0back	Block4	0back/STIM_013.jpg	100
2623.759	0.922	922.0	0back	Block4	0back/STIM_013.jpg	100
2628.235	0.818	817.6	0back	Block4	0back/STIM_013.jpg	99
2632.808	0.88	880.1	0back	Block4	0back/STIM_014.jpg	99
2635.945	0.585	584.6	0back	Block4	0back/STIM_014.jpg	100
2639.307	0.487	486.7	0back	Block4	0back/STIM_014.jpg	99
2643.347	0.552	551.7	0back	Block4	0back/STIM_015.jpg	99
2646.914	0.509	508.8	0back	Block4	0back/STIM_015.jpg	100
2650.829	0.467	467.0	0back	Block4	0back/STIM_015.jpg	100
2654.914	0.468	468.1	0back	Block4	0back/STIM_016.jpg	100
2658.011	0.775	775.3	0back	Block4	0back/STIM_016.jpg	100
2661.272	0.584	583.7	0back	Block4	0back/STIM_016.jpg	99
2664.76	0.836	835.7	0back	Block4	0back/STIM_017.jpg	99
2668.228	0.617	616.9	0back	Block4	0back/STIM_017.jpg	99
2671.04	0.809	808.6	0back	Block4	0back/STIM_017.jpg	100
2675.008	0.783	783.0	0back	Block4	0back/STIM_018.jpg	99
2678.748	0.535	534.6	0back	Block4	0back/STIM_018.jpg	99
2682.237	0.696	695.9	0back	Block4	0back/STIM_018.jpg	99
2685.333	0.543	542.7	0back	Block4	0back/STIM_019.jpg	99
2688.201	0.879	879.3	0back	Block4	0back/STIM_019.jpg	100
2691.417	0.837	837.0	0back	Block4	0back/STIM_019.jpg	100
