onset	duration	accuracy_binary	trial_type	learning_stage	stimulus
0.0	1.295	1	2back	Block1	2back/STIM_000.jpg
3.941	0.91	1	2back	Block1	2back/STIM_000.jpg
6.842	1.439	1	2back	Block1	2back/STIM_000.jpg
11.717	0.775	1	2back	Block1	2back/STIM_001.jpg
15.423	0.858	1	2back	Block1	2back/STIM_001.jpg
18.721	1.511	1	2back	Block1	2back/STIM_001.jpg
22.011	0.964	1	2back	Block1	2back/STIM_002.jpg
25.922	0.853	1	2back	Block1	2back/STIM_002.jpg
30.462	1.287	0	2back	Block1	2back/STIM_002.jpg
35.175	1.484	0	2back	Block1	2back/STIM_003.jpg
40.221	1.065	1	2back	Block1	2back/STIM_003.jpg
43.468	1.178	1	2back	Block1	2back/STIM_003.jpg
47.686	0.995	0	2back	Block1	2back/STIM_004.jpg
51.124	1.326	1	2back	Block1	2back/STIM_004.jpg
55.292	1.365	1	2back	Block1	2back/STIM_004.jpg
60.316	1.464	1	2back	Block1	2back/STIM_005.jpg
63.866	0.676	1	2back	Block1	2back/STIM_005.jpg
67.096	1.179	1	2back	Block1	2back/STIM_005.jpg
71.128	1.354	1	2back	Block1	2back/STIM_006.jpg
75.974	1.113	0	2back	Block1	2back/STIM_006.jpg
79.325	1.376	1	2back	Block1	2back/STIM_006.jpg
82.482	1.474	1	2back	Block1	2back/STIM_007.jpg
87.501	1.52	1	2back	Block1	2back/STIM_007.jpg
91.188	1.453	1	2back	Block1	2back/STIM_007.jpg
96.373	1.291	1	2back	Block1	2back/STIM_008.jpg
101.122	1.488	1	2back	Block1	2back/STIM_008.jpg
105.762	1.095	0	2back	Block1	2back/STIM_008.jpg
108.9	0.907	1	2back	Block1	2back/STIM_009.jpg
112.038	1.243	1	2back	Block1	2back/STIM_009.jpg
116.36	1.412	1	2back	Block1	2back/STIM_009.jpg
121.11	0.854	1	2back	Block1	2back/STIM_010.jpg
125.533	0.774	1	2back	Block1	2back/STIM_010.jpg
129.728	0.706	1	2back	Block1	2back/STIM_010.jpg
133.314	1.325	1	2back	Block1	2back/STIM_011.jpg
137.8	1.135	0	2back	Block1	2back/STIM_011.jpg
141.51	0.766	1	2back	Block1	2back/STIM_011.jpg
146.016	0.968	1	2back	Block1	2back/STIM_012.jpg
149.377	0.793	1	2back	Block1	2back/STIM_012.jpg
152.777	0.948	1	2back	Block1	2back/STIM_012.jpg
156.993	1.194	1	2back	Block1	2back/STIM_013.jpg
161.796	1.242	1	2back	Block1	2back/STIM_013.jpg
166.727	0.951	0	2back	Block1	2back/STIM_013.jpg
170.344	1.373	1	2back	Block1	2back/STIM_014.jpg
174.644	0.698	1	2back	Block1	2back/STIM_014.jpg
177.363	1.284	1	2back	Block1	2back/STIM_014.jpg
181.473	1.515	1	2back	Block1	2back/STIM_015.jpg
186.051	1.308	1	2back	Block1	2back/STIM_015.jpg
191.105	0.89	1	2back	Block1	2back/STIM_015.jpg
194.857	0.902	0	2back	Block1	2back/STIM_016.jpg
198.057	1.2	1	2back	Block1	2back/STIM_016.jpg
202.963	0.977	0	2back	Block1	2back/STIM_016.jpg
206.58	0.693	0	2back	Block1	2back/STIM_017.jpg
209.61	1.265	1	2back	Block1	2back/STIM_017.jpg
212.924	1.188	0	2back	Block1	2back/STIM_017.jpg
216.352	1.024	1	2back	Block1	2back/STIM_018.jpg
219.801	1.319	1	2back	Block1	2back/STIM_018.jpg
223.724	0.999	1	2back	Block1	2back/STIM_018.jpg
227.507	0.768	1	2back	Block1	2back/STIM_019.jpg
231.964	1.12	1	2back	Block1	2back/STIM_019.jpg
235.839	1.42	1	2back	Block1	2back/STIM_019.jpg
239.112	1.103	1	2back	Block1	2back/STIM_020.jpg
244.013	0.725	0	2back	Block1	2back/STIM_020.jpg
248.055	0.842	0	2back	Block1	2back/STIM_020.jpg
252.584	0.776	1	2back	Block1	2back/STIM_021.jpg
256.933	1.178	1	2back	Block1	2back/STIM_021.jpg
260.037	0.814	1	2back	Block1	2back/STIM_021.jpg
263.909	1.03	1	2back	Block1	2back/STIM_022.jpg
268.131	0.981	1	2back	Block1	2back/STIM_022.jpg
272.431	1.233	1	2back	Block1	2back/STIM_022.jpg
277.52	1.482	0	2back	Block1	2back/STIM_023.jpg
282.548	0.835	1	2back	Block1	2back/STIM_023.jpg
285.72	0.922	0	2back	Block1	2back/STIM_023.jpg
289.113	1.113	1	2back	Block1	2back/STIM_024.jpg
292.366	1.203	0	2back	Block1	2back/STIM_024.jpg
296.255	1.107	1	2back	Block1	2back/STIM_024.jpg
300.762	1.139	1	2back	Block1	2back/STIM_025.jpg
304.136	0.893	1	2back	Block1	2back/STIM_025.jpg
308.67	0.756	1	2back	Block1	2back/STIM_025.jpg
312.711	1.343	1	2back	Block1	2back/STIM_026.jpg
316.493	0.797	1	2back	Block1	2back/STIM_026.jpg
320.32	1.287	0	2back	Block1	2back/STIM_026.jpg
324.933	1.194	1	2back	Block1	2back/STIM_027.jpg
328.206	1.288	1	2back	Block1	2back/STIM_027.jpg
332.271	0.99	1	2back	Block1	2back/STIM_027.jpg
336.436	1.412	0	2back	Block1	2back/STIM_028.jpg
340.181	0.682	1	2back	Block1	2back/STIM_028.jpg
344.003	1.468	0	2back	Block1	2back/STIM_028.jpg
348.784	1.446	0	2back	Block1	2back/STIM_029.jpg
352.835	0.738	1	2back	Block1	2back/STIM_029.jpg
355.974	1.325	1	2back	Block1	2back/STIM_029.jpg
360.434	1.145	1	2back	Block1	2back/STIM_030.jpg
364.755	1.366	1	2back	Block1	2back/STIM_030.jpg
368.014	0.747	1	2back	Block1	2back/STIM_030.jpg
371.623	1.012	1	2back	Block1	2back/STIM_031.jpg
375.984	1.451	0	2back	Block1	2back/STIM_031.jpg
380.345	0.487	1	2back	Block1	2back/STIM_031.jpg
384.442	1.248	1	2back	Block1	2back/STIM_032.jpg
388.165	1.256	1	2back	Block1	2back/STIM_032.jpg
391.76	0.841	1	2back	Block1	2back/STIM_032.jpg
395.931	0.779	1	2back	Block1	2back/STIM_033.jpg
400.645	0.806	1	2back	Block1	2back/STIM_033.jpg
404.416	1.06	1	2back	Block1	2back/STIM_033.jpg
408.844	1.434	0	2back	Block1	2back/STIM_034.jpg
413.573	1.363	0	2back	Block1	2back/STIM_034.jpg
418.606	0.935	1	2back	Block1	2back/STIM_034.jpg
422.142	1.308	1	2back	Block1	2back/STIM_035.jpg
426.101	0.798	1	2back	Block1	2back/STIM_035.jpg
430.479	1.118	1	2back	Block1	2back/STIM_035.jpg
434.681	1.465	1	2back	Block1	2back/STIM_036.jpg
438.465	1.19	0	2back	Block1	2back/STIM_036.jpg
442.646	1.182	1	2back	Block1	2back/STIM_036.jpg
445.741	1.536	1	2back	Block1	2back/STIM_037.jpg
449.142	0.738	1	2back	Block1	2back/STIM_037.jpg
453.667	1.297	0	2back	Block1	2back/STIM_037.jpg
457.2	1.005	1	2back	Block1	2back/STIM_038.jpg
462.054	1.221	1	2back	Block1	2back/STIM_038.jpg
466.723	0.813	1	2back	Block1	2back/STIM_038.jpg
471.143	1.38	0	2back	Block1	2back/STIM_039.jpg
474.388	1.038	1	2back	Block1	2back/STIM_039.jpg
477.29	1.312	1	2back	Block1	2back/STIM_039.jpg
480.738	0.777	1	0back	Block1	0back/STIM_000.jpg
484.697	0.576	1	0back	Block1	0back/STIM_000.jpg
488.842	0.51	1	0back	Block1	0back/STIM_000.jpg
492.705	0.799	1	0back	Block1	0back/STIM_001.jpg
496.943	0.43	1	0back	Block1	0back/STIM_001.jpg
500.213	0.723	1	0back	Block1	0back/STIM_001.jpg
503.259	0.898	1	0back	Block1	0back/STIM_002.jpg
507.646	0.487	1	0back	Block1	0back/STIM_002.jpg
511.628	0.808	1	0back	Block1	0back/STIM_002.jpg
514.768	0.527	1	0back	Block1	0back/STIM_003.jpg
518.647	0.806	1	0back	Block1	0back/STIM_003.jpg
522.686	0.567	1	0back	Block1	0back/STIM_003.jpg
526.387	0.476	1	0back	Block1	0back/STIM_004.jpg
528.834	0.538	1	0back	Block1	0back/STIM_004.jpg
533.09	0.463	1	0back	Block1	0back/STIM_004.jpg
536.825	0.644	1	0back	Block1	0back/STIM_005.jpg
539.547	0.775	1	0back	Block1	0back/STIM_005.jpg
544.126	0.78	0	0back	Block1	0back/STIM_005.jpg
547.145	0.492	1	0back	Block1	0back/STIM_006.jpg
550.966	0.651	1	0back	Block1	0back/STIM_006.jpg
554.451	0.567	1	0back	Block1	0back/STIM_006.jpg
557.797	0.819	1	0back	Block1	0back/STIM_007.jpg
560.647	0.496	1	0back	Block1	0back/STIM_007.jpg
563.462	0.9	1	0back	Block1	0back/STIM_007.jpg
566.482	0.637	1	0back	Block1	0back/STIM_008.jpg
569.188	0.709	1	0back	Block1	0back/STIM_008.jpg
573.117	0.55	1	0back	Block1	0back/STIM_008.jpg
575.767	0.872	1	0back	Block1	0back/STIM_009.jpg
579.393	0.549	1	0back	Block1	0back/STIM_009.jpg
582.284	0.491	1	0back	Block1	0back/STIM_009.jpg
585.996	0.424	1	0back	Block1	0back/STIM_010.jpg
589.471	0.685	1	0back	Block1	0back/STIM_010.jpg
593.36	0.871	1	0back	Block1	0back/STIM_010.jpg
596.11	0.686	1	0back	Block1	0back/STIM_011.jpg
599.705	0.365	1	0back	Block1	0back/STIM_011.jpg
602.994	0.725	1	0back	Block1	0back/STIM_011.jpg
607.371	0.966	1	0back	Block1	0back/STIM_012.jpg
612.038	0.558	1	0back	Block1	0back/STIM_012.jpg
615.595	0.54	1	0back	Block1	0back/STIM_012.jpg
618.41	0.506	1	0back	Block1	0back/STIM_013.jpg
621.85	0.532	1	0back	Block1	0back/STIM_013.jpg
624.566	0.547	1	0back	Block1	0back/STIM_013.jpg
628.499	0.884	1	0back	Block1	0back/STIM_014.jpg
631.605	0.646	1	0back	Block1	0back/STIM_014.jpg
635.437	0.866	1	0back	Block1	0back/STIM_014.jpg
638.444	0.544	1	0back	Block1	0back/STIM_015.jpg
641.165	0.715	1	0back	Block1	0back/STIM_015.jpg
645.62	0.822	1	0back	Block1	0back/STIM_015.jpg
650.163	0.511	1	0back	Block1	0back/STIM_016.jpg
653.626	0.544	1	0back	Block1	0back/STIM_016.jpg
656.688	0.688	1	0back	Block1	0back/STIM_016.jpg
661.16	0.612	1	0back	Block1	0back/STIM_017.jpg
665.555	0.639	1	0back	Block1	0back/STIM_017.jpg
669.513	0.614	1	0back	Block1	0back/STIM_017.jpg
672.281	0.503	1	0back	Block1	0back/STIM_018.jpg
675.979	0.7	1	0back	Block1	0back/STIM_018.jpg
680.502	0.549	1	0back	Block1	0back/STIM_018.jpg
683.85	0.623	1	0back	Block1	0back/STIM_019.jpg
687.554	0.556	1	0back	Block1	0back/STIM_019.jpg
690.48	0.569	1	0back	Block1	0back/STIM_019.jpg
693.677	0.687	0	2back	Block2	2back/STIM_000.jpg
696.845	0.831	1	2back	Block2	2back/STIM_000.jpg
700.663	0.904	1	2back	Block2	2back/STIM_000.jpg
704.949	1.126	1	2back	Block2	2back/STIM_001.jpg
708.573	0.77	1	2back	Block2	2back/STIM_001.jpg
711.708	0.83	0	2back	Block2	2back/STIM_001.jpg
714.972	1.147	1	2back	Block2	2back/STIM_002.jpg
717.958	1.224	0	2back	Block2	2back/STIM_002.jpg
722.457	0.618	1	2back	Block2	2back/STIM_002.jpg
725.116	0.658	1	2back	Block2	2back/STIM_003.jpg
729.137	0.905	1	2back	Block2	2back/STIM_003.jpg
733.338	0.62	0	2back	Block2	2back/STIM_003.jpg
736.542	1.257	1	2back	Block2	2back/STIM_004.jpg
741.1	1.11	1	2back	Block2	2back/STIM_004.jpg
745.491	1.11	1	2back	Block2	2back/STIM_004.jpg
749.677	1.045	1	2back	Block2	2back/STIM_005.jpg
753.722	0.783	1	2back	Block2	2back/STIM_005.jpg
757.901	0.515	1	2back	Block2	2back/STIM_005.jpg
760.488	1.295	1	2back	Block2	2back/STIM_006.jpg
764.791	0.914	1	2back	Block2	2back/STIM_006.jpg
769.367	1.221	0	2back	Block2	2back/STIM_006.jpg
772.413	1.078	1	2back	Block2	2back/STIM_007.jpg
776.619	0.711	1	2back	Block2	2back/STIM_007.jpg
779.616	1.182	1	2back	Block2	2back/STIM_007.jpg
783.46	1.378	1	2back	Block2	2back/STIM_008.jpg
786.714	0.988	1	2back	Block2	2back/STIM_008.jpg
789.543	0.938	1	2back	Block2	2back/STIM_008.jpg
794.16	0.785	1	2back	Block2	2back/STIM_009.jpg
798.234	0.773	1	2back	Block2	2back/STIM_009.jpg
801.513	1.261	1	2back	Block2	2back/STIM_009.jpg
806.293	0.564	1	2back	Block2	2back/STIM_010.jpg
810.18	1.273	1	2back	Block2	2back/STIM_010.jpg
815.192	1.04	1	2back	Block2	2back/STIM_010.jpg
819.217	1.13	1	2back	Block2	2back/STIM_011.jpg
823.435	1.143	0	2back	Block2	2back/STIM_011.jpg
827.57	1.123	1	2back	Block2	2back/STIM_011.jpg
831.018	0.777	1	2back	Block2	2back/STIM_012.jpg
835.289	0.488	1	2back	Block2	2back/STIM_012.jpg
838.415	1.014	1	2back	Block2	2back/STIM_012.jpg
842.858	0.772	1	2back	Block2	2back/STIM_013.jpg
846.715	0.96	1	2back	Block2	2back/STIM_013.jpg
850.843	0.84	1	2back	Block2	2back/STIM_013.jpg
855.006	1.017	1	2back	Block2	2back/STIM_014.jpg
858.82	1.285	0	2back	Block2	2back/STIM_014.jpg
863.305	0.529	1	2back	Block2	2back/STIM_014.jpg
866.084	0.747	1	2back	Block2	2back/STIM_015.jpg
870.747	1.136	1	2back	Block2	2back/STIM_015.jpg
874.759	1.214	1	2back	Block2	2back/STIM_015.jpg
878.299	1.142	1	2back	Block2	2back/STIM_016.jpg
882.885	0.769	1	2back	Block2	2back/STIM_016.jpg
886.294	0.945	0	2back	Block2	2back/STIM_016.jpg
891.018	0.693	1	2back	Block2	2back/STIM_017.jpg
895.539	0.722	1	2back	Block2	2back/STIM_017.jpg
899.06	0.676	1	2back	Block2	2back/STIM_017.jpg
901.985	1.037	1	2back	Block2	2back/STIM_018.jpg
905.969	0.664	1	2back	Block2	2back/STIM_018.jpg
908.738	0.839	1	2back	Block2	2back/STIM_018.jpg
912.718	0.674	1	2back	Block2	2back/STIM_019.jpg
916.541	1.148	1	2back	Block2	2back/STIM_019.jpg
919.726	1.017	1	2back	Block2	2back/STIM_019.jpg
922.916	0.733	0	2back	Block2	2back/STIM_020.jpg
926.693	0.51	1	2back	Block2	2back/STIM_020.jpg
930.798	0.634	1	2back	Block2	2back/STIM_020.jpg
933.476	0.72	0	2back	Block2	2back/STIM_021.jpg
936.515	0.79	1	2back	Block2	2back/STIM_021.jpg
940.568	0.788	1	2back	Block2	2back/STIM_021.jpg
945.241	0.664	1	2back	Block2	2back/STIM_022.jpg
948.485	0.706	1	2back	Block2	2back/STIM_022.jpg
952.084	1.068	0	2back	Block2	2back/STIM_022.jpg
956.686	1.183	1	2back	Block2	2back/STIM_023.jpg
960.421	1.061	1	2back	Block2	2back/STIM_023.jpg
963.494	1.195	1	2back	Block2	2back/STIM_023.jpg
967.854	1.369	1	2back	Block2	2back/STIM_024.jpg
971.733	1.044	0	2back	Block2	2back/STIM_024.jpg
976.27	0.833	1	2back	Block2	2back/STIM_024.jpg
980.765	0.701	1	2back	Block2	2back/STIM_025.jpg
984.15	1.144	1	2back	Block2	2back/STIM_025.jpg
989.202	0.6	1	2back	Block2	2back/STIM_025.jpg
991.853	1.353	1	2back	Block2	2back/STIM_026.jpg
995.002	0.702	1	2back	Block2	2back/STIM_026.jpg
999.603	0.904	1	2back	Block2	2back/STIM_026.jpg
1003.764	0.894	1	2back	Block2	2back/STIM_027.jpg
1007.088	1.093	1	2back	Block2	2back/STIM_027.jpg
1011.907	0.658	1	2back	Block2	2back/STIM_027.jpg
1016.139	0.603	0	2back	Block2	2back/STIM_028.jpg
1020.456	1.067	1	2back	Block2	2back/STIM_028.jpg
1024.211	0.484	1	2back	Block2	2back/STIM_028.jpg
1028.54	0.709	1	2back	Block2	2back/STIM_029.jpg
1031.428	0.906	1	2back	Block2	2back/STIM_029.jpg
1036.149	0.963	1	2back	Block2	2back/STIM_029.jpg
1039.722	0.86	1	2back	Block2	2back/STIM_030.jpg
1042.949	0.962	1	2back	Block2	2back/STIM_030.jpg
1046.099	0.866	1	2back	Block2	2back/STIM_030.jpg
1049.146	0.995	1	2back	Block2	2back/STIM_031.jpg
1052.687	1.18	1	2back	Block2	2back/STIM_031.jpg
1055.777	1.17	1	2back	Block2	2back/STIM_031.jpg
1059.159	0.672	1	2back	Block2	2back/STIM_032.jpg
1063.159	0.775	1	2back	Block2	2back/STIM_032.jpg
1066.724	0.603	1	2back	Block2	2back/STIM_032.jpg
1070.593	1.082	1	2back	Block2	2back/STIM_033.jpg
1075.043	0.874	1	2back	Block2	2back/STIM_033.jpg
1078.346	0.728	1	2back	Block2	2back/STIM_033.jpg
1081.895	0.802	1	2back	Block2	2back/STIM_034.jpg
1085.512	1.228	1	2back	Block2	2back/STIM_034.jpg
1088.583	1.099	1	2back	Block2	2back/STIM_034.jpg
1092.757	0.946	1	2back	Block2	2back/STIM_035.jpg
1096.357	1.135	1	2back	Block2	2back/STIM_035.jpg
1101.062	0.987	1	2back	Block2	2back/STIM_035.jpg
1105.592	1.176	1	2back	Block2	2back/STIM_036.jpg
1108.704	1.009	1	2back	Block2	2back/STIM_036.jpg
1112.995	0.69	1	2back	Block2	2back/STIM_036.jpg
1115.715	1.24	1	2back	Block2	2back/STIM_037.jpg
1120.323	0.712	1	2back	Block2	2back/STIM_037.jpg
1124.575	0.541	1	2back	Block2	2back/STIM_037.jpg
1129.04	1.105	1	2back	Block2	2back/STIM_038.jpg
1132.819	1.184	1	2back	Block2	2back/STIM_038.jpg
1136.149	0.552	1	2back	Block2	2back/STIM_038.jpg
1139.548	0.749	1	2back	Block2	2back/STIM_039.jpg
1143.826	1.169	1	2back	Block2	2back/STIM_039.jpg
1147.392	1.131	1	2back	Block2	2back/STIM_039.jpg
1151.045	0.866	1	0back	Block2	0back/STIM_000.jpg
1154.613	0.81	1	0back	Block2	0back/STIM_000.jpg
1159.277	0.611	1	0back	Block2	0back/STIM_000.jpg
1163.505	0.801	1	0back	Block2	0back/STIM_001.jpg
1167.665	0.598	1	0back	Block2	0back/STIM_001.jpg
1171.593	0.888	1	0back	Block2	0back/STIM_001.jpg
1176.011	0.773	1	0back	Block2	0back/STIM_002.jpg
1180.235	0.54	1	0back	Block2	0back/STIM_002.jpg
1183.188	0.666	1	0back	Block2	0back/STIM_002.jpg
1186.665	0.889	1	0back	Block2	0back/STIM_003.jpg
1191.247	0.914	1	0back	Block2	0back/STIM_003.jpg
1194.625	0.8	0	0back	Block2	0back/STIM_003.jpg
1199.192	0.946	1	0back	Block2	0back/STIM_004.jpg
1203.6	0.681	1	0back	Block2	0back/STIM_004.jpg
1206.614	0.963	1	0back	Block2	0back/STIM_004.jpg
1210.965	0.913	1	0back	Block2	0back/STIM_005.jpg
1215.498	0.514	1	0back	Block2	0back/STIM_005.jpg
1219.478	0.45	1	0back	Block2	0back/STIM_005.jpg
1222.807	0.646	1	0back	Block2	0back/STIM_006.jpg
1226.2	0.51	1	0back	Block2	0back/STIM_006.jpg
1228.828	0.875	1	0back	Block2	0back/STIM_006.jpg
1233.484	0.727	1	0back	Block2	0back/STIM_007.jpg
1237.718	0.535	1	0back	Block2	0back/STIM_007.jpg
1241.602	0.854	1	0back	Block2	0back/STIM_007.jpg
1244.906	0.825	1	0back	Block2	0back/STIM_008.jpg
1249.008	0.618	1	0back	Block2	0back/STIM_008.jpg
1252.201	0.641	1	0back	Block2	0back/STIM_008.jpg
1255.359	0.564	1	0back	Block2	0back/STIM_009.jpg
1259.232	0.697	1	0back	Block2	0back/STIM_009.jpg
1263.108	0.568	1	0back	Block2	0back/STIM_009.jpg
1266.73	0.708	1	0back	Block2	0back/STIM_010.jpg
1270.854	0.935	1	0back	Block2	0back/STIM_010.jpg
1274.763	0.582	1	0back	Block2	0back/STIM_010.jpg
1277.454	0.561	1	0back	Block2	0back/STIM_011.jpg
1281.057	0.564	1	0back	Block2	0back/STIM_011.jpg
1283.781	0.516	1	0back	Block2	0back/STIM_011.jpg
1287.494	0.462	1	0back	Block2	0back/STIM_012.jpg
1290.31	0.664	1	0back	Block2	0back/STIM_012.jpg
1294.758	0.546	1	0back	Block2	0back/STIM_012.jpg
1297.65	0.616	1	0back	Block2	0back/STIM_013.jpg
1302.142	0.618	1	0back	Block2	0back/STIM_013.jpg
1305.296	0.9	0	0back	Block2	0back/STIM_013.jpg
1309.467	0.527	1	0back	Block2	0back/STIM_014.jpg
1312.37	0.874	1	0back	Block2	0back/STIM_014.jpg
1315.329	0.832	1	0back	Block2	0back/STIM_014.jpg
1318.256	0.618	1	0back	Block2	0back/STIM_015.jpg
1321.612	0.452	1	0back	Block2	0back/STIM_015.jpg
1325.544	0.755	1	0back	Block2	0back/STIM_015.jpg
1328.824	0.537	1	0back	Block2	0back/STIM_016.jpg
1331.574	0.631	1	0back	Block2	0back/STIM_016.jpg
1336.034	0.646	1	0back	Block2	0back/STIM_016.jpg
1340.517	0.806	1	0back	Block2	0back/STIM_017.jpg
1344.737	0.667	1	0back	Block2	0back/STIM_017.jpg
1348.657	0.871	1	0back	Block2	0back/STIM_017.jpg
1353.043	0.6	1	0back	Block2	0back/STIM_018.jpg
1356.484	0.576	1	0back	Block2	0back/STIM_018.jpg
1359.345	0.644	1	0back	Block2	0back/STIM_018.jpg
1362.433	0.875	1	0back	Block2	0back/STIM_019.jpg
1366.469	0.674	1	0back	Block2	0back/STIM_019.jpg
1369.332	0.523	1	0back	Block2	0back/STIM_019.jpg
1372.633	1.034	1	2back	Block3	2back/STIM_000.jpg
1376.363	0.919	1	2back	Block3	2back/STIM_000.jpg
1380.968	0.809	1	2back	Block3	2back/STIM_000.jpg
1385.69	1.07	1	2back	Block3	2back/STIM_001.jpg
1390.452	0.87	1	2back	Block3	2back/STIM_001.jpg
1393.372	0.762	1	2back	Block3	2back/STIM_001.jpg
1397.573	0.79	1	2back	Block3	2back/STIM_002.jpg
1401.937	0.748	1	2back	Block3	2back/STIM_002.jpg
1404.972	0.716	1	2back	Block3	2back/STIM_002.jpg
1408.582	0.866	1	2back	Block3	2back/STIM_003.jpg
1413.047	0.59	1	2back	Block3	2back/STIM_003.jpg
1416.881	1.076	1	2back	Block3	2back/STIM_003.jpg
1419.96	1.015	1	2back	Block3	2back/STIM_004.jpg
1424.711	0.76	1	2back	Block3	2back/STIM_004.jpg
1428.835	0.715	1	2back	Block3	2back/STIM_004.jpg
1432.248	0.772	1	2back	Block3	2back/STIM_005.jpg
1435.065	0.986	1	2back	Block3	2back/STIM_005.jpg
1437.849	0.72	1	2back	Block3	2back/STIM_005.jpg
1440.601	0.615	1	2back	Block3	2back/STIM_006.jpg
1444.328	0.818	1	2back	Block3	2back/STIM_006.jpg
1448.083	0.532	1	2back	Block3	2back/STIM_006.jpg
1451.869	0.692	1	2back	Block3	2back/STIM_007.jpg
1455.695	0.991	1	2back	Block3	2back/STIM_007.jpg
1459.225	0.981	1	2back	Block3	2back/STIM_007.jpg
1462.53	0.53	1	2back	Block3	2back/STIM_008.jpg
1465.99	0.54	1	2back	Block3	2back/STIM_008.jpg
1468.582	1.074	1	2back	Block3	2back/STIM_008.jpg
1473.073	1.005	1	2back	Block3	2back/STIM_009.jpg
1477.556	0.919	1	2back	Block3	2back/STIM_009.jpg
1481.342	0.77	1	2back	Block3	2back/STIM_009.jpg
1485.004	0.983	1	2back	Block3	2back/STIM_010.jpg
1488.078	1.04	1	2back	Block3	2back/STIM_010.jpg
1491.199	0.683	1	2back	Block3	2back/STIM_010.jpg
1495.035	0.862	1	2back	Block3	2back/STIM_011.jpg
1499.49	0.948	1	2back	Block3	2back/STIM_011.jpg
1504.265	0.833	1	2back	Block3	2back/STIM_011.jpg
1507.091	0.904	1	2back	Block3	2back/STIM_012.jpg
1511.133	0.698	0	2back	Block3	2back/STIM_012.jpg
1514.312	0.51	1	2back	Block3	2back/STIM_012.jpg
1518.545	0.769	1	2back	Block3	2back/STIM_013.jpg
1521.916	0.98	1	2back	Block3	2back/STIM_013.jpg
1525.85	0.637	1	2back	Block3	2back/STIM_013.jpg
1528.757	0.999	1	2back	Block3	2back/STIM_014.jpg
1532.531	0.752	1	2back	Block3	2back/STIM_014.jpg
1535.994	0.762	1	2back	Block3	2back/STIM_014.jpg
1539.942	0.581	1	2back	Block3	2back/STIM_015.jpg
1543.879	0.805	1	2back	Block3	2back/STIM_015.jpg
1547.357	0.544	1	2back	Block3	2back/STIM_015.jpg
1550.99	0.9	1	2back	Block3	2back/STIM_016.jpg
1555.612	0.94	1	2back	Block3	2back/STIM_016.jpg
1558.697	0.829	1	2back	Block3	2back/STIM_016.jpg
1562.189	0.853	1	2back	Block3	2back/STIM_017.jpg
1566.363	0.78	1	2back	Block3	2back/STIM_017.jpg
1570.263	0.948	1	2back	Block3	2back/STIM_017.jpg
1573.754	0.984	1	2back	Block3	2back/STIM_018.jpg
1577.457	0.896	1	2back	Block3	2back/STIM_018.jpg
1580.244	0.746	1	2back	Block3	2back/STIM_018.jpg
1584.065	1.096	1	2back	Block3	2back/STIM_019.jpg
1588.758	0.565	1	2back	Block3	2back/STIM_019.jpg
1592.077	0.776	1	2back	Block3	2back/STIM_019.jpg
1595.738	1.083	0	2back	Block3	2back/STIM_020.jpg
1600.129	0.572	1	2back	Block3	2back/STIM_020.jpg
1604.101	0.579	1	2back	Block3	2back/STIM_020.jpg
1608.068	0.988	1	2back	Block3	2back/STIM_021.jpg
1612.417	0.962	1	2back	Block3	2back/STIM_021.jpg
1615.488	0.717	1	2back	Block3	2back/STIM_021.jpg
1618.978	0.925	1	2back	Block3	2back/STIM_022.jpg
1622.17	0.679	1	2back	Block3	2back/STIM_022.jpg
1626.783	0.586	1	2back	Block3	2back/STIM_022.jpg
1630.147	0.845	1	2back	Block3	2back/STIM_023.jpg
1633.674	1.022	1	2back	Block3	2back/STIM_023.jpg
1638.203	0.639	1	2back	Block3	2back/STIM_023.jpg
1641.132	0.856	1	2back	Block3	2back/STIM_024.jpg
1645.792	0.799	1	2back	Block3	2back/STIM_024.jpg
1650.199	1.063	1	2back	Block3	2back/STIM_024.jpg
1654.152	1.135	1	2back	Block3	2back/STIM_025.jpg
1658.696	0.659	1	2back	Block3	2back/STIM_025.jpg
1663.038	0.771	1	2back	Block3	2back/STIM_025.jpg
1667.35	0.58	1	2back	Block3	2back/STIM_026.jpg
1671.245	1.037	1	2back	Block3	2back/STIM_026.jpg
1675.595	0.519	1	2back	Block3	2back/STIM_026.jpg
1678.368	0.847	1	2back	Block3	2back/STIM_027.jpg
1682.193	0.547	1	2back	Block3	2back/STIM_027.jpg
1685.021	0.605	1	2back	Block3	2back/STIM_027.jpg
1689.29	0.876	1	2back	Block3	2back/STIM_028.jpg
1694.005	0.872	1	2back	Block3	2back/STIM_028.jpg
1697.298	0.75	1	2back	Block3	2back/STIM_028.jpg
1701.854	0.807	1	2back	Block3	2back/STIM_029.jpg
1706.108	0.96	1	2back	Block3	2back/STIM_029.jpg
1710.525	0.792	1	2back	Block3	2back/STIM_029.jpg
1715.029	0.625	1	2back	Block3	2back/STIM_030.jpg
1717.686	1.174	1	2back	Block3	2back/STIM_030.jpg
1720.949	0.827	1	2back	Block3	2back/STIM_030.jpg
1724.543	0.529	1	2back	Block3	2back/STIM_031.jpg
1728.976	0.772	1	2back	Block3	2back/STIM_031.jpg
1733.499	0.934	1	2back	Block3	2back/STIM_031.jpg
1737.517	0.799	1	2back	Block3	2back/STIM_032.jpg
1741.348	0.683	1	2back	Block3	2back/STIM_032.jpg
1745.704	0.619	1	2back	Block3	2back/STIM_032.jpg
1748.989	1.03	1	2back	Block3	2back/STIM_033.jpg
1753.285	0.709	1	2back	Block3	2back/STIM_033.jpg
1756.751	0.996	1	2back	Block3	2back/STIM_033.jpg
1760.787	1.065	1	2back	Block3	2back/STIM_034.jpg
1765.369	1.068	1	2back	Block3	2back/STIM_034.jpg
1769.724	0.87	1	2back	Block3	2back/STIM_034.jpg
1773.053	0.591	1	2back	Block3	2back/STIM_035.jpg
1775.918	0.857	1	2back	Block3	2back/STIM_035.jpg
1779.018	0.744	1	2back	Block3	2back/STIM_035.jpg
1782.036	1.105	1	2back	Block3	2back/STIM_036.jpg
1785.42	0.489	1	2back	Block3	2back/STIM_036.jpg
1789.475	1.066	1	2back	Block3	2back/STIM_036.jpg
1793.121	0.717	1	2back	Block3	2back/STIM_037.jpg
1796.353	0.6	1	2back	Block3	2back/STIM_037.jpg
1800.616	0.933	1	2back	Block3	2back/STIM_037.jpg
1804.257	0.667	1	2back	Block3	2back/STIM_038.jpg
1808.021	0.684	1	2back	Block3	2back/STIM_038.jpg
1811.888	0.519	1	2back	Block3	2back/STIM_038.jpg
1814.485	0.755	1	2back	Block3	2back/STIM_039.jpg
1818.572	0.963	1	2back	Block3	2back/STIM_039.jpg
1821.916	0.625	1	2back	Block3	2back/STIM_039.jpg
1826.184	0.47	1	0back	Block3	0back/STIM_000.jpg
1830.593	0.863	1	0back	Block3	0back/STIM_000.jpg
1834.457	0.52	1	0back	Block3	0back/STIM_000.jpg
1838.257	0.66	1	0back	Block3	0back/STIM_001.jpg
1841.552	0.637	1	0back	Block3	0back/STIM_001.jpg
1845.853	0.85	1	0back	Block3	0back/STIM_001.jpg
1848.833	0.67	1	0back	Block3	0back/STIM_002.jpg
1851.501	0.933	1	0back	Block3	0back/STIM_002.jpg
1855.077	0.376	1	0back	Block3	0back/STIM_002.jpg
1858.54	0.866	1	0back	Block3	0back/STIM_003.jpg
1861.805	0.806	1	0back	Block3	0back/STIM_003.jpg
1864.719	0.879	1	0back	Block3	0back/STIM_003.jpg
1868.869	0.835	1	0back	Block3	0back/STIM_004.jpg
1871.971	0.762	1	0back	Block3	0back/STIM_004.jpg
1876.331	0.856	1	0back	Block3	0back/STIM_004.jpg
1879.343	0.707	1	0back	Block3	0back/STIM_005.jpg
1883.58	0.599	1	0back	Block3	0back/STIM_005.jpg
1887.387	0.925	1	0back	Block3	0back/STIM_005.jpg
1890.348	0.527	1	0back	Block3	0back/STIM_006.jpg
1894.238	0.834	1	0back	Block3	0back/STIM_006.jpg
1897.746	0.531	1	0back	Block3	0back/STIM_006.jpg
1902.057	0.61	1	0back	Block3	0back/STIM_007.jpg
1905.818	0.702	1	0back	Block3	0back/STIM_007.jpg
1909.133	0.82	1	0back	Block3	0back/STIM_007.jpg
1913.331	0.749	1	0back	Block3	0back/STIM_008.jpg
1916.305	0.481	1	0back	Block3	0back/STIM_008.jpg
1920.297	0.691	1	0back	Block3	0back/STIM_008.jpg
1923.055	0.662	1	0back	Block3	0back/STIM_009.jpg
1925.901	0.49	1	0back	Block3	0back/STIM_009.jpg
1929.45	0.742	1	0back	Block3	0back/STIM_009.jpg
1932.73	0.688	1	0back	Block3	0back/STIM_010.jpg
1935.395	0.891	1	0back	Block3	0back/STIM_010.jpg
1939.251	0.863	1	0back	Block3	0back/STIM_010.jpg
1943.749	0.72	1	0back	Block3	0back/STIM_011.jpg
1947.992	0.655	1	0back	Block3	0back/STIM_011.jpg
1951.453	0.603	1	0back	Block3	0back/STIM_011.jpg
1955.561	0.48	1	0back	Block3	0back/STIM_012.jpg
1959.837	0.758	1	0back	Block3	0back/STIM_012.jpg
1963.223	0.954	1	0back	Block3	0back/STIM_012.jpg
1965.98	1.002	1	0back	Block3	0back/STIM_013.jpg
1969.131	0.405	1	0back	Block3	0back/STIM_013.jpg
1973.031	0.584	1	0back	Block3	0back/STIM_013.jpg
1975.695	0.853	1	0back	Block3	0back/STIM_014.jpg
1979.87	0.715	1	0back	Block3	0back/STIM_014.jpg
1983.255	0.794	1	0back	Block3	0back/STIM_014.jpg
1986.328	0.969	1	0back	Block3	0back/STIM_015.jpg
1989.317	0.662	1	0back	Block3	0back/STIM_015.jpg
1993.651	0.704	1	0back	Block3	0back/STIM_015.jpg
1996.528	0.759	1	0back	Block3	0back/STIM_016.jpg
2000.765	0.636	1	0back	Block3	0back/STIM_016.jpg
2005.373	0.554	1	0back	Block3	0back/STIM_016.jpg
2009.506	0.516	1	0back	Block3	0back/STIM_017.jpg
2012.36	0.677	1	0back	Block3	0back/STIM_017.jpg
2016.592	0.692	1	0back	Block3	0back/STIM_017.jpg
2020.606	0.866	1	0back	Block3	0back/STIM_018.jpg
2025.132	0.73	1	0back	Block3	0back/STIM_018.jpg
2028.229	0.511	1	0back	Block3	0back/STIM_018.jpg
2031.816	0.532	1	0back	Block3	0back/STIM_019.jpg
2036.209	0.581	1	0back	Block3	0back/STIM_019.jpg
2039.228	0.418	1	0back	Block3	0back/STIM_019.jpg
2042.559	0.528	1	2back	Block4	2back/STIM_000.jpg
2045.991	1.076	1	2back	Block4	2back/STIM_000.jpg
2049.25	0.696	1	2back	Block4	2back/STIM_000.jpg
2053.095	0.829	1	2back	Block4	2back/STIM_001.jpg
2056.278	0.665	1	2back	Block4	2back/STIM_001.jpg
2059.719	0.815	1	2back	Block4	2back/STIM_001.jpg
2062.632	0.831	1	2back	Block4	2back/STIM_002.jpg
2065.64	0.784	1	2back	Block4	2back/STIM_002.jpg
2069.01	0.777	1	2back	Block4	2back/STIM_002.jpg
2072.89	1.028	1	2back	Block4	2back/STIM_003.jpg
2077.392	1.009	1	2back	Block4	2back/STIM_003.jpg
2080.968	0.759	1	2back	Block4	2back/STIM_003.jpg
2085.352	0.694	1	2back	Block4	2back/STIM_004.jpg
2088.36	0.86	1	2back	Block4	2back/STIM_004.jpg
2092.307	0.666	1	2back	Block4	2back/STIM_004.jpg
2095.904	0.522	1	2back	Block4	2back/STIM_005.jpg
2099.443	0.737	1	2back	Block4	2back/STIM_005.jpg
2103.389	0.795	1	2back	Block4	2back/STIM_005.jpg
2106.042	0.873	1	2back	Block4	2back/STIM_006.jpg
2110.753	0.482	1	2back	Block4	2back/STIM_006.jpg
2114.877	0.962	1	2back	Block4	2back/STIM_006.jpg
2119.316	0.833	1	2back	Block4	2back/STIM_007.jpg
2122.58	0.614	1	2back	Block4	2back/STIM_007.jpg
2126.95	0.999	1	2back	Block4	2back/STIM_007.jpg
2131.752	0.715	1	2back	Block4	2back/STIM_008.jpg
2135.035	0.475	1	2back	Block4	2back/STIM_008.jpg
2139.402	1.103	1	2back	Block4	2back/STIM_008.jpg
2143.985	0.905	1	2back	Block4	2back/STIM_009.jpg
2148.715	0.753	1	2back	Block4	2back/STIM_009.jpg
2152.329	0.544	1	2back	Block4	2back/STIM_009.jpg
2155.772	0.616	1	2back	Block4	2back/STIM_010.jpg
2158.432	0.818	1	2back	Block4	2back/STIM_010.jpg
2162.504	0.612	1	2back	Block4	2back/STIM_010.jpg
2165.584	0.854	1	2back	Block4	2back/STIM_011.jpg
2169.679	0.551	1	2back	Block4	2back/STIM_011.jpg
2172.948	0.978	1	2back	Block4	2back/STIM_011.jpg
2176.715	0.547	1	2back	Block4	2back/STIM_012.jpg
2179.347	0.893	1	2back	Block4	2back/STIM_012.jpg
2183.622	1.042	1	2back	Block4	2back/STIM_012.jpg
2187.764	0.921	1	2back	Block4	2back/STIM_013.jpg
2191.746	0.747	1	2back	Block4	2back/STIM_013.jpg
2195.915	0.679	1	2back	Block4	2back/STIM_013.jpg
2200.333	0.828	1	2back	Block4	2back/STIM_014.jpg
2203.399	0.571	1	2back	Block4	2back/STIM_014.jpg
2205.988	0.694	1	2back	Block4	2back/STIM_014.jpg
2209.738	0.971	1	2back	Block4	2back/STIM_015.jpg
2213.921	1.077	1	2back	Block4	2back/STIM_015.jpg
2217.249	0.838	1	2back	Block4	2back/STIM_015.jpg
2220.016	0.804	1	2back	Block4	2back/STIM_016.jpg
2223.085	0.96	1	2back	Block4	2back/STIM_016.jpg
2226.318	0.89	1	2back	Block4	2back/STIM_016.jpg
2229.14	0.853	1	2back	Block4	2back/STIM_017.jpg
2231.997	0.974	1	2back	Block4	2back/STIM_017.jpg
2235.968	0.723	1	2back	Block4	2back/STIM_017.jpg
2240.142	0.664	1	2back	Block4	2back/STIM_018.jpg
2244.227	0.578	1	2back	Block4	2back/STIM_018.jpg
2246.952	0.694	1	2back	Block4	2back/STIM_018.jpg
2250.028	0.491	1	2back	Block4	2back/STIM_019.jpg
2254.129	0.978	1	2back	Block4	2back/STIM_019.jpg
2258.37	0.902	1	2back	Block4	2back/STIM_019.jpg
2263.107	0.924	1	2back	Block4	2back/STIM_020.jpg
2266.318	1.067	1	2back	Block4	2back/STIM_020.jpg
2270.848	0.808	1	2back	Block4	2back/STIM_020.jpg
2274.462	1.188	1	2back	Block4	2back/STIM_021.jpg
2277.401	0.549	1	2back	Block4	2back/STIM_021.jpg
2281.719	0.573	1	2back	Block4	2back/STIM_021.jpg
2284.915	1.066	1	2back	Block4	2back/STIM_022.jpg
2288.703	0.766	1	2back	Block4	2back/STIM_022.jpg
2292.666	0.744	1	2back	Block4	2back/STIM_022.jpg
2296.738	0.794	1	2back	Block4	2back/STIM_023.jpg
2300.432	0.904	1	2back	Block4	2back/STIM_023.jpg
2304.975	0.591	1	2back	Block4	2back/STIM_023.jpg
2307.882	0.84	1	2back	Block4	2back/STIM_024.jpg
2312.225	0.47	1	2back	Block4	2back/STIM_024.jpg
2315.744	0.956	1	2back	Block4	2back/STIM_024.jpg
2319.593	0.946	1	2back	Block4	2back/STIM_025.jpg
2323.326	1.137	1	2back	Block4	2back/STIM_025.jpg
2327.874	0.978	1	2back	Block4	2back/STIM_025.jpg
2330.827	0.537	1	2back	Block4	2back/STIM_026.jpg
2334.881	1.059	1	2back	Block4	2back/STIM_026.jpg
2338.382	0.778	1	2back	Block4	2back/STIM_026.jpg
2342.674	0.818	1	2back	Block4	2back/STIM_027.jpg
2345.841	0.975	1	2back	Block4	2back/STIM_027.jpg
2348.95	0.601	1	2back	Block4	2back/STIM_027.jpg
2352.974	0.461	1	2back	Block4	2back/STIM_028.jpg
2355.889	0.604	1	2back	Block4	2back/STIM_028.jpg
2359.949	0.846	1	2back	Block4	2back/STIM_028.jpg
2363.52	0.796	1	2back	Block4	2back/STIM_029.jpg
2368.147	0.801	1	2back	Block4	2back/STIM_029.jpg
2372.541	0.698	1	2back	Block4	2back/STIM_029.jpg
2376.795	0.704	1	2back	Block4	2back/STIM_030.jpg
2380.52	0.523	1	2back	Block4	2back/STIM_030.jpg
2384.571	1.103	1	2back	Block4	2back/STIM_030.jpg
2387.89	0.593	1	2back	Block4	2back/STIM_031.jpg
2391.873	0.75	1	2back	Block4	2back/STIM_031.jpg
2396.218	0.707	1	2back	Block4	2back/STIM_031.jpg
2399.358	0.824	1	2back	Block4	2back/STIM_032.jpg
2402.234	1.026	1	2back	Block4	2back/STIM_032.jpg
2405.474	0.72	1	2back	Block4	2back/STIM_032.jpg
2409.829	0.98	1	2back	Block4	2back/STIM_033.jpg
2413.718	0.63	1	2back	Block4	2back/STIM_033.jpg
2416.501	0.857	1	2back	Block4	2back/STIM_033.jpg
2419.496	0.509	1	2back	Block4	2back/STIM_034.jpg
2422.875	0.659	1	2back	Block4	2back/STIM_034.jpg
2426.634	0.763	1	2back	Block4	2back/STIM_034.jpg
2430.289	0.497	1	2back	Block4	2back/STIM_035.jpg
2434.563	0.76	1	2back	Block4	2back/STIM_035.jpg
2438.326	0.554	1	2back	Block4	2back/STIM_035.jpg
2441.644	0.701	1	2back	Block4	2back/STIM_036.jpg
2445.443	0.654	1	2back	Block4	2back/STIM_036.jpg
2448.397	0.565	1	2back	Block4	2back/STIM_036.jpg
2451.875	0.563	1	2back	Block4	2back/STIM_037.jpg
2455.662	0.732	1	2back	Block4	2back/STIM_037.jpg
2459.599	0.943	1	2back	Block4	2back/STIM_037.jpg
2463.655	0.551	1	2back	Block4	2back/STIM_038.jpg
2467.681	0.87	1	2back	Block4	2back/STIM_038.jpg
2472.261	0.851	1	2back	Block4	2back/STIM_038.jpg
2475.054	0.571	1	2back	Block4	2back/STIM_039.jpg
2477.713	1.162	1	2back	Block4	2back/STIM_039.jpg
2482.003	0.623	1	2back	Block4	2back/STIM_039.jpg
2485.006	0.5	1	0back	Block4	0back/STIM_000.jpg
2488.627	0.56	1	0back	Block4	0back/STIM_000.jpg
2491.257	0.447	1	0back	Block4	0back/STIM_000.jpg
2495.154	0.495	1	0back	Block4	0back/STIM_001.jpg
2499.078	0.499	1	0back	Block4	0back/STIM_001.jpg
2502.479	0.856	1	0back	Block4	0back/STIM_001.jpg
2505.282	0.892	1	0back	Block4	0back/STIM_002.jpg
2508.733	0.73	1	0back	Block4	0back/STIM_002.jpg
2513.112	0.837	1	0back	Block4	0back/STIM_002.jpg
2517.686	0.699	1	0back	Block4	0back/STIM_003.jpg
2522.1	0.621	1	0back	Block4	0back/STIM_003.jpg
2525.226	0.65	1	0back	Block4	0back/STIM_003.jpg
2528.143	0.875	1	0back	Block4	0back/STIM_004.jpg
2531.272	0.89	1	0back	Block4	0back/STIM_004.jpg
2534.448	0.684	1	0back	Block4	0back/STIM_004.jpg
2537.615	0.652	1	0back	Block4	0back/STIM_005.jpg
2541.577	0.814	1	0back	Block4	0back/STIM_005.jpg
2545.655	0.616	1	0back	Block4	0back/STIM_005.jpg
2548.245	0.679	1	0back	Block4	0back/STIM_006.jpg
2551.242	0.741	1	0back	Block4	0back/STIM_006.jpg
2555.686	0.578	1	0back	Block4	0back/STIM_006.jpg
2559.374	0.823	1	0back	Block4	0back/STIM_007.jpg
2562.735	0.833	1	0back	Block4	0back/STIM_007.jpg
2566.534	0.645	1	0back	Block4	0back/STIM_007.jpg
2569.484	0.587	1	0back	Block4	0back/STIM_008.jpg
2572.484	0.812	1	0back	Block4	0back/STIM_008.jpg
2575.491	0.661	1	0back	Block4	0back/STIM_008.jpg
2578.526	0.643	0	0back	Block4	0back/STIM_009.jpg
2581.592	0.52	1	0back	Block4	0back/STIM_009.jpg
2584.513	0.711	1	0back	Block4	0back/STIM_009.jpg
2588.948	0.74	1	0back	Block4	0back/STIM_010.jpg
2591.812	0.562	1	0back	Block4	0back/STIM_010.jpg
2595.813	0.506	1	0back	Block4	0back/STIM_010.jpg
2599.136	0.548	1	0back	Block4	0back/STIM_011.jpg
2601.629	0.877	1	0back	Block4	0back/STIM_011.jpg
2605.168	0.797	1	0back	Block4	0back/STIM_011.jpg
2609.633	0.567	1	0back	Block4	0back/STIM_012.jpg
2614.046	0.592	1	0back	Block4	0back/STIM_012.jpg
2617.452	0.446	1	0back	Block4	0back/STIM_012.jpg
2620.23	0.634	1	0back	Block4	0back/STIM_013.jpg
2623.759	0.922	1	0back	Block4	0back/STIM_013.jpg
2628.235	0.818	1	0back	Block4	0back/STIM_013.jpg
2632.808	0.88	1	0back	Block4	0back/STIM_014.jpg
2635.945	0.585	1	0back	Block4	0back/STIM_014.jpg
2639.307	0.487	1	0back	Block4	0back/STIM_014.jpg
2643.347	0.552	1	0back	Block4	0back/STIM_015.jpg
2646.914	0.509	1	0back	Block4	0back/STIM_015.jpg
2650.829	0.467	1	0back	Block4	0back/STIM_015.jpg
2654.914	0.468	1	0back	Block4	0back/STIM_016.jpg
2658.011	0.775	1	0back	Block4	0back/STIM_016.jpg
2661.272	0.584	1	0back	Block4	0back/STIM_016.jpg
2664.76	0.836	1	0back	Block4	0back/STIM_017.jpg
2668.228	0.617	1	0back	Block4	0back/STIM_017.jpg
2671.04	0.809	1	0back	Block4	0back/STIM_017.jpg
2675.008	0.783	1	0back	Block4	0back/STIM_018.jpg
2678.748	0.535	1	0back	Block4	0back/STIM_018.jpg
2682.237	0.696	1	0back	Block4	0back/STIM_018.jpg
2685.333	0.543	1	0back	Block4	0back/STIM_019.jpg
2688.201	0.879	1	0back	Block4	0back/STIM_019.jpg
2691.417	0.837	1	0back	Block4	0back/STIM_019.jpg
