onset	duration	accuracy_binary	trial_type	learning_stage	stimulus
21.131	0.708	1	learning	LS1	learning/PICTURE_23.jpg
25.747	0.616	0	learning	LS1	learning/PICTURE_235.jpg
30.38	0.794	1	learning	LS1	learning/PICTURE_297.jpg
34.996	0.894	1	learning	LS1	learning/PICTURE_235.jpg
39.612	0.754	1	learning	LS1	learning/PICTURE_297.jpg
44.228	0.87	0	learning	LS1	learning/PICTURE_720.jpg
48.827	0.891	1	learning	LS1	learning/PICTURE_746.jpg
53.427	1.152	1	learning	LS1	learning/PICTURE_720.jpg
58.01	0.806	1	learning	LS1	learning/PICTURE_23.jpg
62.592	0.971	1	learning	LS1	learning/PICTURE_746.jpg
71.691	0.729	1	learning	LS2	learning/PICTURE_235.jpg
76.274	0.638	1	learning	LS2	learning/PICTURE_746.jpg
80.856	1.188	0	learning	LS2	learning/PICTURE_235.jpg
85.439	0.729	1	learning	LS2	learning/PICTURE_720.jpg
90.005	0.879	1	learning	LS2	learning/PICTURE_746.jpg
94.571	0.71	1	learning	LS2	learning/PICTURE_297.jpg
99.138	0.843	1	learning	LS2	learning/PICTURE_23.jpg
103.72	0.817	1	learning	LS2	learning/PICTURE_297.jpg
108.303	0.742	1	learning	LS2	learning/PICTURE_720.jpg
112.869	0.716	1	learning	LS2	learning/PICTURE_23.jpg
121.951	0.715	1	learning	LS3	learning/PICTURE_297.jpg
126.534	0.8	1	learning	LS3	learning/PICTURE_235.jpg
131.1	0.678	1	learning	LS3	learning/PICTURE_746.jpg
135.716	0.603	1	learning	LS3	learning/PICTURE_23.jpg
140.332	0.671	0	learning	LS3	learning/PICTURE_297.jpg
144.948	0.738	1	learning	LS3	learning/PICTURE_746.jpg
149.564	0.871	1	learning	LS3	learning/PICTURE_720.jpg
154.18	0.859	1	learning	LS3	learning/PICTURE_23.jpg
158.78	0.768	1	learning	LS3	learning/PICTURE_720.jpg
163.379	0.82	1	learning	LS3	learning/PICTURE_235.jpg
172.478	0.722	1	learning	LS4	learning/PICTURE_23.jpg
177.061	0.903	1	learning	LS4	learning/PICTURE_297.jpg
181.643	0.621	1	learning	LS4	learning/PICTURE_746.jpg
186.226	0.642	1	learning	LS4	learning/PICTURE_235.jpg
190.809	0.696	1	learning	LS4	learning/PICTURE_720.jpg
195.392	0.605	1	learning	LS4	learning/PICTURE_297.jpg
199.958	0.659	1	learning	LS4	learning/PICTURE_23.jpg
204.524	0.761	1	learning	LS4	learning/PICTURE_720.jpg
209.09	0.688	1	learning	LS4	learning/PICTURE_235.jpg
213.656	0.646	1	learning	LS4	learning/PICTURE_746.jpg
240.819	0.868	1	learning	LS1	learning/PICTURE_576.jpg
245.402	0.666	0	learning	LS1	learning/PICTURE_581.jpg
250.018	0.989	1	learning	LS1	learning/PICTURE_52.jpg
254.634	0.85	1	learning	LS1	learning/PICTURE_605.jpg
259.25	0.806	1	learning	LS1	learning/PICTURE_581.jpg
263.866	0.874	1	learning	LS1	learning/PICTURE_594.jpg
268.466	1.007	1	learning	LS1	learning/PICTURE_605.jpg
273.065	0.996	1	learning	LS1	learning/PICTURE_594.jpg
277.664	1.017	1	learning	LS1	learning/PICTURE_52.jpg
282.247	0.895	1	learning	LS1	learning/PICTURE_576.jpg
291.346	0.797	1	learning	LS2	learning/PICTURE_576.jpg
295.929	0.819	1	learning	LS2	learning/PICTURE_594.jpg
300.511	0.616	1	learning	LS2	learning/PICTURE_581.jpg
305.094	0.702	1	learning	LS2	learning/PICTURE_605.jpg
309.677	0.739	1	learning	LS2	learning/PICTURE_576.jpg
314.243	0.713	1	learning	LS2	learning/PICTURE_52.jpg
318.826	0.782	1	learning	LS2	learning/PICTURE_581.jpg
323.392	0.804	1	learning	LS2	learning/PICTURE_594.jpg
327.974	0.73	1	learning	LS2	learning/PICTURE_52.jpg
332.557	0.704	1	learning	LS2	learning/PICTURE_605.jpg
341.639	0.766	1	learning	LS3	learning/PICTURE_605.jpg
346.222	0.659	1	learning	LS3	learning/PICTURE_52.jpg
350.788	0.873	1	learning	LS3	learning/PICTURE_605.jpg
355.371	1.022	1	learning	LS3	learning/PICTURE_594.jpg
360.004	0.722	1	learning	LS3	learning/PICTURE_576.jpg
364.62	0.838	1	learning	LS3	learning/PICTURE_594.jpg
369.236	0.73	1	learning	LS3	learning/PICTURE_581.jpg
373.852	0.894	1	learning	LS3	learning/PICTURE_576.jpg
378.468	0.851	1	learning	LS3	learning/PICTURE_52.jpg
383.067	0.872	1	learning	LS3	learning/PICTURE_581.jpg
392.183	0.868	1	learning	LS4	learning/PICTURE_594.jpg
396.765	0.682	1	learning	LS4	learning/PICTURE_581.jpg
401.348	0.783	1	learning	LS4	learning/PICTURE_605.jpg
405.931	0.804	1	learning	LS4	learning/PICTURE_576.jpg
410.514	1.258	1	learning	LS4	learning/PICTURE_581.jpg
415.096	0.688	1	learning	LS4	learning/PICTURE_52.jpg
419.679	0.629	1	learning	LS4	learning/PICTURE_576.jpg
424.262	0.682	1	learning	LS4	learning/PICTURE_52.jpg
428.828	0.896	1	learning	LS4	learning/PICTURE_594.jpg
433.394	0.775	1	learning	LS4	learning/PICTURE_605.jpg
460.557	0.645	1	learning	LS1	learning/PICTURE_508.jpg
465.123	0.667	0	learning	LS1	learning/PICTURE_15.jpg
469.706	0.833	1	learning	LS1	learning/PICTURE_488.jpg
474.322	0.949	1	learning	LS1	learning/PICTURE_480.jpg
478.938	0.729	1	learning	LS1	learning/PICTURE_508.jpg
483.554	1.069	1	learning	LS1	learning/PICTURE_95.jpg
488.17	0.865	1	learning	LS1	learning/PICTURE_15.jpg
492.77	0.822	1	learning	LS1	learning/PICTURE_480.jpg
497.369	0.795	1	learning	LS1	learning/PICTURE_488.jpg
501.969	1.359	0	learning	LS1	learning/PICTURE_95.jpg
511.067	0.893	1	learning	LS2	learning/PICTURE_480.jpg
515.65	0.691	1	learning	LS2	learning/PICTURE_488.jpg
520.233	0.76	1	learning	LS2	learning/PICTURE_508.jpg
524.816	0.814	1	learning	LS2	learning/PICTURE_95.jpg
529.398	0.724	1	learning	LS2	learning/PICTURE_488.jpg
533.964	0.81	1	learning	LS2	learning/PICTURE_95.jpg
538.547	0.879	1	learning	LS2	learning/PICTURE_15.jpg
543.113	0.757	1	learning	LS2	learning/PICTURE_480.jpg
547.696	1.018	1	learning	LS2	learning/PICTURE_508.jpg
552.262	0.576	1	learning	LS2	learning/PICTURE_15.jpg
561.361	0.734	1	learning	LS3	learning/PICTURE_488.jpg
565.927	0.66	1	learning	LS3	learning/PICTURE_15.jpg
570.493	0.714	1	learning	LS3	learning/PICTURE_508.jpg
575.076	0.72	1	learning	LS3	learning/PICTURE_488.jpg
579.642	0.79	1	learning	LS3	learning/PICTURE_480.jpg
584.258	0.762	1	learning	LS3	learning/PICTURE_95.jpg
588.874	0.75	1	learning	LS3	learning/PICTURE_508.jpg
593.49	0.691	1	learning	LS3	learning/PICTURE_480.jpg
598.106	0.774	1	learning	LS3	learning/PICTURE_15.jpg
602.722	0.682	1	learning	LS3	learning/PICTURE_95.jpg
611.838	0.871	1	learning	LS4	learning/PICTURE_488.jpg
616.437	0.7	1	learning	LS4	learning/PICTURE_508.jpg
621.02	0.898	1	learning	LS4	learning/PICTURE_15.jpg
625.602	0.727	1	learning	LS4	learning/PICTURE_480.jpg
630.185	0.701	1	learning	LS4	learning/PICTURE_95.jpg
634.768	0.642	1	learning	LS4	learning/PICTURE_480.jpg
639.351	0.616	1	learning	LS4	learning/PICTURE_95.jpg
643.933	0.669	1	learning	LS4	learning/PICTURE_15.jpg
648.516	0.675	1	learning	LS4	learning/PICTURE_508.jpg
653.082	0.697	1	learning	LS4	learning/PICTURE_488.jpg
680.245	0.648	1	control	LS1	control/PICTURE_430.jpg
684.828	0.765	1	control	LS1	control/PICTURE_286.jpg
689.394	0.819	1	control	LS1	control/PICTURE_292.jpg
693.977	0.808	1	control	LS1	control/PICTURE_286.jpg
698.61	0.636	1	control	LS1	control/PICTURE_718.jpg
703.226	0.672	1	control	LS1	control/PICTURE_2.jpg
707.842	0.772	1	control	LS1	control/PICTURE_292.jpg
712.458	0.808	1	control	LS1	control/PICTURE_430.jpg
717.074	0.669	1	control	LS1	control/PICTURE_2.jpg
721.673	0.753	1	control	LS1	control/PICTURE_718.jpg
730.789	0.734	1	control	LS2	control/PICTURE_292.jpg
735.372	0.868	1	control	LS2	control/PICTURE_430.jpg
739.954	0.921	1	control	LS2	control/PICTURE_2.jpg
744.537	0.814	1	control	LS2	control/PICTURE_718.jpg
749.12	0.612	1	control	LS2	control/PICTURE_286.jpg
753.703	0.57	1	control	LS2	control/PICTURE_430.jpg
758.285	0.624	1	control	LS2	control/PICTURE_718.jpg
762.868	0.646	1	control	LS2	control/PICTURE_292.jpg
767.451	0.699	1	control	LS2	control/PICTURE_286.jpg
772.017	0.721	1	control	LS2	control/PICTURE_2.jpg
781.116	0.767	1	control	LS3	control/PICTURE_733.jpg
785.682	0.709	1	control	LS3	control/PICTURE_134.jpg
790.248	0.763	1	control	LS3	control/PICTURE_645.jpg
794.814	0.913	1	control	LS3	control/PICTURE_731.jpg
799.38	0.759	1	control	LS3	control/PICTURE_98.jpg
803.946	0.59	1	control	LS3	control/PICTURE_134.jpg
808.562	0.578	1	control	LS3	control/PICTURE_733.jpg
813.178	0.661	1	control	LS3	control/PICTURE_98.jpg
817.794	0.825	1	control	LS3	control/PICTURE_731.jpg
822.41	0.654	1	control	LS3	control/PICTURE_645.jpg
831.559	0.794	1	control	LS4	control/PICTURE_645.jpg
836.159	0.782	1	control	LS4	control/PICTURE_134.jpg
840.758	0.931	1	control	LS4	control/PICTURE_98.jpg
845.341	0.713	1	control	LS4	control/PICTURE_134.jpg
849.923	0.639	1	control	LS4	control/PICTURE_98.jpg
854.506	0.756	1	control	LS4	control/PICTURE_731.jpg
859.089	0.825	1	control	LS4	control/PICTURE_645.jpg
863.672	0.608	1	control	LS4	control/PICTURE_733.jpg
868.238	0.614	1	control	LS4	control/PICTURE_731.jpg
872.804	0.684	1	control	LS4	control/PICTURE_733.jpg
899.967	0.425	1	learning	LS1	learning/PICTURE_599.jpg
904.533	0.623	0	learning	LS1	learning/PICTURE_610.jpg
909.116	0.789	0	learning	LS1	learning/PICTURE_741.jpg
913.682	0.827	1	learning	LS1	learning/PICTURE_599.jpg
918.264	0.88	0	learning	LS1	learning/PICTURE_247.jpg
922.897	0.947	0	learning	LS1	learning/PICTURE_741.jpg
927.513	0.999	1	learning	LS1	learning/PICTURE_610.jpg
932.129	0.907	0	learning	LS1	learning/PICTURE_43.jpg
936.745	1.215	0	learning	LS1	learning/PICTURE_247.jpg
941.361	0.755	1	learning	LS1	learning/PICTURE_43.jpg
950.477	0.849	1	learning	LS2	learning/PICTURE_43.jpg
955.076	0.726	1	learning	LS2	learning/PICTURE_247.jpg
959.659	1.099	1	learning	LS2	learning/PICTURE_741.jpg
964.242	0.737	1	learning	LS2	learning/PICTURE_610.jpg
968.825	0.711	1	learning	LS2	learning/PICTURE_599.jpg
973.407	0.732	1	learning	LS2	learning/PICTURE_43.jpg
977.99	0.993	1	learning	LS2	learning/PICTURE_610.jpg
982.556	0.935	1	learning	LS2	learning/PICTURE_741.jpg
987.122	0.75	1	learning	LS2	learning/PICTURE_599.jpg
991.705	0.771	1	learning	LS2	learning/PICTURE_247.jpg
1000.787	0.801	1	learning	LS3	learning/PICTURE_599.jpg
1005.353	0.776	1	learning	LS3	learning/PICTURE_610.jpg
1009.919	0.782	1	learning	LS3	learning/PICTURE_741.jpg
1014.502	0.659	1	learning	LS3	learning/PICTURE_610.jpg
1019.068	0.746	1	learning	LS3	learning/PICTURE_247.jpg
1023.634	0.736	1	learning	LS3	learning/PICTURE_43.jpg
1028.2	0.71	1	learning	LS3	learning/PICTURE_599.jpg
1032.783	0.716	1	learning	LS3	learning/PICTURE_741.jpg
1037.399	0.72	1	learning	LS3	learning/PICTURE_43.jpg
1042.015	0.66	1	learning	LS3	learning/PICTURE_247.jpg
1051.164	0.847	1	learning	LS4	learning/PICTURE_610.jpg
1055.763	0.676	1	learning	LS4	learning/PICTURE_247.jpg
1060.363	0.745	1	learning	LS4	learning/PICTURE_741.jpg
1064.962	0.638	1	learning	LS4	learning/PICTURE_247.jpg
1069.545	0.643	1	learning	LS4	learning/PICTURE_599.jpg
1074.128	0.649	1	learning	LS4	learning/PICTURE_43.jpg
1078.71	0.782	1	learning	LS4	learning/PICTURE_741.jpg
1083.293	0.644	0	learning	LS4	learning/PICTURE_610.jpg
1087.876	0.73	1	learning	LS4	learning/PICTURE_43.jpg
1092.442	0.767	1	learning	LS4	learning/PICTURE_599.jpg
1119.605	0.669	1	control	LS1	control/PICTURE_498.jpg
1124.171	0.882	1	control	LS1	control/PICTURE_418.jpg
1128.737	0.793	1	control	LS1	control/PICTURE_498.jpg
1133.32	0.83	1	control	LS1	control/PICTURE_350.jpg
1137.886	0.788	1	control	LS1	control/PICTURE_418.jpg
1142.469	0.761	1	control	LS1	control/PICTURE_485.jpg
1147.101	0.685	1	control	LS1	control/PICTURE_549.jpg
1151.734	0.768	1	control	LS1	control/PICTURE_350.jpg
1156.35	0.709	1	control	LS1	control/PICTURE_485.jpg
1160.966	0.857	1	control	LS1	control/PICTURE_549.jpg
1170.115	0.901	1	control	LS2	control/PICTURE_498.jpg
1174.715	0.618	1	control	LS2	control/PICTURE_350.jpg
1179.314	0.59	1	control	LS2	control/PICTURE_485.jpg
1183.897	0.74	1	control	LS2	control/PICTURE_418.jpg
1188.479	0.761	1	control	LS2	control/PICTURE_485.jpg
1193.062	0.719	1	control	LS2	control/PICTURE_350.jpg
1197.645	0.596	1	control	LS2	control/PICTURE_549.jpg
1202.228	0.602	1	control	LS2	control/PICTURE_418.jpg
1206.794	0.896	1	control	LS2	control/PICTURE_498.jpg
1211.36	0.71	1	control	LS2	control/PICTURE_549.jpg
1220.459	0.803	1	control	LS3	control/PICTURE_314.jpg
1225.025	0.842	1	control	LS3	control/PICTURE_388.jpg
1229.591	0.608	1	control	LS3	control/PICTURE_552.jpg
1234.157	0.694	1	control	LS3	control/PICTURE_663.jpg
1238.723	0.7	1	control	LS3	control/PICTURE_552.jpg
1243.289	0.786	1	control	LS3	control/PICTURE_663.jpg
1247.855	0.936	1	control	LS3	control/PICTURE_476.jpg
1252.421	0.83	1	control	LS3	control/PICTURE_388.jpg
1257.004	0.708	1	control	LS3	control/PICTURE_314.jpg
1261.62	0.744	1	control	LS3	control/PICTURE_476.jpg
1270.769	0.723	1	control	LS4	control/PICTURE_552.jpg
1275.385	0.583	1	control	LS4	control/PICTURE_663.jpg
1279.984	0.716	1	control	LS4	control/PICTURE_388.jpg
1284.584	0.673	1	control	LS4	control/PICTURE_663.jpg
1289.183	0.773	0	control	LS4	control/PICTURE_476.jpg
1293.766	1.13	1	control	LS4	control/PICTURE_388.jpg
1298.349	0.672	1	control	LS4	control/PICTURE_314.jpg
1302.931	0.677	1	control	LS4	control/PICTURE_552.jpg
1307.514	0.683	1	control	LS4	control/PICTURE_476.jpg
1312.097	0.593	1	control	LS4	control/PICTURE_314.jpg
1339.26	0.863	0	learning	LS1	learning/PICTURE_703.jpg
1343.843	0.644	1	learning	LS1	learning/PICTURE_220.jpg
1348.425	0.857	0	learning	LS1	learning/PICTURE_216.jpg
1352.992	0.815	0	learning	LS1	learning/PICTURE_53.jpg
1357.557	0.933	1	learning	LS1	learning/PICTURE_216.jpg
1362.124	0.94	1	learning	LS1	learning/PICTURE_695.jpg
1366.69	0.866	1	learning	LS1	learning/PICTURE_220.jpg
1371.306	0.87	1	learning	LS1	learning/PICTURE_53.jpg
1375.938	0.889	1	learning	LS1	learning/PICTURE_695.jpg
1380.555	0.925	1	learning	LS1	learning/PICTURE_703.jpg
1389.703	0.793	1	learning	LS2	learning/PICTURE_703.jpg
1394.303	0.67	1	learning	LS2	learning/PICTURE_220.jpg
1398.902	0.818	1	learning	LS2	learning/PICTURE_703.jpg
1403.485	0.648	1	learning	LS2	learning/PICTURE_53.jpg
1408.068	0.941	1	learning	LS2	learning/PICTURE_216.jpg
1412.667	0.914	1	learning	LS2	learning/PICTURE_53.jpg
1417.25	1.08	1	learning	LS2	learning/PICTURE_695.jpg
1421.832	0.75	1	learning	LS2	learning/PICTURE_216.jpg
1426.415	0.707	1	learning	LS2	learning/PICTURE_695.jpg
1430.998	0.728	1	learning	LS2	learning/PICTURE_220.jpg
1440.097	1.077	1	learning	LS3	learning/PICTURE_220.jpg
1444.663	0.636	1	learning	LS3	learning/PICTURE_216.jpg
1449.229	0.866	1	learning	LS3	learning/PICTURE_703.jpg
1453.812	0.999	1	learning	LS3	learning/PICTURE_53.jpg
1458.378	0.797	1	learning	LS3	learning/PICTURE_220.jpg
1462.944	0.755	1	learning	LS3	learning/PICTURE_703.jpg
1467.527	0.713	1	learning	LS3	learning/PICTURE_695.jpg
1472.093	0.895	1	learning	LS3	learning/PICTURE_53.jpg
1476.659	0.661	1	learning	LS3	learning/PICTURE_695.jpg
1481.242	0.731	1	learning	LS3	learning/PICTURE_216.jpg
1490.39	0.806	1	learning	LS4	learning/PICTURE_220.jpg
1495.006	0.65	1	learning	LS4	learning/PICTURE_695.jpg
1499.622	0.702	1	learning	LS4	learning/PICTURE_216.jpg
1504.238	0.722	1	learning	LS4	learning/PICTURE_53.jpg
1508.838	0.711	1	learning	LS4	learning/PICTURE_703.jpg
1513.437	0.683	1	learning	LS4	learning/PICTURE_53.jpg
1518.02	0.641	1	learning	LS4	learning/PICTURE_695.jpg
1522.603	0.71	1	learning	LS4	learning/PICTURE_220.jpg
1527.186	0.748	1	learning	LS4	learning/PICTURE_703.jpg
1531.768	0.657	1	learning	LS4	learning/PICTURE_216.jpg
1540.867	0.894	1	learning	LS1	learning/PICTURE_462.jpg
1545.45	0.692	0	learning	LS1	learning/PICTURE_21.jpg
1550.033	0.777	0	learning	LS1	learning/PICTURE_400.jpg
1554.599	0.895	0	learning	LS1	learning/PICTURE_21.jpg
1559.165	0.854	0	learning	LS1	learning/PICTURE_405.jpg
1563.731	0.716	0	learning	LS1	learning/PICTURE_402.jpg
1568.297	0.897	1	learning	LS1	learning/PICTURE_400.jpg
1572.863	0.824	1	learning	LS1	learning/PICTURE_405.jpg
1577.446	0.813	1	learning	LS1	learning/PICTURE_462.jpg
1582.012	0.995	1	learning	LS1	learning/PICTURE_402.jpg
1591.094	0.785	1	learning	LS2	learning/PICTURE_405.jpg
1595.71	0.709	1	learning	LS2	learning/PICTURE_402.jpg
1600.326	0.777	1	learning	LS2	learning/PICTURE_21.jpg
1604.942	0.765	1	learning	LS2	learning/PICTURE_402.jpg
1609.558	0.769	1	learning	LS2	learning/PICTURE_400.jpg
1614.174	0.837	1	learning	LS2	learning/PICTURE_462.jpg
1618.774	0.761	1	learning	LS2	learning/PICTURE_400.jpg
1623.373	0.83	1	learning	LS2	learning/PICTURE_462.jpg
1627.973	0.723	1	learning	LS2	learning/PICTURE_405.jpg
1632.555	0.729	1	learning	LS2	learning/PICTURE_21.jpg
1641.654	0.79	1	learning	LS3	learning/PICTURE_405.jpg
1646.237	0.668	1	learning	LS3	learning/PICTURE_400.jpg
1650.82	0.689	1	learning	LS3	learning/PICTURE_402.jpg
1655.386	0.631	1	learning	LS3	learning/PICTURE_462.jpg
1659.952	0.909	1	learning	LS3	learning/PICTURE_402.jpg
1664.518	0.643	1	learning	LS3	learning/PICTURE_462.jpg
1669.101	0.617	1	learning	LS3	learning/PICTURE_21.jpg
1673.667	0.831	1	learning	LS3	learning/PICTURE_405.jpg
1678.233	0.869	1	learning	LS3	learning/PICTURE_400.jpg
1682.799	0.715	1	learning	LS3	learning/PICTURE_21.jpg
1691.898	0.984	1	learning	LS4	learning/PICTURE_402.jpg
1696.464	0.751	1	learning	LS4	learning/PICTURE_400.jpg
1701.046	1.188	1	learning	LS4	learning/PICTURE_462.jpg
1705.612	0.667	1	learning	LS4	learning/PICTURE_405.jpg
1710.228	0.639	1	learning	LS4	learning/PICTURE_21.jpg
1714.844	0.723	1	learning	LS4	learning/PICTURE_405.jpg
1719.461	0.951	1	learning	LS4	learning/PICTURE_21.jpg
1724.077	0.7	1	learning	LS4	learning/PICTURE_462.jpg
1728.693	1.008	1	learning	LS4	learning/PICTURE_402.jpg
1733.292	0.677	1	learning	LS4	learning/PICTURE_400.jpg
