onset	duration	accuracy	trial_type	learning_stage	stimulus
0.0	1.326	correct	study	Phase1	study/STIM_000.jpg
4.129	1.263	correct	study	Phase1	study/STIM_000.jpg
7.444	1.55	correct	study	Phase1	study/STIM_000.jpg
12.087	1.34	incorrect	study	Phase1	study/STIM_001.jpg
16.833	1.492	incorrect	study	Phase1	study/STIM_001.jpg
20.34	1.119	correct	study	Phase1	study/STIM_001.jpg
24.286	1.436	correct	study	Phase1	study/STIM_002.jpg
29.097	0.897	correct	study	Phase1	study/STIM_002.jpg
33.385	0.888	incorrect	study	Phase1	study/STIM_002.jpg
37.62	1.532	correct	study	Phase1	study/STIM_003.jpg
42.891	1.558	correct	study	Phase1	study/STIM_003.jpg
48.097	1.605	correct	study	Phase1	study/STIM_003.jpg
51.952	1.183	correct	study	Phase1	study/STIM_004.jpg
55.308	0.893	correct	study	Phase1	study/STIM_004.jpg
58.211	1.12	correct	study	Phase1	study/STIM_004.jpg
62.744	0.893	correct	study	Phase1	study/STIM_005.jpg
67.559	1.598	correct	study	Phase1	study/STIM_005.jpg
73.109	0.805	correct	study	Phase1	study/STIM_005.jpg
76.193	1.568	correct	study	Phase1	study/STIM_006.jpg
81.039	1.008	correct	study	Phase1	study/STIM_006.jpg
85.133	0.856	correct	study	Phase1	study/STIM_006.jpg
89.102	0.9	correct	study	Phase1	study/STIM_007.jpg
92.411	1.55	correct	study	Phase1	study/STIM_007.jpg
96.267	1.6	correct	study	Phase1	study/STIM_007.jpg
100.353	1.03	correct	study	Phase1	study/STIM_008.jpg
104.502	1.353	correct	study	Phase1	study/STIM_008.jpg
109.534	0.785	incorrect	study	Phase1	study/STIM_008.jpg
114.008	0.923	correct	study	Phase1	study/STIM_009.jpg
118.004	1.15	incorrect	study	Phase1	study/STIM_009.jpg
121.531	1.481	correct	study	Phase1	study/STIM_009.jpg
125.871	0.825	correct	study	Phase1	study/STIM_010.jpg
129.274	1.27	correct	study	Phase1	study/STIM_010.jpg
133.343	0.886	correct	study	Phase1	study/STIM_010.jpg
137.337	1.244	correct	study	Phase1	study/STIM_011.jpg
141.878	1.582	incorrect	study	Phase1	study/STIM_011.jpg
146.997	1.459	correct	study	Phase1	study/STIM_011.jpg
152.088	1.382	correct	study	Phase1	study/STIM_012.jpg
156.857	1.584	correct	study	Phase1	study/STIM_012.jpg
161.925	0.823	correct	study	Phase1	study/STIM_012.jpg
164.86	1.352	correct	study	Phase1	study/STIM_013.jpg
168.965	0.94	correct	study	Phase1	study/STIM_013.jpg
173.594	0.995	correct	study	Phase1	study/STIM_013.jpg
177.906	1.194	correct	study	Phase1	study/STIM_014.jpg
182.756	1.561	correct	study	Phase1	study/STIM_014.jpg
187.488	1.383	correct	study	Phase1	study/STIM_014.jpg
192.56	1.158	correct	study	Phase1	study/STIM_015.jpg
196.467	1.266	correct	study	Phase1	study/STIM_015.jpg
201.146	1.086	incorrect	study	Phase1	study/STIM_015.jpg
204.914	1.64	correct	study	Phase1	study/STIM_016.jpg
209.444	1.401	correct	study	Phase1	study/STIM_016.jpg
214.604	1.374	incorrect	study	Phase1	study/STIM_016.jpg
218.421	1.771	correct	study	Phase1	study/STIM_017.jpg
223.97	1.268	correct	study	Phase1	study/STIM_017.jpg
227.518	1.587	incorrect	study	Phase1	study/STIM_017.jpg
231.875	1.78	correct	study	Phase1	study/STIM_018.jpg
235.677	1.283	correct	study	Phase1	study/STIM_018.jpg
240.039	1.307	correct	study	Phase1	study/STIM_018.jpg
243.792	0.891	correct	study	Phase1	study/STIM_019.jpg
248.054	1.132	incorrect	study	Phase1	study/STIM_019.jpg
251.417	1.223	correct	study	Phase1	study/STIM_019.jpg
256.267	1.402	correct	study	Phase1	study/STIM_020.jpg
260.094	0.986	correct	study	Phase1	study/STIM_020.jpg
264.054	1.303	correct	study	Phase1	study/STIM_020.jpg
268.166	1.628	correct	study	Phase1	study/STIM_021.jpg
273.473	1.674	correct	study	Phase1	study/STIM_021.jpg
278.555	1.027	correct	study	Phase1	study/STIM_021.jpg
282.636	1.176	correct	study	Phase1	study/STIM_022.jpg
287.158	1.196	correct	study	Phase1	study/STIM_022.jpg
291.113	1.185	correct	study	Phase1	study/STIM_022.jpg
295.834	1.54	correct	study	Phase1	study/STIM_023.jpg
300.398	1.2	correct	study	Phase1	study/STIM_023.jpg
304.567	1.009	correct	study	Phase1	study/STIM_023.jpg
308.524	0.985	correct	study	Phase1	study/STIM_024.jpg
312.333	0.815	correct	study	Phase1	study/STIM_024.jpg
315.568	1.029	correct	study	Phase1	study/STIM_024.jpg
320.08	1.357	incorrect	study	Phase1	study/STIM_025.jpg
323.827	0.979	correct	study	Phase1	study/STIM_025.jpg
327.752	1.561	correct	study	Phase1	study/STIM_025.jpg
332.328	0.888	correct	study	Phase1	study/STIM_026.jpg
336.434	0.832	incorrect	study	Phase1	study/STIM_026.jpg
340.589	1.122	correct	study	Phase1	study/STIM_026.jpg
345.578	0.944	correct	study	Phase1	study/STIM_027.jpg
348.535	1.179	incorrect	study	Phase1	study/STIM_027.jpg
352.165	0.931	correct	study	Phase1	study/STIM_027.jpg
356.109	1.184	incorrect	study	Phase1	study/STIM_028.jpg
360.96	0.762	correct	study	Phase1	study/STIM_028.jpg
365.175	0.831	correct	study	Phase1	study/STIM_028.jpg
368.026	1.027	correct	study	Phase1	study/STIM_029.jpg
373.012	1.306	correct	study	Phase1	study/STIM_029.jpg
376.572	0.895	correct	study	Phase1	study/STIM_029.jpg
380.822	0.941	correct	test	Phase1	test/STIM_000.jpg
384.708	1.175	correct	test	Phase1	test/STIM_000.jpg
389.738	1.274	correct	test	Phase1	test/STIM_000.jpg
394.276	0.999	correct	test	Phase1	test/STIM_001.jpg
397.629	0.737	correct	test	Phase1	test/STIM_001.jpg
401.298	0.76	incorrect	test	Phase1	test/STIM_001.jpg
405.974	1.085	incorrect	test	Phase1	test/STIM_002.jpg
410.555	0.721	correct	test	Phase1	test/STIM_002.jpg
414.408	0.678	correct	test	Phase1	test/STIM_002.jpg
418.199	1.165	correct	test	Phase1	test/STIM_003.jpg
422.775	0.815	correct	test	Phase1	test/STIM_003.jpg
426.211	1.208	correct	test	Phase1	test/STIM_003.jpg
431.332	1.062	correct	test	Phase1	test/STIM_004.jpg
436.189	1.016	correct	test	Phase1	test/STIM_004.jpg
440.199	1.022	correct	test	Phase1	test/STIM_004.jpg
444.971	0.797	correct	test	Phase1	test/STIM_005.jpg
448.537	0.908	correct	test	Phase1	test/STIM_005.jpg
452.208	1.006	correct	test	Phase1	test/STIM_005.jpg
455.555	1.185	correct	test	Phase1	test/STIM_006.jpg
460.225	1.262	correct	test	Phase1	test/STIM_006.jpg
464.717	0.815	correct	test	Phase1	test/STIM_006.jpg
467.649	1.038	correct	test	Phase1	test/STIM_007.jpg
472.071	0.8	correct	test	Phase1	test/STIM_007.jpg
476.463	0.675	correct	test	Phase1	test/STIM_007.jpg
481.076	1.217	correct	test	Phase1	test/STIM_008.jpg
485.183	0.77	correct	test	Phase1	test/STIM_008.jpg
489.531	1.185	correct	test	Phase1	test/STIM_008.jpg
492.895	0.656	incorrect	test	Phase1	test/STIM_009.jpg
497.353	0.725	correct	test	Phase1	test/STIM_009.jpg
501.075	0.782	correct	test	Phase1	test/STIM_009.jpg
504.76	0.708	correct	test	Phase1	test/STIM_010.jpg
508.808	0.691	correct	test	Phase1	test/STIM_010.jpg
513.192	0.682	incorrect	test	Phase1	test/STIM_010.jpg
517.826	0.64	correct	test	Phase1	test/STIM_011.jpg
522.36	0.665	correct	test	Phase1	test/STIM_011.jpg
525.972	0.713	correct	test	Phase1	test/STIM_011.jpg
530.538	1.225	correct	test	Phase1	test/STIM_012.jpg
535.647	1.101	correct	test	Phase1	test/STIM_012.jpg
539.099	0.648	correct	test	Phase1	test/STIM_012.jpg
543.722	0.922	correct	test	Phase1	test/STIM_013.jpg
547.716	1.231	correct	test	Phase1	test/STIM_013.jpg
552.867	1.03	correct	test	Phase1	test/STIM_013.jpg
556.021	0.818	correct	test	Phase1	test/STIM_014.jpg
559.844	0.688	correct	test	Phase1	test/STIM_014.jpg
563.058	1.283	correct	test	Phase1	test/STIM_014.jpg
566.684	0.963	correct	test	Phase1	test/STIM_015.jpg
569.866	1.246	correct	test	Phase1	test/STIM_015.jpg
573.452	0.713	correct	test	Phase1	test/STIM_015.jpg
577.666	0.9	incorrect	test	Phase1	test/STIM_016.jpg
581.219	0.931	correct	test	Phase1	test/STIM_016.jpg
585.079	0.882	correct	test	Phase1	test/STIM_016.jpg
589.651	0.888	correct	test	Phase1	test/STIM_017.jpg
592.924	1.093	correct	test	Phase1	test/STIM_017.jpg
597.372	0.662	correct	test	Phase1	test/STIM_017.jpg
601.252	1.004	correct	test	Phase1	test/STIM_018.jpg
605.585	0.615	correct	test	Phase1	test/STIM_018.jpg
608.726	1.278	correct	test	Phase1	test/STIM_018.jpg
612.14	1.297	correct	test	Phase1	test/STIM_019.jpg
616.561	0.851	incorrect	test	Phase1	test/STIM_019.jpg
620.302	0.792	correct	test	Phase1	test/STIM_019.jpg
624.969	0.722	correct	test	Phase1	test/STIM_020.jpg
629.498	1.141	correct	test	Phase1	test/STIM_020.jpg
634.198	0.624	correct	test	Phase1	test/STIM_020.jpg
638.683	1.269	correct	test	Phase1	test/STIM_021.jpg
642.849	1.04	correct	test	Phase1	test/STIM_021.jpg
646.82	1.052	correct	test	Phase1	test/STIM_021.jpg
650.971	0.697	correct	test	Phase1	test/STIM_022.jpg
654.817	1.091	incorrect	test	Phase1	test/STIM_022.jpg
658.306	1.082	correct	test	Phase1	test/STIM_022.jpg
663.028	0.792	correct	test	Phase1	test/STIM_023.jpg
666.198	0.776	incorrect	test	Phase1	test/STIM_023.jpg
670.639	0.807	incorrect	test	Phase1	test/STIM_023.jpg
674.681	0.843	incorrect	test	Phase1	test/STIM_024.jpg
678.703	0.666	correct	test	Phase1	test/STIM_024.jpg
682.532	0.699	correct	test	Phase1	test/STIM_024.jpg
686.664	0.953	incorrect	test	Phase1	test/STIM_025.jpg
689.923	0.623	correct	test	Phase1	test/STIM_025.jpg
693.562	0.917	correct	test	Phase1	test/STIM_025.jpg
697.231	1.256	incorrect	test	Phase1	test/STIM_026.jpg
701.596	1.074	correct	test	Phase1	test/STIM_026.jpg
705.974	0.69	correct	test	Phase1	test/STIM_026.jpg
708.664	0.838	correct	test	Phase1	test/STIM_027.jpg
712.324	0.787	correct	test	Phase1	test/STIM_027.jpg
717.094	1.065	correct	test	Phase1	test/STIM_027.jpg
720.529	0.604	correct	test	Phase1	test/STIM_028.jpg
724.772	0.767	incorrect	test	Phase1	test/STIM_028.jpg
729.437	0.975	correct	test	Phase1	test/STIM_028.jpg
732.508	1.075	correct	test	Phase1	test/STIM_029.jpg
735.639	0.788	correct	test	Phase1	test/STIM_029.jpg
738.745	0.743	correct	test	Phase1	test/STIM_029.jpg
741.604	1.493	correct	study	Phase2	study/STIM_000.jpg
746.177	0.669	incorrect	study	Phase2	study/STIM_000.jpg
749.334	1.119	correct	study	Phase2	study/STIM_000.jpg
753.62	1.077	correct	study	Phase2	study/STIM_001.jpg
758.368	1.102	correct	study	Phase2	study/STIM_001.jpg
761.763	1.098	correct	study	Phase2	study/STIM_001.jpg
765.905	1.053	correct	study	Phase2	study/STIM_002.jpg
770.514	1.01	correct	study	Phase2	study/STIM_002.jpg
774.528	0.757	correct	study	Phase2	study/STIM_002.jpg
778.577	0.765	correct	study	Phase2	study/STIM_003.jpg
782.13	1.117	correct	study	Phase2	study/STIM_003.jpg
786.152	1.083	correct	study	Phase2	study/STIM_003.jpg
789.305	0.73	correct	study	Phase2	study/STIM_004.jpg
792.715	1.399	correct	study	Phase2	study/STIM_004.jpg
797.796	0.705	correct	study	Phase2	study/STIM_004.jpg
802.376	1.496	correct	study	Phase2	study/STIM_005.jpg
807.305	0.692	correct	study	Phase2	study/STIM_005.jpg
810.655	1.135	correct	study	Phase2	study/STIM_005.jpg
813.919	1.081	correct	study	Phase2	study/STIM_006.jpg
818.54	1.055	correct	study	Phase2	study/STIM_006.jpg
821.701	0.766	correct	study	Phase2	study/STIM_006.jpg
825.161	0.714	correct	study	Phase2	study/STIM_007.jpg
829.702	1.358	correct	study	Phase2	study/STIM_007.jpg
834.498	0.661	correct	study	Phase2	study/STIM_007.jpg
837.717	1.109	correct	study	Phase2	study/STIM_008.jpg
842.79	1.267	incorrect	study	Phase2	study/STIM_008.jpg
847.85	1.122	correct	study	Phase2	study/STIM_008.jpg
851.65	1.367	correct	study	Phase2	study/STIM_009.jpg
856.51	1.028	correct	study	Phase2	study/STIM_009.jpg
859.54	0.682	correct	study	Phase2	study/STIM_009.jpg
863.638	0.705	incorrect	study	Phase2	study/STIM_010.jpg
866.844	1.092	correct	study	Phase2	study/STIM_010.jpg
871.239	0.712	correct	study	Phase2	study/STIM_010.jpg
875.041	1.323	correct	study	Phase2	study/STIM_011.jpg
879.119	0.832	correct	study	Phase2	study/STIM_011.jpg
882.823	0.96	correct	study	Phase2	study/STIM_011.jpg
886.819	1.183	correct	study	Phase2	study/STIM_012.jpg
891.665	0.918	correct	study	Phase2	study/STIM_012.jpg
894.924	0.874	correct	study	Phase2	study/STIM_012.jpg
899.464	1.432	correct	study	Phase2	study/STIM_013.jpg
904.515	0.652	correct	study	Phase2	study/STIM_013.jpg
908.785	0.955	correct	study	Phase2	study/STIM_013.jpg
913.437	0.97	correct	study	Phase2	study/STIM_014.jpg
918.169	0.991	correct	study	Phase2	study/STIM_014.jpg
922.226	1.179	correct	study	Phase2	study/STIM_014.jpg
926.237	1.065	correct	study	Phase2	study/STIM_015.jpg
930.133	1.31	correct	study	Phase2	study/STIM_015.jpg
934.639	1.082	correct	study	Phase2	study/STIM_015.jpg
938.932	0.834	incorrect	study	Phase2	study/STIM_016.jpg
943.468	0.934	correct	study	Phase2	study/STIM_016.jpg
948.198	0.858	incorrect	study	Phase2	study/STIM_016.jpg
952.944	1.533	correct	study	Phase2	study/STIM_017.jpg
957.692	0.991	correct	study	Phase2	study/STIM_017.jpg
962.119	0.888	correct	study	Phase2	study/STIM_017.jpg
966.256	0.711	correct	study	Phase2	study/STIM_018.jpg
970.594	1.105	incorrect	study	Phase2	study/STIM_018.jpg
974.702	0.872	incorrect	study	Phase2	study/STIM_018.jpg
978.206	1.098	correct	study	Phase2	study/STIM_019.jpg
981.346	0.716	correct	study	Phase2	study/STIM_019.jpg
984.889	0.628	correct	study	Phase2	study/STIM_019.jpg
987.64	1.459	correct	study	Phase2	study/STIM_020.jpg
991.854	1.269	correct	study	Phase2	study/STIM_020.jpg
996.811	1.021	incorrect	study	Phase2	study/STIM_020.jpg
1000.478	0.756	correct	study	Phase2	study/STIM_021.jpg
1003.354	0.792	correct	study	Phase2	study/STIM_021.jpg
1006.311	1.132	correct	study	Phase2	study/STIM_021.jpg
1011.14	1.467	correct	study	Phase2	study/STIM_022.jpg
1015.872	1.116	correct	study	Phase2	study/STIM_022.jpg
1019.663	1.077	correct	study	Phase2	study/STIM_022.jpg
1022.746	1.135	correct	study	Phase2	study/STIM_023.jpg
1026.341	1.29	correct	study	Phase2	study/STIM_023.jpg
1030.922	1.331	correct	study	Phase2	study/STIM_023.jpg
1035.709	0.902	correct	study	Phase2	study/STIM_024.jpg
1039.701	1.096	correct	study	Phase2	study/STIM_024.jpg
1044.264	1.103	correct	study	Phase2	study/STIM_024.jpg
1047.723	1.418	correct	study	Phase2	study/STIM_025.jpg
1051.441	0.815	correct	study	Phase2	study/STIM_025.jpg
1056.056	0.982	correct	study	Phase2	study/STIM_025.jpg
1060.731	1.038	correct	study	Phase2	study/STIM_026.jpg
1064.034	1.256	correct	study	Phase2	study/STIM_026.jpg
1068.933	0.625	correct	study	Phase2	study/STIM_026.jpg
1072.711	1.378	correct	study	Phase2	study/STIM_027.jpg
1077.949	0.724	correct	study	Phase2	study/STIM_027.jpg
1082.527	0.908	correct	study	Phase2	study/STIM_027.jpg
1087.241	1.228	correct	study	Phase2	study/STIM_028.jpg
1091.945	1.145	correct	study	Phase2	study/STIM_028.jpg
1096.203	1.114	correct	study	Phase2	study/STIM_028.jpg
1100.316	1.445	correct	study	Phase2	study/STIM_029.jpg
1105.189	0.917	correct	study	Phase2	study/STIM_029.jpg
1109.749	1.159	correct	study	Phase2	study/STIM_029.jpg
1114.11	0.874	correct	test	Phase2	test/STIM_000.jpg
1118.535	1.093	correct	test	Phase2	test/STIM_000.jpg
1122.646	1.021	correct	test	Phase2	test/STIM_000.jpg
1125.72	1.214	correct	test	Phase2	test/STIM_001.jpg
1129.975	0.928	correct	test	Phase2	test/STIM_001.jpg
1134.225	1.126	correct	test	Phase2	test/STIM_001.jpg
1138.904	1.118	incorrect	test	Phase2	test/STIM_002.jpg
1142.724	1.019	incorrect	test	Phase2	test/STIM_002.jpg
1147.047	0.786	correct	test	Phase2	test/STIM_002.jpg
1149.898	0.764	correct	test	Phase2	test/STIM_003.jpg
1153.929	0.912	correct	test	Phase2	test/STIM_003.jpg
1157.967	0.646	correct	test	Phase2	test/STIM_003.jpg
1161.383	0.939	correct	test	Phase2	test/STIM_004.jpg
1165.826	0.934	correct	test	Phase2	test/STIM_004.jpg
1170.162	0.954	correct	test	Phase2	test/STIM_004.jpg
1174.036	1.025	correct	test	Phase2	test/STIM_005.jpg
1177.313	1.283	correct	test	Phase2	test/STIM_005.jpg
1182.568	1.176	incorrect	test	Phase2	test/STIM_005.jpg
1187.577	0.764	correct	test	Phase2	test/STIM_006.jpg
1191.186	0.701	correct	test	Phase2	test/STIM_006.jpg
1194.535	0.81	correct	test	Phase2	test/STIM_006.jpg
1198.189	1.298	correct	test	Phase2	test/STIM_007.jpg
1202.545	1.107	incorrect	test	Phase2	test/STIM_007.jpg
1205.941	1.034	correct	test	Phase2	test/STIM_007.jpg
1209.642	0.784	correct	test	Phase2	test/STIM_008.jpg
1214.328	1.093	correct	test	Phase2	test/STIM_008.jpg
1217.601	0.676	correct	test	Phase2	test/STIM_008.jpg
1222.076	1.143	correct	test	Phase2	test/STIM_009.jpg
1225.734	0.698	incorrect	test	Phase2	test/STIM_009.jpg
1228.805	0.766	correct	test	Phase2	test/STIM_009.jpg
1233.127	1.084	incorrect	test	Phase2	test/STIM_010.jpg
1236.582	1.189	correct	test	Phase2	test/STIM_010.jpg
1240.876	1.169	correct	test	Phase2	test/STIM_010.jpg
1244.393	0.851	correct	test	Phase2	test/STIM_011.jpg
1248.121	0.796	correct	test	Phase2	test/STIM_011.jpg
1252.414	0.993	correct	test	Phase2	test/STIM_011.jpg
1256.419	1.139	incorrect	test	Phase2	test/STIM_012.jpg
1259.926	0.988	correct	test	Phase2	test/STIM_012.jpg
1264.09	0.68	incorrect	test	Phase2	test/STIM_012.jpg
1266.892	1.19	incorrect	test	Phase2	test/STIM_013.jpg
1271.865	1.266	correct	test	Phase2	test/STIM_013.jpg
1276.002	0.909	correct	test	Phase2	test/STIM_013.jpg
1279.051	1.258	correct	test	Phase2	test/STIM_014.jpg
1282.351	0.734	correct	test	Phase2	test/STIM_014.jpg
1285.529	0.86	correct	test	Phase2	test/STIM_014.jpg
1288.526	1.076	correct	test	Phase2	test/STIM_015.jpg
1291.941	0.671	incorrect	test	Phase2	test/STIM_015.jpg
1295.715	1.26	correct	test	Phase2	test/STIM_015.jpg
1299.872	1.282	correct	test	Phase2	test/STIM_016.jpg
1304.803	0.716	correct	test	Phase2	test/STIM_016.jpg
1308.482	0.674	incorrect	test	Phase2	test/STIM_016.jpg
1312.494	0.927	correct	test	Phase2	test/STIM_017.jpg
1315.521	0.778	correct	test	Phase2	test/STIM_017.jpg
1319.444	0.602	correct	test	Phase2	test/STIM_017.jpg
1322.311	0.695	correct	test	Phase2	test/STIM_018.jpg
1326.94	0.972	correct	test	Phase2	test/STIM_018.jpg
1330.723	1.222	correct	test	Phase2	test/STIM_018.jpg
1335.797	0.758	correct	test	Phase2	test/STIM_019.jpg
1340.527	0.948	correct	test	Phase2	test/STIM_019.jpg
1344.158	0.696	correct	test	Phase2	test/STIM_019.jpg
1347.14	0.954	correct	test	Phase2	test/STIM_020.jpg
1351.413	1.076	correct	test	Phase2	test/STIM_020.jpg
1355.536	0.631	correct	test	Phase2	test/STIM_020.jpg
1359.611	1.154	correct	test	Phase2	test/STIM_021.jpg
1364.664	0.694	correct	test	Phase2	test/STIM_021.jpg
1367.749	0.671	correct	test	Phase2	test/STIM_021.jpg
1371.295	0.834	incorrect	test	Phase2	test/STIM_022.jpg
1374.543	1.282	correct	test	Phase2	test/STIM_022.jpg
1378.882	1.101	correct	test	Phase2	test/STIM_022.jpg
1382.538	0.807	correct	test	Phase2	test/STIM_023.jpg
1386.496	1.185	correct	test	Phase2	test/STIM_023.jpg
1390.846	1.129	correct	test	Phase2	test/STIM_023.jpg
1395.787	1.056	correct	test	Phase2	test/STIM_024.jpg
1400.719	0.633	correct	test	Phase2	test/STIM_024.jpg
1404.653	1.077	correct	test	Phase2	test/STIM_024.jpg
1408.301	0.768	correct	test	Phase2	test/STIM_025.jpg
1411.674	0.826	correct	test	Phase2	test/STIM_025.jpg
1415.84	1.117	correct	test	Phase2	test/STIM_025.jpg
1420.552	0.79	correct	test	Phase2	test/STIM_026.jpg
1424.253	1.033	correct	test	Phase2	test/STIM_026.jpg
1428.483	1.26	correct	test	Phase2	test/STIM_026.jpg
1433.563	1.117	correct	test	Phase2	test/STIM_027.jpg
1437.175	0.735	correct	test	Phase2	test/STIM_027.jpg
1440.799	0.794	correct	test	Phase2	test/STIM_027.jpg
1444.664	1.037	correct	test	Phase2	test/STIM_028.jpg
1449.029	1.087	incorrect	test	Phase2	test/STIM_028.jpg
1453.602	0.651	correct	test	Phase2	test/STIM_028.jpg
1457.505	1.265	correct	test	Phase2	test/STIM_029.jpg
1461.089	1.125	incorrect	test	Phase2	test/STIM_029.jpg
1466.157	0.7	correct	test	Phase2	test/STIM_029.jpg
1469.378	1.202	correct	study	Phase3	study/STIM_000.jpg
1473.489	0.593	correct	study	Phase3	study/STIM_000.jpg
1477.004	1.122	correct	study	Phase3	study/STIM_000.jpg
1481.619	0.682	correct	study	Phase3	study/STIM_001.jpg
1485.239	1.113	correct	study	Phase3	study/STIM_001.jpg
1490.079	0.755	correct	study	Phase3	study/STIM_001.jpg
1493.009	0.911	correct	study	Phase3	study/STIM_002.jpg
1496.802	0.947	correct	study	Phase3	study/STIM_002.jpg
1500.086	1.227	correct	study	Phase3	study/STIM_002.jpg
1504.554	0.872	correct	study	Phase3	study/STIM_003.jpg
1508.873	0.918	correct	study	Phase3	study/STIM_003.jpg
1512.454	1.127	correct	study	Phase3	study/STIM_003.jpg
1517.095	1.185	incorrect	study	Phase3	study/STIM_004.jpg
1520.982	0.64	correct	study	Phase3	study/STIM_004.jpg
1524.464	0.654	correct	study	Phase3	study/STIM_004.jpg
1528.007	0.823	correct	study	Phase3	study/STIM_005.jpg
1530.884	1.098	correct	study	Phase3	study/STIM_005.jpg
1535.737	0.761	correct	study	Phase3	study/STIM_005.jpg
1539.003	0.851	correct	study	Phase3	study/STIM_006.jpg
1542.597	1.169	correct	study	Phase3	study/STIM_006.jpg
1546.432	1.162	correct	study	Phase3	study/STIM_006.jpg
1551.001	1.002	correct	study	Phase3	study/STIM_007.jpg
1554.824	0.828	correct	study	Phase3	study/STIM_007.jpg
1558.126	1.26	correct	study	Phase3	study/STIM_007.jpg
1562.314	0.723	correct	study	Phase3	study/STIM_008.jpg
1566.76	0.813	correct	study	Phase3	study/STIM_008.jpg
1570.304	0.786	correct	study	Phase3	study/STIM_008.jpg
1574.888	1.051	correct	study	Phase3	study/STIM_009.jpg
1578.538	0.582	correct	study	Phase3	study/STIM_009.jpg
1582.533	0.755	correct	study	Phase3	study/STIM_009.jpg
1585.472	0.708	correct	study	Phase3	study/STIM_010.jpg
1589.193	0.609	correct	study	Phase3	study/STIM_010.jpg
1592.934	0.671	correct	study	Phase3	study/STIM_010.jpg
1596.719	0.739	correct	study	Phase3	study/STIM_011.jpg
1600.446	0.888	correct	study	Phase3	study/STIM_011.jpg
1604.949	0.843	correct	study	Phase3	study/STIM_011.jpg
1609.045	1.064	correct	study	Phase3	study/STIM_012.jpg
1613.147	0.914	incorrect	study	Phase3	study/STIM_012.jpg
1616.893	0.885	correct	study	Phase3	study/STIM_012.jpg
1621.106	0.562	correct	study	Phase3	study/STIM_013.jpg
1623.971	1.247	correct	study	Phase3	study/STIM_013.jpg
1628.178	0.61	correct	study	Phase3	study/STIM_013.jpg
1631.281	0.777	correct	study	Phase3	study/STIM_014.jpg
1634.071	1.257	correct	study	Phase3	study/STIM_014.jpg
1638.993	1.199	correct	study	Phase3	study/STIM_014.jpg
1643.045	1.186	correct	study	Phase3	study/STIM_015.jpg
1647.706	0.949	correct	study	Phase3	study/STIM_015.jpg
1650.858	1.173	correct	study	Phase3	study/STIM_015.jpg
1655.123	1.032	correct	study	Phase3	study/STIM_016.jpg
1658.522	0.717	correct	study	Phase3	study/STIM_016.jpg
1661.929	0.959	correct	study	Phase3	study/STIM_016.jpg
1665.394	0.95	correct	study	Phase3	study/STIM_017.jpg
1669.696	0.863	correct	study	Phase3	study/STIM_017.jpg
1673.203	0.787	correct	study	Phase3	study/STIM_017.jpg
1676.33	0.908	correct	study	Phase3	study/STIM_018.jpg
1679.516	1.186	correct	study	Phase3	study/STIM_018.jpg
1684.045	0.839	correct	study	Phase3	study/STIM_018.jpg
1688.734	0.579	correct	study	Phase3	study/STIM_019.jpg
1692.654	1.149	correct	study	Phase3	study/STIM_019.jpg
1697.761	1.094	correct	study	Phase3	study/STIM_019.jpg
1701.171	1.23	incorrect	study	Phase3	study/STIM_020.jpg
1705.152	0.865	correct	study	Phase3	study/STIM_020.jpg
1709.474	1.146	correct	study	Phase3	study/STIM_020.jpg
1714.551	0.837	correct	study	Phase3	study/STIM_021.jpg
1718.356	1.147	correct	study	Phase3	study/STIM_021.jpg
1721.948	0.962	correct	study	Phase3	study/STIM_021.jpg
1725.961	0.928	correct	study	Phase3	study/STIM_022.jpg
1730.744	0.834	correct	study	Phase3	study/STIM_022.jpg
1733.936	1.236	correct	study	Phase3	study/STIM_022.jpg
1738.656	0.831	incorrect	study	Phase3	study/STIM_023.jpg
1742.146	0.852	correct	study	Phase3	study/STIM_023.jpg
1746.934	1.257	correct	study	Phase3	study/STIM_023.jpg
1752.106	1.208	correct	study	Phase3	study/STIM_024.jpg
1756.783	0.905	correct	study	Phase3	study/STIM_024.jpg
1759.742	0.712	correct	study	Phase3	study/STIM_024.jpg
1762.679	0.571	correct	study	Phase3	study/STIM_025.jpg
1766.032	0.84	correct	study	Phase3	study/STIM_025.jpg
1770.549	1.136	correct	study	Phase3	study/STIM_025.jpg
1774.856	0.734	correct	study	Phase3	study/STIM_026.jpg
1778.253	1.107	correct	study	Phase3	study/STIM_026.jpg
1782.19	1.192	correct	study	Phase3	study/STIM_026.jpg
1786.14	0.785	correct	study	Phase3	study/STIM_027.jpg
1789.725	0.799	correct	study	Phase3	study/STIM_027.jpg
1793.578	1.021	correct	study	Phase3	study/STIM_027.jpg
1798.178	0.918	correct	study	Phase3	study/STIM_028.jpg
1801.619	0.858	correct	study	Phase3	study/STIM_028.jpg
1805.572	0.57	correct	study	Phase3	study/STIM_028.jpg
1809.62	0.758	correct	study	Phase3	study/STIM_029.jpg
1812.739	1.116	correct	study	Phase3	study/STIM_029.jpg
1816.641	0.563	correct	study	Phase3	study/STIM_029.jpg
1820.304	1.254	correct	test	Phase3	test/STIM_000.jpg
1825.078	0.712	correct	test	Phase3	test/STIM_000.jpg
1828.315	0.689	incorrect	test	Phase3	test/STIM_000.jpg
1832.011	1.017	correct	test	Phase3	test/STIM_001.jpg
1835.869	1.05	correct	test	Phase3	test/STIM_001.jpg
1839.735	1.18	correct	test	Phase3	test/STIM_001.jpg
1844.703	0.736	correct	test	Phase3	test/STIM_002.jpg
1849.275	0.755	correct	test	Phase3	test/STIM_002.jpg
1853.641	0.886	correct	test	Phase3	test/STIM_002.jpg
1856.706	0.916	correct	test	Phase3	test/STIM_003.jpg
1861.605	0.717	correct	test	Phase3	test/STIM_003.jpg
1864.605	0.997	correct	test	Phase3	test/STIM_003.jpg
1867.644	0.844	correct	test	Phase3	test/STIM_004.jpg
1871.571	0.952	correct	test	Phase3	test/STIM_004.jpg
1875.252	0.918	correct	test	Phase3	test/STIM_004.jpg
1879.962	1.239	correct	test	Phase3	test/STIM_005.jpg
1883.25	1.211	correct	test	Phase3	test/STIM_005.jpg
1886.802	1.032	correct	test	Phase3	test/STIM_005.jpg
1890.549	0.644	correct	test	Phase3	test/STIM_006.jpg
1894.572	0.67	correct	test	Phase3	test/STIM_006.jpg
1897.533	0.988	correct	test	Phase3	test/STIM_006.jpg
1902.234	1.224	correct	test	Phase3	test/STIM_007.jpg
1905.932	0.745	correct	test	Phase3	test/STIM_007.jpg
1909.933	1.207	correct	test	Phase3	test/STIM_007.jpg
1914.538	1.086	correct	test	Phase3	test/STIM_008.jpg
1919.251	0.904	correct	test	Phase3	test/STIM_008.jpg
1923.291	1.239	correct	test	Phase3	test/STIM_008.jpg
1926.766	1.163	correct	test	Phase3	test/STIM_009.jpg
1931.076	0.683	correct	test	Phase3	test/STIM_009.jpg
1934.063	1.229	correct	test	Phase3	test/STIM_009.jpg
1938.167	1.239	correct	test	Phase3	test/STIM_010.jpg
1943.159	0.681	correct	test	Phase3	test/STIM_010.jpg
1946.124	0.71	correct	test	Phase3	test/STIM_010.jpg
1949.727	0.781	correct	test	Phase3	test/STIM_011.jpg
1954.228	0.894	correct	test	Phase3	test/STIM_011.jpg
1957.672	1.081	correct	test	Phase3	test/STIM_011.jpg
1962.577	0.617	correct	test	Phase3	test/STIM_012.jpg
1966.371	0.808	correct	test	Phase3	test/STIM_012.jpg
1971.03	0.67	correct	test	Phase3	test/STIM_012.jpg
1975.306	0.686	correct	test	Phase3	test/STIM_013.jpg
1979.654	0.747	incorrect	test	Phase3	test/STIM_013.jpg
1982.529	1.114	correct	test	Phase3	test/STIM_013.jpg
1986.638	0.671	correct	test	Phase3	test/STIM_014.jpg
1990.655	0.891	correct	test	Phase3	test/STIM_014.jpg
1995.118	1.153	correct	test	Phase3	test/STIM_014.jpg
1999.963	0.983	correct	test	Phase3	test/STIM_015.jpg
2004.069	0.768	correct	test	Phase3	test/STIM_015.jpg
2007.847	1.039	incorrect	test	Phase3	test/STIM_015.jpg
2012.495	1.012	correct	test	Phase3	test/STIM_016.jpg
2015.844	0.821	correct	test	Phase3	test/STIM_016.jpg
2019.661	0.637	correct	test	Phase3	test/STIM_016.jpg
2022.796	1.132	correct	test	Phase3	test/STIM_017.jpg
2026.598	1.256	incorrect	test	Phase3	test/STIM_017.jpg
2031.601	0.834	correct	test	Phase3	test/STIM_017.jpg
2036.233	0.903	correct	test	Phase3	test/STIM_018.jpg
2040.511	0.931	correct	test	Phase3	test/STIM_018.jpg
2044.574	0.825	correct	test	Phase3	test/STIM_018.jpg
2047.571	0.947	correct	test	Phase3	test/STIM_019.jpg
2051.321	1.075	correct	test	Phase3	test/STIM_019.jpg
2054.462	1.216	correct	test	Phase3	test/STIM_019.jpg
2059.512	1.1	correct	test	Phase3	test/STIM_020.jpg
2063.255	0.707	correct	test	Phase3	test/STIM_020.jpg
2066.665	0.794	correct	test	Phase3	test/STIM_020.jpg
2069.746	1.018	correct	test	Phase3	test/STIM_021.jpg
2074.137	0.96	correct	test	Phase3	test/STIM_021.jpg
2077.731	1.135	correct	test	Phase3	test/STIM_021.jpg
2081.812	1.222	correct	test	Phase3	test/STIM_022.jpg
2085.409	0.638	correct	test	Phase3	test/STIM_022.jpg
2088.706	1.193	correct	test	Phase3	test/STIM_022.jpg
2093.134	0.69	incorrect	test	Phase3	test/STIM_023.jpg
2097.272	0.744	correct	test	Phase3	test/STIM_023.jpg
2101.815	1.213	correct	test	Phase3	test/STIM_023.jpg
2106.786	0.806	correct	test	Phase3	test/STIM_024.jpg
2110.651	0.89	correct	test	Phase3	test/STIM_024.jpg
2115.208	1.09	correct	test	Phase3	test/STIM_024.jpg
2120.133	1.09	correct	test	Phase3	test/STIM_025.jpg
2124.679	0.626	correct	test	Phase3	test/STIM_025.jpg
2129.152	1.006	correct	test	Phase3	test/STIM_025.jpg
2134.131	1.17	correct	test	Phase3	test/STIM_026.jpg
2137.441	1.28	incorrect	test	Phase3	test/STIM_026.jpg
2142.071	1.292	correct	test	Phase3	test/STIM_026.jpg
2147.211	0.898	correct	test	Phase3	test/STIM_027.jpg
2150.269	1.024	correct	test	Phase3	test/STIM_027.jpg
2154.581	1.027	correct	test	Phase3	test/STIM_027.jpg
2158.631	0.752	incorrect	test	Phase3	test/STIM_028.jpg
2163.156	0.614	correct	test	Phase3	test/STIM_028.jpg
2167.713	0.789	correct	test	Phase3	test/STIM_028.jpg
2171.63	1.196	correct	test	Phase3	test/STIM_029.jpg
2175.275	1.065	correct	test	Phase3	test/STIM_029.jpg
2180.123	1.224	correct	test	Phase3	test/STIM_029.jpg
