onset	duration	accuracy	trial_type	learning_stage	stimulus
0.0	1.837	correct	regulate	Run1	regulate/STIM_000.jpg
6.021	1.988	correct	regulate	Run1	regulate/STIM_000.jpg
11.565	1.577	incorrect	regulate	Run1	regulate/STIM_000.jpg
15.431	2.053	correct	regulate	Run1	regulate/STIM_000.jpg
21.149	2.419	correct	regulate	Run1	regulate/STIM_001.jpg
26.052	2.544	correct	regulate	Run1	regulate/STIM_001.jpg
31.922	1.587	correct	regulate	Run1	regulate/STIM_001.jpg
35.873	1.24	correct	regulate	Run1	regulate/STIM_001.jpg
39.568	2.259	correct	regulate	Run1	regulate/STIM_002.jpg
45.77	1.463	correct	regulate	Run1	regulate/STIM_002.jpg
50.896	2.478	correct	regulate	Run1	regulate/STIM_002.jpg
57.32	1.885	correct	regulate	Run1	regulate/STIM_002.jpg
61.875	2.895	correct	regulate	Run1	regulate/STIM_003.jpg
67.955	2.608	correct	regulate	Run1	regulate/STIM_003.jpg
74.731	1.945	correct	regulate	Run1	regulate/STIM_003.jpg
79.814	1.537	correct	regulate	Run1	regulate/STIM_003.jpg
84.933	1.489	correct	regulate	Run1	regulate/STIM_004.jpg
88.788	1.798	correct	regulate	Run1	regulate/STIM_004.jpg
93.419	1.757	correct	regulate	Run1	regulate/STIM_004.jpg
99.155	1.423	incorrect	regulate	Run1	regulate/STIM_004.jpg
103.806	2.096	correct	regulate	Run1	regulate/STIM_005.jpg
108.933	2.282	correct	regulate	Run1	regulate/STIM_005.jpg
114.696	2.782	correct	regulate	Run1	regulate/STIM_005.jpg
120.902	1.423	correct	regulate	Run1	regulate/STIM_005.jpg
125.508	1.902	correct	regulate	Run1	regulate/STIM_006.jpg
130.162	1.753	correct	regulate	Run1	regulate/STIM_006.jpg
134.21	1.325	correct	regulate	Run1	regulate/STIM_006.jpg
138.956	2.483	correct	regulate	Run1	regulate/STIM_006.jpg
145.534	1.694	correct	regulate	Run1	regulate/STIM_007.jpg
150.229	2.589	correct	regulate	Run1	regulate/STIM_007.jpg
155.564	1.36	correct	regulate	Run1	regulate/STIM_007.jpg
159.901	2.283	correct	regulate	Run1	regulate/STIM_007.jpg
166.165	1.958	correct	regulate	Run1	regulate/STIM_008.jpg
171.842	2.234	incorrect	regulate	Run1	regulate/STIM_008.jpg
177.355	2.713	correct	regulate	Run1	regulate/STIM_008.jpg
182.74	1.415	correct	regulate	Run1	regulate/STIM_008.jpg
187.312	2.588	incorrect	regulate	Run1	regulate/STIM_009.jpg
193.784	2.107	incorrect	regulate	Run1	regulate/STIM_009.jpg
199.436	2.37	correct	regulate	Run1	regulate/STIM_009.jpg
205.307	1.856	correct	regulate	Run1	regulate/STIM_009.jpg
211.272	2.264	correct	regulate	Run1	regulate/STIM_010.jpg
216.899	1.938	correct	regulate	Run1	regulate/STIM_010.jpg
221.126	1.746	correct	regulate	Run1	regulate/STIM_010.jpg
226.516	1.345	correct	regulate	Run1	regulate/STIM_010.jpg
231.614	2.365	correct	regulate	Run1	regulate/STIM_011.jpg
237.228	2.881	correct	regulate	Run1	regulate/STIM_011.jpg
243.252	2.004	correct	regulate	Run1	regulate/STIM_011.jpg
249.076	1.378	correct	regulate	Run1	regulate/STIM_011.jpg
253.59	1.44	correct	regulate	Run1	regulate/STIM_012.jpg
258.222	2.123	correct	regulate	Run1	regulate/STIM_012.jpg
263.071	2.192	incorrect	regulate	Run1	regulate/STIM_012.jpg
267.6	2.674	correct	regulate	Run1	regulate/STIM_012.jpg
272.767	2.064	correct	regulate	Run1	regulate/STIM_013.jpg
277.959	2.058	incorrect	regulate	Run1	regulate/STIM_013.jpg
282.967	1.442	correct	regulate	Run1	regulate/STIM_013.jpg
287.993	1.36	correct	regulate	Run1	regulate/STIM_013.jpg
292.099	2.33	correct	regulate	Run1	regulate/STIM_014.jpg
298.343	1.853	correct	regulate	Run1	regulate/STIM_014.jpg
303.8	2.036	correct	regulate	Run1	regulate/STIM_014.jpg
309.425	1.715	correct	regulate	Run1	regulate/STIM_014.jpg
315.214	2.915	correct	regulate	Run1	regulate/STIM_015.jpg
320.816	2.157	correct	regulate	Run1	regulate/STIM_015.jpg
326.738	1.551	correct	regulate	Run1	regulate/STIM_015.jpg
330.562	1.3	correct	regulate	Run1	regulate/STIM_015.jpg
334.419	2.304	correct	regulate	Run1	regulate/STIM_016.jpg
339.952	1.727	correct	regulate	Run1	regulate/STIM_016.jpg
345.61	2.745	correct	regulate	Run1	regulate/STIM_016.jpg
351.421	1.309	correct	regulate	Run1	regulate/STIM_016.jpg
355.259	2.003	correct	regulate	Run1	regulate/STIM_017.jpg
359.708	2.175	correct	regulate	Run1	regulate/STIM_017.jpg
365.628	1.262	correct	regulate	Run1	regulate/STIM_017.jpg
369.154	1.452	correct	regulate	Run1	regulate/STIM_017.jpg
373.505	2.73	correct	regulate	Run1	regulate/STIM_018.jpg
379.306	2.415	incorrect	regulate	Run1	regulate/STIM_018.jpg
384.459	2.244	incorrect	regulate	Run1	regulate/STIM_018.jpg
388.951	1.633	correct	regulate	Run1	regulate/STIM_018.jpg
392.868	2.595	correct	regulate	Run1	regulate/STIM_019.jpg
398.078	2.562	correct	regulate	Run1	regulate/STIM_019.jpg
403.708	2.6	correct	regulate	Run1	regulate/STIM_019.jpg
409.339	2.549	correct	regulate	Run1	regulate/STIM_019.jpg
415.348	1.519	incorrect	regulate	Run1	regulate/STIM_020.jpg
420.299	2.736	incorrect	regulate	Run1	regulate/STIM_020.jpg
427.266	2.523	correct	regulate	Run1	regulate/STIM_020.jpg
432.758	2.574	correct	regulate	Run1	regulate/STIM_020.jpg
438.44	3.024	incorrect	regulate	Run1	regulate/STIM_021.jpg
444.924	2.322	correct	regulate	Run1	regulate/STIM_021.jpg
449.909	2.725	correct	regulate	Run1	regulate/STIM_021.jpg
455.491	2.371	correct	regulate	Run1	regulate/STIM_021.jpg
460.376	3.032	incorrect	regulate	Run1	regulate/STIM_022.jpg
467.249	1.572	correct	regulate	Run1	regulate/STIM_022.jpg
472.106	1.501	incorrect	regulate	Run1	regulate/STIM_022.jpg
476.244	1.562	correct	regulate	Run1	regulate/STIM_022.jpg
481.444	3.054	incorrect	regulate	Run1	regulate/STIM_023.jpg
487.3	1.484	correct	regulate	Run1	regulate/STIM_023.jpg
492.004	1.856	incorrect	regulate	Run1	regulate/STIM_023.jpg
496.431	1.973	correct	regulate	Run1	regulate/STIM_023.jpg
501.065	2.766	correct	regulate	Run1	regulate/STIM_024.jpg
507.169	1.526	correct	regulate	Run1	regulate/STIM_024.jpg
511.693	2.814	correct	regulate	Run1	regulate/STIM_024.jpg
517.985	1.53	correct	regulate	Run1	regulate/STIM_024.jpg
523.062	1.699	correct	regulate	Run1	regulate/STIM_025.jpg
527.099	1.662	correct	regulate	Run1	regulate/STIM_025.jpg
531.525	1.736	correct	regulate	Run1	regulate/STIM_025.jpg
535.464	1.646	correct	regulate	Run1	regulate/STIM_025.jpg
541.258	2.196	correct	regulate	Run1	regulate/STIM_026.jpg
546.901	2.898	correct	regulate	Run1	regulate/STIM_026.jpg
553.419	2.777	correct	regulate	Run1	regulate/STIM_026.jpg
558.806	2.374	incorrect	regulate	Run1	regulate/STIM_026.jpg
563.556	1.554	incorrect	regulate	Run1	regulate/STIM_027.jpg
568.693	2.292	correct	regulate	Run1	regulate/STIM_027.jpg
574.946	2.814	correct	regulate	Run1	regulate/STIM_027.jpg
580.287	2.492	correct	regulate	Run1	regulate/STIM_027.jpg
586.619	2.756	correct	regulate	Run1	regulate/STIM_028.jpg
591.963	1.905	correct	regulate	Run1	regulate/STIM_028.jpg
597.9	2.216	correct	regulate	Run1	regulate/STIM_028.jpg
603.59	1.704	incorrect	regulate	Run1	regulate/STIM_028.jpg
609.37	1.757	correct	regulate	Run1	regulate/STIM_029.jpg
614.255	1.859	correct	regulate	Run1	regulate/STIM_029.jpg
619.906	2.63	incorrect	regulate	Run1	regulate/STIM_029.jpg
625.246	1.309	correct	regulate	Run1	regulate/STIM_029.jpg
630.069	1.164	correct	observe	Run1	observe/STIM_000.jpg
634.495	1.32	correct	observe	Run1	observe/STIM_000.jpg
638.823	0.91	correct	observe	Run1	observe/STIM_000.jpg
642.718	1.117	correct	observe	Run1	observe/STIM_000.jpg
646.336	1.41	correct	observe	Run1	observe/STIM_001.jpg
650.48	0.966	correct	observe	Run1	observe/STIM_001.jpg
654.927	1.124	correct	observe	Run1	observe/STIM_001.jpg
658.296	1.362	correct	observe	Run1	observe/STIM_001.jpg
663.151	1.246	incorrect	observe	Run1	observe/STIM_002.jpg
667.098	1.11	correct	observe	Run1	observe/STIM_002.jpg
670.606	0.768	correct	observe	Run1	observe/STIM_002.jpg
674.138	0.747	correct	observe	Run1	observe/STIM_002.jpg
677.569	1.096	incorrect	observe	Run1	observe/STIM_003.jpg
682.746	1.056	correct	observe	Run1	observe/STIM_003.jpg
687.468	1.366	correct	observe	Run1	observe/STIM_003.jpg
691.722	0.741	correct	observe	Run1	observe/STIM_003.jpg
695.787	1.048	correct	observe	Run1	observe/STIM_004.jpg
699.004	1.235	correct	observe	Run1	observe/STIM_004.jpg
703.224	1.121	incorrect	observe	Run1	observe/STIM_004.jpg
707.515	0.848	correct	observe	Run1	observe/STIM_004.jpg
711.612	0.755	correct	observe	Run1	observe/STIM_005.jpg
716.423	1.342	incorrect	observe	Run1	observe/STIM_005.jpg
721.794	1.215	correct	observe	Run1	observe/STIM_005.jpg
726.467	0.888	correct	observe	Run1	observe/STIM_005.jpg
731.089	1.333	correct	observe	Run1	observe/STIM_006.jpg
734.702	1.196	correct	observe	Run1	observe/STIM_006.jpg
738.521	0.817	correct	observe	Run1	observe/STIM_006.jpg
742.674	1.388	correct	observe	Run1	observe/STIM_006.jpg
746.361	0.728	correct	observe	Run1	observe/STIM_007.jpg
750.804	0.89	correct	observe	Run1	observe/STIM_007.jpg
755.15	0.908	incorrect	observe	Run1	observe/STIM_007.jpg
759.641	1.298	correct	observe	Run1	observe/STIM_007.jpg
764.616	1.36	correct	observe	Run1	observe/STIM_008.jpg
769.311	0.911	correct	observe	Run1	observe/STIM_008.jpg
773.029	1.099	correct	observe	Run1	observe/STIM_008.jpg
776.748	1.178	correct	observe	Run1	observe/STIM_008.jpg
780.131	0.856	correct	observe	Run1	observe/STIM_009.jpg
784.323	1.002	correct	observe	Run1	observe/STIM_009.jpg
789.159	1.12	incorrect	observe	Run1	observe/STIM_009.jpg
793.459	0.836	correct	observe	Run1	observe/STIM_009.jpg
798.341	1.071	correct	observe	Run1	observe/STIM_010.jpg
802.924	1.013	incorrect	observe	Run1	observe/STIM_010.jpg
806.709	1.263	correct	observe	Run1	observe/STIM_010.jpg
810.711	1.118	correct	observe	Run1	observe/STIM_010.jpg
814.606	0.77	correct	observe	Run1	observe/STIM_011.jpg
818.82	1.108	correct	observe	Run1	observe/STIM_011.jpg
823.591	0.813	correct	observe	Run1	observe/STIM_011.jpg
826.862	0.974	correct	observe	Run1	observe/STIM_011.jpg
830.051	1.244	correct	observe	Run1	observe/STIM_012.jpg
835.175	1.173	correct	observe	Run1	observe/STIM_012.jpg
838.625	0.826	correct	observe	Run1	observe/STIM_012.jpg
843.176	0.8	correct	observe	Run1	observe/STIM_012.jpg
848.004	1.328	correct	observe	Run1	observe/STIM_013.jpg
852.904	1.035	correct	observe	Run1	observe/STIM_013.jpg
857.383	1.101	correct	observe	Run1	observe/STIM_013.jpg
862.069	1.3	correct	observe	Run1	observe/STIM_013.jpg
865.775	1.401	correct	observe	Run1	observe/STIM_014.jpg
871.069	1.406	correct	observe	Run1	observe/STIM_014.jpg
876.5	0.925	correct	observe	Run1	observe/STIM_014.jpg
880.342	1.041	correct	observe	Run1	observe/STIM_014.jpg
885.187	1.368	correct	observe	Run1	observe/STIM_015.jpg
889.715	1.098	correct	observe	Run1	observe/STIM_015.jpg
894.234	0.784	correct	observe	Run1	observe/STIM_015.jpg
898.423	0.739	incorrect	observe	Run1	observe/STIM_015.jpg
901.778	1.005	correct	observe	Run1	observe/STIM_016.jpg
905.034	1.084	correct	observe	Run1	observe/STIM_016.jpg
909.781	1.382	correct	observe	Run1	observe/STIM_016.jpg
915.141	1.24	correct	observe	Run1	observe/STIM_016.jpg
918.902	1.238	correct	observe	Run1	observe/STIM_017.jpg
922.488	1.161	correct	observe	Run1	observe/STIM_017.jpg
927.665	0.738	correct	observe	Run1	observe/STIM_017.jpg
931.735	1.147	incorrect	observe	Run1	observe/STIM_017.jpg
936.749	1.086	correct	observe	Run1	observe/STIM_018.jpg
941.237	1.432	correct	observe	Run1	observe/STIM_018.jpg
946.748	0.854	incorrect	observe	Run1	observe/STIM_018.jpg
950.687	0.811	incorrect	observe	Run1	observe/STIM_018.jpg
953.597	1.044	correct	observe	Run1	observe/STIM_019.jpg
957.51	1.292	correct	observe	Run1	observe/STIM_019.jpg
962.921	0.865	correct	observe	Run1	observe/STIM_019.jpg
967.268	0.877	correct	observe	Run1	observe/STIM_019.jpg
970.332	1.159	correct	regulate	Run2	regulate/STIM_000.jpg
974.78	2.364	correct	regulate	Run2	regulate/STIM_000.jpg
980.523	2.364	correct	regulate	Run2	regulate/STIM_000.jpg
986.28	1.543	correct	regulate	Run2	regulate/STIM_000.jpg
990.696	1.991	correct	regulate	Run2	regulate/STIM_001.jpg
995.299	1.303	correct	regulate	Run2	regulate/STIM_001.jpg
999.436	1.34	incorrect	regulate	Run2	regulate/STIM_001.jpg
1002.965	1.603	correct	regulate	Run2	regulate/STIM_001.jpg
1007.289	2.588	correct	regulate	Run2	regulate/STIM_002.jpg
1012.934	1.507	correct	regulate	Run2	regulate/STIM_002.jpg
1017.146	1.59	correct	regulate	Run2	regulate/STIM_002.jpg
1021.552	1.347	correct	regulate	Run2	regulate/STIM_002.jpg
1025.293	1.452	correct	regulate	Run2	regulate/STIM_003.jpg
1030.675	1.842	correct	regulate	Run2	regulate/STIM_003.jpg
1035.801	2.012	incorrect	regulate	Run2	regulate/STIM_003.jpg
1042.023	1.54	correct	regulate	Run2	regulate/STIM_003.jpg
1047.516	1.788	incorrect	regulate	Run2	regulate/STIM_004.jpg
1053.421	1.587	correct	regulate	Run2	regulate/STIM_004.jpg
1059.113	1.727	correct	regulate	Run2	regulate/STIM_004.jpg
1063.513	2.206	correct	regulate	Run2	regulate/STIM_004.jpg
1069.454	1.334	incorrect	regulate	Run2	regulate/STIM_005.jpg
1074.265	2.445	correct	regulate	Run2	regulate/STIM_005.jpg
1080.263	1.983	correct	regulate	Run2	regulate/STIM_005.jpg
1085.445	1.686	correct	regulate	Run2	regulate/STIM_005.jpg
1089.803	1.191	incorrect	regulate	Run2	regulate/STIM_006.jpg
1094.629	2.164	correct	regulate	Run2	regulate/STIM_006.jpg
1099.58	1.318	correct	regulate	Run2	regulate/STIM_006.jpg
1103.473	1.62	correct	regulate	Run2	regulate/STIM_006.jpg
1107.625	2.114	correct	regulate	Run2	regulate/STIM_007.jpg
1113.216	2.171	incorrect	regulate	Run2	regulate/STIM_007.jpg
1117.96	2.096	correct	regulate	Run2	regulate/STIM_007.jpg
1123.502	1.307	correct	regulate	Run2	regulate/STIM_007.jpg
1127.372	2.448	correct	regulate	Run2	regulate/STIM_008.jpg
1133.154	2.126	correct	regulate	Run2	regulate/STIM_008.jpg
1138.823	1.936	correct	regulate	Run2	regulate/STIM_008.jpg
1143.927	1.851	correct	regulate	Run2	regulate/STIM_008.jpg
1149.161	2.178	incorrect	regulate	Run2	regulate/STIM_009.jpg
1155.302	1.477	correct	regulate	Run2	regulate/STIM_009.jpg
1160.892	1.903	incorrect	regulate	Run2	regulate/STIM_009.jpg
1165.949	1.657	incorrect	regulate	Run2	regulate/STIM_009.jpg
1171.646	2.39	correct	regulate	Run2	regulate/STIM_010.jpg
1176.945	1.486	correct	regulate	Run2	regulate/STIM_010.jpg
1180.734	1.456	correct	regulate	Run2	regulate/STIM_010.jpg
1184.388	1.704	correct	regulate	Run2	regulate/STIM_010.jpg
1188.685	1.802	correct	regulate	Run2	regulate/STIM_011.jpg
1192.89	1.09	correct	regulate	Run2	regulate/STIM_011.jpg
1197.352	1.015	correct	regulate	Run2	regulate/STIM_011.jpg
1201.238	1.947	correct	regulate	Run2	regulate/STIM_011.jpg
1206.502	2.52	correct	regulate	Run2	regulate/STIM_012.jpg
1212.403	2.398	correct	regulate	Run2	regulate/STIM_012.jpg
1218.374	1.962	correct	regulate	Run2	regulate/STIM_012.jpg
1223.515	1.77	correct	regulate	Run2	regulate/STIM_012.jpg
1227.809	1.625	correct	regulate	Run2	regulate/STIM_013.jpg
1231.872	1.383	correct	regulate	Run2	regulate/STIM_013.jpg
1237.059	2.035	correct	regulate	Run2	regulate/STIM_013.jpg
1243.124	2.052	incorrect	regulate	Run2	regulate/STIM_013.jpg
1248.18	2.636	incorrect	regulate	Run2	regulate/STIM_014.jpg
1253.711	2.511	correct	regulate	Run2	regulate/STIM_014.jpg
1259.572	2.158	correct	regulate	Run2	regulate/STIM_014.jpg
1265.001	2.085	correct	regulate	Run2	regulate/STIM_014.jpg
1269.764	2.511	correct	regulate	Run2	regulate/STIM_015.jpg
1274.891	1.232	correct	regulate	Run2	regulate/STIM_015.jpg
1278.695	1.838	correct	regulate	Run2	regulate/STIM_015.jpg
1284.384	1.224	correct	regulate	Run2	regulate/STIM_015.jpg
1287.871	2.218	correct	regulate	Run2	regulate/STIM_016.jpg
1293.048	2.22	correct	regulate	Run2	regulate/STIM_016.jpg
1299.495	1.092	correct	regulate	Run2	regulate/STIM_016.jpg
1302.97	1.135	correct	regulate	Run2	regulate/STIM_016.jpg
1307.676	1.478	correct	regulate	Run2	regulate/STIM_017.jpg
1312.534	1.635	correct	regulate	Run2	regulate/STIM_017.jpg
1317.571	1.018	correct	regulate	Run2	regulate/STIM_017.jpg
1322.686	1.754	incorrect	regulate	Run2	regulate/STIM_017.jpg
1328.379	2.258	correct	regulate	Run2	regulate/STIM_018.jpg
1334.453	2.332	correct	regulate	Run2	regulate/STIM_018.jpg
1340.28	1.521	correct	regulate	Run2	regulate/STIM_018.jpg
1344.611	1.911	correct	regulate	Run2	regulate/STIM_018.jpg
1350.326	1.408	incorrect	regulate	Run2	regulate/STIM_019.jpg
1355.881	1.527	correct	regulate	Run2	regulate/STIM_019.jpg
1359.769	1.592	correct	regulate	Run2	regulate/STIM_019.jpg
1365.059	1.87	correct	regulate	Run2	regulate/STIM_019.jpg
1369.637	2.664	correct	regulate	Run2	regulate/STIM_020.jpg
1376.501	2.14	correct	regulate	Run2	regulate/STIM_020.jpg
1382.804	1.08	correct	regulate	Run2	regulate/STIM_020.jpg
1386.083	1.704	correct	regulate	Run2	regulate/STIM_020.jpg
1391.715	1.853	correct	regulate	Run2	regulate/STIM_021.jpg
1396.215	1.245	correct	regulate	Run2	regulate/STIM_021.jpg
1399.84	1.13	correct	regulate	Run2	regulate/STIM_021.jpg
1404.192	1.668	correct	regulate	Run2	regulate/STIM_021.jpg
1408.599	2.496	correct	regulate	Run2	regulate/STIM_022.jpg
1415.302	2.238	correct	regulate	Run2	regulate/STIM_022.jpg
1421.351	1.904	correct	regulate	Run2	regulate/STIM_022.jpg
1427.158	1.667	correct	regulate	Run2	regulate/STIM_022.jpg
1432.424	2.664	correct	regulate	Run2	regulate/STIM_023.jpg
1438.708	2.225	correct	regulate	Run2	regulate/STIM_023.jpg
1444.321	1.711	incorrect	regulate	Run2	regulate/STIM_023.jpg
1449.202	1.419	correct	regulate	Run2	regulate/STIM_023.jpg
1454.454	2.581	correct	regulate	Run2	regulate/STIM_024.jpg
1461.047	1.902	incorrect	regulate	Run2	regulate/STIM_024.jpg
1466.653	1.301	correct	regulate	Run2	regulate/STIM_024.jpg
1471.98	1.492	correct	regulate	Run2	regulate/STIM_024.jpg
1476.131	2.298	correct	regulate	Run2	regulate/STIM_025.jpg
1481.528	2.285	correct	regulate	Run2	regulate/STIM_025.jpg
1486.561	1.757	correct	regulate	Run2	regulate/STIM_025.jpg
1492.015	1.257	correct	regulate	Run2	regulate/STIM_025.jpg
1497.187	1.782	correct	regulate	Run2	regulate/STIM_026.jpg
1501.409	2.34	correct	regulate	Run2	regulate/STIM_026.jpg
1506.361	1.485	incorrect	regulate	Run2	regulate/STIM_026.jpg
1511.085	2.154	correct	regulate	Run2	regulate/STIM_026.jpg
1516.847	2.157	correct	regulate	Run2	regulate/STIM_027.jpg
1522.338	1.264	incorrect	regulate	Run2	regulate/STIM_027.jpg
1526.571	1.903	correct	regulate	Run2	regulate/STIM_027.jpg
1531.102	0.962	correct	regulate	Run2	regulate/STIM_027.jpg
1535.598	2.556	correct	regulate	Run2	regulate/STIM_028.jpg
1541.305	1.76	correct	regulate	Run2	regulate/STIM_028.jpg
1545.992	2.269	correct	regulate	Run2	regulate/STIM_028.jpg
1551.39	1.639	correct	regulate	Run2	regulate/STIM_028.jpg
1556.158	2.337	correct	regulate	Run2	regulate/STIM_029.jpg
1561.959	1.71	correct	regulate	Run2	regulate/STIM_029.jpg
1566.481	1.654	correct	regulate	Run2	regulate/STIM_029.jpg
1570.574	1.219	correct	regulate	Run2	regulate/STIM_029.jpg
1575.017	1.36	correct	observe	Run2	observe/STIM_000.jpg
1579.764	0.924	correct	observe	Run2	observe/STIM_000.jpg
1582.978	1.386	incorrect	observe	Run2	observe/STIM_000.jpg
1586.554	1.27	correct	observe	Run2	observe/STIM_000.jpg
1591.282	1.279	correct	observe	Run2	observe/STIM_001.jpg
1596.509	0.935	incorrect	observe	Run2	observe/STIM_001.jpg
1600.628	0.892	correct	observe	Run2	observe/STIM_001.jpg
1603.812	0.728	correct	observe	Run2	observe/STIM_001.jpg
1607.186	0.99	correct	observe	Run2	observe/STIM_002.jpg
1610.797	1.439	correct	observe	Run2	observe/STIM_002.jpg
1614.646	1.313	correct	observe	Run2	observe/STIM_002.jpg
1618.856	1.424	correct	observe	Run2	observe/STIM_002.jpg
1623.874	0.891	correct	observe	Run2	observe/STIM_003.jpg
1628.798	1.182	correct	observe	Run2	observe/STIM_003.jpg
1632.584	0.905	incorrect	observe	Run2	observe/STIM_003.jpg
1636.959	1.044	correct	observe	Run2	observe/STIM_003.jpg
1641.562	0.738	correct	observe	Run2	observe/STIM_004.jpg
1645.87	0.856	correct	observe	Run2	observe/STIM_004.jpg
1650.612	0.867	correct	observe	Run2	observe/STIM_004.jpg
1653.611	1.072	correct	observe	Run2	observe/STIM_004.jpg
1657.223	1.428	correct	observe	Run2	observe/STIM_005.jpg
1662.228	1.182	correct	observe	Run2	observe/STIM_005.jpg
1667.406	1.024	correct	observe	Run2	observe/STIM_005.jpg
1672.541	1.0	correct	observe	Run2	observe/STIM_005.jpg
1676.409	1.064	correct	observe	Run2	observe/STIM_006.jpg
1681.306	0.882	incorrect	observe	Run2	observe/STIM_006.jpg
1685.171	1.175	correct	observe	Run2	observe/STIM_006.jpg
1690.13	0.989	correct	observe	Run2	observe/STIM_006.jpg
1694.253	1.07	correct	observe	Run2	observe/STIM_007.jpg
1698.167	0.736	incorrect	observe	Run2	observe/STIM_007.jpg
1702.788	1.365	correct	observe	Run2	observe/STIM_007.jpg
1707.132	1.1	correct	observe	Run2	observe/STIM_007.jpg
1712.077	1.436	correct	observe	Run2	observe/STIM_008.jpg
1716.961	0.959	correct	observe	Run2	observe/STIM_008.jpg
1720.098	1.173	correct	observe	Run2	observe/STIM_008.jpg
1723.94	0.819	correct	observe	Run2	observe/STIM_008.jpg
1727.812	0.851	correct	observe	Run2	observe/STIM_009.jpg
1731.746	1.048	correct	observe	Run2	observe/STIM_009.jpg
1736.714	1.286	correct	observe	Run2	observe/STIM_009.jpg
1740.349	1.302	correct	observe	Run2	observe/STIM_009.jpg
1743.842	0.842	correct	observe	Run2	observe/STIM_010.jpg
1747.197	1.38	correct	observe	Run2	observe/STIM_010.jpg
1751.295	0.847	incorrect	observe	Run2	observe/STIM_010.jpg
1754.414	0.778	correct	observe	Run2	observe/STIM_010.jpg
1758.308	0.936	incorrect	observe	Run2	observe/STIM_011.jpg
1761.666	1.029	incorrect	observe	Run2	observe/STIM_011.jpg
1765.013	1.08	incorrect	observe	Run2	observe/STIM_011.jpg
1769.261	1.379	correct	observe	Run2	observe/STIM_011.jpg
1773.858	1.0	correct	observe	Run2	observe/STIM_012.jpg
1778.828	0.862	correct	observe	Run2	observe/STIM_012.jpg
1782.589	1.355	correct	observe	Run2	observe/STIM_012.jpg
1786.748	1.124	correct	observe	Run2	observe/STIM_012.jpg
1791.773	1.173	correct	observe	Run2	observe/STIM_013.jpg
1796.961	1.394	correct	observe	Run2	observe/STIM_013.jpg
1801.191	1.304	correct	observe	Run2	observe/STIM_013.jpg
1805.695	0.893	correct	observe	Run2	observe/STIM_013.jpg
1810.521	0.908	correct	observe	Run2	observe/STIM_014.jpg
1813.61	1.18	correct	observe	Run2	observe/STIM_014.jpg
1817.302	1.108	correct	observe	Run2	observe/STIM_014.jpg
1820.569	1.043	correct	observe	Run2	observe/STIM_014.jpg
1825.063	1.243	correct	observe	Run2	observe/STIM_015.jpg
1829.373	0.809	correct	observe	Run2	observe/STIM_015.jpg
1833.3	0.98	correct	observe	Run2	observe/STIM_015.jpg
1838.238	0.891	correct	observe	Run2	observe/STIM_015.jpg
1842.171	1.232	incorrect	observe	Run2	observe/STIM_016.jpg
1847.439	1.077	correct	observe	Run2	observe/STIM_016.jpg
1851.833	0.75	correct	observe	Run2	observe/STIM_016.jpg
1856.562	0.841	correct	observe	Run2	observe/STIM_016.jpg
1860.219	1.421	correct	observe	Run2	observe/STIM_017.jpg
1865.278	1.1	correct	observe	Run2	observe/STIM_017.jpg
1870.348	1.235	correct	observe	Run2	observe/STIM_017.jpg
1874.693	1.082	correct	observe	Run2	observe/STIM_017.jpg
1879.248	1.441	correct	observe	Run2	observe/STIM_018.jpg
1884.837	1.432	correct	observe	Run2	observe/STIM_018.jpg
1889.54	0.781	incorrect	observe	Run2	observe/STIM_018.jpg
1892.696	1.415	correct	observe	Run2	observe/STIM_018.jpg
1896.963	1.254	correct	observe	Run2	observe/STIM_019.jpg
1900.667	1.389	correct	observe	Run2	observe/STIM_019.jpg
1904.224	1.194	correct	observe	Run2	observe/STIM_019.jpg
1909.536	1.054	correct	observe	Run2	observe/STIM_019.jpg
1912.811	1.953	correct	regulate	Run3	regulate/STIM_000.jpg
1917.981	1.49	correct	regulate	Run3	regulate/STIM_000.jpg
1922.207	1.981	correct	regulate	Run3	regulate/STIM_000.jpg
1927.724	1.747	correct	regulate	Run3	regulate/STIM_000.jpg
1931.883	1.83	correct	regulate	Run3	regulate/STIM_001.jpg
1936.005	1.41	correct	regulate	Run3	regulate/STIM_001.jpg
1940.556	1.231	correct	regulate	Run3	regulate/STIM_001.jpg
1945.801	1.874	correct	regulate	Run3	regulate/STIM_001.jpg
1950.878	2.119	correct	regulate	Run3	regulate/STIM_002.jpg
1956.928	1.647	correct	regulate	Run3	regulate/STIM_002.jpg
1960.772	1.535	correct	regulate	Run3	regulate/STIM_002.jpg
1964.611	2.04	correct	regulate	Run3	regulate/STIM_002.jpg
1969.397	1.391	correct	regulate	Run3	regulate/STIM_003.jpg
1973.079	1.367	correct	regulate	Run3	regulate/STIM_003.jpg
1977.417	1.096	correct	regulate	Run3	regulate/STIM_003.jpg
1982.006	1.404	correct	regulate	Run3	regulate/STIM_003.jpg
1985.663	1.166	incorrect	regulate	Run3	regulate/STIM_004.jpg
1989.509	1.293	correct	regulate	Run3	regulate/STIM_004.jpg
1994.051	1.438	correct	regulate	Run3	regulate/STIM_004.jpg
1998.575	1.515	correct	regulate	Run3	regulate/STIM_004.jpg
2002.663	1.683	correct	regulate	Run3	regulate/STIM_005.jpg
2008.462	2.082	correct	regulate	Run3	regulate/STIM_005.jpg
2014.725	1.568	correct	regulate	Run3	regulate/STIM_005.jpg
2019.222	1.461	correct	regulate	Run3	regulate/STIM_005.jpg
2023.355	2.088	correct	regulate	Run3	regulate/STIM_006.jpg
2028.051	1.198	correct	regulate	Run3	regulate/STIM_006.jpg
2032.241	1.884	correct	regulate	Run3	regulate/STIM_006.jpg
2036.6	0.952	correct	regulate	Run3	regulate/STIM_006.jpg
2041.125	1.071	correct	regulate	Run3	regulate/STIM_007.jpg
2045.327	1.749	correct	regulate	Run3	regulate/STIM_007.jpg
2050.971	1.41	correct	regulate	Run3	regulate/STIM_007.jpg
2056.5	1.213	correct	regulate	Run3	regulate/STIM_007.jpg
2059.97	1.537	correct	regulate	Run3	regulate/STIM_008.jpg
2064.746	1.45	incorrect	regulate	Run3	regulate/STIM_008.jpg
2070.252	1.767	correct	regulate	Run3	regulate/STIM_008.jpg
2074.213	1.751	correct	regulate	Run3	regulate/STIM_008.jpg
2078.368	2.042	correct	regulate	Run3	regulate/STIM_009.jpg
2082.752	1.012	correct	regulate	Run3	regulate/STIM_009.jpg
2086.854	1.999	correct	regulate	Run3	regulate/STIM_009.jpg
2091.349	1.477	correct	regulate	Run3	regulate/STIM_009.jpg
2095.066	1.99	correct	regulate	Run3	regulate/STIM_010.jpg
2100.79	1.643	correct	regulate	Run3	regulate/STIM_010.jpg
2106.024	2.153	correct	regulate	Run3	regulate/STIM_010.jpg
2111.433	1.976	correct	regulate	Run3	regulate/STIM_010.jpg
2115.897	1.351	correct	regulate	Run3	regulate/STIM_011.jpg
2120.14	1.619	correct	regulate	Run3	regulate/STIM_011.jpg
2125.443	1.435	correct	regulate	Run3	regulate/STIM_011.jpg
2130.341	2.128	correct	regulate	Run3	regulate/STIM_011.jpg
2134.845	1.049	correct	regulate	Run3	regulate/STIM_012.jpg
2138.929	1.323	correct	regulate	Run3	regulate/STIM_012.jpg
2143.089	1.911	correct	regulate	Run3	regulate/STIM_012.jpg
2147.341	1.98	correct	regulate	Run3	regulate/STIM_012.jpg
2152.298	2.185	correct	regulate	Run3	regulate/STIM_013.jpg
2158.33	1.754	correct	regulate	Run3	regulate/STIM_013.jpg
2163.583	1.528	correct	regulate	Run3	regulate/STIM_013.jpg
2169.219	1.221	correct	regulate	Run3	regulate/STIM_013.jpg
2172.727	1.898	correct	regulate	Run3	regulate/STIM_014.jpg
2177.708	1.535	correct	regulate	Run3	regulate/STIM_014.jpg
2183.115	1.88	correct	regulate	Run3	regulate/STIM_014.jpg
2188.851	1.88	correct	regulate	Run3	regulate/STIM_014.jpg
2193.886	1.812	correct	regulate	Run3	regulate/STIM_015.jpg
2198.737	2.201	correct	regulate	Run3	regulate/STIM_015.jpg
2203.453	1.151	correct	regulate	Run3	regulate/STIM_015.jpg
2208.49	1.385	correct	regulate	Run3	regulate/STIM_015.jpg
2213.906	1.203	correct	regulate	Run3	regulate/STIM_016.jpg
2219.186	1.802	correct	regulate	Run3	regulate/STIM_016.jpg
2223.692	2.152	correct	regulate	Run3	regulate/STIM_016.jpg
2229.599	2.064	incorrect	regulate	Run3	regulate/STIM_016.jpg
2234.008	1.773	correct	regulate	Run3	regulate/STIM_017.jpg
2239.234	1.662	correct	regulate	Run3	regulate/STIM_017.jpg
2243.213	2.192	correct	regulate	Run3	regulate/STIM_017.jpg
2248.158	1.51	correct	regulate	Run3	regulate/STIM_017.jpg
2253.285	1.692	correct	regulate	Run3	regulate/STIM_018.jpg
2257.402	2.142	correct	regulate	Run3	regulate/STIM_018.jpg
2263.37	1.821	correct	regulate	Run3	regulate/STIM_018.jpg
2267.748	1.926	correct	regulate	Run3	regulate/STIM_018.jpg
2272.545	1.544	correct	regulate	Run3	regulate/STIM_019.jpg
2277.325	1.778	correct	regulate	Run3	regulate/STIM_019.jpg
2282.598	1.034	correct	regulate	Run3	regulate/STIM_019.jpg
2287.276	0.988	correct	regulate	Run3	regulate/STIM_019.jpg
2291.859	1.766	correct	regulate	Run3	regulate/STIM_020.jpg
2297.433	2.194	correct	regulate	Run3	regulate/STIM_020.jpg
2303.256	1.803	correct	regulate	Run3	regulate/STIM_020.jpg
2308.965	1.253	correct	regulate	Run3	regulate/STIM_020.jpg
2312.859	1.601	correct	regulate	Run3	regulate/STIM_021.jpg
2318.365	1.882	correct	regulate	Run3	regulate/STIM_021.jpg
2322.612	1.101	correct	regulate	Run3	regulate/STIM_021.jpg
2325.89	1.402	correct	regulate	Run3	regulate/STIM_021.jpg
2330.322	1.391	correct	regulate	Run3	regulate/STIM_022.jpg
2334.072	1.463	correct	regulate	Run3	regulate/STIM_022.jpg
2338.831	2.024	correct	regulate	Run3	regulate/STIM_022.jpg
2343.223	1.947	correct	regulate	Run3	regulate/STIM_022.jpg
2348.105	1.996	correct	regulate	Run3	regulate/STIM_023.jpg
2353.216	1.079	correct	regulate	Run3	regulate/STIM_023.jpg
2357.445	2.091	correct	regulate	Run3	regulate/STIM_023.jpg
2363.286	1.544	correct	regulate	Run3	regulate/STIM_023.jpg
2368.673	1.712	correct	regulate	Run3	regulate/STIM_024.jpg
2373.823	1.265	correct	regulate	Run3	regulate/STIM_024.jpg
2377.883	1.768	correct	regulate	Run3	regulate/STIM_024.jpg
2383.351	0.95	correct	regulate	Run3	regulate/STIM_024.jpg
2388.06	1.627	correct	regulate	Run3	regulate/STIM_025.jpg
2393.534	0.97	correct	regulate	Run3	regulate/STIM_025.jpg
2397.383	1.08	correct	regulate	Run3	regulate/STIM_025.jpg
2401.783	2.085	correct	regulate	Run3	regulate/STIM_025.jpg
2407.649	1.845	correct	regulate	Run3	regulate/STIM_026.jpg
2412.23	1.082	correct	regulate	Run3	regulate/STIM_026.jpg
2415.83	1.809	incorrect	regulate	Run3	regulate/STIM_026.jpg
2420.701	1.56	correct	regulate	Run3	regulate/STIM_026.jpg
2424.623	1.21	correct	regulate	Run3	regulate/STIM_027.jpg
2428.814	1.614	correct	regulate	Run3	regulate/STIM_027.jpg
2433.496	1.0	correct	regulate	Run3	regulate/STIM_027.jpg
2437.66	1.185	correct	regulate	Run3	regulate/STIM_027.jpg
2442.475	2.199	incorrect	regulate	Run3	regulate/STIM_028.jpg
2447.72	1.665	correct	regulate	Run3	regulate/STIM_028.jpg
2453.155	1.698	correct	regulate	Run3	regulate/STIM_028.jpg
2457.871	2.192	correct	regulate	Run3	regulate/STIM_028.jpg
2462.918	1.699	correct	regulate	Run3	regulate/STIM_029.jpg
2467.322	1.587	correct	regulate	Run3	regulate/STIM_029.jpg
2472.143	1.842	correct	regulate	Run3	regulate/STIM_029.jpg
2476.675	1.2	correct	regulate	Run3	regulate/STIM_029.jpg
2481.281	1.127	correct	observe	Run3	observe/STIM_000.jpg
2486.374	0.84	incorrect	observe	Run3	observe/STIM_000.jpg
2490.893	1.439	incorrect	observe	Run3	observe/STIM_000.jpg
2494.933	0.98	incorrect	observe	Run3	observe/STIM_000.jpg
2499.189	0.732	correct	observe	Run3	observe/STIM_001.jpg
2503.781	1.002	incorrect	observe	Run3	observe/STIM_001.jpg
2507.51	1.372	correct	observe	Run3	observe/STIM_001.jpg
2512.761	1.191	correct	observe	Run3	observe/STIM_001.jpg
2517.153	1.352	correct	observe	Run3	observe/STIM_002.jpg
2521.187	1.151	correct	observe	Run3	observe/STIM_002.jpg
2525.877	0.786	correct	observe	Run3	observe/STIM_002.jpg
2529.008	1.405	correct	observe	Run3	observe/STIM_002.jpg
2532.826	1.403	correct	observe	Run3	observe/STIM_003.jpg
2537.927	1.129	correct	observe	Run3	observe/STIM_003.jpg
2542.736	1.165	correct	observe	Run3	observe/STIM_003.jpg
2547.031	1.25	correct	observe	Run3	observe/STIM_003.jpg
2552.411	1.387	correct	observe	Run3	observe/STIM_004.jpg
2557.638	1.214	correct	observe	Run3	observe/STIM_004.jpg
2561.793	1.306	correct	observe	Run3	observe/STIM_004.jpg
2566.447	0.848	correct	observe	Run3	observe/STIM_004.jpg
2571.094	0.843	correct	observe	Run3	observe/STIM_005.jpg
2575.496	0.805	correct	observe	Run3	observe/STIM_005.jpg
2578.839	1.274	correct	observe	Run3	observe/STIM_005.jpg
2583.82	1.375	correct	observe	Run3	observe/STIM_005.jpg
2588.638	1.335	correct	observe	Run3	observe/STIM_006.jpg
2592.341	1.197	correct	observe	Run3	observe/STIM_006.jpg
2597.531	0.783	correct	observe	Run3	observe/STIM_006.jpg
2600.929	1.324	correct	observe	Run3	observe/STIM_006.jpg
2604.899	0.92	correct	observe	Run3	observe/STIM_007.jpg
2609.905	1.07	incorrect	observe	Run3	observe/STIM_007.jpg
2614.034	1.37	correct	observe	Run3	observe/STIM_007.jpg
2618.82	1.051	correct	observe	Run3	observe/STIM_007.jpg
2622.786	1.309	correct	observe	Run3	observe/STIM_008.jpg
2626.538	1.089	correct	observe	Run3	observe/STIM_008.jpg
2630.352	1.037	correct	observe	Run3	observe/STIM_008.jpg
2635.445	0.94	correct	observe	Run3	observe/STIM_008.jpg
2639.37	0.762	incorrect	observe	Run3	observe/STIM_009.jpg
2644.205	0.856	correct	observe	Run3	observe/STIM_009.jpg
2647.223	1.304	correct	observe	Run3	observe/STIM_009.jpg
2651.39	0.961	correct	observe	Run3	observe/STIM_009.jpg
2655.845	0.956	incorrect	observe	Run3	observe/STIM_010.jpg
2659.705	0.944	incorrect	observe	Run3	observe/STIM_010.jpg
2663.079	0.892	correct	observe	Run3	observe/STIM_010.jpg
2667.995	1.026	correct	observe	Run3	observe/STIM_010.jpg
2673.05	0.984	correct	observe	Run3	observe/STIM_011.jpg
2676.434	1.379	incorrect	observe	Run3	observe/STIM_011.jpg
2681.917	1.0	correct	observe	Run3	observe/STIM_011.jpg
2685.206	1.045	correct	observe	Run3	observe/STIM_011.jpg
2689.163	1.261	correct	observe	Run3	observe/STIM_012.jpg
2694.516	0.946	correct	observe	Run3	observe/STIM_012.jpg
2697.655	0.863	correct	observe	Run3	observe/STIM_012.jpg
2701.426	1.291	correct	observe	Run3	observe/STIM_012.jpg
2705.345	0.823	correct	observe	Run3	observe/STIM_013.jpg
2709.168	0.772	correct	observe	Run3	observe/STIM_013.jpg
2713.614	1.238	correct	observe	Run3	observe/STIM_013.jpg
2718.658	1.237	correct	observe	Run3	observe/STIM_013.jpg
2722.146	0.726	correct	observe	Run3	observe/STIM_014.jpg
2725.67	1.004	correct	observe	Run3	observe/STIM_014.jpg
2728.877	0.755	correct	observe	Run3	observe/STIM_014.jpg
2731.921	1.071	correct	observe	Run3	observe/STIM_014.jpg
2736.208	0.85	correct	observe	Run3	observe/STIM_015.jpg
2739.838	0.991	incorrect	observe	Run3	observe/STIM_015.jpg
2744.877	0.913	correct	observe	Run3	observe/STIM_015.jpg
2748.388	1.226	correct	observe	Run3	observe/STIM_015.jpg
2753.19	0.883	correct	observe	Run3	observe/STIM_016.jpg
2757.766	1.264	correct	observe	Run3	observe/STIM_016.jpg
2762.976	0.723	correct	observe	Run3	observe/STIM_016.jpg
2766.321	0.754	correct	observe	Run3	observe/STIM_016.jpg
2770.648	1.06	correct	observe	Run3	observe/STIM_017.jpg
2774.384	0.899	correct	observe	Run3	observe/STIM_017.jpg
2779.327	1.129	incorrect	observe	Run3	observe/STIM_017.jpg
2783.935	1.283	correct	observe	Run3	observe/STIM_017.jpg
2788.349	1.061	correct	observe	Run3	observe/STIM_018.jpg
2792.563	1.38	correct	observe	Run3	observe/STIM_018.jpg
2796.862	0.791	correct	observe	Run3	observe/STIM_018.jpg
2800.163	1.28	correct	observe	Run3	observe/STIM_018.jpg
2804.252	1.009	correct	observe	Run3	observe/STIM_019.jpg
2808.247	1.332	incorrect	observe	Run3	observe/STIM_019.jpg
2812.499	1.184	correct	observe	Run3	observe/STIM_019.jpg
2816.273	1.113	correct	observe	Run3	observe/STIM_019.jpg
