onset	duration	accuracy_binary	trial_type	learning_stage	stimulus
0.0	1.225	1	incongruent	Block1	incongruent/STIM_000.jpg
4.784	0.838	1	incongruent	Block1	incongruent/STIM_000.jpg
8.758	0.704	1	incongruent	Block1	incongruent/STIM_000.jpg
11.464	1.176	0	incongruent	Block1	incongruent/STIM_000.jpg
14.925	1.05	1	incongruent	Block1	incongruent/STIM_000.jpg
19.671	0.93	0	incongruent	Block1	incongruent/STIM_001.jpg
23.117	0.941	0	incongruent	Block1	incongruent/STIM_001.jpg
26.241	0.844	1	incongruent	Block1	incongruent/STIM_001.jpg
30.447	0.814	1	incongruent	Block1	incongruent/STIM_001.jpg
34.606	0.528	1	incongruent	Block1	incongruent/STIM_001.jpg
37.933	0.967	0	incongruent	Block1	incongruent/STIM_002.jpg
41.043	0.969	1	incongruent	Block1	incongruent/STIM_002.jpg
44.044	1.003	1	incongruent	Block1	incongruent/STIM_002.jpg
47.953	1.041	1	incongruent	Block1	incongruent/STIM_002.jpg
51.331	0.612	1	incongruent	Block1	incongruent/STIM_002.jpg
55.368	0.877	0	incongruent	Block1	incongruent/STIM_003.jpg
59.643	0.64	0	incongruent	Block1	incongruent/STIM_003.jpg
63.794	0.784	1	incongruent	Block1	incongruent/STIM_003.jpg
67.438	0.878	1	incongruent	Block1	incongruent/STIM_003.jpg
71.558	1.026	1	incongruent	Block1	incongruent/STIM_003.jpg
74.846	0.698	0	incongruent	Block1	incongruent/STIM_004.jpg
78.952	0.908	1	incongruent	Block1	incongruent/STIM_004.jpg
82.896	0.638	1	incongruent	Block1	incongruent/STIM_004.jpg
85.614	0.67	1	incongruent	Block1	incongruent/STIM_004.jpg
88.645	1.01	1	incongruent	Block1	incongruent/STIM_004.jpg
92.399	0.79	1	incongruent	Block1	incongruent/STIM_005.jpg
95.816	0.661	1	incongruent	Block1	incongruent/STIM_005.jpg
99.489	0.821	1	incongruent	Block1	incongruent/STIM_005.jpg
103.988	0.921	0	incongruent	Block1	incongruent/STIM_005.jpg
107.949	1.043	1	incongruent	Block1	incongruent/STIM_005.jpg
111.31	0.843	1	incongruent	Block1	incongruent/STIM_006.jpg
115.111	1.198	0	incongruent	Block1	incongruent/STIM_006.jpg
119.375	0.764	1	incongruent	Block1	incongruent/STIM_006.jpg
122.572	0.834	1	incongruent	Block1	incongruent/STIM_006.jpg
127.377	0.898	0	incongruent	Block1	incongruent/STIM_006.jpg
131.466	1.383	1	incongruent	Block1	incongruent/STIM_007.jpg
135.131	1.129	1	incongruent	Block1	incongruent/STIM_007.jpg
139.593	1.042	1	incongruent	Block1	incongruent/STIM_007.jpg
142.977	0.577	1	incongruent	Block1	incongruent/STIM_007.jpg
147.543	0.63	1	incongruent	Block1	incongruent/STIM_007.jpg
151.851	1.312	1	incongruent	Block1	incongruent/STIM_008.jpg
155.678	0.744	0	incongruent	Block1	incongruent/STIM_008.jpg
159.8	0.74	1	incongruent	Block1	incongruent/STIM_008.jpg
164.293	0.889	1	incongruent	Block1	incongruent/STIM_008.jpg
167.567	1.064	1	incongruent	Block1	incongruent/STIM_008.jpg
172.616	1.22	1	incongruent	Block1	incongruent/STIM_009.jpg
176.864	1.25	1	incongruent	Block1	incongruent/STIM_009.jpg
180.394	0.603	1	incongruent	Block1	incongruent/STIM_009.jpg
184.459	0.701	1	incongruent	Block1	incongruent/STIM_009.jpg
187.674	0.668	1	incongruent	Block1	incongruent/STIM_009.jpg
191.138	1.076	1	incongruent	Block1	incongruent/STIM_010.jpg
194.41	1.13	1	incongruent	Block1	incongruent/STIM_010.jpg
199.472	0.715	1	incongruent	Block1	incongruent/STIM_010.jpg
202.897	0.824	1	incongruent	Block1	incongruent/STIM_010.jpg
207.54	0.728	0	incongruent	Block1	incongruent/STIM_010.jpg
210.885	0.858	1	incongruent	Block1	incongruent/STIM_011.jpg
214.291	0.621	1	incongruent	Block1	incongruent/STIM_011.jpg
218.006	0.89	1	incongruent	Block1	incongruent/STIM_011.jpg
222.42	0.758	1	incongruent	Block1	incongruent/STIM_011.jpg
225.873	1.093	1	incongruent	Block1	incongruent/STIM_011.jpg
230.889	1.222	1	incongruent	Block1	incongruent/STIM_012.jpg
235.915	1.065	1	incongruent	Block1	incongruent/STIM_012.jpg
239.596	0.63	0	incongruent	Block1	incongruent/STIM_012.jpg
243.617	1.06	0	incongruent	Block1	incongruent/STIM_012.jpg
247.056	0.987	1	incongruent	Block1	incongruent/STIM_012.jpg
250.491	0.918	0	incongruent	Block1	incongruent/STIM_013.jpg
254.935	0.894	1	incongruent	Block1	incongruent/STIM_013.jpg
258.881	0.965	1	incongruent	Block1	incongruent/STIM_013.jpg
262.01	0.956	1	incongruent	Block1	incongruent/STIM_013.jpg
265.351	0.673	1	incongruent	Block1	incongruent/STIM_013.jpg
269.649	1.119	1	incongruent	Block1	incongruent/STIM_014.jpg
274.258	1.094	1	incongruent	Block1	incongruent/STIM_014.jpg
277.475	0.987	1	incongruent	Block1	incongruent/STIM_014.jpg
280.568	0.56	1	incongruent	Block1	incongruent/STIM_014.jpg
284.645	1.096	1	incongruent	Block1	incongruent/STIM_014.jpg
289.293	1.223	1	incongruent	Block1	incongruent/STIM_015.jpg
292.706	0.624	1	incongruent	Block1	incongruent/STIM_015.jpg
296.431	1.012	0	incongruent	Block1	incongruent/STIM_015.jpg
299.64	1.13	1	incongruent	Block1	incongruent/STIM_015.jpg
304.132	1.088	1	incongruent	Block1	incongruent/STIM_015.jpg
308.487	1.09	1	incongruent	Block1	incongruent/STIM_016.jpg
312.063	1.146	0	incongruent	Block1	incongruent/STIM_016.jpg
315.555	1.078	1	incongruent	Block1	incongruent/STIM_016.jpg
319.79	0.897	1	incongruent	Block1	incongruent/STIM_016.jpg
322.838	0.636	1	incongruent	Block1	incongruent/STIM_016.jpg
325.662	0.719	1	incongruent	Block1	incongruent/STIM_017.jpg
328.656	1.263	1	incongruent	Block1	incongruent/STIM_017.jpg
333.901	1.011	1	incongruent	Block1	incongruent/STIM_017.jpg
337.0	0.643	1	incongruent	Block1	incongruent/STIM_017.jpg
340.442	0.568	1	incongruent	Block1	incongruent/STIM_017.jpg
344.095	0.845	1	incongruent	Block1	incongruent/STIM_018.jpg
347.335	1.17	1	incongruent	Block1	incongruent/STIM_018.jpg
352.132	1.031	1	incongruent	Block1	incongruent/STIM_018.jpg
356.804	0.929	1	incongruent	Block1	incongruent/STIM_018.jpg
360.322	0.808	1	incongruent	Block1	incongruent/STIM_018.jpg
363.438	1.063	1	incongruent	Block1	incongruent/STIM_019.jpg
367.307	0.683	1	incongruent	Block1	incongruent/STIM_019.jpg
371.257	0.8	1	incongruent	Block1	incongruent/STIM_019.jpg
374.752	0.899	1	incongruent	Block1	incongruent/STIM_019.jpg
378.314	0.568	1	incongruent	Block1	incongruent/STIM_019.jpg
381.411	0.843	0	incongruent	Block1	incongruent/STIM_020.jpg
385.184	0.918	0	incongruent	Block1	incongruent/STIM_020.jpg
389.158	0.65	1	incongruent	Block1	incongruent/STIM_020.jpg
392.969	1.1	1	incongruent	Block1	incongruent/STIM_020.jpg
397.584	0.524	1	incongruent	Block1	incongruent/STIM_020.jpg
401.424	1.302	1	incongruent	Block1	incongruent/STIM_021.jpg
405.363	1.237	1	incongruent	Block1	incongruent/STIM_021.jpg
410.154	0.927	1	incongruent	Block1	incongruent/STIM_021.jpg
414.382	1.126	1	incongruent	Block1	incongruent/STIM_021.jpg
418.771	0.889	1	incongruent	Block1	incongruent/STIM_021.jpg
422.189	1.098	1	incongruent	Block1	incongruent/STIM_022.jpg
425.901	0.888	1	incongruent	Block1	incongruent/STIM_022.jpg
429.33	1.231	1	incongruent	Block1	incongruent/STIM_022.jpg
434.379	0.866	1	incongruent	Block1	incongruent/STIM_022.jpg
437.489	0.955	1	incongruent	Block1	incongruent/STIM_022.jpg
442.164	1.342	1	incongruent	Block1	incongruent/STIM_023.jpg
445.78	0.958	0	incongruent	Block1	incongruent/STIM_023.jpg
448.894	0.596	1	incongruent	Block1	incongruent/STIM_023.jpg
452.321	0.842	1	incongruent	Block1	incongruent/STIM_023.jpg
456.053	0.79	1	incongruent	Block1	incongruent/STIM_023.jpg
460.606	1.308	0	incongruent	Block1	incongruent/STIM_024.jpg
465.15	0.872	0	incongruent	Block1	incongruent/STIM_024.jpg
468.716	0.967	1	incongruent	Block1	incongruent/STIM_024.jpg
472.776	0.574	1	incongruent	Block1	incongruent/STIM_024.jpg
475.933	0.929	1	incongruent	Block1	incongruent/STIM_024.jpg
480.618	0.673	1	incongruent	Block1	incongruent/STIM_025.jpg
484.516	1.283	1	incongruent	Block1	incongruent/STIM_025.jpg
488.037	0.612	1	incongruent	Block1	incongruent/STIM_025.jpg
490.772	1.16	1	incongruent	Block1	incongruent/STIM_025.jpg
494.845	0.724	1	incongruent	Block1	incongruent/STIM_025.jpg
499.069	1.351	1	incongruent	Block1	incongruent/STIM_026.jpg
503.02	0.893	1	incongruent	Block1	incongruent/STIM_026.jpg
507.205	0.906	1	incongruent	Block1	incongruent/STIM_026.jpg
510.329	0.941	1	incongruent	Block1	incongruent/STIM_026.jpg
514.398	0.559	1	incongruent	Block1	incongruent/STIM_026.jpg
517.491	0.823	1	incongruent	Block1	incongruent/STIM_027.jpg
520.376	1.102	0	incongruent	Block1	incongruent/STIM_027.jpg
524.846	0.664	1	incongruent	Block1	incongruent/STIM_027.jpg
527.986	0.776	1	incongruent	Block1	incongruent/STIM_027.jpg
531.35	0.624	1	incongruent	Block1	incongruent/STIM_027.jpg
535.346	1.084	1	incongruent	Block1	incongruent/STIM_028.jpg
539.883	0.731	1	incongruent	Block1	incongruent/STIM_028.jpg
542.772	1.216	0	incongruent	Block1	incongruent/STIM_028.jpg
546.875	0.91	1	incongruent	Block1	incongruent/STIM_028.jpg
549.997	0.766	1	incongruent	Block1	incongruent/STIM_028.jpg
554.043	1.178	1	incongruent	Block1	incongruent/STIM_029.jpg
557.227	0.771	1	incongruent	Block1	incongruent/STIM_029.jpg
560.108	0.744	1	incongruent	Block1	incongruent/STIM_029.jpg
563.781	0.974	1	incongruent	Block1	incongruent/STIM_029.jpg
567.149	0.905	1	incongruent	Block1	incongruent/STIM_029.jpg
570.242	0.808	1	congruent	Block1	congruent/STIM_000.jpg
573.33	0.8	1	congruent	Block1	congruent/STIM_000.jpg
576.482	0.676	0	congruent	Block1	congruent/STIM_000.jpg
580.604	0.656	1	congruent	Block1	congruent/STIM_000.jpg
583.914	0.814	1	congruent	Block1	congruent/STIM_000.jpg
588.692	0.796	1	congruent	Block1	congruent/STIM_001.jpg
593.144	0.69	1	congruent	Block1	congruent/STIM_001.jpg
596.137	0.72	1	congruent	Block1	congruent/STIM_001.jpg
599.59	0.493	1	congruent	Block1	congruent/STIM_001.jpg
603.816	0.522	1	congruent	Block1	congruent/STIM_001.jpg
607.641	0.804	1	congruent	Block1	congruent/STIM_002.jpg
611.356	0.598	1	congruent	Block1	congruent/STIM_002.jpg
614.087	0.727	0	congruent	Block1	congruent/STIM_002.jpg
618.657	0.674	1	congruent	Block1	congruent/STIM_002.jpg
622.949	0.582	1	congruent	Block1	congruent/STIM_002.jpg
627.449	0.681	1	congruent	Block1	congruent/STIM_003.jpg
630.742	0.587	1	congruent	Block1	congruent/STIM_003.jpg
635.263	0.614	1	congruent	Block1	congruent/STIM_003.jpg
639.131	0.789	1	congruent	Block1	congruent/STIM_003.jpg
642.662	0.541	1	congruent	Block1	congruent/STIM_003.jpg
646.632	0.551	1	congruent	Block1	congruent/STIM_004.jpg
649.502	0.565	1	congruent	Block1	congruent/STIM_004.jpg
652.942	0.747	1	congruent	Block1	congruent/STIM_004.jpg
657.589	0.782	1	congruent	Block1	congruent/STIM_004.jpg
661.222	0.736	1	congruent	Block1	congruent/STIM_004.jpg
664.929	0.721	1	congruent	Block1	congruent/STIM_005.jpg
669.326	0.803	1	congruent	Block1	congruent/STIM_005.jpg
673.633	0.636	0	congruent	Block1	congruent/STIM_005.jpg
676.891	0.535	1	congruent	Block1	congruent/STIM_005.jpg
681.169	0.614	1	congruent	Block1	congruent/STIM_005.jpg
684.064	0.727	1	congruent	Block1	congruent/STIM_006.jpg
688.777	0.825	1	congruent	Block1	congruent/STIM_006.jpg
693.257	0.678	1	congruent	Block1	congruent/STIM_006.jpg
697.713	0.659	1	congruent	Block1	congruent/STIM_006.jpg
701.096	0.73	1	congruent	Block1	congruent/STIM_006.jpg
704.609	0.705	1	congruent	Block1	congruent/STIM_007.jpg
708.514	0.777	1	congruent	Block1	congruent/STIM_007.jpg
712.932	0.829	1	congruent	Block1	congruent/STIM_007.jpg
717.625	0.823	1	congruent	Block1	congruent/STIM_007.jpg
720.909	0.736	1	congruent	Block1	congruent/STIM_007.jpg
724.314	0.72	1	congruent	Block1	congruent/STIM_008.jpg
728.704	0.723	1	congruent	Block1	congruent/STIM_008.jpg
733.103	0.536	1	congruent	Block1	congruent/STIM_008.jpg
735.993	0.701	1	congruent	Block1	congruent/STIM_008.jpg
739.39	0.728	1	congruent	Block1	congruent/STIM_008.jpg
742.141	0.612	1	congruent	Block1	congruent/STIM_009.jpg
745.973	0.656	1	congruent	Block1	congruent/STIM_009.jpg
748.694	0.833	1	congruent	Block1	congruent/STIM_009.jpg
753.18	0.563	1	congruent	Block1	congruent/STIM_009.jpg
757.36	0.562	1	congruent	Block1	congruent/STIM_009.jpg
760.305	0.716	1	congruent	Block1	congruent/STIM_010.jpg
763.877	0.548	1	congruent	Block1	congruent/STIM_010.jpg
766.685	0.471	1	congruent	Block1	congruent/STIM_010.jpg
769.979	0.647	1	congruent	Block1	congruent/STIM_010.jpg
774.466	0.555	0	congruent	Block1	congruent/STIM_010.jpg
777.178	0.825	1	congruent	Block1	congruent/STIM_011.jpg
781.072	0.584	1	congruent	Block1	congruent/STIM_011.jpg
783.969	0.551	1	congruent	Block1	congruent/STIM_011.jpg
788.456	0.597	0	congruent	Block1	congruent/STIM_011.jpg
792.557	0.828	1	congruent	Block1	congruent/STIM_011.jpg
796.598	0.468	0	congruent	Block1	congruent/STIM_012.jpg
800.38	0.79	1	congruent	Block1	congruent/STIM_012.jpg
804.537	0.836	1	congruent	Block1	congruent/STIM_012.jpg
808.08	0.644	1	congruent	Block1	congruent/STIM_012.jpg
811.238	0.63	1	congruent	Block1	congruent/STIM_012.jpg
815.817	0.719	1	congruent	Block1	congruent/STIM_013.jpg
819.992	0.623	1	congruent	Block1	congruent/STIM_013.jpg
822.776	0.788	1	congruent	Block1	congruent/STIM_013.jpg
826.121	0.767	1	congruent	Block1	congruent/STIM_013.jpg
830.438	0.789	1	congruent	Block1	congruent/STIM_013.jpg
833.62	0.546	1	congruent	Block1	congruent/STIM_014.jpg
837.439	0.79	1	congruent	Block1	congruent/STIM_014.jpg
841.276	0.526	1	congruent	Block1	congruent/STIM_014.jpg
844.857	0.779	1	congruent	Block1	congruent/STIM_014.jpg
849.197	0.827	1	congruent	Block1	congruent/STIM_014.jpg
852.481	0.642	1	congruent	Block1	congruent/STIM_015.jpg
855.843	0.737	1	congruent	Block1	congruent/STIM_015.jpg
859.571	0.61	0	congruent	Block1	congruent/STIM_015.jpg
862.375	0.828	1	congruent	Block1	congruent/STIM_015.jpg
867.162	0.732	1	congruent	Block1	congruent/STIM_015.jpg
870.153	0.616	1	congruent	Block1	congruent/STIM_016.jpg
874.757	0.523	0	congruent	Block1	congruent/STIM_016.jpg
878.376	0.752	1	congruent	Block1	congruent/STIM_016.jpg
882.663	0.734	1	congruent	Block1	congruent/STIM_016.jpg
886.782	0.586	1	congruent	Block1	congruent/STIM_016.jpg
891.185	0.553	1	congruent	Block1	congruent/STIM_017.jpg
894.634	0.778	1	congruent	Block1	congruent/STIM_017.jpg
899.141	0.76	1	congruent	Block1	congruent/STIM_017.jpg
903.066	0.586	1	congruent	Block1	congruent/STIM_017.jpg
905.739	0.579	1	congruent	Block1	congruent/STIM_017.jpg
908.919	0.778	1	congruent	Block1	congruent/STIM_018.jpg
912.456	0.668	0	congruent	Block1	congruent/STIM_018.jpg
916.936	0.631	1	congruent	Block1	congruent/STIM_018.jpg
920.387	0.698	1	congruent	Block1	congruent/STIM_018.jpg
923.42	0.834	1	congruent	Block1	congruent/STIM_018.jpg
926.274	0.757	1	congruent	Block1	congruent/STIM_019.jpg
929.239	0.583	1	congruent	Block1	congruent/STIM_019.jpg
933.283	0.542	1	congruent	Block1	congruent/STIM_019.jpg
936.212	0.794	1	congruent	Block1	congruent/STIM_019.jpg
939.81	0.828	0	congruent	Block1	congruent/STIM_019.jpg
943.813	0.787	1	congruent	Block1	congruent/STIM_020.jpg
948.24	0.782	1	congruent	Block1	congruent/STIM_020.jpg
951.589	0.773	1	congruent	Block1	congruent/STIM_020.jpg
955.703	0.65	1	congruent	Block1	congruent/STIM_020.jpg
960.063	0.658	1	congruent	Block1	congruent/STIM_020.jpg
963.216	0.483	1	congruent	Block1	congruent/STIM_021.jpg
967.493	0.721	1	congruent	Block1	congruent/STIM_021.jpg
971.752	0.615	1	congruent	Block1	congruent/STIM_021.jpg
975.895	0.478	1	congruent	Block1	congruent/STIM_021.jpg
979.042	0.812	1	congruent	Block1	congruent/STIM_021.jpg
983.812	0.511	1	congruent	Block1	congruent/STIM_022.jpg
986.37	0.633	1	congruent	Block1	congruent/STIM_022.jpg
990.275	0.661	1	congruent	Block1	congruent/STIM_022.jpg
993.377	0.771	1	congruent	Block1	congruent/STIM_022.jpg
996.244	0.559	1	congruent	Block1	congruent/STIM_022.jpg
1000.201	0.489	1	congruent	Block1	congruent/STIM_023.jpg
1004.027	0.551	0	congruent	Block1	congruent/STIM_023.jpg
1008.517	0.774	1	congruent	Block1	congruent/STIM_023.jpg
1012.854	0.78	0	congruent	Block1	congruent/STIM_023.jpg
1017.444	0.485	1	congruent	Block1	congruent/STIM_023.jpg
1020.194	0.691	1	congruent	Block1	congruent/STIM_024.jpg
1023.04	0.475	1	congruent	Block1	congruent/STIM_024.jpg
1027.402	0.612	1	congruent	Block1	congruent/STIM_024.jpg
1030.752	0.735	1	congruent	Block1	congruent/STIM_024.jpg
1034.268	0.552	1	congruent	Block1	congruent/STIM_024.jpg
1037.045	0.751	1	congruent	Block1	congruent/STIM_025.jpg
1040.717	0.812	0	congruent	Block1	congruent/STIM_025.jpg
1045.055	0.642	1	congruent	Block1	congruent/STIM_025.jpg
1049.297	0.576	1	congruent	Block1	congruent/STIM_025.jpg
1053.569	0.831	1	congruent	Block1	congruent/STIM_025.jpg
1057.944	0.707	1	congruent	Block1	congruent/STIM_026.jpg
1061.177	0.495	1	congruent	Block1	congruent/STIM_026.jpg
1064.648	0.494	1	congruent	Block1	congruent/STIM_026.jpg
1067.822	0.562	1	congruent	Block1	congruent/STIM_026.jpg
1071.033	0.531	0	congruent	Block1	congruent/STIM_026.jpg
1073.601	0.558	1	congruent	Block1	congruent/STIM_027.jpg
1077.89	0.692	1	congruent	Block1	congruent/STIM_027.jpg
1082.143	0.698	1	congruent	Block1	congruent/STIM_027.jpg
1086.126	0.708	1	congruent	Block1	congruent/STIM_027.jpg
1090.336	0.528	1	congruent	Block1	congruent/STIM_027.jpg
1094.364	0.804	1	congruent	Block1	congruent/STIM_028.jpg
1098.764	0.75	1	congruent	Block1	congruent/STIM_028.jpg
1103.395	0.783	1	congruent	Block1	congruent/STIM_028.jpg
1106.652	0.523	1	congruent	Block1	congruent/STIM_028.jpg
1109.373	0.552	1	congruent	Block1	congruent/STIM_028.jpg
1113.576	0.58	1	congruent	Block1	congruent/STIM_029.jpg
1117.093	0.62	1	congruent	Block1	congruent/STIM_029.jpg
1120.814	0.649	1	congruent	Block1	congruent/STIM_029.jpg
1125.133	0.747	1	congruent	Block1	congruent/STIM_029.jpg
1129.658	0.563	1	congruent	Block1	congruent/STIM_029.jpg
1133.21	0.704	1	incongruent	Block2	incongruent/STIM_000.jpg
1137.538	0.532	1	incongruent	Block2	incongruent/STIM_000.jpg
1141.787	1.01	1	incongruent	Block2	incongruent/STIM_000.jpg
1146.15	0.956	1	incongruent	Block2	incongruent/STIM_000.jpg
1151.077	0.626	1	incongruent	Block2	incongruent/STIM_000.jpg
1155.642	0.577	1	incongruent	Block2	incongruent/STIM_001.jpg
1160.088	0.685	1	incongruent	Block2	incongruent/STIM_001.jpg
1164.412	0.934	1	incongruent	Block2	incongruent/STIM_001.jpg
1167.766	0.721	1	incongruent	Block2	incongruent/STIM_001.jpg
1171.702	0.76	1	incongruent	Block2	incongruent/STIM_001.jpg
1175.434	1.004	1	incongruent	Block2	incongruent/STIM_002.jpg
1180.089	0.725	1	incongruent	Block2	incongruent/STIM_002.jpg
1184.208	0.964	1	incongruent	Block2	incongruent/STIM_002.jpg
1188.827	0.684	1	incongruent	Block2	incongruent/STIM_002.jpg
1192.691	0.77	1	incongruent	Block2	incongruent/STIM_002.jpg
1195.878	0.903	1	incongruent	Block2	incongruent/STIM_003.jpg
1198.908	0.937	1	incongruent	Block2	incongruent/STIM_003.jpg
1203.284	1.014	1	incongruent	Block2	incongruent/STIM_003.jpg
1206.454	0.76	1	incongruent	Block2	incongruent/STIM_003.jpg
1210.139	0.898	1	incongruent	Block2	incongruent/STIM_003.jpg
1214.195	0.871	1	incongruent	Block2	incongruent/STIM_004.jpg
1218.276	0.591	1	incongruent	Block2	incongruent/STIM_004.jpg
1222.737	0.884	1	incongruent	Block2	incongruent/STIM_004.jpg
1226.449	0.579	1	incongruent	Block2	incongruent/STIM_004.jpg
1229.623	0.602	1	incongruent	Block2	incongruent/STIM_004.jpg
1233.641	1.14	1	incongruent	Block2	incongruent/STIM_005.jpg
1238.024	0.589	1	incongruent	Block2	incongruent/STIM_005.jpg
1241.823	0.736	1	incongruent	Block2	incongruent/STIM_005.jpg
1245.592	0.628	1	incongruent	Block2	incongruent/STIM_005.jpg
1249.03	0.853	1	incongruent	Block2	incongruent/STIM_005.jpg
1253.723	0.859	1	incongruent	Block2	incongruent/STIM_006.jpg
1256.585	1.034	1	incongruent	Block2	incongruent/STIM_006.jpg
1260.044	1.021	1	incongruent	Block2	incongruent/STIM_006.jpg
1263.272	0.526	0	incongruent	Block2	incongruent/STIM_006.jpg
1267.368	0.473	1	incongruent	Block2	incongruent/STIM_006.jpg
1271.027	0.644	1	incongruent	Block2	incongruent/STIM_007.jpg
1274.965	0.95	1	incongruent	Block2	incongruent/STIM_007.jpg
1277.964	1.041	0	incongruent	Block2	incongruent/STIM_007.jpg
1282.704	0.46	1	incongruent	Block2	incongruent/STIM_007.jpg
1286.524	0.956	1	incongruent	Block2	incongruent/STIM_007.jpg
1289.812	0.81	1	incongruent	Block2	incongruent/STIM_008.jpg
1293.865	0.642	1	incongruent	Block2	incongruent/STIM_008.jpg
1297.918	0.946	1	incongruent	Block2	incongruent/STIM_008.jpg
1301.937	0.506	1	incongruent	Block2	incongruent/STIM_008.jpg
1306.055	0.475	0	incongruent	Block2	incongruent/STIM_008.jpg
1310.426	0.803	1	incongruent	Block2	incongruent/STIM_009.jpg
1313.538	0.812	1	incongruent	Block2	incongruent/STIM_009.jpg
1317.265	0.689	1	incongruent	Block2	incongruent/STIM_009.jpg
1320.9	0.918	1	incongruent	Block2	incongruent/STIM_009.jpg
1324.964	0.788	1	incongruent	Block2	incongruent/STIM_009.jpg
1329.549	1.042	1	incongruent	Block2	incongruent/STIM_010.jpg
1333.231	0.612	1	incongruent	Block2	incongruent/STIM_010.jpg
1337.695	0.912	1	incongruent	Block2	incongruent/STIM_010.jpg
1341.543	0.596	1	incongruent	Block2	incongruent/STIM_010.jpg
1344.793	0.782	1	incongruent	Block2	incongruent/STIM_010.jpg
1347.971	0.631	1	incongruent	Block2	incongruent/STIM_011.jpg
1351.847	0.955	1	incongruent	Block2	incongruent/STIM_011.jpg
1356.748	0.72	1	incongruent	Block2	incongruent/STIM_011.jpg
1360.655	0.538	1	incongruent	Block2	incongruent/STIM_011.jpg
1364.913	0.69	1	incongruent	Block2	incongruent/STIM_011.jpg
1367.821	1.154	1	incongruent	Block2	incongruent/STIM_012.jpg
1371.799	0.819	1	incongruent	Block2	incongruent/STIM_012.jpg
1376.532	0.79	1	incongruent	Block2	incongruent/STIM_012.jpg
1381.132	0.544	0	incongruent	Block2	incongruent/STIM_012.jpg
1385.318	0.769	1	incongruent	Block2	incongruent/STIM_012.jpg
1388.244	0.923	1	incongruent	Block2	incongruent/STIM_013.jpg
1391.293	0.678	1	incongruent	Block2	incongruent/STIM_013.jpg
1395.596	0.538	1	incongruent	Block2	incongruent/STIM_013.jpg
1399.19	0.842	1	incongruent	Block2	incongruent/STIM_013.jpg
1403.705	0.894	0	incongruent	Block2	incongruent/STIM_013.jpg
1406.843	0.941	1	incongruent	Block2	incongruent/STIM_014.jpg
1409.979	1.101	1	incongruent	Block2	incongruent/STIM_014.jpg
1413.832	0.922	1	incongruent	Block2	incongruent/STIM_014.jpg
1418.317	0.585	1	incongruent	Block2	incongruent/STIM_014.jpg
1422.379	0.74	1	incongruent	Block2	incongruent/STIM_014.jpg
1425.442	0.915	1	incongruent	Block2	incongruent/STIM_015.jpg
1429.794	1.05	1	incongruent	Block2	incongruent/STIM_015.jpg
1434.742	0.581	1	incongruent	Block2	incongruent/STIM_015.jpg
1437.544	0.678	1	incongruent	Block2	incongruent/STIM_015.jpg
1441.6	0.705	1	incongruent	Block2	incongruent/STIM_015.jpg
1444.395	0.633	0	incongruent	Block2	incongruent/STIM_016.jpg
1447.965	0.812	0	incongruent	Block2	incongruent/STIM_016.jpg
1452.234	0.784	1	incongruent	Block2	incongruent/STIM_016.jpg
1456.161	0.676	1	incongruent	Block2	incongruent/STIM_016.jpg
1460.35	0.47	1	incongruent	Block2	incongruent/STIM_016.jpg
1464.596	0.61	1	incongruent	Block2	incongruent/STIM_017.jpg
1467.563	0.978	1	incongruent	Block2	incongruent/STIM_017.jpg
1471.004	0.558	1	incongruent	Block2	incongruent/STIM_017.jpg
1474.052	0.803	1	incongruent	Block2	incongruent/STIM_017.jpg
1477.414	0.874	1	incongruent	Block2	incongruent/STIM_017.jpg
1480.889	0.84	1	incongruent	Block2	incongruent/STIM_018.jpg
1484.861	1.024	1	incongruent	Block2	incongruent/STIM_018.jpg
1489.444	0.655	1	incongruent	Block2	incongruent/STIM_018.jpg
1492.7	0.852	1	incongruent	Block2	incongruent/STIM_018.jpg
1497.09	0.883	1	incongruent	Block2	incongruent/STIM_018.jpg
1501.576	0.97	1	incongruent	Block2	incongruent/STIM_019.jpg
1504.709	1.065	1	incongruent	Block2	incongruent/STIM_019.jpg
1508.28	0.572	0	incongruent	Block2	incongruent/STIM_019.jpg
1512.835	0.68	1	incongruent	Block2	incongruent/STIM_019.jpg
1515.904	0.763	1	incongruent	Block2	incongruent/STIM_019.jpg
1520.463	0.702	0	incongruent	Block2	incongruent/STIM_020.jpg
1524.181	0.835	1	incongruent	Block2	incongruent/STIM_020.jpg
1528.011	0.534	1	incongruent	Block2	incongruent/STIM_020.jpg
1531.079	0.636	1	incongruent	Block2	incongruent/STIM_020.jpg
1534.691	0.892	1	incongruent	Block2	incongruent/STIM_020.jpg
1538.768	0.884	1	incongruent	Block2	incongruent/STIM_021.jpg
1541.687	0.719	1	incongruent	Block2	incongruent/STIM_021.jpg
1544.778	0.791	1	incongruent	Block2	incongruent/STIM_021.jpg
1547.58	0.547	1	incongruent	Block2	incongruent/STIM_021.jpg
1552.106	0.93	1	incongruent	Block2	incongruent/STIM_021.jpg
1555.247	1.085	1	incongruent	Block2	incongruent/STIM_022.jpg
1560.04	0.935	1	incongruent	Block2	incongruent/STIM_022.jpg
1563.936	0.935	1	incongruent	Block2	incongruent/STIM_022.jpg
1567.038	0.582	1	incongruent	Block2	incongruent/STIM_022.jpg
1571.183	0.512	1	incongruent	Block2	incongruent/STIM_022.jpg
1574.094	0.738	1	incongruent	Block2	incongruent/STIM_023.jpg
1578.139	0.944	1	incongruent	Block2	incongruent/STIM_023.jpg
1581.779	0.654	1	incongruent	Block2	incongruent/STIM_023.jpg
1586.274	0.79	1	incongruent	Block2	incongruent/STIM_023.jpg
1589.118	0.652	1	incongruent	Block2	incongruent/STIM_023.jpg
1593.188	1.019	1	incongruent	Block2	incongruent/STIM_024.jpg
1597.808	0.682	1	incongruent	Block2	incongruent/STIM_024.jpg
1600.751	0.936	1	incongruent	Block2	incongruent/STIM_024.jpg
1604.278	0.556	1	incongruent	Block2	incongruent/STIM_024.jpg
1608.131	0.669	1	incongruent	Block2	incongruent/STIM_024.jpg
1611.763	1.115	1	incongruent	Block2	incongruent/STIM_025.jpg
1616.278	1.083	1	incongruent	Block2	incongruent/STIM_025.jpg
1619.717	0.972	1	incongruent	Block2	incongruent/STIM_025.jpg
1622.857	0.709	1	incongruent	Block2	incongruent/STIM_025.jpg
1627.129	0.515	1	incongruent	Block2	incongruent/STIM_025.jpg
1631.277	0.666	1	incongruent	Block2	incongruent/STIM_026.jpg
1635.072	0.901	1	incongruent	Block2	incongruent/STIM_026.jpg
1638.41	0.999	1	incongruent	Block2	incongruent/STIM_026.jpg
1643.069	0.555	1	incongruent	Block2	incongruent/STIM_026.jpg
1647.011	0.545	1	incongruent	Block2	incongruent/STIM_026.jpg
1651.345	1.012	1	incongruent	Block2	incongruent/STIM_027.jpg
1654.789	0.891	1	incongruent	Block2	incongruent/STIM_027.jpg
1658.864	0.635	0	incongruent	Block2	incongruent/STIM_027.jpg
1661.845	0.754	1	incongruent	Block2	incongruent/STIM_027.jpg
1665.52	0.806	1	incongruent	Block2	incongruent/STIM_027.jpg
1669.643	0.767	1	incongruent	Block2	incongruent/STIM_028.jpg
1673.875	0.725	1	incongruent	Block2	incongruent/STIM_028.jpg
1678.505	0.866	1	incongruent	Block2	incongruent/STIM_028.jpg
1682.618	0.592	1	incongruent	Block2	incongruent/STIM_028.jpg
1686.545	0.608	1	incongruent	Block2	incongruent/STIM_028.jpg
1690.178	1.011	1	incongruent	Block2	incongruent/STIM_029.jpg
1694.544	1.042	1	incongruent	Block2	incongruent/STIM_029.jpg
1698.044	0.859	1	incongruent	Block2	incongruent/STIM_029.jpg
1701.275	0.939	1	incongruent	Block2	incongruent/STIM_029.jpg
1705.014	0.899	1	incongruent	Block2	incongruent/STIM_029.jpg
1708.626	0.818	1	congruent	Block2	congruent/STIM_000.jpg
1712.998	0.708	1	congruent	Block2	congruent/STIM_000.jpg
1716.113	0.814	1	congruent	Block2	congruent/STIM_000.jpg
1719.934	0.67	1	congruent	Block2	congruent/STIM_000.jpg
1722.745	0.624	1	congruent	Block2	congruent/STIM_000.jpg
1726.361	0.703	1	congruent	Block2	congruent/STIM_001.jpg
1729.495	0.681	1	congruent	Block2	congruent/STIM_001.jpg
1733.74	0.612	0	congruent	Block2	congruent/STIM_001.jpg
1736.925	0.572	1	congruent	Block2	congruent/STIM_001.jpg
1740.313	0.624	1	congruent	Block2	congruent/STIM_001.jpg
1743.359	0.678	1	congruent	Block2	congruent/STIM_002.jpg
1747.019	0.756	1	congruent	Block2	congruent/STIM_002.jpg
1751.171	0.547	1	congruent	Block2	congruent/STIM_002.jpg
1754.547	0.561	1	congruent	Block2	congruent/STIM_002.jpg
1757.864	0.794	1	congruent	Block2	congruent/STIM_002.jpg
1762.633	0.836	1	congruent	Block2	congruent/STIM_003.jpg
1766.434	0.814	1	congruent	Block2	congruent/STIM_003.jpg
1771.149	0.72	1	congruent	Block2	congruent/STIM_003.jpg
1774.632	0.664	1	congruent	Block2	congruent/STIM_003.jpg
1778.961	0.788	1	congruent	Block2	congruent/STIM_003.jpg
1782.282	0.802	1	congruent	Block2	congruent/STIM_004.jpg
1786.537	0.827	1	congruent	Block2	congruent/STIM_004.jpg
1790.504	0.716	1	congruent	Block2	congruent/STIM_004.jpg
1795.1	0.619	1	congruent	Block2	congruent/STIM_004.jpg
1799.348	0.679	1	congruent	Block2	congruent/STIM_004.jpg
1802.153	0.692	1	congruent	Block2	congruent/STIM_005.jpg
1806.034	0.667	1	congruent	Block2	congruent/STIM_005.jpg
1809.173	0.834	1	congruent	Block2	congruent/STIM_005.jpg
1812.613	0.825	1	congruent	Block2	congruent/STIM_005.jpg
1815.668	0.756	0	congruent	Block2	congruent/STIM_005.jpg
1820.377	0.787	1	congruent	Block2	congruent/STIM_006.jpg
1824.112	0.756	1	congruent	Block2	congruent/STIM_006.jpg
1827.814	0.685	1	congruent	Block2	congruent/STIM_006.jpg
1830.947	0.727	1	congruent	Block2	congruent/STIM_006.jpg
1835.665	0.744	1	congruent	Block2	congruent/STIM_006.jpg
1839.079	0.678	0	congruent	Block2	congruent/STIM_007.jpg
1842.685	0.61	1	congruent	Block2	congruent/STIM_007.jpg
1846.538	0.803	1	congruent	Block2	congruent/STIM_007.jpg
1849.974	0.815	1	congruent	Block2	congruent/STIM_007.jpg
1854.452	0.837	1	congruent	Block2	congruent/STIM_007.jpg
1858.951	0.71	1	congruent	Block2	congruent/STIM_008.jpg
1862.496	0.614	1	congruent	Block2	congruent/STIM_008.jpg
1865.414	0.722	1	congruent	Block2	congruent/STIM_008.jpg
1868.382	0.611	1	congruent	Block2	congruent/STIM_008.jpg
1872.6	0.739	1	congruent	Block2	congruent/STIM_008.jpg
1875.563	0.5	0	congruent	Block2	congruent/STIM_009.jpg
1879.597	0.617	1	congruent	Block2	congruent/STIM_009.jpg
1882.755	0.49	1	congruent	Block2	congruent/STIM_009.jpg
1885.965	0.773	1	congruent	Block2	congruent/STIM_009.jpg
1890.091	0.466	0	congruent	Block2	congruent/STIM_009.jpg
1893.89	0.581	1	congruent	Block2	congruent/STIM_010.jpg
1897.642	0.633	1	congruent	Block2	congruent/STIM_010.jpg
1901.174	0.826	1	congruent	Block2	congruent/STIM_010.jpg
1905.842	0.831	1	congruent	Block2	congruent/STIM_010.jpg
1910.363	0.662	1	congruent	Block2	congruent/STIM_010.jpg
1914.015	0.532	1	congruent	Block2	congruent/STIM_011.jpg
1917.182	0.536	1	congruent	Block2	congruent/STIM_011.jpg
1920.88	0.486	1	congruent	Block2	congruent/STIM_011.jpg
1924.825	0.727	1	congruent	Block2	congruent/STIM_011.jpg
1927.756	0.708	1	congruent	Block2	congruent/STIM_011.jpg
1931.531	0.582	1	congruent	Block2	congruent/STIM_012.jpg
1934.73	0.807	1	congruent	Block2	congruent/STIM_012.jpg
1939.082	0.512	1	congruent	Block2	congruent/STIM_012.jpg
1941.724	0.754	1	congruent	Block2	congruent/STIM_012.jpg
1945.833	0.551	1	congruent	Block2	congruent/STIM_012.jpg
1948.408	0.483	1	congruent	Block2	congruent/STIM_013.jpg
1951.822	0.553	1	congruent	Block2	congruent/STIM_013.jpg
1954.571	0.812	1	congruent	Block2	congruent/STIM_013.jpg
1957.685	0.781	0	congruent	Block2	congruent/STIM_013.jpg
1960.807	0.825	1	congruent	Block2	congruent/STIM_013.jpg
1965.29	0.535	1	congruent	Block2	congruent/STIM_014.jpg
1968.941	0.528	1	congruent	Block2	congruent/STIM_014.jpg
1971.754	0.626	1	congruent	Block2	congruent/STIM_014.jpg
1976.334	0.675	0	congruent	Block2	congruent/STIM_014.jpg
1980.597	0.62	1	congruent	Block2	congruent/STIM_014.jpg
1984.497	0.629	0	congruent	Block2	congruent/STIM_015.jpg
1987.776	0.6	1	congruent	Block2	congruent/STIM_015.jpg
1990.462	0.818	1	congruent	Block2	congruent/STIM_015.jpg
1994.224	0.668	1	congruent	Block2	congruent/STIM_015.jpg
1997.641	0.566	1	congruent	Block2	congruent/STIM_015.jpg
2001.652	0.541	1	congruent	Block2	congruent/STIM_016.jpg
2004.676	0.528	1	congruent	Block2	congruent/STIM_016.jpg
2007.46	0.488	1	congruent	Block2	congruent/STIM_016.jpg
2011.248	0.716	1	congruent	Block2	congruent/STIM_016.jpg
2014.169	0.608	0	congruent	Block2	congruent/STIM_016.jpg
2018.717	0.474	0	congruent	Block2	congruent/STIM_017.jpg
2022.631	0.662	1	congruent	Block2	congruent/STIM_017.jpg
2026.169	0.506	1	congruent	Block2	congruent/STIM_017.jpg
2028.681	0.547	1	congruent	Block2	congruent/STIM_017.jpg
2032.212	0.78	1	congruent	Block2	congruent/STIM_017.jpg
2035.003	0.745	1	congruent	Block2	congruent/STIM_018.jpg
2038.738	0.532	1	congruent	Block2	congruent/STIM_018.jpg
2042.972	0.639	1	congruent	Block2	congruent/STIM_018.jpg
2047.577	0.718	1	congruent	Block2	congruent/STIM_018.jpg
2050.929	0.48	1	congruent	Block2	congruent/STIM_018.jpg
2054.92	0.513	1	congruent	Block2	congruent/STIM_019.jpg
2058.445	0.466	1	congruent	Block2	congruent/STIM_019.jpg
2062.592	0.542	1	congruent	Block2	congruent/STIM_019.jpg
2066.487	0.709	1	congruent	Block2	congruent/STIM_019.jpg
2069.821	0.823	1	congruent	Block2	congruent/STIM_019.jpg
2072.71	0.8	1	congruent	Block2	congruent/STIM_020.jpg
2076.521	0.504	1	congruent	Block2	congruent/STIM_020.jpg
2079.103	0.833	1	congruent	Block2	congruent/STIM_020.jpg
2082.714	0.733	1	congruent	Block2	congruent/STIM_020.jpg
2085.581	0.688	1	congruent	Block2	congruent/STIM_020.jpg
2088.948	0.776	1	congruent	Block2	congruent/STIM_021.jpg
2092.019	0.551	1	congruent	Block2	congruent/STIM_021.jpg
2096.335	0.466	1	congruent	Block2	congruent/STIM_021.jpg
2100.051	0.512	0	congruent	Block2	congruent/STIM_021.jpg
2104.01	0.495	0	congruent	Block2	congruent/STIM_021.jpg
2106.541	0.623	1	congruent	Block2	congruent/STIM_022.jpg
2110.95	0.598	1	congruent	Block2	congruent/STIM_022.jpg
2113.822	0.581	1	congruent	Block2	congruent/STIM_022.jpg
2117.179	0.785	1	congruent	Block2	congruent/STIM_022.jpg
2120.447	0.796	0	congruent	Block2	congruent/STIM_022.jpg
2123.843	0.739	1	congruent	Block2	congruent/STIM_023.jpg
2127.999	0.716	1	congruent	Block2	congruent/STIM_023.jpg
2131.187	0.793	1	congruent	Block2	congruent/STIM_023.jpg
2135.575	0.552	1	congruent	Block2	congruent/STIM_023.jpg
2138.576	0.769	1	congruent	Block2	congruent/STIM_023.jpg
2143.241	0.601	1	congruent	Block2	congruent/STIM_024.jpg
2147.129	0.572	1	congruent	Block2	congruent/STIM_024.jpg
2151.2	0.529	1	congruent	Block2	congruent/STIM_024.jpg
2153.879	0.534	1	congruent	Block2	congruent/STIM_024.jpg
2157.393	0.51	1	congruent	Block2	congruent/STIM_024.jpg
2159.954	0.756	1	congruent	Block2	congruent/STIM_025.jpg
2163.235	0.6	1	congruent	Block2	congruent/STIM_025.jpg
2167.644	0.592	1	congruent	Block2	congruent/STIM_025.jpg
2171.6	0.485	1	congruent	Block2	congruent/STIM_025.jpg
2175.857	0.83	1	congruent	Block2	congruent/STIM_025.jpg
2179.768	0.733	1	congruent	Block2	congruent/STIM_026.jpg
2183.177	0.644	1	congruent	Block2	congruent/STIM_026.jpg
2186.833	0.67	1	congruent	Block2	congruent/STIM_026.jpg
2190.487	0.501	1	congruent	Block2	congruent/STIM_026.jpg
2193.842	0.618	1	congruent	Block2	congruent/STIM_026.jpg
2198.186	0.551	1	congruent	Block2	congruent/STIM_027.jpg
2202.311	0.621	0	congruent	Block2	congruent/STIM_027.jpg
2206.928	0.634	1	congruent	Block2	congruent/STIM_027.jpg
2210.176	0.77	1	congruent	Block2	congruent/STIM_027.jpg
2214.09	0.754	1	congruent	Block2	congruent/STIM_027.jpg
2217.09	0.72	1	congruent	Block2	congruent/STIM_028.jpg
2220.596	0.563	1	congruent	Block2	congruent/STIM_028.jpg
2224.893	0.528	1	congruent	Block2	congruent/STIM_028.jpg
2228.434	0.802	1	congruent	Block2	congruent/STIM_028.jpg
2231.58	0.701	0	congruent	Block2	congruent/STIM_028.jpg
2235.554	0.742	1	congruent	Block2	congruent/STIM_029.jpg
2239.679	0.471	1	congruent	Block2	congruent/STIM_029.jpg
2242.379	0.618	1	congruent	Block2	congruent/STIM_029.jpg
2245.232	0.786	1	congruent	Block2	congruent/STIM_029.jpg
2248.074	0.507	1	congruent	Block2	congruent/STIM_029.jpg
2252.577	0.472	1	incongruent	Block3	incongruent/STIM_000.jpg
2257.039	0.663	1	incongruent	Block3	incongruent/STIM_000.jpg
2260.126	0.743	1	incongruent	Block3	incongruent/STIM_000.jpg
2262.981	0.593	1	incongruent	Block3	incongruent/STIM_000.jpg
2267.523	0.669	1	incongruent	Block3	incongruent/STIM_000.jpg
2270.705	0.488	1	incongruent	Block3	incongruent/STIM_001.jpg
2274.023	0.482	1	incongruent	Block3	incongruent/STIM_001.jpg
2278.226	0.6	1	incongruent	Block3	incongruent/STIM_001.jpg
2281.335	0.607	1	incongruent	Block3	incongruent/STIM_001.jpg
2284.562	0.53	1	incongruent	Block3	incongruent/STIM_001.jpg
2288.29	0.544	1	incongruent	Block3	incongruent/STIM_002.jpg
2290.854	0.888	1	incongruent	Block3	incongruent/STIM_002.jpg
2295.627	0.616	1	incongruent	Block3	incongruent/STIM_002.jpg
2299.228	0.525	0	incongruent	Block3	incongruent/STIM_002.jpg
2302.261	0.68	1	incongruent	Block3	incongruent/STIM_002.jpg
2305.211	0.715	1	incongruent	Block3	incongruent/STIM_003.jpg
2308.666	0.519	1	incongruent	Block3	incongruent/STIM_003.jpg
2312.777	0.637	1	incongruent	Block3	incongruent/STIM_003.jpg
2317.394	0.846	1	incongruent	Block3	incongruent/STIM_003.jpg
2322.057	0.748	1	incongruent	Block3	incongruent/STIM_003.jpg
2324.896	0.934	1	incongruent	Block3	incongruent/STIM_004.jpg
2329.478	0.613	1	incongruent	Block3	incongruent/STIM_004.jpg
2332.255	0.802	1	incongruent	Block3	incongruent/STIM_004.jpg
2336.076	0.619	1	incongruent	Block3	incongruent/STIM_004.jpg
2339.381	0.905	1	incongruent	Block3	incongruent/STIM_004.jpg
2343.32	0.469	1	incongruent	Block3	incongruent/STIM_005.jpg
2347.557	0.702	1	incongruent	Block3	incongruent/STIM_005.jpg
2352.234	0.574	1	incongruent	Block3	incongruent/STIM_005.jpg
2356.282	0.778	1	incongruent	Block3	incongruent/STIM_005.jpg
2360.223	0.903	1	incongruent	Block3	incongruent/STIM_005.jpg
2363.139	0.774	1	incongruent	Block3	incongruent/STIM_006.jpg
2367.844	0.62	1	incongruent	Block3	incongruent/STIM_006.jpg
2370.699	0.78	1	incongruent	Block3	incongruent/STIM_006.jpg
2375.475	0.572	1	incongruent	Block3	incongruent/STIM_006.jpg
2378.468	0.466	1	incongruent	Block3	incongruent/STIM_006.jpg
2382.157	0.662	1	incongruent	Block3	incongruent/STIM_007.jpg
2386.035	0.889	1	incongruent	Block3	incongruent/STIM_007.jpg
2390.764	0.968	1	incongruent	Block3	incongruent/STIM_007.jpg
2395.634	0.972	1	incongruent	Block3	incongruent/STIM_007.jpg
2398.909	0.737	1	incongruent	Block3	incongruent/STIM_007.jpg
2402.027	0.476	1	incongruent	Block3	incongruent/STIM_008.jpg
2405.513	0.877	1	incongruent	Block3	incongruent/STIM_008.jpg
2408.645	0.758	1	incongruent	Block3	incongruent/STIM_008.jpg
2411.683	0.937	1	incongruent	Block3	incongruent/STIM_008.jpg
2415.867	0.654	1	incongruent	Block3	incongruent/STIM_008.jpg
2420.272	0.653	1	incongruent	Block3	incongruent/STIM_009.jpg
2423.839	0.962	1	incongruent	Block3	incongruent/STIM_009.jpg
2427.178	0.618	1	incongruent	Block3	incongruent/STIM_009.jpg
2430.535	0.876	1	incongruent	Block3	incongruent/STIM_009.jpg
2434.743	0.462	1	incongruent	Block3	incongruent/STIM_009.jpg
2438.984	0.861	1	incongruent	Block3	incongruent/STIM_010.jpg
2441.888	0.566	1	incongruent	Block3	incongruent/STIM_010.jpg
2445.147	0.802	1	incongruent	Block3	incongruent/STIM_010.jpg
2449.942	0.555	1	incongruent	Block3	incongruent/STIM_010.jpg
2453.991	0.475	1	incongruent	Block3	incongruent/STIM_010.jpg
2458.294	0.801	1	incongruent	Block3	incongruent/STIM_011.jpg
2462.617	0.787	1	incongruent	Block3	incongruent/STIM_011.jpg
2467.045	0.972	1	incongruent	Block3	incongruent/STIM_011.jpg
2470.884	0.936	1	incongruent	Block3	incongruent/STIM_011.jpg
2475.798	0.677	1	incongruent	Block3	incongruent/STIM_011.jpg
2479.201	0.58	1	incongruent	Block3	incongruent/STIM_012.jpg
2482.902	0.588	1	incongruent	Block3	incongruent/STIM_012.jpg
2486.192	0.594	1	incongruent	Block3	incongruent/STIM_012.jpg
2490.725	0.69	1	incongruent	Block3	incongruent/STIM_012.jpg
2494.157	0.459	0	incongruent	Block3	incongruent/STIM_012.jpg
2497.275	0.876	1	incongruent	Block3	incongruent/STIM_013.jpg
2500.476	0.948	1	incongruent	Block3	incongruent/STIM_013.jpg
2505.125	0.703	1	incongruent	Block3	incongruent/STIM_013.jpg
2508.819	0.613	1	incongruent	Block3	incongruent/STIM_013.jpg
2512.487	0.971	1	incongruent	Block3	incongruent/STIM_013.jpg
2517.39	0.592	1	incongruent	Block3	incongruent/STIM_014.jpg
2521.006	0.781	1	incongruent	Block3	incongruent/STIM_014.jpg
2525.387	0.739	1	incongruent	Block3	incongruent/STIM_014.jpg
2529.149	0.963	1	incongruent	Block3	incongruent/STIM_014.jpg
2532.343	0.806	1	incongruent	Block3	incongruent/STIM_014.jpg
2536.261	0.716	1	incongruent	Block3	incongruent/STIM_015.jpg
2540.266	0.476	1	incongruent	Block3	incongruent/STIM_015.jpg
2543.657	0.905	1	incongruent	Block3	incongruent/STIM_015.jpg
2548.135	0.708	1	incongruent	Block3	incongruent/STIM_015.jpg
2551.174	0.791	1	incongruent	Block3	incongruent/STIM_015.jpg
2554.456	0.784	1	incongruent	Block3	incongruent/STIM_016.jpg
2557.589	0.56	1	incongruent	Block3	incongruent/STIM_016.jpg
2561.415	0.86	1	incongruent	Block3	incongruent/STIM_016.jpg
2565.73	0.833	1	incongruent	Block3	incongruent/STIM_016.jpg
2569.941	0.689	1	incongruent	Block3	incongruent/STIM_016.jpg
2574.621	0.744	1	incongruent	Block3	incongruent/STIM_017.jpg
2577.671	0.458	1	incongruent	Block3	incongruent/STIM_017.jpg
2581.17	0.735	1	incongruent	Block3	incongruent/STIM_017.jpg
2585.438	0.911	1	incongruent	Block3	incongruent/STIM_017.jpg
2588.821	0.704	1	incongruent	Block3	incongruent/STIM_017.jpg
2593.3	0.898	1	incongruent	Block3	incongruent/STIM_018.jpg
2596.207	0.874	1	incongruent	Block3	incongruent/STIM_018.jpg
2600.318	0.622	1	incongruent	Block3	incongruent/STIM_018.jpg
2604.236	0.552	1	incongruent	Block3	incongruent/STIM_018.jpg
2608.593	0.471	1	incongruent	Block3	incongruent/STIM_018.jpg
2612.791	0.877	1	incongruent	Block3	incongruent/STIM_019.jpg
2616.411	0.466	1	incongruent	Block3	incongruent/STIM_019.jpg
2620.828	0.5	1	incongruent	Block3	incongruent/STIM_019.jpg
2624.634	0.888	1	incongruent	Block3	incongruent/STIM_019.jpg
2627.703	0.881	1	incongruent	Block3	incongruent/STIM_019.jpg
2632.201	0.661	1	incongruent	Block3	incongruent/STIM_020.jpg
2635.469	0.826	1	incongruent	Block3	incongruent/STIM_020.jpg
2639.064	0.726	1	incongruent	Block3	incongruent/STIM_020.jpg
2643.434	0.921	1	incongruent	Block3	incongruent/STIM_020.jpg
2647.988	0.782	1	incongruent	Block3	incongruent/STIM_020.jpg
2651.75	0.754	1	incongruent	Block3	incongruent/STIM_021.jpg
2655.609	0.512	1	incongruent	Block3	incongruent/STIM_021.jpg
2658.503	0.569	1	incongruent	Block3	incongruent/STIM_021.jpg
2661.088	0.464	1	incongruent	Block3	incongruent/STIM_021.jpg
2664.001	0.768	1	incongruent	Block3	incongruent/STIM_021.jpg
2666.933	0.522	1	incongruent	Block3	incongruent/STIM_022.jpg
2670.453	0.46	1	incongruent	Block3	incongruent/STIM_022.jpg
2673.509	0.591	1	incongruent	Block3	incongruent/STIM_022.jpg
2677.963	0.861	1	incongruent	Block3	incongruent/STIM_022.jpg
2682.453	0.755	1	incongruent	Block3	incongruent/STIM_022.jpg
2686.296	0.913	1	incongruent	Block3	incongruent/STIM_023.jpg
2689.964	0.765	1	incongruent	Block3	incongruent/STIM_023.jpg
2693.861	0.84	1	incongruent	Block3	incongruent/STIM_023.jpg
2697.377	0.701	1	incongruent	Block3	incongruent/STIM_023.jpg
2701.606	0.494	1	incongruent	Block3	incongruent/STIM_023.jpg
2704.165	0.8	1	incongruent	Block3	incongruent/STIM_024.jpg
2707.173	0.555	1	incongruent	Block3	incongruent/STIM_024.jpg
2711.511	0.734	1	incongruent	Block3	incongruent/STIM_024.jpg
2714.33	0.578	1	incongruent	Block3	incongruent/STIM_024.jpg
2718.412	0.745	1	incongruent	Block3	incongruent/STIM_024.jpg
2721.249	0.959	1	incongruent	Block3	incongruent/STIM_025.jpg
2725.744	0.742	1	incongruent	Block3	incongruent/STIM_025.jpg
2729.072	0.885	1	incongruent	Block3	incongruent/STIM_025.jpg
2732.19	0.924	1	incongruent	Block3	incongruent/STIM_025.jpg
2737.073	0.878	1	incongruent	Block3	incongruent/STIM_025.jpg
2740.835	0.662	1	incongruent	Block3	incongruent/STIM_026.jpg
2744.197	0.756	1	incongruent	Block3	incongruent/STIM_026.jpg
2747.118	0.643	1	incongruent	Block3	incongruent/STIM_026.jpg
2750.444	0.598	1	incongruent	Block3	incongruent/STIM_026.jpg
2754.608	0.529	1	incongruent	Block3	incongruent/STIM_026.jpg
2757.933	0.879	1	incongruent	Block3	incongruent/STIM_027.jpg
2761.532	0.65	1	incongruent	Block3	incongruent/STIM_027.jpg
2765.536	0.521	1	incongruent	Block3	incongruent/STIM_027.jpg
2768.52	0.827	1	incongruent	Block3	incongruent/STIM_027.jpg
2772.958	0.804	1	incongruent	Block3	incongruent/STIM_027.jpg
2776.887	0.601	1	incongruent	Block3	incongruent/STIM_028.jpg
2779.718	0.61	1	incongruent	Block3	incongruent/STIM_028.jpg
2783.703	0.879	1	incongruent	Block3	incongruent/STIM_028.jpg
2787.319	0.613	1	incongruent	Block3	incongruent/STIM_028.jpg
2790.264	0.742	1	incongruent	Block3	incongruent/STIM_028.jpg
2794.155	0.618	1	incongruent	Block3	incongruent/STIM_029.jpg
2796.808	0.515	1	incongruent	Block3	incongruent/STIM_029.jpg
2800.317	0.691	1	incongruent	Block3	incongruent/STIM_029.jpg
2803.628	0.593	1	incongruent	Block3	incongruent/STIM_029.jpg
2807.665	0.469	1	incongruent	Block3	incongruent/STIM_029.jpg
2812.047	0.649	1	congruent	Block3	congruent/STIM_000.jpg
2814.808	0.674	1	congruent	Block3	congruent/STIM_000.jpg
2818.821	0.824	1	congruent	Block3	congruent/STIM_000.jpg
2823.1	0.737	1	congruent	Block3	congruent/STIM_000.jpg
2826.172	0.799	1	congruent	Block3	congruent/STIM_000.jpg
2830.018	0.657	1	congruent	Block3	congruent/STIM_001.jpg
2833.308	0.704	1	congruent	Block3	congruent/STIM_001.jpg
2837.482	0.724	1	congruent	Block3	congruent/STIM_001.jpg
2841.707	0.79	1	congruent	Block3	congruent/STIM_001.jpg
2845.115	0.824	1	congruent	Block3	congruent/STIM_001.jpg
2849.682	0.766	1	congruent	Block3	congruent/STIM_002.jpg
2853.229	0.657	1	congruent	Block3	congruent/STIM_002.jpg
2856.13	0.668	1	congruent	Block3	congruent/STIM_002.jpg
2860.455	0.768	1	congruent	Block3	congruent/STIM_002.jpg
2864.882	0.478	1	congruent	Block3	congruent/STIM_002.jpg
2867.6	0.617	1	congruent	Block3	congruent/STIM_003.jpg
2871.148	0.645	1	congruent	Block3	congruent/STIM_003.jpg
2874.389	0.643	1	congruent	Block3	congruent/STIM_003.jpg
2878.019	0.838	1	congruent	Block3	congruent/STIM_003.jpg
2881.311	0.773	1	congruent	Block3	congruent/STIM_003.jpg
2885.01	0.67	1	congruent	Block3	congruent/STIM_004.jpg
2888.039	0.79	0	congruent	Block3	congruent/STIM_004.jpg
2892.557	0.814	1	congruent	Block3	congruent/STIM_004.jpg
2896.975	0.735	0	congruent	Block3	congruent/STIM_004.jpg
2901.632	0.659	1	congruent	Block3	congruent/STIM_004.jpg
2906.01	0.548	1	congruent	Block3	congruent/STIM_005.jpg
2910.145	0.823	1	congruent	Block3	congruent/STIM_005.jpg
2913.249	0.606	1	congruent	Block3	congruent/STIM_005.jpg
2916.995	0.519	1	congruent	Block3	congruent/STIM_005.jpg
2919.751	0.537	1	congruent	Block3	congruent/STIM_005.jpg
2923.342	0.613	1	congruent	Block3	congruent/STIM_006.jpg
2926.331	0.565	1	congruent	Block3	congruent/STIM_006.jpg
2930.759	0.641	1	congruent	Block3	congruent/STIM_006.jpg
2933.776	0.823	1	congruent	Block3	congruent/STIM_006.jpg
2937.415	0.751	1	congruent	Block3	congruent/STIM_006.jpg
2940.993	0.761	1	congruent	Block3	congruent/STIM_007.jpg
2945.561	0.82	1	congruent	Block3	congruent/STIM_007.jpg
2949.075	0.802	1	congruent	Block3	congruent/STIM_007.jpg
2953.862	0.821	1	congruent	Block3	congruent/STIM_007.jpg
2957.522	0.704	1	congruent	Block3	congruent/STIM_007.jpg
2961.547	0.675	1	congruent	Block3	congruent/STIM_008.jpg
2964.283	0.564	1	congruent	Block3	congruent/STIM_008.jpg
2967.02	0.79	1	congruent	Block3	congruent/STIM_008.jpg
2970.992	0.543	1	congruent	Block3	congruent/STIM_008.jpg
2973.689	0.833	1	congruent	Block3	congruent/STIM_008.jpg
2976.775	0.568	1	congruent	Block3	congruent/STIM_009.jpg
2980.521	0.688	1	congruent	Block3	congruent/STIM_009.jpg
2983.349	0.792	0	congruent	Block3	congruent/STIM_009.jpg
2987.289	0.531	0	congruent	Block3	congruent/STIM_009.jpg
2989.952	0.756	1	congruent	Block3	congruent/STIM_009.jpg
2993.751	0.751	1	congruent	Block3	congruent/STIM_010.jpg
2997.388	0.599	1	congruent	Block3	congruent/STIM_010.jpg
3000.601	0.757	1	congruent	Block3	congruent/STIM_010.jpg
3004.665	0.466	1	congruent	Block3	congruent/STIM_010.jpg
3007.707	0.615	0	congruent	Block3	congruent/STIM_010.jpg
3011.699	0.512	1	congruent	Block3	congruent/STIM_011.jpg
3014.762	0.65	1	congruent	Block3	congruent/STIM_011.jpg
3018.139	0.671	0	congruent	Block3	congruent/STIM_011.jpg
3021.573	0.622	1	congruent	Block3	congruent/STIM_011.jpg
3025.229	0.734	1	congruent	Block3	congruent/STIM_011.jpg
3029.593	0.738	1	congruent	Block3	congruent/STIM_012.jpg
3033.675	0.69	1	congruent	Block3	congruent/STIM_012.jpg
3038.347	0.801	1	congruent	Block3	congruent/STIM_012.jpg
3041.407	0.554	1	congruent	Block3	congruent/STIM_012.jpg
3044.948	0.572	1	congruent	Block3	congruent/STIM_012.jpg
3049.112	0.647	1	congruent	Block3	congruent/STIM_013.jpg
3053.536	0.654	1	congruent	Block3	congruent/STIM_013.jpg
3056.23	0.781	1	congruent	Block3	congruent/STIM_013.jpg
3059.589	0.571	1	congruent	Block3	congruent/STIM_013.jpg
3062.398	0.661	1	congruent	Block3	congruent/STIM_013.jpg
3066.892	0.727	1	congruent	Block3	congruent/STIM_014.jpg
3071.277	0.632	0	congruent	Block3	congruent/STIM_014.jpg
3075.353	0.674	1	congruent	Block3	congruent/STIM_014.jpg
3079.904	0.638	1	congruent	Block3	congruent/STIM_014.jpg
3084.202	0.632	1	congruent	Block3	congruent/STIM_014.jpg
3087.694	0.737	0	congruent	Block3	congruent/STIM_015.jpg
3091.413	0.809	1	congruent	Block3	congruent/STIM_015.jpg
3095.307	0.729	1	congruent	Block3	congruent/STIM_015.jpg
3099.167	0.568	1	congruent	Block3	congruent/STIM_015.jpg
3102.233	0.714	1	congruent	Block3	congruent/STIM_015.jpg
3105.221	0.666	1	congruent	Block3	congruent/STIM_016.jpg
3108.747	0.674	1	congruent	Block3	congruent/STIM_016.jpg
3112.495	0.61	1	congruent	Block3	congruent/STIM_016.jpg
3116.956	0.552	1	congruent	Block3	congruent/STIM_016.jpg
3120.673	0.685	1	congruent	Block3	congruent/STIM_016.jpg
3124.407	0.709	1	congruent	Block3	congruent/STIM_017.jpg
3128.58	0.655	1	congruent	Block3	congruent/STIM_017.jpg
3132.63	0.625	1	congruent	Block3	congruent/STIM_017.jpg
3136.146	0.788	1	congruent	Block3	congruent/STIM_017.jpg
3139.39	0.677	1	congruent	Block3	congruent/STIM_017.jpg
3143.812	0.702	1	congruent	Block3	congruent/STIM_018.jpg
3148.363	0.665	1	congruent	Block3	congruent/STIM_018.jpg
3151.734	0.782	1	congruent	Block3	congruent/STIM_018.jpg
3154.851	0.57	1	congruent	Block3	congruent/STIM_018.jpg
3157.685	0.702	1	congruent	Block3	congruent/STIM_018.jpg
3161.989	0.676	1	congruent	Block3	congruent/STIM_019.jpg
3166.172	0.467	1	congruent	Block3	congruent/STIM_019.jpg
3169.866	0.553	1	congruent	Block3	congruent/STIM_019.jpg
3173.039	0.545	1	congruent	Block3	congruent/STIM_019.jpg
3177.105	0.524	1	congruent	Block3	congruent/STIM_019.jpg
3180.975	0.764	1	congruent	Block3	congruent/STIM_020.jpg
3183.848	0.561	1	congruent	Block3	congruent/STIM_020.jpg
3187.242	0.596	1	congruent	Block3	congruent/STIM_020.jpg
3189.942	0.599	1	congruent	Block3	congruent/STIM_020.jpg
3193.245	0.593	1	congruent	Block3	congruent/STIM_020.jpg
3196.807	0.68	1	congruent	Block3	congruent/STIM_021.jpg
3199.795	0.506	1	congruent	Block3	congruent/STIM_021.jpg
3203.064	0.74	1	congruent	Block3	congruent/STIM_021.jpg
3205.874	0.556	1	congruent	Block3	congruent/STIM_021.jpg
3209.895	0.607	1	congruent	Block3	congruent/STIM_021.jpg
3212.691	0.672	1	congruent	Block3	congruent/STIM_022.jpg
3217.329	0.818	1	congruent	Block3	congruent/STIM_022.jpg
3221.062	0.592	1	congruent	Block3	congruent/STIM_022.jpg
3225.362	0.583	1	congruent	Block3	congruent/STIM_022.jpg
3229.086	0.495	1	congruent	Block3	congruent/STIM_022.jpg
3232.958	0.717	1	congruent	Block3	congruent/STIM_023.jpg
3236.234	0.675	1	congruent	Block3	congruent/STIM_023.jpg
3239.273	0.56	1	congruent	Block3	congruent/STIM_023.jpg
3243.657	0.698	1	congruent	Block3	congruent/STIM_023.jpg
3246.42	0.561	1	congruent	Block3	congruent/STIM_023.jpg
3250.021	0.773	1	congruent	Block3	congruent/STIM_024.jpg
3254.395	0.777	1	congruent	Block3	congruent/STIM_024.jpg
3258.669	0.832	1	congruent	Block3	congruent/STIM_024.jpg
3261.755	0.494	1	congruent	Block3	congruent/STIM_024.jpg
3265.245	0.495	1	congruent	Block3	congruent/STIM_024.jpg
3269.306	0.725	1	congruent	Block3	congruent/STIM_025.jpg
3273.16	0.808	1	congruent	Block3	congruent/STIM_025.jpg
3276.144	0.604	1	congruent	Block3	congruent/STIM_025.jpg
3280.585	0.75	1	congruent	Block3	congruent/STIM_025.jpg
3283.624	0.569	1	congruent	Block3	congruent/STIM_025.jpg
3287.515	0.777	1	congruent	Block3	congruent/STIM_026.jpg
3290.846	0.721	1	congruent	Block3	congruent/STIM_026.jpg
3293.602	0.468	1	congruent	Block3	congruent/STIM_026.jpg
3297.336	0.752	1	congruent	Block3	congruent/STIM_026.jpg
3300.702	0.684	1	congruent	Block3	congruent/STIM_026.jpg
3304.001	0.697	1	congruent	Block3	congruent/STIM_027.jpg
3308.458	0.703	1	congruent	Block3	congruent/STIM_027.jpg
3312.708	0.567	1	congruent	Block3	congruent/STIM_027.jpg
3316.214	0.587	1	congruent	Block3	congruent/STIM_027.jpg
3320.799	0.712	1	congruent	Block3	congruent/STIM_027.jpg
3324.303	0.736	1	congruent	Block3	congruent/STIM_028.jpg
3327.191	0.817	1	congruent	Block3	congruent/STIM_028.jpg
3331.502	0.562	1	congruent	Block3	congruent/STIM_028.jpg
3335.52	0.684	1	congruent	Block3	congruent/STIM_028.jpg
3339.195	0.628	1	congruent	Block3	congruent/STIM_028.jpg
3341.871	0.825	1	congruent	Block3	congruent/STIM_029.jpg
3345.737	0.467	1	congruent	Block3	congruent/STIM_029.jpg
3348.539	0.628	1	congruent	Block3	congruent/STIM_029.jpg
3352.089	0.559	1	congruent	Block3	congruent/STIM_029.jpg
3355.268	0.667	1	congruent	Block3	congruent/STIM_029.jpg
