onset	duration	response_time_ms	trial_type	learning_stage	stimulus	response_port
0.0	1.284	1284.5	incongruent	Block1	incongruent/STIM_000.jpg	100
3.504	0.745	744.8	incongruent	Block1	incongruent/STIM_000.jpg	99
7.955	0.977	977.2	incongruent	Block1	incongruent/STIM_000.jpg	99
11.896	0.572	571.7	incongruent	Block1	incongruent/STIM_000.jpg	100
16.057	0.645	644.8	incongruent	Block1	incongruent/STIM_000.jpg	100
19.525	1.164	1163.8	incongruent	Block1	incongruent/STIM_001.jpg	100
24.495	0.666	666.5	incongruent	Block1	incongruent/STIM_001.jpg	100
27.764	1.134	1133.7	incongruent	Block1	incongruent/STIM_001.jpg	100
31.635	0.706	705.5	incongruent	Block1	incongruent/STIM_001.jpg	100
34.893	0.692	692.5	incongruent	Block1	incongruent/STIM_001.jpg	99
39.407	0.737	736.6	incongruent	Block1	incongruent/STIM_002.jpg	99
43.437	0.871	871.1	incongruent	Block1	incongruent/STIM_002.jpg	99
47.446	0.805	805.0	incongruent	Block1	incongruent/STIM_002.jpg	99
51.454	0.812	812.4	incongruent	Block1	incongruent/STIM_002.jpg	99
55.518	1.101	1101.0	incongruent	Block1	incongruent/STIM_002.jpg	99
58.932	1.412	1411.8	incongruent	Block1	incongruent/STIM_003.jpg	100
62.702	0.868	868.0	incongruent	Block1	incongruent/STIM_003.jpg	99
67.503	1.114	1113.6	incongruent	Block1	incongruent/STIM_003.jpg	100
71.633	0.602	602.2	incongruent	Block1	incongruent/STIM_003.jpg	100
75.857	0.67	669.5	incongruent	Block1	incongruent/STIM_003.jpg	99
80.192	0.971	970.9	incongruent	Block1	incongruent/STIM_004.jpg	99
83.719	0.957	957.0	incongruent	Block1	incongruent/STIM_004.jpg	100
88.321	0.865	865.3	incongruent	Block1	incongruent/STIM_004.jpg	100
92.347	0.966	966.2	incongruent	Block1	incongruent/STIM_004.jpg	100
96.928	0.978	978.1	incongruent	Block1	incongruent/STIM_004.jpg	99
101.343	1.01	1010.3	incongruent	Block1	incongruent/STIM_005.jpg	99
104.641	1.205	1204.6	incongruent	Block1	incongruent/STIM_005.jpg	99
108.961	0.688	687.8	incongruent	Block1	incongruent/STIM_005.jpg	99
112.54	0.769	769.4	incongruent	Block1	incongruent/STIM_005.jpg	100
117.18	1.08	1080.3	incongruent	Block1	incongruent/STIM_005.jpg	99
121.17	1.162	1161.5	incongruent	Block1	incongruent/STIM_006.jpg	100
124.818	0.93	930.0	incongruent	Block1	incongruent/STIM_006.jpg	99
128.619	1.018	1018.4	incongruent	Block1	incongruent/STIM_006.jpg	100
132.227	0.778	778.3	incongruent	Block1	incongruent/STIM_006.jpg	100
136.251	0.611	611.3	incongruent	Block1	incongruent/STIM_006.jpg	100
140.777	0.786	786.3	incongruent	Block1	incongruent/STIM_007.jpg	99
145.6	0.755	755.3	incongruent	Block1	incongruent/STIM_007.jpg	99
149.553	1.21	1210.2	incongruent	Block1	incongruent/STIM_007.jpg	99
154.011	1.166	1166.5	incongruent	Block1	incongruent/STIM_007.jpg	100
157.638	0.558	557.7	incongruent	Block1	incongruent/STIM_007.jpg	99
162.094	1.32	1319.7	incongruent	Block1	incongruent/STIM_008.jpg	99
166.139	1.128	1128.0	incongruent	Block1	incongruent/STIM_008.jpg	100
170.587	1.004	1004.4	incongruent	Block1	incongruent/STIM_008.jpg	100
174.977	1.175	1174.7	incongruent	Block1	incongruent/STIM_008.jpg	100
179.499	0.887	886.7	incongruent	Block1	incongruent/STIM_008.jpg	100
184.053	0.713	713.2	incongruent	Block1	incongruent/STIM_009.jpg	100
188.72	0.662	661.6	incongruent	Block1	incongruent/STIM_009.jpg	99
192.076	1.242	1242.4	incongruent	Block1	incongruent/STIM_009.jpg	99
196.717	1.126	1125.6	incongruent	Block1	incongruent/STIM_009.jpg	99
201.774	0.569	568.8	incongruent	Block1	incongruent/STIM_009.jpg	100
204.942	1.08	1079.7	incongruent	Block1	incongruent/STIM_010.jpg	99
208.245	1.082	1081.9	incongruent	Block1	incongruent/STIM_010.jpg	100
211.998	0.606	605.7	incongruent	Block1	incongruent/STIM_010.jpg	99
215.917	1.189	1188.6	incongruent	Block1	incongruent/STIM_010.jpg	100
220.61	0.631	631.2	incongruent	Block1	incongruent/STIM_010.jpg	100
225.128	0.883	882.8	incongruent	Block1	incongruent/STIM_011.jpg	99
229.958	0.785	785.1	incongruent	Block1	incongruent/STIM_011.jpg	100
234.576	0.758	757.6	incongruent	Block1	incongruent/STIM_011.jpg	100
238.85	1.151	1151.3	incongruent	Block1	incongruent/STIM_011.jpg	100
243.698	0.935	934.9	incongruent	Block1	incongruent/STIM_011.jpg	99
247.5	1.261	1260.9	incongruent	Block1	incongruent/STIM_012.jpg	99
251.277	0.959	958.9	incongruent	Block1	incongruent/STIM_012.jpg	100
254.626	1.233	1233.4	incongruent	Block1	incongruent/STIM_012.jpg	99
258.927	1.089	1089.1	incongruent	Block1	incongruent/STIM_012.jpg	100
263.912	0.763	762.7	incongruent	Block1	incongruent/STIM_012.jpg	99
267.491	1.142	1142.3	incongruent	Block1	incongruent/STIM_013.jpg	99
272.587	1.274	1274.0	incongruent	Block1	incongruent/STIM_013.jpg	99
276.484	0.775	775.0	incongruent	Block1	incongruent/STIM_013.jpg	100
280.635	1.199	1199.0	incongruent	Block1	incongruent/STIM_013.jpg	99
285.806	0.785	785.4	incongruent	Block1	incongruent/STIM_013.jpg	99
289.402	1.282	1281.9	incongruent	Block1	incongruent/STIM_014.jpg	100
293.603	1.131	1131.0	incongruent	Block1	incongruent/STIM_014.jpg	99
296.981	0.991	991.4	incongruent	Block1	incongruent/STIM_014.jpg	100
300.665	0.672	672.4	incongruent	Block1	incongruent/STIM_014.jpg	100
304.03	0.785	785.1	incongruent	Block1	incongruent/STIM_014.jpg	99
308.372	0.763	762.8	incongruent	Block1	incongruent/STIM_015.jpg	100
312.742	0.828	827.9	incongruent	Block1	incongruent/STIM_015.jpg	100
317.171	1.047	1046.9	incongruent	Block1	incongruent/STIM_015.jpg	100
320.629	0.735	734.7	incongruent	Block1	incongruent/STIM_015.jpg	99
324.643	0.739	738.7	incongruent	Block1	incongruent/STIM_015.jpg	99
327.609	0.729	728.7	incongruent	Block1	incongruent/STIM_016.jpg	100
332.247	0.945	945.3	incongruent	Block1	incongruent/STIM_016.jpg	100
336.898	1.237	1237.2	incongruent	Block1	incongruent/STIM_016.jpg	99
341.752	0.76	760.2	incongruent	Block1	incongruent/STIM_016.jpg	100
345.192	0.565	565.0	incongruent	Block1	incongruent/STIM_016.jpg	100
348.204	1.344	1344.3	incongruent	Block1	incongruent/STIM_017.jpg	100
352.7	1.299	1298.7	incongruent	Block1	incongruent/STIM_017.jpg	99
357.492	0.903	902.7	incongruent	Block1	incongruent/STIM_017.jpg	99
362.251	0.665	665.4	incongruent	Block1	incongruent/STIM_017.jpg	100
366.049	0.981	980.7	incongruent	Block1	incongruent/STIM_017.jpg	99
369.668	1.349	1349.0	incongruent	Block1	incongruent/STIM_018.jpg	100
373.888	1.309	1309.4	incongruent	Block1	incongruent/STIM_018.jpg	100
377.812	0.802	802.1	incongruent	Block1	incongruent/STIM_018.jpg	100
381.449	0.816	815.7	incongruent	Block1	incongruent/STIM_018.jpg	100
385.114	0.634	634.0	incongruent	Block1	incongruent/STIM_018.jpg	100
388.653	1.404	1404.4	incongruent	Block1	incongruent/STIM_019.jpg	100
392.937	0.844	843.8	incongruent	Block1	incongruent/STIM_019.jpg	99
397.424	0.617	617.4	incongruent	Block1	incongruent/STIM_019.jpg	99
401.932	1.102	1101.8	incongruent	Block1	incongruent/STIM_019.jpg	100
406.55	0.625	625.4	incongruent	Block1	incongruent/STIM_019.jpg	100
410.178	0.778	777.7	incongruent	Block1	incongruent/STIM_020.jpg	100
413.76	0.742	742.0	incongruent	Block1	incongruent/STIM_020.jpg	100
418.404	0.841	841.0	incongruent	Block1	incongruent/STIM_020.jpg	100
421.351	0.79	790.0	incongruent	Block1	incongruent/STIM_020.jpg	99
426.096	0.593	593.0	incongruent	Block1	incongruent/STIM_020.jpg	100
430.147	1.385	1385.1	incongruent	Block1	incongruent/STIM_021.jpg	99
434.76	1.165	1164.9	incongruent	Block1	incongruent/STIM_021.jpg	100
439.025	0.708	707.9	incongruent	Block1	incongruent/STIM_021.jpg	100
443.512	1.01	1010.1	incongruent	Block1	incongruent/STIM_021.jpg	100
448.293	0.703	702.9	incongruent	Block1	incongruent/STIM_021.jpg	99
452.397	1.112	1112.5	incongruent	Block1	incongruent/STIM_022.jpg	99
455.804	1.004	1004.4	incongruent	Block1	incongruent/STIM_022.jpg	100
459.545	1.106	1106.5	incongruent	Block1	incongruent/STIM_022.jpg	99
463.8	0.952	952.4	incongruent	Block1	incongruent/STIM_022.jpg	99
467.111	0.857	857.3	incongruent	Block1	incongruent/STIM_022.jpg	100
470.418	1.046	1045.8	incongruent	Block1	incongruent/STIM_023.jpg	99
474.268	1.131	1131.1	incongruent	Block1	incongruent/STIM_023.jpg	99
478.156	0.851	850.7	incongruent	Block1	incongruent/STIM_023.jpg	100
481.786	0.812	812.3	incongruent	Block1	incongruent/STIM_023.jpg	99
485.203	0.953	952.7	incongruent	Block1	incongruent/STIM_023.jpg	100
489.675	1.06	1059.8	incongruent	Block1	incongruent/STIM_024.jpg	99
493.018	0.919	918.9	incongruent	Block1	incongruent/STIM_024.jpg	99
497.502	0.85	849.5	incongruent	Block1	incongruent/STIM_024.jpg	100
501.941	0.692	691.9	incongruent	Block1	incongruent/STIM_024.jpg	100
506.156	0.578	577.9	incongruent	Block1	incongruent/STIM_024.jpg	100
508.945	0.667	666.9	incongruent	Block1	incongruent/STIM_025.jpg	99
512.208	0.863	862.8	incongruent	Block1	incongruent/STIM_025.jpg	100
516.166	0.732	731.5	incongruent	Block1	incongruent/STIM_025.jpg	99
519.929	1.151	1150.8	incongruent	Block1	incongruent/STIM_025.jpg	100
523.821	0.988	988.2	incongruent	Block1	incongruent/STIM_025.jpg	100
527.859	0.849	848.9	incongruent	Block1	incongruent/STIM_026.jpg	99
531.752	1.161	1161.4	incongruent	Block1	incongruent/STIM_026.jpg	99
536.558	0.793	792.8	incongruent	Block1	incongruent/STIM_026.jpg	100
541.186	0.573	573.0	incongruent	Block1	incongruent/STIM_026.jpg	100
545.751	0.849	848.9	incongruent	Block1	incongruent/STIM_026.jpg	99
550.448	1.12	1119.7	incongruent	Block1	incongruent/STIM_027.jpg	99
554.576	0.645	644.6	incongruent	Block1	incongruent/STIM_027.jpg	99
558.413	0.655	654.8	incongruent	Block1	incongruent/STIM_027.jpg	99
561.547	0.657	656.6	incongruent	Block1	incongruent/STIM_027.jpg	99
564.549	0.794	794.0	incongruent	Block1	incongruent/STIM_027.jpg	99
567.488	0.776	776.1	incongruent	Block1	incongruent/STIM_028.jpg	100
570.747	1.11	1109.7	incongruent	Block1	incongruent/STIM_028.jpg	99
574.782	0.885	885.2	incongruent	Block1	incongruent/STIM_028.jpg	100
578.829	1.16	1160.4	incongruent	Block1	incongruent/STIM_028.jpg	100
582.683	1.075	1074.7	incongruent	Block1	incongruent/STIM_028.jpg	99
587.249	1.032	1032.4	incongruent	Block1	incongruent/STIM_029.jpg	99
591.125	0.827	826.7	incongruent	Block1	incongruent/STIM_029.jpg	100
595.952	0.791	790.8	incongruent	Block1	incongruent/STIM_029.jpg	100
599.384	1.14	1140.4	incongruent	Block1	incongruent/STIM_029.jpg	100
603.501	0.893	893.2	incongruent	Block1	incongruent/STIM_029.jpg	100
607.813	0.515	514.7	congruent	Block1	congruent/STIM_000.jpg	99
610.635	0.815	815.1	congruent	Block1	congruent/STIM_000.jpg	99
614.871	0.824	823.7	congruent	Block1	congruent/STIM_000.jpg	99
619.0	0.788	787.6	congruent	Block1	congruent/STIM_000.jpg	100
622.396	0.579	578.7	congruent	Block1	congruent/STIM_000.jpg	100
625.776	0.84	840.1	congruent	Block1	congruent/STIM_001.jpg	100
630.234	0.486	485.9	congruent	Block1	congruent/STIM_001.jpg	100
632.994	0.806	805.9	congruent	Block1	congruent/STIM_001.jpg	99
636.217	0.692	691.5	congruent	Block1	congruent/STIM_001.jpg	99
639.281	0.727	726.6	congruent	Block1	congruent/STIM_001.jpg	99
642.621	0.847	847.1	congruent	Block1	congruent/STIM_002.jpg	99
646.968	0.576	576.1	congruent	Block1	congruent/STIM_002.jpg	100
651.048	0.577	576.7	congruent	Block1	congruent/STIM_002.jpg	99
655.408	0.77	769.6	congruent	Block1	congruent/STIM_002.jpg	100
659.486	0.846	846.3	congruent	Block1	congruent/STIM_002.jpg	99
663.47	0.55	550.5	congruent	Block1	congruent/STIM_003.jpg	99
667.975	0.487	487.1	congruent	Block1	congruent/STIM_003.jpg	100
671.136	0.698	697.6	congruent	Block1	congruent/STIM_003.jpg	99
674.146	0.695	695.0	congruent	Block1	congruent/STIM_003.jpg	99
678.835	0.558	557.6	congruent	Block1	congruent/STIM_003.jpg	99
682.883	0.608	608.0	congruent	Block1	congruent/STIM_004.jpg	100
687.284	0.588	588.1	congruent	Block1	congruent/STIM_004.jpg	100
691.199	0.492	492.4	congruent	Block1	congruent/STIM_004.jpg	99
694.767	0.747	747.0	congruent	Block1	congruent/STIM_004.jpg	99
698.365	0.838	838.5	congruent	Block1	congruent/STIM_004.jpg	100
702.549	0.669	668.7	congruent	Block1	congruent/STIM_005.jpg	100
706.402	0.75	750.3	congruent	Block1	congruent/STIM_005.jpg	100
710.994	0.843	842.7	congruent	Block1	congruent/STIM_005.jpg	99
714.517	0.54	540.0	congruent	Block1	congruent/STIM_005.jpg	100
719.038	0.613	613.3	congruent	Block1	congruent/STIM_005.jpg	100
722.757	0.553	552.7	congruent	Block1	congruent/STIM_006.jpg	99
725.56	0.803	803.0	congruent	Block1	congruent/STIM_006.jpg	100
729.619	0.615	615.2	congruent	Block1	congruent/STIM_006.jpg	99
734.106	0.649	649.0	congruent	Block1	congruent/STIM_006.jpg	99
738.752	0.583	583.2	congruent	Block1	congruent/STIM_006.jpg	100
741.845	0.589	588.7	congruent	Block1	congruent/STIM_007.jpg	100
746.286	0.535	535.0	congruent	Block1	congruent/STIM_007.jpg	100
750.129	0.517	517.4	congruent	Block1	congruent/STIM_007.jpg	99
754.397	0.767	767.4	congruent	Block1	congruent/STIM_007.jpg	99
758.857	0.803	803.2	congruent	Block1	congruent/STIM_007.jpg	99
763.088	0.795	795.2	congruent	Block1	congruent/STIM_008.jpg	99
766.906	0.817	817.3	congruent	Block1	congruent/STIM_008.jpg	99
771.297	0.544	543.6	congruent	Block1	congruent/STIM_008.jpg	99
775.778	0.609	609.2	congruent	Block1	congruent/STIM_008.jpg	100
778.942	0.733	732.8	congruent	Block1	congruent/STIM_008.jpg	100
781.861	0.738	738.1	congruent	Block1	congruent/STIM_009.jpg	100
786.357	0.747	747.2	congruent	Block1	congruent/STIM_009.jpg	99
789.793	0.746	745.5	congruent	Block1	congruent/STIM_009.jpg	99
793.08	0.643	643.1	congruent	Block1	congruent/STIM_009.jpg	99
796.934	0.737	736.7	congruent	Block1	congruent/STIM_009.jpg	100
799.733	0.64	640.2	congruent	Block1	congruent/STIM_010.jpg	99
803.608	0.599	599.2	congruent	Block1	congruent/STIM_010.jpg	100
807.59	0.617	616.7	congruent	Block1	congruent/STIM_010.jpg	100
810.256	0.728	727.8	congruent	Block1	congruent/STIM_010.jpg	100
814.563	0.556	556.2	congruent	Block1	congruent/STIM_010.jpg	100
819.084	0.794	794.0	congruent	Block1	congruent/STIM_011.jpg	99
823.121	0.728	728.0	congruent	Block1	congruent/STIM_011.jpg	100
826.898	0.793	792.9	congruent	Block1	congruent/STIM_011.jpg	99
830.045	0.806	806.2	congruent	Block1	congruent/STIM_011.jpg	99
833.999	0.726	725.5	congruent	Block1	congruent/STIM_011.jpg	99
837.183	0.525	524.6	congruent	Block1	congruent/STIM_012.jpg	99
841.669	0.488	488.0	congruent	Block1	congruent/STIM_012.jpg	99
844.95	0.515	514.6	congruent	Block1	congruent/STIM_012.jpg	100
848.583	0.498	498.0	congruent	Block1	congruent/STIM_012.jpg	99
851.636	0.476	476.4	congruent	Block1	congruent/STIM_012.jpg	100
855.244	0.678	678.0	congruent	Block1	congruent/STIM_013.jpg	100
858.296	0.484	483.8	congruent	Block1	congruent/STIM_013.jpg	99
861.431	0.68	679.6	congruent	Block1	congruent/STIM_013.jpg	99
864.821	0.758	757.7	congruent	Block1	congruent/STIM_013.jpg	99
869.16	0.552	551.9	congruent	Block1	congruent/STIM_013.jpg	100
873.543	0.578	578.1	congruent	Block1	congruent/STIM_014.jpg	100
876.462	0.735	735.2	congruent	Block1	congruent/STIM_014.jpg	100
880.227	0.634	634.1	congruent	Block1	congruent/STIM_014.jpg	100
884.771	0.841	841.1	congruent	Block1	congruent/STIM_014.jpg	99
888.788	0.577	577.3	congruent	Block1	congruent/STIM_014.jpg	100
893.355	0.842	841.8	congruent	Block1	congruent/STIM_015.jpg	100
896.258	0.662	662.1	congruent	Block1	congruent/STIM_015.jpg	99
899.734	0.484	484.4	congruent	Block1	congruent/STIM_015.jpg	100
903.206	0.834	834.3	congruent	Block1	congruent/STIM_015.jpg	100
906.987	0.774	773.8	congruent	Block1	congruent/STIM_015.jpg	99
911.205	0.548	548.1	congruent	Block1	congruent/STIM_016.jpg	100
914.171	0.615	614.7	congruent	Block1	congruent/STIM_016.jpg	99
917.491	0.629	628.7	congruent	Block1	congruent/STIM_016.jpg	100
921.182	0.783	782.6	congruent	Block1	congruent/STIM_016.jpg	100
925.584	0.836	835.7	congruent	Block1	congruent/STIM_016.jpg	99
928.802	0.67	669.6	congruent	Block1	congruent/STIM_017.jpg	100
933.093	0.582	582.5	congruent	Block1	congruent/STIM_017.jpg	99
936.222	0.691	691.4	congruent	Block1	congruent/STIM_017.jpg	99
940.671	0.791	791.1	congruent	Block1	congruent/STIM_017.jpg	99
943.572	0.721	720.7	congruent	Block1	congruent/STIM_017.jpg	99
947.223	0.824	823.9	congruent	Block1	congruent/STIM_018.jpg	99
950.988	0.588	588.2	congruent	Block1	congruent/STIM_018.jpg	100
954.04	0.657	657.4	congruent	Block1	congruent/STIM_018.jpg	99
957.072	0.607	606.8	congruent	Block1	congruent/STIM_018.jpg	99
961.27	0.812	812.3	congruent	Block1	congruent/STIM_018.jpg	99
965.761	0.735	734.6	congruent	Block1	congruent/STIM_019.jpg	100
970.125	0.641	641.0	congruent	Block1	congruent/STIM_019.jpg	100
974.445	0.814	814.0	congruent	Block1	congruent/STIM_019.jpg	99
978.431	0.772	772.4	congruent	Block1	congruent/STIM_019.jpg	99
981.545	0.572	572.0	congruent	Block1	congruent/STIM_019.jpg	100
985.449	0.604	603.9	congruent	Block1	congruent/STIM_020.jpg	99
989.177	0.526	525.7	congruent	Block1	congruent/STIM_020.jpg	99
992.242	0.596	596.3	congruent	Block1	congruent/STIM_020.jpg	100
996.451	0.586	586.0	congruent	Block1	congruent/STIM_020.jpg	100
1000.659	0.541	540.7	congruent	Block1	congruent/STIM_020.jpg	100
1004.848	0.803	802.9	congruent	Block1	congruent/STIM_021.jpg	100
1008.326	0.622	622.0	congruent	Block1	congruent/STIM_021.jpg	100
1012.164	0.781	780.8	congruent	Block1	congruent/STIM_021.jpg	100
1015.851	0.774	774.3	congruent	Block1	congruent/STIM_021.jpg	99
1020.019	0.63	629.6	congruent	Block1	congruent/STIM_021.jpg	99
1024.054	0.566	566.1	congruent	Block1	congruent/STIM_022.jpg	100
1027.178	0.571	570.9	congruent	Block1	congruent/STIM_022.jpg	100
1030.526	0.576	575.9	congruent	Block1	congruent/STIM_022.jpg	100
1034.009	0.723	723.0	congruent	Block1	congruent/STIM_022.jpg	100
1038.003	0.78	779.7	congruent	Block1	congruent/STIM_022.jpg	99
1041.572	0.651	651.0	congruent	Block1	congruent/STIM_023.jpg	100
1045.649	0.563	563.0	congruent	Block1	congruent/STIM_023.jpg	99
1050.014	0.571	571.3	congruent	Block1	congruent/STIM_023.jpg	99
1052.668	0.762	761.7	congruent	Block1	congruent/STIM_023.jpg	99
1056.394	0.54	540.3	congruent	Block1	congruent/STIM_023.jpg	99
1059.406	0.551	551.2	congruent	Block1	congruent/STIM_024.jpg	99
1063.194	0.714	713.9	congruent	Block1	congruent/STIM_024.jpg	100
1066.727	0.582	582.5	congruent	Block1	congruent/STIM_024.jpg	99
1070.255	0.572	571.8	congruent	Block1	congruent/STIM_024.jpg	99
1074.038	0.75	750.3	congruent	Block1	congruent/STIM_024.jpg	99
1078.136	0.741	741.3	congruent	Block1	congruent/STIM_025.jpg	99
1081.623	0.765	764.8	congruent	Block1	congruent/STIM_025.jpg	99
1084.496	0.824	824.5	congruent	Block1	congruent/STIM_025.jpg	99
1087.566	0.6	600.0	congruent	Block1	congruent/STIM_025.jpg	99
1090.342	0.63	629.7	congruent	Block1	congruent/STIM_025.jpg	100
1093.23	0.675	675.2	congruent	Block1	congruent/STIM_026.jpg	100
1097.706	0.821	821.4	congruent	Block1	congruent/STIM_026.jpg	99
1100.922	0.545	544.8	congruent	Block1	congruent/STIM_026.jpg	99
1105.419	0.624	623.8	congruent	Block1	congruent/STIM_026.jpg	99
1109.598	0.752	752.4	congruent	Block1	congruent/STIM_026.jpg	100
1112.599	0.81	810.3	congruent	Block1	congruent/STIM_027.jpg	100
1116.306	0.663	662.6	congruent	Block1	congruent/STIM_027.jpg	99
1119.936	0.708	707.6	congruent	Block1	congruent/STIM_027.jpg	100
1124.679	0.578	577.8	congruent	Block1	congruent/STIM_027.jpg	100
1129.045	0.658	658.1	congruent	Block1	congruent/STIM_027.jpg	99
1132.867	0.604	604.1	congruent	Block1	congruent/STIM_028.jpg	100
1137.292	0.489	489.0	congruent	Block1	congruent/STIM_028.jpg	100
1140.915	0.779	779.1	congruent	Block1	congruent/STIM_028.jpg	100
1144.286	0.63	630.4	congruent	Block1	congruent/STIM_028.jpg	100
1148.148	0.609	609.4	congruent	Block1	congruent/STIM_028.jpg	100
1152.076	0.712	711.6	congruent	Block1	congruent/STIM_029.jpg	99
1155.45	0.804	804.2	congruent	Block1	congruent/STIM_029.jpg	99
1159.981	0.76	760.5	congruent	Block1	congruent/STIM_029.jpg	99
1164.521	0.756	756.1	congruent	Block1	congruent/STIM_029.jpg	99
1168.933	0.685	685.2	congruent	Block1	congruent/STIM_029.jpg	99
1171.807	0.716	716.2	incongruent	Block2	incongruent/STIM_000.jpg	99
1175.079	0.963	962.9	incongruent	Block2	incongruent/STIM_000.jpg	100
1180.066	1.013	1012.7	incongruent	Block2	incongruent/STIM_000.jpg	99
1183.305	0.536	536.2	incongruent	Block2	incongruent/STIM_000.jpg	100
1187.241	0.664	664.0	incongruent	Block2	incongruent/STIM_000.jpg	99
1190.714	1.014	1014.3	incongruent	Block2	incongruent/STIM_001.jpg	100
1194.386	0.749	748.9	incongruent	Block2	incongruent/STIM_001.jpg	100
1198.034	0.759	758.7	incongruent	Block2	incongruent/STIM_001.jpg	99
1202.686	0.856	856.5	incongruent	Block2	incongruent/STIM_001.jpg	100
1206.529	0.527	527.2	incongruent	Block2	incongruent/STIM_001.jpg	100
1210.469	0.602	602.3	incongruent	Block2	incongruent/STIM_002.jpg	99
1213.474	0.772	771.5	incongruent	Block2	incongruent/STIM_002.jpg	100
1217.617	1.058	1058.3	incongruent	Block2	incongruent/STIM_002.jpg	100
1222.045	0.619	619.1	incongruent	Block2	incongruent/STIM_002.jpg	100
1225.056	0.803	803.2	incongruent	Block2	incongruent/STIM_002.jpg	99
1228.814	0.606	605.7	incongruent	Block2	incongruent/STIM_003.jpg	99
1232.441	1.131	1130.9	incongruent	Block2	incongruent/STIM_003.jpg	99
1236.668	1.04	1039.9	incongruent	Block2	incongruent/STIM_003.jpg	100
1241.148	0.729	729.0	incongruent	Block2	incongruent/STIM_003.jpg	100
1245.331	0.481	480.9	incongruent	Block2	incongruent/STIM_003.jpg	100
1249.024	0.819	819.1	incongruent	Block2	incongruent/STIM_004.jpg	100
1253.123	1.132	1131.7	incongruent	Block2	incongruent/STIM_004.jpg	99
1257.921	0.982	981.9	incongruent	Block2	incongruent/STIM_004.jpg	99
1261.676	0.665	665.2	incongruent	Block2	incongruent/STIM_004.jpg	99
1264.377	0.92	920.5	incongruent	Block2	incongruent/STIM_004.jpg	100
1269.106	0.592	591.8	incongruent	Block2	incongruent/STIM_005.jpg	99
1272.088	0.912	912.5	incongruent	Block2	incongruent/STIM_005.jpg	100
1275.071	1.068	1068.1	incongruent	Block2	incongruent/STIM_005.jpg	100
1279.931	0.687	686.8	incongruent	Block2	incongruent/STIM_005.jpg	99
1283.552	0.52	519.6	incongruent	Block2	incongruent/STIM_005.jpg	99
1286.687	0.973	973.3	incongruent	Block2	incongruent/STIM_006.jpg	99
1291.133	0.811	811.3	incongruent	Block2	incongruent/STIM_006.jpg	99
1294.677	0.828	828.2	incongruent	Block2	incongruent/STIM_006.jpg	100
1298.473	0.889	888.6	incongruent	Block2	incongruent/STIM_006.jpg	100
1301.564	0.74	740.0	incongruent	Block2	incongruent/STIM_006.jpg	99
1304.716	1.148	1148.3	incongruent	Block2	incongruent/STIM_007.jpg	99
1309.754	1.11	1109.8	incongruent	Block2	incongruent/STIM_007.jpg	100
1313.146	1.031	1030.7	incongruent	Block2	incongruent/STIM_007.jpg	100
1317.348	0.598	598.5	incongruent	Block2	incongruent/STIM_007.jpg	99
1321.688	0.734	733.7	incongruent	Block2	incongruent/STIM_007.jpg	99
1325.302	0.796	795.6	incongruent	Block2	incongruent/STIM_008.jpg	99
1328.286	0.914	913.8	incongruent	Block2	incongruent/STIM_008.jpg	100
1332.73	0.66	660.4	incongruent	Block2	incongruent/STIM_008.jpg	99
1337.056	0.947	946.9	incongruent	Block2	incongruent/STIM_008.jpg	99
1341.234	0.852	852.3	incongruent	Block2	incongruent/STIM_008.jpg	99
1344.815	0.831	831.1	incongruent	Block2	incongruent/STIM_009.jpg	99
1347.964	0.8	800.1	incongruent	Block2	incongruent/STIM_009.jpg	100
1351.002	0.96	959.5	incongruent	Block2	incongruent/STIM_009.jpg	100
1354.443	0.894	894.5	incongruent	Block2	incongruent/STIM_009.jpg	100
1358.319	0.554	554.2	incongruent	Block2	incongruent/STIM_009.jpg	100
1360.971	0.688	688.2	incongruent	Block2	incongruent/STIM_010.jpg	100
1365.469	0.682	681.8	incongruent	Block2	incongruent/STIM_010.jpg	100
1368.714	0.986	985.6	incongruent	Block2	incongruent/STIM_010.jpg	100
1372.192	0.748	747.8	incongruent	Block2	incongruent/STIM_010.jpg	100
1376.739	0.7	700.4	incongruent	Block2	incongruent/STIM_010.jpg	100
1379.502	1.017	1016.8	incongruent	Block2	incongruent/STIM_011.jpg	100
1383.309	0.859	859.4	incongruent	Block2	incongruent/STIM_011.jpg	100
1386.445	0.701	700.9	incongruent	Block2	incongruent/STIM_011.jpg	100
1391.139	0.968	968.5	incongruent	Block2	incongruent/STIM_011.jpg	99
1394.89	0.751	750.9	incongruent	Block2	incongruent/STIM_011.jpg	100
1399.011	1.116	1116.2	incongruent	Block2	incongruent/STIM_012.jpg	99
1403.715	1.047	1046.6	incongruent	Block2	incongruent/STIM_012.jpg	100
1407.984	0.907	907.0	incongruent	Block2	incongruent/STIM_012.jpg	100
1412.616	0.636	636.5	incongruent	Block2	incongruent/STIM_012.jpg	99
1415.352	0.876	875.8	incongruent	Block2	incongruent/STIM_012.jpg	99
1419.005	0.67	669.6	incongruent	Block2	incongruent/STIM_013.jpg	99
1421.941	1.112	1112.2	incongruent	Block2	incongruent/STIM_013.jpg	99
1425.126	0.576	576.1	incongruent	Block2	incongruent/STIM_013.jpg	100
1429.515	0.6	599.5	incongruent	Block2	incongruent/STIM_013.jpg	100
1432.81	0.659	658.7	incongruent	Block2	incongruent/STIM_013.jpg	99
1437.121	1.132	1132.2	incongruent	Block2	incongruent/STIM_014.jpg	100
1441.029	0.828	827.5	incongruent	Block2	incongruent/STIM_014.jpg	99
1445.747	0.876	876.5	incongruent	Block2	incongruent/STIM_014.jpg	99
1448.676	0.946	946.1	incongruent	Block2	incongruent/STIM_014.jpg	99
1452.904	0.61	609.9	incongruent	Block2	incongruent/STIM_014.jpg	100
1457.1	1.185	1185.4	incongruent	Block2	incongruent/STIM_015.jpg	99
1462.166	1.023	1022.6	incongruent	Block2	incongruent/STIM_015.jpg	100
1465.587	0.788	787.8	incongruent	Block2	incongruent/STIM_015.jpg	99
1469.002	0.563	563.1	incongruent	Block2	incongruent/STIM_015.jpg	100
1472.824	0.786	785.6	incongruent	Block2	incongruent/STIM_015.jpg	99
1476.175	0.911	911.3	incongruent	Block2	incongruent/STIM_016.jpg	99
1480.53	0.653	653.3	incongruent	Block2	incongruent/STIM_016.jpg	100
1483.673	0.734	734.3	incongruent	Block2	incongruent/STIM_016.jpg	99
1486.724	0.966	966.4	incongruent	Block2	incongruent/STIM_016.jpg	100
1491.427	0.623	622.7	incongruent	Block2	incongruent/STIM_016.jpg	99
1495.729	0.866	865.9	incongruent	Block2	incongruent/STIM_017.jpg	100
1499.182	0.874	874.0	incongruent	Block2	incongruent/STIM_017.jpg	99
1502.344	0.613	612.6	incongruent	Block2	incongruent/STIM_017.jpg	99
1505.141	0.647	647.3	incongruent	Block2	incongruent/STIM_017.jpg	99
1508.055	0.926	926.2	incongruent	Block2	incongruent/STIM_017.jpg	99
1512.573	1.204	1204.1	incongruent	Block2	incongruent/STIM_018.jpg	99
1515.945	1.108	1107.5	incongruent	Block2	incongruent/STIM_018.jpg	99
1519.163	0.985	984.8	incongruent	Block2	incongruent/STIM_018.jpg	99
1522.617	0.922	921.5	incongruent	Block2	incongruent/STIM_018.jpg	100
1526.437	0.854	853.8	incongruent	Block2	incongruent/STIM_018.jpg	99
1531.296	1.148	1147.8	incongruent	Block2	incongruent/STIM_019.jpg	100
1536.006	0.546	546.5	incongruent	Block2	incongruent/STIM_019.jpg	100
1539.197	0.748	747.9	incongruent	Block2	incongruent/STIM_019.jpg	100
1543.946	0.522	521.9	incongruent	Block2	incongruent/STIM_019.jpg	99
1546.499	0.838	838.1	incongruent	Block2	incongruent/STIM_019.jpg	99
1549.621	0.663	662.6	incongruent	Block2	incongruent/STIM_020.jpg	99
1552.976	0.626	626.0	incongruent	Block2	incongruent/STIM_020.jpg	99
1556.16	0.766	766.4	incongruent	Block2	incongruent/STIM_020.jpg	100
1559.883	0.638	637.9	incongruent	Block2	incongruent/STIM_020.jpg	99
1563.028	0.491	490.9	incongruent	Block2	incongruent/STIM_020.jpg	100
1567.125	0.631	630.6	incongruent	Block2	incongruent/STIM_021.jpg	99
1570.639	0.655	654.6	incongruent	Block2	incongruent/STIM_021.jpg	100
1573.587	0.951	951.4	incongruent	Block2	incongruent/STIM_021.jpg	99
1576.932	0.981	981.0	incongruent	Block2	incongruent/STIM_021.jpg	100
1580.431	0.84	839.9	incongruent	Block2	incongruent/STIM_021.jpg	100
1583.443	0.906	906.1	incongruent	Block2	incongruent/STIM_022.jpg	100
1587.704	1.122	1121.8	incongruent	Block2	incongruent/STIM_022.jpg	100
1592.061	0.8	800.0	incongruent	Block2	incongruent/STIM_022.jpg	100
1595.843	0.609	608.7	incongruent	Block2	incongruent/STIM_022.jpg	99
1599.658	0.574	573.8	incongruent	Block2	incongruent/STIM_022.jpg	99
1602.742	0.821	821.0	incongruent	Block2	incongruent/STIM_023.jpg	99
1606.807	0.828	828.5	incongruent	Block2	incongruent/STIM_023.jpg	100
1610.509	0.6	599.9	incongruent	Block2	incongruent/STIM_023.jpg	99
1614.166	0.624	623.7	incongruent	Block2	incongruent/STIM_023.jpg	100
1618.244	0.578	578.5	incongruent	Block2	incongruent/STIM_023.jpg	99
1621.947	1.051	1051.4	incongruent	Block2	incongruent/STIM_024.jpg	100
1625.694	1.11	1109.9	incongruent	Block2	incongruent/STIM_024.jpg	100
1629.8	0.874	874.3	incongruent	Block2	incongruent/STIM_024.jpg	100
1633.77	0.971	971.4	incongruent	Block2	incongruent/STIM_024.jpg	99
1637.411	0.678	678.3	incongruent	Block2	incongruent/STIM_024.jpg	100
1640.696	0.801	800.7	incongruent	Block2	incongruent/STIM_025.jpg	100
1643.773	0.854	854.3	incongruent	Block2	incongruent/STIM_025.jpg	100
1647.084	1.037	1036.9	incongruent	Block2	incongruent/STIM_025.jpg	100
1651.376	0.649	649.1	incongruent	Block2	incongruent/STIM_025.jpg	100
1655.26	0.888	887.6	incongruent	Block2	incongruent/STIM_025.jpg	100
1659.22	0.645	645.2	incongruent	Block2	incongruent/STIM_026.jpg	100
1662.883	1.127	1127.2	incongruent	Block2	incongruent/STIM_026.jpg	100
1667.566	0.9	899.6	incongruent	Block2	incongruent/STIM_026.jpg	99
1672.288	0.476	476.2	incongruent	Block2	incongruent/STIM_026.jpg	99
1675.792	0.611	611.4	incongruent	Block2	incongruent/STIM_026.jpg	99
1678.878	1.158	1158.5	incongruent	Block2	incongruent/STIM_027.jpg	100
1683.605	0.634	634.3	incongruent	Block2	incongruent/STIM_027.jpg	100
1687.52	0.963	962.9	incongruent	Block2	incongruent/STIM_027.jpg	100
1691.18	0.519	518.6	incongruent	Block2	incongruent/STIM_027.jpg	99
1694.47	0.839	839.0	incongruent	Block2	incongruent/STIM_027.jpg	99
1698.035	1.206	1205.7	incongruent	Block2	incongruent/STIM_028.jpg	100
1702.151	1.105	1105.2	incongruent	Block2	incongruent/STIM_028.jpg	100
1705.536	0.703	703.0	incongruent	Block2	incongruent/STIM_028.jpg	99
1710.065	0.523	522.7	incongruent	Block2	incongruent/STIM_028.jpg	100
1713.212	0.667	666.8	incongruent	Block2	incongruent/STIM_028.jpg	99
1716.834	0.667	667.1	incongruent	Block2	incongruent/STIM_029.jpg	99
1720.632	0.969	969.1	incongruent	Block2	incongruent/STIM_029.jpg	100
1724.78	0.752	751.5	incongruent	Block2	incongruent/STIM_029.jpg	100
1727.688	0.812	812.1	incongruent	Block2	incongruent/STIM_029.jpg	99
1732.307	0.652	651.6	incongruent	Block2	incongruent/STIM_029.jpg	99
1735.333	0.618	617.9	congruent	Block2	congruent/STIM_000.jpg	100
1739.887	0.638	638.0	congruent	Block2	congruent/STIM_000.jpg	99
1744.149	0.7	700.5	congruent	Block2	congruent/STIM_000.jpg	99
1747.449	0.624	623.7	congruent	Block2	congruent/STIM_000.jpg	99
1751.438	0.806	805.8	congruent	Block2	congruent/STIM_000.jpg	100
1756.278	0.739	739.1	congruent	Block2	congruent/STIM_001.jpg	100
1760.536	0.508	508.1	congruent	Block2	congruent/STIM_001.jpg	100
1763.502	0.631	630.8	congruent	Block2	congruent/STIM_001.jpg	100
1766.277	0.624	624.3	congruent	Block2	congruent/STIM_001.jpg	100
1769.283	0.66	659.8	congruent	Block2	congruent/STIM_001.jpg	99
1773.317	0.712	712.3	congruent	Block2	congruent/STIM_002.jpg	100
1776.393	0.5	499.6	congruent	Block2	congruent/STIM_002.jpg	100
1779.228	0.62	619.9	congruent	Block2	congruent/STIM_002.jpg	99
1783.146	0.688	688.3	congruent	Block2	congruent/STIM_002.jpg	99
1785.912	0.658	658.5	congruent	Block2	congruent/STIM_002.jpg	100
1790.155	0.775	775.1	congruent	Block2	congruent/STIM_003.jpg	100
1794.127	0.642	641.5	congruent	Block2	congruent/STIM_003.jpg	99
1798.786	0.702	701.6	congruent	Block2	congruent/STIM_003.jpg	99
1803.032	0.588	587.7	congruent	Block2	congruent/STIM_003.jpg	99
1805.828	0.482	481.8	congruent	Block2	congruent/STIM_003.jpg	100
1809.436	0.826	825.9	congruent	Block2	congruent/STIM_004.jpg	99
1814.11	0.796	796.4	congruent	Block2	congruent/STIM_004.jpg	100
1817.83	0.815	815.3	congruent	Block2	congruent/STIM_004.jpg	100
1821.466	0.737	736.9	congruent	Block2	congruent/STIM_004.jpg	99
1824.428	0.706	706.2	congruent	Block2	congruent/STIM_004.jpg	99
1828.988	0.852	852.3	congruent	Block2	congruent/STIM_005.jpg	99
1832.967	0.584	584.4	congruent	Block2	congruent/STIM_005.jpg	99
1837.141	0.652	652.0	congruent	Block2	congruent/STIM_005.jpg	100
1839.902	0.54	540.0	congruent	Block2	congruent/STIM_005.jpg	99
1842.967	0.752	752.2	congruent	Block2	congruent/STIM_005.jpg	99
1845.833	0.6	600.0	congruent	Block2	congruent/STIM_006.jpg	99
1849.837	0.656	656.2	congruent	Block2	congruent/STIM_006.jpg	100
1853.785	0.555	555.0	congruent	Block2	congruent/STIM_006.jpg	100
1857.361	0.698	698.4	congruent	Block2	congruent/STIM_006.jpg	100
1861.512	0.494	494.3	congruent	Block2	congruent/STIM_006.jpg	99
1864.041	0.51	509.8	congruent	Block2	congruent/STIM_007.jpg	100
1867.605	0.596	596.1	congruent	Block2	congruent/STIM_007.jpg	100
1870.591	0.623	623.0	congruent	Block2	congruent/STIM_007.jpg	100
1873.971	0.688	687.5	congruent	Block2	congruent/STIM_007.jpg	99
1877.655	0.843	843.4	congruent	Block2	congruent/STIM_007.jpg	99
1881.909	0.626	625.6	congruent	Block2	congruent/STIM_008.jpg	100
1885.146	0.592	592.0	congruent	Block2	congruent/STIM_008.jpg	99
1888.623	0.478	478.1	congruent	Block2	congruent/STIM_008.jpg	100
1891.696	0.62	619.8	congruent	Block2	congruent/STIM_008.jpg	100
1895.533	0.804	804.3	congruent	Block2	congruent/STIM_008.jpg	100
1899.419	0.629	629.4	congruent	Block2	congruent/STIM_009.jpg	99
1903.783	0.732	732.1	congruent	Block2	congruent/STIM_009.jpg	99
1907.931	0.767	766.9	congruent	Block2	congruent/STIM_009.jpg	100
1910.771	0.644	644.0	congruent	Block2	congruent/STIM_009.jpg	99
1915.13	0.743	743.2	congruent	Block2	congruent/STIM_009.jpg	99
1918.177	0.598	597.8	congruent	Block2	congruent/STIM_010.jpg	99
1920.953	0.685	685.3	congruent	Block2	congruent/STIM_010.jpg	99
1925.167	0.668	668.0	congruent	Block2	congruent/STIM_010.jpg	100
1928.46	0.818	817.6	congruent	Block2	congruent/STIM_010.jpg	100
1932.237	0.571	570.7	congruent	Block2	congruent/STIM_010.jpg	99
1935.996	0.738	737.7	congruent	Block2	congruent/STIM_011.jpg	100
1940.361	0.663	662.8	congruent	Block2	congruent/STIM_011.jpg	99
1944.937	0.832	832.4	congruent	Block2	congruent/STIM_011.jpg	100
1949.026	0.73	730.0	congruent	Block2	congruent/STIM_011.jpg	100
1953.774	0.506	506.5	congruent	Block2	congruent/STIM_011.jpg	100
1957.103	0.539	538.8	congruent	Block2	congruent/STIM_012.jpg	100
1960.225	0.69	690.1	congruent	Block2	congruent/STIM_012.jpg	100
1963.756	0.573	573.4	congruent	Block2	congruent/STIM_012.jpg	100
1966.458	0.758	757.8	congruent	Block2	congruent/STIM_012.jpg	100
1970.547	0.851	851.1	congruent	Block2	congruent/STIM_012.jpg	100
1973.558	0.642	642.3	congruent	Block2	congruent/STIM_013.jpg	99
1976.487	0.494	494.2	congruent	Block2	congruent/STIM_013.jpg	100
1979.773	0.679	678.9	congruent	Block2	congruent/STIM_013.jpg	100
1983.722	0.643	642.8	congruent	Block2	congruent/STIM_013.jpg	100
1986.662	0.626	625.6	congruent	Block2	congruent/STIM_013.jpg	100
1991.108	0.717	717.2	congruent	Block2	congruent/STIM_014.jpg	99
1995.052	0.641	640.6	congruent	Block2	congruent/STIM_014.jpg	99
1999.577	0.686	686.2	congruent	Block2	congruent/STIM_014.jpg	99
2003.019	0.576	576.3	congruent	Block2	congruent/STIM_014.jpg	100
2005.824	0.481	481.1	congruent	Block2	congruent/STIM_014.jpg	99
2009.226	0.85	849.5	congruent	Block2	congruent/STIM_015.jpg	100
2012.791	0.613	613.3	congruent	Block2	congruent/STIM_015.jpg	99
2015.625	0.499	498.8	congruent	Block2	congruent/STIM_015.jpg	99
2019.951	0.593	593.2	congruent	Block2	congruent/STIM_015.jpg	100
2023.657	0.662	661.8	congruent	Block2	congruent/STIM_015.jpg	99
2028.252	0.519	519.3	congruent	Block2	congruent/STIM_016.jpg	99
2032.694	0.552	551.8	congruent	Block2	congruent/STIM_016.jpg	100
2036.478	0.828	828.1	congruent	Block2	congruent/STIM_016.jpg	100
2040.146	0.703	702.9	congruent	Block2	congruent/STIM_016.jpg	100
2044.412	0.526	526.1	congruent	Block2	congruent/STIM_016.jpg	100
2047.619	0.717	716.9	congruent	Block2	congruent/STIM_017.jpg	99
2051.295	0.636	636.1	congruent	Block2	congruent/STIM_017.jpg	100
2055.95	0.567	566.6	congruent	Block2	congruent/STIM_017.jpg	99
2059.084	0.846	846.1	congruent	Block2	congruent/STIM_017.jpg	99
2062.831	0.54	540.2	congruent	Block2	congruent/STIM_017.jpg	100
2065.8	0.749	748.9	congruent	Block2	congruent/STIM_018.jpg	99
2068.814	0.617	617.2	congruent	Block2	congruent/STIM_018.jpg	99
2072.583	0.806	806.5	congruent	Block2	congruent/STIM_018.jpg	100
2076.614	0.646	646.1	congruent	Block2	congruent/STIM_018.jpg	99
2080.351	0.768	768.5	congruent	Block2	congruent/STIM_018.jpg	99
2084.666	0.707	707.2	congruent	Block2	congruent/STIM_019.jpg	99
2089.165	0.555	554.8	congruent	Block2	congruent/STIM_019.jpg	99
2092.882	0.488	487.9	congruent	Block2	congruent/STIM_019.jpg	100
2096.931	0.588	588.1	congruent	Block2	congruent/STIM_019.jpg	99
2100.413	0.754	753.5	congruent	Block2	congruent/STIM_019.jpg	100
2103.948	0.523	523.0	congruent	Block2	congruent/STIM_020.jpg	100
2108.389	0.641	640.7	congruent	Block2	congruent/STIM_020.jpg	99
2112.526	0.698	697.8	congruent	Block2	congruent/STIM_020.jpg	99
2116.248	0.646	645.6	congruent	Block2	congruent/STIM_020.jpg	100
2118.983	0.522	522.0	congruent	Block2	congruent/STIM_020.jpg	99
2122.608	0.717	717.3	congruent	Block2	congruent/STIM_021.jpg	100
2126.133	0.659	659.2	congruent	Block2	congruent/STIM_021.jpg	100
2129.305	0.599	598.9	congruent	Block2	congruent/STIM_021.jpg	100
2131.951	0.783	783.4	congruent	Block2	congruent/STIM_021.jpg	100
2134.822	0.65	650.4	congruent	Block2	congruent/STIM_021.jpg	100
2138.787	0.654	654.2	congruent	Block2	congruent/STIM_022.jpg	100
2143.062	0.552	551.5	congruent	Block2	congruent/STIM_022.jpg	100
2147.009	0.821	821.1	congruent	Block2	congruent/STIM_022.jpg	100
2151.339	0.683	683.4	congruent	Block2	congruent/STIM_022.jpg	99
2154.827	0.716	716.0	congruent	Block2	congruent/STIM_022.jpg	100
2158.784	0.613	613.2	congruent	Block2	congruent/STIM_023.jpg	99
2161.436	0.573	573.3	congruent	Block2	congruent/STIM_023.jpg	99
2165.918	0.525	525.0	congruent	Block2	congruent/STIM_023.jpg	100
2169.409	0.826	826.3	congruent	Block2	congruent/STIM_023.jpg	100
2173.201	0.827	827.4	congruent	Block2	congruent/STIM_023.jpg	100
2176.174	0.7	699.8	congruent	Block2	congruent/STIM_024.jpg	99
2179.682	0.744	743.8	congruent	Block2	congruent/STIM_024.jpg	100
2183.562	0.562	561.6	congruent	Block2	congruent/STIM_024.jpg	99
2187.254	0.55	549.5	congruent	Block2	congruent/STIM_024.jpg	100
2190.396	0.598	597.8	congruent	Block2	congruent/STIM_024.jpg	99
2193.567	0.738	737.7	congruent	Block2	congruent/STIM_025.jpg	100
2198.1	0.525	525.0	congruent	Block2	congruent/STIM_025.jpg	100
2200.942	0.855	854.8	congruent	Block2	congruent/STIM_025.jpg	99
2205.596	0.525	524.8	congruent	Block2	congruent/STIM_025.jpg	99
2209.623	0.772	771.6	congruent	Block2	congruent/STIM_025.jpg	100
2213.567	0.752	751.6	congruent	Block2	congruent/STIM_026.jpg	100
2216.834	0.601	600.6	congruent	Block2	congruent/STIM_026.jpg	99
2220.113	0.522	521.5	congruent	Block2	congruent/STIM_026.jpg	99
2223.397	0.596	595.5	congruent	Block2	congruent/STIM_026.jpg	99
2227.004	0.633	633.0	congruent	Block2	congruent/STIM_026.jpg	100
2231.328	0.77	770.2	congruent	Block2	congruent/STIM_027.jpg	99
2234.626	0.639	639.4	congruent	Block2	congruent/STIM_027.jpg	99
2238.641	0.777	777.4	congruent	Block2	congruent/STIM_027.jpg	99
2242.302	0.476	476.4	congruent	Block2	congruent/STIM_027.jpg	100
2246.72	0.535	534.8	congruent	Block2	congruent/STIM_027.jpg	100
2250.761	0.556	556.4	congruent	Block2	congruent/STIM_028.jpg	100
2254.704	0.489	489.3	congruent	Block2	congruent/STIM_028.jpg	100
2258.612	0.744	744.2	congruent	Block2	congruent/STIM_028.jpg	100
2262.603	0.833	833.1	congruent	Block2	congruent/STIM_028.jpg	99
2266.3	0.811	811.1	congruent	Block2	congruent/STIM_028.jpg	100
2269.208	0.714	713.5	congruent	Block2	congruent/STIM_029.jpg	100
2273.124	0.565	564.7	congruent	Block2	congruent/STIM_029.jpg	100
2277.17	0.797	797.2	congruent	Block2	congruent/STIM_029.jpg	99
2280.991	0.648	648.0	congruent	Block2	congruent/STIM_029.jpg	100
2284.357	0.798	797.6	congruent	Block2	congruent/STIM_029.jpg	99
2288.178	0.862	861.6	incongruent	Block3	incongruent/STIM_000.jpg	99
2291.979	0.745	745.0	incongruent	Block3	incongruent/STIM_000.jpg	99
2295.526	0.85	850.2	incongruent	Block3	incongruent/STIM_000.jpg	99
2300.394	0.976	976.3	incongruent	Block3	incongruent/STIM_000.jpg	100
2304.709	0.604	603.8	incongruent	Block3	incongruent/STIM_000.jpg	99
2307.52	0.807	807.4	incongruent	Block3	incongruent/STIM_001.jpg	99
2311.991	0.831	831.0	incongruent	Block3	incongruent/STIM_001.jpg	99
2314.994	0.968	967.7	incongruent	Block3	incongruent/STIM_001.jpg	99
2319.857	0.617	617.4	incongruent	Block3	incongruent/STIM_001.jpg	100
2323.429	0.788	787.5	incongruent	Block3	incongruent/STIM_001.jpg	99
2328.232	0.802	801.7	incongruent	Block3	incongruent/STIM_002.jpg	99
2332.922	0.704	703.9	incongruent	Block3	incongruent/STIM_002.jpg	99
2336.474	0.872	872.2	incongruent	Block3	incongruent/STIM_002.jpg	99
2340.853	0.599	598.6	incongruent	Block3	incongruent/STIM_002.jpg	100
2343.998	0.685	685.4	incongruent	Block3	incongruent/STIM_002.jpg	100
2347.294	0.955	954.7	incongruent	Block3	incongruent/STIM_003.jpg	99
2351.539	0.91	910.0	incongruent	Block3	incongruent/STIM_003.jpg	99
2354.979	0.984	984.2	incongruent	Block3	incongruent/STIM_003.jpg	100
2358.335	0.812	812.1	incongruent	Block3	incongruent/STIM_003.jpg	99
2363.047	0.466	465.9	incongruent	Block3	incongruent/STIM_003.jpg	99
2365.903	0.889	889.3	incongruent	Block3	incongruent/STIM_004.jpg	100
2370.449	0.826	826.2	incongruent	Block3	incongruent/STIM_004.jpg	99
2373.843	0.888	887.9	incongruent	Block3	incongruent/STIM_004.jpg	100
2378.623	0.821	821.1	incongruent	Block3	incongruent/STIM_004.jpg	99
2381.659	0.869	868.9	incongruent	Block3	incongruent/STIM_004.jpg	99
2386.211	0.742	742.0	incongruent	Block3	incongruent/STIM_005.jpg	99
2390.479	0.832	831.5	incongruent	Block3	incongruent/STIM_005.jpg	99
2393.519	0.637	637.3	incongruent	Block3	incongruent/STIM_005.jpg	100
2398.132	0.725	725.2	incongruent	Block3	incongruent/STIM_005.jpg	99
2402.434	0.56	560.1	incongruent	Block3	incongruent/STIM_005.jpg	100
2405.525	0.829	828.9	incongruent	Block3	incongruent/STIM_006.jpg	99
2408.774	0.95	950.3	incongruent	Block3	incongruent/STIM_006.jpg	100
2412.307	0.998	997.9	incongruent	Block3	incongruent/STIM_006.jpg	99
2417.04	0.485	485.2	incongruent	Block3	incongruent/STIM_006.jpg	99
2421.439	0.739	739.1	incongruent	Block3	incongruent/STIM_006.jpg	99
2426.156	0.569	569.1	incongruent	Block3	incongruent/STIM_007.jpg	99
2430.622	0.599	598.6	incongruent	Block3	incongruent/STIM_007.jpg	99
2433.804	0.594	593.9	incongruent	Block3	incongruent/STIM_007.jpg	100
2437.662	0.745	745.1	incongruent	Block3	incongruent/STIM_007.jpg	99
2442.046	0.527	527.3	incongruent	Block3	incongruent/STIM_007.jpg	99
2446.433	0.821	821.1	incongruent	Block3	incongruent/STIM_008.jpg	100
2450.426	0.804	804.3	incongruent	Block3	incongruent/STIM_008.jpg	99
2454.224	0.687	687.1	incongruent	Block3	incongruent/STIM_008.jpg	100
2457.516	0.572	572.4	incongruent	Block3	incongruent/STIM_008.jpg	99
2461.478	0.756	755.7	incongruent	Block3	incongruent/STIM_008.jpg	99
2464.295	0.895	894.6	incongruent	Block3	incongruent/STIM_009.jpg	100
2468.416	0.918	918.3	incongruent	Block3	incongruent/STIM_009.jpg	99
2473.138	0.848	847.7	incongruent	Block3	incongruent/STIM_009.jpg	100
2476.181	0.637	637.2	incongruent	Block3	incongruent/STIM_009.jpg	100
2479.624	0.864	864.2	incongruent	Block3	incongruent/STIM_009.jpg	99
2484.127	0.986	986.4	incongruent	Block3	incongruent/STIM_010.jpg	99
2488.878	0.697	696.8	incongruent	Block3	incongruent/STIM_010.jpg	100
2492.843	0.472	472.5	incongruent	Block3	incongruent/STIM_010.jpg	100
2495.858	0.828	828.1	incongruent	Block3	incongruent/STIM_010.jpg	99
2499.626	0.665	664.9	incongruent	Block3	incongruent/STIM_010.jpg	99
2503.69	0.939	939.2	incongruent	Block3	incongruent/STIM_011.jpg	100
2507.985	0.949	948.7	incongruent	Block3	incongruent/STIM_011.jpg	99
2511.687	0.486	485.6	incongruent	Block3	incongruent/STIM_011.jpg	100
2515.379	0.622	622.5	incongruent	Block3	incongruent/STIM_011.jpg	99
2519.652	0.749	749.3	incongruent	Block3	incongruent/STIM_011.jpg	100
2522.745	0.727	727.0	incongruent	Block3	incongruent/STIM_012.jpg	100
2526.534	0.527	526.9	incongruent	Block3	incongruent/STIM_012.jpg	100
2530.087	0.716	715.5	incongruent	Block3	incongruent/STIM_012.jpg	100
2533.346	0.588	588.0	incongruent	Block3	incongruent/STIM_012.jpg	100
2537.558	0.938	938.5	incongruent	Block3	incongruent/STIM_012.jpg	99
2541.727	0.881	881.0	incongruent	Block3	incongruent/STIM_013.jpg	100
2545.383	0.639	638.6	incongruent	Block3	incongruent/STIM_013.jpg	99
2548.827	0.569	569.0	incongruent	Block3	incongruent/STIM_013.jpg	99
2551.797	0.995	994.8	incongruent	Block3	incongruent/STIM_013.jpg	100
2555.801	0.874	874.0	incongruent	Block3	incongruent/STIM_013.jpg	99
2559.647	0.94	940.4	incongruent	Block3	incongruent/STIM_014.jpg	100
2562.903	0.494	494.4	incongruent	Block3	incongruent/STIM_014.jpg	99
2565.597	0.625	625.3	incongruent	Block3	incongruent/STIM_014.jpg	99
2569.96	0.757	757.1	incongruent	Block3	incongruent/STIM_014.jpg	99
2573.568	0.532	532.4	incongruent	Block3	incongruent/STIM_014.jpg	99
2576.633	0.89	890.0	incongruent	Block3	incongruent/STIM_015.jpg	99
2580.754	0.696	695.9	incongruent	Block3	incongruent/STIM_015.jpg	99
2585.319	0.79	789.9	incongruent	Block3	incongruent/STIM_015.jpg	99
2588.808	0.955	955.3	incongruent	Block3	incongruent/STIM_015.jpg	100
2591.896	0.635	635.3	incongruent	Block3	incongruent/STIM_015.jpg	99
2596.508	0.664	664.1	incongruent	Block3	incongruent/STIM_016.jpg	100
2600.312	0.788	788.3	incongruent	Block3	incongruent/STIM_016.jpg	99
2604.407	0.924	923.7	incongruent	Block3	incongruent/STIM_016.jpg	100
2607.9	0.71	709.5	incongruent	Block3	incongruent/STIM_016.jpg	99
2612.438	0.841	840.8	incongruent	Block3	incongruent/STIM_016.jpg	99
2617.008	0.554	553.8	incongruent	Block3	incongruent/STIM_017.jpg	100
2620.499	0.644	644.2	incongruent	Block3	incongruent/STIM_017.jpg	99
2625.048	0.525	525.3	incongruent	Block3	incongruent/STIM_017.jpg	99
2628.575	0.738	738.1	incongruent	Block3	incongruent/STIM_017.jpg	99
2633.156	0.49	490.0	incongruent	Block3	incongruent/STIM_017.jpg	100
2636.744	0.703	703.0	incongruent	Block3	incongruent/STIM_018.jpg	100
2640.9	0.715	715.1	incongruent	Block3	incongruent/STIM_018.jpg	100
2645.426	0.877	877.0	incongruent	Block3	incongruent/STIM_018.jpg	100
2649.397	0.88	879.9	incongruent	Block3	incongruent/STIM_018.jpg	99
2653.234	0.955	954.8	incongruent	Block3	incongruent/STIM_018.jpg	99
2656.995	0.97	970.0	incongruent	Block3	incongruent/STIM_019.jpg	100
2661.039	0.697	697.3	incongruent	Block3	incongruent/STIM_019.jpg	100
2665.509	0.596	595.7	incongruent	Block3	incongruent/STIM_019.jpg	99
2668.891	0.887	887.3	incongruent	Block3	incongruent/STIM_019.jpg	99
2673.066	0.666	666.0	incongruent	Block3	incongruent/STIM_019.jpg	100
2676.82	0.895	894.7	incongruent	Block3	incongruent/STIM_020.jpg	99
2680.597	0.825	824.6	incongruent	Block3	incongruent/STIM_020.jpg	100
2684.816	0.801	801.0	incongruent	Block3	incongruent/STIM_020.jpg	99
2688.317	0.663	663.2	incongruent	Block3	incongruent/STIM_020.jpg	99
2692.311	0.848	847.5	incongruent	Block3	incongruent/STIM_020.jpg	100
2695.396	0.813	813.0	incongruent	Block3	incongruent/STIM_021.jpg	100
2698.797	0.821	821.1	incongruent	Block3	incongruent/STIM_021.jpg	99
2703.634	0.9	900.2	incongruent	Block3	incongruent/STIM_021.jpg	100
2707.408	0.604	603.7	incongruent	Block3	incongruent/STIM_021.jpg	100
2710.895	0.587	586.8	incongruent	Block3	incongruent/STIM_021.jpg	99
2714.034	0.851	851.2	incongruent	Block3	incongruent/STIM_022.jpg	100
2718.359	0.952	952.2	incongruent	Block3	incongruent/STIM_022.jpg	99
2723.191	0.993	993.3	incongruent	Block3	incongruent/STIM_022.jpg	99
2726.611	0.767	767.3	incongruent	Block3	incongruent/STIM_022.jpg	100
2730.937	0.95	949.6	incongruent	Block3	incongruent/STIM_022.jpg	100
2735.833	0.648	647.8	incongruent	Block3	incongruent/STIM_023.jpg	100
2739.604	0.579	578.8	incongruent	Block3	incongruent/STIM_023.jpg	100
2743.601	0.878	878.0	incongruent	Block3	incongruent/STIM_023.jpg	100
2747.883	0.8	800.0	incongruent	Block3	incongruent/STIM_023.jpg	99
2750.996	0.859	858.8	incongruent	Block3	incongruent/STIM_023.jpg	99
2755.595	0.581	581.2	incongruent	Block3	incongruent/STIM_024.jpg	99
2759.203	0.989	989.1	incongruent	Block3	incongruent/STIM_024.jpg	99
2762.612	0.993	992.8	incongruent	Block3	incongruent/STIM_024.jpg	99
2766.304	0.932	932.3	incongruent	Block3	incongruent/STIM_024.jpg	100
2770.764	0.829	829.2	incongruent	Block3	incongruent/STIM_024.jpg	99
2774.817	0.812	812.1	incongruent	Block3	incongruent/STIM_025.jpg	99
2779.259	0.943	943.0	incongruent	Block3	incongruent/STIM_025.jpg	99
2782.354	0.756	756.3	incongruent	Block3	incongruent/STIM_025.jpg	99
2786.573	0.717	717.0	incongruent	Block3	incongruent/STIM_025.jpg	100
2789.788	0.956	955.9	incongruent	Block3	incongruent/STIM_025.jpg	99
2794.179	0.831	831.1	incongruent	Block3	incongruent/STIM_026.jpg	99
2798.216	0.808	808.3	incongruent	Block3	incongruent/STIM_026.jpg	100
2801.166	0.513	512.7	incongruent	Block3	incongruent/STIM_026.jpg	99
2804.918	0.583	582.9	incongruent	Block3	incongruent/STIM_026.jpg	100
2808.068	0.812	812.2	incongruent	Block3	incongruent/STIM_026.jpg	99
2812.586	0.976	976.4	incongruent	Block3	incongruent/STIM_027.jpg	100
2815.655	0.703	702.9	incongruent	Block3	incongruent/STIM_027.jpg	100
2819.836	0.795	794.8	incongruent	Block3	incongruent/STIM_027.jpg	99
2823.52	0.577	576.6	incongruent	Block3	incongruent/STIM_027.jpg	99
2826.826	0.559	559.0	incongruent	Block3	incongruent/STIM_027.jpg	100
2831.103	0.554	554.1	incongruent	Block3	incongruent/STIM_028.jpg	99
2834.371	0.783	782.9	incongruent	Block3	incongruent/STIM_028.jpg	100
2838.199	0.984	983.8	incongruent	Block3	incongruent/STIM_028.jpg	99
2842.686	0.941	940.6	incongruent	Block3	incongruent/STIM_028.jpg	99
2846.281	0.513	513.1	incongruent	Block3	incongruent/STIM_028.jpg	100
2848.827	0.871	870.6	incongruent	Block3	incongruent/STIM_029.jpg	99
2852.121	0.853	852.8	incongruent	Block3	incongruent/STIM_029.jpg	100
2855.356	0.898	898.1	incongruent	Block3	incongruent/STIM_029.jpg	100
2859.396	0.639	638.6	incongruent	Block3	incongruent/STIM_029.jpg	99
2863.591	0.735	734.6	incongruent	Block3	incongruent/STIM_029.jpg	99
2867.187	0.623	622.9	congruent	Block3	congruent/STIM_000.jpg	100
2870.943	0.85	849.8	congruent	Block3	congruent/STIM_000.jpg	99
2875.461	0.497	496.9	congruent	Block3	congruent/STIM_000.jpg	99
2879.839	0.625	625.2	congruent	Block3	congruent/STIM_000.jpg	99
2884.117	0.613	613.1	congruent	Block3	congruent/STIM_000.jpg	100
2887.456	0.671	671.0	congruent	Block3	congruent/STIM_001.jpg	100
2890.85	0.824	823.5	congruent	Block3	congruent/STIM_001.jpg	100
2894.509	0.843	843.0	congruent	Block3	congruent/STIM_001.jpg	100
2899.163	0.822	822.1	congruent	Block3	congruent/STIM_001.jpg	99
2902.774	0.544	544.1	congruent	Block3	congruent/STIM_001.jpg	99
2906.075	0.744	743.9	congruent	Block3	congruent/STIM_002.jpg	100
2909.265	0.754	754.1	congruent	Block3	congruent/STIM_002.jpg	99
2913.845	0.826	825.7	congruent	Block3	congruent/STIM_002.jpg	100
2918.436	0.737	737.0	congruent	Block3	congruent/STIM_002.jpg	100
2921.936	0.828	828.2	congruent	Block3	congruent/STIM_002.jpg	99
2926.054	0.819	818.9	congruent	Block3	congruent/STIM_003.jpg	100
2930.17	0.723	722.7	congruent	Block3	congruent/STIM_003.jpg	100
2934.738	0.687	687.1	congruent	Block3	congruent/STIM_003.jpg	99
2938.333	0.794	793.6	congruent	Block3	congruent/STIM_003.jpg	99
2942.182	0.557	557.0	congruent	Block3	congruent/STIM_003.jpg	100
2945.789	0.708	707.7	congruent	Block3	congruent/STIM_004.jpg	100
2949.53	0.837	837.2	congruent	Block3	congruent/STIM_004.jpg	99
2954.275	0.845	844.8	congruent	Block3	congruent/STIM_004.jpg	99
2958.235	0.641	640.8	congruent	Block3	congruent/STIM_004.jpg	99
2961.855	0.795	795.3	congruent	Block3	congruent/STIM_004.jpg	100
2965.18	0.557	557.1	congruent	Block3	congruent/STIM_005.jpg	99
2968.174	0.843	843.0	congruent	Block3	congruent/STIM_005.jpg	99
2971.976	0.651	650.6	congruent	Block3	congruent/STIM_005.jpg	100
2975.759	0.691	690.9	congruent	Block3	congruent/STIM_005.jpg	99
2978.687	0.8	799.6	congruent	Block3	congruent/STIM_005.jpg	99
2982.662	0.677	676.7	congruent	Block3	congruent/STIM_006.jpg	100
2986.592	0.511	511.5	congruent	Block3	congruent/STIM_006.jpg	99
2989.775	0.586	585.5	congruent	Block3	congruent/STIM_006.jpg	100
2992.449	0.797	796.8	congruent	Block3	congruent/STIM_006.jpg	99
2995.884	0.56	560.2	congruent	Block3	congruent/STIM_006.jpg	99
2998.564	0.788	787.7	congruent	Block3	congruent/STIM_007.jpg	100
3001.568	0.703	702.8	congruent	Block3	congruent/STIM_007.jpg	100
3004.946	0.739	738.6	congruent	Block3	congruent/STIM_007.jpg	99
3009.135	0.74	740.2	congruent	Block3	congruent/STIM_007.jpg	100
3013.298	0.698	698.2	congruent	Block3	congruent/STIM_007.jpg	99
3018.015	0.613	613.3	congruent	Block3	congruent/STIM_008.jpg	99
3020.7	0.642	642.2	congruent	Block3	congruent/STIM_008.jpg	100
3025.344	0.729	729.2	congruent	Block3	congruent/STIM_008.jpg	100
3029.406	0.594	593.9	congruent	Block3	congruent/STIM_008.jpg	100
3033.577	0.688	687.9	congruent	Block3	congruent/STIM_008.jpg	99
3037.381	0.561	560.7	congruent	Block3	congruent/STIM_009.jpg	100
3041.541	0.823	822.7	congruent	Block3	congruent/STIM_009.jpg	100
3044.973	0.48	480.0	congruent	Block3	congruent/STIM_009.jpg	99
3048.461	0.562	562.3	congruent	Block3	congruent/STIM_009.jpg	99
3052.989	0.62	619.9	congruent	Block3	congruent/STIM_009.jpg	100
3057.05	0.658	657.5	congruent	Block3	congruent/STIM_010.jpg	99
3061.654	0.679	679.2	congruent	Block3	congruent/STIM_010.jpg	99
3066.019	0.622	622.4	congruent	Block3	congruent/STIM_010.jpg	100
3068.722	0.694	693.7	congruent	Block3	congruent/STIM_010.jpg	100
3073.04	0.66	660.4	congruent	Block3	congruent/STIM_010.jpg	100
3076.445	0.597	596.8	congruent	Block3	congruent/STIM_011.jpg	99
3079.546	0.788	788.0	congruent	Block3	congruent/STIM_011.jpg	99
3083.247	0.522	522.3	congruent	Block3	congruent/STIM_011.jpg	99
3086.519	0.495	495.2	congruent	Block3	congruent/STIM_011.jpg	99
3089.663	0.559	558.9	congruent	Block3	congruent/STIM_011.jpg	100
3093.193	0.768	768.3	congruent	Block3	congruent/STIM_012.jpg	100
3096.595	0.661	660.9	congruent	Block3	congruent/STIM_012.jpg	99
3099.736	0.507	506.8	congruent	Block3	congruent/STIM_012.jpg	100
3103.216	0.83	830.3	congruent	Block3	congruent/STIM_012.jpg	100
3106.16	0.795	794.8	congruent	Block3	congruent/STIM_012.jpg	100
3109.228	0.484	483.7	congruent	Block3	congruent/STIM_013.jpg	99
3113.044	0.583	583.1	congruent	Block3	congruent/STIM_013.jpg	100
3116.098	0.706	706.5	congruent	Block3	congruent/STIM_013.jpg	99
3119.547	0.591	591.0	congruent	Block3	congruent/STIM_013.jpg	99
3123.032	0.811	811.3	congruent	Block3	congruent/STIM_013.jpg	100
3127.166	0.81	809.8	congruent	Block3	congruent/STIM_014.jpg	100
3130.211	0.699	698.6	congruent	Block3	congruent/STIM_014.jpg	99
3133.997	0.643	643.1	congruent	Block3	congruent/STIM_014.jpg	100
3137.023	0.551	551.4	congruent	Block3	congruent/STIM_014.jpg	100
3140.364	0.629	629.0	congruent	Block3	congruent/STIM_014.jpg	100
3143.262	0.594	593.5	congruent	Block3	congruent/STIM_015.jpg	99
3147.782	0.77	769.8	congruent	Block3	congruent/STIM_015.jpg	100
3151.76	0.532	532.3	congruent	Block3	congruent/STIM_015.jpg	99
3155.954	0.584	584.4	congruent	Block3	congruent/STIM_015.jpg	100
3159.723	0.797	797.1	congruent	Block3	congruent/STIM_015.jpg	100
3163.836	0.789	788.6	congruent	Block3	congruent/STIM_016.jpg	100
3168.63	0.796	795.8	congruent	Block3	congruent/STIM_016.jpg	99
3173.219	0.687	687.4	congruent	Block3	congruent/STIM_016.jpg	99
3176.964	0.715	714.8	congruent	Block3	congruent/STIM_016.jpg	100
3180.336	0.576	576.0	congruent	Block3	congruent/STIM_016.jpg	99
3183.814	0.767	766.8	congruent	Block3	congruent/STIM_017.jpg	100
3188.027	0.855	854.8	congruent	Block3	congruent/STIM_017.jpg	100
3192.76	0.69	690.5	congruent	Block3	congruent/STIM_017.jpg	99
3196.483	0.527	526.9	congruent	Block3	congruent/STIM_017.jpg	99
3200.801	0.502	501.6	congruent	Block3	congruent/STIM_017.jpg	100
3204.969	0.638	637.7	congruent	Block3	congruent/STIM_018.jpg	100
3208.89	0.741	740.9	congruent	Block3	congruent/STIM_018.jpg	99
3213.322	0.727	726.6	congruent	Block3	congruent/STIM_018.jpg	100
3216.101	0.711	711.4	congruent	Block3	congruent/STIM_018.jpg	100
3219.305	0.577	576.6	congruent	Block3	congruent/STIM_018.jpg	100
3223.733	0.771	771.4	congruent	Block3	congruent/STIM_019.jpg	99
3227.031	0.791	790.9	congruent	Block3	congruent/STIM_019.jpg	100
3230.651	0.618	618.2	congruent	Block3	congruent/STIM_019.jpg	100
3234.024	0.766	766.3	congruent	Block3	congruent/STIM_019.jpg	99
3238.222	0.748	748.3	congruent	Block3	congruent/STIM_019.jpg	99
3241.86	0.563	562.8	congruent	Block3	congruent/STIM_020.jpg	100
3244.919	0.479	479.4	congruent	Block3	congruent/STIM_020.jpg	100
3247.686	0.663	662.8	congruent	Block3	congruent/STIM_020.jpg	99
3250.395	0.671	670.7	congruent	Block3	congruent/STIM_020.jpg	100
3254.021	0.535	535.4	congruent	Block3	congruent/STIM_020.jpg	99
3257.117	0.66	659.9	congruent	Block3	congruent/STIM_021.jpg	99
3261.772	0.729	728.8	congruent	Block3	congruent/STIM_021.jpg	100
3266.087	0.552	552.4	congruent	Block3	congruent/STIM_021.jpg	100
3268.771	0.77	770.3	congruent	Block3	congruent/STIM_021.jpg	99
3272.163	0.648	647.5	congruent	Block3	congruent/STIM_021.jpg	100
3275.92	0.488	488.5	congruent	Block3	congruent/STIM_022.jpg	99
3279.348	0.792	792.0	congruent	Block3	congruent/STIM_022.jpg	100
3283.291	0.683	683.3	congruent	Block3	congruent/STIM_022.jpg	99
3287.73	0.542	541.5	congruent	Block3	congruent/STIM_022.jpg	100
3290.858	0.538	537.7	congruent	Block3	congruent/STIM_022.jpg	100
3294.373	0.613	613.1	congruent	Block3	congruent/STIM_023.jpg	100
3298.317	0.678	678.0	congruent	Block3	congruent/STIM_023.jpg	99
3301.826	0.807	806.7	congruent	Block3	congruent/STIM_023.jpg	99
3305.265	0.814	813.5	congruent	Block3	congruent/STIM_023.jpg	99
3309.76	0.499	499.1	congruent	Block3	congruent/STIM_023.jpg	99
3313.906	0.587	587.1	congruent	Block3	congruent/STIM_024.jpg	100
3316.708	0.625	624.6	congruent	Block3	congruent/STIM_024.jpg	99
3320.067	0.758	757.5	congruent	Block3	congruent/STIM_024.jpg	99
3324.211	0.842	842.5	congruent	Block3	congruent/STIM_024.jpg	99
3327.364	0.548	548.1	congruent	Block3	congruent/STIM_024.jpg	100
3331.524	0.812	812.3	congruent	Block3	congruent/STIM_025.jpg	100
3335.772	0.798	798.4	congruent	Block3	congruent/STIM_025.jpg	99
3338.73	0.496	496.4	congruent	Block3	congruent/STIM_025.jpg	100
3342.23	0.793	793.0	congruent	Block3	congruent/STIM_025.jpg	100
3345.937	0.531	531.1	congruent	Block3	congruent/STIM_025.jpg	100
3350.22	0.504	504.5	congruent	Block3	congruent/STIM_026.jpg	99
3353.332	0.5	500.0	congruent	Block3	congruent/STIM_026.jpg	99
3356.295	0.837	837.2	congruent	Block3	congruent/STIM_026.jpg	100
3361.127	0.776	776.2	congruent	Block3	congruent/STIM_026.jpg	99
3365.794	0.799	799.2	congruent	Block3	congruent/STIM_026.jpg	99
3370.388	0.66	660.1	congruent	Block3	congruent/STIM_027.jpg	100
3374.184	0.776	776.5	congruent	Block3	congruent/STIM_027.jpg	99
3378.71	0.693	693.4	congruent	Block3	congruent/STIM_027.jpg	100
3382.456	0.553	552.9	congruent	Block3	congruent/STIM_027.jpg	99
3385.856	0.662	661.6	congruent	Block3	congruent/STIM_027.jpg	100
3388.566	0.753	753.3	congruent	Block3	congruent/STIM_028.jpg	99
3391.916	0.508	508.3	congruent	Block3	congruent/STIM_028.jpg	100
3395.54	0.686	685.9	congruent	Block3	congruent/STIM_028.jpg	99
3398.318	0.735	734.7	congruent	Block3	congruent/STIM_028.jpg	100
3402.148	0.734	734.3	congruent	Block3	congruent/STIM_028.jpg	99
3406.364	0.534	534.0	congruent	Block3	congruent/STIM_029.jpg	99
3409.382	0.493	493.1	congruent	Block3	congruent/STIM_029.jpg	99
3412.257	0.645	645.1	congruent	Block3	congruent/STIM_029.jpg	100
3416.234	0.778	777.6	congruent	Block3	congruent/STIM_029.jpg	100
3420.017	0.836	836.2	congruent	Block3	congruent/STIM_029.jpg	99
