onset	duration	accuracy_binary	trial_type	learning_stage	stimulus
0.0	1.284	1	incongruent	Block1	incongruent/STIM_000.jpg
3.504	0.745	1	incongruent	Block1	incongruent/STIM_000.jpg
7.955	0.977	1	incongruent	Block1	incongruent/STIM_000.jpg
11.896	0.572	1	incongruent	Block1	incongruent/STIM_000.jpg
16.057	0.645	1	incongruent	Block1	incongruent/STIM_000.jpg
19.525	1.164	1	incongruent	Block1	incongruent/STIM_001.jpg
24.495	0.666	1	incongruent	Block1	incongruent/STIM_001.jpg
27.764	1.134	1	incongruent	Block1	incongruent/STIM_001.jpg
31.635	0.706	1	incongruent	Block1	incongruent/STIM_001.jpg
34.893	0.692	1	incongruent	Block1	incongruent/STIM_001.jpg
39.407	0.737	0	incongruent	Block1	incongruent/STIM_002.jpg
43.437	0.871	1	incongruent	Block1	incongruent/STIM_002.jpg
47.446	0.805	1	incongruent	Block1	incongruent/STIM_002.jpg
51.454	0.812	1	incongruent	Block1	incongruent/STIM_002.jpg
55.518	1.101	1	incongruent	Block1	incongruent/STIM_002.jpg
58.932	1.412	1	incongruent	Block1	incongruent/STIM_003.jpg
62.702	0.868	0	incongruent	Block1	incongruent/STIM_003.jpg
67.503	1.114	1	incongruent	Block1	incongruent/STIM_003.jpg
71.633	0.602	1	incongruent	Block1	incongruent/STIM_003.jpg
75.857	0.67	1	incongruent	Block1	incongruent/STIM_003.jpg
80.192	0.971	0	incongruent	Block1	incongruent/STIM_004.jpg
83.719	0.957	1	incongruent	Block1	incongruent/STIM_004.jpg
88.321	0.865	1	incongruent	Block1	incongruent/STIM_004.jpg
92.347	0.966	1	incongruent	Block1	incongruent/STIM_004.jpg
96.928	0.978	1	incongruent	Block1	incongruent/STIM_004.jpg
101.343	1.01	1	incongruent	Block1	incongruent/STIM_005.jpg
104.641	1.205	1	incongruent	Block1	incongruent/STIM_005.jpg
108.961	0.688	1	incongruent	Block1	incongruent/STIM_005.jpg
112.54	0.769	0	incongruent	Block1	incongruent/STIM_005.jpg
117.18	1.08	1	incongruent	Block1	incongruent/STIM_005.jpg
121.17	1.162	1	incongruent	Block1	incongruent/STIM_006.jpg
124.818	0.93	0	incongruent	Block1	incongruent/STIM_006.jpg
128.619	1.018	1	incongruent	Block1	incongruent/STIM_006.jpg
132.227	0.778	1	incongruent	Block1	incongruent/STIM_006.jpg
136.251	0.611	1	incongruent	Block1	incongruent/STIM_006.jpg
140.777	0.786	1	incongruent	Block1	incongruent/STIM_007.jpg
145.6	0.755	1	incongruent	Block1	incongruent/STIM_007.jpg
149.553	1.21	1	incongruent	Block1	incongruent/STIM_007.jpg
154.011	1.166	1	incongruent	Block1	incongruent/STIM_007.jpg
157.638	0.558	1	incongruent	Block1	incongruent/STIM_007.jpg
162.094	1.32	1	incongruent	Block1	incongruent/STIM_008.jpg
166.139	1.128	0	incongruent	Block1	incongruent/STIM_008.jpg
170.587	1.004	1	incongruent	Block1	incongruent/STIM_008.jpg
174.977	1.175	1	incongruent	Block1	incongruent/STIM_008.jpg
179.499	0.887	1	incongruent	Block1	incongruent/STIM_008.jpg
184.053	0.713	1	incongruent	Block1	incongruent/STIM_009.jpg
188.72	0.662	1	incongruent	Block1	incongruent/STIM_009.jpg
192.076	1.242	1	incongruent	Block1	incongruent/STIM_009.jpg
196.717	1.126	1	incongruent	Block1	incongruent/STIM_009.jpg
201.774	0.569	1	incongruent	Block1	incongruent/STIM_009.jpg
204.942	1.08	1	incongruent	Block1	incongruent/STIM_010.jpg
208.245	1.082	1	incongruent	Block1	incongruent/STIM_010.jpg
211.998	0.606	1	incongruent	Block1	incongruent/STIM_010.jpg
215.917	1.189	1	incongruent	Block1	incongruent/STIM_010.jpg
220.61	0.631	1	incongruent	Block1	incongruent/STIM_010.jpg
225.128	0.883	1	incongruent	Block1	incongruent/STIM_011.jpg
229.958	0.785	1	incongruent	Block1	incongruent/STIM_011.jpg
234.576	0.758	1	incongruent	Block1	incongruent/STIM_011.jpg
238.85	1.151	1	incongruent	Block1	incongruent/STIM_011.jpg
243.698	0.935	1	incongruent	Block1	incongruent/STIM_011.jpg
247.5	1.261	1	incongruent	Block1	incongruent/STIM_012.jpg
251.277	0.959	1	incongruent	Block1	incongruent/STIM_012.jpg
254.626	1.233	0	incongruent	Block1	incongruent/STIM_012.jpg
258.927	1.089	0	incongruent	Block1	incongruent/STIM_012.jpg
263.912	0.763	1	incongruent	Block1	incongruent/STIM_012.jpg
267.491	1.142	0	incongruent	Block1	incongruent/STIM_013.jpg
272.587	1.274	1	incongruent	Block1	incongruent/STIM_013.jpg
276.484	0.775	1	incongruent	Block1	incongruent/STIM_013.jpg
280.635	1.199	1	incongruent	Block1	incongruent/STIM_013.jpg
285.806	0.785	1	incongruent	Block1	incongruent/STIM_013.jpg
289.402	1.282	1	incongruent	Block1	incongruent/STIM_014.jpg
293.603	1.131	1	incongruent	Block1	incongruent/STIM_014.jpg
296.981	0.991	1	incongruent	Block1	incongruent/STIM_014.jpg
300.665	0.672	1	incongruent	Block1	incongruent/STIM_014.jpg
304.03	0.785	1	incongruent	Block1	incongruent/STIM_014.jpg
308.372	0.763	1	incongruent	Block1	incongruent/STIM_015.jpg
312.742	0.828	1	incongruent	Block1	incongruent/STIM_015.jpg
317.171	1.047	1	incongruent	Block1	incongruent/STIM_015.jpg
320.629	0.735	1	incongruent	Block1	incongruent/STIM_015.jpg
324.643	0.739	1	incongruent	Block1	incongruent/STIM_015.jpg
327.609	0.729	1	incongruent	Block1	incongruent/STIM_016.jpg
332.247	0.945	1	incongruent	Block1	incongruent/STIM_016.jpg
336.898	1.237	1	incongruent	Block1	incongruent/STIM_016.jpg
341.752	0.76	1	incongruent	Block1	incongruent/STIM_016.jpg
345.192	0.565	1	incongruent	Block1	incongruent/STIM_016.jpg
348.204	1.344	1	incongruent	Block1	incongruent/STIM_017.jpg
352.7	1.299	1	incongruent	Block1	incongruent/STIM_017.jpg
357.492	0.903	1	incongruent	Block1	incongruent/STIM_017.jpg
362.251	0.665	1	incongruent	Block1	incongruent/STIM_017.jpg
366.049	0.981	1	incongruent	Block1	incongruent/STIM_017.jpg
369.668	1.349	1	incongruent	Block1	incongruent/STIM_018.jpg
373.888	1.309	1	incongruent	Block1	incongruent/STIM_018.jpg
377.812	0.802	1	incongruent	Block1	incongruent/STIM_018.jpg
381.449	0.816	1	incongruent	Block1	incongruent/STIM_018.jpg
385.114	0.634	1	incongruent	Block1	incongruent/STIM_018.jpg
388.653	1.404	1	incongruent	Block1	incongruent/STIM_019.jpg
392.937	0.844	1	incongruent	Block1	incongruent/STIM_019.jpg
397.424	0.617	1	incongruent	Block1	incongruent/STIM_019.jpg
401.932	1.102	1	incongruent	Block1	incongruent/STIM_019.jpg
406.55	0.625	1	incongruent	Block1	incongruent/STIM_019.jpg
410.178	0.778	0	incongruent	Block1	incongruent/STIM_020.jpg
413.76	0.742	1	incongruent	Block1	incongruent/STIM_020.jpg
418.404	0.841	1	incongruent	Block1	incongruent/STIM_020.jpg
421.351	0.79	1	incongruent	Block1	incongruent/STIM_020.jpg
426.096	0.593	1	incongruent	Block1	incongruent/STIM_020.jpg
430.147	1.385	1	incongruent	Block1	incongruent/STIM_021.jpg
434.76	1.165	1	incongruent	Block1	incongruent/STIM_021.jpg
439.025	0.708	1	incongruent	Block1	incongruent/STIM_021.jpg
443.512	1.01	1	incongruent	Block1	incongruent/STIM_021.jpg
448.293	0.703	1	incongruent	Block1	incongruent/STIM_021.jpg
452.397	1.112	1	incongruent	Block1	incongruent/STIM_022.jpg
455.804	1.004	1	incongruent	Block1	incongruent/STIM_022.jpg
459.545	1.106	1	incongruent	Block1	incongruent/STIM_022.jpg
463.8	0.952	1	incongruent	Block1	incongruent/STIM_022.jpg
467.111	0.857	1	incongruent	Block1	incongruent/STIM_022.jpg
470.418	1.046	1	incongruent	Block1	incongruent/STIM_023.jpg
474.268	1.131	0	incongruent	Block1	incongruent/STIM_023.jpg
478.156	0.851	1	incongruent	Block1	incongruent/STIM_023.jpg
481.786	0.812	1	incongruent	Block1	incongruent/STIM_023.jpg
485.203	0.953	1	incongruent	Block1	incongruent/STIM_023.jpg
489.675	1.06	0	incongruent	Block1	incongruent/STIM_024.jpg
493.018	0.919	0	incongruent	Block1	incongruent/STIM_024.jpg
497.502	0.85	1	incongruent	Block1	incongruent/STIM_024.jpg
501.941	0.692	1	incongruent	Block1	incongruent/STIM_024.jpg
506.156	0.578	1	incongruent	Block1	incongruent/STIM_024.jpg
508.945	0.667	1	incongruent	Block1	incongruent/STIM_025.jpg
512.208	0.863	1	incongruent	Block1	incongruent/STIM_025.jpg
516.166	0.732	1	incongruent	Block1	incongruent/STIM_025.jpg
519.929	1.151	1	incongruent	Block1	incongruent/STIM_025.jpg
523.821	0.988	1	incongruent	Block1	incongruent/STIM_025.jpg
527.859	0.849	1	incongruent	Block1	incongruent/STIM_026.jpg
531.752	1.161	1	incongruent	Block1	incongruent/STIM_026.jpg
536.558	0.793	1	incongruent	Block1	incongruent/STIM_026.jpg
541.186	0.573	1	incongruent	Block1	incongruent/STIM_026.jpg
545.751	0.849	1	incongruent	Block1	incongruent/STIM_026.jpg
550.448	1.12	1	incongruent	Block1	incongruent/STIM_027.jpg
554.576	0.645	0	incongruent	Block1	incongruent/STIM_027.jpg
558.413	0.655	1	incongruent	Block1	incongruent/STIM_027.jpg
561.547	0.657	1	incongruent	Block1	incongruent/STIM_027.jpg
564.549	0.794	1	incongruent	Block1	incongruent/STIM_027.jpg
567.488	0.776	1	incongruent	Block1	incongruent/STIM_028.jpg
570.747	1.11	1	incongruent	Block1	incongruent/STIM_028.jpg
574.782	0.885	0	incongruent	Block1	incongruent/STIM_028.jpg
578.829	1.16	1	incongruent	Block1	incongruent/STIM_028.jpg
582.683	1.075	1	incongruent	Block1	incongruent/STIM_028.jpg
587.249	1.032	1	incongruent	Block1	incongruent/STIM_029.jpg
591.125	0.827	1	incongruent	Block1	incongruent/STIM_029.jpg
595.952	0.791	1	incongruent	Block1	incongruent/STIM_029.jpg
599.384	1.14	1	incongruent	Block1	incongruent/STIM_029.jpg
603.501	0.893	1	incongruent	Block1	incongruent/STIM_029.jpg
607.813	0.515	1	congruent	Block1	congruent/STIM_000.jpg
610.635	0.815	1	congruent	Block1	congruent/STIM_000.jpg
614.871	0.824	1	congruent	Block1	congruent/STIM_000.jpg
619.0	0.788	1	congruent	Block1	congruent/STIM_000.jpg
622.396	0.579	1	congruent	Block1	congruent/STIM_000.jpg
625.776	0.84	1	congruent	Block1	congruent/STIM_001.jpg
630.234	0.486	1	congruent	Block1	congruent/STIM_001.jpg
632.994	0.806	1	congruent	Block1	congruent/STIM_001.jpg
636.217	0.692	1	congruent	Block1	congruent/STIM_001.jpg
639.281	0.727	1	congruent	Block1	congruent/STIM_001.jpg
642.621	0.847	1	congruent	Block1	congruent/STIM_002.jpg
646.968	0.576	1	congruent	Block1	congruent/STIM_002.jpg
651.048	0.577	0	congruent	Block1	congruent/STIM_002.jpg
655.408	0.77	1	congruent	Block1	congruent/STIM_002.jpg
659.486	0.846	1	congruent	Block1	congruent/STIM_002.jpg
663.47	0.55	1	congruent	Block1	congruent/STIM_003.jpg
667.975	0.487	1	congruent	Block1	congruent/STIM_003.jpg
671.136	0.698	1	congruent	Block1	congruent/STIM_003.jpg
674.146	0.695	1	congruent	Block1	congruent/STIM_003.jpg
678.835	0.558	1	congruent	Block1	congruent/STIM_003.jpg
682.883	0.608	1	congruent	Block1	congruent/STIM_004.jpg
687.284	0.588	1	congruent	Block1	congruent/STIM_004.jpg
691.199	0.492	1	congruent	Block1	congruent/STIM_004.jpg
694.767	0.747	1	congruent	Block1	congruent/STIM_004.jpg
698.365	0.838	1	congruent	Block1	congruent/STIM_004.jpg
702.549	0.669	1	congruent	Block1	congruent/STIM_005.jpg
706.402	0.75	1	congruent	Block1	congruent/STIM_005.jpg
710.994	0.843	0	congruent	Block1	congruent/STIM_005.jpg
714.517	0.54	1	congruent	Block1	congruent/STIM_005.jpg
719.038	0.613	1	congruent	Block1	congruent/STIM_005.jpg
722.757	0.553	1	congruent	Block1	congruent/STIM_006.jpg
725.56	0.803	1	congruent	Block1	congruent/STIM_006.jpg
729.619	0.615	1	congruent	Block1	congruent/STIM_006.jpg
734.106	0.649	1	congruent	Block1	congruent/STIM_006.jpg
738.752	0.583	1	congruent	Block1	congruent/STIM_006.jpg
741.845	0.589	1	congruent	Block1	congruent/STIM_007.jpg
746.286	0.535	1	congruent	Block1	congruent/STIM_007.jpg
750.129	0.517	1	congruent	Block1	congruent/STIM_007.jpg
754.397	0.767	1	congruent	Block1	congruent/STIM_007.jpg
758.857	0.803	1	congruent	Block1	congruent/STIM_007.jpg
763.088	0.795	1	congruent	Block1	congruent/STIM_008.jpg
766.906	0.817	1	congruent	Block1	congruent/STIM_008.jpg
771.297	0.544	1	congruent	Block1	congruent/STIM_008.jpg
775.778	0.609	1	congruent	Block1	congruent/STIM_008.jpg
778.942	0.733	1	congruent	Block1	congruent/STIM_008.jpg
781.861	0.738	1	congruent	Block1	congruent/STIM_009.jpg
786.357	0.747	1	congruent	Block1	congruent/STIM_009.jpg
789.793	0.746	1	congruent	Block1	congruent/STIM_009.jpg
793.08	0.643	1	congruent	Block1	congruent/STIM_009.jpg
796.934	0.737	1	congruent	Block1	congruent/STIM_009.jpg
799.733	0.64	1	congruent	Block1	congruent/STIM_010.jpg
803.608	0.599	1	congruent	Block1	congruent/STIM_010.jpg
807.59	0.617	1	congruent	Block1	congruent/STIM_010.jpg
810.256	0.728	1	congruent	Block1	congruent/STIM_010.jpg
814.563	0.556	0	congruent	Block1	congruent/STIM_010.jpg
819.084	0.794	1	congruent	Block1	congruent/STIM_011.jpg
823.121	0.728	1	congruent	Block1	congruent/STIM_011.jpg
826.898	0.793	1	congruent	Block1	congruent/STIM_011.jpg
830.045	0.806	1	congruent	Block1	congruent/STIM_011.jpg
833.999	0.726	1	congruent	Block1	congruent/STIM_011.jpg
837.183	0.525	0	congruent	Block1	congruent/STIM_012.jpg
841.669	0.488	1	congruent	Block1	congruent/STIM_012.jpg
844.95	0.515	1	congruent	Block1	congruent/STIM_012.jpg
848.583	0.498	1	congruent	Block1	congruent/STIM_012.jpg
851.636	0.476	1	congruent	Block1	congruent/STIM_012.jpg
855.244	0.678	1	congruent	Block1	congruent/STIM_013.jpg
858.296	0.484	1	congruent	Block1	congruent/STIM_013.jpg
861.431	0.68	1	congruent	Block1	congruent/STIM_013.jpg
864.821	0.758	1	congruent	Block1	congruent/STIM_013.jpg
869.16	0.552	1	congruent	Block1	congruent/STIM_013.jpg
873.543	0.578	1	congruent	Block1	congruent/STIM_014.jpg
876.462	0.735	1	congruent	Block1	congruent/STIM_014.jpg
880.227	0.634	1	congruent	Block1	congruent/STIM_014.jpg
884.771	0.841	1	congruent	Block1	congruent/STIM_014.jpg
888.788	0.577	1	congruent	Block1	congruent/STIM_014.jpg
893.355	0.842	1	congruent	Block1	congruent/STIM_015.jpg
896.258	0.662	1	congruent	Block1	congruent/STIM_015.jpg
899.734	0.484	1	congruent	Block1	congruent/STIM_015.jpg
903.206	0.834	1	congruent	Block1	congruent/STIM_015.jpg
906.987	0.774	1	congruent	Block1	congruent/STIM_015.jpg
911.205	0.548	1	congruent	Block1	congruent/STIM_016.jpg
914.171	0.615	1	congruent	Block1	congruent/STIM_016.jpg
917.491	0.629	1	congruent	Block1	congruent/STIM_016.jpg
921.182	0.783	1	congruent	Block1	congruent/STIM_016.jpg
925.584	0.836	1	congruent	Block1	congruent/STIM_016.jpg
928.802	0.67	1	congruent	Block1	congruent/STIM_017.jpg
933.093	0.582	1	congruent	Block1	congruent/STIM_017.jpg
936.222	0.691	1	congruent	Block1	congruent/STIM_017.jpg
940.671	0.791	1	congruent	Block1	congruent/STIM_017.jpg
943.572	0.721	1	congruent	Block1	congruent/STIM_017.jpg
947.223	0.824	1	congruent	Block1	congruent/STIM_018.jpg
950.988	0.588	1	congruent	Block1	congruent/STIM_018.jpg
954.04	0.657	1	congruent	Block1	congruent/STIM_018.jpg
957.072	0.607	1	congruent	Block1	congruent/STIM_018.jpg
961.27	0.812	1	congruent	Block1	congruent/STIM_018.jpg
965.761	0.735	1	congruent	Block1	congruent/STIM_019.jpg
970.125	0.641	1	congruent	Block1	congruent/STIM_019.jpg
974.445	0.814	1	congruent	Block1	congruent/STIM_019.jpg
978.431	0.772	1	congruent	Block1	congruent/STIM_019.jpg
981.545	0.572	1	congruent	Block1	congruent/STIM_019.jpg
985.449	0.604	1	congruent	Block1	congruent/STIM_020.jpg
989.177	0.526	1	congruent	Block1	congruent/STIM_020.jpg
992.242	0.596	1	congruent	Block1	congruent/STIM_020.jpg
996.451	0.586	1	congruent	Block1	congruent/STIM_020.jpg
1000.659	0.541	1	congruent	Block1	congruent/STIM_020.jpg
1004.848	0.803	1	congruent	Block1	congruent/STIM_021.jpg
1008.326	0.622	1	congruent	Block1	congruent/STIM_021.jpg
1012.164	0.781	1	congruent	Block1	congruent/STIM_021.jpg
1015.851	0.774	1	congruent	Block1	congruent/STIM_021.jpg
1020.019	0.63	1	congruent	Block1	congruent/STIM_021.jpg
1024.054	0.566	1	congruent	Block1	congruent/STIM_022.jpg
1027.178	0.571	1	congruent	Block1	congruent/STIM_022.jpg
1030.526	0.576	1	congruent	Block1	congruent/STIM_022.jpg
1034.009	0.723	1	congruent	Block1	congruent/STIM_022.jpg
1038.003	0.78	1	congruent	Block1	congruent/STIM_022.jpg
1041.572	0.651	1	congruent	Block1	congruent/STIM_023.jpg
1045.649	0.563	0	congruent	Block1	congruent/STIM_023.jpg
1050.014	0.571	1	congruent	Block1	congruent/STIM_023.jpg
1052.668	0.762	1	congruent	Block1	congruent/STIM_023.jpg
1056.394	0.54	1	congruent	Block1	congruent/STIM_023.jpg
1059.406	0.551	1	congruent	Block1	congruent/STIM_024.jpg
1063.194	0.714	1	congruent	Block1	congruent/STIM_024.jpg
1066.727	0.582	1	congruent	Block1	congruent/STIM_024.jpg
1070.255	0.572	1	congruent	Block1	congruent/STIM_024.jpg
1074.038	0.75	1	congruent	Block1	congruent/STIM_024.jpg
1078.136	0.741	1	congruent	Block1	congruent/STIM_025.jpg
1081.623	0.765	0	congruent	Block1	congruent/STIM_025.jpg
1084.496	0.824	1	congruent	Block1	congruent/STIM_025.jpg
1087.566	0.6	1	congruent	Block1	congruent/STIM_025.jpg
1090.342	0.63	1	congruent	Block1	congruent/STIM_025.jpg
1093.23	0.675	1	congruent	Block1	congruent/STIM_026.jpg
1097.706	0.821	1	congruent	Block1	congruent/STIM_026.jpg
1100.922	0.545	1	congruent	Block1	congruent/STIM_026.jpg
1105.419	0.624	1	congruent	Block1	congruent/STIM_026.jpg
1109.598	0.752	0	congruent	Block1	congruent/STIM_026.jpg
1112.599	0.81	1	congruent	Block1	congruent/STIM_027.jpg
1116.306	0.663	1	congruent	Block1	congruent/STIM_027.jpg
1119.936	0.708	1	congruent	Block1	congruent/STIM_027.jpg
1124.679	0.578	1	congruent	Block1	congruent/STIM_027.jpg
1129.045	0.658	1	congruent	Block1	congruent/STIM_027.jpg
1132.867	0.604	1	congruent	Block1	congruent/STIM_028.jpg
1137.292	0.489	1	congruent	Block1	congruent/STIM_028.jpg
1140.915	0.779	1	congruent	Block1	congruent/STIM_028.jpg
1144.286	0.63	1	congruent	Block1	congruent/STIM_028.jpg
1148.148	0.609	1	congruent	Block1	congruent/STIM_028.jpg
1152.076	0.712	1	congruent	Block1	congruent/STIM_029.jpg
1155.45	0.804	1	congruent	Block1	congruent/STIM_029.jpg
1159.981	0.76	1	congruent	Block1	congruent/STIM_029.jpg
1164.521	0.756	1	congruent	Block1	congruent/STIM_029.jpg
1168.933	0.685	1	congruent	Block1	congruent/STIM_029.jpg
1171.807	0.716	1	incongruent	Block2	incongruent/STIM_000.jpg
1175.079	0.963	1	incongruent	Block2	incongruent/STIM_000.jpg
1180.066	1.013	1	incongruent	Block2	incongruent/STIM_000.jpg
1183.305	0.536	1	incongruent	Block2	incongruent/STIM_000.jpg
1187.241	0.664	1	incongruent	Block2	incongruent/STIM_000.jpg
1190.714	1.014	1	incongruent	Block2	incongruent/STIM_001.jpg
1194.386	0.749	1	incongruent	Block2	incongruent/STIM_001.jpg
1198.034	0.759	1	incongruent	Block2	incongruent/STIM_001.jpg
1202.686	0.856	1	incongruent	Block2	incongruent/STIM_001.jpg
1206.529	0.527	1	incongruent	Block2	incongruent/STIM_001.jpg
1210.469	0.602	1	incongruent	Block2	incongruent/STIM_002.jpg
1213.474	0.772	1	incongruent	Block2	incongruent/STIM_002.jpg
1217.617	1.058	1	incongruent	Block2	incongruent/STIM_002.jpg
1222.045	0.619	1	incongruent	Block2	incongruent/STIM_002.jpg
1225.056	0.803	1	incongruent	Block2	incongruent/STIM_002.jpg
1228.814	0.606	1	incongruent	Block2	incongruent/STIM_003.jpg
1232.441	1.131	1	incongruent	Block2	incongruent/STIM_003.jpg
1236.668	1.04	1	incongruent	Block2	incongruent/STIM_003.jpg
1241.148	0.729	1	incongruent	Block2	incongruent/STIM_003.jpg
1245.331	0.481	1	incongruent	Block2	incongruent/STIM_003.jpg
1249.024	0.819	1	incongruent	Block2	incongruent/STIM_004.jpg
1253.123	1.132	1	incongruent	Block2	incongruent/STIM_004.jpg
1257.921	0.982	1	incongruent	Block2	incongruent/STIM_004.jpg
1261.676	0.665	1	incongruent	Block2	incongruent/STIM_004.jpg
1264.377	0.92	1	incongruent	Block2	incongruent/STIM_004.jpg
1269.106	0.592	1	incongruent	Block2	incongruent/STIM_005.jpg
1272.088	0.912	1	incongruent	Block2	incongruent/STIM_005.jpg
1275.071	1.068	1	incongruent	Block2	incongruent/STIM_005.jpg
1279.931	0.687	1	incongruent	Block2	incongruent/STIM_005.jpg
1283.552	0.52	1	incongruent	Block2	incongruent/STIM_005.jpg
1286.687	0.973	1	incongruent	Block2	incongruent/STIM_006.jpg
1291.133	0.811	1	incongruent	Block2	incongruent/STIM_006.jpg
1294.677	0.828	1	incongruent	Block2	incongruent/STIM_006.jpg
1298.473	0.889	0	incongruent	Block2	incongruent/STIM_006.jpg
1301.564	0.74	1	incongruent	Block2	incongruent/STIM_006.jpg
1304.716	1.148	1	incongruent	Block2	incongruent/STIM_007.jpg
1309.754	1.11	1	incongruent	Block2	incongruent/STIM_007.jpg
1313.146	1.031	1	incongruent	Block2	incongruent/STIM_007.jpg
1317.348	0.598	1	incongruent	Block2	incongruent/STIM_007.jpg
1321.688	0.734	1	incongruent	Block2	incongruent/STIM_007.jpg
1325.302	0.796	1	incongruent	Block2	incongruent/STIM_008.jpg
1328.286	0.914	1	incongruent	Block2	incongruent/STIM_008.jpg
1332.73	0.66	1	incongruent	Block2	incongruent/STIM_008.jpg
1337.056	0.947	1	incongruent	Block2	incongruent/STIM_008.jpg
1341.234	0.852	1	incongruent	Block2	incongruent/STIM_008.jpg
1344.815	0.831	1	incongruent	Block2	incongruent/STIM_009.jpg
1347.964	0.8	1	incongruent	Block2	incongruent/STIM_009.jpg
1351.002	0.96	1	incongruent	Block2	incongruent/STIM_009.jpg
1354.443	0.894	1	incongruent	Block2	incongruent/STIM_009.jpg
1358.319	0.554	1	incongruent	Block2	incongruent/STIM_009.jpg
1360.971	0.688	1	incongruent	Block2	incongruent/STIM_010.jpg
1365.469	0.682	1	incongruent	Block2	incongruent/STIM_010.jpg
1368.714	0.986	1	incongruent	Block2	incongruent/STIM_010.jpg
1372.192	0.748	1	incongruent	Block2	incongruent/STIM_010.jpg
1376.739	0.7	1	incongruent	Block2	incongruent/STIM_010.jpg
1379.502	1.017	1	incongruent	Block2	incongruent/STIM_011.jpg
1383.309	0.859	1	incongruent	Block2	incongruent/STIM_011.jpg
1386.445	0.701	1	incongruent	Block2	incongruent/STIM_011.jpg
1391.139	0.968	1	incongruent	Block2	incongruent/STIM_011.jpg
1394.89	0.751	1	incongruent	Block2	incongruent/STIM_011.jpg
1399.011	1.116	1	incongruent	Block2	incongruent/STIM_012.jpg
1403.715	1.047	1	incongruent	Block2	incongruent/STIM_012.jpg
1407.984	0.907	1	incongruent	Block2	incongruent/STIM_012.jpg
1412.616	0.636	0	incongruent	Block2	incongruent/STIM_012.jpg
1415.352	0.876	1	incongruent	Block2	incongruent/STIM_012.jpg
1419.005	0.67	1	incongruent	Block2	incongruent/STIM_013.jpg
1421.941	1.112	1	incongruent	Block2	incongruent/STIM_013.jpg
1425.126	0.576	1	incongruent	Block2	incongruent/STIM_013.jpg
1429.515	0.6	1	incongruent	Block2	incongruent/STIM_013.jpg
1432.81	0.659	1	incongruent	Block2	incongruent/STIM_013.jpg
1437.121	1.132	1	incongruent	Block2	incongruent/STIM_014.jpg
1441.029	0.828	1	incongruent	Block2	incongruent/STIM_014.jpg
1445.747	0.876	1	incongruent	Block2	incongruent/STIM_014.jpg
1448.676	0.946	1	incongruent	Block2	incongruent/STIM_014.jpg
1452.904	0.61	1	incongruent	Block2	incongruent/STIM_014.jpg
1457.1	1.185	1	incongruent	Block2	incongruent/STIM_015.jpg
1462.166	1.023	1	incongruent	Block2	incongruent/STIM_015.jpg
1465.587	0.788	1	incongruent	Block2	incongruent/STIM_015.jpg
1469.002	0.563	1	incongruent	Block2	incongruent/STIM_015.jpg
1472.824	0.786	1	incongruent	Block2	incongruent/STIM_015.jpg
1476.175	0.911	0	incongruent	Block2	incongruent/STIM_016.jpg
1480.53	0.653	1	incongruent	Block2	incongruent/STIM_016.jpg
1483.673	0.734	1	incongruent	Block2	incongruent/STIM_016.jpg
1486.724	0.966	1	incongruent	Block2	incongruent/STIM_016.jpg
1491.427	0.623	1	incongruent	Block2	incongruent/STIM_016.jpg
1495.729	0.866	1	incongruent	Block2	incongruent/STIM_017.jpg
1499.182	0.874	1	incongruent	Block2	incongruent/STIM_017.jpg
1502.344	0.613	1	incongruent	Block2	incongruent/STIM_017.jpg
1505.141	0.647	1	incongruent	Block2	incongruent/STIM_017.jpg
1508.055	0.926	1	incongruent	Block2	incongruent/STIM_017.jpg
1512.573	1.204	1	incongruent	Block2	incongruent/STIM_018.jpg
1515.945	1.108	1	incongruent	Block2	incongruent/STIM_018.jpg
1519.163	0.985	1	incongruent	Block2	incongruent/STIM_018.jpg
1522.617	0.922	1	incongruent	Block2	incongruent/STIM_018.jpg
1526.437	0.854	1	incongruent	Block2	incongruent/STIM_018.jpg
1531.296	1.148	1	incongruent	Block2	incongruent/STIM_019.jpg
1536.006	0.546	1	incongruent	Block2	incongruent/STIM_019.jpg
1539.197	0.748	1	incongruent	Block2	incongruent/STIM_019.jpg
1543.946	0.522	1	incongruent	Block2	incongruent/STIM_019.jpg
1546.499	0.838	1	incongruent	Block2	incongruent/STIM_019.jpg
1549.621	0.663	1	incongruent	Block2	incongruent/STIM_020.jpg
1552.976	0.626	1	incongruent	Block2	incongruent/STIM_020.jpg
1556.16	0.766	1	incongruent	Block2	incongruent/STIM_020.jpg
1559.883	0.638	1	incongruent	Block2	incongruent/STIM_020.jpg
1563.028	0.491	1	incongruent	Block2	incongruent/STIM_020.jpg
1567.125	0.631	1	incongruent	Block2	incongruent/STIM_021.jpg
1570.639	0.655	1	incongruent	Block2	incongruent/STIM_021.jpg
1573.587	0.951	1	incongruent	Block2	incongruent/STIM_021.jpg
1576.932	0.981	1	incongruent	Block2	incongruent/STIM_021.jpg
1580.431	0.84	1	incongruent	Block2	incongruent/STIM_021.jpg
1583.443	0.906	1	incongruent	Block2	incongruent/STIM_022.jpg
1587.704	1.122	1	incongruent	Block2	incongruent/STIM_022.jpg
1592.061	0.8	1	incongruent	Block2	incongruent/STIM_022.jpg
1595.843	0.609	1	incongruent	Block2	incongruent/STIM_022.jpg
1599.658	0.574	1	incongruent	Block2	incongruent/STIM_022.jpg
1602.742	0.821	1	incongruent	Block2	incongruent/STIM_023.jpg
1606.807	0.828	1	incongruent	Block2	incongruent/STIM_023.jpg
1610.509	0.6	1	incongruent	Block2	incongruent/STIM_023.jpg
1614.166	0.624	1	incongruent	Block2	incongruent/STIM_023.jpg
1618.244	0.578	1	incongruent	Block2	incongruent/STIM_023.jpg
1621.947	1.051	1	incongruent	Block2	incongruent/STIM_024.jpg
1625.694	1.11	1	incongruent	Block2	incongruent/STIM_024.jpg
1629.8	0.874	1	incongruent	Block2	incongruent/STIM_024.jpg
1633.77	0.971	1	incongruent	Block2	incongruent/STIM_024.jpg
1637.411	0.678	1	incongruent	Block2	incongruent/STIM_024.jpg
1640.696	0.801	1	incongruent	Block2	incongruent/STIM_025.jpg
1643.773	0.854	1	incongruent	Block2	incongruent/STIM_025.jpg
1647.084	1.037	1	incongruent	Block2	incongruent/STIM_025.jpg
1651.376	0.649	1	incongruent	Block2	incongruent/STIM_025.jpg
1655.26	0.888	1	incongruent	Block2	incongruent/STIM_025.jpg
1659.22	0.645	1	incongruent	Block2	incongruent/STIM_026.jpg
1662.883	1.127	1	incongruent	Block2	incongruent/STIM_026.jpg
1667.566	0.9	1	incongruent	Block2	incongruent/STIM_026.jpg
1672.288	0.476	1	incongruent	Block2	incongruent/STIM_026.jpg
1675.792	0.611	1	incongruent	Block2	incongruent/STIM_026.jpg
1678.878	1.158	1	incongruent	Block2	incongruent/STIM_027.jpg
1683.605	0.634	1	incongruent	Block2	incongruent/STIM_027.jpg
1687.52	0.963	1	incongruent	Block2	incongruent/STIM_027.jpg
1691.18	0.519	1	incongruent	Block2	incongruent/STIM_027.jpg
1694.47	0.839	1	incongruent	Block2	incongruent/STIM_027.jpg
1698.035	1.206	1	incongruent	Block2	incongruent/STIM_028.jpg
1702.151	1.105	1	incongruent	Block2	incongruent/STIM_028.jpg
1705.536	0.703	1	incongruent	Block2	incongruent/STIM_028.jpg
1710.065	0.523	1	incongruent	Block2	incongruent/STIM_028.jpg
1713.212	0.667	1	incongruent	Block2	incongruent/STIM_028.jpg
1716.834	0.667	1	incongruent	Block2	incongruent/STIM_029.jpg
1720.632	0.969	1	incongruent	Block2	incongruent/STIM_029.jpg
1724.78	0.752	1	incongruent	Block2	incongruent/STIM_029.jpg
1727.688	0.812	1	incongruent	Block2	incongruent/STIM_029.jpg
1732.307	0.652	1	incongruent	Block2	incongruent/STIM_029.jpg
1735.333	0.618	1	congruent	Block2	congruent/STIM_000.jpg
1739.887	0.638	1	congruent	Block2	congruent/STIM_000.jpg
1744.149	0.7	1	congruent	Block2	congruent/STIM_000.jpg
1747.449	0.624	1	congruent	Block2	congruent/STIM_000.jpg
1751.438	0.806	1	congruent	Block2	congruent/STIM_000.jpg
1756.278	0.739	1	congruent	Block2	congruent/STIM_001.jpg
1760.536	0.508	1	congruent	Block2	congruent/STIM_001.jpg
1763.502	0.631	1	congruent	Block2	congruent/STIM_001.jpg
1766.277	0.624	1	congruent	Block2	congruent/STIM_001.jpg
1769.283	0.66	1	congruent	Block2	congruent/STIM_001.jpg
1773.317	0.712	1	congruent	Block2	congruent/STIM_002.jpg
1776.393	0.5	1	congruent	Block2	congruent/STIM_002.jpg
1779.228	0.62	1	congruent	Block2	congruent/STIM_002.jpg
1783.146	0.688	1	congruent	Block2	congruent/STIM_002.jpg
1785.912	0.658	1	congruent	Block2	congruent/STIM_002.jpg
1790.155	0.775	1	congruent	Block2	congruent/STIM_003.jpg
1794.127	0.642	1	congruent	Block2	congruent/STIM_003.jpg
1798.786	0.702	1	congruent	Block2	congruent/STIM_003.jpg
1803.032	0.588	1	congruent	Block2	congruent/STIM_003.jpg
1805.828	0.482	1	congruent	Block2	congruent/STIM_003.jpg
1809.436	0.826	1	congruent	Block2	congruent/STIM_004.jpg
1814.11	0.796	1	congruent	Block2	congruent/STIM_004.jpg
1817.83	0.815	1	congruent	Block2	congruent/STIM_004.jpg
1821.466	0.737	1	congruent	Block2	congruent/STIM_004.jpg
1824.428	0.706	1	congruent	Block2	congruent/STIM_004.jpg
1828.988	0.852	1	congruent	Block2	congruent/STIM_005.jpg
1832.967	0.584	1	congruent	Block2	congruent/STIM_005.jpg
1837.141	0.652	1	congruent	Block2	congruent/STIM_005.jpg
1839.902	0.54	1	congruent	Block2	congruent/STIM_005.jpg
1842.967	0.752	0	congruent	Block2	congruent/STIM_005.jpg
1845.833	0.6	1	congruent	Block2	congruent/STIM_006.jpg
1849.837	0.656	1	congruent	Block2	congruent/STIM_006.jpg
1853.785	0.555	1	congruent	Block2	congruent/STIM_006.jpg
1857.361	0.698	1	congruent	Block2	congruent/STIM_006.jpg
1861.512	0.494	1	congruent	Block2	congruent/STIM_006.jpg
1864.041	0.51	0	congruent	Block2	congruent/STIM_007.jpg
1867.605	0.596	1	congruent	Block2	congruent/STIM_007.jpg
1870.591	0.623	1	congruent	Block2	congruent/STIM_007.jpg
1873.971	0.688	1	congruent	Block2	congruent/STIM_007.jpg
1877.655	0.843	1	congruent	Block2	congruent/STIM_007.jpg
1881.909	0.626	1	congruent	Block2	congruent/STIM_008.jpg
1885.146	0.592	1	congruent	Block2	congruent/STIM_008.jpg
1888.623	0.478	1	congruent	Block2	congruent/STIM_008.jpg
1891.696	0.62	1	congruent	Block2	congruent/STIM_008.jpg
1895.533	0.804	1	congruent	Block2	congruent/STIM_008.jpg
1899.419	0.629	1	congruent	Block2	congruent/STIM_009.jpg
1903.783	0.732	1	congruent	Block2	congruent/STIM_009.jpg
1907.931	0.767	1	congruent	Block2	congruent/STIM_009.jpg
1910.771	0.644	1	congruent	Block2	congruent/STIM_009.jpg
1915.13	0.743	0	congruent	Block2	congruent/STIM_009.jpg
1918.177	0.598	1	congruent	Block2	congruent/STIM_010.jpg
1920.953	0.685	1	congruent	Block2	congruent/STIM_010.jpg
1925.167	0.668	1	congruent	Block2	congruent/STIM_010.jpg
1928.46	0.818	1	congruent	Block2	congruent/STIM_010.jpg
1932.237	0.571	1	congruent	Block2	congruent/STIM_010.jpg
1935.996	0.738	1	congruent	Block2	congruent/STIM_011.jpg
1940.361	0.663	1	congruent	Block2	congruent/STIM_011.jpg
1944.937	0.832	1	congruent	Block2	congruent/STIM_011.jpg
1949.026	0.73	1	congruent	Block2	congruent/STIM_011.jpg
1953.774	0.506	1	congruent	Block2	congruent/STIM_011.jpg
1957.103	0.539	1	congruent	Block2	congruent/STIM_012.jpg
1960.225	0.69	1	congruent	Block2	congruent/STIM_012.jpg
1963.756	0.573	1	congruent	Block2	congruent/STIM_012.jpg
1966.458	0.758	1	congruent	Block2	congruent/STIM_012.jpg
1970.547	0.851	1	congruent	Block2	congruent/STIM_012.jpg
1973.558	0.642	1	congruent	Block2	congruent/STIM_013.jpg
1976.487	0.494	1	congruent	Block2	congruent/STIM_013.jpg
1979.773	0.679	1	congruent	Block2	congruent/STIM_013.jpg
1983.722	0.643	0	congruent	Block2	congruent/STIM_013.jpg
1986.662	0.626	1	congruent	Block2	congruent/STIM_013.jpg
1991.108	0.717	1	congruent	Block2	congruent/STIM_014.jpg
1995.052	0.641	1	congruent	Block2	congruent/STIM_014.jpg
1999.577	0.686	1	congruent	Block2	congruent/STIM_014.jpg
2003.019	0.576	0	congruent	Block2	congruent/STIM_014.jpg
2005.824	0.481	1	congruent	Block2	congruent/STIM_014.jpg
2009.226	0.85	0	congruent	Block2	congruent/STIM_015.jpg
2012.791	0.613	0	congruent	Block2	congruent/STIM_015.jpg
2015.625	0.499	1	congruent	Block2	congruent/STIM_015.jpg
2019.951	0.593	1	congruent	Block2	congruent/STIM_015.jpg
2023.657	0.662	1	congruent	Block2	congruent/STIM_015.jpg
2028.252	0.519	1	congruent	Block2	congruent/STIM_016.jpg
2032.694	0.552	1	congruent	Block2	congruent/STIM_016.jpg
2036.478	0.828	1	congruent	Block2	congruent/STIM_016.jpg
2040.146	0.703	1	congruent	Block2	congruent/STIM_016.jpg
2044.412	0.526	1	congruent	Block2	congruent/STIM_016.jpg
2047.619	0.717	0	congruent	Block2	congruent/STIM_017.jpg
2051.295	0.636	1	congruent	Block2	congruent/STIM_017.jpg
2055.95	0.567	1	congruent	Block2	congruent/STIM_017.jpg
2059.084	0.846	1	congruent	Block2	congruent/STIM_017.jpg
2062.831	0.54	1	congruent	Block2	congruent/STIM_017.jpg
2065.8	0.749	1	congruent	Block2	congruent/STIM_018.jpg
2068.814	0.617	1	congruent	Block2	congruent/STIM_018.jpg
2072.583	0.806	1	congruent	Block2	congruent/STIM_018.jpg
2076.614	0.646	1	congruent	Block2	congruent/STIM_018.jpg
2080.351	0.768	1	congruent	Block2	congruent/STIM_018.jpg
2084.666	0.707	1	congruent	Block2	congruent/STIM_019.jpg
2089.165	0.555	1	congruent	Block2	congruent/STIM_019.jpg
2092.882	0.488	1	congruent	Block2	congruent/STIM_019.jpg
2096.931	0.588	1	congruent	Block2	congruent/STIM_019.jpg
2100.413	0.754	1	congruent	Block2	congruent/STIM_019.jpg
2103.948	0.523	1	congruent	Block2	congruent/STIM_020.jpg
2108.389	0.641	1	congruent	Block2	congruent/STIM_020.jpg
2112.526	0.698	1	congruent	Block2	congruent/STIM_020.jpg
2116.248	0.646	1	congruent	Block2	congruent/STIM_020.jpg
2118.983	0.522	1	congruent	Block2	congruent/STIM_020.jpg
2122.608	0.717	1	congruent	Block2	congruent/STIM_021.jpg
2126.133	0.659	1	congruent	Block2	congruent/STIM_021.jpg
2129.305	0.599	1	congruent	Block2	congruent/STIM_021.jpg
2131.951	0.783	0	congruent	Block2	congruent/STIM_021.jpg
2134.822	0.65	0	congruent	Block2	congruent/STIM_021.jpg
2138.787	0.654	1	congruent	Block2	congruent/STIM_022.jpg
2143.062	0.552	1	congruent	Block2	congruent/STIM_022.jpg
2147.009	0.821	1	congruent	Block2	congruent/STIM_022.jpg
2151.339	0.683	1	congruent	Block2	congruent/STIM_022.jpg
2154.827	0.716	0	congruent	Block2	congruent/STIM_022.jpg
2158.784	0.613	1	congruent	Block2	congruent/STIM_023.jpg
2161.436	0.573	1	congruent	Block2	congruent/STIM_023.jpg
2165.918	0.525	1	congruent	Block2	congruent/STIM_023.jpg
2169.409	0.826	1	congruent	Block2	congruent/STIM_023.jpg
2173.201	0.827	1	congruent	Block2	congruent/STIM_023.jpg
2176.174	0.7	1	congruent	Block2	congruent/STIM_024.jpg
2179.682	0.744	1	congruent	Block2	congruent/STIM_024.jpg
2183.562	0.562	1	congruent	Block2	congruent/STIM_024.jpg
2187.254	0.55	1	congruent	Block2	congruent/STIM_024.jpg
2190.396	0.598	1	congruent	Block2	congruent/STIM_024.jpg
2193.567	0.738	1	congruent	Block2	congruent/STIM_025.jpg
2198.1	0.525	1	congruent	Block2	congruent/STIM_025.jpg
2200.942	0.855	1	congruent	Block2	congruent/STIM_025.jpg
2205.596	0.525	1	congruent	Block2	congruent/STIM_025.jpg
2209.623	0.772	1	congruent	Block2	congruent/STIM_025.jpg
2213.567	0.752	1	congruent	Block2	congruent/STIM_026.jpg
2216.834	0.601	1	congruent	Block2	congruent/STIM_026.jpg
2220.113	0.522	1	congruent	Block2	congruent/STIM_026.jpg
2223.397	0.596	1	congruent	Block2	congruent/STIM_026.jpg
2227.004	0.633	1	congruent	Block2	congruent/STIM_026.jpg
2231.328	0.77	1	congruent	Block2	congruent/STIM_027.jpg
2234.626	0.639	0	congruent	Block2	congruent/STIM_027.jpg
2238.641	0.777	1	congruent	Block2	congruent/STIM_027.jpg
2242.302	0.476	1	congruent	Block2	congruent/STIM_027.jpg
2246.72	0.535	1	congruent	Block2	congruent/STIM_027.jpg
2250.761	0.556	1	congruent	Block2	congruent/STIM_028.jpg
2254.704	0.489	1	congruent	Block2	congruent/STIM_028.jpg
2258.612	0.744	1	congruent	Block2	congruent/STIM_028.jpg
2262.603	0.833	1	congruent	Block2	congruent/STIM_028.jpg
2266.3	0.811	0	congruent	Block2	congruent/STIM_028.jpg
2269.208	0.714	1	congruent	Block2	congruent/STIM_029.jpg
2273.124	0.565	1	congruent	Block2	congruent/STIM_029.jpg
2277.17	0.797	1	congruent	Block2	congruent/STIM_029.jpg
2280.991	0.648	1	congruent	Block2	congruent/STIM_029.jpg
2284.357	0.798	1	congruent	Block2	congruent/STIM_029.jpg
2288.178	0.862	1	incongruent	Block3	incongruent/STIM_000.jpg
2291.979	0.745	1	incongruent	Block3	incongruent/STIM_000.jpg
2295.526	0.85	1	incongruent	Block3	incongruent/STIM_000.jpg
2300.394	0.976	1	incongruent	Block3	incongruent/STIM_000.jpg
2304.709	0.604	1	incongruent	Block3	incongruent/STIM_000.jpg
2307.52	0.807	1	incongruent	Block3	incongruent/STIM_001.jpg
2311.991	0.831	1	incongruent	Block3	incongruent/STIM_001.jpg
2314.994	0.968	1	incongruent	Block3	incongruent/STIM_001.jpg
2319.857	0.617	1	incongruent	Block3	incongruent/STIM_001.jpg
2323.429	0.788	1	incongruent	Block3	incongruent/STIM_001.jpg
2328.232	0.802	1	incongruent	Block3	incongruent/STIM_002.jpg
2332.922	0.704	1	incongruent	Block3	incongruent/STIM_002.jpg
2336.474	0.872	1	incongruent	Block3	incongruent/STIM_002.jpg
2340.853	0.599	0	incongruent	Block3	incongruent/STIM_002.jpg
2343.998	0.685	1	incongruent	Block3	incongruent/STIM_002.jpg
2347.294	0.955	1	incongruent	Block3	incongruent/STIM_003.jpg
2351.539	0.91	1	incongruent	Block3	incongruent/STIM_003.jpg
2354.979	0.984	1	incongruent	Block3	incongruent/STIM_003.jpg
2358.335	0.812	1	incongruent	Block3	incongruent/STIM_003.jpg
2363.047	0.466	1	incongruent	Block3	incongruent/STIM_003.jpg
2365.903	0.889	1	incongruent	Block3	incongruent/STIM_004.jpg
2370.449	0.826	1	incongruent	Block3	incongruent/STIM_004.jpg
2373.843	0.888	1	incongruent	Block3	incongruent/STIM_004.jpg
2378.623	0.821	1	incongruent	Block3	incongruent/STIM_004.jpg
2381.659	0.869	1	incongruent	Block3	incongruent/STIM_004.jpg
2386.211	0.742	1	incongruent	Block3	incongruent/STIM_005.jpg
2390.479	0.832	1	incongruent	Block3	incongruent/STIM_005.jpg
2393.519	0.637	1	incongruent	Block3	incongruent/STIM_005.jpg
2398.132	0.725	1	incongruent	Block3	incongruent/STIM_005.jpg
2402.434	0.56	1	incongruent	Block3	incongruent/STIM_005.jpg
2405.525	0.829	1	incongruent	Block3	incongruent/STIM_006.jpg
2408.774	0.95	1	incongruent	Block3	incongruent/STIM_006.jpg
2412.307	0.998	1	incongruent	Block3	incongruent/STIM_006.jpg
2417.04	0.485	1	incongruent	Block3	incongruent/STIM_006.jpg
2421.439	0.739	1	incongruent	Block3	incongruent/STIM_006.jpg
2426.156	0.569	1	incongruent	Block3	incongruent/STIM_007.jpg
2430.622	0.599	1	incongruent	Block3	incongruent/STIM_007.jpg
2433.804	0.594	1	incongruent	Block3	incongruent/STIM_007.jpg
2437.662	0.745	1	incongruent	Block3	incongruent/STIM_007.jpg
2442.046	0.527	1	incongruent	Block3	incongruent/STIM_007.jpg
2446.433	0.821	1	incongruent	Block3	incongruent/STIM_008.jpg
2450.426	0.804	1	incongruent	Block3	incongruent/STIM_008.jpg
2454.224	0.687	1	incongruent	Block3	incongruent/STIM_008.jpg
2457.516	0.572	1	incongruent	Block3	incongruent/STIM_008.jpg
2461.478	0.756	1	incongruent	Block3	incongruent/STIM_008.jpg
2464.295	0.895	1	incongruent	Block3	incongruent/STIM_009.jpg
2468.416	0.918	1	incongruent	Block3	incongruent/STIM_009.jpg
2473.138	0.848	1	incongruent	Block3	incongruent/STIM_009.jpg
2476.181	0.637	1	incongruent	Block3	incongruent/STIM_009.jpg
2479.624	0.864	1	incongruent	Block3	incongruent/STIM_009.jpg
2484.127	0.986	1	incongruent	Block3	incongruent/STIM_010.jpg
2488.878	0.697	1	incongruent	Block3	incongruent/STIM_010.jpg
2492.843	0.472	1	incongruent	Block3	incongruent/STIM_010.jpg
2495.858	0.828	1	incongruent	Block3	incongruent/STIM_010.jpg
2499.626	0.665	1	incongruent	Block3	incongruent/STIM_010.jpg
2503.69	0.939	1	incongruent	Block3	incongruent/STIM_011.jpg
2507.985	0.949	1	incongruent	Block3	incongruent/STIM_011.jpg
2511.687	0.486	1	incongruent	Block3	incongruent/STIM_011.jpg
2515.379	0.622	1	incongruent	Block3	incongruent/STIM_011.jpg
2519.652	0.749	1	incongruent	Block3	incongruent/STIM_011.jpg
2522.745	0.727	1	incongruent	Block3	incongruent/STIM_012.jpg
2526.534	0.527	0	incongruent	Block3	incongruent/STIM_012.jpg
2530.087	0.716	1	incongruent	Block3	incongruent/STIM_012.jpg
2533.346	0.588	1	incongruent	Block3	incongruent/STIM_012.jpg
2537.558	0.938	0	incongruent	Block3	incongruent/STIM_012.jpg
2541.727	0.881	1	incongruent	Block3	incongruent/STIM_013.jpg
2545.383	0.639	1	incongruent	Block3	incongruent/STIM_013.jpg
2548.827	0.569	1	incongruent	Block3	incongruent/STIM_013.jpg
2551.797	0.995	1	incongruent	Block3	incongruent/STIM_013.jpg
2555.801	0.874	1	incongruent	Block3	incongruent/STIM_013.jpg
2559.647	0.94	1	incongruent	Block3	incongruent/STIM_014.jpg
2562.903	0.494	1	incongruent	Block3	incongruent/STIM_014.jpg
2565.597	0.625	1	incongruent	Block3	incongruent/STIM_014.jpg
2569.96	0.757	1	incongruent	Block3	incongruent/STIM_014.jpg
2573.568	0.532	1	incongruent	Block3	incongruent/STIM_014.jpg
2576.633	0.89	1	incongruent	Block3	incongruent/STIM_015.jpg
2580.754	0.696	1	incongruent	Block3	incongruent/STIM_015.jpg
2585.319	0.79	1	incongruent	Block3	incongruent/STIM_015.jpg
2588.808	0.955	1	incongruent	Block3	incongruent/STIM_015.jpg
2591.896	0.635	1	incongruent	Block3	incongruent/STIM_015.jpg
2596.508	0.664	1	incongruent	Block3	incongruent/STIM_016.jpg
2600.312	0.788	1	incongruent	Block3	incongruent/STIM_016.jpg
2604.407	0.924	1	incongruent	Block3	incongruent/STIM_016.jpg
2607.9	0.71	1	incongruent	Block3	incongruent/STIM_016.jpg
2612.438	0.841	1	incongruent	Block3	incongruent/STIM_016.jpg
2617.008	0.554	1	incongruent	Block3	incongruent/STIM_017.jpg
2620.499	0.644	1	incongruent	Block3	incongruent/STIM_017.jpg
2625.048	0.525	1	incongruent	Block3	incongruent/STIM_017.jpg
2628.575	0.738	1	incongruent	Block3	incongruent/STIM_017.jpg
2633.156	0.49	1	incongruent	Block3	incongruent/STIM_017.jpg
2636.744	0.703	1	incongruent	Block3	incongruent/STIM_018.jpg
2640.9	0.715	1	incongruent	Block3	incongruent/STIM_018.jpg
2645.426	0.877	1	incongruent	Block3	incongruent/STIM_018.jpg
2649.397	0.88	1	incongruent	Block3	incongruent/STIM_018.jpg
2653.234	0.955	1	incongruent	Block3	incongruent/STIM_018.jpg
2656.995	0.97	1	incongruent	Block3	incongruent/STIM_019.jpg
2661.039	0.697	1	incongruent	Block3	incongruent/STIM_019.jpg
2665.509	0.596	1	incongruent	Block3	incongruent/STIM_019.jpg
2668.891	0.887	1	incongruent	Block3	incongruent/STIM_019.jpg
2673.066	0.666	1	incongruent	Block3	incongruent/STIM_019.jpg
2676.82	0.895	1	incongruent	Block3	incongruent/STIM_020.jpg
2680.597	0.825	1	incongruent	Block3	incongruent/STIM_020.jpg
2684.816	0.801	1	incongruent	Block3	incongruent/STIM_020.jpg
2688.317	0.663	1	incongruent	Block3	incongruent/STIM_020.jpg
2692.311	0.848	1	incongruent	Block3	incongruent/STIM_020.jpg
2695.396	0.813	1	incongruent	Block3	incongruent/STIM_021.jpg
2698.797	0.821	1	incongruent	Block3	incongruent/STIM_021.jpg
2703.634	0.9	1	incongruent	Block3	incongruent/STIM_021.jpg
2707.408	0.604	1	incongruent	Block3	incongruent/STIM_021.jpg
2710.895	0.587	1	incongruent	Block3	incongruent/STIM_021.jpg
2714.034	0.851	1	incongruent	Block3	incongruent/STIM_022.jpg
2718.359	0.952	1	incongruent	Block3	incongruent/STIM_022.jpg
2723.191	0.993	1	incongruent	Block3	incongruent/STIM_022.jpg
2726.611	0.767	1	incongruent	Block3	incongruent/STIM_022.jpg
2730.937	0.95	1	incongruent	Block3	incongruent/STIM_022.jpg
2735.833	0.648	1	incongruent	Block3	incongruent/STIM_023.jpg
2739.604	0.579	1	incongruent	Block3	incongruent/STIM_023.jpg
2743.601	0.878	1	incongruent	Block3	incongruent/STIM_023.jpg
2747.883	0.8	1	incongruent	Block3	incongruent/STIM_023.jpg
2750.996	0.859	1	incongruent	Block3	incongruent/STIM_023.jpg
2755.595	0.581	1	incongruent	Block3	incongruent/STIM_024.jpg
2759.203	0.989	1	incongruent	Block3	incongruent/STIM_024.jpg
2762.612	0.993	1	incongruent	Block3	incongruent/STIM_024.jpg
2766.304	0.932	1	incongruent	Block3	incongruent/STIM_024.jpg
2770.764	0.829	1	incongruent	Block3	incongruent/STIM_024.jpg
2774.817	0.812	1	incongruent	Block3	incongruent/STIM_025.jpg
2779.259	0.943	1	incongruent	Block3	incongruent/STIM_025.jpg
2782.354	0.756	1	incongruent	Block3	incongruent/STIM_025.jpg
2786.573	0.717	1	incongruent	Block3	incongruent/STIM_025.jpg
2789.788	0.956	1	incongruent	Block3	incongruent/STIM_025.jpg
2794.179	0.831	1	incongruent	Block3	incongruent/STIM_026.jpg
2798.216	0.808	1	incongruent	Block3	incongruent/STIM_026.jpg
2801.166	0.513	1	incongruent	Block3	incongruent/STIM_026.jpg
2804.918	0.583	1	incongruent	Block3	incongruent/STIM_026.jpg
2808.068	0.812	1	incongruent	Block3	incongruent/STIM_026.jpg
2812.586	0.976	1	incongruent	Block3	incongruent/STIM_027.jpg
2815.655	0.703	1	incongruent	Block3	incongruent/STIM_027.jpg
2819.836	0.795	1	incongruent	Block3	incongruent/STIM_027.jpg
2823.52	0.577	1	incongruent	Block3	incongruent/STIM_027.jpg
2826.826	0.559	1	incongruent	Block3	incongruent/STIM_027.jpg
2831.103	0.554	1	incongruent	Block3	incongruent/STIM_028.jpg
2834.371	0.783	1	incongruent	Block3	incongruent/STIM_028.jpg
2838.199	0.984	1	incongruent	Block3	incongruent/STIM_028.jpg
2842.686	0.941	1	incongruent	Block3	incongruent/STIM_028.jpg
2846.281	0.513	1	incongruent	Block3	incongruent/STIM_028.jpg
2848.827	0.871	1	incongruent	Block3	incongruent/STIM_029.jpg
2852.121	0.853	1	incongruent	Block3	incongruent/STIM_029.jpg
2855.356	0.898	1	incongruent	Block3	incongruent/STIM_029.jpg
2859.396	0.639	1	incongruent	Block3	incongruent/STIM_029.jpg
2863.591	0.735	1	incongruent	Block3	incongruent/STIM_029.jpg
2867.187	0.623	1	congruent	Block3	congruent/STIM_000.jpg
2870.943	0.85	1	congruent	Block3	congruent/STIM_000.jpg
2875.461	0.497	1	congruent	Block3	congruent/STIM_000.jpg
2879.839	0.625	1	congruent	Block3	congruent/STIM_000.jpg
2884.117	0.613	1	congruent	Block3	congruent/STIM_000.jpg
2887.456	0.671	1	congruent	Block3	congruent/STIM_001.jpg
2890.85	0.824	1	congruent	Block3	congruent/STIM_001.jpg
2894.509	0.843	0	congruent	Block3	congruent/STIM_001.jpg
2899.163	0.822	1	congruent	Block3	congruent/STIM_001.jpg
2902.774	0.544	1	congruent	Block3	congruent/STIM_001.jpg
2906.075	0.744	0	congruent	Block3	congruent/STIM_002.jpg
2909.265	0.754	1	congruent	Block3	congruent/STIM_002.jpg
2913.845	0.826	1	congruent	Block3	congruent/STIM_002.jpg
2918.436	0.737	1	congruent	Block3	congruent/STIM_002.jpg
2921.936	0.828	1	congruent	Block3	congruent/STIM_002.jpg
2926.054	0.819	1	congruent	Block3	congruent/STIM_003.jpg
2930.17	0.723	1	congruent	Block3	congruent/STIM_003.jpg
2934.738	0.687	1	congruent	Block3	congruent/STIM_003.jpg
2938.333	0.794	1	congruent	Block3	congruent/STIM_003.jpg
2942.182	0.557	1	congruent	Block3	congruent/STIM_003.jpg
2945.789	0.708	1	congruent	Block3	congruent/STIM_004.jpg
2949.53	0.837	0	congruent	Block3	congruent/STIM_004.jpg
2954.275	0.845	1	congruent	Block3	congruent/STIM_004.jpg
2958.235	0.641	0	congruent	Block3	congruent/STIM_004.jpg
2961.855	0.795	1	congruent	Block3	congruent/STIM_004.jpg
2965.18	0.557	1	congruent	Block3	congruent/STIM_005.jpg
2968.174	0.843	1	congruent	Block3	congruent/STIM_005.jpg
2971.976	0.651	1	congruent	Block3	congruent/STIM_005.jpg
2975.759	0.691	1	congruent	Block3	congruent/STIM_005.jpg
2978.687	0.8	1	congruent	Block3	congruent/STIM_005.jpg
2982.662	0.677	1	congruent	Block3	congruent/STIM_006.jpg
2986.592	0.511	1	congruent	Block3	congruent/STIM_006.jpg
2989.775	0.586	1	congruent	Block3	congruent/STIM_006.jpg
2992.449	0.797	1	congruent	Block3	congruent/STIM_006.jpg
2995.884	0.56	1	congruent	Block3	congruent/STIM_006.jpg
2998.564	0.788	1	congruent	Block3	congruent/STIM_007.jpg
3001.568	0.703	1	congruent	Block3	congruent/STIM_007.jpg
3004.946	0.739	1	congruent	Block3	congruent/STIM_007.jpg
3009.135	0.74	1	congruent	Block3	congruent/STIM_007.jpg
3013.298	0.698	1	congruent	Block3	congruent/STIM_007.jpg
3018.015	0.613	1	congruent	Block3	congruent/STIM_008.jpg
3020.7	0.642	1	congruent	Block3	congruent/STIM_008.jpg
3025.344	0.729	1	congruent	Block3	congruent/STIM_008.jpg
3029.406	0.594	1	congruent	Block3	congruent/STIM_008.jpg
3033.577	0.688	1	congruent	Block3	congruent/STIM_008.jpg
3037.381	0.561	1	congruent	Block3	congruent/STIM_009.jpg
3041.541	0.823	1	congruent	Block3	congruent/STIM_009.jpg
3044.973	0.48	0	congruent	Block3	congruent/STIM_009.jpg
3048.461	0.562	1	congruent	Block3	congruent/STIM_009.jpg
3052.989	0.62	1	congruent	Block3	congruent/STIM_009.jpg
3057.05	0.658	1	congruent	Block3	congruent/STIM_010.jpg
3061.654	0.679	1	congruent	Block3	congruent/STIM_010.jpg
3066.019	0.622	1	congruent	Block3	congruent/STIM_010.jpg
3068.722	0.694	1	congruent	Block3	congruent/STIM_010.jpg
3073.04	0.66	1	congruent	Block3	congruent/STIM_010.jpg
3076.445	0.597	1	congruent	Block3	congruent/STIM_011.jpg
3079.546	0.788	1	congruent	Block3	congruent/STIM_011.jpg
3083.247	0.522	0	congruent	Block3	congruent/STIM_011.jpg
3086.519	0.495	1	congruent	Block3	congruent/STIM_011.jpg
3089.663	0.559	1	congruent	Block3	congruent/STIM_011.jpg
3093.193	0.768	1	congruent	Block3	congruent/STIM_012.jpg
3096.595	0.661	1	congruent	Block3	congruent/STIM_012.jpg
3099.736	0.507	1	congruent	Block3	congruent/STIM_012.jpg
3103.216	0.83	1	congruent	Block3	congruent/STIM_012.jpg
3106.16	0.795	1	congruent	Block3	congruent/STIM_012.jpg
3109.228	0.484	1	congruent	Block3	congruent/STIM_013.jpg
3113.044	0.583	1	congruent	Block3	congruent/STIM_013.jpg
3116.098	0.706	1	congruent	Block3	congruent/STIM_013.jpg
3119.547	0.591	1	congruent	Block3	congruent/STIM_013.jpg
3123.032	0.811	1	congruent	Block3	congruent/STIM_013.jpg
3127.166	0.81	1	congruent	Block3	congruent/STIM_014.jpg
3130.211	0.699	0	congruent	Block3	congruent/STIM_014.jpg
3133.997	0.643	1	congruent	Block3	congruent/STIM_014.jpg
3137.023	0.551	1	congruent	Block3	congruent/STIM_014.jpg
3140.364	0.629	1	congruent	Block3	congruent/STIM_014.jpg
3143.262	0.594	0	congruent	Block3	congruent/STIM_015.jpg
3147.782	0.77	1	congruent	Block3	congruent/STIM_015.jpg
3151.76	0.532	1	congruent	Block3	congruent/STIM_015.jpg
3155.954	0.584	1	congruent	Block3	congruent/STIM_015.jpg
3159.723	0.797	1	congruent	Block3	congruent/STIM_015.jpg
3163.836	0.789	1	congruent	Block3	congruent/STIM_016.jpg
3168.63	0.796	1	congruent	Block3	congruent/STIM_016.jpg
3173.219	0.687	1	congruent	Block3	congruent/STIM_016.jpg
3176.964	0.715	1	congruent	Block3	congruent/STIM_016.jpg
3180.336	0.576	1	congruent	Block3	congruent/STIM_016.jpg
3183.814	0.767	1	congruent	Block3	congruent/STIM_017.jpg
3188.027	0.855	1	congruent	Block3	congruent/STIM_017.jpg
3192.76	0.69	1	congruent	Block3	congruent/STIM_017.jpg
3196.483	0.527	1	congruent	Block3	congruent/STIM_017.jpg
3200.801	0.502	1	congruent	Block3	congruent/STIM_017.jpg
3204.969	0.638	1	congruent	Block3	congruent/STIM_018.jpg
3208.89	0.741	1	congruent	Block3	congruent/STIM_018.jpg
3213.322	0.727	1	congruent	Block3	congruent/STIM_018.jpg
3216.101	0.711	1	congruent	Block3	congruent/STIM_018.jpg
3219.305	0.577	1	congruent	Block3	congruent/STIM_018.jpg
3223.733	0.771	1	congruent	Block3	congruent/STIM_019.jpg
3227.031	0.791	1	congruent	Block3	congruent/STIM_019.jpg
3230.651	0.618	1	congruent	Block3	congruent/STIM_019.jpg
3234.024	0.766	1	congruent	Block3	congruent/STIM_019.jpg
3238.222	0.748	1	congruent	Block3	congruent/STIM_019.jpg
3241.86	0.563	1	congruent	Block3	congruent/STIM_020.jpg
3244.919	0.479	1	congruent	Block3	congruent/STIM_020.jpg
3247.686	0.663	1	congruent	Block3	congruent/STIM_020.jpg
3250.395	0.671	1	congruent	Block3	congruent/STIM_020.jpg
3254.021	0.535	1	congruent	Block3	congruent/STIM_020.jpg
3257.117	0.66	1	congruent	Block3	congruent/STIM_021.jpg
3261.772	0.729	1	congruent	Block3	congruent/STIM_021.jpg
3266.087	0.552	1	congruent	Block3	congruent/STIM_021.jpg
3268.771	0.77	1	congruent	Block3	congruent/STIM_021.jpg
3272.163	0.648	1	congruent	Block3	congruent/STIM_021.jpg
3275.92	0.488	1	congruent	Block3	congruent/STIM_022.jpg
3279.348	0.792	1	congruent	Block3	congruent/STIM_022.jpg
3283.291	0.683	1	congruent	Block3	congruent/STIM_022.jpg
3287.73	0.542	1	congruent	Block3	congruent/STIM_022.jpg
3290.858	0.538	1	congruent	Block3	congruent/STIM_022.jpg
3294.373	0.613	1	congruent	Block3	congruent/STIM_023.jpg
3298.317	0.678	1	congruent	Block3	congruent/STIM_023.jpg
3301.826	0.807	1	congruent	Block3	congruent/STIM_023.jpg
3305.265	0.814	1	congruent	Block3	congruent/STIM_023.jpg
3309.76	0.499	1	congruent	Block3	congruent/STIM_023.jpg
3313.906	0.587	1	congruent	Block3	congruent/STIM_024.jpg
3316.708	0.625	1	congruent	Block3	congruent/STIM_024.jpg
3320.067	0.758	1	congruent	Block3	congruent/STIM_024.jpg
3324.211	0.842	1	congruent	Block3	congruent/STIM_024.jpg
3327.364	0.548	1	congruent	Block3	congruent/STIM_024.jpg
3331.524	0.812	1	congruent	Block3	congruent/STIM_025.jpg
3335.772	0.798	1	congruent	Block3	congruent/STIM_025.jpg
3338.73	0.496	1	congruent	Block3	congruent/STIM_025.jpg
3342.23	0.793	1	congruent	Block3	congruent/STIM_025.jpg
3345.937	0.531	1	congruent	Block3	congruent/STIM_025.jpg
3350.22	0.504	1	congruent	Block3	congruent/STIM_026.jpg
3353.332	0.5	1	congruent	Block3	congruent/STIM_026.jpg
3356.295	0.837	1	congruent	Block3	congruent/STIM_026.jpg
3361.127	0.776	1	congruent	Block3	congruent/STIM_026.jpg
3365.794	0.799	1	congruent	Block3	congruent/STIM_026.jpg
3370.388	0.66	1	congruent	Block3	congruent/STIM_027.jpg
3374.184	0.776	1	congruent	Block3	congruent/STIM_027.jpg
3378.71	0.693	1	congruent	Block3	congruent/STIM_027.jpg
3382.456	0.553	1	congruent	Block3	congruent/STIM_027.jpg
3385.856	0.662	1	congruent	Block3	congruent/STIM_027.jpg
3388.566	0.753	1	congruent	Block3	congruent/STIM_028.jpg
3391.916	0.508	1	congruent	Block3	congruent/STIM_028.jpg
3395.54	0.686	1	congruent	Block3	congruent/STIM_028.jpg
3398.318	0.735	1	congruent	Block3	congruent/STIM_028.jpg
3402.148	0.734	1	congruent	Block3	congruent/STIM_028.jpg
3406.364	0.534	1	congruent	Block3	congruent/STIM_029.jpg
3409.382	0.493	1	congruent	Block3	congruent/STIM_029.jpg
3412.257	0.645	1	congruent	Block3	congruent/STIM_029.jpg
3416.234	0.778	1	congruent	Block3	congruent/STIM_029.jpg
3420.017	0.836	1	congruent	Block3	congruent/STIM_029.jpg
