onset	duration	response_time_ms	trial_type	learning_stage	stimulus	response_port
0.0	1.225	1224.9	incongruent	Block1	incongruent/STIM_000.jpg	100
4.784	0.838	837.7	incongruent	Block1	incongruent/STIM_000.jpg	99
8.758	0.704	704.0	incongruent	Block1	incongruent/STIM_000.jpg	99
11.464	1.176	1175.5	incongruent	Block1	incongruent/STIM_000.jpg	100
14.925	1.05	1049.8	incongruent	Block1	incongruent/STIM_000.jpg	100
19.671	0.93	930.2	incongruent	Block1	incongruent/STIM_001.jpg	100
23.117	0.941	940.7	incongruent	Block1	incongruent/STIM_001.jpg	100
26.241	0.844	844.0	incongruent	Block1	incongruent/STIM_001.jpg	100
30.447	0.814	813.6	incongruent	Block1	incongruent/STIM_001.jpg	100
34.606	0.528	528.5	incongruent	Block1	incongruent/STIM_001.jpg	99
37.933	0.967	967.1	incongruent	Block1	incongruent/STIM_002.jpg	99
41.043	0.969	968.9	incongruent	Block1	incongruent/STIM_002.jpg	99
44.044	1.003	1003.3	incongruent	Block1	incongruent/STIM_002.jpg	99
47.953	1.041	1041.1	incongruent	Block1	incongruent/STIM_002.jpg	99
51.331	0.612	612.0	incongruent	Block1	incongruent/STIM_002.jpg	99
55.368	0.877	877.0	incongruent	Block1	incongruent/STIM_003.jpg	100
59.643	0.64	639.8	incongruent	Block1	incongruent/STIM_003.jpg	99
63.794	0.784	783.8	incongruent	Block1	incongruent/STIM_003.jpg	100
67.438	0.878	877.8	incongruent	Block1	incongruent/STIM_003.jpg	100
71.558	1.026	1026.2	incongruent	Block1	incongruent/STIM_003.jpg	99
74.846	0.698	698.0	incongruent	Block1	incongruent/STIM_004.jpg	99
78.952	0.908	908.1	incongruent	Block1	incongruent/STIM_004.jpg	100
82.896	0.638	638.3	incongruent	Block1	incongruent/STIM_004.jpg	100
85.614	0.67	670.3	incongruent	Block1	incongruent/STIM_004.jpg	100
88.645	1.01	1009.9	incongruent	Block1	incongruent/STIM_004.jpg	99
92.399	0.79	789.7	incongruent	Block1	incongruent/STIM_005.jpg	99
95.816	0.661	661.4	incongruent	Block1	incongruent/STIM_005.jpg	99
99.489	0.821	821.3	incongruent	Block1	incongruent/STIM_005.jpg	99
103.988	0.921	921.1	incongruent	Block1	incongruent/STIM_005.jpg	100
107.949	1.043	1042.7	incongruent	Block1	incongruent/STIM_005.jpg	99
111.31	0.843	842.8	incongruent	Block1	incongruent/STIM_006.jpg	100
115.111	1.198	1197.6	incongruent	Block1	incongruent/STIM_006.jpg	99
119.375	0.764	763.7	incongruent	Block1	incongruent/STIM_006.jpg	100
122.572	0.834	833.7	incongruent	Block1	incongruent/STIM_006.jpg	100
127.377	0.898	898.2	incongruent	Block1	incongruent/STIM_006.jpg	100
131.466	1.383	1382.9	incongruent	Block1	incongruent/STIM_007.jpg	99
135.131	1.129	1129.0	incongruent	Block1	incongruent/STIM_007.jpg	99
139.593	1.042	1042.2	incongruent	Block1	incongruent/STIM_007.jpg	99
142.977	0.577	577.0	incongruent	Block1	incongruent/STIM_007.jpg	100
147.543	0.63	630.3	incongruent	Block1	incongruent/STIM_007.jpg	99
151.851	1.312	1311.7	incongruent	Block1	incongruent/STIM_008.jpg	99
155.678	0.744	743.5	incongruent	Block1	incongruent/STIM_008.jpg	100
159.8	0.74	740.1	incongruent	Block1	incongruent/STIM_008.jpg	100
164.293	0.889	889.2	incongruent	Block1	incongruent/STIM_008.jpg	100
167.567	1.064	1063.8	incongruent	Block1	incongruent/STIM_008.jpg	100
172.616	1.22	1219.6	incongruent	Block1	incongruent/STIM_009.jpg	100
176.864	1.25	1250.1	incongruent	Block1	incongruent/STIM_009.jpg	99
180.394	0.603	603.4	incongruent	Block1	incongruent/STIM_009.jpg	99
184.459	0.701	700.6	incongruent	Block1	incongruent/STIM_009.jpg	99
187.674	0.668	667.7	incongruent	Block1	incongruent/STIM_009.jpg	100
191.138	1.076	1075.5	incongruent	Block1	incongruent/STIM_010.jpg	99
194.41	1.13	1130.2	incongruent	Block1	incongruent/STIM_010.jpg	100
199.472	0.715	715.3	incongruent	Block1	incongruent/STIM_010.jpg	99
202.897	0.824	823.9	incongruent	Block1	incongruent/STIM_010.jpg	100
207.54	0.728	727.8	incongruent	Block1	incongruent/STIM_010.jpg	100
210.885	0.858	857.6	incongruent	Block1	incongruent/STIM_011.jpg	99
214.291	0.621	621.3	incongruent	Block1	incongruent/STIM_011.jpg	100
218.006	0.89	890.2	incongruent	Block1	incongruent/STIM_011.jpg	100
222.42	0.758	758.1	incongruent	Block1	incongruent/STIM_011.jpg	100
225.873	1.093	1093.2	incongruent	Block1	incongruent/STIM_011.jpg	99
230.889	1.222	1221.7	incongruent	Block1	incongruent/STIM_012.jpg	99
235.915	1.065	1065.2	incongruent	Block1	incongruent/STIM_012.jpg	100
239.596	0.63	629.9	incongruent	Block1	incongruent/STIM_012.jpg	99
243.617	1.06	1059.6	incongruent	Block1	incongruent/STIM_012.jpg	100
247.056	0.987	986.8	incongruent	Block1	incongruent/STIM_012.jpg	99
250.491	0.918	917.9	incongruent	Block1	incongruent/STIM_013.jpg	99
254.935	0.894	893.6	incongruent	Block1	incongruent/STIM_013.jpg	99
258.881	0.965	965.0	incongruent	Block1	incongruent/STIM_013.jpg	100
262.01	0.956	955.9	incongruent	Block1	incongruent/STIM_013.jpg	99
265.351	0.673	672.7	incongruent	Block1	incongruent/STIM_013.jpg	99
269.649	1.119	1118.8	incongruent	Block1	incongruent/STIM_014.jpg	100
274.258	1.094	1094.3	incongruent	Block1	incongruent/STIM_014.jpg	99
277.475	0.987	986.7	incongruent	Block1	incongruent/STIM_014.jpg	100
280.568	0.56	560.5	incongruent	Block1	incongruent/STIM_014.jpg	100
284.645	1.096	1095.7	incongruent	Block1	incongruent/STIM_014.jpg	99
289.293	1.223	1222.8	incongruent	Block1	incongruent/STIM_015.jpg	100
292.706	0.624	623.7	incongruent	Block1	incongruent/STIM_015.jpg	100
296.431	1.012	1012.2	incongruent	Block1	incongruent/STIM_015.jpg	100
299.64	1.13	1130.3	incongruent	Block1	incongruent/STIM_015.jpg	99
304.132	1.088	1088.5	incongruent	Block1	incongruent/STIM_015.jpg	99
308.487	1.09	1089.8	incongruent	Block1	incongruent/STIM_016.jpg	100
312.063	1.146	1146.4	incongruent	Block1	incongruent/STIM_016.jpg	100
315.555	1.078	1077.9	incongruent	Block1	incongruent/STIM_016.jpg	99
319.79	0.897	896.8	incongruent	Block1	incongruent/STIM_016.jpg	100
322.838	0.636	636.0	incongruent	Block1	incongruent/STIM_016.jpg	100
325.662	0.719	719.4	incongruent	Block1	incongruent/STIM_017.jpg	100
328.656	1.263	1263.3	incongruent	Block1	incongruent/STIM_017.jpg	99
333.901	1.011	1011.0	incongruent	Block1	incongruent/STIM_017.jpg	99
337.0	0.643	642.9	incongruent	Block1	incongruent/STIM_017.jpg	100
340.442	0.568	567.8	incongruent	Block1	incongruent/STIM_017.jpg	99
344.095	0.845	845.0	incongruent	Block1	incongruent/STIM_018.jpg	100
347.335	1.17	1170.2	incongruent	Block1	incongruent/STIM_018.jpg	100
352.132	1.031	1030.8	incongruent	Block1	incongruent/STIM_018.jpg	100
356.804	0.929	928.7	incongruent	Block1	incongruent/STIM_018.jpg	100
360.322	0.808	807.9	incongruent	Block1	incongruent/STIM_018.jpg	100
363.438	1.063	1062.8	incongruent	Block1	incongruent/STIM_019.jpg	100
367.307	0.683	683.1	incongruent	Block1	incongruent/STIM_019.jpg	99
371.257	0.8	799.5	incongruent	Block1	incongruent/STIM_019.jpg	99
374.752	0.899	899.3	incongruent	Block1	incongruent/STIM_019.jpg	100
378.314	0.568	567.6	incongruent	Block1	incongruent/STIM_019.jpg	100
381.411	0.843	843.4	incongruent	Block1	incongruent/STIM_020.jpg	100
385.184	0.918	918.3	incongruent	Block1	incongruent/STIM_020.jpg	100
389.158	0.65	650.4	incongruent	Block1	incongruent/STIM_020.jpg	100
392.969	1.1	1100.3	incongruent	Block1	incongruent/STIM_020.jpg	99
397.584	0.524	524.4	incongruent	Block1	incongruent/STIM_020.jpg	100
401.424	1.302	1302.0	incongruent	Block1	incongruent/STIM_021.jpg	99
405.363	1.237	1236.9	incongruent	Block1	incongruent/STIM_021.jpg	100
410.154	0.927	927.4	incongruent	Block1	incongruent/STIM_021.jpg	100
414.382	1.126	1126.0	incongruent	Block1	incongruent/STIM_021.jpg	100
418.771	0.889	888.8	incongruent	Block1	incongruent/STIM_021.jpg	99
422.189	1.098	1097.8	incongruent	Block1	incongruent/STIM_022.jpg	99
425.901	0.888	888.4	incongruent	Block1	incongruent/STIM_022.jpg	100
429.33	1.231	1231.3	incongruent	Block1	incongruent/STIM_022.jpg	99
434.379	0.866	866.3	incongruent	Block1	incongruent/STIM_022.jpg	99
437.489	0.955	955.3	incongruent	Block1	incongruent/STIM_022.jpg	100
442.164	1.342	1341.9	incongruent	Block1	incongruent/STIM_023.jpg	99
445.78	0.958	957.5	incongruent	Block1	incongruent/STIM_023.jpg	99
448.894	0.596	595.9	incongruent	Block1	incongruent/STIM_023.jpg	100
452.321	0.842	841.9	incongruent	Block1	incongruent/STIM_023.jpg	99
456.053	0.79	789.9	incongruent	Block1	incongruent/STIM_023.jpg	100
460.606	1.308	1308.5	incongruent	Block1	incongruent/STIM_024.jpg	99
465.15	0.872	872.0	incongruent	Block1	incongruent/STIM_024.jpg	99
468.716	0.967	966.9	incongruent	Block1	incongruent/STIM_024.jpg	100
472.776	0.574	573.8	incongruent	Block1	incongruent/STIM_024.jpg	100
475.933	0.929	928.8	incongruent	Block1	incongruent/STIM_024.jpg	100
480.618	0.673	673.0	incongruent	Block1	incongruent/STIM_025.jpg	99
484.516	1.283	1282.9	incongruent	Block1	incongruent/STIM_025.jpg	100
488.037	0.612	612.0	incongruent	Block1	incongruent/STIM_025.jpg	99
490.772	1.16	1160.3	incongruent	Block1	incongruent/STIM_025.jpg	100
494.845	0.724	724.2	incongruent	Block1	incongruent/STIM_025.jpg	100
499.069	1.351	1351.3	incongruent	Block1	incongruent/STIM_026.jpg	99
503.02	0.893	892.9	incongruent	Block1	incongruent/STIM_026.jpg	99
507.205	0.906	905.9	incongruent	Block1	incongruent/STIM_026.jpg	100
510.329	0.941	941.2	incongruent	Block1	incongruent/STIM_026.jpg	100
514.398	0.559	559.2	incongruent	Block1	incongruent/STIM_026.jpg	99
517.491	0.823	823.0	incongruent	Block1	incongruent/STIM_027.jpg	99
520.376	1.102	1102.4	incongruent	Block1	incongruent/STIM_027.jpg	99
524.846	0.664	663.5	incongruent	Block1	incongruent/STIM_027.jpg	99
527.986	0.776	776.5	incongruent	Block1	incongruent/STIM_027.jpg	99
531.35	0.624	623.7	incongruent	Block1	incongruent/STIM_027.jpg	99
535.346	1.084	1084.3	incongruent	Block1	incongruent/STIM_028.jpg	100
539.883	0.731	731.4	incongruent	Block1	incongruent/STIM_028.jpg	99
542.772	1.216	1216.3	incongruent	Block1	incongruent/STIM_028.jpg	100
546.875	0.91	910.5	incongruent	Block1	incongruent/STIM_028.jpg	100
549.997	0.766	766.5	incongruent	Block1	incongruent/STIM_028.jpg	99
554.043	1.178	1178.0	incongruent	Block1	incongruent/STIM_029.jpg	99
557.227	0.771	771.4	incongruent	Block1	incongruent/STIM_029.jpg	100
560.108	0.744	744.2	incongruent	Block1	incongruent/STIM_029.jpg	100
563.781	0.974	973.5	incongruent	Block1	incongruent/STIM_029.jpg	100
567.149	0.905	904.8	incongruent	Block1	incongruent/STIM_029.jpg	100
570.242	0.808	807.7	congruent	Block1	congruent/STIM_000.jpg	99
573.33	0.8	800.3	congruent	Block1	congruent/STIM_000.jpg	99
576.482	0.676	675.5	congruent	Block1	congruent/STIM_000.jpg	99
580.604	0.656	656.1	congruent	Block1	congruent/STIM_000.jpg	100
583.914	0.814	814.0	congruent	Block1	congruent/STIM_000.jpg	100
588.692	0.796	795.6	congruent	Block1	congruent/STIM_001.jpg	100
593.144	0.69	690.1	congruent	Block1	congruent/STIM_001.jpg	100
596.137	0.72	719.7	congruent	Block1	congruent/STIM_001.jpg	99
599.59	0.493	493.4	congruent	Block1	congruent/STIM_001.jpg	99
603.816	0.522	522.1	congruent	Block1	congruent/STIM_001.jpg	99
607.641	0.804	803.9	congruent	Block1	congruent/STIM_002.jpg	99
611.356	0.598	598.4	congruent	Block1	congruent/STIM_002.jpg	100
614.087	0.727	727.1	congruent	Block1	congruent/STIM_002.jpg	99
618.657	0.674	674.3	congruent	Block1	congruent/STIM_002.jpg	100
622.949	0.582	582.2	congruent	Block1	congruent/STIM_002.jpg	99
627.449	0.681	681.2	congruent	Block1	congruent/STIM_003.jpg	99
630.742	0.587	587.1	congruent	Block1	congruent/STIM_003.jpg	100
635.263	0.614	614.5	congruent	Block1	congruent/STIM_003.jpg	99
639.131	0.789	789.2	congruent	Block1	congruent/STIM_003.jpg	99
642.662	0.541	541.2	congruent	Block1	congruent/STIM_003.jpg	99
646.632	0.551	550.6	congruent	Block1	congruent/STIM_004.jpg	100
649.502	0.565	564.8	congruent	Block1	congruent/STIM_004.jpg	100
652.942	0.747	747.2	congruent	Block1	congruent/STIM_004.jpg	99
657.589	0.782	781.6	congruent	Block1	congruent/STIM_004.jpg	99
661.222	0.736	735.8	congruent	Block1	congruent/STIM_004.jpg	100
664.929	0.721	721.4	congruent	Block1	congruent/STIM_005.jpg	100
669.326	0.803	803.4	congruent	Block1	congruent/STIM_005.jpg	100
673.633	0.636	635.9	congruent	Block1	congruent/STIM_005.jpg	99
676.891	0.535	534.8	congruent	Block1	congruent/STIM_005.jpg	100
681.169	0.614	613.5	congruent	Block1	congruent/STIM_005.jpg	100
684.064	0.727	727.0	congruent	Block1	congruent/STIM_006.jpg	99
688.777	0.825	825.4	congruent	Block1	congruent/STIM_006.jpg	100
693.257	0.678	678.4	congruent	Block1	congruent/STIM_006.jpg	99
697.713	0.659	658.6	congruent	Block1	congruent/STIM_006.jpg	99
701.096	0.73	730.3	congruent	Block1	congruent/STIM_006.jpg	100
704.609	0.705	704.8	congruent	Block1	congruent/STIM_007.jpg	100
708.514	0.777	776.6	congruent	Block1	congruent/STIM_007.jpg	100
712.932	0.829	829.0	congruent	Block1	congruent/STIM_007.jpg	99
717.625	0.823	822.6	congruent	Block1	congruent/STIM_007.jpg	99
720.909	0.736	735.6	congruent	Block1	congruent/STIM_007.jpg	99
724.314	0.72	720.3	congruent	Block1	congruent/STIM_008.jpg	99
728.704	0.723	723.3	congruent	Block1	congruent/STIM_008.jpg	99
733.103	0.536	536.5	congruent	Block1	congruent/STIM_008.jpg	99
735.993	0.701	701.0	congruent	Block1	congruent/STIM_008.jpg	100
739.39	0.728	727.9	congruent	Block1	congruent/STIM_008.jpg	100
742.141	0.612	612.5	congruent	Block1	congruent/STIM_009.jpg	100
745.973	0.656	655.9	congruent	Block1	congruent/STIM_009.jpg	99
748.694	0.833	833.1	congruent	Block1	congruent/STIM_009.jpg	99
753.18	0.563	563.0	congruent	Block1	congruent/STIM_009.jpg	99
757.36	0.562	561.5	congruent	Block1	congruent/STIM_009.jpg	100
760.305	0.716	716.5	congruent	Block1	congruent/STIM_010.jpg	99
763.877	0.548	547.5	congruent	Block1	congruent/STIM_010.jpg	100
766.685	0.471	471.0	congruent	Block1	congruent/STIM_010.jpg	100
769.979	0.647	647.4	congruent	Block1	congruent/STIM_010.jpg	100
774.466	0.555	554.8	congruent	Block1	congruent/STIM_010.jpg	100
777.178	0.825	825.1	congruent	Block1	congruent/STIM_011.jpg	99
781.072	0.584	584.4	congruent	Block1	congruent/STIM_011.jpg	100
783.969	0.551	551.1	congruent	Block1	congruent/STIM_011.jpg	99
788.456	0.597	597.2	congruent	Block1	congruent/STIM_011.jpg	99
792.557	0.828	828.2	congruent	Block1	congruent/STIM_011.jpg	99
796.598	0.468	467.6	congruent	Block1	congruent/STIM_012.jpg	99
800.38	0.79	790.3	congruent	Block1	congruent/STIM_012.jpg	99
804.537	0.836	836.2	congruent	Block1	congruent/STIM_012.jpg	100
808.08	0.644	644.0	congruent	Block1	congruent/STIM_012.jpg	99
811.238	0.63	630.0	congruent	Block1	congruent/STIM_012.jpg	100
815.817	0.719	719.3	congruent	Block1	congruent/STIM_013.jpg	100
819.992	0.623	623.4	congruent	Block1	congruent/STIM_013.jpg	99
822.776	0.788	788.5	congruent	Block1	congruent/STIM_013.jpg	99
826.121	0.767	766.9	congruent	Block1	congruent/STIM_013.jpg	99
830.438	0.789	788.8	congruent	Block1	congruent/STIM_013.jpg	100
833.62	0.546	545.5	congruent	Block1	congruent/STIM_014.jpg	100
837.439	0.79	789.8	congruent	Block1	congruent/STIM_014.jpg	100
841.276	0.526	525.7	congruent	Block1	congruent/STIM_014.jpg	100
844.857	0.779	779.2	congruent	Block1	congruent/STIM_014.jpg	99
849.197	0.827	827.0	congruent	Block1	congruent/STIM_014.jpg	100
852.481	0.642	642.2	congruent	Block1	congruent/STIM_015.jpg	100
855.843	0.737	737.0	congruent	Block1	congruent/STIM_015.jpg	99
859.571	0.61	610.3	congruent	Block1	congruent/STIM_015.jpg	100
862.375	0.828	828.1	congruent	Block1	congruent/STIM_015.jpg	100
867.162	0.732	731.6	congruent	Block1	congruent/STIM_015.jpg	99
870.153	0.616	615.5	congruent	Block1	congruent/STIM_016.jpg	100
874.757	0.523	522.6	congruent	Block1	congruent/STIM_016.jpg	99
878.376	0.752	752.3	congruent	Block1	congruent/STIM_016.jpg	100
882.663	0.734	734.5	congruent	Block1	congruent/STIM_016.jpg	100
886.782	0.586	585.5	congruent	Block1	congruent/STIM_016.jpg	99
891.185	0.553	553.4	congruent	Block1	congruent/STIM_017.jpg	100
894.634	0.778	778.2	congruent	Block1	congruent/STIM_017.jpg	99
899.141	0.76	759.8	congruent	Block1	congruent/STIM_017.jpg	99
903.066	0.586	586.0	congruent	Block1	congruent/STIM_017.jpg	99
905.739	0.579	578.6	congruent	Block1	congruent/STIM_017.jpg	99
908.919	0.778	778.3	congruent	Block1	congruent/STIM_018.jpg	99
912.456	0.668	668.5	congruent	Block1	congruent/STIM_018.jpg	100
916.936	0.631	630.7	congruent	Block1	congruent/STIM_018.jpg	99
920.387	0.698	697.6	congruent	Block1	congruent/STIM_018.jpg	99
923.42	0.834	833.6	congruent	Block1	congruent/STIM_018.jpg	99
926.274	0.757	756.6	congruent	Block1	congruent/STIM_019.jpg	100
929.239	0.583	582.7	congruent	Block1	congruent/STIM_019.jpg	100
933.283	0.542	542.3	congruent	Block1	congruent/STIM_019.jpg	99
936.212	0.794	794.2	congruent	Block1	congruent/STIM_019.jpg	99
939.81	0.828	828.1	congruent	Block1	congruent/STIM_019.jpg	100
943.813	0.787	786.9	congruent	Block1	congruent/STIM_020.jpg	99
948.24	0.782	781.5	congruent	Block1	congruent/STIM_020.jpg	99
951.589	0.773	773.1	congruent	Block1	congruent/STIM_020.jpg	100
955.703	0.65	650.0	congruent	Block1	congruent/STIM_020.jpg	100
960.063	0.658	657.9	congruent	Block1	congruent/STIM_020.jpg	100
963.216	0.483	483.1	congruent	Block1	congruent/STIM_021.jpg	100
967.493	0.721	721.4	congruent	Block1	congruent/STIM_021.jpg	100
971.752	0.615	615.4	congruent	Block1	congruent/STIM_021.jpg	100
975.895	0.478	477.8	congruent	Block1	congruent/STIM_021.jpg	99
979.042	0.812	811.9	congruent	Block1	congruent/STIM_021.jpg	99
983.812	0.511	511.1	congruent	Block1	congruent/STIM_022.jpg	100
986.37	0.633	632.9	congruent	Block1	congruent/STIM_022.jpg	100
990.275	0.661	660.9	congruent	Block1	congruent/STIM_022.jpg	100
993.377	0.771	770.6	congruent	Block1	congruent/STIM_022.jpg	100
996.244	0.559	558.8	congruent	Block1	congruent/STIM_022.jpg	99
1000.201	0.489	489.1	congruent	Block1	congruent/STIM_023.jpg	100
1004.027	0.551	550.6	congruent	Block1	congruent/STIM_023.jpg	99
1008.517	0.774	773.6	congruent	Block1	congruent/STIM_023.jpg	99
1012.854	0.78	780.1	congruent	Block1	congruent/STIM_023.jpg	99
1017.444	0.485	485.4	congruent	Block1	congruent/STIM_023.jpg	99
1020.194	0.691	690.8	congruent	Block1	congruent/STIM_024.jpg	99
1023.04	0.475	474.9	congruent	Block1	congruent/STIM_024.jpg	100
1027.402	0.612	612.3	congruent	Block1	congruent/STIM_024.jpg	99
1030.752	0.735	734.8	congruent	Block1	congruent/STIM_024.jpg	99
1034.268	0.552	551.5	congruent	Block1	congruent/STIM_024.jpg	99
1037.045	0.751	751.3	congruent	Block1	congruent/STIM_025.jpg	99
1040.717	0.812	811.8	congruent	Block1	congruent/STIM_025.jpg	99
1045.055	0.642	641.8	congruent	Block1	congruent/STIM_025.jpg	99
1049.297	0.576	576.2	congruent	Block1	congruent/STIM_025.jpg	99
1053.569	0.831	831.2	congruent	Block1	congruent/STIM_025.jpg	100
1057.944	0.707	707.1	congruent	Block1	congruent/STIM_026.jpg	100
1061.177	0.495	495.1	congruent	Block1	congruent/STIM_026.jpg	99
1064.648	0.494	493.8	congruent	Block1	congruent/STIM_026.jpg	99
1067.822	0.562	562.3	congruent	Block1	congruent/STIM_026.jpg	99
1071.033	0.531	530.6	congruent	Block1	congruent/STIM_026.jpg	100
1073.601	0.558	558.5	congruent	Block1	congruent/STIM_027.jpg	100
1077.89	0.692	692.2	congruent	Block1	congruent/STIM_027.jpg	99
1082.143	0.698	697.6	congruent	Block1	congruent/STIM_027.jpg	100
1086.126	0.708	707.9	congruent	Block1	congruent/STIM_027.jpg	100
1090.336	0.528	528.4	congruent	Block1	congruent/STIM_027.jpg	99
1094.364	0.804	804.3	congruent	Block1	congruent/STIM_028.jpg	100
1098.764	0.75	750.1	congruent	Block1	congruent/STIM_028.jpg	100
1103.395	0.783	783.1	congruent	Block1	congruent/STIM_028.jpg	100
1106.652	0.523	522.9	congruent	Block1	congruent/STIM_028.jpg	100
1109.373	0.552	551.8	congruent	Block1	congruent/STIM_028.jpg	100
1113.576	0.58	579.7	congruent	Block1	congruent/STIM_029.jpg	99
1117.093	0.62	620.5	congruent	Block1	congruent/STIM_029.jpg	99
1120.814	0.649	649.2	congruent	Block1	congruent/STIM_029.jpg	99
1125.133	0.747	746.8	congruent	Block1	congruent/STIM_029.jpg	99
1129.658	0.563	562.8	congruent	Block1	congruent/STIM_029.jpg	99
1133.21	0.704	703.8	incongruent	Block2	incongruent/STIM_000.jpg	99
1137.538	0.532	532.5	incongruent	Block2	incongruent/STIM_000.jpg	100
1141.787	1.01	1010.1	incongruent	Block2	incongruent/STIM_000.jpg	99
1146.15	0.956	955.9	incongruent	Block2	incongruent/STIM_000.jpg	100
1151.077	0.626	625.5	incongruent	Block2	incongruent/STIM_000.jpg	99
1155.642	0.577	576.6	incongruent	Block2	incongruent/STIM_001.jpg	100
1160.088	0.685	685.1	incongruent	Block2	incongruent/STIM_001.jpg	100
1164.412	0.934	933.6	incongruent	Block2	incongruent/STIM_001.jpg	99
1167.766	0.721	720.6	incongruent	Block2	incongruent/STIM_001.jpg	100
1171.702	0.76	759.8	incongruent	Block2	incongruent/STIM_001.jpg	100
1175.434	1.004	1003.8	incongruent	Block2	incongruent/STIM_002.jpg	99
1180.089	0.725	725.2	incongruent	Block2	incongruent/STIM_002.jpg	100
1184.208	0.964	963.7	incongruent	Block2	incongruent/STIM_002.jpg	100
1188.827	0.684	683.7	incongruent	Block2	incongruent/STIM_002.jpg	100
1192.691	0.77	769.7	incongruent	Block2	incongruent/STIM_002.jpg	99
1195.878	0.903	902.6	incongruent	Block2	incongruent/STIM_003.jpg	99
1198.908	0.937	936.7	incongruent	Block2	incongruent/STIM_003.jpg	99
1203.284	1.014	1013.6	incongruent	Block2	incongruent/STIM_003.jpg	100
1206.454	0.76	760.0	incongruent	Block2	incongruent/STIM_003.jpg	100
1210.139	0.898	898.1	incongruent	Block2	incongruent/STIM_003.jpg	100
1214.195	0.871	871.3	incongruent	Block2	incongruent/STIM_004.jpg	100
1218.276	0.591	591.1	incongruent	Block2	incongruent/STIM_004.jpg	99
1222.737	0.884	883.6	incongruent	Block2	incongruent/STIM_004.jpg	99
1226.449	0.579	578.7	incongruent	Block2	incongruent/STIM_004.jpg	99
1229.623	0.602	601.8	incongruent	Block2	incongruent/STIM_004.jpg	100
1233.641	1.14	1139.9	incongruent	Block2	incongruent/STIM_005.jpg	99
1238.024	0.589	588.6	incongruent	Block2	incongruent/STIM_005.jpg	100
1241.823	0.736	735.9	incongruent	Block2	incongruent/STIM_005.jpg	100
1245.592	0.628	628.2	incongruent	Block2	incongruent/STIM_005.jpg	99
1249.03	0.853	853.3	incongruent	Block2	incongruent/STIM_005.jpg	99
1253.723	0.859	859.2	incongruent	Block2	incongruent/STIM_006.jpg	99
1256.585	1.034	1033.8	incongruent	Block2	incongruent/STIM_006.jpg	99
1260.044	1.021	1020.7	incongruent	Block2	incongruent/STIM_006.jpg	100
1263.272	0.526	526.1	incongruent	Block2	incongruent/STIM_006.jpg	100
1267.368	0.473	473.2	incongruent	Block2	incongruent/STIM_006.jpg	99
1271.027	0.644	643.9	incongruent	Block2	incongruent/STIM_007.jpg	99
1274.965	0.95	950.2	incongruent	Block2	incongruent/STIM_007.jpg	100
1277.964	1.041	1041.0	incongruent	Block2	incongruent/STIM_007.jpg	100
1282.704	0.46	460.2	incongruent	Block2	incongruent/STIM_007.jpg	99
1286.524	0.956	956.2	incongruent	Block2	incongruent/STIM_007.jpg	99
1289.812	0.81	809.8	incongruent	Block2	incongruent/STIM_008.jpg	99
1293.865	0.642	641.5	incongruent	Block2	incongruent/STIM_008.jpg	100
1297.918	0.946	946.1	incongruent	Block2	incongruent/STIM_008.jpg	99
1301.937	0.506	506.5	incongruent	Block2	incongruent/STIM_008.jpg	99
1306.055	0.475	475.0	incongruent	Block2	incongruent/STIM_008.jpg	99
1310.426	0.803	802.6	incongruent	Block2	incongruent/STIM_009.jpg	99
1313.538	0.812	811.8	incongruent	Block2	incongruent/STIM_009.jpg	100
1317.265	0.689	689.4	incongruent	Block2	incongruent/STIM_009.jpg	100
1320.9	0.918	918.3	incongruent	Block2	incongruent/STIM_009.jpg	100
1324.964	0.788	788.0	incongruent	Block2	incongruent/STIM_009.jpg	100
1329.549	1.042	1042.1	incongruent	Block2	incongruent/STIM_010.jpg	100
1333.231	0.612	611.7	incongruent	Block2	incongruent/STIM_010.jpg	100
1337.695	0.912	911.5	incongruent	Block2	incongruent/STIM_010.jpg	100
1341.543	0.596	596.1	incongruent	Block2	incongruent/STIM_010.jpg	100
1344.793	0.782	781.8	incongruent	Block2	incongruent/STIM_010.jpg	100
1347.971	0.631	631.4	incongruent	Block2	incongruent/STIM_011.jpg	100
1351.847	0.955	954.8	incongruent	Block2	incongruent/STIM_011.jpg	100
1356.748	0.72	720.5	incongruent	Block2	incongruent/STIM_011.jpg	100
1360.655	0.538	538.1	incongruent	Block2	incongruent/STIM_011.jpg	99
1364.913	0.69	690.5	incongruent	Block2	incongruent/STIM_011.jpg	100
1367.821	1.154	1153.7	incongruent	Block2	incongruent/STIM_012.jpg	99
1371.799	0.819	819.3	incongruent	Block2	incongruent/STIM_012.jpg	100
1376.532	0.79	790.5	incongruent	Block2	incongruent/STIM_012.jpg	100
1381.132	0.544	544.3	incongruent	Block2	incongruent/STIM_012.jpg	99
1385.318	0.769	769.3	incongruent	Block2	incongruent/STIM_012.jpg	99
1388.244	0.923	922.8	incongruent	Block2	incongruent/STIM_013.jpg	99
1391.293	0.678	677.7	incongruent	Block2	incongruent/STIM_013.jpg	99
1395.596	0.538	537.7	incongruent	Block2	incongruent/STIM_013.jpg	100
1399.19	0.842	841.7	incongruent	Block2	incongruent/STIM_013.jpg	100
1403.705	0.894	893.6	incongruent	Block2	incongruent/STIM_013.jpg	99
1406.843	0.941	941.0	incongruent	Block2	incongruent/STIM_014.jpg	100
1409.979	1.101	1100.6	incongruent	Block2	incongruent/STIM_014.jpg	99
1413.832	0.922	922.2	incongruent	Block2	incongruent/STIM_014.jpg	99
1418.317	0.585	585.2	incongruent	Block2	incongruent/STIM_014.jpg	99
1422.379	0.74	740.1	incongruent	Block2	incongruent/STIM_014.jpg	100
1425.442	0.915	915.1	incongruent	Block2	incongruent/STIM_015.jpg	99
1429.794	1.05	1049.5	incongruent	Block2	incongruent/STIM_015.jpg	100
1434.742	0.581	581.0	incongruent	Block2	incongruent/STIM_015.jpg	99
1437.544	0.678	677.9	incongruent	Block2	incongruent/STIM_015.jpg	100
1441.6	0.705	705.2	incongruent	Block2	incongruent/STIM_015.jpg	99
1444.395	0.633	633.4	incongruent	Block2	incongruent/STIM_016.jpg	99
1447.965	0.812	811.8	incongruent	Block2	incongruent/STIM_016.jpg	100
1452.234	0.784	783.6	incongruent	Block2	incongruent/STIM_016.jpg	99
1456.161	0.676	676.5	incongruent	Block2	incongruent/STIM_016.jpg	100
1460.35	0.47	469.9	incongruent	Block2	incongruent/STIM_016.jpg	99
1464.596	0.61	610.5	incongruent	Block2	incongruent/STIM_017.jpg	100
1467.563	0.978	977.7	incongruent	Block2	incongruent/STIM_017.jpg	99
1471.004	0.558	557.9	incongruent	Block2	incongruent/STIM_017.jpg	99
1474.052	0.803	802.8	incongruent	Block2	incongruent/STIM_017.jpg	99
1477.414	0.874	874.0	incongruent	Block2	incongruent/STIM_017.jpg	99
1480.889	0.84	840.4	incongruent	Block2	incongruent/STIM_018.jpg	99
1484.861	1.024	1023.5	incongruent	Block2	incongruent/STIM_018.jpg	99
1489.444	0.655	654.8	incongruent	Block2	incongruent/STIM_018.jpg	99
1492.7	0.852	852.3	incongruent	Block2	incongruent/STIM_018.jpg	100
1497.09	0.883	883.1	incongruent	Block2	incongruent/STIM_018.jpg	99
1501.576	0.97	969.7	incongruent	Block2	incongruent/STIM_019.jpg	100
1504.709	1.065	1065.2	incongruent	Block2	incongruent/STIM_019.jpg	100
1508.28	0.572	571.8	incongruent	Block2	incongruent/STIM_019.jpg	100
1512.835	0.68	679.6	incongruent	Block2	incongruent/STIM_019.jpg	99
1515.904	0.763	763.2	incongruent	Block2	incongruent/STIM_019.jpg	99
1520.463	0.702	701.8	incongruent	Block2	incongruent/STIM_020.jpg	99
1524.181	0.835	834.9	incongruent	Block2	incongruent/STIM_020.jpg	99
1528.011	0.534	534.0	incongruent	Block2	incongruent/STIM_020.jpg	100
1531.079	0.636	635.5	incongruent	Block2	incongruent/STIM_020.jpg	99
1534.691	0.892	892.1	incongruent	Block2	incongruent/STIM_020.jpg	100
1538.768	0.884	883.6	incongruent	Block2	incongruent/STIM_021.jpg	99
1541.687	0.719	719.2	incongruent	Block2	incongruent/STIM_021.jpg	100
1544.778	0.791	790.7	incongruent	Block2	incongruent/STIM_021.jpg	99
1547.58	0.547	546.9	incongruent	Block2	incongruent/STIM_021.jpg	100
1552.106	0.93	930.1	incongruent	Block2	incongruent/STIM_021.jpg	100
1555.247	1.085	1085.4	incongruent	Block2	incongruent/STIM_022.jpg	100
1560.04	0.935	934.9	incongruent	Block2	incongruent/STIM_022.jpg	100
1563.936	0.935	935.2	incongruent	Block2	incongruent/STIM_022.jpg	100
1567.038	0.582	582.2	incongruent	Block2	incongruent/STIM_022.jpg	99
1571.183	0.512	511.8	incongruent	Block2	incongruent/STIM_022.jpg	99
1574.094	0.738	738.0	incongruent	Block2	incongruent/STIM_023.jpg	99
1578.139	0.944	944.5	incongruent	Block2	incongruent/STIM_023.jpg	100
1581.779	0.654	654.3	incongruent	Block2	incongruent/STIM_023.jpg	99
1586.274	0.79	790.3	incongruent	Block2	incongruent/STIM_023.jpg	100
1589.118	0.652	651.5	incongruent	Block2	incongruent/STIM_023.jpg	99
1593.188	1.019	1019.3	incongruent	Block2	incongruent/STIM_024.jpg	100
1597.808	0.682	682.5	incongruent	Block2	incongruent/STIM_024.jpg	100
1600.751	0.936	935.6	incongruent	Block2	incongruent/STIM_024.jpg	100
1604.278	0.556	556.3	incongruent	Block2	incongruent/STIM_024.jpg	99
1608.131	0.669	669.2	incongruent	Block2	incongruent/STIM_024.jpg	100
1611.763	1.115	1114.8	incongruent	Block2	incongruent/STIM_025.jpg	100
1616.278	1.083	1083.0	incongruent	Block2	incongruent/STIM_025.jpg	100
1619.717	0.972	972.4	incongruent	Block2	incongruent/STIM_025.jpg	100
1622.857	0.709	709.3	incongruent	Block2	incongruent/STIM_025.jpg	100
1627.129	0.515	514.7	incongruent	Block2	incongruent/STIM_025.jpg	100
1631.277	0.666	665.9	incongruent	Block2	incongruent/STIM_026.jpg	100
1635.072	0.901	901.2	incongruent	Block2	incongruent/STIM_026.jpg	100
1638.41	0.999	998.9	incongruent	Block2	incongruent/STIM_026.jpg	99
1643.069	0.555	555.3	incongruent	Block2	incongruent/STIM_026.jpg	99
1647.011	0.545	545.0	incongruent	Block2	incongruent/STIM_026.jpg	99
1651.345	1.012	1012.0	incongruent	Block2	incongruent/STIM_027.jpg	100
1654.789	0.891	891.4	incongruent	Block2	incongruent/STIM_027.jpg	100
1658.864	0.635	635.0	incongruent	Block2	incongruent/STIM_027.jpg	100
1661.845	0.754	754.0	incongruent	Block2	incongruent/STIM_027.jpg	99
1665.52	0.806	805.9	incongruent	Block2	incongruent/STIM_027.jpg	99
1669.643	0.767	766.7	incongruent	Block2	incongruent/STIM_028.jpg	100
1673.875	0.725	725.2	incongruent	Block2	incongruent/STIM_028.jpg	100
1678.505	0.866	866.1	incongruent	Block2	incongruent/STIM_028.jpg	99
1682.618	0.592	592.0	incongruent	Block2	incongruent/STIM_028.jpg	100
1686.545	0.608	607.9	incongruent	Block2	incongruent/STIM_028.jpg	99
1690.178	1.011	1010.8	incongruent	Block2	incongruent/STIM_029.jpg	99
1694.544	1.042	1042.1	incongruent	Block2	incongruent/STIM_029.jpg	100
1698.044	0.859	859.0	incongruent	Block2	incongruent/STIM_029.jpg	100
1701.275	0.939	938.6	incongruent	Block2	incongruent/STIM_029.jpg	99
1705.014	0.899	898.7	incongruent	Block2	incongruent/STIM_029.jpg	99
1708.626	0.818	818.5	congruent	Block2	congruent/STIM_000.jpg	100
1712.998	0.708	707.9	congruent	Block2	congruent/STIM_000.jpg	99
1716.113	0.814	813.6	congruent	Block2	congruent/STIM_000.jpg	99
1719.934	0.67	670.0	congruent	Block2	congruent/STIM_000.jpg	99
1722.745	0.624	624.4	congruent	Block2	congruent/STIM_000.jpg	100
1726.361	0.703	702.9	congruent	Block2	congruent/STIM_001.jpg	100
1729.495	0.681	680.8	congruent	Block2	congruent/STIM_001.jpg	100
1733.74	0.612	612.0	congruent	Block2	congruent/STIM_001.jpg	100
1736.925	0.572	571.9	congruent	Block2	congruent/STIM_001.jpg	100
1740.313	0.624	624.5	congruent	Block2	congruent/STIM_001.jpg	99
1743.359	0.678	677.8	congruent	Block2	congruent/STIM_002.jpg	100
1747.019	0.756	755.7	congruent	Block2	congruent/STIM_002.jpg	100
1751.171	0.547	546.8	congruent	Block2	congruent/STIM_002.jpg	99
1754.547	0.561	561.1	congruent	Block2	congruent/STIM_002.jpg	99
1757.864	0.794	794.3	congruent	Block2	congruent/STIM_002.jpg	100
1762.633	0.836	835.8	congruent	Block2	congruent/STIM_003.jpg	100
1766.434	0.814	814.3	congruent	Block2	congruent/STIM_003.jpg	99
1771.149	0.72	720.5	congruent	Block2	congruent/STIM_003.jpg	99
1774.632	0.664	663.6	congruent	Block2	congruent/STIM_003.jpg	99
1778.961	0.788	788.4	congruent	Block2	congruent/STIM_003.jpg	100
1782.282	0.802	802.3	congruent	Block2	congruent/STIM_004.jpg	99
1786.537	0.827	827.1	congruent	Block2	congruent/STIM_004.jpg	100
1790.504	0.716	716.4	congruent	Block2	congruent/STIM_004.jpg	100
1795.1	0.619	618.9	congruent	Block2	congruent/STIM_004.jpg	99
1799.348	0.679	679.4	congruent	Block2	congruent/STIM_004.jpg	99
1802.153	0.692	692.5	congruent	Block2	congruent/STIM_005.jpg	99
1806.034	0.667	666.8	congruent	Block2	congruent/STIM_005.jpg	99
1809.173	0.834	833.8	congruent	Block2	congruent/STIM_005.jpg	100
1812.613	0.825	825.2	congruent	Block2	congruent/STIM_005.jpg	99
1815.668	0.756	756.4	congruent	Block2	congruent/STIM_005.jpg	99
1820.377	0.787	787.2	congruent	Block2	congruent/STIM_006.jpg	99
1824.112	0.756	756.1	congruent	Block2	congruent/STIM_006.jpg	100
1827.814	0.685	684.9	congruent	Block2	congruent/STIM_006.jpg	100
1830.947	0.727	727.2	congruent	Block2	congruent/STIM_006.jpg	100
1835.665	0.744	744.3	congruent	Block2	congruent/STIM_006.jpg	99
1839.079	0.678	677.6	congruent	Block2	congruent/STIM_007.jpg	100
1842.685	0.61	609.6	congruent	Block2	congruent/STIM_007.jpg	100
1846.538	0.803	802.9	congruent	Block2	congruent/STIM_007.jpg	100
1849.974	0.815	814.9	congruent	Block2	congruent/STIM_007.jpg	99
1854.452	0.837	836.9	congruent	Block2	congruent/STIM_007.jpg	99
1858.951	0.71	709.5	congruent	Block2	congruent/STIM_008.jpg	100
1862.496	0.614	614.2	congruent	Block2	congruent/STIM_008.jpg	99
1865.414	0.722	721.9	congruent	Block2	congruent/STIM_008.jpg	100
1868.382	0.611	611.3	congruent	Block2	congruent/STIM_008.jpg	100
1872.6	0.739	739.1	congruent	Block2	congruent/STIM_008.jpg	100
1875.563	0.5	500.2	congruent	Block2	congruent/STIM_009.jpg	99
1879.597	0.617	617.3	congruent	Block2	congruent/STIM_009.jpg	99
1882.755	0.49	490.0	congruent	Block2	congruent/STIM_009.jpg	100
1885.965	0.773	773.4	congruent	Block2	congruent/STIM_009.jpg	99
1890.091	0.466	466.1	congruent	Block2	congruent/STIM_009.jpg	99
1893.89	0.581	581.4	congruent	Block2	congruent/STIM_010.jpg	99
1897.642	0.633	632.6	congruent	Block2	congruent/STIM_010.jpg	99
1901.174	0.826	825.9	congruent	Block2	congruent/STIM_010.jpg	100
1905.842	0.831	831.0	congruent	Block2	congruent/STIM_010.jpg	100
1910.363	0.662	662.0	congruent	Block2	congruent/STIM_010.jpg	99
1914.015	0.532	531.9	congruent	Block2	congruent/STIM_011.jpg	100
1917.182	0.536	536.5	congruent	Block2	congruent/STIM_011.jpg	99
1920.88	0.486	486.3	congruent	Block2	congruent/STIM_011.jpg	100
1924.825	0.727	727.0	congruent	Block2	congruent/STIM_011.jpg	100
1927.756	0.708	708.0	congruent	Block2	congruent/STIM_011.jpg	100
1931.531	0.582	581.7	congruent	Block2	congruent/STIM_012.jpg	100
1934.73	0.807	807.0	congruent	Block2	congruent/STIM_012.jpg	100
1939.082	0.512	511.8	congruent	Block2	congruent/STIM_012.jpg	100
1941.724	0.754	754.4	congruent	Block2	congruent/STIM_012.jpg	100
1945.833	0.551	550.8	congruent	Block2	congruent/STIM_012.jpg	100
1948.408	0.483	482.6	congruent	Block2	congruent/STIM_013.jpg	99
1951.822	0.553	553.1	congruent	Block2	congruent/STIM_013.jpg	100
1954.571	0.812	811.5	congruent	Block2	congruent/STIM_013.jpg	100
1957.685	0.781	781.0	congruent	Block2	congruent/STIM_013.jpg	100
1960.807	0.825	824.6	congruent	Block2	congruent/STIM_013.jpg	100
1965.29	0.535	535.2	congruent	Block2	congruent/STIM_014.jpg	99
1968.941	0.528	527.5	congruent	Block2	congruent/STIM_014.jpg	99
1971.754	0.626	625.5	congruent	Block2	congruent/STIM_014.jpg	99
1976.334	0.675	674.9	congruent	Block2	congruent/STIM_014.jpg	100
1980.597	0.62	619.6	congruent	Block2	congruent/STIM_014.jpg	99
1984.497	0.629	628.9	congruent	Block2	congruent/STIM_015.jpg	100
1987.776	0.6	600.1	congruent	Block2	congruent/STIM_015.jpg	99
1990.462	0.818	818.0	congruent	Block2	congruent/STIM_015.jpg	99
1994.224	0.668	667.8	congruent	Block2	congruent/STIM_015.jpg	100
1997.641	0.566	565.7	congruent	Block2	congruent/STIM_015.jpg	99
2001.652	0.541	540.7	congruent	Block2	congruent/STIM_016.jpg	99
2004.676	0.528	528.4	congruent	Block2	congruent/STIM_016.jpg	100
2007.46	0.488	488.5	congruent	Block2	congruent/STIM_016.jpg	100
2011.248	0.716	716.0	congruent	Block2	congruent/STIM_016.jpg	100
2014.169	0.608	608.4	congruent	Block2	congruent/STIM_016.jpg	100
2018.717	0.474	474.1	congruent	Block2	congruent/STIM_017.jpg	99
2022.631	0.662	661.6	congruent	Block2	congruent/STIM_017.jpg	100
2026.169	0.506	506.0	congruent	Block2	congruent/STIM_017.jpg	99
2028.681	0.547	547.0	congruent	Block2	congruent/STIM_017.jpg	99
2032.212	0.78	780.0	congruent	Block2	congruent/STIM_017.jpg	100
2035.003	0.745	744.6	congruent	Block2	congruent/STIM_018.jpg	99
2038.738	0.532	531.9	congruent	Block2	congruent/STIM_018.jpg	99
2042.972	0.639	638.9	congruent	Block2	congruent/STIM_018.jpg	100
2047.577	0.718	718.5	congruent	Block2	congruent/STIM_018.jpg	99
2050.929	0.48	479.7	congruent	Block2	congruent/STIM_018.jpg	99
2054.92	0.513	513.2	congruent	Block2	congruent/STIM_019.jpg	99
2058.445	0.466	466.4	congruent	Block2	congruent/STIM_019.jpg	99
2062.592	0.542	542.3	congruent	Block2	congruent/STIM_019.jpg	100
2066.487	0.709	709.4	congruent	Block2	congruent/STIM_019.jpg	99
2069.821	0.823	823.2	congruent	Block2	congruent/STIM_019.jpg	100
2072.71	0.8	800.2	congruent	Block2	congruent/STIM_020.jpg	100
2076.521	0.504	503.6	congruent	Block2	congruent/STIM_020.jpg	99
2079.103	0.833	832.8	congruent	Block2	congruent/STIM_020.jpg	99
2082.714	0.733	733.3	congruent	Block2	congruent/STIM_020.jpg	100
2085.581	0.688	687.6	congruent	Block2	congruent/STIM_020.jpg	99
2088.948	0.776	776.3	congruent	Block2	congruent/STIM_021.jpg	100
2092.019	0.551	550.9	congruent	Block2	congruent/STIM_021.jpg	100
2096.335	0.466	466.4	congruent	Block2	congruent/STIM_021.jpg	100
2100.051	0.512	511.7	congruent	Block2	congruent/STIM_021.jpg	100
2104.01	0.495	495.1	congruent	Block2	congruent/STIM_021.jpg	100
2106.541	0.623	622.6	congruent	Block2	congruent/STIM_022.jpg	100
2110.95	0.598	598.1	congruent	Block2	congruent/STIM_022.jpg	100
2113.822	0.581	581.0	congruent	Block2	congruent/STIM_022.jpg	100
2117.179	0.785	784.8	congruent	Block2	congruent/STIM_022.jpg	99
2120.447	0.796	796.5	congruent	Block2	congruent/STIM_022.jpg	100
2123.843	0.739	739.0	congruent	Block2	congruent/STIM_023.jpg	99
2127.999	0.716	716.1	congruent	Block2	congruent/STIM_023.jpg	99
2131.187	0.793	793.0	congruent	Block2	congruent/STIM_023.jpg	100
2135.575	0.552	551.7	congruent	Block2	congruent/STIM_023.jpg	100
2138.576	0.769	769.1	congruent	Block2	congruent/STIM_023.jpg	100
2143.241	0.601	600.6	congruent	Block2	congruent/STIM_024.jpg	99
2147.129	0.572	572.5	congruent	Block2	congruent/STIM_024.jpg	100
2151.2	0.529	529.1	congruent	Block2	congruent/STIM_024.jpg	99
2153.879	0.534	534.4	congruent	Block2	congruent/STIM_024.jpg	100
2157.393	0.51	509.9	congruent	Block2	congruent/STIM_024.jpg	99
2159.954	0.756	755.9	congruent	Block2	congruent/STIM_025.jpg	100
2163.235	0.6	599.6	congruent	Block2	congruent/STIM_025.jpg	100
2167.644	0.592	591.8	congruent	Block2	congruent/STIM_025.jpg	99
2171.6	0.485	485.2	congruent	Block2	congruent/STIM_025.jpg	99
2175.857	0.83	829.8	congruent	Block2	congruent/STIM_025.jpg	100
2179.768	0.733	733.0	congruent	Block2	congruent/STIM_026.jpg	100
2183.177	0.644	644.1	congruent	Block2	congruent/STIM_026.jpg	99
2186.833	0.67	669.9	congruent	Block2	congruent/STIM_026.jpg	99
2190.487	0.501	501.2	congruent	Block2	congruent/STIM_026.jpg	99
2193.842	0.618	618.1	congruent	Block2	congruent/STIM_026.jpg	100
2198.186	0.551	550.8	congruent	Block2	congruent/STIM_027.jpg	99
2202.311	0.621	621.1	congruent	Block2	congruent/STIM_027.jpg	99
2206.928	0.634	634.4	congruent	Block2	congruent/STIM_027.jpg	99
2210.176	0.77	770.5	congruent	Block2	congruent/STIM_027.jpg	100
2214.09	0.754	754.1	congruent	Block2	congruent/STIM_027.jpg	100
2217.09	0.72	719.5	congruent	Block2	congruent/STIM_028.jpg	100
2220.596	0.563	563.1	congruent	Block2	congruent/STIM_028.jpg	100
2224.893	0.528	528.2	congruent	Block2	congruent/STIM_028.jpg	100
2228.434	0.802	802.1	congruent	Block2	congruent/STIM_028.jpg	99
2231.58	0.701	701.4	congruent	Block2	congruent/STIM_028.jpg	100
2235.554	0.742	741.8	congruent	Block2	congruent/STIM_029.jpg	100
2239.679	0.471	471.1	congruent	Block2	congruent/STIM_029.jpg	100
2242.379	0.618	618.5	congruent	Block2	congruent/STIM_029.jpg	99
2245.232	0.786	785.6	congruent	Block2	congruent/STIM_029.jpg	100
2248.074	0.507	506.6	congruent	Block2	congruent/STIM_029.jpg	99
2252.577	0.472	472.2	incongruent	Block3	incongruent/STIM_000.jpg	99
2257.039	0.663	662.8	incongruent	Block3	incongruent/STIM_000.jpg	99
2260.126	0.743	743.2	incongruent	Block3	incongruent/STIM_000.jpg	99
2262.981	0.593	592.7	incongruent	Block3	incongruent/STIM_000.jpg	100
2267.523	0.669	668.7	incongruent	Block3	incongruent/STIM_000.jpg	99
2270.705	0.488	487.6	incongruent	Block3	incongruent/STIM_001.jpg	99
2274.023	0.482	482.3	incongruent	Block3	incongruent/STIM_001.jpg	99
2278.226	0.6	599.7	incongruent	Block3	incongruent/STIM_001.jpg	99
2281.335	0.607	607.0	incongruent	Block3	incongruent/STIM_001.jpg	100
2284.562	0.53	529.6	incongruent	Block3	incongruent/STIM_001.jpg	99
2288.29	0.544	544.4	incongruent	Block3	incongruent/STIM_002.jpg	99
2290.854	0.888	887.6	incongruent	Block3	incongruent/STIM_002.jpg	99
2295.627	0.616	615.5	incongruent	Block3	incongruent/STIM_002.jpg	99
2299.228	0.525	525.2	incongruent	Block3	incongruent/STIM_002.jpg	100
2302.261	0.68	679.6	incongruent	Block3	incongruent/STIM_002.jpg	100
2305.211	0.715	714.6	incongruent	Block3	incongruent/STIM_003.jpg	99
2308.666	0.519	518.7	incongruent	Block3	incongruent/STIM_003.jpg	99
2312.777	0.637	637.1	incongruent	Block3	incongruent/STIM_003.jpg	100
2317.394	0.846	846.3	incongruent	Block3	incongruent/STIM_003.jpg	99
2322.057	0.748	748.1	incongruent	Block3	incongruent/STIM_003.jpg	99
2324.896	0.934	933.9	incongruent	Block3	incongruent/STIM_004.jpg	100
2329.478	0.613	613.3	incongruent	Block3	incongruent/STIM_004.jpg	99
2332.255	0.802	802.0	incongruent	Block3	incongruent/STIM_004.jpg	100
2336.076	0.619	619.3	incongruent	Block3	incongruent/STIM_004.jpg	99
2339.381	0.905	905.1	incongruent	Block3	incongruent/STIM_004.jpg	99
2343.32	0.469	468.6	incongruent	Block3	incongruent/STIM_005.jpg	99
2347.557	0.702	702.1	incongruent	Block3	incongruent/STIM_005.jpg	99
2352.234	0.574	573.9	incongruent	Block3	incongruent/STIM_005.jpg	100
2356.282	0.778	777.9	incongruent	Block3	incongruent/STIM_005.jpg	99
2360.223	0.903	903.3	incongruent	Block3	incongruent/STIM_005.jpg	100
2363.139	0.774	773.9	incongruent	Block3	incongruent/STIM_006.jpg	99
2367.844	0.62	620.5	incongruent	Block3	incongruent/STIM_006.jpg	100
2370.699	0.78	779.5	incongruent	Block3	incongruent/STIM_006.jpg	99
2375.475	0.572	571.7	incongruent	Block3	incongruent/STIM_006.jpg	99
2378.468	0.466	466.0	incongruent	Block3	incongruent/STIM_006.jpg	99
2382.157	0.662	661.5	incongruent	Block3	incongruent/STIM_007.jpg	99
2386.035	0.889	889.1	incongruent	Block3	incongruent/STIM_007.jpg	99
2390.764	0.968	968.2	incongruent	Block3	incongruent/STIM_007.jpg	100
2395.634	0.972	971.6	incongruent	Block3	incongruent/STIM_007.jpg	99
2398.909	0.737	736.9	incongruent	Block3	incongruent/STIM_007.jpg	99
2402.027	0.476	475.9	incongruent	Block3	incongruent/STIM_008.jpg	100
2405.513	0.877	877.0	incongruent	Block3	incongruent/STIM_008.jpg	99
2408.645	0.758	757.8	incongruent	Block3	incongruent/STIM_008.jpg	100
2411.683	0.937	937.0	incongruent	Block3	incongruent/STIM_008.jpg	99
2415.867	0.654	653.9	incongruent	Block3	incongruent/STIM_008.jpg	99
2420.272	0.653	653.3	incongruent	Block3	incongruent/STIM_009.jpg	100
2423.839	0.962	961.8	incongruent	Block3	incongruent/STIM_009.jpg	99
2427.178	0.618	617.6	incongruent	Block3	incongruent/STIM_009.jpg	100
2430.535	0.876	876.2	incongruent	Block3	incongruent/STIM_009.jpg	100
2434.743	0.462	461.6	incongruent	Block3	incongruent/STIM_009.jpg	99
2438.984	0.861	861.4	incongruent	Block3	incongruent/STIM_010.jpg	99
2441.888	0.566	565.8	incongruent	Block3	incongruent/STIM_010.jpg	100
2445.147	0.802	801.7	incongruent	Block3	incongruent/STIM_010.jpg	100
2449.942	0.555	555.3	incongruent	Block3	incongruent/STIM_010.jpg	99
2453.991	0.475	474.7	incongruent	Block3	incongruent/STIM_010.jpg	99
2458.294	0.801	801.2	incongruent	Block3	incongruent/STIM_011.jpg	100
2462.617	0.787	786.7	incongruent	Block3	incongruent/STIM_011.jpg	99
2467.045	0.972	972.2	incongruent	Block3	incongruent/STIM_011.jpg	100
2470.884	0.936	935.5	incongruent	Block3	incongruent/STIM_011.jpg	99
2475.798	0.677	677.4	incongruent	Block3	incongruent/STIM_011.jpg	100
2479.201	0.58	580.4	incongruent	Block3	incongruent/STIM_012.jpg	100
2482.902	0.588	587.5	incongruent	Block3	incongruent/STIM_012.jpg	100
2486.192	0.594	593.5	incongruent	Block3	incongruent/STIM_012.jpg	100
2490.725	0.69	690.1	incongruent	Block3	incongruent/STIM_012.jpg	100
2494.157	0.459	459.1	incongruent	Block3	incongruent/STIM_012.jpg	99
2497.275	0.876	876.5	incongruent	Block3	incongruent/STIM_013.jpg	100
2500.476	0.948	947.6	incongruent	Block3	incongruent/STIM_013.jpg	99
2505.125	0.703	703.0	incongruent	Block3	incongruent/STIM_013.jpg	99
2508.819	0.613	612.6	incongruent	Block3	incongruent/STIM_013.jpg	100
2512.487	0.971	971.4	incongruent	Block3	incongruent/STIM_013.jpg	99
2517.39	0.592	592.0	incongruent	Block3	incongruent/STIM_014.jpg	100
2521.006	0.781	780.9	incongruent	Block3	incongruent/STIM_014.jpg	99
2525.387	0.739	739.2	incongruent	Block3	incongruent/STIM_014.jpg	99
2529.149	0.963	962.6	incongruent	Block3	incongruent/STIM_014.jpg	99
2532.343	0.806	805.6	incongruent	Block3	incongruent/STIM_014.jpg	99
2536.261	0.716	716.5	incongruent	Block3	incongruent/STIM_015.jpg	99
2540.266	0.476	476.3	incongruent	Block3	incongruent/STIM_015.jpg	99
2543.657	0.905	905.0	incongruent	Block3	incongruent/STIM_015.jpg	99
2548.135	0.708	708.0	incongruent	Block3	incongruent/STIM_015.jpg	100
2551.174	0.791	791.1	incongruent	Block3	incongruent/STIM_015.jpg	99
2554.456	0.784	784.4	incongruent	Block3	incongruent/STIM_016.jpg	100
2557.589	0.56	560.0	incongruent	Block3	incongruent/STIM_016.jpg	99
2561.415	0.86	860.0	incongruent	Block3	incongruent/STIM_016.jpg	100
2565.73	0.833	833.2	incongruent	Block3	incongruent/STIM_016.jpg	99
2569.941	0.689	688.6	incongruent	Block3	incongruent/STIM_016.jpg	99
2574.621	0.744	744.1	incongruent	Block3	incongruent/STIM_017.jpg	100
2577.671	0.458	458.4	incongruent	Block3	incongruent/STIM_017.jpg	99
2581.17	0.735	735.3	incongruent	Block3	incongruent/STIM_017.jpg	99
2585.438	0.911	910.7	incongruent	Block3	incongruent/STIM_017.jpg	99
2588.821	0.704	704.5	incongruent	Block3	incongruent/STIM_017.jpg	100
2593.3	0.898	897.5	incongruent	Block3	incongruent/STIM_018.jpg	100
2596.207	0.874	874.3	incongruent	Block3	incongruent/STIM_018.jpg	100
2600.318	0.622	622.1	incongruent	Block3	incongruent/STIM_018.jpg	100
2604.236	0.552	551.7	incongruent	Block3	incongruent/STIM_018.jpg	99
2608.593	0.471	470.6	incongruent	Block3	incongruent/STIM_018.jpg	99
2612.791	0.877	876.6	incongruent	Block3	incongruent/STIM_019.jpg	100
2616.411	0.466	465.5	incongruent	Block3	incongruent/STIM_019.jpg	100
2620.828	0.5	499.9	incongruent	Block3	incongruent/STIM_019.jpg	99
2624.634	0.888	888.2	incongruent	Block3	incongruent/STIM_019.jpg	99
2627.703	0.881	880.9	incongruent	Block3	incongruent/STIM_019.jpg	100
2632.201	0.661	661.2	incongruent	Block3	incongruent/STIM_020.jpg	99
2635.469	0.826	825.7	incongruent	Block3	incongruent/STIM_020.jpg	100
2639.064	0.726	726.1	incongruent	Block3	incongruent/STIM_020.jpg	99
2643.434	0.921	921.2	incongruent	Block3	incongruent/STIM_020.jpg	99
2647.988	0.782	782.0	incongruent	Block3	incongruent/STIM_020.jpg	100
2651.75	0.754	753.5	incongruent	Block3	incongruent/STIM_021.jpg	100
2655.609	0.512	512.4	incongruent	Block3	incongruent/STIM_021.jpg	99
2658.503	0.569	569.0	incongruent	Block3	incongruent/STIM_021.jpg	100
2661.088	0.464	463.9	incongruent	Block3	incongruent/STIM_021.jpg	100
2664.001	0.768	767.8	incongruent	Block3	incongruent/STIM_021.jpg	99
2666.933	0.522	521.9	incongruent	Block3	incongruent/STIM_022.jpg	100
2670.453	0.46	459.9	incongruent	Block3	incongruent/STIM_022.jpg	99
2673.509	0.591	591.0	incongruent	Block3	incongruent/STIM_022.jpg	99
2677.963	0.861	860.8	incongruent	Block3	incongruent/STIM_022.jpg	100
2682.453	0.755	755.1	incongruent	Block3	incongruent/STIM_022.jpg	100
2686.296	0.913	912.8	incongruent	Block3	incongruent/STIM_023.jpg	100
2689.964	0.765	764.7	incongruent	Block3	incongruent/STIM_023.jpg	100
2693.861	0.84	840.0	incongruent	Block3	incongruent/STIM_023.jpg	100
2697.377	0.701	701.0	incongruent	Block3	incongruent/STIM_023.jpg	99
2701.606	0.494	493.8	incongruent	Block3	incongruent/STIM_023.jpg	99
2704.165	0.8	800.1	incongruent	Block3	incongruent/STIM_024.jpg	99
2707.173	0.555	554.9	incongruent	Block3	incongruent/STIM_024.jpg	99
2711.511	0.734	733.5	incongruent	Block3	incongruent/STIM_024.jpg	99
2714.33	0.578	577.7	incongruent	Block3	incongruent/STIM_024.jpg	100
2718.412	0.745	745.4	incongruent	Block3	incongruent/STIM_024.jpg	99
2721.249	0.959	958.7	incongruent	Block3	incongruent/STIM_025.jpg	99
2725.744	0.742	742.4	incongruent	Block3	incongruent/STIM_025.jpg	99
2729.072	0.885	885.1	incongruent	Block3	incongruent/STIM_025.jpg	99
2732.19	0.924	923.5	incongruent	Block3	incongruent/STIM_025.jpg	100
2737.073	0.878	877.9	incongruent	Block3	incongruent/STIM_025.jpg	99
2740.835	0.662	661.5	incongruent	Block3	incongruent/STIM_026.jpg	99
2744.197	0.756	756.1	incongruent	Block3	incongruent/STIM_026.jpg	100
2747.118	0.643	643.3	incongruent	Block3	incongruent/STIM_026.jpg	99
2750.444	0.598	598.0	incongruent	Block3	incongruent/STIM_026.jpg	100
2754.608	0.529	529.2	incongruent	Block3	incongruent/STIM_026.jpg	99
2757.933	0.879	879.2	incongruent	Block3	incongruent/STIM_027.jpg	100
2761.532	0.65	650.5	incongruent	Block3	incongruent/STIM_027.jpg	100
2765.536	0.521	521.4	incongruent	Block3	incongruent/STIM_027.jpg	99
2768.52	0.827	826.9	incongruent	Block3	incongruent/STIM_027.jpg	99
2772.958	0.804	804.3	incongruent	Block3	incongruent/STIM_027.jpg	100
2776.887	0.601	600.9	incongruent	Block3	incongruent/STIM_028.jpg	99
2779.718	0.61	610.0	incongruent	Block3	incongruent/STIM_028.jpg	100
2783.703	0.879	879.4	incongruent	Block3	incongruent/STIM_028.jpg	99
2787.319	0.613	613.0	incongruent	Block3	incongruent/STIM_028.jpg	99
2790.264	0.742	741.5	incongruent	Block3	incongruent/STIM_028.jpg	100
2794.155	0.618	617.5	incongruent	Block3	incongruent/STIM_029.jpg	99
2796.808	0.515	515.0	incongruent	Block3	incongruent/STIM_029.jpg	100
2800.317	0.691	691.1	incongruent	Block3	incongruent/STIM_029.jpg	100
2803.628	0.593	592.7	incongruent	Block3	incongruent/STIM_029.jpg	99
2807.665	0.469	469.1	incongruent	Block3	incongruent/STIM_029.jpg	99
2812.047	0.649	649.2	congruent	Block3	congruent/STIM_000.jpg	100
2814.808	0.674	674.1	congruent	Block3	congruent/STIM_000.jpg	99
2818.821	0.824	824.2	congruent	Block3	congruent/STIM_000.jpg	99
2823.1	0.737	736.9	congruent	Block3	congruent/STIM_000.jpg	99
2826.172	0.799	799.0	congruent	Block3	congruent/STIM_000.jpg	100
2830.018	0.657	656.6	congruent	Block3	congruent/STIM_001.jpg	100
2833.308	0.704	704.1	congruent	Block3	congruent/STIM_001.jpg	100
2837.482	0.724	724.2	congruent	Block3	congruent/STIM_001.jpg	100
2841.707	0.79	790.1	congruent	Block3	congruent/STIM_001.jpg	99
2845.115	0.824	823.6	congruent	Block3	congruent/STIM_001.jpg	99
2849.682	0.766	766.4	congruent	Block3	congruent/STIM_002.jpg	100
2853.229	0.657	656.6	congruent	Block3	congruent/STIM_002.jpg	99
2856.13	0.668	667.8	congruent	Block3	congruent/STIM_002.jpg	100
2860.455	0.768	768.1	congruent	Block3	congruent/STIM_002.jpg	100
2864.882	0.478	478.4	congruent	Block3	congruent/STIM_002.jpg	99
2867.6	0.617	616.9	congruent	Block3	congruent/STIM_003.jpg	100
2871.148	0.645	645.2	congruent	Block3	congruent/STIM_003.jpg	100
2874.389	0.643	643.0	congruent	Block3	congruent/STIM_003.jpg	99
2878.019	0.838	837.6	congruent	Block3	congruent/STIM_003.jpg	99
2881.311	0.773	772.9	congruent	Block3	congruent/STIM_003.jpg	100
2885.01	0.67	669.7	congruent	Block3	congruent/STIM_004.jpg	100
2888.039	0.79	790.4	congruent	Block3	congruent/STIM_004.jpg	99
2892.557	0.814	814.2	congruent	Block3	congruent/STIM_004.jpg	99
2896.975	0.735	734.6	congruent	Block3	congruent/STIM_004.jpg	99
2901.632	0.659	659.2	congruent	Block3	congruent/STIM_004.jpg	100
2906.01	0.548	548.3	congruent	Block3	congruent/STIM_005.jpg	99
2910.145	0.823	823.3	congruent	Block3	congruent/STIM_005.jpg	99
2913.249	0.606	606.1	congruent	Block3	congruent/STIM_005.jpg	100
2916.995	0.519	519.2	congruent	Block3	congruent/STIM_005.jpg	99
2919.751	0.537	537.4	congruent	Block3	congruent/STIM_005.jpg	99
2923.342	0.613	612.9	congruent	Block3	congruent/STIM_006.jpg	100
2926.331	0.565	565.3	congruent	Block3	congruent/STIM_006.jpg	99
2930.759	0.641	640.6	congruent	Block3	congruent/STIM_006.jpg	100
2933.776	0.823	823.3	congruent	Block3	congruent/STIM_006.jpg	99
2937.415	0.751	751.2	congruent	Block3	congruent/STIM_006.jpg	99
2940.993	0.761	761.3	congruent	Block3	congruent/STIM_007.jpg	100
2945.561	0.82	820.4	congruent	Block3	congruent/STIM_007.jpg	100
2949.075	0.802	801.6	congruent	Block3	congruent/STIM_007.jpg	99
2953.862	0.821	820.9	congruent	Block3	congruent/STIM_007.jpg	100
2957.522	0.704	703.8	congruent	Block3	congruent/STIM_007.jpg	99
2961.547	0.675	674.7	congruent	Block3	congruent/STIM_008.jpg	99
2964.283	0.564	564.0	congruent	Block3	congruent/STIM_008.jpg	100
2967.02	0.79	790.2	congruent	Block3	congruent/STIM_008.jpg	100
2970.992	0.543	543.0	congruent	Block3	congruent/STIM_008.jpg	100
2973.689	0.833	833.3	congruent	Block3	congruent/STIM_008.jpg	99
2976.775	0.568	568.5	congruent	Block3	congruent/STIM_009.jpg	100
2980.521	0.688	687.6	congruent	Block3	congruent/STIM_009.jpg	100
2983.349	0.792	791.8	congruent	Block3	congruent/STIM_009.jpg	99
2987.289	0.531	530.9	congruent	Block3	congruent/STIM_009.jpg	99
2989.952	0.756	755.9	congruent	Block3	congruent/STIM_009.jpg	100
2993.751	0.751	751.1	congruent	Block3	congruent/STIM_010.jpg	99
2997.388	0.599	598.9	congruent	Block3	congruent/STIM_010.jpg	99
3000.601	0.757	757.4	congruent	Block3	congruent/STIM_010.jpg	100
3004.665	0.466	465.6	congruent	Block3	congruent/STIM_010.jpg	100
3007.707	0.615	615.4	congruent	Block3	congruent/STIM_010.jpg	100
3011.699	0.512	511.8	congruent	Block3	congruent/STIM_011.jpg	99
3014.762	0.65	649.9	congruent	Block3	congruent/STIM_011.jpg	99
3018.139	0.671	671.3	congruent	Block3	congruent/STIM_011.jpg	99
3021.573	0.622	621.8	congruent	Block3	congruent/STIM_011.jpg	99
3025.229	0.734	734.1	congruent	Block3	congruent/STIM_011.jpg	100
3029.593	0.738	738.4	congruent	Block3	congruent/STIM_012.jpg	100
3033.675	0.69	690.1	congruent	Block3	congruent/STIM_012.jpg	99
3038.347	0.801	800.7	congruent	Block3	congruent/STIM_012.jpg	100
3041.407	0.554	554.2	congruent	Block3	congruent/STIM_012.jpg	100
3044.948	0.572	571.9	congruent	Block3	congruent/STIM_012.jpg	100
3049.112	0.647	646.7	congruent	Block3	congruent/STIM_013.jpg	99
3053.536	0.654	654.3	congruent	Block3	congruent/STIM_013.jpg	100
3056.23	0.781	781.0	congruent	Block3	congruent/STIM_013.jpg	99
3059.589	0.571	571.4	congruent	Block3	congruent/STIM_013.jpg	99
3062.398	0.661	661.0	congruent	Block3	congruent/STIM_013.jpg	100
3066.892	0.727	726.6	congruent	Block3	congruent/STIM_014.jpg	100
3071.277	0.632	631.5	congruent	Block3	congruent/STIM_014.jpg	99
3075.353	0.674	673.9	congruent	Block3	congruent/STIM_014.jpg	100
3079.904	0.638	637.9	congruent	Block3	congruent/STIM_014.jpg	100
3084.202	0.632	632.1	congruent	Block3	congruent/STIM_014.jpg	100
3087.694	0.737	737.2	congruent	Block3	congruent/STIM_015.jpg	99
3091.413	0.809	808.7	congruent	Block3	congruent/STIM_015.jpg	100
3095.307	0.729	728.8	congruent	Block3	congruent/STIM_015.jpg	99
3099.167	0.568	567.5	congruent	Block3	congruent/STIM_015.jpg	100
3102.233	0.714	713.9	congruent	Block3	congruent/STIM_015.jpg	100
3105.221	0.666	665.6	congruent	Block3	congruent/STIM_016.jpg	100
3108.747	0.674	673.5	congruent	Block3	congruent/STIM_016.jpg	99
3112.495	0.61	610.2	congruent	Block3	congruent/STIM_016.jpg	99
3116.956	0.552	551.6	congruent	Block3	congruent/STIM_016.jpg	100
3120.673	0.685	684.9	congruent	Block3	congruent/STIM_016.jpg	99
3124.407	0.709	708.8	congruent	Block3	congruent/STIM_017.jpg	100
3128.58	0.655	655.0	congruent	Block3	congruent/STIM_017.jpg	100
3132.63	0.625	625.0	congruent	Block3	congruent/STIM_017.jpg	99
3136.146	0.788	788.4	congruent	Block3	congruent/STIM_017.jpg	99
3139.39	0.677	676.7	congruent	Block3	congruent/STIM_017.jpg	100
3143.812	0.702	701.9	congruent	Block3	congruent/STIM_018.jpg	100
3148.363	0.665	664.8	congruent	Block3	congruent/STIM_018.jpg	99
3151.734	0.782	782.1	congruent	Block3	congruent/STIM_018.jpg	100
3154.851	0.57	570.3	congruent	Block3	congruent/STIM_018.jpg	100
3157.685	0.702	702.4	congruent	Block3	congruent/STIM_018.jpg	100
3161.989	0.676	675.8	congruent	Block3	congruent/STIM_019.jpg	99
3166.172	0.467	467.3	congruent	Block3	congruent/STIM_019.jpg	100
3169.866	0.553	553.4	congruent	Block3	congruent/STIM_019.jpg	100
3173.039	0.545	545.4	congruent	Block3	congruent/STIM_019.jpg	99
3177.105	0.524	524.5	congruent	Block3	congruent/STIM_019.jpg	99
3180.975	0.764	764.0	congruent	Block3	congruent/STIM_020.jpg	100
3183.848	0.561	561.4	congruent	Block3	congruent/STIM_020.jpg	100
3187.242	0.596	595.6	congruent	Block3	congruent/STIM_020.jpg	99
3189.942	0.599	599.2	congruent	Block3	congruent/STIM_020.jpg	100
3193.245	0.593	592.7	congruent	Block3	congruent/STIM_020.jpg	99
3196.807	0.68	680.0	congruent	Block3	congruent/STIM_021.jpg	99
3199.795	0.506	505.9	congruent	Block3	congruent/STIM_021.jpg	100
3203.064	0.74	740.2	congruent	Block3	congruent/STIM_021.jpg	100
3205.874	0.556	555.8	congruent	Block3	congruent/STIM_021.jpg	99
3209.895	0.607	606.6	congruent	Block3	congruent/STIM_021.jpg	100
3212.691	0.672	672.3	congruent	Block3	congruent/STIM_022.jpg	99
3217.329	0.818	818.0	congruent	Block3	congruent/STIM_022.jpg	100
3221.062	0.592	591.6	congruent	Block3	congruent/STIM_022.jpg	99
3225.362	0.583	583.0	congruent	Block3	congruent/STIM_022.jpg	100
3229.086	0.495	494.8	congruent	Block3	congruent/STIM_022.jpg	100
3232.958	0.717	717.4	congruent	Block3	congruent/STIM_023.jpg	100
3236.234	0.675	675.0	congruent	Block3	congruent/STIM_023.jpg	99
3239.273	0.56	559.8	congruent	Block3	congruent/STIM_023.jpg	99
3243.657	0.698	698.4	congruent	Block3	congruent/STIM_023.jpg	99
3246.42	0.561	561.4	congruent	Block3	congruent/STIM_023.jpg	99
3250.021	0.773	773.2	congruent	Block3	congruent/STIM_024.jpg	100
3254.395	0.777	776.6	congruent	Block3	congruent/STIM_024.jpg	99
3258.669	0.832	831.8	congruent	Block3	congruent/STIM_024.jpg	99
3261.755	0.494	494.0	congruent	Block3	congruent/STIM_024.jpg	99
3265.245	0.495	494.6	congruent	Block3	congruent/STIM_024.jpg	100
3269.306	0.725	724.9	congruent	Block3	congruent/STIM_025.jpg	100
3273.16	0.808	807.6	congruent	Block3	congruent/STIM_025.jpg	99
3276.144	0.604	603.9	congruent	Block3	congruent/STIM_025.jpg	100
3280.585	0.75	749.7	congruent	Block3	congruent/STIM_025.jpg	100
3283.624	0.569	568.8	congruent	Block3	congruent/STIM_025.jpg	100
3287.515	0.777	777.2	congruent	Block3	congruent/STIM_026.jpg	99
3290.846	0.721	721.3	congruent	Block3	congruent/STIM_026.jpg	99
3293.602	0.468	468.5	congruent	Block3	congruent/STIM_026.jpg	100
3297.336	0.752	751.9	congruent	Block3	congruent/STIM_026.jpg	99
3300.702	0.684	684.2	congruent	Block3	congruent/STIM_026.jpg	99
3304.001	0.697	696.7	congruent	Block3	congruent/STIM_027.jpg	100
3308.458	0.703	703.3	congruent	Block3	congruent/STIM_027.jpg	99
3312.708	0.567	567.3	congruent	Block3	congruent/STIM_027.jpg	100
3316.214	0.587	586.7	congruent	Block3	congruent/STIM_027.jpg	99
3320.799	0.712	712.4	congruent	Block3	congruent/STIM_027.jpg	100
3324.303	0.736	736.2	congruent	Block3	congruent/STIM_028.jpg	99
3327.191	0.817	817.4	congruent	Block3	congruent/STIM_028.jpg	100
3331.502	0.562	562.5	congruent	Block3	congruent/STIM_028.jpg	99
3335.52	0.684	683.9	congruent	Block3	congruent/STIM_028.jpg	100
3339.195	0.628	628.1	congruent	Block3	congruent/STIM_028.jpg	99
3341.871	0.825	825.4	congruent	Block3	congruent/STIM_029.jpg	99
3345.737	0.467	467.4	congruent	Block3	congruent/STIM_029.jpg	99
3348.539	0.628	627.9	congruent	Block3	congruent/STIM_029.jpg	100
3352.089	0.559	559.2	congruent	Block3	congruent/STIM_029.jpg	100
3355.268	0.667	667.3	congruent	Block3	congruent/STIM_029.jpg	99
