onset	duration	accuracy	trial_type	learning_stage	stimulus
0.0	2.522	correct	navigation	Trial1	navigation/STIM_000.jpg
5.47	2.488	correct	navigation	Trial1	navigation/STIM_000.jpg
10.401	2.363	correct	navigation	Trial1	navigation/STIM_000.jpg
15.996	3.302	incorrect	navigation	Trial1	navigation/STIM_000.jpg
22.184	3.328	correct	navigation	Trial1	navigation/STIM_000.jpg
29.69	2.426	incorrect	navigation	Trial1	navigation/STIM_000.jpg
36.112	3.921	incorrect	navigation	Trial1	navigation/STIM_001.jpg
43.815	3.365	correct	navigation	Trial1	navigation/STIM_001.jpg
50.02	3.46	correct	navigation	Trial1	navigation/STIM_001.jpg
57.255	3.105	incorrect	navigation	Trial1	navigation/STIM_001.jpg
64.618	3.083	correct	navigation	Trial1	navigation/STIM_001.jpg
71.748	1.52	correct	navigation	Trial1	navigation/STIM_001.jpg
77.086	4.261	correct	navigation	Trial1	navigation/STIM_002.jpg
85.379	3.815	correct	navigation	Trial1	navigation/STIM_002.jpg
92.349	2.288	incorrect	navigation	Trial1	navigation/STIM_002.jpg
98.709	3.169	correct	navigation	Trial1	navigation/STIM_002.jpg
106.136	3.433	incorrect	navigation	Trial1	navigation/STIM_002.jpg
112.02	2.251	correct	navigation	Trial1	navigation/STIM_002.jpg
117.617	2.603	incorrect	navigation	Trial1	navigation/STIM_003.jpg
124.413	3.811	incorrect	navigation	Trial1	navigation/STIM_003.jpg
131.846	3.311	correct	navigation	Trial1	navigation/STIM_003.jpg
137.719	1.534	correct	navigation	Trial1	navigation/STIM_003.jpg
141.679	2.328	correct	navigation	Trial1	navigation/STIM_003.jpg
147.516	1.396	correct	navigation	Trial1	navigation/STIM_003.jpg
152.426	3.654	correct	navigation	Trial1	navigation/STIM_004.jpg
159.355	2.611	correct	navigation	Trial1	navigation/STIM_004.jpg
165.615	3.083	correct	navigation	Trial1	navigation/STIM_004.jpg
171.602	3.173	correct	navigation	Trial1	navigation/STIM_004.jpg
177.151	2.751	correct	navigation	Trial1	navigation/STIM_004.jpg
183.991	1.896	correct	navigation	Trial1	navigation/STIM_004.jpg
189.539	2.822	correct	navigation	Trial1	navigation/STIM_005.jpg
195.411	2.212	correct	navigation	Trial1	navigation/STIM_005.jpg
199.985	1.893	correct	navigation	Trial1	navigation/STIM_005.jpg
205.769	3.176	correct	navigation	Trial1	navigation/STIM_005.jpg
212.991	1.725	correct	navigation	Trial1	navigation/STIM_005.jpg
218.495	2.019	correct	navigation	Trial1	navigation/STIM_005.jpg
223.104	4.298	correct	navigation	Trial1	navigation/STIM_006.jpg
230.179	2.504	incorrect	navigation	Trial1	navigation/STIM_006.jpg
236.148	2.018	correct	navigation	Trial1	navigation/STIM_006.jpg
241.4	2.204	correct	navigation	Trial1	navigation/STIM_006.jpg
246.256	2.641	correct	navigation	Trial1	navigation/STIM_006.jpg
252.974	1.602	correct	navigation	Trial1	navigation/STIM_006.jpg
257.631	2.471	incorrect	navigation	Trial1	navigation/STIM_007.jpg
264.285	1.881	incorrect	navigation	Trial1	navigation/STIM_007.jpg
269.069	3.443	correct	navigation	Trial1	navigation/STIM_007.jpg
276.332	3.586	incorrect	navigation	Trial1	navigation/STIM_007.jpg
283.06	2.853	incorrect	navigation	Trial1	navigation/STIM_007.jpg
289.819	1.783	incorrect	navigation	Trial1	navigation/STIM_007.jpg
295.426	4.224	correct	navigation	Trial1	navigation/STIM_008.jpg
302.899	2.41	correct	navigation	Trial1	navigation/STIM_008.jpg
308.308	2.772	correct	navigation	Trial1	navigation/STIM_008.jpg
313.514	3.182	correct	navigation	Trial1	navigation/STIM_008.jpg
320.825	2.649	correct	navigation	Trial1	navigation/STIM_008.jpg
327.069	1.808	correct	navigation	Trial1	navigation/STIM_008.jpg
333.073	3.834	correct	navigation	Trial1	navigation/STIM_009.jpg
340.795	3.845	correct	navigation	Trial1	navigation/STIM_009.jpg
348.824	3.031	correct	navigation	Trial1	navigation/STIM_009.jpg
354.647	3.526	correct	navigation	Trial1	navigation/STIM_009.jpg
361.113	1.799	correct	navigation	Trial1	navigation/STIM_009.jpg
366.889	2.017	correct	navigation	Trial1	navigation/STIM_009.jpg
372.239	4.27	correct	navigation	Trial1	navigation/STIM_010.jpg
380.47	2.946	correct	navigation	Trial1	navigation/STIM_010.jpg
387.649	1.637	correct	navigation	Trial1	navigation/STIM_010.jpg
392.719	1.898	correct	navigation	Trial1	navigation/STIM_010.jpg
396.967	2.59	incorrect	navigation	Trial1	navigation/STIM_010.jpg
403.371	3.093	correct	navigation	Trial1	navigation/STIM_010.jpg
409.846	2.079	incorrect	navigation	Trial1	navigation/STIM_011.jpg
414.904	3.527	correct	navigation	Trial1	navigation/STIM_011.jpg
420.935	1.836	incorrect	navigation	Trial1	navigation/STIM_011.jpg
425.513	2.293	correct	navigation	Trial1	navigation/STIM_011.jpg
431.079	2.732	correct	navigation	Trial1	navigation/STIM_011.jpg
437.288	3.279	correct	navigation	Trial1	navigation/STIM_011.jpg
443.893	0.904	correct	pointing	Trial1	pointing/STIM_000.jpg
447.311	0.86	correct	pointing	Trial1	pointing/STIM_000.jpg
451.804	0.75	correct	pointing	Trial1	pointing/STIM_000.jpg
455.033	0.953	correct	pointing	Trial1	pointing/STIM_000.jpg
459.441	1.147	correct	pointing	Trial1	pointing/STIM_000.jpg
463.554	0.993	correct	pointing	Trial1	pointing/STIM_000.jpg
468.114	0.95	correct	pointing	Trial1	pointing/STIM_001.jpg
471.874	0.755	correct	pointing	Trial1	pointing/STIM_001.jpg
476.562	0.994	correct	pointing	Trial1	pointing/STIM_001.jpg
480.638	1.224	correct	pointing	Trial1	pointing/STIM_001.jpg
485.171	0.953	correct	pointing	Trial1	pointing/STIM_001.jpg
488.289	0.871	correct	pointing	Trial1	pointing/STIM_001.jpg
491.887	0.755	correct	pointing	Trial1	pointing/STIM_002.jpg
495.669	0.874	correct	pointing	Trial1	pointing/STIM_002.jpg
498.662	1.308	correct	pointing	Trial1	pointing/STIM_002.jpg
503.581	0.758	correct	pointing	Trial1	pointing/STIM_002.jpg
508.299	1.148	correct	pointing	Trial1	pointing/STIM_002.jpg
511.662	1.196	correct	pointing	Trial1	pointing/STIM_002.jpg
515.949	0.948	incorrect	pointing	Trial1	pointing/STIM_003.jpg
520.737	1.169	correct	pointing	Trial1	pointing/STIM_003.jpg
525.885	0.908	correct	pointing	Trial1	pointing/STIM_003.jpg
530.721	0.782	correct	pointing	Trial1	pointing/STIM_003.jpg
534.343	1.186	correct	pointing	Trial1	pointing/STIM_003.jpg
539.639	0.9	incorrect	pointing	Trial1	pointing/STIM_003.jpg
543.685	1.105	correct	pointing	Trial1	pointing/STIM_004.jpg
547.77	0.922	correct	pointing	Trial1	pointing/STIM_004.jpg
552.653	1.049	correct	pointing	Trial1	pointing/STIM_004.jpg
556.446	1.036	correct	pointing	Trial1	pointing/STIM_004.jpg
561.444	0.872	correct	pointing	Trial1	pointing/STIM_004.jpg
566.171	0.808	correct	pointing	Trial1	pointing/STIM_004.jpg
570.301	1.291	correct	pointing	Trial1	pointing/STIM_005.jpg
575.615	1.057	correct	pointing	Trial1	pointing/STIM_005.jpg
579.2	0.971	correct	pointing	Trial1	pointing/STIM_005.jpg
584.093	1.216	correct	pointing	Trial1	pointing/STIM_005.jpg
587.958	1.172	correct	pointing	Trial1	pointing/STIM_005.jpg
591.549	0.803	correct	pointing	Trial1	pointing/STIM_005.jpg
596.02	1.015	correct	pointing	Trial1	pointing/STIM_006.jpg
600.598	1.303	correct	pointing	Trial1	pointing/STIM_006.jpg
605.942	0.808	correct	pointing	Trial1	pointing/STIM_006.jpg
609.355	1.089	correct	pointing	Trial1	pointing/STIM_006.jpg
614.115	1.084	incorrect	pointing	Trial1	pointing/STIM_006.jpg
618.782	0.753	correct	pointing	Trial1	pointing/STIM_006.jpg
622.853	0.731	incorrect	pointing	Trial1	pointing/STIM_007.jpg
626.295	1.01	correct	pointing	Trial1	pointing/STIM_007.jpg
630.482	1.106	correct	pointing	Trial1	pointing/STIM_007.jpg
634.12	1.269	correct	pointing	Trial1	pointing/STIM_007.jpg
639.265	1.112	correct	pointing	Trial1	pointing/STIM_007.jpg
643.938	1.34	correct	pointing	Trial1	pointing/STIM_007.jpg
647.608	0.946	correct	pointing	Trial1	pointing/STIM_008.jpg
651.153	1.048	correct	pointing	Trial1	pointing/STIM_008.jpg
655.288	1.255	correct	pointing	Trial1	pointing/STIM_008.jpg
658.993	1.126	correct	pointing	Trial1	pointing/STIM_008.jpg
663.415	1.125	incorrect	pointing	Trial1	pointing/STIM_008.jpg
666.721	1.225	correct	pointing	Trial1	pointing/STIM_008.jpg
671.576	0.822	correct	pointing	Trial1	pointing/STIM_009.jpg
675.82	0.721	correct	pointing	Trial1	pointing/STIM_009.jpg
679.544	1.034	correct	pointing	Trial1	pointing/STIM_009.jpg
682.956	1.179	correct	pointing	Trial1	pointing/STIM_009.jpg
687.834	1.187	correct	pointing	Trial1	pointing/STIM_009.jpg
691.684	1.073	correct	pointing	Trial1	pointing/STIM_009.jpg
695.846	1.296	correct	pointing	Trial1	pointing/STIM_010.jpg
700.009	0.745	correct	pointing	Trial1	pointing/STIM_010.jpg
703.776	1.004	correct	pointing	Trial1	pointing/STIM_010.jpg
708.752	1.168	correct	pointing	Trial1	pointing/STIM_010.jpg
712.733	0.853	correct	pointing	Trial1	pointing/STIM_010.jpg
717.12	1.17	correct	pointing	Trial1	pointing/STIM_010.jpg
721.838	1.081	correct	pointing	Trial1	pointing/STIM_011.jpg
725.905	1.327	correct	pointing	Trial1	pointing/STIM_011.jpg
729.487	1.152	correct	pointing	Trial1	pointing/STIM_011.jpg
733.099	1.128	correct	pointing	Trial1	pointing/STIM_011.jpg
736.753	0.886	correct	pointing	Trial1	pointing/STIM_011.jpg
740.973	1.172	correct	pointing	Trial1	pointing/STIM_011.jpg
744.715	2.89	incorrect	navigation	Trial2	navigation/STIM_000.jpg
750.646	2.425	correct	navigation	Trial2	navigation/STIM_000.jpg
756.766	2.307	incorrect	navigation	Trial2	navigation/STIM_000.jpg
762.889	1.792	correct	navigation	Trial2	navigation/STIM_000.jpg
767.828	2.487	correct	navigation	Trial2	navigation/STIM_000.jpg
773.004	1.774	correct	navigation	Trial2	navigation/STIM_000.jpg
778.975	3.702	incorrect	navigation	Trial2	navigation/STIM_001.jpg
786.763	3.012	correct	navigation	Trial2	navigation/STIM_001.jpg
793.267	2.581	correct	navigation	Trial2	navigation/STIM_001.jpg
798.691	2.177	correct	navigation	Trial2	navigation/STIM_001.jpg
803.827	1.301	correct	navigation	Trial2	navigation/STIM_001.jpg
808.315	2.313	incorrect	navigation	Trial2	navigation/STIM_001.jpg
813.655	1.959	incorrect	navigation	Trial2	navigation/STIM_002.jpg
818.299	1.502	incorrect	navigation	Trial2	navigation/STIM_002.jpg
822.833	3.242	incorrect	navigation	Trial2	navigation/STIM_002.jpg
829.879	2.211	correct	navigation	Trial2	navigation/STIM_002.jpg
834.63	1.443	correct	navigation	Trial2	navigation/STIM_002.jpg
839.293	3.134	correct	navigation	Trial2	navigation/STIM_002.jpg
846.129	3.411	correct	navigation	Trial2	navigation/STIM_003.jpg
852.585	2.705	incorrect	navigation	Trial2	navigation/STIM_003.jpg
858.152	1.664	correct	navigation	Trial2	navigation/STIM_003.jpg
862.953	2.783	incorrect	navigation	Trial2	navigation/STIM_003.jpg
869.837	1.936	correct	navigation	Trial2	navigation/STIM_003.jpg
875.599	1.998	correct	navigation	Trial2	navigation/STIM_003.jpg
879.951	1.57	correct	navigation	Trial2	navigation/STIM_004.jpg
884.919	1.94	incorrect	navigation	Trial2	navigation/STIM_004.jpg
889.325	1.995	correct	navigation	Trial2	navigation/STIM_004.jpg
894.954	2.195	correct	navigation	Trial2	navigation/STIM_004.jpg
900.128	1.304	correct	navigation	Trial2	navigation/STIM_004.jpg
904.233	1.556	correct	navigation	Trial2	navigation/STIM_004.jpg
908.863	1.556	incorrect	navigation	Trial2	navigation/STIM_005.jpg
914.422	3.145	correct	navigation	Trial2	navigation/STIM_005.jpg
920.649	2.024	correct	navigation	Trial2	navigation/STIM_005.jpg
925.679	3.043	correct	navigation	Trial2	navigation/STIM_005.jpg
931.202	2.372	correct	navigation	Trial2	navigation/STIM_005.jpg
936.658	2.751	correct	navigation	Trial2	navigation/STIM_005.jpg
943.565	3.33	correct	navigation	Trial2	navigation/STIM_006.jpg
950.177	2.86	incorrect	navigation	Trial2	navigation/STIM_006.jpg
957.093	2.125	correct	navigation	Trial2	navigation/STIM_006.jpg
961.808	1.909	incorrect	navigation	Trial2	navigation/STIM_006.jpg
966.168	1.507	correct	navigation	Trial2	navigation/STIM_006.jpg
970.049	2.968	correct	navigation	Trial2	navigation/STIM_006.jpg
976.727	3.64	correct	navigation	Trial2	navigation/STIM_007.jpg
982.838	2.242	correct	navigation	Trial2	navigation/STIM_007.jpg
988.646	1.648	correct	navigation	Trial2	navigation/STIM_007.jpg
993.921	2.274	correct	navigation	Trial2	navigation/STIM_007.jpg
999.708	2.195	correct	navigation	Trial2	navigation/STIM_007.jpg
1004.793	1.927	correct	navigation	Trial2	navigation/STIM_007.jpg
1010.061	1.962	correct	navigation	Trial2	navigation/STIM_008.jpg
1014.685	3.408	correct	navigation	Trial2	navigation/STIM_008.jpg
1021.652	3.188	correct	navigation	Trial2	navigation/STIM_008.jpg
1028.192	3.077	correct	navigation	Trial2	navigation/STIM_008.jpg
1035.528	1.609	correct	navigation	Trial2	navigation/STIM_008.jpg
1041.184	1.811	incorrect	navigation	Trial2	navigation/STIM_008.jpg
1045.231	2.675	correct	navigation	Trial2	navigation/STIM_009.jpg
1052.124	3.225	incorrect	navigation	Trial2	navigation/STIM_009.jpg
1057.833	3.038	incorrect	navigation	Trial2	navigation/STIM_009.jpg
1063.394	2.104	correct	navigation	Trial2	navigation/STIM_009.jpg
1067.975	2.431	incorrect	navigation	Trial2	navigation/STIM_009.jpg
1074.266	2.055	incorrect	navigation	Trial2	navigation/STIM_009.jpg
1079.663	3.346	correct	navigation	Trial2	navigation/STIM_010.jpg
1086.62	1.952	correct	navigation	Trial2	navigation/STIM_010.jpg
1092.082	1.727	correct	navigation	Trial2	navigation/STIM_010.jpg
1097.187	2.26	incorrect	navigation	Trial2	navigation/STIM_010.jpg
1103.24	1.998	correct	navigation	Trial2	navigation/STIM_010.jpg
1108.329	2.742	correct	navigation	Trial2	navigation/STIM_010.jpg
1114.922	2.027	incorrect	navigation	Trial2	navigation/STIM_011.jpg
1120.04	2.465	correct	navigation	Trial2	navigation/STIM_011.jpg
1126.718	3.075	incorrect	navigation	Trial2	navigation/STIM_011.jpg
1132.349	2.771	incorrect	navigation	Trial2	navigation/STIM_011.jpg
1138.747	2.62	correct	navigation	Trial2	navigation/STIM_011.jpg
1143.996	3.121	correct	navigation	Trial2	navigation/STIM_011.jpg
1149.625	1.206	correct	pointing	Trial2	pointing/STIM_000.jpg
1154.492	1.256	correct	pointing	Trial2	pointing/STIM_000.jpg
1158.195	0.997	correct	pointing	Trial2	pointing/STIM_000.jpg
1162.052	0.772	correct	pointing	Trial2	pointing/STIM_000.jpg
1166.508	1.233	correct	pointing	Trial2	pointing/STIM_000.jpg
1170.612	1.068	correct	pointing	Trial2	pointing/STIM_000.jpg
1174.638	1.081	correct	pointing	Trial2	pointing/STIM_001.jpg
1178.112	0.944	correct	pointing	Trial2	pointing/STIM_001.jpg
1181.971	1.064	correct	pointing	Trial2	pointing/STIM_001.jpg
1186.192	0.811	correct	pointing	Trial2	pointing/STIM_001.jpg
1189.324	0.732	correct	pointing	Trial2	pointing/STIM_001.jpg
1194.058	1.144	correct	pointing	Trial2	pointing/STIM_001.jpg
1197.692	0.964	correct	pointing	Trial2	pointing/STIM_002.jpg
1201.445	1.077	correct	pointing	Trial2	pointing/STIM_002.jpg
1205.036	1.012	incorrect	pointing	Trial2	pointing/STIM_002.jpg
1209.708	1.274	correct	pointing	Trial2	pointing/STIM_002.jpg
1214.978	1.137	incorrect	pointing	Trial2	pointing/STIM_002.jpg
1219.13	0.859	correct	pointing	Trial2	pointing/STIM_002.jpg
1222.296	1.128	correct	pointing	Trial2	pointing/STIM_003.jpg
1227.555	1.019	correct	pointing	Trial2	pointing/STIM_003.jpg
1231.059	1.224	correct	pointing	Trial2	pointing/STIM_003.jpg
1236.057	1.313	correct	pointing	Trial2	pointing/STIM_003.jpg
1241.261	1.095	correct	pointing	Trial2	pointing/STIM_003.jpg
1245.657	0.896	correct	pointing	Trial2	pointing/STIM_003.jpg
1249.232	1.271	correct	pointing	Trial2	pointing/STIM_004.jpg
1253.511	0.956	correct	pointing	Trial2	pointing/STIM_004.jpg
1258.407	1.056	correct	pointing	Trial2	pointing/STIM_004.jpg
1263.452	1.184	correct	pointing	Trial2	pointing/STIM_004.jpg
1268.263	1.183	correct	pointing	Trial2	pointing/STIM_004.jpg
1272.184	1.05	correct	pointing	Trial2	pointing/STIM_004.jpg
1276.212	1.056	incorrect	pointing	Trial2	pointing/STIM_005.jpg
1280.047	0.785	correct	pointing	Trial2	pointing/STIM_005.jpg
1284.185	1.037	correct	pointing	Trial2	pointing/STIM_005.jpg
1288.023	0.992	incorrect	pointing	Trial2	pointing/STIM_005.jpg
1292.513	1.114	correct	pointing	Trial2	pointing/STIM_005.jpg
1296.425	1.274	correct	pointing	Trial2	pointing/STIM_005.jpg
1300.812	1.148	correct	pointing	Trial2	pointing/STIM_006.jpg
1305.369	1.134	correct	pointing	Trial2	pointing/STIM_006.jpg
1309.531	0.962	correct	pointing	Trial2	pointing/STIM_006.jpg
1313.583	0.779	correct	pointing	Trial2	pointing/STIM_006.jpg
1317.388	1.074	correct	pointing	Trial2	pointing/STIM_006.jpg
1321.664	1.231	correct	pointing	Trial2	pointing/STIM_006.jpg
1326.359	1.058	correct	pointing	Trial2	pointing/STIM_007.jpg
1331.22	1.34	correct	pointing	Trial2	pointing/STIM_007.jpg
1336.396	1.276	correct	pointing	Trial2	pointing/STIM_007.jpg
1340.642	1.242	correct	pointing	Trial2	pointing/STIM_007.jpg
1345.392	0.774	correct	pointing	Trial2	pointing/STIM_007.jpg
1349.432	0.869	correct	pointing	Trial2	pointing/STIM_007.jpg
1352.489	1.275	correct	pointing	Trial2	pointing/STIM_008.jpg
1356.959	1.196	correct	pointing	Trial2	pointing/STIM_008.jpg
1360.337	1.33	correct	pointing	Trial2	pointing/STIM_008.jpg
1365.046	0.922	incorrect	pointing	Trial2	pointing/STIM_008.jpg
1369.7	0.949	correct	pointing	Trial2	pointing/STIM_008.jpg
1374.69	0.726	correct	pointing	Trial2	pointing/STIM_008.jpg
1377.672	0.79	correct	pointing	Trial2	pointing/STIM_009.jpg
1381.173	1.322	correct	pointing	Trial2	pointing/STIM_009.jpg
1385.541	0.803	correct	pointing	Trial2	pointing/STIM_009.jpg
1389.065	1.089	correct	pointing	Trial2	pointing/STIM_009.jpg
1392.861	1.137	correct	pointing	Trial2	pointing/STIM_009.jpg
1396.184	1.308	correct	pointing	Trial2	pointing/STIM_009.jpg
1400.121	0.928	correct	pointing	Trial2	pointing/STIM_010.jpg
1405.116	1.102	correct	pointing	Trial2	pointing/STIM_010.jpg
1409.549	0.751	correct	pointing	Trial2	pointing/STIM_010.jpg
1413.327	1.11	correct	pointing	Trial2	pointing/STIM_010.jpg
1416.606	1.075	correct	pointing	Trial2	pointing/STIM_010.jpg
1421.278	0.766	correct	pointing	Trial2	pointing/STIM_010.jpg
1425.843	0.727	correct	pointing	Trial2	pointing/STIM_011.jpg
1428.933	1.342	correct	pointing	Trial2	pointing/STIM_011.jpg
1433.5	0.812	incorrect	pointing	Trial2	pointing/STIM_011.jpg
1437.484	0.72	correct	pointing	Trial2	pointing/STIM_011.jpg
1440.699	0.843	correct	pointing	Trial2	pointing/STIM_011.jpg
1445.404	1.073	correct	pointing	Trial2	pointing/STIM_011.jpg
1450.559	1.302	correct	navigation	Trial3	navigation/STIM_000.jpg
1455.677	1.481	correct	navigation	Trial3	navigation/STIM_000.jpg
1460.459	2.974	correct	navigation	Trial3	navigation/STIM_000.jpg
1467.648	2.176	incorrect	navigation	Trial3	navigation/STIM_000.jpg
1472.965	2.502	correct	navigation	Trial3	navigation/STIM_000.jpg
1479.037	3.12	correct	navigation	Trial3	navigation/STIM_000.jpg
1484.758	2.582	correct	navigation	Trial3	navigation/STIM_001.jpg
1490.923	3.092	correct	navigation	Trial3	navigation/STIM_001.jpg
1497.001	2.67	correct	navigation	Trial3	navigation/STIM_001.jpg
1502.282	2.103	correct	navigation	Trial3	navigation/STIM_001.jpg
1507.976	2.982	correct	navigation	Trial3	navigation/STIM_001.jpg
1513.677	1.992	correct	navigation	Trial3	navigation/STIM_001.jpg
1518.675	1.397	correct	navigation	Trial3	navigation/STIM_002.jpg
1522.641	1.778	incorrect	navigation	Trial3	navigation/STIM_002.jpg
1528.229	1.309	correct	navigation	Trial3	navigation/STIM_002.jpg
1532.458	2.06	correct	navigation	Trial3	navigation/STIM_002.jpg
1537.891	2.44	correct	navigation	Trial3	navigation/STIM_002.jpg
1544.236	2.256	incorrect	navigation	Trial3	navigation/STIM_002.jpg
1549.139	2.91	incorrect	navigation	Trial3	navigation/STIM_003.jpg
1555.917	1.457	correct	navigation	Trial3	navigation/STIM_003.jpg
1560.429	1.55	correct	navigation	Trial3	navigation/STIM_003.jpg
1566.068	1.529	correct	navigation	Trial3	navigation/STIM_003.jpg
1570.012	2.621	correct	navigation	Trial3	navigation/STIM_003.jpg
1575.239	1.26	correct	navigation	Trial3	navigation/STIM_003.jpg
1580.445	2.096	correct	navigation	Trial3	navigation/STIM_004.jpg
1585.561	2.485	correct	navigation	Trial3	navigation/STIM_004.jpg
1591.649	1.497	correct	navigation	Trial3	navigation/STIM_004.jpg
1595.743	2.155	correct	navigation	Trial3	navigation/STIM_004.jpg
1601.693	2.217	correct	navigation	Trial3	navigation/STIM_004.jpg
1606.725	2.342	incorrect	navigation	Trial3	navigation/STIM_004.jpg
1612.72	1.442	correct	navigation	Trial3	navigation/STIM_005.jpg
1617.243	1.258	correct	navigation	Trial3	navigation/STIM_005.jpg
1621.429	2.043	correct	navigation	Trial3	navigation/STIM_005.jpg
1626.54	2.583	correct	navigation	Trial3	navigation/STIM_005.jpg
1632.091	2.487	correct	navigation	Trial3	navigation/STIM_005.jpg
1637.54	2.167	correct	navigation	Trial3	navigation/STIM_005.jpg
1642.344	2.548	correct	navigation	Trial3	navigation/STIM_006.jpg
1647.446	2.843	correct	navigation	Trial3	navigation/STIM_006.jpg
1653.861	1.552	correct	navigation	Trial3	navigation/STIM_006.jpg
1658.366	3.108	correct	navigation	Trial3	navigation/STIM_006.jpg
1664.296	2.192	correct	navigation	Trial3	navigation/STIM_006.jpg
1669.712	2.414	correct	navigation	Trial3	navigation/STIM_006.jpg
1675.623	2.852	incorrect	navigation	Trial3	navigation/STIM_007.jpg
1681.282	2.688	correct	navigation	Trial3	navigation/STIM_007.jpg
1687.699	2.771	correct	navigation	Trial3	navigation/STIM_007.jpg
1693.427	2.393	correct	navigation	Trial3	navigation/STIM_007.jpg
1698.31	3.133	correct	navigation	Trial3	navigation/STIM_007.jpg
1705.742	2.299	incorrect	navigation	Trial3	navigation/STIM_007.jpg
1711.889	1.466	correct	navigation	Trial3	navigation/STIM_008.jpg
1716.209	2.097	correct	navigation	Trial3	navigation/STIM_008.jpg
1722.06	3.034	correct	navigation	Trial3	navigation/STIM_008.jpg
1727.614	1.426	correct	navigation	Trial3	navigation/STIM_008.jpg
1733.162	2.784	correct	navigation	Trial3	navigation/STIM_008.jpg
1739.281	2.104	correct	navigation	Trial3	navigation/STIM_008.jpg
1745.061	1.54	correct	navigation	Trial3	navigation/STIM_009.jpg
1749.143	1.915	incorrect	navigation	Trial3	navigation/STIM_009.jpg
1754.236	2.003	correct	navigation	Trial3	navigation/STIM_009.jpg
1759.4	2.258	correct	navigation	Trial3	navigation/STIM_009.jpg
1764.716	1.594	correct	navigation	Trial3	navigation/STIM_009.jpg
1770.303	2.885	correct	navigation	Trial3	navigation/STIM_009.jpg
1777.189	2.204	correct	navigation	Trial3	navigation/STIM_010.jpg
1782.936	1.696	correct	navigation	Trial3	navigation/STIM_010.jpg
1788.03	1.547	incorrect	navigation	Trial3	navigation/STIM_010.jpg
1793.284	2.696	correct	navigation	Trial3	navigation/STIM_010.jpg
1798.448	2.183	correct	navigation	Trial3	navigation/STIM_010.jpg
1804.179	2.589	incorrect	navigation	Trial3	navigation/STIM_010.jpg
1809.68	1.754	correct	navigation	Trial3	navigation/STIM_011.jpg
1813.922	2.643	correct	navigation	Trial3	navigation/STIM_011.jpg
1819.939	2.117	correct	navigation	Trial3	navigation/STIM_011.jpg
1824.767	2.827	incorrect	navigation	Trial3	navigation/STIM_011.jpg
1830.812	1.828	correct	navigation	Trial3	navigation/STIM_011.jpg
1836.583	3.094	correct	navigation	Trial3	navigation/STIM_011.jpg
1843.148	1.06	correct	pointing	Trial3	pointing/STIM_000.jpg
1846.758	1.191	correct	pointing	Trial3	pointing/STIM_000.jpg
1850.348	1.104	correct	pointing	Trial3	pointing/STIM_000.jpg
1854.854	1.026	incorrect	pointing	Trial3	pointing/STIM_000.jpg
1858.81	0.992	correct	pointing	Trial3	pointing/STIM_000.jpg
1862.985	1.337	correct	pointing	Trial3	pointing/STIM_000.jpg
1868.421	0.856	correct	pointing	Trial3	pointing/STIM_001.jpg
1873.333	1.198	correct	pointing	Trial3	pointing/STIM_001.jpg
1877.158	0.861	correct	pointing	Trial3	pointing/STIM_001.jpg
1880.849	1.12	correct	pointing	Trial3	pointing/STIM_001.jpg
1885.687	0.721	correct	pointing	Trial3	pointing/STIM_001.jpg
1890.183	1.221	correct	pointing	Trial3	pointing/STIM_001.jpg
1894.248	1.054	correct	pointing	Trial3	pointing/STIM_002.jpg
1898.035	0.816	incorrect	pointing	Trial3	pointing/STIM_002.jpg
1902.159	0.888	correct	pointing	Trial3	pointing/STIM_002.jpg
1906.668	0.775	correct	pointing	Trial3	pointing/STIM_002.jpg
1909.701	1.156	correct	pointing	Trial3	pointing/STIM_002.jpg
1913.041	1.048	correct	pointing	Trial3	pointing/STIM_002.jpg
1917.711	1.083	correct	pointing	Trial3	pointing/STIM_003.jpg
1922.367	0.88	correct	pointing	Trial3	pointing/STIM_003.jpg
1925.928	0.854	incorrect	pointing	Trial3	pointing/STIM_003.jpg
1930.709	0.772	correct	pointing	Trial3	pointing/STIM_003.jpg
1934.274	0.878	correct	pointing	Trial3	pointing/STIM_003.jpg
1938.599	0.871	correct	pointing	Trial3	pointing/STIM_003.jpg
1943.018	0.982	incorrect	pointing	Trial3	pointing/STIM_004.jpg
1947.992	0.77	correct	pointing	Trial3	pointing/STIM_004.jpg
1952.013	1.171	correct	pointing	Trial3	pointing/STIM_004.jpg
1956.283	1.11	correct	pointing	Trial3	pointing/STIM_004.jpg
1961.008	1.337	correct	pointing	Trial3	pointing/STIM_004.jpg
1965.408	1.222	correct	pointing	Trial3	pointing/STIM_004.jpg
1968.949	0.719	incorrect	pointing	Trial3	pointing/STIM_005.jpg
1973.189	1.29	correct	pointing	Trial3	pointing/STIM_005.jpg
1977.75	1.201	incorrect	pointing	Trial3	pointing/STIM_005.jpg
1981.665	1.096	correct	pointing	Trial3	pointing/STIM_005.jpg
1986.452	0.918	correct	pointing	Trial3	pointing/STIM_005.jpg
1989.81	0.84	incorrect	pointing	Trial3	pointing/STIM_005.jpg
1993.305	0.741	correct	pointing	Trial3	pointing/STIM_006.jpg
1996.512	1.078	correct	pointing	Trial3	pointing/STIM_006.jpg
2000.626	1.074	correct	pointing	Trial3	pointing/STIM_006.jpg
2005.618	1.308	correct	pointing	Trial3	pointing/STIM_006.jpg
2010.845	0.796	correct	pointing	Trial3	pointing/STIM_006.jpg
2014.718	0.798	correct	pointing	Trial3	pointing/STIM_006.jpg
2019.244	1.028	correct	pointing	Trial3	pointing/STIM_007.jpg
2023.3	1.316	correct	pointing	Trial3	pointing/STIM_007.jpg
2027.515	1.064	correct	pointing	Trial3	pointing/STIM_007.jpg
2031.139	1.1	correct	pointing	Trial3	pointing/STIM_007.jpg
2036.142	0.77	correct	pointing	Trial3	pointing/STIM_007.jpg
2040.544	1.18	correct	pointing	Trial3	pointing/STIM_007.jpg
2044.827	1.226	correct	pointing	Trial3	pointing/STIM_008.jpg
2049.892	0.864	correct	pointing	Trial3	pointing/STIM_008.jpg
2054.559	1.13	correct	pointing	Trial3	pointing/STIM_008.jpg
2058.159	1.084	correct	pointing	Trial3	pointing/STIM_008.jpg
2062.956	1.081	correct	pointing	Trial3	pointing/STIM_008.jpg
2067.244	1.181	correct	pointing	Trial3	pointing/STIM_008.jpg
2072.23	1.272	correct	pointing	Trial3	pointing/STIM_009.jpg
2077.041	0.9	correct	pointing	Trial3	pointing/STIM_009.jpg
2080.606	0.744	correct	pointing	Trial3	pointing/STIM_009.jpg
2084.962	1.326	correct	pointing	Trial3	pointing/STIM_009.jpg
2090.006	0.78	correct	pointing	Trial3	pointing/STIM_009.jpg
2093.226	1.136	correct	pointing	Trial3	pointing/STIM_009.jpg
2096.92	1.31	correct	pointing	Trial3	pointing/STIM_010.jpg
2100.929	1.124	correct	pointing	Trial3	pointing/STIM_010.jpg
2104.693	0.859	correct	pointing	Trial3	pointing/STIM_010.jpg
2109.404	1.005	correct	pointing	Trial3	pointing/STIM_010.jpg
2114.315	1.334	correct	pointing	Trial3	pointing/STIM_010.jpg
2118.336	1.254	correct	pointing	Trial3	pointing/STIM_010.jpg
2122.743	1.238	correct	pointing	Trial3	pointing/STIM_011.jpg
2126.275	1.251	correct	pointing	Trial3	pointing/STIM_011.jpg
2129.889	1.18	correct	pointing	Trial3	pointing/STIM_011.jpg
2133.34	0.861	correct	pointing	Trial3	pointing/STIM_011.jpg
2137.601	0.744	correct	pointing	Trial3	pointing/STIM_011.jpg
2140.606	0.883	incorrect	pointing	Trial3	pointing/STIM_011.jpg
