onset	duration	accuracy_binary	trial_type	learning_stage	stimulus
0.0	2.049	1	generate	Run1	generate/STIM_000.jpg
4.303	2.525	1	generate	Run1	generate/STIM_000.jpg
10.56	2.456	1	generate	Run1	generate/STIM_000.jpg
15.737	1.546	1	generate	Run1	generate/STIM_000.jpg
20.086	1.3	1	generate	Run1	generate/STIM_000.jpg
23.59	1.695	0	generate	Run1	generate/STIM_001.jpg
27.993	1.157	1	generate	Run1	generate/STIM_001.jpg
32.843	1.103	1	generate	Run1	generate/STIM_001.jpg
37.285	1.365	1	generate	Run1	generate/STIM_001.jpg
41.173	1.416	0	generate	Run1	generate/STIM_001.jpg
45.072	1.771	1	generate	Run1	generate/STIM_002.jpg
49.153	2.181	1	generate	Run1	generate/STIM_002.jpg
54.936	2.452	0	generate	Run1	generate/STIM_002.jpg
61.43	1.882	1	generate	Run1	generate/STIM_002.jpg
65.584	1.99	1	generate	Run1	generate/STIM_002.jpg
70.577	2.578	0	generate	Run1	generate/STIM_003.jpg
75.553	2.092	1	generate	Run1	generate/STIM_003.jpg
81.478	1.683	1	generate	Run1	generate/STIM_003.jpg
86.943	1.009	0	generate	Run1	generate/STIM_003.jpg
91.89	1.639	0	generate	Run1	generate/STIM_003.jpg
97.343	1.926	1	generate	Run1	generate/STIM_004.jpg
101.732	1.17	0	generate	Run1	generate/STIM_004.jpg
105.94	1.345	1	generate	Run1	generate/STIM_004.jpg
109.966	1.566	1	generate	Run1	generate/STIM_004.jpg
113.674	1.728	0	generate	Run1	generate/STIM_004.jpg
118.054	1.228	1	generate	Run1	generate/STIM_005.jpg
122.29	2.494	0	generate	Run1	generate/STIM_005.jpg
127.617	1.51	1	generate	Run1	generate/STIM_005.jpg
131.834	2.115	1	generate	Run1	generate/STIM_005.jpg
136.599	1.436	0	generate	Run1	generate/STIM_005.jpg
141.192	1.243	0	generate	Run1	generate/STIM_006.jpg
144.535	1.873	1	generate	Run1	generate/STIM_006.jpg
150.201	1.716	1	generate	Run1	generate/STIM_006.jpg
154.002	1.922	1	generate	Run1	generate/STIM_006.jpg
158.378	1.445	0	generate	Run1	generate/STIM_006.jpg
162.352	1.733	0	generate	Run1	generate/STIM_007.jpg
167.645	2.335	1	generate	Run1	generate/STIM_007.jpg
174.09	2.323	1	generate	Run1	generate/STIM_007.jpg
178.839	0.951	1	generate	Run1	generate/STIM_007.jpg
182.063	1.049	1	generate	Run1	generate/STIM_007.jpg
185.884	1.479	1	generate	Run1	generate/STIM_008.jpg
189.587	1.176	0	generate	Run1	generate/STIM_008.jpg
193.445	2.472	1	generate	Run1	generate/STIM_008.jpg
198.834	1.614	1	generate	Run1	generate/STIM_008.jpg
203.014	0.905	0	generate	Run1	generate/STIM_008.jpg
206.745	2.012	1	generate	Run1	generate/STIM_009.jpg
212.39	1.214	1	generate	Run1	generate/STIM_009.jpg
216.724	1.892	1	generate	Run1	generate/STIM_009.jpg
222.164	1.604	0	generate	Run1	generate/STIM_009.jpg
227.107	1.348	1	generate	Run1	generate/STIM_009.jpg
231.624	2.224	1	generate	Run1	generate/STIM_010.jpg
237.217	1.558	0	generate	Run1	generate/STIM_010.jpg
241.421	1.525	1	generate	Run1	generate/STIM_010.jpg
246.279	2.212	1	generate	Run1	generate/STIM_010.jpg
251.981	1.545	1	generate	Run1	generate/STIM_010.jpg
256.356	1.285	0	generate	Run1	generate/STIM_011.jpg
260.403	1.336	1	generate	Run1	generate/STIM_011.jpg
264.829	1.773	0	generate	Run1	generate/STIM_011.jpg
269.689	1.11	0	generate	Run1	generate/STIM_011.jpg
273.899	2.105	1	generate	Run1	generate/STIM_011.jpg
279.104	2.459	1	generate	Run1	generate/STIM_012.jpg
285.031	2.155	1	generate	Run1	generate/STIM_012.jpg
289.248	2.263	1	generate	Run1	generate/STIM_012.jpg
294.657	2.042	1	generate	Run1	generate/STIM_012.jpg
299.245	1.13	1	generate	Run1	generate/STIM_012.jpg
303.581	2.282	0	generate	Run1	generate/STIM_013.jpg
309.21	1.132	1	generate	Run1	generate/STIM_013.jpg
312.724	2.258	1	generate	Run1	generate/STIM_013.jpg
318.55	1.495	1	generate	Run1	generate/STIM_013.jpg
322.352	1.006	0	generate	Run1	generate/STIM_013.jpg
325.387	1.724	1	generate	Run1	generate/STIM_014.jpg
330.332	1.841	0	generate	Run1	generate/STIM_014.jpg
335.95	1.39	1	generate	Run1	generate/STIM_014.jpg
341.01	1.095	1	generate	Run1	generate/STIM_014.jpg
344.919	1.408	1	generate	Run1	generate/STIM_014.jpg
348.872	1.166	1	generate	Run1	generate/STIM_015.jpg
352.98	2.002	1	generate	Run1	generate/STIM_015.jpg
358.513	2.574	1	generate	Run1	generate/STIM_015.jpg
363.576	2.017	0	generate	Run1	generate/STIM_015.jpg
368.521	2.228	1	generate	Run1	generate/STIM_015.jpg
373.11	2.344	1	generate	Run1	generate/STIM_016.jpg
379.375	2.159	1	generate	Run1	generate/STIM_016.jpg
383.566	1.213	1	generate	Run1	generate/STIM_016.jpg
387.819	2.266	0	generate	Run1	generate/STIM_016.jpg
393.117	1.824	1	generate	Run1	generate/STIM_016.jpg
398.612	1.316	0	generate	Run1	generate/STIM_017.jpg
403.518	2.649	1	generate	Run1	generate/STIM_017.jpg
408.513	2.489	1	generate	Run1	generate/STIM_017.jpg
414.372	2.125	0	generate	Run1	generate/STIM_017.jpg
418.537	2.148	1	generate	Run1	generate/STIM_017.jpg
424.606	1.668	1	generate	Run1	generate/STIM_018.jpg
429.483	1.421	1	generate	Run1	generate/STIM_018.jpg
433.792	1.515	1	generate	Run1	generate/STIM_018.jpg
438.707	1.279	1	generate	Run1	generate/STIM_018.jpg
442.232	1.137	0	generate	Run1	generate/STIM_018.jpg
447.101	2.744	0	generate	Run1	generate/STIM_019.jpg
453.177	1.848	1	generate	Run1	generate/STIM_019.jpg
458.982	1.811	1	generate	Run1	generate/STIM_019.jpg
463.066	1.776	1	generate	Run1	generate/STIM_019.jpg
468.902	1.557	0	generate	Run1	generate/STIM_019.jpg
474.302	2.104	1	generate	Run1	generate/STIM_020.jpg
479.938	2.227	1	generate	Run1	generate/STIM_020.jpg
485.878	1.519	1	generate	Run1	generate/STIM_020.jpg
491.208	2.215	1	generate	Run1	generate/STIM_020.jpg
496.872	1.412	1	generate	Run1	generate/STIM_020.jpg
501.038	1.473	0	generate	Run1	generate/STIM_021.jpg
506.183	2.076	1	generate	Run1	generate/STIM_021.jpg
510.731	2.042	1	generate	Run1	generate/STIM_021.jpg
515.643	1.954	1	generate	Run1	generate/STIM_021.jpg
519.986	1.338	1	generate	Run1	generate/STIM_021.jpg
524.76	2.066	1	generate	Run1	generate/STIM_022.jpg
529.519	1.946	0	generate	Run1	generate/STIM_022.jpg
533.639	1.514	1	generate	Run1	generate/STIM_022.jpg
537.6	1.859	1	generate	Run1	generate/STIM_022.jpg
543.257	2.19	0	generate	Run1	generate/STIM_022.jpg
547.663	1.161	1	generate	Run1	generate/STIM_023.jpg
551.866	2.495	0	generate	Run1	generate/STIM_023.jpg
557.346	1.543	1	generate	Run1	generate/STIM_023.jpg
562.81	2.121	1	generate	Run1	generate/STIM_023.jpg
567.114	2.24	1	generate	Run1	generate/STIM_023.jpg
571.664	2.758	0	generate	Run1	generate/STIM_024.jpg
577.979	1.813	0	generate	Run1	generate/STIM_024.jpg
582.561	1.742	1	generate	Run1	generate/STIM_024.jpg
586.702	1.813	0	generate	Run1	generate/STIM_024.jpg
591.041	1.642	0	generate	Run1	generate/STIM_024.jpg
596.138	0.809	1	repeat	Run1	repeat/STIM_000.jpg
600.828	0.518	1	repeat	Run1	repeat/STIM_000.jpg
605.255	0.511	1	repeat	Run1	repeat/STIM_000.jpg
609.402	0.73	1	repeat	Run1	repeat/STIM_000.jpg
612.201	0.945	1	repeat	Run1	repeat/STIM_000.jpg
616.605	0.739	1	repeat	Run1	repeat/STIM_001.jpg
619.843	0.751	1	repeat	Run1	repeat/STIM_001.jpg
622.964	0.625	1	repeat	Run1	repeat/STIM_001.jpg
627.427	0.797	1	repeat	Run1	repeat/STIM_001.jpg
631.43	0.887	1	repeat	Run1	repeat/STIM_001.jpg
635.14	0.644	1	repeat	Run1	repeat/STIM_002.jpg
639.03	0.835	1	repeat	Run1	repeat/STIM_002.jpg
642.423	0.904	1	repeat	Run1	repeat/STIM_002.jpg
646.723	0.721	1	repeat	Run1	repeat/STIM_002.jpg
650.596	0.801	1	repeat	Run1	repeat/STIM_002.jpg
654.783	0.508	1	repeat	Run1	repeat/STIM_003.jpg
659.029	0.797	0	repeat	Run1	repeat/STIM_003.jpg
662.595	1.004	1	repeat	Run1	repeat/STIM_003.jpg
666.026	0.659	0	repeat	Run1	repeat/STIM_003.jpg
669.579	0.552	1	repeat	Run1	repeat/STIM_003.jpg
672.195	0.589	1	repeat	Run1	repeat/STIM_004.jpg
675.501	0.456	1	repeat	Run1	repeat/STIM_004.jpg
678.715	0.704	1	repeat	Run1	repeat/STIM_004.jpg
683.1	0.615	1	repeat	Run1	repeat/STIM_004.jpg
687.496	0.78	1	repeat	Run1	repeat/STIM_004.jpg
690.471	0.719	1	repeat	Run1	repeat/STIM_005.jpg
693.193	0.946	1	repeat	Run1	repeat/STIM_005.jpg
696.459	0.424	1	repeat	Run1	repeat/STIM_005.jpg
700.078	0.537	1	repeat	Run1	repeat/STIM_005.jpg
703.279	0.778	1	repeat	Run1	repeat/STIM_005.jpg
706.67	0.737	1	repeat	Run1	repeat/STIM_006.jpg
710.186	0.9	1	repeat	Run1	repeat/STIM_006.jpg
714.278	0.676	1	repeat	Run1	repeat/STIM_006.jpg
718.588	0.505	1	repeat	Run1	repeat/STIM_006.jpg
722.83	0.731	1	repeat	Run1	repeat/STIM_006.jpg
727.242	0.727	1	repeat	Run1	repeat/STIM_007.jpg
730.377	0.679	1	repeat	Run1	repeat/STIM_007.jpg
733.138	0.638	1	repeat	Run1	repeat/STIM_007.jpg
737.264	0.916	1	repeat	Run1	repeat/STIM_007.jpg
741.65	0.81	1	repeat	Run1	repeat/STIM_007.jpg
745.163	0.768	1	repeat	Run1	repeat/STIM_008.jpg
749.06	0.499	1	repeat	Run1	repeat/STIM_008.jpg
752.67	0.634	1	repeat	Run1	repeat/STIM_008.jpg
757.218	0.911	1	repeat	Run1	repeat/STIM_008.jpg
761.104	0.516	1	repeat	Run1	repeat/STIM_008.jpg
763.905	0.711	0	repeat	Run1	repeat/STIM_009.jpg
767.884	0.881	1	repeat	Run1	repeat/STIM_009.jpg
771.657	0.625	1	repeat	Run1	repeat/STIM_009.jpg
775.143	0.959	1	repeat	Run1	repeat/STIM_009.jpg
779.961	0.542	1	repeat	Run1	repeat/STIM_009.jpg
783.081	0.914	1	repeat	Run1	repeat/STIM_010.jpg
786.237	0.864	1	repeat	Run1	repeat/STIM_010.jpg
789.876	0.576	1	repeat	Run1	repeat/STIM_010.jpg
793.765	0.88	1	repeat	Run1	repeat/STIM_010.jpg
796.853	0.876	1	repeat	Run1	repeat/STIM_010.jpg
799.856	0.551	1	repeat	Run1	repeat/STIM_011.jpg
804.092	0.671	1	repeat	Run1	repeat/STIM_011.jpg
808.281	0.648	1	repeat	Run1	repeat/STIM_011.jpg
810.978	0.97	1	repeat	Run1	repeat/STIM_011.jpg
814.607	0.598	1	repeat	Run1	repeat/STIM_011.jpg
818.424	0.776	1	repeat	Run1	repeat/STIM_012.jpg
822.57	0.859	1	repeat	Run1	repeat/STIM_012.jpg
825.744	0.536	1	repeat	Run1	repeat/STIM_012.jpg
829.354	0.975	1	repeat	Run1	repeat/STIM_012.jpg
833.033	0.731	1	repeat	Run1	repeat/STIM_012.jpg
835.82	0.76	1	repeat	Run1	repeat/STIM_013.jpg
839.571	0.557	1	repeat	Run1	repeat/STIM_013.jpg
842.955	0.745	1	repeat	Run1	repeat/STIM_013.jpg
847.052	0.562	1	repeat	Run1	repeat/STIM_013.jpg
850.907	0.646	1	repeat	Run1	repeat/STIM_013.jpg
854.681	0.467	1	repeat	Run1	repeat/STIM_014.jpg
858.774	0.555	1	repeat	Run1	repeat/STIM_014.jpg
861.818	0.878	1	repeat	Run1	repeat/STIM_014.jpg
865.33	0.96	1	repeat	Run1	repeat/STIM_014.jpg
870.093	0.952	1	repeat	Run1	repeat/STIM_014.jpg
874.711	2.225	1	generate	Run2	generate/STIM_000.jpg
879.54	1.329	1	generate	Run2	generate/STIM_000.jpg
884.202	1.226	1	generate	Run2	generate/STIM_000.jpg
888.175	2.098	0	generate	Run2	generate/STIM_000.jpg
894.109	1.728	1	generate	Run2	generate/STIM_000.jpg
898.273	1.2	1	generate	Run2	generate/STIM_001.jpg
901.922	1.072	1	generate	Run2	generate/STIM_001.jpg
906.923	1.159	0	generate	Run2	generate/STIM_001.jpg
910.847	0.876	1	generate	Run2	generate/STIM_001.jpg
915.643	1.771	1	generate	Run2	generate/STIM_001.jpg
921.278	1.696	1	generate	Run2	generate/STIM_002.jpg
926.835	1.743	1	generate	Run2	generate/STIM_002.jpg
931.621	1.538	1	generate	Run2	generate/STIM_002.jpg
936.867	1.488	0	generate	Run2	generate/STIM_002.jpg
941.078	0.982	1	generate	Run2	generate/STIM_002.jpg
945.393	1.7	1	generate	Run2	generate/STIM_003.jpg
949.576	1.97	1	generate	Run2	generate/STIM_003.jpg
954.729	0.983	1	generate	Run2	generate/STIM_003.jpg
957.818	1.388	1	generate	Run2	generate/STIM_003.jpg
961.619	1.039	1	generate	Run2	generate/STIM_003.jpg
966.179	1.039	1	generate	Run2	generate/STIM_004.jpg
969.405	1.494	0	generate	Run2	generate/STIM_004.jpg
973.895	0.912	1	generate	Run2	generate/STIM_004.jpg
978.481	1.989	1	generate	Run2	generate/STIM_004.jpg
983.872	0.86	1	generate	Run2	generate/STIM_004.jpg
987.434	1.848	1	generate	Run2	generate/STIM_005.jpg
991.783	1.809	1	generate	Run2	generate/STIM_005.jpg
997.294	1.873	1	generate	Run2	generate/STIM_005.jpg
1002.972	0.971	1	generate	Run2	generate/STIM_005.jpg
1006.527	1.35	1	generate	Run2	generate/STIM_005.jpg
1011.714	1.018	1	generate	Run2	generate/STIM_006.jpg
1016.434	1.704	0	generate	Run2	generate/STIM_006.jpg
1021.533	1.726	1	generate	Run2	generate/STIM_006.jpg
1025.737	1.174	1	generate	Run2	generate/STIM_006.jpg
1029.672	1.311	1	generate	Run2	generate/STIM_006.jpg
1034.038	1.174	1	generate	Run2	generate/STIM_007.jpg
1037.541	1.65	0	generate	Run2	generate/STIM_007.jpg
1042.426	1.788	1	generate	Run2	generate/STIM_007.jpg
1046.415	1.002	1	generate	Run2	generate/STIM_007.jpg
1049.633	0.918	1	generate	Run2	generate/STIM_007.jpg
1052.601	2.03	1	generate	Run2	generate/STIM_008.jpg
1057.152	0.898	1	generate	Run2	generate/STIM_008.jpg
1062.09	1.615	1	generate	Run2	generate/STIM_008.jpg
1066.21	1.002	1	generate	Run2	generate/STIM_008.jpg
1069.913	1.869	1	generate	Run2	generate/STIM_008.jpg
1073.916	1.1	1	generate	Run2	generate/STIM_009.jpg
1077.841	1.262	1	generate	Run2	generate/STIM_009.jpg
1083.149	2.029	0	generate	Run2	generate/STIM_009.jpg
1088.725	1.235	1	generate	Run2	generate/STIM_009.jpg
1091.915	1.615	0	generate	Run2	generate/STIM_009.jpg
1095.959	1.13	1	generate	Run2	generate/STIM_010.jpg
1099.475	1.685	1	generate	Run2	generate/STIM_010.jpg
1104.986	1.925	1	generate	Run2	generate/STIM_010.jpg
1110.626	1.943	1	generate	Run2	generate/STIM_010.jpg
1115.539	0.949	1	generate	Run2	generate/STIM_010.jpg
1119.61	1.897	1	generate	Run2	generate/STIM_011.jpg
1124.685	1.584	1	generate	Run2	generate/STIM_011.jpg
1128.72	0.858	1	generate	Run2	generate/STIM_011.jpg
1133.035	1.36	1	generate	Run2	generate/STIM_011.jpg
1137.89	1.444	1	generate	Run2	generate/STIM_011.jpg
1142.061	2.076	1	generate	Run2	generate/STIM_012.jpg
1147.743	2.08	1	generate	Run2	generate/STIM_012.jpg
1153.042	1.88	1	generate	Run2	generate/STIM_012.jpg
1157.358	1.084	1	generate	Run2	generate/STIM_012.jpg
1161.098	1.527	1	generate	Run2	generate/STIM_012.jpg
1166.417	1.814	0	generate	Run2	generate/STIM_013.jpg
1170.592	1.491	0	generate	Run2	generate/STIM_013.jpg
1175.737	1.112	0	generate	Run2	generate/STIM_013.jpg
1179.023	1.167	1	generate	Run2	generate/STIM_013.jpg
1183.665	1.478	1	generate	Run2	generate/STIM_013.jpg
1188.967	1.62	1	generate	Run2	generate/STIM_014.jpg
1193.055	2.008	1	generate	Run2	generate/STIM_014.jpg
1197.702	1.846	0	generate	Run2	generate/STIM_014.jpg
1202.603	1.864	0	generate	Run2	generate/STIM_014.jpg
1207.484	1.226	1	generate	Run2	generate/STIM_014.jpg
1211.511	2.384	1	generate	Run2	generate/STIM_015.jpg
1217.478	1.426	1	generate	Run2	generate/STIM_015.jpg
1221.128	1.453	1	generate	Run2	generate/STIM_015.jpg
1225.074	1.52	1	generate	Run2	generate/STIM_015.jpg
1230.079	1.105	1	generate	Run2	generate/STIM_015.jpg
1234.711	1.991	0	generate	Run2	generate/STIM_016.jpg
1240.187	1.616	1	generate	Run2	generate/STIM_016.jpg
1245.281	1.636	1	generate	Run2	generate/STIM_016.jpg
1249.412	1.396	1	generate	Run2	generate/STIM_016.jpg
1254.459	1.866	0	generate	Run2	generate/STIM_016.jpg
1259.467	2.412	1	generate	Run2	generate/STIM_017.jpg
1263.999	1.375	1	generate	Run2	generate/STIM_017.jpg
1268.822	1.712	1	generate	Run2	generate/STIM_017.jpg
1274.205	1.647	1	generate	Run2	generate/STIM_017.jpg
1279.031	1.009	1	generate	Run2	generate/STIM_017.jpg
1282.916	1.912	1	generate	Run2	generate/STIM_018.jpg
1288.685	2.214	1	generate	Run2	generate/STIM_018.jpg
1293.367	2.047	1	generate	Run2	generate/STIM_018.jpg
1297.842	1.114	1	generate	Run2	generate/STIM_018.jpg
1302.356	0.953	1	generate	Run2	generate/STIM_018.jpg
1307.249	2.06	1	generate	Run2	generate/STIM_019.jpg
1311.58	1.026	1	generate	Run2	generate/STIM_019.jpg
1315.28	1.262	1	generate	Run2	generate/STIM_019.jpg
1319.865	0.814	1	generate	Run2	generate/STIM_019.jpg
1323.696	1.34	1	generate	Run2	generate/STIM_019.jpg
1327.36	1.604	0	generate	Run2	generate/STIM_020.jpg
1331.333	1.079	1	generate	Run2	generate/STIM_020.jpg
1335.006	1.989	1	generate	Run2	generate/STIM_020.jpg
1339.328	1.523	0	generate	Run2	generate/STIM_020.jpg
1343.415	1.026	1	generate	Run2	generate/STIM_020.jpg
1348.436	1.906	1	generate	Run2	generate/STIM_021.jpg
1353.297	1.901	1	generate	Run2	generate/STIM_021.jpg
1357.374	1.772	1	generate	Run2	generate/STIM_021.jpg
1361.822	1.622	1	generate	Run2	generate/STIM_021.jpg
1366.402	1.971	1	generate	Run2	generate/STIM_021.jpg
1372.353	1.774	1	generate	Run2	generate/STIM_022.jpg
1377.145	2.011	1	generate	Run2	generate/STIM_022.jpg
1383.222	1.829	1	generate	Run2	generate/STIM_022.jpg
1387.184	1.27	0	generate	Run2	generate/STIM_022.jpg
1390.684	1.88	0	generate	Run2	generate/STIM_022.jpg
1395.643	1.23	1	generate	Run2	generate/STIM_023.jpg
1399.03	2.072	1	generate	Run2	generate/STIM_023.jpg
1404.015	1.328	1	generate	Run2	generate/STIM_023.jpg
1409.257	1.713	1	generate	Run2	generate/STIM_023.jpg
1413.944	1.008	1	generate	Run2	generate/STIM_023.jpg
1417.291	2.212	0	generate	Run2	generate/STIM_024.jpg
1421.997	2.137	0	generate	Run2	generate/STIM_024.jpg
1427.059	1.729	1	generate	Run2	generate/STIM_024.jpg
1431.832	1.612	1	generate	Run2	generate/STIM_024.jpg
1435.764	1.135	1	generate	Run2	generate/STIM_024.jpg
1440.534	0.577	1	repeat	Run2	repeat/STIM_000.jpg
1444.628	0.544	1	repeat	Run2	repeat/STIM_000.jpg
1448.014	0.822	1	repeat	Run2	repeat/STIM_000.jpg
1452.068	0.926	1	repeat	Run2	repeat/STIM_000.jpg
1456.446	0.787	0	repeat	Run2	repeat/STIM_000.jpg
1459.75	0.77	1	repeat	Run2	repeat/STIM_001.jpg
1463.844	0.687	1	repeat	Run2	repeat/STIM_001.jpg
1466.787	0.935	1	repeat	Run2	repeat/STIM_001.jpg
1470.499	0.596	1	repeat	Run2	repeat/STIM_001.jpg
1473.198	0.636	1	repeat	Run2	repeat/STIM_001.jpg
1476.287	0.889	1	repeat	Run2	repeat/STIM_002.jpg
1479.53	0.857	1	repeat	Run2	repeat/STIM_002.jpg
1483.109	0.646	1	repeat	Run2	repeat/STIM_002.jpg
1487.581	0.673	1	repeat	Run2	repeat/STIM_002.jpg
1491.968	0.578	1	repeat	Run2	repeat/STIM_002.jpg
1496.051	0.482	1	repeat	Run2	repeat/STIM_003.jpg
1500.031	0.547	1	repeat	Run2	repeat/STIM_003.jpg
1502.81	0.888	1	repeat	Run2	repeat/STIM_003.jpg
1507.388	0.86	1	repeat	Run2	repeat/STIM_003.jpg
1510.615	0.626	1	repeat	Run2	repeat/STIM_003.jpg
1515.013	0.527	0	repeat	Run2	repeat/STIM_004.jpg
1518.304	0.507	1	repeat	Run2	repeat/STIM_004.jpg
1522.091	0.976	1	repeat	Run2	repeat/STIM_004.jpg
1525.093	0.737	1	repeat	Run2	repeat/STIM_004.jpg
1528.099	0.508	1	repeat	Run2	repeat/STIM_004.jpg
1531.166	0.845	1	repeat	Run2	repeat/STIM_005.jpg
1534.255	0.533	1	repeat	Run2	repeat/STIM_005.jpg
1537.404	0.689	1	repeat	Run2	repeat/STIM_005.jpg
1540.312	0.489	1	repeat	Run2	repeat/STIM_005.jpg
1544.316	0.757	0	repeat	Run2	repeat/STIM_005.jpg
1548.896	0.506	1	repeat	Run2	repeat/STIM_006.jpg
1552.48	0.717	1	repeat	Run2	repeat/STIM_006.jpg
1555.354	0.941	1	repeat	Run2	repeat/STIM_006.jpg
1559.345	0.679	1	repeat	Run2	repeat/STIM_006.jpg
1563.182	0.669	0	repeat	Run2	repeat/STIM_006.jpg
1567.831	0.951	1	repeat	Run2	repeat/STIM_007.jpg
1571.287	0.529	1	repeat	Run2	repeat/STIM_007.jpg
1574.479	0.506	1	repeat	Run2	repeat/STIM_007.jpg
1578.272	0.58	1	repeat	Run2	repeat/STIM_007.jpg
1582.79	0.987	1	repeat	Run2	repeat/STIM_007.jpg
1585.688	0.641	1	repeat	Run2	repeat/STIM_008.jpg
1590.06	0.951	1	repeat	Run2	repeat/STIM_008.jpg
1594.456	1.016	1	repeat	Run2	repeat/STIM_008.jpg
1598.84	0.779	1	repeat	Run2	repeat/STIM_008.jpg
1603.513	0.688	1	repeat	Run2	repeat/STIM_008.jpg
1606.996	0.7	1	repeat	Run2	repeat/STIM_009.jpg
1610.261	0.564	1	repeat	Run2	repeat/STIM_009.jpg
1613.94	0.918	1	repeat	Run2	repeat/STIM_009.jpg
1618.747	0.584	0	repeat	Run2	repeat/STIM_009.jpg
1622.147	0.893	1	repeat	Run2	repeat/STIM_009.jpg
1625.722	0.706	1	repeat	Run2	repeat/STIM_010.jpg
1629.904	0.825	1	repeat	Run2	repeat/STIM_010.jpg
1634.068	0.696	1	repeat	Run2	repeat/STIM_010.jpg
1637.627	0.55	1	repeat	Run2	repeat/STIM_010.jpg
1641.375	0.678	1	repeat	Run2	repeat/STIM_010.jpg
1644.801	0.851	1	repeat	Run2	repeat/STIM_011.jpg
1649.217	0.782	1	repeat	Run2	repeat/STIM_011.jpg
1652.313	0.804	0	repeat	Run2	repeat/STIM_011.jpg
1655.143	0.799	1	repeat	Run2	repeat/STIM_011.jpg
1659.082	0.581	1	repeat	Run2	repeat/STIM_011.jpg
1662.247	0.875	1	repeat	Run2	repeat/STIM_012.jpg
1666.941	0.59	1	repeat	Run2	repeat/STIM_012.jpg
1671.304	0.926	1	repeat	Run2	repeat/STIM_012.jpg
1674.48	0.745	1	repeat	Run2	repeat/STIM_012.jpg
1677.78	0.721	1	repeat	Run2	repeat/STIM_012.jpg
1680.796	0.668	0	repeat	Run2	repeat/STIM_013.jpg
1684.572	0.903	1	repeat	Run2	repeat/STIM_013.jpg
1688.876	0.57	1	repeat	Run2	repeat/STIM_013.jpg
1692.954	0.731	1	repeat	Run2	repeat/STIM_013.jpg
1696.885	0.86	1	repeat	Run2	repeat/STIM_013.jpg
1700.932	0.952	1	repeat	Run2	repeat/STIM_014.jpg
1705.595	0.584	1	repeat	Run2	repeat/STIM_014.jpg
1709.054	0.611	1	repeat	Run2	repeat/STIM_014.jpg
1713.274	0.914	1	repeat	Run2	repeat/STIM_014.jpg
1717.27	0.447	1	repeat	Run2	repeat/STIM_014.jpg
1720.274	1.787	1	generate	Run3	generate/STIM_000.jpg
1724.79	0.92	1	generate	Run3	generate/STIM_000.jpg
1729.504	1.684	1	generate	Run3	generate/STIM_000.jpg
1733.601	1.003	1	generate	Run3	generate/STIM_000.jpg
1738.102	1.142	1	generate	Run3	generate/STIM_000.jpg
1742.255	1.013	0	generate	Run3	generate/STIM_001.jpg
1747.051	1.983	0	generate	Run3	generate/STIM_001.jpg
1751.586	1.395	1	generate	Run3	generate/STIM_001.jpg
1755.658	1.29	1	generate	Run3	generate/STIM_001.jpg
1760.353	1.521	1	generate	Run3	generate/STIM_001.jpg
1763.942	1.8	1	generate	Run3	generate/STIM_002.jpg
1769.182	1.313	1	generate	Run3	generate/STIM_002.jpg
1773.868	1.607	1	generate	Run3	generate/STIM_002.jpg
1779.253	1.232	1	generate	Run3	generate/STIM_002.jpg
1784.166	1.129	1	generate	Run3	generate/STIM_002.jpg
1788.871	0.993	1	generate	Run3	generate/STIM_003.jpg
1792.363	1.659	1	generate	Run3	generate/STIM_003.jpg
1797.59	0.974	1	generate	Run3	generate/STIM_003.jpg
1801.3	0.822	1	generate	Run3	generate/STIM_003.jpg
1806.234	1.459	1	generate	Run3	generate/STIM_003.jpg
1810.817	1.739	1	generate	Run3	generate/STIM_004.jpg
1816.326	0.894	1	generate	Run3	generate/STIM_004.jpg
1819.682	1.734	1	generate	Run3	generate/STIM_004.jpg
1824.156	0.879	1	generate	Run3	generate/STIM_004.jpg
1828.158	2.064	1	generate	Run3	generate/STIM_004.jpg
1832.292	0.825	1	generate	Run3	generate/STIM_005.jpg
1836.493	1.798	1	generate	Run3	generate/STIM_005.jpg
1840.675	1.734	1	generate	Run3	generate/STIM_005.jpg
1845.745	1.61	1	generate	Run3	generate/STIM_005.jpg
1850.639	0.92	1	generate	Run3	generate/STIM_005.jpg
1854.557	0.941	1	generate	Run3	generate/STIM_006.jpg
1859.121	1.162	1	generate	Run3	generate/STIM_006.jpg
1862.978	1.549	1	generate	Run3	generate/STIM_006.jpg
1867.98	1.752	1	generate	Run3	generate/STIM_006.jpg
1872.535	0.997	1	generate	Run3	generate/STIM_006.jpg
1877.529	1.274	1	generate	Run3	generate/STIM_007.jpg
1882.238	1.941	1	generate	Run3	generate/STIM_007.jpg
1887.193	1.163	1	generate	Run3	generate/STIM_007.jpg
1890.981	1.771	1	generate	Run3	generate/STIM_007.jpg
1896.021	1.139	1	generate	Run3	generate/STIM_007.jpg
1899.616	0.887	1	generate	Run3	generate/STIM_008.jpg
1903.777	1.07	1	generate	Run3	generate/STIM_008.jpg
1907.874	1.437	0	generate	Run3	generate/STIM_008.jpg
1912.857	0.801	1	generate	Run3	generate/STIM_008.jpg
1915.743	0.858	1	generate	Run3	generate/STIM_008.jpg
1919.416	1.592	1	generate	Run3	generate/STIM_009.jpg
1924.09	1.856	1	generate	Run3	generate/STIM_009.jpg
1929.527	1.692	1	generate	Run3	generate/STIM_009.jpg
1934.106	1.943	1	generate	Run3	generate/STIM_009.jpg
1939.186	1.828	1	generate	Run3	generate/STIM_009.jpg
1943.86	1.074	1	generate	Run3	generate/STIM_010.jpg
1948.292	0.807	1	generate	Run3	generate/STIM_010.jpg
1952.831	1.313	1	generate	Run3	generate/STIM_010.jpg
1957.243	1.63	1	generate	Run3	generate/STIM_010.jpg
1962.751	1.032	1	generate	Run3	generate/STIM_010.jpg
1967.785	1.387	1	generate	Run3	generate/STIM_011.jpg
1971.503	1.819	1	generate	Run3	generate/STIM_011.jpg
1975.705	1.181	1	generate	Run3	generate/STIM_011.jpg
1980.148	1.65	1	generate	Run3	generate/STIM_011.jpg
1985.73	0.854	1	generate	Run3	generate/STIM_011.jpg
1988.747	1.141	1	generate	Run3	generate/STIM_012.jpg
1993.557	1.749	1	generate	Run3	generate/STIM_012.jpg
1998.446	1.339	1	generate	Run3	generate/STIM_012.jpg
2003.381	1.866	1	generate	Run3	generate/STIM_012.jpg
2008.734	0.947	1	generate	Run3	generate/STIM_012.jpg
2013.482	1.282	1	generate	Run3	generate/STIM_013.jpg
2018.686	0.798	1	generate	Run3	generate/STIM_013.jpg
2021.615	1.749	1	generate	Run3	generate/STIM_013.jpg
2027.171	1.899	1	generate	Run3	generate/STIM_013.jpg
2031.45	1.798	1	generate	Run3	generate/STIM_013.jpg
2035.69	1.903	1	generate	Run3	generate/STIM_014.jpg
2041.438	1.92	0	generate	Run3	generate/STIM_014.jpg
2046.613	2.005	1	generate	Run3	generate/STIM_014.jpg
2051.928	0.919	1	generate	Run3	generate/STIM_014.jpg
2056.74	1.827	0	generate	Run3	generate/STIM_014.jpg
2060.718	1.597	0	generate	Run3	generate/STIM_015.jpg
2065.99	0.835	0	generate	Run3	generate/STIM_015.jpg
2068.92	0.881	1	generate	Run3	generate/STIM_015.jpg
2072.116	0.896	1	generate	Run3	generate/STIM_015.jpg
2076.31	1.691	1	generate	Run3	generate/STIM_015.jpg
2080.119	1.82	1	generate	Run3	generate/STIM_016.jpg
2084.055	0.872	1	generate	Run3	generate/STIM_016.jpg
2088.343	1.822	0	generate	Run3	generate/STIM_016.jpg
2092.876	1.376	0	generate	Run3	generate/STIM_016.jpg
2096.945	1.517	1	generate	Run3	generate/STIM_016.jpg
2102.223	1.97	1	generate	Run3	generate/STIM_017.jpg
2107.894	1.886	1	generate	Run3	generate/STIM_017.jpg
2112.432	1.544	1	generate	Run3	generate/STIM_017.jpg
2116.906	1.468	1	generate	Run3	generate/STIM_017.jpg
2121.366	1.403	1	generate	Run3	generate/STIM_017.jpg
2126.615	1.429	1	generate	Run3	generate/STIM_018.jpg
2131.884	1.266	0	generate	Run3	generate/STIM_018.jpg
2135.24	1.276	0	generate	Run3	generate/STIM_018.jpg
2139.251	1.428	1	generate	Run3	generate/STIM_018.jpg
2143.273	1.871	1	generate	Run3	generate/STIM_018.jpg
2148.328	1.46	1	generate	Run3	generate/STIM_019.jpg
2152.858	1.844	1	generate	Run3	generate/STIM_019.jpg
2157.705	1.688	1	generate	Run3	generate/STIM_019.jpg
2162.889	0.978	1	generate	Run3	generate/STIM_019.jpg
2167.437	2.042	1	generate	Run3	generate/STIM_019.jpg
2172.828	1.482	1	generate	Run3	generate/STIM_020.jpg
2177.65	1.14	1	generate	Run3	generate/STIM_020.jpg
2181.901	1.448	0	generate	Run3	generate/STIM_020.jpg
2185.945	1.601	1	generate	Run3	generate/STIM_020.jpg
2189.994	1.613	1	generate	Run3	generate/STIM_020.jpg
2193.836	1.829	1	generate	Run3	generate/STIM_021.jpg
2198.757	0.956	1	generate	Run3	generate/STIM_021.jpg
2201.898	1.054	1	generate	Run3	generate/STIM_021.jpg
2206.165	1.321	1	generate	Run3	generate/STIM_021.jpg
2211.225	1.192	1	generate	Run3	generate/STIM_021.jpg
2215.585	1.366	1	generate	Run3	generate/STIM_022.jpg
2220.02	1.591	1	generate	Run3	generate/STIM_022.jpg
2224.941	1.836	1	generate	Run3	generate/STIM_022.jpg
2229.066	1.847	1	generate	Run3	generate/STIM_022.jpg
2233.598	1.1	1	generate	Run3	generate/STIM_022.jpg
2237.49	1.619	1	generate	Run3	generate/STIM_023.jpg
2241.757	1.131	1	generate	Run3	generate/STIM_023.jpg
2246.231	1.957	1	generate	Run3	generate/STIM_023.jpg
2250.438	0.861	0	generate	Run3	generate/STIM_023.jpg
2254.158	1.268	1	generate	Run3	generate/STIM_023.jpg
2259.344	1.565	1	generate	Run3	generate/STIM_024.jpg
2263.283	1.22	0	generate	Run3	generate/STIM_024.jpg
2266.889	1.164	1	generate	Run3	generate/STIM_024.jpg
2270.498	0.893	1	generate	Run3	generate/STIM_024.jpg
2274.087	1.013	1	generate	Run3	generate/STIM_024.jpg
2279.003	0.886	1	repeat	Run3	repeat/STIM_000.jpg
2283.779	0.704	1	repeat	Run3	repeat/STIM_000.jpg
2288.093	0.585	1	repeat	Run3	repeat/STIM_000.jpg
2291.317	0.603	1	repeat	Run3	repeat/STIM_000.jpg
2295.503	0.842	1	repeat	Run3	repeat/STIM_000.jpg
2300.421	0.794	1	repeat	Run3	repeat/STIM_001.jpg
2304.286	0.573	1	repeat	Run3	repeat/STIM_001.jpg
2306.973	0.494	1	repeat	Run3	repeat/STIM_001.jpg
2309.644	0.736	1	repeat	Run3	repeat/STIM_001.jpg
2314.171	0.506	1	repeat	Run3	repeat/STIM_001.jpg
2317.98	0.512	1	repeat	Run3	repeat/STIM_002.jpg
2320.73	0.552	1	repeat	Run3	repeat/STIM_002.jpg
2325.18	0.547	1	repeat	Run3	repeat/STIM_002.jpg
2329.475	0.727	1	repeat	Run3	repeat/STIM_002.jpg
2333.703	0.656	1	repeat	Run3	repeat/STIM_002.jpg
2336.425	0.836	1	repeat	Run3	repeat/STIM_003.jpg
2340.059	0.696	1	repeat	Run3	repeat/STIM_003.jpg
2343.782	0.533	1	repeat	Run3	repeat/STIM_003.jpg
2346.625	0.504	1	repeat	Run3	repeat/STIM_003.jpg
2349.533	0.642	1	repeat	Run3	repeat/STIM_003.jpg
2352.447	0.739	1	repeat	Run3	repeat/STIM_004.jpg
2356.581	0.607	1	repeat	Run3	repeat/STIM_004.jpg
2359.651	0.792	1	repeat	Run3	repeat/STIM_004.jpg
2362.572	0.883	1	repeat	Run3	repeat/STIM_004.jpg
2366.649	0.518	1	repeat	Run3	repeat/STIM_004.jpg
2369.23	0.82	1	repeat	Run3	repeat/STIM_005.jpg
2373.448	0.683	1	repeat	Run3	repeat/STIM_005.jpg
2376.607	0.665	1	repeat	Run3	repeat/STIM_005.jpg
2379.962	0.549	1	repeat	Run3	repeat/STIM_005.jpg
2384.557	0.889	1	repeat	Run3	repeat/STIM_005.jpg
2389.121	0.589	1	repeat	Run3	repeat/STIM_006.jpg
2392.461	0.882	1	repeat	Run3	repeat/STIM_006.jpg
2396.928	0.542	1	repeat	Run3	repeat/STIM_006.jpg
2400.446	0.738	1	repeat	Run3	repeat/STIM_006.jpg
2404.059	0.802	1	repeat	Run3	repeat/STIM_006.jpg
2408.358	0.759	0	repeat	Run3	repeat/STIM_007.jpg
2413.057	0.691	1	repeat	Run3	repeat/STIM_007.jpg
2415.992	0.805	1	repeat	Run3	repeat/STIM_007.jpg
2419.637	0.848	1	repeat	Run3	repeat/STIM_007.jpg
2423.28	0.73	1	repeat	Run3	repeat/STIM_007.jpg
2427.892	0.786	1	repeat	Run3	repeat/STIM_008.jpg
2431.099	0.855	1	repeat	Run3	repeat/STIM_008.jpg
2434.634	0.604	1	repeat	Run3	repeat/STIM_008.jpg
2438.262	0.934	1	repeat	Run3	repeat/STIM_008.jpg
2441.96	0.993	1	repeat	Run3	repeat/STIM_008.jpg
2445.902	0.807	1	repeat	Run3	repeat/STIM_009.jpg
2449.531	0.934	1	repeat	Run3	repeat/STIM_009.jpg
2452.575	0.553	1	repeat	Run3	repeat/STIM_009.jpg
2455.65	0.83	1	repeat	Run3	repeat/STIM_009.jpg
2459.544	0.425	1	repeat	Run3	repeat/STIM_009.jpg
2462.732	0.604	1	repeat	Run3	repeat/STIM_010.jpg
2465.586	0.915	1	repeat	Run3	repeat/STIM_010.jpg
2470.206	0.924	1	repeat	Run3	repeat/STIM_010.jpg
2473.402	0.956	1	repeat	Run3	repeat/STIM_010.jpg
2477.571	0.758	1	repeat	Run3	repeat/STIM_010.jpg
2481.285	0.711	1	repeat	Run3	repeat/STIM_011.jpg
2484.059	0.756	1	repeat	Run3	repeat/STIM_011.jpg
2488.175	0.894	1	repeat	Run3	repeat/STIM_011.jpg
2492.557	0.93	1	repeat	Run3	repeat/STIM_011.jpg
2497.214	0.796	1	repeat	Run3	repeat/STIM_011.jpg
2501.387	0.523	1	repeat	Run3	repeat/STIM_012.jpg
2504.315	0.698	1	repeat	Run3	repeat/STIM_012.jpg
2508.439	0.859	1	repeat	Run3	repeat/STIM_012.jpg
2512.623	0.833	1	repeat	Run3	repeat/STIM_012.jpg
2516.818	0.94	1	repeat	Run3	repeat/STIM_012.jpg
2519.851	0.73	1	repeat	Run3	repeat/STIM_013.jpg
2522.924	0.773	1	repeat	Run3	repeat/STIM_013.jpg
2526.646	0.846	1	repeat	Run3	repeat/STIM_013.jpg
2529.855	0.854	1	repeat	Run3	repeat/STIM_013.jpg
2533.337	0.557	1	repeat	Run3	repeat/STIM_013.jpg
2536.692	0.764	1	repeat	Run3	repeat/STIM_014.jpg
2541.117	0.5	1	repeat	Run3	repeat/STIM_014.jpg
2545.669	0.902	1	repeat	Run3	repeat/STIM_014.jpg
2549.023	0.633	1	repeat	Run3	repeat/STIM_014.jpg
2553.34	0.509	1	repeat	Run3	repeat/STIM_014.jpg
2557.395	1.821	1	generate	Run4	generate/STIM_000.jpg
2562.367	1.812	1	generate	Run4	generate/STIM_000.jpg
2567.167	1.607	1	generate	Run4	generate/STIM_000.jpg
2571.689	1.56	1	generate	Run4	generate/STIM_000.jpg
2576.518	1.518	1	generate	Run4	generate/STIM_000.jpg
2582.056	1.49	1	generate	Run4	generate/STIM_001.jpg
2585.783	0.89	1	generate	Run4	generate/STIM_001.jpg
2589.391	1.867	1	generate	Run4	generate/STIM_001.jpg
2593.81	1.04	1	generate	Run4	generate/STIM_001.jpg
2597.111	0.898	1	generate	Run4	generate/STIM_001.jpg
2600.164	1.286	1	generate	Run4	generate/STIM_002.jpg
2604.709	1.909	1	generate	Run4	generate/STIM_002.jpg
2610.685	1.13	1	generate	Run4	generate/STIM_002.jpg
2614.382	1.737	1	generate	Run4	generate/STIM_002.jpg
2619.942	1.069	1	generate	Run4	generate/STIM_002.jpg
2624.498	1.231	1	generate	Run4	generate/STIM_003.jpg
2629.468	1.126	1	generate	Run4	generate/STIM_003.jpg
2633.067	0.888	1	generate	Run4	generate/STIM_003.jpg
2637.307	1.75	1	generate	Run4	generate/STIM_003.jpg
2642.111	1.113	1	generate	Run4	generate/STIM_003.jpg
2645.195	1.978	1	generate	Run4	generate/STIM_004.jpg
2649.351	1.165	1	generate	Run4	generate/STIM_004.jpg
2653.776	1.333	1	generate	Run4	generate/STIM_004.jpg
2657.949	1.798	1	generate	Run4	generate/STIM_004.jpg
2663.219	1.941	1	generate	Run4	generate/STIM_004.jpg
2667.895	1.269	1	generate	Run4	generate/STIM_005.jpg
2673.098	1.545	1	generate	Run4	generate/STIM_005.jpg
2677.169	1.385	1	generate	Run4	generate/STIM_005.jpg
2681.25	0.846	1	generate	Run4	generate/STIM_005.jpg
2685.968	0.897	1	generate	Run4	generate/STIM_005.jpg
2690.646	1.66	1	generate	Run4	generate/STIM_006.jpg
2694.581	0.976	1	generate	Run4	generate/STIM_006.jpg
2699.304	1.974	1	generate	Run4	generate/STIM_006.jpg
2704.854	0.885	1	generate	Run4	generate/STIM_006.jpg
2707.977	1.227	1	generate	Run4	generate/STIM_006.jpg
2711.694	0.822	1	generate	Run4	generate/STIM_007.jpg
2716.24	1.622	0	generate	Run4	generate/STIM_007.jpg
2721.497	1.001	1	generate	Run4	generate/STIM_007.jpg
2724.576	1.902	1	generate	Run4	generate/STIM_007.jpg
2729.031	1.297	1	generate	Run4	generate/STIM_007.jpg
2733.33	2.01	1	generate	Run4	generate/STIM_008.jpg
2738.17	1.079	1	generate	Run4	generate/STIM_008.jpg
2743.191	1.627	1	generate	Run4	generate/STIM_008.jpg
2747.453	1.218	1	generate	Run4	generate/STIM_008.jpg
2751.298	1.122	1	generate	Run4	generate/STIM_008.jpg
2756.109	1.594	1	generate	Run4	generate/STIM_009.jpg
2760.46	1.568	1	generate	Run4	generate/STIM_009.jpg
2765.922	2.034	1	generate	Run4	generate/STIM_009.jpg
2770.678	1.252	1	generate	Run4	generate/STIM_009.jpg
2775.411	1.367	1	generate	Run4	generate/STIM_009.jpg
2778.997	1.443	0	generate	Run4	generate/STIM_010.jpg
2784.446	1.865	1	generate	Run4	generate/STIM_010.jpg
2790.198	1.464	1	generate	Run4	generate/STIM_010.jpg
2795.697	1.276	1	generate	Run4	generate/STIM_010.jpg
2799.546	1.635	1	generate	Run4	generate/STIM_010.jpg
2804.442	1.596	1	generate	Run4	generate/STIM_011.jpg
2808.29	1.343	1	generate	Run4	generate/STIM_011.jpg
2812.734	1.377	1	generate	Run4	generate/STIM_011.jpg
2817.852	1.534	1	generate	Run4	generate/STIM_011.jpg
2823.167	1.718	1	generate	Run4	generate/STIM_011.jpg
2827.347	1.689	0	generate	Run4	generate/STIM_012.jpg
2832.026	1.819	1	generate	Run4	generate/STIM_012.jpg
2837.144	1.47	1	generate	Run4	generate/STIM_012.jpg
2842.134	1.028	1	generate	Run4	generate/STIM_012.jpg
2845.807	2.03	1	generate	Run4	generate/STIM_012.jpg
2850.664	1.56	1	generate	Run4	generate/STIM_013.jpg
2855.072	1.819	1	generate	Run4	generate/STIM_013.jpg
2858.95	1.797	1	generate	Run4	generate/STIM_013.jpg
2862.996	1.506	1	generate	Run4	generate/STIM_013.jpg
2866.979	1.089	1	generate	Run4	generate/STIM_013.jpg
2871.203	1.043	1	generate	Run4	generate/STIM_014.jpg
2874.859	1.057	1	generate	Run4	generate/STIM_014.jpg
2878.944	1.203	1	generate	Run4	generate/STIM_014.jpg
2882.297	1.05	1	generate	Run4	generate/STIM_014.jpg
2885.963	1.089	1	generate	Run4	generate/STIM_014.jpg
2889.439	1.927	1	generate	Run4	generate/STIM_015.jpg
2895.443	1.205	1	generate	Run4	generate/STIM_015.jpg
2900.007	1.026	1	generate	Run4	generate/STIM_015.jpg
2904.694	1.905	0	generate	Run4	generate/STIM_015.jpg
2910.611	1.473	1	generate	Run4	generate/STIM_015.jpg
2916.041	1.651	1	generate	Run4	generate/STIM_016.jpg
2920.563	1.65	1	generate	Run4	generate/STIM_016.jpg
2924.751	1.271	1	generate	Run4	generate/STIM_016.jpg
2929.792	1.493	1	generate	Run4	generate/STIM_016.jpg
2934.552	1.979	1	generate	Run4	generate/STIM_016.jpg
2940.572	1.4	1	generate	Run4	generate/STIM_017.jpg
2944.125	1.206	1	generate	Run4	generate/STIM_017.jpg
2947.415	1.403	1	generate	Run4	generate/STIM_017.jpg
2952.805	1.166	1	generate	Run4	generate/STIM_017.jpg
2957.261	1.788	1	generate	Run4	generate/STIM_017.jpg
2961.686	0.868	1	generate	Run4	generate/STIM_018.jpg
2964.78	1.909	1	generate	Run4	generate/STIM_018.jpg
2969.483	1.952	1	generate	Run4	generate/STIM_018.jpg
2974.25	1.029	1	generate	Run4	generate/STIM_018.jpg
2978.952	1.63	1	generate	Run4	generate/STIM_018.jpg
2984.039	1.274	1	generate	Run4	generate/STIM_019.jpg
2988.477	1.206	1	generate	Run4	generate/STIM_019.jpg
2992.475	0.854	0	generate	Run4	generate/STIM_019.jpg
2996.965	1.503	1	generate	Run4	generate/STIM_019.jpg
3001.649	1.648	1	generate	Run4	generate/STIM_019.jpg
3006.172	1.36	1	generate	Run4	generate/STIM_020.jpg
3009.59	1.488	1	generate	Run4	generate/STIM_020.jpg
3014.571	1.704	1	generate	Run4	generate/STIM_020.jpg
3018.73	1.201	1	generate	Run4	generate/STIM_020.jpg
3022.547	1.601	1	generate	Run4	generate/STIM_020.jpg
3028.067	1.933	1	generate	Run4	generate/STIM_021.jpg
3033.908	1.559	1	generate	Run4	generate/STIM_021.jpg
3038.484	1.807	1	generate	Run4	generate/STIM_021.jpg
3043.269	1.286	1	generate	Run4	generate/STIM_021.jpg
3048.135	1.415	1	generate	Run4	generate/STIM_021.jpg
3052.112	1.956	1	generate	Run4	generate/STIM_022.jpg
3058.069	1.52	1	generate	Run4	generate/STIM_022.jpg
3063.323	1.672	1	generate	Run4	generate/STIM_022.jpg
3067.175	1.949	1	generate	Run4	generate/STIM_022.jpg
3072.13	1.762	1	generate	Run4	generate/STIM_022.jpg
3076.122	1.347	1	generate	Run4	generate/STIM_023.jpg
3080.521	0.832	1	generate	Run4	generate/STIM_023.jpg
3084.73	1.25	1	generate	Run4	generate/STIM_023.jpg
3090.073	1.504	1	generate	Run4	generate/STIM_023.jpg
3094.077	1.726	1	generate	Run4	generate/STIM_023.jpg
3099.758	0.822	1	generate	Run4	generate/STIM_024.jpg
3103.929	1.787	1	generate	Run4	generate/STIM_024.jpg
3108.024	1.835	1	generate	Run4	generate/STIM_024.jpg
3113.671	1.518	1	generate	Run4	generate/STIM_024.jpg
3117.802	1.987	1	generate	Run4	generate/STIM_024.jpg
3123.402	0.92	1	repeat	Run4	repeat/STIM_000.jpg
3126.641	0.821	1	repeat	Run4	repeat/STIM_000.jpg
3131.385	0.546	1	repeat	Run4	repeat/STIM_000.jpg
3135.216	0.815	1	repeat	Run4	repeat/STIM_000.jpg
3139.946	0.615	1	repeat	Run4	repeat/STIM_000.jpg
3144.109	0.417	1	repeat	Run4	repeat/STIM_001.jpg
3147.624	0.546	1	repeat	Run4	repeat/STIM_001.jpg
3152.115	0.742	1	repeat	Run4	repeat/STIM_001.jpg
3155.747	0.677	0	repeat	Run4	repeat/STIM_001.jpg
3158.616	0.707	1	repeat	Run4	repeat/STIM_001.jpg
3163.393	0.537	1	repeat	Run4	repeat/STIM_002.jpg
3167.597	0.601	1	repeat	Run4	repeat/STIM_002.jpg
3170.676	0.896	1	repeat	Run4	repeat/STIM_002.jpg
3174.067	0.788	1	repeat	Run4	repeat/STIM_002.jpg
3178.745	0.66	1	repeat	Run4	repeat/STIM_002.jpg
3182.747	0.754	1	repeat	Run4	repeat/STIM_003.jpg
3185.91	0.497	1	repeat	Run4	repeat/STIM_003.jpg
3188.832	0.547	1	repeat	Run4	repeat/STIM_003.jpg
3191.941	0.862	1	repeat	Run4	repeat/STIM_003.jpg
3196.228	0.67	1	repeat	Run4	repeat/STIM_003.jpg
3200.332	0.803	1	repeat	Run4	repeat/STIM_004.jpg
3203.519	0.658	1	repeat	Run4	repeat/STIM_004.jpg
3206.763	0.776	1	repeat	Run4	repeat/STIM_004.jpg
3209.937	0.64	1	repeat	Run4	repeat/STIM_004.jpg
3214.233	0.658	1	repeat	Run4	repeat/STIM_004.jpg
3216.969	0.591	1	repeat	Run4	repeat/STIM_005.jpg
3220.76	0.739	1	repeat	Run4	repeat/STIM_005.jpg
3224.588	0.734	1	repeat	Run4	repeat/STIM_005.jpg
3227.568	0.843	1	repeat	Run4	repeat/STIM_005.jpg
3231.167	0.946	1	repeat	Run4	repeat/STIM_005.jpg
3235.995	0.653	1	repeat	Run4	repeat/STIM_006.jpg
3238.872	0.806	1	repeat	Run4	repeat/STIM_006.jpg
3242.862	0.849	1	repeat	Run4	repeat/STIM_006.jpg
3246.964	0.936	1	repeat	Run4	repeat/STIM_006.jpg
3250.496	0.629	1	repeat	Run4	repeat/STIM_006.jpg
3253.932	0.95	1	repeat	Run4	repeat/STIM_007.jpg
3257.636	0.662	1	repeat	Run4	repeat/STIM_007.jpg
3262.062	0.742	1	repeat	Run4	repeat/STIM_007.jpg
3265.805	0.605	1	repeat	Run4	repeat/STIM_007.jpg
3269.456	0.889	1	repeat	Run4	repeat/STIM_007.jpg
3272.553	0.861	1	repeat	Run4	repeat/STIM_008.jpg
3275.534	0.704	1	repeat	Run4	repeat/STIM_008.jpg
3278.735	0.994	1	repeat	Run4	repeat/STIM_008.jpg
3282.366	0.79	1	repeat	Run4	repeat/STIM_008.jpg
3285.606	0.668	1	repeat	Run4	repeat/STIM_008.jpg
3289.028	0.506	1	repeat	Run4	repeat/STIM_009.jpg
3293.49	0.625	0	repeat	Run4	repeat/STIM_009.jpg
3297.783	0.577	1	repeat	Run4	repeat/STIM_009.jpg
3301.322	0.894	1	repeat	Run4	repeat/STIM_009.jpg
3305.028	0.555	1	repeat	Run4	repeat/STIM_009.jpg
3307.688	0.515	1	repeat	Run4	repeat/STIM_010.jpg
3310.592	0.494	1	repeat	Run4	repeat/STIM_010.jpg
3314.457	0.952	1	repeat	Run4	repeat/STIM_010.jpg
3319.229	0.711	1	repeat	Run4	repeat/STIM_010.jpg
3323.747	0.665	1	repeat	Run4	repeat/STIM_010.jpg
3327.508	0.649	1	repeat	Run4	repeat/STIM_011.jpg
3330.298	0.667	1	repeat	Run4	repeat/STIM_011.jpg
3334.196	0.594	1	repeat	Run4	repeat/STIM_011.jpg
3338.159	0.468	1	repeat	Run4	repeat/STIM_011.jpg
3342.574	0.609	1	repeat	Run4	repeat/STIM_011.jpg
3345.785	0.67	1	repeat	Run4	repeat/STIM_012.jpg
3349.314	0.649	1	repeat	Run4	repeat/STIM_012.jpg
3353.279	0.873	1	repeat	Run4	repeat/STIM_012.jpg
3356.443	0.966	1	repeat	Run4	repeat/STIM_012.jpg
3360.224	0.856	1	repeat	Run4	repeat/STIM_012.jpg
3364.524	0.795	1	repeat	Run4	repeat/STIM_013.jpg
3368.949	0.754	1	repeat	Run4	repeat/STIM_013.jpg
3372.486	0.619	1	repeat	Run4	repeat/STIM_013.jpg
3376.29	0.694	1	repeat	Run4	repeat/STIM_013.jpg
3380.069	0.842	1	repeat	Run4	repeat/STIM_013.jpg
3384.503	0.862	1	repeat	Run4	repeat/STIM_014.jpg
3388.905	0.634	1	repeat	Run4	repeat/STIM_014.jpg
3392.269	0.881	1	repeat	Run4	repeat/STIM_014.jpg
3397.152	0.89	0	repeat	Run4	repeat/STIM_014.jpg
3400.4	0.866	1	repeat	Run4	repeat/STIM_014.jpg
