onset	duration	response_time_ms	trial_type	learning_stage	stimulus	response_port
0.0	2.049	2049.0	generate	Run1	generate/STIM_000.jpg	100
4.303	2.525	2525.1	generate	Run1	generate/STIM_000.jpg	99
10.56	2.456	2455.5	generate	Run1	generate/STIM_000.jpg	99
15.737	1.546	1546.1	generate	Run1	generate/STIM_000.jpg	99
20.086	1.3	1300.5	generate	Run1	generate/STIM_000.jpg	99
23.59	1.695	1694.8	generate	Run1	generate/STIM_001.jpg	100
27.993	1.157	1157.1	generate	Run1	generate/STIM_001.jpg	99
32.843	1.103	1103.4	generate	Run1	generate/STIM_001.jpg	99
37.285	1.365	1364.8	generate	Run1	generate/STIM_001.jpg	100
41.173	1.416	1416.3	generate	Run1	generate/STIM_001.jpg	100
45.072	1.771	1770.7	generate	Run1	generate/STIM_002.jpg	99
49.153	2.181	2180.7	generate	Run1	generate/STIM_002.jpg	100
54.936	2.452	2452.5	generate	Run1	generate/STIM_002.jpg	99
61.43	1.882	1881.7	generate	Run1	generate/STIM_002.jpg	100
65.584	1.99	1989.9	generate	Run1	generate/STIM_002.jpg	100
70.577	2.578	2577.8	generate	Run1	generate/STIM_003.jpg	100
75.553	2.092	2092.2	generate	Run1	generate/STIM_003.jpg	99
81.478	1.683	1682.7	generate	Run1	generate/STIM_003.jpg	100
86.943	1.009	1008.7	generate	Run1	generate/STIM_003.jpg	100
91.89	1.639	1639.3	generate	Run1	generate/STIM_003.jpg	99
97.343	1.926	1926.1	generate	Run1	generate/STIM_004.jpg	99
101.732	1.17	1169.6	generate	Run1	generate/STIM_004.jpg	99
105.94	1.345	1344.9	generate	Run1	generate/STIM_004.jpg	100
109.966	1.566	1565.5	generate	Run1	generate/STIM_004.jpg	100
113.674	1.728	1727.9	generate	Run1	generate/STIM_004.jpg	99
118.054	1.228	1228.2	generate	Run1	generate/STIM_005.jpg	100
122.29	2.494	2494.2	generate	Run1	generate/STIM_005.jpg	100
127.617	1.51	1510.2	generate	Run1	generate/STIM_005.jpg	100
131.834	2.115	2115.1	generate	Run1	generate/STIM_005.jpg	99
136.599	1.436	1435.5	generate	Run1	generate/STIM_005.jpg	99
141.192	1.243	1243.0	generate	Run1	generate/STIM_006.jpg	99
144.535	1.873	1873.3	generate	Run1	generate/STIM_006.jpg	100
150.201	1.716	1716.2	generate	Run1	generate/STIM_006.jpg	99
154.002	1.922	1922.0	generate	Run1	generate/STIM_006.jpg	99
158.378	1.445	1444.7	generate	Run1	generate/STIM_006.jpg	99
162.352	1.733	1732.8	generate	Run1	generate/STIM_007.jpg	99
167.645	2.335	2335.2	generate	Run1	generate/STIM_007.jpg	99
174.09	2.323	2323.4	generate	Run1	generate/STIM_007.jpg	100
178.839	0.951	951.3	generate	Run1	generate/STIM_007.jpg	100
182.063	1.049	1048.6	generate	Run1	generate/STIM_007.jpg	100
185.884	1.479	1479.4	generate	Run1	generate/STIM_008.jpg	99
189.587	1.176	1176.3	generate	Run1	generate/STIM_008.jpg	99
193.445	2.472	2471.5	generate	Run1	generate/STIM_008.jpg	99
198.834	1.614	1613.8	generate	Run1	generate/STIM_008.jpg	100
203.014	0.905	904.8	generate	Run1	generate/STIM_008.jpg	100
206.745	2.012	2012.3	generate	Run1	generate/STIM_009.jpg	99
212.39	1.214	1214.1	generate	Run1	generate/STIM_009.jpg	100
216.724	1.892	1891.5	generate	Run1	generate/STIM_009.jpg	100
222.164	1.604	1604.2	generate	Run1	generate/STIM_009.jpg	99
227.107	1.348	1348.1	generate	Run1	generate/STIM_009.jpg	99
231.624	2.224	2224.3	generate	Run1	generate/STIM_010.jpg	100
237.217	1.558	1557.5	generate	Run1	generate/STIM_010.jpg	99
241.421	1.525	1524.6	generate	Run1	generate/STIM_010.jpg	99
246.279	2.212	2212.1	generate	Run1	generate/STIM_010.jpg	99
251.981	1.545	1544.9	generate	Run1	generate/STIM_010.jpg	99
256.356	1.285	1284.7	generate	Run1	generate/STIM_011.jpg	100
260.403	1.336	1335.8	generate	Run1	generate/STIM_011.jpg	99
264.829	1.773	1773.4	generate	Run1	generate/STIM_011.jpg	99
269.689	1.11	1109.6	generate	Run1	generate/STIM_011.jpg	100
273.899	2.105	2105.3	generate	Run1	generate/STIM_011.jpg	99
279.104	2.459	2459.1	generate	Run1	generate/STIM_012.jpg	99
285.031	2.155	2155.0	generate	Run1	generate/STIM_012.jpg	100
289.248	2.263	2263.0	generate	Run1	generate/STIM_012.jpg	100
294.657	2.042	2041.8	generate	Run1	generate/STIM_012.jpg	100
299.245	1.13	1130.1	generate	Run1	generate/STIM_012.jpg	99
303.581	2.282	2281.8	generate	Run1	generate/STIM_013.jpg	100
309.21	1.132	1132.1	generate	Run1	generate/STIM_013.jpg	99
312.724	2.258	2258.3	generate	Run1	generate/STIM_013.jpg	99
318.55	1.495	1495.4	generate	Run1	generate/STIM_013.jpg	99
322.352	1.006	1006.5	generate	Run1	generate/STIM_013.jpg	100
325.387	1.724	1723.8	generate	Run1	generate/STIM_014.jpg	99
330.332	1.841	1841.4	generate	Run1	generate/STIM_014.jpg	100
335.95	1.39	1390.5	generate	Run1	generate/STIM_014.jpg	99
341.01	1.095	1095.0	generate	Run1	generate/STIM_014.jpg	100
344.919	1.408	1407.9	generate	Run1	generate/STIM_014.jpg	99
348.872	1.166	1165.6	generate	Run1	generate/STIM_015.jpg	100
352.98	2.002	2001.5	generate	Run1	generate/STIM_015.jpg	99
358.513	2.574	2573.8	generate	Run1	generate/STIM_015.jpg	99
363.576	2.017	2016.9	generate	Run1	generate/STIM_015.jpg	100
368.521	2.228	2227.5	generate	Run1	generate/STIM_015.jpg	100
373.11	2.344	2344.0	generate	Run1	generate/STIM_016.jpg	99
379.375	2.159	2159.4	generate	Run1	generate/STIM_016.jpg	99
383.566	1.213	1213.3	generate	Run1	generate/STIM_016.jpg	99
387.819	2.266	2265.7	generate	Run1	generate/STIM_016.jpg	100
393.117	1.824	1823.7	generate	Run1	generate/STIM_016.jpg	100
398.612	1.316	1316.4	generate	Run1	generate/STIM_017.jpg	99
403.518	2.649	2648.6	generate	Run1	generate/STIM_017.jpg	99
408.513	2.489	2488.9	generate	Run1	generate/STIM_017.jpg	99
414.372	2.125	2124.6	generate	Run1	generate/STIM_017.jpg	99
418.537	2.148	2148.1	generate	Run1	generate/STIM_017.jpg	100
424.606	1.668	1667.5	generate	Run1	generate/STIM_018.jpg	100
429.483	1.421	1421.4	generate	Run1	generate/STIM_018.jpg	100
433.792	1.515	1515.4	generate	Run1	generate/STIM_018.jpg	100
438.707	1.279	1278.6	generate	Run1	generate/STIM_018.jpg	100
442.232	1.137	1136.7	generate	Run1	generate/STIM_018.jpg	99
447.101	2.744	2744.1	generate	Run1	generate/STIM_019.jpg	99
453.177	1.848	1848.3	generate	Run1	generate/STIM_019.jpg	100
458.982	1.811	1811.0	generate	Run1	generate/STIM_019.jpg	100
463.066	1.776	1776.5	generate	Run1	generate/STIM_019.jpg	100
468.902	1.557	1557.0	generate	Run1	generate/STIM_019.jpg	99
474.302	2.104	2103.9	generate	Run1	generate/STIM_020.jpg	100
479.938	2.227	2227.3	generate	Run1	generate/STIM_020.jpg	100
485.878	1.519	1518.7	generate	Run1	generate/STIM_020.jpg	99
491.208	2.215	2215.0	generate	Run1	generate/STIM_020.jpg	99
496.872	1.412	1412.0	generate	Run1	generate/STIM_020.jpg	100
501.038	1.473	1473.2	generate	Run1	generate/STIM_021.jpg	100
506.183	2.076	2076.1	generate	Run1	generate/STIM_021.jpg	100
510.731	2.042	2042.0	generate	Run1	generate/STIM_021.jpg	99
515.643	1.954	1953.8	generate	Run1	generate/STIM_021.jpg	99
519.986	1.338	1338.4	generate	Run1	generate/STIM_021.jpg	100
524.76	2.066	2065.7	generate	Run1	generate/STIM_022.jpg	99
529.519	1.946	1946.5	generate	Run1	generate/STIM_022.jpg	100
533.639	1.514	1514.3	generate	Run1	generate/STIM_022.jpg	100
537.6	1.859	1858.7	generate	Run1	generate/STIM_022.jpg	100
543.257	2.19	2189.6	generate	Run1	generate/STIM_022.jpg	99
547.663	1.161	1160.7	generate	Run1	generate/STIM_023.jpg	99
551.866	2.495	2494.6	generate	Run1	generate/STIM_023.jpg	99
557.346	1.543	1543.1	generate	Run1	generate/STIM_023.jpg	99
562.81	2.121	2121.4	generate	Run1	generate/STIM_023.jpg	100
567.114	2.24	2239.6	generate	Run1	generate/STIM_023.jpg	100
571.664	2.758	2758.5	generate	Run1	generate/STIM_024.jpg	100
577.979	1.813	1813.3	generate	Run1	generate/STIM_024.jpg	99
582.561	1.742	1742.4	generate	Run1	generate/STIM_024.jpg	99
586.702	1.813	1812.7	generate	Run1	generate/STIM_024.jpg	99
591.041	1.642	1641.7	generate	Run1	generate/STIM_024.jpg	100
596.138	0.809	809.4	repeat	Run1	repeat/STIM_000.jpg	100
600.828	0.518	518.4	repeat	Run1	repeat/STIM_000.jpg	99
605.255	0.511	510.8	repeat	Run1	repeat/STIM_000.jpg	100
609.402	0.73	730.4	repeat	Run1	repeat/STIM_000.jpg	100
612.201	0.945	945.1	repeat	Run1	repeat/STIM_000.jpg	100
616.605	0.739	738.6	repeat	Run1	repeat/STIM_001.jpg	100
619.843	0.751	750.9	repeat	Run1	repeat/STIM_001.jpg	100
622.964	0.625	625.3	repeat	Run1	repeat/STIM_001.jpg	100
627.427	0.797	797.0	repeat	Run1	repeat/STIM_001.jpg	99
631.43	0.887	886.7	repeat	Run1	repeat/STIM_001.jpg	100
635.14	0.644	644.3	repeat	Run1	repeat/STIM_002.jpg	100
639.03	0.835	834.7	repeat	Run1	repeat/STIM_002.jpg	100
642.423	0.904	904.2	repeat	Run1	repeat/STIM_002.jpg	100
646.723	0.721	720.8	repeat	Run1	repeat/STIM_002.jpg	100
650.596	0.801	801.4	repeat	Run1	repeat/STIM_002.jpg	100
654.783	0.508	508.3	repeat	Run1	repeat/STIM_003.jpg	99
659.029	0.797	796.8	repeat	Run1	repeat/STIM_003.jpg	99
662.595	1.004	1004.3	repeat	Run1	repeat/STIM_003.jpg	100
666.026	0.659	659.3	repeat	Run1	repeat/STIM_003.jpg	99
669.579	0.552	552.3	repeat	Run1	repeat/STIM_003.jpg	99
672.195	0.589	589.0	repeat	Run1	repeat/STIM_004.jpg	100
675.501	0.456	455.7	repeat	Run1	repeat/STIM_004.jpg	100
678.715	0.704	704.1	repeat	Run1	repeat/STIM_004.jpg	99
683.1	0.615	614.6	repeat	Run1	repeat/STIM_004.jpg	99
687.496	0.78	779.7	repeat	Run1	repeat/STIM_004.jpg	99
690.471	0.719	719.1	repeat	Run1	repeat/STIM_005.jpg	100
693.193	0.946	946.5	repeat	Run1	repeat/STIM_005.jpg	99
696.459	0.424	423.9	repeat	Run1	repeat/STIM_005.jpg	99
700.078	0.537	537.1	repeat	Run1	repeat/STIM_005.jpg	100
703.279	0.778	778.3	repeat	Run1	repeat/STIM_005.jpg	100
706.67	0.737	736.8	repeat	Run1	repeat/STIM_006.jpg	100
710.186	0.9	900.2	repeat	Run1	repeat/STIM_006.jpg	100
714.278	0.676	675.7	repeat	Run1	repeat/STIM_006.jpg	99
718.588	0.505	504.9	repeat	Run1	repeat/STIM_006.jpg	99
722.83	0.731	730.8	repeat	Run1	repeat/STIM_006.jpg	100
727.242	0.727	726.9	repeat	Run1	repeat/STIM_007.jpg	100
730.377	0.679	678.6	repeat	Run1	repeat/STIM_007.jpg	99
733.138	0.638	638.3	repeat	Run1	repeat/STIM_007.jpg	99
737.264	0.916	915.8	repeat	Run1	repeat/STIM_007.jpg	99
741.65	0.81	810.5	repeat	Run1	repeat/STIM_007.jpg	100
745.163	0.768	767.9	repeat	Run1	repeat/STIM_008.jpg	99
749.06	0.499	499.0	repeat	Run1	repeat/STIM_008.jpg	100
752.67	0.634	634.5	repeat	Run1	repeat/STIM_008.jpg	99
757.218	0.911	910.6	repeat	Run1	repeat/STIM_008.jpg	99
761.104	0.516	515.6	repeat	Run1	repeat/STIM_008.jpg	100
763.905	0.711	710.7	repeat	Run1	repeat/STIM_009.jpg	99
767.884	0.881	881.0	repeat	Run1	repeat/STIM_009.jpg	100
771.657	0.625	624.7	repeat	Run1	repeat/STIM_009.jpg	99
775.143	0.959	958.9	repeat	Run1	repeat/STIM_009.jpg	99
779.961	0.542	542.0	repeat	Run1	repeat/STIM_009.jpg	99
783.081	0.914	913.5	repeat	Run1	repeat/STIM_010.jpg	99
786.237	0.864	864.1	repeat	Run1	repeat/STIM_010.jpg	99
789.876	0.576	576.5	repeat	Run1	repeat/STIM_010.jpg	100
793.765	0.88	880.0	repeat	Run1	repeat/STIM_010.jpg	99
796.853	0.876	876.1	repeat	Run1	repeat/STIM_010.jpg	99
799.856	0.551	550.8	repeat	Run1	repeat/STIM_011.jpg	99
804.092	0.671	671.3	repeat	Run1	repeat/STIM_011.jpg	100
808.281	0.648	647.5	repeat	Run1	repeat/STIM_011.jpg	100
810.978	0.97	970.4	repeat	Run1	repeat/STIM_011.jpg	99
814.607	0.598	597.9	repeat	Run1	repeat/STIM_011.jpg	100
818.424	0.776	775.5	repeat	Run1	repeat/STIM_012.jpg	99
822.57	0.859	859.1	repeat	Run1	repeat/STIM_012.jpg	99
825.744	0.536	536.0	repeat	Run1	repeat/STIM_012.jpg	100
829.354	0.975	975.4	repeat	Run1	repeat/STIM_012.jpg	100
833.033	0.731	731.0	repeat	Run1	repeat/STIM_012.jpg	100
835.82	0.76	759.7	repeat	Run1	repeat/STIM_013.jpg	100
839.571	0.557	556.9	repeat	Run1	repeat/STIM_013.jpg	99
842.955	0.745	744.9	repeat	Run1	repeat/STIM_013.jpg	99
847.052	0.562	561.8	repeat	Run1	repeat/STIM_013.jpg	100
850.907	0.646	645.5	repeat	Run1	repeat/STIM_013.jpg	99
854.681	0.467	466.8	repeat	Run1	repeat/STIM_014.jpg	99
858.774	0.555	555.0	repeat	Run1	repeat/STIM_014.jpg	100
861.818	0.878	877.8	repeat	Run1	repeat/STIM_014.jpg	99
865.33	0.96	959.6	repeat	Run1	repeat/STIM_014.jpg	99
870.093	0.952	951.5	repeat	Run1	repeat/STIM_014.jpg	100
874.711	2.225	2224.8	generate	Run2	generate/STIM_000.jpg	100
879.54	1.329	1329.2	generate	Run2	generate/STIM_000.jpg	99
884.202	1.226	1226.1	generate	Run2	generate/STIM_000.jpg	99
888.175	2.098	2098.3	generate	Run2	generate/STIM_000.jpg	100
894.109	1.728	1728.0	generate	Run2	generate/STIM_000.jpg	99
898.273	1.2	1200.0	generate	Run2	generate/STIM_001.jpg	99
901.922	1.072	1071.8	generate	Run2	generate/STIM_001.jpg	100
906.923	1.159	1158.7	generate	Run2	generate/STIM_001.jpg	100
910.847	0.876	876.5	generate	Run2	generate/STIM_001.jpg	99
915.643	1.771	1770.6	generate	Run2	generate/STIM_001.jpg	99
921.278	1.696	1696.4	generate	Run2	generate/STIM_002.jpg	99
926.835	1.743	1743.4	generate	Run2	generate/STIM_002.jpg	99
931.621	1.538	1538.0	generate	Run2	generate/STIM_002.jpg	99
936.867	1.488	1487.6	generate	Run2	generate/STIM_002.jpg	99
941.078	0.982	982.5	generate	Run2	generate/STIM_002.jpg	100
945.393	1.7	1699.9	generate	Run2	generate/STIM_003.jpg	100
949.576	1.97	1969.6	generate	Run2	generate/STIM_003.jpg	100
954.729	0.983	983.4	generate	Run2	generate/STIM_003.jpg	99
957.818	1.388	1388.0	generate	Run2	generate/STIM_003.jpg	99
961.619	1.039	1039.1	generate	Run2	generate/STIM_003.jpg	99
966.179	1.039	1039.0	generate	Run2	generate/STIM_004.jpg	99
969.405	1.494	1494.2	generate	Run2	generate/STIM_004.jpg	100
973.895	0.912	911.8	generate	Run2	generate/STIM_004.jpg	99
978.481	1.989	1988.7	generate	Run2	generate/STIM_004.jpg	99
983.872	0.86	860.0	generate	Run2	generate/STIM_004.jpg	100
987.434	1.848	1848.3	generate	Run2	generate/STIM_005.jpg	99
991.783	1.809	1809.3	generate	Run2	generate/STIM_005.jpg	99
997.294	1.873	1873.4	generate	Run2	generate/STIM_005.jpg	99
1002.972	0.971	971.0	generate	Run2	generate/STIM_005.jpg	99
1006.527	1.35	1350.2	generate	Run2	generate/STIM_005.jpg	99
1011.714	1.018	1018.4	generate	Run2	generate/STIM_006.jpg	100
1016.434	1.704	1704.0	generate	Run2	generate/STIM_006.jpg	100
1021.533	1.726	1725.7	generate	Run2	generate/STIM_006.jpg	99
1025.737	1.174	1174.2	generate	Run2	generate/STIM_006.jpg	100
1029.672	1.311	1310.7	generate	Run2	generate/STIM_006.jpg	100
1034.038	1.174	1173.6	generate	Run2	generate/STIM_007.jpg	99
1037.541	1.65	1650.3	generate	Run2	generate/STIM_007.jpg	100
1042.426	1.788	1788.3	generate	Run2	generate/STIM_007.jpg	100
1046.415	1.002	1002.3	generate	Run2	generate/STIM_007.jpg	99
1049.633	0.918	917.7	generate	Run2	generate/STIM_007.jpg	99
1052.601	2.03	2030.3	generate	Run2	generate/STIM_008.jpg	99
1057.152	0.898	898.1	generate	Run2	generate/STIM_008.jpg	100
1062.09	1.615	1614.6	generate	Run2	generate/STIM_008.jpg	99
1066.21	1.002	1002.4	generate	Run2	generate/STIM_008.jpg	100
1069.913	1.869	1869.3	generate	Run2	generate/STIM_008.jpg	100
1073.916	1.1	1099.6	generate	Run2	generate/STIM_009.jpg	99
1077.841	1.262	1262.0	generate	Run2	generate/STIM_009.jpg	100
1083.149	2.029	2028.9	generate	Run2	generate/STIM_009.jpg	100
1088.725	1.235	1234.8	generate	Run2	generate/STIM_009.jpg	99
1091.915	1.615	1615.4	generate	Run2	generate/STIM_009.jpg	99
1095.959	1.13	1129.7	generate	Run2	generate/STIM_010.jpg	99
1099.475	1.685	1684.8	generate	Run2	generate/STIM_010.jpg	100
1104.986	1.925	1925.1	generate	Run2	generate/STIM_010.jpg	99
1110.626	1.943	1942.6	generate	Run2	generate/STIM_010.jpg	100
1115.539	0.949	948.6	generate	Run2	generate/STIM_010.jpg	99
1119.61	1.897	1897.4	generate	Run2	generate/STIM_011.jpg	100
1124.685	1.584	1584.1	generate	Run2	generate/STIM_011.jpg	99
1128.72	0.858	857.5	generate	Run2	generate/STIM_011.jpg	99
1133.035	1.36	1360.0	generate	Run2	generate/STIM_011.jpg	99
1137.89	1.444	1443.7	generate	Run2	generate/STIM_011.jpg	100
1142.061	2.076	2076.1	generate	Run2	generate/STIM_012.jpg	100
1147.743	2.08	2079.9	generate	Run2	generate/STIM_012.jpg	99
1153.042	1.88	1880.5	generate	Run2	generate/STIM_012.jpg	100
1157.358	1.084	1083.7	generate	Run2	generate/STIM_012.jpg	99
1161.098	1.527	1526.9	generate	Run2	generate/STIM_012.jpg	99
1166.417	1.814	1813.5	generate	Run2	generate/STIM_013.jpg	100
1170.592	1.491	1490.8	generate	Run2	generate/STIM_013.jpg	100
1175.737	1.112	1111.9	generate	Run2	generate/STIM_013.jpg	99
1179.023	1.167	1166.8	generate	Run2	generate/STIM_013.jpg	100
1183.665	1.478	1478.4	generate	Run2	generate/STIM_013.jpg	99
1188.967	1.62	1619.5	generate	Run2	generate/STIM_014.jpg	100
1193.055	2.008	2007.7	generate	Run2	generate/STIM_014.jpg	99
1197.702	1.846	1846.5	generate	Run2	generate/STIM_014.jpg	99
1202.603	1.864	1864.3	generate	Run2	generate/STIM_014.jpg	99
1207.484	1.226	1225.5	generate	Run2	generate/STIM_014.jpg	100
1211.511	2.384	2383.6	generate	Run2	generate/STIM_015.jpg	99
1217.478	1.426	1425.8	generate	Run2	generate/STIM_015.jpg	99
1221.128	1.453	1453.4	generate	Run2	generate/STIM_015.jpg	99
1225.074	1.52	1520.3	generate	Run2	generate/STIM_015.jpg	100
1230.079	1.105	1104.7	generate	Run2	generate/STIM_015.jpg	99
1234.711	1.991	1991.4	generate	Run2	generate/STIM_016.jpg	100
1240.187	1.616	1615.5	generate	Run2	generate/STIM_016.jpg	100
1245.281	1.636	1636.0	generate	Run2	generate/STIM_016.jpg	99
1249.412	1.396	1396.5	generate	Run2	generate/STIM_016.jpg	99
1254.459	1.866	1866.2	generate	Run2	generate/STIM_016.jpg	99
1259.467	2.412	2412.3	generate	Run2	generate/STIM_017.jpg	100
1263.999	1.375	1374.6	generate	Run2	generate/STIM_017.jpg	99
1268.822	1.712	1712.1	generate	Run2	generate/STIM_017.jpg	100
1274.205	1.647	1646.9	generate	Run2	generate/STIM_017.jpg	100
1279.031	1.009	1009.2	generate	Run2	generate/STIM_017.jpg	99
1282.916	1.912	1911.5	generate	Run2	generate/STIM_018.jpg	99
1288.685	2.214	2214.2	generate	Run2	generate/STIM_018.jpg	99
1293.367	2.047	2046.7	generate	Run2	generate/STIM_018.jpg	99
1297.842	1.114	1113.6	generate	Run2	generate/STIM_018.jpg	100
1302.356	0.953	953.0	generate	Run2	generate/STIM_018.jpg	99
1307.249	2.06	2060.1	generate	Run2	generate/STIM_019.jpg	100
1311.58	1.026	1025.7	generate	Run2	generate/STIM_019.jpg	100
1315.28	1.262	1261.7	generate	Run2	generate/STIM_019.jpg	99
1319.865	0.814	813.5	generate	Run2	generate/STIM_019.jpg	100
1323.696	1.34	1339.5	generate	Run2	generate/STIM_019.jpg	99
1327.36	1.604	1603.5	generate	Run2	generate/STIM_020.jpg	100
1331.333	1.079	1078.6	generate	Run2	generate/STIM_020.jpg	100
1335.006	1.989	1989.1	generate	Run2	generate/STIM_020.jpg	99
1339.328	1.523	1523.4	generate	Run2	generate/STIM_020.jpg	100
1343.415	1.026	1026.0	generate	Run2	generate/STIM_020.jpg	100
1348.436	1.906	1906.4	generate	Run2	generate/STIM_021.jpg	100
1353.297	1.901	1900.6	generate	Run2	generate/STIM_021.jpg	100
1357.374	1.772	1771.5	generate	Run2	generate/STIM_021.jpg	100
1361.822	1.622	1622.1	generate	Run2	generate/STIM_021.jpg	100
1366.402	1.971	1970.6	generate	Run2	generate/STIM_021.jpg	100
1372.353	1.774	1774.1	generate	Run2	generate/STIM_022.jpg	99
1377.145	2.011	2011.3	generate	Run2	generate/STIM_022.jpg	99
1383.222	1.829	1829.0	generate	Run2	generate/STIM_022.jpg	99
1387.184	1.27	1270.4	generate	Run2	generate/STIM_022.jpg	99
1390.684	1.88	1880.5	generate	Run2	generate/STIM_022.jpg	100
1395.643	1.23	1230.1	generate	Run2	generate/STIM_023.jpg	99
1399.03	2.072	2072.1	generate	Run2	generate/STIM_023.jpg	100
1404.015	1.328	1327.6	generate	Run2	generate/STIM_023.jpg	100
1409.257	1.713	1713.1	generate	Run2	generate/STIM_023.jpg	99
1413.944	1.008	1008.1	generate	Run2	generate/STIM_023.jpg	100
1417.291	2.212	2212.5	generate	Run2	generate/STIM_024.jpg	100
1421.997	2.137	2136.6	generate	Run2	generate/STIM_024.jpg	99
1427.059	1.729	1729.0	generate	Run2	generate/STIM_024.jpg	100
1431.832	1.612	1611.8	generate	Run2	generate/STIM_024.jpg	99
1435.764	1.135	1135.3	generate	Run2	generate/STIM_024.jpg	99
1440.534	0.577	577.0	repeat	Run2	repeat/STIM_000.jpg	100
1444.628	0.544	543.6	repeat	Run2	repeat/STIM_000.jpg	99
1448.014	0.822	822.5	repeat	Run2	repeat/STIM_000.jpg	99
1452.068	0.926	926.4	repeat	Run2	repeat/STIM_000.jpg	99
1456.446	0.787	786.8	repeat	Run2	repeat/STIM_000.jpg	99
1459.75	0.77	770.1	repeat	Run2	repeat/STIM_001.jpg	100
1463.844	0.687	687.1	repeat	Run2	repeat/STIM_001.jpg	99
1466.787	0.935	935.0	repeat	Run2	repeat/STIM_001.jpg	100
1470.499	0.596	596.1	repeat	Run2	repeat/STIM_001.jpg	100
1473.198	0.636	635.7	repeat	Run2	repeat/STIM_001.jpg	100
1476.287	0.889	888.8	repeat	Run2	repeat/STIM_002.jpg	99
1479.53	0.857	857.0	repeat	Run2	repeat/STIM_002.jpg	100
1483.109	0.646	646.5	repeat	Run2	repeat/STIM_002.jpg	100
1487.581	0.673	673.1	repeat	Run2	repeat/STIM_002.jpg	99
1491.968	0.578	578.4	repeat	Run2	repeat/STIM_002.jpg	99
1496.051	0.482	481.8	repeat	Run2	repeat/STIM_003.jpg	99
1500.031	0.547	546.9	repeat	Run2	repeat/STIM_003.jpg	99
1502.81	0.888	888.2	repeat	Run2	repeat/STIM_003.jpg	99
1507.388	0.86	860.4	repeat	Run2	repeat/STIM_003.jpg	99
1510.615	0.626	626.4	repeat	Run2	repeat/STIM_003.jpg	99
1515.013	0.527	527.4	repeat	Run2	repeat/STIM_004.jpg	99
1518.304	0.507	507.5	repeat	Run2	repeat/STIM_004.jpg	100
1522.091	0.976	975.8	repeat	Run2	repeat/STIM_004.jpg	100
1525.093	0.737	736.9	repeat	Run2	repeat/STIM_004.jpg	100
1528.099	0.508	508.1	repeat	Run2	repeat/STIM_004.jpg	99
1531.166	0.845	844.9	repeat	Run2	repeat/STIM_005.jpg	100
1534.255	0.533	533.3	repeat	Run2	repeat/STIM_005.jpg	99
1537.404	0.689	688.9	repeat	Run2	repeat/STIM_005.jpg	99
1540.312	0.489	489.2	repeat	Run2	repeat/STIM_005.jpg	100
1544.316	0.757	757.2	repeat	Run2	repeat/STIM_005.jpg	100
1548.896	0.506	506.1	repeat	Run2	repeat/STIM_006.jpg	99
1552.48	0.717	716.8	repeat	Run2	repeat/STIM_006.jpg	99
1555.354	0.941	941.4	repeat	Run2	repeat/STIM_006.jpg	99
1559.345	0.679	679.4	repeat	Run2	repeat/STIM_006.jpg	100
1563.182	0.669	668.7	repeat	Run2	repeat/STIM_006.jpg	99
1567.831	0.951	950.8	repeat	Run2	repeat/STIM_007.jpg	99
1571.287	0.529	529.3	repeat	Run2	repeat/STIM_007.jpg	100
1574.479	0.506	506.2	repeat	Run2	repeat/STIM_007.jpg	100
1578.272	0.58	579.7	repeat	Run2	repeat/STIM_007.jpg	100
1582.79	0.987	986.8	repeat	Run2	repeat/STIM_007.jpg	99
1585.688	0.641	641.2	repeat	Run2	repeat/STIM_008.jpg	99
1590.06	0.951	950.7	repeat	Run2	repeat/STIM_008.jpg	99
1594.456	1.016	1016.1	repeat	Run2	repeat/STIM_008.jpg	100
1598.84	0.779	778.7	repeat	Run2	repeat/STIM_008.jpg	99
1603.513	0.688	688.0	repeat	Run2	repeat/STIM_008.jpg	100
1606.996	0.7	699.6	repeat	Run2	repeat/STIM_009.jpg	100
1610.261	0.564	564.1	repeat	Run2	repeat/STIM_009.jpg	99
1613.94	0.918	918.4	repeat	Run2	repeat/STIM_009.jpg	100
1618.747	0.584	584.3	repeat	Run2	repeat/STIM_009.jpg	100
1622.147	0.893	893.4	repeat	Run2	repeat/STIM_009.jpg	99
1625.722	0.706	705.8	repeat	Run2	repeat/STIM_010.jpg	99
1629.904	0.825	825.3	repeat	Run2	repeat/STIM_010.jpg	100
1634.068	0.696	696.0	repeat	Run2	repeat/STIM_010.jpg	100
1637.627	0.55	550.5	repeat	Run2	repeat/STIM_010.jpg	99
1641.375	0.678	678.1	repeat	Run2	repeat/STIM_010.jpg	100
1644.801	0.851	851.1	repeat	Run2	repeat/STIM_011.jpg	100
1649.217	0.782	782.2	repeat	Run2	repeat/STIM_011.jpg	99
1652.313	0.804	804.3	repeat	Run2	repeat/STIM_011.jpg	99
1655.143	0.799	799.2	repeat	Run2	repeat/STIM_011.jpg	100
1659.082	0.581	581.0	repeat	Run2	repeat/STIM_011.jpg	99
1662.247	0.875	875.4	repeat	Run2	repeat/STIM_012.jpg	100
1666.941	0.59	589.6	repeat	Run2	repeat/STIM_012.jpg	99
1671.304	0.926	926.0	repeat	Run2	repeat/STIM_012.jpg	99
1674.48	0.745	745.2	repeat	Run2	repeat/STIM_012.jpg	99
1677.78	0.721	720.8	repeat	Run2	repeat/STIM_012.jpg	100
1680.796	0.668	667.7	repeat	Run2	repeat/STIM_013.jpg	99
1684.572	0.903	902.7	repeat	Run2	repeat/STIM_013.jpg	100
1688.876	0.57	569.8	repeat	Run2	repeat/STIM_013.jpg	99
1692.954	0.731	731.1	repeat	Run2	repeat/STIM_013.jpg	100
1696.885	0.86	859.6	repeat	Run2	repeat/STIM_013.jpg	100
1700.932	0.952	952.3	repeat	Run2	repeat/STIM_014.jpg	100
1705.595	0.584	584.2	repeat	Run2	repeat/STIM_014.jpg	99
1709.054	0.611	611.1	repeat	Run2	repeat/STIM_014.jpg	100
1713.274	0.914	914.5	repeat	Run2	repeat/STIM_014.jpg	100
1717.27	0.447	447.1	repeat	Run2	repeat/STIM_014.jpg	100
1720.274	1.787	1786.7	generate	Run3	generate/STIM_000.jpg	99
1724.79	0.92	920.1	generate	Run3	generate/STIM_000.jpg	100
1729.504	1.684	1683.6	generate	Run3	generate/STIM_000.jpg	99
1733.601	1.003	1003.2	generate	Run3	generate/STIM_000.jpg	100
1738.102	1.142	1142.1	generate	Run3	generate/STIM_000.jpg	100
1742.255	1.013	1013.3	generate	Run3	generate/STIM_001.jpg	100
1747.051	1.983	1982.6	generate	Run3	generate/STIM_001.jpg	99
1751.586	1.395	1394.8	generate	Run3	generate/STIM_001.jpg	100
1755.658	1.29	1290.1	generate	Run3	generate/STIM_001.jpg	99
1760.353	1.521	1520.8	generate	Run3	generate/STIM_001.jpg	100
1763.942	1.8	1800.1	generate	Run3	generate/STIM_002.jpg	99
1769.182	1.313	1313.3	generate	Run3	generate/STIM_002.jpg	100
1773.868	1.607	1607.2	generate	Run3	generate/STIM_002.jpg	99
1779.253	1.232	1231.6	generate	Run3	generate/STIM_002.jpg	100
1784.166	1.129	1129.1	generate	Run3	generate/STIM_002.jpg	100
1788.871	0.993	992.6	generate	Run3	generate/STIM_003.jpg	99
1792.363	1.659	1659.3	generate	Run3	generate/STIM_003.jpg	100
1797.59	0.974	973.6	generate	Run3	generate/STIM_003.jpg	100
1801.3	0.822	822.3	generate	Run3	generate/STIM_003.jpg	100
1806.234	1.459	1458.7	generate	Run3	generate/STIM_003.jpg	100
1810.817	1.739	1738.6	generate	Run3	generate/STIM_004.jpg	99
1816.326	0.894	893.9	generate	Run3	generate/STIM_004.jpg	99
1819.682	1.734	1734.3	generate	Run3	generate/STIM_004.jpg	99
1824.156	0.879	879.4	generate	Run3	generate/STIM_004.jpg	100
1828.158	2.064	2064.5	generate	Run3	generate/STIM_004.jpg	99
1832.292	0.825	824.8	generate	Run3	generate/STIM_005.jpg	99
1836.493	1.798	1798.5	generate	Run3	generate/STIM_005.jpg	100
1840.675	1.734	1734.3	generate	Run3	generate/STIM_005.jpg	99
1845.745	1.61	1610.5	generate	Run3	generate/STIM_005.jpg	99
1850.639	0.92	920.4	generate	Run3	generate/STIM_005.jpg	100
1854.557	0.941	941.0	generate	Run3	generate/STIM_006.jpg	99
1859.121	1.162	1162.2	generate	Run3	generate/STIM_006.jpg	99
1862.978	1.549	1549.4	generate	Run3	generate/STIM_006.jpg	99
1867.98	1.752	1752.1	generate	Run3	generate/STIM_006.jpg	100
1872.535	0.997	997.0	generate	Run3	generate/STIM_006.jpg	100
1877.529	1.274	1274.3	generate	Run3	generate/STIM_007.jpg	100
1882.238	1.941	1940.9	generate	Run3	generate/STIM_007.jpg	99
1887.193	1.163	1163.1	generate	Run3	generate/STIM_007.jpg	100
1890.981	1.771	1771.1	generate	Run3	generate/STIM_007.jpg	99
1896.021	1.139	1138.8	generate	Run3	generate/STIM_007.jpg	99
1899.616	0.887	887.0	generate	Run3	generate/STIM_008.jpg	100
1903.777	1.07	1069.8	generate	Run3	generate/STIM_008.jpg	100
1907.874	1.437	1436.8	generate	Run3	generate/STIM_008.jpg	99
1912.857	0.801	800.6	generate	Run3	generate/STIM_008.jpg	99
1915.743	0.858	858.5	generate	Run3	generate/STIM_008.jpg	100
1919.416	1.592	1591.9	generate	Run3	generate/STIM_009.jpg	100
1924.09	1.856	1856.2	generate	Run3	generate/STIM_009.jpg	99
1929.527	1.692	1691.5	generate	Run3	generate/STIM_009.jpg	100
1934.106	1.943	1942.7	generate	Run3	generate/STIM_009.jpg	100
1939.186	1.828	1828.1	generate	Run3	generate/STIM_009.jpg	100
1943.86	1.074	1074.0	generate	Run3	generate/STIM_010.jpg	100
1948.292	0.807	807.4	generate	Run3	generate/STIM_010.jpg	100
1952.831	1.313	1312.6	generate	Run3	generate/STIM_010.jpg	100
1957.243	1.63	1630.2	generate	Run3	generate/STIM_010.jpg	99
1962.751	1.032	1032.1	generate	Run3	generate/STIM_010.jpg	100
1967.785	1.387	1387.3	generate	Run3	generate/STIM_011.jpg	99
1971.503	1.819	1819.0	generate	Run3	generate/STIM_011.jpg	99
1975.705	1.181	1181.4	generate	Run3	generate/STIM_011.jpg	100
1980.148	1.65	1649.9	generate	Run3	generate/STIM_011.jpg	100
1985.73	0.854	854.5	generate	Run3	generate/STIM_011.jpg	99
1988.747	1.141	1140.7	generate	Run3	generate/STIM_012.jpg	99
1993.557	1.749	1748.7	generate	Run3	generate/STIM_012.jpg	99
1998.446	1.339	1338.7	generate	Run3	generate/STIM_012.jpg	100
2003.381	1.866	1866.4	generate	Run3	generate/STIM_012.jpg	100
2008.734	0.947	946.7	generate	Run3	generate/STIM_012.jpg	100
2013.482	1.282	1281.8	generate	Run3	generate/STIM_013.jpg	99
2018.686	0.798	798.0	generate	Run3	generate/STIM_013.jpg	99
2021.615	1.749	1749.1	generate	Run3	generate/STIM_013.jpg	99
2027.171	1.899	1898.7	generate	Run3	generate/STIM_013.jpg	100
2031.45	1.798	1798.2	generate	Run3	generate/STIM_013.jpg	100
2035.69	1.903	1902.8	generate	Run3	generate/STIM_014.jpg	100
2041.438	1.92	1920.1	generate	Run3	generate/STIM_014.jpg	100
2046.613	2.005	2005.0	generate	Run3	generate/STIM_014.jpg	99
2051.928	0.919	919.0	generate	Run3	generate/STIM_014.jpg	99
2056.74	1.827	1827.0	generate	Run3	generate/STIM_014.jpg	99
2060.718	1.597	1597.0	generate	Run3	generate/STIM_015.jpg	99
2065.99	0.835	834.7	generate	Run3	generate/STIM_015.jpg	99
2068.92	0.881	880.9	generate	Run3	generate/STIM_015.jpg	99
2072.116	0.896	896.3	generate	Run3	generate/STIM_015.jpg	100
2076.31	1.691	1690.6	generate	Run3	generate/STIM_015.jpg	100
2080.119	1.82	1820.3	generate	Run3	generate/STIM_016.jpg	99
2084.055	0.872	871.8	generate	Run3	generate/STIM_016.jpg	100
2088.343	1.822	1822.3	generate	Run3	generate/STIM_016.jpg	99
2092.876	1.376	1375.9	generate	Run3	generate/STIM_016.jpg	99
2096.945	1.517	1516.7	generate	Run3	generate/STIM_016.jpg	99
2102.223	1.97	1969.9	generate	Run3	generate/STIM_017.jpg	100
2107.894	1.886	1885.6	generate	Run3	generate/STIM_017.jpg	99
2112.432	1.544	1543.9	generate	Run3	generate/STIM_017.jpg	100
2116.906	1.468	1467.9	generate	Run3	generate/STIM_017.jpg	99
2121.366	1.403	1403.0	generate	Run3	generate/STIM_017.jpg	99
2126.615	1.429	1429.3	generate	Run3	generate/STIM_018.jpg	100
2131.884	1.266	1266.2	generate	Run3	generate/STIM_018.jpg	100
2135.24	1.276	1276.0	generate	Run3	generate/STIM_018.jpg	100
2139.251	1.428	1428.4	generate	Run3	generate/STIM_018.jpg	100
2143.273	1.871	1870.6	generate	Run3	generate/STIM_018.jpg	100
2148.328	1.46	1460.5	generate	Run3	generate/STIM_019.jpg	100
2152.858	1.844	1843.9	generate	Run3	generate/STIM_019.jpg	99
2157.705	1.688	1688.4	generate	Run3	generate/STIM_019.jpg	100
2162.889	0.978	978.0	generate	Run3	generate/STIM_019.jpg	100
2167.437	2.042	2041.6	generate	Run3	generate/STIM_019.jpg	99
2172.828	1.482	1481.5	generate	Run3	generate/STIM_020.jpg	99
2177.65	1.14	1140.1	generate	Run3	generate/STIM_020.jpg	99
2181.901	1.448	1448.5	generate	Run3	generate/STIM_020.jpg	99
2185.945	1.601	1600.6	generate	Run3	generate/STIM_020.jpg	100
2189.994	1.613	1613.1	generate	Run3	generate/STIM_020.jpg	100
2193.836	1.829	1828.6	generate	Run3	generate/STIM_021.jpg	100
2198.757	0.956	955.5	generate	Run3	generate/STIM_021.jpg	100
2201.898	1.054	1053.9	generate	Run3	generate/STIM_021.jpg	99
2206.165	1.321	1320.7	generate	Run3	generate/STIM_021.jpg	100
2211.225	1.192	1191.7	generate	Run3	generate/STIM_021.jpg	100
2215.585	1.366	1366.1	generate	Run3	generate/STIM_022.jpg	99
2220.02	1.591	1591.1	generate	Run3	generate/STIM_022.jpg	99
2224.941	1.836	1836.2	generate	Run3	generate/STIM_022.jpg	100
2229.066	1.847	1846.8	generate	Run3	generate/STIM_022.jpg	100
2233.598	1.1	1099.8	generate	Run3	generate/STIM_022.jpg	100
2237.49	1.619	1619.1	generate	Run3	generate/STIM_023.jpg	99
2241.757	1.131	1131.2	generate	Run3	generate/STIM_023.jpg	100
2246.231	1.957	1957.2	generate	Run3	generate/STIM_023.jpg	99
2250.438	0.861	861.4	generate	Run3	generate/STIM_023.jpg	100
2254.158	1.268	1268.4	generate	Run3	generate/STIM_023.jpg	100
2259.344	1.565	1565.2	generate	Run3	generate/STIM_024.jpg	100
2263.283	1.22	1219.6	generate	Run3	generate/STIM_024.jpg	100
2266.889	1.164	1164.5	generate	Run3	generate/STIM_024.jpg	100
2270.498	0.893	892.6	generate	Run3	generate/STIM_024.jpg	100
2274.087	1.013	1012.6	generate	Run3	generate/STIM_024.jpg	100
2279.003	0.886	885.5	repeat	Run3	repeat/STIM_000.jpg	100
2283.779	0.704	704.1	repeat	Run3	repeat/STIM_000.jpg	100
2288.093	0.585	585.3	repeat	Run3	repeat/STIM_000.jpg	100
2291.317	0.603	602.9	repeat	Run3	repeat/STIM_000.jpg	99
2295.503	0.842	842.5	repeat	Run3	repeat/STIM_000.jpg	100
2300.421	0.794	793.8	repeat	Run3	repeat/STIM_001.jpg	99
2304.286	0.573	572.7	repeat	Run3	repeat/STIM_001.jpg	100
2306.973	0.494	493.6	repeat	Run3	repeat/STIM_001.jpg	100
2309.644	0.736	736.0	repeat	Run3	repeat/STIM_001.jpg	99
2314.171	0.506	506.1	repeat	Run3	repeat/STIM_001.jpg	99
2317.98	0.512	511.7	repeat	Run3	repeat/STIM_002.jpg	99
2320.73	0.552	552.5	repeat	Run3	repeat/STIM_002.jpg	99
2325.18	0.547	547.2	repeat	Run3	repeat/STIM_002.jpg	99
2329.475	0.727	726.6	repeat	Run3	repeat/STIM_002.jpg	99
2333.703	0.656	655.6	repeat	Run3	repeat/STIM_002.jpg	99
2336.425	0.836	835.7	repeat	Run3	repeat/STIM_003.jpg	100
2340.059	0.696	696.2	repeat	Run3	repeat/STIM_003.jpg	100
2343.782	0.533	532.6	repeat	Run3	repeat/STIM_003.jpg	100
2346.625	0.504	504.1	repeat	Run3	repeat/STIM_003.jpg	100
2349.533	0.642	642.2	repeat	Run3	repeat/STIM_003.jpg	99
2352.447	0.739	739.0	repeat	Run3	repeat/STIM_004.jpg	99
2356.581	0.607	607.2	repeat	Run3	repeat/STIM_004.jpg	99
2359.651	0.792	791.7	repeat	Run3	repeat/STIM_004.jpg	99
2362.572	0.883	882.9	repeat	Run3	repeat/STIM_004.jpg	99
2366.649	0.518	518.0	repeat	Run3	repeat/STIM_004.jpg	100
2369.23	0.82	819.6	repeat	Run3	repeat/STIM_005.jpg	99
2373.448	0.683	683.1	repeat	Run3	repeat/STIM_005.jpg	100
2376.607	0.665	664.8	repeat	Run3	repeat/STIM_005.jpg	99
2379.962	0.549	549.2	repeat	Run3	repeat/STIM_005.jpg	100
2384.557	0.889	889.4	repeat	Run3	repeat/STIM_005.jpg	100
2389.121	0.589	589.3	repeat	Run3	repeat/STIM_006.jpg	100
2392.461	0.882	881.5	repeat	Run3	repeat/STIM_006.jpg	100
2396.928	0.542	542.5	repeat	Run3	repeat/STIM_006.jpg	100
2400.446	0.738	738.1	repeat	Run3	repeat/STIM_006.jpg	99
2404.059	0.802	801.8	repeat	Run3	repeat/STIM_006.jpg	100
2408.358	0.759	759.1	repeat	Run3	repeat/STIM_007.jpg	100
2413.057	0.691	690.8	repeat	Run3	repeat/STIM_007.jpg	99
2415.992	0.805	804.9	repeat	Run3	repeat/STIM_007.jpg	99
2419.637	0.848	848.5	repeat	Run3	repeat/STIM_007.jpg	99
2423.28	0.73	730.5	repeat	Run3	repeat/STIM_007.jpg	99
2427.892	0.786	786.4	repeat	Run3	repeat/STIM_008.jpg	100
2431.099	0.855	855.2	repeat	Run3	repeat/STIM_008.jpg	99
2434.634	0.604	604.5	repeat	Run3	repeat/STIM_008.jpg	99
2438.262	0.934	934.1	repeat	Run3	repeat/STIM_008.jpg	99
2441.96	0.993	993.4	repeat	Run3	repeat/STIM_008.jpg	100
2445.902	0.807	806.7	repeat	Run3	repeat/STIM_009.jpg	100
2449.531	0.934	933.6	repeat	Run3	repeat/STIM_009.jpg	100
2452.575	0.553	553.0	repeat	Run3	repeat/STIM_009.jpg	100
2455.65	0.83	829.5	repeat	Run3	repeat/STIM_009.jpg	99
2459.544	0.425	425.3	repeat	Run3	repeat/STIM_009.jpg	99
2462.732	0.604	604.3	repeat	Run3	repeat/STIM_010.jpg	100
2465.586	0.915	915.3	repeat	Run3	repeat/STIM_010.jpg	99
2470.206	0.924	923.7	repeat	Run3	repeat/STIM_010.jpg	99
2473.402	0.956	956.3	repeat	Run3	repeat/STIM_010.jpg	100
2477.571	0.758	757.9	repeat	Run3	repeat/STIM_010.jpg	100
2481.285	0.711	711.1	repeat	Run3	repeat/STIM_011.jpg	100
2484.059	0.756	756.4	repeat	Run3	repeat/STIM_011.jpg	100
2488.175	0.894	893.6	repeat	Run3	repeat/STIM_011.jpg	100
2492.557	0.93	930.4	repeat	Run3	repeat/STIM_011.jpg	99
2497.214	0.796	795.9	repeat	Run3	repeat/STIM_011.jpg	100
2501.387	0.523	523.4	repeat	Run3	repeat/STIM_012.jpg	100
2504.315	0.698	697.8	repeat	Run3	repeat/STIM_012.jpg	99
2508.439	0.859	859.4	repeat	Run3	repeat/STIM_012.jpg	99
2512.623	0.833	832.9	repeat	Run3	repeat/STIM_012.jpg	99
2516.818	0.94	940.4	repeat	Run3	repeat/STIM_012.jpg	99
2519.851	0.73	729.8	repeat	Run3	repeat/STIM_013.jpg	100
2522.924	0.773	773.3	repeat	Run3	repeat/STIM_013.jpg	100
2526.646	0.846	846.2	repeat	Run3	repeat/STIM_013.jpg	100
2529.855	0.854	853.7	repeat	Run3	repeat/STIM_013.jpg	100
2533.337	0.557	557.2	repeat	Run3	repeat/STIM_013.jpg	99
2536.692	0.764	763.8	repeat	Run3	repeat/STIM_014.jpg	100
2541.117	0.5	499.6	repeat	Run3	repeat/STIM_014.jpg	99
2545.669	0.902	902.1	repeat	Run3	repeat/STIM_014.jpg	100
2549.023	0.633	633.4	repeat	Run3	repeat/STIM_014.jpg	99
2553.34	0.509	509.1	repeat	Run3	repeat/STIM_014.jpg	100
2557.395	1.821	1821.2	generate	Run4	generate/STIM_000.jpg	99
2562.367	1.812	1811.9	generate	Run4	generate/STIM_000.jpg	99
2567.167	1.607	1606.8	generate	Run4	generate/STIM_000.jpg	100
2571.689	1.56	1560.2	generate	Run4	generate/STIM_000.jpg	99
2576.518	1.518	1517.8	generate	Run4	generate/STIM_000.jpg	100
2582.056	1.49	1490.2	generate	Run4	generate/STIM_001.jpg	99
2585.783	0.89	889.9	generate	Run4	generate/STIM_001.jpg	99
2589.391	1.867	1866.8	generate	Run4	generate/STIM_001.jpg	99
2593.81	1.04	1039.5	generate	Run4	generate/STIM_001.jpg	100
2597.111	0.898	897.8	generate	Run4	generate/STIM_001.jpg	100
2600.164	1.286	1286.0	generate	Run4	generate/STIM_002.jpg	99
2604.709	1.909	1909.3	generate	Run4	generate/STIM_002.jpg	99
2610.685	1.13	1129.6	generate	Run4	generate/STIM_002.jpg	100
2614.382	1.737	1737.3	generate	Run4	generate/STIM_002.jpg	99
2619.942	1.069	1068.8	generate	Run4	generate/STIM_002.jpg	100
2624.498	1.231	1230.7	generate	Run4	generate/STIM_003.jpg	99
2629.468	1.126	1125.8	generate	Run4	generate/STIM_003.jpg	99
2633.067	0.888	887.7	generate	Run4	generate/STIM_003.jpg	100
2637.307	1.75	1749.6	generate	Run4	generate/STIM_003.jpg	99
2642.111	1.113	1113.0	generate	Run4	generate/STIM_003.jpg	99
2645.195	1.978	1977.5	generate	Run4	generate/STIM_004.jpg	100
2649.351	1.165	1164.8	generate	Run4	generate/STIM_004.jpg	99
2653.776	1.333	1333.1	generate	Run4	generate/STIM_004.jpg	100
2657.949	1.798	1797.9	generate	Run4	generate/STIM_004.jpg	99
2663.219	1.941	1941.0	generate	Run4	generate/STIM_004.jpg	100
2667.895	1.269	1269.1	generate	Run4	generate/STIM_005.jpg	99
2673.098	1.545	1545.3	generate	Run4	generate/STIM_005.jpg	100
2677.169	1.385	1385.0	generate	Run4	generate/STIM_005.jpg	99
2681.25	0.846	846.5	generate	Run4	generate/STIM_005.jpg	100
2685.968	0.897	896.8	generate	Run4	generate/STIM_005.jpg	100
2690.646	1.66	1659.7	generate	Run4	generate/STIM_006.jpg	99
2694.581	0.976	975.6	generate	Run4	generate/STIM_006.jpg	99
2699.304	1.974	1973.7	generate	Run4	generate/STIM_006.jpg	100
2704.854	0.885	884.9	generate	Run4	generate/STIM_006.jpg	99
2707.977	1.227	1227.4	generate	Run4	generate/STIM_006.jpg	99
2711.694	0.822	822.3	generate	Run4	generate/STIM_007.jpg	100
2716.24	1.622	1622.3	generate	Run4	generate/STIM_007.jpg	99
2721.497	1.001	1001.3	generate	Run4	generate/STIM_007.jpg	100
2724.576	1.902	1901.7	generate	Run4	generate/STIM_007.jpg	100
2729.031	1.297	1296.9	generate	Run4	generate/STIM_007.jpg	99
2733.33	2.01	2009.8	generate	Run4	generate/STIM_008.jpg	99
2738.17	1.079	1079.3	generate	Run4	generate/STIM_008.jpg	99
2743.191	1.627	1627.1	generate	Run4	generate/STIM_008.jpg	100
2747.453	1.218	1218.1	generate	Run4	generate/STIM_008.jpg	100
2751.298	1.122	1121.7	generate	Run4	generate/STIM_008.jpg	99
2756.109	1.594	1594.4	generate	Run4	generate/STIM_009.jpg	100
2760.46	1.568	1568.0	generate	Run4	generate/STIM_009.jpg	100
2765.922	2.034	2033.9	generate	Run4	generate/STIM_009.jpg	99
2770.678	1.252	1251.5	generate	Run4	generate/STIM_009.jpg	100
2775.411	1.367	1367.0	generate	Run4	generate/STIM_009.jpg	100
2778.997	1.443	1442.6	generate	Run4	generate/STIM_010.jpg	99
2784.446	1.865	1865.0	generate	Run4	generate/STIM_010.jpg	99
2790.198	1.464	1464.2	generate	Run4	generate/STIM_010.jpg	99
2795.697	1.276	1275.6	generate	Run4	generate/STIM_010.jpg	99
2799.546	1.635	1635.0	generate	Run4	generate/STIM_010.jpg	99
2804.442	1.596	1595.5	generate	Run4	generate/STIM_011.jpg	99
2808.29	1.343	1342.9	generate	Run4	generate/STIM_011.jpg	99
2812.734	1.377	1377.0	generate	Run4	generate/STIM_011.jpg	100
2817.852	1.534	1534.2	generate	Run4	generate/STIM_011.jpg	100
2823.167	1.718	1717.7	generate	Run4	generate/STIM_011.jpg	100
2827.347	1.689	1689.4	generate	Run4	generate/STIM_012.jpg	99
2832.026	1.819	1819.3	generate	Run4	generate/STIM_012.jpg	100
2837.144	1.47	1470.3	generate	Run4	generate/STIM_012.jpg	99
2842.134	1.028	1027.5	generate	Run4	generate/STIM_012.jpg	100
2845.807	2.03	2030.3	generate	Run4	generate/STIM_012.jpg	100
2850.664	1.56	1559.8	generate	Run4	generate/STIM_013.jpg	100
2855.072	1.819	1819.1	generate	Run4	generate/STIM_013.jpg	99
2858.95	1.797	1797.4	generate	Run4	generate/STIM_013.jpg	99
2862.996	1.506	1505.7	generate	Run4	generate/STIM_013.jpg	99
2866.979	1.089	1088.8	generate	Run4	generate/STIM_013.jpg	100
2871.203	1.043	1042.9	generate	Run4	generate/STIM_014.jpg	100
2874.859	1.057	1056.7	generate	Run4	generate/STIM_014.jpg	99
2878.944	1.203	1202.8	generate	Run4	generate/STIM_014.jpg	100
2882.297	1.05	1049.8	generate	Run4	generate/STIM_014.jpg	99
2885.963	1.089	1089.0	generate	Run4	generate/STIM_014.jpg	100
2889.439	1.927	1926.7	generate	Run4	generate/STIM_015.jpg	99
2895.443	1.205	1205.1	generate	Run4	generate/STIM_015.jpg	99
2900.007	1.026	1025.6	generate	Run4	generate/STIM_015.jpg	99
2904.694	1.905	1904.7	generate	Run4	generate/STIM_015.jpg	99
2910.611	1.473	1472.7	generate	Run4	generate/STIM_015.jpg	99
2916.041	1.651	1651.1	generate	Run4	generate/STIM_016.jpg	99
2920.563	1.65	1650.5	generate	Run4	generate/STIM_016.jpg	100
2924.751	1.271	1271.2	generate	Run4	generate/STIM_016.jpg	99
2929.792	1.493	1493.3	generate	Run4	generate/STIM_016.jpg	99
2934.552	1.979	1978.9	generate	Run4	generate/STIM_016.jpg	100
2940.572	1.4	1400.4	generate	Run4	generate/STIM_017.jpg	99
2944.125	1.206	1206.5	generate	Run4	generate/STIM_017.jpg	100
2947.415	1.403	1403.0	generate	Run4	generate/STIM_017.jpg	99
2952.805	1.166	1166.4	generate	Run4	generate/STIM_017.jpg	99
2957.261	1.788	1787.6	generate	Run4	generate/STIM_017.jpg	100
2961.686	0.868	867.6	generate	Run4	generate/STIM_018.jpg	100
2964.78	1.909	1909.3	generate	Run4	generate/STIM_018.jpg	100
2969.483	1.952	1952.1	generate	Run4	generate/STIM_018.jpg	100
2974.25	1.029	1028.6	generate	Run4	generate/STIM_018.jpg	99
2978.952	1.63	1629.8	generate	Run4	generate/STIM_018.jpg	99
2984.039	1.274	1274.0	generate	Run4	generate/STIM_019.jpg	100
2988.477	1.206	1206.4	generate	Run4	generate/STIM_019.jpg	100
2992.475	0.854	853.6	generate	Run4	generate/STIM_019.jpg	100
2996.965	1.503	1502.6	generate	Run4	generate/STIM_019.jpg	99
3001.649	1.648	1647.6	generate	Run4	generate/STIM_019.jpg	99
3006.172	1.36	1359.6	generate	Run4	generate/STIM_020.jpg	99
3009.59	1.488	1487.8	generate	Run4	generate/STIM_020.jpg	100
3014.571	1.704	1703.5	generate	Run4	generate/STIM_020.jpg	99
3018.73	1.201	1200.6	generate	Run4	generate/STIM_020.jpg	100
3022.547	1.601	1601.2	generate	Run4	generate/STIM_020.jpg	100
3028.067	1.933	1932.9	generate	Run4	generate/STIM_021.jpg	99
3033.908	1.559	1559.0	generate	Run4	generate/STIM_021.jpg	100
3038.484	1.807	1806.8	generate	Run4	generate/STIM_021.jpg	100
3043.269	1.286	1285.7	generate	Run4	generate/STIM_021.jpg	99
3048.135	1.415	1414.9	generate	Run4	generate/STIM_021.jpg	99
3052.112	1.956	1956.2	generate	Run4	generate/STIM_022.jpg	100
3058.069	1.52	1519.6	generate	Run4	generate/STIM_022.jpg	99
3063.323	1.672	1671.6	generate	Run4	generate/STIM_022.jpg	99
3067.175	1.949	1949.4	generate	Run4	generate/STIM_022.jpg	99
3072.13	1.762	1762.1	generate	Run4	generate/STIM_022.jpg	99
3076.122	1.347	1347.2	generate	Run4	generate/STIM_023.jpg	100
3080.521	0.832	831.7	generate	Run4	generate/STIM_023.jpg	100
3084.73	1.25	1250.3	generate	Run4	generate/STIM_023.jpg	99
3090.073	1.504	1504.3	generate	Run4	generate/STIM_023.jpg	99
3094.077	1.726	1726.0	generate	Run4	generate/STIM_023.jpg	100
3099.758	0.822	822.2	generate	Run4	generate/STIM_024.jpg	100
3103.929	1.787	1787.4	generate	Run4	generate/STIM_024.jpg	100
3108.024	1.835	1835.1	generate	Run4	generate/STIM_024.jpg	99
3113.671	1.518	1517.8	generate	Run4	generate/STIM_024.jpg	99
3117.802	1.987	1986.9	generate	Run4	generate/STIM_024.jpg	99
3123.402	0.92	919.5	repeat	Run4	repeat/STIM_000.jpg	100
3126.641	0.821	820.8	repeat	Run4	repeat/STIM_000.jpg	99
3131.385	0.546	546.4	repeat	Run4	repeat/STIM_000.jpg	100
3135.216	0.815	815.3	repeat	Run4	repeat/STIM_000.jpg	99
3139.946	0.615	615.3	repeat	Run4	repeat/STIM_000.jpg	99
3144.109	0.417	416.7	repeat	Run4	repeat/STIM_001.jpg	99
3147.624	0.546	546.2	repeat	Run4	repeat/STIM_001.jpg	99
3152.115	0.742	742.1	repeat	Run4	repeat/STIM_001.jpg	100
3155.747	0.677	677.2	repeat	Run4	repeat/STIM_001.jpg	99
3158.616	0.707	706.9	repeat	Run4	repeat/STIM_001.jpg	99
3163.393	0.537	536.9	repeat	Run4	repeat/STIM_002.jpg	99
3167.597	0.601	601.0	repeat	Run4	repeat/STIM_002.jpg	100
3170.676	0.896	896.5	repeat	Run4	repeat/STIM_002.jpg	99
3174.067	0.788	787.8	repeat	Run4	repeat/STIM_002.jpg	100
3178.745	0.66	659.8	repeat	Run4	repeat/STIM_002.jpg	99
3182.747	0.754	753.5	repeat	Run4	repeat/STIM_003.jpg	99
3185.91	0.497	497.0	repeat	Run4	repeat/STIM_003.jpg	100
3188.832	0.547	547.0	repeat	Run4	repeat/STIM_003.jpg	99
3191.941	0.862	862.4	repeat	Run4	repeat/STIM_003.jpg	100
3196.228	0.67	669.7	repeat	Run4	repeat/STIM_003.jpg	100
3200.332	0.803	802.7	repeat	Run4	repeat/STIM_004.jpg	100
3203.519	0.658	657.8	repeat	Run4	repeat/STIM_004.jpg	99
3206.763	0.776	775.9	repeat	Run4	repeat/STIM_004.jpg	100
3209.937	0.64	640.3	repeat	Run4	repeat/STIM_004.jpg	100
3214.233	0.658	658.4	repeat	Run4	repeat/STIM_004.jpg	99
3216.969	0.591	591.4	repeat	Run4	repeat/STIM_005.jpg	100
3220.76	0.739	739.4	repeat	Run4	repeat/STIM_005.jpg	100
3224.588	0.734	733.5	repeat	Run4	repeat/STIM_005.jpg	99
3227.568	0.843	842.6	repeat	Run4	repeat/STIM_005.jpg	100
3231.167	0.946	946.0	repeat	Run4	repeat/STIM_005.jpg	99
3235.995	0.653	653.4	repeat	Run4	repeat/STIM_006.jpg	100
3238.872	0.806	806.0	repeat	Run4	repeat/STIM_006.jpg	99
3242.862	0.849	848.9	repeat	Run4	repeat/STIM_006.jpg	100
3246.964	0.936	936.5	repeat	Run4	repeat/STIM_006.jpg	99
3250.496	0.629	628.9	repeat	Run4	repeat/STIM_006.jpg	99
3253.932	0.95	949.5	repeat	Run4	repeat/STIM_007.jpg	99
3257.636	0.662	662.1	repeat	Run4	repeat/STIM_007.jpg	100
3262.062	0.742	742.4	repeat	Run4	repeat/STIM_007.jpg	100
3265.805	0.605	605.1	repeat	Run4	repeat/STIM_007.jpg	99
3269.456	0.889	888.6	repeat	Run4	repeat/STIM_007.jpg	99
3272.553	0.861	860.8	repeat	Run4	repeat/STIM_008.jpg	99
3275.534	0.704	704.5	repeat	Run4	repeat/STIM_008.jpg	99
3278.735	0.994	994.4	repeat	Run4	repeat/STIM_008.jpg	99
3282.366	0.79	789.6	repeat	Run4	repeat/STIM_008.jpg	100
3285.606	0.668	667.8	repeat	Run4	repeat/STIM_008.jpg	99
3289.028	0.506	506.4	repeat	Run4	repeat/STIM_009.jpg	100
3293.49	0.625	624.9	repeat	Run4	repeat/STIM_009.jpg	100
3297.783	0.577	577.4	repeat	Run4	repeat/STIM_009.jpg	99
3301.322	0.894	893.8	repeat	Run4	repeat/STIM_009.jpg	100
3305.028	0.555	555.1	repeat	Run4	repeat/STIM_009.jpg	99
3307.688	0.515	515.0	repeat	Run4	repeat/STIM_010.jpg	99
3310.592	0.494	493.8	repeat	Run4	repeat/STIM_010.jpg	99
3314.457	0.952	952.5	repeat	Run4	repeat/STIM_010.jpg	99
3319.229	0.711	710.9	repeat	Run4	repeat/STIM_010.jpg	100
3323.747	0.665	664.9	repeat	Run4	repeat/STIM_010.jpg	99
3327.508	0.649	649.4	repeat	Run4	repeat/STIM_011.jpg	99
3330.298	0.667	666.6	repeat	Run4	repeat/STIM_011.jpg	100
3334.196	0.594	594.5	repeat	Run4	repeat/STIM_011.jpg	99
3338.159	0.468	468.5	repeat	Run4	repeat/STIM_011.jpg	99
3342.574	0.609	608.7	repeat	Run4	repeat/STIM_011.jpg	100
3345.785	0.67	670.2	repeat	Run4	repeat/STIM_012.jpg	100
3349.314	0.649	648.7	repeat	Run4	repeat/STIM_012.jpg	99
3353.279	0.873	873.1	repeat	Run4	repeat/STIM_012.jpg	99
3356.443	0.966	966.4	repeat	Run4	repeat/STIM_012.jpg	100
3360.224	0.856	855.7	repeat	Run4	repeat/STIM_012.jpg	99
3364.524	0.795	795.1	repeat	Run4	repeat/STIM_013.jpg	99
3368.949	0.754	753.8	repeat	Run4	repeat/STIM_013.jpg	100
3372.486	0.619	618.9	repeat	Run4	repeat/STIM_013.jpg	100
3376.29	0.694	693.8	repeat	Run4	repeat/STIM_013.jpg	99
3380.069	0.842	842.3	repeat	Run4	repeat/STIM_013.jpg	99
3384.503	0.862	861.8	repeat	Run4	repeat/STIM_014.jpg	99
3388.905	0.634	633.7	repeat	Run4	repeat/STIM_014.jpg	99
3392.269	0.881	881.2	repeat	Run4	repeat/STIM_014.jpg	99
3397.152	0.89	890.1	repeat	Run4	repeat/STIM_014.jpg	100
3400.4	0.866	866.1	repeat	Run4	repeat/STIM_014.jpg	99
