onset	duration	response_time_ms	trial_type	learning_stage	stimulus	response_port
0.0	3.007	3006.9	generate	Run1	generate/STIM_000.jpg	100
5.252	2.648	2647.9	generate	Run1	generate/STIM_000.jpg	99
10.413	1.555	1554.6	generate	Run1	generate/STIM_000.jpg	99
14.585	1.798	1797.6	generate	Run1	generate/STIM_000.jpg	99
19.471	1.89	1889.8	generate	Run1	generate/STIM_000.jpg	99
23.652	2.472	2472.4	generate	Run1	generate/STIM_001.jpg	100
29.609	2.959	2959.0	generate	Run1	generate/STIM_001.jpg	99
35.441	2.408	2407.8	generate	Run1	generate/STIM_001.jpg	99
41.149	2.345	2345.3	generate	Run1	generate/STIM_001.jpg	100
47.394	1.864	1864.1	generate	Run1	generate/STIM_001.jpg	100
51.488	2.835	2834.8	generate	Run1	generate/STIM_002.jpg	99
56.505	2.572	2572.1	generate	Run1	generate/STIM_002.jpg	100
61.723	1.618	1618.5	generate	Run1	generate/STIM_002.jpg	99
66.426	1.758	1758.0	generate	Run1	generate/STIM_002.jpg	100
71.472	1.106	1106.5	generate	Run1	generate/STIM_002.jpg	100
75.244	1.497	1496.7	generate	Run1	generate/STIM_003.jpg	100
80.078	2.222	2221.7	generate	Run1	generate/STIM_003.jpg	99
85.982	2.348	2348.2	generate	Run1	generate/STIM_003.jpg	100
90.382	2.705	2704.6	generate	Run1	generate/STIM_003.jpg	100
95.841	1.852	1852.5	generate	Run1	generate/STIM_003.jpg	99
100.716	1.803	1802.7	generate	Run1	generate/STIM_004.jpg	99
106.105	2.154	2153.9	generate	Run1	generate/STIM_004.jpg	99
110.726	1.236	1235.7	generate	Run1	generate/STIM_004.jpg	100
115.919	1.617	1617.4	generate	Run1	generate/STIM_004.jpg	100
120.241	2.151	2150.7	generate	Run1	generate/STIM_004.jpg	99
126.237	1.846	1845.7	generate	Run1	generate/STIM_005.jpg	100
130.957	2.027	2026.8	generate	Run1	generate/STIM_005.jpg	100
135.475	1.816	1815.8	generate	Run1	generate/STIM_005.jpg	100
141.085	2.698	2698.4	generate	Run1	generate/STIM_005.jpg	99
146.111	1.636	1636.5	generate	Run1	generate/STIM_005.jpg	99
151.043	3.042	3042.5	generate	Run1	generate/STIM_006.jpg	99
156.891	1.41	1410.5	generate	Run1	generate/STIM_006.jpg	100
161.716	2.683	2682.6	generate	Run1	generate/STIM_006.jpg	99
167.108	2.359	2359.3	generate	Run1	generate/STIM_006.jpg	99
172.691	2.536	2535.8	generate	Run1	generate/STIM_006.jpg	99
179.21	2.906	2905.5	generate	Run1	generate/STIM_007.jpg	99
184.76	2.008	2007.7	generate	Run1	generate/STIM_007.jpg	99
188.811	1.764	1763.5	generate	Run1	generate/STIM_007.jpg	100
192.928	2.525	2525.2	generate	Run1	generate/STIM_007.jpg	100
199.21	1.064	1063.6	generate	Run1	generate/STIM_007.jpg	100
203.684	2.809	2809.2	generate	Run1	generate/STIM_008.jpg	99
209.996	3.02	3020.4	generate	Run1	generate/STIM_008.jpg	99
216.954	2.135	2134.9	generate	Run1	generate/STIM_008.jpg	99
222.222	2.343	2343.0	generate	Run1	generate/STIM_008.jpg	100
227.287	1.27	1270.1	generate	Run1	generate/STIM_008.jpg	100
230.832	3.126	3126.2	generate	Run1	generate/STIM_009.jpg	99
236.376	2.899	2899.0	generate	Run1	generate/STIM_009.jpg	100
243.012	2.146	2145.5	generate	Run1	generate/STIM_009.jpg	100
248.446	1.306	1306.5	generate	Run1	generate/STIM_009.jpg	99
252.333	1.65	1650.0	generate	Run1	generate/STIM_009.jpg	99
256.484	2.576	2575.6	generate	Run1	generate/STIM_010.jpg	100
262.216	2.764	2763.8	generate	Run1	generate/STIM_010.jpg	99
267.494	2.102	2101.6	generate	Run1	generate/STIM_010.jpg	99
273.048	2.047	2047.0	generate	Run1	generate/STIM_010.jpg	99
278.843	2.41	2410.4	generate	Run1	generate/STIM_010.jpg	99
284.181	2.27	2269.6	generate	Run1	generate/STIM_011.jpg	100
290.312	2.826	2825.9	generate	Run1	generate/STIM_011.jpg	99
296.255	1.958	1958.1	generate	Run1	generate/STIM_011.jpg	99
300.401	1.678	1677.5	generate	Run1	generate/STIM_011.jpg	100
305.697	1.316	1316.0	generate	Run1	generate/STIM_011.jpg	99
310.482	1.335	1335.2	generate	Run1	generate/STIM_012.jpg	99
314.33	2.048	2047.7	generate	Run1	generate/STIM_012.jpg	100
320.324	1.896	1895.5	generate	Run1	generate/STIM_012.jpg	100
324.843	1.622	1621.8	generate	Run1	generate/STIM_012.jpg	100
330.059	2.519	2519.3	generate	Run1	generate/STIM_012.jpg	99
335.961	1.41	1409.9	generate	Run1	generate/STIM_013.jpg	100
339.419	2.16	2160.5	generate	Run1	generate/STIM_013.jpg	99
344.512	1.739	1739.2	generate	Run1	generate/STIM_013.jpg	99
350.223	1.235	1234.6	generate	Run1	generate/STIM_013.jpg	99
355.353	1.978	1978.4	generate	Run1	generate/STIM_013.jpg	100
359.666	1.906	1905.7	generate	Run1	generate/STIM_014.jpg	99
365.045	2.669	2669.0	generate	Run1	generate/STIM_014.jpg	100
370.869	2.208	2208.3	generate	Run1	generate/STIM_014.jpg	99
376.938	2.413	2413.0	generate	Run1	generate/STIM_014.jpg	100
383.046	1.578	1578.4	generate	Run1	generate/STIM_014.jpg	99
388.049	2.699	2699.1	generate	Run1	generate/STIM_015.jpg	100
394.181	2.642	2642.5	generate	Run1	generate/STIM_015.jpg	99
399.023	2.331	2331.1	generate	Run1	generate/STIM_015.jpg	99
404.345	1.296	1296.1	generate	Run1	generate/STIM_015.jpg	100
407.769	1.641	1640.8	generate	Run1	generate/STIM_015.jpg	100
412.869	2.784	2784.2	generate	Run1	generate/STIM_016.jpg	99
419.456	1.429	1429.3	generate	Run1	generate/STIM_016.jpg	99
424.144	1.926	1926.3	generate	Run1	generate/STIM_016.jpg	99
429.748	2.358	2358.2	generate	Run1	generate/STIM_016.jpg	100
434.645	2.073	2073.3	generate	Run1	generate/STIM_016.jpg	100
438.932	1.891	1891.1	generate	Run1	generate/STIM_017.jpg	99
444.664	1.26	1260.4	generate	Run1	generate/STIM_017.jpg	99
449.223	2.094	2093.9	generate	Run1	generate/STIM_017.jpg	99
455.0	2.139	2139.4	generate	Run1	generate/STIM_017.jpg	99
461.105	1.93	1929.7	generate	Run1	generate/STIM_017.jpg	100
465.806	2.784	2783.6	generate	Run1	generate/STIM_018.jpg	100
470.742	1.381	1381.4	generate	Run1	generate/STIM_018.jpg	100
474.289	1.948	1947.5	generate	Run1	generate/STIM_018.jpg	100
478.317	1.624	1624.2	generate	Run1	generate/STIM_018.jpg	100
482.392	1.425	1425.3	generate	Run1	generate/STIM_018.jpg	99
486.798	1.894	1893.7	generate	Run1	generate/STIM_019.jpg	99
491.769	2.06	2060.2	generate	Run1	generate/STIM_019.jpg	100
496.442	2.477	2476.6	generate	Run1	generate/STIM_019.jpg	100
502.747	1.623	1622.7	generate	Run1	generate/STIM_019.jpg	100
506.628	2.285	2285.3	generate	Run1	generate/STIM_019.jpg	99
512.713	2.803	2803.1	generate	Run1	generate/STIM_020.jpg	100
518.765	2.366	2366.2	generate	Run1	generate/STIM_020.jpg	100
523.172	1.539	1539.4	generate	Run1	generate/STIM_020.jpg	99
528.534	1.68	1679.9	generate	Run1	generate/STIM_020.jpg	99
533.042	1.724	1723.6	generate	Run1	generate/STIM_020.jpg	100
538.349	1.486	1485.9	generate	Run1	generate/STIM_021.jpg	100
543.655	1.476	1476.5	generate	Run1	generate/STIM_021.jpg	100
548.349	2.08	2080.1	generate	Run1	generate/STIM_021.jpg	99
553.201	1.793	1792.9	generate	Run1	generate/STIM_021.jpg	99
557.806	2.419	2419.1	generate	Run1	generate/STIM_021.jpg	100
563.907	1.553	1552.9	generate	Run1	generate/STIM_022.jpg	99
569.02	1.598	1597.6	generate	Run1	generate/STIM_022.jpg	100
574.097	1.454	1454.0	generate	Run1	generate/STIM_022.jpg	100
578.62	1.498	1497.8	generate	Run1	generate/STIM_022.jpg	100
584.111	1.747	1746.7	generate	Run1	generate/STIM_022.jpg	99
589.232	2.334	2334.3	generate	Run1	generate/STIM_023.jpg	99
593.841	2.917	2916.8	generate	Run1	generate/STIM_023.jpg	99
600.737	1.767	1766.8	generate	Run1	generate/STIM_023.jpg	99
604.945	1.697	1697.0	generate	Run1	generate/STIM_023.jpg	100
609.104	2.462	2461.6	generate	Run1	generate/STIM_023.jpg	100
614.748	1.42	1420.5	generate	Run1	generate/STIM_024.jpg	100
619.705	2.393	2393.2	generate	Run1	generate/STIM_024.jpg	99
625.275	2.865	2865.3	generate	Run1	generate/STIM_024.jpg	99
631.116	1.838	1838.0	generate	Run1	generate/STIM_024.jpg	99
635.718	1.836	1836.2	generate	Run1	generate/STIM_024.jpg	100
640.271	0.761	760.8	repeat	Run1	repeat/STIM_000.jpg	100
644.933	0.841	840.6	repeat	Run1	repeat/STIM_000.jpg	99
648.567	1.064	1064.0	repeat	Run1	repeat/STIM_000.jpg	100
653.442	0.589	589.3	repeat	Run1	repeat/STIM_000.jpg	100
657.194	0.921	921.0	repeat	Run1	repeat/STIM_000.jpg	100
661.04	1.014	1013.9	repeat	Run1	repeat/STIM_001.jpg	100
664.226	1.055	1055.1	repeat	Run1	repeat/STIM_001.jpg	100
668.255	0.66	660.2	repeat	Run1	repeat/STIM_001.jpg	100
671.315	1.02	1019.8	repeat	Run1	repeat/STIM_001.jpg	99
675.056	0.665	664.8	repeat	Run1	repeat/STIM_001.jpg	100
678.662	0.654	653.6	repeat	Run1	repeat/STIM_002.jpg	100
681.866	0.674	673.8	repeat	Run1	repeat/STIM_002.jpg	100
685.265	0.536	536.5	repeat	Run1	repeat/STIM_002.jpg	100
689.013	0.55	549.5	repeat	Run1	repeat/STIM_002.jpg	100
692.664	1.011	1011.3	repeat	Run1	repeat/STIM_002.jpg	100
695.892	0.658	658.1	repeat	Run1	repeat/STIM_003.jpg	99
700.519	0.654	653.6	repeat	Run1	repeat/STIM_003.jpg	99
703.408	0.586	585.6	repeat	Run1	repeat/STIM_003.jpg	100
706.898	0.875	875.2	repeat	Run1	repeat/STIM_003.jpg	99
710.697	0.996	995.9	repeat	Run1	repeat/STIM_003.jpg	99
715.404	1.018	1017.6	repeat	Run1	repeat/STIM_004.jpg	100
719.545	0.864	863.5	repeat	Run1	repeat/STIM_004.jpg	100
723.789	1.026	1025.9	repeat	Run1	repeat/STIM_004.jpg	99
728.014	0.983	982.7	repeat	Run1	repeat/STIM_004.jpg	99
731.42	0.97	970.2	repeat	Run1	repeat/STIM_004.jpg	99
735.577	0.954	953.8	repeat	Run1	repeat/STIM_005.jpg	100
740.473	0.944	943.7	repeat	Run1	repeat/STIM_005.jpg	99
744.673	0.654	654.1	repeat	Run1	repeat/STIM_005.jpg	99
748.694	1.021	1020.9	repeat	Run1	repeat/STIM_005.jpg	100
752.446	0.966	965.7	repeat	Run1	repeat/STIM_005.jpg	100
757.376	0.769	768.6	repeat	Run1	repeat/STIM_006.jpg	100
761.939	0.745	745.2	repeat	Run1	repeat/STIM_006.jpg	100
765.434	0.658	658.4	repeat	Run1	repeat/STIM_006.jpg	99
768.509	0.701	700.8	repeat	Run1	repeat/STIM_006.jpg	99
772.017	0.69	689.6	repeat	Run1	repeat/STIM_006.jpg	100
775.267	0.806	805.8	repeat	Run1	repeat/STIM_007.jpg	100
778.563	0.831	830.9	repeat	Run1	repeat/STIM_007.jpg	99
783.168	0.699	699.4	repeat	Run1	repeat/STIM_007.jpg	99
786.618	0.913	912.9	repeat	Run1	repeat/STIM_007.jpg	99
789.784	0.678	678.2	repeat	Run1	repeat/STIM_007.jpg	100
792.528	0.968	968.2	repeat	Run1	repeat/STIM_008.jpg	99
795.886	0.972	971.9	repeat	Run1	repeat/STIM_008.jpg	100
798.892	0.895	894.9	repeat	Run1	repeat/STIM_008.jpg	99
802.955	0.843	842.8	repeat	Run1	repeat/STIM_008.jpg	99
807.3	0.778	777.8	repeat	Run1	repeat/STIM_008.jpg	100
810.883	0.547	546.6	repeat	Run1	repeat/STIM_009.jpg	99
814.096	0.765	765.1	repeat	Run1	repeat/STIM_009.jpg	100
818.259	0.536	536.5	repeat	Run1	repeat/STIM_009.jpg	99
822.119	0.794	794.0	repeat	Run1	repeat/STIM_009.jpg	99
824.972	0.56	560.2	repeat	Run1	repeat/STIM_009.jpg	99
828.362	0.928	927.9	repeat	Run1	repeat/STIM_010.jpg	99
831.503	0.958	957.7	repeat	Run1	repeat/STIM_010.jpg	99
836.057	0.71	710.2	repeat	Run1	repeat/STIM_010.jpg	100
839.808	0.868	868.4	repeat	Run1	repeat/STIM_010.jpg	99
844.227	0.712	712.5	repeat	Run1	repeat/STIM_010.jpg	99
848.69	0.812	812.4	repeat	Run1	repeat/STIM_011.jpg	99
852.513	0.853	853.4	repeat	Run1	repeat/STIM_011.jpg	100
856.993	0.616	615.9	repeat	Run1	repeat/STIM_011.jpg	100
859.755	0.989	989.4	repeat	Run1	repeat/STIM_011.jpg	99
864.088	0.888	887.8	repeat	Run1	repeat/STIM_011.jpg	100
868.908	0.892	891.7	repeat	Run1	repeat/STIM_012.jpg	99
872.964	0.564	564.4	repeat	Run1	repeat/STIM_012.jpg	99
877.147	1.051	1051.1	repeat	Run1	repeat/STIM_012.jpg	100
881.544	0.573	572.6	repeat	Run1	repeat/STIM_012.jpg	100
885.665	0.913	912.8	repeat	Run1	repeat/STIM_012.jpg	100
888.662	0.677	677.2	repeat	Run1	repeat/STIM_013.jpg	100
892.014	0.623	623.4	repeat	Run1	repeat/STIM_013.jpg	99
895.978	0.7	699.8	repeat	Run1	repeat/STIM_013.jpg	99
900.571	0.901	901.3	repeat	Run1	repeat/STIM_013.jpg	100
904.395	1.025	1024.7	repeat	Run1	repeat/STIM_013.jpg	99
907.579	0.641	641.1	repeat	Run1	repeat/STIM_014.jpg	99
911.159	0.861	861.3	repeat	Run1	repeat/STIM_014.jpg	100
914.08	0.652	651.7	repeat	Run1	repeat/STIM_014.jpg	99
917.786	1.022	1022.2	repeat	Run1	repeat/STIM_014.jpg	99
920.863	0.565	565.1	repeat	Run1	repeat/STIM_014.jpg	100
925.272	1.566	1565.5	generate	Run2	generate/STIM_000.jpg	100
929.606	2.378	2377.9	generate	Run2	generate/STIM_000.jpg	99
934.215	1.222	1221.8	generate	Run2	generate/STIM_000.jpg	99
937.859	2.205	2205.4	generate	Run2	generate/STIM_000.jpg	100
943.567	1.811	1810.6	generate	Run2	generate/STIM_000.jpg	99
947.561	1.617	1616.7	generate	Run2	generate/STIM_001.jpg	99
952.771	2.288	2288.0	generate	Run2	generate/STIM_001.jpg	100
958.185	1.275	1275.1	generate	Run2	generate/STIM_001.jpg	100
962.631	1.839	1838.8	generate	Run2	generate/STIM_001.jpg	99
967.902	1.304	1304.2	generate	Run2	generate/STIM_001.jpg	99
971.959	1.934	1934.4	generate	Run2	generate/STIM_002.jpg	99
977.264	1.086	1086.5	generate	Run2	generate/STIM_002.jpg	99
982.127	2.253	2252.9	generate	Run2	generate/STIM_002.jpg	99
987.668	1.64	1639.8	generate	Run2	generate/STIM_002.jpg	99
991.509	1.115	1114.8	generate	Run2	generate/STIM_002.jpg	100
995.104	2.332	2332.3	generate	Run2	generate/STIM_003.jpg	100
999.717	2.024	2023.6	generate	Run2	generate/STIM_003.jpg	100
1005.041	1.085	1084.7	generate	Run2	generate/STIM_003.jpg	99
1010.044	1.056	1056.2	generate	Run2	generate/STIM_003.jpg	99
1014.889	1.958	1958.4	generate	Run2	generate/STIM_003.jpg	99
1019.43	2.602	2601.8	generate	Run2	generate/STIM_004.jpg	99
1025.953	2.351	2350.9	generate	Run2	generate/STIM_004.jpg	100
1031.615	2.336	2336.1	generate	Run2	generate/STIM_004.jpg	99
1036.174	1.662	1662.2	generate	Run2	generate/STIM_004.jpg	99
1040.959	1.48	1479.7	generate	Run2	generate/STIM_004.jpg	100
1046.17	1.827	1826.8	generate	Run2	generate/STIM_005.jpg	99
1050.863	1.567	1567.0	generate	Run2	generate/STIM_005.jpg	99
1054.669	1.757	1757.4	generate	Run2	generate/STIM_005.jpg	99
1060.005	0.897	896.9	generate	Run2	generate/STIM_005.jpg	99
1064.399	1.379	1378.9	generate	Run2	generate/STIM_005.jpg	99
1069.225	2.512	2511.5	generate	Run2	generate/STIM_006.jpg	100
1074.505	1.25	1250.2	generate	Run2	generate/STIM_006.jpg	100
1079.081	1.44	1440.4	generate	Run2	generate/STIM_006.jpg	99
1082.634	0.97	969.6	generate	Run2	generate/STIM_006.jpg	100
1087.512	1.132	1132.1	generate	Run2	generate/STIM_006.jpg	100
1092.407	2.59	2590.5	generate	Run2	generate/STIM_007.jpg	99
1097.096	1.155	1154.9	generate	Run2	generate/STIM_007.jpg	100
1101.843	1.501	1501.3	generate	Run2	generate/STIM_007.jpg	100
1107.167	1.584	1584.0	generate	Run2	generate/STIM_007.jpg	99
1112.67	1.078	1078.3	generate	Run2	generate/STIM_007.jpg	99
1117.164	1.129	1128.6	generate	Run2	generate/STIM_008.jpg	99
1121.855	1.32	1319.8	generate	Run2	generate/STIM_008.jpg	100
1125.38	1.978	1978.5	generate	Run2	generate/STIM_008.jpg	99
1130.864	1.169	1168.8	generate	Run2	generate/STIM_008.jpg	100
1135.131	1.052	1051.8	generate	Run2	generate/STIM_008.jpg	100
1139.287	1.273	1273.2	generate	Run2	generate/STIM_009.jpg	99
1144.218	2.221	2220.9	generate	Run2	generate/STIM_009.jpg	100
1149.358	2.328	2328.5	generate	Run2	generate/STIM_009.jpg	100
1153.934	2.076	2076.5	generate	Run2	generate/STIM_009.jpg	99
1158.915	1.947	1947.3	generate	Run2	generate/STIM_009.jpg	99
1163.816	2.245	2245.3	generate	Run2	generate/STIM_010.jpg	99
1169.603	1.816	1816.5	generate	Run2	generate/STIM_010.jpg	100
1173.596	1.656	1656.1	generate	Run2	generate/STIM_010.jpg	99
1178.042	1.655	1655.0	generate	Run2	generate/STIM_010.jpg	100
1182.931	0.896	895.7	generate	Run2	generate/STIM_010.jpg	99
1187.246	2.081	2080.7	generate	Run2	generate/STIM_011.jpg	100
1191.802	1.832	1832.1	generate	Run2	generate/STIM_011.jpg	99
1196.079	1.065	1065.3	generate	Run2	generate/STIM_011.jpg	99
1199.455	1.072	1072.5	generate	Run2	generate/STIM_011.jpg	99
1203.109	1.027	1027.0	generate	Run2	generate/STIM_011.jpg	100
1206.494	2.168	2167.7	generate	Run2	generate/STIM_012.jpg	100
1210.823	1.362	1361.5	generate	Run2	generate/STIM_012.jpg	99
1214.624	1.555	1555.4	generate	Run2	generate/STIM_012.jpg	100
1219.821	2.089	2089.2	generate	Run2	generate/STIM_012.jpg	99
1225.331	1.196	1195.9	generate	Run2	generate/STIM_012.jpg	99
1228.858	1.674	1673.7	generate	Run2	generate/STIM_013.jpg	100
1233.517	1.5	1499.7	generate	Run2	generate/STIM_013.jpg	100
1238.629	2.05	2050.4	generate	Run2	generate/STIM_013.jpg	99
1244.584	1.984	1984.1	generate	Run2	generate/STIM_013.jpg	100
1249.015	0.998	998.2	generate	Run2	generate/STIM_013.jpg	99
1252.185	1.094	1094.3	generate	Run2	generate/STIM_014.jpg	100
1256.419	1.122	1121.8	generate	Run2	generate/STIM_014.jpg	99
1261.306	2.325	2325.4	generate	Run2	generate/STIM_014.jpg	99
1267.205	1.704	1704.1	generate	Run2	generate/STIM_014.jpg	99
1272.051	1.842	1841.9	generate	Run2	generate/STIM_014.jpg	100
1276.305	2.249	2249.0	generate	Run2	generate/STIM_015.jpg	99
1280.795	2.324	2324.3	generate	Run2	generate/STIM_015.jpg	99
1285.631	1.837	1836.6	generate	Run2	generate/STIM_015.jpg	99
1290.004	2.104	2103.7	generate	Run2	generate/STIM_015.jpg	100
1294.628	0.988	988.0	generate	Run2	generate/STIM_015.jpg	99
1298.059	1.51	1509.7	generate	Run2	generate/STIM_016.jpg	100
1303.332	2.453	2453.1	generate	Run2	generate/STIM_016.jpg	100
1309.566	1.554	1553.9	generate	Run2	generate/STIM_016.jpg	99
1314.9	1.704	1704.3	generate	Run2	generate/STIM_016.jpg	99
1318.764	2.099	2098.6	generate	Run2	generate/STIM_016.jpg	99
1323.671	1.714	1714.5	generate	Run2	generate/STIM_017.jpg	100
1327.67	2.259	2259.1	generate	Run2	generate/STIM_017.jpg	99
1332.616	2.037	2037.0	generate	Run2	generate/STIM_017.jpg	100
1337.47	1.808	1808.3	generate	Run2	generate/STIM_017.jpg	100
1343.044	2.158	2157.6	generate	Run2	generate/STIM_017.jpg	99
1348.418	1.865	1864.6	generate	Run2	generate/STIM_018.jpg	99
1352.581	2.132	2131.5	generate	Run2	generate/STIM_018.jpg	99
1357.953	1.766	1765.6	generate	Run2	generate/STIM_018.jpg	99
1362.67	2.17	2169.8	generate	Run2	generate/STIM_018.jpg	100
1367.551	1.578	1578.5	generate	Run2	generate/STIM_018.jpg	99
1372.505	1.479	1478.9	generate	Run2	generate/STIM_019.jpg	100
1376.74	1.702	1701.6	generate	Run2	generate/STIM_019.jpg	100
1380.707	1.338	1338.1	generate	Run2	generate/STIM_019.jpg	99
1385.564	1.34	1339.6	generate	Run2	generate/STIM_019.jpg	100
1390.672	1.975	1975.3	generate	Run2	generate/STIM_019.jpg	99
1394.814	1.323	1322.7	generate	Run2	generate/STIM_020.jpg	100
1399.616	1.7	1700.4	generate	Run2	generate/STIM_020.jpg	100
1404.639	1.785	1785.0	generate	Run2	generate/STIM_020.jpg	99
1408.892	1.09	1090.4	generate	Run2	generate/STIM_020.jpg	100
1412.804	1.958	1958.2	generate	Run2	generate/STIM_020.jpg	100
1417.943	1.335	1334.8	generate	Run2	generate/STIM_021.jpg	100
1421.998	1.46	1459.9	generate	Run2	generate/STIM_021.jpg	100
1427.168	2.374	2374.3	generate	Run2	generate/STIM_021.jpg	100
1433.115	1.266	1266.0	generate	Run2	generate/STIM_021.jpg	100
1436.513	1.744	1743.9	generate	Run2	generate/STIM_021.jpg	100
1440.341	1.491	1490.9	generate	Run2	generate/STIM_022.jpg	99
1444.603	1.859	1859.0	generate	Run2	generate/STIM_022.jpg	99
1450.131	1.102	1102.0	generate	Run2	generate/STIM_022.jpg	99
1454.364	0.992	991.5	generate	Run2	generate/STIM_022.jpg	99
1457.672	1.337	1336.7	generate	Run2	generate/STIM_022.jpg	100
1461.413	1.264	1264.3	generate	Run2	generate/STIM_023.jpg	99
1465.67	1.112	1112.5	generate	Run2	generate/STIM_023.jpg	100
1469.363	1.487	1486.9	generate	Run2	generate/STIM_023.jpg	100
1474.133	1.974	1974.3	generate	Run2	generate/STIM_023.jpg	99
1479.459	1.669	1668.9	generate	Run2	generate/STIM_023.jpg	100
1484.088	1.235	1234.7	generate	Run2	generate/STIM_024.jpg	100
1487.876	1.575	1574.9	generate	Run2	generate/STIM_024.jpg	99
1492.306	1.926	1925.6	generate	Run2	generate/STIM_024.jpg	100
1496.327	1.591	1591.0	generate	Run2	generate/STIM_024.jpg	99
1500.725	1.788	1787.8	generate	Run2	generate/STIM_024.jpg	99
1505.617	1.002	1001.8	repeat	Run2	repeat/STIM_000.jpg	100
1509.005	0.969	969.1	repeat	Run2	repeat/STIM_000.jpg	99
1512.597	0.913	913.3	repeat	Run2	repeat/STIM_000.jpg	99
1516.117	0.932	931.5	repeat	Run2	repeat/STIM_000.jpg	99
1520.036	0.74	740.3	repeat	Run2	repeat/STIM_000.jpg	99
1524.48	0.703	703.0	repeat	Run2	repeat/STIM_001.jpg	100
1528.545	0.608	607.6	repeat	Run2	repeat/STIM_001.jpg	99
1532.865	0.592	592.0	repeat	Run2	repeat/STIM_001.jpg	100
1536.966	0.566	565.8	repeat	Run2	repeat/STIM_001.jpg	100
1540.463	1.01	1010.5	repeat	Run2	repeat/STIM_001.jpg	100
1544.14	0.613	612.8	repeat	Run2	repeat/STIM_002.jpg	99
1546.936	0.866	865.5	repeat	Run2	repeat/STIM_002.jpg	100
1550.817	0.98	980.5	repeat	Run2	repeat/STIM_002.jpg	100
1555.573	0.938	938.2	repeat	Run2	repeat/STIM_002.jpg	99
1559.401	0.549	549.2	repeat	Run2	repeat/STIM_002.jpg	99
1563.736	0.85	850.0	repeat	Run2	repeat/STIM_003.jpg	99
1566.62	0.724	724.0	repeat	Run2	repeat/STIM_003.jpg	99
1571.057	0.99	990.5	repeat	Run2	repeat/STIM_003.jpg	99
1575.236	0.544	544.3	repeat	Run2	repeat/STIM_003.jpg	99
1579.677	0.931	931.3	repeat	Run2	repeat/STIM_003.jpg	99
1584.066	0.639	639.4	repeat	Run2	repeat/STIM_004.jpg	99
1586.869	0.832	831.6	repeat	Run2	repeat/STIM_004.jpg	100
1590.852	0.585	585.4	repeat	Run2	repeat/STIM_004.jpg	100
1595.067	0.64	639.9	repeat	Run2	repeat/STIM_004.jpg	100
1598.581	0.708	708.0	repeat	Run2	repeat/STIM_004.jpg	99
1601.658	0.928	928.1	repeat	Run2	repeat/STIM_005.jpg	100
1606.079	0.64	640.2	repeat	Run2	repeat/STIM_005.jpg	99
1609.708	0.827	827.1	repeat	Run2	repeat/STIM_005.jpg	99
1613.178	0.821	821.1	repeat	Run2	repeat/STIM_005.jpg	100
1616.7	0.729	729.3	repeat	Run2	repeat/STIM_005.jpg	100
1620.457	0.847	847.0	repeat	Run2	repeat/STIM_006.jpg	99
1623.525	0.721	721.0	repeat	Run2	repeat/STIM_006.jpg	99
1628.15	0.838	838.3	repeat	Run2	repeat/STIM_006.jpg	99
1632.458	0.892	891.8	repeat	Run2	repeat/STIM_006.jpg	100
1636.463	0.742	741.9	repeat	Run2	repeat/STIM_006.jpg	99
1639.656	0.669	669.4	repeat	Run2	repeat/STIM_007.jpg	99
1643.869	0.821	821.3	repeat	Run2	repeat/STIM_007.jpg	100
1647.637	0.782	782.3	repeat	Run2	repeat/STIM_007.jpg	100
1651.406	0.577	576.7	repeat	Run2	repeat/STIM_007.jpg	100
1655.925	0.956	955.8	repeat	Run2	repeat/STIM_007.jpg	99
1659.827	1.0	999.9	repeat	Run2	repeat/STIM_008.jpg	99
1664.772	0.747	746.8	repeat	Run2	repeat/STIM_008.jpg	99
1668.884	0.97	970.2	repeat	Run2	repeat/STIM_008.jpg	100
1672.683	0.784	784.3	repeat	Run2	repeat/STIM_008.jpg	99
1677.286	1.034	1033.5	repeat	Run2	repeat/STIM_008.jpg	100
1681.709	0.978	977.5	repeat	Run2	repeat/STIM_009.jpg	100
1685.192	0.747	747.2	repeat	Run2	repeat/STIM_009.jpg	99
1688.262	1.059	1058.8	repeat	Run2	repeat/STIM_009.jpg	100
1691.782	0.686	686.4	repeat	Run2	repeat/STIM_009.jpg	100
1695.018	1.016	1016.3	repeat	Run2	repeat/STIM_009.jpg	99
1699.854	0.553	552.6	repeat	Run2	repeat/STIM_010.jpg	99
1703.844	1.035	1034.8	repeat	Run2	repeat/STIM_010.jpg	100
1708.206	0.678	678.2	repeat	Run2	repeat/STIM_010.jpg	100
1712.605	0.6	600.1	repeat	Run2	repeat/STIM_010.jpg	99
1715.678	0.917	917.0	repeat	Run2	repeat/STIM_010.jpg	100
1719.622	1.016	1016.4	repeat	Run2	repeat/STIM_011.jpg	100
1724.033	0.755	755.2	repeat	Run2	repeat/STIM_011.jpg	99
1727.325	0.717	717.1	repeat	Run2	repeat/STIM_011.jpg	99
1730.665	0.66	659.7	repeat	Run2	repeat/STIM_011.jpg	100
1735.259	1.023	1023.4	repeat	Run2	repeat/STIM_011.jpg	99
1738.719	0.905	905.2	repeat	Run2	repeat/STIM_012.jpg	100
1742.525	1.014	1014.2	repeat	Run2	repeat/STIM_012.jpg	99
1746.477	1.008	1007.5	repeat	Run2	repeat/STIM_012.jpg	99
1750.65	0.958	957.8	repeat	Run2	repeat/STIM_012.jpg	99
1754.143	0.544	544.1	repeat	Run2	repeat/STIM_012.jpg	100
1757.238	0.836	836.5	repeat	Run2	repeat/STIM_013.jpg	99
1761.633	0.982	982.1	repeat	Run2	repeat/STIM_013.jpg	100
1764.725	0.994	994.0	repeat	Run2	repeat/STIM_013.jpg	99
1768.586	0.872	871.6	repeat	Run2	repeat/STIM_013.jpg	100
1771.746	0.696	695.9	repeat	Run2	repeat/STIM_013.jpg	100
1776.242	0.832	831.6	repeat	Run2	repeat/STIM_014.jpg	100
1780.156	0.835	835.1	repeat	Run2	repeat/STIM_014.jpg	99
1783.837	0.768	768.4	repeat	Run2	repeat/STIM_014.jpg	100
1787.037	0.558	557.6	repeat	Run2	repeat/STIM_014.jpg	100
1789.795	0.65	649.8	repeat	Run2	repeat/STIM_014.jpg	100
1793.279	1.188	1188.2	generate	Run3	generate/STIM_000.jpg	99
1796.647	2.114	2114.2	generate	Run3	generate/STIM_000.jpg	100
1801.01	1.418	1418.3	generate	Run3	generate/STIM_000.jpg	99
1805.188	2.175	2175.0	generate	Run3	generate/STIM_000.jpg	100
1810.483	1.093	1093.4	generate	Run3	generate/STIM_000.jpg	100
1815.483	1.787	1786.6	generate	Run3	generate/STIM_001.jpg	100
1820.513	2.054	2053.5	generate	Run3	generate/STIM_001.jpg	99
1825.948	0.967	967.2	generate	Run3	generate/STIM_001.jpg	100
1829.547	1.294	1293.9	generate	Run3	generate/STIM_001.jpg	99
1833.51	1.207	1207.4	generate	Run3	generate/STIM_001.jpg	100
1837.146	1.281	1280.6	generate	Run3	generate/STIM_002.jpg	99
1841.377	1.956	1955.6	generate	Run3	generate/STIM_002.jpg	100
1846.947	2.114	2113.7	generate	Run3	generate/STIM_002.jpg	99
1851.818	1.476	1475.8	generate	Run3	generate/STIM_002.jpg	100
1856.809	1.482	1481.6	generate	Run3	generate/STIM_002.jpg	100
1860.934	1.227	1227.4	generate	Run3	generate/STIM_003.jpg	99
1864.235	1.043	1043.0	generate	Run3	generate/STIM_003.jpg	100
1868.257	2.221	2221.4	generate	Run3	generate/STIM_003.jpg	100
1874.469	0.901	901.3	generate	Run3	generate/STIM_003.jpg	100
1878.01	2.153	2153.4	generate	Run3	generate/STIM_003.jpg	100
1883.977	2.232	2231.5	generate	Run3	generate/STIM_004.jpg	99
1889.968	1.081	1081.4	generate	Run3	generate/STIM_004.jpg	99
1894.33	1.116	1116.2	generate	Run3	generate/STIM_004.jpg	99
1899.41	1.581	1580.6	generate	Run3	generate/STIM_004.jpg	100
1903.25	0.96	959.6	generate	Run3	generate/STIM_004.jpg	99
1907.193	1.609	1608.6	generate	Run3	generate/STIM_005.jpg	99
1911.133	1.726	1726.4	generate	Run3	generate/STIM_005.jpg	100
1916.293	2.164	2164.0	generate	Run3	generate/STIM_005.jpg	99
1921.395	2.165	2165.1	generate	Run3	generate/STIM_005.jpg	99
1925.815	1.275	1275.3	generate	Run3	generate/STIM_005.jpg	100
1930.062	1.557	1556.7	generate	Run3	generate/STIM_006.jpg	99
1934.53	1.574	1574.1	generate	Run3	generate/STIM_006.jpg	99
1939.022	1.332	1331.6	generate	Run3	generate/STIM_006.jpg	99
1943.195	1.707	1706.7	generate	Run3	generate/STIM_006.jpg	100
1946.927	2.21	2210.0	generate	Run3	generate/STIM_006.jpg	100
1951.505	1.99	1989.7	generate	Run3	generate/STIM_007.jpg	100
1956.902	0.895	894.8	generate	Run3	generate/STIM_007.jpg	99
1961.338	1.413	1413.3	generate	Run3	generate/STIM_007.jpg	100
1965.891	1.135	1135.1	generate	Run3	generate/STIM_007.jpg	99
1969.549	1.446	1446.0	generate	Run3	generate/STIM_007.jpg	99
1974.534	2.142	2142.4	generate	Run3	generate/STIM_008.jpg	100
1979.334	1.769	1769.0	generate	Run3	generate/STIM_008.jpg	100
1983.887	0.936	935.5	generate	Run3	generate/STIM_008.jpg	99
1988.442	1.045	1044.8	generate	Run3	generate/STIM_008.jpg	99
1991.847	0.924	923.6	generate	Run3	generate/STIM_008.jpg	100
1995.97	0.985	984.9	generate	Run3	generate/STIM_009.jpg	100
2000.156	1.025	1024.8	generate	Run3	generate/STIM_009.jpg	99
2004.475	1.384	1383.9	generate	Run3	generate/STIM_009.jpg	100
2008.115	2.097	2096.9	generate	Run3	generate/STIM_009.jpg	100
2012.847	2.198	2197.7	generate	Run3	generate/STIM_009.jpg	100
2018.037	1.182	1182.1	generate	Run3	generate/STIM_010.jpg	100
2021.311	2.17	2170.2	generate	Run3	generate/STIM_010.jpg	100
2026.973	1.21	1210.3	generate	Run3	generate/STIM_010.jpg	100
2031.595	1.792	1792.0	generate	Run3	generate/STIM_010.jpg	99
2036.785	1.142	1142.3	generate	Run3	generate/STIM_010.jpg	100
2040.096	1.779	1779.3	generate	Run3	generate/STIM_011.jpg	99
2044.276	1.066	1065.9	generate	Run3	generate/STIM_011.jpg	99
2049.032	1.091	1090.9	generate	Run3	generate/STIM_011.jpg	100
2053.187	1.33	1329.5	generate	Run3	generate/STIM_011.jpg	100
2057.468	1.81	1809.7	generate	Run3	generate/STIM_011.jpg	99
2061.759	1.311	1311.4	generate	Run3	generate/STIM_012.jpg	99
2066.345	1.398	1398.4	generate	Run3	generate/STIM_012.jpg	99
2069.992	1.836	1836.0	generate	Run3	generate/STIM_012.jpg	100
2074.392	0.902	901.5	generate	Run3	generate/STIM_012.jpg	100
2079.145	1.438	1437.6	generate	Run3	generate/STIM_012.jpg	100
2083.927	2.09	2089.7	generate	Run3	generate/STIM_013.jpg	99
2088.462	2.063	2063.0	generate	Run3	generate/STIM_013.jpg	99
2093.578	1.89	1889.9	generate	Run3	generate/STIM_013.jpg	99
2098.198	2.231	2230.6	generate	Run3	generate/STIM_013.jpg	100
2103.26	1.015	1014.9	generate	Run3	generate/STIM_013.jpg	100
2107.935	1.77	1770.4	generate	Run3	generate/STIM_014.jpg	100
2113.119	1.542	1542.0	generate	Run3	generate/STIM_014.jpg	100
2116.786	1.379	1379.3	generate	Run3	generate/STIM_014.jpg	99
2121.355	1.211	1210.7	generate	Run3	generate/STIM_014.jpg	99
2126.224	2.015	2014.9	generate	Run3	generate/STIM_014.jpg	99
2131.421	1.411	1410.8	generate	Run3	generate/STIM_015.jpg	99
2136.358	1.416	1416.2	generate	Run3	generate/STIM_015.jpg	99
2141.184	2.074	2073.7	generate	Run3	generate/STIM_015.jpg	99
2145.55	2.011	2011.3	generate	Run3	generate/STIM_015.jpg	100
2149.779	1.53	1530.4	generate	Run3	generate/STIM_015.jpg	100
2153.959	2.139	2139.3	generate	Run3	generate/STIM_016.jpg	99
2159.728	1.535	1535.1	generate	Run3	generate/STIM_016.jpg	100
2163.96	2.062	2061.7	generate	Run3	generate/STIM_016.jpg	99
2168.959	1.855	1855.0	generate	Run3	generate/STIM_016.jpg	99
2173.243	1.688	1687.7	generate	Run3	generate/STIM_016.jpg	99
2178.028	1.538	1537.8	generate	Run3	generate/STIM_017.jpg	100
2183.06	1.104	1103.6	generate	Run3	generate/STIM_017.jpg	99
2187.482	2.024	2023.9	generate	Run3	generate/STIM_017.jpg	100
2193.303	1.749	1749.1	generate	Run3	generate/STIM_017.jpg	99
2198.758	1.569	1569.3	generate	Run3	generate/STIM_017.jpg	99
2203.119	1.988	1988.1	generate	Run3	generate/STIM_018.jpg	100
2207.371	1.757	1757.2	generate	Run3	generate/STIM_018.jpg	100
2211.786	1.841	1841.0	generate	Run3	generate/STIM_018.jpg	100
2217.437	1.821	1820.6	generate	Run3	generate/STIM_018.jpg	100
2221.725	1.08	1080.5	generate	Run3	generate/STIM_018.jpg	100
2225.21	1.476	1475.7	generate	Run3	generate/STIM_019.jpg	100
2229.611	1.369	1369.2	generate	Run3	generate/STIM_019.jpg	99
2234.176	1.864	1864.2	generate	Run3	generate/STIM_019.jpg	100
2238.098	1.804	1804.2	generate	Run3	generate/STIM_019.jpg	100
2242.62	1.745	1744.9	generate	Run3	generate/STIM_019.jpg	99
2247.372	1.982	1982.2	generate	Run3	generate/STIM_020.jpg	99
2252.357	2.13	2129.9	generate	Run3	generate/STIM_020.jpg	99
2257.574	1.484	1483.6	generate	Run3	generate/STIM_020.jpg	99
2261.827	1.384	1383.8	generate	Run3	generate/STIM_020.jpg	100
2267.172	2.026	2025.7	generate	Run3	generate/STIM_020.jpg	100
2272.126	2.096	2095.7	generate	Run3	generate/STIM_021.jpg	100
2277.247	2.08	2079.8	generate	Run3	generate/STIM_021.jpg	100
2282.771	1.516	1516.0	generate	Run3	generate/STIM_021.jpg	99
2286.494	0.978	978.0	generate	Run3	generate/STIM_021.jpg	100
2291.453	1.339	1339.1	generate	Run3	generate/STIM_021.jpg	100
2295.054	1.426	1426.3	generate	Run3	generate/STIM_022.jpg	99
2299.886	1.654	1653.6	generate	Run3	generate/STIM_022.jpg	99
2304.804	1.47	1470.5	generate	Run3	generate/STIM_022.jpg	100
2308.482	1.682	1681.6	generate	Run3	generate/STIM_022.jpg	100
2312.442	1.041	1040.9	generate	Run3	generate/STIM_022.jpg	100
2317.032	1.256	1255.6	generate	Run3	generate/STIM_023.jpg	99
2322.087	2.136	2135.8	generate	Run3	generate/STIM_023.jpg	100
2328.118	1.424	1424.4	generate	Run3	generate/STIM_023.jpg	99
2332.239	1.957	1956.7	generate	Run3	generate/STIM_023.jpg	100
2336.28	1.182	1181.8	generate	Run3	generate/STIM_023.jpg	100
2339.519	1.959	1958.7	generate	Run3	generate/STIM_024.jpg	100
2344.179	1.745	1745.2	generate	Run3	generate/STIM_024.jpg	100
2349.566	1.154	1154.2	generate	Run3	generate/STIM_024.jpg	100
2352.741	1.581	1580.7	generate	Run3	generate/STIM_024.jpg	100
2357.998	1.453	1452.8	generate	Run3	generate/STIM_024.jpg	100
2363.152	0.886	886.0	repeat	Run3	repeat/STIM_000.jpg	100
2367.443	0.878	878.3	repeat	Run3	repeat/STIM_000.jpg	100
2372.137	1.063	1063.1	repeat	Run3	repeat/STIM_000.jpg	100
2375.783	0.643	643.1	repeat	Run3	repeat/STIM_000.jpg	99
2380.41	0.689	689.3	repeat	Run3	repeat/STIM_000.jpg	100
2383.524	1.033	1032.6	repeat	Run3	repeat/STIM_001.jpg	99
2388.174	0.767	767.0	repeat	Run3	repeat/STIM_001.jpg	100
2391.698	0.788	787.7	repeat	Run3	repeat/STIM_001.jpg	100
2395.126	0.691	690.7	repeat	Run3	repeat/STIM_001.jpg	99
2397.864	0.757	756.9	repeat	Run3	repeat/STIM_001.jpg	99
2401.582	0.934	934.0	repeat	Run3	repeat/STIM_002.jpg	99
2404.876	0.6	600.2	repeat	Run3	repeat/STIM_002.jpg	99
2408.024	0.555	555.3	repeat	Run3	repeat/STIM_002.jpg	99
2410.788	0.988	987.7	repeat	Run3	repeat/STIM_002.jpg	99
2414.142	0.957	956.7	repeat	Run3	repeat/STIM_002.jpg	99
2418.408	0.624	624.2	repeat	Run3	repeat/STIM_003.jpg	100
2421.965	0.781	781.2	repeat	Run3	repeat/STIM_003.jpg	100
2426.322	0.974	974.0	repeat	Run3	repeat/STIM_003.jpg	100
2429.99	0.875	874.7	repeat	Run3	repeat/STIM_003.jpg	100
2433.341	1.028	1027.6	repeat	Run3	repeat/STIM_003.jpg	99
2437.614	1.029	1028.8	repeat	Run3	repeat/STIM_004.jpg	99
2440.942	0.804	804.3	repeat	Run3	repeat/STIM_004.jpg	99
2445.592	0.822	822.5	repeat	Run3	repeat/STIM_004.jpg	99
2450.011	0.752	752.5	repeat	Run3	repeat/STIM_004.jpg	99
2454.686	0.692	692.4	repeat	Run3	repeat/STIM_004.jpg	100
2458.406	0.978	978.0	repeat	Run3	repeat/STIM_005.jpg	99
2463.086	0.593	592.9	repeat	Run3	repeat/STIM_005.jpg	100
2466.806	0.829	828.6	repeat	Run3	repeat/STIM_005.jpg	99
2470.055	0.887	886.7	repeat	Run3	repeat/STIM_005.jpg	100
2474.011	0.624	624.1	repeat	Run3	repeat/STIM_005.jpg	100
2478.297	0.797	796.9	repeat	Run3	repeat/STIM_006.jpg	100
2482.558	0.638	638.0	repeat	Run3	repeat/STIM_006.jpg	100
2485.707	0.614	613.9	repeat	Run3	repeat/STIM_006.jpg	100
2490.223	0.826	825.5	repeat	Run3	repeat/STIM_006.jpg	99
2493.545	0.612	611.9	repeat	Run3	repeat/STIM_006.jpg	100
2497.793	0.644	643.9	repeat	Run3	repeat/STIM_007.jpg	100
2501.469	0.878	877.7	repeat	Run3	repeat/STIM_007.jpg	99
2505.316	0.855	855.1	repeat	Run3	repeat/STIM_007.jpg	99
2509.673	0.716	716.5	repeat	Run3	repeat/STIM_007.jpg	99
2513.707	0.881	881.4	repeat	Run3	repeat/STIM_007.jpg	99
2517.617	0.842	842.2	repeat	Run3	repeat/STIM_008.jpg	100
2520.498	0.74	740.5	repeat	Run3	repeat/STIM_008.jpg	99
2524.967	0.871	871.4	repeat	Run3	repeat/STIM_008.jpg	99
2529.13	0.665	664.6	repeat	Run3	repeat/STIM_008.jpg	99
2533.72	0.704	703.7	repeat	Run3	repeat/STIM_008.jpg	100
2536.539	0.641	641.1	repeat	Run3	repeat/STIM_009.jpg	100
2540.711	0.746	746.2	repeat	Run3	repeat/STIM_009.jpg	100
2544.722	0.585	585.4	repeat	Run3	repeat/STIM_009.jpg	100
2548.096	0.57	569.5	repeat	Run3	repeat/STIM_009.jpg	99
2550.873	0.792	792.5	repeat	Run3	repeat/STIM_009.jpg	99
2554.81	0.59	589.5	repeat	Run3	repeat/STIM_010.jpg	100
2559.266	0.658	657.7	repeat	Run3	repeat/STIM_010.jpg	99
2563.252	0.694	694.2	repeat	Run3	repeat/STIM_010.jpg	99
2567.261	0.855	855.1	repeat	Run3	repeat/STIM_010.jpg	100
2571.127	0.6	599.8	repeat	Run3	repeat/STIM_010.jpg	100
2573.81	1.02	1020.1	repeat	Run3	repeat/STIM_011.jpg	100
2578.465	0.908	908.5	repeat	Run3	repeat/STIM_011.jpg	100
2582.853	0.98	980.0	repeat	Run3	repeat/STIM_011.jpg	100
2587.365	0.963	962.9	repeat	Run3	repeat/STIM_011.jpg	99
2590.478	1.015	1015.0	repeat	Run3	repeat/STIM_011.jpg	100
2593.853	0.833	832.6	repeat	Run3	repeat/STIM_012.jpg	100
2596.885	0.929	929.3	repeat	Run3	repeat/STIM_012.jpg	99
2600.309	0.918	918.1	repeat	Run3	repeat/STIM_012.jpg	99
2603.408	0.552	551.8	repeat	Run3	repeat/STIM_012.jpg	99
2606.786	1.009	1009.0	repeat	Run3	repeat/STIM_012.jpg	99
2610.745	0.819	818.9	repeat	Run3	repeat/STIM_013.jpg	100
2614.771	0.906	906.2	repeat	Run3	repeat/STIM_013.jpg	100
2619.562	0.618	617.9	repeat	Run3	repeat/STIM_013.jpg	100
2623.095	0.544	544.1	repeat	Run3	repeat/STIM_013.jpg	100
2626.414	0.677	676.7	repeat	Run3	repeat/STIM_013.jpg	99
2630.896	0.778	777.5	repeat	Run3	repeat/STIM_014.jpg	100
2633.675	0.925	925.3	repeat	Run3	repeat/STIM_014.jpg	99
2637.869	0.949	948.8	repeat	Run3	repeat/STIM_014.jpg	100
2642.307	0.599	599.1	repeat	Run3	repeat/STIM_014.jpg	99
2646.85	0.74	740.1	repeat	Run3	repeat/STIM_014.jpg	100
2651.447	0.975	974.6	generate	Run4	generate/STIM_000.jpg	99
2655.94	2.035	2034.8	generate	Run4	generate/STIM_000.jpg	99
2661.069	1.557	1557.3	generate	Run4	generate/STIM_000.jpg	100
2665.417	1.625	1624.8	generate	Run4	generate/STIM_000.jpg	99
2669.556	2.142	2142.1	generate	Run4	generate/STIM_000.jpg	100
2675.249	0.936	935.8	generate	Run4	generate/STIM_001.jpg	99
2679.2	1.724	1723.8	generate	Run4	generate/STIM_001.jpg	99
2683.99	1.007	1006.7	generate	Run4	generate/STIM_001.jpg	99
2688.034	0.956	955.9	generate	Run4	generate/STIM_001.jpg	100
2692.609	1.082	1082.3	generate	Run4	generate/STIM_001.jpg	100
2695.952	2.205	2204.7	generate	Run4	generate/STIM_002.jpg	99
2700.158	2.202	2202.1	generate	Run4	generate/STIM_002.jpg	99
2705.309	1.716	1716.5	generate	Run4	generate/STIM_002.jpg	100
2709.587	1.887	1887.2	generate	Run4	generate/STIM_002.jpg	99
2715.177	1.734	1733.9	generate	Run4	generate/STIM_002.jpg	100
2719.238	1.708	1708.5	generate	Run4	generate/STIM_003.jpg	99
2724.732	2.13	2130.2	generate	Run4	generate/STIM_003.jpg	99
2729.764	1.7	1699.7	generate	Run4	generate/STIM_003.jpg	100
2733.991	2.18	2179.9	generate	Run4	generate/STIM_003.jpg	99
2740.098	2.111	2111.2	generate	Run4	generate/STIM_003.jpg	99
2744.906	0.993	993.3	generate	Run4	generate/STIM_004.jpg	100
2748.771	1.858	1858.0	generate	Run4	generate/STIM_004.jpg	99
2753.018	1.82	1820.1	generate	Run4	generate/STIM_004.jpg	100
2758.513	0.964	963.8	generate	Run4	generate/STIM_004.jpg	99
2762.617	2.132	2132.1	generate	Run4	generate/STIM_004.jpg	100
2766.996	1.326	1326.4	generate	Run4	generate/STIM_005.jpg	99
2771.08	1.269	1268.7	generate	Run4	generate/STIM_005.jpg	100
2774.76	1.279	1279.4	generate	Run4	generate/STIM_005.jpg	99
2779.856	1.052	1052.1	generate	Run4	generate/STIM_005.jpg	100
2784.534	1.198	1198.0	generate	Run4	generate/STIM_005.jpg	100
2788.828	1.382	1382.5	generate	Run4	generate/STIM_006.jpg	99
2792.716	1.518	1518.5	generate	Run4	generate/STIM_006.jpg	99
2798.037	2.234	2233.8	generate	Run4	generate/STIM_006.jpg	100
2802.535	0.96	960.2	generate	Run4	generate/STIM_006.jpg	99
2806.01	1.88	1880.1	generate	Run4	generate/STIM_006.jpg	99
2810.349	1.746	1745.8	generate	Run4	generate/STIM_007.jpg	100
2814.634	1.964	1963.9	generate	Run4	generate/STIM_007.jpg	99
2820.452	1.417	1417.1	generate	Run4	generate/STIM_007.jpg	100
2825.541	1.702	1701.8	generate	Run4	generate/STIM_007.jpg	100
2829.442	1.366	1365.7	generate	Run4	generate/STIM_007.jpg	99
2833.847	1.717	1716.6	generate	Run4	generate/STIM_008.jpg	99
2837.743	1.141	1140.8	generate	Run4	generate/STIM_008.jpg	99
2841.574	1.337	1337.2	generate	Run4	generate/STIM_008.jpg	100
2846.535	1.313	1313.3	generate	Run4	generate/STIM_008.jpg	100
2851.821	1.127	1126.9	generate	Run4	generate/STIM_008.jpg	99
2856.164	1.216	1216.2	generate	Run4	generate/STIM_009.jpg	100
2861.144	1.87	1869.6	generate	Run4	generate/STIM_009.jpg	100
2865.633	2.093	2093.0	generate	Run4	generate/STIM_009.jpg	99
2870.009	1.944	1944.2	generate	Run4	generate/STIM_009.jpg	100
2875.858	1.095	1095.2	generate	Run4	generate/STIM_009.jpg	100
2880.801	1.075	1075.4	generate	Run4	generate/STIM_010.jpg	99
2885.383	1.367	1366.8	generate	Run4	generate/STIM_010.jpg	99
2888.988	1.126	1125.8	generate	Run4	generate/STIM_010.jpg	99
2893.566	1.666	1666.0	generate	Run4	generate/STIM_010.jpg	99
2898.065	1.444	1443.7	generate	Run4	generate/STIM_010.jpg	99
2901.8	1.967	1967.3	generate	Run4	generate/STIM_011.jpg	99
2906.438	1.749	1749.1	generate	Run4	generate/STIM_011.jpg	99
2910.697	1.262	1262.4	generate	Run4	generate/STIM_011.jpg	100
2914.676	1.976	1975.9	generate	Run4	generate/STIM_011.jpg	100
2919.899	1.3	1299.5	generate	Run4	generate/STIM_011.jpg	100
2924.059	1.696	1696.0	generate	Run4	generate/STIM_012.jpg	99
2928.325	1.856	1856.4	generate	Run4	generate/STIM_012.jpg	100
2934.012	1.49	1490.4	generate	Run4	generate/STIM_012.jpg	99
2937.713	1.705	1704.6	generate	Run4	generate/STIM_012.jpg	100
2942.36	1.808	1808.5	generate	Run4	generate/STIM_012.jpg	100
2947.794	1.916	1916.5	generate	Run4	generate/STIM_013.jpg	100
2951.846	0.942	941.5	generate	Run4	generate/STIM_013.jpg	99
2955.843	0.906	905.8	generate	Run4	generate/STIM_013.jpg	99
2960.04	1.46	1460.3	generate	Run4	generate/STIM_013.jpg	99
2964.545	1.394	1394.0	generate	Run4	generate/STIM_013.jpg	100
2968.723	1.066	1066.3	generate	Run4	generate/STIM_014.jpg	100
2972.449	1.637	1637.0	generate	Run4	generate/STIM_014.jpg	99
2978.075	1.914	1914.5	generate	Run4	generate/STIM_014.jpg	100
2983.425	1.081	1080.8	generate	Run4	generate/STIM_014.jpg	99
2987.271	1.839	1838.9	generate	Run4	generate/STIM_014.jpg	100
2991.719	0.962	961.6	generate	Run4	generate/STIM_015.jpg	99
2995.954	1.704	1704.4	generate	Run4	generate/STIM_015.jpg	99
3001.245	1.6	1599.9	generate	Run4	generate/STIM_015.jpg	99
3006.021	1.92	1920.5	generate	Run4	generate/STIM_015.jpg	99
3011.42	1.079	1078.7	generate	Run4	generate/STIM_015.jpg	99
3016.341	1.456	1455.5	generate	Run4	generate/STIM_016.jpg	99
3019.876	0.917	916.7	generate	Run4	generate/STIM_016.jpg	100
3023.126	2.105	2105.1	generate	Run4	generate/STIM_016.jpg	99
3028.579	1.104	1103.5	generate	Run4	generate/STIM_016.jpg	99
3031.714	1.688	1688.2	generate	Run4	generate/STIM_016.jpg	100
3035.432	2.187	2186.6	generate	Run4	generate/STIM_017.jpg	99
3040.674	0.942	942.1	generate	Run4	generate/STIM_017.jpg	100
3044.113	1.013	1013.4	generate	Run4	generate/STIM_017.jpg	99
3048.614	1.393	1392.8	generate	Run4	generate/STIM_017.jpg	99
3053.982	1.34	1340.5	generate	Run4	generate/STIM_017.jpg	100
3057.981	1.966	1965.6	generate	Run4	generate/STIM_018.jpg	100
3063.841	1.729	1728.6	generate	Run4	generate/STIM_018.jpg	100
3067.942	1.976	1975.7	generate	Run4	generate/STIM_018.jpg	100
3073.264	1.637	1637.1	generate	Run4	generate/STIM_018.jpg	99
3078.558	1.73	1730.3	generate	Run4	generate/STIM_018.jpg	99
3083.16	2.035	2034.8	generate	Run4	generate/STIM_019.jpg	100
3087.782	1.022	1022.0	generate	Run4	generate/STIM_019.jpg	100
3092.659	1.426	1426.2	generate	Run4	generate/STIM_019.jpg	100
3096.398	0.913	912.9	generate	Run4	generate/STIM_019.jpg	99
3101.239	1.399	1398.6	generate	Run4	generate/STIM_019.jpg	99
3104.869	1.396	1395.9	generate	Run4	generate/STIM_020.jpg	99
3108.511	1.623	1623.1	generate	Run4	generate/STIM_020.jpg	100
3113.706	1.152	1152.3	generate	Run4	generate/STIM_020.jpg	99
3118.289	1.315	1314.7	generate	Run4	generate/STIM_020.jpg	100
3122.313	1.562	1561.8	generate	Run4	generate/STIM_020.jpg	100
3127.586	2.031	2031.4	generate	Run4	generate/STIM_021.jpg	99
3131.848	1.65	1649.8	generate	Run4	generate/STIM_021.jpg	100
3135.675	1.218	1217.5	generate	Run4	generate/STIM_021.jpg	100
3140.631	1.149	1149.0	generate	Run4	generate/STIM_021.jpg	99
3143.834	2.213	2212.7	generate	Run4	generate/STIM_021.jpg	99
3148.338	0.897	897.4	generate	Run4	generate/STIM_022.jpg	100
3153.01	0.99	990.3	generate	Run4	generate/STIM_022.jpg	99
3156.662	1.285	1284.9	generate	Run4	generate/STIM_022.jpg	99
3160.619	2.209	2208.6	generate	Run4	generate/STIM_022.jpg	99
3165.74	1.887	1887.2	generate	Run4	generate/STIM_022.jpg	99
3171.171	1.675	1675.2	generate	Run4	generate/STIM_023.jpg	100
3175.521	1.171	1170.7	generate	Run4	generate/STIM_023.jpg	100
3179.554	2.213	2213.4	generate	Run4	generate/STIM_023.jpg	99
3185.422	2.109	2108.7	generate	Run4	generate/STIM_023.jpg	99
3191.374	1.894	1893.7	generate	Run4	generate/STIM_023.jpg	100
3196.774	1.125	1124.8	generate	Run4	generate/STIM_024.jpg	100
3201.719	0.904	904.5	generate	Run4	generate/STIM_024.jpg	100
3206.097	1.112	1111.9	generate	Run4	generate/STIM_024.jpg	99
3209.385	1.756	1756.4	generate	Run4	generate/STIM_024.jpg	99
3214.829	1.31	1310.0	generate	Run4	generate/STIM_024.jpg	99
3218.546	0.783	783.0	repeat	Run4	repeat/STIM_000.jpg	100
3221.597	0.964	963.8	repeat	Run4	repeat/STIM_000.jpg	99
3226.368	0.914	913.5	repeat	Run4	repeat/STIM_000.jpg	100
3231.112	0.553	553.2	repeat	Run4	repeat/STIM_000.jpg	99
3234.09	1.043	1043.4	repeat	Run4	repeat/STIM_000.jpg	99
3237.688	0.585	585.4	repeat	Run4	repeat/STIM_001.jpg	99
3241.577	0.931	931.3	repeat	Run4	repeat/STIM_001.jpg	99
3246.43	0.618	617.9	repeat	Run4	repeat/STIM_001.jpg	100
3250.821	0.858	857.8	repeat	Run4	repeat/STIM_001.jpg	99
3254.232	0.636	636.0	repeat	Run4	repeat/STIM_001.jpg	99
3257.344	0.927	927.0	repeat	Run4	repeat/STIM_002.jpg	99
3262.194	0.78	779.8	repeat	Run4	repeat/STIM_002.jpg	100
3265.595	0.651	651.4	repeat	Run4	repeat/STIM_002.jpg	99
3268.722	0.628	628.0	repeat	Run4	repeat/STIM_002.jpg	100
3271.989	0.82	819.8	repeat	Run4	repeat/STIM_002.jpg	99
3276.096	1.002	1002.3	repeat	Run4	repeat/STIM_003.jpg	99
3279.33	0.616	616.2	repeat	Run4	repeat/STIM_003.jpg	100
3282.153	0.947	947.1	repeat	Run4	repeat/STIM_003.jpg	99
3286.337	0.896	896.2	repeat	Run4	repeat/STIM_003.jpg	100
3291.04	0.779	779.2	repeat	Run4	repeat/STIM_003.jpg	100
3293.967	0.896	895.7	repeat	Run4	repeat/STIM_004.jpg	100
3297.869	1.038	1037.6	repeat	Run4	repeat/STIM_004.jpg	99
3301.7	0.568	567.5	repeat	Run4	repeat/STIM_004.jpg	100
3304.894	0.75	749.7	repeat	Run4	repeat/STIM_004.jpg	100
3308.6	1.011	1010.6	repeat	Run4	repeat/STIM_004.jpg	99
3313.013	0.809	809.4	repeat	Run4	repeat/STIM_005.jpg	100
3316.164	0.564	563.5	repeat	Run4	repeat/STIM_005.jpg	100
3318.896	0.594	594.4	repeat	Run4	repeat/STIM_005.jpg	99
3322.492	0.904	904.4	repeat	Run4	repeat/STIM_005.jpg	100
3326.22	0.991	990.7	repeat	Run4	repeat/STIM_005.jpg	99
3331.107	0.534	534.1	repeat	Run4	repeat/STIM_006.jpg	100
3334.921	0.739	739.2	repeat	Run4	repeat/STIM_006.jpg	99
3338.404	0.648	648.1	repeat	Run4	repeat/STIM_006.jpg	100
3341.19	0.543	542.6	repeat	Run4	repeat/STIM_006.jpg	99
3345.265	1.025	1024.7	repeat	Run4	repeat/STIM_006.jpg	99
3350.259	0.669	668.6	repeat	Run4	repeat/STIM_007.jpg	99
3353.045	0.64	639.6	repeat	Run4	repeat/STIM_007.jpg	100
3356.345	0.707	706.7	repeat	Run4	repeat/STIM_007.jpg	100
3359.907	0.991	990.6	repeat	Run4	repeat/STIM_007.jpg	99
3364.137	1.011	1011.1	repeat	Run4	repeat/STIM_007.jpg	99
3368.147	0.89	889.8	repeat	Run4	repeat/STIM_008.jpg	99
3372.62	1.054	1054.3	repeat	Run4	repeat/STIM_008.jpg	99
3377.069	0.685	684.8	repeat	Run4	repeat/STIM_008.jpg	99
3380.699	0.9	900.3	repeat	Run4	repeat/STIM_008.jpg	100
3383.768	0.708	708.0	repeat	Run4	repeat/STIM_008.jpg	99
3386.864	0.745	744.6	repeat	Run4	repeat/STIM_009.jpg	100
3391.422	0.859	859.3	repeat	Run4	repeat/STIM_009.jpg	100
3394.64	1.05	1050.5	repeat	Run4	repeat/STIM_009.jpg	99
3397.976	0.973	973.4	repeat	Run4	repeat/STIM_009.jpg	100
3401.926	0.996	996.2	repeat	Run4	repeat/STIM_009.jpg	99
3405.97	1.013	1013.1	repeat	Run4	repeat/STIM_010.jpg	99
3410.41	0.552	551.6	repeat	Run4	repeat/STIM_010.jpg	99
3414.455	1.016	1016.0	repeat	Run4	repeat/STIM_010.jpg	99
3417.854	0.824	823.6	repeat	Run4	repeat/STIM_010.jpg	100
3421.687	0.739	739.1	repeat	Run4	repeat/STIM_010.jpg	99
3425.59	0.566	566.1	repeat	Run4	repeat/STIM_011.jpg	99
3428.828	0.794	794.3	repeat	Run4	repeat/STIM_011.jpg	100
3432.045	0.583	582.8	repeat	Run4	repeat/STIM_011.jpg	99
3436.164	0.716	716.1	repeat	Run4	repeat/STIM_011.jpg	99
3439.41	0.533	532.8	repeat	Run4	repeat/STIM_011.jpg	100
3443.19	0.833	833.1	repeat	Run4	repeat/STIM_012.jpg	100
3446.424	0.669	668.9	repeat	Run4	repeat/STIM_012.jpg	99
3450.797	0.77	770.5	repeat	Run4	repeat/STIM_012.jpg	99
3454.566	1.057	1057.0	repeat	Run4	repeat/STIM_012.jpg	100
3459.274	0.58	579.8	repeat	Run4	repeat/STIM_012.jpg	99
3462.908	0.67	669.5	repeat	Run4	repeat/STIM_013.jpg	99
3467.223	0.786	786.0	repeat	Run4	repeat/STIM_013.jpg	100
3470.868	0.848	848.2	repeat	Run4	repeat/STIM_013.jpg	100
3475.62	0.827	826.8	repeat	Run4	repeat/STIM_013.jpg	99
3480.099	0.959	959.0	repeat	Run4	repeat/STIM_013.jpg	99
3483.498	0.607	606.6	repeat	Run4	repeat/STIM_014.jpg	99
3486.505	0.7	700.5	repeat	Run4	repeat/STIM_014.jpg	99
3490.668	0.893	892.6	repeat	Run4	repeat/STIM_014.jpg	99
3493.785	0.66	659.8	repeat	Run4	repeat/STIM_014.jpg	100
3497.616	0.889	889.1	repeat	Run4	repeat/STIM_014.jpg	99
