onset	duration	response_time_ms	trial_type	learning_stage	stimulus	response_port
0.0	0.816	815.7	2back	Block1	2back/STIM_000.jpg	100
2.894	0.774	773.8	2back	Block1	2back/STIM_000.jpg	100
5.893	0.633	633.1	2back	Block1	2back/STIM_000.jpg	99
10.09	0.637	636.9	2back	Block1	2back/STIM_001.jpg	99
14.24	0.735	734.8	2back	Block1	2back/STIM_001.jpg	99
17.58	0.963	963.1	2back	Block1	2back/STIM_001.jpg	99
21.817	0.633	632.6	2back	Block1	2back/STIM_002.jpg	99
25.722	0.502	501.9	2back	Block1	2back/STIM_002.jpg	99
28.595	0.494	494.3	2back	Block1	2back/STIM_002.jpg	100
31.158	0.727	726.7	2back	Block1	2back/STIM_003.jpg	99
35.757	0.584	584.2	2back	Block1	2back/STIM_003.jpg	100
38.611	0.501	501.1	2back	Block1	2back/STIM_003.jpg	99
41.384	0.625	624.6	2back	Block1	2back/STIM_004.jpg	100
44.105	0.711	711.1	2back	Block1	2back/STIM_004.jpg	99
47.476	0.731	730.8	2back	Block1	2back/STIM_004.jpg	100
50.86	0.807	807.4	2back	Block1	2back/STIM_005.jpg	99
53.919	0.98	980.3	2back	Block1	2back/STIM_005.jpg	99
58.368	0.772	772.5	2back	Block1	2back/STIM_005.jpg	100
62.411	0.933	932.7	2back	Block1	2back/STIM_006.jpg	100
65.669	0.627	627.1	2back	Block1	2back/STIM_006.jpg	100
69.595	0.843	842.7	2back	Block1	2back/STIM_006.jpg	99
73.875	0.816	815.6	2back	Block1	2back/STIM_007.jpg	100
77.86	0.91	910.3	2back	Block1	2back/STIM_007.jpg	99
81.693	0.625	624.7	2back	Block1	2back/STIM_007.jpg	100
86.263	0.494	493.8	2back	Block1	2back/STIM_008.jpg	99
90.477	0.501	501.2	2back	Block1	2back/STIM_008.jpg	100
93.119	0.882	882.3	2back	Block1	2back/STIM_008.jpg	99
96.917	1.046	1046.0	2back	Block1	2back/STIM_009.jpg	100
100.044	0.874	873.8	2back	Block1	2back/STIM_009.jpg	99
103.769	0.494	494.4	2back	Block1	2back/STIM_009.jpg	99
106.989	0.506	506.2	2back	Block1	2back/STIM_010.jpg	100
110.528	0.85	850.4	2back	Block1	2back/STIM_010.jpg	99
113.928	0.916	916.0	2back	Block1	2back/STIM_010.jpg	100
117.035	0.548	547.5	2back	Block1	2back/STIM_011.jpg	99
121.354	0.91	910.0	2back	Block1	2back/STIM_011.jpg	100
124.931	0.49	489.5	2back	Block1	2back/STIM_011.jpg	100
129.206	0.551	551.4	2back	Block1	2back/STIM_012.jpg	100
133.175	0.756	756.3	2back	Block1	2back/STIM_012.jpg	100
137.438	0.893	893.3	2back	Block1	2back/STIM_012.jpg	100
141.98	0.467	466.7	2back	Block1	2back/STIM_013.jpg	99
144.71	1.01	1009.9	2back	Block1	2back/STIM_013.jpg	100
149.056	0.649	649.0	2back	Block1	2back/STIM_013.jpg	99
153.038	0.594	594.4	2back	Block1	2back/STIM_014.jpg	99
156.886	0.89	889.5	2back	Block1	2back/STIM_014.jpg	99
159.986	0.96	960.5	2back	Block1	2back/STIM_014.jpg	100
163.325	0.957	956.6	2back	Block1	2back/STIM_015.jpg	100
167.999	0.507	507.2	2back	Block1	2back/STIM_015.jpg	100
170.742	0.519	518.6	2back	Block1	2back/STIM_015.jpg	100
174.212	0.773	773.1	2back	Block1	2back/STIM_016.jpg	100
177.626	0.888	888.5	2back	Block1	2back/STIM_016.jpg	99
181.751	0.717	716.8	2back	Block1	2back/STIM_016.jpg	99
185.242	0.488	488.4	2back	Block1	2back/STIM_017.jpg	100
187.859	0.982	981.5	2back	Block1	2back/STIM_017.jpg	99
192.841	0.765	764.6	2back	Block1	2back/STIM_017.jpg	100
196.672	0.543	542.6	2back	Block1	2back/STIM_018.jpg	100
200.127	0.456	456.4	2back	Block1	2back/STIM_018.jpg	100
203.065	0.726	726.4	2back	Block1	2back/STIM_018.jpg	100
207.117	0.914	913.6	2back	Block1	2back/STIM_019.jpg	99
211.213	0.995	995.4	2back	Block1	2back/STIM_019.jpg	100
214.705	0.797	797.3	2back	Block1	2back/STIM_019.jpg	100
217.766	0.95	950.4	2back	Block1	2back/STIM_020.jpg	100
222.668	0.623	623.1	2back	Block1	2back/STIM_020.jpg	100
225.735	0.665	664.7	2back	Block1	2back/STIM_020.jpg	99
229.289	0.976	975.7	2back	Block1	2back/STIM_021.jpg	100
233.097	0.556	556.0	2back	Block1	2back/STIM_021.jpg	100
236.695	0.87	869.6	2back	Block1	2back/STIM_021.jpg	99
240.88	1.033	1032.7	2back	Block1	2back/STIM_022.jpg	99
245.263	0.955	955.3	2back	Block1	2back/STIM_022.jpg	100
248.43	0.939	939.1	2back	Block1	2back/STIM_022.jpg	99
253.088	0.884	883.6	2back	Block1	2back/STIM_023.jpg	99
256.769	0.563	563.3	2back	Block1	2back/STIM_023.jpg	99
259.634	0.656	656.2	2back	Block1	2back/STIM_023.jpg	100
264.089	0.622	621.8	2back	Block1	2back/STIM_024.jpg	100
268.285	0.861	860.7	2back	Block1	2back/STIM_024.jpg	99
272.155	0.697	696.8	2back	Block1	2back/STIM_024.jpg	99
274.984	0.754	754.4	2back	Block1	2back/STIM_025.jpg	99
279.469	0.919	918.6	2back	Block1	2back/STIM_025.jpg	99
282.884	0.799	799.3	2back	Block1	2back/STIM_025.jpg	100
286.83	0.616	616.3	2back	Block1	2back/STIM_026.jpg	100
291.121	0.782	782.0	2back	Block1	2back/STIM_026.jpg	99
293.941	0.584	584.3	2back	Block1	2back/STIM_026.jpg	99
297.996	0.478	477.7	2back	Block1	2back/STIM_027.jpg	100
302.427	0.559	558.7	2back	Block1	2back/STIM_027.jpg	99
305.887	0.845	845.0	2back	Block1	2back/STIM_027.jpg	100
309.788	0.612	612.4	2back	Block1	2back/STIM_028.jpg	100
313.459	0.901	900.9	2back	Block1	2back/STIM_028.jpg	99
316.626	0.512	511.8	2back	Block1	2back/STIM_028.jpg	99
319.4	0.538	538.3	2back	Block1	2back/STIM_029.jpg	99
322.229	0.882	881.9	2back	Block1	2back/STIM_029.jpg	100
325.996	0.931	930.6	2back	Block1	2back/STIM_029.jpg	100
330.172	0.47	470.1	2back	Block1	2back/STIM_030.jpg	100
333.625	0.676	675.7	2back	Block1	2back/STIM_030.jpg	100
337.061	0.703	703.0	2back	Block1	2back/STIM_030.jpg	100
340.148	1.027	1027.4	2back	Block1	2back/STIM_031.jpg	100
344.512	0.933	933.3	2back	Block1	2back/STIM_031.jpg	99
349.047	0.746	745.9	2back	Block1	2back/STIM_031.jpg	99
352.732	0.979	978.9	2back	Block1	2back/STIM_032.jpg	100
356.343	0.885	884.9	2back	Block1	2back/STIM_032.jpg	99
360.636	0.578	577.6	2back	Block1	2back/STIM_032.jpg	100
363.771	0.636	635.7	2back	Block1	2back/STIM_033.jpg	100
366.759	0.858	857.5	2back	Block1	2back/STIM_033.jpg	99
369.769	0.66	659.9	2back	Block1	2back/STIM_033.jpg	100
373.859	0.52	519.5	2back	Block1	2back/STIM_034.jpg	100
376.916	0.834	834.0	2back	Block1	2back/STIM_034.jpg	100
380.379	0.696	695.5	2back	Block1	2back/STIM_034.jpg	99
385.038	0.768	768.1	2back	Block1	2back/STIM_035.jpg	100
388.747	1.024	1024.0	2back	Block1	2back/STIM_035.jpg	99
391.832	0.971	971.3	2back	Block1	2back/STIM_035.jpg	100
396.238	0.6	599.8	2back	Block1	2back/STIM_036.jpg	99
400.001	0.804	803.5	2back	Block1	2back/STIM_036.jpg	99
403.414	0.66	659.9	2back	Block1	2back/STIM_036.jpg	99
406.228	0.79	789.8	2back	Block1	2back/STIM_037.jpg	100
410.503	0.889	888.8	2back	Block1	2back/STIM_037.jpg	99
414.611	0.449	448.8	2back	Block1	2back/STIM_037.jpg	100
418.029	0.806	806.1	2back	Block1	2back/STIM_038.jpg	100
422.137	0.848	848.2	2back	Block1	2back/STIM_038.jpg	99
426.527	0.699	699.4	2back	Block1	2back/STIM_038.jpg	99
429.629	0.814	814.1	2back	Block1	2back/STIM_039.jpg	100
433.892	0.766	766.5	2back	Block1	2back/STIM_039.jpg	100
438.48	0.572	571.7	2back	Block1	2back/STIM_039.jpg	99
441.445	0.484	484.2	0back	Block1	0back/STIM_000.jpg	100
444.708	0.493	492.9	0back	Block1	0back/STIM_000.jpg	99
448.605	0.548	547.9	0back	Block1	0back/STIM_000.jpg	100
451.667	0.588	588.5	0back	Block1	0back/STIM_001.jpg	99
455.701	0.439	439.1	0back	Block1	0back/STIM_001.jpg	99
459.648	0.312	311.9	0back	Block1	0back/STIM_001.jpg	99
463.478	0.363	363.4	0back	Block1	0back/STIM_002.jpg	99
466.265	0.528	527.9	0back	Block1	0back/STIM_002.jpg	100
469.923	0.393	393.2	0back	Block1	0back/STIM_002.jpg	100
472.988	0.315	314.8	0back	Block1	0back/STIM_003.jpg	100
475.486	0.576	576.3	0back	Block1	0back/STIM_003.jpg	100
479.188	0.582	582.3	0back	Block1	0back/STIM_003.jpg	99
482.661	0.611	611.2	0back	Block1	0back/STIM_004.jpg	99
486.062	0.518	518.3	0back	Block1	0back/STIM_004.jpg	99
488.761	0.338	338.1	0back	Block1	0back/STIM_004.jpg	100
492.412	0.33	329.5	0back	Block1	0back/STIM_005.jpg	99
494.757	0.386	385.8	0back	Block1	0back/STIM_005.jpg	99
497.957	0.387	386.8	0back	Block1	0back/STIM_005.jpg	99
502.053	0.446	446.3	0back	Block1	0back/STIM_006.jpg	99
505.089	0.595	595.4	0back	Block1	0back/STIM_006.jpg	100
508.371	0.46	460.0	0back	Block1	0back/STIM_006.jpg	99
511.645	0.527	526.7	0back	Block1	0back/STIM_007.jpg	100
514.426	0.447	447.2	0back	Block1	0back/STIM_007.jpg	99
518.211	0.57	570.3	0back	Block1	0back/STIM_007.jpg	100
521.24	0.325	324.7	0back	Block1	0back/STIM_008.jpg	99
525.272	0.6	599.6	0back	Block1	0back/STIM_008.jpg	100
529.537	0.471	471.1	0back	Block1	0back/STIM_008.jpg	100
533.609	0.382	382.2	0back	Block1	0back/STIM_009.jpg	100
536.962	0.342	341.5	0back	Block1	0back/STIM_009.jpg	99
539.683	0.534	534.2	0back	Block1	0back/STIM_009.jpg	100
542.527	0.548	548.2	0back	Block1	0back/STIM_010.jpg	100
546.375	0.328	327.7	0back	Block1	0back/STIM_010.jpg	100
549.327	0.6	600.5	0back	Block1	0back/STIM_010.jpg	100
551.965	0.537	537.3	0back	Block1	0back/STIM_011.jpg	100
555.754	0.427	426.6	0back	Block1	0back/STIM_011.jpg	100
560.091	0.347	346.9	0back	Block1	0back/STIM_011.jpg	99
562.711	0.404	403.6	0back	Block1	0back/STIM_012.jpg	100
566.719	0.437	437.3	0back	Block1	0back/STIM_012.jpg	99
569.717	0.331	331.4	0back	Block1	0back/STIM_012.jpg	99
573.261	0.5	499.9	0back	Block1	0back/STIM_013.jpg	100
576.542	0.373	372.9	0back	Block1	0back/STIM_013.jpg	100
580.223	0.531	530.9	0back	Block1	0back/STIM_013.jpg	100
584.487	0.505	505.1	0back	Block1	0back/STIM_014.jpg	100
587.606	0.444	444.2	0back	Block1	0back/STIM_014.jpg	100
592.026	0.564	563.5	0back	Block1	0back/STIM_014.jpg	99
595.727	0.568	567.7	0back	Block1	0back/STIM_015.jpg	100
599.776	0.43	430.3	0back	Block1	0back/STIM_015.jpg	99
603.593	0.562	561.7	0back	Block1	0back/STIM_015.jpg	99
607.917	0.337	337.4	0back	Block1	0back/STIM_016.jpg	100
610.261	0.35	349.7	0back	Block1	0back/STIM_016.jpg	100
612.732	0.379	378.6	0back	Block1	0back/STIM_016.jpg	100
616.187	0.42	420.4	0back	Block1	0back/STIM_017.jpg	99
620.501	0.521	521.2	0back	Block1	0back/STIM_017.jpg	99
623.589	0.522	522.4	0back	Block1	0back/STIM_017.jpg	99
626.849	0.435	434.8	0back	Block1	0back/STIM_018.jpg	100
630.206	0.37	369.7	0back	Block1	0back/STIM_018.jpg	100
633.816	0.402	402.4	0back	Block1	0back/STIM_018.jpg	100
637.4	0.613	613.1	0back	Block1	0back/STIM_019.jpg	99
641.335	0.577	576.7	0back	Block1	0back/STIM_019.jpg	99
644.819	0.437	436.7	0back	Block1	0back/STIM_019.jpg	99
648.159	0.893	892.7	2back	Block2	2back/STIM_000.jpg	99
651.361	0.46	459.6	2back	Block2	2back/STIM_000.jpg	100
654.386	0.613	612.8	2back	Block2	2back/STIM_000.jpg	100
657.959	0.699	699.4	2back	Block2	2back/STIM_001.jpg	99
662.14	0.469	469.3	2back	Block2	2back/STIM_001.jpg	100
665.796	0.808	807.6	2back	Block2	2back/STIM_001.jpg	99
670.151	0.689	689.1	2back	Block2	2back/STIM_002.jpg	100
674.446	0.789	788.6	2back	Block2	2back/STIM_002.jpg	100
677.436	0.799	798.7	2back	Block2	2back/STIM_002.jpg	99
681.521	0.544	543.8	2back	Block2	2back/STIM_003.jpg	100
685.453	0.714	714.2	2back	Block2	2back/STIM_003.jpg	99
688.859	0.458	458.4	2back	Block2	2back/STIM_003.jpg	100
692.822	0.581	580.7	2back	Block2	2back/STIM_004.jpg	99
697.386	0.645	644.6	2back	Block2	2back/STIM_004.jpg	100
700.371	0.548	547.7	2back	Block2	2back/STIM_004.jpg	100
704.463	0.914	913.9	2back	Block2	2back/STIM_005.jpg	99
708.372	0.387	387.1	2back	Block2	2back/STIM_005.jpg	99
710.969	0.357	356.8	2back	Block2	2back/STIM_005.jpg	99
714.047	0.496	496.2	2back	Block2	2back/STIM_006.jpg	100
717.675	0.809	809.2	2back	Block2	2back/STIM_006.jpg	100
721.849	0.432	432.3	2back	Block2	2back/STIM_006.jpg	100
725.79	0.56	560.5	2back	Block2	2back/STIM_007.jpg	100
729.067	0.394	394.5	2back	Block2	2back/STIM_007.jpg	100
733.254	0.54	540.0	2back	Block2	2back/STIM_007.jpg	100
736.986	0.778	777.6	2back	Block2	2back/STIM_008.jpg	99
740.306	0.648	648.4	2back	Block2	2back/STIM_008.jpg	100
744.435	0.386	386.3	2back	Block2	2back/STIM_008.jpg	99
747.6	0.756	755.8	2back	Block2	2back/STIM_009.jpg	100
750.8	0.552	551.6	2back	Block2	2back/STIM_009.jpg	100
753.746	0.549	549.1	2back	Block2	2back/STIM_009.jpg	100
757.528	0.711	711.2	2back	Block2	2back/STIM_010.jpg	99
761.126	0.755	755.3	2back	Block2	2back/STIM_010.jpg	100
764.221	0.493	493.0	2back	Block2	2back/STIM_010.jpg	100
766.796	0.618	617.5	2back	Block2	2back/STIM_011.jpg	99
770.585	0.407	407.3	2back	Block2	2back/STIM_011.jpg	99
773.428	0.645	644.9	2back	Block2	2back/STIM_011.jpg	99
777.861	0.468	468.3	2back	Block2	2back/STIM_012.jpg	100
781.206	0.536	536.1	2back	Block2	2back/STIM_012.jpg	100
785.201	0.802	802.0	2back	Block2	2back/STIM_012.jpg	100
789.762	0.514	514.3	2back	Block2	2back/STIM_013.jpg	100
792.507	0.848	847.9	2back	Block2	2back/STIM_013.jpg	100
796.769	0.447	446.6	2back	Block2	2back/STIM_013.jpg	99
799.993	0.728	727.8	2back	Block2	2back/STIM_014.jpg	99
804.716	0.507	507.3	2back	Block2	2back/STIM_014.jpg	100
809.101	0.724	723.7	2back	Block2	2back/STIM_014.jpg	99
812.823	0.834	834.5	2back	Block2	2back/STIM_015.jpg	100
816.504	0.775	775.0	2back	Block2	2back/STIM_015.jpg	99
821.219	0.498	498.0	2back	Block2	2back/STIM_015.jpg	100
824.409	0.438	437.7	2back	Block2	2back/STIM_016.jpg	99
827.537	0.8	800.3	2back	Block2	2back/STIM_016.jpg	100
831.795	0.35	350.5	2back	Block2	2back/STIM_016.jpg	99
835.548	0.656	656.4	2back	Block2	2back/STIM_017.jpg	100
839.229	0.686	686.0	2back	Block2	2back/STIM_017.jpg	99
843.388	0.398	398.1	2back	Block2	2back/STIM_017.jpg	100
847.087	0.873	873.1	2back	Block2	2back/STIM_018.jpg	100
851.526	0.451	450.8	2back	Block2	2back/STIM_018.jpg	100
854.191	0.74	739.8	2back	Block2	2back/STIM_018.jpg	99
857.621	0.834	833.6	2back	Block2	2back/STIM_019.jpg	99
862.252	0.76	760.4	2back	Block2	2back/STIM_019.jpg	99
865.763	0.659	658.6	2back	Block2	2back/STIM_019.jpg	99
868.55	0.588	588.0	2back	Block2	2back/STIM_020.jpg	100
872.392	0.563	563.2	2back	Block2	2back/STIM_020.jpg	99
875.352	0.696	696.2	2back	Block2	2back/STIM_020.jpg	100
879.782	0.76	759.9	2back	Block2	2back/STIM_021.jpg	99
883.277	0.555	554.9	2back	Block2	2back/STIM_021.jpg	100
887.374	0.451	451.2	2back	Block2	2back/STIM_021.jpg	99
891.523	0.821	820.9	2back	Block2	2back/STIM_022.jpg	100
894.701	0.861	861.1	2back	Block2	2back/STIM_022.jpg	100
898.956	0.506	505.8	2back	Block2	2back/STIM_022.jpg	100
903.442	0.676	675.9	2back	Block2	2back/STIM_023.jpg	100
907.614	0.808	807.8	2back	Block2	2back/STIM_023.jpg	99
912.148	0.748	748.4	2back	Block2	2back/STIM_023.jpg	99
915.515	0.514	514.2	2back	Block2	2back/STIM_024.jpg	100
918.139	0.719	719.3	2back	Block2	2back/STIM_024.jpg	100
922.347	0.504	504.1	2back	Block2	2back/STIM_024.jpg	99
925.077	0.642	641.7	2back	Block2	2back/STIM_025.jpg	100
927.915	0.766	766.5	2back	Block2	2back/STIM_025.jpg	100
932.129	0.649	648.6	2back	Block2	2back/STIM_025.jpg	100
936.544	0.728	727.8	2back	Block2	2back/STIM_026.jpg	100
939.454	0.72	720.0	2back	Block2	2back/STIM_026.jpg	100
942.376	0.55	549.6	2back	Block2	2back/STIM_026.jpg	99
946.752	0.552	551.8	2back	Block2	2back/STIM_027.jpg	99
950.845	0.382	382.5	2back	Block2	2back/STIM_027.jpg	99
954.112	0.578	577.8	2back	Block2	2back/STIM_027.jpg	100
957.819	0.524	524.2	2back	Block2	2back/STIM_028.jpg	100
961.588	0.859	858.6	2back	Block2	2back/STIM_028.jpg	99
966.161	0.567	566.7	2back	Block2	2back/STIM_028.jpg	99
970.555	0.67	669.8	2back	Block2	2back/STIM_029.jpg	99
974.156	0.498	498.4	2back	Block2	2back/STIM_029.jpg	100
977.803	0.533	533.4	2back	Block2	2back/STIM_029.jpg	100
982.208	0.434	433.9	2back	Block2	2back/STIM_030.jpg	100
986.029	0.38	380.4	2back	Block2	2back/STIM_030.jpg	99
988.57	0.625	625.1	2back	Block2	2back/STIM_030.jpg	100
991.917	0.421	421.2	2back	Block2	2back/STIM_031.jpg	99
995.177	0.519	518.9	2back	Block2	2back/STIM_031.jpg	100
998.029	0.577	576.6	2back	Block2	2back/STIM_031.jpg	99
1001.918	0.589	589.4	2back	Block2	2back/STIM_032.jpg	100
1005.209	0.45	449.9	2back	Block2	2back/STIM_032.jpg	100
1008.096	0.612	611.9	2back	Block2	2back/STIM_032.jpg	99
1011.796	0.541	541.3	2back	Block2	2back/STIM_033.jpg	99
1015.466	0.619	619.2	2back	Block2	2back/STIM_033.jpg	99
1019.278	0.408	408.4	2back	Block2	2back/STIM_033.jpg	100
1022.404	0.502	502.5	2back	Block2	2back/STIM_034.jpg	99
1025.301	0.821	820.7	2back	Block2	2back/STIM_034.jpg	99
1028.65	0.647	647.0	2back	Block2	2back/STIM_034.jpg	99
1031.457	0.827	827.2	2back	Block2	2back/STIM_035.jpg	99
1035.785	0.775	774.9	2back	Block2	2back/STIM_035.jpg	99
1039.209	0.802	801.6	2back	Block2	2back/STIM_035.jpg	99
1042.728	0.457	457.3	2back	Block2	2back/STIM_036.jpg	99
1046.192	0.385	385.1	2back	Block2	2back/STIM_036.jpg	100
1049.408	0.455	455.0	2back	Block2	2back/STIM_036.jpg	100
1053.729	0.545	545.1	2back	Block2	2back/STIM_037.jpg	100
1058.193	0.586	585.7	2back	Block2	2back/STIM_037.jpg	99
1061.631	0.613	613.1	2back	Block2	2back/STIM_037.jpg	100
1064.355	0.586	585.9	2back	Block2	2back/STIM_038.jpg	100
1068.303	0.532	532.5	2back	Block2	2back/STIM_038.jpg	100
1071.283	0.378	377.5	2back	Block2	2back/STIM_038.jpg	100
1074.534	0.79	789.6	2back	Block2	2back/STIM_039.jpg	100
1078.891	0.674	673.5	2back	Block2	2back/STIM_039.jpg	99
1082.217	0.549	548.7	2back	Block2	2back/STIM_039.jpg	99
1085.516	0.404	403.5	0back	Block2	0back/STIM_000.jpg	99
1088.344	0.42	420.2	0back	Block2	0back/STIM_000.jpg	99
1092.492	0.401	401.2	0back	Block2	0back/STIM_000.jpg	99
1095.385	0.361	360.9	0back	Block2	0back/STIM_001.jpg	99
1099.337	0.454	453.5	0back	Block2	0back/STIM_001.jpg	100
1103.554	0.338	337.8	0back	Block2	0back/STIM_001.jpg	99
1106.862	0.414	414.4	0back	Block2	0back/STIM_002.jpg	99
1110.832	0.44	440.5	0back	Block2	0back/STIM_002.jpg	99
1114.015	0.607	606.9	0back	Block2	0back/STIM_002.jpg	99
1118.34	0.389	388.6	0back	Block2	0back/STIM_003.jpg	99
1121.069	0.53	530.2	0back	Block2	0back/STIM_003.jpg	99
1124.025	0.477	477.0	0back	Block2	0back/STIM_003.jpg	100
1126.771	0.404	403.9	0back	Block2	0back/STIM_004.jpg	99
1129.188	0.609	608.7	0back	Block2	0back/STIM_004.jpg	99
1132.411	0.602	602.0	0back	Block2	0back/STIM_004.jpg	100
1135.938	0.517	516.7	0back	Block2	0back/STIM_005.jpg	99
1138.992	0.445	444.7	0back	Block2	0back/STIM_005.jpg	100
1141.959	0.582	581.6	0back	Block2	0back/STIM_005.jpg	99
1146.502	0.332	332.5	0back	Block2	0back/STIM_006.jpg	99
1150.337	0.463	462.7	0back	Block2	0back/STIM_006.jpg	100
1153.375	0.55	550.3	0back	Block2	0back/STIM_006.jpg	99
1156.527	0.5	500.0	0back	Block2	0back/STIM_007.jpg	99
1159.714	0.323	323.2	0back	Block2	0back/STIM_007.jpg	100
1162.801	0.332	331.5	0back	Block2	0back/STIM_007.jpg	99
1166.386	0.604	604.3	0back	Block2	0back/STIM_008.jpg	100
1170.085	0.538	538.4	0back	Block2	0back/STIM_008.jpg	100
1174.005	0.408	408.1	0back	Block2	0back/STIM_008.jpg	99
1177.897	0.594	593.9	0back	Block2	0back/STIM_009.jpg	100
1182.017	0.323	323.4	0back	Block2	0back/STIM_009.jpg	100
1185.108	0.612	612.4	0back	Block2	0back/STIM_009.jpg	100
1188.897	0.566	566.1	0back	Block2	0back/STIM_010.jpg	100
1191.814	0.6	600.1	0back	Block2	0back/STIM_010.jpg	99
1194.777	0.421	421.2	0back	Block2	0back/STIM_010.jpg	100
1198.843	0.543	543.2	0back	Block2	0back/STIM_011.jpg	100
1201.657	0.325	325.3	0back	Block2	0back/STIM_011.jpg	100
1205.236	0.582	581.9	0back	Block2	0back/STIM_011.jpg	99
1207.928	0.396	395.6	0back	Block2	0back/STIM_012.jpg	100
1211.752	0.53	529.6	0back	Block2	0back/STIM_012.jpg	99
1215.475	0.426	426.2	0back	Block2	0back/STIM_012.jpg	99
1218.285	0.56	559.7	0back	Block2	0back/STIM_013.jpg	99
1220.975	0.554	554.0	0back	Block2	0back/STIM_013.jpg	99
1223.55	0.474	474.2	0back	Block2	0back/STIM_013.jpg	100
1227.053	0.329	329.4	0back	Block2	0back/STIM_014.jpg	100
1231.321	0.438	437.6	0back	Block2	0back/STIM_014.jpg	100
1234.303	0.373	373.1	0back	Block2	0back/STIM_014.jpg	100
1238.552	0.405	405.0	0back	Block2	0back/STIM_015.jpg	100
1241.809	0.437	437.0	0back	Block2	0back/STIM_015.jpg	99
1244.58	0.354	353.5	0back	Block2	0back/STIM_015.jpg	100
1248.138	0.537	537.2	0back	Block2	0back/STIM_016.jpg	99
1252.192	0.466	465.8	0back	Block2	0back/STIM_016.jpg	100
1256.623	0.574	573.5	0back	Block2	0back/STIM_016.jpg	100
1259.514	0.609	608.9	0back	Block2	0back/STIM_017.jpg	99
1263.14	0.59	589.7	0back	Block2	0back/STIM_017.jpg	99
1267.552	0.428	428.1	0back	Block2	0back/STIM_017.jpg	99
1270.005	0.605	605.3	0back	Block2	0back/STIM_018.jpg	99
1272.945	0.582	581.6	0back	Block2	0back/STIM_018.jpg	100
1276.566	0.616	616.4	0back	Block2	0back/STIM_018.jpg	99
1279.654	0.514	513.6	0back	Block2	0back/STIM_019.jpg	99
1282.37	0.327	326.8	0back	Block2	0back/STIM_019.jpg	100
1285.589	0.447	446.6	0back	Block2	0back/STIM_019.jpg	99
1288.576	0.545	544.8	2back	Block3	2back/STIM_000.jpg	100
1292.912	0.626	626.3	2back	Block3	2back/STIM_000.jpg	100
1297.35	0.354	353.6	2back	Block3	2back/STIM_000.jpg	100
1300.025	0.336	336.3	2back	Block3	2back/STIM_001.jpg	100
1303.784	0.386	386.5	2back	Block3	2back/STIM_001.jpg	100
1306.906	0.45	449.5	2back	Block3	2back/STIM_001.jpg	100
1310.019	0.502	501.8	2back	Block3	2back/STIM_002.jpg	99
1314.106	0.701	700.7	2back	Block3	2back/STIM_002.jpg	100
1317.704	0.375	375.4	2back	Block3	2back/STIM_002.jpg	100
1320.593	0.606	606.1	2back	Block3	2back/STIM_003.jpg	99
1324.975	0.604	603.9	2back	Block3	2back/STIM_003.jpg	100
1328.459	0.404	403.9	2back	Block3	2back/STIM_003.jpg	99
1332.52	0.47	470.0	2back	Block3	2back/STIM_004.jpg	100
1336.788	0.352	352.0	2back	Block3	2back/STIM_004.jpg	99
1340.447	0.601	600.7	2back	Block3	2back/STIM_004.jpg	100
1343.07	0.368	368.3	2back	Block3	2back/STIM_005.jpg	100
1346.884	0.602	602.3	2back	Block3	2back/STIM_005.jpg	100
1351.192	0.563	563.1	2back	Block3	2back/STIM_005.jpg	100
1354.091	0.413	412.8	2back	Block3	2back/STIM_006.jpg	100
1357.622	0.542	541.7	2back	Block3	2back/STIM_006.jpg	99
1361.326	0.6	600.0	2back	Block3	2back/STIM_006.jpg	99
1364.334	0.385	385.2	2back	Block3	2back/STIM_007.jpg	99
1368.101	0.614	613.5	2back	Block3	2back/STIM_007.jpg	99
1370.715	0.564	563.5	2back	Block3	2back/STIM_007.jpg	100
1374.201	0.438	438.0	2back	Block3	2back/STIM_008.jpg	99
1376.921	0.742	742.0	2back	Block3	2back/STIM_008.jpg	100
1381.467	0.448	447.9	2back	Block3	2back/STIM_008.jpg	100
1384.27	0.622	621.7	2back	Block3	2back/STIM_009.jpg	99
1388.841	0.745	745.1	2back	Block3	2back/STIM_009.jpg	99
1393.021	0.52	519.6	2back	Block3	2back/STIM_009.jpg	99
1396.177	0.552	551.7	2back	Block3	2back/STIM_010.jpg	100
1399.906	0.643	643.1	2back	Block3	2back/STIM_010.jpg	100
1403.96	0.509	509.3	2back	Block3	2back/STIM_010.jpg	99
1407.301	0.337	337.4	2back	Block3	2back/STIM_011.jpg	100
1411.031	0.396	395.5	2back	Block3	2back/STIM_011.jpg	99
1414.477	0.525	524.7	2back	Block3	2back/STIM_011.jpg	99
1418.861	0.549	548.6	2back	Block3	2back/STIM_012.jpg	100
1422.807	0.639	638.9	2back	Block3	2back/STIM_012.jpg	99
1426.512	0.606	605.8	2back	Block3	2back/STIM_012.jpg	100
1429.41	0.484	484.4	2back	Block3	2back/STIM_013.jpg	99
1431.932	0.515	515.4	2back	Block3	2back/STIM_013.jpg	100
1436.174	0.473	473.2	2back	Block3	2back/STIM_013.jpg	99
1440.023	0.35	350.0	2back	Block3	2back/STIM_014.jpg	99
1442.959	0.548	548.0	2back	Block3	2back/STIM_014.jpg	100
1445.729	0.391	390.9	2back	Block3	2back/STIM_014.jpg	100
1449.468	0.355	354.7	2back	Block3	2back/STIM_015.jpg	100
1453.649	0.391	391.1	2back	Block3	2back/STIM_015.jpg	100
1457.508	0.607	606.7	2back	Block3	2back/STIM_015.jpg	99
1460.578	0.699	699.0	2back	Block3	2back/STIM_016.jpg	99
1465.229	0.757	756.8	2back	Block3	2back/STIM_016.jpg	100
1468.534	0.619	619.1	2back	Block3	2back/STIM_016.jpg	99
1471.657	0.738	738.5	2back	Block3	2back/STIM_017.jpg	99
1475.797	0.63	630.3	2back	Block3	2back/STIM_017.jpg	100
1480.412	0.484	483.6	2back	Block3	2back/STIM_017.jpg	99
1483.826	0.64	639.7	2back	Block3	2back/STIM_018.jpg	99
1488.176	0.378	377.6	2back	Block3	2back/STIM_018.jpg	100
1491.911	0.534	534.0	2back	Block3	2back/STIM_018.jpg	99
1494.564	0.701	701.4	2back	Block3	2back/STIM_019.jpg	99
1498.62	0.453	453.2	2back	Block3	2back/STIM_019.jpg	100
1502.02	0.604	604.4	2back	Block3	2back/STIM_019.jpg	99
1505.227	0.435	435.0	2back	Block3	2back/STIM_020.jpg	100
1508.142	0.6	600.0	2back	Block3	2back/STIM_020.jpg	99
1512.377	0.602	601.7	2back	Block3	2back/STIM_020.jpg	99
1515.799	0.355	354.8	2back	Block3	2back/STIM_021.jpg	100
1518.618	0.587	587.4	2back	Block3	2back/STIM_021.jpg	100
1521.658	0.646	646.3	2back	Block3	2back/STIM_021.jpg	100
1525.089	0.331	331.2	2back	Block3	2back/STIM_022.jpg	100
1528.914	0.523	523.2	2back	Block3	2back/STIM_022.jpg	100
1532.544	0.552	552.5	2back	Block3	2back/STIM_022.jpg	99
1536.202	0.67	670.1	2back	Block3	2back/STIM_023.jpg	100
1539.025	0.683	683.1	2back	Block3	2back/STIM_023.jpg	100
1542.505	0.483	483.0	2back	Block3	2back/STIM_023.jpg	99
1545.298	0.648	648.3	2back	Block3	2back/STIM_024.jpg	100
1548.869	0.607	606.9	2back	Block3	2back/STIM_024.jpg	100
1552.52	0.539	538.6	2back	Block3	2back/STIM_024.jpg	100
1555.17	0.447	447.4	2back	Block3	2back/STIM_025.jpg	100
1557.823	0.727	727.0	2back	Block3	2back/STIM_025.jpg	99
1561.682	0.376	375.8	2back	Block3	2back/STIM_025.jpg	100
1565.56	0.489	488.6	2back	Block3	2back/STIM_026.jpg	99
1568.402	0.385	385.0	2back	Block3	2back/STIM_026.jpg	100
1571.174	0.527	526.6	2back	Block3	2back/STIM_026.jpg	100
1575.348	0.501	501.4	2back	Block3	2back/STIM_027.jpg	99
1578.707	0.64	639.5	2back	Block3	2back/STIM_027.jpg	100
1582.303	0.674	674.3	2back	Block3	2back/STIM_027.jpg	100
1585.302	0.383	383.3	2back	Block3	2back/STIM_028.jpg	100
1588.829	0.595	595.4	2back	Block3	2back/STIM_028.jpg	99
1591.434	0.519	519.3	2back	Block3	2back/STIM_028.jpg	99
1594.67	0.736	736.2	2back	Block3	2back/STIM_029.jpg	100
1598.044	0.595	594.9	2back	Block3	2back/STIM_029.jpg	99
1600.804	0.477	477.2	2back	Block3	2back/STIM_029.jpg	100
1604.421	0.756	756.0	2back	Block3	2back/STIM_030.jpg	99
1607.511	0.614	614.5	2back	Block3	2back/STIM_030.jpg	99
1612.022	0.711	711.2	2back	Block3	2back/STIM_030.jpg	100
1614.995	0.383	383.3	2back	Block3	2back/STIM_031.jpg	99
1617.908	0.581	581.2	2back	Block3	2back/STIM_031.jpg	100
1620.523	0.487	486.9	2back	Block3	2back/STIM_031.jpg	100
1624.651	0.527	527.3	2back	Block3	2back/STIM_032.jpg	100
1627.918	0.648	648.4	2back	Block3	2back/STIM_032.jpg	100
1632.444	0.364	363.5	2back	Block3	2back/STIM_032.jpg	99
1636.075	0.343	342.9	2back	Block3	2back/STIM_033.jpg	99
1638.907	0.364	364.2	2back	Block3	2back/STIM_033.jpg	100
1642.275	0.706	705.7	2back	Block3	2back/STIM_033.jpg	99
1646.54	0.377	376.9	2back	Block3	2back/STIM_034.jpg	99
1650.04	0.682	681.8	2back	Block3	2back/STIM_034.jpg	99
1653.743	0.686	686.4	2back	Block3	2back/STIM_034.jpg	99
1656.666	0.64	639.6	2back	Block3	2back/STIM_035.jpg	99
1660.017	0.398	397.5	2back	Block3	2back/STIM_035.jpg	99
1664.312	0.355	355.0	2back	Block3	2back/STIM_035.jpg	100
1668.655	0.645	644.9	2back	Block3	2back/STIM_036.jpg	100
1672.595	0.635	635.0	2back	Block3	2back/STIM_036.jpg	100
1677.101	0.475	474.6	2back	Block3	2back/STIM_036.jpg	100
1680.896	0.687	687.1	2back	Block3	2back/STIM_037.jpg	99
1685.037	0.513	513.0	2back	Block3	2back/STIM_037.jpg	99
1688.475	0.329	328.8	2back	Block3	2back/STIM_037.jpg	99
1691.52	0.561	561.0	2back	Block3	2back/STIM_038.jpg	100
1694.271	0.67	670.1	2back	Block3	2back/STIM_038.jpg	99
1697.633	0.402	402.2	2back	Block3	2back/STIM_038.jpg	100
1701.05	0.622	621.6	2back	Block3	2back/STIM_039.jpg	100
1705.077	0.361	361.3	2back	Block3	2back/STIM_039.jpg	100
1708.082	0.4	400.5	2back	Block3	2back/STIM_039.jpg	99
1710.523	0.439	439.3	0back	Block3	0back/STIM_000.jpg	100
1714.361	0.472	471.5	0back	Block3	0back/STIM_000.jpg	99
1718.354	0.456	455.6	0back	Block3	0back/STIM_000.jpg	100
1722.623	0.521	520.6	0back	Block3	0back/STIM_001.jpg	99
1726.943	0.5	500.1	0back	Block3	0back/STIM_001.jpg	99
1731.382	0.56	559.5	0back	Block3	0back/STIM_001.jpg	99
1734.045	0.336	335.7	0back	Block3	0back/STIM_002.jpg	100
1738.37	0.527	526.6	0back	Block3	0back/STIM_002.jpg	99
1740.925	0.509	509.1	0back	Block3	0back/STIM_002.jpg	100
1745.17	0.324	324.4	0back	Block3	0back/STIM_003.jpg	99
1748.943	0.6	599.9	0back	Block3	0back/STIM_003.jpg	100
1753.028	0.53	530.4	0back	Block3	0back/STIM_003.jpg	100
1755.712	0.482	482.1	0back	Block3	0back/STIM_004.jpg	99
1758.335	0.56	560.3	0back	Block3	0back/STIM_004.jpg	100
1761.424	0.442	441.9	0back	Block3	0back/STIM_004.jpg	99
1764.047	0.521	520.7	0back	Block3	0back/STIM_005.jpg	100
1768.32	0.371	371.1	0back	Block3	0back/STIM_005.jpg	99
1771.443	0.563	563.4	0back	Block3	0back/STIM_005.jpg	99
1774.244	0.326	325.8	0back	Block3	0back/STIM_006.jpg	99
1777.418	0.346	346.1	0back	Block3	0back/STIM_006.jpg	99
1780.935	0.404	403.8	0back	Block3	0back/STIM_006.jpg	100
1785.296	0.521	521.3	0back	Block3	0back/STIM_007.jpg	99
1788.699	0.6	599.7	0back	Block3	0back/STIM_007.jpg	100
1791.512	0.463	463.3	0back	Block3	0back/STIM_007.jpg	99
1795.354	0.408	408.0	0back	Block3	0back/STIM_008.jpg	99
1798.825	0.548	547.8	0back	Block3	0back/STIM_008.jpg	99
1801.738	0.31	309.8	0back	Block3	0back/STIM_008.jpg	100
1805.847	0.526	526.0	0back	Block3	0back/STIM_009.jpg	100
1808.766	0.356	356.1	0back	Block3	0back/STIM_009.jpg	99
1812.569	0.31	309.7	0back	Block3	0back/STIM_009.jpg	100
1815.506	0.372	372.4	0back	Block3	0back/STIM_010.jpg	99
1818.284	0.532	531.7	0back	Block3	0back/STIM_010.jpg	99
1821.832	0.422	422.1	0back	Block3	0back/STIM_010.jpg	99
1825.276	0.61	609.5	0back	Block3	0back/STIM_011.jpg	99
1828.693	0.595	594.8	0back	Block3	0back/STIM_011.jpg	100
1831.508	0.546	546.4	0back	Block3	0back/STIM_011.jpg	99
1834.492	0.401	400.9	0back	Block3	0back/STIM_012.jpg	99
1838.505	0.467	466.7	0back	Block3	0back/STIM_012.jpg	99
1841.034	0.348	348.3	0back	Block3	0back/STIM_012.jpg	100
1843.564	0.312	311.8	0back	Block3	0back/STIM_013.jpg	100
1846.731	0.582	582.5	0back	Block3	0back/STIM_013.jpg	100
1849.601	0.564	563.7	0back	Block3	0back/STIM_013.jpg	100
1852.274	0.471	470.8	0back	Block3	0back/STIM_014.jpg	99
1855.247	0.422	422.1	0back	Block3	0back/STIM_014.jpg	99
1859.586	0.539	538.6	0back	Block3	0back/STIM_014.jpg	99
1863.265	0.443	442.9	0back	Block3	0back/STIM_015.jpg	100
1867.622	0.552	551.9	0back	Block3	0back/STIM_015.jpg	99
1870.249	0.399	399.3	0back	Block3	0back/STIM_015.jpg	99
1873.43	0.331	331.2	0back	Block3	0back/STIM_016.jpg	100
1876.835	0.426	426.3	0back	Block3	0back/STIM_016.jpg	100
1881.01	0.532	532.3	0back	Block3	0back/STIM_016.jpg	100
1883.552	0.405	404.9	0back	Block3	0back/STIM_017.jpg	100
1887.397	0.363	362.7	0back	Block3	0back/STIM_017.jpg	99
1889.832	0.563	563.3	0back	Block3	0back/STIM_017.jpg	99
1893.845	0.397	396.7	0back	Block3	0back/STIM_018.jpg	100
1897.459	0.585	584.9	0back	Block3	0back/STIM_018.jpg	99
1901.409	0.472	471.8	0back	Block3	0back/STIM_018.jpg	99
1905.261	0.486	485.8	0back	Block3	0back/STIM_019.jpg	99
1907.932	0.595	594.7	0back	Block3	0back/STIM_019.jpg	99
1912.343	0.595	594.9	0back	Block3	0back/STIM_019.jpg	100
1915.723	0.654	653.8	2back	Block4	2back/STIM_000.jpg	99
1919.671	0.406	405.5	2back	Block4	2back/STIM_000.jpg	99
1922.257	0.415	415.1	2back	Block4	2back/STIM_000.jpg	99
1926.535	0.585	585.2	2back	Block4	2back/STIM_001.jpg	99
1929.886	0.392	392.1	2back	Block4	2back/STIM_001.jpg	100
1934.218	0.554	554.5	2back	Block4	2back/STIM_001.jpg	100
1938.706	0.565	564.9	2back	Block4	2back/STIM_002.jpg	99
1943.171	0.533	532.6	2back	Block4	2back/STIM_002.jpg	99
1947.089	0.373	373.4	2back	Block4	2back/STIM_002.jpg	100
1950.409	0.423	422.7	2back	Block4	2back/STIM_003.jpg	100
1953.481	0.341	341.2	2back	Block4	2back/STIM_003.jpg	99
1956.882	0.726	726.5	2back	Block4	2back/STIM_003.jpg	100
1960.797	0.337	336.9	2back	Block4	2back/STIM_004.jpg	99
1963.553	0.483	482.9	2back	Block4	2back/STIM_004.jpg	99
1966.861	0.417	417.3	2back	Block4	2back/STIM_004.jpg	99
1970.326	0.578	578.4	2back	Block4	2back/STIM_005.jpg	99
1973.078	0.519	519.2	2back	Block4	2back/STIM_005.jpg	100
1977.396	0.531	530.9	2back	Block4	2back/STIM_005.jpg	100
1981.686	0.442	441.9	2back	Block4	2back/STIM_006.jpg	99
1984.941	0.481	480.6	2back	Block4	2back/STIM_006.jpg	99
1987.545	0.438	437.9	2back	Block4	2back/STIM_006.jpg	99
1991.248	0.432	432.3	2back	Block4	2back/STIM_007.jpg	100
1994.046	0.588	588.5	2back	Block4	2back/STIM_007.jpg	99
1997.535	0.712	712.5	2back	Block4	2back/STIM_007.jpg	99
2000.813	0.479	479.1	2back	Block4	2back/STIM_008.jpg	100
2004.613	0.454	454.5	2back	Block4	2back/STIM_008.jpg	99
2007.833	0.507	506.7	2back	Block4	2back/STIM_008.jpg	100
2011.138	0.427	427.2	2back	Block4	2back/STIM_009.jpg	100
2014.552	0.331	331.3	2back	Block4	2back/STIM_009.jpg	100
2017.178	0.617	617.2	2back	Block4	2back/STIM_009.jpg	100
2021.147	0.627	627.3	2back	Block4	2back/STIM_010.jpg	99
2024.759	0.576	575.6	2back	Block4	2back/STIM_010.jpg	100
2029.199	0.752	752.5	2back	Block4	2back/STIM_010.jpg	100
2032.044	0.332	332.4	2back	Block4	2back/STIM_011.jpg	99
2035.601	0.47	469.6	2back	Block4	2back/STIM_011.jpg	100
2038.69	0.66	659.7	2back	Block4	2back/STIM_011.jpg	99
2042.381	0.644	643.5	2back	Block4	2back/STIM_012.jpg	100
2046.324	0.532	531.8	2back	Block4	2back/STIM_012.jpg	100
2050.12	0.64	640.0	2back	Block4	2back/STIM_012.jpg	99
2054.744	0.616	616.0	2back	Block4	2back/STIM_013.jpg	100
2058.677	0.553	552.8	2back	Block4	2back/STIM_013.jpg	100
2061.281	0.57	569.6	2back	Block4	2back/STIM_013.jpg	99
2064.466	0.374	374.1	2back	Block4	2back/STIM_014.jpg	100
2068.793	0.685	684.8	2back	Block4	2back/STIM_014.jpg	100
2073.012	0.43	430.4	2back	Block4	2back/STIM_014.jpg	99
2076.837	0.515	515.3	2back	Block4	2back/STIM_015.jpg	99
2080.218	0.342	341.5	2back	Block4	2back/STIM_015.jpg	100
2082.953	0.712	712.3	2back	Block4	2back/STIM_015.jpg	99
2086.348	0.502	502.1	2back	Block4	2back/STIM_016.jpg	99
2090.301	0.567	567.1	2back	Block4	2back/STIM_016.jpg	99
2092.897	0.73	730.5	2back	Block4	2back/STIM_016.jpg	100
2096.917	0.515	514.8	2back	Block4	2back/STIM_017.jpg	99
2099.542	0.68	679.6	2back	Block4	2back/STIM_017.jpg	100
2102.766	0.704	703.6	2back	Block4	2back/STIM_017.jpg	99
2105.55	0.587	587.2	2back	Block4	2back/STIM_018.jpg	100
2108.688	0.6	600.0	2back	Block4	2back/STIM_018.jpg	100
2112.662	0.399	398.7	2back	Block4	2back/STIM_018.jpg	99
2116.537	0.509	509.4	2back	Block4	2back/STIM_019.jpg	100
2119.553	0.385	384.6	2back	Block4	2back/STIM_019.jpg	99
2122.871	0.716	716.1	2back	Block4	2back/STIM_019.jpg	99
2126.706	0.736	736.3	2back	Block4	2back/STIM_020.jpg	99
2129.466	0.749	748.6	2back	Block4	2back/STIM_020.jpg	99
2132.637	0.52	519.6	2back	Block4	2back/STIM_020.jpg	100
2135.82	0.335	334.8	2back	Block4	2back/STIM_021.jpg	100
2138.174	0.423	422.9	2back	Block4	2back/STIM_021.jpg	100
2140.811	0.702	701.9	2back	Block4	2back/STIM_021.jpg	100
2143.969	0.418	418.1	2back	Block4	2back/STIM_022.jpg	100
2147.095	0.452	451.6	2back	Block4	2back/STIM_022.jpg	100
2150.656	0.542	542.2	2back	Block4	2back/STIM_022.jpg	99
2153.377	0.353	353.3	2back	Block4	2back/STIM_023.jpg	100
2156.131	0.554	553.8	2back	Block4	2back/STIM_023.jpg	100
2158.931	0.636	636.3	2back	Block4	2back/STIM_023.jpg	99
2161.784	0.342	341.5	2back	Block4	2back/STIM_024.jpg	99
2165.961	0.586	585.7	2back	Block4	2back/STIM_024.jpg	100
2170.061	0.467	466.7	2back	Block4	2back/STIM_024.jpg	99
2172.831	0.392	392.0	2back	Block4	2back/STIM_025.jpg	99
2177.081	0.675	674.8	2back	Block4	2back/STIM_025.jpg	99
2180.471	0.621	620.9	2back	Block4	2back/STIM_025.jpg	100
2183.261	0.597	596.8	2back	Block4	2back/STIM_026.jpg	99
2186.341	0.423	422.9	2back	Block4	2back/STIM_026.jpg	100
2189.317	0.341	340.6	2back	Block4	2back/STIM_026.jpg	99
2191.698	0.715	714.9	2back	Block4	2back/STIM_027.jpg	99
2195.385	0.55	550.5	2back	Block4	2back/STIM_027.jpg	100
2198.609	0.73	730.1	2back	Block4	2back/STIM_027.jpg	100
2203.178	0.35	350.2	2back	Block4	2back/STIM_028.jpg	99
2206.536	0.446	446.0	2back	Block4	2back/STIM_028.jpg	99
2210.49	0.332	331.6	2back	Block4	2back/STIM_028.jpg	99
2212.918	0.566	566.4	2back	Block4	2back/STIM_029.jpg	100
2215.8	0.705	704.7	2back	Block4	2back/STIM_029.jpg	99
2220.479	0.685	684.9	2back	Block4	2back/STIM_029.jpg	100
2224.421	0.617	617.2	2back	Block4	2back/STIM_030.jpg	99
2228.136	0.706	705.9	2back	Block4	2back/STIM_030.jpg	100
2231.484	0.633	633.1	2back	Block4	2back/STIM_030.jpg	100
2234.217	0.386	386.5	2back	Block4	2back/STIM_031.jpg	100
2237.945	0.698	698.2	2back	Block4	2back/STIM_031.jpg	99
2241.573	0.551	551.4	2back	Block4	2back/STIM_031.jpg	99
2244.443	0.655	655.4	2back	Block4	2back/STIM_032.jpg	99
2247.124	0.604	603.6	2back	Block4	2back/STIM_032.jpg	99
2251.032	0.36	360.0	2back	Block4	2back/STIM_032.jpg	99
2253.565	0.68	679.6	2back	Block4	2back/STIM_033.jpg	99
2257.385	0.597	597.1	2back	Block4	2back/STIM_033.jpg	99
2261.748	0.681	680.8	2back	Block4	2back/STIM_033.jpg	100
2264.783	0.405	404.6	2back	Block4	2back/STIM_034.jpg	100
2267.644	0.455	455.2	2back	Block4	2back/STIM_034.jpg	99
2270.744	0.358	358.1	2back	Block4	2back/STIM_034.jpg	100
2274.305	0.615	615.1	2back	Block4	2back/STIM_035.jpg	99
2277.25	0.47	469.7	2back	Block4	2back/STIM_035.jpg	100
2279.885	0.573	572.8	2back	Block4	2back/STIM_035.jpg	99
2282.492	0.474	473.8	2back	Block4	2back/STIM_036.jpg	100
2286.63	0.693	693.3	2back	Block4	2back/STIM_036.jpg	100
2291.04	0.592	592.1	2back	Block4	2back/STIM_036.jpg	100
2293.874	0.61	610.1	2back	Block4	2back/STIM_037.jpg	99
2298.086	0.487	486.9	2back	Block4	2back/STIM_037.jpg	100
2301.74	0.651	650.9	2back	Block4	2back/STIM_037.jpg	100
2304.706	0.707	706.7	2back	Block4	2back/STIM_038.jpg	100
2308.395	0.634	633.6	2back	Block4	2back/STIM_038.jpg	100
2311.631	0.549	549.1	2back	Block4	2back/STIM_038.jpg	100
2314.573	0.431	430.7	2back	Block4	2back/STIM_039.jpg	100
2318.298	0.356	356.3	2back	Block4	2back/STIM_039.jpg	100
2320.915	0.618	618.0	2back	Block4	2back/STIM_039.jpg	99
2324.916	0.366	365.9	0back	Block4	0back/STIM_000.jpg	100
2327.61	0.488	487.6	0back	Block4	0back/STIM_000.jpg	99
2330.576	0.402	402.1	0back	Block4	0back/STIM_000.jpg	100
2334.233	0.374	374.2	0back	Block4	0back/STIM_001.jpg	99
2336.7	0.544	543.8	0back	Block4	0back/STIM_001.jpg	100
2339.671	0.544	544.2	0back	Block4	0back/STIM_001.jpg	99
2342.539	0.568	567.7	0back	Block4	0back/STIM_002.jpg	100
2346.075	0.401	400.9	0back	Block4	0back/STIM_002.jpg	99
2350.425	0.372	372.1	0back	Block4	0back/STIM_002.jpg	100
2354.134	0.596	595.5	0back	Block4	0back/STIM_003.jpg	100
2357.578	0.508	508.3	0back	Block4	0back/STIM_003.jpg	100
2361.3	0.505	504.8	0back	Block4	0back/STIM_003.jpg	99
2365.295	0.408	407.5	0back	Block4	0back/STIM_004.jpg	100
2367.74	0.437	436.8	0back	Block4	0back/STIM_004.jpg	99
2371.467	0.406	406.4	0back	Block4	0back/STIM_004.jpg	100
2375.554	0.456	456.2	0back	Block4	0back/STIM_005.jpg	100
2379.207	0.571	570.9	0back	Block4	0back/STIM_005.jpg	100
2383.638	0.344	344.2	0back	Block4	0back/STIM_005.jpg	100
2387.116	0.5	500.5	0back	Block4	0back/STIM_006.jpg	99
2389.968	0.441	440.6	0back	Block4	0back/STIM_006.jpg	99
2393.176	0.369	368.9	0back	Block4	0back/STIM_006.jpg	99
2395.723	0.465	464.7	0back	Block4	0back/STIM_007.jpg	100
2399.836	0.4	400.2	0back	Block4	0back/STIM_007.jpg	100
2403.442	0.55	550.1	0back	Block4	0back/STIM_007.jpg	100
2407.458	0.585	584.9	0back	Block4	0back/STIM_008.jpg	99
2411.706	0.309	309.4	0back	Block4	0back/STIM_008.jpg	100
2414.776	0.585	584.8	0back	Block4	0back/STIM_008.jpg	100
2417.425	0.583	582.8	0back	Block4	0back/STIM_009.jpg	99
2420.727	0.606	606.0	0back	Block4	0back/STIM_009.jpg	100
2424.855	0.561	561.3	0back	Block4	0back/STIM_009.jpg	99
2429.26	0.519	519.1	0back	Block4	0back/STIM_010.jpg	100
2432.756	0.501	500.9	0back	Block4	0back/STIM_010.jpg	100
2436.254	0.438	438.2	0back	Block4	0back/STIM_010.jpg	100
2439.921	0.603	602.7	0back	Block4	0back/STIM_011.jpg	99
2443.65	0.376	375.6	0back	Block4	0back/STIM_011.jpg	100
2446.5	0.493	493.0	0back	Block4	0back/STIM_011.jpg	99
2449.319	0.551	550.6	0back	Block4	0back/STIM_012.jpg	100
2453.711	0.345	344.8	0back	Block4	0back/STIM_012.jpg	100
2457.528	0.555	554.6	0back	Block4	0back/STIM_012.jpg	100
2460.205	0.438	438.3	0back	Block4	0back/STIM_013.jpg	99
2462.685	0.394	394.4	0back	Block4	0back/STIM_013.jpg	99
2465.497	0.507	507.1	0back	Block4	0back/STIM_013.jpg	100
2468.985	0.514	514.3	0back	Block4	0back/STIM_014.jpg	99
2473.041	0.419	419.3	0back	Block4	0back/STIM_014.jpg	99
2476.892	0.5	500.2	0back	Block4	0back/STIM_014.jpg	99
2479.972	0.358	358.1	0back	Block4	0back/STIM_015.jpg	100
2483.555	0.456	456.5	0back	Block4	0back/STIM_015.jpg	100
2487.656	0.394	394.2	0back	Block4	0back/STIM_015.jpg	100
2491.953	0.579	579.3	0back	Block4	0back/STIM_016.jpg	99
2495.478	0.358	358.3	0back	Block4	0back/STIM_016.jpg	100
2498.181	0.461	460.6	0back	Block4	0back/STIM_016.jpg	100
2501.759	0.573	572.7	0back	Block4	0back/STIM_017.jpg	100
2505.202	0.562	562.4	0back	Block4	0back/STIM_017.jpg	100
2509.572	0.347	346.9	0back	Block4	0back/STIM_017.jpg	100
2513.59	0.503	503.4	0back	Block4	0back/STIM_018.jpg	99
2517.006	0.557	557.3	0back	Block4	0back/STIM_018.jpg	99
2521.365	0.475	475.1	0back	Block4	0back/STIM_018.jpg	99
2523.983	0.563	563.2	0back	Block4	0back/STIM_019.jpg	100
2526.881	0.495	494.8	0back	Block4	0back/STIM_019.jpg	99
2530.415	0.424	423.5	0back	Block4	0back/STIM_019.jpg	100
