onset	duration	response_time_ms	trial_type	learning_stage	stimulus	response_port
0.0	1.171	1171.1	2back	Block1	2back/STIM_000.jpg	100
4.75	1.017	1016.7	2back	Block1	2back/STIM_000.jpg	100
9.46	0.952	952.2	2back	Block1	2back/STIM_000.jpg	99
13.956	0.717	717.4	2back	Block1	2back/STIM_001.jpg	99
17.195	1.396	1395.5	2back	Block1	2back/STIM_001.jpg	99
21.255	1.276	1276.0	2back	Block1	2back/STIM_001.jpg	99
25.036	1.336	1335.8	2back	Block1	2back/STIM_002.jpg	99
29.582	1.15	1150.4	2back	Block1	2back/STIM_002.jpg	99
34.302	0.942	941.6	2back	Block1	2back/STIM_002.jpg	100
37.669	1.013	1013.4	2back	Block1	2back/STIM_003.jpg	99
40.688	0.683	683.1	2back	Block1	2back/STIM_003.jpg	100
45.146	1.229	1228.7	2back	Block1	2back/STIM_003.jpg	99
49.011	1.444	1444.1	2back	Block1	2back/STIM_004.jpg	100
52.972	0.83	830.3	2back	Block1	2back/STIM_004.jpg	99
57.151	0.635	635.4	2back	Block1	2back/STIM_004.jpg	100
60.324	1.423	1422.7	2back	Block1	2back/STIM_005.jpg	99
64.583	1.085	1084.7	2back	Block1	2back/STIM_005.jpg	99
68.301	1.044	1043.5	2back	Block1	2back/STIM_005.jpg	100
71.982	0.807	807.3	2back	Block1	2back/STIM_006.jpg	100
76.284	1.268	1267.9	2back	Block1	2back/STIM_006.jpg	100
79.465	0.944	943.9	2back	Block1	2back/STIM_006.jpg	99
83.844	1.178	1178.2	2back	Block1	2back/STIM_007.jpg	100
88.197	0.718	718.5	2back	Block1	2back/STIM_007.jpg	99
90.892	1.04	1039.5	2back	Block1	2back/STIM_007.jpg	100
94.189	1.285	1284.6	2back	Block1	2back/STIM_008.jpg	99
98.48	1.459	1459.2	2back	Block1	2back/STIM_008.jpg	100
102.715	0.989	989.4	2back	Block1	2back/STIM_008.jpg	99
105.774	0.796	795.7	2back	Block1	2back/STIM_009.jpg	100
108.727	0.891	891.4	2back	Block1	2back/STIM_009.jpg	99
113.524	1.136	1135.9	2back	Block1	2back/STIM_009.jpg	99
117.308	0.727	727.2	2back	Block1	2back/STIM_010.jpg	100
120.539	0.818	818.2	2back	Block1	2back/STIM_010.jpg	99
123.506	1.38	1380.5	2back	Block1	2back/STIM_010.jpg	100
128.758	0.789	788.9	2back	Block1	2back/STIM_011.jpg	99
133.385	1.13	1130.4	2back	Block1	2back/STIM_011.jpg	100
137.175	1.124	1124.2	2back	Block1	2back/STIM_011.jpg	100
142.11	0.798	798.4	2back	Block1	2back/STIM_012.jpg	100
146.263	1.132	1131.9	2back	Block1	2back/STIM_012.jpg	100
151.097	1.332	1331.6	2back	Block1	2back/STIM_012.jpg	100
154.329	0.943	943.0	2back	Block1	2back/STIM_013.jpg	99
158.511	1.225	1225.3	2back	Block1	2back/STIM_013.jpg	100
161.946	0.888	887.8	2back	Block1	2back/STIM_013.jpg	99
166.566	1.113	1112.9	2back	Block1	2back/STIM_014.jpg	99
171.022	0.931	931.3	2back	Block1	2back/STIM_014.jpg	99
175.444	0.604	604.4	2back	Block1	2back/STIM_014.jpg	100
178.37	0.728	728.2	2back	Block1	2back/STIM_015.jpg	100
182.737	0.781	781.0	2back	Block1	2back/STIM_015.jpg	100
186.335	1.18	1179.5	2back	Block1	2back/STIM_015.jpg	100
190.851	1.131	1130.7	2back	Block1	2back/STIM_016.jpg	100
194.392	0.954	953.5	2back	Block1	2back/STIM_016.jpg	99
198.439	0.912	911.6	2back	Block1	2back/STIM_016.jpg	99
202.292	1.466	1465.7	2back	Block1	2back/STIM_017.jpg	100
206.5	1.217	1216.8	2back	Block1	2back/STIM_017.jpg	99
210.636	0.644	643.5	2back	Block1	2back/STIM_017.jpg	100
214.279	1.238	1238.3	2back	Block1	2back/STIM_018.jpg	100
218.411	0.761	760.6	2back	Block1	2back/STIM_018.jpg	100
222.169	1.061	1061.0	2back	Block1	2back/STIM_018.jpg	100
226.737	1.073	1073.1	2back	Block1	2back/STIM_019.jpg	99
231.705	0.844	843.5	2back	Block1	2back/STIM_019.jpg	100
235.259	0.91	909.7	2back	Block1	2back/STIM_019.jpg	100
238.845	1.098	1097.7	2back	Block1	2back/STIM_020.jpg	100
242.069	0.87	870.2	2back	Block1	2back/STIM_020.jpg	100
246.856	1.1	1099.5	2back	Block1	2back/STIM_020.jpg	99
250.405	1.523	1522.9	2back	Block1	2back/STIM_021.jpg	100
255.568	0.671	671.2	2back	Block1	2back/STIM_021.jpg	100
258.318	1.056	1055.6	2back	Block1	2back/STIM_021.jpg	99
263.044	1.378	1378.1	2back	Block1	2back/STIM_022.jpg	99
267.831	1.359	1358.8	2back	Block1	2back/STIM_022.jpg	100
271.106	0.735	735.1	2back	Block1	2back/STIM_022.jpg	99
274.033	1.376	1376.5	2back	Block1	2back/STIM_023.jpg	99
277.641	0.865	865.3	2back	Block1	2back/STIM_023.jpg	99
280.721	0.835	834.8	2back	Block1	2back/STIM_023.jpg	100
283.829	0.77	769.7	2back	Block1	2back/STIM_024.jpg	100
288.307	1.144	1144.1	2back	Block1	2back/STIM_024.jpg	99
293.289	1.164	1163.8	2back	Block1	2back/STIM_024.jpg	99
297.94	1.522	1522.4	2back	Block1	2back/STIM_025.jpg	99
302.777	1.373	1373.4	2back	Block1	2back/STIM_025.jpg	99
307.939	0.965	965.1	2back	Block1	2back/STIM_025.jpg	100
312.335	1.189	1189.0	2back	Block1	2back/STIM_026.jpg	100
316.84	0.75	750.2	2back	Block1	2back/STIM_026.jpg	99
321.277	1.084	1083.9	2back	Block1	2back/STIM_026.jpg	99
325.814	1.213	1213.4	2back	Block1	2back/STIM_027.jpg	100
330.32	1.376	1375.8	2back	Block1	2back/STIM_027.jpg	99
335.111	1.169	1168.8	2back	Block1	2back/STIM_027.jpg	100
339.187	0.803	803.1	2back	Block1	2back/STIM_028.jpg	100
343.739	1.011	1010.9	2back	Block1	2back/STIM_028.jpg	99
347.807	1.132	1132.5	2back	Block1	2back/STIM_028.jpg	99
351.415	1.373	1372.6	2back	Block1	2back/STIM_029.jpg	99
355.666	1.085	1084.7	2back	Block1	2back/STIM_029.jpg	100
359.936	0.625	624.7	2back	Block1	2back/STIM_029.jpg	100
362.611	1.007	1006.7	2back	Block1	2back/STIM_030.jpg	100
365.911	1.043	1042.6	2back	Block1	2back/STIM_030.jpg	100
369.778	0.881	880.8	2back	Block1	2back/STIM_030.jpg	100
374.344	1.047	1046.8	2back	Block1	2back/STIM_031.jpg	100
377.588	0.91	910.0	2back	Block1	2back/STIM_031.jpg	99
380.725	1.128	1128.0	2back	Block1	2back/STIM_031.jpg	99
384.873	1.253	1253.0	2back	Block1	2back/STIM_032.jpg	100
388.855	1.319	1318.6	2back	Block1	2back/STIM_032.jpg	99
392.956	1.124	1123.5	2back	Block1	2back/STIM_032.jpg	100
397.433	1.308	1307.8	2back	Block1	2back/STIM_033.jpg	100
401.074	0.661	661.4	2back	Block1	2back/STIM_033.jpg	99
405.11	0.616	616.3	2back	Block1	2back/STIM_033.jpg	100
408.765	1.362	1362.3	2back	Block1	2back/STIM_034.jpg	100
413.431	1.064	1064.4	2back	Block1	2back/STIM_034.jpg	100
418.326	0.849	849.2	2back	Block1	2back/STIM_034.jpg	99
422.365	0.704	703.8	2back	Block1	2back/STIM_035.jpg	100
426.016	0.963	962.9	2back	Block1	2back/STIM_035.jpg	99
430.233	0.901	901.3	2back	Block1	2back/STIM_035.jpg	100
434.184	1.067	1067.1	2back	Block1	2back/STIM_036.jpg	99
438.239	1.311	1311.4	2back	Block1	2back/STIM_036.jpg	99
443.128	0.888	887.6	2back	Block1	2back/STIM_036.jpg	99
446.005	1.283	1283.1	2back	Block1	2back/STIM_037.jpg	100
450.37	1.066	1066.1	2back	Block1	2back/STIM_037.jpg	99
455.202	1.003	1002.8	2back	Block1	2back/STIM_037.jpg	100
459.721	0.688	687.7	2back	Block1	2back/STIM_038.jpg	100
464.014	0.786	785.7	2back	Block1	2back/STIM_038.jpg	99
468.15	0.704	703.8	2back	Block1	2back/STIM_038.jpg	99
472.368	1.056	1055.8	2back	Block1	2back/STIM_039.jpg	100
476.088	1.048	1047.8	2back	Block1	2back/STIM_039.jpg	100
479.699	1.342	1342.1	2back	Block1	2back/STIM_039.jpg	99
483.022	0.483	482.9	0back	Block1	0back/STIM_000.jpg	100
485.97	0.464	463.6	0back	Block1	0back/STIM_000.jpg	99
489.968	0.804	804.2	0back	Block1	0back/STIM_000.jpg	100
494.12	0.604	604.4	0back	Block1	0back/STIM_001.jpg	99
498.23	0.484	483.8	0back	Block1	0back/STIM_001.jpg	99
501.372	0.561	560.7	0back	Block1	0back/STIM_001.jpg	99
504.295	0.654	653.6	0back	Block1	0back/STIM_002.jpg	99
508.325	0.592	592.2	0back	Block1	0back/STIM_002.jpg	100
511.135	0.521	521.4	0back	Block1	0back/STIM_002.jpg	100
513.694	0.876	876.0	0back	Block1	0back/STIM_003.jpg	100
516.619	0.668	667.9	0back	Block1	0back/STIM_003.jpg	100
520.745	0.557	556.8	0back	Block1	0back/STIM_003.jpg	99
525.206	0.763	763.3	0back	Block1	0back/STIM_004.jpg	99
529.51	0.8	799.5	0back	Block1	0back/STIM_004.jpg	99
532.959	0.439	439.3	0back	Block1	0back/STIM_004.jpg	100
537.125	0.711	711.3	0back	Block1	0back/STIM_005.jpg	99
541.233	0.74	739.5	0back	Block1	0back/STIM_005.jpg	99
544.985	0.868	867.7	0back	Block1	0back/STIM_005.jpg	99
549.117	0.489	489.2	0back	Block1	0back/STIM_006.jpg	99
551.722	0.661	660.7	0back	Block1	0back/STIM_006.jpg	100
554.535	0.681	681.4	0back	Block1	0back/STIM_006.jpg	99
558.43	0.709	708.6	0back	Block1	0back/STIM_007.jpg	100
561.918	0.83	829.5	0back	Block1	0back/STIM_007.jpg	99
565.92	0.828	827.8	0back	Block1	0back/STIM_007.jpg	100
569.331	0.617	617.4	0back	Block1	0back/STIM_008.jpg	99
573.302	0.538	538.5	0back	Block1	0back/STIM_008.jpg	100
577.512	0.875	874.6	0back	Block1	0back/STIM_008.jpg	100
580.314	0.46	460.0	0back	Block1	0back/STIM_009.jpg	100
584.607	0.817	816.6	0back	Block1	0back/STIM_009.jpg	99
588.752	0.551	550.6	0back	Block1	0back/STIM_009.jpg	100
593.168	0.478	478.5	0back	Block1	0back/STIM_010.jpg	100
597.322	0.446	446.5	0back	Block1	0back/STIM_010.jpg	100
601.44	0.659	658.9	0back	Block1	0back/STIM_010.jpg	100
604.065	0.872	872.2	0back	Block1	0back/STIM_011.jpg	100
607.609	0.743	742.8	0back	Block1	0back/STIM_011.jpg	100
610.888	0.812	812.0	0back	Block1	0back/STIM_011.jpg	99
614.982	0.684	683.5	0back	Block1	0back/STIM_012.jpg	100
618.107	0.766	765.5	0back	Block1	0back/STIM_012.jpg	99
621.253	0.524	523.5	0back	Block1	0back/STIM_012.jpg	99
624.34	0.521	521.2	0back	Block1	0back/STIM_013.jpg	100
628.615	0.755	754.9	0back	Block1	0back/STIM_013.jpg	100
631.675	0.536	535.9	0back	Block1	0back/STIM_013.jpg	100
634.53	0.453	453.3	0back	Block1	0back/STIM_014.jpg	100
637.766	0.568	568.2	0back	Block1	0back/STIM_014.jpg	100
640.519	0.836	835.8	0back	Block1	0back/STIM_014.jpg	99
644.614	0.656	655.9	0back	Block1	0back/STIM_015.jpg	100
647.477	0.566	566.0	0back	Block1	0back/STIM_015.jpg	99
651.678	0.805	805.1	0back	Block1	0back/STIM_015.jpg	99
654.497	0.495	495.2	0back	Block1	0back/STIM_016.jpg	100
658.049	0.737	737.4	0back	Block1	0back/STIM_016.jpg	100
661.325	0.557	557.3	0back	Block1	0back/STIM_016.jpg	100
665.348	0.768	767.7	0back	Block1	0back/STIM_017.jpg	99
668.451	0.609	608.8	0back	Block1	0back/STIM_017.jpg	99
671.438	0.582	582.0	0back	Block1	0back/STIM_017.jpg	99
674.844	0.85	849.8	0back	Block1	0back/STIM_018.jpg	100
678.563	0.798	798.4	0back	Block1	0back/STIM_018.jpg	100
682.115	0.538	538.4	0back	Block1	0back/STIM_018.jpg	100
686.113	0.478	478.5	0back	Block1	0back/STIM_019.jpg	99
689.82	0.768	768.3	0back	Block1	0back/STIM_019.jpg	99
694.356	0.839	839.2	0back	Block1	0back/STIM_019.jpg	99
698.493	1.099	1099.1	2back	Block2	2back/STIM_000.jpg	99
702.375	0.851	850.7	2back	Block2	2back/STIM_000.jpg	100
706.237	0.85	849.5	2back	Block2	2back/STIM_000.jpg	100
709.285	1.188	1188.5	2back	Block2	2back/STIM_001.jpg	99
713.957	0.842	842.5	2back	Block2	2back/STIM_001.jpg	100
718.41	0.885	884.8	2back	Block2	2back/STIM_001.jpg	99
721.534	0.801	801.0	2back	Block2	2back/STIM_002.jpg	100
725.959	1.086	1085.8	2back	Block2	2back/STIM_002.jpg	100
729.945	0.513	512.7	2back	Block2	2back/STIM_002.jpg	99
733.715	0.659	658.7	2back	Block2	2back/STIM_003.jpg	100
737.121	0.556	556.3	2back	Block2	2back/STIM_003.jpg	99
739.855	0.842	842.3	2back	Block2	2back/STIM_003.jpg	100
744.111	0.678	678.1	2back	Block2	2back/STIM_004.jpg	99
747.174	1.099	1098.8	2back	Block2	2back/STIM_004.jpg	100
751.208	0.603	603.4	2back	Block2	2back/STIM_004.jpg	100
754.275	1.233	1233.2	2back	Block2	2back/STIM_005.jpg	99
759.088	1.037	1037.0	2back	Block2	2back/STIM_005.jpg	99
763.183	1.033	1032.6	2back	Block2	2back/STIM_005.jpg	99
767.114	0.685	685.3	2back	Block2	2back/STIM_006.jpg	100
770.79	1.11	1109.9	2back	Block2	2back/STIM_006.jpg	100
775.463	0.903	902.6	2back	Block2	2back/STIM_006.jpg	100
780.124	0.743	743.3	2back	Block2	2back/STIM_007.jpg	100
783.751	0.622	621.8	2back	Block2	2back/STIM_007.jpg	100
787.169	0.759	759.4	2back	Block2	2back/STIM_007.jpg	100
791.094	0.783	783.3	2back	Block2	2back/STIM_008.jpg	99
794.235	1.174	1173.8	2back	Block2	2back/STIM_008.jpg	100
797.31	0.819	819.2	2back	Block2	2back/STIM_008.jpg	99
801.394	0.744	743.8	2back	Block2	2back/STIM_009.jpg	100
805.227	1.182	1181.8	2back	Block2	2back/STIM_009.jpg	100
809.262	0.659	659.2	2back	Block2	2back/STIM_009.jpg	100
812.965	0.687	686.7	2back	Block2	2back/STIM_010.jpg	99
815.648	0.596	595.6	2back	Block2	2back/STIM_010.jpg	100
818.971	0.778	777.5	2back	Block2	2back/STIM_010.jpg	100
822.413	1.03	1029.7	2back	Block2	2back/STIM_011.jpg	99
825.618	1.167	1167.1	2back	Block2	2back/STIM_011.jpg	99
829.279	0.747	746.7	2back	Block2	2back/STIM_011.jpg	99
832.68	0.684	684.2	2back	Block2	2back/STIM_012.jpg	100
836.94	0.616	616.4	2back	Block2	2back/STIM_012.jpg	100
840.22	0.881	880.9	2back	Block2	2back/STIM_012.jpg	100
843.845	0.712	711.5	2back	Block2	2back/STIM_013.jpg	100
846.511	0.789	788.7	2back	Block2	2back/STIM_013.jpg	100
850.038	0.934	933.7	2back	Block2	2back/STIM_013.jpg	99
853.138	0.905	905.0	2back	Block2	2back/STIM_014.jpg	99
856.069	1.221	1220.7	2back	Block2	2back/STIM_014.jpg	100
859.382	0.894	893.7	2back	Block2	2back/STIM_014.jpg	99
862.827	0.7	700.4	2back	Block2	2back/STIM_015.jpg	100
866.113	1.07	1070.0	2back	Block2	2back/STIM_015.jpg	99
869.709	1.083	1082.8	2back	Block2	2back/STIM_015.jpg	100
874.428	0.725	724.8	2back	Block2	2back/STIM_016.jpg	99
878.606	0.742	742.4	2back	Block2	2back/STIM_016.jpg	100
881.39	0.676	675.9	2back	Block2	2back/STIM_016.jpg	99
884.661	1.112	1111.6	2back	Block2	2back/STIM_017.jpg	100
889.428	1.074	1074.3	2back	Block2	2back/STIM_017.jpg	99
894.317	0.572	572.4	2back	Block2	2back/STIM_017.jpg	100
897.739	1.198	1198.2	2back	Block2	2back/STIM_018.jpg	100
901.741	1.187	1187.2	2back	Block2	2back/STIM_018.jpg	100
905.159	0.666	666.4	2back	Block2	2back/STIM_018.jpg	99
909.567	1.127	1127.0	2back	Block2	2back/STIM_019.jpg	99
912.955	0.937	936.9	2back	Block2	2back/STIM_019.jpg	99
915.982	0.913	913.0	2back	Block2	2back/STIM_019.jpg	99
918.982	0.694	693.6	2back	Block2	2back/STIM_020.jpg	100
923.354	0.56	560.0	2back	Block2	2back/STIM_020.jpg	99
927.18	0.724	724.5	2back	Block2	2back/STIM_020.jpg	100
930.332	0.677	677.1	2back	Block2	2back/STIM_021.jpg	99
933.694	0.785	785.0	2back	Block2	2back/STIM_021.jpg	100
937.297	0.526	526.5	2back	Block2	2back/STIM_021.jpg	99
940.873	0.883	883.1	2back	Block2	2back/STIM_022.jpg	100
944.954	0.852	851.6	2back	Block2	2back/STIM_022.jpg	100
949.462	0.593	593.1	2back	Block2	2back/STIM_022.jpg	100
953.669	0.629	629.1	2back	Block2	2back/STIM_023.jpg	100
956.787	0.627	627.0	2back	Block2	2back/STIM_023.jpg	99
960.27	0.736	736.0	2back	Block2	2back/STIM_023.jpg	99
963.5	0.828	827.6	2back	Block2	2back/STIM_024.jpg	100
967.968	0.532	532.1	2back	Block2	2back/STIM_024.jpg	100
971.028	1.015	1014.6	2back	Block2	2back/STIM_024.jpg	99
974.95	0.928	928.4	2back	Block2	2back/STIM_025.jpg	100
979.74	0.699	699.0	2back	Block2	2back/STIM_025.jpg	100
982.908	0.733	732.8	2back	Block2	2back/STIM_025.jpg	100
985.617	1.104	1104.4	2back	Block2	2back/STIM_026.jpg	100
988.982	0.707	706.6	2back	Block2	2back/STIM_026.jpg	100
992.997	0.756	756.3	2back	Block2	2back/STIM_026.jpg	99
997.624	0.652	652.0	2back	Block2	2back/STIM_027.jpg	99
1000.477	1.197	1197.2	2back	Block2	2back/STIM_027.jpg	99
1003.88	0.65	650.0	2back	Block2	2back/STIM_027.jpg	100
1007.624	0.703	703.0	2back	Block2	2back/STIM_028.jpg	100
1012.239	0.837	836.9	2back	Block2	2back/STIM_028.jpg	99
1016.354	0.524	524.5	2back	Block2	2back/STIM_028.jpg	99
1019.138	0.824	823.8	2back	Block2	2back/STIM_029.jpg	99
1022.787	1.074	1074.0	2back	Block2	2back/STIM_029.jpg	100
1026.106	0.877	877.4	2back	Block2	2back/STIM_029.jpg	100
1029.442	1.173	1173.1	2back	Block2	2back/STIM_030.jpg	100
1033.722	0.913	912.7	2back	Block2	2back/STIM_030.jpg	99
1037.341	1.124	1123.7	2back	Block2	2back/STIM_030.jpg	100
1041.821	0.614	614.1	2back	Block2	2back/STIM_031.jpg	99
1045.794	1.188	1187.5	2back	Block2	2back/STIM_031.jpg	100
1049.228	0.79	789.7	2back	Block2	2back/STIM_031.jpg	99
1052.299	1.027	1027.0	2back	Block2	2back/STIM_032.jpg	100
1056.582	1.041	1040.8	2back	Block2	2back/STIM_032.jpg	100
1061.052	0.528	528.3	2back	Block2	2back/STIM_032.jpg	99
1064.438	0.725	725.0	2back	Block2	2back/STIM_033.jpg	99
1067.529	0.792	791.7	2back	Block2	2back/STIM_033.jpg	99
1070.506	0.554	554.5	2back	Block2	2back/STIM_033.jpg	100
1073.578	0.584	583.6	2back	Block2	2back/STIM_034.jpg	99
1077.444	0.773	772.9	2back	Block2	2back/STIM_034.jpg	99
1080.528	1.047	1046.8	2back	Block2	2back/STIM_034.jpg	99
1083.823	0.893	892.6	2back	Block2	2back/STIM_035.jpg	99
1087.619	0.838	837.7	2back	Block2	2back/STIM_035.jpg	99
1091.059	0.986	985.7	2back	Block2	2back/STIM_035.jpg	99
1094.485	1.141	1140.8	2back	Block2	2back/STIM_036.jpg	99
1098.684	0.813	813.2	2back	Block2	2back/STIM_036.jpg	100
1101.782	1.114	1114.4	2back	Block2	2back/STIM_036.jpg	100
1105.853	1.007	1007.3	2back	Block2	2back/STIM_037.jpg	100
1109.553	0.701	700.7	2back	Block2	2back/STIM_037.jpg	99
1114.091	1.119	1118.7	2back	Block2	2back/STIM_037.jpg	100
1118.522	1.18	1180.5	2back	Block2	2back/STIM_038.jpg	100
1122.413	0.757	757.1	2back	Block2	2back/STIM_038.jpg	100
1125.915	0.86	860.2	2back	Block2	2back/STIM_038.jpg	100
1129.669	0.952	952.3	2back	Block2	2back/STIM_039.jpg	100
1132.887	0.552	551.9	2back	Block2	2back/STIM_039.jpg	99
1136.794	1.116	1115.8	2back	Block2	2back/STIM_039.jpg	99
1140.296	0.768	767.5	0back	Block2	0back/STIM_000.jpg	99
1143.878	0.488	488.1	0back	Block2	0back/STIM_000.jpg	99
1146.812	0.805	805.1	0back	Block2	0back/STIM_000.jpg	99
1149.605	0.548	547.5	0back	Block2	0back/STIM_001.jpg	99
1152.97	0.768	768.4	0back	Block2	0back/STIM_001.jpg	100
1157.667	0.734	733.7	0back	Block2	0back/STIM_001.jpg	99
1161.363	0.779	779.0	0back	Block2	0back/STIM_002.jpg	99
1164.2	0.787	787.2	0back	Block2	0back/STIM_002.jpg	99
1168.173	0.448	448.4	0back	Block2	0back/STIM_002.jpg	99
1171.454	0.861	861.4	0back	Block2	0back/STIM_003.jpg	99
1176.178	0.614	613.5	0back	Block2	0back/STIM_003.jpg	99
1180.716	0.758	757.5	0back	Block2	0back/STIM_003.jpg	100
1184.197	0.825	824.6	0back	Block2	0back/STIM_004.jpg	99
1188.788	0.825	825.2	0back	Block2	0back/STIM_004.jpg	99
1192.14	0.44	440.4	0back	Block2	0back/STIM_004.jpg	100
1196.186	0.605	604.6	0back	Block2	0back/STIM_005.jpg	99
1199.397	0.659	659.3	0back	Block2	0back/STIM_005.jpg	100
1202.092	0.771	770.7	0back	Block2	0back/STIM_005.jpg	99
1205.066	0.872	872.5	0back	Block2	0back/STIM_006.jpg	99
1208.175	0.61	609.6	0back	Block2	0back/STIM_006.jpg	100
1211.887	0.502	502.4	0back	Block2	0back/STIM_006.jpg	99
1214.897	0.476	475.7	0back	Block2	0back/STIM_007.jpg	99
1219.235	0.702	702.5	0back	Block2	0back/STIM_007.jpg	100
1222.563	0.659	659.3	0back	Block2	0back/STIM_007.jpg	99
1226.655	0.816	815.9	0back	Block2	0back/STIM_008.jpg	100
1229.674	0.509	509.5	0back	Block2	0back/STIM_008.jpg	100
1234.065	0.809	809.3	0back	Block2	0back/STIM_008.jpg	99
1237.148	0.58	579.9	0back	Block2	0back/STIM_009.jpg	100
1240.532	0.665	665.0	0back	Block2	0back/STIM_009.jpg	100
1244.491	0.622	622.4	0back	Block2	0back/STIM_009.jpg	100
1247.829	0.703	702.9	0back	Block2	0back/STIM_010.jpg	100
1252.113	0.649	649.0	0back	Block2	0back/STIM_010.jpg	99
1255.778	0.566	566.3	0back	Block2	0back/STIM_010.jpg	100
1258.586	0.854	854.5	0back	Block2	0back/STIM_011.jpg	100
1261.52	0.86	860.3	0back	Block2	0back/STIM_011.jpg	100
1265.466	0.681	680.9	0back	Block2	0back/STIM_011.jpg	99
1269.262	0.685	684.8	0back	Block2	0back/STIM_012.jpg	100
1272.124	0.442	442.1	0back	Block2	0back/STIM_012.jpg	99
1275.027	0.874	874.4	0back	Block2	0back/STIM_012.jpg	99
1279.415	0.815	815.1	0back	Block2	0back/STIM_013.jpg	99
1283.206	0.673	673.3	0back	Block2	0back/STIM_013.jpg	99
1287.739	0.876	875.8	0back	Block2	0back/STIM_013.jpg	100
1292.346	0.443	443.4	0back	Block2	0back/STIM_014.jpg	100
1296.678	0.477	476.8	0back	Block2	0back/STIM_014.jpg	100
1300.56	0.624	623.8	0back	Block2	0back/STIM_014.jpg	100
1304.531	0.575	575.0	0back	Block2	0back/STIM_015.jpg	100
1307.142	0.753	753.0	0back	Block2	0back/STIM_015.jpg	99
1311.318	0.495	495.1	0back	Block2	0back/STIM_015.jpg	100
1315.009	0.702	702.2	0back	Block2	0back/STIM_016.jpg	99
1319.319	0.82	819.7	0back	Block2	0back/STIM_016.jpg	100
1322.404	0.668	668.3	0back	Block2	0back/STIM_016.jpg	100
1326.062	0.598	597.7	0back	Block2	0back/STIM_017.jpg	99
1330.395	0.519	519.2	0back	Block2	0back/STIM_017.jpg	99
1333.122	0.441	440.7	0back	Block2	0back/STIM_017.jpg	99
1336.065	0.5	499.9	0back	Block2	0back/STIM_018.jpg	99
1340.305	0.773	772.9	0back	Block2	0back/STIM_018.jpg	100
1343.452	0.489	489.1	0back	Block2	0back/STIM_018.jpg	99
1347.504	0.525	525.4	0back	Block2	0back/STIM_019.jpg	99
1351.191	0.492	492.0	0back	Block2	0back/STIM_019.jpg	100
1353.742	0.563	563.1	0back	Block2	0back/STIM_019.jpg	99
1357.396	0.682	682.1	2back	Block3	2back/STIM_000.jpg	100
1360.603	0.894	893.8	2back	Block3	2back/STIM_000.jpg	100
1364.835	0.517	517.3	2back	Block3	2back/STIM_000.jpg	100
1369.032	0.855	855.1	2back	Block3	2back/STIM_001.jpg	100
1372.602	0.821	821.4	2back	Block3	2back/STIM_001.jpg	100
1376.335	0.473	472.9	2back	Block3	2back/STIM_001.jpg	100
1380.36	0.705	705.1	2back	Block3	2back/STIM_002.jpg	99
1384.548	1.076	1076.0	2back	Block3	2back/STIM_002.jpg	100
1388.727	0.7	699.6	2back	Block3	2back/STIM_002.jpg	100
1391.749	0.693	692.6	2back	Block3	2back/STIM_003.jpg	99
1396.371	0.746	746.4	2back	Block3	2back/STIM_003.jpg	100
1400.812	0.943	943.4	2back	Block3	2back/STIM_003.jpg	99
1403.891	0.541	541.2	2back	Block3	2back/STIM_004.jpg	100
1407.183	0.994	994.4	2back	Block3	2back/STIM_004.jpg	99
1411.853	0.766	765.9	2back	Block3	2back/STIM_004.jpg	100
1416.291	1.025	1024.9	2back	Block3	2back/STIM_005.jpg	100
1420.705	0.596	595.8	2back	Block3	2back/STIM_005.jpg	100
1423.702	0.746	745.8	2back	Block3	2back/STIM_005.jpg	100
1427.307	0.798	797.9	2back	Block3	2back/STIM_006.jpg	100
1431.678	0.904	904.0	2back	Block3	2back/STIM_006.jpg	99
1435.341	0.679	678.7	2back	Block3	2back/STIM_006.jpg	99
1438.03	0.524	523.5	2back	Block3	2back/STIM_007.jpg	99
1441.854	0.853	852.9	2back	Block3	2back/STIM_007.jpg	99
1446.359	0.961	960.8	2back	Block3	2back/STIM_007.jpg	100
1449.29	0.589	589.4	2back	Block3	2back/STIM_008.jpg	99
1452.073	0.91	909.6	2back	Block3	2back/STIM_008.jpg	100
1454.969	1.073	1072.7	2back	Block3	2back/STIM_008.jpg	100
1458.991	0.861	861.3	2back	Block3	2back/STIM_009.jpg	99
1463.637	0.716	716.5	2back	Block3	2back/STIM_009.jpg	99
1466.58	0.991	990.8	2back	Block3	2back/STIM_009.jpg	99
1470.26	0.878	877.9	2back	Block3	2back/STIM_010.jpg	100
1474.389	0.476	476.1	2back	Block3	2back/STIM_010.jpg	100
1477.5	0.831	830.8	2back	Block3	2back/STIM_010.jpg	99
1481.473	0.694	693.5	2back	Block3	2back/STIM_011.jpg	100
1485.996	0.624	623.6	2back	Block3	2back/STIM_011.jpg	99
1489.033	0.678	677.8	2back	Block3	2back/STIM_011.jpg	99
1493.178	0.929	929.0	2back	Block3	2back/STIM_012.jpg	100
1497.192	0.98	980.0	2back	Block3	2back/STIM_012.jpg	99
1500.307	0.745	744.6	2back	Block3	2back/STIM_012.jpg	100
1503.589	0.68	679.8	2back	Block3	2back/STIM_013.jpg	99
1507.88	0.843	842.6	2back	Block3	2back/STIM_013.jpg	100
1510.827	0.492	492.2	2back	Block3	2back/STIM_013.jpg	99
1514.784	0.561	561.4	2back	Block3	2back/STIM_014.jpg	99
1517.565	0.626	625.5	2back	Block3	2back/STIM_014.jpg	100
1520.56	0.945	944.7	2back	Block3	2back/STIM_014.jpg	100
1524.451	1.019	1019.1	2back	Block3	2back/STIM_015.jpg	100
1528.768	0.5	499.9	2back	Block3	2back/STIM_015.jpg	100
1532.586	0.921	920.9	2back	Block3	2back/STIM_015.jpg	99
1536.361	0.853	852.9	2back	Block3	2back/STIM_016.jpg	99
1540.052	0.913	912.6	2back	Block3	2back/STIM_016.jpg	100
1543.817	0.854	854.4	2back	Block3	2back/STIM_016.jpg	99
1548.166	0.513	513.2	2back	Block3	2back/STIM_017.jpg	99
1552.191	0.843	842.7	2back	Block3	2back/STIM_017.jpg	100
1556.821	0.671	671.1	2back	Block3	2back/STIM_017.jpg	99
1560.839	1.049	1049.0	2back	Block3	2back/STIM_018.jpg	99
1565.186	0.952	952.2	2back	Block3	2back/STIM_018.jpg	100
1568.659	0.955	955.1	2back	Block3	2back/STIM_018.jpg	99
1571.659	0.732	732.3	2back	Block3	2back/STIM_019.jpg	99
1575.914	0.6	600.1	2back	Block3	2back/STIM_019.jpg	100
1579.078	0.464	464.1	2back	Block3	2back/STIM_019.jpg	99
1581.855	1.027	1027.4	2back	Block3	2back/STIM_020.jpg	100
1586.782	0.51	510.3	2back	Block3	2back/STIM_020.jpg	99
1589.859	0.745	745.0	2back	Block3	2back/STIM_020.jpg	99
1593.522	1.059	1059.3	2back	Block3	2back/STIM_021.jpg	100
1598.235	0.568	568.3	2back	Block3	2back/STIM_021.jpg	100
1601.296	0.754	754.5	2back	Block3	2back/STIM_021.jpg	100
1605.459	1.028	1028.2	2back	Block3	2back/STIM_022.jpg	100
1608.964	1.037	1037.0	2back	Block3	2back/STIM_022.jpg	100
1611.966	0.645	644.7	2back	Block3	2back/STIM_022.jpg	99
1614.683	0.701	700.7	2back	Block3	2back/STIM_023.jpg	100
1618.069	1.025	1025.1	2back	Block3	2back/STIM_023.jpg	100
1622.859	0.503	503.1	2back	Block3	2back/STIM_023.jpg	99
1626.418	0.472	471.7	2back	Block3	2back/STIM_024.jpg	100
1630.66	0.96	959.8	2back	Block3	2back/STIM_024.jpg	100
1634.243	0.869	869.4	2back	Block3	2back/STIM_024.jpg	100
1637.179	0.551	551.2	2back	Block3	2back/STIM_025.jpg	100
1640.044	0.519	518.6	2back	Block3	2back/STIM_025.jpg	99
1644.015	0.554	553.5	2back	Block3	2back/STIM_025.jpg	100
1647.497	0.666	666.3	2back	Block3	2back/STIM_026.jpg	99
1650.787	0.829	829.2	2back	Block3	2back/STIM_026.jpg	100
1655.472	1.021	1020.8	2back	Block3	2back/STIM_026.jpg	100
1659.301	1.001	1000.9	2back	Block3	2back/STIM_027.jpg	99
1663.431	0.953	953.3	2back	Block3	2back/STIM_027.jpg	100
1667.428	0.999	998.6	2back	Block3	2back/STIM_027.jpg	100
1671.763	0.59	589.9	2back	Block3	2back/STIM_028.jpg	100
1674.789	0.574	573.6	2back	Block3	2back/STIM_028.jpg	99
1678.789	1.074	1073.8	2back	Block3	2back/STIM_028.jpg	99
1683.177	0.933	933.1	2back	Block3	2back/STIM_029.jpg	100
1686.572	0.917	917.3	2back	Block3	2back/STIM_029.jpg	99
1690.166	0.52	520.0	2back	Block3	2back/STIM_029.jpg	100
1694.511	0.666	665.7	2back	Block3	2back/STIM_030.jpg	99
1698.323	0.543	542.8	2back	Block3	2back/STIM_030.jpg	99
1700.972	0.936	936.3	2back	Block3	2back/STIM_030.jpg	100
1705.029	0.71	710.3	2back	Block3	2back/STIM_031.jpg	99
1708.308	0.613	612.9	2back	Block3	2back/STIM_031.jpg	100
1712.309	0.729	729.1	2back	Block3	2back/STIM_031.jpg	100
1715.149	0.594	594.5	2back	Block3	2back/STIM_032.jpg	100
1718.78	0.634	634.0	2back	Block3	2back/STIM_032.jpg	100
1722.262	0.886	886.3	2back	Block3	2back/STIM_032.jpg	99
1726.58	0.895	895.1	2back	Block3	2back/STIM_033.jpg	99
1730.876	1.062	1061.8	2back	Block3	2back/STIM_033.jpg	100
1735.37	0.542	542.3	2back	Block3	2back/STIM_033.jpg	99
1738.08	0.836	836.5	2back	Block3	2back/STIM_034.jpg	99
1742.692	0.769	769.2	2back	Block3	2back/STIM_034.jpg	99
1747.311	0.575	575.3	2back	Block3	2back/STIM_034.jpg	99
1751.442	0.682	681.8	2back	Block3	2back/STIM_035.jpg	99
1754.493	0.96	960.1	2back	Block3	2back/STIM_035.jpg	99
1758.056	0.984	983.6	2back	Block3	2back/STIM_035.jpg	100
1760.955	0.731	730.8	2back	Block3	2back/STIM_036.jpg	100
1763.826	1.014	1013.8	2back	Block3	2back/STIM_036.jpg	100
1768.182	0.839	838.7	2back	Block3	2back/STIM_036.jpg	100
1772.387	0.845	845.4	2back	Block3	2back/STIM_037.jpg	99
1776.62	0.536	536.1	2back	Block3	2back/STIM_037.jpg	99
1779.183	0.499	498.9	2back	Block3	2back/STIM_037.jpg	99
1781.761	0.518	518.0	2back	Block3	2back/STIM_038.jpg	100
1785.557	0.81	809.5	2back	Block3	2back/STIM_038.jpg	99
1789.109	1.062	1062.1	2back	Block3	2back/STIM_038.jpg	100
1793.444	0.817	816.7	2back	Block3	2back/STIM_039.jpg	100
1796.285	1.0	1000.5	2back	Block3	2back/STIM_039.jpg	100
1800.825	0.578	578.1	2back	Block3	2back/STIM_039.jpg	99
1805.301	0.799	799.2	0back	Block3	0back/STIM_000.jpg	100
1809.256	0.446	445.9	0back	Block3	0back/STIM_000.jpg	99
1813.307	0.611	610.7	0back	Block3	0back/STIM_000.jpg	100
1816.043	0.837	836.7	0back	Block3	0back/STIM_001.jpg	99
1820.564	0.719	719.0	0back	Block3	0back/STIM_001.jpg	99
1824.932	0.55	549.7	0back	Block3	0back/STIM_001.jpg	99
1828.03	0.564	563.8	0back	Block3	0back/STIM_002.jpg	100
1832.354	0.517	517.3	0back	Block3	0back/STIM_002.jpg	99
1835.474	0.758	758.5	0back	Block3	0back/STIM_002.jpg	100
1838.491	0.697	697.0	0back	Block3	0back/STIM_003.jpg	99
1841.422	0.628	628.0	0back	Block3	0back/STIM_003.jpg	100
1845.062	0.718	717.9	0back	Block3	0back/STIM_003.jpg	100
1849.3	0.67	670.1	0back	Block3	0back/STIM_004.jpg	99
1853.867	0.867	866.8	0back	Block3	0back/STIM_004.jpg	100
1858.379	0.706	706.1	0back	Block3	0back/STIM_004.jpg	99
1861.347	0.626	625.5	0back	Block3	0back/STIM_005.jpg	100
1865.234	0.448	447.5	0back	Block3	0back/STIM_005.jpg	99
1867.925	0.639	639.1	0back	Block3	0back/STIM_005.jpg	99
1872.214	0.628	627.5	0back	Block3	0back/STIM_006.jpg	99
1875.284	0.857	857.1	0back	Block3	0back/STIM_006.jpg	99
1879.185	0.699	699.1	0back	Block3	0back/STIM_006.jpg	100
1882.36	0.629	629.0	0back	Block3	0back/STIM_007.jpg	99
1886.877	0.843	842.8	0back	Block3	0back/STIM_007.jpg	100
1890.336	0.457	456.8	0back	Block3	0back/STIM_007.jpg	99
1893.307	0.728	728.2	0back	Block3	0back/STIM_008.jpg	99
1896.032	0.71	710.5	0back	Block3	0back/STIM_008.jpg	99
1900.336	0.642	642.1	0back	Block3	0back/STIM_008.jpg	100
1904.576	0.822	822.5	0back	Block3	0back/STIM_009.jpg	100
1907.588	0.713	713.0	0back	Block3	0back/STIM_009.jpg	99
1910.762	0.77	770.0	0back	Block3	0back/STIM_009.jpg	100
1913.716	0.653	653.3	0back	Block3	0back/STIM_010.jpg	99
1916.798	0.878	877.9	0back	Block3	0back/STIM_010.jpg	99
1920.976	0.638	638.1	0back	Block3	0back/STIM_010.jpg	99
1923.736	0.575	575.1	0back	Block3	0back/STIM_011.jpg	99
1926.446	0.658	657.5	0back	Block3	0back/STIM_011.jpg	100
1929.601	0.643	643.0	0back	Block3	0back/STIM_011.jpg	99
1932.914	0.703	703.4	0back	Block3	0back/STIM_012.jpg	99
1937.477	0.716	715.9	0back	Block3	0back/STIM_012.jpg	99
1941.435	0.611	610.9	0back	Block3	0back/STIM_012.jpg	100
1945.423	0.795	794.7	0back	Block3	0back/STIM_013.jpg	100
1948.705	0.828	827.9	0back	Block3	0back/STIM_013.jpg	100
1951.899	0.73	729.7	0back	Block3	0back/STIM_013.jpg	100
1955.816	0.632	631.7	0back	Block3	0back/STIM_014.jpg	99
1960.148	0.577	577.0	0back	Block3	0back/STIM_014.jpg	99
1963.723	0.528	528.2	0back	Block3	0back/STIM_014.jpg	99
1967.242	0.794	794.1	0back	Block3	0back/STIM_015.jpg	100
1971.536	0.849	849.0	0back	Block3	0back/STIM_015.jpg	99
1975.131	0.849	849.0	0back	Block3	0back/STIM_015.jpg	99
1979.587	0.494	494.4	0back	Block3	0back/STIM_016.jpg	100
1982.431	0.731	730.9	0back	Block3	0back/STIM_016.jpg	100
1986.085	0.817	816.6	0back	Block3	0back/STIM_016.jpg	100
1989.253	0.471	471.2	0back	Block3	0back/STIM_017.jpg	100
1992.968	0.849	849.3	0back	Block3	0back/STIM_017.jpg	99
1996.54	0.823	823.4	0back	Block3	0back/STIM_017.jpg	99
2000.956	0.654	653.7	0back	Block3	0back/STIM_018.jpg	100
2004.404	0.452	452.3	0back	Block3	0back/STIM_018.jpg	99
2008.756	0.442	442.1	0back	Block3	0back/STIM_018.jpg	99
2013.14	0.68	679.5	0back	Block3	0back/STIM_019.jpg	99
2017.149	0.51	510.4	0back	Block3	0back/STIM_019.jpg	99
2020.302	0.658	657.5	0back	Block3	0back/STIM_019.jpg	100
2024.018	0.556	556.3	2back	Block4	2back/STIM_000.jpg	99
2027.527	1.065	1065.2	2back	Block4	2back/STIM_000.jpg	99
2031.677	0.583	582.8	2back	Block4	2back/STIM_000.jpg	99
2035.646	1.059	1059.3	2back	Block4	2back/STIM_001.jpg	99
2039.507	0.825	824.8	2back	Block4	2back/STIM_001.jpg	100
2042.293	0.47	469.9	2back	Block4	2back/STIM_001.jpg	100
2045.807	0.758	758.5	2back	Block4	2back/STIM_002.jpg	99
2050.418	0.673	673.4	2back	Block4	2back/STIM_002.jpg	99
2053.26	0.719	719.4	2back	Block4	2back/STIM_002.jpg	100
2056.204	0.572	572.3	2back	Block4	2back/STIM_003.jpg	100
2060.115	1.037	1037.1	2back	Block4	2back/STIM_003.jpg	99
2064.448	0.993	993.3	2back	Block4	2back/STIM_003.jpg	100
2068.502	0.562	562.3	2back	Block4	2back/STIM_004.jpg	99
2072.385	0.763	763.4	2back	Block4	2back/STIM_004.jpg	99
2076.017	0.702	701.8	2back	Block4	2back/STIM_004.jpg	99
2078.815	0.821	821.0	2back	Block4	2back/STIM_005.jpg	99
2081.588	0.621	621.0	2back	Block4	2back/STIM_005.jpg	100
2085.927	0.813	812.7	2back	Block4	2back/STIM_005.jpg	100
2089.816	0.876	876.1	2back	Block4	2back/STIM_006.jpg	99
2093.551	0.597	596.7	2back	Block4	2back/STIM_006.jpg	99
2096.915	0.551	550.6	2back	Block4	2back/STIM_006.jpg	99
2100.598	0.501	501.0	2back	Block4	2back/STIM_007.jpg	100
2104.246	0.525	524.6	2back	Block4	2back/STIM_007.jpg	99
2108.585	0.911	910.9	2back	Block4	2back/STIM_007.jpg	99
2112.417	0.873	873.4	2back	Block4	2back/STIM_008.jpg	100
2116.527	0.802	801.8	2back	Block4	2back/STIM_008.jpg	99
2120.488	0.489	488.9	2back	Block4	2back/STIM_008.jpg	100
2123.76	0.853	852.8	2back	Block4	2back/STIM_009.jpg	100
2127.623	0.713	713.0	2back	Block4	2back/STIM_009.jpg	100
2132.215	0.892	892.4	2back	Block4	2back/STIM_009.jpg	100
2135.267	0.91	909.9	2back	Block4	2back/STIM_010.jpg	99
2138.717	0.616	615.8	2back	Block4	2back/STIM_010.jpg	100
2142.274	1.039	1039.1	2back	Block4	2back/STIM_010.jpg	100
2145.399	0.955	954.8	2back	Block4	2back/STIM_011.jpg	99
2149.298	0.695	695.1	2back	Block4	2back/STIM_011.jpg	100
2153.25	0.811	811.2	2back	Block4	2back/STIM_011.jpg	99
2156.848	0.92	920.1	2back	Block4	2back/STIM_012.jpg	100
2161.393	0.54	539.5	2back	Block4	2back/STIM_012.jpg	100
2165.794	0.702	702.1	2back	Block4	2back/STIM_012.jpg	99
2170.12	0.683	683.1	2back	Block4	2back/STIM_013.jpg	100
2173.143	0.482	481.5	2back	Block4	2back/STIM_013.jpg	100
2175.965	1.007	1006.7	2back	Block4	2back/STIM_013.jpg	99
2179.329	0.683	683.1	2back	Block4	2back/STIM_014.jpg	100
2183.356	0.516	515.7	2back	Block4	2back/STIM_014.jpg	100
2186.671	0.906	905.9	2back	Block4	2back/STIM_014.jpg	99
2191.488	0.789	788.8	2back	Block4	2back/STIM_015.jpg	99
2194.275	1.012	1011.5	2back	Block4	2back/STIM_015.jpg	100
2197.251	0.967	967.0	2back	Block4	2back/STIM_015.jpg	99
2201.008	0.468	467.5	2back	Block4	2back/STIM_016.jpg	99
2204.182	0.69	689.9	2back	Block4	2back/STIM_016.jpg	99
2207.073	0.699	698.6	2back	Block4	2back/STIM_016.jpg	100
2210.997	0.694	694.3	2back	Block4	2back/STIM_017.jpg	99
2215.345	0.583	583.2	2back	Block4	2back/STIM_017.jpg	100
2219.235	0.766	766.4	2back	Block4	2back/STIM_017.jpg	99
2222.451	0.717	716.7	2back	Block4	2back/STIM_018.jpg	100
2226.792	0.805	805.2	2back	Block4	2back/STIM_018.jpg	100
2231.308	0.841	840.6	2back	Block4	2back/STIM_018.jpg	99
2235.16	0.558	558.0	2back	Block4	2back/STIM_019.jpg	100
2238.901	0.844	844.4	2back	Block4	2back/STIM_019.jpg	99
2243.262	0.895	895.3	2back	Block4	2back/STIM_019.jpg	99
2247.276	0.715	715.0	2back	Block4	2back/STIM_020.jpg	99
2250.111	0.79	790.5	2back	Block4	2back/STIM_020.jpg	99
2253.873	0.821	821.1	2back	Block4	2back/STIM_020.jpg	100
2257.848	0.508	508.0	2back	Block4	2back/STIM_021.jpg	100
2260.856	0.53	530.3	2back	Block4	2back/STIM_021.jpg	100
2264.971	1.059	1058.7	2back	Block4	2back/STIM_021.jpg	100
2268.2	0.544	544.5	2back	Block4	2back/STIM_022.jpg	100
2272.42	0.499	499.1	2back	Block4	2back/STIM_022.jpg	100
2275.117	0.883	882.8	2back	Block4	2back/STIM_022.jpg	99
2279.661	0.724	723.8	2back	Block4	2back/STIM_023.jpg	100
2283.184	0.861	860.7	2back	Block4	2back/STIM_023.jpg	100
2286.723	0.926	925.6	2back	Block4	2back/STIM_023.jpg	99
2291.243	0.677	677.3	2back	Block4	2back/STIM_024.jpg	99
2295.036	0.465	465.3	2back	Block4	2back/STIM_024.jpg	100
2298.186	0.703	702.8	2back	Block4	2back/STIM_024.jpg	99
2301.396	0.465	464.7	2back	Block4	2back/STIM_025.jpg	99
2303.926	0.815	814.7	2back	Block4	2back/STIM_025.jpg	99
2307.744	0.557	556.7	2back	Block4	2back/STIM_025.jpg	100
2311.775	0.802	802.1	2back	Block4	2back/STIM_026.jpg	99
2314.59	0.93	929.6	2back	Block4	2back/STIM_026.jpg	100
2317.826	0.499	499.2	2back	Block4	2back/STIM_026.jpg	99
2320.945	0.894	894.0	2back	Block4	2back/STIM_027.jpg	99
2323.912	0.81	809.5	2back	Block4	2back/STIM_027.jpg	100
2328.56	0.482	481.7	2back	Block4	2back/STIM_027.jpg	100
2332.814	0.485	485.4	2back	Block4	2back/STIM_028.jpg	99
2336.034	0.693	692.7	2back	Block4	2back/STIM_028.jpg	99
2338.76	1.072	1071.9	2back	Block4	2back/STIM_028.jpg	99
2343.5	0.742	742.5	2back	Block4	2back/STIM_029.jpg	100
2346.553	0.602	601.7	2back	Block4	2back/STIM_029.jpg	99
2350.648	1.037	1036.8	2back	Block4	2back/STIM_029.jpg	100
2354.518	0.68	679.5	2back	Block4	2back/STIM_030.jpg	99
2359.105	0.613	612.8	2back	Block4	2back/STIM_030.jpg	100
2361.916	0.607	606.7	2back	Block4	2back/STIM_030.jpg	100
2364.498	0.864	864.3	2back	Block4	2back/STIM_031.jpg	100
2368.246	0.726	726.4	2back	Block4	2back/STIM_031.jpg	99
2371.507	0.819	818.6	2back	Block4	2back/STIM_031.jpg	99
2375.249	0.81	810.0	2back	Block4	2back/STIM_032.jpg	99
2379.485	0.71	709.7	2back	Block4	2back/STIM_032.jpg	99
2383.523	1.015	1014.6	2back	Block4	2back/STIM_032.jpg	99
2387.068	0.507	507.0	2back	Block4	2back/STIM_033.jpg	99
2391.381	0.881	880.8	2back	Block4	2back/STIM_033.jpg	99
2395.686	1.006	1006.0	2back	Block4	2back/STIM_033.jpg	100
2399.785	0.484	483.5	2back	Block4	2back/STIM_034.jpg	100
2404.067	0.983	983.1	2back	Block4	2back/STIM_034.jpg	99
2407.533	0.696	696.0	2back	Block4	2back/STIM_034.jpg	100
2410.45	0.558	557.5	2back	Block4	2back/STIM_035.jpg	99
2414.598	0.888	887.9	2back	Block4	2back/STIM_035.jpg	100
2418.768	0.624	623.5	2back	Block4	2back/STIM_035.jpg	99
2422.469	0.625	625.2	2back	Block4	2back/STIM_036.jpg	100
2425.433	0.996	995.7	2back	Block4	2back/STIM_036.jpg	100
2428.987	0.494	494.3	2back	Block4	2back/STIM_036.jpg	100
2431.736	0.48	480.4	2back	Block4	2back/STIM_037.jpg	99
2435.165	0.545	545.0	2back	Block4	2back/STIM_037.jpg	100
2438.761	0.736	735.9	2back	Block4	2back/STIM_037.jpg	100
2442.448	0.642	641.5	2back	Block4	2back/STIM_038.jpg	100
2446.581	0.926	926.3	2back	Block4	2back/STIM_038.jpg	100
2449.712	0.835	834.8	2back	Block4	2back/STIM_038.jpg	100
2453.025	1.007	1006.8	2back	Block4	2back/STIM_039.jpg	100
2456.187	0.639	638.8	2back	Block4	2back/STIM_039.jpg	100
2459.126	0.658	657.5	2back	Block4	2back/STIM_039.jpg	99
2463.44	0.52	519.5	0back	Block4	0back/STIM_000.jpg	100
2466.832	0.655	654.9	0back	Block4	0back/STIM_000.jpg	99
2471.082	0.682	681.7	0back	Block4	0back/STIM_000.jpg	100
2475.433	0.543	542.9	0back	Block4	0back/STIM_001.jpg	99
2478.183	0.835	834.9	0back	Block4	0back/STIM_001.jpg	100
2482.404	0.799	799.1	0back	Block4	0back/STIM_001.jpg	99
2485.489	0.643	642.8	0back	Block4	0back/STIM_002.jpg	100
2488.26	0.87	870.4	0back	Block4	0back/STIM_002.jpg	99
2492.387	0.789	789.0	0back	Block4	0back/STIM_002.jpg	100
2495.788	0.82	819.7	0back	Block4	0back/STIM_003.jpg	100
2499.772	0.713	713.0	0back	Block4	0back/STIM_003.jpg	100
2503.034	0.521	520.9	0back	Block4	0back/STIM_003.jpg	99
2507.153	0.613	612.9	0back	Block4	0back/STIM_004.jpg	100
2511.514	0.579	578.9	0back	Block4	0back/STIM_004.jpg	99
2515.135	0.643	643.2	0back	Block4	0back/STIM_004.jpg	100
2517.868	0.559	559.4	0back	Block4	0back/STIM_005.jpg	100
2520.982	0.841	841.4	0back	Block4	0back/STIM_005.jpg	100
2524.03	0.751	751.4	0back	Block4	0back/STIM_005.jpg	100
2527.615	0.7	700.5	0back	Block4	0back/STIM_006.jpg	99
2531.588	0.786	786.2	0back	Block4	0back/STIM_006.jpg	99
2535.803	0.543	543.0	0back	Block4	0back/STIM_006.jpg	99
2539.337	0.571	570.6	0back	Block4	0back/STIM_007.jpg	100
2541.987	0.65	650.4	0back	Block4	0back/STIM_007.jpg	100
2545.92	0.782	782.5	0back	Block4	0back/STIM_007.jpg	100
2549.238	0.65	650.3	0back	Block4	0back/STIM_008.jpg	99
2552.803	0.53	529.8	0back	Block4	0back/STIM_008.jpg	100
2555.794	0.706	705.6	0back	Block4	0back/STIM_008.jpg	100
2558.635	0.738	737.7	0back	Block4	0back/STIM_009.jpg	99
2562.545	0.798	798.5	0back	Block4	0back/STIM_009.jpg	100
2566.013	0.711	710.6	0back	Block4	0back/STIM_009.jpg	99
2570.456	0.816	815.9	0back	Block4	0back/STIM_010.jpg	100
2573.613	0.762	762.0	0back	Block4	0back/STIM_010.jpg	100
2577.548	0.785	784.6	0back	Block4	0back/STIM_010.jpg	100
2580.364	0.77	770.1	0back	Block4	0back/STIM_011.jpg	99
2583.619	0.455	455.2	0back	Block4	0back/STIM_011.jpg	100
2587.277	0.698	698.5	0back	Block4	0back/STIM_011.jpg	99
2591.368	0.696	695.7	0back	Block4	0back/STIM_012.jpg	100
2594.473	0.48	479.9	0back	Block4	0back/STIM_012.jpg	100
2598.907	0.748	748.4	0back	Block4	0back/STIM_012.jpg	100
2603.579	0.674	674.1	0back	Block4	0back/STIM_013.jpg	99
2606.421	0.471	470.6	0back	Block4	0back/STIM_013.jpg	99
2609.337	0.695	695.2	0back	Block4	0back/STIM_013.jpg	100
2612.686	0.864	863.8	0back	Block4	0back/STIM_014.jpg	99
2616.723	0.479	479.2	0back	Block4	0back/STIM_014.jpg	99
2620.808	0.655	654.9	0back	Block4	0back/STIM_014.jpg	99
2623.873	0.84	840.5	0back	Block4	0back/STIM_015.jpg	100
2627.0	0.673	673.3	0back	Block4	0back/STIM_015.jpg	100
2629.845	0.876	876.0	0back	Block4	0back/STIM_015.jpg	100
2633.909	0.82	819.7	0back	Block4	0back/STIM_016.jpg	99
2638.468	0.725	725.3	0back	Block4	0back/STIM_016.jpg	100
2641.523	0.755	755.1	0back	Block4	0back/STIM_016.jpg	100
2645.797	0.682	682.3	0back	Block4	0back/STIM_017.jpg	100
2649.078	0.562	561.6	0back	Block4	0back/STIM_017.jpg	100
2652.432	0.804	804.4	0back	Block4	0back/STIM_017.jpg	100
2657.041	0.544	544.2	0back	Block4	0back/STIM_018.jpg	99
2660.441	0.517	517.1	0back	Block4	0back/STIM_018.jpg	99
2664.665	0.788	788.0	0back	Block4	0back/STIM_018.jpg	99
2667.84	0.638	638.1	0back	Block4	0back/STIM_019.jpg	100
2672.13	0.504	504.5	0back	Block4	0back/STIM_019.jpg	99
2675.338	0.541	541.4	0back	Block4	0back/STIM_019.jpg	100
