onset	duration	accuracy_binary	trial_type	learning_stage	stimulus
0.0	0.816	0	2back	Block1	2back/STIM_000.jpg
2.894	0.774	0	2back	Block1	2back/STIM_000.jpg
5.893	0.633	0	2back	Block1	2back/STIM_000.jpg
10.09	0.637	1	2back	Block1	2back/STIM_001.jpg
14.24	0.735	1	2back	Block1	2back/STIM_001.jpg
17.58	0.963	0	2back	Block1	2back/STIM_001.jpg
21.817	0.633	1	2back	Block1	2back/STIM_002.jpg
25.722	0.502	1	2back	Block1	2back/STIM_002.jpg
28.595	0.494	1	2back	Block1	2back/STIM_002.jpg
31.158	0.727	0	2back	Block1	2back/STIM_003.jpg
35.757	0.584	1	2back	Block1	2back/STIM_003.jpg
38.611	0.501	0	2back	Block1	2back/STIM_003.jpg
41.384	0.625	1	2back	Block1	2back/STIM_004.jpg
44.105	0.711	1	2back	Block1	2back/STIM_004.jpg
47.476	0.731	0	2back	Block1	2back/STIM_004.jpg
50.86	0.807	1	2back	Block1	2back/STIM_005.jpg
53.919	0.98	0	2back	Block1	2back/STIM_005.jpg
58.368	0.772	1	2back	Block1	2back/STIM_005.jpg
62.411	0.933	1	2back	Block1	2back/STIM_006.jpg
65.669	0.627	1	2back	Block1	2back/STIM_006.jpg
69.595	0.843	0	2back	Block1	2back/STIM_006.jpg
73.875	0.816	1	2back	Block1	2back/STIM_007.jpg
77.86	0.91	1	2back	Block1	2back/STIM_007.jpg
81.693	0.625	1	2back	Block1	2back/STIM_007.jpg
86.263	0.494	0	2back	Block1	2back/STIM_008.jpg
90.477	0.501	1	2back	Block1	2back/STIM_008.jpg
93.119	0.882	1	2back	Block1	2back/STIM_008.jpg
96.917	1.046	1	2back	Block1	2back/STIM_009.jpg
100.044	0.874	1	2back	Block1	2back/STIM_009.jpg
103.769	0.494	0	2back	Block1	2back/STIM_009.jpg
106.989	0.506	1	2back	Block1	2back/STIM_010.jpg
110.528	0.85	0	2back	Block1	2back/STIM_010.jpg
113.928	0.916	1	2back	Block1	2back/STIM_010.jpg
117.035	0.548	1	2back	Block1	2back/STIM_011.jpg
121.354	0.91	0	2back	Block1	2back/STIM_011.jpg
124.931	0.49	1	2back	Block1	2back/STIM_011.jpg
129.206	0.551	0	2back	Block1	2back/STIM_012.jpg
133.175	0.756	1	2back	Block1	2back/STIM_012.jpg
137.438	0.893	1	2back	Block1	2back/STIM_012.jpg
141.98	0.467	0	2back	Block1	2back/STIM_013.jpg
144.71	1.01	0	2back	Block1	2back/STIM_013.jpg
149.056	0.649	1	2back	Block1	2back/STIM_013.jpg
153.038	0.594	1	2back	Block1	2back/STIM_014.jpg
156.886	0.89	1	2back	Block1	2back/STIM_014.jpg
159.986	0.96	0	2back	Block1	2back/STIM_014.jpg
163.325	0.957	1	2back	Block1	2back/STIM_015.jpg
167.999	0.507	1	2back	Block1	2back/STIM_015.jpg
170.742	0.519	1	2back	Block1	2back/STIM_015.jpg
174.212	0.773	1	2back	Block1	2back/STIM_016.jpg
177.626	0.888	1	2back	Block1	2back/STIM_016.jpg
181.751	0.717	1	2back	Block1	2back/STIM_016.jpg
185.242	0.488	1	2back	Block1	2back/STIM_017.jpg
187.859	0.982	1	2back	Block1	2back/STIM_017.jpg
192.841	0.765	0	2back	Block1	2back/STIM_017.jpg
196.672	0.543	1	2back	Block1	2back/STIM_018.jpg
200.127	0.456	0	2back	Block1	2back/STIM_018.jpg
203.065	0.726	1	2back	Block1	2back/STIM_018.jpg
207.117	0.914	0	2back	Block1	2back/STIM_019.jpg
211.213	0.995	1	2back	Block1	2back/STIM_019.jpg
214.705	0.797	1	2back	Block1	2back/STIM_019.jpg
217.766	0.95	1	2back	Block1	2back/STIM_020.jpg
222.668	0.623	0	2back	Block1	2back/STIM_020.jpg
225.735	0.665	1	2back	Block1	2back/STIM_020.jpg
229.289	0.976	1	2back	Block1	2back/STIM_021.jpg
233.097	0.556	1	2back	Block1	2back/STIM_021.jpg
236.695	0.87	0	2back	Block1	2back/STIM_021.jpg
240.88	1.033	1	2back	Block1	2back/STIM_022.jpg
245.263	0.955	1	2back	Block1	2back/STIM_022.jpg
248.43	0.939	1	2back	Block1	2back/STIM_022.jpg
253.088	0.884	0	2back	Block1	2back/STIM_023.jpg
256.769	0.563	1	2back	Block1	2back/STIM_023.jpg
259.634	0.656	0	2back	Block1	2back/STIM_023.jpg
264.089	0.622	1	2back	Block1	2back/STIM_024.jpg
268.285	0.861	1	2back	Block1	2back/STIM_024.jpg
272.155	0.697	1	2back	Block1	2back/STIM_024.jpg
274.984	0.754	0	2back	Block1	2back/STIM_025.jpg
279.469	0.919	1	2back	Block1	2back/STIM_025.jpg
282.884	0.799	1	2back	Block1	2back/STIM_025.jpg
286.83	0.616	1	2back	Block1	2back/STIM_026.jpg
291.121	0.782	1	2back	Block1	2back/STIM_026.jpg
293.941	0.584	0	2back	Block1	2back/STIM_026.jpg
297.996	0.478	1	2back	Block1	2back/STIM_027.jpg
302.427	0.559	1	2back	Block1	2back/STIM_027.jpg
305.887	0.845	1	2back	Block1	2back/STIM_027.jpg
309.788	0.612	1	2back	Block1	2back/STIM_028.jpg
313.459	0.901	0	2back	Block1	2back/STIM_028.jpg
316.626	0.512	0	2back	Block1	2back/STIM_028.jpg
319.4	0.538	0	2back	Block1	2back/STIM_029.jpg
322.229	0.882	1	2back	Block1	2back/STIM_029.jpg
325.996	0.931	1	2back	Block1	2back/STIM_029.jpg
330.172	0.47	1	2back	Block1	2back/STIM_030.jpg
333.625	0.676	0	2back	Block1	2back/STIM_030.jpg
337.061	0.703	0	2back	Block1	2back/STIM_030.jpg
340.148	1.027	1	2back	Block1	2back/STIM_031.jpg
344.512	0.933	0	2back	Block1	2back/STIM_031.jpg
349.047	0.746	0	2back	Block1	2back/STIM_031.jpg
352.732	0.979	1	2back	Block1	2back/STIM_032.jpg
356.343	0.885	1	2back	Block1	2back/STIM_032.jpg
360.636	0.578	0	2back	Block1	2back/STIM_032.jpg
363.771	0.636	1	2back	Block1	2back/STIM_033.jpg
366.759	0.858	1	2back	Block1	2back/STIM_033.jpg
369.769	0.66	0	2back	Block1	2back/STIM_033.jpg
373.859	0.52	1	2back	Block1	2back/STIM_034.jpg
376.916	0.834	1	2back	Block1	2back/STIM_034.jpg
380.379	0.696	1	2back	Block1	2back/STIM_034.jpg
385.038	0.768	0	2back	Block1	2back/STIM_035.jpg
388.747	1.024	1	2back	Block1	2back/STIM_035.jpg
391.832	0.971	1	2back	Block1	2back/STIM_035.jpg
396.238	0.6	0	2back	Block1	2back/STIM_036.jpg
400.001	0.804	1	2back	Block1	2back/STIM_036.jpg
403.414	0.66	1	2back	Block1	2back/STIM_036.jpg
406.228	0.79	0	2back	Block1	2back/STIM_037.jpg
410.503	0.889	1	2back	Block1	2back/STIM_037.jpg
414.611	0.449	0	2back	Block1	2back/STIM_037.jpg
418.029	0.806	1	2back	Block1	2back/STIM_038.jpg
422.137	0.848	1	2back	Block1	2back/STIM_038.jpg
426.527	0.699	0	2back	Block1	2back/STIM_038.jpg
429.629	0.814	1	2back	Block1	2back/STIM_039.jpg
433.892	0.766	1	2back	Block1	2back/STIM_039.jpg
438.48	0.572	1	2back	Block1	2back/STIM_039.jpg
441.445	0.484	1	0back	Block1	0back/STIM_000.jpg
444.708	0.493	1	0back	Block1	0back/STIM_000.jpg
448.605	0.548	0	0back	Block1	0back/STIM_000.jpg
451.667	0.588	0	0back	Block1	0back/STIM_001.jpg
455.701	0.439	1	0back	Block1	0back/STIM_001.jpg
459.648	0.312	1	0back	Block1	0back/STIM_001.jpg
463.478	0.363	1	0back	Block1	0back/STIM_002.jpg
466.265	0.528	1	0back	Block1	0back/STIM_002.jpg
469.923	0.393	1	0back	Block1	0back/STIM_002.jpg
472.988	0.315	1	0back	Block1	0back/STIM_003.jpg
475.486	0.576	1	0back	Block1	0back/STIM_003.jpg
479.188	0.582	0	0back	Block1	0back/STIM_003.jpg
482.661	0.611	1	0back	Block1	0back/STIM_004.jpg
486.062	0.518	1	0back	Block1	0back/STIM_004.jpg
488.761	0.338	1	0back	Block1	0back/STIM_004.jpg
492.412	0.33	0	0back	Block1	0back/STIM_005.jpg
494.757	0.386	1	0back	Block1	0back/STIM_005.jpg
497.957	0.387	1	0back	Block1	0back/STIM_005.jpg
502.053	0.446	1	0back	Block1	0back/STIM_006.jpg
505.089	0.595	1	0back	Block1	0back/STIM_006.jpg
508.371	0.46	1	0back	Block1	0back/STIM_006.jpg
511.645	0.527	0	0back	Block1	0back/STIM_007.jpg
514.426	0.447	1	0back	Block1	0back/STIM_007.jpg
518.211	0.57	1	0back	Block1	0back/STIM_007.jpg
521.24	0.325	1	0back	Block1	0back/STIM_008.jpg
525.272	0.6	1	0back	Block1	0back/STIM_008.jpg
529.537	0.471	1	0back	Block1	0back/STIM_008.jpg
533.609	0.382	1	0back	Block1	0back/STIM_009.jpg
536.962	0.342	1	0back	Block1	0back/STIM_009.jpg
539.683	0.534	1	0back	Block1	0back/STIM_009.jpg
542.527	0.548	1	0back	Block1	0back/STIM_010.jpg
546.375	0.328	1	0back	Block1	0back/STIM_010.jpg
549.327	0.6	1	0back	Block1	0back/STIM_010.jpg
551.965	0.537	1	0back	Block1	0back/STIM_011.jpg
555.754	0.427	0	0back	Block1	0back/STIM_011.jpg
560.091	0.347	1	0back	Block1	0back/STIM_011.jpg
562.711	0.404	1	0back	Block1	0back/STIM_012.jpg
566.719	0.437	1	0back	Block1	0back/STIM_012.jpg
569.717	0.331	0	0back	Block1	0back/STIM_012.jpg
573.261	0.5	0	0back	Block1	0back/STIM_013.jpg
576.542	0.373	1	0back	Block1	0back/STIM_013.jpg
580.223	0.531	0	0back	Block1	0back/STIM_013.jpg
584.487	0.505	1	0back	Block1	0back/STIM_014.jpg
587.606	0.444	1	0back	Block1	0back/STIM_014.jpg
592.026	0.564	0	0back	Block1	0back/STIM_014.jpg
595.727	0.568	1	0back	Block1	0back/STIM_015.jpg
599.776	0.43	1	0back	Block1	0back/STIM_015.jpg
603.593	0.562	0	0back	Block1	0back/STIM_015.jpg
607.917	0.337	1	0back	Block1	0back/STIM_016.jpg
610.261	0.35	1	0back	Block1	0back/STIM_016.jpg
612.732	0.379	0	0back	Block1	0back/STIM_016.jpg
616.187	0.42	0	0back	Block1	0back/STIM_017.jpg
620.501	0.521	1	0back	Block1	0back/STIM_017.jpg
623.589	0.522	1	0back	Block1	0back/STIM_017.jpg
626.849	0.435	1	0back	Block1	0back/STIM_018.jpg
630.206	0.37	1	0back	Block1	0back/STIM_018.jpg
633.816	0.402	0	0back	Block1	0back/STIM_018.jpg
637.4	0.613	1	0back	Block1	0back/STIM_019.jpg
641.335	0.577	0	0back	Block1	0back/STIM_019.jpg
644.819	0.437	1	0back	Block1	0back/STIM_019.jpg
648.159	0.893	0	2back	Block2	2back/STIM_000.jpg
651.361	0.46	0	2back	Block2	2back/STIM_000.jpg
654.386	0.613	1	2back	Block2	2back/STIM_000.jpg
657.959	0.699	1	2back	Block2	2back/STIM_001.jpg
662.14	0.469	0	2back	Block2	2back/STIM_001.jpg
665.796	0.808	1	2back	Block2	2back/STIM_001.jpg
670.151	0.689	0	2back	Block2	2back/STIM_002.jpg
674.446	0.789	0	2back	Block2	2back/STIM_002.jpg
677.436	0.799	1	2back	Block2	2back/STIM_002.jpg
681.521	0.544	1	2back	Block2	2back/STIM_003.jpg
685.453	0.714	1	2back	Block2	2back/STIM_003.jpg
688.859	0.458	0	2back	Block2	2back/STIM_003.jpg
692.822	0.581	1	2back	Block2	2back/STIM_004.jpg
697.386	0.645	1	2back	Block2	2back/STIM_004.jpg
700.371	0.548	1	2back	Block2	2back/STIM_004.jpg
704.463	0.914	1	2back	Block2	2back/STIM_005.jpg
708.372	0.387	1	2back	Block2	2back/STIM_005.jpg
710.969	0.357	1	2back	Block2	2back/STIM_005.jpg
714.047	0.496	1	2back	Block2	2back/STIM_006.jpg
717.675	0.809	0	2back	Block2	2back/STIM_006.jpg
721.849	0.432	0	2back	Block2	2back/STIM_006.jpg
725.79	0.56	1	2back	Block2	2back/STIM_007.jpg
729.067	0.394	1	2back	Block2	2back/STIM_007.jpg
733.254	0.54	1	2back	Block2	2back/STIM_007.jpg
736.986	0.778	0	2back	Block2	2back/STIM_008.jpg
740.306	0.648	0	2back	Block2	2back/STIM_008.jpg
744.435	0.386	1	2back	Block2	2back/STIM_008.jpg
747.6	0.756	1	2back	Block2	2back/STIM_009.jpg
750.8	0.552	0	2back	Block2	2back/STIM_009.jpg
753.746	0.549	1	2back	Block2	2back/STIM_009.jpg
757.528	0.711	0	2back	Block2	2back/STIM_010.jpg
761.126	0.755	0	2back	Block2	2back/STIM_010.jpg
764.221	0.493	1	2back	Block2	2back/STIM_010.jpg
766.796	0.618	1	2back	Block2	2back/STIM_011.jpg
770.585	0.407	0	2back	Block2	2back/STIM_011.jpg
773.428	0.645	1	2back	Block2	2back/STIM_011.jpg
777.861	0.468	1	2back	Block2	2back/STIM_012.jpg
781.206	0.536	1	2back	Block2	2back/STIM_012.jpg
785.201	0.802	0	2back	Block2	2back/STIM_012.jpg
789.762	0.514	0	2back	Block2	2back/STIM_013.jpg
792.507	0.848	1	2back	Block2	2back/STIM_013.jpg
796.769	0.447	1	2back	Block2	2back/STIM_013.jpg
799.993	0.728	1	2back	Block2	2back/STIM_014.jpg
804.716	0.507	1	2back	Block2	2back/STIM_014.jpg
809.101	0.724	0	2back	Block2	2back/STIM_014.jpg
812.823	0.834	1	2back	Block2	2back/STIM_015.jpg
816.504	0.775	1	2back	Block2	2back/STIM_015.jpg
821.219	0.498	1	2back	Block2	2back/STIM_015.jpg
824.409	0.438	1	2back	Block2	2back/STIM_016.jpg
827.537	0.8	0	2back	Block2	2back/STIM_016.jpg
831.795	0.35	0	2back	Block2	2back/STIM_016.jpg
835.548	0.656	1	2back	Block2	2back/STIM_017.jpg
839.229	0.686	1	2back	Block2	2back/STIM_017.jpg
843.388	0.398	1	2back	Block2	2back/STIM_017.jpg
847.087	0.873	0	2back	Block2	2back/STIM_018.jpg
851.526	0.451	1	2back	Block2	2back/STIM_018.jpg
854.191	0.74	1	2back	Block2	2back/STIM_018.jpg
857.621	0.834	1	2back	Block2	2back/STIM_019.jpg
862.252	0.76	1	2back	Block2	2back/STIM_019.jpg
865.763	0.659	1	2back	Block2	2back/STIM_019.jpg
868.55	0.588	0	2back	Block2	2back/STIM_020.jpg
872.392	0.563	0	2back	Block2	2back/STIM_020.jpg
875.352	0.696	0	2back	Block2	2back/STIM_020.jpg
879.782	0.76	0	2back	Block2	2back/STIM_021.jpg
883.277	0.555	0	2back	Block2	2back/STIM_021.jpg
887.374	0.451	1	2back	Block2	2back/STIM_021.jpg
891.523	0.821	1	2back	Block2	2back/STIM_022.jpg
894.701	0.861	0	2back	Block2	2back/STIM_022.jpg
898.956	0.506	1	2back	Block2	2back/STIM_022.jpg
903.442	0.676	0	2back	Block2	2back/STIM_023.jpg
907.614	0.808	0	2back	Block2	2back/STIM_023.jpg
912.148	0.748	1	2back	Block2	2back/STIM_023.jpg
915.515	0.514	1	2back	Block2	2back/STIM_024.jpg
918.139	0.719	1	2back	Block2	2back/STIM_024.jpg
922.347	0.504	1	2back	Block2	2back/STIM_024.jpg
925.077	0.642	1	2back	Block2	2back/STIM_025.jpg
927.915	0.766	0	2back	Block2	2back/STIM_025.jpg
932.129	0.649	1	2back	Block2	2back/STIM_025.jpg
936.544	0.728	1	2back	Block2	2back/STIM_026.jpg
939.454	0.72	1	2back	Block2	2back/STIM_026.jpg
942.376	0.55	1	2back	Block2	2back/STIM_026.jpg
946.752	0.552	0	2back	Block2	2back/STIM_027.jpg
950.845	0.382	0	2back	Block2	2back/STIM_027.jpg
954.112	0.578	1	2back	Block2	2back/STIM_027.jpg
957.819	0.524	1	2back	Block2	2back/STIM_028.jpg
961.588	0.859	1	2back	Block2	2back/STIM_028.jpg
966.161	0.567	1	2back	Block2	2back/STIM_028.jpg
970.555	0.67	0	2back	Block2	2back/STIM_029.jpg
974.156	0.498	0	2back	Block2	2back/STIM_029.jpg
977.803	0.533	1	2back	Block2	2back/STIM_029.jpg
982.208	0.434	1	2back	Block2	2back/STIM_030.jpg
986.029	0.38	1	2back	Block2	2back/STIM_030.jpg
988.57	0.625	0	2back	Block2	2back/STIM_030.jpg
991.917	0.421	1	2back	Block2	2back/STIM_031.jpg
995.177	0.519	1	2back	Block2	2back/STIM_031.jpg
998.029	0.577	0	2back	Block2	2back/STIM_031.jpg
1001.918	0.589	0	2back	Block2	2back/STIM_032.jpg
1005.209	0.45	1	2back	Block2	2back/STIM_032.jpg
1008.096	0.612	1	2back	Block2	2back/STIM_032.jpg
1011.796	0.541	0	2back	Block2	2back/STIM_033.jpg
1015.466	0.619	0	2back	Block2	2back/STIM_033.jpg
1019.278	0.408	0	2back	Block2	2back/STIM_033.jpg
1022.404	0.502	0	2back	Block2	2back/STIM_034.jpg
1025.301	0.821	1	2back	Block2	2back/STIM_034.jpg
1028.65	0.647	1	2back	Block2	2back/STIM_034.jpg
1031.457	0.827	1	2back	Block2	2back/STIM_035.jpg
1035.785	0.775	1	2back	Block2	2back/STIM_035.jpg
1039.209	0.802	1	2back	Block2	2back/STIM_035.jpg
1042.728	0.457	1	2back	Block2	2back/STIM_036.jpg
1046.192	0.385	1	2back	Block2	2back/STIM_036.jpg
1049.408	0.455	1	2back	Block2	2back/STIM_036.jpg
1053.729	0.545	0	2back	Block2	2back/STIM_037.jpg
1058.193	0.586	0	2back	Block2	2back/STIM_037.jpg
1061.631	0.613	1	2back	Block2	2back/STIM_037.jpg
1064.355	0.586	1	2back	Block2	2back/STIM_038.jpg
1068.303	0.532	1	2back	Block2	2back/STIM_038.jpg
1071.283	0.378	1	2back	Block2	2back/STIM_038.jpg
1074.534	0.79	0	2back	Block2	2back/STIM_039.jpg
1078.891	0.674	1	2back	Block2	2back/STIM_039.jpg
1082.217	0.549	1	2back	Block2	2back/STIM_039.jpg
1085.516	0.404	0	0back	Block2	0back/STIM_000.jpg
1088.344	0.42	1	0back	Block2	0back/STIM_000.jpg
1092.492	0.401	1	0back	Block2	0back/STIM_000.jpg
1095.385	0.361	0	0back	Block2	0back/STIM_001.jpg
1099.337	0.454	1	0back	Block2	0back/STIM_001.jpg
1103.554	0.338	1	0back	Block2	0back/STIM_001.jpg
1106.862	0.414	1	0back	Block2	0back/STIM_002.jpg
1110.832	0.44	1	0back	Block2	0back/STIM_002.jpg
1114.015	0.607	0	0back	Block2	0back/STIM_002.jpg
1118.34	0.389	0	0back	Block2	0back/STIM_003.jpg
1121.069	0.53	1	0back	Block2	0back/STIM_003.jpg
1124.025	0.477	1	0back	Block2	0back/STIM_003.jpg
1126.771	0.404	0	0back	Block2	0back/STIM_004.jpg
1129.188	0.609	0	0back	Block2	0back/STIM_004.jpg
1132.411	0.602	1	0back	Block2	0back/STIM_004.jpg
1135.938	0.517	1	0back	Block2	0back/STIM_005.jpg
1138.992	0.445	0	0back	Block2	0back/STIM_005.jpg
1141.959	0.582	1	0back	Block2	0back/STIM_005.jpg
1146.502	0.332	1	0back	Block2	0back/STIM_006.jpg
1150.337	0.463	0	0back	Block2	0back/STIM_006.jpg
1153.375	0.55	0	0back	Block2	0back/STIM_006.jpg
1156.527	0.5	1	0back	Block2	0back/STIM_007.jpg
1159.714	0.323	1	0back	Block2	0back/STIM_007.jpg
1162.801	0.332	1	0back	Block2	0back/STIM_007.jpg
1166.386	0.604	1	0back	Block2	0back/STIM_008.jpg
1170.085	0.538	1	0back	Block2	0back/STIM_008.jpg
1174.005	0.408	0	0back	Block2	0back/STIM_008.jpg
1177.897	0.594	1	0back	Block2	0back/STIM_009.jpg
1182.017	0.323	0	0back	Block2	0back/STIM_009.jpg
1185.108	0.612	1	0back	Block2	0back/STIM_009.jpg
1188.897	0.566	0	0back	Block2	0back/STIM_010.jpg
1191.814	0.6	1	0back	Block2	0back/STIM_010.jpg
1194.777	0.421	1	0back	Block2	0back/STIM_010.jpg
1198.843	0.543	1	0back	Block2	0back/STIM_011.jpg
1201.657	0.325	1	0back	Block2	0back/STIM_011.jpg
1205.236	0.582	1	0back	Block2	0back/STIM_011.jpg
1207.928	0.396	1	0back	Block2	0back/STIM_012.jpg
1211.752	0.53	1	0back	Block2	0back/STIM_012.jpg
1215.475	0.426	1	0back	Block2	0back/STIM_012.jpg
1218.285	0.56	0	0back	Block2	0back/STIM_013.jpg
1220.975	0.554	1	0back	Block2	0back/STIM_013.jpg
1223.55	0.474	1	0back	Block2	0back/STIM_013.jpg
1227.053	0.329	1	0back	Block2	0back/STIM_014.jpg
1231.321	0.438	1	0back	Block2	0back/STIM_014.jpg
1234.303	0.373	0	0back	Block2	0back/STIM_014.jpg
1238.552	0.405	0	0back	Block2	0back/STIM_015.jpg
1241.809	0.437	1	0back	Block2	0back/STIM_015.jpg
1244.58	0.354	0	0back	Block2	0back/STIM_015.jpg
1248.138	0.537	1	0back	Block2	0back/STIM_016.jpg
1252.192	0.466	1	0back	Block2	0back/STIM_016.jpg
1256.623	0.574	1	0back	Block2	0back/STIM_016.jpg
1259.514	0.609	0	0back	Block2	0back/STIM_017.jpg
1263.14	0.59	1	0back	Block2	0back/STIM_017.jpg
1267.552	0.428	1	0back	Block2	0back/STIM_017.jpg
1270.005	0.605	1	0back	Block2	0back/STIM_018.jpg
1272.945	0.582	1	0back	Block2	0back/STIM_018.jpg
1276.566	0.616	1	0back	Block2	0back/STIM_018.jpg
1279.654	0.514	1	0back	Block2	0back/STIM_019.jpg
1282.37	0.327	1	0back	Block2	0back/STIM_019.jpg
1285.589	0.447	1	0back	Block2	0back/STIM_019.jpg
1288.576	0.545	0	2back	Block3	2back/STIM_000.jpg
1292.912	0.626	1	2back	Block3	2back/STIM_000.jpg
1297.35	0.354	1	2back	Block3	2back/STIM_000.jpg
1300.025	0.336	1	2back	Block3	2back/STIM_001.jpg
1303.784	0.386	1	2back	Block3	2back/STIM_001.jpg
1306.906	0.45	1	2back	Block3	2back/STIM_001.jpg
1310.019	0.502	1	2back	Block3	2back/STIM_002.jpg
1314.106	0.701	1	2back	Block3	2back/STIM_002.jpg
1317.704	0.375	1	2back	Block3	2back/STIM_002.jpg
1320.593	0.606	0	2back	Block3	2back/STIM_003.jpg
1324.975	0.604	1	2back	Block3	2back/STIM_003.jpg
1328.459	0.404	1	2back	Block3	2back/STIM_003.jpg
1332.52	0.47	0	2back	Block3	2back/STIM_004.jpg
1336.788	0.352	1	2back	Block3	2back/STIM_004.jpg
1340.447	0.601	1	2back	Block3	2back/STIM_004.jpg
1343.07	0.368	1	2back	Block3	2back/STIM_005.jpg
1346.884	0.602	1	2back	Block3	2back/STIM_005.jpg
1351.192	0.563	1	2back	Block3	2back/STIM_005.jpg
1354.091	0.413	0	2back	Block3	2back/STIM_006.jpg
1357.622	0.542	1	2back	Block3	2back/STIM_006.jpg
1361.326	0.6	1	2back	Block3	2back/STIM_006.jpg
1364.334	0.385	1	2back	Block3	2back/STIM_007.jpg
1368.101	0.614	1	2back	Block3	2back/STIM_007.jpg
1370.715	0.564	0	2back	Block3	2back/STIM_007.jpg
1374.201	0.438	0	2back	Block3	2back/STIM_008.jpg
1376.921	0.742	1	2back	Block3	2back/STIM_008.jpg
1381.467	0.448	1	2back	Block3	2back/STIM_008.jpg
1384.27	0.622	0	2back	Block3	2back/STIM_009.jpg
1388.841	0.745	0	2back	Block3	2back/STIM_009.jpg
1393.021	0.52	1	2back	Block3	2back/STIM_009.jpg
1396.177	0.552	1	2back	Block3	2back/STIM_010.jpg
1399.906	0.643	1	2back	Block3	2back/STIM_010.jpg
1403.96	0.509	1	2back	Block3	2back/STIM_010.jpg
1407.301	0.337	0	2back	Block3	2back/STIM_011.jpg
1411.031	0.396	1	2back	Block3	2back/STIM_011.jpg
1414.477	0.525	1	2back	Block3	2back/STIM_011.jpg
1418.861	0.549	1	2back	Block3	2back/STIM_012.jpg
1422.807	0.639	1	2back	Block3	2back/STIM_012.jpg
1426.512	0.606	1	2back	Block3	2back/STIM_012.jpg
1429.41	0.484	1	2back	Block3	2back/STIM_013.jpg
1431.932	0.515	1	2back	Block3	2back/STIM_013.jpg
1436.174	0.473	1	2back	Block3	2back/STIM_013.jpg
1440.023	0.35	0	2back	Block3	2back/STIM_014.jpg
1442.959	0.548	0	2back	Block3	2back/STIM_014.jpg
1445.729	0.391	1	2back	Block3	2back/STIM_014.jpg
1449.468	0.355	0	2back	Block3	2back/STIM_015.jpg
1453.649	0.391	1	2back	Block3	2back/STIM_015.jpg
1457.508	0.607	1	2back	Block3	2back/STIM_015.jpg
1460.578	0.699	1	2back	Block3	2back/STIM_016.jpg
1465.229	0.757	1	2back	Block3	2back/STIM_016.jpg
1468.534	0.619	0	2back	Block3	2back/STIM_016.jpg
1471.657	0.738	1	2back	Block3	2back/STIM_017.jpg
1475.797	0.63	1	2back	Block3	2back/STIM_017.jpg
1480.412	0.484	1	2back	Block3	2back/STIM_017.jpg
1483.826	0.64	0	2back	Block3	2back/STIM_018.jpg
1488.176	0.378	1	2back	Block3	2back/STIM_018.jpg
1491.911	0.534	1	2back	Block3	2back/STIM_018.jpg
1494.564	0.701	1	2back	Block3	2back/STIM_019.jpg
1498.62	0.453	1	2back	Block3	2back/STIM_019.jpg
1502.02	0.604	0	2back	Block3	2back/STIM_019.jpg
1505.227	0.435	1	2back	Block3	2back/STIM_020.jpg
1508.142	0.6	1	2back	Block3	2back/STIM_020.jpg
1512.377	0.602	1	2back	Block3	2back/STIM_020.jpg
1515.799	0.355	1	2back	Block3	2back/STIM_021.jpg
1518.618	0.587	1	2back	Block3	2back/STIM_021.jpg
1521.658	0.646	1	2back	Block3	2back/STIM_021.jpg
1525.089	0.331	1	2back	Block3	2back/STIM_022.jpg
1528.914	0.523	1	2back	Block3	2back/STIM_022.jpg
1532.544	0.552	1	2back	Block3	2back/STIM_022.jpg
1536.202	0.67	1	2back	Block3	2back/STIM_023.jpg
1539.025	0.683	1	2back	Block3	2back/STIM_023.jpg
1542.505	0.483	1	2back	Block3	2back/STIM_023.jpg
1545.298	0.648	0	2back	Block3	2back/STIM_024.jpg
1548.869	0.607	1	2back	Block3	2back/STIM_024.jpg
1552.52	0.539	1	2back	Block3	2back/STIM_024.jpg
1555.17	0.447	1	2back	Block3	2back/STIM_025.jpg
1557.823	0.727	1	2back	Block3	2back/STIM_025.jpg
1561.682	0.376	0	2back	Block3	2back/STIM_025.jpg
1565.56	0.489	1	2back	Block3	2back/STIM_026.jpg
1568.402	0.385	1	2back	Block3	2back/STIM_026.jpg
1571.174	0.527	0	2back	Block3	2back/STIM_026.jpg
1575.348	0.501	1	2back	Block3	2back/STIM_027.jpg
1578.707	0.64	1	2back	Block3	2back/STIM_027.jpg
1582.303	0.674	1	2back	Block3	2back/STIM_027.jpg
1585.302	0.383	1	2back	Block3	2back/STIM_028.jpg
1588.829	0.595	1	2back	Block3	2back/STIM_028.jpg
1591.434	0.519	1	2back	Block3	2back/STIM_028.jpg
1594.67	0.736	0	2back	Block3	2back/STIM_029.jpg
1598.044	0.595	0	2back	Block3	2back/STIM_029.jpg
1600.804	0.477	1	2back	Block3	2back/STIM_029.jpg
1604.421	0.756	1	2back	Block3	2back/STIM_030.jpg
1607.511	0.614	1	2back	Block3	2back/STIM_030.jpg
1612.022	0.711	1	2back	Block3	2back/STIM_030.jpg
1614.995	0.383	1	2back	Block3	2back/STIM_031.jpg
1617.908	0.581	1	2back	Block3	2back/STIM_031.jpg
1620.523	0.487	1	2back	Block3	2back/STIM_031.jpg
1624.651	0.527	1	2back	Block3	2back/STIM_032.jpg
1627.918	0.648	1	2back	Block3	2back/STIM_032.jpg
1632.444	0.364	1	2back	Block3	2back/STIM_032.jpg
1636.075	0.343	0	2back	Block3	2back/STIM_033.jpg
1638.907	0.364	1	2back	Block3	2back/STIM_033.jpg
1642.275	0.706	0	2back	Block3	2back/STIM_033.jpg
1646.54	0.377	0	2back	Block3	2back/STIM_034.jpg
1650.04	0.682	1	2back	Block3	2back/STIM_034.jpg
1653.743	0.686	0	2back	Block3	2back/STIM_034.jpg
1656.666	0.64	1	2back	Block3	2back/STIM_035.jpg
1660.017	0.398	1	2back	Block3	2back/STIM_035.jpg
1664.312	0.355	1	2back	Block3	2back/STIM_035.jpg
1668.655	0.645	0	2back	Block3	2back/STIM_036.jpg
1672.595	0.635	1	2back	Block3	2back/STIM_036.jpg
1677.101	0.475	1	2back	Block3	2back/STIM_036.jpg
1680.896	0.687	1	2back	Block3	2back/STIM_037.jpg
1685.037	0.513	1	2back	Block3	2back/STIM_037.jpg
1688.475	0.329	1	2back	Block3	2back/STIM_037.jpg
1691.52	0.561	1	2back	Block3	2back/STIM_038.jpg
1694.271	0.67	0	2back	Block3	2back/STIM_038.jpg
1697.633	0.402	1	2back	Block3	2back/STIM_038.jpg
1701.05	0.622	1	2back	Block3	2back/STIM_039.jpg
1705.077	0.361	0	2back	Block3	2back/STIM_039.jpg
1708.082	0.4	1	2back	Block3	2back/STIM_039.jpg
1710.523	0.439	1	0back	Block3	0back/STIM_000.jpg
1714.361	0.472	1	0back	Block3	0back/STIM_000.jpg
1718.354	0.456	1	0back	Block3	0back/STIM_000.jpg
1722.623	0.521	1	0back	Block3	0back/STIM_001.jpg
1726.943	0.5	0	0back	Block3	0back/STIM_001.jpg
1731.382	0.56	1	0back	Block3	0back/STIM_001.jpg
1734.045	0.336	1	0back	Block3	0back/STIM_002.jpg
1738.37	0.527	0	0back	Block3	0back/STIM_002.jpg
1740.925	0.509	1	0back	Block3	0back/STIM_002.jpg
1745.17	0.324	1	0back	Block3	0back/STIM_003.jpg
1748.943	0.6	1	0back	Block3	0back/STIM_003.jpg
1753.028	0.53	1	0back	Block3	0back/STIM_003.jpg
1755.712	0.482	1	0back	Block3	0back/STIM_004.jpg
1758.335	0.56	0	0back	Block3	0back/STIM_004.jpg
1761.424	0.442	1	0back	Block3	0back/STIM_004.jpg
1764.047	0.521	0	0back	Block3	0back/STIM_005.jpg
1768.32	0.371	0	0back	Block3	0back/STIM_005.jpg
1771.443	0.563	1	0back	Block3	0back/STIM_005.jpg
1774.244	0.326	1	0back	Block3	0back/STIM_006.jpg
1777.418	0.346	1	0back	Block3	0back/STIM_006.jpg
1780.935	0.404	1	0back	Block3	0back/STIM_006.jpg
1785.296	0.521	0	0back	Block3	0back/STIM_007.jpg
1788.699	0.6	1	0back	Block3	0back/STIM_007.jpg
1791.512	0.463	1	0back	Block3	0back/STIM_007.jpg
1795.354	0.408	1	0back	Block3	0back/STIM_008.jpg
1798.825	0.548	1	0back	Block3	0back/STIM_008.jpg
1801.738	0.31	1	0back	Block3	0back/STIM_008.jpg
1805.847	0.526	1	0back	Block3	0back/STIM_009.jpg
1808.766	0.356	1	0back	Block3	0back/STIM_009.jpg
1812.569	0.31	1	0back	Block3	0back/STIM_009.jpg
1815.506	0.372	1	0back	Block3	0back/STIM_010.jpg
1818.284	0.532	1	0back	Block3	0back/STIM_010.jpg
1821.832	0.422	1	0back	Block3	0back/STIM_010.jpg
1825.276	0.61	1	0back	Block3	0back/STIM_011.jpg
1828.693	0.595	0	0back	Block3	0back/STIM_011.jpg
1831.508	0.546	0	0back	Block3	0back/STIM_011.jpg
1834.492	0.401	1	0back	Block3	0back/STIM_012.jpg
1838.505	0.467	1	0back	Block3	0back/STIM_012.jpg
1841.034	0.348	0	0back	Block3	0back/STIM_012.jpg
1843.564	0.312	1	0back	Block3	0back/STIM_013.jpg
1846.731	0.582	0	0back	Block3	0back/STIM_013.jpg
1849.601	0.564	1	0back	Block3	0back/STIM_013.jpg
1852.274	0.471	1	0back	Block3	0back/STIM_014.jpg
1855.247	0.422	1	0back	Block3	0back/STIM_014.jpg
1859.586	0.539	0	0back	Block3	0back/STIM_014.jpg
1863.265	0.443	1	0back	Block3	0back/STIM_015.jpg
1867.622	0.552	1	0back	Block3	0back/STIM_015.jpg
1870.249	0.399	1	0back	Block3	0back/STIM_015.jpg
1873.43	0.331	0	0back	Block3	0back/STIM_016.jpg
1876.835	0.426	1	0back	Block3	0back/STIM_016.jpg
1881.01	0.532	1	0back	Block3	0back/STIM_016.jpg
1883.552	0.405	1	0back	Block3	0back/STIM_017.jpg
1887.397	0.363	0	0back	Block3	0back/STIM_017.jpg
1889.832	0.563	1	0back	Block3	0back/STIM_017.jpg
1893.845	0.397	0	0back	Block3	0back/STIM_018.jpg
1897.459	0.585	1	0back	Block3	0back/STIM_018.jpg
1901.409	0.472	1	0back	Block3	0back/STIM_018.jpg
1905.261	0.486	1	0back	Block3	0back/STIM_019.jpg
1907.932	0.595	1	0back	Block3	0back/STIM_019.jpg
1912.343	0.595	0	0back	Block3	0back/STIM_019.jpg
1915.723	0.654	1	2back	Block4	2back/STIM_000.jpg
1919.671	0.406	1	2back	Block4	2back/STIM_000.jpg
1922.257	0.415	1	2back	Block4	2back/STIM_000.jpg
1926.535	0.585	1	2back	Block4	2back/STIM_001.jpg
1929.886	0.392	1	2back	Block4	2back/STIM_001.jpg
1934.218	0.554	1	2back	Block4	2back/STIM_001.jpg
1938.706	0.565	1	2back	Block4	2back/STIM_002.jpg
1943.171	0.533	0	2back	Block4	2back/STIM_002.jpg
1947.089	0.373	1	2back	Block4	2back/STIM_002.jpg
1950.409	0.423	1	2back	Block4	2back/STIM_003.jpg
1953.481	0.341	1	2back	Block4	2back/STIM_003.jpg
1956.882	0.726	1	2back	Block4	2back/STIM_003.jpg
1960.797	0.337	1	2back	Block4	2back/STIM_004.jpg
1963.553	0.483	1	2back	Block4	2back/STIM_004.jpg
1966.861	0.417	1	2back	Block4	2back/STIM_004.jpg
1970.326	0.578	0	2back	Block4	2back/STIM_005.jpg
1973.078	0.519	0	2back	Block4	2back/STIM_005.jpg
1977.396	0.531	1	2back	Block4	2back/STIM_005.jpg
1981.686	0.442	1	2back	Block4	2back/STIM_006.jpg
1984.941	0.481	1	2back	Block4	2back/STIM_006.jpg
1987.545	0.438	1	2back	Block4	2back/STIM_006.jpg
1991.248	0.432	0	2back	Block4	2back/STIM_007.jpg
1994.046	0.588	0	2back	Block4	2back/STIM_007.jpg
1997.535	0.712	1	2back	Block4	2back/STIM_007.jpg
2000.813	0.479	1	2back	Block4	2back/STIM_008.jpg
2004.613	0.454	1	2back	Block4	2back/STIM_008.jpg
2007.833	0.507	1	2back	Block4	2back/STIM_008.jpg
2011.138	0.427	1	2back	Block4	2back/STIM_009.jpg
2014.552	0.331	0	2back	Block4	2back/STIM_009.jpg
2017.178	0.617	1	2back	Block4	2back/STIM_009.jpg
2021.147	0.627	0	2back	Block4	2back/STIM_010.jpg
2024.759	0.576	1	2back	Block4	2back/STIM_010.jpg
2029.199	0.752	1	2back	Block4	2back/STIM_010.jpg
2032.044	0.332	0	2back	Block4	2back/STIM_011.jpg
2035.601	0.47	1	2back	Block4	2back/STIM_011.jpg
2038.69	0.66	1	2back	Block4	2back/STIM_011.jpg
2042.381	0.644	1	2back	Block4	2back/STIM_012.jpg
2046.324	0.532	1	2back	Block4	2back/STIM_012.jpg
2050.12	0.64	1	2back	Block4	2back/STIM_012.jpg
2054.744	0.616	1	2back	Block4	2back/STIM_013.jpg
2058.677	0.553	1	2back	Block4	2back/STIM_013.jpg
2061.281	0.57	1	2back	Block4	2back/STIM_013.jpg
2064.466	0.374	1	2back	Block4	2back/STIM_014.jpg
2068.793	0.685	1	2back	Block4	2back/STIM_014.jpg
2073.012	0.43	1	2back	Block4	2back/STIM_014.jpg
2076.837	0.515	1	2back	Block4	2back/STIM_015.jpg
2080.218	0.342	0	2back	Block4	2back/STIM_015.jpg
2082.953	0.712	0	2back	Block4	2back/STIM_015.jpg
2086.348	0.502	1	2back	Block4	2back/STIM_016.jpg
2090.301	0.567	1	2back	Block4	2back/STIM_016.jpg
2092.897	0.73	1	2back	Block4	2back/STIM_016.jpg
2096.917	0.515	1	2back	Block4	2back/STIM_017.jpg
2099.542	0.68	1	2back	Block4	2back/STIM_017.jpg
2102.766	0.704	1	2back	Block4	2back/STIM_017.jpg
2105.55	0.587	1	2back	Block4	2back/STIM_018.jpg
2108.688	0.6	1	2back	Block4	2back/STIM_018.jpg
2112.662	0.399	1	2back	Block4	2back/STIM_018.jpg
2116.537	0.509	1	2back	Block4	2back/STIM_019.jpg
2119.553	0.385	1	2back	Block4	2back/STIM_019.jpg
2122.871	0.716	0	2back	Block4	2back/STIM_019.jpg
2126.706	0.736	1	2back	Block4	2back/STIM_020.jpg
2129.466	0.749	1	2back	Block4	2back/STIM_020.jpg
2132.637	0.52	1	2back	Block4	2back/STIM_020.jpg
2135.82	0.335	1	2back	Block4	2back/STIM_021.jpg
2138.174	0.423	1	2back	Block4	2back/STIM_021.jpg
2140.811	0.702	1	2back	Block4	2back/STIM_021.jpg
2143.969	0.418	1	2back	Block4	2back/STIM_022.jpg
2147.095	0.452	1	2back	Block4	2back/STIM_022.jpg
2150.656	0.542	1	2back	Block4	2back/STIM_022.jpg
2153.377	0.353	1	2back	Block4	2back/STIM_023.jpg
2156.131	0.554	1	2back	Block4	2back/STIM_023.jpg
2158.931	0.636	1	2back	Block4	2back/STIM_023.jpg
2161.784	0.342	0	2back	Block4	2back/STIM_024.jpg
2165.961	0.586	1	2back	Block4	2back/STIM_024.jpg
2170.061	0.467	1	2back	Block4	2back/STIM_024.jpg
2172.831	0.392	0	2back	Block4	2back/STIM_025.jpg
2177.081	0.675	1	2back	Block4	2back/STIM_025.jpg
2180.471	0.621	1	2back	Block4	2back/STIM_025.jpg
2183.261	0.597	0	2back	Block4	2back/STIM_026.jpg
2186.341	0.423	0	2back	Block4	2back/STIM_026.jpg
2189.317	0.341	1	2back	Block4	2back/STIM_026.jpg
2191.698	0.715	0	2back	Block4	2back/STIM_027.jpg
2195.385	0.55	1	2back	Block4	2back/STIM_027.jpg
2198.609	0.73	1	2back	Block4	2back/STIM_027.jpg
2203.178	0.35	1	2back	Block4	2back/STIM_028.jpg
2206.536	0.446	1	2back	Block4	2back/STIM_028.jpg
2210.49	0.332	0	2back	Block4	2back/STIM_028.jpg
2212.918	0.566	1	2back	Block4	2back/STIM_029.jpg
2215.8	0.705	0	2back	Block4	2back/STIM_029.jpg
2220.479	0.685	1	2back	Block4	2back/STIM_029.jpg
2224.421	0.617	0	2back	Block4	2back/STIM_030.jpg
2228.136	0.706	1	2back	Block4	2back/STIM_030.jpg
2231.484	0.633	1	2back	Block4	2back/STIM_030.jpg
2234.217	0.386	1	2back	Block4	2back/STIM_031.jpg
2237.945	0.698	1	2back	Block4	2back/STIM_031.jpg
2241.573	0.551	1	2back	Block4	2back/STIM_031.jpg
2244.443	0.655	1	2back	Block4	2back/STIM_032.jpg
2247.124	0.604	1	2back	Block4	2back/STIM_032.jpg
2251.032	0.36	1	2back	Block4	2back/STIM_032.jpg
2253.565	0.68	1	2back	Block4	2back/STIM_033.jpg
2257.385	0.597	1	2back	Block4	2back/STIM_033.jpg
2261.748	0.681	1	2back	Block4	2back/STIM_033.jpg
2264.783	0.405	0	2back	Block4	2back/STIM_034.jpg
2267.644	0.455	1	2back	Block4	2back/STIM_034.jpg
2270.744	0.358	1	2back	Block4	2back/STIM_034.jpg
2274.305	0.615	1	2back	Block4	2back/STIM_035.jpg
2277.25	0.47	1	2back	Block4	2back/STIM_035.jpg
2279.885	0.573	1	2back	Block4	2back/STIM_035.jpg
2282.492	0.474	1	2back	Block4	2back/STIM_036.jpg
2286.63	0.693	1	2back	Block4	2back/STIM_036.jpg
2291.04	0.592	1	2back	Block4	2back/STIM_036.jpg
2293.874	0.61	1	2back	Block4	2back/STIM_037.jpg
2298.086	0.487	1	2back	Block4	2back/STIM_037.jpg
2301.74	0.651	1	2back	Block4	2back/STIM_037.jpg
2304.706	0.707	1	2back	Block4	2back/STIM_038.jpg
2308.395	0.634	1	2back	Block4	2back/STIM_038.jpg
2311.631	0.549	1	2back	Block4	2back/STIM_038.jpg
2314.573	0.431	1	2back	Block4	2back/STIM_039.jpg
2318.298	0.356	1	2back	Block4	2back/STIM_039.jpg
2320.915	0.618	1	2back	Block4	2back/STIM_039.jpg
2324.916	0.366	1	0back	Block4	0back/STIM_000.jpg
2327.61	0.488	0	0back	Block4	0back/STIM_000.jpg
2330.576	0.402	1	0back	Block4	0back/STIM_000.jpg
2334.233	0.374	1	0back	Block4	0back/STIM_001.jpg
2336.7	0.544	0	0back	Block4	0back/STIM_001.jpg
2339.671	0.544	1	0back	Block4	0back/STIM_001.jpg
2342.539	0.568	1	0back	Block4	0back/STIM_002.jpg
2346.075	0.401	1	0back	Block4	0back/STIM_002.jpg
2350.425	0.372	0	0back	Block4	0back/STIM_002.jpg
2354.134	0.596	1	0back	Block4	0back/STIM_003.jpg
2357.578	0.508	1	0back	Block4	0back/STIM_003.jpg
2361.3	0.505	1	0back	Block4	0back/STIM_003.jpg
2365.295	0.408	1	0back	Block4	0back/STIM_004.jpg
2367.74	0.437	1	0back	Block4	0back/STIM_004.jpg
2371.467	0.406	1	0back	Block4	0back/STIM_004.jpg
2375.554	0.456	1	0back	Block4	0back/STIM_005.jpg
2379.207	0.571	0	0back	Block4	0back/STIM_005.jpg
2383.638	0.344	1	0back	Block4	0back/STIM_005.jpg
2387.116	0.5	0	0back	Block4	0back/STIM_006.jpg
2389.968	0.441	1	0back	Block4	0back/STIM_006.jpg
2393.176	0.369	1	0back	Block4	0back/STIM_006.jpg
2395.723	0.465	1	0back	Block4	0back/STIM_007.jpg
2399.836	0.4	1	0back	Block4	0back/STIM_007.jpg
2403.442	0.55	1	0back	Block4	0back/STIM_007.jpg
2407.458	0.585	0	0back	Block4	0back/STIM_008.jpg
2411.706	0.309	1	0back	Block4	0back/STIM_008.jpg
2414.776	0.585	0	0back	Block4	0back/STIM_008.jpg
2417.425	0.583	1	0back	Block4	0back/STIM_009.jpg
2420.727	0.606	0	0back	Block4	0back/STIM_009.jpg
2424.855	0.561	1	0back	Block4	0back/STIM_009.jpg
2429.26	0.519	1	0back	Block4	0back/STIM_010.jpg
2432.756	0.501	1	0back	Block4	0back/STIM_010.jpg
2436.254	0.438	1	0back	Block4	0back/STIM_010.jpg
2439.921	0.603	0	0back	Block4	0back/STIM_011.jpg
2443.65	0.376	1	0back	Block4	0back/STIM_011.jpg
2446.5	0.493	1	0back	Block4	0back/STIM_011.jpg
2449.319	0.551	1	0back	Block4	0back/STIM_012.jpg
2453.711	0.345	0	0back	Block4	0back/STIM_012.jpg
2457.528	0.555	1	0back	Block4	0back/STIM_012.jpg
2460.205	0.438	1	0back	Block4	0back/STIM_013.jpg
2462.685	0.394	1	0back	Block4	0back/STIM_013.jpg
2465.497	0.507	1	0back	Block4	0back/STIM_013.jpg
2468.985	0.514	1	0back	Block4	0back/STIM_014.jpg
2473.041	0.419	1	0back	Block4	0back/STIM_014.jpg
2476.892	0.5	1	0back	Block4	0back/STIM_014.jpg
2479.972	0.358	1	0back	Block4	0back/STIM_015.jpg
2483.555	0.456	1	0back	Block4	0back/STIM_015.jpg
2487.656	0.394	1	0back	Block4	0back/STIM_015.jpg
2491.953	0.579	1	0back	Block4	0back/STIM_016.jpg
2495.478	0.358	1	0back	Block4	0back/STIM_016.jpg
2498.181	0.461	1	0back	Block4	0back/STIM_016.jpg
2501.759	0.573	1	0back	Block4	0back/STIM_017.jpg
2505.202	0.562	1	0back	Block4	0back/STIM_017.jpg
2509.572	0.347	1	0back	Block4	0back/STIM_017.jpg
2513.59	0.503	1	0back	Block4	0back/STIM_018.jpg
2517.006	0.557	0	0back	Block4	0back/STIM_018.jpg
2521.365	0.475	1	0back	Block4	0back/STIM_018.jpg
2523.983	0.563	1	0back	Block4	0back/STIM_019.jpg
2526.881	0.495	1	0back	Block4	0back/STIM_019.jpg
2530.415	0.424	1	0back	Block4	0back/STIM_019.jpg
