onset	duration	accuracy	trial_type	learning_stage	stimulus
0.0	2.087	correct	navigation	Trial1	navigation/STIM_000.jpg
4.11	2.535	correct	navigation	Trial1	navigation/STIM_000.jpg
9.385	2.091	correct	navigation	Trial1	navigation/STIM_000.jpg
14.669	1.371	incorrect	navigation	Trial1	navigation/STIM_000.jpg
19.989	2.597	incorrect	navigation	Trial1	navigation/STIM_000.jpg
25.542	1.979	correct	navigation	Trial1	navigation/STIM_000.jpg
30.257	3.242	correct	navigation	Trial1	navigation/STIM_001.jpg
36.087	1.971	correct	navigation	Trial1	navigation/STIM_001.jpg
41.212	1.592	correct	navigation	Trial1	navigation/STIM_001.jpg
46.411	1.965	correct	navigation	Trial1	navigation/STIM_001.jpg
52.307	1.529	incorrect	navigation	Trial1	navigation/STIM_001.jpg
56.504	2.552	correct	navigation	Trial1	navigation/STIM_001.jpg
61.906	3.03	correct	navigation	Trial1	navigation/STIM_002.jpg
68.002	2.908	correct	navigation	Trial1	navigation/STIM_002.jpg
73.961	2.249	correct	navigation	Trial1	navigation/STIM_002.jpg
78.489	1.678	correct	navigation	Trial1	navigation/STIM_002.jpg
83.329	1.359	incorrect	navigation	Trial1	navigation/STIM_002.jpg
87.814	1.962	correct	navigation	Trial1	navigation/STIM_002.jpg
92.581	2.622	correct	navigation	Trial1	navigation/STIM_003.jpg
97.611	3.202	correct	navigation	Trial1	navigation/STIM_003.jpg
103.03	2.651	correct	navigation	Trial1	navigation/STIM_003.jpg
109.534	2.552	incorrect	navigation	Trial1	navigation/STIM_003.jpg
115.43	1.528	correct	navigation	Trial1	navigation/STIM_003.jpg
120.106	2.293	correct	navigation	Trial1	navigation/STIM_003.jpg
125.048	2.303	correct	navigation	Trial1	navigation/STIM_004.jpg
130.25	3.218	correct	navigation	Trial1	navigation/STIM_004.jpg
136.399	1.323	correct	navigation	Trial1	navigation/STIM_004.jpg
141.378	2.964	correct	navigation	Trial1	navigation/STIM_004.jpg
148.133	2.385	incorrect	navigation	Trial1	navigation/STIM_004.jpg
152.616	2.148	correct	navigation	Trial1	navigation/STIM_004.jpg
157.734	1.971	incorrect	navigation	Trial1	navigation/STIM_005.jpg
162.861	3.198	incorrect	navigation	Trial1	navigation/STIM_005.jpg
169.005	1.584	incorrect	navigation	Trial1	navigation/STIM_005.jpg
172.84	1.46	correct	navigation	Trial1	navigation/STIM_005.jpg
177.24	2.499	incorrect	navigation	Trial1	navigation/STIM_005.jpg
182.381	1.25	incorrect	navigation	Trial1	navigation/STIM_005.jpg
186.243	2.969	correct	navigation	Trial1	navigation/STIM_006.jpg
193.083	3.217	correct	navigation	Trial1	navigation/STIM_006.jpg
199.647	3.003	correct	navigation	Trial1	navigation/STIM_006.jpg
206.06	2.633	correct	navigation	Trial1	navigation/STIM_006.jpg
211.553	1.271	correct	navigation	Trial1	navigation/STIM_006.jpg
215.691	1.142	correct	navigation	Trial1	navigation/STIM_006.jpg
218.893	1.803	correct	navigation	Trial1	navigation/STIM_007.jpg
223.438	1.557	incorrect	navigation	Trial1	navigation/STIM_007.jpg
227.329	1.861	incorrect	navigation	Trial1	navigation/STIM_007.jpg
231.533	1.961	correct	navigation	Trial1	navigation/STIM_007.jpg
236.641	1.212	incorrect	navigation	Trial1	navigation/STIM_007.jpg
241.225	1.8	correct	navigation	Trial1	navigation/STIM_007.jpg
245.157	2.882	correct	navigation	Trial1	navigation/STIM_008.jpg
250.213	2.125	incorrect	navigation	Trial1	navigation/STIM_008.jpg
255.69	1.979	correct	navigation	Trial1	navigation/STIM_008.jpg
260.388	2.671	correct	navigation	Trial1	navigation/STIM_008.jpg
266.251	1.778	correct	navigation	Trial1	navigation/STIM_008.jpg
271.947	2.353	correct	navigation	Trial1	navigation/STIM_008.jpg
277.37	3.342	correct	navigation	Trial1	navigation/STIM_009.jpg
283.761	2.889	correct	navigation	Trial1	navigation/STIM_009.jpg
288.969	1.533	correct	navigation	Trial1	navigation/STIM_009.jpg
294.265	3.067	correct	navigation	Trial1	navigation/STIM_009.jpg
300.572	1.489	correct	navigation	Trial1	navigation/STIM_009.jpg
306.04	1.222	correct	navigation	Trial1	navigation/STIM_009.jpg
310.535	1.859	incorrect	navigation	Trial1	navigation/STIM_010.jpg
315.629	3.242	incorrect	navigation	Trial1	navigation/STIM_010.jpg
321.226	2.697	incorrect	navigation	Trial1	navigation/STIM_010.jpg
326.659	2.985	correct	navigation	Trial1	navigation/STIM_010.jpg
333.341	1.974	correct	navigation	Trial1	navigation/STIM_010.jpg
339.233	1.905	correct	navigation	Trial1	navigation/STIM_010.jpg
343.42	3.39	correct	navigation	Trial1	navigation/STIM_011.jpg
348.897	2.117	correct	navigation	Trial1	navigation/STIM_011.jpg
353.24	1.381	correct	navigation	Trial1	navigation/STIM_011.jpg
357.059	2.92	incorrect	navigation	Trial1	navigation/STIM_011.jpg
362.233	2.649	incorrect	navigation	Trial1	navigation/STIM_011.jpg
367.768	2.706	correct	navigation	Trial1	navigation/STIM_011.jpg
373.501	1.08	correct	pointing	Trial1	pointing/STIM_000.jpg
378.569	1.009	correct	pointing	Trial1	pointing/STIM_000.jpg
382.887	0.82	incorrect	pointing	Trial1	pointing/STIM_000.jpg
387.56	0.733	correct	pointing	Trial1	pointing/STIM_000.jpg
390.474	0.745	correct	pointing	Trial1	pointing/STIM_000.jpg
393.955	0.663	correct	pointing	Trial1	pointing/STIM_000.jpg
398.581	0.876	correct	pointing	Trial1	pointing/STIM_001.jpg
403.356	0.674	correct	pointing	Trial1	pointing/STIM_001.jpg
406.608	1.083	correct	pointing	Trial1	pointing/STIM_001.jpg
410.89	0.597	correct	pointing	Trial1	pointing/STIM_001.jpg
413.562	0.759	correct	pointing	Trial1	pointing/STIM_001.jpg
416.597	1.085	correct	pointing	Trial1	pointing/STIM_001.jpg
419.871	0.62	correct	pointing	Trial1	pointing/STIM_002.jpg
423.683	0.899	correct	pointing	Trial1	pointing/STIM_002.jpg
427.078	0.976	correct	pointing	Trial1	pointing/STIM_002.jpg
431.095	0.898	correct	pointing	Trial1	pointing/STIM_002.jpg
435.166	0.65	correct	pointing	Trial1	pointing/STIM_002.jpg
438.543	0.667	correct	pointing	Trial1	pointing/STIM_002.jpg
441.495	0.605	correct	pointing	Trial1	pointing/STIM_003.jpg
444.726	0.864	correct	pointing	Trial1	pointing/STIM_003.jpg
448.328	1.012	correct	pointing	Trial1	pointing/STIM_003.jpg
451.901	0.673	correct	pointing	Trial1	pointing/STIM_003.jpg
456.294	0.767	correct	pointing	Trial1	pointing/STIM_003.jpg
460.625	0.864	correct	pointing	Trial1	pointing/STIM_003.jpg
463.812	0.874	correct	pointing	Trial1	pointing/STIM_004.jpg
468.021	1.022	correct	pointing	Trial1	pointing/STIM_004.jpg
471.727	0.965	correct	pointing	Trial1	pointing/STIM_004.jpg
475.13	0.8	incorrect	pointing	Trial1	pointing/STIM_004.jpg
479.299	0.659	correct	pointing	Trial1	pointing/STIM_004.jpg
483.938	0.647	correct	pointing	Trial1	pointing/STIM_004.jpg
486.848	1.073	correct	pointing	Trial1	pointing/STIM_005.jpg
490.577	0.656	incorrect	pointing	Trial1	pointing/STIM_005.jpg
494.269	0.712	correct	pointing	Trial1	pointing/STIM_005.jpg
498.867	0.808	correct	pointing	Trial1	pointing/STIM_005.jpg
502.744	0.93	correct	pointing	Trial1	pointing/STIM_005.jpg
505.814	1.044	correct	pointing	Trial1	pointing/STIM_005.jpg
509.636	0.845	incorrect	pointing	Trial1	pointing/STIM_006.jpg
514.008	0.775	correct	pointing	Trial1	pointing/STIM_006.jpg
517.684	0.984	correct	pointing	Trial1	pointing/STIM_006.jpg
522.24	0.676	correct	pointing	Trial1	pointing/STIM_006.jpg
526.697	0.874	correct	pointing	Trial1	pointing/STIM_006.jpg
529.746	0.916	correct	pointing	Trial1	pointing/STIM_006.jpg
534.377	1.08	correct	pointing	Trial1	pointing/STIM_007.jpg
538.306	0.792	correct	pointing	Trial1	pointing/STIM_007.jpg
542.936	0.593	correct	pointing	Trial1	pointing/STIM_007.jpg
547.135	1.066	correct	pointing	Trial1	pointing/STIM_007.jpg
550.896	0.966	correct	pointing	Trial1	pointing/STIM_007.jpg
554.564	0.655	correct	pointing	Trial1	pointing/STIM_007.jpg
557.653	1.068	correct	pointing	Trial1	pointing/STIM_008.jpg
562.689	0.804	correct	pointing	Trial1	pointing/STIM_008.jpg
566.303	0.849	correct	pointing	Trial1	pointing/STIM_008.jpg
569.735	1.014	incorrect	pointing	Trial1	pointing/STIM_008.jpg
573.976	0.822	correct	pointing	Trial1	pointing/STIM_008.jpg
578.209	1.036	correct	pointing	Trial1	pointing/STIM_008.jpg
582.321	0.659	correct	pointing	Trial1	pointing/STIM_009.jpg
585.786	0.611	correct	pointing	Trial1	pointing/STIM_009.jpg
590.341	0.683	correct	pointing	Trial1	pointing/STIM_009.jpg
593.934	1.033	correct	pointing	Trial1	pointing/STIM_009.jpg
597.005	0.885	correct	pointing	Trial1	pointing/STIM_009.jpg
600.539	0.895	correct	pointing	Trial1	pointing/STIM_009.jpg
603.954	0.617	correct	pointing	Trial1	pointing/STIM_010.jpg
607.392	1.076	correct	pointing	Trial1	pointing/STIM_010.jpg
611.091	1.027	correct	pointing	Trial1	pointing/STIM_010.jpg
615.648	0.808	correct	pointing	Trial1	pointing/STIM_010.jpg
618.978	0.603	correct	pointing	Trial1	pointing/STIM_010.jpg
622.3	0.817	correct	pointing	Trial1	pointing/STIM_010.jpg
625.733	1.078	correct	pointing	Trial1	pointing/STIM_011.jpg
628.885	0.84	correct	pointing	Trial1	pointing/STIM_011.jpg
633.168	0.655	correct	pointing	Trial1	pointing/STIM_011.jpg
636.059	0.779	correct	pointing	Trial1	pointing/STIM_011.jpg
639.368	0.755	correct	pointing	Trial1	pointing/STIM_011.jpg
642.824	0.939	correct	pointing	Trial1	pointing/STIM_011.jpg
645.768	2.174	incorrect	navigation	Trial2	navigation/STIM_000.jpg
651.204	1.521	correct	navigation	Trial2	navigation/STIM_000.jpg
654.87	1.515	correct	navigation	Trial2	navigation/STIM_000.jpg
660.214	2.209	correct	navigation	Trial2	navigation/STIM_000.jpg
665.165	2.158	correct	navigation	Trial2	navigation/STIM_000.jpg
670.51	1.162	correct	navigation	Trial2	navigation/STIM_000.jpg
674.211	2.859	correct	navigation	Trial2	navigation/STIM_001.jpg
680.025	1.661	incorrect	navigation	Trial2	navigation/STIM_001.jpg
684.61	1.876	correct	navigation	Trial2	navigation/STIM_001.jpg
689.068	1.151	correct	navigation	Trial2	navigation/STIM_001.jpg
693.483	2.321	correct	navigation	Trial2	navigation/STIM_001.jpg
698.686	1.832	correct	navigation	Trial2	navigation/STIM_001.jpg
703.146	2.16	correct	navigation	Trial2	navigation/STIM_002.jpg
708.002	2.411	correct	navigation	Trial2	navigation/STIM_002.jpg
712.827	2.714	correct	navigation	Trial2	navigation/STIM_002.jpg
718.981	1.045	correct	navigation	Trial2	navigation/STIM_002.jpg
722.272	1.561	correct	navigation	Trial2	navigation/STIM_002.jpg
726.067	2.451	correct	navigation	Trial2	navigation/STIM_002.jpg
731.965	1.275	incorrect	navigation	Trial2	navigation/STIM_003.jpg
735.527	2.623	correct	navigation	Trial2	navigation/STIM_003.jpg
740.862	1.257	correct	navigation	Trial2	navigation/STIM_003.jpg
746.074	1.198	correct	navigation	Trial2	navigation/STIM_003.jpg
749.674	1.292	correct	navigation	Trial2	navigation/STIM_003.jpg
753.784	1.461	correct	navigation	Trial2	navigation/STIM_003.jpg
757.971	2.495	correct	navigation	Trial2	navigation/STIM_004.jpg
763.273	2.465	correct	navigation	Trial2	navigation/STIM_004.jpg
767.972	1.098	correct	navigation	Trial2	navigation/STIM_004.jpg
771.465	1.9	correct	navigation	Trial2	navigation/STIM_004.jpg
775.92	1.093	correct	navigation	Trial2	navigation/STIM_004.jpg
780.094	1.888	correct	navigation	Trial2	navigation/STIM_004.jpg
784.428	2.529	incorrect	navigation	Trial2	navigation/STIM_005.jpg
789.774	2.054	correct	navigation	Trial2	navigation/STIM_005.jpg
794.383	2.278	correct	navigation	Trial2	navigation/STIM_005.jpg
800.293	1.774	correct	navigation	Trial2	navigation/STIM_005.jpg
805.109	1.589	correct	navigation	Trial2	navigation/STIM_005.jpg
810.036	1.931	correct	navigation	Trial2	navigation/STIM_005.jpg
814.087	2.21	correct	navigation	Trial2	navigation/STIM_006.jpg
819.497	1.879	correct	navigation	Trial2	navigation/STIM_006.jpg
824.481	2.305	incorrect	navigation	Trial2	navigation/STIM_006.jpg
828.838	1.897	correct	navigation	Trial2	navigation/STIM_006.jpg
834.632	1.486	incorrect	navigation	Trial2	navigation/STIM_006.jpg
838.35	1.389	correct	navigation	Trial2	navigation/STIM_006.jpg
842.669	2.215	correct	navigation	Trial2	navigation/STIM_007.jpg
846.906	2.732	correct	navigation	Trial2	navigation/STIM_007.jpg
853.478	1.18	correct	navigation	Trial2	navigation/STIM_007.jpg
856.689	1.987	correct	navigation	Trial2	navigation/STIM_007.jpg
861.305	2.178	correct	navigation	Trial2	navigation/STIM_007.jpg
866.106	2.488	correct	navigation	Trial2	navigation/STIM_007.jpg
871.837	2.797	correct	navigation	Trial2	navigation/STIM_008.jpg
876.934	1.262	incorrect	navigation	Trial2	navigation/STIM_008.jpg
882.116	1.144	correct	navigation	Trial2	navigation/STIM_008.jpg
885.729	1.409	correct	navigation	Trial2	navigation/STIM_008.jpg
889.697	1.508	correct	navigation	Trial2	navigation/STIM_008.jpg
894.07	2.16	correct	navigation	Trial2	navigation/STIM_008.jpg
898.608	2.967	correct	navigation	Trial2	navigation/STIM_009.jpg
905.227	2.331	correct	navigation	Trial2	navigation/STIM_009.jpg
910.499	1.218	correct	navigation	Trial2	navigation/STIM_009.jpg
914.202	2.4	correct	navigation	Trial2	navigation/STIM_009.jpg
919.961	1.463	correct	navigation	Trial2	navigation/STIM_009.jpg
924.406	1.468	correct	navigation	Trial2	navigation/STIM_009.jpg
929.833	2.23	correct	navigation	Trial2	navigation/STIM_010.jpg
934.497	2.864	correct	navigation	Trial2	navigation/STIM_010.jpg
940.027	1.605	correct	navigation	Trial2	navigation/STIM_010.jpg
943.673	2.357	correct	navigation	Trial2	navigation/STIM_010.jpg
948.08	1.447	correct	navigation	Trial2	navigation/STIM_010.jpg
952.172	2.109	correct	navigation	Trial2	navigation/STIM_010.jpg
957.238	1.824	correct	navigation	Trial2	navigation/STIM_011.jpg
962.646	1.877	correct	navigation	Trial2	navigation/STIM_011.jpg
968.362	1.856	incorrect	navigation	Trial2	navigation/STIM_011.jpg
973.946	1.636	incorrect	navigation	Trial2	navigation/STIM_011.jpg
979.214	1.766	correct	navigation	Trial2	navigation/STIM_011.jpg
983.194	1.416	correct	navigation	Trial2	navigation/STIM_011.jpg
988.59	0.971	correct	pointing	Trial2	pointing/STIM_000.jpg
992.204	0.986	correct	pointing	Trial2	pointing/STIM_000.jpg
997.066	0.668	correct	pointing	Trial2	pointing/STIM_000.jpg
999.995	0.932	correct	pointing	Trial2	pointing/STIM_000.jpg
1003.41	0.876	correct	pointing	Trial2	pointing/STIM_000.jpg
1007.706	0.972	correct	pointing	Trial2	pointing/STIM_000.jpg
1011.096	0.77	correct	pointing	Trial2	pointing/STIM_001.jpg
1013.9	0.683	correct	pointing	Trial2	pointing/STIM_001.jpg
1017.679	0.854	correct	pointing	Trial2	pointing/STIM_001.jpg
1022.137	0.736	correct	pointing	Trial2	pointing/STIM_001.jpg
1026.016	0.625	correct	pointing	Trial2	pointing/STIM_001.jpg
1029.807	0.775	correct	pointing	Trial2	pointing/STIM_001.jpg
1032.941	0.848	correct	pointing	Trial2	pointing/STIM_002.jpg
1036.17	0.695	correct	pointing	Trial2	pointing/STIM_002.jpg
1039.262	1.028	correct	pointing	Trial2	pointing/STIM_002.jpg
1043.152	0.958	correct	pointing	Trial2	pointing/STIM_002.jpg
1047.752	0.839	correct	pointing	Trial2	pointing/STIM_002.jpg
1050.955	0.601	correct	pointing	Trial2	pointing/STIM_002.jpg
1054.164	1.058	correct	pointing	Trial2	pointing/STIM_003.jpg
1057.32	0.721	incorrect	pointing	Trial2	pointing/STIM_003.jpg
1061.758	0.888	correct	pointing	Trial2	pointing/STIM_003.jpg
1066.497	0.986	correct	pointing	Trial2	pointing/STIM_003.jpg
1069.601	0.597	correct	pointing	Trial2	pointing/STIM_003.jpg
1073.56	0.979	incorrect	pointing	Trial2	pointing/STIM_003.jpg
1076.717	1.038	correct	pointing	Trial2	pointing/STIM_004.jpg
1080.507	0.65	correct	pointing	Trial2	pointing/STIM_004.jpg
1084.446	0.837	correct	pointing	Trial2	pointing/STIM_004.jpg
1088.807	1.083	correct	pointing	Trial2	pointing/STIM_004.jpg
1092.527	1.006	correct	pointing	Trial2	pointing/STIM_004.jpg
1095.783	0.876	correct	pointing	Trial2	pointing/STIM_004.jpg
1100.207	0.658	correct	pointing	Trial2	pointing/STIM_005.jpg
1103.915	0.598	correct	pointing	Trial2	pointing/STIM_005.jpg
1108.256	0.59	correct	pointing	Trial2	pointing/STIM_005.jpg
1112.574	0.872	correct	pointing	Trial2	pointing/STIM_005.jpg
1116.216	0.887	correct	pointing	Trial2	pointing/STIM_005.jpg
1119.663	0.946	correct	pointing	Trial2	pointing/STIM_005.jpg
1124.038	1.002	correct	pointing	Trial2	pointing/STIM_006.jpg
1128.19	0.858	correct	pointing	Trial2	pointing/STIM_006.jpg
1131.481	0.823	correct	pointing	Trial2	pointing/STIM_006.jpg
1135.298	0.623	correct	pointing	Trial2	pointing/STIM_006.jpg
1139.491	1.012	correct	pointing	Trial2	pointing/STIM_006.jpg
1143.099	0.986	correct	pointing	Trial2	pointing/STIM_006.jpg
1147.329	1.007	correct	pointing	Trial2	pointing/STIM_007.jpg
1150.867	0.853	correct	pointing	Trial2	pointing/STIM_007.jpg
1154.453	0.72	correct	pointing	Trial2	pointing/STIM_007.jpg
1159.082	1.059	correct	pointing	Trial2	pointing/STIM_007.jpg
1162.761	0.765	correct	pointing	Trial2	pointing/STIM_007.jpg
1165.591	1.081	correct	pointing	Trial2	pointing/STIM_007.jpg
1169.089	0.764	correct	pointing	Trial2	pointing/STIM_008.jpg
1172.329	0.718	correct	pointing	Trial2	pointing/STIM_008.jpg
1176.054	0.792	correct	pointing	Trial2	pointing/STIM_008.jpg
1180.25	1.044	correct	pointing	Trial2	pointing/STIM_008.jpg
1184.958	0.991	correct	pointing	Trial2	pointing/STIM_008.jpg
1189.68	0.802	correct	pointing	Trial2	pointing/STIM_008.jpg
1194.41	0.764	correct	pointing	Trial2	pointing/STIM_009.jpg
1197.98	0.676	correct	pointing	Trial2	pointing/STIM_009.jpg
1202.219	1.017	correct	pointing	Trial2	pointing/STIM_009.jpg
1205.467	0.989	correct	pointing	Trial2	pointing/STIM_009.jpg
1209.458	0.788	correct	pointing	Trial2	pointing/STIM_009.jpg
1212.709	0.873	correct	pointing	Trial2	pointing/STIM_009.jpg
1217.535	0.704	correct	pointing	Trial2	pointing/STIM_010.jpg
1221.228	0.632	correct	pointing	Trial2	pointing/STIM_010.jpg
1225.029	0.928	correct	pointing	Trial2	pointing/STIM_010.jpg
1229.779	0.713	correct	pointing	Trial2	pointing/STIM_010.jpg
1233.941	1.01	correct	pointing	Trial2	pointing/STIM_010.jpg
1237.33	0.828	correct	pointing	Trial2	pointing/STIM_010.jpg
1241.949	0.649	correct	pointing	Trial2	pointing/STIM_011.jpg
1245.761	1.071	correct	pointing	Trial2	pointing/STIM_011.jpg
1250.689	1.029	correct	pointing	Trial2	pointing/STIM_011.jpg
1255.569	0.96	correct	pointing	Trial2	pointing/STIM_011.jpg
1259.796	0.973	correct	pointing	Trial2	pointing/STIM_011.jpg
1264.73	0.594	correct	pointing	Trial2	pointing/STIM_011.jpg
1268.288	1.072	incorrect	navigation	Trial3	navigation/STIM_000.jpg
1271.738	1.834	correct	navigation	Trial3	navigation/STIM_000.jpg
1275.816	1.613	correct	navigation	Trial3	navigation/STIM_000.jpg
1280.26	1.647	correct	navigation	Trial3	navigation/STIM_000.jpg
1284.413	1.636	correct	navigation	Trial3	navigation/STIM_000.jpg
1288.081	1.716	correct	navigation	Trial3	navigation/STIM_000.jpg
1293.611	2.352	correct	navigation	Trial3	navigation/STIM_001.jpg
1298.651	2.33	correct	navigation	Trial3	navigation/STIM_001.jpg
1303.574	1.895	correct	navigation	Trial3	navigation/STIM_001.jpg
1309.071	1.545	correct	navigation	Trial3	navigation/STIM_001.jpg
1313.249	1.143	correct	navigation	Trial3	navigation/STIM_001.jpg
1317.244	2.044	correct	navigation	Trial3	navigation/STIM_001.jpg
1322.381	2.235	correct	navigation	Trial3	navigation/STIM_002.jpg
1327.009	1.801	correct	navigation	Trial3	navigation/STIM_002.jpg
1332.046	2.393	correct	navigation	Trial3	navigation/STIM_002.jpg
1338.438	2.302	incorrect	navigation	Trial3	navigation/STIM_002.jpg
1344.525	1.685	correct	navigation	Trial3	navigation/STIM_002.jpg
1348.789	1.491	correct	navigation	Trial3	navigation/STIM_002.jpg
1353.561	2.256	correct	navigation	Trial3	navigation/STIM_003.jpg
1359.647	2.137	correct	navigation	Trial3	navigation/STIM_003.jpg
1364.897	1.816	correct	navigation	Trial3	navigation/STIM_003.jpg
1369.962	1.444	correct	navigation	Trial3	navigation/STIM_003.jpg
1373.471	1.607	correct	navigation	Trial3	navigation/STIM_003.jpg
1377.89	1.935	correct	navigation	Trial3	navigation/STIM_003.jpg
1383.469	2.43	incorrect	navigation	Trial3	navigation/STIM_004.jpg
1388.673	2.396	correct	navigation	Trial3	navigation/STIM_004.jpg
1393.505	1.345	correct	navigation	Trial3	navigation/STIM_004.jpg
1398.23	2.079	correct	navigation	Trial3	navigation/STIM_004.jpg
1403.955	1.944	correct	navigation	Trial3	navigation/STIM_004.jpg
1408.671	2.09	correct	navigation	Trial3	navigation/STIM_004.jpg
1414.447	1.728	correct	navigation	Trial3	navigation/STIM_005.jpg
1419.166	1.619	correct	navigation	Trial3	navigation/STIM_005.jpg
1424.247	1.43	correct	navigation	Trial3	navigation/STIM_005.jpg
1429.346	2.155	correct	navigation	Trial3	navigation/STIM_005.jpg
1434.216	1.884	correct	navigation	Trial3	navigation/STIM_005.jpg
1439.142	2.345	correct	navigation	Trial3	navigation/STIM_005.jpg
1444.957	2.274	correct	navigation	Trial3	navigation/STIM_006.jpg
1450.347	2.123	correct	navigation	Trial3	navigation/STIM_006.jpg
1455.471	2.169	correct	navigation	Trial3	navigation/STIM_006.jpg
1461.5	1.694	correct	navigation	Trial3	navigation/STIM_006.jpg
1466.072	2.468	correct	navigation	Trial3	navigation/STIM_006.jpg
1471.715	1.976	correct	navigation	Trial3	navigation/STIM_006.jpg
1475.969	1.183	correct	navigation	Trial3	navigation/STIM_007.jpg
1479.238	1.354	correct	navigation	Trial3	navigation/STIM_007.jpg
1483.94	1.581	correct	navigation	Trial3	navigation/STIM_007.jpg
1487.567	2.026	correct	navigation	Trial3	navigation/STIM_007.jpg
1491.635	2.208	correct	navigation	Trial3	navigation/STIM_007.jpg
1496.919	1.292	correct	navigation	Trial3	navigation/STIM_007.jpg
1501.11	1.377	correct	navigation	Trial3	navigation/STIM_008.jpg
1505.805	1.633	correct	navigation	Trial3	navigation/STIM_008.jpg
1510.106	1.879	correct	navigation	Trial3	navigation/STIM_008.jpg
1515.609	1.804	correct	navigation	Trial3	navigation/STIM_008.jpg
1521.041	1.754	correct	navigation	Trial3	navigation/STIM_008.jpg
1525.448	1.536	correct	navigation	Trial3	navigation/STIM_008.jpg
1529.204	1.658	correct	navigation	Trial3	navigation/STIM_009.jpg
1534.484	1.195	correct	navigation	Trial3	navigation/STIM_009.jpg
1539.32	1.421	correct	navigation	Trial3	navigation/STIM_009.jpg
1542.898	2.523	correct	navigation	Trial3	navigation/STIM_009.jpg
1547.783	1.16	correct	navigation	Trial3	navigation/STIM_009.jpg
1551.453	1.321	incorrect	navigation	Trial3	navigation/STIM_009.jpg
1555.621	1.485	correct	navigation	Trial3	navigation/STIM_010.jpg
1560.789	2.031	correct	navigation	Trial3	navigation/STIM_010.jpg
1565.126	2.506	correct	navigation	Trial3	navigation/STIM_010.jpg
1570.317	1.11	correct	navigation	Trial3	navigation/STIM_010.jpg
1573.798	2.42	correct	navigation	Trial3	navigation/STIM_010.jpg
1578.67	2.519	correct	navigation	Trial3	navigation/STIM_010.jpg
1584.906	1.836	incorrect	navigation	Trial3	navigation/STIM_011.jpg
1590.358	1.162	correct	navigation	Trial3	navigation/STIM_011.jpg
1594.624	1.973	correct	navigation	Trial3	navigation/STIM_011.jpg
1599.582	1.984	correct	navigation	Trial3	navigation/STIM_011.jpg
1603.58	1.881	correct	navigation	Trial3	navigation/STIM_011.jpg
1607.675	1.829	correct	navigation	Trial3	navigation/STIM_011.jpg
1611.816	0.654	correct	pointing	Trial3	pointing/STIM_000.jpg
1616.413	0.822	correct	pointing	Trial3	pointing/STIM_000.jpg
1620.431	0.988	correct	pointing	Trial3	pointing/STIM_000.jpg
1625.036	1.066	correct	pointing	Trial3	pointing/STIM_000.jpg
1628.668	0.646	correct	pointing	Trial3	pointing/STIM_000.jpg
1632.233	0.747	correct	pointing	Trial3	pointing/STIM_000.jpg
1636.049	0.788	correct	pointing	Trial3	pointing/STIM_001.jpg
1639.454	0.627	correct	pointing	Trial3	pointing/STIM_001.jpg
1642.968	0.923	correct	pointing	Trial3	pointing/STIM_001.jpg
1646.265	0.867	correct	pointing	Trial3	pointing/STIM_001.jpg
1651.067	0.841	correct	pointing	Trial3	pointing/STIM_001.jpg
1654.064	0.732	correct	pointing	Trial3	pointing/STIM_001.jpg
1656.806	0.721	correct	pointing	Trial3	pointing/STIM_002.jpg
1660.866	1.085	correct	pointing	Trial3	pointing/STIM_002.jpg
1665.059	0.917	correct	pointing	Trial3	pointing/STIM_002.jpg
1669.262	0.84	correct	pointing	Trial3	pointing/STIM_002.jpg
1673.124	1.01	incorrect	pointing	Trial3	pointing/STIM_002.jpg
1677.655	0.851	correct	pointing	Trial3	pointing/STIM_002.jpg
1681.628	0.851	correct	pointing	Trial3	pointing/STIM_003.jpg
1684.611	0.649	correct	pointing	Trial3	pointing/STIM_003.jpg
1687.336	1.058	correct	pointing	Trial3	pointing/STIM_003.jpg
1691.441	0.751	correct	pointing	Trial3	pointing/STIM_003.jpg
1694.821	0.816	correct	pointing	Trial3	pointing/STIM_003.jpg
1699.202	0.765	correct	pointing	Trial3	pointing/STIM_003.jpg
1702.659	0.685	correct	pointing	Trial3	pointing/STIM_004.jpg
1705.668	1.09	correct	pointing	Trial3	pointing/STIM_004.jpg
1708.913	0.696	correct	pointing	Trial3	pointing/STIM_004.jpg
1711.908	0.826	correct	pointing	Trial3	pointing/STIM_004.jpg
1715.726	1.057	incorrect	pointing	Trial3	pointing/STIM_004.jpg
1719.0	0.806	correct	pointing	Trial3	pointing/STIM_004.jpg
1722.14	0.945	incorrect	pointing	Trial3	pointing/STIM_005.jpg
1726.671	0.586	correct	pointing	Trial3	pointing/STIM_005.jpg
1729.289	0.924	correct	pointing	Trial3	pointing/STIM_005.jpg
1732.968	0.696	correct	pointing	Trial3	pointing/STIM_005.jpg
1736.666	1.029	correct	pointing	Trial3	pointing/STIM_005.jpg
1741.497	0.869	correct	pointing	Trial3	pointing/STIM_005.jpg
1745.945	0.781	correct	pointing	Trial3	pointing/STIM_006.jpg
1750.565	0.977	correct	pointing	Trial3	pointing/STIM_006.jpg
1755.127	0.791	correct	pointing	Trial3	pointing/STIM_006.jpg
1758.575	0.791	correct	pointing	Trial3	pointing/STIM_006.jpg
1762.869	0.839	correct	pointing	Trial3	pointing/STIM_006.jpg
1765.734	1.051	correct	pointing	Trial3	pointing/STIM_006.jpg
1769.799	0.699	correct	pointing	Trial3	pointing/STIM_007.jpg
1773.51	0.602	correct	pointing	Trial3	pointing/STIM_007.jpg
1777.274	0.657	correct	pointing	Trial3	pointing/STIM_007.jpg
1781.102	0.783	correct	pointing	Trial3	pointing/STIM_007.jpg
1785.746	1.064	correct	pointing	Trial3	pointing/STIM_007.jpg
1790.029	0.955	correct	pointing	Trial3	pointing/STIM_007.jpg
1793.421	0.582	correct	pointing	Trial3	pointing/STIM_008.jpg
1797.085	0.919	correct	pointing	Trial3	pointing/STIM_008.jpg
1800.16	0.971	correct	pointing	Trial3	pointing/STIM_008.jpg
1803.545	0.766	correct	pointing	Trial3	pointing/STIM_008.jpg
1807.606	0.993	correct	pointing	Trial3	pointing/STIM_008.jpg
1810.857	0.992	correct	pointing	Trial3	pointing/STIM_008.jpg
1815.161	0.623	correct	pointing	Trial3	pointing/STIM_009.jpg
1818.539	0.766	correct	pointing	Trial3	pointing/STIM_009.jpg
1822.58	0.807	correct	pointing	Trial3	pointing/STIM_009.jpg
1826.361	1.074	correct	pointing	Trial3	pointing/STIM_009.jpg
1829.746	0.802	correct	pointing	Trial3	pointing/STIM_009.jpg
1833.121	0.804	correct	pointing	Trial3	pointing/STIM_009.jpg
1837.092	0.781	correct	pointing	Trial3	pointing/STIM_010.jpg
1840.297	0.582	correct	pointing	Trial3	pointing/STIM_010.jpg
1844.233	0.743	correct	pointing	Trial3	pointing/STIM_010.jpg
1848.885	1.018	correct	pointing	Trial3	pointing/STIM_010.jpg
1852.64	1.002	correct	pointing	Trial3	pointing/STIM_010.jpg
1857.581	1.08	correct	pointing	Trial3	pointing/STIM_010.jpg
1862.252	1.021	correct	pointing	Trial3	pointing/STIM_011.jpg
1866.772	0.78	correct	pointing	Trial3	pointing/STIM_011.jpg
1871.29	0.69	correct	pointing	Trial3	pointing/STIM_011.jpg
1875.631	0.981	correct	pointing	Trial3	pointing/STIM_011.jpg
1880.163	0.66	correct	pointing	Trial3	pointing/STIM_011.jpg
1883.503	0.845	correct	pointing	Trial3	pointing/STIM_011.jpg
