onset	duration	accuracy	trial_type	learning_stage	stimulus
0.0	0.88	correct	incongruent	Block1	incongruent/STIM_000.jpg
4.304	0.682	correct	incongruent	Block1	incongruent/STIM_000.jpg
7.306	0.59	correct	incongruent	Block1	incongruent/STIM_000.jpg
9.991	1.138	correct	incongruent	Block1	incongruent/STIM_000.jpg
13.861	0.732	correct	incongruent	Block1	incongruent/STIM_000.jpg
17.365	0.651	correct	incongruent	Block1	incongruent/STIM_001.jpg
20.98	0.854	correct	incongruent	Block1	incongruent/STIM_001.jpg
23.981	0.812	correct	incongruent	Block1	incongruent/STIM_001.jpg
28.233	0.856	correct	incongruent	Block1	incongruent/STIM_001.jpg
32.949	0.655	incorrect	incongruent	Block1	incongruent/STIM_001.jpg
36.22	0.736	correct	incongruent	Block1	incongruent/STIM_002.jpg
39.659	0.872	correct	incongruent	Block1	incongruent/STIM_002.jpg
43.565	1.076	correct	incongruent	Block1	incongruent/STIM_002.jpg
48.448	1.013	correct	incongruent	Block1	incongruent/STIM_002.jpg
52.569	0.564	correct	incongruent	Block1	incongruent/STIM_002.jpg
56.045	1.27	correct	incongruent	Block1	incongruent/STIM_003.jpg
59.897	1.123	correct	incongruent	Block1	incongruent/STIM_003.jpg
63.598	1.235	correct	incongruent	Block1	incongruent/STIM_003.jpg
68.288	0.821	correct	incongruent	Block1	incongruent/STIM_003.jpg
72.305	0.64	correct	incongruent	Block1	incongruent/STIM_003.jpg
75.256	1.162	correct	incongruent	Block1	incongruent/STIM_004.jpg
78.823	1.06	incorrect	incongruent	Block1	incongruent/STIM_004.jpg
83.188	0.96	correct	incongruent	Block1	incongruent/STIM_004.jpg
87.555	1.166	correct	incongruent	Block1	incongruent/STIM_004.jpg
91.219	0.902	correct	incongruent	Block1	incongruent/STIM_004.jpg
94.972	0.878	correct	incongruent	Block1	incongruent/STIM_005.jpg
98.069	0.917	correct	incongruent	Block1	incongruent/STIM_005.jpg
102.66	0.873	correct	incongruent	Block1	incongruent/STIM_005.jpg
107.416	1.027	correct	incongruent	Block1	incongruent/STIM_005.jpg
112.2	0.736	correct	incongruent	Block1	incongruent/STIM_005.jpg
116.285	1.179	correct	incongruent	Block1	incongruent/STIM_006.jpg
120.534	0.927	correct	incongruent	Block1	incongruent/STIM_006.jpg
124.175	1.007	correct	incongruent	Block1	incongruent/STIM_006.jpg
128.379	1.028	correct	incongruent	Block1	incongruent/STIM_006.jpg
133.247	0.708	correct	incongruent	Block1	incongruent/STIM_006.jpg
136.655	0.753	correct	incongruent	Block1	incongruent/STIM_007.jpg
140.65	1.089	correct	incongruent	Block1	incongruent/STIM_007.jpg
144.701	0.618	correct	incongruent	Block1	incongruent/STIM_007.jpg
147.39	0.897	correct	incongruent	Block1	incongruent/STIM_007.jpg
150.902	0.839	correct	incongruent	Block1	incongruent/STIM_007.jpg
154.117	0.706	correct	incongruent	Block1	incongruent/STIM_008.jpg
158.285	0.614	correct	incongruent	Block1	incongruent/STIM_008.jpg
161.886	0.835	correct	incongruent	Block1	incongruent/STIM_008.jpg
165.045	0.845	incorrect	incongruent	Block1	incongruent/STIM_008.jpg
169.886	0.98	correct	incongruent	Block1	incongruent/STIM_008.jpg
174.874	0.881	correct	incongruent	Block1	incongruent/STIM_009.jpg
178.783	0.946	correct	incongruent	Block1	incongruent/STIM_009.jpg
182.02	0.943	correct	incongruent	Block1	incongruent/STIM_009.jpg
186.943	0.811	correct	incongruent	Block1	incongruent/STIM_009.jpg
191.562	0.549	correct	incongruent	Block1	incongruent/STIM_009.jpg
195.929	0.963	incorrect	incongruent	Block1	incongruent/STIM_010.jpg
200.242	0.72	correct	incongruent	Block1	incongruent/STIM_010.jpg
204.346	1.202	correct	incongruent	Block1	incongruent/STIM_010.jpg
208.885	0.874	correct	incongruent	Block1	incongruent/STIM_010.jpg
212.644	0.746	correct	incongruent	Block1	incongruent/STIM_010.jpg
215.556	1.005	correct	incongruent	Block1	incongruent/STIM_011.jpg
218.887	1.128	correct	incongruent	Block1	incongruent/STIM_011.jpg
222.879	0.769	correct	incongruent	Block1	incongruent/STIM_011.jpg
227.053	0.851	correct	incongruent	Block1	incongruent/STIM_011.jpg
230.115	0.776	correct	incongruent	Block1	incongruent/STIM_011.jpg
234.561	0.666	incorrect	incongruent	Block1	incongruent/STIM_012.jpg
238.072	1.272	correct	incongruent	Block1	incongruent/STIM_012.jpg
241.95	0.89	correct	incongruent	Block1	incongruent/STIM_012.jpg
246.541	0.582	correct	incongruent	Block1	incongruent/STIM_012.jpg
250.086	0.801	correct	incongruent	Block1	incongruent/STIM_012.jpg
254.436	0.964	incorrect	incongruent	Block1	incongruent/STIM_013.jpg
258.155	1.216	correct	incongruent	Block1	incongruent/STIM_013.jpg
262.158	0.859	correct	incongruent	Block1	incongruent/STIM_013.jpg
265.818	0.57	incorrect	incongruent	Block1	incongruent/STIM_013.jpg
268.925	0.901	correct	incongruent	Block1	incongruent/STIM_013.jpg
272.465	1.241	correct	incongruent	Block1	incongruent/STIM_014.jpg
277.609	0.736	correct	incongruent	Block1	incongruent/STIM_014.jpg
281.292	0.828	correct	incongruent	Block1	incongruent/STIM_014.jpg
286.006	0.9	correct	incongruent	Block1	incongruent/STIM_014.jpg
290.94	0.734	correct	incongruent	Block1	incongruent/STIM_014.jpg
293.921	0.934	correct	incongruent	Block1	incongruent/STIM_015.jpg
297.922	0.98	correct	incongruent	Block1	incongruent/STIM_015.jpg
301.443	0.61	correct	incongruent	Block1	incongruent/STIM_015.jpg
305.704	0.768	correct	incongruent	Block1	incongruent/STIM_015.jpg
309.823	0.7	incorrect	incongruent	Block1	incongruent/STIM_015.jpg
312.751	0.818	correct	incongruent	Block1	incongruent/STIM_016.jpg
316.338	0.952	correct	incongruent	Block1	incongruent/STIM_016.jpg
319.788	1.132	incorrect	incongruent	Block1	incongruent/STIM_016.jpg
324.572	0.961	correct	incongruent	Block1	incongruent/STIM_016.jpg
327.755	0.653	correct	incongruent	Block1	incongruent/STIM_016.jpg
331.964	0.955	incorrect	incongruent	Block1	incongruent/STIM_017.jpg
336.247	0.92	correct	incongruent	Block1	incongruent/STIM_017.jpg
340.609	0.816	correct	incongruent	Block1	incongruent/STIM_017.jpg
345.291	0.634	correct	incongruent	Block1	incongruent/STIM_017.jpg
349.478	0.636	incorrect	incongruent	Block1	incongruent/STIM_017.jpg
353.667	0.905	correct	incongruent	Block1	incongruent/STIM_018.jpg
358.603	1.193	correct	incongruent	Block1	incongruent/STIM_018.jpg
362.04	0.588	correct	incongruent	Block1	incongruent/STIM_018.jpg
366.644	0.828	correct	incongruent	Block1	incongruent/STIM_018.jpg
371.3	0.694	correct	incongruent	Block1	incongruent/STIM_018.jpg
375.636	0.766	correct	incongruent	Block1	incongruent/STIM_019.jpg
379.956	1.278	correct	incongruent	Block1	incongruent/STIM_019.jpg
385.213	1.005	correct	incongruent	Block1	incongruent/STIM_019.jpg
388.337	1.033	correct	incongruent	Block1	incongruent/STIM_019.jpg
392.994	0.521	correct	incongruent	Block1	incongruent/STIM_019.jpg
395.584	1.222	correct	incongruent	Block1	incongruent/STIM_020.jpg
399.875	1.263	correct	incongruent	Block1	incongruent/STIM_020.jpg
403.586	1.197	incorrect	incongruent	Block1	incongruent/STIM_020.jpg
407.316	0.682	incorrect	incongruent	Block1	incongruent/STIM_020.jpg
410.148	0.529	correct	incongruent	Block1	incongruent/STIM_020.jpg
412.909	0.875	correct	incongruent	Block1	incongruent/STIM_021.jpg
416.86	0.621	correct	incongruent	Block1	incongruent/STIM_021.jpg
420.791	0.837	correct	incongruent	Block1	incongruent/STIM_021.jpg
425.409	0.875	correct	incongruent	Block1	incongruent/STIM_021.jpg
429.441	0.614	correct	incongruent	Block1	incongruent/STIM_021.jpg
432.288	1.223	correct	incongruent	Block1	incongruent/STIM_022.jpg
437.059	0.912	correct	incongruent	Block1	incongruent/STIM_022.jpg
440.771	0.63	correct	incongruent	Block1	incongruent/STIM_022.jpg
443.67	1.037	correct	incongruent	Block1	incongruent/STIM_022.jpg
447.253	0.617	correct	incongruent	Block1	incongruent/STIM_022.jpg
450.63	1.046	correct	incongruent	Block1	incongruent/STIM_023.jpg
455.261	0.908	correct	incongruent	Block1	incongruent/STIM_023.jpg
459.93	0.783	correct	incongruent	Block1	incongruent/STIM_023.jpg
463.263	0.728	correct	incongruent	Block1	incongruent/STIM_023.jpg
467.78	1.036	correct	incongruent	Block1	incongruent/STIM_023.jpg
472.32	0.895	correct	incongruent	Block1	incongruent/STIM_024.jpg
477.232	1.232	correct	incongruent	Block1	incongruent/STIM_024.jpg
481.788	1.045	correct	incongruent	Block1	incongruent/STIM_024.jpg
486.182	0.674	correct	incongruent	Block1	incongruent/STIM_024.jpg
489.091	1.059	correct	incongruent	Block1	incongruent/STIM_024.jpg
493.869	0.721	incorrect	incongruent	Block1	incongruent/STIM_025.jpg
497.735	0.886	correct	incongruent	Block1	incongruent/STIM_025.jpg
501.554	0.929	correct	incongruent	Block1	incongruent/STIM_025.jpg
505.398	0.92	correct	incongruent	Block1	incongruent/STIM_025.jpg
510.162	1.075	correct	incongruent	Block1	incongruent/STIM_025.jpg
514.105	1.211	correct	incongruent	Block1	incongruent/STIM_026.jpg
518.649	0.684	correct	incongruent	Block1	incongruent/STIM_026.jpg
523.139	1.054	correct	incongruent	Block1	incongruent/STIM_026.jpg
527.531	0.671	correct	incongruent	Block1	incongruent/STIM_026.jpg
531.128	0.918	correct	incongruent	Block1	incongruent/STIM_026.jpg
535.065	1.128	correct	incongruent	Block1	incongruent/STIM_027.jpg
540.156	1.004	correct	incongruent	Block1	incongruent/STIM_027.jpg
544.68	1.138	correct	incongruent	Block1	incongruent/STIM_027.jpg
548.178	1.126	incorrect	incongruent	Block1	incongruent/STIM_027.jpg
551.471	0.795	correct	incongruent	Block1	incongruent/STIM_027.jpg
556.317	1.367	correct	incongruent	Block1	incongruent/STIM_028.jpg
560.707	0.895	correct	incongruent	Block1	incongruent/STIM_028.jpg
564.73	0.903	correct	incongruent	Block1	incongruent/STIM_028.jpg
569.423	1.15	correct	incongruent	Block1	incongruent/STIM_028.jpg
574.401	1.076	correct	incongruent	Block1	incongruent/STIM_028.jpg
578.625	1.266	correct	incongruent	Block1	incongruent/STIM_029.jpg
582.72	0.821	correct	incongruent	Block1	incongruent/STIM_029.jpg
586.267	1.196	correct	incongruent	Block1	incongruent/STIM_029.jpg
591.497	1.071	correct	incongruent	Block1	incongruent/STIM_029.jpg
596.403	0.802	incorrect	incongruent	Block1	incongruent/STIM_029.jpg
600.26	0.618	correct	congruent	Block1	congruent/STIM_000.jpg
603.956	0.625	incorrect	congruent	Block1	congruent/STIM_000.jpg
607.717	0.715	correct	congruent	Block1	congruent/STIM_000.jpg
611.303	0.497	correct	congruent	Block1	congruent/STIM_000.jpg
614.154	0.634	correct	congruent	Block1	congruent/STIM_000.jpg
618.735	0.749	correct	congruent	Block1	congruent/STIM_001.jpg
622.086	0.547	correct	congruent	Block1	congruent/STIM_001.jpg
624.946	0.743	correct	congruent	Block1	congruent/STIM_001.jpg
629.206	0.8	incorrect	congruent	Block1	congruent/STIM_001.jpg
632.847	0.536	correct	congruent	Block1	congruent/STIM_001.jpg
637.024	0.731	correct	congruent	Block1	congruent/STIM_002.jpg
641.008	0.813	correct	congruent	Block1	congruent/STIM_002.jpg
645.343	0.561	correct	congruent	Block1	congruent/STIM_002.jpg
648.945	0.745	correct	congruent	Block1	congruent/STIM_002.jpg
652.374	0.544	correct	congruent	Block1	congruent/STIM_002.jpg
655.686	0.485	correct	congruent	Block1	congruent/STIM_003.jpg
659.863	0.796	correct	congruent	Block1	congruent/STIM_003.jpg
663.368	0.506	correct	congruent	Block1	congruent/STIM_003.jpg
667.232	0.544	correct	congruent	Block1	congruent/STIM_003.jpg
670.387	0.591	correct	congruent	Block1	congruent/STIM_003.jpg
674.287	0.567	correct	congruent	Block1	congruent/STIM_004.jpg
677.363	0.804	incorrect	congruent	Block1	congruent/STIM_004.jpg
681.603	0.617	correct	congruent	Block1	congruent/STIM_004.jpg
685.454	0.583	correct	congruent	Block1	congruent/STIM_004.jpg
689.902	0.734	correct	congruent	Block1	congruent/STIM_004.jpg
692.756	0.525	correct	congruent	Block1	congruent/STIM_005.jpg
695.714	0.469	correct	congruent	Block1	congruent/STIM_005.jpg
700.017	0.517	correct	congruent	Block1	congruent/STIM_005.jpg
703.653	0.635	correct	congruent	Block1	congruent/STIM_005.jpg
708.181	0.463	correct	congruent	Block1	congruent/STIM_005.jpg
712.548	0.742	incorrect	congruent	Block1	congruent/STIM_006.jpg
717.322	0.636	correct	congruent	Block1	congruent/STIM_006.jpg
720.44	0.802	correct	congruent	Block1	congruent/STIM_006.jpg
724.835	0.606	correct	congruent	Block1	congruent/STIM_006.jpg
729.473	0.573	correct	congruent	Block1	congruent/STIM_006.jpg
732.356	0.805	incorrect	congruent	Block1	congruent/STIM_007.jpg
736.916	0.692	correct	congruent	Block1	congruent/STIM_007.jpg
740.66	0.48	correct	congruent	Block1	congruent/STIM_007.jpg
743.418	0.644	correct	congruent	Block1	congruent/STIM_007.jpg
747.454	0.635	correct	congruent	Block1	congruent/STIM_007.jpg
751.478	0.464	correct	congruent	Block1	congruent/STIM_008.jpg
755.68	0.729	correct	congruent	Block1	congruent/STIM_008.jpg
760.428	0.764	correct	congruent	Block1	congruent/STIM_008.jpg
763.816	0.566	correct	congruent	Block1	congruent/STIM_008.jpg
766.698	0.585	correct	congruent	Block1	congruent/STIM_008.jpg
769.703	0.767	correct	congruent	Block1	congruent/STIM_009.jpg
773.957	0.769	correct	congruent	Block1	congruent/STIM_009.jpg
778.259	0.804	correct	congruent	Block1	congruent/STIM_009.jpg
782.425	0.781	incorrect	congruent	Block1	congruent/STIM_009.jpg
785.792	0.475	correct	congruent	Block1	congruent/STIM_009.jpg
788.963	0.679	correct	congruent	Block1	congruent/STIM_010.jpg
791.874	0.706	correct	congruent	Block1	congruent/STIM_010.jpg
794.725	0.522	correct	congruent	Block1	congruent/STIM_010.jpg
798.709	0.666	correct	congruent	Block1	congruent/STIM_010.jpg
801.825	0.634	correct	congruent	Block1	congruent/STIM_010.jpg
804.836	0.719	correct	congruent	Block1	congruent/STIM_011.jpg
808.414	0.556	correct	congruent	Block1	congruent/STIM_011.jpg
812.583	0.766	correct	congruent	Block1	congruent/STIM_011.jpg
815.653	0.774	correct	congruent	Block1	congruent/STIM_011.jpg
820.342	0.626	correct	congruent	Block1	congruent/STIM_011.jpg
823.854	0.613	correct	congruent	Block1	congruent/STIM_012.jpg
827.639	0.797	correct	congruent	Block1	congruent/STIM_012.jpg
832.272	0.758	correct	congruent	Block1	congruent/STIM_012.jpg
837.075	0.548	correct	congruent	Block1	congruent/STIM_012.jpg
840.575	0.648	correct	congruent	Block1	congruent/STIM_012.jpg
843.943	0.536	correct	congruent	Block1	congruent/STIM_013.jpg
847.774	0.632	correct	congruent	Block1	congruent/STIM_013.jpg
851.354	0.734	correct	congruent	Block1	congruent/STIM_013.jpg
855.486	0.624	correct	congruent	Block1	congruent/STIM_013.jpg
859.231	0.733	correct	congruent	Block1	congruent/STIM_013.jpg
863.366	0.595	correct	congruent	Block1	congruent/STIM_014.jpg
866.349	0.485	correct	congruent	Block1	congruent/STIM_014.jpg
869.023	0.813	correct	congruent	Block1	congruent/STIM_014.jpg
872.626	0.508	correct	congruent	Block1	congruent/STIM_014.jpg
876.317	0.543	correct	congruent	Block1	congruent/STIM_014.jpg
880.847	0.587	correct	congruent	Block1	congruent/STIM_015.jpg
883.724	0.512	correct	congruent	Block1	congruent/STIM_015.jpg
887.214	0.761	correct	congruent	Block1	congruent/STIM_015.jpg
890.129	0.748	correct	congruent	Block1	congruent/STIM_015.jpg
894.317	0.672	correct	congruent	Block1	congruent/STIM_015.jpg
897.96	0.621	correct	congruent	Block1	congruent/STIM_016.jpg
902.476	0.57	correct	congruent	Block1	congruent/STIM_016.jpg
907.098	0.738	correct	congruent	Block1	congruent/STIM_016.jpg
911.048	0.674	correct	congruent	Block1	congruent/STIM_016.jpg
914.518	0.555	correct	congruent	Block1	congruent/STIM_016.jpg
918.229	0.602	correct	congruent	Block1	congruent/STIM_017.jpg
922.005	0.666	correct	congruent	Block1	congruent/STIM_017.jpg
926.721	0.755	correct	congruent	Block1	congruent/STIM_017.jpg
930.207	0.602	correct	congruent	Block1	congruent/STIM_017.jpg
933.667	0.543	correct	congruent	Block1	congruent/STIM_017.jpg
937.97	0.655	correct	congruent	Block1	congruent/STIM_018.jpg
941.824	0.686	incorrect	congruent	Block1	congruent/STIM_018.jpg
944.609	0.733	correct	congruent	Block1	congruent/STIM_018.jpg
948.776	0.526	correct	congruent	Block1	congruent/STIM_018.jpg
952.224	0.711	correct	congruent	Block1	congruent/STIM_018.jpg
955.605	0.817	correct	congruent	Block1	congruent/STIM_019.jpg
959.479	0.569	correct	congruent	Block1	congruent/STIM_019.jpg
963.31	0.693	correct	congruent	Block1	congruent/STIM_019.jpg
966.919	0.805	correct	congruent	Block1	congruent/STIM_019.jpg
970.229	0.569	incorrect	congruent	Block1	congruent/STIM_019.jpg
974.28	0.476	correct	congruent	Block1	congruent/STIM_020.jpg
977.104	0.668	correct	congruent	Block1	congruent/STIM_020.jpg
980.483	0.773	correct	congruent	Block1	congruent/STIM_020.jpg
984.275	0.708	correct	congruent	Block1	congruent/STIM_020.jpg
988.525	0.693	correct	congruent	Block1	congruent/STIM_020.jpg
992.316	0.663	correct	congruent	Block1	congruent/STIM_021.jpg
996.52	0.655	correct	congruent	Block1	congruent/STIM_021.jpg
1001.233	0.486	correct	congruent	Block1	congruent/STIM_021.jpg
1005.668	0.685	correct	congruent	Block1	congruent/STIM_021.jpg
1010.171	0.687	correct	congruent	Block1	congruent/STIM_021.jpg
1014.287	0.712	correct	congruent	Block1	congruent/STIM_022.jpg
1017.936	0.601	correct	congruent	Block1	congruent/STIM_022.jpg
1022.096	0.584	correct	congruent	Block1	congruent/STIM_022.jpg
1026.623	0.696	correct	congruent	Block1	congruent/STIM_022.jpg
1029.972	0.68	incorrect	congruent	Block1	congruent/STIM_022.jpg
1034.635	0.745	correct	congruent	Block1	congruent/STIM_023.jpg
1038.889	0.5	correct	congruent	Block1	congruent/STIM_023.jpg
1042.183	0.723	correct	congruent	Block1	congruent/STIM_023.jpg
1046.183	0.641	correct	congruent	Block1	congruent/STIM_023.jpg
1048.966	0.516	correct	congruent	Block1	congruent/STIM_023.jpg
1051.645	0.653	correct	congruent	Block1	congruent/STIM_024.jpg
1055.017	0.745	correct	congruent	Block1	congruent/STIM_024.jpg
1059.609	0.459	correct	congruent	Block1	congruent/STIM_024.jpg
1062.702	0.525	correct	congruent	Block1	congruent/STIM_024.jpg
1067.12	0.74	correct	congruent	Block1	congruent/STIM_024.jpg
1071.109	0.46	correct	congruent	Block1	congruent/STIM_025.jpg
1075.326	0.615	correct	congruent	Block1	congruent/STIM_025.jpg
1078.849	0.813	correct	congruent	Block1	congruent/STIM_025.jpg
1083.529	0.682	correct	congruent	Block1	congruent/STIM_025.jpg
1086.975	0.545	correct	congruent	Block1	congruent/STIM_025.jpg
1089.66	0.632	correct	congruent	Block1	congruent/STIM_026.jpg
1093.657	0.493	correct	congruent	Block1	congruent/STIM_026.jpg
1096.626	0.524	incorrect	congruent	Block1	congruent/STIM_026.jpg
1100.999	0.541	correct	congruent	Block1	congruent/STIM_026.jpg
1103.663	0.781	incorrect	congruent	Block1	congruent/STIM_026.jpg
1107.405	0.504	correct	congruent	Block1	congruent/STIM_027.jpg
1111.065	0.531	correct	congruent	Block1	congruent/STIM_027.jpg
1115.461	0.796	correct	congruent	Block1	congruent/STIM_027.jpg
1119.989	0.68	correct	congruent	Block1	congruent/STIM_027.jpg
1123.053	0.643	correct	congruent	Block1	congruent/STIM_027.jpg
1126.02	0.686	correct	congruent	Block1	congruent/STIM_028.jpg
1128.774	0.681	correct	congruent	Block1	congruent/STIM_028.jpg
1132.75	0.491	correct	congruent	Block1	congruent/STIM_028.jpg
1136.717	0.657	correct	congruent	Block1	congruent/STIM_028.jpg
1140.73	0.645	correct	congruent	Block1	congruent/STIM_028.jpg
1144.973	0.484	correct	congruent	Block1	congruent/STIM_029.jpg
1148.234	0.495	correct	congruent	Block1	congruent/STIM_029.jpg
1152.505	0.489	correct	congruent	Block1	congruent/STIM_029.jpg
1156.687	0.782	correct	congruent	Block1	congruent/STIM_029.jpg
1160.568	0.744	correct	congruent	Block1	congruent/STIM_029.jpg
1163.6	0.902	correct	incongruent	Block2	incongruent/STIM_000.jpg
1167.612	0.793	correct	incongruent	Block2	incongruent/STIM_000.jpg
1171.445	0.699	correct	incongruent	Block2	incongruent/STIM_000.jpg
1175.488	0.738	correct	incongruent	Block2	incongruent/STIM_000.jpg
1178.631	0.477	correct	incongruent	Block2	incongruent/STIM_000.jpg
1181.798	1.096	correct	incongruent	Block2	incongruent/STIM_001.jpg
1185.578	0.747	correct	incongruent	Block2	incongruent/STIM_001.jpg
1188.723	0.972	correct	incongruent	Block2	incongruent/STIM_001.jpg
1193.015	0.74	correct	incongruent	Block2	incongruent/STIM_001.jpg
1196.472	0.95	correct	incongruent	Block2	incongruent/STIM_001.jpg
1199.645	1.136	correct	incongruent	Block2	incongruent/STIM_002.jpg
1203.895	0.63	correct	incongruent	Block2	incongruent/STIM_002.jpg
1206.957	1.009	correct	incongruent	Block2	incongruent/STIM_002.jpg
1210.676	0.796	correct	incongruent	Block2	incongruent/STIM_002.jpg
1214.055	0.5	correct	incongruent	Block2	incongruent/STIM_002.jpg
1216.756	0.87	correct	incongruent	Block2	incongruent/STIM_003.jpg
1220.457	0.528	correct	incongruent	Block2	incongruent/STIM_003.jpg
1223.86	0.662	correct	incongruent	Block2	incongruent/STIM_003.jpg
1226.722	0.942	correct	incongruent	Block2	incongruent/STIM_003.jpg
1231.513	0.924	correct	incongruent	Block2	incongruent/STIM_003.jpg
1236.355	0.644	correct	incongruent	Block2	incongruent/STIM_004.jpg
1240.029	1.026	correct	incongruent	Block2	incongruent/STIM_004.jpg
1244.647	0.644	correct	incongruent	Block2	incongruent/STIM_004.jpg
1248.674	0.491	correct	incongruent	Block2	incongruent/STIM_004.jpg
1252.761	0.516	correct	incongruent	Block2	incongruent/STIM_004.jpg
1256.236	0.841	correct	incongruent	Block2	incongruent/STIM_005.jpg
1259.558	0.755	correct	incongruent	Block2	incongruent/STIM_005.jpg
1263.397	0.783	correct	incongruent	Block2	incongruent/STIM_005.jpg
1267.512	0.509	correct	incongruent	Block2	incongruent/STIM_005.jpg
1271.071	0.765	correct	incongruent	Block2	incongruent/STIM_005.jpg
1274.518	0.665	correct	incongruent	Block2	incongruent/STIM_006.jpg
1277.366	0.642	correct	incongruent	Block2	incongruent/STIM_006.jpg
1280.168	0.485	correct	incongruent	Block2	incongruent/STIM_006.jpg
1283.914	0.777	correct	incongruent	Block2	incongruent/STIM_006.jpg
1288.736	0.624	correct	incongruent	Block2	incongruent/STIM_006.jpg
1292.557	0.7	incorrect	incongruent	Block2	incongruent/STIM_007.jpg
1296.074	0.66	correct	incongruent	Block2	incongruent/STIM_007.jpg
1299.104	0.495	correct	incongruent	Block2	incongruent/STIM_007.jpg
1301.973	0.809	correct	incongruent	Block2	incongruent/STIM_007.jpg
1306.635	0.508	correct	incongruent	Block2	incongruent/STIM_007.jpg
1309.454	0.678	correct	incongruent	Block2	incongruent/STIM_008.jpg
1313.97	1.011	correct	incongruent	Block2	incongruent/STIM_008.jpg
1317.996	0.863	correct	incongruent	Block2	incongruent/STIM_008.jpg
1320.963	0.715	correct	incongruent	Block2	incongruent/STIM_008.jpg
1325.006	0.593	correct	incongruent	Block2	incongruent/STIM_008.jpg
1329.085	0.811	correct	incongruent	Block2	incongruent/STIM_009.jpg
1333.645	0.851	correct	incongruent	Block2	incongruent/STIM_009.jpg
1338.023	0.901	correct	incongruent	Block2	incongruent/STIM_009.jpg
1341.327	0.805	correct	incongruent	Block2	incongruent/STIM_009.jpg
1346.058	0.574	correct	incongruent	Block2	incongruent/STIM_009.jpg
1350.138	0.696	correct	incongruent	Block2	incongruent/STIM_010.jpg
1353.905	0.974	correct	incongruent	Block2	incongruent/STIM_010.jpg
1357.672	0.514	correct	incongruent	Block2	incongruent/STIM_010.jpg
1360.854	0.877	correct	incongruent	Block2	incongruent/STIM_010.jpg
1365.11	0.523	correct	incongruent	Block2	incongruent/STIM_010.jpg
1369.536	0.956	correct	incongruent	Block2	incongruent/STIM_011.jpg
1372.929	0.565	correct	incongruent	Block2	incongruent/STIM_011.jpg
1376.328	0.874	correct	incongruent	Block2	incongruent/STIM_011.jpg
1380.247	0.64	correct	incongruent	Block2	incongruent/STIM_011.jpg
1383.163	0.661	correct	incongruent	Block2	incongruent/STIM_011.jpg
1387.802	1.134	correct	incongruent	Block2	incongruent/STIM_012.jpg
1392.139	0.677	correct	incongruent	Block2	incongruent/STIM_012.jpg
1396.157	0.805	correct	incongruent	Block2	incongruent/STIM_012.jpg
1399.959	0.894	correct	incongruent	Block2	incongruent/STIM_012.jpg
1404.017	0.521	correct	incongruent	Block2	incongruent/STIM_012.jpg
1407.573	1.041	correct	incongruent	Block2	incongruent/STIM_013.jpg
1412.536	0.8	correct	incongruent	Block2	incongruent/STIM_013.jpg
1416.734	0.745	correct	incongruent	Block2	incongruent/STIM_013.jpg
1420.249	0.471	correct	incongruent	Block2	incongruent/STIM_013.jpg
1424.555	0.474	correct	incongruent	Block2	incongruent/STIM_013.jpg
1427.082	1.08	correct	incongruent	Block2	incongruent/STIM_014.jpg
1430.317	0.531	correct	incongruent	Block2	incongruent/STIM_014.jpg
1434.706	0.694	correct	incongruent	Block2	incongruent/STIM_014.jpg
1437.511	0.579	correct	incongruent	Block2	incongruent/STIM_014.jpg
1441.19	0.599	correct	incongruent	Block2	incongruent/STIM_014.jpg
1445.591	0.618	correct	incongruent	Block2	incongruent/STIM_015.jpg
1448.78	0.994	correct	incongruent	Block2	incongruent/STIM_015.jpg
1453.261	0.976	correct	incongruent	Block2	incongruent/STIM_015.jpg
1456.997	0.734	correct	incongruent	Block2	incongruent/STIM_015.jpg
1460.686	0.76	correct	incongruent	Block2	incongruent/STIM_015.jpg
1464.74	0.684	correct	incongruent	Block2	incongruent/STIM_016.jpg
1467.55	0.664	correct	incongruent	Block2	incongruent/STIM_016.jpg
1470.425	0.581	correct	incongruent	Block2	incongruent/STIM_016.jpg
1473.203	0.8	correct	incongruent	Block2	incongruent/STIM_016.jpg
1477.301	0.557	correct	incongruent	Block2	incongruent/STIM_016.jpg
1481.402	0.749	incorrect	incongruent	Block2	incongruent/STIM_017.jpg
1484.891	0.671	correct	incongruent	Block2	incongruent/STIM_017.jpg
1487.655	0.794	correct	incongruent	Block2	incongruent/STIM_017.jpg
1492.135	0.507	correct	incongruent	Block2	incongruent/STIM_017.jpg
1495.734	0.455	correct	incongruent	Block2	incongruent/STIM_017.jpg
1499.226	0.876	correct	incongruent	Block2	incongruent/STIM_018.jpg
1503.575	0.994	correct	incongruent	Block2	incongruent/STIM_018.jpg
1507.6	0.732	correct	incongruent	Block2	incongruent/STIM_018.jpg
1511.508	0.776	correct	incongruent	Block2	incongruent/STIM_018.jpg
1515.047	0.613	correct	incongruent	Block2	incongruent/STIM_018.jpg
1518.165	0.648	correct	incongruent	Block2	incongruent/STIM_019.jpg
1521.021	0.733	correct	incongruent	Block2	incongruent/STIM_019.jpg
1524.325	0.755	correct	incongruent	Block2	incongruent/STIM_019.jpg
1527.847	0.779	correct	incongruent	Block2	incongruent/STIM_019.jpg
1532.085	0.782	correct	incongruent	Block2	incongruent/STIM_019.jpg
1536.354	0.961	correct	incongruent	Block2	incongruent/STIM_020.jpg
1540.893	0.797	correct	incongruent	Block2	incongruent/STIM_020.jpg
1545.563	0.906	incorrect	incongruent	Block2	incongruent/STIM_020.jpg
1550.294	0.527	correct	incongruent	Block2	incongruent/STIM_020.jpg
1553.594	0.878	correct	incongruent	Block2	incongruent/STIM_020.jpg
1557.914	0.875	correct	incongruent	Block2	incongruent/STIM_021.jpg
1562.441	0.973	correct	incongruent	Block2	incongruent/STIM_021.jpg
1566.908	1.022	correct	incongruent	Block2	incongruent/STIM_021.jpg
1570.934	0.679	correct	incongruent	Block2	incongruent/STIM_021.jpg
1575.526	0.899	correct	incongruent	Block2	incongruent/STIM_021.jpg
1579.94	0.883	incorrect	incongruent	Block2	incongruent/STIM_022.jpg
1583.328	0.646	correct	incongruent	Block2	incongruent/STIM_022.jpg
1586.863	0.592	correct	incongruent	Block2	incongruent/STIM_022.jpg
1590.431	0.569	correct	incongruent	Block2	incongruent/STIM_022.jpg
1594.108	0.515	correct	incongruent	Block2	incongruent/STIM_022.jpg
1598.426	0.843	correct	incongruent	Block2	incongruent/STIM_023.jpg
1601.713	0.983	correct	incongruent	Block2	incongruent/STIM_023.jpg
1605.736	0.878	correct	incongruent	Block2	incongruent/STIM_023.jpg
1609.532	0.761	correct	incongruent	Block2	incongruent/STIM_023.jpg
1614.329	0.576	correct	incongruent	Block2	incongruent/STIM_023.jpg
1618.88	0.814	correct	incongruent	Block2	incongruent/STIM_024.jpg
1622.186	0.685	correct	incongruent	Block2	incongruent/STIM_024.jpg
1625.627	0.935	correct	incongruent	Block2	incongruent/STIM_024.jpg
1629.859	0.889	correct	incongruent	Block2	incongruent/STIM_024.jpg
1634.565	0.882	correct	incongruent	Block2	incongruent/STIM_024.jpg
1638.582	1.157	correct	incongruent	Block2	incongruent/STIM_025.jpg
1642.074	0.96	correct	incongruent	Block2	incongruent/STIM_025.jpg
1645.83	0.584	correct	incongruent	Block2	incongruent/STIM_025.jpg
1650.466	0.45	correct	incongruent	Block2	incongruent/STIM_025.jpg
1652.964	0.934	correct	incongruent	Block2	incongruent/STIM_025.jpg
1657.178	0.611	incorrect	incongruent	Block2	incongruent/STIM_026.jpg
1661.761	0.833	correct	incongruent	Block2	incongruent/STIM_026.jpg
1665.955	0.863	correct	incongruent	Block2	incongruent/STIM_026.jpg
1669.91	0.816	correct	incongruent	Block2	incongruent/STIM_026.jpg
1674.293	0.855	correct	incongruent	Block2	incongruent/STIM_026.jpg
1677.699	0.799	correct	incongruent	Block2	incongruent/STIM_027.jpg
1681.361	0.576	correct	incongruent	Block2	incongruent/STIM_027.jpg
1684.693	0.925	correct	incongruent	Block2	incongruent/STIM_027.jpg
1688.703	0.953	incorrect	incongruent	Block2	incongruent/STIM_027.jpg
1693.66	0.757	correct	incongruent	Block2	incongruent/STIM_027.jpg
1697.902	0.993	correct	incongruent	Block2	incongruent/STIM_028.jpg
1701.445	0.731	correct	incongruent	Block2	incongruent/STIM_028.jpg
1704.821	0.852	correct	incongruent	Block2	incongruent/STIM_028.jpg
1708.112	0.79	correct	incongruent	Block2	incongruent/STIM_028.jpg
1712.822	0.782	correct	incongruent	Block2	incongruent/STIM_028.jpg
1717.516	0.8	correct	incongruent	Block2	incongruent/STIM_029.jpg
1721.681	0.555	correct	incongruent	Block2	incongruent/STIM_029.jpg
1725.987	0.603	correct	incongruent	Block2	incongruent/STIM_029.jpg
1730.277	0.617	correct	incongruent	Block2	incongruent/STIM_029.jpg
1733.091	0.686	correct	incongruent	Block2	incongruent/STIM_029.jpg
1737.072	0.759	correct	congruent	Block2	congruent/STIM_000.jpg
1741.415	0.582	correct	congruent	Block2	congruent/STIM_000.jpg
1745.671	0.639	correct	congruent	Block2	congruent/STIM_000.jpg
1748.785	0.766	correct	congruent	Block2	congruent/STIM_000.jpg
1752.994	0.59	correct	congruent	Block2	congruent/STIM_000.jpg
1755.913	0.637	correct	congruent	Block2	congruent/STIM_001.jpg
1759.572	0.678	correct	congruent	Block2	congruent/STIM_001.jpg
1763.428	0.732	correct	congruent	Block2	congruent/STIM_001.jpg
1767.427	0.809	correct	congruent	Block2	congruent/STIM_001.jpg
1770.83	0.624	correct	congruent	Block2	congruent/STIM_001.jpg
1774.649	0.784	correct	congruent	Block2	congruent/STIM_002.jpg
1777.943	0.701	correct	congruent	Block2	congruent/STIM_002.jpg
1781.849	0.697	correct	congruent	Block2	congruent/STIM_002.jpg
1786.192	0.571	correct	congruent	Block2	congruent/STIM_002.jpg
1788.937	0.615	correct	congruent	Block2	congruent/STIM_002.jpg
1793.096	0.718	correct	congruent	Block2	congruent/STIM_003.jpg
1797.493	0.772	correct	congruent	Block2	congruent/STIM_003.jpg
1802.173	0.514	correct	congruent	Block2	congruent/STIM_003.jpg
1805.45	0.488	correct	congruent	Block2	congruent/STIM_003.jpg
1808.062	0.554	correct	congruent	Block2	congruent/STIM_003.jpg
1812.466	0.46	correct	congruent	Block2	congruent/STIM_004.jpg
1815.22	0.558	correct	congruent	Block2	congruent/STIM_004.jpg
1819.447	0.55	correct	congruent	Block2	congruent/STIM_004.jpg
1822.671	0.459	correct	congruent	Block2	congruent/STIM_004.jpg
1825.66	0.624	correct	congruent	Block2	congruent/STIM_004.jpg
1828.797	0.721	correct	congruent	Block2	congruent/STIM_005.jpg
1832.689	0.622	correct	congruent	Block2	congruent/STIM_005.jpg
1837.079	0.531	incorrect	congruent	Block2	congruent/STIM_005.jpg
1839.807	0.746	correct	congruent	Block2	congruent/STIM_005.jpg
1843.428	0.496	incorrect	congruent	Block2	congruent/STIM_005.jpg
1847.863	0.504	correct	congruent	Block2	congruent/STIM_006.jpg
1851.843	0.74	correct	congruent	Block2	congruent/STIM_006.jpg
1854.664	0.476	correct	congruent	Block2	congruent/STIM_006.jpg
1858.196	0.718	correct	congruent	Block2	congruent/STIM_006.jpg
1862.04	0.635	correct	congruent	Block2	congruent/STIM_006.jpg
1865.077	0.79	correct	congruent	Block2	congruent/STIM_007.jpg
1868.487	0.476	correct	congruent	Block2	congruent/STIM_007.jpg
1871.933	0.788	correct	congruent	Block2	congruent/STIM_007.jpg
1874.953	0.498	correct	congruent	Block2	congruent/STIM_007.jpg
1878.812	0.725	correct	congruent	Block2	congruent/STIM_007.jpg
1882.011	0.621	correct	congruent	Block2	congruent/STIM_008.jpg
1884.86	0.539	incorrect	congruent	Block2	congruent/STIM_008.jpg
1888.359	0.766	correct	congruent	Block2	congruent/STIM_008.jpg
1891.366	0.526	correct	congruent	Block2	congruent/STIM_008.jpg
1894.049	0.546	correct	congruent	Block2	congruent/STIM_008.jpg
1897.926	0.757	correct	congruent	Block2	congruent/STIM_009.jpg
1902.434	0.622	correct	congruent	Block2	congruent/STIM_009.jpg
1906.983	0.694	correct	congruent	Block2	congruent/STIM_009.jpg
1909.923	0.808	correct	congruent	Block2	congruent/STIM_009.jpg
1913.746	0.81	incorrect	congruent	Block2	congruent/STIM_009.jpg
1917.389	0.516	correct	congruent	Block2	congruent/STIM_010.jpg
1921.812	0.635	correct	congruent	Block2	congruent/STIM_010.jpg
1926.057	0.667	correct	congruent	Block2	congruent/STIM_010.jpg
1929.506	0.584	correct	congruent	Block2	congruent/STIM_010.jpg
1933.112	0.786	incorrect	congruent	Block2	congruent/STIM_010.jpg
1935.975	0.598	correct	congruent	Block2	congruent/STIM_011.jpg
1938.827	0.57	correct	congruent	Block2	congruent/STIM_011.jpg
1942.706	0.645	correct	congruent	Block2	congruent/STIM_011.jpg
1946.236	0.698	correct	congruent	Block2	congruent/STIM_011.jpg
1949.164	0.648	correct	congruent	Block2	congruent/STIM_011.jpg
1952.345	0.68	correct	congruent	Block2	congruent/STIM_012.jpg
1955.191	0.56	correct	congruent	Block2	congruent/STIM_012.jpg
1959.325	0.777	correct	congruent	Block2	congruent/STIM_012.jpg
1962.35	0.537	correct	congruent	Block2	congruent/STIM_012.jpg
1966.595	0.685	correct	congruent	Block2	congruent/STIM_012.jpg
1971.338	0.79	correct	congruent	Block2	congruent/STIM_013.jpg
1974.536	0.676	correct	congruent	Block2	congruent/STIM_013.jpg
1979.132	0.534	correct	congruent	Block2	congruent/STIM_013.jpg
1982.679	0.782	correct	congruent	Block2	congruent/STIM_013.jpg
1985.805	0.754	correct	congruent	Block2	congruent/STIM_013.jpg
1990.438	0.716	correct	congruent	Block2	congruent/STIM_014.jpg
1995.023	0.764	correct	congruent	Block2	congruent/STIM_014.jpg
1998.54	0.788	correct	congruent	Block2	congruent/STIM_014.jpg
2003.052	0.542	correct	congruent	Block2	congruent/STIM_014.jpg
2007.327	0.753	correct	congruent	Block2	congruent/STIM_014.jpg
2010.399	0.691	incorrect	congruent	Block2	congruent/STIM_015.jpg
2015.001	0.462	correct	congruent	Block2	congruent/STIM_015.jpg
2018.365	0.571	correct	congruent	Block2	congruent/STIM_015.jpg
2022.537	0.583	correct	congruent	Block2	congruent/STIM_015.jpg
2026.836	0.756	correct	congruent	Block2	congruent/STIM_015.jpg
2031.001	0.588	correct	congruent	Block2	congruent/STIM_016.jpg
2034.274	0.818	correct	congruent	Block2	congruent/STIM_016.jpg
2038.343	0.782	incorrect	congruent	Block2	congruent/STIM_016.jpg
2042.786	0.709	correct	congruent	Block2	congruent/STIM_016.jpg
2047.467	0.743	correct	congruent	Block2	congruent/STIM_016.jpg
2051.305	0.564	correct	congruent	Block2	congruent/STIM_017.jpg
2054.718	0.479	correct	congruent	Block2	congruent/STIM_017.jpg
2057.799	0.639	correct	congruent	Block2	congruent/STIM_017.jpg
2061.914	0.819	correct	congruent	Block2	congruent/STIM_017.jpg
2065.66	0.808	correct	congruent	Block2	congruent/STIM_017.jpg
2069.396	0.551	correct	congruent	Block2	congruent/STIM_018.jpg
2073.722	0.497	correct	congruent	Block2	congruent/STIM_018.jpg
2077.087	0.801	correct	congruent	Block2	congruent/STIM_018.jpg
2080.231	0.492	correct	congruent	Block2	congruent/STIM_018.jpg
2083.512	0.767	correct	congruent	Block2	congruent/STIM_018.jpg
2088.006	0.545	incorrect	congruent	Block2	congruent/STIM_019.jpg
2091.707	0.514	correct	congruent	Block2	congruent/STIM_019.jpg
2095.461	0.739	correct	congruent	Block2	congruent/STIM_019.jpg
2098.802	0.495	correct	congruent	Block2	congruent/STIM_019.jpg
2102.504	0.565	correct	congruent	Block2	congruent/STIM_019.jpg
2106.176	0.696	correct	congruent	Block2	congruent/STIM_020.jpg
2110.811	0.821	correct	congruent	Block2	congruent/STIM_020.jpg
2114.121	0.749	correct	congruent	Block2	congruent/STIM_020.jpg
2117.726	0.725	correct	congruent	Block2	congruent/STIM_020.jpg
2122.174	0.525	correct	congruent	Block2	congruent/STIM_020.jpg
2125.602	0.622	incorrect	congruent	Block2	congruent/STIM_021.jpg
2128.805	0.806	correct	congruent	Block2	congruent/STIM_021.jpg
2131.998	0.716	correct	congruent	Block2	congruent/STIM_021.jpg
2135.347	0.497	correct	congruent	Block2	congruent/STIM_021.jpg
2139.64	0.743	correct	congruent	Block2	congruent/STIM_021.jpg
2142.627	0.549	incorrect	congruent	Block2	congruent/STIM_022.jpg
2147.018	0.703	correct	congruent	Block2	congruent/STIM_022.jpg
2151.153	0.694	correct	congruent	Block2	congruent/STIM_022.jpg
2154.942	0.47	correct	congruent	Block2	congruent/STIM_022.jpg
2158.191	0.7	correct	congruent	Block2	congruent/STIM_022.jpg
2161.906	0.774	correct	congruent	Block2	congruent/STIM_023.jpg
2166.229	0.459	correct	congruent	Block2	congruent/STIM_023.jpg
2169.871	0.586	correct	congruent	Block2	congruent/STIM_023.jpg
2174.406	0.498	correct	congruent	Block2	congruent/STIM_023.jpg
2177.458	0.606	correct	congruent	Block2	congruent/STIM_023.jpg
2181.5	0.688	correct	congruent	Block2	congruent/STIM_024.jpg
2185.849	0.823	correct	congruent	Block2	congruent/STIM_024.jpg
2189.374	0.741	correct	congruent	Block2	congruent/STIM_024.jpg
2193.04	0.784	correct	congruent	Block2	congruent/STIM_024.jpg
2196.981	0.73	correct	congruent	Block2	congruent/STIM_024.jpg
2201.425	0.56	correct	congruent	Block2	congruent/STIM_025.jpg
2205.93	0.739	correct	congruent	Block2	congruent/STIM_025.jpg
2209.216	0.688	correct	congruent	Block2	congruent/STIM_025.jpg
2213.056	0.574	correct	congruent	Block2	congruent/STIM_025.jpg
2215.772	0.524	correct	congruent	Block2	congruent/STIM_025.jpg
2219.916	0.643	correct	congruent	Block2	congruent/STIM_026.jpg
2222.792	0.762	correct	congruent	Block2	congruent/STIM_026.jpg
2225.834	0.818	correct	congruent	Block2	congruent/STIM_026.jpg
2230.174	0.519	correct	congruent	Block2	congruent/STIM_026.jpg
2234.014	0.743	correct	congruent	Block2	congruent/STIM_026.jpg
2238.371	0.787	correct	congruent	Block2	congruent/STIM_027.jpg
2242.115	0.776	correct	congruent	Block2	congruent/STIM_027.jpg
2245.265	0.64	correct	congruent	Block2	congruent/STIM_027.jpg
2249.177	0.48	correct	congruent	Block2	congruent/STIM_027.jpg
2253.492	0.725	correct	congruent	Block2	congruent/STIM_027.jpg
2256.816	0.575	incorrect	congruent	Block2	congruent/STIM_028.jpg
2260.487	0.501	correct	congruent	Block2	congruent/STIM_028.jpg
2263.574	0.7	correct	congruent	Block2	congruent/STIM_028.jpg
2266.956	0.638	correct	congruent	Block2	congruent/STIM_028.jpg
2271.161	0.57	correct	congruent	Block2	congruent/STIM_028.jpg
2274.421	0.547	correct	congruent	Block2	congruent/STIM_029.jpg
2277.283	0.627	correct	congruent	Block2	congruent/STIM_029.jpg
2281.818	0.71	correct	congruent	Block2	congruent/STIM_029.jpg
2286.248	0.748	correct	congruent	Block2	congruent/STIM_029.jpg
2289.964	0.636	correct	congruent	Block2	congruent/STIM_029.jpg
2293.116	0.944	correct	incongruent	Block3	incongruent/STIM_000.jpg
2296.159	0.511	correct	incongruent	Block3	incongruent/STIM_000.jpg
2299.109	0.771	correct	incongruent	Block3	incongruent/STIM_000.jpg
2301.991	0.892	correct	incongruent	Block3	incongruent/STIM_000.jpg
2305.846	0.918	correct	incongruent	Block3	incongruent/STIM_000.jpg
2310.21	0.618	correct	incongruent	Block3	incongruent/STIM_001.jpg
2314.279	0.849	correct	incongruent	Block3	incongruent/STIM_001.jpg
2318.472	0.763	correct	incongruent	Block3	incongruent/STIM_001.jpg
2321.806	0.519	correct	incongruent	Block3	incongruent/STIM_001.jpg
2324.777	0.664	correct	incongruent	Block3	incongruent/STIM_001.jpg
2327.654	0.842	correct	incongruent	Block3	incongruent/STIM_002.jpg
2330.747	0.736	correct	incongruent	Block3	incongruent/STIM_002.jpg
2334.248	0.773	correct	incongruent	Block3	incongruent/STIM_002.jpg
2338.584	0.88	correct	incongruent	Block3	incongruent/STIM_002.jpg
2342.175	0.743	correct	incongruent	Block3	incongruent/STIM_002.jpg
2346.366	0.754	correct	incongruent	Block3	incongruent/STIM_003.jpg
2349.274	0.5	correct	incongruent	Block3	incongruent/STIM_003.jpg
2351.869	0.885	correct	incongruent	Block3	incongruent/STIM_003.jpg
2356.166	0.769	correct	incongruent	Block3	incongruent/STIM_003.jpg
2359.065	0.486	correct	incongruent	Block3	incongruent/STIM_003.jpg
2363.247	0.955	correct	incongruent	Block3	incongruent/STIM_004.jpg
2368.12	0.54	correct	incongruent	Block3	incongruent/STIM_004.jpg
2370.795	0.592	correct	incongruent	Block3	incongruent/STIM_004.jpg
2373.745	0.947	correct	incongruent	Block3	incongruent/STIM_004.jpg
2377.761	0.807	correct	incongruent	Block3	incongruent/STIM_004.jpg
2381.746	0.9	correct	incongruent	Block3	incongruent/STIM_005.jpg
2384.868	0.636	correct	incongruent	Block3	incongruent/STIM_005.jpg
2387.723	0.758	correct	incongruent	Block3	incongruent/STIM_005.jpg
2391.71	0.468	correct	incongruent	Block3	incongruent/STIM_005.jpg
2395.113	0.749	correct	incongruent	Block3	incongruent/STIM_005.jpg
2399.073	0.83	correct	incongruent	Block3	incongruent/STIM_006.jpg
2402.762	0.597	correct	incongruent	Block3	incongruent/STIM_006.jpg
2406.194	0.92	correct	incongruent	Block3	incongruent/STIM_006.jpg
2410.629	0.88	correct	incongruent	Block3	incongruent/STIM_006.jpg
2414.781	0.476	correct	incongruent	Block3	incongruent/STIM_006.jpg
2417.42	0.559	correct	incongruent	Block3	incongruent/STIM_007.jpg
2421.572	0.57	correct	incongruent	Block3	incongruent/STIM_007.jpg
2425.614	0.69	correct	incongruent	Block3	incongruent/STIM_007.jpg
2429.425	0.804	correct	incongruent	Block3	incongruent/STIM_007.jpg
2433.346	0.525	correct	incongruent	Block3	incongruent/STIM_007.jpg
2436.607	0.699	correct	incongruent	Block3	incongruent/STIM_008.jpg
2439.708	0.841	correct	incongruent	Block3	incongruent/STIM_008.jpg
2442.803	0.705	correct	incongruent	Block3	incongruent/STIM_008.jpg
2446.624	0.87	correct	incongruent	Block3	incongruent/STIM_008.jpg
2450.372	0.584	correct	incongruent	Block3	incongruent/STIM_008.jpg
2453.901	0.645	correct	incongruent	Block3	incongruent/STIM_009.jpg
2456.982	0.655	correct	incongruent	Block3	incongruent/STIM_009.jpg
2460.912	0.867	correct	incongruent	Block3	incongruent/STIM_009.jpg
2463.983	0.634	correct	incongruent	Block3	incongruent/STIM_009.jpg
2467.983	0.928	correct	incongruent	Block3	incongruent/STIM_009.jpg
2471.553	0.895	correct	incongruent	Block3	incongruent/STIM_010.jpg
2475.98	0.481	correct	incongruent	Block3	incongruent/STIM_010.jpg
2478.955	0.766	correct	incongruent	Block3	incongruent/STIM_010.jpg
2482.265	0.855	correct	incongruent	Block3	incongruent/STIM_010.jpg
2485.877	0.524	correct	incongruent	Block3	incongruent/STIM_010.jpg
2490.301	0.584	correct	incongruent	Block3	incongruent/STIM_011.jpg
2494.21	0.785	correct	incongruent	Block3	incongruent/STIM_011.jpg
2498.326	0.633	correct	incongruent	Block3	incongruent/STIM_011.jpg
2501.719	0.832	correct	incongruent	Block3	incongruent/STIM_011.jpg
2505.259	0.74	correct	incongruent	Block3	incongruent/STIM_011.jpg
2508.516	0.459	correct	incongruent	Block3	incongruent/STIM_012.jpg
2512.903	0.474	correct	incongruent	Block3	incongruent/STIM_012.jpg
2515.513	0.563	correct	incongruent	Block3	incongruent/STIM_012.jpg
2519.474	0.767	correct	incongruent	Block3	incongruent/STIM_012.jpg
2523.388	0.714	correct	incongruent	Block3	incongruent/STIM_012.jpg
2526.676	0.49	correct	incongruent	Block3	incongruent/STIM_013.jpg
2529.266	0.774	correct	incongruent	Block3	incongruent/STIM_013.jpg
2532.514	0.557	correct	incongruent	Block3	incongruent/STIM_013.jpg
2536.488	0.682	correct	incongruent	Block3	incongruent/STIM_013.jpg
2540.717	0.627	correct	incongruent	Block3	incongruent/STIM_013.jpg
2543.981	0.722	correct	incongruent	Block3	incongruent/STIM_014.jpg
2547.568	0.561	correct	incongruent	Block3	incongruent/STIM_014.jpg
2550.628	0.688	correct	incongruent	Block3	incongruent/STIM_014.jpg
2553.522	0.488	correct	incongruent	Block3	incongruent/STIM_014.jpg
2556.458	0.892	correct	incongruent	Block3	incongruent/STIM_014.jpg
2561.289	0.945	correct	incongruent	Block3	incongruent/STIM_015.jpg
2564.496	0.602	correct	incongruent	Block3	incongruent/STIM_015.jpg
2567.672	0.457	correct	incongruent	Block3	incongruent/STIM_015.jpg
2571.911	0.573	correct	incongruent	Block3	incongruent/STIM_015.jpg
2575.163	0.892	correct	incongruent	Block3	incongruent/STIM_015.jpg
2578.42	0.626	correct	incongruent	Block3	incongruent/STIM_016.jpg
2583.007	0.882	correct	incongruent	Block3	incongruent/STIM_016.jpg
2586.98	0.85	correct	incongruent	Block3	incongruent/STIM_016.jpg
2590.923	0.562	correct	incongruent	Block3	incongruent/STIM_016.jpg
2593.845	0.762	correct	incongruent	Block3	incongruent/STIM_016.jpg
2598.055	0.607	correct	incongruent	Block3	incongruent/STIM_017.jpg
2601.363	0.566	correct	incongruent	Block3	incongruent/STIM_017.jpg
2605.734	0.585	correct	incongruent	Block3	incongruent/STIM_017.jpg
2609.558	0.718	correct	incongruent	Block3	incongruent/STIM_017.jpg
2613.031	0.532	correct	incongruent	Block3	incongruent/STIM_017.jpg
2616.586	0.803	correct	incongruent	Block3	incongruent/STIM_018.jpg
2620.435	0.755	correct	incongruent	Block3	incongruent/STIM_018.jpg
2623.87	0.679	correct	incongruent	Block3	incongruent/STIM_018.jpg
2628.094	0.882	correct	incongruent	Block3	incongruent/STIM_018.jpg
2632.236	0.623	correct	incongruent	Block3	incongruent/STIM_018.jpg
2636.16	0.679	correct	incongruent	Block3	incongruent/STIM_019.jpg
2640.08	0.805	correct	incongruent	Block3	incongruent/STIM_019.jpg
2644.707	0.853	correct	incongruent	Block3	incongruent/STIM_019.jpg
2649.604	0.958	correct	incongruent	Block3	incongruent/STIM_019.jpg
2654.428	0.708	incorrect	incongruent	Block3	incongruent/STIM_019.jpg
2658.285	0.837	correct	incongruent	Block3	incongruent/STIM_020.jpg
2661.438	0.765	correct	incongruent	Block3	incongruent/STIM_020.jpg
2664.371	0.543	correct	incongruent	Block3	incongruent/STIM_020.jpg
2668.032	0.91	correct	incongruent	Block3	incongruent/STIM_020.jpg
2672.115	0.743	correct	incongruent	Block3	incongruent/STIM_020.jpg
2675.025	0.76	correct	incongruent	Block3	incongruent/STIM_021.jpg
2678.452	0.517	correct	incongruent	Block3	incongruent/STIM_021.jpg
2682.403	0.796	correct	incongruent	Block3	incongruent/STIM_021.jpg
2685.463	0.923	correct	incongruent	Block3	incongruent/STIM_021.jpg
2689.938	0.482	correct	incongruent	Block3	incongruent/STIM_021.jpg
2694.343	0.766	correct	incongruent	Block3	incongruent/STIM_022.jpg
2698.139	0.776	correct	incongruent	Block3	incongruent/STIM_022.jpg
2701.828	0.604	correct	incongruent	Block3	incongruent/STIM_022.jpg
2706.013	0.932	incorrect	incongruent	Block3	incongruent/STIM_022.jpg
2710.416	0.839	correct	incongruent	Block3	incongruent/STIM_022.jpg
2715.165	0.927	correct	incongruent	Block3	incongruent/STIM_023.jpg
2718.476	0.633	correct	incongruent	Block3	incongruent/STIM_023.jpg
2722.773	0.779	correct	incongruent	Block3	incongruent/STIM_023.jpg
2726.54	0.485	correct	incongruent	Block3	incongruent/STIM_023.jpg
2730.367	0.516	correct	incongruent	Block3	incongruent/STIM_023.jpg
2734.696	0.484	correct	incongruent	Block3	incongruent/STIM_024.jpg
2739.116	0.527	incorrect	incongruent	Block3	incongruent/STIM_024.jpg
2742.447	0.921	correct	incongruent	Block3	incongruent/STIM_024.jpg
2746.163	0.748	correct	incongruent	Block3	incongruent/STIM_024.jpg
2750.198	0.558	correct	incongruent	Block3	incongruent/STIM_024.jpg
2753.048	0.65	correct	incongruent	Block3	incongruent/STIM_025.jpg
2756.114	0.602	correct	incongruent	Block3	incongruent/STIM_025.jpg
2758.775	0.698	correct	incongruent	Block3	incongruent/STIM_025.jpg
2762.515	0.663	correct	incongruent	Block3	incongruent/STIM_025.jpg
2765.71	0.952	correct	incongruent	Block3	incongruent/STIM_025.jpg
2770.55	0.549	correct	incongruent	Block3	incongruent/STIM_026.jpg
2774.607	0.848	correct	incongruent	Block3	incongruent/STIM_026.jpg
2777.588	0.452	correct	incongruent	Block3	incongruent/STIM_026.jpg
2780.566	0.743	correct	incongruent	Block3	incongruent/STIM_026.jpg
2783.764	0.586	incorrect	incongruent	Block3	incongruent/STIM_026.jpg
2787.648	0.541	correct	incongruent	Block3	incongruent/STIM_027.jpg
2792.008	0.703	correct	incongruent	Block3	incongruent/STIM_027.jpg
2795.703	0.929	correct	incongruent	Block3	incongruent/STIM_027.jpg
2800.026	0.529	correct	incongruent	Block3	incongruent/STIM_027.jpg
2803.403	0.452	correct	incongruent	Block3	incongruent/STIM_027.jpg
2807.412	0.827	correct	incongruent	Block3	incongruent/STIM_028.jpg
2811.043	0.695	correct	incongruent	Block3	incongruent/STIM_028.jpg
2813.939	0.806	correct	incongruent	Block3	incongruent/STIM_028.jpg
2817.561	0.707	correct	incongruent	Block3	incongruent/STIM_028.jpg
2820.945	0.534	correct	incongruent	Block3	incongruent/STIM_028.jpg
2823.863	0.542	correct	incongruent	Block3	incongruent/STIM_029.jpg
2828.445	0.482	correct	incongruent	Block3	incongruent/STIM_029.jpg
2831.014	0.605	incorrect	incongruent	Block3	incongruent/STIM_029.jpg
2833.843	0.72	correct	incongruent	Block3	incongruent/STIM_029.jpg
2838.14	0.484	correct	incongruent	Block3	incongruent/STIM_029.jpg
2840.677	0.564	correct	congruent	Block3	congruent/STIM_000.jpg
2843.825	0.549	correct	congruent	Block3	congruent/STIM_000.jpg
2846.654	0.782	correct	congruent	Block3	congruent/STIM_000.jpg
2849.651	0.599	correct	congruent	Block3	congruent/STIM_000.jpg
2853.921	0.765	correct	congruent	Block3	congruent/STIM_000.jpg
2856.886	0.474	correct	congruent	Block3	congruent/STIM_001.jpg
2860.05	0.62	correct	congruent	Block3	congruent/STIM_001.jpg
2862.977	0.802	correct	congruent	Block3	congruent/STIM_001.jpg
2866.59	0.518	correct	congruent	Block3	congruent/STIM_001.jpg
2869.684	0.811	correct	congruent	Block3	congruent/STIM_001.jpg
2873.6	0.738	correct	congruent	Block3	congruent/STIM_002.jpg
2878.266	0.498	correct	congruent	Block3	congruent/STIM_002.jpg
2882.456	0.569	correct	congruent	Block3	congruent/STIM_002.jpg
2885.255	0.61	correct	congruent	Block3	congruent/STIM_002.jpg
2889.736	0.7	correct	congruent	Block3	congruent/STIM_002.jpg
2894.182	0.593	correct	congruent	Block3	congruent/STIM_003.jpg
2897.832	0.503	incorrect	congruent	Block3	congruent/STIM_003.jpg
2900.441	0.686	correct	congruent	Block3	congruent/STIM_003.jpg
2903.469	0.576	correct	congruent	Block3	congruent/STIM_003.jpg
2907.098	0.666	correct	congruent	Block3	congruent/STIM_003.jpg
2909.949	0.658	correct	congruent	Block3	congruent/STIM_004.jpg
2913.208	0.594	correct	congruent	Block3	congruent/STIM_004.jpg
2917.146	0.616	correct	congruent	Block3	congruent/STIM_004.jpg
2921.236	0.646	correct	congruent	Block3	congruent/STIM_004.jpg
2925.271	0.596	correct	congruent	Block3	congruent/STIM_004.jpg
2928.232	0.721	correct	congruent	Block3	congruent/STIM_005.jpg
2931.865	0.472	correct	congruent	Block3	congruent/STIM_005.jpg
2935.824	0.773	correct	congruent	Block3	congruent/STIM_005.jpg
2940.182	0.632	correct	congruent	Block3	congruent/STIM_005.jpg
2943.566	0.473	correct	congruent	Block3	congruent/STIM_005.jpg
2947.922	0.808	correct	congruent	Block3	congruent/STIM_006.jpg
2951.889	0.569	correct	congruent	Block3	congruent/STIM_006.jpg
2956.417	0.477	correct	congruent	Block3	congruent/STIM_006.jpg
2960.192	0.756	correct	congruent	Block3	congruent/STIM_006.jpg
2964.899	0.818	correct	congruent	Block3	congruent/STIM_006.jpg
2969.295	0.707	incorrect	congruent	Block3	congruent/STIM_007.jpg
2972.389	0.527	correct	congruent	Block3	congruent/STIM_007.jpg
2976.143	0.644	correct	congruent	Block3	congruent/STIM_007.jpg
2979.729	0.656	correct	congruent	Block3	congruent/STIM_007.jpg
2982.677	0.596	correct	congruent	Block3	congruent/STIM_007.jpg
2987.106	0.546	correct	congruent	Block3	congruent/STIM_008.jpg
2991.281	0.787	correct	congruent	Block3	congruent/STIM_008.jpg
2995.19	0.715	correct	congruent	Block3	congruent/STIM_008.jpg
2998.515	0.796	correct	congruent	Block3	congruent/STIM_008.jpg
3001.449	0.548	correct	congruent	Block3	congruent/STIM_008.jpg
3004.612	0.805	correct	congruent	Block3	congruent/STIM_009.jpg
3009.016	0.504	correct	congruent	Block3	congruent/STIM_009.jpg
3011.848	0.578	correct	congruent	Block3	congruent/STIM_009.jpg
3014.872	0.802	correct	congruent	Block3	congruent/STIM_009.jpg
3018.905	0.784	correct	congruent	Block3	congruent/STIM_009.jpg
3022.733	0.746	correct	congruent	Block3	congruent/STIM_010.jpg
3026.367	0.518	correct	congruent	Block3	congruent/STIM_010.jpg
3030.459	0.816	correct	congruent	Block3	congruent/STIM_010.jpg
3034.286	0.621	correct	congruent	Block3	congruent/STIM_010.jpg
3038.616	0.468	correct	congruent	Block3	congruent/STIM_010.jpg
3042.935	0.512	correct	congruent	Block3	congruent/STIM_011.jpg
3047.387	0.817	correct	congruent	Block3	congruent/STIM_011.jpg
3051.055	0.78	correct	congruent	Block3	congruent/STIM_011.jpg
3054.732	0.79	correct	congruent	Block3	congruent/STIM_011.jpg
3059.165	0.491	correct	congruent	Block3	congruent/STIM_011.jpg
3062.824	0.638	correct	congruent	Block3	congruent/STIM_012.jpg
3066.798	0.668	correct	congruent	Block3	congruent/STIM_012.jpg
3070.544	0.495	correct	congruent	Block3	congruent/STIM_012.jpg
3074.307	0.747	correct	congruent	Block3	congruent/STIM_012.jpg
3078.194	0.598	correct	congruent	Block3	congruent/STIM_012.jpg
3081.115	0.686	correct	congruent	Block3	congruent/STIM_013.jpg
3084.813	0.767	correct	congruent	Block3	congruent/STIM_013.jpg
3088.034	0.514	correct	congruent	Block3	congruent/STIM_013.jpg
3090.972	0.71	correct	congruent	Block3	congruent/STIM_013.jpg
3095.147	0.687	correct	congruent	Block3	congruent/STIM_013.jpg
3099.208	0.692	correct	congruent	Block3	congruent/STIM_014.jpg
3102.887	0.707	correct	congruent	Block3	congruent/STIM_014.jpg
3106.936	0.603	correct	congruent	Block3	congruent/STIM_014.jpg
3110.85	0.465	correct	congruent	Block3	congruent/STIM_014.jpg
3115.22	0.531	correct	congruent	Block3	congruent/STIM_014.jpg
3118.947	0.801	correct	congruent	Block3	congruent/STIM_015.jpg
3122.7	0.788	correct	congruent	Block3	congruent/STIM_015.jpg
3125.885	0.458	correct	congruent	Block3	congruent/STIM_015.jpg
3129.323	0.662	correct	congruent	Block3	congruent/STIM_015.jpg
3133.296	0.702	incorrect	congruent	Block3	congruent/STIM_015.jpg
3137.777	0.785	correct	congruent	Block3	congruent/STIM_016.jpg
3142.356	0.791	correct	congruent	Block3	congruent/STIM_016.jpg
3145.749	0.488	correct	congruent	Block3	congruent/STIM_016.jpg
3148.617	0.81	correct	congruent	Block3	congruent/STIM_016.jpg
3152.7	0.543	correct	congruent	Block3	congruent/STIM_016.jpg
3155.883	0.558	incorrect	congruent	Block3	congruent/STIM_017.jpg
3160.368	0.609	correct	congruent	Block3	congruent/STIM_017.jpg
3163.544	0.69	correct	congruent	Block3	congruent/STIM_017.jpg
3168.085	0.748	correct	congruent	Block3	congruent/STIM_017.jpg
3172.505	0.573	correct	congruent	Block3	congruent/STIM_017.jpg
3175.494	0.568	correct	congruent	Block3	congruent/STIM_018.jpg
3179.882	0.641	correct	congruent	Block3	congruent/STIM_018.jpg
3184.047	0.532	correct	congruent	Block3	congruent/STIM_018.jpg
3188.07	0.778	correct	congruent	Block3	congruent/STIM_018.jpg
3191.782	0.684	correct	congruent	Block3	congruent/STIM_018.jpg
3195.045	0.654	correct	congruent	Block3	congruent/STIM_019.jpg
3198.955	0.546	correct	congruent	Block3	congruent/STIM_019.jpg
3203.449	0.789	correct	congruent	Block3	congruent/STIM_019.jpg
3208.048	0.468	correct	congruent	Block3	congruent/STIM_019.jpg
3211.204	0.77	correct	congruent	Block3	congruent/STIM_019.jpg
3215.212	0.661	correct	congruent	Block3	congruent/STIM_020.jpg
3219.419	0.467	correct	congruent	Block3	congruent/STIM_020.jpg
3221.956	0.79	correct	congruent	Block3	congruent/STIM_020.jpg
3226.111	0.742	correct	congruent	Block3	congruent/STIM_020.jpg
3230.905	0.659	correct	congruent	Block3	congruent/STIM_020.jpg
3233.648	0.586	correct	congruent	Block3	congruent/STIM_021.jpg
3237.884	0.681	correct	congruent	Block3	congruent/STIM_021.jpg
3241.17	0.574	correct	congruent	Block3	congruent/STIM_021.jpg
3245.23	0.477	correct	congruent	Block3	congruent/STIM_021.jpg
3248.103	0.576	correct	congruent	Block3	congruent/STIM_021.jpg
3251.709	0.808	correct	congruent	Block3	congruent/STIM_022.jpg
3254.628	0.716	correct	congruent	Block3	congruent/STIM_022.jpg
3259.028	0.596	correct	congruent	Block3	congruent/STIM_022.jpg
3263.649	0.629	correct	congruent	Block3	congruent/STIM_022.jpg
3267.62	0.662	correct	congruent	Block3	congruent/STIM_022.jpg
3271.947	0.698	correct	congruent	Block3	congruent/STIM_023.jpg
3276.418	0.564	correct	congruent	Block3	congruent/STIM_023.jpg
3280.427	0.495	correct	congruent	Block3	congruent/STIM_023.jpg
3283.591	0.505	correct	congruent	Block3	congruent/STIM_023.jpg
3286.5	0.56	correct	congruent	Block3	congruent/STIM_023.jpg
3290.505	0.776	correct	congruent	Block3	congruent/STIM_024.jpg
3295.008	0.57	correct	congruent	Block3	congruent/STIM_024.jpg
3299.295	0.578	correct	congruent	Block3	congruent/STIM_024.jpg
3302.902	0.541	correct	congruent	Block3	congruent/STIM_024.jpg
3306.039	0.75	correct	congruent	Block3	congruent/STIM_024.jpg
3310.426	0.739	correct	congruent	Block3	congruent/STIM_025.jpg
3313.33	0.689	correct	congruent	Block3	congruent/STIM_025.jpg
3317.499	0.73	correct	congruent	Block3	congruent/STIM_025.jpg
3320.333	0.561	correct	congruent	Block3	congruent/STIM_025.jpg
3323.605	0.672	correct	congruent	Block3	congruent/STIM_025.jpg
3326.532	0.601	correct	congruent	Block3	congruent/STIM_026.jpg
3329.544	0.502	correct	congruent	Block3	congruent/STIM_026.jpg
3332.474	0.482	correct	congruent	Block3	congruent/STIM_026.jpg
3335.703	0.634	correct	congruent	Block3	congruent/STIM_026.jpg
3338.588	0.502	correct	congruent	Block3	congruent/STIM_026.jpg
3342.917	0.664	correct	congruent	Block3	congruent/STIM_027.jpg
3346.323	0.714	correct	congruent	Block3	congruent/STIM_027.jpg
3350.055	0.583	correct	congruent	Block3	congruent/STIM_027.jpg
3353.2	0.732	correct	congruent	Block3	congruent/STIM_027.jpg
3356.004	0.517	correct	congruent	Block3	congruent/STIM_027.jpg
3360.512	0.567	correct	congruent	Block3	congruent/STIM_028.jpg
3364.602	0.484	correct	congruent	Block3	congruent/STIM_028.jpg
3368.761	0.719	correct	congruent	Block3	congruent/STIM_028.jpg
3372.558	0.548	correct	congruent	Block3	congruent/STIM_028.jpg
3377.055	0.552	correct	congruent	Block3	congruent/STIM_028.jpg
3381.157	0.688	correct	congruent	Block3	congruent/STIM_029.jpg
3385.56	0.751	correct	congruent	Block3	congruent/STIM_029.jpg
3389.803	0.506	correct	congruent	Block3	congruent/STIM_029.jpg
3392.945	0.615	incorrect	congruent	Block3	congruent/STIM_029.jpg
3396.558	0.689	correct	congruent	Block3	congruent/STIM_029.jpg
