onset	duration	accuracy	trial_type	learning_stage	stimulus
0.0	0.981	correct	incongruent	Block1	incongruent/STIM_000.jpg
3.565	0.677	correct	incongruent	Block1	incongruent/STIM_000.jpg
7.368	0.746	correct	incongruent	Block1	incongruent/STIM_000.jpg
11.664	1.094	correct	incongruent	Block1	incongruent/STIM_000.jpg
16.568	1.068	correct	incongruent	Block1	incongruent/STIM_000.jpg
21.073	1.366	correct	incongruent	Block1	incongruent/STIM_001.jpg
25.163	1.194	correct	incongruent	Block1	incongruent/STIM_001.jpg
29.497	1.216	correct	incongruent	Block1	incongruent/STIM_001.jpg
33.892	0.724	incorrect	incongruent	Block1	incongruent/STIM_001.jpg
37.446	0.858	incorrect	incongruent	Block1	incongruent/STIM_001.jpg
41.996	0.812	incorrect	incongruent	Block1	incongruent/STIM_002.jpg
45.925	0.756	incorrect	incongruent	Block1	incongruent/STIM_002.jpg
49.79	0.964	correct	incongruent	Block1	incongruent/STIM_002.jpg
54.745	0.612	correct	incongruent	Block1	incongruent/STIM_002.jpg
58.552	0.912	incorrect	incongruent	Block1	incongruent/STIM_002.jpg
62.946	1.285	incorrect	incongruent	Block1	incongruent/STIM_003.jpg
66.594	0.976	correct	incongruent	Block1	incongruent/STIM_003.jpg
70.873	1.242	correct	incongruent	Block1	incongruent/STIM_003.jpg
76.102	1.064	incorrect	incongruent	Block1	incongruent/STIM_003.jpg
80.357	0.721	incorrect	incongruent	Block1	incongruent/STIM_003.jpg
83.517	1.394	incorrect	incongruent	Block1	incongruent/STIM_004.jpg
87.105	1.327	incorrect	incongruent	Block1	incongruent/STIM_004.jpg
90.948	0.988	correct	incongruent	Block1	incongruent/STIM_004.jpg
95.803	1.113	correct	incongruent	Block1	incongruent/STIM_004.jpg
99.755	0.948	incorrect	incongruent	Block1	incongruent/STIM_004.jpg
103.035	1.175	correct	incongruent	Block1	incongruent/STIM_005.jpg
106.519	1.287	correct	incongruent	Block1	incongruent/STIM_005.jpg
110.691	0.668	incorrect	incongruent	Block1	incongruent/STIM_005.jpg
113.452	1.005	incorrect	incongruent	Block1	incongruent/STIM_005.jpg
118.387	1.008	incorrect	incongruent	Block1	incongruent/STIM_005.jpg
121.472	1.276	correct	incongruent	Block1	incongruent/STIM_006.jpg
125.247	0.784	correct	incongruent	Block1	incongruent/STIM_006.jpg
128.866	0.633	incorrect	incongruent	Block1	incongruent/STIM_006.jpg
131.919	0.648	correct	incongruent	Block1	incongruent/STIM_006.jpg
135.572	0.772	correct	incongruent	Block1	incongruent/STIM_006.jpg
139.766	1.184	correct	incongruent	Block1	incongruent/STIM_007.jpg
143.454	1.06	correct	incongruent	Block1	incongruent/STIM_007.jpg
146.659	0.966	correct	incongruent	Block1	incongruent/STIM_007.jpg
150.023	0.702	correct	incongruent	Block1	incongruent/STIM_007.jpg
154.617	0.876	incorrect	incongruent	Block1	incongruent/STIM_007.jpg
157.588	1.105	correct	incongruent	Block1	incongruent/STIM_008.jpg
162.267	1.159	correct	incongruent	Block1	incongruent/STIM_008.jpg
167.175	1.11	correct	incongruent	Block1	incongruent/STIM_008.jpg
171.155	1.174	incorrect	incongruent	Block1	incongruent/STIM_008.jpg
175.31	1.125	correct	incongruent	Block1	incongruent/STIM_008.jpg
178.728	1.167	correct	incongruent	Block1	incongruent/STIM_009.jpg
182.992	0.912	correct	incongruent	Block1	incongruent/STIM_009.jpg
186.833	0.788	correct	incongruent	Block1	incongruent/STIM_009.jpg
191.018	0.7	incorrect	incongruent	Block1	incongruent/STIM_009.jpg
193.852	0.641	correct	incongruent	Block1	incongruent/STIM_009.jpg
198.433	0.759	incorrect	incongruent	Block1	incongruent/STIM_010.jpg
201.338	1.117	correct	incongruent	Block1	incongruent/STIM_010.jpg
204.517	1.068	correct	incongruent	Block1	incongruent/STIM_010.jpg
209.436	0.581	correct	incongruent	Block1	incongruent/STIM_010.jpg
212.202	0.775	correct	incongruent	Block1	incongruent/STIM_010.jpg
216.822	1.084	correct	incongruent	Block1	incongruent/STIM_011.jpg
221.707	0.72	correct	incongruent	Block1	incongruent/STIM_011.jpg
224.652	0.641	correct	incongruent	Block1	incongruent/STIM_011.jpg
227.34	1.053	incorrect	incongruent	Block1	incongruent/STIM_011.jpg
231.956	0.918	incorrect	incongruent	Block1	incongruent/STIM_011.jpg
234.907	1.313	incorrect	incongruent	Block1	incongruent/STIM_012.jpg
240.117	1.085	incorrect	incongruent	Block1	incongruent/STIM_012.jpg
243.314	0.823	correct	incongruent	Block1	incongruent/STIM_012.jpg
247.392	0.722	incorrect	incongruent	Block1	incongruent/STIM_012.jpg
251.311	1.127	correct	incongruent	Block1	incongruent/STIM_012.jpg
255.632	1.115	incorrect	incongruent	Block1	incongruent/STIM_013.jpg
260.079	0.898	incorrect	incongruent	Block1	incongruent/STIM_013.jpg
264.455	1.226	correct	incongruent	Block1	incongruent/STIM_013.jpg
268.869	1.134	incorrect	incongruent	Block1	incongruent/STIM_013.jpg
272.026	0.664	correct	incongruent	Block1	incongruent/STIM_013.jpg
275.801	0.772	correct	incongruent	Block1	incongruent/STIM_014.jpg
280.316	0.838	incorrect	incongruent	Block1	incongruent/STIM_014.jpg
284.691	0.767	correct	incongruent	Block1	incongruent/STIM_014.jpg
287.641	0.858	correct	incongruent	Block1	incongruent/STIM_014.jpg
290.973	1.06	correct	incongruent	Block1	incongruent/STIM_014.jpg
294.265	0.997	incorrect	incongruent	Block1	incongruent/STIM_015.jpg
297.603	1.09	incorrect	incongruent	Block1	incongruent/STIM_015.jpg
300.893	0.73	correct	incongruent	Block1	incongruent/STIM_015.jpg
304.439	1.131	incorrect	incongruent	Block1	incongruent/STIM_015.jpg
307.648	0.864	incorrect	incongruent	Block1	incongruent/STIM_015.jpg
311.836	0.766	correct	incongruent	Block1	incongruent/STIM_016.jpg
315.464	1.121	incorrect	incongruent	Block1	incongruent/STIM_016.jpg
318.738	1.049	incorrect	incongruent	Block1	incongruent/STIM_016.jpg
323.446	0.701	incorrect	incongruent	Block1	incongruent/STIM_016.jpg
328.089	0.893	correct	incongruent	Block1	incongruent/STIM_016.jpg
332.14	0.88	incorrect	incongruent	Block1	incongruent/STIM_017.jpg
336.279	1.336	correct	incongruent	Block1	incongruent/STIM_017.jpg
340.806	0.728	correct	incongruent	Block1	incongruent/STIM_017.jpg
343.678	0.842	incorrect	incongruent	Block1	incongruent/STIM_017.jpg
348.155	1.048	incorrect	incongruent	Block1	incongruent/STIM_017.jpg
351.758	1.314	incorrect	incongruent	Block1	incongruent/STIM_018.jpg
355.081	0.842	correct	incongruent	Block1	incongruent/STIM_018.jpg
359.03	0.975	correct	incongruent	Block1	incongruent/STIM_018.jpg
362.298	0.723	correct	incongruent	Block1	incongruent/STIM_018.jpg
366.162	1.05	correct	incongruent	Block1	incongruent/STIM_018.jpg
370.029	1.409	incorrect	incongruent	Block1	incongruent/STIM_019.jpg
374.203	1.016	correct	incongruent	Block1	incongruent/STIM_019.jpg
378.59	1.196	correct	incongruent	Block1	incongruent/STIM_019.jpg
383.405	1.111	correct	incongruent	Block1	incongruent/STIM_019.jpg
386.835	0.764	incorrect	incongruent	Block1	incongruent/STIM_019.jpg
390.278	0.78	correct	incongruent	Block1	incongruent/STIM_020.jpg
394.1	1.257	incorrect	incongruent	Block1	incongruent/STIM_020.jpg
398.731	1.242	incorrect	incongruent	Block1	incongruent/STIM_020.jpg
402.11	0.66	incorrect	incongruent	Block1	incongruent/STIM_020.jpg
405.93	0.929	incorrect	incongruent	Block1	incongruent/STIM_020.jpg
408.976	0.774	incorrect	incongruent	Block1	incongruent/STIM_021.jpg
413.092	0.695	correct	incongruent	Block1	incongruent/STIM_021.jpg
417.47	1.197	incorrect	incongruent	Block1	incongruent/STIM_021.jpg
421.527	1.175	correct	incongruent	Block1	incongruent/STIM_021.jpg
425.665	0.697	correct	incongruent	Block1	incongruent/STIM_021.jpg
429.211	0.684	correct	incongruent	Block1	incongruent/STIM_022.jpg
433.116	0.759	correct	incongruent	Block1	incongruent/STIM_022.jpg
436.683	0.718	correct	incongruent	Block1	incongruent/STIM_022.jpg
441.267	1.103	correct	incongruent	Block1	incongruent/STIM_022.jpg
444.537	1.007	correct	incongruent	Block1	incongruent/STIM_022.jpg
448.588	0.993	correct	incongruent	Block1	incongruent/STIM_023.jpg
453.511	1.134	correct	incongruent	Block1	incongruent/STIM_023.jpg
457.909	0.761	correct	incongruent	Block1	incongruent/STIM_023.jpg
462.495	1.212	correct	incongruent	Block1	incongruent/STIM_023.jpg
466.436	0.895	correct	incongruent	Block1	incongruent/STIM_023.jpg
470.64	0.884	correct	incongruent	Block1	incongruent/STIM_024.jpg
474.401	0.661	correct	incongruent	Block1	incongruent/STIM_024.jpg
477.41	0.815	correct	incongruent	Block1	incongruent/STIM_024.jpg
481.653	0.856	correct	incongruent	Block1	incongruent/STIM_024.jpg
485.169	0.711	correct	incongruent	Block1	incongruent/STIM_024.jpg
489.179	1.176	incorrect	incongruent	Block1	incongruent/STIM_025.jpg
493.791	0.82	correct	incongruent	Block1	incongruent/STIM_025.jpg
497.002	0.983	correct	incongruent	Block1	incongruent/STIM_025.jpg
501.131	1.112	correct	incongruent	Block1	incongruent/STIM_025.jpg
505.621	0.923	correct	incongruent	Block1	incongruent/STIM_025.jpg
510.159	1.026	incorrect	incongruent	Block1	incongruent/STIM_026.jpg
514.71	0.814	correct	incongruent	Block1	incongruent/STIM_026.jpg
518.209	1.012	correct	incongruent	Block1	incongruent/STIM_026.jpg
521.66	0.615	correct	incongruent	Block1	incongruent/STIM_026.jpg
525.327	0.603	correct	incongruent	Block1	incongruent/STIM_026.jpg
528.444	1.148	correct	incongruent	Block1	incongruent/STIM_027.jpg
533.003	0.649	correct	incongruent	Block1	incongruent/STIM_027.jpg
537.299	1.11	incorrect	incongruent	Block1	incongruent/STIM_027.jpg
540.441	1.186	incorrect	incongruent	Block1	incongruent/STIM_027.jpg
543.813	0.81	correct	incongruent	Block1	incongruent/STIM_027.jpg
547.257	1.305	correct	incongruent	Block1	incongruent/STIM_028.jpg
551.179	1.283	correct	incongruent	Block1	incongruent/STIM_028.jpg
554.488	0.986	correct	incongruent	Block1	incongruent/STIM_028.jpg
559.236	0.913	incorrect	incongruent	Block1	incongruent/STIM_028.jpg
562.279	0.897	correct	incongruent	Block1	incongruent/STIM_028.jpg
566.758	1.058	correct	incongruent	Block1	incongruent/STIM_029.jpg
571.464	1.109	correct	incongruent	Block1	incongruent/STIM_029.jpg
576.263	0.689	incorrect	incongruent	Block1	incongruent/STIM_029.jpg
579.608	0.985	correct	incongruent	Block1	incongruent/STIM_029.jpg
584.019	0.55	incorrect	incongruent	Block1	incongruent/STIM_029.jpg
586.877	0.827	correct	congruent	Block1	congruent/STIM_000.jpg
591.62	0.861	incorrect	congruent	Block1	congruent/STIM_000.jpg
595.166	0.625	correct	congruent	Block1	congruent/STIM_000.jpg
599.582	0.756	correct	congruent	Block1	congruent/STIM_000.jpg
603.843	0.706	correct	congruent	Block1	congruent/STIM_000.jpg
606.979	0.557	incorrect	congruent	Block1	congruent/STIM_001.jpg
609.927	0.716	correct	congruent	Block1	congruent/STIM_001.jpg
613.92	0.696	correct	congruent	Block1	congruent/STIM_001.jpg
616.756	0.822	incorrect	congruent	Block1	congruent/STIM_001.jpg
620.043	0.622	correct	congruent	Block1	congruent/STIM_001.jpg
623.404	0.686	incorrect	congruent	Block1	congruent/STIM_002.jpg
626.393	0.676	correct	congruent	Block1	congruent/STIM_002.jpg
629.547	0.564	correct	congruent	Block1	congruent/STIM_002.jpg
632.205	0.666	incorrect	congruent	Block1	congruent/STIM_002.jpg
634.984	0.746	correct	congruent	Block1	congruent/STIM_002.jpg
638.681	0.836	correct	congruent	Block1	congruent/STIM_003.jpg
643.421	0.713	incorrect	congruent	Block1	congruent/STIM_003.jpg
646.342	0.812	correct	congruent	Block1	congruent/STIM_003.jpg
649.426	0.796	correct	congruent	Block1	congruent/STIM_003.jpg
653.994	0.679	correct	congruent	Block1	congruent/STIM_003.jpg
658.157	0.499	correct	congruent	Block1	congruent/STIM_004.jpg
661.127	0.526	incorrect	congruent	Block1	congruent/STIM_004.jpg
665.32	0.495	correct	congruent	Block1	congruent/STIM_004.jpg
668.232	0.715	correct	congruent	Block1	congruent/STIM_004.jpg
672.667	0.816	correct	congruent	Block1	congruent/STIM_004.jpg
675.87	0.714	correct	congruent	Block1	congruent/STIM_005.jpg
680.54	0.485	correct	congruent	Block1	congruent/STIM_005.jpg
683.735	0.523	correct	congruent	Block1	congruent/STIM_005.jpg
688.246	0.801	correct	congruent	Block1	congruent/STIM_005.jpg
691.5	0.818	correct	congruent	Block1	congruent/STIM_005.jpg
694.324	0.814	incorrect	congruent	Block1	congruent/STIM_006.jpg
697.599	0.803	correct	congruent	Block1	congruent/STIM_006.jpg
700.71	0.852	correct	congruent	Block1	congruent/STIM_006.jpg
704.379	0.564	correct	congruent	Block1	congruent/STIM_006.jpg
707.462	0.713	correct	congruent	Block1	congruent/STIM_006.jpg
711.237	0.73	incorrect	congruent	Block1	congruent/STIM_007.jpg
714.046	0.657	incorrect	congruent	Block1	congruent/STIM_007.jpg
716.905	0.791	correct	congruent	Block1	congruent/STIM_007.jpg
720.988	0.807	correct	congruent	Block1	congruent/STIM_007.jpg
723.814	0.73	correct	congruent	Block1	congruent/STIM_007.jpg
727.257	0.814	correct	congruent	Block1	congruent/STIM_008.jpg
731.975	0.708	correct	congruent	Block1	congruent/STIM_008.jpg
736.636	0.579	correct	congruent	Block1	congruent/STIM_008.jpg
741.044	0.786	correct	congruent	Block1	congruent/STIM_008.jpg
744.585	0.812	correct	congruent	Block1	congruent/STIM_008.jpg
748.012	0.682	correct	congruent	Block1	congruent/STIM_009.jpg
752.596	0.75	incorrect	congruent	Block1	congruent/STIM_009.jpg
756.918	0.621	incorrect	congruent	Block1	congruent/STIM_009.jpg
759.567	0.553	incorrect	congruent	Block1	congruent/STIM_009.jpg
762.402	0.78	incorrect	congruent	Block1	congruent/STIM_009.jpg
765.278	0.656	correct	congruent	Block1	congruent/STIM_010.jpg
769.832	0.78	correct	congruent	Block1	congruent/STIM_010.jpg
774.456	0.627	correct	congruent	Block1	congruent/STIM_010.jpg
778.316	0.508	correct	congruent	Block1	congruent/STIM_010.jpg
782.128	0.848	incorrect	congruent	Block1	congruent/STIM_010.jpg
786.906	0.481	correct	congruent	Block1	congruent/STIM_011.jpg
789.996	0.83	correct	congruent	Block1	congruent/STIM_011.jpg
794.749	0.62	correct	congruent	Block1	congruent/STIM_011.jpg
798.735	0.53	correct	congruent	Block1	congruent/STIM_011.jpg
802.229	0.571	incorrect	congruent	Block1	congruent/STIM_011.jpg
804.82	0.558	correct	congruent	Block1	congruent/STIM_012.jpg
808.058	0.523	correct	congruent	Block1	congruent/STIM_012.jpg
811.816	0.613	correct	congruent	Block1	congruent/STIM_012.jpg
814.502	0.666	correct	congruent	Block1	congruent/STIM_012.jpg
818.546	0.825	correct	congruent	Block1	congruent/STIM_012.jpg
823.196	0.814	incorrect	congruent	Block1	congruent/STIM_013.jpg
826.732	0.543	correct	congruent	Block1	congruent/STIM_013.jpg
829.336	0.559	correct	congruent	Block1	congruent/STIM_013.jpg
833.399	0.718	correct	congruent	Block1	congruent/STIM_013.jpg
837.932	0.572	correct	congruent	Block1	congruent/STIM_013.jpg
841.408	0.661	correct	congruent	Block1	congruent/STIM_014.jpg
845.408	0.71	correct	congruent	Block1	congruent/STIM_014.jpg
848.47	0.656	correct	congruent	Block1	congruent/STIM_014.jpg
853.12	0.821	correct	congruent	Block1	congruent/STIM_014.jpg
857.257	0.733	correct	congruent	Block1	congruent/STIM_014.jpg
860.881	0.73	correct	congruent	Block1	congruent/STIM_015.jpg
863.958	0.742	incorrect	congruent	Block1	congruent/STIM_015.jpg
868.604	0.661	correct	congruent	Block1	congruent/STIM_015.jpg
871.828	0.667	incorrect	congruent	Block1	congruent/STIM_015.jpg
876.42	0.71	incorrect	congruent	Block1	congruent/STIM_015.jpg
880.061	0.765	correct	congruent	Block1	congruent/STIM_016.jpg
883.204	0.826	correct	congruent	Block1	congruent/STIM_016.jpg
887.325	0.783	correct	congruent	Block1	congruent/STIM_016.jpg
891.37	0.776	correct	congruent	Block1	congruent/STIM_016.jpg
894.751	0.754	correct	congruent	Block1	congruent/STIM_016.jpg
897.782	0.861	correct	congruent	Block1	congruent/STIM_017.jpg
902.362	0.774	correct	congruent	Block1	congruent/STIM_017.jpg
906.652	0.571	correct	congruent	Block1	congruent/STIM_017.jpg
910.783	0.774	correct	congruent	Block1	congruent/STIM_017.jpg
914.752	0.549	correct	congruent	Block1	congruent/STIM_017.jpg
918.154	0.852	correct	congruent	Block1	congruent/STIM_018.jpg
922.544	0.752	incorrect	congruent	Block1	congruent/STIM_018.jpg
927.153	0.52	correct	congruent	Block1	congruent/STIM_018.jpg
931.094	0.566	correct	congruent	Block1	congruent/STIM_018.jpg
935.643	0.854	incorrect	congruent	Block1	congruent/STIM_018.jpg
938.57	0.744	correct	congruent	Block1	congruent/STIM_019.jpg
943.014	0.562	correct	congruent	Block1	congruent/STIM_019.jpg
946.924	0.646	correct	congruent	Block1	congruent/STIM_019.jpg
951.433	0.819	correct	congruent	Block1	congruent/STIM_019.jpg
954.602	0.675	incorrect	congruent	Block1	congruent/STIM_019.jpg
957.982	0.842	correct	congruent	Block1	congruent/STIM_020.jpg
962.739	0.533	correct	congruent	Block1	congruent/STIM_020.jpg
966.778	0.709	correct	congruent	Block1	congruent/STIM_020.jpg
970.026	0.694	correct	congruent	Block1	congruent/STIM_020.jpg
973.393	0.722	incorrect	congruent	Block1	congruent/STIM_020.jpg
977.882	0.738	correct	congruent	Block1	congruent/STIM_021.jpg
982.145	0.72	correct	congruent	Block1	congruent/STIM_021.jpg
985.848	0.662	correct	congruent	Block1	congruent/STIM_021.jpg
990.255	0.529	incorrect	congruent	Block1	congruent/STIM_021.jpg
993.992	0.59	correct	congruent	Block1	congruent/STIM_021.jpg
997.02	0.666	incorrect	congruent	Block1	congruent/STIM_022.jpg
999.809	0.684	correct	congruent	Block1	congruent/STIM_022.jpg
1003.22	0.615	incorrect	congruent	Block1	congruent/STIM_022.jpg
1006.468	0.858	correct	congruent	Block1	congruent/STIM_022.jpg
1010.542	0.741	incorrect	congruent	Block1	congruent/STIM_022.jpg
1014.255	0.702	correct	congruent	Block1	congruent/STIM_023.jpg
1018.824	0.746	correct	congruent	Block1	congruent/STIM_023.jpg
1022.134	0.748	correct	congruent	Block1	congruent/STIM_023.jpg
1026.838	0.596	correct	congruent	Block1	congruent/STIM_023.jpg
1030.469	0.783	correct	congruent	Block1	congruent/STIM_023.jpg
1034.187	0.565	correct	congruent	Block1	congruent/STIM_024.jpg
1037.745	0.634	correct	congruent	Block1	congruent/STIM_024.jpg
1042.278	0.671	incorrect	congruent	Block1	congruent/STIM_024.jpg
1046.477	0.632	correct	congruent	Block1	congruent/STIM_024.jpg
1050.851	0.485	correct	congruent	Block1	congruent/STIM_024.jpg
1054.678	0.685	correct	congruent	Block1	congruent/STIM_025.jpg
1058.39	0.494	correct	congruent	Block1	congruent/STIM_025.jpg
1061.702	0.838	correct	congruent	Block1	congruent/STIM_025.jpg
1066.478	0.482	correct	congruent	Block1	congruent/STIM_025.jpg
1069.25	0.785	incorrect	congruent	Block1	congruent/STIM_025.jpg
1073.346	0.628	correct	congruent	Block1	congruent/STIM_026.jpg
1077.686	0.665	correct	congruent	Block1	congruent/STIM_026.jpg
1081.291	0.762	incorrect	congruent	Block1	congruent/STIM_026.jpg
1084.974	0.733	correct	congruent	Block1	congruent/STIM_026.jpg
1089.379	0.592	incorrect	congruent	Block1	congruent/STIM_026.jpg
1092.814	0.48	correct	congruent	Block1	congruent/STIM_027.jpg
1096.958	0.542	incorrect	congruent	Block1	congruent/STIM_027.jpg
1100.609	0.608	incorrect	congruent	Block1	congruent/STIM_027.jpg
1104.69	0.671	incorrect	congruent	Block1	congruent/STIM_027.jpg
1107.678	0.574	correct	congruent	Block1	congruent/STIM_027.jpg
1110.941	0.858	correct	congruent	Block1	congruent/STIM_028.jpg
1114.309	0.792	correct	congruent	Block1	congruent/STIM_028.jpg
1118.73	0.816	incorrect	congruent	Block1	congruent/STIM_028.jpg
1122.387	0.811	correct	congruent	Block1	congruent/STIM_028.jpg
1126.572	0.858	incorrect	congruent	Block1	congruent/STIM_028.jpg
1130.372	0.702	incorrect	congruent	Block1	congruent/STIM_029.jpg
1133.933	0.794	incorrect	congruent	Block1	congruent/STIM_029.jpg
1138.43	0.75	correct	congruent	Block1	congruent/STIM_029.jpg
1142.595	0.74	correct	congruent	Block1	congruent/STIM_029.jpg
1146.88	0.837	correct	congruent	Block1	congruent/STIM_029.jpg
1151.27	0.689	correct	incongruent	Block2	incongruent/STIM_000.jpg
1154.301	0.655	correct	incongruent	Block2	incongruent/STIM_000.jpg
1158.173	0.801	correct	incongruent	Block2	incongruent/STIM_000.jpg
1162.032	0.971	correct	incongruent	Block2	incongruent/STIM_000.jpg
1166.605	0.926	correct	incongruent	Block2	incongruent/STIM_000.jpg
1169.97	0.786	incorrect	incongruent	Block2	incongruent/STIM_001.jpg
1173.032	0.891	correct	incongruent	Block2	incongruent/STIM_001.jpg
1177.067	0.799	correct	incongruent	Block2	incongruent/STIM_001.jpg
1181.065	0.576	correct	incongruent	Block2	incongruent/STIM_001.jpg
1184.837	0.875	correct	incongruent	Block2	incongruent/STIM_001.jpg
1188.527	1.055	correct	incongruent	Block2	incongruent/STIM_002.jpg
1192.502	0.554	correct	incongruent	Block2	incongruent/STIM_002.jpg
1195.848	1.061	correct	incongruent	Block2	incongruent/STIM_002.jpg
1200.225	0.822	correct	incongruent	Block2	incongruent/STIM_002.jpg
1203.483	0.799	correct	incongruent	Block2	incongruent/STIM_002.jpg
1207.109	1.057	incorrect	incongruent	Block2	incongruent/STIM_003.jpg
1211.394	0.811	correct	incongruent	Block2	incongruent/STIM_003.jpg
1215.852	1.064	correct	incongruent	Block2	incongruent/STIM_003.jpg
1219.3	0.669	correct	incongruent	Block2	incongruent/STIM_003.jpg
1222.523	0.855	incorrect	incongruent	Block2	incongruent/STIM_003.jpg
1226.424	1.039	correct	incongruent	Block2	incongruent/STIM_004.jpg
1230.628	0.973	correct	incongruent	Block2	incongruent/STIM_004.jpg
1234.645	0.974	correct	incongruent	Block2	incongruent/STIM_004.jpg
1238.007	0.866	correct	incongruent	Block2	incongruent/STIM_004.jpg
1241.34	0.518	correct	incongruent	Block2	incongruent/STIM_004.jpg
1243.963	1.069	incorrect	incongruent	Block2	incongruent/STIM_005.jpg
1248.228	0.745	correct	incongruent	Block2	incongruent/STIM_005.jpg
1252.165	0.879	correct	incongruent	Block2	incongruent/STIM_005.jpg
1256.463	0.825	incorrect	incongruent	Block2	incongruent/STIM_005.jpg
1260.582	0.49	correct	incongruent	Block2	incongruent/STIM_005.jpg
1263.677	0.705	correct	incongruent	Block2	incongruent/STIM_006.jpg
1267.675	1.067	correct	incongruent	Block2	incongruent/STIM_006.jpg
1271.102	0.73	correct	incongruent	Block2	incongruent/STIM_006.jpg
1275.553	0.897	correct	incongruent	Block2	incongruent/STIM_006.jpg
1280.2	0.978	correct	incongruent	Block2	incongruent/STIM_006.jpg
1284.117	1.204	incorrect	incongruent	Block2	incongruent/STIM_007.jpg
1287.835	1.043	correct	incongruent	Block2	incongruent/STIM_007.jpg
1292.522	0.699	incorrect	incongruent	Block2	incongruent/STIM_007.jpg
1295.605	0.849	correct	incongruent	Block2	incongruent/STIM_007.jpg
1300.398	0.52	correct	incongruent	Block2	incongruent/STIM_007.jpg
1303.77	0.574	correct	incongruent	Block2	incongruent/STIM_008.jpg
1307.858	1.102	correct	incongruent	Block2	incongruent/STIM_008.jpg
1312.942	0.714	correct	incongruent	Block2	incongruent/STIM_008.jpg
1316.697	0.854	correct	incongruent	Block2	incongruent/STIM_008.jpg
1320.95	0.967	correct	incongruent	Block2	incongruent/STIM_008.jpg
1324.431	0.586	correct	incongruent	Block2	incongruent/STIM_009.jpg
1327.822	0.732	incorrect	incongruent	Block2	incongruent/STIM_009.jpg
1331.474	0.527	correct	incongruent	Block2	incongruent/STIM_009.jpg
1334.205	0.856	correct	incongruent	Block2	incongruent/STIM_009.jpg
1337.346	0.931	correct	incongruent	Block2	incongruent/STIM_009.jpg
1340.52	0.826	correct	incongruent	Block2	incongruent/STIM_010.jpg
1343.859	0.974	correct	incongruent	Block2	incongruent/STIM_010.jpg
1347.675	0.917	correct	incongruent	Block2	incongruent/STIM_010.jpg
1350.791	0.863	correct	incongruent	Block2	incongruent/STIM_010.jpg
1354.952	0.596	correct	incongruent	Block2	incongruent/STIM_010.jpg
1359.532	0.833	correct	incongruent	Block2	incongruent/STIM_011.jpg
1363.796	0.612	correct	incongruent	Block2	incongruent/STIM_011.jpg
1366.769	0.522	correct	incongruent	Block2	incongruent/STIM_011.jpg
1370.592	0.643	correct	incongruent	Block2	incongruent/STIM_011.jpg
1374.992	0.522	correct	incongruent	Block2	incongruent/STIM_011.jpg
1379.059	0.716	correct	incongruent	Block2	incongruent/STIM_012.jpg
1383.42	0.608	correct	incongruent	Block2	incongruent/STIM_012.jpg
1386.634	0.925	correct	incongruent	Block2	incongruent/STIM_012.jpg
1390.648	0.762	correct	incongruent	Block2	incongruent/STIM_012.jpg
1393.706	0.58	correct	incongruent	Block2	incongruent/STIM_012.jpg
1396.46	1.185	correct	incongruent	Block2	incongruent/STIM_013.jpg
1401.211	0.625	correct	incongruent	Block2	incongruent/STIM_013.jpg
1405.505	0.905	correct	incongruent	Block2	incongruent/STIM_013.jpg
1409.347	0.478	correct	incongruent	Block2	incongruent/STIM_013.jpg
1412.754	0.888	correct	incongruent	Block2	incongruent/STIM_013.jpg
1416.117	0.77	correct	incongruent	Block2	incongruent/STIM_014.jpg
1419.161	0.928	incorrect	incongruent	Block2	incongruent/STIM_014.jpg
1422.274	0.914	incorrect	incongruent	Block2	incongruent/STIM_014.jpg
1425.991	0.838	correct	incongruent	Block2	incongruent/STIM_014.jpg
1429.854	0.747	correct	incongruent	Block2	incongruent/STIM_014.jpg
1433.761	0.585	correct	incongruent	Block2	incongruent/STIM_015.jpg
1436.82	0.785	correct	incongruent	Block2	incongruent/STIM_015.jpg
1441.403	1.035	correct	incongruent	Block2	incongruent/STIM_015.jpg
1445.755	0.933	correct	incongruent	Block2	incongruent/STIM_015.jpg
1450.279	0.978	incorrect	incongruent	Block2	incongruent/STIM_015.jpg
1455.056	1.194	correct	incongruent	Block2	incongruent/STIM_016.jpg
1459.311	0.858	correct	incongruent	Block2	incongruent/STIM_016.jpg
1463.633	0.614	correct	incongruent	Block2	incongruent/STIM_016.jpg
1468.096	0.819	correct	incongruent	Block2	incongruent/STIM_016.jpg
1471.735	0.606	correct	incongruent	Block2	incongruent/STIM_016.jpg
1474.827	0.99	incorrect	incongruent	Block2	incongruent/STIM_017.jpg
1478.221	0.822	correct	incongruent	Block2	incongruent/STIM_017.jpg
1482.879	0.555	correct	incongruent	Block2	incongruent/STIM_017.jpg
1486.502	0.505	correct	incongruent	Block2	incongruent/STIM_017.jpg
1490.41	0.542	correct	incongruent	Block2	incongruent/STIM_017.jpg
1493.951	0.769	correct	incongruent	Block2	incongruent/STIM_018.jpg
1497.759	0.668	correct	incongruent	Block2	incongruent/STIM_018.jpg
1502.156	1.037	correct	incongruent	Block2	incongruent/STIM_018.jpg
1506.328	0.686	correct	incongruent	Block2	incongruent/STIM_018.jpg
1510.537	0.687	incorrect	incongruent	Block2	incongruent/STIM_018.jpg
1514.918	1.171	correct	incongruent	Block2	incongruent/STIM_019.jpg
1518.623	1.06	correct	incongruent	Block2	incongruent/STIM_019.jpg
1523.601	0.926	correct	incongruent	Block2	incongruent/STIM_019.jpg
1527.416	1.004	correct	incongruent	Block2	incongruent/STIM_019.jpg
1530.787	0.523	correct	incongruent	Block2	incongruent/STIM_019.jpg
1533.524	0.836	correct	incongruent	Block2	incongruent/STIM_020.jpg
1536.422	1.086	incorrect	incongruent	Block2	incongruent/STIM_020.jpg
1541.301	0.958	incorrect	incongruent	Block2	incongruent/STIM_020.jpg
1545.224	0.908	correct	incongruent	Block2	incongruent/STIM_020.jpg
1548.752	0.685	incorrect	incongruent	Block2	incongruent/STIM_020.jpg
1552.389	0.661	correct	incongruent	Block2	incongruent/STIM_021.jpg
1555.09	0.551	correct	incongruent	Block2	incongruent/STIM_021.jpg
1558.36	1.025	incorrect	incongruent	Block2	incongruent/STIM_021.jpg
1562.937	0.528	correct	incongruent	Block2	incongruent/STIM_021.jpg
1567.214	0.561	correct	incongruent	Block2	incongruent/STIM_021.jpg
1571.391	0.677	incorrect	incongruent	Block2	incongruent/STIM_022.jpg
1575.211	1.148	incorrect	incongruent	Block2	incongruent/STIM_022.jpg
1578.989	0.508	correct	incongruent	Block2	incongruent/STIM_022.jpg
1583.117	0.942	correct	incongruent	Block2	incongruent/STIM_022.jpg
1586.088	0.655	correct	incongruent	Block2	incongruent/STIM_022.jpg
1589.518	1.102	correct	incongruent	Block2	incongruent/STIM_023.jpg
1592.996	0.667	correct	incongruent	Block2	incongruent/STIM_023.jpg
1597.498	0.584	correct	incongruent	Block2	incongruent/STIM_023.jpg
1601.282	1.001	correct	incongruent	Block2	incongruent/STIM_023.jpg
1604.948	0.796	correct	incongruent	Block2	incongruent/STIM_023.jpg
1608.906	0.753	correct	incongruent	Block2	incongruent/STIM_024.jpg
1613.405	1.061	correct	incongruent	Block2	incongruent/STIM_024.jpg
1617.03	0.999	incorrect	incongruent	Block2	incongruent/STIM_024.jpg
1620.207	0.793	correct	incongruent	Block2	incongruent/STIM_024.jpg
1623.383	0.683	correct	incongruent	Block2	incongruent/STIM_024.jpg
1626.068	0.651	correct	incongruent	Block2	incongruent/STIM_025.jpg
1628.869	1.061	correct	incongruent	Block2	incongruent/STIM_025.jpg
1632.782	0.845	correct	incongruent	Block2	incongruent/STIM_025.jpg
1636.179	0.943	incorrect	incongruent	Block2	incongruent/STIM_025.jpg
1640.496	0.505	incorrect	incongruent	Block2	incongruent/STIM_025.jpg
1643.644	0.572	incorrect	incongruent	Block2	incongruent/STIM_026.jpg
1647.85	0.946	correct	incongruent	Block2	incongruent/STIM_026.jpg
1651.946	0.751	correct	incongruent	Block2	incongruent/STIM_026.jpg
1656.397	0.988	correct	incongruent	Block2	incongruent/STIM_026.jpg
1661.304	0.658	correct	incongruent	Block2	incongruent/STIM_026.jpg
1665.19	0.83	correct	incongruent	Block2	incongruent/STIM_027.jpg
1668.285	0.675	correct	incongruent	Block2	incongruent/STIM_027.jpg
1672.204	0.689	correct	incongruent	Block2	incongruent/STIM_027.jpg
1675.523	0.801	incorrect	incongruent	Block2	incongruent/STIM_027.jpg
1680.173	0.504	correct	incongruent	Block2	incongruent/STIM_027.jpg
1683.458	1.019	incorrect	incongruent	Block2	incongruent/STIM_028.jpg
1686.872	0.964	correct	incongruent	Block2	incongruent/STIM_028.jpg
1691.224	0.832	correct	incongruent	Block2	incongruent/STIM_028.jpg
1694.929	0.629	correct	incongruent	Block2	incongruent/STIM_028.jpg
1697.674	0.501	correct	incongruent	Block2	incongruent/STIM_028.jpg
1702.049	0.944	incorrect	incongruent	Block2	incongruent/STIM_029.jpg
1705.576	0.878	correct	incongruent	Block2	incongruent/STIM_029.jpg
1710.295	0.803	correct	incongruent	Block2	incongruent/STIM_029.jpg
1713.491	0.676	correct	incongruent	Block2	incongruent/STIM_029.jpg
1717.202	0.635	correct	incongruent	Block2	incongruent/STIM_029.jpg
1721.504	0.76	correct	congruent	Block2	congruent/STIM_000.jpg
1726.023	0.803	correct	congruent	Block2	congruent/STIM_000.jpg
1730.464	0.85	correct	congruent	Block2	congruent/STIM_000.jpg
1734.411	0.525	incorrect	congruent	Block2	congruent/STIM_000.jpg
1738.099	0.679	correct	congruent	Block2	congruent/STIM_000.jpg
1741.596	0.652	correct	congruent	Block2	congruent/STIM_001.jpg
1744.299	0.652	correct	congruent	Block2	congruent/STIM_001.jpg
1748.598	0.754	correct	congruent	Block2	congruent/STIM_001.jpg
1752.384	0.672	correct	congruent	Block2	congruent/STIM_001.jpg
1755.16	0.494	incorrect	congruent	Block2	congruent/STIM_001.jpg
1759.095	0.783	correct	congruent	Block2	congruent/STIM_002.jpg
1762.697	0.542	correct	congruent	Block2	congruent/STIM_002.jpg
1765.734	0.529	incorrect	congruent	Block2	congruent/STIM_002.jpg
1768.457	0.612	correct	congruent	Block2	congruent/STIM_002.jpg
1771.786	0.497	incorrect	congruent	Block2	congruent/STIM_002.jpg
1775.248	0.678	correct	congruent	Block2	congruent/STIM_003.jpg
1778.438	0.546	incorrect	congruent	Block2	congruent/STIM_003.jpg
1782.63	0.527	correct	congruent	Block2	congruent/STIM_003.jpg
1785.256	0.84	correct	congruent	Block2	congruent/STIM_003.jpg
1789.96	0.626	correct	congruent	Block2	congruent/STIM_003.jpg
1794.219	0.719	correct	congruent	Block2	congruent/STIM_004.jpg
1798.038	0.482	incorrect	congruent	Block2	congruent/STIM_004.jpg
1801.703	0.797	correct	congruent	Block2	congruent/STIM_004.jpg
1805.934	0.758	correct	congruent	Block2	congruent/STIM_004.jpg
1809.777	0.745	correct	congruent	Block2	congruent/STIM_004.jpg
1813.561	0.598	correct	congruent	Block2	congruent/STIM_005.jpg
1817.959	0.794	correct	congruent	Block2	congruent/STIM_005.jpg
1821.873	0.495	incorrect	congruent	Block2	congruent/STIM_005.jpg
1826.067	0.743	correct	congruent	Block2	congruent/STIM_005.jpg
1829.222	0.828	incorrect	congruent	Block2	congruent/STIM_005.jpg
1834.024	0.798	correct	congruent	Block2	congruent/STIM_006.jpg
1838.333	0.698	correct	congruent	Block2	congruent/STIM_006.jpg
1841.544	0.693	correct	congruent	Block2	congruent/STIM_006.jpg
1845.135	0.624	incorrect	congruent	Block2	congruent/STIM_006.jpg
1849.536	0.788	correct	congruent	Block2	congruent/STIM_006.jpg
1853.136	0.564	correct	congruent	Block2	congruent/STIM_007.jpg
1857.323	0.824	correct	congruent	Block2	congruent/STIM_007.jpg
1860.174	0.744	incorrect	congruent	Block2	congruent/STIM_007.jpg
1864.004	0.758	correct	congruent	Block2	congruent/STIM_007.jpg
1868.375	0.563	incorrect	congruent	Block2	congruent/STIM_007.jpg
1871.163	0.826	correct	congruent	Block2	congruent/STIM_008.jpg
1875.319	0.572	incorrect	congruent	Block2	congruent/STIM_008.jpg
1879.16	0.619	correct	congruent	Block2	congruent/STIM_008.jpg
1881.91	0.517	correct	congruent	Block2	congruent/STIM_008.jpg
1885.646	0.493	correct	congruent	Block2	congruent/STIM_008.jpg
1888.202	0.622	correct	congruent	Block2	congruent/STIM_009.jpg
1892.66	0.503	correct	congruent	Block2	congruent/STIM_009.jpg
1895.729	0.613	correct	congruent	Block2	congruent/STIM_009.jpg
1898.357	0.681	correct	congruent	Block2	congruent/STIM_009.jpg
1902.94	0.598	incorrect	congruent	Block2	congruent/STIM_009.jpg
1906.619	0.544	correct	congruent	Block2	congruent/STIM_010.jpg
1910.217	0.815	correct	congruent	Block2	congruent/STIM_010.jpg
1914.616	0.65	correct	congruent	Block2	congruent/STIM_010.jpg
1917.322	0.562	correct	congruent	Block2	congruent/STIM_010.jpg
1921.323	0.807	incorrect	congruent	Block2	congruent/STIM_010.jpg
1925.136	0.765	incorrect	congruent	Block2	congruent/STIM_011.jpg
1928.156	0.533	correct	congruent	Block2	congruent/STIM_011.jpg
1931.879	0.81	incorrect	congruent	Block2	congruent/STIM_011.jpg
1936.388	0.786	correct	congruent	Block2	congruent/STIM_011.jpg
1940.807	0.596	correct	congruent	Block2	congruent/STIM_011.jpg
1944.158	0.852	correct	congruent	Block2	congruent/STIM_012.jpg
1947.685	0.63	correct	congruent	Block2	congruent/STIM_012.jpg
1950.47	0.511	correct	congruent	Block2	congruent/STIM_012.jpg
1953.222	0.751	correct	congruent	Block2	congruent/STIM_012.jpg
1957.126	0.659	correct	congruent	Block2	congruent/STIM_012.jpg
1960.286	0.728	correct	congruent	Block2	congruent/STIM_013.jpg
1963.437	0.684	correct	congruent	Block2	congruent/STIM_013.jpg
1967.323	0.506	correct	congruent	Block2	congruent/STIM_013.jpg
1970.852	0.747	correct	congruent	Block2	congruent/STIM_013.jpg
1974.603	0.744	correct	congruent	Block2	congruent/STIM_013.jpg
1978.381	0.792	incorrect	congruent	Block2	congruent/STIM_014.jpg
1982.005	0.583	correct	congruent	Block2	congruent/STIM_014.jpg
1985.24	0.492	correct	congruent	Block2	congruent/STIM_014.jpg
1989.424	0.715	correct	congruent	Block2	congruent/STIM_014.jpg
1993.386	0.588	correct	congruent	Block2	congruent/STIM_014.jpg
1996.261	0.624	incorrect	congruent	Block2	congruent/STIM_015.jpg
1999.399	0.827	correct	congruent	Block2	congruent/STIM_015.jpg
2002.621	0.664	correct	congruent	Block2	congruent/STIM_015.jpg
2006.723	0.604	correct	congruent	Block2	congruent/STIM_015.jpg
2011.218	0.63	correct	congruent	Block2	congruent/STIM_015.jpg
2014.545	0.549	correct	congruent	Block2	congruent/STIM_016.jpg
2018.267	0.818	correct	congruent	Block2	congruent/STIM_016.jpg
2021.599	0.796	incorrect	congruent	Block2	congruent/STIM_016.jpg
2025.398	0.565	correct	congruent	Block2	congruent/STIM_016.jpg
2028.756	0.568	correct	congruent	Block2	congruent/STIM_016.jpg
2033.087	0.504	incorrect	congruent	Block2	congruent/STIM_017.jpg
2036.728	0.677	correct	congruent	Block2	congruent/STIM_017.jpg
2039.596	0.643	correct	congruent	Block2	congruent/STIM_017.jpg
2043.674	0.537	correct	congruent	Block2	congruent/STIM_017.jpg
2047.789	0.726	correct	congruent	Block2	congruent/STIM_017.jpg
2051.86	0.855	correct	congruent	Block2	congruent/STIM_018.jpg
2055.762	0.567	incorrect	congruent	Block2	congruent/STIM_018.jpg
2059.691	0.808	correct	congruent	Block2	congruent/STIM_018.jpg
2063.018	0.534	correct	congruent	Block2	congruent/STIM_018.jpg
2067.173	0.558	correct	congruent	Block2	congruent/STIM_018.jpg
2070.626	0.749	incorrect	congruent	Block2	congruent/STIM_019.jpg
2073.916	0.56	correct	congruent	Block2	congruent/STIM_019.jpg
2078.212	0.519	incorrect	congruent	Block2	congruent/STIM_019.jpg
2082.174	0.655	incorrect	congruent	Block2	congruent/STIM_019.jpg
2086.474	0.797	correct	congruent	Block2	congruent/STIM_019.jpg
2090.134	0.538	incorrect	congruent	Block2	congruent/STIM_020.jpg
2093.569	0.697	correct	congruent	Block2	congruent/STIM_020.jpg
2097.747	0.589	correct	congruent	Block2	congruent/STIM_020.jpg
2101.326	0.575	correct	congruent	Block2	congruent/STIM_020.jpg
2104.904	0.624	correct	congruent	Block2	congruent/STIM_020.jpg
2109.272	0.696	incorrect	congruent	Block2	congruent/STIM_021.jpg
2112.166	0.782	correct	congruent	Block2	congruent/STIM_021.jpg
2115.641	0.624	correct	congruent	Block2	congruent/STIM_021.jpg
2118.296	0.76	correct	congruent	Block2	congruent/STIM_021.jpg
2121.304	0.814	correct	congruent	Block2	congruent/STIM_021.jpg
2124.768	0.52	incorrect	congruent	Block2	congruent/STIM_022.jpg
2128.271	0.531	correct	congruent	Block2	congruent/STIM_022.jpg
2132.078	0.637	correct	congruent	Block2	congruent/STIM_022.jpg
2135.31	0.596	incorrect	congruent	Block2	congruent/STIM_022.jpg
2138.814	0.624	incorrect	congruent	Block2	congruent/STIM_022.jpg
2142.798	0.693	incorrect	congruent	Block2	congruent/STIM_023.jpg
2145.979	0.678	correct	congruent	Block2	congruent/STIM_023.jpg
2150.284	0.793	correct	congruent	Block2	congruent/STIM_023.jpg
2154.548	0.701	incorrect	congruent	Block2	congruent/STIM_023.jpg
2157.468	0.537	incorrect	congruent	Block2	congruent/STIM_023.jpg
2161.027	0.691	correct	congruent	Block2	congruent/STIM_024.jpg
2163.736	0.852	correct	congruent	Block2	congruent/STIM_024.jpg
2166.905	0.682	correct	congruent	Block2	congruent/STIM_024.jpg
2169.844	0.828	correct	congruent	Block2	congruent/STIM_024.jpg
2173.392	0.738	correct	congruent	Block2	congruent/STIM_024.jpg
2177.344	0.595	correct	congruent	Block2	congruent/STIM_025.jpg
2180.381	0.526	correct	congruent	Block2	congruent/STIM_025.jpg
2184.505	0.555	incorrect	congruent	Block2	congruent/STIM_025.jpg
2188.817	0.764	incorrect	congruent	Block2	congruent/STIM_025.jpg
2193.473	0.739	incorrect	congruent	Block2	congruent/STIM_025.jpg
2197.54	0.751	correct	congruent	Block2	congruent/STIM_026.jpg
2201.724	0.636	incorrect	congruent	Block2	congruent/STIM_026.jpg
2206.092	0.792	correct	congruent	Block2	congruent/STIM_026.jpg
2210.422	0.531	correct	congruent	Block2	congruent/STIM_026.jpg
2213.616	0.856	correct	congruent	Block2	congruent/STIM_026.jpg
2217.014	0.574	correct	congruent	Block2	congruent/STIM_027.jpg
2221.26	0.687	correct	congruent	Block2	congruent/STIM_027.jpg
2225.191	0.816	incorrect	congruent	Block2	congruent/STIM_027.jpg
2228.93	0.723	correct	congruent	Block2	congruent/STIM_027.jpg
2232.402	0.708	incorrect	congruent	Block2	congruent/STIM_027.jpg
2236.982	0.581	incorrect	congruent	Block2	congruent/STIM_028.jpg
2241.55	0.756	correct	congruent	Block2	congruent/STIM_028.jpg
2246.106	0.766	correct	congruent	Block2	congruent/STIM_028.jpg
2249.259	0.77	correct	congruent	Block2	congruent/STIM_028.jpg
2253.853	0.645	incorrect	congruent	Block2	congruent/STIM_028.jpg
2257.646	0.738	correct	congruent	Block2	congruent/STIM_029.jpg
2261.782	0.744	correct	congruent	Block2	congruent/STIM_029.jpg
2265.273	0.524	correct	congruent	Block2	congruent/STIM_029.jpg
2267.933	0.481	correct	congruent	Block2	congruent/STIM_029.jpg
2271.61	0.844	correct	congruent	Block2	congruent/STIM_029.jpg
2274.725	0.838	correct	incongruent	Block3	incongruent/STIM_000.jpg
2278.54	0.641	correct	incongruent	Block3	incongruent/STIM_000.jpg
2282.933	0.91	incorrect	incongruent	Block3	incongruent/STIM_000.jpg
2286.89	0.57	correct	incongruent	Block3	incongruent/STIM_000.jpg
2289.464	0.68	correct	incongruent	Block3	incongruent/STIM_000.jpg
2293.02	0.915	correct	incongruent	Block3	incongruent/STIM_001.jpg
2297.422	0.56	correct	incongruent	Block3	incongruent/STIM_001.jpg
2300.281	0.586	correct	incongruent	Block3	incongruent/STIM_001.jpg
2304.838	0.949	incorrect	incongruent	Block3	incongruent/STIM_001.jpg
2309.631	0.873	incorrect	incongruent	Block3	incongruent/STIM_001.jpg
2314.301	0.888	correct	incongruent	Block3	incongruent/STIM_002.jpg
2317.249	0.891	correct	incongruent	Block3	incongruent/STIM_002.jpg
2321.316	0.6	correct	incongruent	Block3	incongruent/STIM_002.jpg
2325.192	0.677	correct	incongruent	Block3	incongruent/STIM_002.jpg
2328.809	0.682	correct	incongruent	Block3	incongruent/STIM_002.jpg
2332.719	0.551	correct	incongruent	Block3	incongruent/STIM_003.jpg
2336.685	0.816	correct	incongruent	Block3	incongruent/STIM_003.jpg
2341.308	0.812	correct	incongruent	Block3	incongruent/STIM_003.jpg
2345.337	0.482	correct	incongruent	Block3	incongruent/STIM_003.jpg
2348.077	0.76	correct	incongruent	Block3	incongruent/STIM_003.jpg
2351.648	0.837	correct	incongruent	Block3	incongruent/STIM_004.jpg
2355.659	0.629	incorrect	incongruent	Block3	incongruent/STIM_004.jpg
2359.568	0.666	correct	incongruent	Block3	incongruent/STIM_004.jpg
2364.054	0.496	correct	incongruent	Block3	incongruent/STIM_004.jpg
2367.21	0.942	incorrect	incongruent	Block3	incongruent/STIM_004.jpg
2371.212	0.619	correct	incongruent	Block3	incongruent/STIM_005.jpg
2375.584	0.688	correct	incongruent	Block3	incongruent/STIM_005.jpg
2379.878	0.692	correct	incongruent	Block3	incongruent/STIM_005.jpg
2382.732	0.968	incorrect	incongruent	Block3	incongruent/STIM_005.jpg
2386.083	0.922	correct	incongruent	Block3	incongruent/STIM_005.jpg
2390.075	0.927	correct	incongruent	Block3	incongruent/STIM_006.jpg
2393.104	0.514	correct	incongruent	Block3	incongruent/STIM_006.jpg
2396.533	0.953	correct	incongruent	Block3	incongruent/STIM_006.jpg
2401.39	0.651	correct	incongruent	Block3	incongruent/STIM_006.jpg
2405.408	0.617	correct	incongruent	Block3	incongruent/STIM_006.jpg
2409.904	0.704	correct	incongruent	Block3	incongruent/STIM_007.jpg
2413.706	0.912	correct	incongruent	Block3	incongruent/STIM_007.jpg
2418.155	0.954	correct	incongruent	Block3	incongruent/STIM_007.jpg
2421.127	0.6	correct	incongruent	Block3	incongruent/STIM_007.jpg
2425.251	0.762	correct	incongruent	Block3	incongruent/STIM_007.jpg
2428.169	0.663	correct	incongruent	Block3	incongruent/STIM_008.jpg
2432.064	0.64	correct	incongruent	Block3	incongruent/STIM_008.jpg
2436.568	0.927	correct	incongruent	Block3	incongruent/STIM_008.jpg
2439.56	0.477	incorrect	incongruent	Block3	incongruent/STIM_008.jpg
2442.684	0.515	correct	incongruent	Block3	incongruent/STIM_008.jpg
2446.845	0.956	correct	incongruent	Block3	incongruent/STIM_009.jpg
2450.122	0.933	correct	incongruent	Block3	incongruent/STIM_009.jpg
2454.786	0.661	correct	incongruent	Block3	incongruent/STIM_009.jpg
2459.22	0.931	correct	incongruent	Block3	incongruent/STIM_009.jpg
2463.971	0.508	correct	incongruent	Block3	incongruent/STIM_009.jpg
2468.378	0.742	correct	incongruent	Block3	incongruent/STIM_010.jpg
2472.833	0.515	incorrect	incongruent	Block3	incongruent/STIM_010.jpg
2476.565	0.842	correct	incongruent	Block3	incongruent/STIM_010.jpg
2479.547	0.496	correct	incongruent	Block3	incongruent/STIM_010.jpg
2483.839	0.77	correct	incongruent	Block3	incongruent/STIM_010.jpg
2487.376	0.599	incorrect	incongruent	Block3	incongruent/STIM_011.jpg
2491.294	0.91	incorrect	incongruent	Block3	incongruent/STIM_011.jpg
2495.172	0.978	correct	incongruent	Block3	incongruent/STIM_011.jpg
2499.428	0.772	correct	incongruent	Block3	incongruent/STIM_011.jpg
2503.787	0.608	correct	incongruent	Block3	incongruent/STIM_011.jpg
2507.271	0.938	correct	incongruent	Block3	incongruent/STIM_012.jpg
2510.588	0.749	correct	incongruent	Block3	incongruent/STIM_012.jpg
2514.514	0.721	correct	incongruent	Block3	incongruent/STIM_012.jpg
2518.318	0.841	correct	incongruent	Block3	incongruent/STIM_012.jpg
2521.278	0.837	correct	incongruent	Block3	incongruent/STIM_012.jpg
2525.322	0.598	correct	incongruent	Block3	incongruent/STIM_013.jpg
2529.283	0.756	correct	incongruent	Block3	incongruent/STIM_013.jpg
2533.654	0.613	correct	incongruent	Block3	incongruent/STIM_013.jpg
2537.856	0.497	incorrect	incongruent	Block3	incongruent/STIM_013.jpg
2540.613	0.539	correct	incongruent	Block3	incongruent/STIM_013.jpg
2543.683	0.883	incorrect	incongruent	Block3	incongruent/STIM_014.jpg
2547.016	0.609	correct	incongruent	Block3	incongruent/STIM_014.jpg
2551.174	0.522	correct	incongruent	Block3	incongruent/STIM_014.jpg
2554.658	0.943	correct	incongruent	Block3	incongruent/STIM_014.jpg
2558.057	0.841	correct	incongruent	Block3	incongruent/STIM_014.jpg
2562.414	0.539	incorrect	incongruent	Block3	incongruent/STIM_015.jpg
2566.143	0.62	correct	incongruent	Block3	incongruent/STIM_015.jpg
2570.53	0.674	correct	incongruent	Block3	incongruent/STIM_015.jpg
2574.419	0.651	correct	incongruent	Block3	incongruent/STIM_015.jpg
2578.949	0.931	correct	incongruent	Block3	incongruent/STIM_015.jpg
2583.402	0.656	correct	incongruent	Block3	incongruent/STIM_016.jpg
2587.477	0.909	correct	incongruent	Block3	incongruent/STIM_016.jpg
2592.168	0.819	correct	incongruent	Block3	incongruent/STIM_016.jpg
2596.694	0.733	correct	incongruent	Block3	incongruent/STIM_016.jpg
2600.277	0.726	correct	incongruent	Block3	incongruent/STIM_016.jpg
2603.165	0.631	correct	incongruent	Block3	incongruent/STIM_017.jpg
2607.397	0.513	incorrect	incongruent	Block3	incongruent/STIM_017.jpg
2610.433	0.602	incorrect	incongruent	Block3	incongruent/STIM_017.jpg
2613.403	0.62	correct	incongruent	Block3	incongruent/STIM_017.jpg
2616.796	0.995	correct	incongruent	Block3	incongruent/STIM_017.jpg
2619.913	0.97	correct	incongruent	Block3	incongruent/STIM_018.jpg
2624.813	0.923	correct	incongruent	Block3	incongruent/STIM_018.jpg
2628.004	0.912	correct	incongruent	Block3	incongruent/STIM_018.jpg
2631.993	0.508	correct	incongruent	Block3	incongruent/STIM_018.jpg
2635.895	0.667	correct	incongruent	Block3	incongruent/STIM_018.jpg
2640.005	0.474	correct	incongruent	Block3	incongruent/STIM_019.jpg
2643.998	0.708	incorrect	incongruent	Block3	incongruent/STIM_019.jpg
2647.245	0.57	correct	incongruent	Block3	incongruent/STIM_019.jpg
2650.172	0.962	correct	incongruent	Block3	incongruent/STIM_019.jpg
2655.008	0.994	incorrect	incongruent	Block3	incongruent/STIM_019.jpg
2658.325	0.507	correct	incongruent	Block3	incongruent/STIM_020.jpg
2661.155	0.954	correct	incongruent	Block3	incongruent/STIM_020.jpg
2664.16	0.479	correct	incongruent	Block3	incongruent/STIM_020.jpg
2667.605	0.868	correct	incongruent	Block3	incongruent/STIM_020.jpg
2671.812	0.493	correct	incongruent	Block3	incongruent/STIM_020.jpg
2674.617	0.882	correct	incongruent	Block3	incongruent/STIM_021.jpg
2679.113	0.748	correct	incongruent	Block3	incongruent/STIM_021.jpg
2682.083	0.772	correct	incongruent	Block3	incongruent/STIM_021.jpg
2685.351	0.732	correct	incongruent	Block3	incongruent/STIM_021.jpg
2688.418	0.947	correct	incongruent	Block3	incongruent/STIM_021.jpg
2691.717	0.906	incorrect	incongruent	Block3	incongruent/STIM_022.jpg
2695.387	0.776	correct	incongruent	Block3	incongruent/STIM_022.jpg
2699.082	0.533	correct	incongruent	Block3	incongruent/STIM_022.jpg
2702.145	0.976	incorrect	incongruent	Block3	incongruent/STIM_022.jpg
2705.747	0.834	correct	incongruent	Block3	incongruent/STIM_022.jpg
2710.365	0.887	incorrect	incongruent	Block3	incongruent/STIM_023.jpg
2713.87	0.838	correct	incongruent	Block3	incongruent/STIM_023.jpg
2716.946	0.605	correct	incongruent	Block3	incongruent/STIM_023.jpg
2721.013	0.865	correct	incongruent	Block3	incongruent/STIM_023.jpg
2725.101	0.626	correct	incongruent	Block3	incongruent/STIM_023.jpg
2728.115	0.573	incorrect	incongruent	Block3	incongruent/STIM_024.jpg
2730.909	0.521	incorrect	incongruent	Block3	incongruent/STIM_024.jpg
2735.137	0.865	correct	incongruent	Block3	incongruent/STIM_024.jpg
2739.002	0.931	correct	incongruent	Block3	incongruent/STIM_024.jpg
2743.427	0.994	correct	incongruent	Block3	incongruent/STIM_024.jpg
2748.308	0.972	correct	incongruent	Block3	incongruent/STIM_025.jpg
2751.982	0.51	correct	incongruent	Block3	incongruent/STIM_025.jpg
2756.432	0.488	correct	incongruent	Block3	incongruent/STIM_025.jpg
2759.668	0.853	correct	incongruent	Block3	incongruent/STIM_025.jpg
2763.564	0.513	correct	incongruent	Block3	incongruent/STIM_025.jpg
2766.576	0.666	incorrect	incongruent	Block3	incongruent/STIM_026.jpg
2770.32	0.806	correct	incongruent	Block3	incongruent/STIM_026.jpg
2774.073	0.631	correct	incongruent	Block3	incongruent/STIM_026.jpg
2777.942	0.482	correct	incongruent	Block3	incongruent/STIM_026.jpg
2782.166	0.868	incorrect	incongruent	Block3	incongruent/STIM_026.jpg
2785.531	0.628	incorrect	incongruent	Block3	incongruent/STIM_027.jpg
2788.674	0.848	correct	incongruent	Block3	incongruent/STIM_027.jpg
2792.59	0.707	correct	incongruent	Block3	incongruent/STIM_027.jpg
2797.205	0.582	correct	incongruent	Block3	incongruent/STIM_027.jpg
2801.529	0.867	correct	incongruent	Block3	incongruent/STIM_027.jpg
2804.906	0.569	correct	incongruent	Block3	incongruent/STIM_028.jpg
2809.189	0.506	correct	incongruent	Block3	incongruent/STIM_028.jpg
2813.417	0.949	correct	incongruent	Block3	incongruent/STIM_028.jpg
2816.439	0.981	correct	incongruent	Block3	incongruent/STIM_028.jpg
2819.729	0.492	correct	incongruent	Block3	incongruent/STIM_028.jpg
2823.718	0.732	correct	incongruent	Block3	incongruent/STIM_029.jpg
2828.347	0.511	correct	incongruent	Block3	incongruent/STIM_029.jpg
2832.589	0.654	incorrect	incongruent	Block3	incongruent/STIM_029.jpg
2836.103	0.566	correct	incongruent	Block3	incongruent/STIM_029.jpg
2839.715	0.939	correct	incongruent	Block3	incongruent/STIM_029.jpg
2843.789	0.847	correct	congruent	Block3	congruent/STIM_000.jpg
2848.523	0.606	correct	congruent	Block3	congruent/STIM_000.jpg
2852.025	0.729	incorrect	congruent	Block3	congruent/STIM_000.jpg
2855.054	0.683	correct	congruent	Block3	congruent/STIM_000.jpg
2858.484	0.846	correct	congruent	Block3	congruent/STIM_000.jpg
2861.812	0.627	correct	congruent	Block3	congruent/STIM_001.jpg
2866.12	0.547	correct	congruent	Block3	congruent/STIM_001.jpg
2869.148	0.494	correct	congruent	Block3	congruent/STIM_001.jpg
2872.634	0.744	correct	congruent	Block3	congruent/STIM_001.jpg
2876.718	0.627	correct	congruent	Block3	congruent/STIM_001.jpg
2881.328	0.675	correct	congruent	Block3	congruent/STIM_002.jpg
2885.399	0.694	correct	congruent	Block3	congruent/STIM_002.jpg
2888.395	0.583	correct	congruent	Block3	congruent/STIM_002.jpg
2892.44	0.737	correct	congruent	Block3	congruent/STIM_002.jpg
2896.433	0.503	correct	congruent	Block3	congruent/STIM_002.jpg
2899.634	0.524	correct	congruent	Block3	congruent/STIM_003.jpg
2902.305	0.726	incorrect	congruent	Block3	congruent/STIM_003.jpg
2905.688	0.623	correct	congruent	Block3	congruent/STIM_003.jpg
2908.447	0.585	correct	congruent	Block3	congruent/STIM_003.jpg
2911.285	0.845	correct	congruent	Block3	congruent/STIM_003.jpg
2914.249	0.831	correct	congruent	Block3	congruent/STIM_004.jpg
2917.176	0.778	correct	congruent	Block3	congruent/STIM_004.jpg
2921.076	0.733	correct	congruent	Block3	congruent/STIM_004.jpg
2925.304	0.746	correct	congruent	Block3	congruent/STIM_004.jpg
2929.472	0.845	correct	congruent	Block3	congruent/STIM_004.jpg
2933.233	0.6	incorrect	congruent	Block3	congruent/STIM_005.jpg
2936.752	0.766	correct	congruent	Block3	congruent/STIM_005.jpg
2940.453	0.706	correct	congruent	Block3	congruent/STIM_005.jpg
2943.576	0.509	correct	congruent	Block3	congruent/STIM_005.jpg
2946.383	0.634	correct	congruent	Block3	congruent/STIM_005.jpg
2950.609	0.58	correct	congruent	Block3	congruent/STIM_006.jpg
2953.975	0.753	correct	congruent	Block3	congruent/STIM_006.jpg
2957.365	0.861	correct	congruent	Block3	congruent/STIM_006.jpg
2960.277	0.856	correct	congruent	Block3	congruent/STIM_006.jpg
2964.703	0.528	correct	congruent	Block3	congruent/STIM_006.jpg
2967.767	0.511	incorrect	congruent	Block3	congruent/STIM_007.jpg
2970.859	0.65	correct	congruent	Block3	congruent/STIM_007.jpg
2974.148	0.779	correct	congruent	Block3	congruent/STIM_007.jpg
2978.73	0.72	correct	congruent	Block3	congruent/STIM_007.jpg
2981.573	0.536	correct	congruent	Block3	congruent/STIM_007.jpg
2985.859	0.751	incorrect	congruent	Block3	congruent/STIM_008.jpg
2988.726	0.794	correct	congruent	Block3	congruent/STIM_008.jpg
2993.502	0.628	correct	congruent	Block3	congruent/STIM_008.jpg
2996.359	0.522	incorrect	congruent	Block3	congruent/STIM_008.jpg
2999.422	0.779	correct	congruent	Block3	congruent/STIM_008.jpg
3002.715	0.772	correct	congruent	Block3	congruent/STIM_009.jpg
3007.167	0.631	correct	congruent	Block3	congruent/STIM_009.jpg
3011.32	0.626	incorrect	congruent	Block3	congruent/STIM_009.jpg
3014.644	0.572	correct	congruent	Block3	congruent/STIM_009.jpg
3017.735	0.48	correct	congruent	Block3	congruent/STIM_009.jpg
3020.568	0.68	incorrect	congruent	Block3	congruent/STIM_010.jpg
3024.659	0.72	correct	congruent	Block3	congruent/STIM_010.jpg
3027.957	0.531	correct	congruent	Block3	congruent/STIM_010.jpg
3032.019	0.58	correct	congruent	Block3	congruent/STIM_010.jpg
3036.391	0.548	correct	congruent	Block3	congruent/STIM_010.jpg
3040.275	0.5	correct	congruent	Block3	congruent/STIM_011.jpg
3043.818	0.546	correct	congruent	Block3	congruent/STIM_011.jpg
3046.96	0.845	correct	congruent	Block3	congruent/STIM_011.jpg
3050.53	0.859	correct	congruent	Block3	congruent/STIM_011.jpg
3053.864	0.597	correct	congruent	Block3	congruent/STIM_011.jpg
3057.327	0.853	correct	congruent	Block3	congruent/STIM_012.jpg
3060.242	0.843	incorrect	congruent	Block3	congruent/STIM_012.jpg
3063.581	0.678	correct	congruent	Block3	congruent/STIM_012.jpg
3068.01	0.618	correct	congruent	Block3	congruent/STIM_012.jpg
3070.864	0.725	correct	congruent	Block3	congruent/STIM_012.jpg
3074.213	0.732	correct	congruent	Block3	congruent/STIM_013.jpg
3077.878	0.714	incorrect	congruent	Block3	congruent/STIM_013.jpg
3081.309	0.703	correct	congruent	Block3	congruent/STIM_013.jpg
3084.328	0.522	correct	congruent	Block3	congruent/STIM_013.jpg
3088.46	0.523	correct	congruent	Block3	congruent/STIM_013.jpg
3091.185	0.498	correct	congruent	Block3	congruent/STIM_014.jpg
3094.797	0.772	correct	congruent	Block3	congruent/STIM_014.jpg
3097.931	0.756	correct	congruent	Block3	congruent/STIM_014.jpg
3102.514	0.571	correct	congruent	Block3	congruent/STIM_014.jpg
3106.324	0.764	correct	congruent	Block3	congruent/STIM_014.jpg
3109.455	0.529	correct	congruent	Block3	congruent/STIM_015.jpg
3113.091	0.718	correct	congruent	Block3	congruent/STIM_015.jpg
3116.489	0.669	correct	congruent	Block3	congruent/STIM_015.jpg
3119.799	0.735	correct	congruent	Block3	congruent/STIM_015.jpg
3124.524	0.699	incorrect	congruent	Block3	congruent/STIM_015.jpg
3128.281	0.761	correct	congruent	Block3	congruent/STIM_016.jpg
3132.425	0.646	correct	congruent	Block3	congruent/STIM_016.jpg
3136.598	0.748	correct	congruent	Block3	congruent/STIM_016.jpg
3140.209	0.558	incorrect	congruent	Block3	congruent/STIM_016.jpg
3142.84	0.584	correct	congruent	Block3	congruent/STIM_016.jpg
3146.779	0.724	incorrect	congruent	Block3	congruent/STIM_017.jpg
3150.291	0.63	correct	congruent	Block3	congruent/STIM_017.jpg
3153.774	0.596	correct	congruent	Block3	congruent/STIM_017.jpg
3157.747	0.691	correct	congruent	Block3	congruent/STIM_017.jpg
3161.595	0.845	correct	congruent	Block3	congruent/STIM_017.jpg
3165.879	0.489	correct	congruent	Block3	congruent/STIM_018.jpg
3170.201	0.761	correct	congruent	Block3	congruent/STIM_018.jpg
3173.958	0.654	incorrect	congruent	Block3	congruent/STIM_018.jpg
3178.546	0.836	correct	congruent	Block3	congruent/STIM_018.jpg
3183.218	0.652	correct	congruent	Block3	congruent/STIM_018.jpg
3187.065	0.733	correct	congruent	Block3	congruent/STIM_019.jpg
3190.793	0.53	correct	congruent	Block3	congruent/STIM_019.jpg
3194.092	0.771	correct	congruent	Block3	congruent/STIM_019.jpg
3198.425	0.484	correct	congruent	Block3	congruent/STIM_019.jpg
3201.824	0.579	incorrect	congruent	Block3	congruent/STIM_019.jpg
3205.79	0.536	correct	congruent	Block3	congruent/STIM_020.jpg
3209.111	0.848	correct	congruent	Block3	congruent/STIM_020.jpg
3213.083	0.561	correct	congruent	Block3	congruent/STIM_020.jpg
3217.403	0.564	correct	congruent	Block3	congruent/STIM_020.jpg
3221.528	0.654	correct	congruent	Block3	congruent/STIM_020.jpg
3224.963	0.812	correct	congruent	Block3	congruent/STIM_021.jpg
3229.022	0.791	correct	congruent	Block3	congruent/STIM_021.jpg
3232.894	0.5	correct	congruent	Block3	congruent/STIM_021.jpg
3235.687	0.578	correct	congruent	Block3	congruent/STIM_021.jpg
3240.226	0.66	incorrect	congruent	Block3	congruent/STIM_021.jpg
3243.791	0.549	correct	congruent	Block3	congruent/STIM_022.jpg
3247.457	0.594	incorrect	congruent	Block3	congruent/STIM_022.jpg
3251.414	0.835	correct	congruent	Block3	congruent/STIM_022.jpg
3255.114	0.581	correct	congruent	Block3	congruent/STIM_022.jpg
3257.901	0.665	correct	congruent	Block3	congruent/STIM_022.jpg
3260.695	0.787	correct	congruent	Block3	congruent/STIM_023.jpg
3264.96	0.858	incorrect	congruent	Block3	congruent/STIM_023.jpg
3268.6	0.716	correct	congruent	Block3	congruent/STIM_023.jpg
3271.774	0.548	correct	congruent	Block3	congruent/STIM_023.jpg
3275.77	0.744	correct	congruent	Block3	congruent/STIM_023.jpg
3278.751	0.481	incorrect	congruent	Block3	congruent/STIM_024.jpg
3281.58	0.515	correct	congruent	Block3	congruent/STIM_024.jpg
3285.709	0.593	correct	congruent	Block3	congruent/STIM_024.jpg
3289.487	0.516	correct	congruent	Block3	congruent/STIM_024.jpg
3293.206	0.822	correct	congruent	Block3	congruent/STIM_024.jpg
3296.418	0.523	correct	congruent	Block3	congruent/STIM_025.jpg
3299.397	0.511	correct	congruent	Block3	congruent/STIM_025.jpg
3302.815	0.745	correct	congruent	Block3	congruent/STIM_025.jpg
3306.614	0.761	incorrect	congruent	Block3	congruent/STIM_025.jpg
3311.095	0.569	correct	congruent	Block3	congruent/STIM_025.jpg
3313.75	0.783	correct	congruent	Block3	congruent/STIM_026.jpg
3317.801	0.773	incorrect	congruent	Block3	congruent/STIM_026.jpg
3321.962	0.797	correct	congruent	Block3	congruent/STIM_026.jpg
3326.584	0.795	incorrect	congruent	Block3	congruent/STIM_026.jpg
3329.601	0.839	correct	congruent	Block3	congruent/STIM_026.jpg
3334.197	0.846	correct	congruent	Block3	congruent/STIM_027.jpg
3339.009	0.566	correct	congruent	Block3	congruent/STIM_027.jpg
3342.166	0.588	incorrect	congruent	Block3	congruent/STIM_027.jpg
3345.799	0.837	incorrect	congruent	Block3	congruent/STIM_027.jpg
3350.375	0.593	correct	congruent	Block3	congruent/STIM_027.jpg
3353.692	0.776	correct	congruent	Block3	congruent/STIM_028.jpg
3356.799	0.81	correct	congruent	Block3	congruent/STIM_028.jpg
3360.032	0.755	correct	congruent	Block3	congruent/STIM_028.jpg
3363.161	0.674	correct	congruent	Block3	congruent/STIM_028.jpg
3367.485	0.531	incorrect	congruent	Block3	congruent/STIM_028.jpg
3371.769	0.773	incorrect	congruent	Block3	congruent/STIM_029.jpg
3376.108	0.827	correct	congruent	Block3	congruent/STIM_029.jpg
3379.807	0.688	correct	congruent	Block3	congruent/STIM_029.jpg
3384.109	0.82	incorrect	congruent	Block3	congruent/STIM_029.jpg
3387.332	0.641	correct	congruent	Block3	congruent/STIM_029.jpg
