onset	duration	accuracy_binary	trial_type	learning_stage	stimulus
0.0	3.032	1	regulate	Run1	regulate/STIM_000.jpg
5.517	3.379	1	regulate	Run1	regulate/STIM_000.jpg
11.413	2.457	1	regulate	Run1	regulate/STIM_000.jpg
17.602	1.53	0	regulate	Run1	regulate/STIM_000.jpg
22.064	3.673	1	regulate	Run1	regulate/STIM_001.jpg
28.3	2.432	1	regulate	Run1	regulate/STIM_001.jpg
33.953	2.24	0	regulate	Run1	regulate/STIM_001.jpg
38.098	1.884	1	regulate	Run1	regulate/STIM_001.jpg
42.307	3.197	0	regulate	Run1	regulate/STIM_002.jpg
49.283	2.638	1	regulate	Run1	regulate/STIM_002.jpg
55.268	1.447	1	regulate	Run1	regulate/STIM_002.jpg
59.88	1.637	0	regulate	Run1	regulate/STIM_002.jpg
65.002	1.897	1	regulate	Run1	regulate/STIM_003.jpg
69.046	2.264	1	regulate	Run1	regulate/STIM_003.jpg
73.544	1.858	0	regulate	Run1	regulate/STIM_003.jpg
78.881	2.983	1	regulate	Run1	regulate/STIM_003.jpg
85.465	1.62	1	regulate	Run1	regulate/STIM_004.jpg
89.469	3.252	0	regulate	Run1	regulate/STIM_004.jpg
95.434	2.066	1	regulate	Run1	regulate/STIM_004.jpg
100.436	2.766	1	regulate	Run1	regulate/STIM_004.jpg
106.677	3.009	1	regulate	Run1	regulate/STIM_005.jpg
113.023	2.298	1	regulate	Run1	regulate/STIM_005.jpg
118.348	1.762	1	regulate	Run1	regulate/STIM_005.jpg
123.716	2.572	1	regulate	Run1	regulate/STIM_005.jpg
130.085	2.118	1	regulate	Run1	regulate/STIM_006.jpg
134.151	2.778	1	regulate	Run1	regulate/STIM_006.jpg
139.912	2.601	1	regulate	Run1	regulate/STIM_006.jpg
145.853	1.926	1	regulate	Run1	regulate/STIM_006.jpg
149.831	1.928	1	regulate	Run1	regulate/STIM_007.jpg
154.884	2.118	1	regulate	Run1	regulate/STIM_007.jpg
159.953	1.627	1	regulate	Run1	regulate/STIM_007.jpg
163.718	1.734	0	regulate	Run1	regulate/STIM_007.jpg
168.635	1.663	1	regulate	Run1	regulate/STIM_008.jpg
172.537	2.396	1	regulate	Run1	regulate/STIM_008.jpg
178.149	3.246	1	regulate	Run1	regulate/STIM_008.jpg
183.349	1.965	0	regulate	Run1	regulate/STIM_008.jpg
188.403	2.171	1	regulate	Run1	regulate/STIM_009.jpg
192.572	3.412	0	regulate	Run1	regulate/STIM_009.jpg
198.102	1.791	1	regulate	Run1	regulate/STIM_009.jpg
202.236	2.796	1	regulate	Run1	regulate/STIM_009.jpg
208.608	2.69	0	regulate	Run1	regulate/STIM_010.jpg
214.051	2.166	1	regulate	Run1	regulate/STIM_010.jpg
219.054	2.733	0	regulate	Run1	regulate/STIM_010.jpg
224.342	1.694	1	regulate	Run1	regulate/STIM_010.jpg
228.516	1.968	1	regulate	Run1	regulate/STIM_011.jpg
233.108	2.657	1	regulate	Run1	regulate/STIM_011.jpg
238.184	1.683	0	regulate	Run1	regulate/STIM_011.jpg
243.361	2.128	1	regulate	Run1	regulate/STIM_011.jpg
248.653	2.19	1	regulate	Run1	regulate/STIM_012.jpg
254.084	3.404	1	regulate	Run1	regulate/STIM_012.jpg
260.463	3.05	0	regulate	Run1	regulate/STIM_012.jpg
266.528	1.748	0	regulate	Run1	regulate/STIM_012.jpg
271.476	2.093	1	regulate	Run1	regulate/STIM_013.jpg
276.066	2.468	1	regulate	Run1	regulate/STIM_013.jpg
282.061	2.32	0	regulate	Run1	regulate/STIM_013.jpg
287.647	2.828	1	regulate	Run1	regulate/STIM_013.jpg
292.566	2.06	1	regulate	Run1	regulate/STIM_014.jpg
297.765	2.17	1	regulate	Run1	regulate/STIM_014.jpg
303.805	1.804	1	regulate	Run1	regulate/STIM_014.jpg
309.033	1.654	1	regulate	Run1	regulate/STIM_014.jpg
313.171	2.531	0	regulate	Run1	regulate/STIM_015.jpg
319.449	2.812	1	regulate	Run1	regulate/STIM_015.jpg
325.574	1.618	0	regulate	Run1	regulate/STIM_015.jpg
329.82	2.201	1	regulate	Run1	regulate/STIM_015.jpg
335.776	3.423	1	regulate	Run1	regulate/STIM_016.jpg
342.211	2.301	1	regulate	Run1	regulate/STIM_016.jpg
347.016	1.681	1	regulate	Run1	regulate/STIM_016.jpg
351.772	3.084	1	regulate	Run1	regulate/STIM_016.jpg
357.956	2.053	0	regulate	Run1	regulate/STIM_017.jpg
363.2	2.977	1	regulate	Run1	regulate/STIM_017.jpg
369.196	1.822	1	regulate	Run1	regulate/STIM_017.jpg
374.877	3.078	0	regulate	Run1	regulate/STIM_017.jpg
380.386	2.694	1	regulate	Run1	regulate/STIM_018.jpg
385.034	2.465	1	regulate	Run1	regulate/STIM_018.jpg
390.296	1.564	1	regulate	Run1	regulate/STIM_018.jpg
395.402	2.34	1	regulate	Run1	regulate/STIM_018.jpg
400.514	1.843	0	regulate	Run1	regulate/STIM_019.jpg
405.826	3.319	1	regulate	Run1	regulate/STIM_019.jpg
412.274	2.909	1	regulate	Run1	regulate/STIM_019.jpg
418.836	2.151	0	regulate	Run1	regulate/STIM_019.jpg
424.23	2.229	1	regulate	Run1	regulate/STIM_020.jpg
429.277	3.44	0	regulate	Run1	regulate/STIM_020.jpg
436.481	3.128	1	regulate	Run1	regulate/STIM_020.jpg
443.22	1.399	1	regulate	Run1	regulate/STIM_020.jpg
447.645	3.46	1	regulate	Run1	regulate/STIM_021.jpg
454.899	2.959	1	regulate	Run1	regulate/STIM_021.jpg
459.837	1.588	1	regulate	Run1	regulate/STIM_021.jpg
463.353	2.136	1	regulate	Run1	regulate/STIM_021.jpg
468.18	2.167	0	regulate	Run1	regulate/STIM_022.jpg
473.315	2.761	0	regulate	Run1	regulate/STIM_022.jpg
478.535	2.356	0	regulate	Run1	regulate/STIM_022.jpg
482.984	2.272	1	regulate	Run1	regulate/STIM_022.jpg
487.637	2.215	0	regulate	Run1	regulate/STIM_023.jpg
491.984	2.194	1	regulate	Run1	regulate/STIM_023.jpg
497.139	1.762	1	regulate	Run1	regulate/STIM_023.jpg
502.345	1.95	1	regulate	Run1	regulate/STIM_023.jpg
507.481	2.563	1	regulate	Run1	regulate/STIM_024.jpg
512.795	2.33	1	regulate	Run1	regulate/STIM_024.jpg
517.445	3.304	0	regulate	Run1	regulate/STIM_024.jpg
523.596	2.499	1	regulate	Run1	regulate/STIM_024.jpg
528.943	1.966	0	regulate	Run1	regulate/STIM_025.jpg
533.068	2.692	1	regulate	Run1	regulate/STIM_025.jpg
538.496	3.164	1	regulate	Run1	regulate/STIM_025.jpg
544.82	2.77	0	regulate	Run1	regulate/STIM_025.jpg
549.892	3.484	1	regulate	Run1	regulate/STIM_026.jpg
555.345	2.755	1	regulate	Run1	regulate/STIM_026.jpg
561.875	2.91	1	regulate	Run1	regulate/STIM_026.jpg
566.713	1.536	1	regulate	Run1	regulate/STIM_026.jpg
570.352	2.542	1	regulate	Run1	regulate/STIM_027.jpg
576.386	1.575	1	regulate	Run1	regulate/STIM_027.jpg
581.51	1.695	1	regulate	Run1	regulate/STIM_027.jpg
585.169	1.852	1	regulate	Run1	regulate/STIM_027.jpg
590.582	2.43	1	regulate	Run1	regulate/STIM_028.jpg
596.405	2.259	1	regulate	Run1	regulate/STIM_028.jpg
601.897	2.46	0	regulate	Run1	regulate/STIM_028.jpg
607.735	1.561	1	regulate	Run1	regulate/STIM_028.jpg
612.81	2.92	1	regulate	Run1	regulate/STIM_029.jpg
618.355	3.436	1	regulate	Run1	regulate/STIM_029.jpg
624.058	2.412	0	regulate	Run1	regulate/STIM_029.jpg
629.347	3.051	1	regulate	Run1	regulate/STIM_029.jpg
635.953	0.843	1	observe	Run1	observe/STIM_000.jpg
640.22	1.053	1	observe	Run1	observe/STIM_000.jpg
645.107	0.973	1	observe	Run1	observe/STIM_000.jpg
649.496	1.117	1	observe	Run1	observe/STIM_000.jpg
653.888	0.856	1	observe	Run1	observe/STIM_001.jpg
657.979	1.36	1	observe	Run1	observe/STIM_001.jpg
662.631	1.576	1	observe	Run1	observe/STIM_001.jpg
667.464	1.257	1	observe	Run1	observe/STIM_001.jpg
672.071	1.679	1	observe	Run1	observe/STIM_002.jpg
676.218	1.202	1	observe	Run1	observe/STIM_002.jpg
680.792	1.518	1	observe	Run1	observe/STIM_002.jpg
685.983	1.406	1	observe	Run1	observe/STIM_002.jpg
690.165	1.516	1	observe	Run1	observe/STIM_003.jpg
694.709	0.94	1	observe	Run1	observe/STIM_003.jpg
698.098	1.477	1	observe	Run1	observe/STIM_003.jpg
701.809	0.88	1	observe	Run1	observe/STIM_003.jpg
706.066	0.876	1	observe	Run1	observe/STIM_004.jpg
708.966	1.331	0	observe	Run1	observe/STIM_004.jpg
712.694	1.165	1	observe	Run1	observe/STIM_004.jpg
717.325	1.413	1	observe	Run1	observe/STIM_004.jpg
722.565	1.045	1	observe	Run1	observe/STIM_005.jpg
726.548	1.5	1	observe	Run1	observe/STIM_005.jpg
730.908	1.187	1	observe	Run1	observe/STIM_005.jpg
735.51	1.104	1	observe	Run1	observe/STIM_005.jpg
738.665	0.879	1	observe	Run1	observe/STIM_006.jpg
741.833	1.652	1	observe	Run1	observe/STIM_006.jpg
746.821	1.266	1	observe	Run1	observe/STIM_006.jpg
750.746	1.64	1	observe	Run1	observe/STIM_006.jpg
755.544	1.666	1	observe	Run1	observe/STIM_007.jpg
759.219	1.335	1	observe	Run1	observe/STIM_007.jpg
762.894	1.298	1	observe	Run1	observe/STIM_007.jpg
766.614	1.274	1	observe	Run1	observe/STIM_007.jpg
770.921	1.674	1	observe	Run1	observe/STIM_008.jpg
774.697	1.268	1	observe	Run1	observe/STIM_008.jpg
778.536	1.313	1	observe	Run1	observe/STIM_008.jpg
782.623	1.15	1	observe	Run1	observe/STIM_008.jpg
787.223	1.073	1	observe	Run1	observe/STIM_009.jpg
790.465	0.944	1	observe	Run1	observe/STIM_009.jpg
794.849	1.05	1	observe	Run1	observe/STIM_009.jpg
799.466	1.254	1	observe	Run1	observe/STIM_009.jpg
802.788	1.536	1	observe	Run1	observe/STIM_010.jpg
807.866	1.482	0	observe	Run1	observe/STIM_010.jpg
812.704	1.199	1	observe	Run1	observe/STIM_010.jpg
817.564	1.487	0	observe	Run1	observe/STIM_010.jpg
822.627	1.148	1	observe	Run1	observe/STIM_011.jpg
826.191	0.924	0	observe	Run1	observe/STIM_011.jpg
830.687	1.27	1	observe	Run1	observe/STIM_011.jpg
833.903	1.683	1	observe	Run1	observe/STIM_011.jpg
839.283	1.016	1	observe	Run1	observe/STIM_012.jpg
843.719	1.168	1	observe	Run1	observe/STIM_012.jpg
846.854	1.299	1	observe	Run1	observe/STIM_012.jpg
850.446	1.216	1	observe	Run1	observe/STIM_012.jpg
853.961	1.075	1	observe	Run1	observe/STIM_013.jpg
857.135	1.626	0	observe	Run1	observe/STIM_013.jpg
860.788	1.028	1	observe	Run1	observe/STIM_013.jpg
863.809	1.06	1	observe	Run1	observe/STIM_013.jpg
868.614	1.01	1	observe	Run1	observe/STIM_014.jpg
873.449	1.176	1	observe	Run1	observe/STIM_014.jpg
878.161	0.979	1	observe	Run1	observe/STIM_014.jpg
882.842	1.419	0	observe	Run1	observe/STIM_014.jpg
888.187	1.055	1	observe	Run1	observe/STIM_015.jpg
891.287	1.621	1	observe	Run1	observe/STIM_015.jpg
896.672	1.29	0	observe	Run1	observe/STIM_015.jpg
900.48	1.226	1	observe	Run1	observe/STIM_015.jpg
904.191	1.37	1	observe	Run1	observe/STIM_016.jpg
909.007	1.31	1	observe	Run1	observe/STIM_016.jpg
913.928	1.631	1	observe	Run1	observe/STIM_016.jpg
918.297	1.014	1	observe	Run1	observe/STIM_016.jpg
923.006	1.247	1	observe	Run1	observe/STIM_017.jpg
926.368	1.447	1	observe	Run1	observe/STIM_017.jpg
931.553	1.614	1	observe	Run1	observe/STIM_017.jpg
935.729	1.632	1	observe	Run1	observe/STIM_017.jpg
940.35	1.215	1	observe	Run1	observe/STIM_018.jpg
944.942	1.654	1	observe	Run1	observe/STIM_018.jpg
949.517	0.909	1	observe	Run1	observe/STIM_018.jpg
952.445	1.404	1	observe	Run1	observe/STIM_018.jpg
957.683	1.237	1	observe	Run1	observe/STIM_019.jpg
962.829	1.618	1	observe	Run1	observe/STIM_019.jpg
966.419	1.529	1	observe	Run1	observe/STIM_019.jpg
971.309	1.461	0	observe	Run1	observe/STIM_019.jpg
975.919	2.312	1	regulate	Run2	regulate/STIM_000.jpg
981.474	2.488	1	regulate	Run2	regulate/STIM_000.jpg
987.084	2.217	1	regulate	Run2	regulate/STIM_000.jpg
991.83	2.561	1	regulate	Run2	regulate/STIM_000.jpg
996.996	1.785	1	regulate	Run2	regulate/STIM_001.jpg
1002.159	2.948	1	regulate	Run2	regulate/STIM_001.jpg
1007.052	2.009	1	regulate	Run2	regulate/STIM_001.jpg
1011.453	1.752	0	regulate	Run2	regulate/STIM_001.jpg
1015.674	2.053	1	regulate	Run2	regulate/STIM_002.jpg
1020.802	2.296	1	regulate	Run2	regulate/STIM_002.jpg
1025.815	2.123	1	regulate	Run2	regulate/STIM_002.jpg
1030.854	1.154	1	regulate	Run2	regulate/STIM_002.jpg
1034.708	2.074	1	regulate	Run2	regulate/STIM_003.jpg
1039.367	2.336	1	regulate	Run2	regulate/STIM_003.jpg
1044.991	1.998	1	regulate	Run2	regulate/STIM_003.jpg
1050.679	2.112	1	regulate	Run2	regulate/STIM_003.jpg
1055.524	1.368	1	regulate	Run2	regulate/STIM_004.jpg
1059.764	1.676	1	regulate	Run2	regulate/STIM_004.jpg
1063.895	1.451	0	regulate	Run2	regulate/STIM_004.jpg
1069.141	1.506	1	regulate	Run2	regulate/STIM_004.jpg
1073.367	3.049	1	regulate	Run2	regulate/STIM_005.jpg
1078.993	2.178	1	regulate	Run2	regulate/STIM_005.jpg
1084.757	1.448	1	regulate	Run2	regulate/STIM_005.jpg
1088.878	1.493	1	regulate	Run2	regulate/STIM_005.jpg
1093.808	2.899	1	regulate	Run2	regulate/STIM_006.jpg
1098.835	2.941	1	regulate	Run2	regulate/STIM_006.jpg
1104.306	2.232	1	regulate	Run2	regulate/STIM_006.jpg
1108.991	1.896	1	regulate	Run2	regulate/STIM_006.jpg
1112.878	1.823	0	regulate	Run2	regulate/STIM_007.jpg
1117.061	1.789	1	regulate	Run2	regulate/STIM_007.jpg
1121.665	1.196	1	regulate	Run2	regulate/STIM_007.jpg
1125.619	2.138	1	regulate	Run2	regulate/STIM_007.jpg
1130.186	1.429	1	regulate	Run2	regulate/STIM_008.jpg
1133.7	2.212	1	regulate	Run2	regulate/STIM_008.jpg
1138.798	2.323	1	regulate	Run2	regulate/STIM_008.jpg
1144.676	1.654	1	regulate	Run2	regulate/STIM_008.jpg
1149.255	2.826	1	regulate	Run2	regulate/STIM_009.jpg
1154.541	2.383	1	regulate	Run2	regulate/STIM_009.jpg
1160.798	2.335	1	regulate	Run2	regulate/STIM_009.jpg
1165.199	2.038	1	regulate	Run2	regulate/STIM_009.jpg
1169.362	1.856	1	regulate	Run2	regulate/STIM_010.jpg
1173.153	2.621	1	regulate	Run2	regulate/STIM_010.jpg
1178.488	2.544	1	regulate	Run2	regulate/STIM_010.jpg
1184.503	1.129	1	regulate	Run2	regulate/STIM_010.jpg
1187.696	2.352	1	regulate	Run2	regulate/STIM_011.jpg
1193.391	1.29	0	regulate	Run2	regulate/STIM_011.jpg
1198.426	2.32	1	regulate	Run2	regulate/STIM_011.jpg
1204.149	1.398	1	regulate	Run2	regulate/STIM_011.jpg
1209.394	1.589	1	regulate	Run2	regulate/STIM_012.jpg
1213.689	1.376	1	regulate	Run2	regulate/STIM_012.jpg
1218.689	1.516	0	regulate	Run2	regulate/STIM_012.jpg
1223.755	2.274	1	regulate	Run2	regulate/STIM_012.jpg
1229.726	2.043	1	regulate	Run2	regulate/STIM_013.jpg
1234.053	1.939	1	regulate	Run2	regulate/STIM_013.jpg
1238.58	2.617	1	regulate	Run2	regulate/STIM_013.jpg
1243.383	1.607	1	regulate	Run2	regulate/STIM_013.jpg
1247.31	1.774	1	regulate	Run2	regulate/STIM_014.jpg
1251.199	1.814	1	regulate	Run2	regulate/STIM_014.jpg
1256.671	2.374	1	regulate	Run2	regulate/STIM_014.jpg
1261.727	2.182	1	regulate	Run2	regulate/STIM_014.jpg
1265.834	2.378	1	regulate	Run2	regulate/STIM_015.jpg
1271.162	2.784	1	regulate	Run2	regulate/STIM_015.jpg
1276.415	1.476	1	regulate	Run2	regulate/STIM_015.jpg
1281.362	1.791	1	regulate	Run2	regulate/STIM_015.jpg
1286.203	3.062	0	regulate	Run2	regulate/STIM_016.jpg
1292.718	1.351	1	regulate	Run2	regulate/STIM_016.jpg
1297.836	1.714	1	regulate	Run2	regulate/STIM_016.jpg
1302.481	2.557	1	regulate	Run2	regulate/STIM_016.jpg
1308.822	1.896	0	regulate	Run2	regulate/STIM_017.jpg
1313.353	2.454	1	regulate	Run2	regulate/STIM_017.jpg
1317.701	2.29	1	regulate	Run2	regulate/STIM_017.jpg
1323.559	1.343	1	regulate	Run2	regulate/STIM_017.jpg
1328.006	1.543	1	regulate	Run2	regulate/STIM_018.jpg
1333.282	2.829	0	regulate	Run2	regulate/STIM_018.jpg
1338.343	2.592	1	regulate	Run2	regulate/STIM_018.jpg
1343.91	2.422	1	regulate	Run2	regulate/STIM_018.jpg
1348.614	2.43	1	regulate	Run2	regulate/STIM_019.jpg
1354.577	2.304	1	regulate	Run2	regulate/STIM_019.jpg
1359.611	2.581	1	regulate	Run2	regulate/STIM_019.jpg
1365.934	2.307	1	regulate	Run2	regulate/STIM_019.jpg
1371.448	2.077	1	regulate	Run2	regulate/STIM_020.jpg
1377.296	2.023	1	regulate	Run2	regulate/STIM_020.jpg
1382.336	1.774	1	regulate	Run2	regulate/STIM_020.jpg
1386.775	1.66	1	regulate	Run2	regulate/STIM_020.jpg
1390.775	2.566	1	regulate	Run2	regulate/STIM_021.jpg
1396.992	2.738	1	regulate	Run2	regulate/STIM_021.jpg
1402.185	2.553	1	regulate	Run2	regulate/STIM_021.jpg
1407.717	1.553	1	regulate	Run2	regulate/STIM_021.jpg
1411.522	1.516	1	regulate	Run2	regulate/STIM_022.jpg
1416.574	2.329	1	regulate	Run2	regulate/STIM_022.jpg
1421.621	2.112	1	regulate	Run2	regulate/STIM_022.jpg
1426.745	1.805	1	regulate	Run2	regulate/STIM_022.jpg
1431.527	2.193	0	regulate	Run2	regulate/STIM_023.jpg
1437.475	2.369	0	regulate	Run2	regulate/STIM_023.jpg
1442.12	2.341	1	regulate	Run2	regulate/STIM_023.jpg
1448.066	1.65	1	regulate	Run2	regulate/STIM_023.jpg
1452.499	1.557	1	regulate	Run2	regulate/STIM_024.jpg
1457.24	1.536	1	regulate	Run2	regulate/STIM_024.jpg
1461.673	1.212	1	regulate	Run2	regulate/STIM_024.jpg
1465.98	1.285	1	regulate	Run2	regulate/STIM_024.jpg
1469.544	2.631	1	regulate	Run2	regulate/STIM_025.jpg
1475.253	1.998	1	regulate	Run2	regulate/STIM_025.jpg
1479.54	1.735	1	regulate	Run2	regulate/STIM_025.jpg
1484.443	2.402	1	regulate	Run2	regulate/STIM_025.jpg
1489.019	2.74	1	regulate	Run2	regulate/STIM_026.jpg
1495.268	1.785	1	regulate	Run2	regulate/STIM_026.jpg
1500.492	2.458	1	regulate	Run2	regulate/STIM_026.jpg
1505.314	1.639	1	regulate	Run2	regulate/STIM_026.jpg
1508.992	2.713	1	regulate	Run2	regulate/STIM_027.jpg
1513.715	2.414	1	regulate	Run2	regulate/STIM_027.jpg
1518.715	1.782	1	regulate	Run2	regulate/STIM_027.jpg
1524.049	1.689	1	regulate	Run2	regulate/STIM_027.jpg
1528.958	1.468	1	regulate	Run2	regulate/STIM_028.jpg
1532.402	2.341	1	regulate	Run2	regulate/STIM_028.jpg
1537.089	2.265	1	regulate	Run2	regulate/STIM_028.jpg
1543.239	2.293	1	regulate	Run2	regulate/STIM_028.jpg
1548.801	2.766	1	regulate	Run2	regulate/STIM_029.jpg
1555.407	2.532	0	regulate	Run2	regulate/STIM_029.jpg
1560.944	2.52	1	regulate	Run2	regulate/STIM_029.jpg
1566.906	2.362	1	regulate	Run2	regulate/STIM_029.jpg
1571.237	1.316	1	observe	Run2	observe/STIM_000.jpg
1574.512	0.891	1	observe	Run2	observe/STIM_000.jpg
1577.498	1.119	1	observe	Run2	observe/STIM_000.jpg
1580.988	1.176	1	observe	Run2	observe/STIM_000.jpg
1585.28	0.89	1	observe	Run2	observe/STIM_001.jpg
1588.323	1.487	1	observe	Run2	observe/STIM_001.jpg
1592.334	0.99	0	observe	Run2	observe/STIM_001.jpg
1595.986	1.376	1	observe	Run2	observe/STIM_001.jpg
1600.591	1.189	1	observe	Run2	observe/STIM_002.jpg
1603.818	1.247	1	observe	Run2	observe/STIM_002.jpg
1608.258	1.383	1	observe	Run2	observe/STIM_002.jpg
1611.766	1.67	1	observe	Run2	observe/STIM_002.jpg
1617.222	1.201	0	observe	Run2	observe/STIM_003.jpg
1620.923	1.126	1	observe	Run2	observe/STIM_003.jpg
1624.656	0.845	1	observe	Run2	observe/STIM_003.jpg
1628.442	0.971	1	observe	Run2	observe/STIM_003.jpg
1631.763	0.975	1	observe	Run2	observe/STIM_004.jpg
1635.068	1.606	1	observe	Run2	observe/STIM_004.jpg
1640.163	1.12	1	observe	Run2	observe/STIM_004.jpg
1645.092	1.606	1	observe	Run2	observe/STIM_004.jpg
1650.072	1.057	1	observe	Run2	observe/STIM_005.jpg
1655.018	1.028	1	observe	Run2	observe/STIM_005.jpg
1659.161	1.261	1	observe	Run2	observe/STIM_005.jpg
1663.089	1.365	1	observe	Run2	observe/STIM_005.jpg
1667.343	1.673	0	observe	Run2	observe/STIM_006.jpg
1671.815	1.375	1	observe	Run2	observe/STIM_006.jpg
1677.012	1.311	1	observe	Run2	observe/STIM_006.jpg
1680.494	0.863	1	observe	Run2	observe/STIM_006.jpg
1683.733	0.875	0	observe	Run2	observe/STIM_007.jpg
1686.64	1.506	0	observe	Run2	observe/STIM_007.jpg
1691.97	1.241	1	observe	Run2	observe/STIM_007.jpg
1696.641	1.501	1	observe	Run2	observe/STIM_007.jpg
1701.693	1.191	1	observe	Run2	observe/STIM_008.jpg
1706.017	1.178	1	observe	Run2	observe/STIM_008.jpg
1710.829	1.285	1	observe	Run2	observe/STIM_008.jpg
1715.752	1.183	1	observe	Run2	observe/STIM_008.jpg
1720.574	1.36	1	observe	Run2	observe/STIM_009.jpg
1725.125	1.68	1	observe	Run2	observe/STIM_009.jpg
1730.297	1.49	1	observe	Run2	observe/STIM_009.jpg
1733.896	1.213	1	observe	Run2	observe/STIM_009.jpg
1737.075	1.455	1	observe	Run2	observe/STIM_010.jpg
1741.043	1.003	1	observe	Run2	observe/STIM_010.jpg
1744.624	1.403	1	observe	Run2	observe/STIM_010.jpg
1748.353	1.169	0	observe	Run2	observe/STIM_010.jpg
1752.032	1.544	1	observe	Run2	observe/STIM_011.jpg
1756.561	1.275	1	observe	Run2	observe/STIM_011.jpg
1760.871	1.359	1	observe	Run2	observe/STIM_011.jpg
1764.598	1.256	0	observe	Run2	observe/STIM_011.jpg
1769.291	0.981	1	observe	Run2	observe/STIM_012.jpg
1772.725	0.883	1	observe	Run2	observe/STIM_012.jpg
1776.399	1.037	1	observe	Run2	observe/STIM_012.jpg
1781.045	1.5	0	observe	Run2	observe/STIM_012.jpg
1785.13	1.337	1	observe	Run2	observe/STIM_013.jpg
1790.291	1.541	1	observe	Run2	observe/STIM_013.jpg
1794.001	1.06	0	observe	Run2	observe/STIM_013.jpg
1798.662	1.14	1	observe	Run2	observe/STIM_013.jpg
1802.945	1.638	1	observe	Run2	observe/STIM_014.jpg
1806.55	1.033	1	observe	Run2	observe/STIM_014.jpg
1810.752	1.355	1	observe	Run2	observe/STIM_014.jpg
1814.323	1.559	1	observe	Run2	observe/STIM_014.jpg
1819.152	1.123	1	observe	Run2	observe/STIM_015.jpg
1824.104	1.401	1	observe	Run2	observe/STIM_015.jpg
1827.806	1.455	1	observe	Run2	observe/STIM_015.jpg
1831.471	1.562	1	observe	Run2	observe/STIM_015.jpg
1836.492	0.864	1	observe	Run2	observe/STIM_016.jpg
1839.399	1.45	1	observe	Run2	observe/STIM_016.jpg
1844.371	0.957	1	observe	Run2	observe/STIM_016.jpg
1849.029	1.111	1	observe	Run2	observe/STIM_016.jpg
1853.437	1.138	1	observe	Run2	observe/STIM_017.jpg
1857.109	1.246	1	observe	Run2	observe/STIM_017.jpg
1861.649	1.166	1	observe	Run2	observe/STIM_017.jpg
1865.568	0.954	1	observe	Run2	observe/STIM_017.jpg
1869.181	1.082	1	observe	Run2	observe/STIM_018.jpg
1873.247	1.397	1	observe	Run2	observe/STIM_018.jpg
1877.992	1.269	1	observe	Run2	observe/STIM_018.jpg
1882.777	1.379	1	observe	Run2	observe/STIM_018.jpg
1887.568	1.459	1	observe	Run2	observe/STIM_019.jpg
1892.861	1.494	1	observe	Run2	observe/STIM_019.jpg
1897.547	1.669	1	observe	Run2	observe/STIM_019.jpg
1901.737	1.509	0	observe	Run2	observe/STIM_019.jpg
1906.405	1.619	1	regulate	Run3	regulate/STIM_000.jpg
1911.683	1.957	1	regulate	Run3	regulate/STIM_000.jpg
1917.35	1.744	1	regulate	Run3	regulate/STIM_000.jpg
1922.448	1.604	1	regulate	Run3	regulate/STIM_000.jpg
1927.405	2.408	1	regulate	Run3	regulate/STIM_001.jpg
1933.464	1.224	1	regulate	Run3	regulate/STIM_001.jpg
1938.297	2.021	1	regulate	Run3	regulate/STIM_001.jpg
1943.362	1.794	1	regulate	Run3	regulate/STIM_001.jpg
1947.709	1.783	1	regulate	Run3	regulate/STIM_002.jpg
1951.657	2.546	1	regulate	Run3	regulate/STIM_002.jpg
1957.805	1.197	1	regulate	Run3	regulate/STIM_002.jpg
1962.556	2.05	1	regulate	Run3	regulate/STIM_002.jpg
1966.509	1.549	1	regulate	Run3	regulate/STIM_003.jpg
1970.221	1.754	1	regulate	Run3	regulate/STIM_003.jpg
1974.687	2.253	1	regulate	Run3	regulate/STIM_003.jpg
1979.481	1.178	1	regulate	Run3	regulate/STIM_003.jpg
1983.127	1.498	0	regulate	Run3	regulate/STIM_004.jpg
1986.905	1.472	1	regulate	Run3	regulate/STIM_004.jpg
1990.837	2.045	1	regulate	Run3	regulate/STIM_004.jpg
1996.039	2.168	1	regulate	Run3	regulate/STIM_004.jpg
2000.612	2.248	1	regulate	Run3	regulate/STIM_005.jpg
2005.128	2.45	1	regulate	Run3	regulate/STIM_005.jpg
2011.343	1.696	1	regulate	Run3	regulate/STIM_005.jpg
2016.539	2.532	1	regulate	Run3	regulate/STIM_005.jpg
2022.246	1.966	0	regulate	Run3	regulate/STIM_006.jpg
2027.831	1.503	1	regulate	Run3	regulate/STIM_006.jpg
2032.332	1.693	1	regulate	Run3	regulate/STIM_006.jpg
2036.299	1.411	1	regulate	Run3	regulate/STIM_006.jpg
2041.534	2.007	1	regulate	Run3	regulate/STIM_007.jpg
2045.899	1.108	1	regulate	Run3	regulate/STIM_007.jpg
2049.89	2.15	1	regulate	Run3	regulate/STIM_007.jpg
2054.202	1.137	1	regulate	Run3	regulate/STIM_007.jpg
2058.82	2.103	1	regulate	Run3	regulate/STIM_008.jpg
2064.681	1.755	1	regulate	Run3	regulate/STIM_008.jpg
2069.253	1.343	1	regulate	Run3	regulate/STIM_008.jpg
2072.878	2.228	1	regulate	Run3	regulate/STIM_008.jpg
2077.083	2.065	1	regulate	Run3	regulate/STIM_009.jpg
2081.941	1.842	1	regulate	Run3	regulate/STIM_009.jpg
2086.209	2.244	1	regulate	Run3	regulate/STIM_009.jpg
2091.238	2.378	1	regulate	Run3	regulate/STIM_009.jpg
2096.504	1.568	1	regulate	Run3	regulate/STIM_010.jpg
2101.695	2.117	0	regulate	Run3	regulate/STIM_010.jpg
2107.058	1.459	1	regulate	Run3	regulate/STIM_010.jpg
2111.597	1.214	1	regulate	Run3	regulate/STIM_010.jpg
2116.149	1.331	1	regulate	Run3	regulate/STIM_011.jpg
2119.871	2.093	1	regulate	Run3	regulate/STIM_011.jpg
2125.269	1.488	1	regulate	Run3	regulate/STIM_011.jpg
2130.467	2.269	1	regulate	Run3	regulate/STIM_011.jpg
2134.812	1.695	1	regulate	Run3	regulate/STIM_012.jpg
2138.733	1.315	1	regulate	Run3	regulate/STIM_012.jpg
2143.451	1.162	1	regulate	Run3	regulate/STIM_012.jpg
2148.412	1.833	1	regulate	Run3	regulate/STIM_012.jpg
2153.852	1.931	1	regulate	Run3	regulate/STIM_013.jpg
2159.134	2.494	1	regulate	Run3	regulate/STIM_013.jpg
2165.195	1.729	1	regulate	Run3	regulate/STIM_013.jpg
2170.677	1.952	1	regulate	Run3	regulate/STIM_013.jpg
2174.583	1.358	0	regulate	Run3	regulate/STIM_014.jpg
2179.474	2.084	1	regulate	Run3	regulate/STIM_014.jpg
2183.621	1.785	1	regulate	Run3	regulate/STIM_014.jpg
2188.239	1.921	1	regulate	Run3	regulate/STIM_014.jpg
2194.03	1.272	1	regulate	Run3	regulate/STIM_015.jpg
2198.511	2.129	1	regulate	Run3	regulate/STIM_015.jpg
2204.34	2.3	1	regulate	Run3	regulate/STIM_015.jpg
2210.4	2.277	1	regulate	Run3	regulate/STIM_015.jpg
2215.924	2.253	1	regulate	Run3	regulate/STIM_016.jpg
2221.573	2.011	1	regulate	Run3	regulate/STIM_016.jpg
2225.821	2.53	1	regulate	Run3	regulate/STIM_016.jpg
2232.051	1.328	1	regulate	Run3	regulate/STIM_016.jpg
2235.632	1.137	1	regulate	Run3	regulate/STIM_017.jpg
2239.854	2.01	1	regulate	Run3	regulate/STIM_017.jpg
2244.913	2.02	1	regulate	Run3	regulate/STIM_017.jpg
2249.958	1.612	1	regulate	Run3	regulate/STIM_017.jpg
2254.697	1.507	0	regulate	Run3	regulate/STIM_018.jpg
2258.24	2.46	0	regulate	Run3	regulate/STIM_018.jpg
2263.361	2.088	1	regulate	Run3	regulate/STIM_018.jpg
2269.052	1.15	1	regulate	Run3	regulate/STIM_018.jpg
2273.953	1.276	1	regulate	Run3	regulate/STIM_019.jpg
2278.343	1.632	1	regulate	Run3	regulate/STIM_019.jpg
2282.198	2.411	1	regulate	Run3	regulate/STIM_019.jpg
2286.937	2.575	1	regulate	Run3	regulate/STIM_019.jpg
2293.127	2.295	1	regulate	Run3	regulate/STIM_020.jpg
2298.519	2.291	1	regulate	Run3	regulate/STIM_020.jpg
2303.981	1.262	0	regulate	Run3	regulate/STIM_020.jpg
2307.566	1.784	1	regulate	Run3	regulate/STIM_020.jpg
2311.649	2.316	1	regulate	Run3	regulate/STIM_021.jpg
2316.854	2.496	0	regulate	Run3	regulate/STIM_021.jpg
2321.437	1.801	1	regulate	Run3	regulate/STIM_021.jpg
2325.492	1.603	1	regulate	Run3	regulate/STIM_021.jpg
2329.559	1.984	1	regulate	Run3	regulate/STIM_022.jpg
2334.816	2.218	1	regulate	Run3	regulate/STIM_022.jpg
2339.294	1.162	1	regulate	Run3	regulate/STIM_022.jpg
2343.344	2.367	1	regulate	Run3	regulate/STIM_022.jpg
2348.064	1.317	1	regulate	Run3	regulate/STIM_023.jpg
2352.108	1.761	1	regulate	Run3	regulate/STIM_023.jpg
2356.985	1.314	1	regulate	Run3	regulate/STIM_023.jpg
2361.946	1.526	1	regulate	Run3	regulate/STIM_023.jpg
2366.316	2.154	1	regulate	Run3	regulate/STIM_024.jpg
2371.922	1.587	1	regulate	Run3	regulate/STIM_024.jpg
2376.405	2.31	1	regulate	Run3	regulate/STIM_024.jpg
2382.288	2.578	1	regulate	Run3	regulate/STIM_024.jpg
2388.054	1.554	1	regulate	Run3	regulate/STIM_025.jpg
2392.033	1.521	1	regulate	Run3	regulate/STIM_025.jpg
2396.951	2.026	1	regulate	Run3	regulate/STIM_025.jpg
2402.723	1.733	1	regulate	Run3	regulate/STIM_025.jpg
2406.883	1.395	1	regulate	Run3	regulate/STIM_026.jpg
2411.499	2.087	0	regulate	Run3	regulate/STIM_026.jpg
2417.086	2.527	1	regulate	Run3	regulate/STIM_026.jpg
2422.094	1.765	1	regulate	Run3	regulate/STIM_026.jpg
2426.278	1.125	1	regulate	Run3	regulate/STIM_027.jpg
2431.2	1.142	1	regulate	Run3	regulate/STIM_027.jpg
2434.793	1.418	1	regulate	Run3	regulate/STIM_027.jpg
2438.54	2.496	1	regulate	Run3	regulate/STIM_027.jpg
2444.582	1.543	1	regulate	Run3	regulate/STIM_028.jpg
2448.311	1.512	1	regulate	Run3	regulate/STIM_028.jpg
2452.216	1.919	1	regulate	Run3	regulate/STIM_028.jpg
2457.443	2.12	1	regulate	Run3	regulate/STIM_028.jpg
2461.716	1.439	1	regulate	Run3	regulate/STIM_029.jpg
2466.674	2.341	1	regulate	Run3	regulate/STIM_029.jpg
2472.571	2.053	1	regulate	Run3	regulate/STIM_029.jpg
2477.979	2.538	1	regulate	Run3	regulate/STIM_029.jpg
2483.997	1.465	1	observe	Run3	observe/STIM_000.jpg
2488.691	1.057	1	observe	Run3	observe/STIM_000.jpg
2493.038	1.398	1	observe	Run3	observe/STIM_000.jpg
2497.505	1.064	1	observe	Run3	observe/STIM_000.jpg
2502.291	1.527	1	observe	Run3	observe/STIM_001.jpg
2507.198	1.151	1	observe	Run3	observe/STIM_001.jpg
2511.257	0.93	1	observe	Run3	observe/STIM_001.jpg
2514.391	1.603	1	observe	Run3	observe/STIM_001.jpg
2518.203	1.521	1	observe	Run3	observe/STIM_002.jpg
2522.893	1.195	0	observe	Run3	observe/STIM_002.jpg
2527.912	1.336	1	observe	Run3	observe/STIM_002.jpg
2532.955	0.859	1	observe	Run3	observe/STIM_002.jpg
2536.889	1.385	1	observe	Run3	observe/STIM_003.jpg
2541.298	0.932	1	observe	Run3	observe/STIM_003.jpg
2545.376	1.194	1	observe	Run3	observe/STIM_003.jpg
2549.791	1.096	1	observe	Run3	observe/STIM_003.jpg
2553.853	1.434	1	observe	Run3	observe/STIM_004.jpg
2558.242	1.451	1	observe	Run3	observe/STIM_004.jpg
2563.388	1.677	1	observe	Run3	observe/STIM_004.jpg
2568.386	1.39	1	observe	Run3	observe/STIM_004.jpg
2572.214	1.469	1	observe	Run3	observe/STIM_005.jpg
2576.408	1.611	1	observe	Run3	observe/STIM_005.jpg
2580.617	1.485	1	observe	Run3	observe/STIM_005.jpg
2584.949	1.409	1	observe	Run3	observe/STIM_005.jpg
2590.155	1.623	0	observe	Run3	observe/STIM_006.jpg
2593.706	1.168	1	observe	Run3	observe/STIM_006.jpg
2598.467	0.977	1	observe	Run3	observe/STIM_006.jpg
2603.086	1.475	1	observe	Run3	observe/STIM_006.jpg
2607.787	1.428	1	observe	Run3	observe/STIM_007.jpg
2612.13	0.915	1	observe	Run3	observe/STIM_007.jpg
2615.999	1.58	1	observe	Run3	observe/STIM_007.jpg
2620.784	1.489	1	observe	Run3	observe/STIM_007.jpg
2625.598	1.438	1	observe	Run3	observe/STIM_008.jpg
2629.877	1.22	1	observe	Run3	observe/STIM_008.jpg
2633.796	1.666	1	observe	Run3	observe/STIM_008.jpg
2638.059	1.619	1	observe	Run3	observe/STIM_008.jpg
2641.869	1.304	1	observe	Run3	observe/STIM_009.jpg
2646.814	1.483	1	observe	Run3	observe/STIM_009.jpg
2650.422	1.262	1	observe	Run3	observe/STIM_009.jpg
2653.634	0.924	1	observe	Run3	observe/STIM_009.jpg
2657.056	1.56	1	observe	Run3	observe/STIM_010.jpg
2662.468	0.983	1	observe	Run3	observe/STIM_010.jpg
2666.857	1.612	0	observe	Run3	observe/STIM_010.jpg
2672.232	1.096	1	observe	Run3	observe/STIM_010.jpg
2676.513	1.613	1	observe	Run3	observe/STIM_011.jpg
2681.817	1.016	1	observe	Run3	observe/STIM_011.jpg
2685.475	1.524	1	observe	Run3	observe/STIM_011.jpg
2690.125	1.145	1	observe	Run3	observe/STIM_011.jpg
2694.498	1.222	1	observe	Run3	observe/STIM_012.jpg
2699.529	1.032	1	observe	Run3	observe/STIM_012.jpg
2703.979	1.281	1	observe	Run3	observe/STIM_012.jpg
2708.713	1.015	1	observe	Run3	observe/STIM_012.jpg
2712.411	0.892	1	observe	Run3	observe/STIM_013.jpg
2715.607	1.267	1	observe	Run3	observe/STIM_013.jpg
2719.717	1.216	1	observe	Run3	observe/STIM_013.jpg
2723.799	0.935	0	observe	Run3	observe/STIM_013.jpg
2728.015	0.944	1	observe	Run3	observe/STIM_014.jpg
2732.524	1.188	1	observe	Run3	observe/STIM_014.jpg
2736.915	0.884	1	observe	Run3	observe/STIM_014.jpg
2741.334	1.352	1	observe	Run3	observe/STIM_014.jpg
2745.996	0.855	1	observe	Run3	observe/STIM_015.jpg
2750.176	1.469	1	observe	Run3	observe/STIM_015.jpg
2753.704	0.985	1	observe	Run3	observe/STIM_015.jpg
2757.192	1.106	1	observe	Run3	observe/STIM_015.jpg
2762.208	1.211	1	observe	Run3	observe/STIM_016.jpg
2766.548	1.243	1	observe	Run3	observe/STIM_016.jpg
2771.211	1.444	1	observe	Run3	observe/STIM_016.jpg
2775.996	1.151	1	observe	Run3	observe/STIM_016.jpg
2779.509	0.882	1	observe	Run3	observe/STIM_017.jpg
2783.967	1.539	1	observe	Run3	observe/STIM_017.jpg
2788.929	1.585	1	observe	Run3	observe/STIM_017.jpg
2794.346	0.957	0	observe	Run3	observe/STIM_017.jpg
2798.277	0.91	1	observe	Run3	observe/STIM_018.jpg
2802.992	1.318	1	observe	Run3	observe/STIM_018.jpg
2806.374	0.929	1	observe	Run3	observe/STIM_018.jpg
2809.493	1.354	1	observe	Run3	observe/STIM_018.jpg
2813.931	1.082	1	observe	Run3	observe/STIM_019.jpg
2818.116	1.544	1	observe	Run3	observe/STIM_019.jpg
2822.061	0.871	1	observe	Run3	observe/STIM_019.jpg
2825.392	1.646	1	observe	Run3	observe/STIM_019.jpg
