onset	duration	accuracy_binary	trial_type	learning_stage	stimulus
0.0	2.59	1	regulate	Run1	regulate/STIM_000.jpg
4.65	2.958	1	regulate	Run1	regulate/STIM_000.jpg
10.462	1.862	0	regulate	Run1	regulate/STIM_000.jpg
15.691	2.025	0	regulate	Run1	regulate/STIM_000.jpg
20.165	1.488	1	regulate	Run1	regulate/STIM_001.jpg
25.136	2.401	1	regulate	Run1	regulate/STIM_001.jpg
30.461	2.342	1	regulate	Run1	regulate/STIM_001.jpg
36.618	1.53	1	regulate	Run1	regulate/STIM_001.jpg
41.252	2.488	0	regulate	Run1	regulate/STIM_002.jpg
46.937	2.958	1	regulate	Run1	regulate/STIM_002.jpg
52.575	2.383	1	regulate	Run1	regulate/STIM_002.jpg
58.203	1.705	0	regulate	Run1	regulate/STIM_002.jpg
62.68	2.194	1	regulate	Run1	regulate/STIM_003.jpg
68.25	1.624	1	regulate	Run1	regulate/STIM_003.jpg
72.75	1.901	0	regulate	Run1	regulate/STIM_003.jpg
77.615	2.129	1	regulate	Run1	regulate/STIM_003.jpg
83.275	1.558	1	regulate	Run1	regulate/STIM_004.jpg
87.743	1.473	0	regulate	Run1	regulate/STIM_004.jpg
91.405	1.608	1	regulate	Run1	regulate/STIM_004.jpg
96.919	2.682	1	regulate	Run1	regulate/STIM_004.jpg
102.689	2.57	1	regulate	Run1	regulate/STIM_005.jpg
108.559	2.743	1	regulate	Run1	regulate/STIM_005.jpg
114.487	2.463	1	regulate	Run1	regulate/STIM_005.jpg
119.755	1.49	1	regulate	Run1	regulate/STIM_005.jpg
123.604	2.077	1	regulate	Run1	regulate/STIM_006.jpg
127.709	2.313	1	regulate	Run1	regulate/STIM_006.jpg
132.122	2.383	1	regulate	Run1	regulate/STIM_006.jpg
137.518	2.653	1	regulate	Run1	regulate/STIM_006.jpg
142.501	1.643	1	regulate	Run1	regulate/STIM_007.jpg
146.453	2.856	1	regulate	Run1	regulate/STIM_007.jpg
152.6	1.832	1	regulate	Run1	regulate/STIM_007.jpg
156.613	1.95	0	regulate	Run1	regulate/STIM_007.jpg
161.076	2.897	1	regulate	Run1	regulate/STIM_008.jpg
166.162	2.835	1	regulate	Run1	regulate/STIM_008.jpg
172.763	2.106	1	regulate	Run1	regulate/STIM_008.jpg
177.296	2.745	0	regulate	Run1	regulate/STIM_008.jpg
182.518	2.879	1	regulate	Run1	regulate/STIM_009.jpg
187.914	2.221	1	regulate	Run1	regulate/STIM_009.jpg
193.805	2.632	1	regulate	Run1	regulate/STIM_009.jpg
199.616	2.694	1	regulate	Run1	regulate/STIM_009.jpg
205.64	2.761	1	regulate	Run1	regulate/STIM_010.jpg
211.981	1.89	1	regulate	Run1	regulate/STIM_010.jpg
216.159	1.903	0	regulate	Run1	regulate/STIM_010.jpg
221.428	1.301	1	regulate	Run1	regulate/STIM_010.jpg
225.527	3.198	1	regulate	Run1	regulate/STIM_011.jpg
230.737	2.166	1	regulate	Run1	regulate/STIM_011.jpg
236.778	1.383	0	regulate	Run1	regulate/STIM_011.jpg
241.079	2.026	1	regulate	Run1	regulate/STIM_011.jpg
246.14	2.95	1	regulate	Run1	regulate/STIM_012.jpg
251.821	2.791	1	regulate	Run1	regulate/STIM_012.jpg
257.927	2.905	0	regulate	Run1	regulate/STIM_012.jpg
263.821	2.006	0	regulate	Run1	regulate/STIM_012.jpg
267.87	2.64	1	regulate	Run1	regulate/STIM_013.jpg
273.51	2.446	1	regulate	Run1	regulate/STIM_013.jpg
278.803	1.876	0	regulate	Run1	regulate/STIM_013.jpg
284.006	1.491	1	regulate	Run1	regulate/STIM_013.jpg
288.863	2.019	1	regulate	Run1	regulate/STIM_014.jpg
293.936	2.268	1	regulate	Run1	regulate/STIM_014.jpg
298.287	1.829	1	regulate	Run1	regulate/STIM_014.jpg
302.51	1.277	1	regulate	Run1	regulate/STIM_014.jpg
306.916	2.691	0	regulate	Run1	regulate/STIM_015.jpg
313.232	1.886	1	regulate	Run1	regulate/STIM_015.jpg
317.215	2.327	0	regulate	Run1	regulate/STIM_015.jpg
322.414	2.247	1	regulate	Run1	regulate/STIM_015.jpg
328.48	2.151	0	regulate	Run1	regulate/STIM_016.jpg
333.04	1.671	1	regulate	Run1	regulate/STIM_016.jpg
337.283	2.592	1	regulate	Run1	regulate/STIM_016.jpg
342.23	1.257	1	regulate	Run1	regulate/STIM_016.jpg
346.744	3.146	0	regulate	Run1	regulate/STIM_017.jpg
352.785	2.962	1	regulate	Run1	regulate/STIM_017.jpg
358.323	2.771	1	regulate	Run1	regulate/STIM_017.jpg
364.947	1.654	0	regulate	Run1	regulate/STIM_017.jpg
370.082	2.797	1	regulate	Run1	regulate/STIM_018.jpg
375.854	2.135	1	regulate	Run1	regulate/STIM_018.jpg
381.989	1.914	1	regulate	Run1	regulate/STIM_018.jpg
387.168	2.675	0	regulate	Run1	regulate/STIM_018.jpg
392.148	2.833	0	regulate	Run1	regulate/STIM_019.jpg
397.627	2.275	1	regulate	Run1	regulate/STIM_019.jpg
403.378	1.479	1	regulate	Run1	regulate/STIM_019.jpg
408.502	1.32	1	regulate	Run1	regulate/STIM_019.jpg
412.473	2.771	1	regulate	Run1	regulate/STIM_020.jpg
417.635	2.221	0	regulate	Run1	regulate/STIM_020.jpg
421.946	1.773	1	regulate	Run1	regulate/STIM_020.jpg
426.773	2.065	1	regulate	Run1	regulate/STIM_020.jpg
432.648	2.818	1	regulate	Run1	regulate/STIM_021.jpg
437.769	1.894	1	regulate	Run1	regulate/STIM_021.jpg
442.779	2.535	1	regulate	Run1	regulate/STIM_021.jpg
448.528	2.225	1	regulate	Run1	regulate/STIM_021.jpg
453.946	2.75	0	regulate	Run1	regulate/STIM_022.jpg
460.35	2.582	0	regulate	Run1	regulate/STIM_022.jpg
465.022	2.712	0	regulate	Run1	regulate/STIM_022.jpg
470.523	2.422	1	regulate	Run1	regulate/STIM_022.jpg
475.982	2.168	0	regulate	Run1	regulate/STIM_023.jpg
481.511	1.589	1	regulate	Run1	regulate/STIM_023.jpg
486.334	2.791	1	regulate	Run1	regulate/STIM_023.jpg
491.588	2.805	1	regulate	Run1	regulate/STIM_023.jpg
497.451	3.109	0	regulate	Run1	regulate/STIM_024.jpg
504.296	2.573	1	regulate	Run1	regulate/STIM_024.jpg
510.551	2.151	0	regulate	Run1	regulate/STIM_024.jpg
515.849	1.881	1	regulate	Run1	regulate/STIM_024.jpg
520.756	3.219	1	regulate	Run1	regulate/STIM_025.jpg
526.786	3.0	1	regulate	Run1	regulate/STIM_025.jpg
532.439	2.726	1	regulate	Run1	regulate/STIM_025.jpg
538.436	2.233	0	regulate	Run1	regulate/STIM_025.jpg
544.497	1.934	1	regulate	Run1	regulate/STIM_026.jpg
550.288	2.929	1	regulate	Run1	regulate/STIM_026.jpg
556.141	2.467	1	regulate	Run1	regulate/STIM_026.jpg
561.473	2.596	1	regulate	Run1	regulate/STIM_026.jpg
567.303	2.869	1	regulate	Run1	regulate/STIM_027.jpg
573.509	1.581	1	regulate	Run1	regulate/STIM_027.jpg
577.817	2.732	1	regulate	Run1	regulate/STIM_027.jpg
582.6	1.395	1	regulate	Run1	regulate/STIM_027.jpg
587.497	2.746	1	regulate	Run1	regulate/STIM_028.jpg
593.035	3.099	1	regulate	Run1	regulate/STIM_028.jpg
598.718	2.793	0	regulate	Run1	regulate/STIM_028.jpg
603.569	1.865	1	regulate	Run1	regulate/STIM_028.jpg
608.135	2.772	1	regulate	Run1	regulate/STIM_029.jpg
613.917	1.834	0	regulate	Run1	regulate/STIM_029.jpg
619.553	1.919	0	regulate	Run1	regulate/STIM_029.jpg
623.57	1.469	1	regulate	Run1	regulate/STIM_029.jpg
627.557	0.809	1	observe	Run1	observe/STIM_000.jpg
630.45	1.144	1	observe	Run1	observe/STIM_000.jpg
635.227	1.499	1	observe	Run1	observe/STIM_000.jpg
640.336	0.964	1	observe	Run1	observe/STIM_000.jpg
644.536	1.151	1	observe	Run1	observe/STIM_001.jpg
647.971	1.427	1	observe	Run1	observe/STIM_001.jpg
653.17	1.535	1	observe	Run1	observe/STIM_001.jpg
658.567	1.084	1	observe	Run1	observe/STIM_001.jpg
662.204	0.784	1	observe	Run1	observe/STIM_002.jpg
666.96	1.082	1	observe	Run1	observe/STIM_002.jpg
670.417	0.925	1	observe	Run1	observe/STIM_002.jpg
673.512	1.044	1	observe	Run1	observe/STIM_002.jpg
677.077	0.968	1	observe	Run1	observe/STIM_003.jpg
681.195	1.143	1	observe	Run1	observe/STIM_003.jpg
685.609	1.03	1	observe	Run1	observe/STIM_003.jpg
690.424	1.367	1	observe	Run1	observe/STIM_003.jpg
695.356	0.862	1	observe	Run1	observe/STIM_004.jpg
699.424	1.286	0	observe	Run1	observe/STIM_004.jpg
704.203	1.054	1	observe	Run1	observe/STIM_004.jpg
708.859	1.385	1	observe	Run1	observe/STIM_004.jpg
712.973	1.415	1	observe	Run1	observe/STIM_005.jpg
717.099	1.24	1	observe	Run1	observe/STIM_005.jpg
720.968	0.848	1	observe	Run1	observe/STIM_005.jpg
725.064	1.408	1	observe	Run1	observe/STIM_005.jpg
730.041	1.295	1	observe	Run1	observe/STIM_006.jpg
734.59	1.092	1	observe	Run1	observe/STIM_006.jpg
738.65	1.084	1	observe	Run1	observe/STIM_006.jpg
743.385	0.975	1	observe	Run1	observe/STIM_006.jpg
747.932	1.117	1	observe	Run1	observe/STIM_007.jpg
752.838	1.312	1	observe	Run1	observe/STIM_007.jpg
756.36	1.386	1	observe	Run1	observe/STIM_007.jpg
760.224	1.13	1	observe	Run1	observe/STIM_007.jpg
765.18	1.014	1	observe	Run1	observe/STIM_008.jpg
768.879	0.94	1	observe	Run1	observe/STIM_008.jpg
773.699	1.083	1	observe	Run1	observe/STIM_008.jpg
776.979	0.804	1	observe	Run1	observe/STIM_008.jpg
781.074	1.164	1	observe	Run1	observe/STIM_009.jpg
785.381	1.399	0	observe	Run1	observe/STIM_009.jpg
790.325	1.043	1	observe	Run1	observe/STIM_009.jpg
794.646	1.436	1	observe	Run1	observe/STIM_009.jpg
799.68	1.241	1	observe	Run1	observe/STIM_010.jpg
803.236	1.372	0	observe	Run1	observe/STIM_010.jpg
808.287	0.823	1	observe	Run1	observe/STIM_010.jpg
813.085	0.9	0	observe	Run1	observe/STIM_010.jpg
817.568	1.196	0	observe	Run1	observe/STIM_011.jpg
821.995	0.94	0	observe	Run1	observe/STIM_011.jpg
826.403	1.409	1	observe	Run1	observe/STIM_011.jpg
831.486	1.416	1	observe	Run1	observe/STIM_011.jpg
835.622	1.082	1	observe	Run1	observe/STIM_012.jpg
838.798	1.148	1	observe	Run1	observe/STIM_012.jpg
843.498	0.826	0	observe	Run1	observe/STIM_012.jpg
846.957	0.816	1	observe	Run1	observe/STIM_012.jpg
849.866	1.227	0	observe	Run1	observe/STIM_013.jpg
854.587	1.457	0	observe	Run1	observe/STIM_013.jpg
858.078	0.96	1	observe	Run1	observe/STIM_013.jpg
862.546	1.297	1	observe	Run1	observe/STIM_013.jpg
867.041	1.181	0	observe	Run1	observe/STIM_014.jpg
872.137	0.814	1	observe	Run1	observe/STIM_014.jpg
876.038	0.987	1	observe	Run1	observe/STIM_014.jpg
880.0	1.312	1	observe	Run1	observe/STIM_014.jpg
883.535	1.486	1	observe	Run1	observe/STIM_015.jpg
887.431	1.011	1	observe	Run1	observe/STIM_015.jpg
891.469	1.473	0	observe	Run1	observe/STIM_015.jpg
896.28	0.85	1	observe	Run1	observe/STIM_015.jpg
900.722	1.296	1	observe	Run1	observe/STIM_016.jpg
905.821	1.455	1	observe	Run1	observe/STIM_016.jpg
909.401	1.01	1	observe	Run1	observe/STIM_016.jpg
912.866	1.485	0	observe	Run1	observe/STIM_016.jpg
916.809	1.254	1	observe	Run1	observe/STIM_017.jpg
921.793	1.068	1	observe	Run1	observe/STIM_017.jpg
926.507	1.264	1	observe	Run1	observe/STIM_017.jpg
931.734	0.799	1	observe	Run1	observe/STIM_017.jpg
936.272	1.416	1	observe	Run1	observe/STIM_018.jpg
939.992	1.224	0	observe	Run1	observe/STIM_018.jpg
944.169	0.818	0	observe	Run1	observe/STIM_018.jpg
948.636	1.183	1	observe	Run1	observe/STIM_018.jpg
952.229	1.038	1	observe	Run1	observe/STIM_019.jpg
955.634	1.251	1	observe	Run1	observe/STIM_019.jpg
960.596	1.121	1	observe	Run1	observe/STIM_019.jpg
965.413	1.088	0	observe	Run1	observe/STIM_019.jpg
969.897	2.098	1	regulate	Run2	regulate/STIM_000.jpg
975.058	2.691	1	regulate	Run2	regulate/STIM_000.jpg
981.288	2.286	1	regulate	Run2	regulate/STIM_000.jpg
987.268	1.729	1	regulate	Run2	regulate/STIM_000.jpg
991.174	1.367	1	regulate	Run2	regulate/STIM_001.jpg
996.001	1.571	1	regulate	Run2	regulate/STIM_001.jpg
1001.365	1.875	1	regulate	Run2	regulate/STIM_001.jpg
1005.983	1.704	1	regulate	Run2	regulate/STIM_001.jpg
1010.521	1.89	1	regulate	Run2	regulate/STIM_002.jpg
1015.229	1.593	1	regulate	Run2	regulate/STIM_002.jpg
1019.783	1.612	1	regulate	Run2	regulate/STIM_002.jpg
1024.525	1.643	1	regulate	Run2	regulate/STIM_002.jpg
1029.764	2.77	0	regulate	Run2	regulate/STIM_003.jpg
1035.398	2.34	1	regulate	Run2	regulate/STIM_003.jpg
1041.021	2.389	1	regulate	Run2	regulate/STIM_003.jpg
1046.071	1.602	1	regulate	Run2	regulate/STIM_003.jpg
1051.097	2.765	1	regulate	Run2	regulate/STIM_004.jpg
1056.309	1.685	1	regulate	Run2	regulate/STIM_004.jpg
1061.046	2.148	0	regulate	Run2	regulate/STIM_004.jpg
1066.62	1.202	1	regulate	Run2	regulate/STIM_004.jpg
1071.677	1.816	1	regulate	Run2	regulate/STIM_005.jpg
1075.62	2.406	1	regulate	Run2	regulate/STIM_005.jpg
1080.527	1.326	1	regulate	Run2	regulate/STIM_005.jpg
1083.868	1.163	0	regulate	Run2	regulate/STIM_005.jpg
1088.081	1.879	1	regulate	Run2	regulate/STIM_006.jpg
1093.52	2.122	1	regulate	Run2	regulate/STIM_006.jpg
1097.715	1.44	1	regulate	Run2	regulate/STIM_006.jpg
1102.911	1.831	0	regulate	Run2	regulate/STIM_006.jpg
1108.345	2.64	0	regulate	Run2	regulate/STIM_007.jpg
1114.327	1.911	1	regulate	Run2	regulate/STIM_007.jpg
1118.927	1.273	0	regulate	Run2	regulate/STIM_007.jpg
1123.565	1.416	0	regulate	Run2	regulate/STIM_007.jpg
1127.315	2.015	1	regulate	Run2	regulate/STIM_008.jpg
1131.792	2.062	1	regulate	Run2	regulate/STIM_008.jpg
1136.795	2.391	1	regulate	Run2	regulate/STIM_008.jpg
1141.758	1.937	1	regulate	Run2	regulate/STIM_008.jpg
1146.911	2.546	1	regulate	Run2	regulate/STIM_009.jpg
1151.674	1.806	1	regulate	Run2	regulate/STIM_009.jpg
1155.998	1.994	1	regulate	Run2	regulate/STIM_009.jpg
1160.187	2.106	1	regulate	Run2	regulate/STIM_009.jpg
1166.208	2.634	1	regulate	Run2	regulate/STIM_010.jpg
1172.394	1.749	0	regulate	Run2	regulate/STIM_010.jpg
1176.888	1.237	1	regulate	Run2	regulate/STIM_010.jpg
1181.867	1.391	1	regulate	Run2	regulate/STIM_010.jpg
1187.143	2.346	1	regulate	Run2	regulate/STIM_011.jpg
1192.798	1.551	0	regulate	Run2	regulate/STIM_011.jpg
1197.775	2.027	1	regulate	Run2	regulate/STIM_011.jpg
1203.258	2.009	1	regulate	Run2	regulate/STIM_011.jpg
1209.055	1.41	1	regulate	Run2	regulate/STIM_012.jpg
1213.792	1.92	1	regulate	Run2	regulate/STIM_012.jpg
1219.293	2.118	0	regulate	Run2	regulate/STIM_012.jpg
1224.897	1.495	1	regulate	Run2	regulate/STIM_012.jpg
1228.854	1.401	1	regulate	Run2	regulate/STIM_013.jpg
1233.396	1.571	1	regulate	Run2	regulate/STIM_013.jpg
1237.484	2.47	1	regulate	Run2	regulate/STIM_013.jpg
1242.784	1.986	1	regulate	Run2	regulate/STIM_013.jpg
1247.289	2.407	1	regulate	Run2	regulate/STIM_014.jpg
1252.543	2.07	1	regulate	Run2	regulate/STIM_014.jpg
1257.212	1.519	1	regulate	Run2	regulate/STIM_014.jpg
1261.365	1.154	1	regulate	Run2	regulate/STIM_014.jpg
1266.236	2.81	1	regulate	Run2	regulate/STIM_015.jpg
1271.096	1.566	1	regulate	Run2	regulate/STIM_015.jpg
1275.885	1.184	1	regulate	Run2	regulate/STIM_015.jpg
1280.182	2.224	1	regulate	Run2	regulate/STIM_015.jpg
1286.172	1.416	0	regulate	Run2	regulate/STIM_016.jpg
1290.781	1.662	1	regulate	Run2	regulate/STIM_016.jpg
1296.256	1.95	1	regulate	Run2	regulate/STIM_016.jpg
1301.756	1.169	1	regulate	Run2	regulate/STIM_016.jpg
1306.452	2.72	0	regulate	Run2	regulate/STIM_017.jpg
1311.659	1.9	1	regulate	Run2	regulate/STIM_017.jpg
1315.699	2.397	1	regulate	Run2	regulate/STIM_017.jpg
1321.442	1.511	1	regulate	Run2	regulate/STIM_017.jpg
1325.246	2.476	1	regulate	Run2	regulate/STIM_018.jpg
1330.353	2.389	0	regulate	Run2	regulate/STIM_018.jpg
1335.886	1.695	1	regulate	Run2	regulate/STIM_018.jpg
1340.699	2.076	1	regulate	Run2	regulate/STIM_018.jpg
1346.155	2.549	1	regulate	Run2	regulate/STIM_019.jpg
1351.576	2.246	1	regulate	Run2	regulate/STIM_019.jpg
1357.549	1.321	1	regulate	Run2	regulate/STIM_019.jpg
1360.898	1.328	1	regulate	Run2	regulate/STIM_019.jpg
1365.851	2.386	1	regulate	Run2	regulate/STIM_020.jpg
1371.964	2.037	1	regulate	Run2	regulate/STIM_020.jpg
1376.368	1.49	1	regulate	Run2	regulate/STIM_020.jpg
1380.9	2.274	1	regulate	Run2	regulate/STIM_020.jpg
1385.455	2.8	1	regulate	Run2	regulate/STIM_021.jpg
1391.452	2.128	1	regulate	Run2	regulate/STIM_021.jpg
1396.376	2.512	1	regulate	Run2	regulate/STIM_021.jpg
1402.298	2.236	1	regulate	Run2	regulate/STIM_021.jpg
1408.454	1.689	1	regulate	Run2	regulate/STIM_022.jpg
1413.511	1.995	1	regulate	Run2	regulate/STIM_022.jpg
1418.76	2.383	1	regulate	Run2	regulate/STIM_022.jpg
1423.713	2.146	1	regulate	Run2	regulate/STIM_022.jpg
1428.267	2.31	0	regulate	Run2	regulate/STIM_023.jpg
1433.063	1.621	1	regulate	Run2	regulate/STIM_023.jpg
1437.426	1.701	1	regulate	Run2	regulate/STIM_023.jpg
1442.282	1.516	1	regulate	Run2	regulate/STIM_023.jpg
1447.178	2.787	1	regulate	Run2	regulate/STIM_024.jpg
1452.603	1.587	1	regulate	Run2	regulate/STIM_024.jpg
1456.477	1.975	1	regulate	Run2	regulate/STIM_024.jpg
1462.141	1.147	1	regulate	Run2	regulate/STIM_024.jpg
1465.44	1.637	1	regulate	Run2	regulate/STIM_025.jpg
1470.003	2.058	1	regulate	Run2	regulate/STIM_025.jpg
1474.166	1.967	1	regulate	Run2	regulate/STIM_025.jpg
1478.792	2.07	1	regulate	Run2	regulate/STIM_025.jpg
1484.333	2.501	0	regulate	Run2	regulate/STIM_026.jpg
1489.092	2.51	1	regulate	Run2	regulate/STIM_026.jpg
1494.214	2.399	1	regulate	Run2	regulate/STIM_026.jpg
1499.3	2.04	1	regulate	Run2	regulate/STIM_026.jpg
1504.562	2.515	1	regulate	Run2	regulate/STIM_027.jpg
1509.356	1.295	1	regulate	Run2	regulate/STIM_027.jpg
1513.243	1.912	1	regulate	Run2	regulate/STIM_027.jpg
1517.271	1.792	1	regulate	Run2	regulate/STIM_027.jpg
1521.577	2.228	1	regulate	Run2	regulate/STIM_028.jpg
1527.089	1.766	1	regulate	Run2	regulate/STIM_028.jpg
1532.022	1.569	1	regulate	Run2	regulate/STIM_028.jpg
1537.572	1.156	1	regulate	Run2	regulate/STIM_028.jpg
1541.907	2.334	1	regulate	Run2	regulate/STIM_029.jpg
1547.66	1.273	0	regulate	Run2	regulate/STIM_029.jpg
1552.311	1.993	1	regulate	Run2	regulate/STIM_029.jpg
1557.5	1.028	1	regulate	Run2	regulate/STIM_029.jpg
1561.648	1.083	1	observe	Run2	observe/STIM_000.jpg
1566.598	1.354	1	observe	Run2	observe/STIM_000.jpg
1570.564	1.158	1	observe	Run2	observe/STIM_000.jpg
1574.736	0.882	0	observe	Run2	observe/STIM_000.jpg
1579.449	0.873	1	observe	Run2	observe/STIM_001.jpg
1582.979	1.361	1	observe	Run2	observe/STIM_001.jpg
1587.709	1.034	0	observe	Run2	observe/STIM_001.jpg
1592.121	1.483	1	observe	Run2	observe/STIM_001.jpg
1597.279	0.961	1	observe	Run2	observe/STIM_002.jpg
1601.53	1.032	1	observe	Run2	observe/STIM_002.jpg
1605.618	1.498	1	observe	Run2	observe/STIM_002.jpg
1610.963	1.165	1	observe	Run2	observe/STIM_002.jpg
1615.178	1.486	0	observe	Run2	observe/STIM_003.jpg
1619.684	1.431	1	observe	Run2	observe/STIM_003.jpg
1624.864	1.382	1	observe	Run2	observe/STIM_003.jpg
1628.611	0.95	1	observe	Run2	observe/STIM_003.jpg
1631.768	0.78	1	observe	Run2	observe/STIM_004.jpg
1635.461	0.801	1	observe	Run2	observe/STIM_004.jpg
1639.897	1.296	1	observe	Run2	observe/STIM_004.jpg
1643.605	1.024	1	observe	Run2	observe/STIM_004.jpg
1646.877	0.994	1	observe	Run2	observe/STIM_005.jpg
1650.807	1.023	1	observe	Run2	observe/STIM_005.jpg
1654.644	0.861	1	observe	Run2	observe/STIM_005.jpg
1659.495	0.955	1	observe	Run2	observe/STIM_005.jpg
1663.608	0.836	0	observe	Run2	observe/STIM_006.jpg
1667.209	0.988	1	observe	Run2	observe/STIM_006.jpg
1672.184	1.326	1	observe	Run2	observe/STIM_006.jpg
1677.303	1.456	1	observe	Run2	observe/STIM_006.jpg
1682.495	1.162	0	observe	Run2	observe/STIM_007.jpg
1686.787	0.887	0	observe	Run2	observe/STIM_007.jpg
1690.189	0.83	1	observe	Run2	observe/STIM_007.jpg
1694.141	1.4	1	observe	Run2	observe/STIM_007.jpg
1699.354	1.195	1	observe	Run2	observe/STIM_008.jpg
1703.061	1.382	1	observe	Run2	observe/STIM_008.jpg
1707.029	1.089	1	observe	Run2	observe/STIM_008.jpg
1710.847	0.991	1	observe	Run2	observe/STIM_008.jpg
1715.463	1.077	1	observe	Run2	observe/STIM_009.jpg
1718.576	1.079	1	observe	Run2	observe/STIM_009.jpg
1722.794	1.36	1	observe	Run2	observe/STIM_009.jpg
1726.156	0.988	1	observe	Run2	observe/STIM_009.jpg
1730.234	0.948	1	observe	Run2	observe/STIM_010.jpg
1734.099	0.905	1	observe	Run2	observe/STIM_010.jpg
1737.541	0.912	1	observe	Run2	observe/STIM_010.jpg
1740.527	0.774	0	observe	Run2	observe/STIM_010.jpg
1744.255	1.228	1	observe	Run2	observe/STIM_011.jpg
1748.277	1.51	1	observe	Run2	observe/STIM_011.jpg
1753.358	1.148	1	observe	Run2	observe/STIM_011.jpg
1757.532	1.225	0	observe	Run2	observe/STIM_011.jpg
1761.374	1.001	1	observe	Run2	observe/STIM_012.jpg
1764.55	0.794	1	observe	Run2	observe/STIM_012.jpg
1768.308	1.031	1	observe	Run2	observe/STIM_012.jpg
1771.876	0.967	0	observe	Run2	observe/STIM_012.jpg
1775.008	1.462	1	observe	Run2	observe/STIM_013.jpg
1779.86	1.315	1	observe	Run2	observe/STIM_013.jpg
1783.326	1.322	0	observe	Run2	observe/STIM_013.jpg
1787.451	1.007	1	observe	Run2	observe/STIM_013.jpg
1792.408	1.347	1	observe	Run2	observe/STIM_014.jpg
1796.453	1.113	1	observe	Run2	observe/STIM_014.jpg
1799.921	1.274	1	observe	Run2	observe/STIM_014.jpg
1803.394	1.489	1	observe	Run2	observe/STIM_014.jpg
1807.456	1.029	1	observe	Run2	observe/STIM_015.jpg
1811.536	1.111	1	observe	Run2	observe/STIM_015.jpg
1816.131	0.86	1	observe	Run2	observe/STIM_015.jpg
1820.454	1.257	1	observe	Run2	observe/STIM_015.jpg
1824.788	0.815	1	observe	Run2	observe/STIM_016.jpg
1828.155	1.521	1	observe	Run2	observe/STIM_016.jpg
1833.473	1.389	1	observe	Run2	observe/STIM_016.jpg
1838.396	1.061	1	observe	Run2	observe/STIM_016.jpg
1843.159	1.506	1	observe	Run2	observe/STIM_017.jpg
1848.018	1.058	1	observe	Run2	observe/STIM_017.jpg
1851.172	1.521	1	observe	Run2	observe/STIM_017.jpg
1854.966	1.195	0	observe	Run2	observe/STIM_017.jpg
1859.343	0.854	1	observe	Run2	observe/STIM_018.jpg
1862.818	1.175	1	observe	Run2	observe/STIM_018.jpg
1867.434	1.066	1	observe	Run2	observe/STIM_018.jpg
1871.769	1.359	1	observe	Run2	observe/STIM_018.jpg
1876.612	1.398	1	observe	Run2	observe/STIM_019.jpg
1880.847	0.983	1	observe	Run2	observe/STIM_019.jpg
1884.608	0.854	1	observe	Run2	observe/STIM_019.jpg
1888.277	0.814	1	observe	Run2	observe/STIM_019.jpg
1891.912	2.237	1	regulate	Run3	regulate/STIM_000.jpg
1896.788	1.538	1	regulate	Run3	regulate/STIM_000.jpg
1901.447	1.103	1	regulate	Run3	regulate/STIM_000.jpg
1904.579	1.103	1	regulate	Run3	regulate/STIM_000.jpg
1908.82	2.068	1	regulate	Run3	regulate/STIM_001.jpg
1913.42	2.13	1	regulate	Run3	regulate/STIM_001.jpg
1919.517	1.26	1	regulate	Run3	regulate/STIM_001.jpg
1923.28	2.109	1	regulate	Run3	regulate/STIM_001.jpg
1929.088	1.495	1	regulate	Run3	regulate/STIM_002.jpg
1932.897	2.108	1	regulate	Run3	regulate/STIM_002.jpg
1937.448	1.956	1	regulate	Run3	regulate/STIM_002.jpg
1941.857	1.555	1	regulate	Run3	regulate/STIM_002.jpg
1946.332	2.25	1	regulate	Run3	regulate/STIM_003.jpg
1950.73	1.044	1	regulate	Run3	regulate/STIM_003.jpg
1954.072	2.334	1	regulate	Run3	regulate/STIM_003.jpg
1959.573	1.562	1	regulate	Run3	regulate/STIM_003.jpg
1964.217	1.822	0	regulate	Run3	regulate/STIM_004.jpg
1968.74	1.416	1	regulate	Run3	regulate/STIM_004.jpg
1972.334	1.941	1	regulate	Run3	regulate/STIM_004.jpg
1977.17	2.127	1	regulate	Run3	regulate/STIM_004.jpg
1983.05	1.275	1	regulate	Run3	regulate/STIM_005.jpg
1988.164	1.532	1	regulate	Run3	regulate/STIM_005.jpg
1993.303	1.78	1	regulate	Run3	regulate/STIM_005.jpg
1998.14	1.014	1	regulate	Run3	regulate/STIM_005.jpg
2002.642	1.779	0	regulate	Run3	regulate/STIM_006.jpg
2007.708	1.43	1	regulate	Run3	regulate/STIM_006.jpg
2011.625	1.875	1	regulate	Run3	regulate/STIM_006.jpg
2016.636	1.362	1	regulate	Run3	regulate/STIM_006.jpg
2021.309	1.191	0	regulate	Run3	regulate/STIM_007.jpg
2024.691	2.015	1	regulate	Run3	regulate/STIM_007.jpg
2030.466	1.222	1	regulate	Run3	regulate/STIM_007.jpg
2033.87	1.256	1	regulate	Run3	regulate/STIM_007.jpg
2038.12	1.171	1	regulate	Run3	regulate/STIM_008.jpg
2042.305	2.123	0	regulate	Run3	regulate/STIM_008.jpg
2046.53	2.182	1	regulate	Run3	regulate/STIM_008.jpg
2052.425	1.111	1	regulate	Run3	regulate/STIM_008.jpg
2057.319	1.277	1	regulate	Run3	regulate/STIM_009.jpg
2062.087	1.608	1	regulate	Run3	regulate/STIM_009.jpg
2066.736	1.727	1	regulate	Run3	regulate/STIM_009.jpg
2070.47	2.248	1	regulate	Run3	regulate/STIM_009.jpg
2075.429	2.317	1	regulate	Run3	regulate/STIM_010.jpg
2081.194	1.964	0	regulate	Run3	regulate/STIM_010.jpg
2086.366	1.297	1	regulate	Run3	regulate/STIM_010.jpg
2091.117	1.146	1	regulate	Run3	regulate/STIM_010.jpg
2094.48	2.215	1	regulate	Run3	regulate/STIM_011.jpg
2099.266	2.02	1	regulate	Run3	regulate/STIM_011.jpg
2105.049	1.557	1	regulate	Run3	regulate/STIM_011.jpg
2109.394	1.421	1	regulate	Run3	regulate/STIM_011.jpg
2114.658	2.181	1	regulate	Run3	regulate/STIM_012.jpg
2119.442	1.176	1	regulate	Run3	regulate/STIM_012.jpg
2123.906	1.178	1	regulate	Run3	regulate/STIM_012.jpg
2128.032	2.351	1	regulate	Run3	regulate/STIM_012.jpg
2134.265	1.038	1	regulate	Run3	regulate/STIM_013.jpg
2137.716	1.372	1	regulate	Run3	regulate/STIM_013.jpg
2142.382	1.928	1	regulate	Run3	regulate/STIM_013.jpg
2146.689	1.94	1	regulate	Run3	regulate/STIM_013.jpg
2150.708	2.353	0	regulate	Run3	regulate/STIM_014.jpg
2156.531	2.062	1	regulate	Run3	regulate/STIM_014.jpg
2160.799	2.269	1	regulate	Run3	regulate/STIM_014.jpg
2165.225	1.76	1	regulate	Run3	regulate/STIM_014.jpg
2170.747	1.902	1	regulate	Run3	regulate/STIM_015.jpg
2175.961	2.145	1	regulate	Run3	regulate/STIM_015.jpg
2182.091	1.89	1	regulate	Run3	regulate/STIM_015.jpg
2186.866	2.233	1	regulate	Run3	regulate/STIM_015.jpg
2191.496	1.913	1	regulate	Run3	regulate/STIM_016.jpg
2196.667	1.394	1	regulate	Run3	regulate/STIM_016.jpg
2200.53	2.02	1	regulate	Run3	regulate/STIM_016.jpg
2206.117	2.168	1	regulate	Run3	regulate/STIM_016.jpg
2211.177	1.348	1	regulate	Run3	regulate/STIM_017.jpg
2214.64	1.371	1	regulate	Run3	regulate/STIM_017.jpg
2218.063	2.012	1	regulate	Run3	regulate/STIM_017.jpg
2223.623	2.306	1	regulate	Run3	regulate/STIM_017.jpg
2227.974	1.04	1	regulate	Run3	regulate/STIM_018.jpg
2232.708	1.692	0	regulate	Run3	regulate/STIM_018.jpg
2238.293	1.39	1	regulate	Run3	regulate/STIM_018.jpg
2242.546	1.105	1	regulate	Run3	regulate/STIM_018.jpg
2246.464	1.7	1	regulate	Run3	regulate/STIM_019.jpg
2251.654	1.286	1	regulate	Run3	regulate/STIM_019.jpg
2255.46	1.364	1	regulate	Run3	regulate/STIM_019.jpg
2259.585	1.262	1	regulate	Run3	regulate/STIM_019.jpg
2264.334	1.017	1	regulate	Run3	regulate/STIM_020.jpg
2267.856	1.326	1	regulate	Run3	regulate/STIM_020.jpg
2272.633	1.993	1	regulate	Run3	regulate/STIM_020.jpg
2277.58	1.565	1	regulate	Run3	regulate/STIM_020.jpg
2281.205	1.893	1	regulate	Run3	regulate/STIM_021.jpg
2286.489	1.985	0	regulate	Run3	regulate/STIM_021.jpg
2291.462	1.675	1	regulate	Run3	regulate/STIM_021.jpg
2296.909	2.118	1	regulate	Run3	regulate/STIM_021.jpg
2301.68	1.347	1	regulate	Run3	regulate/STIM_022.jpg
2306.508	2.157	1	regulate	Run3	regulate/STIM_022.jpg
2311.734	1.141	1	regulate	Run3	regulate/STIM_022.jpg
2316.496	1.318	1	regulate	Run3	regulate/STIM_022.jpg
2320.496	1.504	1	regulate	Run3	regulate/STIM_023.jpg
2324.877	2.112	1	regulate	Run3	regulate/STIM_023.jpg
2329.81	1.848	1	regulate	Run3	regulate/STIM_023.jpg
2334.21	1.806	1	regulate	Run3	regulate/STIM_023.jpg
2339.264	1.565	1	regulate	Run3	regulate/STIM_024.jpg
2343.099	1.364	1	regulate	Run3	regulate/STIM_024.jpg
2348.167	2.294	1	regulate	Run3	regulate/STIM_024.jpg
2353.614	1.4	1	regulate	Run3	regulate/STIM_024.jpg
2358.756	2.147	1	regulate	Run3	regulate/STIM_025.jpg
2364.58	1.02	1	regulate	Run3	regulate/STIM_025.jpg
2367.928	2.009	1	regulate	Run3	regulate/STIM_025.jpg
2372.534	1.438	1	regulate	Run3	regulate/STIM_025.jpg
2377.657	1.74	1	regulate	Run3	regulate/STIM_026.jpg
2383.116	2.338	0	regulate	Run3	regulate/STIM_026.jpg
2387.54	2.035	1	regulate	Run3	regulate/STIM_026.jpg
2391.685	1.993	1	regulate	Run3	regulate/STIM_026.jpg
2396.945	1.915	1	regulate	Run3	regulate/STIM_027.jpg
2402.608	1.438	1	regulate	Run3	regulate/STIM_027.jpg
2407.155	2.31	1	regulate	Run3	regulate/STIM_027.jpg
2412.15	1.891	1	regulate	Run3	regulate/STIM_027.jpg
2416.642	1.448	1	regulate	Run3	regulate/STIM_028.jpg
2421.079	1.07	1	regulate	Run3	regulate/STIM_028.jpg
2425.659	1.874	1	regulate	Run3	regulate/STIM_028.jpg
2429.605	1.608	1	regulate	Run3	regulate/STIM_028.jpg
2434.255	1.14	1	regulate	Run3	regulate/STIM_029.jpg
2438.142	1.601	1	regulate	Run3	regulate/STIM_029.jpg
2441.909	1.941	1	regulate	Run3	regulate/STIM_029.jpg
2446.221	1.534	1	regulate	Run3	regulate/STIM_029.jpg
2451.058	1.238	1	observe	Run3	observe/STIM_000.jpg
2454.912	1.367	1	observe	Run3	observe/STIM_000.jpg
2459.249	1.01	0	observe	Run3	observe/STIM_000.jpg
2463.593	1.38	0	observe	Run3	observe/STIM_000.jpg
2467.461	1.401	1	observe	Run3	observe/STIM_001.jpg
2472.312	0.794	1	observe	Run3	observe/STIM_001.jpg
2475.119	1.178	1	observe	Run3	observe/STIM_001.jpg
2480.271	0.937	1	observe	Run3	observe/STIM_001.jpg
2484.477	1.216	1	observe	Run3	observe/STIM_002.jpg
2487.77	1.085	0	observe	Run3	observe/STIM_002.jpg
2492.777	0.998	1	observe	Run3	observe/STIM_002.jpg
2496.971	1.034	1	observe	Run3	observe/STIM_002.jpg
2500.226	1.006	1	observe	Run3	observe/STIM_003.jpg
2503.371	1.503	0	observe	Run3	observe/STIM_003.jpg
2508.864	1.155	1	observe	Run3	observe/STIM_003.jpg
2513.789	1.417	0	observe	Run3	observe/STIM_003.jpg
2518.091	1.426	1	observe	Run3	observe/STIM_004.jpg
2521.707	1.083	1	observe	Run3	observe/STIM_004.jpg
2525.177	1.3	1	observe	Run3	observe/STIM_004.jpg
2529.422	1.204	1	observe	Run3	observe/STIM_004.jpg
2534.599	1.196	1	observe	Run3	observe/STIM_005.jpg
2539.474	1.473	1	observe	Run3	observe/STIM_005.jpg
2543.581	0.84	1	observe	Run3	observe/STIM_005.jpg
2548.04	1.524	1	observe	Run3	observe/STIM_005.jpg
2551.934	1.27	0	observe	Run3	observe/STIM_006.jpg
2555.584	1.133	1	observe	Run3	observe/STIM_006.jpg
2560.146	1.129	0	observe	Run3	observe/STIM_006.jpg
2564.166	1.369	1	observe	Run3	observe/STIM_006.jpg
2569.196	1.256	1	observe	Run3	observe/STIM_007.jpg
2573.206	1.414	1	observe	Run3	observe/STIM_007.jpg
2576.999	0.824	1	observe	Run3	observe/STIM_007.jpg
2580.461	1.062	1	observe	Run3	observe/STIM_007.jpg
2584.955	1.233	1	observe	Run3	observe/STIM_008.jpg
2590.006	1.424	0	observe	Run3	observe/STIM_008.jpg
2593.47	0.934	1	observe	Run3	observe/STIM_008.jpg
2598.03	0.861	1	observe	Run3	observe/STIM_008.jpg
2602.714	0.915	1	observe	Run3	observe/STIM_009.jpg
2605.909	0.787	1	observe	Run3	observe/STIM_009.jpg
2609.594	1.201	1	observe	Run3	observe/STIM_009.jpg
2613.789	1.382	1	observe	Run3	observe/STIM_009.jpg
2618.944	0.797	1	observe	Run3	observe/STIM_010.jpg
2623.703	0.81	1	observe	Run3	observe/STIM_010.jpg
2626.892	0.881	0	observe	Run3	observe/STIM_010.jpg
2631.76	0.811	0	observe	Run3	observe/STIM_010.jpg
2635.955	0.899	0	observe	Run3	observe/STIM_011.jpg
2640.25	1.09	1	observe	Run3	observe/STIM_011.jpg
2643.758	1.143	1	observe	Run3	observe/STIM_011.jpg
2647.674	1.243	1	observe	Run3	observe/STIM_011.jpg
2651.076	1.075	1	observe	Run3	observe/STIM_012.jpg
2655.86	1.073	1	observe	Run3	observe/STIM_012.jpg
2659.814	0.789	1	observe	Run3	observe/STIM_012.jpg
2663.731	0.82	1	observe	Run3	observe/STIM_012.jpg
2668.318	1.193	1	observe	Run3	observe/STIM_013.jpg
2671.618	1.283	1	observe	Run3	observe/STIM_013.jpg
2675.557	0.949	1	observe	Run3	observe/STIM_013.jpg
2679.176	1.125	0	observe	Run3	observe/STIM_013.jpg
2682.762	0.904	1	observe	Run3	observe/STIM_014.jpg
2687.332	1.139	1	observe	Run3	observe/STIM_014.jpg
2691.337	1.381	1	observe	Run3	observe/STIM_014.jpg
2696.529	0.895	1	observe	Run3	observe/STIM_014.jpg
2700.838	1.235	1	observe	Run3	observe/STIM_015.jpg
2704.08	0.88	1	observe	Run3	observe/STIM_015.jpg
2707.428	1.125	1	observe	Run3	observe/STIM_015.jpg
2711.088	1.224	1	observe	Run3	observe/STIM_015.jpg
2715.4	1.054	1	observe	Run3	observe/STIM_016.jpg
2720.044	1.37	1	observe	Run3	observe/STIM_016.jpg
2724.252	0.818	1	observe	Run3	observe/STIM_016.jpg
2728.122	1.512	1	observe	Run3	observe/STIM_016.jpg
2731.812	0.866	1	observe	Run3	observe/STIM_017.jpg
2735.893	1.019	0	observe	Run3	observe/STIM_017.jpg
2739.551	1.498	1	observe	Run3	observe/STIM_017.jpg
2744.178	1.508	0	observe	Run3	observe/STIM_017.jpg
2749.463	1.265	1	observe	Run3	observe/STIM_018.jpg
2753.134	0.9	1	observe	Run3	observe/STIM_018.jpg
2757.687	1.422	1	observe	Run3	observe/STIM_018.jpg
2761.518	1.342	1	observe	Run3	observe/STIM_018.jpg
2766.064	0.788	1	observe	Run3	observe/STIM_019.jpg
2769.292	0.851	1	observe	Run3	observe/STIM_019.jpg
2772.687	0.993	1	observe	Run3	observe/STIM_019.jpg
2776.971	1.192	1	observe	Run3	observe/STIM_019.jpg
