onset	duration	response_time_ms	trial_type	learning_stage	stimulus	response_port
0.0	2.59	2589.7	regulate	Run1	regulate/STIM_000.jpg	100
4.65	2.958	2958.4	regulate	Run1	regulate/STIM_000.jpg	100
10.462	1.862	1861.5	regulate	Run1	regulate/STIM_000.jpg	99
15.691	2.025	2025.2	regulate	Run1	regulate/STIM_000.jpg	99
20.165	1.488	1488.5	regulate	Run1	regulate/STIM_001.jpg	99
25.136	2.401	2400.8	regulate	Run1	regulate/STIM_001.jpg	100
30.461	2.342	2341.5	regulate	Run1	regulate/STIM_001.jpg	100
36.618	1.53	1530.5	regulate	Run1	regulate/STIM_001.jpg	99
41.252	2.488	2488.4	regulate	Run1	regulate/STIM_002.jpg	100
46.937	2.958	2958.5	regulate	Run1	regulate/STIM_002.jpg	99
52.575	2.383	2382.8	regulate	Run1	regulate/STIM_002.jpg	99
58.203	1.705	1705.1	regulate	Run1	regulate/STIM_002.jpg	100
62.68	2.194	2193.5	regulate	Run1	regulate/STIM_003.jpg	100
68.25	1.624	1624.1	regulate	Run1	regulate/STIM_003.jpg	99
72.75	1.901	1901.1	regulate	Run1	regulate/STIM_003.jpg	100
77.615	2.129	2129.1	regulate	Run1	regulate/STIM_003.jpg	99
83.275	1.558	1557.9	regulate	Run1	regulate/STIM_004.jpg	100
87.743	1.473	1473.3	regulate	Run1	regulate/STIM_004.jpg	99
91.405	1.608	1607.5	regulate	Run1	regulate/STIM_004.jpg	100
96.919	2.682	2682.4	regulate	Run1	regulate/STIM_004.jpg	100
102.689	2.57	2570.3	regulate	Run1	regulate/STIM_005.jpg	99
108.559	2.743	2742.8	regulate	Run1	regulate/STIM_005.jpg	99
114.487	2.463	2463.3	regulate	Run1	regulate/STIM_005.jpg	100
119.755	1.49	1490.5	regulate	Run1	regulate/STIM_005.jpg	100
123.604	2.077	2076.6	regulate	Run1	regulate/STIM_006.jpg	100
127.709	2.313	2313.4	regulate	Run1	regulate/STIM_006.jpg	100
132.122	2.383	2382.8	regulate	Run1	regulate/STIM_006.jpg	100
137.518	2.653	2653.3	regulate	Run1	regulate/STIM_006.jpg	99
142.501	1.643	1643.3	regulate	Run1	regulate/STIM_007.jpg	99
146.453	2.856	2856.0	regulate	Run1	regulate/STIM_007.jpg	99
152.6	1.832	1832.0	regulate	Run1	regulate/STIM_007.jpg	99
156.613	1.95	1950.1	regulate	Run1	regulate/STIM_007.jpg	100
161.076	2.897	2896.9	regulate	Run1	regulate/STIM_008.jpg	100
166.162	2.835	2834.6	regulate	Run1	regulate/STIM_008.jpg	100
172.763	2.106	2106.1	regulate	Run1	regulate/STIM_008.jpg	100
177.296	2.745	2745.3	regulate	Run1	regulate/STIM_008.jpg	99
182.518	2.879	2879.3	regulate	Run1	regulate/STIM_009.jpg	99
187.914	2.221	2221.3	regulate	Run1	regulate/STIM_009.jpg	100
193.805	2.632	2632.5	regulate	Run1	regulate/STIM_009.jpg	100
199.616	2.694	2693.7	regulate	Run1	regulate/STIM_009.jpg	99
205.64	2.761	2760.6	regulate	Run1	regulate/STIM_010.jpg	100
211.981	1.89	1889.7	regulate	Run1	regulate/STIM_010.jpg	99
216.159	1.903	1903.2	regulate	Run1	regulate/STIM_010.jpg	100
221.428	1.301	1301.0	regulate	Run1	regulate/STIM_010.jpg	100
225.527	3.198	3197.9	regulate	Run1	regulate/STIM_011.jpg	100
230.737	2.166	2165.7	regulate	Run1	regulate/STIM_011.jpg	99
236.778	1.383	1382.8	regulate	Run1	regulate/STIM_011.jpg	100
241.079	2.026	2025.8	regulate	Run1	regulate/STIM_011.jpg	100
246.14	2.95	2949.6	regulate	Run1	regulate/STIM_012.jpg	100
251.821	2.791	2790.6	regulate	Run1	regulate/STIM_012.jpg	100
257.927	2.905	2905.1	regulate	Run1	regulate/STIM_012.jpg	99
263.821	2.006	2006.2	regulate	Run1	regulate/STIM_012.jpg	99
267.87	2.64	2639.5	regulate	Run1	regulate/STIM_013.jpg	99
273.51	2.446	2446.3	regulate	Run1	regulate/STIM_013.jpg	100
278.803	1.876	1876.0	regulate	Run1	regulate/STIM_013.jpg	100
284.006	1.491	1491.2	regulate	Run1	regulate/STIM_013.jpg	100
288.863	2.019	2019.3	regulate	Run1	regulate/STIM_014.jpg	99
293.936	2.268	2268.4	regulate	Run1	regulate/STIM_014.jpg	99
298.287	1.829	1829.2	regulate	Run1	regulate/STIM_014.jpg	99
302.51	1.277	1277.1	regulate	Run1	regulate/STIM_014.jpg	99
306.916	2.691	2690.9	regulate	Run1	regulate/STIM_015.jpg	100
313.232	1.886	1885.5	regulate	Run1	regulate/STIM_015.jpg	99
317.215	2.327	2326.8	regulate	Run1	regulate/STIM_015.jpg	99
322.414	2.247	2246.7	regulate	Run1	regulate/STIM_015.jpg	99
328.48	2.151	2151.0	regulate	Run1	regulate/STIM_016.jpg	100
333.04	1.671	1671.4	regulate	Run1	regulate/STIM_016.jpg	100
337.283	2.592	2592.0	regulate	Run1	regulate/STIM_016.jpg	100
342.23	1.257	1256.6	regulate	Run1	regulate/STIM_016.jpg	99
346.744	3.146	3145.9	regulate	Run1	regulate/STIM_017.jpg	99
352.785	2.962	2962.2	regulate	Run1	regulate/STIM_017.jpg	99
358.323	2.771	2771.3	regulate	Run1	regulate/STIM_017.jpg	99
364.947	1.654	1653.9	regulate	Run1	regulate/STIM_017.jpg	99
370.082	2.797	2797.0	regulate	Run1	regulate/STIM_018.jpg	99
375.854	2.135	2135.1	regulate	Run1	regulate/STIM_018.jpg	100
381.989	1.914	1913.8	regulate	Run1	regulate/STIM_018.jpg	99
387.168	2.675	2675.3	regulate	Run1	regulate/STIM_018.jpg	99
392.148	2.833	2832.8	regulate	Run1	regulate/STIM_019.jpg	100
397.627	2.275	2274.7	regulate	Run1	regulate/STIM_019.jpg	99
403.378	1.479	1479.2	regulate	Run1	regulate/STIM_019.jpg	99
408.502	1.32	1320.4	regulate	Run1	regulate/STIM_019.jpg	99
412.473	2.771	2770.8	regulate	Run1	regulate/STIM_020.jpg	100
417.635	2.221	2221.0	regulate	Run1	regulate/STIM_020.jpg	100
421.946	1.773	1772.9	regulate	Run1	regulate/STIM_020.jpg	99
426.773	2.065	2065.4	regulate	Run1	regulate/STIM_020.jpg	99
432.648	2.818	2817.9	regulate	Run1	regulate/STIM_021.jpg	99
437.769	1.894	1894.3	regulate	Run1	regulate/STIM_021.jpg	100
442.779	2.535	2534.8	regulate	Run1	regulate/STIM_021.jpg	99
448.528	2.225	2225.0	regulate	Run1	regulate/STIM_021.jpg	99
453.946	2.75	2750.3	regulate	Run1	regulate/STIM_022.jpg	99
460.35	2.582	2582.4	regulate	Run1	regulate/STIM_022.jpg	100
465.022	2.712	2712.3	regulate	Run1	regulate/STIM_022.jpg	100
470.523	2.422	2422.4	regulate	Run1	regulate/STIM_022.jpg	100
475.982	2.168	2167.8	regulate	Run1	regulate/STIM_023.jpg	100
481.511	1.589	1588.7	regulate	Run1	regulate/STIM_023.jpg	100
486.334	2.791	2791.1	regulate	Run1	regulate/STIM_023.jpg	100
491.588	2.805	2804.8	regulate	Run1	regulate/STIM_023.jpg	99
497.451	3.109	3109.2	regulate	Run1	regulate/STIM_024.jpg	100
504.296	2.573	2572.7	regulate	Run1	regulate/STIM_024.jpg	100
510.551	2.151	2150.9	regulate	Run1	regulate/STIM_024.jpg	99
515.849	1.881	1881.2	regulate	Run1	regulate/STIM_024.jpg	100
520.756	3.219	3218.6	regulate	Run1	regulate/STIM_025.jpg	99
526.786	3.0	2999.8	regulate	Run1	regulate/STIM_025.jpg	99
532.439	2.726	2726.2	regulate	Run1	regulate/STIM_025.jpg	99
538.436	2.233	2233.0	regulate	Run1	regulate/STIM_025.jpg	100
544.497	1.934	1933.9	regulate	Run1	regulate/STIM_026.jpg	100
550.288	2.929	2928.7	regulate	Run1	regulate/STIM_026.jpg	100
556.141	2.467	2467.3	regulate	Run1	regulate/STIM_026.jpg	99
561.473	2.596	2595.5	regulate	Run1	regulate/STIM_026.jpg	99
567.303	2.869	2868.6	regulate	Run1	regulate/STIM_027.jpg	99
573.509	1.581	1580.8	regulate	Run1	regulate/STIM_027.jpg	99
577.817	2.732	2732.0	regulate	Run1	regulate/STIM_027.jpg	100
582.6	1.395	1394.9	regulate	Run1	regulate/STIM_027.jpg	100
587.497	2.746	2745.7	regulate	Run1	regulate/STIM_028.jpg	99
593.035	3.099	3098.7	regulate	Run1	regulate/STIM_028.jpg	99
598.718	2.793	2792.7	regulate	Run1	regulate/STIM_028.jpg	100
603.569	1.865	1864.7	regulate	Run1	regulate/STIM_028.jpg	99
608.135	2.772	2771.6	regulate	Run1	regulate/STIM_029.jpg	100
613.917	1.834	1833.6	regulate	Run1	regulate/STIM_029.jpg	100
619.553	1.919	1919.2	regulate	Run1	regulate/STIM_029.jpg	100
623.57	1.469	1469.0	regulate	Run1	regulate/STIM_029.jpg	100
627.557	0.809	809.1	observe	Run1	observe/STIM_000.jpg	99
630.45	1.144	1144.0	observe	Run1	observe/STIM_000.jpg	99
635.227	1.499	1498.8	observe	Run1	observe/STIM_000.jpg	99
640.336	0.964	964.3	observe	Run1	observe/STIM_000.jpg	100
644.536	1.151	1150.9	observe	Run1	observe/STIM_001.jpg	99
647.971	1.427	1426.7	observe	Run1	observe/STIM_001.jpg	100
653.17	1.535	1534.7	observe	Run1	observe/STIM_001.jpg	99
658.567	1.084	1083.8	observe	Run1	observe/STIM_001.jpg	99
662.204	0.784	783.9	observe	Run1	observe/STIM_002.jpg	99
666.96	1.082	1082.0	observe	Run1	observe/STIM_002.jpg	99
670.417	0.925	925.2	observe	Run1	observe/STIM_002.jpg	100
673.512	1.044	1044.4	observe	Run1	observe/STIM_002.jpg	99
677.077	0.968	968.1	observe	Run1	observe/STIM_003.jpg	99
681.195	1.143	1143.3	observe	Run1	observe/STIM_003.jpg	99
685.609	1.03	1029.8	observe	Run1	observe/STIM_003.jpg	100
690.424	1.367	1367.4	observe	Run1	observe/STIM_003.jpg	99
695.356	0.862	861.7	observe	Run1	observe/STIM_004.jpg	99
699.424	1.286	1286.0	observe	Run1	observe/STIM_004.jpg	100
704.203	1.054	1053.6	observe	Run1	observe/STIM_004.jpg	99
708.859	1.385	1384.7	observe	Run1	observe/STIM_004.jpg	100
712.973	1.415	1415.3	observe	Run1	observe/STIM_005.jpg	99
717.099	1.24	1240.1	observe	Run1	observe/STIM_005.jpg	100
720.968	0.848	848.0	observe	Run1	observe/STIM_005.jpg	99
725.064	1.408	1408.3	observe	Run1	observe/STIM_005.jpg	99
730.041	1.295	1294.7	observe	Run1	observe/STIM_006.jpg	100
734.59	1.092	1091.8	observe	Run1	observe/STIM_006.jpg	100
738.65	1.084	1083.9	observe	Run1	observe/STIM_006.jpg	99
743.385	0.975	974.9	observe	Run1	observe/STIM_006.jpg	99
747.932	1.117	1117.2	observe	Run1	observe/STIM_007.jpg	99
752.838	1.312	1311.8	observe	Run1	observe/STIM_007.jpg	99
756.36	1.386	1385.6	observe	Run1	observe/STIM_007.jpg	99
760.224	1.13	1130.0	observe	Run1	observe/STIM_007.jpg	100
765.18	1.014	1014.1	observe	Run1	observe/STIM_008.jpg	99
768.879	0.94	940.4	observe	Run1	observe/STIM_008.jpg	99
773.699	1.083	1083.3	observe	Run1	observe/STIM_008.jpg	100
776.979	0.804	804.5	observe	Run1	observe/STIM_008.jpg	100
781.074	1.164	1164.0	observe	Run1	observe/STIM_009.jpg	99
785.381	1.399	1399.2	observe	Run1	observe/STIM_009.jpg	100
790.325	1.043	1043.2	observe	Run1	observe/STIM_009.jpg	100
794.646	1.436	1435.9	observe	Run1	observe/STIM_009.jpg	100
799.68	1.241	1241.0	observe	Run1	observe/STIM_010.jpg	100
803.236	1.372	1371.5	observe	Run1	observe/STIM_010.jpg	100
808.287	0.823	822.6	observe	Run1	observe/STIM_010.jpg	100
813.085	0.9	899.6	observe	Run1	observe/STIM_010.jpg	100
817.568	1.196	1196.4	observe	Run1	observe/STIM_011.jpg	99
821.995	0.94	940.4	observe	Run1	observe/STIM_011.jpg	99
826.403	1.409	1408.7	observe	Run1	observe/STIM_011.jpg	99
831.486	1.416	1416.5	observe	Run1	observe/STIM_011.jpg	100
835.622	1.082	1081.8	observe	Run1	observe/STIM_012.jpg	99
838.798	1.148	1147.5	observe	Run1	observe/STIM_012.jpg	100
843.498	0.826	826.5	observe	Run1	observe/STIM_012.jpg	99
846.957	0.816	815.6	observe	Run1	observe/STIM_012.jpg	99
849.866	1.227	1227.3	observe	Run1	observe/STIM_013.jpg	99
854.587	1.457	1457.2	observe	Run1	observe/STIM_013.jpg	100
858.078	0.96	960.0	observe	Run1	observe/STIM_013.jpg	100
862.546	1.297	1297.3	observe	Run1	observe/STIM_013.jpg	100
867.041	1.181	1180.6	observe	Run1	observe/STIM_014.jpg	99
872.137	0.814	814.3	observe	Run1	observe/STIM_014.jpg	99
876.038	0.987	986.7	observe	Run1	observe/STIM_014.jpg	99
880.0	1.312	1312.0	observe	Run1	observe/STIM_014.jpg	100
883.535	1.486	1485.8	observe	Run1	observe/STIM_015.jpg	100
887.431	1.011	1011.1	observe	Run1	observe/STIM_015.jpg	100
891.469	1.473	1472.6	observe	Run1	observe/STIM_015.jpg	99
896.28	0.85	849.9	observe	Run1	observe/STIM_015.jpg	99
900.722	1.296	1296.4	observe	Run1	observe/STIM_016.jpg	99
905.821	1.455	1455.0	observe	Run1	observe/STIM_016.jpg	100
909.401	1.01	1009.6	observe	Run1	observe/STIM_016.jpg	99
912.866	1.485	1485.1	observe	Run1	observe/STIM_016.jpg	99
916.809	1.254	1254.4	observe	Run1	observe/STIM_017.jpg	99
921.793	1.068	1068.3	observe	Run1	observe/STIM_017.jpg	99
926.507	1.264	1264.0	observe	Run1	observe/STIM_017.jpg	99
931.734	0.799	798.9	observe	Run1	observe/STIM_017.jpg	100
936.272	1.416	1416.1	observe	Run1	observe/STIM_018.jpg	100
939.992	1.224	1224.4	observe	Run1	observe/STIM_018.jpg	99
944.169	0.818	818.4	observe	Run1	observe/STIM_018.jpg	100
948.636	1.183	1182.7	observe	Run1	observe/STIM_018.jpg	100
952.229	1.038	1037.6	observe	Run1	observe/STIM_019.jpg	100
955.634	1.251	1251.3	observe	Run1	observe/STIM_019.jpg	99
960.596	1.121	1120.8	observe	Run1	observe/STIM_019.jpg	100
965.413	1.088	1088.2	observe	Run1	observe/STIM_019.jpg	99
969.897	2.098	2098.3	regulate	Run2	regulate/STIM_000.jpg	99
975.058	2.691	2690.9	regulate	Run2	regulate/STIM_000.jpg	99
981.288	2.286	2286.5	regulate	Run2	regulate/STIM_000.jpg	100
987.268	1.729	1729.1	regulate	Run2	regulate/STIM_000.jpg	99
991.174	1.367	1366.9	regulate	Run2	regulate/STIM_001.jpg	100
996.001	1.571	1570.7	regulate	Run2	regulate/STIM_001.jpg	99
1001.365	1.875	1875.1	regulate	Run2	regulate/STIM_001.jpg	100
1005.983	1.704	1703.7	regulate	Run2	regulate/STIM_001.jpg	99
1010.521	1.89	1890.5	regulate	Run2	regulate/STIM_002.jpg	99
1015.229	1.593	1592.8	regulate	Run2	regulate/STIM_002.jpg	100
1019.783	1.612	1611.7	regulate	Run2	regulate/STIM_002.jpg	100
1024.525	1.643	1643.1	regulate	Run2	regulate/STIM_002.jpg	100
1029.764	2.77	2769.6	regulate	Run2	regulate/STIM_003.jpg	100
1035.398	2.34	2339.8	regulate	Run2	regulate/STIM_003.jpg	99
1041.021	2.389	2388.9	regulate	Run2	regulate/STIM_003.jpg	100
1046.071	1.602	1601.8	regulate	Run2	regulate/STIM_003.jpg	99
1051.097	2.765	2764.9	regulate	Run2	regulate/STIM_004.jpg	100
1056.309	1.685	1685.2	regulate	Run2	regulate/STIM_004.jpg	99
1061.046	2.148	2147.9	regulate	Run2	regulate/STIM_004.jpg	99
1066.62	1.202	1202.1	regulate	Run2	regulate/STIM_004.jpg	100
1071.677	1.816	1816.4	regulate	Run2	regulate/STIM_005.jpg	99
1075.62	2.406	2405.5	regulate	Run2	regulate/STIM_005.jpg	100
1080.527	1.326	1325.7	regulate	Run2	regulate/STIM_005.jpg	99
1083.868	1.163	1163.2	regulate	Run2	regulate/STIM_005.jpg	99
1088.081	1.879	1879.4	regulate	Run2	regulate/STIM_006.jpg	100
1093.52	2.122	2122.1	regulate	Run2	regulate/STIM_006.jpg	99
1097.715	1.44	1440.3	regulate	Run2	regulate/STIM_006.jpg	99
1102.911	1.831	1830.8	regulate	Run2	regulate/STIM_006.jpg	99
1108.345	2.64	2639.7	regulate	Run2	regulate/STIM_007.jpg	100
1114.327	1.911	1911.0	regulate	Run2	regulate/STIM_007.jpg	99
1118.927	1.273	1272.8	regulate	Run2	regulate/STIM_007.jpg	100
1123.565	1.416	1415.8	regulate	Run2	regulate/STIM_007.jpg	99
1127.315	2.015	2015.3	regulate	Run2	regulate/STIM_008.jpg	99
1131.792	2.062	2062.2	regulate	Run2	regulate/STIM_008.jpg	99
1136.795	2.391	2391.1	regulate	Run2	regulate/STIM_008.jpg	99
1141.758	1.937	1937.1	regulate	Run2	regulate/STIM_008.jpg	100
1146.911	2.546	2546.4	regulate	Run2	regulate/STIM_009.jpg	99
1151.674	1.806	1805.5	regulate	Run2	regulate/STIM_009.jpg	100
1155.998	1.994	1994.4	regulate	Run2	regulate/STIM_009.jpg	99
1160.187	2.106	2105.5	regulate	Run2	regulate/STIM_009.jpg	100
1166.208	2.634	2633.6	regulate	Run2	regulate/STIM_010.jpg	100
1172.394	1.749	1748.7	regulate	Run2	regulate/STIM_010.jpg	100
1176.888	1.237	1236.6	regulate	Run2	regulate/STIM_010.jpg	100
1181.867	1.391	1391.1	regulate	Run2	regulate/STIM_010.jpg	99
1187.143	2.346	2346.2	regulate	Run2	regulate/STIM_011.jpg	99
1192.798	1.551	1551.2	regulate	Run2	regulate/STIM_011.jpg	99
1197.775	2.027	2027.2	regulate	Run2	regulate/STIM_011.jpg	99
1203.258	2.009	2009.3	regulate	Run2	regulate/STIM_011.jpg	100
1209.055	1.41	1409.7	regulate	Run2	regulate/STIM_012.jpg	100
1213.792	1.92	1920.2	regulate	Run2	regulate/STIM_012.jpg	100
1219.293	2.118	2117.5	regulate	Run2	regulate/STIM_012.jpg	100
1224.897	1.495	1494.6	regulate	Run2	regulate/STIM_012.jpg	100
1228.854	1.401	1400.7	regulate	Run2	regulate/STIM_013.jpg	100
1233.396	1.571	1570.6	regulate	Run2	regulate/STIM_013.jpg	99
1237.484	2.47	2469.7	regulate	Run2	regulate/STIM_013.jpg	100
1242.784	1.986	1985.8	regulate	Run2	regulate/STIM_013.jpg	99
1247.289	2.407	2406.9	regulate	Run2	regulate/STIM_014.jpg	100
1252.543	2.07	2070.2	regulate	Run2	regulate/STIM_014.jpg	99
1257.212	1.519	1518.7	regulate	Run2	regulate/STIM_014.jpg	100
1261.365	1.154	1154.0	regulate	Run2	regulate/STIM_014.jpg	99
1266.236	2.81	2810.3	regulate	Run2	regulate/STIM_015.jpg	100
1271.096	1.566	1565.9	regulate	Run2	regulate/STIM_015.jpg	99
1275.885	1.184	1183.5	regulate	Run2	regulate/STIM_015.jpg	100
1280.182	2.224	2224.4	regulate	Run2	regulate/STIM_015.jpg	99
1286.172	1.416	1416.3	regulate	Run2	regulate/STIM_016.jpg	100
1290.781	1.662	1661.9	regulate	Run2	regulate/STIM_016.jpg	99
1296.256	1.95	1950.1	regulate	Run2	regulate/STIM_016.jpg	99
1301.756	1.169	1168.7	regulate	Run2	regulate/STIM_016.jpg	99
1306.452	2.72	2719.7	regulate	Run2	regulate/STIM_017.jpg	99
1311.659	1.9	1899.7	regulate	Run2	regulate/STIM_017.jpg	100
1315.699	2.397	2397.1	regulate	Run2	regulate/STIM_017.jpg	100
1321.442	1.511	1511.4	regulate	Run2	regulate/STIM_017.jpg	100
1325.246	2.476	2475.9	regulate	Run2	regulate/STIM_018.jpg	100
1330.353	2.389	2389.3	regulate	Run2	regulate/STIM_018.jpg	100
1335.886	1.695	1694.8	regulate	Run2	regulate/STIM_018.jpg	99
1340.699	2.076	2075.5	regulate	Run2	regulate/STIM_018.jpg	99
1346.155	2.549	2549.0	regulate	Run2	regulate/STIM_019.jpg	99
1351.576	2.246	2246.5	regulate	Run2	regulate/STIM_019.jpg	100
1357.549	1.321	1321.0	regulate	Run2	regulate/STIM_019.jpg	100
1360.898	1.328	1327.5	regulate	Run2	regulate/STIM_019.jpg	100
1365.851	2.386	2386.1	regulate	Run2	regulate/STIM_020.jpg	100
1371.964	2.037	2037.4	regulate	Run2	regulate/STIM_020.jpg	99
1376.368	1.49	1490.2	regulate	Run2	regulate/STIM_020.jpg	99
1380.9	2.274	2273.9	regulate	Run2	regulate/STIM_020.jpg	99
1385.455	2.8	2799.7	regulate	Run2	regulate/STIM_021.jpg	99
1391.452	2.128	2128.5	regulate	Run2	regulate/STIM_021.jpg	100
1396.376	2.512	2512.0	regulate	Run2	regulate/STIM_021.jpg	99
1402.298	2.236	2235.6	regulate	Run2	regulate/STIM_021.jpg	100
1408.454	1.689	1689.3	regulate	Run2	regulate/STIM_022.jpg	99
1413.511	1.995	1994.6	regulate	Run2	regulate/STIM_022.jpg	100
1418.76	2.383	2382.7	regulate	Run2	regulate/STIM_022.jpg	100
1423.713	2.146	2146.2	regulate	Run2	regulate/STIM_022.jpg	99
1428.267	2.31	2310.1	regulate	Run2	regulate/STIM_023.jpg	99
1433.063	1.621	1620.8	regulate	Run2	regulate/STIM_023.jpg	99
1437.426	1.701	1701.1	regulate	Run2	regulate/STIM_023.jpg	100
1442.282	1.516	1516.0	regulate	Run2	regulate/STIM_023.jpg	100
1447.178	2.787	2787.3	regulate	Run2	regulate/STIM_024.jpg	99
1452.603	1.587	1587.3	regulate	Run2	regulate/STIM_024.jpg	99
1456.477	1.975	1975.0	regulate	Run2	regulate/STIM_024.jpg	99
1462.141	1.147	1147.1	regulate	Run2	regulate/STIM_024.jpg	100
1465.44	1.637	1637.4	regulate	Run2	regulate/STIM_025.jpg	99
1470.003	2.058	2058.5	regulate	Run2	regulate/STIM_025.jpg	100
1474.166	1.967	1967.2	regulate	Run2	regulate/STIM_025.jpg	99
1478.792	2.07	2069.5	regulate	Run2	regulate/STIM_025.jpg	100
1484.333	2.501	2500.7	regulate	Run2	regulate/STIM_026.jpg	99
1489.092	2.51	2509.5	regulate	Run2	regulate/STIM_026.jpg	100
1494.214	2.399	2398.8	regulate	Run2	regulate/STIM_026.jpg	100
1499.3	2.04	2039.9	regulate	Run2	regulate/STIM_026.jpg	100
1504.562	2.515	2515.4	regulate	Run2	regulate/STIM_027.jpg	99
1509.356	1.295	1294.9	regulate	Run2	regulate/STIM_027.jpg	100
1513.243	1.912	1912.2	regulate	Run2	regulate/STIM_027.jpg	100
1517.271	1.792	1791.7	regulate	Run2	regulate/STIM_027.jpg	99
1521.577	2.228	2227.9	regulate	Run2	regulate/STIM_028.jpg	100
1527.089	1.766	1766.2	regulate	Run2	regulate/STIM_028.jpg	99
1532.022	1.569	1568.8	regulate	Run2	regulate/STIM_028.jpg	100
1537.572	1.156	1156.4	regulate	Run2	regulate/STIM_028.jpg	100
1541.907	2.334	2334.2	regulate	Run2	regulate/STIM_029.jpg	99
1547.66	1.273	1273.1	regulate	Run2	regulate/STIM_029.jpg	100
1552.311	1.993	1992.7	regulate	Run2	regulate/STIM_029.jpg	100
1557.5	1.028	1028.4	regulate	Run2	regulate/STIM_029.jpg	99
1561.648	1.083	1083.4	observe	Run2	observe/STIM_000.jpg	99
1566.598	1.354	1353.5	observe	Run2	observe/STIM_000.jpg	99
1570.564	1.158	1158.5	observe	Run2	observe/STIM_000.jpg	100
1574.736	0.882	882.2	observe	Run2	observe/STIM_000.jpg	100
1579.449	0.873	873.2	observe	Run2	observe/STIM_001.jpg	99
1582.979	1.361	1361.1	observe	Run2	observe/STIM_001.jpg	100
1587.709	1.034	1033.8	observe	Run2	observe/STIM_001.jpg	100
1592.121	1.483	1482.9	observe	Run2	observe/STIM_001.jpg	100
1597.279	0.961	961.2	observe	Run2	observe/STIM_002.jpg	100
1601.53	1.032	1032.0	observe	Run2	observe/STIM_002.jpg	100
1605.618	1.498	1498.0	observe	Run2	observe/STIM_002.jpg	100
1610.963	1.165	1164.6	observe	Run2	observe/STIM_002.jpg	99
1615.178	1.486	1486.0	observe	Run2	observe/STIM_003.jpg	100
1619.684	1.431	1431.0	observe	Run2	observe/STIM_003.jpg	99
1624.864	1.382	1382.5	observe	Run2	observe/STIM_003.jpg	100
1628.611	0.95	949.7	observe	Run2	observe/STIM_003.jpg	99
1631.768	0.78	779.6	observe	Run2	observe/STIM_004.jpg	100
1635.461	0.801	800.7	observe	Run2	observe/STIM_004.jpg	100
1639.897	1.296	1296.3	observe	Run2	observe/STIM_004.jpg	99
1643.605	1.024	1024.4	observe	Run2	observe/STIM_004.jpg	100
1646.877	0.994	993.6	observe	Run2	observe/STIM_005.jpg	100
1650.807	1.023	1023.3	observe	Run2	observe/STIM_005.jpg	99
1654.644	0.861	861.4	observe	Run2	observe/STIM_005.jpg	99
1659.495	0.955	955.1	observe	Run2	observe/STIM_005.jpg	99
1663.608	0.836	836.0	observe	Run2	observe/STIM_006.jpg	99
1667.209	0.988	987.6	observe	Run2	observe/STIM_006.jpg	100
1672.184	1.326	1326.4	observe	Run2	observe/STIM_006.jpg	99
1677.303	1.456	1455.6	observe	Run2	observe/STIM_006.jpg	99
1682.495	1.162	1162.1	observe	Run2	observe/STIM_007.jpg	99
1686.787	0.887	886.7	observe	Run2	observe/STIM_007.jpg	100
1690.189	0.83	829.5	observe	Run2	observe/STIM_007.jpg	100
1694.141	1.4	1400.4	observe	Run2	observe/STIM_007.jpg	99
1699.354	1.195	1194.7	observe	Run2	observe/STIM_008.jpg	99
1703.061	1.382	1381.5	observe	Run2	observe/STIM_008.jpg	99
1707.029	1.089	1088.6	observe	Run2	observe/STIM_008.jpg	100
1710.847	0.991	990.6	observe	Run2	observe/STIM_008.jpg	99
1715.463	1.077	1077.4	observe	Run2	observe/STIM_009.jpg	100
1718.576	1.079	1078.9	observe	Run2	observe/STIM_009.jpg	99
1722.794	1.36	1359.5	observe	Run2	observe/STIM_009.jpg	100
1726.156	0.988	988.2	observe	Run2	observe/STIM_009.jpg	99
1730.234	0.948	947.5	observe	Run2	observe/STIM_010.jpg	99
1734.099	0.905	905.2	observe	Run2	observe/STIM_010.jpg	99
1737.541	0.912	911.5	observe	Run2	observe/STIM_010.jpg	100
1740.527	0.774	773.9	observe	Run2	observe/STIM_010.jpg	100
1744.255	1.228	1227.8	observe	Run2	observe/STIM_011.jpg	100
1748.277	1.51	1509.9	observe	Run2	observe/STIM_011.jpg	99
1753.358	1.148	1148.1	observe	Run2	observe/STIM_011.jpg	100
1757.532	1.225	1224.6	observe	Run2	observe/STIM_011.jpg	100
1761.374	1.001	1001.1	observe	Run2	observe/STIM_012.jpg	99
1764.55	0.794	794.5	observe	Run2	observe/STIM_012.jpg	99
1768.308	1.031	1031.0	observe	Run2	observe/STIM_012.jpg	99
1771.876	0.967	967.3	observe	Run2	observe/STIM_012.jpg	100
1775.008	1.462	1461.6	observe	Run2	observe/STIM_013.jpg	99
1779.86	1.315	1315.2	observe	Run2	observe/STIM_013.jpg	99
1783.326	1.322	1322.3	observe	Run2	observe/STIM_013.jpg	99
1787.451	1.007	1007.1	observe	Run2	observe/STIM_013.jpg	99
1792.408	1.347	1346.7	observe	Run2	observe/STIM_014.jpg	100
1796.453	1.113	1113.2	observe	Run2	observe/STIM_014.jpg	99
1799.921	1.274	1274.4	observe	Run2	observe/STIM_014.jpg	100
1803.394	1.489	1489.3	observe	Run2	observe/STIM_014.jpg	99
1807.456	1.029	1028.8	observe	Run2	observe/STIM_015.jpg	100
1811.536	1.111	1110.6	observe	Run2	observe/STIM_015.jpg	99
1816.131	0.86	860.2	observe	Run2	observe/STIM_015.jpg	100
1820.454	1.257	1257.3	observe	Run2	observe/STIM_015.jpg	100
1824.788	0.815	814.7	observe	Run2	observe/STIM_016.jpg	100
1828.155	1.521	1520.8	observe	Run2	observe/STIM_016.jpg	100
1833.473	1.389	1389.4	observe	Run2	observe/STIM_016.jpg	99
1838.396	1.061	1061.3	observe	Run2	observe/STIM_016.jpg	99
1843.159	1.506	1505.7	observe	Run2	observe/STIM_017.jpg	100
1848.018	1.058	1058.1	observe	Run2	observe/STIM_017.jpg	99
1851.172	1.521	1520.8	observe	Run2	observe/STIM_017.jpg	100
1854.966	1.195	1195.4	observe	Run2	observe/STIM_017.jpg	100
1859.343	0.854	853.5	observe	Run2	observe/STIM_018.jpg	100
1862.818	1.175	1175.4	observe	Run2	observe/STIM_018.jpg	100
1867.434	1.066	1065.5	observe	Run2	observe/STIM_018.jpg	99
1871.769	1.359	1359.3	observe	Run2	observe/STIM_018.jpg	100
1876.612	1.398	1398.3	observe	Run2	observe/STIM_019.jpg	100
1880.847	0.983	982.8	observe	Run2	observe/STIM_019.jpg	99
1884.608	0.854	853.7	observe	Run2	observe/STIM_019.jpg	100
1888.277	0.814	814.1	observe	Run2	observe/STIM_019.jpg	100
1891.912	2.237	2236.9	regulate	Run3	regulate/STIM_000.jpg	99
1896.788	1.538	1538.3	regulate	Run3	regulate/STIM_000.jpg	100
1901.447	1.103	1102.6	regulate	Run3	regulate/STIM_000.jpg	99
1904.579	1.103	1103.1	regulate	Run3	regulate/STIM_000.jpg	99
1908.82	2.068	2068.4	regulate	Run3	regulate/STIM_001.jpg	100
1913.42	2.13	2130.2	regulate	Run3	regulate/STIM_001.jpg	99
1919.517	1.26	1259.6	regulate	Run3	regulate/STIM_001.jpg	99
1923.28	2.109	2109.1	regulate	Run3	regulate/STIM_001.jpg	99
1929.088	1.495	1495.0	regulate	Run3	regulate/STIM_002.jpg	100
1932.897	2.108	2108.5	regulate	Run3	regulate/STIM_002.jpg	100
1937.448	1.956	1955.6	regulate	Run3	regulate/STIM_002.jpg	99
1941.857	1.555	1554.9	regulate	Run3	regulate/STIM_002.jpg	100
1946.332	2.25	2250.2	regulate	Run3	regulate/STIM_003.jpg	99
1950.73	1.044	1044.4	regulate	Run3	regulate/STIM_003.jpg	100
1954.072	2.334	2334.3	regulate	Run3	regulate/STIM_003.jpg	99
1959.573	1.562	1562.0	regulate	Run3	regulate/STIM_003.jpg	99
1964.217	1.822	1822.0	regulate	Run3	regulate/STIM_004.jpg	100
1968.74	1.416	1416.3	regulate	Run3	regulate/STIM_004.jpg	99
1972.334	1.941	1941.4	regulate	Run3	regulate/STIM_004.jpg	99
1977.17	2.127	2126.7	regulate	Run3	regulate/STIM_004.jpg	99
1983.05	1.275	1275.4	regulate	Run3	regulate/STIM_005.jpg	100
1988.164	1.532	1531.7	regulate	Run3	regulate/STIM_005.jpg	99
1993.303	1.78	1780.2	regulate	Run3	regulate/STIM_005.jpg	100
1998.14	1.014	1014.5	regulate	Run3	regulate/STIM_005.jpg	99
2002.642	1.779	1778.9	regulate	Run3	regulate/STIM_006.jpg	99
2007.708	1.43	1430.4	regulate	Run3	regulate/STIM_006.jpg	99
2011.625	1.875	1874.9	regulate	Run3	regulate/STIM_006.jpg	99
2016.636	1.362	1362.3	regulate	Run3	regulate/STIM_006.jpg	100
2021.309	1.191	1190.8	regulate	Run3	regulate/STIM_007.jpg	99
2024.691	2.015	2014.9	regulate	Run3	regulate/STIM_007.jpg	100
2030.466	1.222	1222.5	regulate	Run3	regulate/STIM_007.jpg	100
2033.87	1.256	1255.5	regulate	Run3	regulate/STIM_007.jpg	99
2038.12	1.171	1171.4	regulate	Run3	regulate/STIM_008.jpg	100
2042.305	2.123	2122.6	regulate	Run3	regulate/STIM_008.jpg	100
2046.53	2.182	2181.6	regulate	Run3	regulate/STIM_008.jpg	99
2052.425	1.111	1111.3	regulate	Run3	regulate/STIM_008.jpg	99
2057.319	1.277	1276.7	regulate	Run3	regulate/STIM_009.jpg	99
2062.087	1.608	1608.4	regulate	Run3	regulate/STIM_009.jpg	100
2066.736	1.727	1727.4	regulate	Run3	regulate/STIM_009.jpg	100
2070.47	2.248	2248.0	regulate	Run3	regulate/STIM_009.jpg	99
2075.429	2.317	2317.3	regulate	Run3	regulate/STIM_010.jpg	99
2081.194	1.964	1963.5	regulate	Run3	regulate/STIM_010.jpg	99
2086.366	1.297	1296.9	regulate	Run3	regulate/STIM_010.jpg	99
2091.117	1.146	1146.0	regulate	Run3	regulate/STIM_010.jpg	99
2094.48	2.215	2214.9	regulate	Run3	regulate/STIM_011.jpg	100
2099.266	2.02	2020.2	regulate	Run3	regulate/STIM_011.jpg	100
2105.049	1.557	1557.0	regulate	Run3	regulate/STIM_011.jpg	99
2109.394	1.421	1421.3	regulate	Run3	regulate/STIM_011.jpg	99
2114.658	2.181	2180.7	regulate	Run3	regulate/STIM_012.jpg	100
2119.442	1.176	1176.5	regulate	Run3	regulate/STIM_012.jpg	100
2123.906	1.178	1177.8	regulate	Run3	regulate/STIM_012.jpg	99
2128.032	2.351	2350.8	regulate	Run3	regulate/STIM_012.jpg	100
2134.265	1.038	1037.6	regulate	Run3	regulate/STIM_013.jpg	100
2137.716	1.372	1371.6	regulate	Run3	regulate/STIM_013.jpg	99
2142.382	1.928	1927.6	regulate	Run3	regulate/STIM_013.jpg	100
2146.689	1.94	1939.8	regulate	Run3	regulate/STIM_013.jpg	100
2150.708	2.353	2353.3	regulate	Run3	regulate/STIM_014.jpg	100
2156.531	2.062	2061.8	regulate	Run3	regulate/STIM_014.jpg	100
2160.799	2.269	2269.3	regulate	Run3	regulate/STIM_014.jpg	99
2165.225	1.76	1759.9	regulate	Run3	regulate/STIM_014.jpg	99
2170.747	1.902	1902.0	regulate	Run3	regulate/STIM_015.jpg	100
2175.961	2.145	2144.9	regulate	Run3	regulate/STIM_015.jpg	99
2182.091	1.89	1890.4	regulate	Run3	regulate/STIM_015.jpg	100
2186.866	2.233	2232.6	regulate	Run3	regulate/STIM_015.jpg	100
2191.496	1.913	1913.3	regulate	Run3	regulate/STIM_016.jpg	100
2196.667	1.394	1393.5	regulate	Run3	regulate/STIM_016.jpg	100
2200.53	2.02	2020.3	regulate	Run3	regulate/STIM_016.jpg	99
2206.117	2.168	2168.5	regulate	Run3	regulate/STIM_016.jpg	100
2211.177	1.348	1348.1	regulate	Run3	regulate/STIM_017.jpg	99
2214.64	1.371	1370.9	regulate	Run3	regulate/STIM_017.jpg	100
2218.063	2.012	2011.6	regulate	Run3	regulate/STIM_017.jpg	100
2223.623	2.306	2306.1	regulate	Run3	regulate/STIM_017.jpg	99
2227.974	1.04	1039.8	regulate	Run3	regulate/STIM_018.jpg	99
2232.708	1.692	1692.1	regulate	Run3	regulate/STIM_018.jpg	100
2238.293	1.39	1389.7	regulate	Run3	regulate/STIM_018.jpg	100
2242.546	1.105	1105.2	regulate	Run3	regulate/STIM_018.jpg	100
2246.464	1.7	1700.4	regulate	Run3	regulate/STIM_019.jpg	100
2251.654	1.286	1286.5	regulate	Run3	regulate/STIM_019.jpg	99
2255.46	1.364	1363.6	regulate	Run3	regulate/STIM_019.jpg	99
2259.585	1.262	1262.3	regulate	Run3	regulate/STIM_019.jpg	99
2264.334	1.017	1016.8	regulate	Run3	regulate/STIM_020.jpg	99
2267.856	1.326	1325.8	regulate	Run3	regulate/STIM_020.jpg	99
2272.633	1.993	1993.1	regulate	Run3	regulate/STIM_020.jpg	99
2277.58	1.565	1565.0	regulate	Run3	regulate/STIM_020.jpg	100
2281.205	1.893	1892.7	regulate	Run3	regulate/STIM_021.jpg	99
2286.489	1.985	1985.4	regulate	Run3	regulate/STIM_021.jpg	99
2291.462	1.675	1675.0	regulate	Run3	regulate/STIM_021.jpg	99
2296.909	2.118	2117.7	regulate	Run3	regulate/STIM_021.jpg	99
2301.68	1.347	1346.8	regulate	Run3	regulate/STIM_022.jpg	100
2306.508	2.157	2156.7	regulate	Run3	regulate/STIM_022.jpg	99
2311.734	1.141	1141.1	regulate	Run3	regulate/STIM_022.jpg	100
2316.496	1.318	1317.6	regulate	Run3	regulate/STIM_022.jpg	100
2320.496	1.504	1503.7	regulate	Run3	regulate/STIM_023.jpg	99
2324.877	2.112	2111.5	regulate	Run3	regulate/STIM_023.jpg	99
2329.81	1.848	1847.6	regulate	Run3	regulate/STIM_023.jpg	99
2334.21	1.806	1806.5	regulate	Run3	regulate/STIM_023.jpg	100
2339.264	1.565	1564.7	regulate	Run3	regulate/STIM_024.jpg	99
2343.099	1.364	1364.5	regulate	Run3	regulate/STIM_024.jpg	100
2348.167	2.294	2293.5	regulate	Run3	regulate/STIM_024.jpg	99
2353.614	1.4	1399.6	regulate	Run3	regulate/STIM_024.jpg	99
2358.756	2.147	2147.2	regulate	Run3	regulate/STIM_025.jpg	100
2364.58	1.02	1019.7	regulate	Run3	regulate/STIM_025.jpg	100
2367.928	2.009	2009.1	regulate	Run3	regulate/STIM_025.jpg	99
2372.534	1.438	1437.8	regulate	Run3	regulate/STIM_025.jpg	100
2377.657	1.74	1739.5	regulate	Run3	regulate/STIM_026.jpg	100
2383.116	2.338	2338.1	regulate	Run3	regulate/STIM_026.jpg	100
2387.54	2.035	2035.1	regulate	Run3	regulate/STIM_026.jpg	99
2391.685	1.993	1992.7	regulate	Run3	regulate/STIM_026.jpg	99
2396.945	1.915	1914.6	regulate	Run3	regulate/STIM_027.jpg	100
2402.608	1.438	1437.8	regulate	Run3	regulate/STIM_027.jpg	100
2407.155	2.31	2310.1	regulate	Run3	regulate/STIM_027.jpg	99
2412.15	1.891	1890.8	regulate	Run3	regulate/STIM_027.jpg	100
2416.642	1.448	1448.2	regulate	Run3	regulate/STIM_028.jpg	99
2421.079	1.07	1070.1	regulate	Run3	regulate/STIM_028.jpg	99
2425.659	1.874	1873.5	regulate	Run3	regulate/STIM_028.jpg	100
2429.605	1.608	1608.0	regulate	Run3	regulate/STIM_028.jpg	100
2434.255	1.14	1140.0	regulate	Run3	regulate/STIM_029.jpg	100
2438.142	1.601	1601.2	regulate	Run3	regulate/STIM_029.jpg	99
2441.909	1.941	1941.1	regulate	Run3	regulate/STIM_029.jpg	99
2446.221	1.534	1533.5	regulate	Run3	regulate/STIM_029.jpg	99
2451.058	1.238	1237.6	observe	Run3	observe/STIM_000.jpg	100
2454.912	1.367	1367.0	observe	Run3	observe/STIM_000.jpg	100
2459.249	1.01	1009.6	observe	Run3	observe/STIM_000.jpg	99
2463.593	1.38	1379.8	observe	Run3	observe/STIM_000.jpg	100
2467.461	1.401	1401.1	observe	Run3	observe/STIM_001.jpg	99
2472.312	0.794	794.4	observe	Run3	observe/STIM_001.jpg	99
2475.119	1.178	1178.3	observe	Run3	observe/STIM_001.jpg	100
2480.271	0.937	937.0	observe	Run3	observe/STIM_001.jpg	100
2484.477	1.216	1215.5	observe	Run3	observe/STIM_002.jpg	99
2487.77	1.085	1084.9	observe	Run3	observe/STIM_002.jpg	99
2492.777	0.998	997.9	observe	Run3	observe/STIM_002.jpg	100
2496.971	1.034	1034.0	observe	Run3	observe/STIM_002.jpg	99
2500.226	1.006	1005.5	observe	Run3	observe/STIM_003.jpg	100
2503.371	1.503	1503.3	observe	Run3	observe/STIM_003.jpg	100
2508.864	1.155	1155.4	observe	Run3	observe/STIM_003.jpg	100
2513.789	1.417	1416.9	observe	Run3	observe/STIM_003.jpg	100
2518.091	1.426	1426.3	observe	Run3	observe/STIM_004.jpg	99
2521.707	1.083	1083.0	observe	Run3	observe/STIM_004.jpg	100
2525.177	1.3	1300.4	observe	Run3	observe/STIM_004.jpg	99
2529.422	1.204	1203.8	observe	Run3	observe/STIM_004.jpg	100
2534.599	1.196	1196.2	observe	Run3	observe/STIM_005.jpg	100
2539.474	1.473	1472.7	observe	Run3	observe/STIM_005.jpg	99
2543.581	0.84	840.4	observe	Run3	observe/STIM_005.jpg	99
2548.04	1.524	1524.3	observe	Run3	observe/STIM_005.jpg	100
2551.934	1.27	1269.5	observe	Run3	observe/STIM_006.jpg	100
2555.584	1.133	1133.3	observe	Run3	observe/STIM_006.jpg	100
2560.146	1.129	1128.9	observe	Run3	observe/STIM_006.jpg	100
2564.166	1.369	1369.2	observe	Run3	observe/STIM_006.jpg	100
2569.196	1.256	1255.5	observe	Run3	observe/STIM_007.jpg	99
2573.206	1.414	1414.1	observe	Run3	observe/STIM_007.jpg	99
2576.999	0.824	824.5	observe	Run3	observe/STIM_007.jpg	99
2580.461	1.062	1061.9	observe	Run3	observe/STIM_007.jpg	100
2584.955	1.233	1233.1	observe	Run3	observe/STIM_008.jpg	100
2590.006	1.424	1424.0	observe	Run3	observe/STIM_008.jpg	100
2593.47	0.934	933.6	observe	Run3	observe/STIM_008.jpg	99
2598.03	0.861	861.4	observe	Run3	observe/STIM_008.jpg	99
2602.714	0.915	915.0	observe	Run3	observe/STIM_009.jpg	99
2605.909	0.787	786.8	observe	Run3	observe/STIM_009.jpg	100
2609.594	1.201	1200.6	observe	Run3	observe/STIM_009.jpg	99
2613.789	1.382	1382.1	observe	Run3	observe/STIM_009.jpg	100
2618.944	0.797	797.1	observe	Run3	observe/STIM_010.jpg	100
2623.703	0.81	810.2	observe	Run3	observe/STIM_010.jpg	99
2626.892	0.881	880.6	observe	Run3	observe/STIM_010.jpg	99
2631.76	0.811	811.3	observe	Run3	observe/STIM_010.jpg	100
2635.955	0.899	898.7	observe	Run3	observe/STIM_011.jpg	99
2640.25	1.09	1090.0	observe	Run3	observe/STIM_011.jpg	99
2643.758	1.143	1143.3	observe	Run3	observe/STIM_011.jpg	100
2647.674	1.243	1242.8	observe	Run3	observe/STIM_011.jpg	99
2651.076	1.075	1074.8	observe	Run3	observe/STIM_012.jpg	99
2655.86	1.073	1073.4	observe	Run3	observe/STIM_012.jpg	100
2659.814	0.789	788.7	observe	Run3	observe/STIM_012.jpg	99
2663.731	0.82	819.8	observe	Run3	observe/STIM_012.jpg	99
2668.318	1.193	1193.3	observe	Run3	observe/STIM_013.jpg	99
2671.618	1.283	1282.6	observe	Run3	observe/STIM_013.jpg	100
2675.557	0.949	948.6	observe	Run3	observe/STIM_013.jpg	99
2679.176	1.125	1125.1	observe	Run3	observe/STIM_013.jpg	99
2682.762	0.904	904.3	observe	Run3	observe/STIM_014.jpg	100
2687.332	1.139	1139.3	observe	Run3	observe/STIM_014.jpg	100
2691.337	1.381	1380.9	observe	Run3	observe/STIM_014.jpg	100
2696.529	0.895	894.9	observe	Run3	observe/STIM_014.jpg	99
2700.838	1.235	1234.6	observe	Run3	observe/STIM_015.jpg	99
2704.08	0.88	880.2	observe	Run3	observe/STIM_015.jpg	99
2707.428	1.125	1124.6	observe	Run3	observe/STIM_015.jpg	100
2711.088	1.224	1224.0	observe	Run3	observe/STIM_015.jpg	100
2715.4	1.054	1054.1	observe	Run3	observe/STIM_016.jpg	99
2720.044	1.37	1370.1	observe	Run3	observe/STIM_016.jpg	99
2724.252	0.818	817.8	observe	Run3	observe/STIM_016.jpg	100
2728.122	1.512	1511.5	observe	Run3	observe/STIM_016.jpg	100
2731.812	0.866	865.7	observe	Run3	observe/STIM_017.jpg	100
2735.893	1.019	1019.1	observe	Run3	observe/STIM_017.jpg	99
2739.551	1.498	1497.8	observe	Run3	observe/STIM_017.jpg	99
2744.178	1.508	1508.1	observe	Run3	observe/STIM_017.jpg	100
2749.463	1.265	1265.0	observe	Run3	observe/STIM_018.jpg	99
2753.134	0.9	900.4	observe	Run3	observe/STIM_018.jpg	99
2757.687	1.422	1422.5	observe	Run3	observe/STIM_018.jpg	99
2761.518	1.342	1342.0	observe	Run3	observe/STIM_018.jpg	99
2766.064	0.788	788.3	observe	Run3	observe/STIM_019.jpg	99
2769.292	0.851	851.2	observe	Run3	observe/STIM_019.jpg	99
2772.687	0.993	993.0	observe	Run3	observe/STIM_019.jpg	99
2776.971	1.192	1191.6	observe	Run3	observe/STIM_019.jpg	99
