onset	duration	accuracy	trial_type	learning_stage	stimulus
0.0	2.402	correct	regulate	Run1	regulate/STIM_000.jpg
4.969	2.163	correct	regulate	Run1	regulate/STIM_000.jpg
9.695	2.797	incorrect	regulate	Run1	regulate/STIM_000.jpg
16.474	2.618	correct	regulate	Run1	regulate/STIM_000.jpg
21.881	3.194	correct	regulate	Run1	regulate/STIM_001.jpg
27.222	2.643	incorrect	regulate	Run1	regulate/STIM_001.jpg
32.761	1.503	correct	regulate	Run1	regulate/STIM_001.jpg
36.544	2.465	correct	regulate	Run1	regulate/STIM_001.jpg
41.626	2.097	correct	regulate	Run1	regulate/STIM_002.jpg
46.133	3.244	incorrect	regulate	Run1	regulate/STIM_002.jpg
52.408	1.51	correct	regulate	Run1	regulate/STIM_002.jpg
57.005	1.531	correct	regulate	Run1	regulate/STIM_002.jpg
61.845	2.121	incorrect	regulate	Run1	regulate/STIM_003.jpg
67.489	1.706	correct	regulate	Run1	regulate/STIM_003.jpg
71.948	2.306	correct	regulate	Run1	regulate/STIM_003.jpg
76.779	1.942	correct	regulate	Run1	regulate/STIM_003.jpg
80.722	1.991	correct	regulate	Run1	regulate/STIM_004.jpg
85.655	2.115	correct	regulate	Run1	regulate/STIM_004.jpg
90.56	3.123	incorrect	regulate	Run1	regulate/STIM_004.jpg
97.609	1.775	incorrect	regulate	Run1	regulate/STIM_004.jpg
101.831	1.593	correct	regulate	Run1	regulate/STIM_005.jpg
105.863	2.832	correct	regulate	Run1	regulate/STIM_005.jpg
111.733	2.165	correct	regulate	Run1	regulate/STIM_005.jpg
117.266	2.988	incorrect	regulate	Run1	regulate/STIM_005.jpg
123.765	1.629	incorrect	regulate	Run1	regulate/STIM_006.jpg
127.749	3.365	correct	regulate	Run1	regulate/STIM_006.jpg
134.518	1.748	correct	regulate	Run1	regulate/STIM_006.jpg
140.072	2.951	correct	regulate	Run1	regulate/STIM_006.jpg
146.024	2.103	incorrect	regulate	Run1	regulate/STIM_007.jpg
151.217	2.79	correct	regulate	Run1	regulate/STIM_007.jpg
156.504	2.844	correct	regulate	Run1	regulate/STIM_007.jpg
162.355	2.291	correct	regulate	Run1	regulate/STIM_007.jpg
167.326	3.172	correct	regulate	Run1	regulate/STIM_008.jpg
173.376	1.612	incorrect	regulate	Run1	regulate/STIM_008.jpg
178.683	2.775	correct	regulate	Run1	regulate/STIM_008.jpg
183.779	1.68	correct	regulate	Run1	regulate/STIM_008.jpg
188.38	3.49	incorrect	regulate	Run1	regulate/STIM_009.jpg
195.662	2.358	incorrect	regulate	Run1	regulate/STIM_009.jpg
201.469	2.937	correct	regulate	Run1	regulate/STIM_009.jpg
206.939	2.087	correct	regulate	Run1	regulate/STIM_009.jpg
211.747	2.668	incorrect	regulate	Run1	regulate/STIM_010.jpg
216.878	2.65	incorrect	regulate	Run1	regulate/STIM_010.jpg
222.73	2.333	incorrect	regulate	Run1	regulate/STIM_010.jpg
228.77	1.731	correct	regulate	Run1	regulate/STIM_010.jpg
232.927	2.519	correct	regulate	Run1	regulate/STIM_011.jpg
237.665	2.725	correct	regulate	Run1	regulate/STIM_011.jpg
242.755	3.193	correct	regulate	Run1	regulate/STIM_011.jpg
249.318	2.843	correct	regulate	Run1	regulate/STIM_011.jpg
254.948	3.614	incorrect	regulate	Run1	regulate/STIM_012.jpg
260.999	2.418	incorrect	regulate	Run1	regulate/STIM_012.jpg
266.048	1.756	incorrect	regulate	Run1	regulate/STIM_012.jpg
271.781	2.518	correct	regulate	Run1	regulate/STIM_012.jpg
276.744	2.444	correct	regulate	Run1	regulate/STIM_013.jpg
281.669	3.457	correct	regulate	Run1	regulate/STIM_013.jpg
287.589	2.299	correct	regulate	Run1	regulate/STIM_013.jpg
293.042	3.069	correct	regulate	Run1	regulate/STIM_013.jpg
298.507	3.51	correct	regulate	Run1	regulate/STIM_014.jpg
304.053	2.814	correct	regulate	Run1	regulate/STIM_014.jpg
309.247	3.237	correct	regulate	Run1	regulate/STIM_014.jpg
315.457	1.842	correct	regulate	Run1	regulate/STIM_014.jpg
319.597	2.461	correct	regulate	Run1	regulate/STIM_015.jpg
325.91	2.412	correct	regulate	Run1	regulate/STIM_015.jpg
330.989	2.238	correct	regulate	Run1	regulate/STIM_015.jpg
336.262	2.558	correct	regulate	Run1	regulate/STIM_015.jpg
342.318	2.364	incorrect	regulate	Run1	regulate/STIM_016.jpg
347.716	1.687	correct	regulate	Run1	regulate/STIM_016.jpg
352.95	2.932	incorrect	regulate	Run1	regulate/STIM_016.jpg
358.279	2.186	correct	regulate	Run1	regulate/STIM_016.jpg
363.534	1.924	incorrect	regulate	Run1	regulate/STIM_017.jpg
369.348	2.296	incorrect	regulate	Run1	regulate/STIM_017.jpg
374.181	2.264	correct	regulate	Run1	regulate/STIM_017.jpg
379.39	2.755	correct	regulate	Run1	regulate/STIM_017.jpg
385.633	1.745	incorrect	regulate	Run1	regulate/STIM_018.jpg
391.125	1.604	correct	regulate	Run1	regulate/STIM_018.jpg
394.778	2.535	correct	regulate	Run1	regulate/STIM_018.jpg
400.617	1.924	correct	regulate	Run1	regulate/STIM_018.jpg
405.369	1.668	correct	regulate	Run1	regulate/STIM_019.jpg
409.306	2.228	correct	regulate	Run1	regulate/STIM_019.jpg
415.237	2.832	correct	regulate	Run1	regulate/STIM_019.jpg
420.808	1.997	correct	regulate	Run1	regulate/STIM_019.jpg
424.935	2.505	correct	regulate	Run1	regulate/STIM_020.jpg
431.153	2.717	incorrect	regulate	Run1	regulate/STIM_020.jpg
437.765	1.741	correct	regulate	Run1	regulate/STIM_020.jpg
441.555	2.252	correct	regulate	Run1	regulate/STIM_020.jpg
446.548	1.918	correct	regulate	Run1	regulate/STIM_021.jpg
451.915	2.646	correct	regulate	Run1	regulate/STIM_021.jpg
457.103	2.643	incorrect	regulate	Run1	regulate/STIM_021.jpg
462.768	2.264	incorrect	regulate	Run1	regulate/STIM_021.jpg
468.746	2.956	incorrect	regulate	Run1	regulate/STIM_022.jpg
475.641	1.892	correct	regulate	Run1	regulate/STIM_022.jpg
479.667	2.844	correct	regulate	Run1	regulate/STIM_022.jpg
484.995	1.885	correct	regulate	Run1	regulate/STIM_022.jpg
490.464	2.632	incorrect	regulate	Run1	regulate/STIM_023.jpg
496.488	2.888	correct	regulate	Run1	regulate/STIM_023.jpg
503.106	2.215	correct	regulate	Run1	regulate/STIM_023.jpg
507.737	2.614	correct	regulate	Run1	regulate/STIM_023.jpg
513.757	2.508	correct	regulate	Run1	regulate/STIM_024.jpg
519.724	2.833	incorrect	regulate	Run1	regulate/STIM_024.jpg
525.308	1.65	correct	regulate	Run1	regulate/STIM_024.jpg
529.972	1.768	incorrect	regulate	Run1	regulate/STIM_024.jpg
534.028	1.607	incorrect	regulate	Run1	regulate/STIM_025.jpg
538.263	2.831	correct	regulate	Run1	regulate/STIM_025.jpg
543.718	2.255	correct	regulate	Run1	regulate/STIM_025.jpg
548.004	2.358	incorrect	regulate	Run1	regulate/STIM_025.jpg
552.811	3.366	correct	regulate	Run1	regulate/STIM_026.jpg
559.257	1.768	incorrect	regulate	Run1	regulate/STIM_026.jpg
564.135	2.04	correct	regulate	Run1	regulate/STIM_026.jpg
569.804	2.481	incorrect	regulate	Run1	regulate/STIM_026.jpg
575.005	3.306	incorrect	regulate	Run1	regulate/STIM_027.jpg
581.669	2.764	correct	regulate	Run1	regulate/STIM_027.jpg
586.481	1.752	correct	regulate	Run1	regulate/STIM_027.jpg
590.972	1.694	incorrect	regulate	Run1	regulate/STIM_027.jpg
596.501	1.95	correct	regulate	Run1	regulate/STIM_028.jpg
602.151	1.974	correct	regulate	Run1	regulate/STIM_028.jpg
607.649	3.069	correct	regulate	Run1	regulate/STIM_028.jpg
614.609	2.646	correct	regulate	Run1	regulate/STIM_028.jpg
620.648	2.29	correct	regulate	Run1	regulate/STIM_029.jpg
625.149	1.537	correct	regulate	Run1	regulate/STIM_029.jpg
630.555	1.649	incorrect	regulate	Run1	regulate/STIM_029.jpg
635.37	1.383	correct	regulate	Run1	regulate/STIM_029.jpg
638.858	1.411	incorrect	observe	Run1	observe/STIM_000.jpg
642.639	1.577	correct	observe	Run1	observe/STIM_000.jpg
647.971	0.961	incorrect	observe	Run1	observe/STIM_000.jpg
651.913	1.643	correct	observe	Run1	observe/STIM_000.jpg
656.349	1.582	correct	observe	Run1	observe/STIM_001.jpg
660.322	1.234	correct	observe	Run1	observe/STIM_001.jpg
664.43	1.109	correct	observe	Run1	observe/STIM_001.jpg
668.711	1.641	correct	observe	Run1	observe/STIM_001.jpg
673.229	0.981	correct	observe	Run1	observe/STIM_002.jpg
677.855	1.618	correct	observe	Run1	observe/STIM_002.jpg
682.969	1.257	correct	observe	Run1	observe/STIM_002.jpg
688.128	1.101	correct	observe	Run1	observe/STIM_002.jpg
691.647	1.093	incorrect	observe	Run1	observe/STIM_003.jpg
694.994	0.913	correct	observe	Run1	observe/STIM_003.jpg
699.736	1.649	incorrect	observe	Run1	observe/STIM_003.jpg
703.472	1.178	correct	observe	Run1	observe/STIM_003.jpg
707.542	1.282	incorrect	observe	Run1	observe/STIM_004.jpg
711.43	0.986	correct	observe	Run1	observe/STIM_004.jpg
715.544	0.862	incorrect	observe	Run1	observe/STIM_004.jpg
719.459	1.562	correct	observe	Run1	observe/STIM_004.jpg
723.512	1.353	correct	observe	Run1	observe/STIM_005.jpg
727.454	0.897	incorrect	observe	Run1	observe/STIM_005.jpg
731.047	1.221	correct	observe	Run1	observe/STIM_005.jpg
734.573	1.319	correct	observe	Run1	observe/STIM_005.jpg
738.598	1.046	correct	observe	Run1	observe/STIM_006.jpg
742.686	1.376	correct	observe	Run1	observe/STIM_006.jpg
746.603	0.916	correct	observe	Run1	observe/STIM_006.jpg
751.136	0.914	correct	observe	Run1	observe/STIM_006.jpg
754.34	1.509	correct	observe	Run1	observe/STIM_007.jpg
759.719	1.42	correct	observe	Run1	observe/STIM_007.jpg
764.426	1.488	incorrect	observe	Run1	observe/STIM_007.jpg
768.286	0.836	correct	observe	Run1	observe/STIM_007.jpg
772.504	1.318	correct	observe	Run1	observe/STIM_008.jpg
776.266	1.546	incorrect	observe	Run1	observe/STIM_008.jpg
780.136	1.448	incorrect	observe	Run1	observe/STIM_008.jpg
783.829	1.324	correct	observe	Run1	observe/STIM_008.jpg
788.654	1.457	correct	observe	Run1	observe/STIM_009.jpg
793.903	0.976	incorrect	observe	Run1	observe/STIM_009.jpg
798.053	1.266	incorrect	observe	Run1	observe/STIM_009.jpg
802.656	1.596	incorrect	observe	Run1	observe/STIM_009.jpg
807.925	0.971	correct	observe	Run1	observe/STIM_010.jpg
811.596	0.95	correct	observe	Run1	observe/STIM_010.jpg
815.781	1.088	incorrect	observe	Run1	observe/STIM_010.jpg
820.258	1.247	correct	observe	Run1	observe/STIM_010.jpg
825.376	1.491	incorrect	observe	Run1	observe/STIM_011.jpg
829.837	1.098	correct	observe	Run1	observe/STIM_011.jpg
834.618	1.534	correct	observe	Run1	observe/STIM_011.jpg
839.04	1.372	incorrect	observe	Run1	observe/STIM_011.jpg
843.948	1.624	correct	observe	Run1	observe/STIM_012.jpg
848.595	1.118	correct	observe	Run1	observe/STIM_012.jpg
853.038	1.225	incorrect	observe	Run1	observe/STIM_012.jpg
856.717	1.563	incorrect	observe	Run1	observe/STIM_012.jpg
861.369	1.613	correct	observe	Run1	observe/STIM_013.jpg
865.143	1.165	correct	observe	Run1	observe/STIM_013.jpg
870.077	1.442	correct	observe	Run1	observe/STIM_013.jpg
875.28	1.217	incorrect	observe	Run1	observe/STIM_013.jpg
880.412	0.88	correct	observe	Run1	observe/STIM_014.jpg
884.745	1.018	correct	observe	Run1	observe/STIM_014.jpg
889.019	1.472	correct	observe	Run1	observe/STIM_014.jpg
893.532	1.112	correct	observe	Run1	observe/STIM_014.jpg
897.187	1.2	correct	observe	Run1	observe/STIM_015.jpg
900.598	0.925	correct	observe	Run1	observe/STIM_015.jpg
905.043	1.67	correct	observe	Run1	observe/STIM_015.jpg
908.785	0.89	correct	observe	Run1	observe/STIM_015.jpg
913.323	1.209	correct	observe	Run1	observe/STIM_016.jpg
916.533	0.856	correct	observe	Run1	observe/STIM_016.jpg
921.278	1.58	correct	observe	Run1	observe/STIM_016.jpg
926.789	1.319	incorrect	observe	Run1	observe/STIM_016.jpg
930.946	1.03	correct	observe	Run1	observe/STIM_017.jpg
934.264	0.871	incorrect	observe	Run1	observe/STIM_017.jpg
938.887	1.161	correct	observe	Run1	observe/STIM_017.jpg
943.591	0.937	correct	observe	Run1	observe/STIM_017.jpg
947.231	1.418	correct	observe	Run1	observe/STIM_018.jpg
950.779	1.438	correct	observe	Run1	observe/STIM_018.jpg
955.977	0.985	correct	observe	Run1	observe/STIM_018.jpg
959.041	1.618	incorrect	observe	Run1	observe/STIM_018.jpg
964.108	1.138	correct	observe	Run1	observe/STIM_019.jpg
969.224	1.237	correct	observe	Run1	observe/STIM_019.jpg
973.31	1.53	correct	observe	Run1	observe/STIM_019.jpg
977.999	1.552	correct	observe	Run1	observe/STIM_019.jpg
983.089	2.982	correct	regulate	Run2	regulate/STIM_000.jpg
989.007	2.503	correct	regulate	Run2	regulate/STIM_000.jpg
994.724	1.514	correct	regulate	Run2	regulate/STIM_000.jpg
999.769	2.228	incorrect	regulate	Run2	regulate/STIM_000.jpg
1004.578	1.575	correct	regulate	Run2	regulate/STIM_001.jpg
1008.345	2.893	correct	regulate	Run2	regulate/STIM_001.jpg
1015.035	2.193	correct	regulate	Run2	regulate/STIM_001.jpg
1020.014	1.473	correct	regulate	Run2	regulate/STIM_001.jpg
1025.125	2.609	correct	regulate	Run2	regulate/STIM_002.jpg
1030.235	2.708	correct	regulate	Run2	regulate/STIM_002.jpg
1035.879	1.594	correct	regulate	Run2	regulate/STIM_002.jpg
1039.849	2.329	correct	regulate	Run2	regulate/STIM_002.jpg
1046.073	2.154	correct	regulate	Run2	regulate/STIM_003.jpg
1051.129	1.918	correct	regulate	Run2	regulate/STIM_003.jpg
1056.924	1.433	correct	regulate	Run2	regulate/STIM_003.jpg
1060.735	1.467	correct	regulate	Run2	regulate/STIM_003.jpg
1064.276	2.396	correct	regulate	Run2	regulate/STIM_004.jpg
1069.303	2.612	incorrect	regulate	Run2	regulate/STIM_004.jpg
1075.531	1.345	correct	regulate	Run2	regulate/STIM_004.jpg
1080.449	1.536	correct	regulate	Run2	regulate/STIM_004.jpg
1084.206	2.052	correct	regulate	Run2	regulate/STIM_005.jpg
1088.6	1.906	incorrect	regulate	Run2	regulate/STIM_005.jpg
1092.518	1.793	correct	regulate	Run2	regulate/STIM_005.jpg
1098.041	2.171	correct	regulate	Run2	regulate/STIM_005.jpg
1103.949	2.473	correct	regulate	Run2	regulate/STIM_006.jpg
1108.682	2.438	correct	regulate	Run2	regulate/STIM_006.jpg
1113.799	2.278	correct	regulate	Run2	regulate/STIM_006.jpg
1118.328	2.196	correct	regulate	Run2	regulate/STIM_006.jpg
1124.204	1.862	correct	regulate	Run2	regulate/STIM_007.jpg
1129.839	2.092	incorrect	regulate	Run2	regulate/STIM_007.jpg
1134.767	1.752	incorrect	regulate	Run2	regulate/STIM_007.jpg
1140.487	2.014	correct	regulate	Run2	regulate/STIM_007.jpg
1145.245	2.433	correct	regulate	Run2	regulate/STIM_008.jpg
1150.242	1.964	correct	regulate	Run2	regulate/STIM_008.jpg
1154.684	1.805	incorrect	regulate	Run2	regulate/STIM_008.jpg
1159.259	1.196	incorrect	regulate	Run2	regulate/STIM_008.jpg
1163.458	1.354	correct	regulate	Run2	regulate/STIM_009.jpg
1167.56	2.324	correct	regulate	Run2	regulate/STIM_009.jpg
1173.165	2.279	correct	regulate	Run2	regulate/STIM_009.jpg
1177.6	1.836	correct	regulate	Run2	regulate/STIM_009.jpg
1182.24	2.147	incorrect	regulate	Run2	regulate/STIM_010.jpg
1187.799	2.882	correct	regulate	Run2	regulate/STIM_010.jpg
1193.316	1.574	incorrect	regulate	Run2	regulate/STIM_010.jpg
1196.891	2.128	correct	regulate	Run2	regulate/STIM_010.jpg
1202.767	2.956	correct	regulate	Run2	regulate/STIM_011.jpg
1209.667	2.065	correct	regulate	Run2	regulate/STIM_011.jpg
1213.928	2.237	correct	regulate	Run2	regulate/STIM_011.jpg
1218.807	1.486	correct	regulate	Run2	regulate/STIM_011.jpg
1222.973	1.373	correct	regulate	Run2	regulate/STIM_012.jpg
1228.223	1.878	correct	regulate	Run2	regulate/STIM_012.jpg
1233.709	1.533	correct	regulate	Run2	regulate/STIM_012.jpg
1238.062	2.095	correct	regulate	Run2	regulate/STIM_012.jpg
1243.197	1.427	correct	regulate	Run2	regulate/STIM_013.jpg
1247.606	2.913	correct	regulate	Run2	regulate/STIM_013.jpg
1252.722	2.573	correct	regulate	Run2	regulate/STIM_013.jpg
1259.219	2.461	incorrect	regulate	Run2	regulate/STIM_013.jpg
1265.368	2.694	correct	regulate	Run2	regulate/STIM_014.jpg
1272.033	2.796	correct	regulate	Run2	regulate/STIM_014.jpg
1278.535	2.25	correct	regulate	Run2	regulate/STIM_014.jpg
1284.697	1.705	correct	regulate	Run2	regulate/STIM_014.jpg
1289.86	1.903	correct	regulate	Run2	regulate/STIM_015.jpg
1294.57	2.093	correct	regulate	Run2	regulate/STIM_015.jpg
1298.761	1.226	correct	regulate	Run2	regulate/STIM_015.jpg
1302.282	2.438	correct	regulate	Run2	regulate/STIM_015.jpg
1307.894	1.624	incorrect	regulate	Run2	regulate/STIM_016.jpg
1313.378	1.545	correct	regulate	Run2	regulate/STIM_016.jpg
1317.378	1.38	correct	regulate	Run2	regulate/STIM_016.jpg
1322.395	2.208	correct	regulate	Run2	regulate/STIM_016.jpg
1327.467	1.796	correct	regulate	Run2	regulate/STIM_017.jpg
1332.504	1.825	incorrect	regulate	Run2	regulate/STIM_017.jpg
1337.795	2.621	correct	regulate	Run2	regulate/STIM_017.jpg
1344.325	2.199	correct	regulate	Run2	regulate/STIM_017.jpg
1349.26	2.699	correct	regulate	Run2	regulate/STIM_018.jpg
1354.968	1.46	incorrect	regulate	Run2	regulate/STIM_018.jpg
1359.824	2.499	correct	regulate	Run2	regulate/STIM_018.jpg
1365.743	2.551	incorrect	regulate	Run2	regulate/STIM_018.jpg
1370.819	2.116	correct	regulate	Run2	regulate/STIM_019.jpg
1375.436	1.989	incorrect	regulate	Run2	regulate/STIM_019.jpg
1379.772	1.44	correct	regulate	Run2	regulate/STIM_019.jpg
1384.781	2.194	correct	regulate	Run2	regulate/STIM_019.jpg
1389.59	1.897	correct	regulate	Run2	regulate/STIM_020.jpg
1394.442	2.417	correct	regulate	Run2	regulate/STIM_020.jpg
1399.589	2.053	incorrect	regulate	Run2	regulate/STIM_020.jpg
1403.734	1.099	correct	regulate	Run2	regulate/STIM_020.jpg
1407.435	1.884	incorrect	regulate	Run2	regulate/STIM_021.jpg
1412.091	1.444	correct	regulate	Run2	regulate/STIM_021.jpg
1417.257	1.616	incorrect	regulate	Run2	regulate/STIM_021.jpg
1421.357	1.937	correct	regulate	Run2	regulate/STIM_021.jpg
1426.213	2.926	correct	regulate	Run2	regulate/STIM_022.jpg
1432.437	2.413	correct	regulate	Run2	regulate/STIM_022.jpg
1437.975	1.53	correct	regulate	Run2	regulate/STIM_022.jpg
1442.262	1.389	correct	regulate	Run2	regulate/STIM_022.jpg
1446.814	1.546	correct	regulate	Run2	regulate/STIM_023.jpg
1450.613	1.408	correct	regulate	Run2	regulate/STIM_023.jpg
1454.21	2.604	correct	regulate	Run2	regulate/STIM_023.jpg
1459.093	1.51	correct	regulate	Run2	regulate/STIM_023.jpg
1462.65	2.724	correct	regulate	Run2	regulate/STIM_024.jpg
1469.073	2.924	incorrect	regulate	Run2	regulate/STIM_024.jpg
1474.123	2.659	correct	regulate	Run2	regulate/STIM_024.jpg
1479.783	2.516	correct	regulate	Run2	regulate/STIM_024.jpg
1485.125	1.958	incorrect	regulate	Run2	regulate/STIM_025.jpg
1489.375	2.471	incorrect	regulate	Run2	regulate/STIM_025.jpg
1495.286	1.644	correct	regulate	Run2	regulate/STIM_025.jpg
1499.249	2.42	correct	regulate	Run2	regulate/STIM_025.jpg
1503.737	2.422	correct	regulate	Run2	regulate/STIM_026.jpg
1509.238	1.916	correct	regulate	Run2	regulate/STIM_026.jpg
1514.41	1.347	correct	regulate	Run2	regulate/STIM_026.jpg
1518.862	1.353	correct	regulate	Run2	regulate/STIM_026.jpg
1524.102	1.638	incorrect	regulate	Run2	regulate/STIM_027.jpg
1528.976	2.43	correct	regulate	Run2	regulate/STIM_027.jpg
1535.345	1.968	correct	regulate	Run2	regulate/STIM_027.jpg
1540.179	1.28	incorrect	regulate	Run2	regulate/STIM_027.jpg
1545.299	1.708	correct	regulate	Run2	regulate/STIM_028.jpg
1549.492	2.667	incorrect	regulate	Run2	regulate/STIM_028.jpg
1554.682	2.309	correct	regulate	Run2	regulate/STIM_028.jpg
1560.482	1.536	correct	regulate	Run2	regulate/STIM_028.jpg
1565.15	2.02	correct	regulate	Run2	regulate/STIM_029.jpg
1570.213	2.195	incorrect	regulate	Run2	regulate/STIM_029.jpg
1575.433	1.97	correct	regulate	Run2	regulate/STIM_029.jpg
1579.722	1.454	correct	regulate	Run2	regulate/STIM_029.jpg
1583.539	0.99	correct	observe	Run2	observe/STIM_000.jpg
1586.643	0.904	incorrect	observe	Run2	observe/STIM_000.jpg
1589.699	1.525	incorrect	observe	Run2	observe/STIM_000.jpg
1594.718	0.978	correct	observe	Run2	observe/STIM_000.jpg
1598.203	1.313	correct	observe	Run2	observe/STIM_001.jpg
1602.096	1.506	correct	observe	Run2	observe/STIM_001.jpg
1606.06	1.042	correct	observe	Run2	observe/STIM_001.jpg
1609.333	1.134	correct	observe	Run2	observe/STIM_001.jpg
1614.003	1.354	incorrect	observe	Run2	observe/STIM_002.jpg
1618.467	1.389	incorrect	observe	Run2	observe/STIM_002.jpg
1623.094	0.976	correct	observe	Run2	observe/STIM_002.jpg
1626.948	1.146	correct	observe	Run2	observe/STIM_002.jpg
1631.796	1.114	correct	observe	Run2	observe/STIM_003.jpg
1635.437	1.337	correct	observe	Run2	observe/STIM_003.jpg
1638.934	0.908	incorrect	observe	Run2	observe/STIM_003.jpg
1642.29	1.202	correct	observe	Run2	observe/STIM_003.jpg
1647.209	1.446	correct	observe	Run2	observe/STIM_004.jpg
1652.342	1.24	incorrect	observe	Run2	observe/STIM_004.jpg
1657.009	1.166	correct	observe	Run2	observe/STIM_004.jpg
1660.834	1.395	incorrect	observe	Run2	observe/STIM_004.jpg
1664.782	0.842	correct	observe	Run2	observe/STIM_005.jpg
1668.388	0.856	correct	observe	Run2	observe/STIM_005.jpg
1672.817	0.859	correct	observe	Run2	observe/STIM_005.jpg
1675.966	1.043	correct	observe	Run2	observe/STIM_005.jpg
1679.773	1.626	correct	observe	Run2	observe/STIM_006.jpg
1683.783	1.104	incorrect	observe	Run2	observe/STIM_006.jpg
1687.331	1.146	correct	observe	Run2	observe/STIM_006.jpg
1692.261	1.633	incorrect	observe	Run2	observe/STIM_006.jpg
1696.361	1.162	correct	observe	Run2	observe/STIM_007.jpg
1701.433	1.405	correct	observe	Run2	observe/STIM_007.jpg
1704.943	0.966	correct	observe	Run2	observe/STIM_007.jpg
1709.851	1.058	correct	observe	Run2	observe/STIM_007.jpg
1713.75	1.333	incorrect	observe	Run2	observe/STIM_008.jpg
1718.143	1.005	correct	observe	Run2	observe/STIM_008.jpg
1722.719	1.062	correct	observe	Run2	observe/STIM_008.jpg
1726.445	1.374	correct	observe	Run2	observe/STIM_008.jpg
1731.077	1.531	correct	observe	Run2	observe/STIM_009.jpg
1735.727	0.839	incorrect	observe	Run2	observe/STIM_009.jpg
1739.22	1.414	correct	observe	Run2	observe/STIM_009.jpg
1743.809	0.922	incorrect	observe	Run2	observe/STIM_009.jpg
1747.391	1.477	incorrect	observe	Run2	observe/STIM_010.jpg
1751.12	1.558	correct	observe	Run2	observe/STIM_010.jpg
1756.308	0.928	incorrect	observe	Run2	observe/STIM_010.jpg
1761.0	1.642	correct	observe	Run2	observe/STIM_010.jpg
1765.959	1.227	correct	observe	Run2	observe/STIM_011.jpg
1770.563	1.083	correct	observe	Run2	observe/STIM_011.jpg
1775.054	1.032	correct	observe	Run2	observe/STIM_011.jpg
1779.894	1.098	correct	observe	Run2	observe/STIM_011.jpg
1784.537	1.409	correct	observe	Run2	observe/STIM_012.jpg
1789.759	1.263	correct	observe	Run2	observe/STIM_012.jpg
1794.745	1.649	correct	observe	Run2	observe/STIM_012.jpg
1798.619	1.009	correct	observe	Run2	observe/STIM_012.jpg
1802.641	0.864	correct	observe	Run2	observe/STIM_013.jpg
1806.497	1.488	correct	observe	Run2	observe/STIM_013.jpg
1810.514	1.618	correct	observe	Run2	observe/STIM_013.jpg
1814.236	1.588	correct	observe	Run2	observe/STIM_013.jpg
1818.407	1.285	incorrect	observe	Run2	observe/STIM_014.jpg
1823.175	1.329	correct	observe	Run2	observe/STIM_014.jpg
1827.275	1.21	incorrect	observe	Run2	observe/STIM_014.jpg
1832.273	1.606	correct	observe	Run2	observe/STIM_014.jpg
1836.085	1.502	correct	observe	Run2	observe/STIM_015.jpg
1839.739	1.511	correct	observe	Run2	observe/STIM_015.jpg
1843.273	0.997	correct	observe	Run2	observe/STIM_015.jpg
1846.642	1.086	correct	observe	Run2	observe/STIM_015.jpg
1849.8	1.112	correct	observe	Run2	observe/STIM_016.jpg
1853.117	1.108	correct	observe	Run2	observe/STIM_016.jpg
1857.255	1.379	correct	observe	Run2	observe/STIM_016.jpg
1861.164	0.938	correct	observe	Run2	observe/STIM_016.jpg
1865.491	1.47	correct	observe	Run2	observe/STIM_017.jpg
1870.691	0.931	correct	observe	Run2	observe/STIM_017.jpg
1873.704	1.12	incorrect	observe	Run2	observe/STIM_017.jpg
1878.022	1.433	incorrect	observe	Run2	observe/STIM_017.jpg
1882.341	1.13	correct	observe	Run2	observe/STIM_018.jpg
1887.404	1.028	incorrect	observe	Run2	observe/STIM_018.jpg
1891.893	0.997	correct	observe	Run2	observe/STIM_018.jpg
1895.435	1.285	correct	observe	Run2	observe/STIM_018.jpg
1899.41	1.633	correct	observe	Run2	observe/STIM_019.jpg
1903.288	1.547	correct	observe	Run2	observe/STIM_019.jpg
1907.207	1.038	correct	observe	Run2	observe/STIM_019.jpg
1911.77	0.992	correct	observe	Run2	observe/STIM_019.jpg
1914.765	1.192	incorrect	regulate	Run3	regulate/STIM_000.jpg
1918.489	1.64	correct	regulate	Run3	regulate/STIM_000.jpg
1922.429	2.119	correct	regulate	Run3	regulate/STIM_000.jpg
1926.762	1.528	correct	regulate	Run3	regulate/STIM_000.jpg
1931.41	1.697	correct	regulate	Run3	regulate/STIM_001.jpg
1935.148	2.111	correct	regulate	Run3	regulate/STIM_001.jpg
1940.376	2.083	incorrect	regulate	Run3	regulate/STIM_001.jpg
1945.964	1.281	correct	regulate	Run3	regulate/STIM_001.jpg
1951.077	1.857	correct	regulate	Run3	regulate/STIM_002.jpg
1956.793	1.52	correct	regulate	Run3	regulate/STIM_002.jpg
1962.179	1.156	correct	regulate	Run3	regulate/STIM_002.jpg
1965.89	2.115	correct	regulate	Run3	regulate/STIM_002.jpg
1970.306	1.946	correct	regulate	Run3	regulate/STIM_003.jpg
1975.46	1.868	correct	regulate	Run3	regulate/STIM_003.jpg
1979.846	1.35	correct	regulate	Run3	regulate/STIM_003.jpg
1984.944	2.393	correct	regulate	Run3	regulate/STIM_003.jpg
1990.894	1.686	incorrect	regulate	Run3	regulate/STIM_004.jpg
1995.284	1.778	correct	regulate	Run3	regulate/STIM_004.jpg
2000.19	2.288	correct	regulate	Run3	regulate/STIM_004.jpg
2004.933	1.304	correct	regulate	Run3	regulate/STIM_004.jpg
2009.844	2.379	correct	regulate	Run3	regulate/STIM_005.jpg
2015.309	2.524	correct	regulate	Run3	regulate/STIM_005.jpg
2021.187	2.505	correct	regulate	Run3	regulate/STIM_005.jpg
2026.732	1.703	correct	regulate	Run3	regulate/STIM_005.jpg
2030.604	2.373	correct	regulate	Run3	regulate/STIM_006.jpg
2035.802	1.418	correct	regulate	Run3	regulate/STIM_006.jpg
2040.022	1.857	correct	regulate	Run3	regulate/STIM_006.jpg
2045.087	1.529	correct	regulate	Run3	regulate/STIM_006.jpg
2050.319	1.392	correct	regulate	Run3	regulate/STIM_007.jpg
2054.252	1.592	incorrect	regulate	Run3	regulate/STIM_007.jpg
2059.008	1.691	correct	regulate	Run3	regulate/STIM_007.jpg
2064.601	1.962	correct	regulate	Run3	regulate/STIM_007.jpg
2068.8	2.28	incorrect	regulate	Run3	regulate/STIM_008.jpg
2074.455	1.93	correct	regulate	Run3	regulate/STIM_008.jpg
2079.149	1.387	correct	regulate	Run3	regulate/STIM_008.jpg
2083.854	1.403	correct	regulate	Run3	regulate/STIM_008.jpg
2089.234	1.629	correct	regulate	Run3	regulate/STIM_009.jpg
2093.468	2.003	correct	regulate	Run3	regulate/STIM_009.jpg
2098.437	1.235	incorrect	regulate	Run3	regulate/STIM_009.jpg
2102.788	1.462	correct	regulate	Run3	regulate/STIM_009.jpg
2107.562	1.156	incorrect	regulate	Run3	regulate/STIM_010.jpg
2112.246	1.604	incorrect	regulate	Run3	regulate/STIM_010.jpg
2117.235	1.632	correct	regulate	Run3	regulate/STIM_010.jpg
2122.432	1.968	correct	regulate	Run3	regulate/STIM_010.jpg
2126.751	2.47	incorrect	regulate	Run3	regulate/STIM_011.jpg
2132.321	2.092	correct	regulate	Run3	regulate/STIM_011.jpg
2136.932	1.484	correct	regulate	Run3	regulate/STIM_011.jpg
2141.331	2.492	correct	regulate	Run3	regulate/STIM_011.jpg
2146.243	2.436	correct	regulate	Run3	regulate/STIM_012.jpg
2151.39	1.589	correct	regulate	Run3	regulate/STIM_012.jpg
2155.56	2.178	correct	regulate	Run3	regulate/STIM_012.jpg
2160.591	2.505	correct	regulate	Run3	regulate/STIM_012.jpg
2166.343	1.29	correct	regulate	Run3	regulate/STIM_013.jpg
2170.18	1.706	correct	regulate	Run3	regulate/STIM_013.jpg
2174.226	1.438	correct	regulate	Run3	regulate/STIM_013.jpg
2179.618	2.501	incorrect	regulate	Run3	regulate/STIM_013.jpg
2185.639	1.35	correct	regulate	Run3	regulate/STIM_014.jpg
2190.278	2.492	incorrect	regulate	Run3	regulate/STIM_014.jpg
2196.167	2.355	incorrect	regulate	Run3	regulate/STIM_014.jpg
2201.25	1.192	correct	regulate	Run3	regulate/STIM_014.jpg
2205.047	1.551	correct	regulate	Run3	regulate/STIM_015.jpg
2209.429	2.281	correct	regulate	Run3	regulate/STIM_015.jpg
2214.58	1.973	correct	regulate	Run3	regulate/STIM_015.jpg
2219.988	1.644	correct	regulate	Run3	regulate/STIM_015.jpg
2224.535	1.798	correct	regulate	Run3	regulate/STIM_016.jpg
2229.926	1.646	correct	regulate	Run3	regulate/STIM_016.jpg
2235.318	1.829	correct	regulate	Run3	regulate/STIM_016.jpg
2240.363	2.237	correct	regulate	Run3	regulate/STIM_016.jpg
2244.827	1.13	correct	regulate	Run3	regulate/STIM_017.jpg
2247.992	1.625	correct	regulate	Run3	regulate/STIM_017.jpg
2251.839	1.491	incorrect	regulate	Run3	regulate/STIM_017.jpg
2255.354	1.687	correct	regulate	Run3	regulate/STIM_017.jpg
2260.753	1.393	correct	regulate	Run3	regulate/STIM_018.jpg
2264.826	1.348	correct	regulate	Run3	regulate/STIM_018.jpg
2269.256	2.195	correct	regulate	Run3	regulate/STIM_018.jpg
2274.074	1.174	correct	regulate	Run3	regulate/STIM_018.jpg
2278.856	1.893	correct	regulate	Run3	regulate/STIM_019.jpg
2284.123	2.219	correct	regulate	Run3	regulate/STIM_019.jpg
2290.267	1.115	correct	regulate	Run3	regulate/STIM_019.jpg
2294.227	2.416	correct	regulate	Run3	regulate/STIM_019.jpg
2300.036	2.229	correct	regulate	Run3	regulate/STIM_020.jpg
2304.392	1.559	correct	regulate	Run3	regulate/STIM_020.jpg
2309.484	1.475	incorrect	regulate	Run3	regulate/STIM_020.jpg
2313.015	1.855	correct	regulate	Run3	regulate/STIM_020.jpg
2316.985	2.22	incorrect	regulate	Run3	regulate/STIM_021.jpg
2321.755	2.512	correct	regulate	Run3	regulate/STIM_021.jpg
2327.625	1.761	correct	regulate	Run3	regulate/STIM_021.jpg
2332.63	1.653	correct	regulate	Run3	regulate/STIM_021.jpg
2337.66	1.658	correct	regulate	Run3	regulate/STIM_022.jpg
2342.63	1.179	correct	regulate	Run3	regulate/STIM_022.jpg
2346.688	2.491	correct	regulate	Run3	regulate/STIM_022.jpg
2351.353	1.442	correct	regulate	Run3	regulate/STIM_022.jpg
2354.936	1.982	correct	regulate	Run3	regulate/STIM_023.jpg
2360.307	1.933	correct	regulate	Run3	regulate/STIM_023.jpg
2365.6	1.212	correct	regulate	Run3	regulate/STIM_023.jpg
2370.007	2.527	correct	regulate	Run3	regulate/STIM_023.jpg
2375.694	2.434	correct	regulate	Run3	regulate/STIM_024.jpg
2381.345	1.639	correct	regulate	Run3	regulate/STIM_024.jpg
2385.32	2.011	correct	regulate	Run3	regulate/STIM_024.jpg
2390.444	2.523	correct	regulate	Run3	regulate/STIM_024.jpg
2395.238	1.69	correct	regulate	Run3	regulate/STIM_025.jpg
2399.588	1.353	incorrect	regulate	Run3	regulate/STIM_025.jpg
2404.666	2.418	correct	regulate	Run3	regulate/STIM_025.jpg
2410.428	2.003	correct	regulate	Run3	regulate/STIM_025.jpg
2415.865	1.21	incorrect	regulate	Run3	regulate/STIM_026.jpg
2420.439	1.99	correct	regulate	Run3	regulate/STIM_026.jpg
2426.327	1.817	correct	regulate	Run3	regulate/STIM_026.jpg
2430.507	1.903	correct	regulate	Run3	regulate/STIM_026.jpg
2435.18	2.366	incorrect	regulate	Run3	regulate/STIM_027.jpg
2440.821	1.305	correct	regulate	Run3	regulate/STIM_027.jpg
2444.493	1.41	correct	regulate	Run3	regulate/STIM_027.jpg
2449.746	1.57	correct	regulate	Run3	regulate/STIM_027.jpg
2453.527	1.765	correct	regulate	Run3	regulate/STIM_028.jpg
2458.337	1.314	correct	regulate	Run3	regulate/STIM_028.jpg
2463.18	1.627	correct	regulate	Run3	regulate/STIM_028.jpg
2467.284	1.682	correct	regulate	Run3	regulate/STIM_028.jpg
2472.55	2.019	correct	regulate	Run3	regulate/STIM_029.jpg
2478.378	1.284	correct	regulate	Run3	regulate/STIM_029.jpg
2483.024	1.582	correct	regulate	Run3	regulate/STIM_029.jpg
2487.854	1.512	correct	regulate	Run3	regulate/STIM_029.jpg
2492.456	1.152	correct	observe	Run3	observe/STIM_000.jpg
2495.909	1.641	incorrect	observe	Run3	observe/STIM_000.jpg
2500.476	1.452	correct	observe	Run3	observe/STIM_000.jpg
2504.113	1.566	incorrect	observe	Run3	observe/STIM_000.jpg
2509.665	1.113	correct	observe	Run3	observe/STIM_001.jpg
2514.744	1.217	correct	observe	Run3	observe/STIM_001.jpg
2518.678	1.221	correct	observe	Run3	observe/STIM_001.jpg
2522.176	1.354	incorrect	observe	Run3	observe/STIM_001.jpg
2525.593	0.869	correct	observe	Run3	observe/STIM_002.jpg
2529.631	1.592	correct	observe	Run3	observe/STIM_002.jpg
2534.428	1.474	correct	observe	Run3	observe/STIM_002.jpg
2538.876	1.077	correct	observe	Run3	observe/STIM_002.jpg
2543.701	1.327	correct	observe	Run3	observe/STIM_003.jpg
2547.912	1.099	correct	observe	Run3	observe/STIM_003.jpg
2551.489	1.571	correct	observe	Run3	observe/STIM_003.jpg
2555.199	1.19	correct	observe	Run3	observe/STIM_003.jpg
2559.613	0.985	correct	observe	Run3	observe/STIM_004.jpg
2563.248	0.875	incorrect	observe	Run3	observe/STIM_004.jpg
2566.243	0.992	correct	observe	Run3	observe/STIM_004.jpg
2569.668	1.543	correct	observe	Run3	observe/STIM_004.jpg
2574.786	0.935	correct	observe	Run3	observe/STIM_005.jpg
2578.417	1.047	correct	observe	Run3	observe/STIM_005.jpg
2582.207	1.153	incorrect	observe	Run3	observe/STIM_005.jpg
2586.892	1.053	correct	observe	Run3	observe/STIM_005.jpg
2590.794	1.182	correct	observe	Run3	observe/STIM_006.jpg
2595.371	1.655	correct	observe	Run3	observe/STIM_006.jpg
2600.706	0.97	correct	observe	Run3	observe/STIM_006.jpg
2603.923	1.581	correct	observe	Run3	observe/STIM_006.jpg
2609.294	1.303	correct	observe	Run3	observe/STIM_007.jpg
2613.076	1.551	correct	observe	Run3	observe/STIM_007.jpg
2617.387	1.479	correct	observe	Run3	observe/STIM_007.jpg
2622.684	1.161	correct	observe	Run3	observe/STIM_007.jpg
2627.633	1.565	correct	observe	Run3	observe/STIM_008.jpg
2632.685	0.876	correct	observe	Run3	observe/STIM_008.jpg
2636.396	0.916	incorrect	observe	Run3	observe/STIM_008.jpg
2639.75	1.638	correct	observe	Run3	observe/STIM_008.jpg
2644.852	1.493	correct	observe	Run3	observe/STIM_009.jpg
2649.045	1.541	correct	observe	Run3	observe/STIM_009.jpg
2652.672	1.464	correct	observe	Run3	observe/STIM_009.jpg
2657.956	1.613	correct	observe	Run3	observe/STIM_009.jpg
2663.196	0.866	correct	observe	Run3	observe/STIM_010.jpg
2666.696	1.028	correct	observe	Run3	observe/STIM_010.jpg
2669.725	1.184	correct	observe	Run3	observe/STIM_010.jpg
2674.227	1.079	correct	observe	Run3	observe/STIM_010.jpg
2679.258	1.05	correct	observe	Run3	observe/STIM_011.jpg
2683.582	1.013	correct	observe	Run3	observe/STIM_011.jpg
2686.976	1.253	correct	observe	Run3	observe/STIM_011.jpg
2691.695	1.567	correct	observe	Run3	observe/STIM_011.jpg
2695.504	1.233	correct	observe	Run3	observe/STIM_012.jpg
2700.316	1.019	correct	observe	Run3	observe/STIM_012.jpg
2704.131	1.092	incorrect	observe	Run3	observe/STIM_012.jpg
2708.944	1.157	correct	observe	Run3	observe/STIM_012.jpg
2712.87	1.183	incorrect	observe	Run3	observe/STIM_013.jpg
2716.099	1.373	correct	observe	Run3	observe/STIM_013.jpg
2720.239	1.434	correct	observe	Run3	observe/STIM_013.jpg
2724.505	1.461	correct	observe	Run3	observe/STIM_013.jpg
2729.52	1.422	correct	observe	Run3	observe/STIM_014.jpg
2733.127	0.908	correct	observe	Run3	observe/STIM_014.jpg
2736.886	1.17	incorrect	observe	Run3	observe/STIM_014.jpg
2740.878	1.526	correct	observe	Run3	observe/STIM_014.jpg
2744.599	1.224	correct	observe	Run3	observe/STIM_015.jpg
2749.618	1.169	correct	observe	Run3	observe/STIM_015.jpg
2753.786	1.645	correct	observe	Run3	observe/STIM_015.jpg
2758.037	1.225	correct	observe	Run3	observe/STIM_015.jpg
2761.919	1.44	incorrect	observe	Run3	observe/STIM_016.jpg
2767.155	1.243	incorrect	observe	Run3	observe/STIM_016.jpg
2771.682	0.91	correct	observe	Run3	observe/STIM_016.jpg
2775.44	1.627	correct	observe	Run3	observe/STIM_016.jpg
2780.332	0.876	correct	observe	Run3	observe/STIM_017.jpg
2783.558	1.613	incorrect	observe	Run3	observe/STIM_017.jpg
2787.564	1.388	correct	observe	Run3	observe/STIM_017.jpg
2790.959	1.047	correct	observe	Run3	observe/STIM_017.jpg
2795.132	1.239	correct	observe	Run3	observe/STIM_018.jpg
2800.032	0.962	incorrect	observe	Run3	observe/STIM_018.jpg
2804.637	1.657	correct	observe	Run3	observe/STIM_018.jpg
2810.068	1.375	correct	observe	Run3	observe/STIM_018.jpg
2814.784	1.254	correct	observe	Run3	observe/STIM_019.jpg
2819.865	0.885	correct	observe	Run3	observe/STIM_019.jpg
2824.383	1.234	correct	observe	Run3	observe/STIM_019.jpg
2828.397	1.051	correct	observe	Run3	observe/STIM_019.jpg
