onset	duration	accuracy_binary	trial_type	learning_stage	stimulus
0.0	2.994	1	regulate	Run1	regulate/STIM_000.jpg
4.845	3.195	1	regulate	Run1	regulate/STIM_000.jpg
9.891	1.91	1	regulate	Run1	regulate/STIM_000.jpg
14.106	1.619	1	regulate	Run1	regulate/STIM_000.jpg
17.618	3.59	0	regulate	Run1	regulate/STIM_001.jpg
24.135	3.577	1	regulate	Run1	regulate/STIM_001.jpg
29.636	1.571	1	regulate	Run1	regulate/STIM_001.jpg
33.6	2.939	1	regulate	Run1	regulate/STIM_001.jpg
39.531	1.798	1	regulate	Run1	regulate/STIM_002.jpg
44.002	2.994	1	regulate	Run1	regulate/STIM_002.jpg
50.372	2.048	1	regulate	Run1	regulate/STIM_002.jpg
55.808	2.83	0	regulate	Run1	regulate/STIM_002.jpg
62.106	2.883	0	regulate	Run1	regulate/STIM_003.jpg
67.885	2.3	1	regulate	Run1	regulate/STIM_003.jpg
73.764	1.949	0	regulate	Run1	regulate/STIM_003.jpg
77.697	2.036	1	regulate	Run1	regulate/STIM_003.jpg
83.529	3.772	0	regulate	Run1	regulate/STIM_004.jpg
90.016	1.747	1	regulate	Run1	regulate/STIM_004.jpg
93.717	2.044	1	regulate	Run1	regulate/STIM_004.jpg
99.428	2.898	1	regulate	Run1	regulate/STIM_004.jpg
105.203	2.259	1	regulate	Run1	regulate/STIM_005.jpg
111.146	1.65	0	regulate	Run1	regulate/STIM_005.jpg
115.81	1.783	1	regulate	Run1	regulate/STIM_005.jpg
120.306	1.898	1	regulate	Run1	regulate/STIM_005.jpg
125.444	1.881	1	regulate	Run1	regulate/STIM_006.jpg
129.789	3.276	1	regulate	Run1	regulate/STIM_006.jpg
135.686	3.149	1	regulate	Run1	regulate/STIM_006.jpg
141.05	2.161	1	regulate	Run1	regulate/STIM_006.jpg
145.093	2.822	1	regulate	Run1	regulate/STIM_007.jpg
150.35	2.649	1	regulate	Run1	regulate/STIM_007.jpg
155.256	2.905	1	regulate	Run1	regulate/STIM_007.jpg
161.391	1.801	1	regulate	Run1	regulate/STIM_007.jpg
165.765	1.954	1	regulate	Run1	regulate/STIM_008.jpg
170.35	2.016	0	regulate	Run1	regulate/STIM_008.jpg
175.783	3.147	1	regulate	Run1	regulate/STIM_008.jpg
182.479	2.277	1	regulate	Run1	regulate/STIM_008.jpg
187.639	2.069	1	regulate	Run1	regulate/STIM_009.jpg
192.616	2.134	0	regulate	Run1	regulate/STIM_009.jpg
197.899	1.941	1	regulate	Run1	regulate/STIM_009.jpg
202.985	2.082	1	regulate	Run1	regulate/STIM_009.jpg
208.439	3.131	1	regulate	Run1	regulate/STIM_010.jpg
213.524	2.455	1	regulate	Run1	regulate/STIM_010.jpg
218.337	2.79	1	regulate	Run1	regulate/STIM_010.jpg
224.037	2.253	1	regulate	Run1	regulate/STIM_010.jpg
228.866	3.658	1	regulate	Run1	regulate/STIM_011.jpg
236.117	2.17	0	regulate	Run1	regulate/STIM_011.jpg
240.485	3.169	0	regulate	Run1	regulate/STIM_011.jpg
245.907	1.7	1	regulate	Run1	regulate/STIM_011.jpg
250.938	3.724	1	regulate	Run1	regulate/STIM_012.jpg
258.05	3.353	1	regulate	Run1	regulate/STIM_012.jpg
264.05	2.385	1	regulate	Run1	regulate/STIM_012.jpg
269.984	2.849	1	regulate	Run1	regulate/STIM_012.jpg
275.972	2.578	1	regulate	Run1	regulate/STIM_013.jpg
280.495	3.024	1	regulate	Run1	regulate/STIM_013.jpg
285.699	3.158	1	regulate	Run1	regulate/STIM_013.jpg
292.493	1.427	1	regulate	Run1	regulate/STIM_013.jpg
295.992	3.113	1	regulate	Run1	regulate/STIM_014.jpg
301.776	3.164	1	regulate	Run1	regulate/STIM_014.jpg
306.832	2.542	1	regulate	Run1	regulate/STIM_014.jpg
312.884	2.292	0	regulate	Run1	regulate/STIM_014.jpg
318.597	3.664	1	regulate	Run1	regulate/STIM_015.jpg
324.703	1.934	0	regulate	Run1	regulate/STIM_015.jpg
328.732	3.191	1	regulate	Run1	regulate/STIM_015.jpg
334.924	2.586	0	regulate	Run1	regulate/STIM_015.jpg
340.156	1.794	1	regulate	Run1	regulate/STIM_016.jpg
343.823	3.611	1	regulate	Run1	regulate/STIM_016.jpg
350.911	1.744	1	regulate	Run1	regulate/STIM_016.jpg
355.244	1.497	1	regulate	Run1	regulate/STIM_016.jpg
359.324	3.295	1	regulate	Run1	regulate/STIM_017.jpg
365.605	2.252	1	regulate	Run1	regulate/STIM_017.jpg
371.564	1.71	0	regulate	Run1	regulate/STIM_017.jpg
375.756	2.316	1	regulate	Run1	regulate/STIM_017.jpg
380.189	1.715	1	regulate	Run1	regulate/STIM_018.jpg
383.763	3.174	1	regulate	Run1	regulate/STIM_018.jpg
388.709	2.566	1	regulate	Run1	regulate/STIM_018.jpg
394.823	2.97	1	regulate	Run1	regulate/STIM_018.jpg
400.954	2.324	1	regulate	Run1	regulate/STIM_019.jpg
407.054	1.817	1	regulate	Run1	regulate/STIM_019.jpg
412.357	2.928	0	regulate	Run1	regulate/STIM_019.jpg
418.788	2.806	0	regulate	Run1	regulate/STIM_019.jpg
424.929	2.382	1	regulate	Run1	regulate/STIM_020.jpg
430.168	3.545	1	regulate	Run1	regulate/STIM_020.jpg
435.665	1.538	1	regulate	Run1	regulate/STIM_020.jpg
440.398	1.947	1	regulate	Run1	regulate/STIM_020.jpg
444.835	1.705	1	regulate	Run1	regulate/STIM_021.jpg
450.367	3.541	1	regulate	Run1	regulate/STIM_021.jpg
455.86	1.751	1	regulate	Run1	regulate/STIM_021.jpg
460.793	2.961	1	regulate	Run1	regulate/STIM_021.jpg
465.524	3.67	1	regulate	Run1	regulate/STIM_022.jpg
472.332	2.616	1	regulate	Run1	regulate/STIM_022.jpg
477.492	1.97	1	regulate	Run1	regulate/STIM_022.jpg
481.995	1.791	0	regulate	Run1	regulate/STIM_022.jpg
487.298	1.797	1	regulate	Run1	regulate/STIM_023.jpg
490.948	3.244	1	regulate	Run1	regulate/STIM_023.jpg
497.898	3.358	1	regulate	Run1	regulate/STIM_023.jpg
503.493	2.384	1	regulate	Run1	regulate/STIM_023.jpg
507.896	2.216	1	regulate	Run1	regulate/STIM_024.jpg
513.476	1.961	0	regulate	Run1	regulate/STIM_024.jpg
518.493	2.008	1	regulate	Run1	regulate/STIM_024.jpg
523.242	1.418	1	regulate	Run1	regulate/STIM_024.jpg
527.758	2.297	1	regulate	Run1	regulate/STIM_025.jpg
532.04	2.181	1	regulate	Run1	regulate/STIM_025.jpg
536.986	3.138	1	regulate	Run1	regulate/STIM_025.jpg
541.911	1.448	1	regulate	Run1	regulate/STIM_025.jpg
546.019	2.694	1	regulate	Run1	regulate/STIM_026.jpg
551.701	1.648	1	regulate	Run1	regulate/STIM_026.jpg
555.577	2.705	1	regulate	Run1	regulate/STIM_026.jpg
560.936	2.113	0	regulate	Run1	regulate/STIM_026.jpg
565.614	3.092	1	regulate	Run1	regulate/STIM_027.jpg
572.298	3.05	1	regulate	Run1	regulate/STIM_027.jpg
577.672	2.069	1	regulate	Run1	regulate/STIM_027.jpg
583.01	1.621	0	regulate	Run1	regulate/STIM_027.jpg
587.067	1.822	1	regulate	Run1	regulate/STIM_028.jpg
592.437	2.121	0	regulate	Run1	regulate/STIM_028.jpg
596.471	2.169	1	regulate	Run1	regulate/STIM_028.jpg
602.228	2.882	0	regulate	Run1	regulate/STIM_028.jpg
607.984	3.729	1	regulate	Run1	regulate/STIM_029.jpg
614.252	3.006	1	regulate	Run1	regulate/STIM_029.jpg
620.617	1.864	0	regulate	Run1	regulate/STIM_029.jpg
625.42	2.24	1	regulate	Run1	regulate/STIM_029.jpg
630.155	1.744	1	observe	Run1	observe/STIM_000.jpg
635.275	1.236	0	observe	Run1	observe/STIM_000.jpg
639.616	1.22	1	observe	Run1	observe/STIM_000.jpg
643.39	1.732	1	observe	Run1	observe/STIM_000.jpg
648.713	1.522	1	observe	Run1	observe/STIM_001.jpg
652.867	1.242	1	observe	Run1	observe/STIM_001.jpg
656.796	0.971	1	observe	Run1	observe/STIM_001.jpg
661.362	1.15	1	observe	Run1	observe/STIM_001.jpg
665.201	1.4	0	observe	Run1	observe/STIM_002.jpg
670.056	1.655	0	observe	Run1	observe/STIM_002.jpg
675.226	1.619	1	observe	Run1	observe/STIM_002.jpg
680.364	1.737	1	observe	Run1	observe/STIM_002.jpg
684.062	1.575	1	observe	Run1	observe/STIM_003.jpg
689.195	1.355	1	observe	Run1	observe/STIM_003.jpg
693.866	1.357	1	observe	Run1	observe/STIM_003.jpg
697.855	1.152	1	observe	Run1	observe/STIM_003.jpg
700.97	1.255	0	observe	Run1	observe/STIM_004.jpg
705.18	1.138	1	observe	Run1	observe/STIM_004.jpg
710.016	0.88	1	observe	Run1	observe/STIM_004.jpg
714.523	1.459	1	observe	Run1	observe/STIM_004.jpg
719.086	1.698	1	observe	Run1	observe/STIM_005.jpg
724.552	0.944	1	observe	Run1	observe/STIM_005.jpg
727.496	0.888	1	observe	Run1	observe/STIM_005.jpg
732.156	1.149	0	observe	Run1	observe/STIM_005.jpg
736.279	1.266	1	observe	Run1	observe/STIM_006.jpg
740.182	1.481	1	observe	Run1	observe/STIM_006.jpg
743.58	0.97	1	observe	Run1	observe/STIM_006.jpg
748.174	1.5	1	observe	Run1	observe/STIM_006.jpg
752.356	1.502	0	observe	Run1	observe/STIM_007.jpg
757.159	1.603	1	observe	Run1	observe/STIM_007.jpg
761.871	1.532	1	observe	Run1	observe/STIM_007.jpg
765.411	1.721	1	observe	Run1	observe/STIM_007.jpg
770.242	1.128	1	observe	Run1	observe/STIM_008.jpg
775.201	1.388	1	observe	Run1	observe/STIM_008.jpg
778.791	1.08	1	observe	Run1	observe/STIM_008.jpg
783.118	1.428	1	observe	Run1	observe/STIM_008.jpg
787.505	1.503	1	observe	Run1	observe/STIM_009.jpg
792.252	1.198	1	observe	Run1	observe/STIM_009.jpg
795.564	1.56	1	observe	Run1	observe/STIM_009.jpg
800.154	1.232	1	observe	Run1	observe/STIM_009.jpg
804.029	1.415	1	observe	Run1	observe/STIM_010.jpg
808.696	0.973	1	observe	Run1	observe/STIM_010.jpg
812.17	0.947	1	observe	Run1	observe/STIM_010.jpg
816.314	1.464	1	observe	Run1	observe/STIM_010.jpg
820.157	1.502	1	observe	Run1	observe/STIM_011.jpg
825.212	1.035	1	observe	Run1	observe/STIM_011.jpg
829.206	1.546	1	observe	Run1	observe/STIM_011.jpg
834.606	1.272	1	observe	Run1	observe/STIM_011.jpg
838.744	1.038	1	observe	Run1	observe/STIM_012.jpg
843.539	1.184	1	observe	Run1	observe/STIM_012.jpg
848.435	1.64	1	observe	Run1	observe/STIM_012.jpg
852.934	1.705	1	observe	Run1	observe/STIM_012.jpg
857.383	1.339	1	observe	Run1	observe/STIM_013.jpg
861.955	1.612	1	observe	Run1	observe/STIM_013.jpg
867.17	0.982	1	observe	Run1	observe/STIM_013.jpg
870.642	0.886	1	observe	Run1	observe/STIM_013.jpg
875.405	1.705	1	observe	Run1	observe/STIM_014.jpg
879.372	1.416	1	observe	Run1	observe/STIM_014.jpg
884.069	1.166	1	observe	Run1	observe/STIM_014.jpg
887.709	1.46	1	observe	Run1	observe/STIM_014.jpg
891.914	1.399	1	observe	Run1	observe/STIM_015.jpg
896.219	1.511	1	observe	Run1	observe/STIM_015.jpg
900.034	1.288	1	observe	Run1	observe/STIM_015.jpg
904.763	1.266	1	observe	Run1	observe/STIM_015.jpg
908.831	1.691	1	observe	Run1	observe/STIM_016.jpg
913.928	1.264	1	observe	Run1	observe/STIM_016.jpg
917.255	1.103	1	observe	Run1	observe/STIM_016.jpg
921.145	1.027	1	observe	Run1	observe/STIM_016.jpg
925.093	1.752	1	observe	Run1	observe/STIM_017.jpg
930.152	1.075	1	observe	Run1	observe/STIM_017.jpg
934.035	1.16	1	observe	Run1	observe/STIM_017.jpg
938.847	1.199	1	observe	Run1	observe/STIM_017.jpg
943.556	0.936	1	observe	Run1	observe/STIM_018.jpg
947.403	1.548	1	observe	Run1	observe/STIM_018.jpg
952.709	1.306	0	observe	Run1	observe/STIM_018.jpg
956.755	1.293	1	observe	Run1	observe/STIM_018.jpg
961.805	1.003	1	observe	Run1	observe/STIM_019.jpg
965.443	1.415	1	observe	Run1	observe/STIM_019.jpg
970.179	1.049	1	observe	Run1	observe/STIM_019.jpg
974.376	1.577	1	observe	Run1	observe/STIM_019.jpg
978.914	2.77	1	regulate	Run2	regulate/STIM_000.jpg
984.01	1.811	1	regulate	Run2	regulate/STIM_000.jpg
989.2	1.45	1	regulate	Run2	regulate/STIM_000.jpg
994.429	1.305	1	regulate	Run2	regulate/STIM_000.jpg
999.522	1.55	1	regulate	Run2	regulate/STIM_001.jpg
1004.024	3.029	1	regulate	Run2	regulate/STIM_001.jpg
1010.739	2.401	1	regulate	Run2	regulate/STIM_001.jpg
1015.784	1.684	0	regulate	Run2	regulate/STIM_001.jpg
1019.691	3.186	1	regulate	Run2	regulate/STIM_002.jpg
1025.458	2.737	1	regulate	Run2	regulate/STIM_002.jpg
1030.016	2.047	1	regulate	Run2	regulate/STIM_002.jpg
1035.731	1.625	1	regulate	Run2	regulate/STIM_002.jpg
1040.414	2.95	1	regulate	Run2	regulate/STIM_003.jpg
1047.071	3.041	1	regulate	Run2	regulate/STIM_003.jpg
1051.989	2.086	0	regulate	Run2	regulate/STIM_003.jpg
1057.677	1.932	1	regulate	Run2	regulate/STIM_003.jpg
1061.599	1.965	1	regulate	Run2	regulate/STIM_004.jpg
1065.402	2.877	1	regulate	Run2	regulate/STIM_004.jpg
1071.391	2.853	1	regulate	Run2	regulate/STIM_004.jpg
1076.819	1.205	1	regulate	Run2	regulate/STIM_004.jpg
1080.109	2.077	1	regulate	Run2	regulate/STIM_005.jpg
1085.522	2.215	1	regulate	Run2	regulate/STIM_005.jpg
1090.067	1.875	0	regulate	Run2	regulate/STIM_005.jpg
1093.968	2.426	1	regulate	Run2	regulate/STIM_005.jpg
1100.151	2.98	1	regulate	Run2	regulate/STIM_006.jpg
1106.325	2.309	0	regulate	Run2	regulate/STIM_006.jpg
1112.279	1.504	1	regulate	Run2	regulate/STIM_006.jpg
1116.528	1.489	1	regulate	Run2	regulate/STIM_006.jpg
1120.368	2.904	1	regulate	Run2	regulate/STIM_007.jpg
1125.171	1.927	1	regulate	Run2	regulate/STIM_007.jpg
1129.581	2.741	1	regulate	Run2	regulate/STIM_007.jpg
1134.279	1.786	0	regulate	Run2	regulate/STIM_007.jpg
1138.026	3.197	1	regulate	Run2	regulate/STIM_008.jpg
1143.044	2.103	1	regulate	Run2	regulate/STIM_008.jpg
1147.911	2.19	0	regulate	Run2	regulate/STIM_008.jpg
1152.318	2.337	1	regulate	Run2	regulate/STIM_008.jpg
1157.024	2.476	1	regulate	Run2	regulate/STIM_009.jpg
1161.516	2.485	1	regulate	Run2	regulate/STIM_009.jpg
1166.231	1.835	1	regulate	Run2	regulate/STIM_009.jpg
1171.288	2.191	1	regulate	Run2	regulate/STIM_009.jpg
1176.191	1.411	1	regulate	Run2	regulate/STIM_010.jpg
1179.788	2.505	0	regulate	Run2	regulate/STIM_010.jpg
1185.844	2.421	1	regulate	Run2	regulate/STIM_010.jpg
1190.755	2.41	1	regulate	Run2	regulate/STIM_010.jpg
1196.85	1.621	1	regulate	Run2	regulate/STIM_011.jpg
1201.673	2.65	1	regulate	Run2	regulate/STIM_011.jpg
1206.481	1.468	1	regulate	Run2	regulate/STIM_011.jpg
1210.208	1.432	1	regulate	Run2	regulate/STIM_011.jpg
1213.698	2.213	1	regulate	Run2	regulate/STIM_012.jpg
1218.024	1.718	1	regulate	Run2	regulate/STIM_012.jpg
1222.818	2.18	0	regulate	Run2	regulate/STIM_012.jpg
1227.834	1.166	1	regulate	Run2	regulate/STIM_012.jpg
1231.769	2.611	0	regulate	Run2	regulate/STIM_013.jpg
1237.331	1.47	1	regulate	Run2	regulate/STIM_013.jpg
1241.111	1.514	1	regulate	Run2	regulate/STIM_013.jpg
1245.224	2.584	1	regulate	Run2	regulate/STIM_013.jpg
1251.469	1.61	1	regulate	Run2	regulate/STIM_014.jpg
1255.801	1.761	1	regulate	Run2	regulate/STIM_014.jpg
1260.846	2.19	1	regulate	Run2	regulate/STIM_014.jpg
1266.231	2.366	1	regulate	Run2	regulate/STIM_014.jpg
1271.514	3.182	0	regulate	Run2	regulate/STIM_015.jpg
1276.925	1.727	1	regulate	Run2	regulate/STIM_015.jpg
1281.582	2.624	1	regulate	Run2	regulate/STIM_015.jpg
1286.952	2.594	1	regulate	Run2	regulate/STIM_015.jpg
1292.492	1.876	1	regulate	Run2	regulate/STIM_016.jpg
1297.94	2.862	1	regulate	Run2	regulate/STIM_016.jpg
1302.911	1.741	1	regulate	Run2	regulate/STIM_016.jpg
1308.214	1.536	1	regulate	Run2	regulate/STIM_016.jpg
1312.042	1.648	1	regulate	Run2	regulate/STIM_017.jpg
1317.419	2.054	1	regulate	Run2	regulate/STIM_017.jpg
1322.893	2.534	1	regulate	Run2	regulate/STIM_017.jpg
1328.058	1.248	0	regulate	Run2	regulate/STIM_017.jpg
1331.951	2.078	1	regulate	Run2	regulate/STIM_018.jpg
1337.524	1.413	1	regulate	Run2	regulate/STIM_018.jpg
1342.382	2.025	1	regulate	Run2	regulate/STIM_018.jpg
1347.951	2.612	1	regulate	Run2	regulate/STIM_018.jpg
1353.645	2.088	1	regulate	Run2	regulate/STIM_019.jpg
1358.961	2.351	1	regulate	Run2	regulate/STIM_019.jpg
1364.621	2.112	1	regulate	Run2	regulate/STIM_019.jpg
1369.039	2.223	1	regulate	Run2	regulate/STIM_019.jpg
1373.347	1.431	1	regulate	Run2	regulate/STIM_020.jpg
1378.492	2.69	1	regulate	Run2	regulate/STIM_020.jpg
1383.934	2.275	1	regulate	Run2	regulate/STIM_020.jpg
1388.257	1.447	1	regulate	Run2	regulate/STIM_020.jpg
1393.104	2.844	1	regulate	Run2	regulate/STIM_021.jpg
1398.089	1.48	0	regulate	Run2	regulate/STIM_021.jpg
1402.486	1.322	1	regulate	Run2	regulate/STIM_021.jpg
1406.542	2.563	1	regulate	Run2	regulate/STIM_021.jpg
1411.757	1.824	0	regulate	Run2	regulate/STIM_022.jpg
1417.183	2.577	1	regulate	Run2	regulate/STIM_022.jpg
1423.044	2.498	1	regulate	Run2	regulate/STIM_022.jpg
1427.782	2.022	1	regulate	Run2	regulate/STIM_022.jpg
1432.044	2.426	1	regulate	Run2	regulate/STIM_023.jpg
1437.025	2.163	1	regulate	Run2	regulate/STIM_023.jpg
1441.685	2.313	1	regulate	Run2	regulate/STIM_023.jpg
1446.238	1.92	1	regulate	Run2	regulate/STIM_023.jpg
1451.005	3.176	1	regulate	Run2	regulate/STIM_024.jpg
1457.386	1.912	1	regulate	Run2	regulate/STIM_024.jpg
1461.582	1.945	1	regulate	Run2	regulate/STIM_024.jpg
1465.383	1.342	1	regulate	Run2	regulate/STIM_024.jpg
1468.681	1.782	0	regulate	Run2	regulate/STIM_025.jpg
1473.854	1.784	0	regulate	Run2	regulate/STIM_025.jpg
1478.799	1.541	0	regulate	Run2	regulate/STIM_025.jpg
1482.877	1.582	1	regulate	Run2	regulate/STIM_025.jpg
1486.45	2.097	1	regulate	Run2	regulate/STIM_026.jpg
1490.506	2.525	0	regulate	Run2	regulate/STIM_026.jpg
1496.262	2.362	1	regulate	Run2	regulate/STIM_026.jpg
1500.915	2.369	1	regulate	Run2	regulate/STIM_026.jpg
1505.651	2.311	1	regulate	Run2	regulate/STIM_027.jpg
1510.734	1.961	1	regulate	Run2	regulate/STIM_027.jpg
1515.633	1.753	1	regulate	Run2	regulate/STIM_027.jpg
1520.156	1.787	1	regulate	Run2	regulate/STIM_027.jpg
1525.759	1.626	0	regulate	Run2	regulate/STIM_028.jpg
1529.416	1.991	1	regulate	Run2	regulate/STIM_028.jpg
1533.99	2.22	1	regulate	Run2	regulate/STIM_028.jpg
1539.766	1.232	1	regulate	Run2	regulate/STIM_028.jpg
1544.012	1.788	1	regulate	Run2	regulate/STIM_029.jpg
1549.063	2.083	1	regulate	Run2	regulate/STIM_029.jpg
1554.054	1.546	1	regulate	Run2	regulate/STIM_029.jpg
1559.232	1.223	1	regulate	Run2	regulate/STIM_029.jpg
1562.446	1.337	1	observe	Run2	observe/STIM_000.jpg
1566.573	1.106	1	observe	Run2	observe/STIM_000.jpg
1570.878	1.724	1	observe	Run2	observe/STIM_000.jpg
1575.579	0.938	0	observe	Run2	observe/STIM_000.jpg
1579.488	1.715	1	observe	Run2	observe/STIM_001.jpg
1583.31	1.048	1	observe	Run2	observe/STIM_001.jpg
1587.319	1.216	1	observe	Run2	observe/STIM_001.jpg
1592.361	1.291	1	observe	Run2	observe/STIM_001.jpg
1596.26	1.005	1	observe	Run2	observe/STIM_002.jpg
1599.629	1.538	1	observe	Run2	observe/STIM_002.jpg
1604.429	1.633	1	observe	Run2	observe/STIM_002.jpg
1608.113	0.909	1	observe	Run2	observe/STIM_002.jpg
1611.433	1.616	1	observe	Run2	observe/STIM_003.jpg
1614.913	1.058	1	observe	Run2	observe/STIM_003.jpg
1619.564	0.935	1	observe	Run2	observe/STIM_003.jpg
1622.76	1.43	1	observe	Run2	observe/STIM_003.jpg
1627.375	1.659	1	observe	Run2	observe/STIM_004.jpg
1631.149	1.383	1	observe	Run2	observe/STIM_004.jpg
1635.091	0.932	1	observe	Run2	observe/STIM_004.jpg
1638.667	0.936	1	observe	Run2	observe/STIM_004.jpg
1642.545	1.269	1	observe	Run2	observe/STIM_005.jpg
1646.038	1.61	0	observe	Run2	observe/STIM_005.jpg
1651.439	1.592	1	observe	Run2	observe/STIM_005.jpg
1655.69	1.655	1	observe	Run2	observe/STIM_005.jpg
1659.601	1.653	1	observe	Run2	observe/STIM_006.jpg
1663.33	1.738	1	observe	Run2	observe/STIM_006.jpg
1667.468	0.955	1	observe	Run2	observe/STIM_006.jpg
1672.063	1.085	1	observe	Run2	observe/STIM_006.jpg
1676.423	1.515	1	observe	Run2	observe/STIM_007.jpg
1681.734	1.052	1	observe	Run2	observe/STIM_007.jpg
1684.83	1.128	0	observe	Run2	observe/STIM_007.jpg
1688.329	1.616	1	observe	Run2	observe/STIM_007.jpg
1692.787	1.317	1	observe	Run2	observe/STIM_008.jpg
1697.583	1.149	1	observe	Run2	observe/STIM_008.jpg
1701.609	0.943	1	observe	Run2	observe/STIM_008.jpg
1705.962	1.458	0	observe	Run2	observe/STIM_008.jpg
1710.075	1.078	1	observe	Run2	observe/STIM_009.jpg
1714.664	0.989	1	observe	Run2	observe/STIM_009.jpg
1718.446	1.505	1	observe	Run2	observe/STIM_009.jpg
1721.925	1.754	1	observe	Run2	observe/STIM_009.jpg
1727.252	1.554	1	observe	Run2	observe/STIM_010.jpg
1730.819	1.34	1	observe	Run2	observe/STIM_010.jpg
1735.388	1.736	1	observe	Run2	observe/STIM_010.jpg
1739.769	1.461	1	observe	Run2	observe/STIM_010.jpg
1744.468	0.913	0	observe	Run2	observe/STIM_011.jpg
1747.376	1.708	1	observe	Run2	observe/STIM_011.jpg
1751.976	0.947	0	observe	Run2	observe/STIM_011.jpg
1754.955	1.57	1	observe	Run2	observe/STIM_011.jpg
1759.667	1.305	1	observe	Run2	observe/STIM_012.jpg
1763.058	1.224	1	observe	Run2	observe/STIM_012.jpg
1766.954	0.985	1	observe	Run2	observe/STIM_012.jpg
1770.691	1.384	1	observe	Run2	observe/STIM_012.jpg
1774.778	0.968	0	observe	Run2	observe/STIM_013.jpg
1779.117	1.309	1	observe	Run2	observe/STIM_013.jpg
1784.225	1.576	1	observe	Run2	observe/STIM_013.jpg
1788.541	0.98	1	observe	Run2	observe/STIM_013.jpg
1791.621	1.508	1	observe	Run2	observe/STIM_014.jpg
1796.309	1.027	1	observe	Run2	observe/STIM_014.jpg
1801.121	1.624	1	observe	Run2	observe/STIM_014.jpg
1804.875	0.937	1	observe	Run2	observe/STIM_014.jpg
1809.075	1.379	1	observe	Run2	observe/STIM_015.jpg
1812.894	1.654	1	observe	Run2	observe/STIM_015.jpg
1817.453	1.125	1	observe	Run2	observe/STIM_015.jpg
1821.522	1.24	1	observe	Run2	observe/STIM_015.jpg
1826.013	1.236	1	observe	Run2	observe/STIM_016.jpg
1830.66	1.208	1	observe	Run2	observe/STIM_016.jpg
1834.512	1.207	0	observe	Run2	observe/STIM_016.jpg
1837.756	1.125	1	observe	Run2	observe/STIM_016.jpg
1842.072	0.941	1	observe	Run2	observe/STIM_017.jpg
1845.218	1.287	1	observe	Run2	observe/STIM_017.jpg
1849.868	1.178	1	observe	Run2	observe/STIM_017.jpg
1853.827	1.415	1	observe	Run2	observe/STIM_017.jpg
1858.38	0.897	1	observe	Run2	observe/STIM_018.jpg
1861.677	1.713	0	observe	Run2	observe/STIM_018.jpg
1865.994	1.262	1	observe	Run2	observe/STIM_018.jpg
1869.498	1.384	1	observe	Run2	observe/STIM_018.jpg
1873.073	1.24	1	observe	Run2	observe/STIM_019.jpg
1876.84	0.928	1	observe	Run2	observe/STIM_019.jpg
1880.626	1.432	1	observe	Run2	observe/STIM_019.jpg
1885.037	1.364	1	observe	Run2	observe/STIM_019.jpg
1888.957	2.247	1	regulate	Run3	regulate/STIM_000.jpg
1894.483	2.16	1	regulate	Run3	regulate/STIM_000.jpg
1899.486	2.618	1	regulate	Run3	regulate/STIM_000.jpg
1905.121	2.441	1	regulate	Run3	regulate/STIM_000.jpg
1909.982	2.528	1	regulate	Run3	regulate/STIM_001.jpg
1915.251	1.598	1	regulate	Run3	regulate/STIM_001.jpg
1920.299	2.116	1	regulate	Run3	regulate/STIM_001.jpg
1924.434	1.657	1	regulate	Run3	regulate/STIM_001.jpg
1928.426	2.514	1	regulate	Run3	regulate/STIM_002.jpg
1933.913	2.072	1	regulate	Run3	regulate/STIM_002.jpg
1938.268	2.351	1	regulate	Run3	regulate/STIM_002.jpg
1943.404	2.192	1	regulate	Run3	regulate/STIM_002.jpg
1948.421	1.941	1	regulate	Run3	regulate/STIM_003.jpg
1953.992	1.735	1	regulate	Run3	regulate/STIM_003.jpg
1959.442	2.346	1	regulate	Run3	regulate/STIM_003.jpg
1963.861	1.31	1	regulate	Run3	regulate/STIM_003.jpg
1967.667	2.287	1	regulate	Run3	regulate/STIM_004.jpg
1971.799	2.693	1	regulate	Run3	regulate/STIM_004.jpg
1976.306	1.288	1	regulate	Run3	regulate/STIM_004.jpg
1981.174	2.298	1	regulate	Run3	regulate/STIM_004.jpg
1987.085	1.837	1	regulate	Run3	regulate/STIM_005.jpg
1992.572	2.36	1	regulate	Run3	regulate/STIM_005.jpg
1997.336	2.144	1	regulate	Run3	regulate/STIM_005.jpg
2002.678	1.597	1	regulate	Run3	regulate/STIM_005.jpg
2007.623	1.795	1	regulate	Run3	regulate/STIM_006.jpg
2011.275	2.415	1	regulate	Run3	regulate/STIM_006.jpg
2015.983	2.539	1	regulate	Run3	regulate/STIM_006.jpg
2022.193	2.338	1	regulate	Run3	regulate/STIM_006.jpg
2026.791	2.155	1	regulate	Run3	regulate/STIM_007.jpg
2032.662	1.935	1	regulate	Run3	regulate/STIM_007.jpg
2038.384	2.086	1	regulate	Run3	regulate/STIM_007.jpg
2043.49	1.399	1	regulate	Run3	regulate/STIM_007.jpg
2047.663	1.192	1	regulate	Run3	regulate/STIM_008.jpg
2052.625	2.148	1	regulate	Run3	regulate/STIM_008.jpg
2057.403	2.13	1	regulate	Run3	regulate/STIM_008.jpg
2063.102	1.212	1	regulate	Run3	regulate/STIM_008.jpg
2066.77	1.367	1	regulate	Run3	regulate/STIM_009.jpg
2071.479	1.321	1	regulate	Run3	regulate/STIM_009.jpg
2074.794	2.303	1	regulate	Run3	regulate/STIM_009.jpg
2080.827	2.427	1	regulate	Run3	regulate/STIM_009.jpg
2085.422	1.915	1	regulate	Run3	regulate/STIM_010.jpg
2090.1	2.594	1	regulate	Run3	regulate/STIM_010.jpg
2096.23	1.535	1	regulate	Run3	regulate/STIM_010.jpg
2100.267	1.331	1	regulate	Run3	regulate/STIM_010.jpg
2104.443	1.789	1	regulate	Run3	regulate/STIM_011.jpg
2109.803	2.155	1	regulate	Run3	regulate/STIM_011.jpg
2114.802	1.649	1	regulate	Run3	regulate/STIM_011.jpg
2118.494	1.612	1	regulate	Run3	regulate/STIM_011.jpg
2123.901	2.595	1	regulate	Run3	regulate/STIM_012.jpg
2129.874	2.033	1	regulate	Run3	regulate/STIM_012.jpg
2133.816	2.434	1	regulate	Run3	regulate/STIM_012.jpg
2138.465	1.955	1	regulate	Run3	regulate/STIM_012.jpg
2142.699	2.45	1	regulate	Run3	regulate/STIM_013.jpg
2147.182	1.215	1	regulate	Run3	regulate/STIM_013.jpg
2150.49	1.967	1	regulate	Run3	regulate/STIM_013.jpg
2156.253	1.518	1	regulate	Run3	regulate/STIM_013.jpg
2159.885	1.459	1	regulate	Run3	regulate/STIM_014.jpg
2163.74	2.249	1	regulate	Run3	regulate/STIM_014.jpg
2168.373	1.456	1	regulate	Run3	regulate/STIM_014.jpg
2173.22	2.163	1	regulate	Run3	regulate/STIM_014.jpg
2177.236	1.871	1	regulate	Run3	regulate/STIM_015.jpg
2182.754	1.691	1	regulate	Run3	regulate/STIM_015.jpg
2186.327	1.547	1	regulate	Run3	regulate/STIM_015.jpg
2190.204	1.69	1	regulate	Run3	regulate/STIM_015.jpg
2194.007	1.684	0	regulate	Run3	regulate/STIM_016.jpg
2198.235	2.428	1	regulate	Run3	regulate/STIM_016.jpg
2203.721	1.578	1	regulate	Run3	regulate/STIM_016.jpg
2207.177	1.707	1	regulate	Run3	regulate/STIM_016.jpg
2211.709	1.556	1	regulate	Run3	regulate/STIM_017.jpg
2216.117	1.772	1	regulate	Run3	regulate/STIM_017.jpg
2220.607	1.581	1	regulate	Run3	regulate/STIM_017.jpg
2224.558	2.328	1	regulate	Run3	regulate/STIM_017.jpg
2230.266	1.717	1	regulate	Run3	regulate/STIM_018.jpg
2234.693	1.464	1	regulate	Run3	regulate/STIM_018.jpg
2239.754	1.591	1	regulate	Run3	regulate/STIM_018.jpg
2244.85	1.969	1	regulate	Run3	regulate/STIM_018.jpg
2250.072	2.364	0	regulate	Run3	regulate/STIM_019.jpg
2255.406	2.448	1	regulate	Run3	regulate/STIM_019.jpg
2260.858	2.512	1	regulate	Run3	regulate/STIM_019.jpg
2265.437	1.387	1	regulate	Run3	regulate/STIM_019.jpg
2270.385	1.998	1	regulate	Run3	regulate/STIM_020.jpg
2276.094	2.293	1	regulate	Run3	regulate/STIM_020.jpg
2280.622	1.51	1	regulate	Run3	regulate/STIM_020.jpg
2284.424	1.408	1	regulate	Run3	regulate/STIM_020.jpg
2289.118	1.456	1	regulate	Run3	regulate/STIM_021.jpg
2293.662	1.22	1	regulate	Run3	regulate/STIM_021.jpg
2297.135	2.2	1	regulate	Run3	regulate/STIM_021.jpg
2302.514	1.9	1	regulate	Run3	regulate/STIM_021.jpg
2306.853	1.823	1	regulate	Run3	regulate/STIM_022.jpg
2312.121	1.607	1	regulate	Run3	regulate/STIM_022.jpg
2316.446	1.177	1	regulate	Run3	regulate/STIM_022.jpg
2320.53	1.201	1	regulate	Run3	regulate/STIM_022.jpg
2324.908	2.492	1	regulate	Run3	regulate/STIM_023.jpg
2330.193	2.046	1	regulate	Run3	regulate/STIM_023.jpg
2334.557	1.503	1	regulate	Run3	regulate/STIM_023.jpg
2339.453	1.825	1	regulate	Run3	regulate/STIM_023.jpg
2344.195	1.409	1	regulate	Run3	regulate/STIM_024.jpg
2348.124	1.402	1	regulate	Run3	regulate/STIM_024.jpg
2352.796	1.697	0	regulate	Run3	regulate/STIM_024.jpg
2357.646	2.258	1	regulate	Run3	regulate/STIM_024.jpg
2363.448	1.454	1	regulate	Run3	regulate/STIM_025.jpg
2367.297	2.289	1	regulate	Run3	regulate/STIM_025.jpg
2372.146	2.64	1	regulate	Run3	regulate/STIM_025.jpg
2378.324	1.844	1	regulate	Run3	regulate/STIM_025.jpg
2382.491	1.322	1	regulate	Run3	regulate/STIM_026.jpg
2386.866	1.328	1	regulate	Run3	regulate/STIM_026.jpg
2391.305	2.302	1	regulate	Run3	regulate/STIM_026.jpg
2396.714	2.403	1	regulate	Run3	regulate/STIM_026.jpg
2401.703	1.505	1	regulate	Run3	regulate/STIM_027.jpg
2405.159	1.747	0	regulate	Run3	regulate/STIM_027.jpg
2409.323	1.717	1	regulate	Run3	regulate/STIM_027.jpg
2413.541	1.474	1	regulate	Run3	regulate/STIM_027.jpg
2417.176	2.117	1	regulate	Run3	regulate/STIM_028.jpg
2422.745	2.68	1	regulate	Run3	regulate/STIM_028.jpg
2428.982	2.464	1	regulate	Run3	regulate/STIM_028.jpg
2433.401	1.779	1	regulate	Run3	regulate/STIM_028.jpg
2437.217	1.884	1	regulate	Run3	regulate/STIM_029.jpg
2441.93	2.38	1	regulate	Run3	regulate/STIM_029.jpg
2447.509	1.828	1	regulate	Run3	regulate/STIM_029.jpg
2451.896	2.548	1	regulate	Run3	regulate/STIM_029.jpg
2456.783	1.696	1	observe	Run3	observe/STIM_000.jpg
2461.185	1.331	1	observe	Run3	observe/STIM_000.jpg
2465.88	1.414	1	observe	Run3	observe/STIM_000.jpg
2470.05	1.566	1	observe	Run3	observe/STIM_000.jpg
2474.256	1.096	1	observe	Run3	observe/STIM_001.jpg
2477.335	1.043	1	observe	Run3	observe/STIM_001.jpg
2481.305	1.375	1	observe	Run3	observe/STIM_001.jpg
2486.458	1.476	1	observe	Run3	observe/STIM_001.jpg
2490.04	1.257	1	observe	Run3	observe/STIM_002.jpg
2493.829	0.951	1	observe	Run3	observe/STIM_002.jpg
2497.141	1.553	1	observe	Run3	observe/STIM_002.jpg
2502.081	1.135	1	observe	Run3	observe/STIM_002.jpg
2505.155	1.552	1	observe	Run3	observe/STIM_003.jpg
2509.067	1.238	1	observe	Run3	observe/STIM_003.jpg
2513.88	1.408	1	observe	Run3	observe/STIM_003.jpg
2517.789	1.048	1	observe	Run3	observe/STIM_003.jpg
2522.451	1.182	1	observe	Run3	observe/STIM_004.jpg
2526.138	1.394	1	observe	Run3	observe/STIM_004.jpg
2531.107	0.903	1	observe	Run3	observe/STIM_004.jpg
2534.192	1.062	1	observe	Run3	observe/STIM_004.jpg
2539.012	1.651	1	observe	Run3	observe/STIM_005.jpg
2544.311	1.216	1	observe	Run3	observe/STIM_005.jpg
2548.001	0.936	1	observe	Run3	observe/STIM_005.jpg
2552.242	1.372	1	observe	Run3	observe/STIM_005.jpg
2556.19	1.35	1	observe	Run3	observe/STIM_006.jpg
2559.699	1.656	1	observe	Run3	observe/STIM_006.jpg
2564.556	1.754	1	observe	Run3	observe/STIM_006.jpg
2569.949	1.543	1	observe	Run3	observe/STIM_006.jpg
2574.553	0.995	1	observe	Run3	observe/STIM_007.jpg
2578.477	1.142	1	observe	Run3	observe/STIM_007.jpg
2582.483	0.96	1	observe	Run3	observe/STIM_007.jpg
2587.076	1.244	0	observe	Run3	observe/STIM_007.jpg
2591.827	1.654	1	observe	Run3	observe/STIM_008.jpg
2596.129	1.516	1	observe	Run3	observe/STIM_008.jpg
2601.258	1.714	0	observe	Run3	observe/STIM_008.jpg
2605.108	1.228	1	observe	Run3	observe/STIM_008.jpg
2608.352	1.523	1	observe	Run3	observe/STIM_009.jpg
2611.837	1.666	1	observe	Run3	observe/STIM_009.jpg
2616.243	1.245	1	observe	Run3	observe/STIM_009.jpg
2619.411	1.506	1	observe	Run3	observe/STIM_009.jpg
2623.904	1.397	0	observe	Run3	observe/STIM_010.jpg
2629.095	1.323	1	observe	Run3	observe/STIM_010.jpg
2633.346	1.046	1	observe	Run3	observe/STIM_010.jpg
2636.783	1.479	1	observe	Run3	observe/STIM_010.jpg
2641.934	0.984	1	observe	Run3	observe/STIM_011.jpg
2646.677	1.15	1	observe	Run3	observe/STIM_011.jpg
2651.701	1.368	1	observe	Run3	observe/STIM_011.jpg
2656.248	0.96	1	observe	Run3	observe/STIM_011.jpg
2659.366	1.572	1	observe	Run3	observe/STIM_012.jpg
2662.971	1.15	0	observe	Run3	observe/STIM_012.jpg
2666.413	1.367	1	observe	Run3	observe/STIM_012.jpg
2669.892	1.596	0	observe	Run3	observe/STIM_012.jpg
2674.584	1.006	1	observe	Run3	observe/STIM_013.jpg
2677.513	1.278	1	observe	Run3	observe/STIM_013.jpg
2682.389	0.963	1	observe	Run3	observe/STIM_013.jpg
2685.373	0.99	1	observe	Run3	observe/STIM_013.jpg
2688.517	1.082	1	observe	Run3	observe/STIM_014.jpg
2691.828	1.601	1	observe	Run3	observe/STIM_014.jpg
2696.658	1.382	1	observe	Run3	observe/STIM_014.jpg
2701.569	1.187	1	observe	Run3	observe/STIM_014.jpg
2705.244	1.508	1	observe	Run3	observe/STIM_015.jpg
2710.402	0.949	1	observe	Run3	observe/STIM_015.jpg
2713.726	1.108	1	observe	Run3	observe/STIM_015.jpg
2716.97	1.159	1	observe	Run3	observe/STIM_015.jpg
2720.384	1.568	1	observe	Run3	observe/STIM_016.jpg
2724.531	1.394	1	observe	Run3	observe/STIM_016.jpg
2728.05	1.122	1	observe	Run3	observe/STIM_016.jpg
2732.598	0.994	1	observe	Run3	observe/STIM_016.jpg
2737.263	1.072	1	observe	Run3	observe/STIM_017.jpg
2742.033	1.522	1	observe	Run3	observe/STIM_017.jpg
2747.054	1.436	1	observe	Run3	observe/STIM_017.jpg
2750.961	1.055	1	observe	Run3	observe/STIM_017.jpg
2754.008	1.277	1	observe	Run3	observe/STIM_018.jpg
2757.981	0.881	1	observe	Run3	observe/STIM_018.jpg
2761.784	1.512	1	observe	Run3	observe/STIM_018.jpg
2766.399	1.176	1	observe	Run3	observe/STIM_018.jpg
2769.526	1.443	1	observe	Run3	observe/STIM_019.jpg
2772.851	0.961	1	observe	Run3	observe/STIM_019.jpg
2776.795	1.03	1	observe	Run3	observe/STIM_019.jpg
2780.39	1.042	1	observe	Run3	observe/STIM_019.jpg
