onset	duration	response_time_ms	trial_type	learning_stage	stimulus	response_port
0.0	2.994	2993.8	regulate	Run1	regulate/STIM_000.jpg	99
4.845	3.195	3195.1	regulate	Run1	regulate/STIM_000.jpg	99
9.891	1.91	1910.1	regulate	Run1	regulate/STIM_000.jpg	100
14.106	1.619	1618.7	regulate	Run1	regulate/STIM_000.jpg	99
17.618	3.59	3589.6	regulate	Run1	regulate/STIM_001.jpg	100
24.135	3.577	3577.4	regulate	Run1	regulate/STIM_001.jpg	99
29.636	1.571	1571.1	regulate	Run1	regulate/STIM_001.jpg	99
33.6	2.939	2939.4	regulate	Run1	regulate/STIM_001.jpg	100
39.531	1.798	1798.0	regulate	Run1	regulate/STIM_002.jpg	100
44.002	2.994	2993.6	regulate	Run1	regulate/STIM_002.jpg	100
50.372	2.048	2048.1	regulate	Run1	regulate/STIM_002.jpg	100
55.808	2.83	2829.8	regulate	Run1	regulate/STIM_002.jpg	99
62.106	2.883	2882.9	regulate	Run1	regulate/STIM_003.jpg	100
67.885	2.3	2299.8	regulate	Run1	regulate/STIM_003.jpg	100
73.764	1.949	1948.9	regulate	Run1	regulate/STIM_003.jpg	99
77.697	2.036	2035.7	regulate	Run1	regulate/STIM_003.jpg	100
83.529	3.772	3772.5	regulate	Run1	regulate/STIM_004.jpg	100
90.016	1.747	1747.4	regulate	Run1	regulate/STIM_004.jpg	99
93.717	2.044	2043.8	regulate	Run1	regulate/STIM_004.jpg	99
99.428	2.898	2897.6	regulate	Run1	regulate/STIM_004.jpg	99
105.203	2.259	2258.6	regulate	Run1	regulate/STIM_005.jpg	100
111.146	1.65	1649.7	regulate	Run1	regulate/STIM_005.jpg	99
115.81	1.783	1782.8	regulate	Run1	regulate/STIM_005.jpg	100
120.306	1.898	1897.7	regulate	Run1	regulate/STIM_005.jpg	100
125.444	1.881	1880.9	regulate	Run1	regulate/STIM_006.jpg	99
129.789	3.276	3276.1	regulate	Run1	regulate/STIM_006.jpg	100
135.686	3.149	3149.0	regulate	Run1	regulate/STIM_006.jpg	99
141.05	2.161	2161.1	regulate	Run1	regulate/STIM_006.jpg	99
145.093	2.822	2822.1	regulate	Run1	regulate/STIM_007.jpg	99
150.35	2.649	2648.6	regulate	Run1	regulate/STIM_007.jpg	99
155.256	2.905	2905.1	regulate	Run1	regulate/STIM_007.jpg	99
161.391	1.801	1801.2	regulate	Run1	regulate/STIM_007.jpg	100
165.765	1.954	1953.8	regulate	Run1	regulate/STIM_008.jpg	100
170.35	2.016	2016.4	regulate	Run1	regulate/STIM_008.jpg	99
175.783	3.147	3146.9	regulate	Run1	regulate/STIM_008.jpg	99
182.479	2.277	2276.9	regulate	Run1	regulate/STIM_008.jpg	100
187.639	2.069	2069.0	regulate	Run1	regulate/STIM_009.jpg	99
192.616	2.134	2134.1	regulate	Run1	regulate/STIM_009.jpg	100
197.899	1.941	1940.7	regulate	Run1	regulate/STIM_009.jpg	100
202.985	2.082	2082.4	regulate	Run1	regulate/STIM_009.jpg	99
208.439	3.131	3130.8	regulate	Run1	regulate/STIM_010.jpg	100
213.524	2.455	2455.1	regulate	Run1	regulate/STIM_010.jpg	100
218.337	2.79	2790.0	regulate	Run1	regulate/STIM_010.jpg	100
224.037	2.253	2253.1	regulate	Run1	regulate/STIM_010.jpg	100
228.866	3.658	3658.3	regulate	Run1	regulate/STIM_011.jpg	100
236.117	2.17	2169.5	regulate	Run1	regulate/STIM_011.jpg	99
240.485	3.169	3168.7	regulate	Run1	regulate/STIM_011.jpg	100
245.907	1.7	1700.0	regulate	Run1	regulate/STIM_011.jpg	99
250.938	3.724	3724.5	regulate	Run1	regulate/STIM_012.jpg	100
258.05	3.353	3352.9	regulate	Run1	regulate/STIM_012.jpg	100
264.05	2.385	2384.8	regulate	Run1	regulate/STIM_012.jpg	99
269.984	2.849	2849.1	regulate	Run1	regulate/STIM_012.jpg	100
275.972	2.578	2578.2	regulate	Run1	regulate/STIM_013.jpg	100
280.495	3.024	3023.8	regulate	Run1	regulate/STIM_013.jpg	100
285.699	3.158	3157.7	regulate	Run1	regulate/STIM_013.jpg	99
292.493	1.427	1426.7	regulate	Run1	regulate/STIM_013.jpg	100
295.992	3.113	3113.3	regulate	Run1	regulate/STIM_014.jpg	99
301.776	3.164	3164.3	regulate	Run1	regulate/STIM_014.jpg	100
306.832	2.542	2542.5	regulate	Run1	regulate/STIM_014.jpg	100
312.884	2.292	2291.5	regulate	Run1	regulate/STIM_014.jpg	99
318.597	3.664	3663.9	regulate	Run1	regulate/STIM_015.jpg	99
324.703	1.934	1933.9	regulate	Run1	regulate/STIM_015.jpg	99
328.732	3.191	3190.7	regulate	Run1	regulate/STIM_015.jpg	99
334.924	2.586	2586.4	regulate	Run1	regulate/STIM_015.jpg	99
340.156	1.794	1794.2	regulate	Run1	regulate/STIM_016.jpg	99
343.823	3.611	3611.0	regulate	Run1	regulate/STIM_016.jpg	99
350.911	1.744	1744.5	regulate	Run1	regulate/STIM_016.jpg	100
355.244	1.497	1496.8	regulate	Run1	regulate/STIM_016.jpg	100
359.324	3.295	3295.0	regulate	Run1	regulate/STIM_017.jpg	100
365.605	2.252	2252.4	regulate	Run1	regulate/STIM_017.jpg	99
371.564	1.71	1709.6	regulate	Run1	regulate/STIM_017.jpg	100
375.756	2.316	2316.5	regulate	Run1	regulate/STIM_017.jpg	99
380.189	1.715	1714.7	regulate	Run1	regulate/STIM_018.jpg	99
383.763	3.174	3174.3	regulate	Run1	regulate/STIM_018.jpg	100
388.709	2.566	2566.5	regulate	Run1	regulate/STIM_018.jpg	100
394.823	2.97	2970.3	regulate	Run1	regulate/STIM_018.jpg	100
400.954	2.324	2323.5	regulate	Run1	regulate/STIM_019.jpg	100
407.054	1.817	1817.1	regulate	Run1	regulate/STIM_019.jpg	100
412.357	2.928	2928.2	regulate	Run1	regulate/STIM_019.jpg	99
418.788	2.806	2806.3	regulate	Run1	regulate/STIM_019.jpg	100
424.929	2.382	2382.2	regulate	Run1	regulate/STIM_020.jpg	100
430.168	3.545	3545.3	regulate	Run1	regulate/STIM_020.jpg	99
435.665	1.538	1537.6	regulate	Run1	regulate/STIM_020.jpg	100
440.398	1.947	1946.7	regulate	Run1	regulate/STIM_020.jpg	100
444.835	1.705	1705.2	regulate	Run1	regulate/STIM_021.jpg	99
450.367	3.541	3541.4	regulate	Run1	regulate/STIM_021.jpg	99
455.86	1.751	1751.4	regulate	Run1	regulate/STIM_021.jpg	100
460.793	2.961	2961.3	regulate	Run1	regulate/STIM_021.jpg	99
465.524	3.67	3670.2	regulate	Run1	regulate/STIM_022.jpg	100
472.332	2.616	2615.8	regulate	Run1	regulate/STIM_022.jpg	100
477.492	1.97	1969.7	regulate	Run1	regulate/STIM_022.jpg	99
481.995	1.791	1791.2	regulate	Run1	regulate/STIM_022.jpg	99
487.298	1.797	1797.3	regulate	Run1	regulate/STIM_023.jpg	99
490.948	3.244	3243.9	regulate	Run1	regulate/STIM_023.jpg	100
497.898	3.358	3357.8	regulate	Run1	regulate/STIM_023.jpg	100
503.493	2.384	2383.8	regulate	Run1	regulate/STIM_023.jpg	99
507.896	2.216	2216.4	regulate	Run1	regulate/STIM_024.jpg	100
513.476	1.961	1960.8	regulate	Run1	regulate/STIM_024.jpg	99
518.493	2.008	2008.1	regulate	Run1	regulate/STIM_024.jpg	100
523.242	1.418	1417.6	regulate	Run1	regulate/STIM_024.jpg	100
527.758	2.297	2297.0	regulate	Run1	regulate/STIM_025.jpg	100
532.04	2.181	2180.6	regulate	Run1	regulate/STIM_025.jpg	100
536.986	3.138	3138.5	regulate	Run1	regulate/STIM_025.jpg	99
541.911	1.448	1447.6	regulate	Run1	regulate/STIM_025.jpg	99
546.019	2.694	2693.7	regulate	Run1	regulate/STIM_026.jpg	100
551.701	1.648	1648.2	regulate	Run1	regulate/STIM_026.jpg	100
555.577	2.705	2705.0	regulate	Run1	regulate/STIM_026.jpg	100
560.936	2.113	2112.6	regulate	Run1	regulate/STIM_026.jpg	99
565.614	3.092	3092.1	regulate	Run1	regulate/STIM_027.jpg	99
572.298	3.05	3050.3	regulate	Run1	regulate/STIM_027.jpg	99
577.672	2.069	2068.8	regulate	Run1	regulate/STIM_027.jpg	99
583.01	1.621	1620.9	regulate	Run1	regulate/STIM_027.jpg	99
587.067	1.822	1821.5	regulate	Run1	regulate/STIM_028.jpg	100
592.437	2.121	2120.6	regulate	Run1	regulate/STIM_028.jpg	99
596.471	2.169	2168.6	regulate	Run1	regulate/STIM_028.jpg	99
602.228	2.882	2882.3	regulate	Run1	regulate/STIM_028.jpg	100
607.984	3.729	3729.2	regulate	Run1	regulate/STIM_029.jpg	99
614.252	3.006	3006.1	regulate	Run1	regulate/STIM_029.jpg	100
620.617	1.864	1863.5	regulate	Run1	regulate/STIM_029.jpg	100
625.42	2.24	2240.5	regulate	Run1	regulate/STIM_029.jpg	100
630.155	1.744	1744.5	observe	Run1	observe/STIM_000.jpg	99
635.275	1.236	1235.8	observe	Run1	observe/STIM_000.jpg	100
639.616	1.22	1219.7	observe	Run1	observe/STIM_000.jpg	100
643.39	1.732	1732.0	observe	Run1	observe/STIM_000.jpg	99
648.713	1.522	1522.2	observe	Run1	observe/STIM_001.jpg	100
652.867	1.242	1242.1	observe	Run1	observe/STIM_001.jpg	99
656.796	0.971	971.3	observe	Run1	observe/STIM_001.jpg	99
661.362	1.15	1149.9	observe	Run1	observe/STIM_001.jpg	100
665.201	1.4	1400.1	observe	Run1	observe/STIM_002.jpg	99
670.056	1.655	1654.6	observe	Run1	observe/STIM_002.jpg	99
675.226	1.619	1619.2	observe	Run1	observe/STIM_002.jpg	100
680.364	1.737	1736.8	observe	Run1	observe/STIM_002.jpg	100
684.062	1.575	1575.1	observe	Run1	observe/STIM_003.jpg	100
689.195	1.355	1354.8	observe	Run1	observe/STIM_003.jpg	99
693.866	1.357	1357.4	observe	Run1	observe/STIM_003.jpg	100
697.855	1.152	1151.6	observe	Run1	observe/STIM_003.jpg	100
700.97	1.255	1254.6	observe	Run1	observe/STIM_004.jpg	99
705.18	1.138	1137.8	observe	Run1	observe/STIM_004.jpg	99
710.016	0.88	879.7	observe	Run1	observe/STIM_004.jpg	99
714.523	1.459	1458.6	observe	Run1	observe/STIM_004.jpg	99
719.086	1.698	1697.5	observe	Run1	observe/STIM_005.jpg	99
724.552	0.944	943.5	observe	Run1	observe/STIM_005.jpg	99
727.496	0.888	887.8	observe	Run1	observe/STIM_005.jpg	99
732.156	1.149	1149.4	observe	Run1	observe/STIM_005.jpg	99
736.279	1.266	1265.7	observe	Run1	observe/STIM_006.jpg	99
740.182	1.481	1480.8	observe	Run1	observe/STIM_006.jpg	100
743.58	0.97	969.5	observe	Run1	observe/STIM_006.jpg	100
748.174	1.5	1500.5	observe	Run1	observe/STIM_006.jpg	100
752.356	1.502	1502.1	observe	Run1	observe/STIM_007.jpg	99
757.159	1.603	1602.8	observe	Run1	observe/STIM_007.jpg	100
761.871	1.532	1531.9	observe	Run1	observe/STIM_007.jpg	99
765.411	1.721	1721.1	observe	Run1	observe/STIM_007.jpg	99
770.242	1.128	1127.9	observe	Run1	observe/STIM_008.jpg	100
775.201	1.388	1387.7	observe	Run1	observe/STIM_008.jpg	100
778.791	1.08	1080.2	observe	Run1	observe/STIM_008.jpg	100
783.118	1.428	1427.7	observe	Run1	observe/STIM_008.jpg	99
787.505	1.503	1503.0	observe	Run1	observe/STIM_009.jpg	99
792.252	1.198	1197.6	observe	Run1	observe/STIM_009.jpg	99
795.564	1.56	1560.1	observe	Run1	observe/STIM_009.jpg	99
800.154	1.232	1232.3	observe	Run1	observe/STIM_009.jpg	99
804.029	1.415	1415.2	observe	Run1	observe/STIM_010.jpg	99
808.696	0.973	972.6	observe	Run1	observe/STIM_010.jpg	100
812.17	0.947	946.9	observe	Run1	observe/STIM_010.jpg	100
816.314	1.464	1463.6	observe	Run1	observe/STIM_010.jpg	100
820.157	1.502	1502.4	observe	Run1	observe/STIM_011.jpg	99
825.212	1.035	1035.1	observe	Run1	observe/STIM_011.jpg	100
829.206	1.546	1546.1	observe	Run1	observe/STIM_011.jpg	99
834.606	1.272	1271.6	observe	Run1	observe/STIM_011.jpg	100
838.744	1.038	1038.1	observe	Run1	observe/STIM_012.jpg	100
843.539	1.184	1183.6	observe	Run1	observe/STIM_012.jpg	99
848.435	1.64	1640.5	observe	Run1	observe/STIM_012.jpg	100
852.934	1.705	1705.1	observe	Run1	observe/STIM_012.jpg	100
857.383	1.339	1338.7	observe	Run1	observe/STIM_013.jpg	100
861.955	1.612	1612.3	observe	Run1	observe/STIM_013.jpg	99
867.17	0.982	982.4	observe	Run1	observe/STIM_013.jpg	100
870.642	0.886	885.9	observe	Run1	observe/STIM_013.jpg	99
875.405	1.705	1704.7	observe	Run1	observe/STIM_014.jpg	100
879.372	1.416	1416.3	observe	Run1	observe/STIM_014.jpg	100
884.069	1.166	1165.5	observe	Run1	observe/STIM_014.jpg	99
887.709	1.46	1460.0	observe	Run1	observe/STIM_014.jpg	100
891.914	1.399	1398.7	observe	Run1	observe/STIM_015.jpg	99
896.219	1.511	1511.2	observe	Run1	observe/STIM_015.jpg	99
900.034	1.288	1288.1	observe	Run1	observe/STIM_015.jpg	100
904.763	1.266	1266.4	observe	Run1	observe/STIM_015.jpg	100
908.831	1.691	1690.6	observe	Run1	observe/STIM_016.jpg	100
913.928	1.264	1264.4	observe	Run1	observe/STIM_016.jpg	100
917.255	1.103	1102.7	observe	Run1	observe/STIM_016.jpg	100
921.145	1.027	1026.6	observe	Run1	observe/STIM_016.jpg	99
925.093	1.752	1752.5	observe	Run1	observe/STIM_017.jpg	100
930.152	1.075	1075.2	observe	Run1	observe/STIM_017.jpg	99
934.035	1.16	1160.4	observe	Run1	observe/STIM_017.jpg	99
938.847	1.199	1199.1	observe	Run1	observe/STIM_017.jpg	99
943.556	0.936	935.6	observe	Run1	observe/STIM_018.jpg	99
947.403	1.548	1547.6	observe	Run1	observe/STIM_018.jpg	99
952.709	1.306	1305.5	observe	Run1	observe/STIM_018.jpg	100
956.755	1.293	1293.1	observe	Run1	observe/STIM_018.jpg	99
961.805	1.003	1002.8	observe	Run1	observe/STIM_019.jpg	100
965.443	1.415	1414.6	observe	Run1	observe/STIM_019.jpg	100
970.179	1.049	1049.3	observe	Run1	observe/STIM_019.jpg	100
974.376	1.577	1577.2	observe	Run1	observe/STIM_019.jpg	99
978.914	2.77	2770.3	regulate	Run2	regulate/STIM_000.jpg	99
984.01	1.811	1810.9	regulate	Run2	regulate/STIM_000.jpg	100
989.2	1.45	1450.2	regulate	Run2	regulate/STIM_000.jpg	100
994.429	1.305	1305.3	regulate	Run2	regulate/STIM_000.jpg	99
999.522	1.55	1550.1	regulate	Run2	regulate/STIM_001.jpg	99
1004.024	3.029	3029.0	regulate	Run2	regulate/STIM_001.jpg	100
1010.739	2.401	2401.2	regulate	Run2	regulate/STIM_001.jpg	99
1015.784	1.684	1683.9	regulate	Run2	regulate/STIM_001.jpg	99
1019.691	3.186	3186.5	regulate	Run2	regulate/STIM_002.jpg	99
1025.458	2.737	2737.4	regulate	Run2	regulate/STIM_002.jpg	99
1030.016	2.047	2046.8	regulate	Run2	regulate/STIM_002.jpg	100
1035.731	1.625	1624.7	regulate	Run2	regulate/STIM_002.jpg	100
1040.414	2.95	2949.9	regulate	Run2	regulate/STIM_003.jpg	99
1047.071	3.041	3040.8	regulate	Run2	regulate/STIM_003.jpg	100
1051.989	2.086	2085.8	regulate	Run2	regulate/STIM_003.jpg	100
1057.677	1.932	1932.5	regulate	Run2	regulate/STIM_003.jpg	100
1061.599	1.965	1964.8	regulate	Run2	regulate/STIM_004.jpg	99
1065.402	2.877	2876.7	regulate	Run2	regulate/STIM_004.jpg	99
1071.391	2.853	2853.1	regulate	Run2	regulate/STIM_004.jpg	99
1076.819	1.205	1205.2	regulate	Run2	regulate/STIM_004.jpg	100
1080.109	2.077	2077.0	regulate	Run2	regulate/STIM_005.jpg	100
1085.522	2.215	2215.1	regulate	Run2	regulate/STIM_005.jpg	99
1090.067	1.875	1875.0	regulate	Run2	regulate/STIM_005.jpg	99
1093.968	2.426	2425.8	regulate	Run2	regulate/STIM_005.jpg	99
1100.151	2.98	2980.2	regulate	Run2	regulate/STIM_006.jpg	99
1106.325	2.309	2309.2	regulate	Run2	regulate/STIM_006.jpg	100
1112.279	1.504	1503.8	regulate	Run2	regulate/STIM_006.jpg	100
1116.528	1.489	1488.9	regulate	Run2	regulate/STIM_006.jpg	100
1120.368	2.904	2904.3	regulate	Run2	regulate/STIM_007.jpg	99
1125.171	1.927	1926.9	regulate	Run2	regulate/STIM_007.jpg	99
1129.581	2.741	2740.9	regulate	Run2	regulate/STIM_007.jpg	99
1134.279	1.786	1786.4	regulate	Run2	regulate/STIM_007.jpg	100
1138.026	3.197	3197.3	regulate	Run2	regulate/STIM_008.jpg	100
1143.044	2.103	2102.7	regulate	Run2	regulate/STIM_008.jpg	99
1147.911	2.19	2189.6	regulate	Run2	regulate/STIM_008.jpg	99
1152.318	2.337	2337.3	regulate	Run2	regulate/STIM_008.jpg	99
1157.024	2.476	2476.4	regulate	Run2	regulate/STIM_009.jpg	100
1161.516	2.485	2485.3	regulate	Run2	regulate/STIM_009.jpg	100
1166.231	1.835	1834.7	regulate	Run2	regulate/STIM_009.jpg	99
1171.288	2.191	2190.8	regulate	Run2	regulate/STIM_009.jpg	100
1176.191	1.411	1410.6	regulate	Run2	regulate/STIM_010.jpg	99
1179.788	2.505	2504.7	regulate	Run2	regulate/STIM_010.jpg	99
1185.844	2.421	2421.3	regulate	Run2	regulate/STIM_010.jpg	100
1190.755	2.41	2409.8	regulate	Run2	regulate/STIM_010.jpg	100
1196.85	1.621	1620.7	regulate	Run2	regulate/STIM_011.jpg	99
1201.673	2.65	2649.6	regulate	Run2	regulate/STIM_011.jpg	100
1206.481	1.468	1467.9	regulate	Run2	regulate/STIM_011.jpg	100
1210.208	1.432	1432.4	regulate	Run2	regulate/STIM_011.jpg	100
1213.698	2.213	2213.2	regulate	Run2	regulate/STIM_012.jpg	100
1218.024	1.718	1717.5	regulate	Run2	regulate/STIM_012.jpg	99
1222.818	2.18	2179.7	regulate	Run2	regulate/STIM_012.jpg	99
1227.834	1.166	1165.5	regulate	Run2	regulate/STIM_012.jpg	99
1231.769	2.611	2610.8	regulate	Run2	regulate/STIM_013.jpg	99
1237.331	1.47	1469.8	regulate	Run2	regulate/STIM_013.jpg	100
1241.111	1.514	1513.7	regulate	Run2	regulate/STIM_013.jpg	99
1245.224	2.584	2584.5	regulate	Run2	regulate/STIM_013.jpg	100
1251.469	1.61	1610.4	regulate	Run2	regulate/STIM_014.jpg	99
1255.801	1.761	1761.4	regulate	Run2	regulate/STIM_014.jpg	100
1260.846	2.19	2190.0	regulate	Run2	regulate/STIM_014.jpg	100
1266.231	2.366	2366.0	regulate	Run2	regulate/STIM_014.jpg	99
1271.514	3.182	3182.2	regulate	Run2	regulate/STIM_015.jpg	99
1276.925	1.727	1727.4	regulate	Run2	regulate/STIM_015.jpg	100
1281.582	2.624	2624.3	regulate	Run2	regulate/STIM_015.jpg	100
1286.952	2.594	2594.3	regulate	Run2	regulate/STIM_015.jpg	99
1292.492	1.876	1876.2	regulate	Run2	regulate/STIM_016.jpg	100
1297.94	2.862	2862.3	regulate	Run2	regulate/STIM_016.jpg	99
1302.911	1.741	1741.1	regulate	Run2	regulate/STIM_016.jpg	99
1308.214	1.536	1536.1	regulate	Run2	regulate/STIM_016.jpg	100
1312.042	1.648	1647.6	regulate	Run2	regulate/STIM_017.jpg	99
1317.419	2.054	2054.4	regulate	Run2	regulate/STIM_017.jpg	99
1322.893	2.534	2534.0	regulate	Run2	regulate/STIM_017.jpg	99
1328.058	1.248	1248.2	regulate	Run2	regulate/STIM_017.jpg	100
1331.951	2.078	2077.9	regulate	Run2	regulate/STIM_018.jpg	99
1337.524	1.413	1412.6	regulate	Run2	regulate/STIM_018.jpg	99
1342.382	2.025	2024.7	regulate	Run2	regulate/STIM_018.jpg	99
1347.951	2.612	2611.9	regulate	Run2	regulate/STIM_018.jpg	100
1353.645	2.088	2088.1	regulate	Run2	regulate/STIM_019.jpg	100
1358.961	2.351	2350.8	regulate	Run2	regulate/STIM_019.jpg	99
1364.621	2.112	2111.6	regulate	Run2	regulate/STIM_019.jpg	100
1369.039	2.223	2223.4	regulate	Run2	regulate/STIM_019.jpg	99
1373.347	1.431	1431.4	regulate	Run2	regulate/STIM_020.jpg	99
1378.492	2.69	2690.1	regulate	Run2	regulate/STIM_020.jpg	99
1383.934	2.275	2275.2	regulate	Run2	regulate/STIM_020.jpg	99
1388.257	1.447	1447.0	regulate	Run2	regulate/STIM_020.jpg	100
1393.104	2.844	2844.4	regulate	Run2	regulate/STIM_021.jpg	99
1398.089	1.48	1480.4	regulate	Run2	regulate/STIM_021.jpg	99
1402.486	1.322	1321.6	regulate	Run2	regulate/STIM_021.jpg	99
1406.542	2.563	2562.6	regulate	Run2	regulate/STIM_021.jpg	100
1411.757	1.824	1823.7	regulate	Run2	regulate/STIM_022.jpg	100
1417.183	2.577	2576.9	regulate	Run2	regulate/STIM_022.jpg	99
1423.044	2.498	2498.2	regulate	Run2	regulate/STIM_022.jpg	99
1427.782	2.022	2022.2	regulate	Run2	regulate/STIM_022.jpg	99
1432.044	2.426	2426.3	regulate	Run2	regulate/STIM_023.jpg	100
1437.025	2.163	2163.0	regulate	Run2	regulate/STIM_023.jpg	100
1441.685	2.313	2312.7	regulate	Run2	regulate/STIM_023.jpg	100
1446.238	1.92	1920.0	regulate	Run2	regulate/STIM_023.jpg	100
1451.005	3.176	3175.7	regulate	Run2	regulate/STIM_024.jpg	99
1457.386	1.912	1911.5	regulate	Run2	regulate/STIM_024.jpg	100
1461.582	1.945	1944.9	regulate	Run2	regulate/STIM_024.jpg	100
1465.383	1.342	1341.8	regulate	Run2	regulate/STIM_024.jpg	99
1468.681	1.782	1781.7	regulate	Run2	regulate/STIM_025.jpg	99
1473.854	1.784	1783.7	regulate	Run2	regulate/STIM_025.jpg	100
1478.799	1.541	1540.8	regulate	Run2	regulate/STIM_025.jpg	100
1482.877	1.582	1581.6	regulate	Run2	regulate/STIM_025.jpg	100
1486.45	2.097	2097.4	regulate	Run2	regulate/STIM_026.jpg	100
1490.506	2.525	2525.1	regulate	Run2	regulate/STIM_026.jpg	99
1496.262	2.362	2361.5	regulate	Run2	regulate/STIM_026.jpg	100
1500.915	2.369	2369.2	regulate	Run2	regulate/STIM_026.jpg	100
1505.651	2.311	2311.1	regulate	Run2	regulate/STIM_027.jpg	100
1510.734	1.961	1960.6	regulate	Run2	regulate/STIM_027.jpg	99
1515.633	1.753	1752.7	regulate	Run2	regulate/STIM_027.jpg	99
1520.156	1.787	1787.1	regulate	Run2	regulate/STIM_027.jpg	99
1525.759	1.626	1625.8	regulate	Run2	regulate/STIM_028.jpg	99
1529.416	1.991	1991.2	regulate	Run2	regulate/STIM_028.jpg	100
1533.99	2.22	2220.5	regulate	Run2	regulate/STIM_028.jpg	100
1539.766	1.232	1232.4	regulate	Run2	regulate/STIM_028.jpg	100
1544.012	1.788	1788.2	regulate	Run2	regulate/STIM_029.jpg	100
1549.063	2.083	2082.7	regulate	Run2	regulate/STIM_029.jpg	99
1554.054	1.546	1546.4	regulate	Run2	regulate/STIM_029.jpg	100
1559.232	1.223	1222.8	regulate	Run2	regulate/STIM_029.jpg	100
1562.446	1.337	1336.7	observe	Run2	observe/STIM_000.jpg	100
1566.573	1.106	1106.1	observe	Run2	observe/STIM_000.jpg	99
1570.878	1.724	1723.7	observe	Run2	observe/STIM_000.jpg	100
1575.579	0.938	938.0	observe	Run2	observe/STIM_000.jpg	99
1579.488	1.715	1714.7	observe	Run2	observe/STIM_001.jpg	99
1583.31	1.048	1048.4	observe	Run2	observe/STIM_001.jpg	100
1587.319	1.216	1215.6	observe	Run2	observe/STIM_001.jpg	100
1592.361	1.291	1291.1	observe	Run2	observe/STIM_001.jpg	100
1596.26	1.005	1005.2	observe	Run2	observe/STIM_002.jpg	99
1599.629	1.538	1537.5	observe	Run2	observe/STIM_002.jpg	100
1604.429	1.633	1633.3	observe	Run2	observe/STIM_002.jpg	100
1608.113	0.909	909.1	observe	Run2	observe/STIM_002.jpg	99
1611.433	1.616	1616.0	observe	Run2	observe/STIM_003.jpg	99
1614.913	1.058	1058.4	observe	Run2	observe/STIM_003.jpg	100
1619.564	0.935	934.8	observe	Run2	observe/STIM_003.jpg	100
1622.76	1.43	1430.2	observe	Run2	observe/STIM_003.jpg	99
1627.375	1.659	1658.9	observe	Run2	observe/STIM_004.jpg	100
1631.149	1.383	1382.6	observe	Run2	observe/STIM_004.jpg	99
1635.091	0.932	931.7	observe	Run2	observe/STIM_004.jpg	100
1638.667	0.936	935.6	observe	Run2	observe/STIM_004.jpg	99
1642.545	1.269	1269.3	observe	Run2	observe/STIM_005.jpg	99
1646.038	1.61	1609.8	observe	Run2	observe/STIM_005.jpg	99
1651.439	1.592	1591.6	observe	Run2	observe/STIM_005.jpg	100
1655.69	1.655	1655.3	observe	Run2	observe/STIM_005.jpg	100
1659.601	1.653	1652.6	observe	Run2	observe/STIM_006.jpg	100
1663.33	1.738	1737.7	observe	Run2	observe/STIM_006.jpg	99
1667.468	0.955	955.4	observe	Run2	observe/STIM_006.jpg	100
1672.063	1.085	1084.8	observe	Run2	observe/STIM_006.jpg	100
1676.423	1.515	1514.8	observe	Run2	observe/STIM_007.jpg	100
1681.734	1.052	1052.2	observe	Run2	observe/STIM_007.jpg	100
1684.83	1.128	1128.0	observe	Run2	observe/STIM_007.jpg	99
1688.329	1.616	1616.1	observe	Run2	observe/STIM_007.jpg	99
1692.787	1.317	1317.3	observe	Run2	observe/STIM_008.jpg	99
1697.583	1.149	1149.1	observe	Run2	observe/STIM_008.jpg	100
1701.609	0.943	943.4	observe	Run2	observe/STIM_008.jpg	100
1705.962	1.458	1457.8	observe	Run2	observe/STIM_008.jpg	100
1710.075	1.078	1078.2	observe	Run2	observe/STIM_009.jpg	99
1714.664	0.989	989.1	observe	Run2	observe/STIM_009.jpg	99
1718.446	1.505	1504.8	observe	Run2	observe/STIM_009.jpg	100
1721.925	1.754	1753.8	observe	Run2	observe/STIM_009.jpg	100
1727.252	1.554	1554.1	observe	Run2	observe/STIM_010.jpg	99
1730.819	1.34	1340.3	observe	Run2	observe/STIM_010.jpg	99
1735.388	1.736	1736.2	observe	Run2	observe/STIM_010.jpg	99
1739.769	1.461	1461.2	observe	Run2	observe/STIM_010.jpg	100
1744.468	0.913	912.6	observe	Run2	observe/STIM_011.jpg	99
1747.376	1.708	1707.5	observe	Run2	observe/STIM_011.jpg	100
1751.976	0.947	946.9	observe	Run2	observe/STIM_011.jpg	99
1754.955	1.57	1569.7	observe	Run2	observe/STIM_011.jpg	99
1759.667	1.305	1304.9	observe	Run2	observe/STIM_012.jpg	99
1763.058	1.224	1224.2	observe	Run2	observe/STIM_012.jpg	99
1766.954	0.985	985.3	observe	Run2	observe/STIM_012.jpg	99
1770.691	1.384	1384.5	observe	Run2	observe/STIM_012.jpg	100
1774.778	0.968	968.0	observe	Run2	observe/STIM_013.jpg	99
1779.117	1.309	1309.4	observe	Run2	observe/STIM_013.jpg	100
1784.225	1.576	1576.1	observe	Run2	observe/STIM_013.jpg	99
1788.541	0.98	979.8	observe	Run2	observe/STIM_013.jpg	100
1791.621	1.508	1508.5	observe	Run2	observe/STIM_014.jpg	100
1796.309	1.027	1026.7	observe	Run2	observe/STIM_014.jpg	99
1801.121	1.624	1623.8	observe	Run2	observe/STIM_014.jpg	99
1804.875	0.937	936.8	observe	Run2	observe/STIM_014.jpg	100
1809.075	1.379	1379.4	observe	Run2	observe/STIM_015.jpg	99
1812.894	1.654	1653.8	observe	Run2	observe/STIM_015.jpg	100
1817.453	1.125	1125.0	observe	Run2	observe/STIM_015.jpg	100
1821.522	1.24	1240.2	observe	Run2	observe/STIM_015.jpg	100
1826.013	1.236	1236.4	observe	Run2	observe/STIM_016.jpg	100
1830.66	1.208	1207.8	observe	Run2	observe/STIM_016.jpg	100
1834.512	1.207	1206.6	observe	Run2	observe/STIM_016.jpg	99
1837.756	1.125	1125.1	observe	Run2	observe/STIM_016.jpg	100
1842.072	0.941	941.0	observe	Run2	observe/STIM_017.jpg	100
1845.218	1.287	1287.2	observe	Run2	observe/STIM_017.jpg	99
1849.868	1.178	1178.3	observe	Run2	observe/STIM_017.jpg	99
1853.827	1.415	1414.6	observe	Run2	observe/STIM_017.jpg	99
1858.38	0.897	896.8	observe	Run2	observe/STIM_018.jpg	99
1861.677	1.713	1713.2	observe	Run2	observe/STIM_018.jpg	99
1865.994	1.262	1262.0	observe	Run2	observe/STIM_018.jpg	100
1869.498	1.384	1383.7	observe	Run2	observe/STIM_018.jpg	99
1873.073	1.24	1240.0	observe	Run2	observe/STIM_019.jpg	99
1876.84	0.928	927.7	observe	Run2	observe/STIM_019.jpg	100
1880.626	1.432	1431.9	observe	Run2	observe/STIM_019.jpg	100
1885.037	1.364	1363.6	observe	Run2	observe/STIM_019.jpg	100
1888.957	2.247	2247.1	regulate	Run3	regulate/STIM_000.jpg	99
1894.483	2.16	2159.7	regulate	Run3	regulate/STIM_000.jpg	99
1899.486	2.618	2617.5	regulate	Run3	regulate/STIM_000.jpg	100
1905.121	2.441	2441.0	regulate	Run3	regulate/STIM_000.jpg	99
1909.982	2.528	2527.5	regulate	Run3	regulate/STIM_001.jpg	100
1915.251	1.598	1598.2	regulate	Run3	regulate/STIM_001.jpg	100
1920.299	2.116	2116.5	regulate	Run3	regulate/STIM_001.jpg	99
1924.434	1.657	1656.8	regulate	Run3	regulate/STIM_001.jpg	100
1928.426	2.514	2514.2	regulate	Run3	regulate/STIM_002.jpg	100
1933.913	2.072	2072.5	regulate	Run3	regulate/STIM_002.jpg	100
1938.268	2.351	2351.0	regulate	Run3	regulate/STIM_002.jpg	99
1943.404	2.192	2191.7	regulate	Run3	regulate/STIM_002.jpg	100
1948.421	1.941	1940.7	regulate	Run3	regulate/STIM_003.jpg	99
1953.992	1.735	1735.1	regulate	Run3	regulate/STIM_003.jpg	100
1959.442	2.346	2345.8	regulate	Run3	regulate/STIM_003.jpg	99
1963.861	1.31	1309.7	regulate	Run3	regulate/STIM_003.jpg	99
1967.667	2.287	2287.2	regulate	Run3	regulate/STIM_004.jpg	100
1971.799	2.693	2692.7	regulate	Run3	regulate/STIM_004.jpg	100
1976.306	1.288	1287.8	regulate	Run3	regulate/STIM_004.jpg	100
1981.174	2.298	2298.0	regulate	Run3	regulate/STIM_004.jpg	99
1987.085	1.837	1837.1	regulate	Run3	regulate/STIM_005.jpg	100
1992.572	2.36	2360.5	regulate	Run3	regulate/STIM_005.jpg	99
1997.336	2.144	2144.5	regulate	Run3	regulate/STIM_005.jpg	100
2002.678	1.597	1596.9	regulate	Run3	regulate/STIM_005.jpg	99
2007.623	1.795	1795.3	regulate	Run3	regulate/STIM_006.jpg	99
2011.275	2.415	2414.8	regulate	Run3	regulate/STIM_006.jpg	99
2015.983	2.539	2538.9	regulate	Run3	regulate/STIM_006.jpg	100
2022.193	2.338	2338.2	regulate	Run3	regulate/STIM_006.jpg	99
2026.791	2.155	2154.6	regulate	Run3	regulate/STIM_007.jpg	100
2032.662	1.935	1935.2	regulate	Run3	regulate/STIM_007.jpg	99
2038.384	2.086	2086.1	regulate	Run3	regulate/STIM_007.jpg	100
2043.49	1.399	1399.4	regulate	Run3	regulate/STIM_007.jpg	100
2047.663	1.192	1191.9	regulate	Run3	regulate/STIM_008.jpg	100
2052.625	2.148	2148.2	regulate	Run3	regulate/STIM_008.jpg	100
2057.403	2.13	2129.9	regulate	Run3	regulate/STIM_008.jpg	99
2063.102	1.212	1212.2	regulate	Run3	regulate/STIM_008.jpg	99
2066.77	1.367	1367.1	regulate	Run3	regulate/STIM_009.jpg	100
2071.479	1.321	1320.8	regulate	Run3	regulate/STIM_009.jpg	100
2074.794	2.303	2302.7	regulate	Run3	regulate/STIM_009.jpg	100
2080.827	2.427	2426.9	regulate	Run3	regulate/STIM_009.jpg	100
2085.422	1.915	1914.8	regulate	Run3	regulate/STIM_010.jpg	99
2090.1	2.594	2594.1	regulate	Run3	regulate/STIM_010.jpg	100
2096.23	1.535	1535.0	regulate	Run3	regulate/STIM_010.jpg	100
2100.267	1.331	1330.8	regulate	Run3	regulate/STIM_010.jpg	100
2104.443	1.789	1789.2	regulate	Run3	regulate/STIM_011.jpg	99
2109.803	2.155	2154.7	regulate	Run3	regulate/STIM_011.jpg	100
2114.802	1.649	1648.7	regulate	Run3	regulate/STIM_011.jpg	99
2118.494	1.612	1612.3	regulate	Run3	regulate/STIM_011.jpg	100
2123.901	2.595	2594.7	regulate	Run3	regulate/STIM_012.jpg	99
2129.874	2.033	2033.1	regulate	Run3	regulate/STIM_012.jpg	100
2133.816	2.434	2433.9	regulate	Run3	regulate/STIM_012.jpg	99
2138.465	1.955	1954.7	regulate	Run3	regulate/STIM_012.jpg	99
2142.699	2.45	2449.8	regulate	Run3	regulate/STIM_013.jpg	100
2147.182	1.215	1214.6	regulate	Run3	regulate/STIM_013.jpg	99
2150.49	1.967	1967.3	regulate	Run3	regulate/STIM_013.jpg	100
2156.253	1.518	1517.5	regulate	Run3	regulate/STIM_013.jpg	99
2159.885	1.459	1458.9	regulate	Run3	regulate/STIM_014.jpg	99
2163.74	2.249	2249.1	regulate	Run3	regulate/STIM_014.jpg	99
2168.373	1.456	1455.9	regulate	Run3	regulate/STIM_014.jpg	100
2173.22	2.163	2162.8	regulate	Run3	regulate/STIM_014.jpg	100
2177.236	1.871	1871.2	regulate	Run3	regulate/STIM_015.jpg	99
2182.754	1.691	1690.6	regulate	Run3	regulate/STIM_015.jpg	100
2186.327	1.547	1547.2	regulate	Run3	regulate/STIM_015.jpg	100
2190.204	1.69	1689.5	regulate	Run3	regulate/STIM_015.jpg	100
2194.007	1.684	1684.4	regulate	Run3	regulate/STIM_016.jpg	100
2198.235	2.428	2428.4	regulate	Run3	regulate/STIM_016.jpg	100
2203.721	1.578	1578.0	regulate	Run3	regulate/STIM_016.jpg	99
2207.177	1.707	1706.7	regulate	Run3	regulate/STIM_016.jpg	99
2211.709	1.556	1556.5	regulate	Run3	regulate/STIM_017.jpg	99
2216.117	1.772	1771.8	regulate	Run3	regulate/STIM_017.jpg	100
2220.607	1.581	1581.4	regulate	Run3	regulate/STIM_017.jpg	99
2224.558	2.328	2328.3	regulate	Run3	regulate/STIM_017.jpg	99
2230.266	1.717	1716.6	regulate	Run3	regulate/STIM_018.jpg	100
2234.693	1.464	1464.2	regulate	Run3	regulate/STIM_018.jpg	99
2239.754	1.591	1591.4	regulate	Run3	regulate/STIM_018.jpg	99
2244.85	1.969	1969.3	regulate	Run3	regulate/STIM_018.jpg	100
2250.072	2.364	2363.5	regulate	Run3	regulate/STIM_019.jpg	100
2255.406	2.448	2447.5	regulate	Run3	regulate/STIM_019.jpg	99
2260.858	2.512	2512.1	regulate	Run3	regulate/STIM_019.jpg	99
2265.437	1.387	1387.1	regulate	Run3	regulate/STIM_019.jpg	100
2270.385	1.998	1998.5	regulate	Run3	regulate/STIM_020.jpg	99
2276.094	2.293	2292.8	regulate	Run3	regulate/STIM_020.jpg	100
2280.622	1.51	1509.9	regulate	Run3	regulate/STIM_020.jpg	100
2284.424	1.408	1407.5	regulate	Run3	regulate/STIM_020.jpg	100
2289.118	1.456	1455.8	regulate	Run3	regulate/STIM_021.jpg	99
2293.662	1.22	1219.8	regulate	Run3	regulate/STIM_021.jpg	99
2297.135	2.2	2200.0	regulate	Run3	regulate/STIM_021.jpg	100
2302.514	1.9	1900.0	regulate	Run3	regulate/STIM_021.jpg	99
2306.853	1.823	1823.0	regulate	Run3	regulate/STIM_022.jpg	99
2312.121	1.607	1606.7	regulate	Run3	regulate/STIM_022.jpg	100
2316.446	1.177	1177.1	regulate	Run3	regulate/STIM_022.jpg	99
2320.53	1.201	1201.3	regulate	Run3	regulate/STIM_022.jpg	99
2324.908	2.492	2492.2	regulate	Run3	regulate/STIM_023.jpg	99
2330.193	2.046	2046.1	regulate	Run3	regulate/STIM_023.jpg	100
2334.557	1.503	1503.4	regulate	Run3	regulate/STIM_023.jpg	99
2339.453	1.825	1825.0	regulate	Run3	regulate/STIM_023.jpg	99
2344.195	1.409	1409.2	regulate	Run3	regulate/STIM_024.jpg	100
2348.124	1.402	1402.4	regulate	Run3	regulate/STIM_024.jpg	100
2352.796	1.697	1697.0	regulate	Run3	regulate/STIM_024.jpg	100
2357.646	2.258	2258.0	regulate	Run3	regulate/STIM_024.jpg	100
2363.448	1.454	1453.6	regulate	Run3	regulate/STIM_025.jpg	99
2367.297	2.289	2288.9	regulate	Run3	regulate/STIM_025.jpg	99
2372.146	2.64	2640.0	regulate	Run3	regulate/STIM_025.jpg	99
2378.324	1.844	1844.4	regulate	Run3	regulate/STIM_025.jpg	99
2382.491	1.322	1322.0	regulate	Run3	regulate/STIM_026.jpg	99
2386.866	1.328	1328.5	regulate	Run3	regulate/STIM_026.jpg	99
2391.305	2.302	2301.9	regulate	Run3	regulate/STIM_026.jpg	99
2396.714	2.403	2403.1	regulate	Run3	regulate/STIM_026.jpg	100
2401.703	1.505	1505.0	regulate	Run3	regulate/STIM_027.jpg	99
2405.159	1.747	1747.0	regulate	Run3	regulate/STIM_027.jpg	99
2409.323	1.717	1717.4	regulate	Run3	regulate/STIM_027.jpg	100
2413.541	1.474	1474.5	regulate	Run3	regulate/STIM_027.jpg	99
2417.176	2.117	2117.0	regulate	Run3	regulate/STIM_028.jpg	100
2422.745	2.68	2680.0	regulate	Run3	regulate/STIM_028.jpg	99
2428.982	2.464	2464.1	regulate	Run3	regulate/STIM_028.jpg	99
2433.401	1.779	1779.2	regulate	Run3	regulate/STIM_028.jpg	99
2437.217	1.884	1884.4	regulate	Run3	regulate/STIM_029.jpg	99
2441.93	2.38	2380.5	regulate	Run3	regulate/STIM_029.jpg	99
2447.509	1.828	1827.8	regulate	Run3	regulate/STIM_029.jpg	99
2451.896	2.548	2548.0	regulate	Run3	regulate/STIM_029.jpg	99
2456.783	1.696	1696.1	observe	Run3	observe/STIM_000.jpg	99
2461.185	1.331	1331.2	observe	Run3	observe/STIM_000.jpg	99
2465.88	1.414	1414.4	observe	Run3	observe/STIM_000.jpg	100
2470.05	1.566	1566.0	observe	Run3	observe/STIM_000.jpg	99
2474.256	1.096	1095.6	observe	Run3	observe/STIM_001.jpg	100
2477.335	1.043	1042.6	observe	Run3	observe/STIM_001.jpg	100
2481.305	1.375	1375.2	observe	Run3	observe/STIM_001.jpg	100
2486.458	1.476	1475.7	observe	Run3	observe/STIM_001.jpg	100
2490.04	1.257	1256.7	observe	Run3	observe/STIM_002.jpg	100
2493.829	0.951	950.9	observe	Run3	observe/STIM_002.jpg	100
2497.141	1.553	1552.7	observe	Run3	observe/STIM_002.jpg	100
2502.081	1.135	1134.7	observe	Run3	observe/STIM_002.jpg	100
2505.155	1.552	1552.5	observe	Run3	observe/STIM_003.jpg	99
2509.067	1.238	1238.0	observe	Run3	observe/STIM_003.jpg	100
2513.88	1.408	1408.5	observe	Run3	observe/STIM_003.jpg	99
2517.789	1.048	1048.4	observe	Run3	observe/STIM_003.jpg	99
2522.451	1.182	1182.0	observe	Run3	observe/STIM_004.jpg	99
2526.138	1.394	1393.6	observe	Run3	observe/STIM_004.jpg	99
2531.107	0.903	902.8	observe	Run3	observe/STIM_004.jpg	100
2534.192	1.062	1061.5	observe	Run3	observe/STIM_004.jpg	100
2539.012	1.651	1651.3	observe	Run3	observe/STIM_005.jpg	100
2544.311	1.216	1216.4	observe	Run3	observe/STIM_005.jpg	100
2548.001	0.936	935.8	observe	Run3	observe/STIM_005.jpg	100
2552.242	1.372	1372.3	observe	Run3	observe/STIM_005.jpg	99
2556.19	1.35	1349.7	observe	Run3	observe/STIM_006.jpg	100
2559.699	1.656	1655.5	observe	Run3	observe/STIM_006.jpg	99
2564.556	1.754	1754.3	observe	Run3	observe/STIM_006.jpg	99
2569.949	1.543	1543.0	observe	Run3	observe/STIM_006.jpg	100
2574.553	0.995	995.0	observe	Run3	observe/STIM_007.jpg	99
2578.477	1.142	1142.5	observe	Run3	observe/STIM_007.jpg	99
2582.483	0.96	959.8	observe	Run3	observe/STIM_007.jpg	99
2587.076	1.244	1243.8	observe	Run3	observe/STIM_007.jpg	100
2591.827	1.654	1653.6	observe	Run3	observe/STIM_008.jpg	100
2596.129	1.516	1515.6	observe	Run3	observe/STIM_008.jpg	100
2601.258	1.714	1714.1	observe	Run3	observe/STIM_008.jpg	100
2605.108	1.228	1227.9	observe	Run3	observe/STIM_008.jpg	99
2608.352	1.523	1523.1	observe	Run3	observe/STIM_009.jpg	100
2611.837	1.666	1665.5	observe	Run3	observe/STIM_009.jpg	100
2616.243	1.245	1245.1	observe	Run3	observe/STIM_009.jpg	100
2619.411	1.506	1506.5	observe	Run3	observe/STIM_009.jpg	100
2623.904	1.397	1397.2	observe	Run3	observe/STIM_010.jpg	99
2629.095	1.323	1322.8	observe	Run3	observe/STIM_010.jpg	99
2633.346	1.046	1046.3	observe	Run3	observe/STIM_010.jpg	99
2636.783	1.479	1478.8	observe	Run3	observe/STIM_010.jpg	100
2641.934	0.984	984.3	observe	Run3	observe/STIM_011.jpg	99
2646.677	1.15	1149.9	observe	Run3	observe/STIM_011.jpg	100
2651.701	1.368	1368.5	observe	Run3	observe/STIM_011.jpg	99
2656.248	0.96	959.5	observe	Run3	observe/STIM_011.jpg	99
2659.366	1.572	1572.2	observe	Run3	observe/STIM_012.jpg	100
2662.971	1.15	1150.2	observe	Run3	observe/STIM_012.jpg	99
2666.413	1.367	1367.1	observe	Run3	observe/STIM_012.jpg	100
2669.892	1.596	1596.2	observe	Run3	observe/STIM_012.jpg	100
2674.584	1.006	1006.4	observe	Run3	observe/STIM_013.jpg	100
2677.513	1.278	1278.5	observe	Run3	observe/STIM_013.jpg	100
2682.389	0.963	962.8	observe	Run3	observe/STIM_013.jpg	100
2685.373	0.99	989.5	observe	Run3	observe/STIM_013.jpg	100
2688.517	1.082	1082.0	observe	Run3	observe/STIM_014.jpg	99
2691.828	1.601	1601.1	observe	Run3	observe/STIM_014.jpg	100
2696.658	1.382	1382.0	observe	Run3	observe/STIM_014.jpg	100
2701.569	1.187	1186.8	observe	Run3	observe/STIM_014.jpg	99
2705.244	1.508	1507.5	observe	Run3	observe/STIM_015.jpg	100
2710.402	0.949	948.6	observe	Run3	observe/STIM_015.jpg	100
2713.726	1.108	1108.2	observe	Run3	observe/STIM_015.jpg	99
2716.97	1.159	1159.4	observe	Run3	observe/STIM_015.jpg	99
2720.384	1.568	1568.0	observe	Run3	observe/STIM_016.jpg	99
2724.531	1.394	1394.4	observe	Run3	observe/STIM_016.jpg	100
2728.05	1.122	1121.9	observe	Run3	observe/STIM_016.jpg	100
2732.598	0.994	993.9	observe	Run3	observe/STIM_016.jpg	100
2737.263	1.072	1072.5	observe	Run3	observe/STIM_017.jpg	99
2742.033	1.522	1522.5	observe	Run3	observe/STIM_017.jpg	99
2747.054	1.436	1436.0	observe	Run3	observe/STIM_017.jpg	100
2750.961	1.055	1055.3	observe	Run3	observe/STIM_017.jpg	99
2754.008	1.277	1277.2	observe	Run3	observe/STIM_018.jpg	99
2757.981	0.881	881.4	observe	Run3	observe/STIM_018.jpg	100
2761.784	1.512	1511.8	observe	Run3	observe/STIM_018.jpg	100
2766.399	1.176	1176.5	observe	Run3	observe/STIM_018.jpg	99
2769.526	1.443	1443.3	observe	Run3	observe/STIM_019.jpg	100
2772.851	0.961	961.2	observe	Run3	observe/STIM_019.jpg	99
2776.795	1.03	1030.1	observe	Run3	observe/STIM_019.jpg	100
2780.39	1.042	1041.5	observe	Run3	observe/STIM_019.jpg	100
