onset	duration	response_time_ms	trial_type	learning_stage	stimulus	response_port
0.0	2.29	2289.9	regulate	Run1	regulate/STIM_000.jpg	99
4.768	2.539	2538.7	regulate	Run1	regulate/STIM_000.jpg	99
9.61	2.36	2360.5	regulate	Run1	regulate/STIM_000.jpg	100
14.429	1.445	1445.2	regulate	Run1	regulate/STIM_000.jpg	99
18.023	2.273	2273.1	regulate	Run1	regulate/STIM_001.jpg	100
23.363	2.389	2388.8	regulate	Run1	regulate/STIM_001.jpg	99
28.374	2.889	2889.2	regulate	Run1	regulate/STIM_001.jpg	99
34.114	2.246	2246.0	regulate	Run1	regulate/STIM_001.jpg	100
39.951	3.279	3279.1	regulate	Run1	regulate/STIM_002.jpg	100
46.068	1.672	1671.9	regulate	Run1	regulate/STIM_002.jpg	100
51.515	2.121	2120.9	regulate	Run1	regulate/STIM_002.jpg	100
56.792	2.807	2806.6	regulate	Run1	regulate/STIM_002.jpg	99
62.281	1.63	1630.1	regulate	Run1	regulate/STIM_003.jpg	100
66.184	1.803	1802.6	regulate	Run1	regulate/STIM_003.jpg	100
71.344	1.505	1505.2	regulate	Run1	regulate/STIM_003.jpg	99
75.282	2.761	2761.4	regulate	Run1	regulate/STIM_003.jpg	100
80.693	3.438	3437.5	regulate	Run1	regulate/STIM_004.jpg	100
87.414	1.614	1614.3	regulate	Run1	regulate/STIM_004.jpg	99
92.758	2.545	2545.3	regulate	Run1	regulate/STIM_004.jpg	99
98.183	2.547	2546.7	regulate	Run1	regulate/STIM_004.jpg	99
104.515	2.738	2738.4	regulate	Run1	regulate/STIM_005.jpg	100
110.152	1.952	1951.5	regulate	Run1	regulate/STIM_005.jpg	99
114.715	3.172	3172.5	regulate	Run1	regulate/STIM_005.jpg	100
121.409	3.11	3109.7	regulate	Run1	regulate/STIM_005.jpg	100
127.946	2.402	2402.0	regulate	Run1	regulate/STIM_006.jpg	99
132.758	2.954	2954.4	regulate	Run1	regulate/STIM_006.jpg	100
138.067	2.736	2736.2	regulate	Run1	regulate/STIM_006.jpg	99
143.342	1.698	1697.9	regulate	Run1	regulate/STIM_006.jpg	99
148.448	2.88	2879.9	regulate	Run1	regulate/STIM_007.jpg	99
153.906	1.955	1955.0	regulate	Run1	regulate/STIM_007.jpg	99
159.424	2.991	2990.7	regulate	Run1	regulate/STIM_007.jpg	99
164.783	2.985	2985.2	regulate	Run1	regulate/STIM_007.jpg	100
170.177	2.043	2042.9	regulate	Run1	regulate/STIM_008.jpg	100
175.3	1.852	1851.8	regulate	Run1	regulate/STIM_008.jpg	99
180.427	2.722	2722.2	regulate	Run1	regulate/STIM_008.jpg	99
185.848	1.894	1894.2	regulate	Run1	regulate/STIM_008.jpg	100
191.734	2.104	2104.4	regulate	Run1	regulate/STIM_009.jpg	99
197.122	2.55	2549.6	regulate	Run1	regulate/STIM_009.jpg	100
203.446	2.337	2337.2	regulate	Run1	regulate/STIM_009.jpg	100
209.599	3.122	3121.8	regulate	Run1	regulate/STIM_009.jpg	99
215.759	2.106	2105.5	regulate	Run1	regulate/STIM_010.jpg	100
220.465	2.63	2629.9	regulate	Run1	regulate/STIM_010.jpg	100
227.002	2.083	2083.0	regulate	Run1	regulate/STIM_010.jpg	100
232.58	1.752	1752.1	regulate	Run1	regulate/STIM_010.jpg	100
236.624	2.486	2485.6	regulate	Run1	regulate/STIM_011.jpg	100
242.296	2.024	2023.7	regulate	Run1	regulate/STIM_011.jpg	99
247.579	2.876	2875.8	regulate	Run1	regulate/STIM_011.jpg	100
254.13	2.049	2048.9	regulate	Run1	regulate/STIM_011.jpg	99
258.727	3.048	3047.7	regulate	Run1	regulate/STIM_012.jpg	100
264.024	3.054	3053.6	regulate	Run1	regulate/STIM_012.jpg	100
270.526	2.613	2613.4	regulate	Run1	regulate/STIM_012.jpg	99
276.156	2.404	2404.5	regulate	Run1	regulate/STIM_012.jpg	100
280.918	1.885	1885.1	regulate	Run1	regulate/STIM_013.jpg	100
284.914	1.591	1590.7	regulate	Run1	regulate/STIM_013.jpg	100
290.212	2.968	2967.9	regulate	Run1	regulate/STIM_013.jpg	99
296.487	1.458	1458.3	regulate	Run1	regulate/STIM_013.jpg	100
300.127	2.113	2113.0	regulate	Run1	regulate/STIM_014.jpg	99
305.186	3.46	3459.7	regulate	Run1	regulate/STIM_014.jpg	100
311.246	3.198	3198.4	regulate	Run1	regulate/STIM_014.jpg	100
318.189	3.014	3013.9	regulate	Run1	regulate/STIM_014.jpg	99
324.2	3.436	3435.7	regulate	Run1	regulate/STIM_015.jpg	99
330.094	2.718	2718.2	regulate	Run1	regulate/STIM_015.jpg	99
336.754	1.784	1784.1	regulate	Run1	regulate/STIM_015.jpg	99
341.814	1.89	1890.2	regulate	Run1	regulate/STIM_015.jpg	99
346.25	2.698	2698.5	regulate	Run1	regulate/STIM_016.jpg	99
351.752	2.252	2252.1	regulate	Run1	regulate/STIM_016.jpg	99
357.796	2.812	2812.0	regulate	Run1	regulate/STIM_016.jpg	100
363.626	1.591	1591.3	regulate	Run1	regulate/STIM_016.jpg	100
369.054	2.772	2772.4	regulate	Run1	regulate/STIM_017.jpg	100
375.465	3.205	3205.1	regulate	Run1	regulate/STIM_017.jpg	99
381.348	2.104	2103.6	regulate	Run1	regulate/STIM_017.jpg	100
386.364	1.47	1470.1	regulate	Run1	regulate/STIM_017.jpg	99
390.574	1.899	1898.6	regulate	Run1	regulate/STIM_018.jpg	99
395.687	1.567	1567.0	regulate	Run1	regulate/STIM_018.jpg	100
400.041	1.896	1895.9	regulate	Run1	regulate/STIM_018.jpg	100
405.351	2.89	2889.6	regulate	Run1	regulate/STIM_018.jpg	100
410.554	2.454	2453.6	regulate	Run1	regulate/STIM_019.jpg	100
415.242	2.428	2428.1	regulate	Run1	regulate/STIM_019.jpg	100
420.024	3.095	3095.0	regulate	Run1	regulate/STIM_019.jpg	99
426.303	2.698	2697.6	regulate	Run1	regulate/STIM_019.jpg	100
431.604	3.594	3594.0	regulate	Run1	regulate/STIM_020.jpg	100
438.587	2.128	2128.2	regulate	Run1	regulate/STIM_020.jpg	99
444.554	1.962	1962.4	regulate	Run1	regulate/STIM_020.jpg	100
449.932	2.618	2618.3	regulate	Run1	regulate/STIM_020.jpg	100
454.751	2.819	2819.1	regulate	Run1	regulate/STIM_021.jpg	99
459.594	3.217	3217.3	regulate	Run1	regulate/STIM_021.jpg	99
466.121	2.732	2732.4	regulate	Run1	regulate/STIM_021.jpg	100
471.943	1.444	1443.7	regulate	Run1	regulate/STIM_021.jpg	99
475.442	2.931	2931.2	regulate	Run1	regulate/STIM_022.jpg	100
481.572	2.636	2636.3	regulate	Run1	regulate/STIM_022.jpg	100
486.936	2.808	2808.5	regulate	Run1	regulate/STIM_022.jpg	99
493.684	1.497	1496.8	regulate	Run1	regulate/STIM_022.jpg	99
498.636	2.882	2882.4	regulate	Run1	regulate/STIM_023.jpg	99
503.94	2.545	2545.3	regulate	Run1	regulate/STIM_023.jpg	100
510.01	2.382	2382.1	regulate	Run1	regulate/STIM_023.jpg	100
516.03	2.833	2832.9	regulate	Run1	regulate/STIM_023.jpg	99
521.094	3.673	3672.8	regulate	Run1	regulate/STIM_024.jpg	100
527.756	3.347	3346.6	regulate	Run1	regulate/STIM_024.jpg	99
533.714	2.195	2194.8	regulate	Run1	regulate/STIM_024.jpg	100
538.56	1.82	1819.6	regulate	Run1	regulate/STIM_024.jpg	100
543.053	2.624	2624.4	regulate	Run1	regulate/STIM_025.jpg	100
549.657	2.508	2508.0	regulate	Run1	regulate/STIM_025.jpg	100
556.117	2.504	2504.4	regulate	Run1	regulate/STIM_025.jpg	99
562.139	2.431	2430.7	regulate	Run1	regulate/STIM_025.jpg	99
567.503	2.749	2749.1	regulate	Run1	regulate/STIM_026.jpg	100
573.033	2.45	2449.8	regulate	Run1	regulate/STIM_026.jpg	100
578.134	1.531	1530.6	regulate	Run1	regulate/STIM_026.jpg	100
582.881	1.873	1873.4	regulate	Run1	regulate/STIM_026.jpg	99
588.737	2.375	2375.1	regulate	Run1	regulate/STIM_027.jpg	99
594.453	2.213	2213.4	regulate	Run1	regulate/STIM_027.jpg	99
600.178	2.772	2771.7	regulate	Run1	regulate/STIM_027.jpg	99
606.032	2.405	2404.7	regulate	Run1	regulate/STIM_027.jpg	99
612.093	1.888	1888.3	regulate	Run1	regulate/STIM_028.jpg	100
616.076	2.3	2300.0	regulate	Run1	regulate/STIM_028.jpg	99
621.771	1.873	1872.6	regulate	Run1	regulate/STIM_028.jpg	99
625.657	2.906	2906.5	regulate	Run1	regulate/STIM_028.jpg	100
632.078	2.581	2581.3	regulate	Run1	regulate/STIM_029.jpg	99
637.915	2.646	2645.8	regulate	Run1	regulate/STIM_029.jpg	100
643.142	2.36	2360.3	regulate	Run1	regulate/STIM_029.jpg	100
649.369	3.076	3076.3	regulate	Run1	regulate/STIM_029.jpg	100
654.884	1.497	1497.2	observe	Run1	observe/STIM_000.jpg	99
659.749	0.973	973.1	observe	Run1	observe/STIM_000.jpg	100
663.483	1.568	1568.2	observe	Run1	observe/STIM_000.jpg	100
667.707	1.662	1662.1	observe	Run1	observe/STIM_000.jpg	99
673.241	1.446	1445.6	observe	Run1	observe/STIM_001.jpg	100
678.561	1.137	1137.2	observe	Run1	observe/STIM_001.jpg	99
681.788	1.602	1601.7	observe	Run1	observe/STIM_001.jpg	99
685.9	1.498	1497.5	observe	Run1	observe/STIM_001.jpg	100
691.157	1.361	1361.3	observe	Run1	observe/STIM_002.jpg	99
695.203	0.99	989.9	observe	Run1	observe/STIM_002.jpg	99
699.129	1.616	1616.4	observe	Run1	observe/STIM_002.jpg	100
703.994	1.079	1079.1	observe	Run1	observe/STIM_002.jpg	100
708.416	1.446	1445.9	observe	Run1	observe/STIM_003.jpg	100
712.302	1.003	1002.8	observe	Run1	observe/STIM_003.jpg	99
716.233	1.058	1057.8	observe	Run1	observe/STIM_003.jpg	100
719.837	1.559	1558.8	observe	Run1	observe/STIM_003.jpg	100
724.103	0.861	861.2	observe	Run1	observe/STIM_004.jpg	99
728.506	1.047	1046.7	observe	Run1	observe/STIM_004.jpg	99
733.087	1.385	1385.4	observe	Run1	observe/STIM_004.jpg	99
737.584	1.633	1632.8	observe	Run1	observe/STIM_004.jpg	99
743.001	1.145	1144.9	observe	Run1	observe/STIM_005.jpg	99
747.497	1.512	1511.8	observe	Run1	observe/STIM_005.jpg	99
751.137	0.943	942.6	observe	Run1	observe/STIM_005.jpg	99
754.084	1.567	1566.8	observe	Run1	observe/STIM_005.jpg	99
758.277	1.493	1493.3	observe	Run1	observe/STIM_006.jpg	99
762.917	1.075	1075.4	observe	Run1	observe/STIM_006.jpg	100
767.509	1.411	1410.9	observe	Run1	observe/STIM_006.jpg	100
772.18	1.301	1301.2	observe	Run1	observe/STIM_006.jpg	100
776.705	1.173	1173.3	observe	Run1	observe/STIM_007.jpg	99
780.995	1.241	1240.9	observe	Run1	observe/STIM_007.jpg	100
784.417	0.854	853.9	observe	Run1	observe/STIM_007.jpg	99
787.449	1.306	1306.3	observe	Run1	observe/STIM_007.jpg	99
790.978	1.662	1662.5	observe	Run1	observe/STIM_008.jpg	100
795.634	0.988	988.5	observe	Run1	observe/STIM_008.jpg	100
799.711	1.231	1230.9	observe	Run1	observe/STIM_008.jpg	100
803.059	1.695	1694.8	observe	Run1	observe/STIM_008.jpg	99
807.135	1.362	1362.0	observe	Run1	observe/STIM_009.jpg	99
810.605	1.239	1239.1	observe	Run1	observe/STIM_009.jpg	99
815.51	1.074	1074.4	observe	Run1	observe/STIM_009.jpg	99
820.073	0.849	849.1	observe	Run1	observe/STIM_009.jpg	99
824.29	1.424	1424.3	observe	Run1	observe/STIM_010.jpg	99
828.897	1.51	1510.0	observe	Run1	observe/STIM_010.jpg	100
833.058	0.976	975.6	observe	Run1	observe/STIM_010.jpg	100
836.241	1.023	1023.1	observe	Run1	observe/STIM_010.jpg	100
840.171	1.403	1403.4	observe	Run1	observe/STIM_011.jpg	99
845.409	1.386	1386.0	observe	Run1	observe/STIM_011.jpg	100
850.218	1.506	1506.4	observe	Run1	observe/STIM_011.jpg	99
854.58	0.929	929.4	observe	Run1	observe/STIM_011.jpg	100
858.47	0.869	869.4	observe	Run1	observe/STIM_012.jpg	100
861.654	1.656	1656.5	observe	Run1	observe/STIM_012.jpg	99
865.985	0.885	885.4	observe	Run1	observe/STIM_012.jpg	100
868.944	1.114	1113.7	observe	Run1	observe/STIM_012.jpg	100
873.137	0.962	962.3	observe	Run1	observe/STIM_013.jpg	100
876.921	0.878	878.3	observe	Run1	observe/STIM_013.jpg	99
880.429	1.67	1670.3	observe	Run1	observe/STIM_013.jpg	100
885.263	1.435	1435.1	observe	Run1	observe/STIM_013.jpg	99
888.757	1.221	1221.1	observe	Run1	observe/STIM_014.jpg	100
892.425	1.326	1325.7	observe	Run1	observe/STIM_014.jpg	100
896.193	1.347	1346.6	observe	Run1	observe/STIM_014.jpg	99
899.603	1.46	1460.4	observe	Run1	observe/STIM_014.jpg	100
903.462	1.331	1331.2	observe	Run1	observe/STIM_015.jpg	99
906.977	1.522	1521.8	observe	Run1	observe/STIM_015.jpg	99
911.714	0.99	990.4	observe	Run1	observe/STIM_015.jpg	100
916.509	1.446	1446.0	observe	Run1	observe/STIM_015.jpg	100
920.277	1.329	1328.7	observe	Run1	observe/STIM_016.jpg	100
923.681	1.524	1523.5	observe	Run1	observe/STIM_016.jpg	100
927.814	1.343	1342.9	observe	Run1	observe/STIM_016.jpg	100
932.277	1.196	1196.3	observe	Run1	observe/STIM_016.jpg	99
936.923	1.063	1063.1	observe	Run1	observe/STIM_017.jpg	100
940.105	0.959	958.9	observe	Run1	observe/STIM_017.jpg	99
943.387	1.632	1632.4	observe	Run1	observe/STIM_017.jpg	99
947.771	0.945	944.6	observe	Run1	observe/STIM_017.jpg	99
952.262	1.001	1001.1	observe	Run1	observe/STIM_018.jpg	99
956.052	1.173	1173.2	observe	Run1	observe/STIM_018.jpg	99
960.823	1.654	1654.1	observe	Run1	observe/STIM_018.jpg	100
965.34	0.974	973.6	observe	Run1	observe/STIM_018.jpg	99
969.301	0.956	955.9	observe	Run1	observe/STIM_019.jpg	100
973.464	1.578	1578.1	observe	Run1	observe/STIM_019.jpg	100
978.027	1.22	1219.7	observe	Run1	observe/STIM_019.jpg	100
982.074	1.375	1374.8	observe	Run1	observe/STIM_019.jpg	99
985.893	1.464	1463.6	regulate	Run2	regulate/STIM_000.jpg	99
990.575	2.732	2731.9	regulate	Run2	regulate/STIM_000.jpg	100
996.644	2.581	2581.3	regulate	Run2	regulate/STIM_000.jpg	100
1002.085	1.477	1477.4	regulate	Run2	regulate/STIM_000.jpg	99
1007.248	2.705	2704.6	regulate	Run2	regulate/STIM_001.jpg	99
1013.438	1.702	1701.5	regulate	Run2	regulate/STIM_001.jpg	100
1019.055	2.042	2041.8	regulate	Run2	regulate/STIM_001.jpg	99
1023.225	1.391	1390.9	regulate	Run2	regulate/STIM_001.jpg	99
1028.109	2.42	2420.2	regulate	Run2	regulate/STIM_002.jpg	99
1032.908	2.384	2383.8	regulate	Run2	regulate/STIM_002.jpg	99
1038.974	1.378	1377.6	regulate	Run2	regulate/STIM_002.jpg	100
1043.315	1.749	1749.0	regulate	Run2	regulate/STIM_002.jpg	100
1047.255	2.926	2926.1	regulate	Run2	regulate/STIM_003.jpg	99
1052.59	1.917	1917.4	regulate	Run2	regulate/STIM_003.jpg	100
1058.026	2.652	2651.8	regulate	Run2	regulate/STIM_003.jpg	100
1062.771	2.433	2433.4	regulate	Run2	regulate/STIM_003.jpg	100
1068.685	2.329	2329.1	regulate	Run2	regulate/STIM_004.jpg	99
1073.631	2.728	2728.3	regulate	Run2	regulate/STIM_004.jpg	99
1079.535	2.411	2411.2	regulate	Run2	regulate/STIM_004.jpg	99
1084.868	1.197	1197.2	regulate	Run2	regulate/STIM_004.jpg	100
1089.899	2.244	2244.5	regulate	Run2	regulate/STIM_005.jpg	100
1095.548	2.339	2338.6	regulate	Run2	regulate/STIM_005.jpg	99
1101.688	1.313	1313.3	regulate	Run2	regulate/STIM_005.jpg	99
1106.471	2.408	2408.0	regulate	Run2	regulate/STIM_005.jpg	99
1111.235	2.844	2844.2	regulate	Run2	regulate/STIM_006.jpg	99
1117.397	2.007	2006.6	regulate	Run2	regulate/STIM_006.jpg	100
1122.558	1.79	1789.8	regulate	Run2	regulate/STIM_006.jpg	100
1126.971	1.477	1477.4	regulate	Run2	regulate/STIM_006.jpg	100
1131.26	1.627	1627.1	regulate	Run2	regulate/STIM_007.jpg	99
1135.276	1.985	1984.7	regulate	Run2	regulate/STIM_007.jpg	99
1140.335	2.366	2365.7	regulate	Run2	regulate/STIM_007.jpg	99
1146.512	1.915	1915.3	regulate	Run2	regulate/STIM_007.jpg	100
1151.331	2.295	2295.4	regulate	Run2	regulate/STIM_008.jpg	100
1157.594	1.969	1969.4	regulate	Run2	regulate/STIM_008.jpg	99
1161.888	2.17	2170.2	regulate	Run2	regulate/STIM_008.jpg	99
1167.352	1.816	1815.9	regulate	Run2	regulate/STIM_008.jpg	99
1171.382	2.289	2288.8	regulate	Run2	regulate/STIM_009.jpg	100
1177.227	1.51	1510.5	regulate	Run2	regulate/STIM_009.jpg	100
1181.094	2.124	2124.0	regulate	Run2	regulate/STIM_009.jpg	99
1186.877	1.624	1623.7	regulate	Run2	regulate/STIM_009.jpg	100
1191.542	1.448	1448.5	regulate	Run2	regulate/STIM_010.jpg	99
1195.934	2.648	2648.4	regulate	Run2	regulate/STIM_010.jpg	99
1202.532	1.372	1372.0	regulate	Run2	regulate/STIM_010.jpg	100
1207.283	1.216	1216.0	regulate	Run2	regulate/STIM_010.jpg	100
1210.941	2.237	2237.4	regulate	Run2	regulate/STIM_011.jpg	99
1216.921	2.791	2791.0	regulate	Run2	regulate/STIM_011.jpg	100
1222.426	1.909	1909.2	regulate	Run2	regulate/STIM_011.jpg	100
1228.185	2.012	2011.6	regulate	Run2	regulate/STIM_011.jpg	100
1234.072	3.015	3014.6	regulate	Run2	regulate/STIM_012.jpg	100
1239.137	1.819	1818.9	regulate	Run2	regulate/STIM_012.jpg	99
1243.584	1.268	1267.8	regulate	Run2	regulate/STIM_012.jpg	99
1247.613	1.257	1257.4	regulate	Run2	regulate/STIM_012.jpg	99
1251.608	3.005	3005.4	regulate	Run2	regulate/STIM_013.jpg	99
1257.665	2.559	2559.0	regulate	Run2	regulate/STIM_013.jpg	100
1263.732	2.106	2106.3	regulate	Run2	regulate/STIM_013.jpg	99
1268.126	2.55	2550.5	regulate	Run2	regulate/STIM_013.jpg	100
1273.618	2.41	2410.2	regulate	Run2	regulate/STIM_014.jpg	99
1278.215	1.51	1510.5	regulate	Run2	regulate/STIM_014.jpg	100
1281.85	1.325	1324.9	regulate	Run2	regulate/STIM_014.jpg	100
1285.649	2.243	2242.9	regulate	Run2	regulate/STIM_014.jpg	99
1290.449	1.856	1855.8	regulate	Run2	regulate/STIM_015.jpg	99
1296.273	2.641	2641.4	regulate	Run2	regulate/STIM_015.jpg	100
1302.574	1.797	1796.8	regulate	Run2	regulate/STIM_015.jpg	100
1307.237	1.869	1868.8	regulate	Run2	regulate/STIM_015.jpg	99
1311.335	2.668	2668.2	regulate	Run2	regulate/STIM_016.jpg	100
1317.132	1.553	1552.6	regulate	Run2	regulate/STIM_016.jpg	99
1321.67	2.466	2466.5	regulate	Run2	regulate/STIM_016.jpg	99
1328.02	1.636	1636.0	regulate	Run2	regulate/STIM_016.jpg	100
1332.79	2.694	2693.8	regulate	Run2	regulate/STIM_017.jpg	99
1338.812	1.557	1556.6	regulate	Run2	regulate/STIM_017.jpg	99
1342.62	1.289	1288.9	regulate	Run2	regulate/STIM_017.jpg	99
1346.278	1.545	1544.7	regulate	Run2	regulate/STIM_017.jpg	100
1350.071	2.488	2488.3	regulate	Run2	regulate/STIM_018.jpg	99
1356.404	1.294	1293.8	regulate	Run2	regulate/STIM_018.jpg	99
1360.882	2.651	2651.0	regulate	Run2	regulate/STIM_018.jpg	99
1367.403	2.039	2038.9	regulate	Run2	regulate/STIM_018.jpg	100
1373.224	2.753	2753.4	regulate	Run2	regulate/STIM_019.jpg	100
1379.719	1.735	1734.6	regulate	Run2	regulate/STIM_019.jpg	99
1384.421	2.021	2021.1	regulate	Run2	regulate/STIM_019.jpg	100
1389.038	1.24	1239.5	regulate	Run2	regulate/STIM_019.jpg	99
1392.326	1.712	1711.8	regulate	Run2	regulate/STIM_020.jpg	99
1396.698	2.559	2558.7	regulate	Run2	regulate/STIM_020.jpg	99
1402.865	1.683	1683.1	regulate	Run2	regulate/STIM_020.jpg	99
1407.018	1.132	1131.8	regulate	Run2	regulate/STIM_020.jpg	100
1410.516	1.711	1711.1	regulate	Run2	regulate/STIM_021.jpg	99
1415.631	2.323	2323.1	regulate	Run2	regulate/STIM_021.jpg	99
1420.747	1.686	1686.0	regulate	Run2	regulate/STIM_021.jpg	99
1425.911	1.293	1293.0	regulate	Run2	regulate/STIM_021.jpg	100
1429.59	1.661	1661.4	regulate	Run2	regulate/STIM_022.jpg	100
1434.947	2.919	2919.4	regulate	Run2	regulate/STIM_022.jpg	99
1441.553	2.554	2553.9	regulate	Run2	regulate/STIM_022.jpg	99
1446.699	1.795	1795.3	regulate	Run2	regulate/STIM_022.jpg	99
1452.404	2.316	2316.3	regulate	Run2	regulate/STIM_023.jpg	100
1456.721	1.879	1879.3	regulate	Run2	regulate/STIM_023.jpg	100
1462.384	2.207	2207.1	regulate	Run2	regulate/STIM_023.jpg	100
1466.746	1.715	1715.2	regulate	Run2	regulate/STIM_023.jpg	100
1471.412	2.007	2006.7	regulate	Run2	regulate/STIM_024.jpg	99
1475.557	1.326	1326.0	regulate	Run2	regulate/STIM_024.jpg	100
1480.435	1.936	1935.5	regulate	Run2	regulate/STIM_024.jpg	100
1484.832	1.525	1525.3	regulate	Run2	regulate/STIM_024.jpg	99
1488.44	2.893	2893.3	regulate	Run2	regulate/STIM_025.jpg	99
1495.147	2.622	2622.1	regulate	Run2	regulate/STIM_025.jpg	100
1500.056	1.859	1859.0	regulate	Run2	regulate/STIM_025.jpg	100
1504.327	1.656	1656.5	regulate	Run2	regulate/STIM_025.jpg	100
1508.456	3.079	3079.1	regulate	Run2	regulate/STIM_026.jpg	100
1514.707	2.931	2930.8	regulate	Run2	regulate/STIM_026.jpg	99
1520.954	1.528	1527.6	regulate	Run2	regulate/STIM_026.jpg	100
1524.56	1.798	1798.0	regulate	Run2	regulate/STIM_026.jpg	100
1528.82	2.634	2633.5	regulate	Run2	regulate/STIM_027.jpg	100
1535.012	2.259	2258.9	regulate	Run2	regulate/STIM_027.jpg	99
1539.907	2.758	2757.5	regulate	Run2	regulate/STIM_027.jpg	99
1544.665	2.023	2023.5	regulate	Run2	regulate/STIM_027.jpg	99
1548.81	1.961	1961.4	regulate	Run2	regulate/STIM_028.jpg	99
1552.774	2.571	2571.1	regulate	Run2	regulate/STIM_028.jpg	100
1557.502	2.23	2229.6	regulate	Run2	regulate/STIM_028.jpg	100
1563.309	1.59	1590.2	regulate	Run2	regulate/STIM_028.jpg	100
1567.205	1.772	1771.8	regulate	Run2	regulate/STIM_029.jpg	100
1572.253	2.562	2562.1	regulate	Run2	regulate/STIM_029.jpg	99
1578.124	1.309	1308.8	regulate	Run2	regulate/STIM_029.jpg	100
1581.742	1.654	1654.4	regulate	Run2	regulate/STIM_029.jpg	100
1586.402	0.86	859.5	observe	Run2	observe/STIM_000.jpg	100
1589.812	1.337	1336.9	observe	Run2	observe/STIM_000.jpg	99
1595.128	1.394	1393.7	observe	Run2	observe/STIM_000.jpg	100
1599.858	1.533	1533.0	observe	Run2	observe/STIM_000.jpg	99
1604.07	1.496	1496.4	observe	Run2	observe/STIM_001.jpg	99
1609.434	1.55	1549.5	observe	Run2	observe/STIM_001.jpg	100
1614.624	1.656	1655.9	observe	Run2	observe/STIM_001.jpg	100
1619.95	1.072	1072.4	observe	Run2	observe/STIM_001.jpg	100
1623.649	1.526	1525.9	observe	Run2	observe/STIM_002.jpg	99
1628.941	0.986	985.7	observe	Run2	observe/STIM_002.jpg	100
1632.082	1.364	1364.3	observe	Run2	observe/STIM_002.jpg	100
1636.643	1.206	1205.9	observe	Run2	observe/STIM_002.jpg	99
1641.471	0.848	848.4	observe	Run2	observe/STIM_003.jpg	99
1644.572	1.253	1253.2	observe	Run2	observe/STIM_003.jpg	100
1647.996	0.935	935.3	observe	Run2	observe/STIM_003.jpg	100
1652.729	1.411	1411.2	observe	Run2	observe/STIM_003.jpg	99
1657.869	0.953	952.9	observe	Run2	observe/STIM_004.jpg	100
1661.958	1.532	1531.8	observe	Run2	observe/STIM_004.jpg	99
1666.535	0.914	913.8	observe	Run2	observe/STIM_004.jpg	100
1671.068	1.296	1296.0	observe	Run2	observe/STIM_004.jpg	99
1675.541	0.889	889.2	observe	Run2	observe/STIM_005.jpg	99
1679.48	0.892	892.3	observe	Run2	observe/STIM_005.jpg	99
1683.993	1.182	1181.8	observe	Run2	observe/STIM_005.jpg	100
1688.169	1.17	1169.8	observe	Run2	observe/STIM_005.jpg	100
1692.557	1.028	1027.6	observe	Run2	observe/STIM_006.jpg	100
1696.178	1.5	1500.2	observe	Run2	observe/STIM_006.jpg	99
1699.756	1.11	1109.9	observe	Run2	observe/STIM_006.jpg	100
1703.808	1.175	1175.2	observe	Run2	observe/STIM_006.jpg	100
1707.383	0.899	898.6	observe	Run2	observe/STIM_007.jpg	100
1712.053	0.91	909.8	observe	Run2	observe/STIM_007.jpg	100
1716.178	0.848	848.0	observe	Run2	observe/STIM_007.jpg	99
1720.201	0.952	951.8	observe	Run2	observe/STIM_007.jpg	99
1723.373	0.871	871.1	observe	Run2	observe/STIM_008.jpg	99
1727.716	1.139	1139.4	observe	Run2	observe/STIM_008.jpg	100
1732.656	1.443	1443.1	observe	Run2	observe/STIM_008.jpg	100
1737.018	1.442	1441.8	observe	Run2	observe/STIM_008.jpg	100
1740.871	1.505	1504.8	observe	Run2	observe/STIM_009.jpg	99
1744.668	1.483	1482.7	observe	Run2	observe/STIM_009.jpg	99
1748.254	1.199	1199.3	observe	Run2	observe/STIM_009.jpg	100
1751.603	1.222	1222.0	observe	Run2	observe/STIM_009.jpg	100
1756.513	1.318	1318.0	observe	Run2	observe/STIM_010.jpg	99
1760.76	1.096	1095.5	observe	Run2	observe/STIM_010.jpg	99
1765.039	1.344	1343.8	observe	Run2	observe/STIM_010.jpg	99
1769.294	1.3	1300.1	observe	Run2	observe/STIM_010.jpg	100
1773.863	1.468	1467.5	observe	Run2	observe/STIM_011.jpg	99
1778.101	1.387	1387.2	observe	Run2	observe/STIM_011.jpg	100
1782.065	1.428	1427.7	observe	Run2	observe/STIM_011.jpg	99
1786.244	1.004	1003.8	observe	Run2	observe/STIM_011.jpg	99
1789.547	0.974	974.3	observe	Run2	observe/STIM_012.jpg	99
1792.711	1.327	1327.4	observe	Run2	observe/STIM_012.jpg	99
1797.729	1.354	1354.1	observe	Run2	observe/STIM_012.jpg	99
1801.882	0.878	877.9	observe	Run2	observe/STIM_012.jpg	100
1805.63	1.371	1370.6	observe	Run2	observe/STIM_013.jpg	99
1809.245	1.671	1670.6	observe	Run2	observe/STIM_013.jpg	100
1813.136	1.398	1397.9	observe	Run2	observe/STIM_013.jpg	99
1818.494	1.331	1331.3	observe	Run2	observe/STIM_013.jpg	100
1823.478	1.041	1040.8	observe	Run2	observe/STIM_014.jpg	100
1826.624	1.342	1341.8	observe	Run2	observe/STIM_014.jpg	99
1830.158	1.086	1086.1	observe	Run2	observe/STIM_014.jpg	99
1834.905	0.933	932.6	observe	Run2	observe/STIM_014.jpg	100
1839.535	1.011	1011.4	observe	Run2	observe/STIM_015.jpg	99
1843.152	0.859	858.6	observe	Run2	observe/STIM_015.jpg	100
1846.801	1.551	1551.2	observe	Run2	observe/STIM_015.jpg	100
1851.645	0.997	997.2	observe	Run2	observe/STIM_015.jpg	100
1856.219	1.194	1194.2	observe	Run2	observe/STIM_016.jpg	100
1861.013	1.303	1302.6	observe	Run2	observe/STIM_016.jpg	100
1864.379	1.437	1437.1	observe	Run2	observe/STIM_016.jpg	99
1869.714	1.148	1147.5	observe	Run2	observe/STIM_016.jpg	100
1873.659	1.65	1650.4	observe	Run2	observe/STIM_017.jpg	100
1878.249	1.383	1383.3	observe	Run2	observe/STIM_017.jpg	99
1881.698	1.392	1391.9	observe	Run2	observe/STIM_017.jpg	99
1886.602	0.878	877.8	observe	Run2	observe/STIM_017.jpg	99
1891.166	1.494	1493.9	observe	Run2	observe/STIM_018.jpg	99
1895.916	1.09	1090.5	observe	Run2	observe/STIM_018.jpg	99
1899.189	1.089	1088.6	observe	Run2	observe/STIM_018.jpg	100
1903.845	1.447	1446.8	observe	Run2	observe/STIM_018.jpg	99
1907.596	1.522	1521.8	observe	Run2	observe/STIM_019.jpg	99
1911.552	1.605	1604.6	observe	Run2	observe/STIM_019.jpg	100
1915.176	1.556	1555.6	observe	Run2	observe/STIM_019.jpg	100
1920.52	1.238	1238.1	observe	Run2	observe/STIM_019.jpg	100
1924.655	1.937	1936.8	regulate	Run3	regulate/STIM_000.jpg	99
1929.31	2.473	2473.2	regulate	Run3	regulate/STIM_000.jpg	99
1934.606	1.916	1915.7	regulate	Run3	regulate/STIM_000.jpg	100
1939.648	1.603	1602.9	regulate	Run3	regulate/STIM_000.jpg	99
1944.809	2.123	2123.3	regulate	Run3	regulate/STIM_001.jpg	100
1949.786	1.823	1823.4	regulate	Run3	regulate/STIM_001.jpg	100
1954.027	1.98	1979.5	regulate	Run3	regulate/STIM_001.jpg	99
1958.124	2.565	2565.0	regulate	Run3	regulate/STIM_001.jpg	100
1964.019	1.935	1935.1	regulate	Run3	regulate/STIM_002.jpg	100
1968.393	2.385	2385.1	regulate	Run3	regulate/STIM_002.jpg	100
1972.995	2.043	2043.5	regulate	Run3	regulate/STIM_002.jpg	99
1977.833	2.592	2592.4	regulate	Run3	regulate/STIM_002.jpg	100
1982.741	2.515	2514.6	regulate	Run3	regulate/STIM_003.jpg	99
1987.293	2.202	2201.6	regulate	Run3	regulate/STIM_003.jpg	100
1992.381	2.591	2591.4	regulate	Run3	regulate/STIM_003.jpg	99
1998.192	1.363	1362.7	regulate	Run3	regulate/STIM_003.jpg	99
2002.768	1.345	1344.9	regulate	Run3	regulate/STIM_004.jpg	100
2007.84	1.77	1770.4	regulate	Run3	regulate/STIM_004.jpg	100
2013.303	2.512	2512.1	regulate	Run3	regulate/STIM_004.jpg	100
2017.836	1.18	1179.7	regulate	Run3	regulate/STIM_004.jpg	99
2022.997	1.773	1772.6	regulate	Run3	regulate/STIM_005.jpg	100
2026.936	1.865	1865.2	regulate	Run3	regulate/STIM_005.jpg	99
2032.426	2.498	2498.4	regulate	Run3	regulate/STIM_005.jpg	100
2038.89	1.94	1940.2	regulate	Run3	regulate/STIM_005.jpg	99
2043.442	1.459	1459.1	regulate	Run3	regulate/STIM_006.jpg	99
2048.712	1.716	1715.7	regulate	Run3	regulate/STIM_006.jpg	99
2053.233	2.144	2144.2	regulate	Run3	regulate/STIM_006.jpg	100
2057.591	1.825	1824.7	regulate	Run3	regulate/STIM_006.jpg	99
2062.319	1.865	1865.3	regulate	Run3	regulate/STIM_007.jpg	100
2067.887	2.093	2092.8	regulate	Run3	regulate/STIM_007.jpg	99
2072.779	1.55	1550.2	regulate	Run3	regulate/STIM_007.jpg	100
2076.564	1.902	1902.2	regulate	Run3	regulate/STIM_007.jpg	100
2081.431	1.354	1354.1	regulate	Run3	regulate/STIM_008.jpg	100
2085.224	2.259	2258.9	regulate	Run3	regulate/STIM_008.jpg	100
2090.536	1.781	1780.9	regulate	Run3	regulate/STIM_008.jpg	99
2095.27	2.149	2149.0	regulate	Run3	regulate/STIM_008.jpg	99
2100.603	1.474	1473.8	regulate	Run3	regulate/STIM_009.jpg	100
2104.381	1.446	1446.5	regulate	Run3	regulate/STIM_009.jpg	100
2109.682	1.326	1326.2	regulate	Run3	regulate/STIM_009.jpg	100
2114.136	2.11	2110.3	regulate	Run3	regulate/STIM_009.jpg	100
2120.202	2.121	2121.4	regulate	Run3	regulate/STIM_010.jpg	99
2125.993	2.152	2151.8	regulate	Run3	regulate/STIM_010.jpg	100
2130.417	2.469	2469.4	regulate	Run3	regulate/STIM_010.jpg	100
2136.755	2.316	2316.2	regulate	Run3	regulate/STIM_010.jpg	100
2141.336	1.546	1546.2	regulate	Run3	regulate/STIM_011.jpg	99
2145.396	1.129	1129.0	regulate	Run3	regulate/STIM_011.jpg	100
2150.462	2.565	2564.7	regulate	Run3	regulate/STIM_011.jpg	99
2156.595	1.676	1676.5	regulate	Run3	regulate/STIM_011.jpg	100
2161.976	1.778	1777.8	regulate	Run3	regulate/STIM_012.jpg	99
2167.667	1.886	1885.9	regulate	Run3	regulate/STIM_012.jpg	100
2171.782	2.013	2013.1	regulate	Run3	regulate/STIM_012.jpg	99
2177.279	2.582	2581.6	regulate	Run3	regulate/STIM_012.jpg	99
2182.082	1.346	1346.0	regulate	Run3	regulate/STIM_013.jpg	100
2186.156	2.147	2147.2	regulate	Run3	regulate/STIM_013.jpg	99
2190.442	1.464	1464.2	regulate	Run3	regulate/STIM_013.jpg	100
2194.328	2.335	2335.2	regulate	Run3	regulate/STIM_013.jpg	99
2199.7	1.446	1446.3	regulate	Run3	regulate/STIM_014.jpg	99
2204.406	2.17	2169.9	regulate	Run3	regulate/STIM_014.jpg	99
2208.942	1.582	1582.0	regulate	Run3	regulate/STIM_014.jpg	100
2213.878	2.268	2268.0	regulate	Run3	regulate/STIM_014.jpg	100
2218.235	1.97	1969.5	regulate	Run3	regulate/STIM_015.jpg	99
2222.328	1.884	1884.2	regulate	Run3	regulate/STIM_015.jpg	100
2227.507	2.03	2030.1	regulate	Run3	regulate/STIM_015.jpg	100
2231.708	1.827	1827.1	regulate	Run3	regulate/STIM_015.jpg	100
2236.811	2.513	2513.0	regulate	Run3	regulate/STIM_016.jpg	100
2242.794	1.291	1290.8	regulate	Run3	regulate/STIM_016.jpg	100
2246.155	1.534	1533.8	regulate	Run3	regulate/STIM_016.jpg	99
2249.701	2.497	2497.1	regulate	Run3	regulate/STIM_016.jpg	99
2255.131	2.262	2262.3	regulate	Run3	regulate/STIM_017.jpg	99
2261.071	1.288	1288.5	regulate	Run3	regulate/STIM_017.jpg	100
2265.11	1.339	1339.1	regulate	Run3	regulate/STIM_017.jpg	99
2268.704	1.202	1202.3	regulate	Run3	regulate/STIM_017.jpg	99
2273.736	1.172	1172.2	regulate	Run3	regulate/STIM_018.jpg	100
2278.57	2.083	2083.4	regulate	Run3	regulate/STIM_018.jpg	99
2283.481	1.982	1982.4	regulate	Run3	regulate/STIM_018.jpg	99
2287.983	2.153	2152.7	regulate	Run3	regulate/STIM_018.jpg	100
2293.066	2.118	2118.5	regulate	Run3	regulate/STIM_019.jpg	100
2298.911	1.829	1829.1	regulate	Run3	regulate/STIM_019.jpg	99
2304.06	2.492	2492.3	regulate	Run3	regulate/STIM_019.jpg	99
2309.519	1.791	1791.1	regulate	Run3	regulate/STIM_019.jpg	100
2315.181	1.593	1593.2	regulate	Run3	regulate/STIM_020.jpg	99
2319.291	2.317	2316.7	regulate	Run3	regulate/STIM_020.jpg	100
2324.321	1.861	1861.1	regulate	Run3	regulate/STIM_020.jpg	100
2328.683	1.229	1228.7	regulate	Run3	regulate/STIM_020.jpg	100
2333.192	1.511	1511.1	regulate	Run3	regulate/STIM_021.jpg	99
2336.969	2.381	2381.3	regulate	Run3	regulate/STIM_021.jpg	99
2342.365	1.816	1816.3	regulate	Run3	regulate/STIM_021.jpg	100
2347.094	2.245	2244.7	regulate	Run3	regulate/STIM_021.jpg	99
2351.973	1.4	1400.1	regulate	Run3	regulate/STIM_022.jpg	99
2356.948	2.219	2219.0	regulate	Run3	regulate/STIM_022.jpg	100
2361.652	1.926	1926.0	regulate	Run3	regulate/STIM_022.jpg	99
2366.988	1.504	1504.0	regulate	Run3	regulate/STIM_022.jpg	99
2372.438	1.594	1593.6	regulate	Run3	regulate/STIM_023.jpg	99
2377.467	2.481	2481.0	regulate	Run3	regulate/STIM_023.jpg	100
2382.089	1.764	1764.3	regulate	Run3	regulate/STIM_023.jpg	99
2387.436	1.797	1796.7	regulate	Run3	regulate/STIM_023.jpg	99
2391.981	2.105	2105.0	regulate	Run3	regulate/STIM_024.jpg	100
2397.406	2.447	2446.9	regulate	Run3	regulate/STIM_024.jpg	100
2402.446	2.282	2282.0	regulate	Run3	regulate/STIM_024.jpg	100
2407.388	1.697	1697.2	regulate	Run3	regulate/STIM_024.jpg	100
2411.436	1.312	1311.5	regulate	Run3	regulate/STIM_025.jpg	99
2415.609	2.09	2090.5	regulate	Run3	regulate/STIM_025.jpg	99
2420.554	1.609	1608.8	regulate	Run3	regulate/STIM_025.jpg	99
2424.774	1.426	1425.7	regulate	Run3	regulate/STIM_025.jpg	99
2429.474	2.009	2009.4	regulate	Run3	regulate/STIM_026.jpg	99
2433.645	1.486	1486.5	regulate	Run3	regulate/STIM_026.jpg	99
2438.515	1.753	1752.6	regulate	Run3	regulate/STIM_026.jpg	99
2443.989	2.215	2215.4	regulate	Run3	regulate/STIM_026.jpg	100
2448.234	2.533	2533.0	regulate	Run3	regulate/STIM_027.jpg	99
2453.647	1.258	1258.5	regulate	Run3	regulate/STIM_027.jpg	99
2458.61	1.178	1177.5	regulate	Run3	regulate/STIM_027.jpg	100
2462.931	1.303	1303.2	regulate	Run3	regulate/STIM_027.jpg	99
2466.256	1.409	1409.4	regulate	Run3	regulate/STIM_028.jpg	100
2471.345	1.368	1367.6	regulate	Run3	regulate/STIM_028.jpg	99
2475.253	1.722	1722.0	regulate	Run3	regulate/STIM_028.jpg	99
2480.833	1.862	1861.6	regulate	Run3	regulate/STIM_028.jpg	99
2486.505	1.393	1393.4	regulate	Run3	regulate/STIM_029.jpg	99
2491.441	1.186	1185.8	regulate	Run3	regulate/STIM_029.jpg	99
2495.007	1.891	1891.4	regulate	Run3	regulate/STIM_029.jpg	99
2499.637	2.093	2093.2	regulate	Run3	regulate/STIM_029.jpg	99
2504.666	1.059	1059.0	observe	Run3	observe/STIM_000.jpg	99
2508.739	1.277	1277.0	observe	Run3	observe/STIM_000.jpg	99
2513.84	1.456	1455.6	observe	Run3	observe/STIM_000.jpg	100
2517.832	1.461	1460.9	observe	Run3	observe/STIM_000.jpg	99
2522.715	1.396	1396.2	observe	Run3	observe/STIM_001.jpg	100
2526.604	0.992	991.6	observe	Run3	observe/STIM_001.jpg	100
2531.403	1.131	1130.6	observe	Run3	observe/STIM_001.jpg	100
2535.19	1.124	1124.1	observe	Run3	observe/STIM_001.jpg	100
2539.448	1.04	1039.7	observe	Run3	observe/STIM_002.jpg	100
2543.787	1.426	1426.0	observe	Run3	observe/STIM_002.jpg	100
2548.47	1.591	1591.3	observe	Run3	observe/STIM_002.jpg	100
2552.404	1.454	1454.3	observe	Run3	observe/STIM_002.jpg	100
2557.495	1.373	1372.7	observe	Run3	observe/STIM_003.jpg	99
2562.352	1.214	1214.2	observe	Run3	observe/STIM_003.jpg	100
2567.226	0.91	910.4	observe	Run3	observe/STIM_003.jpg	99
2571.217	1.031	1031.0	observe	Run3	observe/STIM_003.jpg	99
2576.106	1.239	1239.0	observe	Run3	observe/STIM_004.jpg	99
2579.582	1.124	1124.0	observe	Run3	observe/STIM_004.jpg	99
2584.186	1.186	1185.5	observe	Run3	observe/STIM_004.jpg	100
2587.882	1.066	1066.3	observe	Run3	observe/STIM_004.jpg	100
2591.615	1.29	1290.5	observe	Run3	observe/STIM_005.jpg	100
2595.447	1.099	1099.2	observe	Run3	observe/STIM_005.jpg	100
2600.244	1.628	1627.9	observe	Run3	observe/STIM_005.jpg	100
2605.767	1.47	1470.5	observe	Run3	observe/STIM_005.jpg	99
2609.624	1.512	1512.1	observe	Run3	observe/STIM_006.jpg	100
2613.861	1.107	1107.3	observe	Run3	observe/STIM_006.jpg	99
2617.549	1.661	1661.1	observe	Run3	observe/STIM_006.jpg	99
2622.118	1.132	1131.9	observe	Run3	observe/STIM_006.jpg	100
2625.643	1.626	1626.4	observe	Run3	observe/STIM_007.jpg	99
2630.773	1.333	1332.9	observe	Run3	observe/STIM_007.jpg	99
2634.683	1.12	1120.5	observe	Run3	observe/STIM_007.jpg	99
2639.042	0.885	884.9	observe	Run3	observe/STIM_007.jpg	100
2642.85	1.015	1014.7	observe	Run3	observe/STIM_008.jpg	100
2647.584	1.009	1009.4	observe	Run3	observe/STIM_008.jpg	100
2651.39	1.198	1197.9	observe	Run3	observe/STIM_008.jpg	100
2655.578	1.105	1105.1	observe	Run3	observe/STIM_008.jpg	99
2658.782	1.582	1582.5	observe	Run3	observe/STIM_009.jpg	100
2663.902	0.922	922.1	observe	Run3	observe/STIM_009.jpg	100
2667.061	1.639	1638.7	observe	Run3	observe/STIM_009.jpg	100
2670.807	1.012	1011.5	observe	Run3	observe/STIM_009.jpg	100
2674.985	1.012	1011.7	observe	Run3	observe/STIM_010.jpg	99
2678.05	1.679	1678.6	observe	Run3	observe/STIM_010.jpg	99
2683.104	1.337	1337.2	observe	Run3	observe/STIM_010.jpg	99
2688.114	0.954	953.8	observe	Run3	observe/STIM_010.jpg	100
2692.683	1.441	1441.3	observe	Run3	observe/STIM_011.jpg	99
2697.585	1.581	1580.9	observe	Run3	observe/STIM_011.jpg	100
2702.249	1.338	1337.8	observe	Run3	observe/STIM_011.jpg	99
2706.897	1.418	1418.4	observe	Run3	observe/STIM_011.jpg	99
2710.83	1.143	1142.8	observe	Run3	observe/STIM_012.jpg	100
2715.215	1.467	1466.6	observe	Run3	observe/STIM_012.jpg	99
2719.158	1.496	1495.9	observe	Run3	observe/STIM_012.jpg	100
2723.021	1.305	1304.9	observe	Run3	observe/STIM_012.jpg	100
2727.616	0.852	851.8	observe	Run3	observe/STIM_013.jpg	100
2730.529	1.015	1014.6	observe	Run3	observe/STIM_013.jpg	100
2734.442	1.027	1026.9	observe	Run3	observe/STIM_013.jpg	100
2739.068	1.495	1495.1	observe	Run3	observe/STIM_013.jpg	100
2743.237	1.366	1366.0	observe	Run3	observe/STIM_014.jpg	99
2747.411	0.997	996.6	observe	Run3	observe/STIM_014.jpg	100
2751.725	0.925	924.9	observe	Run3	observe/STIM_014.jpg	100
2755.52	1.477	1476.6	observe	Run3	observe/STIM_014.jpg	99
2760.326	1.298	1298.0	observe	Run3	observe/STIM_015.jpg	100
2763.984	1.137	1136.8	observe	Run3	observe/STIM_015.jpg	100
2768.742	1.24	1240.3	observe	Run3	observe/STIM_015.jpg	99
2773.96	1.203	1202.6	observe	Run3	observe/STIM_015.jpg	99
2778.595	1.188	1187.7	observe	Run3	observe/STIM_016.jpg	99
2783.72	1.467	1466.7	observe	Run3	observe/STIM_016.jpg	100
2787.242	0.869	868.7	observe	Run3	observe/STIM_016.jpg	100
2791.93	0.97	970.3	observe	Run3	observe/STIM_016.jpg	100
2796.465	1.184	1184.2	observe	Run3	observe/STIM_017.jpg	99
2800.06	1.333	1332.8	observe	Run3	observe/STIM_017.jpg	99
2803.684	1.044	1044.3	observe	Run3	observe/STIM_017.jpg	100
2807.298	1.603	1603.4	observe	Run3	observe/STIM_017.jpg	99
2810.997	1.479	1478.7	observe	Run3	observe/STIM_018.jpg	99
2815.698	0.96	960.5	observe	Run3	observe/STIM_018.jpg	100
2819.723	1.491	1490.8	observe	Run3	observe/STIM_018.jpg	100
2823.893	1.062	1061.7	observe	Run3	observe/STIM_018.jpg	99
2827.105	0.916	915.8	observe	Run3	observe/STIM_019.jpg	100
2831.994	0.944	944.3	observe	Run3	observe/STIM_019.jpg	99
2836.706	0.908	907.6	observe	Run3	observe/STIM_019.jpg	100
2841.214	1.247	1247.2	observe	Run3	observe/STIM_019.jpg	100
