onset	duration	accuracy	trial_type	learning_stage	stimulus
0.0	2.29	correct	regulate	Run1	regulate/STIM_000.jpg
4.768	2.539	correct	regulate	Run1	regulate/STIM_000.jpg
9.61	2.36	correct	regulate	Run1	regulate/STIM_000.jpg
14.429	1.445	correct	regulate	Run1	regulate/STIM_000.jpg
18.023	2.273	correct	regulate	Run1	regulate/STIM_001.jpg
23.363	2.389	correct	regulate	Run1	regulate/STIM_001.jpg
28.374	2.889	correct	regulate	Run1	regulate/STIM_001.jpg
34.114	2.246	correct	regulate	Run1	regulate/STIM_001.jpg
39.951	3.279	correct	regulate	Run1	regulate/STIM_002.jpg
46.068	1.672	correct	regulate	Run1	regulate/STIM_002.jpg
51.515	2.121	correct	regulate	Run1	regulate/STIM_002.jpg
56.792	2.807	incorrect	regulate	Run1	regulate/STIM_002.jpg
62.281	1.63	correct	regulate	Run1	regulate/STIM_003.jpg
66.184	1.803	correct	regulate	Run1	regulate/STIM_003.jpg
71.344	1.505	incorrect	regulate	Run1	regulate/STIM_003.jpg
75.282	2.761	correct	regulate	Run1	regulate/STIM_003.jpg
80.693	3.438	correct	regulate	Run1	regulate/STIM_004.jpg
87.414	1.614	correct	regulate	Run1	regulate/STIM_004.jpg
92.758	2.545	correct	regulate	Run1	regulate/STIM_004.jpg
98.183	2.547	correct	regulate	Run1	regulate/STIM_004.jpg
104.515	2.738	correct	regulate	Run1	regulate/STIM_005.jpg
110.152	1.952	correct	regulate	Run1	regulate/STIM_005.jpg
114.715	3.172	correct	regulate	Run1	regulate/STIM_005.jpg
121.409	3.11	correct	regulate	Run1	regulate/STIM_005.jpg
127.946	2.402	correct	regulate	Run1	regulate/STIM_006.jpg
132.758	2.954	correct	regulate	Run1	regulate/STIM_006.jpg
138.067	2.736	correct	regulate	Run1	regulate/STIM_006.jpg
143.342	1.698	correct	regulate	Run1	regulate/STIM_006.jpg
148.448	2.88	correct	regulate	Run1	regulate/STIM_007.jpg
153.906	1.955	correct	regulate	Run1	regulate/STIM_007.jpg
159.424	2.991	correct	regulate	Run1	regulate/STIM_007.jpg
164.783	2.985	correct	regulate	Run1	regulate/STIM_007.jpg
170.177	2.043	correct	regulate	Run1	regulate/STIM_008.jpg
175.3	1.852	correct	regulate	Run1	regulate/STIM_008.jpg
180.427	2.722	correct	regulate	Run1	regulate/STIM_008.jpg
185.848	1.894	correct	regulate	Run1	regulate/STIM_008.jpg
191.734	2.104	correct	regulate	Run1	regulate/STIM_009.jpg
197.122	2.55	correct	regulate	Run1	regulate/STIM_009.jpg
203.446	2.337	correct	regulate	Run1	regulate/STIM_009.jpg
209.599	3.122	correct	regulate	Run1	regulate/STIM_009.jpg
215.759	2.106	correct	regulate	Run1	regulate/STIM_010.jpg
220.465	2.63	correct	regulate	Run1	regulate/STIM_010.jpg
227.002	2.083	correct	regulate	Run1	regulate/STIM_010.jpg
232.58	1.752	correct	regulate	Run1	regulate/STIM_010.jpg
236.624	2.486	correct	regulate	Run1	regulate/STIM_011.jpg
242.296	2.024	correct	regulate	Run1	regulate/STIM_011.jpg
247.579	2.876	correct	regulate	Run1	regulate/STIM_011.jpg
254.13	2.049	correct	regulate	Run1	regulate/STIM_011.jpg
258.727	3.048	correct	regulate	Run1	regulate/STIM_012.jpg
264.024	3.054	correct	regulate	Run1	regulate/STIM_012.jpg
270.526	2.613	correct	regulate	Run1	regulate/STIM_012.jpg
276.156	2.404	correct	regulate	Run1	regulate/STIM_012.jpg
280.918	1.885	correct	regulate	Run1	regulate/STIM_013.jpg
284.914	1.591	correct	regulate	Run1	regulate/STIM_013.jpg
290.212	2.968	correct	regulate	Run1	regulate/STIM_013.jpg
296.487	1.458	correct	regulate	Run1	regulate/STIM_013.jpg
300.127	2.113	correct	regulate	Run1	regulate/STIM_014.jpg
305.186	3.46	correct	regulate	Run1	regulate/STIM_014.jpg
311.246	3.198	correct	regulate	Run1	regulate/STIM_014.jpg
318.189	3.014	correct	regulate	Run1	regulate/STIM_014.jpg
324.2	3.436	correct	regulate	Run1	regulate/STIM_015.jpg
330.094	2.718	correct	regulate	Run1	regulate/STIM_015.jpg
336.754	1.784	correct	regulate	Run1	regulate/STIM_015.jpg
341.814	1.89	correct	regulate	Run1	regulate/STIM_015.jpg
346.25	2.698	correct	regulate	Run1	regulate/STIM_016.jpg
351.752	2.252	correct	regulate	Run1	regulate/STIM_016.jpg
357.796	2.812	correct	regulate	Run1	regulate/STIM_016.jpg
363.626	1.591	correct	regulate	Run1	regulate/STIM_016.jpg
369.054	2.772	correct	regulate	Run1	regulate/STIM_017.jpg
375.465	3.205	correct	regulate	Run1	regulate/STIM_017.jpg
381.348	2.104	correct	regulate	Run1	regulate/STIM_017.jpg
386.364	1.47	correct	regulate	Run1	regulate/STIM_017.jpg
390.574	1.899	correct	regulate	Run1	regulate/STIM_018.jpg
395.687	1.567	correct	regulate	Run1	regulate/STIM_018.jpg
400.041	1.896	correct	regulate	Run1	regulate/STIM_018.jpg
405.351	2.89	correct	regulate	Run1	regulate/STIM_018.jpg
410.554	2.454	correct	regulate	Run1	regulate/STIM_019.jpg
415.242	2.428	correct	regulate	Run1	regulate/STIM_019.jpg
420.024	3.095	correct	regulate	Run1	regulate/STIM_019.jpg
426.303	2.698	correct	regulate	Run1	regulate/STIM_019.jpg
431.604	3.594	correct	regulate	Run1	regulate/STIM_020.jpg
438.587	2.128	correct	regulate	Run1	regulate/STIM_020.jpg
444.554	1.962	correct	regulate	Run1	regulate/STIM_020.jpg
449.932	2.618	correct	regulate	Run1	regulate/STIM_020.jpg
454.751	2.819	correct	regulate	Run1	regulate/STIM_021.jpg
459.594	3.217	correct	regulate	Run1	regulate/STIM_021.jpg
466.121	2.732	correct	regulate	Run1	regulate/STIM_021.jpg
471.943	1.444	correct	regulate	Run1	regulate/STIM_021.jpg
475.442	2.931	correct	regulate	Run1	regulate/STIM_022.jpg
481.572	2.636	correct	regulate	Run1	regulate/STIM_022.jpg
486.936	2.808	correct	regulate	Run1	regulate/STIM_022.jpg
493.684	1.497	correct	regulate	Run1	regulate/STIM_022.jpg
498.636	2.882	correct	regulate	Run1	regulate/STIM_023.jpg
503.94	2.545	correct	regulate	Run1	regulate/STIM_023.jpg
510.01	2.382	correct	regulate	Run1	regulate/STIM_023.jpg
516.03	2.833	correct	regulate	Run1	regulate/STIM_023.jpg
521.094	3.673	correct	regulate	Run1	regulate/STIM_024.jpg
527.756	3.347	incorrect	regulate	Run1	regulate/STIM_024.jpg
533.714	2.195	correct	regulate	Run1	regulate/STIM_024.jpg
538.56	1.82	correct	regulate	Run1	regulate/STIM_024.jpg
543.053	2.624	correct	regulate	Run1	regulate/STIM_025.jpg
549.657	2.508	correct	regulate	Run1	regulate/STIM_025.jpg
556.117	2.504	correct	regulate	Run1	regulate/STIM_025.jpg
562.139	2.431	correct	regulate	Run1	regulate/STIM_025.jpg
567.503	2.749	correct	regulate	Run1	regulate/STIM_026.jpg
573.033	2.45	correct	regulate	Run1	regulate/STIM_026.jpg
578.134	1.531	correct	regulate	Run1	regulate/STIM_026.jpg
582.881	1.873	correct	regulate	Run1	regulate/STIM_026.jpg
588.737	2.375	correct	regulate	Run1	regulate/STIM_027.jpg
594.453	2.213	correct	regulate	Run1	regulate/STIM_027.jpg
600.178	2.772	correct	regulate	Run1	regulate/STIM_027.jpg
606.032	2.405	incorrect	regulate	Run1	regulate/STIM_027.jpg
612.093	1.888	correct	regulate	Run1	regulate/STIM_028.jpg
616.076	2.3	correct	regulate	Run1	regulate/STIM_028.jpg
621.771	1.873	correct	regulate	Run1	regulate/STIM_028.jpg
625.657	2.906	correct	regulate	Run1	regulate/STIM_028.jpg
632.078	2.581	correct	regulate	Run1	regulate/STIM_029.jpg
637.915	2.646	correct	regulate	Run1	regulate/STIM_029.jpg
643.142	2.36	incorrect	regulate	Run1	regulate/STIM_029.jpg
649.369	3.076	correct	regulate	Run1	regulate/STIM_029.jpg
654.884	1.497	correct	observe	Run1	observe/STIM_000.jpg
659.749	0.973	correct	observe	Run1	observe/STIM_000.jpg
663.483	1.568	correct	observe	Run1	observe/STIM_000.jpg
667.707	1.662	correct	observe	Run1	observe/STIM_000.jpg
673.241	1.446	correct	observe	Run1	observe/STIM_001.jpg
678.561	1.137	correct	observe	Run1	observe/STIM_001.jpg
681.788	1.602	correct	observe	Run1	observe/STIM_001.jpg
685.9	1.498	correct	observe	Run1	observe/STIM_001.jpg
691.157	1.361	correct	observe	Run1	observe/STIM_002.jpg
695.203	0.99	correct	observe	Run1	observe/STIM_002.jpg
699.129	1.616	correct	observe	Run1	observe/STIM_002.jpg
703.994	1.079	correct	observe	Run1	observe/STIM_002.jpg
708.416	1.446	correct	observe	Run1	observe/STIM_003.jpg
712.302	1.003	correct	observe	Run1	observe/STIM_003.jpg
716.233	1.058	correct	observe	Run1	observe/STIM_003.jpg
719.837	1.559	correct	observe	Run1	observe/STIM_003.jpg
724.103	0.861	correct	observe	Run1	observe/STIM_004.jpg
728.506	1.047	correct	observe	Run1	observe/STIM_004.jpg
733.087	1.385	correct	observe	Run1	observe/STIM_004.jpg
737.584	1.633	correct	observe	Run1	observe/STIM_004.jpg
743.001	1.145	correct	observe	Run1	observe/STIM_005.jpg
747.497	1.512	correct	observe	Run1	observe/STIM_005.jpg
751.137	0.943	correct	observe	Run1	observe/STIM_005.jpg
754.084	1.567	correct	observe	Run1	observe/STIM_005.jpg
758.277	1.493	correct	observe	Run1	observe/STIM_006.jpg
762.917	1.075	correct	observe	Run1	observe/STIM_006.jpg
767.509	1.411	correct	observe	Run1	observe/STIM_006.jpg
772.18	1.301	correct	observe	Run1	observe/STIM_006.jpg
776.705	1.173	correct	observe	Run1	observe/STIM_007.jpg
780.995	1.241	correct	observe	Run1	observe/STIM_007.jpg
784.417	0.854	correct	observe	Run1	observe/STIM_007.jpg
787.449	1.306	correct	observe	Run1	observe/STIM_007.jpg
790.978	1.662	correct	observe	Run1	observe/STIM_008.jpg
795.634	0.988	correct	observe	Run1	observe/STIM_008.jpg
799.711	1.231	correct	observe	Run1	observe/STIM_008.jpg
803.059	1.695	correct	observe	Run1	observe/STIM_008.jpg
807.135	1.362	correct	observe	Run1	observe/STIM_009.jpg
810.605	1.239	correct	observe	Run1	observe/STIM_009.jpg
815.51	1.074	correct	observe	Run1	observe/STIM_009.jpg
820.073	0.849	correct	observe	Run1	observe/STIM_009.jpg
824.29	1.424	correct	observe	Run1	observe/STIM_010.jpg
828.897	1.51	correct	observe	Run1	observe/STIM_010.jpg
833.058	0.976	correct	observe	Run1	observe/STIM_010.jpg
836.241	1.023	correct	observe	Run1	observe/STIM_010.jpg
840.171	1.403	correct	observe	Run1	observe/STIM_011.jpg
845.409	1.386	correct	observe	Run1	observe/STIM_011.jpg
850.218	1.506	correct	observe	Run1	observe/STIM_011.jpg
854.58	0.929	correct	observe	Run1	observe/STIM_011.jpg
858.47	0.869	correct	observe	Run1	observe/STIM_012.jpg
861.654	1.656	correct	observe	Run1	observe/STIM_012.jpg
865.985	0.885	correct	observe	Run1	observe/STIM_012.jpg
868.944	1.114	correct	observe	Run1	observe/STIM_012.jpg
873.137	0.962	correct	observe	Run1	observe/STIM_013.jpg
876.921	0.878	correct	observe	Run1	observe/STIM_013.jpg
880.429	1.67	correct	observe	Run1	observe/STIM_013.jpg
885.263	1.435	correct	observe	Run1	observe/STIM_013.jpg
888.757	1.221	correct	observe	Run1	observe/STIM_014.jpg
892.425	1.326	correct	observe	Run1	observe/STIM_014.jpg
896.193	1.347	correct	observe	Run1	observe/STIM_014.jpg
899.603	1.46	correct	observe	Run1	observe/STIM_014.jpg
903.462	1.331	correct	observe	Run1	observe/STIM_015.jpg
906.977	1.522	correct	observe	Run1	observe/STIM_015.jpg
911.714	0.99	correct	observe	Run1	observe/STIM_015.jpg
916.509	1.446	correct	observe	Run1	observe/STIM_015.jpg
920.277	1.329	correct	observe	Run1	observe/STIM_016.jpg
923.681	1.524	correct	observe	Run1	observe/STIM_016.jpg
927.814	1.343	correct	observe	Run1	observe/STIM_016.jpg
932.277	1.196	correct	observe	Run1	observe/STIM_016.jpg
936.923	1.063	correct	observe	Run1	observe/STIM_017.jpg
940.105	0.959	correct	observe	Run1	observe/STIM_017.jpg
943.387	1.632	correct	observe	Run1	observe/STIM_017.jpg
947.771	0.945	correct	observe	Run1	observe/STIM_017.jpg
952.262	1.001	correct	observe	Run1	observe/STIM_018.jpg
956.052	1.173	correct	observe	Run1	observe/STIM_018.jpg
960.823	1.654	incorrect	observe	Run1	observe/STIM_018.jpg
965.34	0.974	correct	observe	Run1	observe/STIM_018.jpg
969.301	0.956	correct	observe	Run1	observe/STIM_019.jpg
973.464	1.578	correct	observe	Run1	observe/STIM_019.jpg
978.027	1.22	correct	observe	Run1	observe/STIM_019.jpg
982.074	1.375	correct	observe	Run1	observe/STIM_019.jpg
985.893	1.464	correct	regulate	Run2	regulate/STIM_000.jpg
990.575	2.732	correct	regulate	Run2	regulate/STIM_000.jpg
996.644	2.581	correct	regulate	Run2	regulate/STIM_000.jpg
1002.085	1.477	correct	regulate	Run2	regulate/STIM_000.jpg
1007.248	2.705	correct	regulate	Run2	regulate/STIM_001.jpg
1013.438	1.702	correct	regulate	Run2	regulate/STIM_001.jpg
1019.055	2.042	correct	regulate	Run2	regulate/STIM_001.jpg
1023.225	1.391	correct	regulate	Run2	regulate/STIM_001.jpg
1028.109	2.42	correct	regulate	Run2	regulate/STIM_002.jpg
1032.908	2.384	correct	regulate	Run2	regulate/STIM_002.jpg
1038.974	1.378	correct	regulate	Run2	regulate/STIM_002.jpg
1043.315	1.749	correct	regulate	Run2	regulate/STIM_002.jpg
1047.255	2.926	correct	regulate	Run2	regulate/STIM_003.jpg
1052.59	1.917	correct	regulate	Run2	regulate/STIM_003.jpg
1058.026	2.652	correct	regulate	Run2	regulate/STIM_003.jpg
1062.771	2.433	correct	regulate	Run2	regulate/STIM_003.jpg
1068.685	2.329	correct	regulate	Run2	regulate/STIM_004.jpg
1073.631	2.728	correct	regulate	Run2	regulate/STIM_004.jpg
1079.535	2.411	correct	regulate	Run2	regulate/STIM_004.jpg
1084.868	1.197	correct	regulate	Run2	regulate/STIM_004.jpg
1089.899	2.244	correct	regulate	Run2	regulate/STIM_005.jpg
1095.548	2.339	correct	regulate	Run2	regulate/STIM_005.jpg
1101.688	1.313	incorrect	regulate	Run2	regulate/STIM_005.jpg
1106.471	2.408	correct	regulate	Run2	regulate/STIM_005.jpg
1111.235	2.844	correct	regulate	Run2	regulate/STIM_006.jpg
1117.397	2.007	correct	regulate	Run2	regulate/STIM_006.jpg
1122.558	1.79	correct	regulate	Run2	regulate/STIM_006.jpg
1126.971	1.477	correct	regulate	Run2	regulate/STIM_006.jpg
1131.26	1.627	correct	regulate	Run2	regulate/STIM_007.jpg
1135.276	1.985	correct	regulate	Run2	regulate/STIM_007.jpg
1140.335	2.366	correct	regulate	Run2	regulate/STIM_007.jpg
1146.512	1.915	correct	regulate	Run2	regulate/STIM_007.jpg
1151.331	2.295	correct	regulate	Run2	regulate/STIM_008.jpg
1157.594	1.969	correct	regulate	Run2	regulate/STIM_008.jpg
1161.888	2.17	correct	regulate	Run2	regulate/STIM_008.jpg
1167.352	1.816	correct	regulate	Run2	regulate/STIM_008.jpg
1171.382	2.289	correct	regulate	Run2	regulate/STIM_009.jpg
1177.227	1.51	correct	regulate	Run2	regulate/STIM_009.jpg
1181.094	2.124	correct	regulate	Run2	regulate/STIM_009.jpg
1186.877	1.624	correct	regulate	Run2	regulate/STIM_009.jpg
1191.542	1.448	correct	regulate	Run2	regulate/STIM_010.jpg
1195.934	2.648	incorrect	regulate	Run2	regulate/STIM_010.jpg
1202.532	1.372	correct	regulate	Run2	regulate/STIM_010.jpg
1207.283	1.216	correct	regulate	Run2	regulate/STIM_010.jpg
1210.941	2.237	correct	regulate	Run2	regulate/STIM_011.jpg
1216.921	2.791	correct	regulate	Run2	regulate/STIM_011.jpg
1222.426	1.909	correct	regulate	Run2	regulate/STIM_011.jpg
1228.185	2.012	correct	regulate	Run2	regulate/STIM_011.jpg
1234.072	3.015	correct	regulate	Run2	regulate/STIM_012.jpg
1239.137	1.819	correct	regulate	Run2	regulate/STIM_012.jpg
1243.584	1.268	correct	regulate	Run2	regulate/STIM_012.jpg
1247.613	1.257	correct	regulate	Run2	regulate/STIM_012.jpg
1251.608	3.005	correct	regulate	Run2	regulate/STIM_013.jpg
1257.665	2.559	correct	regulate	Run2	regulate/STIM_013.jpg
1263.732	2.106	correct	regulate	Run2	regulate/STIM_013.jpg
1268.126	2.55	correct	regulate	Run2	regulate/STIM_013.jpg
1273.618	2.41	correct	regulate	Run2	regulate/STIM_014.jpg
1278.215	1.51	correct	regulate	Run2	regulate/STIM_014.jpg
1281.85	1.325	correct	regulate	Run2	regulate/STIM_014.jpg
1285.649	2.243	correct	regulate	Run2	regulate/STIM_014.jpg
1290.449	1.856	correct	regulate	Run2	regulate/STIM_015.jpg
1296.273	2.641	correct	regulate	Run2	regulate/STIM_015.jpg
1302.574	1.797	correct	regulate	Run2	regulate/STIM_015.jpg
1307.237	1.869	correct	regulate	Run2	regulate/STIM_015.jpg
1311.335	2.668	correct	regulate	Run2	regulate/STIM_016.jpg
1317.132	1.553	correct	regulate	Run2	regulate/STIM_016.jpg
1321.67	2.466	correct	regulate	Run2	regulate/STIM_016.jpg
1328.02	1.636	correct	regulate	Run2	regulate/STIM_016.jpg
1332.79	2.694	correct	regulate	Run2	regulate/STIM_017.jpg
1338.812	1.557	correct	regulate	Run2	regulate/STIM_017.jpg
1342.62	1.289	correct	regulate	Run2	regulate/STIM_017.jpg
1346.278	1.545	correct	regulate	Run2	regulate/STIM_017.jpg
1350.071	2.488	correct	regulate	Run2	regulate/STIM_018.jpg
1356.404	1.294	correct	regulate	Run2	regulate/STIM_018.jpg
1360.882	2.651	correct	regulate	Run2	regulate/STIM_018.jpg
1367.403	2.039	correct	regulate	Run2	regulate/STIM_018.jpg
1373.224	2.753	correct	regulate	Run2	regulate/STIM_019.jpg
1379.719	1.735	correct	regulate	Run2	regulate/STIM_019.jpg
1384.421	2.021	correct	regulate	Run2	regulate/STIM_019.jpg
1389.038	1.24	correct	regulate	Run2	regulate/STIM_019.jpg
1392.326	1.712	correct	regulate	Run2	regulate/STIM_020.jpg
1396.698	2.559	correct	regulate	Run2	regulate/STIM_020.jpg
1402.865	1.683	correct	regulate	Run2	regulate/STIM_020.jpg
1407.018	1.132	correct	regulate	Run2	regulate/STIM_020.jpg
1410.516	1.711	correct	regulate	Run2	regulate/STIM_021.jpg
1415.631	2.323	correct	regulate	Run2	regulate/STIM_021.jpg
1420.747	1.686	correct	regulate	Run2	regulate/STIM_021.jpg
1425.911	1.293	correct	regulate	Run2	regulate/STIM_021.jpg
1429.59	1.661	correct	regulate	Run2	regulate/STIM_022.jpg
1434.947	2.919	correct	regulate	Run2	regulate/STIM_022.jpg
1441.553	2.554	correct	regulate	Run2	regulate/STIM_022.jpg
1446.699	1.795	correct	regulate	Run2	regulate/STIM_022.jpg
1452.404	2.316	correct	regulate	Run2	regulate/STIM_023.jpg
1456.721	1.879	correct	regulate	Run2	regulate/STIM_023.jpg
1462.384	2.207	correct	regulate	Run2	regulate/STIM_023.jpg
1466.746	1.715	correct	regulate	Run2	regulate/STIM_023.jpg
1471.412	2.007	correct	regulate	Run2	regulate/STIM_024.jpg
1475.557	1.326	correct	regulate	Run2	regulate/STIM_024.jpg
1480.435	1.936	correct	regulate	Run2	regulate/STIM_024.jpg
1484.832	1.525	correct	regulate	Run2	regulate/STIM_024.jpg
1488.44	2.893	correct	regulate	Run2	regulate/STIM_025.jpg
1495.147	2.622	correct	regulate	Run2	regulate/STIM_025.jpg
1500.056	1.859	correct	regulate	Run2	regulate/STIM_025.jpg
1504.327	1.656	correct	regulate	Run2	regulate/STIM_025.jpg
1508.456	3.079	correct	regulate	Run2	regulate/STIM_026.jpg
1514.707	2.931	correct	regulate	Run2	regulate/STIM_026.jpg
1520.954	1.528	correct	regulate	Run2	regulate/STIM_026.jpg
1524.56	1.798	correct	regulate	Run2	regulate/STIM_026.jpg
1528.82	2.634	correct	regulate	Run2	regulate/STIM_027.jpg
1535.012	2.259	correct	regulate	Run2	regulate/STIM_027.jpg
1539.907	2.758	correct	regulate	Run2	regulate/STIM_027.jpg
1544.665	2.023	correct	regulate	Run2	regulate/STIM_027.jpg
1548.81	1.961	correct	regulate	Run2	regulate/STIM_028.jpg
1552.774	2.571	correct	regulate	Run2	regulate/STIM_028.jpg
1557.502	2.23	correct	regulate	Run2	regulate/STIM_028.jpg
1563.309	1.59	correct	regulate	Run2	regulate/STIM_028.jpg
1567.205	1.772	correct	regulate	Run2	regulate/STIM_029.jpg
1572.253	2.562	correct	regulate	Run2	regulate/STIM_029.jpg
1578.124	1.309	correct	regulate	Run2	regulate/STIM_029.jpg
1581.742	1.654	correct	regulate	Run2	regulate/STIM_029.jpg
1586.402	0.86	correct	observe	Run2	observe/STIM_000.jpg
1589.812	1.337	correct	observe	Run2	observe/STIM_000.jpg
1595.128	1.394	correct	observe	Run2	observe/STIM_000.jpg
1599.858	1.533	correct	observe	Run2	observe/STIM_000.jpg
1604.07	1.496	correct	observe	Run2	observe/STIM_001.jpg
1609.434	1.55	correct	observe	Run2	observe/STIM_001.jpg
1614.624	1.656	correct	observe	Run2	observe/STIM_001.jpg
1619.95	1.072	correct	observe	Run2	observe/STIM_001.jpg
1623.649	1.526	correct	observe	Run2	observe/STIM_002.jpg
1628.941	0.986	correct	observe	Run2	observe/STIM_002.jpg
1632.082	1.364	correct	observe	Run2	observe/STIM_002.jpg
1636.643	1.206	correct	observe	Run2	observe/STIM_002.jpg
1641.471	0.848	correct	observe	Run2	observe/STIM_003.jpg
1644.572	1.253	correct	observe	Run2	observe/STIM_003.jpg
1647.996	0.935	correct	observe	Run2	observe/STIM_003.jpg
1652.729	1.411	correct	observe	Run2	observe/STIM_003.jpg
1657.869	0.953	correct	observe	Run2	observe/STIM_004.jpg
1661.958	1.532	correct	observe	Run2	observe/STIM_004.jpg
1666.535	0.914	correct	observe	Run2	observe/STIM_004.jpg
1671.068	1.296	correct	observe	Run2	observe/STIM_004.jpg
1675.541	0.889	correct	observe	Run2	observe/STIM_005.jpg
1679.48	0.892	incorrect	observe	Run2	observe/STIM_005.jpg
1683.993	1.182	correct	observe	Run2	observe/STIM_005.jpg
1688.169	1.17	correct	observe	Run2	observe/STIM_005.jpg
1692.557	1.028	correct	observe	Run2	observe/STIM_006.jpg
1696.178	1.5	correct	observe	Run2	observe/STIM_006.jpg
1699.756	1.11	correct	observe	Run2	observe/STIM_006.jpg
1703.808	1.175	correct	observe	Run2	observe/STIM_006.jpg
1707.383	0.899	correct	observe	Run2	observe/STIM_007.jpg
1712.053	0.91	correct	observe	Run2	observe/STIM_007.jpg
1716.178	0.848	correct	observe	Run2	observe/STIM_007.jpg
1720.201	0.952	correct	observe	Run2	observe/STIM_007.jpg
1723.373	0.871	correct	observe	Run2	observe/STIM_008.jpg
1727.716	1.139	correct	observe	Run2	observe/STIM_008.jpg
1732.656	1.443	correct	observe	Run2	observe/STIM_008.jpg
1737.018	1.442	correct	observe	Run2	observe/STIM_008.jpg
1740.871	1.505	correct	observe	Run2	observe/STIM_009.jpg
1744.668	1.483	correct	observe	Run2	observe/STIM_009.jpg
1748.254	1.199	correct	observe	Run2	observe/STIM_009.jpg
1751.603	1.222	correct	observe	Run2	observe/STIM_009.jpg
1756.513	1.318	correct	observe	Run2	observe/STIM_010.jpg
1760.76	1.096	correct	observe	Run2	observe/STIM_010.jpg
1765.039	1.344	correct	observe	Run2	observe/STIM_010.jpg
1769.294	1.3	correct	observe	Run2	observe/STIM_010.jpg
1773.863	1.468	incorrect	observe	Run2	observe/STIM_011.jpg
1778.101	1.387	correct	observe	Run2	observe/STIM_011.jpg
1782.065	1.428	correct	observe	Run2	observe/STIM_011.jpg
1786.244	1.004	correct	observe	Run2	observe/STIM_011.jpg
1789.547	0.974	correct	observe	Run2	observe/STIM_012.jpg
1792.711	1.327	correct	observe	Run2	observe/STIM_012.jpg
1797.729	1.354	correct	observe	Run2	observe/STIM_012.jpg
1801.882	0.878	correct	observe	Run2	observe/STIM_012.jpg
1805.63	1.371	incorrect	observe	Run2	observe/STIM_013.jpg
1809.245	1.671	correct	observe	Run2	observe/STIM_013.jpg
1813.136	1.398	correct	observe	Run2	observe/STIM_013.jpg
1818.494	1.331	correct	observe	Run2	observe/STIM_013.jpg
1823.478	1.041	correct	observe	Run2	observe/STIM_014.jpg
1826.624	1.342	correct	observe	Run2	observe/STIM_014.jpg
1830.158	1.086	correct	observe	Run2	observe/STIM_014.jpg
1834.905	0.933	correct	observe	Run2	observe/STIM_014.jpg
1839.535	1.011	correct	observe	Run2	observe/STIM_015.jpg
1843.152	0.859	correct	observe	Run2	observe/STIM_015.jpg
1846.801	1.551	correct	observe	Run2	observe/STIM_015.jpg
1851.645	0.997	correct	observe	Run2	observe/STIM_015.jpg
1856.219	1.194	correct	observe	Run2	observe/STIM_016.jpg
1861.013	1.303	correct	observe	Run2	observe/STIM_016.jpg
1864.379	1.437	correct	observe	Run2	observe/STIM_016.jpg
1869.714	1.148	correct	observe	Run2	observe/STIM_016.jpg
1873.659	1.65	correct	observe	Run2	observe/STIM_017.jpg
1878.249	1.383	correct	observe	Run2	observe/STIM_017.jpg
1881.698	1.392	correct	observe	Run2	observe/STIM_017.jpg
1886.602	0.878	correct	observe	Run2	observe/STIM_017.jpg
1891.166	1.494	correct	observe	Run2	observe/STIM_018.jpg
1895.916	1.09	correct	observe	Run2	observe/STIM_018.jpg
1899.189	1.089	correct	observe	Run2	observe/STIM_018.jpg
1903.845	1.447	correct	observe	Run2	observe/STIM_018.jpg
1907.596	1.522	correct	observe	Run2	observe/STIM_019.jpg
1911.552	1.605	correct	observe	Run2	observe/STIM_019.jpg
1915.176	1.556	correct	observe	Run2	observe/STIM_019.jpg
1920.52	1.238	correct	observe	Run2	observe/STIM_019.jpg
1924.655	1.937	correct	regulate	Run3	regulate/STIM_000.jpg
1929.31	2.473	correct	regulate	Run3	regulate/STIM_000.jpg
1934.606	1.916	correct	regulate	Run3	regulate/STIM_000.jpg
1939.648	1.603	correct	regulate	Run3	regulate/STIM_000.jpg
1944.809	2.123	correct	regulate	Run3	regulate/STIM_001.jpg
1949.786	1.823	correct	regulate	Run3	regulate/STIM_001.jpg
1954.027	1.98	correct	regulate	Run3	regulate/STIM_001.jpg
1958.124	2.565	correct	regulate	Run3	regulate/STIM_001.jpg
1964.019	1.935	correct	regulate	Run3	regulate/STIM_002.jpg
1968.393	2.385	correct	regulate	Run3	regulate/STIM_002.jpg
1972.995	2.043	correct	regulate	Run3	regulate/STIM_002.jpg
1977.833	2.592	correct	regulate	Run3	regulate/STIM_002.jpg
1982.741	2.515	correct	regulate	Run3	regulate/STIM_003.jpg
1987.293	2.202	correct	regulate	Run3	regulate/STIM_003.jpg
1992.381	2.591	correct	regulate	Run3	regulate/STIM_003.jpg
1998.192	1.363	correct	regulate	Run3	regulate/STIM_003.jpg
2002.768	1.345	correct	regulate	Run3	regulate/STIM_004.jpg
2007.84	1.77	correct	regulate	Run3	regulate/STIM_004.jpg
2013.303	2.512	correct	regulate	Run3	regulate/STIM_004.jpg
2017.836	1.18	correct	regulate	Run3	regulate/STIM_004.jpg
2022.997	1.773	correct	regulate	Run3	regulate/STIM_005.jpg
2026.936	1.865	correct	regulate	Run3	regulate/STIM_005.jpg
2032.426	2.498	correct	regulate	Run3	regulate/STIM_005.jpg
2038.89	1.94	correct	regulate	Run3	regulate/STIM_005.jpg
2043.442	1.459	correct	regulate	Run3	regulate/STIM_006.jpg
2048.712	1.716	correct	regulate	Run3	regulate/STIM_006.jpg
2053.233	2.144	correct	regulate	Run3	regulate/STIM_006.jpg
2057.591	1.825	correct	regulate	Run3	regulate/STIM_006.jpg
2062.319	1.865	correct	regulate	Run3	regulate/STIM_007.jpg
2067.887	2.093	correct	regulate	Run3	regulate/STIM_007.jpg
2072.779	1.55	correct	regulate	Run3	regulate/STIM_007.jpg
2076.564	1.902	correct	regulate	Run3	regulate/STIM_007.jpg
2081.431	1.354	correct	regulate	Run3	regulate/STIM_008.jpg
2085.224	2.259	correct	regulate	Run3	regulate/STIM_008.jpg
2090.536	1.781	correct	regulate	Run3	regulate/STIM_008.jpg
2095.27	2.149	correct	regulate	Run3	regulate/STIM_008.jpg
2100.603	1.474	correct	regulate	Run3	regulate/STIM_009.jpg
2104.381	1.446	correct	regulate	Run3	regulate/STIM_009.jpg
2109.682	1.326	correct	regulate	Run3	regulate/STIM_009.jpg
2114.136	2.11	correct	regulate	Run3	regulate/STIM_009.jpg
2120.202	2.121	correct	regulate	Run3	regulate/STIM_010.jpg
2125.993	2.152	correct	regulate	Run3	regulate/STIM_010.jpg
2130.417	2.469	correct	regulate	Run3	regulate/STIM_010.jpg
2136.755	2.316	correct	regulate	Run3	regulate/STIM_010.jpg
2141.336	1.546	correct	regulate	Run3	regulate/STIM_011.jpg
2145.396	1.129	correct	regulate	Run3	regulate/STIM_011.jpg
2150.462	2.565	correct	regulate	Run3	regulate/STIM_011.jpg
2156.595	1.676	correct	regulate	Run3	regulate/STIM_011.jpg
2161.976	1.778	correct	regulate	Run3	regulate/STIM_012.jpg
2167.667	1.886	correct	regulate	Run3	regulate/STIM_012.jpg
2171.782	2.013	correct	regulate	Run3	regulate/STIM_012.jpg
2177.279	2.582	correct	regulate	Run3	regulate/STIM_012.jpg
2182.082	1.346	correct	regulate	Run3	regulate/STIM_013.jpg
2186.156	2.147	correct	regulate	Run3	regulate/STIM_013.jpg
2190.442	1.464	correct	regulate	Run3	regulate/STIM_013.jpg
2194.328	2.335	correct	regulate	Run3	regulate/STIM_013.jpg
2199.7	1.446	correct	regulate	Run3	regulate/STIM_014.jpg
2204.406	2.17	correct	regulate	Run3	regulate/STIM_014.jpg
2208.942	1.582	correct	regulate	Run3	regulate/STIM_014.jpg
2213.878	2.268	correct	regulate	Run3	regulate/STIM_014.jpg
2218.235	1.97	correct	regulate	Run3	regulate/STIM_015.jpg
2222.328	1.884	correct	regulate	Run3	regulate/STIM_015.jpg
2227.507	2.03	correct	regulate	Run3	regulate/STIM_015.jpg
2231.708	1.827	correct	regulate	Run3	regulate/STIM_015.jpg
2236.811	2.513	correct	regulate	Run3	regulate/STIM_016.jpg
2242.794	1.291	correct	regulate	Run3	regulate/STIM_016.jpg
2246.155	1.534	correct	regulate	Run3	regulate/STIM_016.jpg
2249.701	2.497	correct	regulate	Run3	regulate/STIM_016.jpg
2255.131	2.262	correct	regulate	Run3	regulate/STIM_017.jpg
2261.071	1.288	correct	regulate	Run3	regulate/STIM_017.jpg
2265.11	1.339	correct	regulate	Run3	regulate/STIM_017.jpg
2268.704	1.202	correct	regulate	Run3	regulate/STIM_017.jpg
2273.736	1.172	correct	regulate	Run3	regulate/STIM_018.jpg
2278.57	2.083	correct	regulate	Run3	regulate/STIM_018.jpg
2283.481	1.982	correct	regulate	Run3	regulate/STIM_018.jpg
2287.983	2.153	correct	regulate	Run3	regulate/STIM_018.jpg
2293.066	2.118	correct	regulate	Run3	regulate/STIM_019.jpg
2298.911	1.829	correct	regulate	Run3	regulate/STIM_019.jpg
2304.06	2.492	correct	regulate	Run3	regulate/STIM_019.jpg
2309.519	1.791	correct	regulate	Run3	regulate/STIM_019.jpg
2315.181	1.593	correct	regulate	Run3	regulate/STIM_020.jpg
2319.291	2.317	correct	regulate	Run3	regulate/STIM_020.jpg
2324.321	1.861	correct	regulate	Run3	regulate/STIM_020.jpg
2328.683	1.229	correct	regulate	Run3	regulate/STIM_020.jpg
2333.192	1.511	correct	regulate	Run3	regulate/STIM_021.jpg
2336.969	2.381	correct	regulate	Run3	regulate/STIM_021.jpg
2342.365	1.816	correct	regulate	Run3	regulate/STIM_021.jpg
2347.094	2.245	correct	regulate	Run3	regulate/STIM_021.jpg
2351.973	1.4	correct	regulate	Run3	regulate/STIM_022.jpg
2356.948	2.219	correct	regulate	Run3	regulate/STIM_022.jpg
2361.652	1.926	correct	regulate	Run3	regulate/STIM_022.jpg
2366.988	1.504	correct	regulate	Run3	regulate/STIM_022.jpg
2372.438	1.594	correct	regulate	Run3	regulate/STIM_023.jpg
2377.467	2.481	correct	regulate	Run3	regulate/STIM_023.jpg
2382.089	1.764	correct	regulate	Run3	regulate/STIM_023.jpg
2387.436	1.797	correct	regulate	Run3	regulate/STIM_023.jpg
2391.981	2.105	correct	regulate	Run3	regulate/STIM_024.jpg
2397.406	2.447	correct	regulate	Run3	regulate/STIM_024.jpg
2402.446	2.282	correct	regulate	Run3	regulate/STIM_024.jpg
2407.388	1.697	correct	regulate	Run3	regulate/STIM_024.jpg
2411.436	1.312	correct	regulate	Run3	regulate/STIM_025.jpg
2415.609	2.09	correct	regulate	Run3	regulate/STIM_025.jpg
2420.554	1.609	correct	regulate	Run3	regulate/STIM_025.jpg
2424.774	1.426	correct	regulate	Run3	regulate/STIM_025.jpg
2429.474	2.009	correct	regulate	Run3	regulate/STIM_026.jpg
2433.645	1.486	correct	regulate	Run3	regulate/STIM_026.jpg
2438.515	1.753	correct	regulate	Run3	regulate/STIM_026.jpg
2443.989	2.215	correct	regulate	Run3	regulate/STIM_026.jpg
2448.234	2.533	correct	regulate	Run3	regulate/STIM_027.jpg
2453.647	1.258	correct	regulate	Run3	regulate/STIM_027.jpg
2458.61	1.178	correct	regulate	Run3	regulate/STIM_027.jpg
2462.931	1.303	correct	regulate	Run3	regulate/STIM_027.jpg
2466.256	1.409	correct	regulate	Run3	regulate/STIM_028.jpg
2471.345	1.368	correct	regulate	Run3	regulate/STIM_028.jpg
2475.253	1.722	correct	regulate	Run3	regulate/STIM_028.jpg
2480.833	1.862	correct	regulate	Run3	regulate/STIM_028.jpg
2486.505	1.393	correct	regulate	Run3	regulate/STIM_029.jpg
2491.441	1.186	correct	regulate	Run3	regulate/STIM_029.jpg
2495.007	1.891	correct	regulate	Run3	regulate/STIM_029.jpg
2499.637	2.093	correct	regulate	Run3	regulate/STIM_029.jpg
2504.666	1.059	correct	observe	Run3	observe/STIM_000.jpg
2508.739	1.277	correct	observe	Run3	observe/STIM_000.jpg
2513.84	1.456	correct	observe	Run3	observe/STIM_000.jpg
2517.832	1.461	correct	observe	Run3	observe/STIM_000.jpg
2522.715	1.396	correct	observe	Run3	observe/STIM_001.jpg
2526.604	0.992	correct	observe	Run3	observe/STIM_001.jpg
2531.403	1.131	correct	observe	Run3	observe/STIM_001.jpg
2535.19	1.124	correct	observe	Run3	observe/STIM_001.jpg
2539.448	1.04	correct	observe	Run3	observe/STIM_002.jpg
2543.787	1.426	correct	observe	Run3	observe/STIM_002.jpg
2548.47	1.591	correct	observe	Run3	observe/STIM_002.jpg
2552.404	1.454	correct	observe	Run3	observe/STIM_002.jpg
2557.495	1.373	correct	observe	Run3	observe/STIM_003.jpg
2562.352	1.214	correct	observe	Run3	observe/STIM_003.jpg
2567.226	0.91	correct	observe	Run3	observe/STIM_003.jpg
2571.217	1.031	correct	observe	Run3	observe/STIM_003.jpg
2576.106	1.239	correct	observe	Run3	observe/STIM_004.jpg
2579.582	1.124	correct	observe	Run3	observe/STIM_004.jpg
2584.186	1.186	correct	observe	Run3	observe/STIM_004.jpg
2587.882	1.066	correct	observe	Run3	observe/STIM_004.jpg
2591.615	1.29	correct	observe	Run3	observe/STIM_005.jpg
2595.447	1.099	correct	observe	Run3	observe/STIM_005.jpg
2600.244	1.628	correct	observe	Run3	observe/STIM_005.jpg
2605.767	1.47	correct	observe	Run3	observe/STIM_005.jpg
2609.624	1.512	correct	observe	Run3	observe/STIM_006.jpg
2613.861	1.107	correct	observe	Run3	observe/STIM_006.jpg
2617.549	1.661	correct	observe	Run3	observe/STIM_006.jpg
2622.118	1.132	correct	observe	Run3	observe/STIM_006.jpg
2625.643	1.626	correct	observe	Run3	observe/STIM_007.jpg
2630.773	1.333	correct	observe	Run3	observe/STIM_007.jpg
2634.683	1.12	correct	observe	Run3	observe/STIM_007.jpg
2639.042	0.885	incorrect	observe	Run3	observe/STIM_007.jpg
2642.85	1.015	correct	observe	Run3	observe/STIM_008.jpg
2647.584	1.009	correct	observe	Run3	observe/STIM_008.jpg
2651.39	1.198	correct	observe	Run3	observe/STIM_008.jpg
2655.578	1.105	correct	observe	Run3	observe/STIM_008.jpg
2658.782	1.582	correct	observe	Run3	observe/STIM_009.jpg
2663.902	0.922	correct	observe	Run3	observe/STIM_009.jpg
2667.061	1.639	correct	observe	Run3	observe/STIM_009.jpg
2670.807	1.012	correct	observe	Run3	observe/STIM_009.jpg
2674.985	1.012	correct	observe	Run3	observe/STIM_010.jpg
2678.05	1.679	correct	observe	Run3	observe/STIM_010.jpg
2683.104	1.337	correct	observe	Run3	observe/STIM_010.jpg
2688.114	0.954	correct	observe	Run3	observe/STIM_010.jpg
2692.683	1.441	correct	observe	Run3	observe/STIM_011.jpg
2697.585	1.581	correct	observe	Run3	observe/STIM_011.jpg
2702.249	1.338	correct	observe	Run3	observe/STIM_011.jpg
2706.897	1.418	correct	observe	Run3	observe/STIM_011.jpg
2710.83	1.143	correct	observe	Run3	observe/STIM_012.jpg
2715.215	1.467	correct	observe	Run3	observe/STIM_012.jpg
2719.158	1.496	correct	observe	Run3	observe/STIM_012.jpg
2723.021	1.305	incorrect	observe	Run3	observe/STIM_012.jpg
2727.616	0.852	correct	observe	Run3	observe/STIM_013.jpg
2730.529	1.015	correct	observe	Run3	observe/STIM_013.jpg
2734.442	1.027	correct	observe	Run3	observe/STIM_013.jpg
2739.068	1.495	correct	observe	Run3	observe/STIM_013.jpg
2743.237	1.366	correct	observe	Run3	observe/STIM_014.jpg
2747.411	0.997	correct	observe	Run3	observe/STIM_014.jpg
2751.725	0.925	correct	observe	Run3	observe/STIM_014.jpg
2755.52	1.477	correct	observe	Run3	observe/STIM_014.jpg
2760.326	1.298	correct	observe	Run3	observe/STIM_015.jpg
2763.984	1.137	correct	observe	Run3	observe/STIM_015.jpg
2768.742	1.24	correct	observe	Run3	observe/STIM_015.jpg
2773.96	1.203	correct	observe	Run3	observe/STIM_015.jpg
2778.595	1.188	correct	observe	Run3	observe/STIM_016.jpg
2783.72	1.467	correct	observe	Run3	observe/STIM_016.jpg
2787.242	0.869	correct	observe	Run3	observe/STIM_016.jpg
2791.93	0.97	correct	observe	Run3	observe/STIM_016.jpg
2796.465	1.184	correct	observe	Run3	observe/STIM_017.jpg
2800.06	1.333	correct	observe	Run3	observe/STIM_017.jpg
2803.684	1.044	correct	observe	Run3	observe/STIM_017.jpg
2807.298	1.603	correct	observe	Run3	observe/STIM_017.jpg
2810.997	1.479	correct	observe	Run3	observe/STIM_018.jpg
2815.698	0.96	correct	observe	Run3	observe/STIM_018.jpg
2819.723	1.491	correct	observe	Run3	observe/STIM_018.jpg
2823.893	1.062	correct	observe	Run3	observe/STIM_018.jpg
2827.105	0.916	correct	observe	Run3	observe/STIM_019.jpg
2831.994	0.944	correct	observe	Run3	observe/STIM_019.jpg
2836.706	0.908	correct	observe	Run3	observe/STIM_019.jpg
2841.214	1.247	correct	observe	Run3	observe/STIM_019.jpg
