onset	duration	accuracy_binary	trial_type	learning_stage	stimulus
0.0	2.363	1	navigation	Trial1	navigation/STIM_000.jpg
6.221	2.7	0	navigation	Trial1	navigation/STIM_000.jpg
12.958	3.449	0	navigation	Trial1	navigation/STIM_000.jpg
19.469	2.538	1	navigation	Trial1	navigation/STIM_000.jpg
25.038	3.058	1	navigation	Trial1	navigation/STIM_000.jpg
32.064	2.927	0	navigation	Trial1	navigation/STIM_000.jpg
37.642	3.823	1	navigation	Trial1	navigation/STIM_001.jpg
44.62	2.149	1	navigation	Trial1	navigation/STIM_001.jpg
49.742	3.39	1	navigation	Trial1	navigation/STIM_001.jpg
56.314	3.529	1	navigation	Trial1	navigation/STIM_001.jpg
62.765	1.373	1	navigation	Trial1	navigation/STIM_001.jpg
67.361	3.046	1	navigation	Trial1	navigation/STIM_001.jpg
74.58	4.232	1	navigation	Trial1	navigation/STIM_002.jpg
83.482	2.239	0	navigation	Trial1	navigation/STIM_002.jpg
89.18	3.369	1	navigation	Trial1	navigation/STIM_002.jpg
95.505	1.986	1	navigation	Trial1	navigation/STIM_002.jpg
101.609	1.43	1	navigation	Trial1	navigation/STIM_002.jpg
105.416	1.986	1	navigation	Trial1	navigation/STIM_002.jpg
110.05	2.855	1	navigation	Trial1	navigation/STIM_003.jpg
116.45	3.523	0	navigation	Trial1	navigation/STIM_003.jpg
123.415	1.769	1	navigation	Trial1	navigation/STIM_003.jpg
127.569	2.675	1	navigation	Trial1	navigation/STIM_003.jpg
133.902	1.694	1	navigation	Trial1	navigation/STIM_003.jpg
137.942	3.165	1	navigation	Trial1	navigation/STIM_003.jpg
143.639	2.957	0	navigation	Trial1	navigation/STIM_004.jpg
150.353	3.566	0	navigation	Trial1	navigation/STIM_004.jpg
157.884	1.611	1	navigation	Trial1	navigation/STIM_004.jpg
163.244	3.368	1	navigation	Trial1	navigation/STIM_004.jpg
170.344	3.208	1	navigation	Trial1	navigation/STIM_004.jpg
177.444	1.306	1	navigation	Trial1	navigation/STIM_004.jpg
181.376	1.784	0	navigation	Trial1	navigation/STIM_005.jpg
186.298	2.65	1	navigation	Trial1	navigation/STIM_005.jpg
193.036	3.501	0	navigation	Trial1	navigation/STIM_005.jpg
199.661	3.446	1	navigation	Trial1	navigation/STIM_005.jpg
207.462	2.31	0	navigation	Trial1	navigation/STIM_005.jpg
212.729	1.992	1	navigation	Trial1	navigation/STIM_005.jpg
217.565	1.999	1	navigation	Trial1	navigation/STIM_006.jpg
222.723	3.187	1	navigation	Trial1	navigation/STIM_006.jpg
229.509	1.991	1	navigation	Trial1	navigation/STIM_006.jpg
235.257	3.064	0	navigation	Trial1	navigation/STIM_006.jpg
241.968	3.076	0	navigation	Trial1	navigation/STIM_006.jpg
247.942	2.393	0	navigation	Trial1	navigation/STIM_006.jpg
253.652	3.343	1	navigation	Trial1	navigation/STIM_007.jpg
260.558	2.423	1	navigation	Trial1	navigation/STIM_007.jpg
267.346	3.356	1	navigation	Trial1	navigation/STIM_007.jpg
274.516	2.718	1	navigation	Trial1	navigation/STIM_007.jpg
280.484	2.606	1	navigation	Trial1	navigation/STIM_007.jpg
286.033	2.36	1	navigation	Trial1	navigation/STIM_007.jpg
290.937	2.971	0	navigation	Trial1	navigation/STIM_008.jpg
298.323	2.781	0	navigation	Trial1	navigation/STIM_008.jpg
304.451	2.778	1	navigation	Trial1	navigation/STIM_008.jpg
309.796	2.574	1	navigation	Trial1	navigation/STIM_008.jpg
316.458	2.12	1	navigation	Trial1	navigation/STIM_008.jpg
321.653	2.301	1	navigation	Trial1	navigation/STIM_008.jpg
326.821	2.665	1	navigation	Trial1	navigation/STIM_009.jpg
333.414	3.905	1	navigation	Trial1	navigation/STIM_009.jpg
340.197	1.924	1	navigation	Trial1	navigation/STIM_009.jpg
344.448	1.712	1	navigation	Trial1	navigation/STIM_009.jpg
349.14	2.36	1	navigation	Trial1	navigation/STIM_009.jpg
354.752	2.387	1	navigation	Trial1	navigation/STIM_009.jpg
360.146	3.674	1	navigation	Trial1	navigation/STIM_010.jpg
366.523	2.003	0	navigation	Trial1	navigation/STIM_010.jpg
371.607	3.71	0	navigation	Trial1	navigation/STIM_010.jpg
378.261	1.491	1	navigation	Trial1	navigation/STIM_010.jpg
382.037	2.148	0	navigation	Trial1	navigation/STIM_010.jpg
387.344	2.503	1	navigation	Trial1	navigation/STIM_010.jpg
392.359	2.741	1	navigation	Trial1	navigation/STIM_011.jpg
398.505	1.947	1	navigation	Trial1	navigation/STIM_011.jpg
403.089	3.087	0	navigation	Trial1	navigation/STIM_011.jpg
409.66	1.606	1	navigation	Trial1	navigation/STIM_011.jpg
413.633	1.875	1	navigation	Trial1	navigation/STIM_011.jpg
419.253	2.703	1	navigation	Trial1	navigation/STIM_011.jpg
424.456	0.86	1	pointing	Trial1	pointing/STIM_000.jpg
429.3	0.935	1	pointing	Trial1	pointing/STIM_000.jpg
433.216	0.856	1	pointing	Trial1	pointing/STIM_000.jpg
438.023	0.809	1	pointing	Trial1	pointing/STIM_000.jpg
442.505	0.978	1	pointing	Trial1	pointing/STIM_000.jpg
446.251	0.689	1	pointing	Trial1	pointing/STIM_000.jpg
450.632	0.907	1	pointing	Trial1	pointing/STIM_001.jpg
454.049	0.763	1	pointing	Trial1	pointing/STIM_001.jpg
457.716	1.251	1	pointing	Trial1	pointing/STIM_001.jpg
462.201	1.136	1	pointing	Trial1	pointing/STIM_001.jpg
465.849	1.252	1	pointing	Trial1	pointing/STIM_001.jpg
470.893	0.971	1	pointing	Trial1	pointing/STIM_001.jpg
474.315	0.831	1	pointing	Trial1	pointing/STIM_002.jpg
478.427	0.857	1	pointing	Trial1	pointing/STIM_002.jpg
482.99	0.846	1	pointing	Trial1	pointing/STIM_002.jpg
486.739	1.196	0	pointing	Trial1	pointing/STIM_002.jpg
491.056	1.126	0	pointing	Trial1	pointing/STIM_002.jpg
495.166	0.865	1	pointing	Trial1	pointing/STIM_002.jpg
499.153	1.27	1	pointing	Trial1	pointing/STIM_003.jpg
502.836	0.94	1	pointing	Trial1	pointing/STIM_003.jpg
507.899	0.919	1	pointing	Trial1	pointing/STIM_003.jpg
511.55	0.69	1	pointing	Trial1	pointing/STIM_003.jpg
515.653	1.105	1	pointing	Trial1	pointing/STIM_003.jpg
519.53	0.944	1	pointing	Trial1	pointing/STIM_003.jpg
522.765	1.23	1	pointing	Trial1	pointing/STIM_004.jpg
526.592	0.831	1	pointing	Trial1	pointing/STIM_004.jpg
531.389	1.069	1	pointing	Trial1	pointing/STIM_004.jpg
535.411	1.205	1	pointing	Trial1	pointing/STIM_004.jpg
540.638	1.178	0	pointing	Trial1	pointing/STIM_004.jpg
544.12	1.094	1	pointing	Trial1	pointing/STIM_004.jpg
549.059	0.768	1	pointing	Trial1	pointing/STIM_005.jpg
553.094	1.026	1	pointing	Trial1	pointing/STIM_005.jpg
557.046	0.804	1	pointing	Trial1	pointing/STIM_005.jpg
560.956	0.688	1	pointing	Trial1	pointing/STIM_005.jpg
564.962	1.16	1	pointing	Trial1	pointing/STIM_005.jpg
568.474	1.188	1	pointing	Trial1	pointing/STIM_005.jpg
573.241	1.168	1	pointing	Trial1	pointing/STIM_006.jpg
578.496	0.98	1	pointing	Trial1	pointing/STIM_006.jpg
583.306	1.253	1	pointing	Trial1	pointing/STIM_006.jpg
587.138	1.14	1	pointing	Trial1	pointing/STIM_006.jpg
591.241	0.698	1	pointing	Trial1	pointing/STIM_006.jpg
595.933	1.167	1	pointing	Trial1	pointing/STIM_006.jpg
600.782	1.061	0	pointing	Trial1	pointing/STIM_007.jpg
605.251	0.772	1	pointing	Trial1	pointing/STIM_007.jpg
608.851	0.839	1	pointing	Trial1	pointing/STIM_007.jpg
613.021	1.021	1	pointing	Trial1	pointing/STIM_007.jpg
617.843	1.054	0	pointing	Trial1	pointing/STIM_007.jpg
623.009	1.206	1	pointing	Trial1	pointing/STIM_007.jpg
628.053	1.262	1	pointing	Trial1	pointing/STIM_008.jpg
631.791	0.76	1	pointing	Trial1	pointing/STIM_008.jpg
634.868	1.175	1	pointing	Trial1	pointing/STIM_008.jpg
639.334	0.713	1	pointing	Trial1	pointing/STIM_008.jpg
642.717	0.771	1	pointing	Trial1	pointing/STIM_008.jpg
645.711	0.776	1	pointing	Trial1	pointing/STIM_008.jpg
649.001	0.953	1	pointing	Trial1	pointing/STIM_009.jpg
653.979	0.867	1	pointing	Trial1	pointing/STIM_009.jpg
658.092	1.112	1	pointing	Trial1	pointing/STIM_009.jpg
662.051	1.149	1	pointing	Trial1	pointing/STIM_009.jpg
666.391	0.769	1	pointing	Trial1	pointing/STIM_009.jpg
669.561	0.733	1	pointing	Trial1	pointing/STIM_009.jpg
674.356	1.279	1	pointing	Trial1	pointing/STIM_010.jpg
678.079	1.257	1	pointing	Trial1	pointing/STIM_010.jpg
682.677	0.728	1	pointing	Trial1	pointing/STIM_010.jpg
687.076	0.759	1	pointing	Trial1	pointing/STIM_010.jpg
691.012	0.773	1	pointing	Trial1	pointing/STIM_010.jpg
695.185	1.107	1	pointing	Trial1	pointing/STIM_010.jpg
700.054	0.969	1	pointing	Trial1	pointing/STIM_011.jpg
704.675	0.737	1	pointing	Trial1	pointing/STIM_011.jpg
708.048	1.238	1	pointing	Trial1	pointing/STIM_011.jpg
712.459	0.871	1	pointing	Trial1	pointing/STIM_011.jpg
715.971	1.125	1	pointing	Trial1	pointing/STIM_011.jpg
721.187	1.168	1	pointing	Trial1	pointing/STIM_011.jpg
725.205	1.482	1	navigation	Trial2	navigation/STIM_000.jpg
729.29	1.918	0	navigation	Trial2	navigation/STIM_000.jpg
734.441	2.331	0	navigation	Trial2	navigation/STIM_000.jpg
740.573	2.733	0	navigation	Trial2	navigation/STIM_000.jpg
747.671	1.439	1	navigation	Trial2	navigation/STIM_000.jpg
752.437	1.411	1	navigation	Trial2	navigation/STIM_000.jpg
756.38	2.953	1	navigation	Trial2	navigation/STIM_001.jpg
762.096	1.643	0	navigation	Trial2	navigation/STIM_001.jpg
766.122	2.26	1	navigation	Trial2	navigation/STIM_001.jpg
770.896	1.621	1	navigation	Trial2	navigation/STIM_001.jpg
776.291	2.872	1	navigation	Trial2	navigation/STIM_001.jpg
782.37	2.749	1	navigation	Trial2	navigation/STIM_001.jpg
788.347	2.867	1	navigation	Trial2	navigation/STIM_002.jpg
794.419	1.469	0	navigation	Trial2	navigation/STIM_002.jpg
798.472	2.227	1	navigation	Trial2	navigation/STIM_002.jpg
803.981	2.61	1	navigation	Trial2	navigation/STIM_002.jpg
810.954	1.841	1	navigation	Trial2	navigation/STIM_002.jpg
815.849	2.78	1	navigation	Trial2	navigation/STIM_002.jpg
822.189	3.161	1	navigation	Trial2	navigation/STIM_003.jpg
829.532	2.607	1	navigation	Trial2	navigation/STIM_003.jpg
834.84	2.928	1	navigation	Trial2	navigation/STIM_003.jpg
841.835	1.281	1	navigation	Trial2	navigation/STIM_003.jpg
847.309	1.533	1	navigation	Trial2	navigation/STIM_003.jpg
851.224	2.67	0	navigation	Trial2	navigation/STIM_003.jpg
856.884	3.014	1	navigation	Trial2	navigation/STIM_004.jpg
863.774	1.856	1	navigation	Trial2	navigation/STIM_004.jpg
868.652	1.582	1	navigation	Trial2	navigation/STIM_004.jpg
873.086	2.563	1	navigation	Trial2	navigation/STIM_004.jpg
878.786	1.489	1	navigation	Trial2	navigation/STIM_004.jpg
884.321	2.918	1	navigation	Trial2	navigation/STIM_004.jpg
890.403	2.048	1	navigation	Trial2	navigation/STIM_005.jpg
895.054	1.695	1	navigation	Trial2	navigation/STIM_005.jpg
900.084	1.785	1	navigation	Trial2	navigation/STIM_005.jpg
904.99	2.625	0	navigation	Trial2	navigation/STIM_005.jpg
911.732	2.852	1	navigation	Trial2	navigation/STIM_005.jpg
917.243	2.364	1	navigation	Trial2	navigation/STIM_005.jpg
923.314	2.686	0	navigation	Trial2	navigation/STIM_006.jpg
929.733	2.726	1	navigation	Trial2	navigation/STIM_006.jpg
935.991	2.651	1	navigation	Trial2	navigation/STIM_006.jpg
941.242	2.375	1	navigation	Trial2	navigation/STIM_006.jpg
946.371	1.691	1	navigation	Trial2	navigation/STIM_006.jpg
950.821	1.615	1	navigation	Trial2	navigation/STIM_006.jpg
956.185	1.558	1	navigation	Trial2	navigation/STIM_007.jpg
960.171	1.478	0	navigation	Trial2	navigation/STIM_007.jpg
964.266	2.439	1	navigation	Trial2	navigation/STIM_007.jpg
969.453	1.852	1	navigation	Trial2	navigation/STIM_007.jpg
975.03	1.313	1	navigation	Trial2	navigation/STIM_007.jpg
979.61	1.89	1	navigation	Trial2	navigation/STIM_007.jpg
985.085	2.389	1	navigation	Trial2	navigation/STIM_008.jpg
990.451	2.546	1	navigation	Trial2	navigation/STIM_008.jpg
996.533	3.088	1	navigation	Trial2	navigation/STIM_008.jpg
1002.93	2.388	0	navigation	Trial2	navigation/STIM_008.jpg
1007.861	1.542	1	navigation	Trial2	navigation/STIM_008.jpg
1013.302	2.468	1	navigation	Trial2	navigation/STIM_008.jpg
1019.266	2.38	1	navigation	Trial2	navigation/STIM_009.jpg
1025.68	2.812	1	navigation	Trial2	navigation/STIM_009.jpg
1031.528	1.799	1	navigation	Trial2	navigation/STIM_009.jpg
1035.913	1.778	1	navigation	Trial2	navigation/STIM_009.jpg
1040.773	1.595	1	navigation	Trial2	navigation/STIM_009.jpg
1045.052	1.822	1	navigation	Trial2	navigation/STIM_009.jpg
1050.963	2.139	0	navigation	Trial2	navigation/STIM_010.jpg
1056.902	2.631	1	navigation	Trial2	navigation/STIM_010.jpg
1063.443	1.546	1	navigation	Trial2	navigation/STIM_010.jpg
1068.203	2.566	1	navigation	Trial2	navigation/STIM_010.jpg
1073.673	2.022	0	navigation	Trial2	navigation/STIM_010.jpg
1078.254	1.418	0	navigation	Trial2	navigation/STIM_010.jpg
1082.972	3.007	1	navigation	Trial2	navigation/STIM_011.jpg
1089.549	3.235	1	navigation	Trial2	navigation/STIM_011.jpg
1097.078	3.15	1	navigation	Trial2	navigation/STIM_011.jpg
1104.119	2.78	1	navigation	Trial2	navigation/STIM_011.jpg
1110.781	1.528	1	navigation	Trial2	navigation/STIM_011.jpg
1114.98	2.173	1	navigation	Trial2	navigation/STIM_011.jpg
1120.983	1.079	1	pointing	Trial2	pointing/STIM_000.jpg
1125.02	1.006	1	pointing	Trial2	pointing/STIM_000.jpg
1129.965	0.839	0	pointing	Trial2	pointing/STIM_000.jpg
1132.957	1.077	1	pointing	Trial2	pointing/STIM_000.jpg
1138.077	1.072	1	pointing	Trial2	pointing/STIM_000.jpg
1142.727	1.043	1	pointing	Trial2	pointing/STIM_000.jpg
1147.235	1.239	1	pointing	Trial2	pointing/STIM_001.jpg
1151.154	0.966	0	pointing	Trial2	pointing/STIM_001.jpg
1156.034	1.171	1	pointing	Trial2	pointing/STIM_001.jpg
1159.68	1.249	1	pointing	Trial2	pointing/STIM_001.jpg
1163.378	0.844	1	pointing	Trial2	pointing/STIM_001.jpg
1167.893	1.073	1	pointing	Trial2	pointing/STIM_001.jpg
1171.338	1.036	0	pointing	Trial2	pointing/STIM_002.jpg
1175.935	0.773	1	pointing	Trial2	pointing/STIM_002.jpg
1180.607	1.012	1	pointing	Trial2	pointing/STIM_002.jpg
1185.513	0.928	1	pointing	Trial2	pointing/STIM_002.jpg
1190.101	0.878	1	pointing	Trial2	pointing/STIM_002.jpg
1193.249	1.247	1	pointing	Trial2	pointing/STIM_002.jpg
1196.766	0.692	1	pointing	Trial2	pointing/STIM_003.jpg
1199.892	0.934	0	pointing	Trial2	pointing/STIM_003.jpg
1203.15	0.795	1	pointing	Trial2	pointing/STIM_003.jpg
1206.64	0.965	1	pointing	Trial2	pointing/STIM_003.jpg
1210.547	0.815	1	pointing	Trial2	pointing/STIM_003.jpg
1213.553	0.778	1	pointing	Trial2	pointing/STIM_003.jpg
1217.326	0.927	1	pointing	Trial2	pointing/STIM_004.jpg
1221.716	0.992	1	pointing	Trial2	pointing/STIM_004.jpg
1225.59	0.978	1	pointing	Trial2	pointing/STIM_004.jpg
1229.414	0.895	1	pointing	Trial2	pointing/STIM_004.jpg
1234.005	1.231	1	pointing	Trial2	pointing/STIM_004.jpg
1238.145	0.72	1	pointing	Trial2	pointing/STIM_004.jpg
1242.528	0.771	1	pointing	Trial2	pointing/STIM_005.jpg
1247.157	1.064	1	pointing	Trial2	pointing/STIM_005.jpg
1251.852	0.714	1	pointing	Trial2	pointing/STIM_005.jpg
1254.912	1.084	1	pointing	Trial2	pointing/STIM_005.jpg
1260.152	1.199	1	pointing	Trial2	pointing/STIM_005.jpg
1263.924	0.707	1	pointing	Trial2	pointing/STIM_005.jpg
1266.909	0.967	1	pointing	Trial2	pointing/STIM_006.jpg
1270.408	1.034	1	pointing	Trial2	pointing/STIM_006.jpg
1275.409	0.92	1	pointing	Trial2	pointing/STIM_006.jpg
1279.896	0.79	1	pointing	Trial2	pointing/STIM_006.jpg
1284.704	0.693	1	pointing	Trial2	pointing/STIM_006.jpg
1288.441	1.131	1	pointing	Trial2	pointing/STIM_006.jpg
1292.755	1.237	1	pointing	Trial2	pointing/STIM_007.jpg
1297.972	1.169	1	pointing	Trial2	pointing/STIM_007.jpg
1302.045	1.067	1	pointing	Trial2	pointing/STIM_007.jpg
1305.362	1.108	1	pointing	Trial2	pointing/STIM_007.jpg
1310.469	0.977	1	pointing	Trial2	pointing/STIM_007.jpg
1315.311	0.687	1	pointing	Trial2	pointing/STIM_007.jpg
1320.087	0.803	1	pointing	Trial2	pointing/STIM_008.jpg
1324.979	1.108	1	pointing	Trial2	pointing/STIM_008.jpg
1329.949	1.275	0	pointing	Trial2	pointing/STIM_008.jpg
1334.373	0.771	1	pointing	Trial2	pointing/STIM_008.jpg
1337.864	1.09	1	pointing	Trial2	pointing/STIM_008.jpg
1341.776	0.742	1	pointing	Trial2	pointing/STIM_008.jpg
1344.962	1.046	1	pointing	Trial2	pointing/STIM_009.jpg
1349.34	0.843	1	pointing	Trial2	pointing/STIM_009.jpg
1352.687	1.087	1	pointing	Trial2	pointing/STIM_009.jpg
1357.924	1.202	1	pointing	Trial2	pointing/STIM_009.jpg
1361.384	1.136	1	pointing	Trial2	pointing/STIM_009.jpg
1365.404	0.829	1	pointing	Trial2	pointing/STIM_009.jpg
1370.348	1.132	1	pointing	Trial2	pointing/STIM_010.jpg
1373.818	0.915	1	pointing	Trial2	pointing/STIM_010.jpg
1378.132	1.06	1	pointing	Trial2	pointing/STIM_010.jpg
1382.915	0.725	1	pointing	Trial2	pointing/STIM_010.jpg
1387.003	1.283	1	pointing	Trial2	pointing/STIM_010.jpg
1390.77	1.147	1	pointing	Trial2	pointing/STIM_010.jpg
1394.442	1.228	0	pointing	Trial2	pointing/STIM_011.jpg
1397.967	0.924	1	pointing	Trial2	pointing/STIM_011.jpg
1402.154	1.11	1	pointing	Trial2	pointing/STIM_011.jpg
1407.141	0.876	1	pointing	Trial2	pointing/STIM_011.jpg
1410.521	0.736	1	pointing	Trial2	pointing/STIM_011.jpg
1414.108	0.696	1	pointing	Trial2	pointing/STIM_011.jpg
1418.028	1.295	1	navigation	Trial3	navigation/STIM_000.jpg
1422.685	1.626	1	navigation	Trial3	navigation/STIM_000.jpg
1428.311	2.203	1	navigation	Trial3	navigation/STIM_000.jpg
1434.385	2.503	1	navigation	Trial3	navigation/STIM_000.jpg
1440.162	1.206	1	navigation	Trial3	navigation/STIM_000.jpg
1443.873	2.642	1	navigation	Trial3	navigation/STIM_000.jpg
1449.21	1.276	1	navigation	Trial3	navigation/STIM_001.jpg
1454.627	2.601	1	navigation	Trial3	navigation/STIM_001.jpg
1459.953	1.623	1	navigation	Trial3	navigation/STIM_001.jpg
1464.36	1.688	1	navigation	Trial3	navigation/STIM_001.jpg
1469.218	2.983	1	navigation	Trial3	navigation/STIM_001.jpg
1476.064	1.964	0	navigation	Trial3	navigation/STIM_001.jpg
1482.171	1.418	1	navigation	Trial3	navigation/STIM_002.jpg
1486.859	2.528	0	navigation	Trial3	navigation/STIM_002.jpg
1492.566	1.58	1	navigation	Trial3	navigation/STIM_002.jpg
1497.99	2.18	1	navigation	Trial3	navigation/STIM_002.jpg
1502.903	2.102	1	navigation	Trial3	navigation/STIM_002.jpg
1508.501	2.405	1	navigation	Trial3	navigation/STIM_002.jpg
1514.616	2.083	1	navigation	Trial3	navigation/STIM_003.jpg
1521.001	2.973	1	navigation	Trial3	navigation/STIM_003.jpg
1527.293	1.979	1	navigation	Trial3	navigation/STIM_003.jpg
1531.647	1.679	1	navigation	Trial3	navigation/STIM_003.jpg
1537.508	2.11	1	navigation	Trial3	navigation/STIM_003.jpg
1543.477	1.964	1	navigation	Trial3	navigation/STIM_003.jpg
1548.057	2.972	1	navigation	Trial3	navigation/STIM_004.jpg
1555.433	2.255	1	navigation	Trial3	navigation/STIM_004.jpg
1560.934	2.848	1	navigation	Trial3	navigation/STIM_004.jpg
1567.304	1.958	1	navigation	Trial3	navigation/STIM_004.jpg
1573.285	1.518	1	navigation	Trial3	navigation/STIM_004.jpg
1578.001	2.511	1	navigation	Trial3	navigation/STIM_004.jpg
1584.716	1.985	1	navigation	Trial3	navigation/STIM_005.jpg
1589.333	2.106	0	navigation	Trial3	navigation/STIM_005.jpg
1593.906	2.564	1	navigation	Trial3	navigation/STIM_005.jpg
1599.294	2.299	1	navigation	Trial3	navigation/STIM_005.jpg
1605.746	1.845	1	navigation	Trial3	navigation/STIM_005.jpg
1611.089	2.62	1	navigation	Trial3	navigation/STIM_005.jpg
1617.374	2.223	1	navigation	Trial3	navigation/STIM_006.jpg
1622.106	2.347	1	navigation	Trial3	navigation/STIM_006.jpg
1628.787	2.672	1	navigation	Trial3	navigation/STIM_006.jpg
1635.652	2.056	1	navigation	Trial3	navigation/STIM_006.jpg
1640.938	1.5	1	navigation	Trial3	navigation/STIM_006.jpg
1644.772	1.579	1	navigation	Trial3	navigation/STIM_006.jpg
1649.539	1.554	1	navigation	Trial3	navigation/STIM_007.jpg
1655.301	1.36	0	navigation	Trial3	navigation/STIM_007.jpg
1659.901	1.916	1	navigation	Trial3	navigation/STIM_007.jpg
1664.422	1.561	1	navigation	Trial3	navigation/STIM_007.jpg
1669.018	1.466	1	navigation	Trial3	navigation/STIM_007.jpg
1673.409	1.992	1	navigation	Trial3	navigation/STIM_007.jpg
1679.137	2.002	1	navigation	Trial3	navigation/STIM_008.jpg
1684.483	1.495	1	navigation	Trial3	navigation/STIM_008.jpg
1688.636	2.062	0	navigation	Trial3	navigation/STIM_008.jpg
1693.559	1.562	1	navigation	Trial3	navigation/STIM_008.jpg
1698.941	1.654	1	navigation	Trial3	navigation/STIM_008.jpg
1704.363	2.284	1	navigation	Trial3	navigation/STIM_008.jpg
1709.215	1.964	1	navigation	Trial3	navigation/STIM_009.jpg
1715.255	2.537	1	navigation	Trial3	navigation/STIM_009.jpg
1720.784	2.275	1	navigation	Trial3	navigation/STIM_009.jpg
1726.397	1.513	1	navigation	Trial3	navigation/STIM_009.jpg
1730.336	1.361	1	navigation	Trial3	navigation/STIM_009.jpg
1735.629	2.028	1	navigation	Trial3	navigation/STIM_009.jpg
1741.06	1.932	1	navigation	Trial3	navigation/STIM_010.jpg
1746.309	1.94	1	navigation	Trial3	navigation/STIM_010.jpg
1752.002	2.198	1	navigation	Trial3	navigation/STIM_010.jpg
1758.549	1.279	1	navigation	Trial3	navigation/STIM_010.jpg
1762.077	2.727	0	navigation	Trial3	navigation/STIM_010.jpg
1767.969	2.759	1	navigation	Trial3	navigation/STIM_010.jpg
1775.063	2.519	1	navigation	Trial3	navigation/STIM_011.jpg
1780.043	1.573	1	navigation	Trial3	navigation/STIM_011.jpg
1785.549	1.236	1	navigation	Trial3	navigation/STIM_011.jpg
1789.194	1.508	1	navigation	Trial3	navigation/STIM_011.jpg
1793.189	1.703	1	navigation	Trial3	navigation/STIM_011.jpg
1797.534	2.944	1	navigation	Trial3	navigation/STIM_011.jpg
1803.548	0.891	1	pointing	Trial3	pointing/STIM_000.jpg
1807.944	0.82	1	pointing	Trial3	pointing/STIM_000.jpg
1812.393	0.686	1	pointing	Trial3	pointing/STIM_000.jpg
1815.203	0.91	1	pointing	Trial3	pointing/STIM_000.jpg
1819.418	1.151	1	pointing	Trial3	pointing/STIM_000.jpg
1822.858	0.91	1	pointing	Trial3	pointing/STIM_000.jpg
1827.059	0.857	0	pointing	Trial3	pointing/STIM_001.jpg
1831.454	1.267	1	pointing	Trial3	pointing/STIM_001.jpg
1835.952	0.858	1	pointing	Trial3	pointing/STIM_001.jpg
1840.403	0.705	1	pointing	Trial3	pointing/STIM_001.jpg
1844.214	1.154	1	pointing	Trial3	pointing/STIM_001.jpg
1848.308	1.173	1	pointing	Trial3	pointing/STIM_001.jpg
1852.872	0.812	1	pointing	Trial3	pointing/STIM_002.jpg
1856.869	1.153	1	pointing	Trial3	pointing/STIM_002.jpg
1861.034	0.81	1	pointing	Trial3	pointing/STIM_002.jpg
1865.463	0.768	1	pointing	Trial3	pointing/STIM_002.jpg
1869.509	0.796	1	pointing	Trial3	pointing/STIM_002.jpg
1873.05	0.908	1	pointing	Trial3	pointing/STIM_002.jpg
1876.595	0.75	1	pointing	Trial3	pointing/STIM_003.jpg
1880.525	0.986	1	pointing	Trial3	pointing/STIM_003.jpg
1885.473	1.013	1	pointing	Trial3	pointing/STIM_003.jpg
1888.763	0.879	0	pointing	Trial3	pointing/STIM_003.jpg
1893.056	1.277	1	pointing	Trial3	pointing/STIM_003.jpg
1898.065	1.152	1	pointing	Trial3	pointing/STIM_003.jpg
1903.334	1.01	1	pointing	Trial3	pointing/STIM_004.jpg
1908.195	1.231	1	pointing	Trial3	pointing/STIM_004.jpg
1911.744	0.832	1	pointing	Trial3	pointing/STIM_004.jpg
1914.779	0.895	1	pointing	Trial3	pointing/STIM_004.jpg
1918.334	1.173	1	pointing	Trial3	pointing/STIM_004.jpg
1922.343	1.205	1	pointing	Trial3	pointing/STIM_004.jpg
1927.244	0.8	1	pointing	Trial3	pointing/STIM_005.jpg
1932.043	0.908	1	pointing	Trial3	pointing/STIM_005.jpg
1936.44	0.914	1	pointing	Trial3	pointing/STIM_005.jpg
1939.663	0.802	1	pointing	Trial3	pointing/STIM_005.jpg
1944.408	1.022	1	pointing	Trial3	pointing/STIM_005.jpg
1948.182	1.164	1	pointing	Trial3	pointing/STIM_005.jpg
1952.128	1.107	1	pointing	Trial3	pointing/STIM_006.jpg
1956.49	1.281	1	pointing	Trial3	pointing/STIM_006.jpg
1961.934	1.1	1	pointing	Trial3	pointing/STIM_006.jpg
1965.846	1.07	1	pointing	Trial3	pointing/STIM_006.jpg
1970.847	1.125	1	pointing	Trial3	pointing/STIM_006.jpg
1974.72	0.79	1	pointing	Trial3	pointing/STIM_006.jpg
1979.071	1.156	1	pointing	Trial3	pointing/STIM_007.jpg
1983.055	0.924	0	pointing	Trial3	pointing/STIM_007.jpg
1986.95	0.708	1	pointing	Trial3	pointing/STIM_007.jpg
1990.711	0.739	0	pointing	Trial3	pointing/STIM_007.jpg
1994.381	0.874	1	pointing	Trial3	pointing/STIM_007.jpg
1998.381	1.175	1	pointing	Trial3	pointing/STIM_007.jpg
2002.273	1.278	1	pointing	Trial3	pointing/STIM_008.jpg
2007.295	0.91	1	pointing	Trial3	pointing/STIM_008.jpg
2011.945	0.707	1	pointing	Trial3	pointing/STIM_008.jpg
2015.107	1.074	1	pointing	Trial3	pointing/STIM_008.jpg
2019.733	0.961	1	pointing	Trial3	pointing/STIM_008.jpg
2024.011	0.996	1	pointing	Trial3	pointing/STIM_008.jpg
2028.707	0.904	1	pointing	Trial3	pointing/STIM_009.jpg
2032.499	1.21	1	pointing	Trial3	pointing/STIM_009.jpg
2036.307	0.75	1	pointing	Trial3	pointing/STIM_009.jpg
2040.252	1.0	1	pointing	Trial3	pointing/STIM_009.jpg
2044.023	0.702	1	pointing	Trial3	pointing/STIM_009.jpg
2047.011	0.975	1	pointing	Trial3	pointing/STIM_009.jpg
2050.908	1.097	1	pointing	Trial3	pointing/STIM_010.jpg
2055.235	0.762	1	pointing	Trial3	pointing/STIM_010.jpg
2058.571	1.248	1	pointing	Trial3	pointing/STIM_010.jpg
2063.777	0.705	1	pointing	Trial3	pointing/STIM_010.jpg
2068.079	0.908	1	pointing	Trial3	pointing/STIM_010.jpg
2072.15	0.952	1	pointing	Trial3	pointing/STIM_010.jpg
2075.335	0.691	1	pointing	Trial3	pointing/STIM_011.jpg
2080.013	0.73	1	pointing	Trial3	pointing/STIM_011.jpg
2083.411	0.726	1	pointing	Trial3	pointing/STIM_011.jpg
2087.464	0.691	1	pointing	Trial3	pointing/STIM_011.jpg
2091.858	1.195	0	pointing	Trial3	pointing/STIM_011.jpg
2095.31	1.139	1	pointing	Trial3	pointing/STIM_011.jpg
