onset	duration	response_time_ms	trial_type	learning_stage	stimulus	response_port
0.0	1.782	1781.5	regulate	Run1	regulate/STIM_000.jpg	99
5.501	1.285	1285.3	regulate	Run1	regulate/STIM_000.jpg	100
10.355	1.904	1904.5	regulate	Run1	regulate/STIM_000.jpg	99
15.496	1.669	1669.1	regulate	Run1	regulate/STIM_000.jpg	100
19.94	1.818	1817.9	regulate	Run1	regulate/STIM_001.jpg	99
25.047	2.283	2283.4	regulate	Run1	regulate/STIM_001.jpg	100
30.834	1.898	1898.3	regulate	Run1	regulate/STIM_001.jpg	99
36.405	1.3	1300.0	regulate	Run1	regulate/STIM_001.jpg	99
40.943	2.765	2764.8	regulate	Run1	regulate/STIM_002.jpg	99
46.229	1.684	1683.6	regulate	Run1	regulate/STIM_002.jpg	100
51.666	1.768	1768.0	regulate	Run1	regulate/STIM_002.jpg	99
57.224	1.07	1070.2	regulate	Run1	regulate/STIM_002.jpg	99
61.955	1.667	1666.7	regulate	Run1	regulate/STIM_003.jpg	99
67.19	2.433	2432.8	regulate	Run1	regulate/STIM_003.jpg	100
72.991	1.761	1760.6	regulate	Run1	regulate/STIM_003.jpg	100
77.245	1.36	1359.6	regulate	Run1	regulate/STIM_003.jpg	100
82.568	1.284	1283.5	regulate	Run1	regulate/STIM_004.jpg	100
87.889	1.792	1791.8	regulate	Run1	regulate/STIM_004.jpg	99
92.317	1.84	1840.2	regulate	Run1	regulate/STIM_004.jpg	99
97.316	2.062	2061.5	regulate	Run1	regulate/STIM_004.jpg	99
102.447	1.796	1796.5	regulate	Run1	regulate/STIM_005.jpg	99
107.006	1.45	1450.5	regulate	Run1	regulate/STIM_005.jpg	99
112.665	1.616	1616.0	regulate	Run1	regulate/STIM_005.jpg	100
117.896	1.786	1786.4	regulate	Run1	regulate/STIM_005.jpg	100
123.234	2.528	2527.8	regulate	Run1	regulate/STIM_006.jpg	99
128.187	2.564	2564.5	regulate	Run1	regulate/STIM_006.jpg	100
134.102	2.085	2085.2	regulate	Run1	regulate/STIM_006.jpg	99
138.952	1.786	1785.8	regulate	Run1	regulate/STIM_006.jpg	99
143.883	2.711	2710.9	regulate	Run1	regulate/STIM_007.jpg	100
150.689	1.183	1183.2	regulate	Run1	regulate/STIM_007.jpg	100
155.643	1.819	1819.0	regulate	Run1	regulate/STIM_007.jpg	99
161.478	1.836	1835.6	regulate	Run1	regulate/STIM_007.jpg	100
167.451	1.987	1986.6	regulate	Run1	regulate/STIM_008.jpg	100
173.621	2.648	2648.1	regulate	Run1	regulate/STIM_008.jpg	100
178.862	2.621	2621.2	regulate	Run1	regulate/STIM_008.jpg	100
184.077	1.193	1192.8	regulate	Run1	regulate/STIM_008.jpg	99
187.919	1.308	1308.4	regulate	Run1	regulate/STIM_009.jpg	99
192.606	1.819	1819.0	regulate	Run1	regulate/STIM_009.jpg	100
197.976	2.111	2110.6	regulate	Run1	regulate/STIM_009.jpg	100
204.13	2.303	2303.3	regulate	Run1	regulate/STIM_009.jpg	100
209.886	2.583	2583.2	regulate	Run1	regulate/STIM_010.jpg	99
214.815	2.586	2586.2	regulate	Run1	regulate/STIM_010.jpg	99
221.185	1.173	1173.1	regulate	Run1	regulate/STIM_010.jpg	100
226.296	2.086	2086.1	regulate	Run1	regulate/STIM_010.jpg	99
231.668	1.95	1949.6	regulate	Run1	regulate/STIM_011.jpg	99
236.356	2.374	2373.8	regulate	Run1	regulate/STIM_011.jpg	99
242.174	1.419	1418.7	regulate	Run1	regulate/STIM_011.jpg	99
246.278	1.486	1486.0	regulate	Run1	regulate/STIM_011.jpg	100
251.197	2.749	2749.1	regulate	Run1	regulate/STIM_012.jpg	99
257.723	2.534	2533.7	regulate	Run1	regulate/STIM_012.jpg	99
263.341	1.733	1733.1	regulate	Run1	regulate/STIM_012.jpg	100
267.956	1.47	1470.0	regulate	Run1	regulate/STIM_012.jpg	100
272.215	1.852	1851.5	regulate	Run1	regulate/STIM_013.jpg	100
277.755	2.351	2351.0	regulate	Run1	regulate/STIM_013.jpg	99
282.61	1.744	1743.6	regulate	Run1	regulate/STIM_013.jpg	100
288.541	2.285	2284.9	regulate	Run1	regulate/STIM_013.jpg	99
293.256	1.738	1738.5	regulate	Run1	regulate/STIM_014.jpg	100
298.12	1.818	1817.9	regulate	Run1	regulate/STIM_014.jpg	100
303.313	1.703	1703.1	regulate	Run1	regulate/STIM_014.jpg	100
308.882	1.484	1484.0	regulate	Run1	regulate/STIM_014.jpg	99
313.776	1.706	1706.3	regulate	Run1	regulate/STIM_015.jpg	100
318.816	1.872	1871.7	regulate	Run1	regulate/STIM_015.jpg	99
323.315	1.112	1111.6	regulate	Run1	regulate/STIM_015.jpg	100
327.652	2.051	2051.0	regulate	Run1	regulate/STIM_015.jpg	100
332.366	1.875	1874.8	regulate	Run1	regulate/STIM_016.jpg	100
338.545	2.102	2102.1	regulate	Run1	regulate/STIM_016.jpg	100
344.861	1.742	1741.5	regulate	Run1	regulate/STIM_016.jpg	99
350.029	1.324	1323.7	regulate	Run1	regulate/STIM_016.jpg	100
355.45	2.897	2897.2	regulate	Run1	regulate/STIM_017.jpg	99
362.098	1.377	1377.3	regulate	Run1	regulate/STIM_017.jpg	99
367.22	1.499	1499.2	regulate	Run1	regulate/STIM_017.jpg	100
371.923	1.178	1178.4	regulate	Run1	regulate/STIM_017.jpg	99
377.141	1.474	1474.3	regulate	Run1	regulate/STIM_018.jpg	99
380.948	2.574	2574.2	regulate	Run1	regulate/STIM_018.jpg	99
386.407	2.396	2396.5	regulate	Run1	regulate/STIM_018.jpg	100
391.727	1.163	1163.4	regulate	Run1	regulate/STIM_018.jpg	100
395.623	1.599	1599.4	regulate	Run1	regulate/STIM_019.jpg	100
400.363	1.74	1739.6	regulate	Run1	regulate/STIM_019.jpg	99
404.522	2.406	2406.5	regulate	Run1	regulate/STIM_019.jpg	100
410.506	1.885	1885.2	regulate	Run1	regulate/STIM_019.jpg	100
416.628	2.97	2969.7	regulate	Run1	regulate/STIM_020.jpg	100
423.447	2.14	2140.3	regulate	Run1	regulate/STIM_020.jpg	100
428.016	1.265	1265.1	regulate	Run1	regulate/STIM_020.jpg	100
432.004	2.154	2154.4	regulate	Run1	regulate/STIM_020.jpg	100
437.057	2.758	2758.1	regulate	Run1	regulate/STIM_021.jpg	99
442.871	2.503	2503.0	regulate	Run1	regulate/STIM_021.jpg	99
448.155	1.315	1314.9	regulate	Run1	regulate/STIM_021.jpg	99
453.17	2.566	2565.9	regulate	Run1	regulate/STIM_021.jpg	99
459.241	2.246	2246.3	regulate	Run1	regulate/STIM_022.jpg	100
463.902	2.305	2305.4	regulate	Run1	regulate/STIM_022.jpg	99
469.694	1.266	1266.3	regulate	Run1	regulate/STIM_022.jpg	100
474.502	2.463	2462.8	regulate	Run1	regulate/STIM_022.jpg	100
480.438	2.011	2011.0	regulate	Run1	regulate/STIM_023.jpg	100
485.211	2.815	2815.1	regulate	Run1	regulate/STIM_023.jpg	100
492.016	1.674	1674.2	regulate	Run1	regulate/STIM_023.jpg	100
497.107	1.779	1779.0	regulate	Run1	regulate/STIM_023.jpg	100
501.284	1.273	1273.3	regulate	Run1	regulate/STIM_024.jpg	100
505.075	2.486	2486.0	regulate	Run1	regulate/STIM_024.jpg	100
511.404	1.227	1226.6	regulate	Run1	regulate/STIM_024.jpg	99
515.775	1.118	1118.2	regulate	Run1	regulate/STIM_024.jpg	99
519.704	1.581	1581.3	regulate	Run1	regulate/STIM_025.jpg	99
523.902	2.244	2244.0	regulate	Run1	regulate/STIM_025.jpg	99
529.445	2.663	2662.8	regulate	Run1	regulate/STIM_025.jpg	99
534.881	2.508	2508.3	regulate	Run1	regulate/STIM_025.jpg	100
541.217	1.85	1850.1	regulate	Run1	regulate/STIM_026.jpg	100
545.844	2.468	2468.4	regulate	Run1	regulate/STIM_026.jpg	99
551.52	2.54	2540.3	regulate	Run1	regulate/STIM_026.jpg	99
558.059	1.264	1263.6	regulate	Run1	regulate/STIM_026.jpg	99
562.621	2.471	2470.7	regulate	Run1	regulate/STIM_027.jpg	100
569.396	2.433	2432.6	regulate	Run1	regulate/STIM_027.jpg	100
575.437	2.06	2059.7	regulate	Run1	regulate/STIM_027.jpg	100
580.058	1.959	1959.0	regulate	Run1	regulate/STIM_027.jpg	100
586.013	2.999	2998.9	regulate	Run1	regulate/STIM_028.jpg	99
591.818	1.272	1272.5	regulate	Run1	regulate/STIM_028.jpg	99
595.331	1.748	1748.2	regulate	Run1	regulate/STIM_028.jpg	99
601.201	2.219	2218.8	regulate	Run1	regulate/STIM_028.jpg	99
606.48	2.038	2038.1	regulate	Run1	regulate/STIM_029.jpg	99
611.383	1.53	1530.2	regulate	Run1	regulate/STIM_029.jpg	99
615.544	1.236	1236.5	regulate	Run1	regulate/STIM_029.jpg	100
620.833	2.124	2124.1	regulate	Run1	regulate/STIM_029.jpg	100
625.308	1.194	1193.9	observe	Run1	observe/STIM_000.jpg	99
629.322	0.774	773.8	observe	Run1	observe/STIM_000.jpg	100
632.52	0.881	880.6	observe	Run1	observe/STIM_000.jpg	100
636.575	1.077	1076.8	observe	Run1	observe/STIM_000.jpg	100
640.64	0.895	894.7	observe	Run1	observe/STIM_001.jpg	100
643.826	1.333	1332.8	observe	Run1	observe/STIM_001.jpg	99
647.582	1.131	1131.3	observe	Run1	observe/STIM_001.jpg	100
652.525	0.732	731.7	observe	Run1	observe/STIM_001.jpg	100
656.814	1.34	1339.6	observe	Run1	observe/STIM_002.jpg	99
661.89	1.241	1240.7	observe	Run1	observe/STIM_002.jpg	99
666.635	1.143	1143.4	observe	Run1	observe/STIM_002.jpg	100
670.434	1.221	1220.6	observe	Run1	observe/STIM_002.jpg	100
674.912	1.295	1295.2	observe	Run1	observe/STIM_003.jpg	100
680.249	1.146	1146.0	observe	Run1	observe/STIM_003.jpg	100
684.303	0.994	994.4	observe	Run1	observe/STIM_003.jpg	100
687.69	0.882	882.4	observe	Run1	observe/STIM_003.jpg	100
692.381	1.356	1356.5	observe	Run1	observe/STIM_004.jpg	100
697.426	1.114	1113.9	observe	Run1	observe/STIM_004.jpg	100
702.081	1.084	1084.3	observe	Run1	observe/STIM_004.jpg	99
705.743	0.75	750.1	observe	Run1	observe/STIM_004.jpg	99
709.901	1.012	1011.7	observe	Run1	observe/STIM_005.jpg	100
713.907	0.686	685.7	observe	Run1	observe/STIM_005.jpg	99
716.966	1.007	1006.6	observe	Run1	observe/STIM_005.jpg	99
720.961	1.255	1255.3	observe	Run1	observe/STIM_005.jpg	100
725.526	0.871	871.4	observe	Run1	observe/STIM_006.jpg	100
729.454	1.177	1176.9	observe	Run1	observe/STIM_006.jpg	99
733.998	1.184	1183.5	observe	Run1	observe/STIM_006.jpg	99
738.027	1.178	1178.0	observe	Run1	observe/STIM_006.jpg	100
742.929	1.258	1258.4	observe	Run1	observe/STIM_007.jpg	99
747.284	0.913	912.6	observe	Run1	observe/STIM_007.jpg	99
750.271	0.866	866.2	observe	Run1	observe/STIM_007.jpg	99
754.251	0.858	857.5	observe	Run1	observe/STIM_007.jpg	99
758.591	1.326	1326.2	observe	Run1	observe/STIM_008.jpg	99
762.28	1.098	1098.3	observe	Run1	observe/STIM_008.jpg	99
766.212	1.126	1126.5	observe	Run1	observe/STIM_008.jpg	100
771.294	0.988	988.0	observe	Run1	observe/STIM_008.jpg	100
776.098	1.26	1260.4	observe	Run1	observe/STIM_009.jpg	99
781.026	0.946	946.0	observe	Run1	observe/STIM_009.jpg	100
784.305	1.146	1145.6	observe	Run1	observe/STIM_009.jpg	99
789.123	1.13	1129.5	observe	Run1	observe/STIM_009.jpg	100
794.175	1.107	1106.8	observe	Run1	observe/STIM_010.jpg	99
799.111	0.819	819.1	observe	Run1	observe/STIM_010.jpg	100
804.018	0.841	841.3	observe	Run1	observe/STIM_010.jpg	100
807.519	0.707	706.7	observe	Run1	observe/STIM_010.jpg	99
811.477	0.766	765.8	observe	Run1	observe/STIM_011.jpg	100
816.014	1.182	1181.6	observe	Run1	observe/STIM_011.jpg	100
819.821	0.792	792.0	observe	Run1	observe/STIM_011.jpg	100
824.683	1.165	1165.2	observe	Run1	observe/STIM_011.jpg	99
828.98	0.618	617.9	observe	Run1	observe/STIM_012.jpg	99
832.475	1.309	1308.9	observe	Run1	observe/STIM_012.jpg	100
836.398	0.933	932.8	observe	Run1	observe/STIM_012.jpg	100
841.146	0.843	842.9	observe	Run1	observe/STIM_012.jpg	99
845.652	0.863	863.1	observe	Run1	observe/STIM_013.jpg	100
849.261	1.378	1378.4	observe	Run1	observe/STIM_013.jpg	99
852.966	0.875	875.0	observe	Run1	observe/STIM_013.jpg	99
856.388	1.174	1174.2	observe	Run1	observe/STIM_013.jpg	100
861.638	1.13	1130.1	observe	Run1	observe/STIM_014.jpg	100
865.273	1.313	1313.0	observe	Run1	observe/STIM_014.jpg	99
869.556	1.213	1213.2	observe	Run1	observe/STIM_014.jpg	99
874.527	1.01	1009.8	observe	Run1	observe/STIM_014.jpg	100
878.233	1.238	1238.4	observe	Run1	observe/STIM_015.jpg	99
882.216	0.931	930.6	observe	Run1	observe/STIM_015.jpg	99
885.669	1.092	1092.2	observe	Run1	observe/STIM_015.jpg	99
888.972	1.117	1116.8	observe	Run1	observe/STIM_015.jpg	100
892.241	1.192	1191.6	observe	Run1	observe/STIM_016.jpg	99
896.668	0.824	824.4	observe	Run1	observe/STIM_016.jpg	100
900.122	1.046	1046.1	observe	Run1	observe/STIM_016.jpg	100
904.306	0.731	730.9	observe	Run1	observe/STIM_016.jpg	100
908.229	1.404	1404.4	observe	Run1	observe/STIM_017.jpg	100
913.407	0.849	849.3	observe	Run1	observe/STIM_017.jpg	99
916.984	1.228	1227.5	observe	Run1	observe/STIM_017.jpg	99
922.074	0.937	936.7	observe	Run1	observe/STIM_017.jpg	100
925.432	0.81	809.5	observe	Run1	observe/STIM_018.jpg	99
929.094	0.943	942.9	observe	Run1	observe/STIM_018.jpg	99
932.425	1.123	1123.1	observe	Run1	observe/STIM_018.jpg	100
937.415	1.244	1243.8	observe	Run1	observe/STIM_018.jpg	99
942.786	1.031	1030.9	observe	Run1	observe/STIM_019.jpg	99
945.988	0.729	729.1	observe	Run1	observe/STIM_019.jpg	100
950.435	0.785	785.4	observe	Run1	observe/STIM_019.jpg	100
954.235	1.286	1286.3	observe	Run1	observe/STIM_019.jpg	100
959.658	2.448	2448.0	regulate	Run2	regulate/STIM_000.jpg	100
965.481	2.337	2336.9	regulate	Run2	regulate/STIM_000.jpg	100
970.472	1.114	1113.7	regulate	Run2	regulate/STIM_000.jpg	99
974.018	1.198	1197.7	regulate	Run2	regulate/STIM_000.jpg	100
978.395	1.805	1805.0	regulate	Run2	regulate/STIM_001.jpg	99
984.271	1.796	1796.5	regulate	Run2	regulate/STIM_001.jpg	100
989.082	1.898	1897.7	regulate	Run2	regulate/STIM_001.jpg	100
993.565	1.936	1935.5	regulate	Run2	regulate/STIM_001.jpg	99
998.455	1.134	1134.4	regulate	Run2	regulate/STIM_002.jpg	99
1002.891	2.481	2481.4	regulate	Run2	regulate/STIM_002.jpg	100
1008.339	1.431	1431.1	regulate	Run2	regulate/STIM_002.jpg	99
1012.315	2.022	2022.0	regulate	Run2	regulate/STIM_002.jpg	99
1018.431	2.26	2259.7	regulate	Run2	regulate/STIM_003.jpg	99
1024.683	1.809	1809.2	regulate	Run2	regulate/STIM_003.jpg	99
1029.33	1.003	1003.3	regulate	Run2	regulate/STIM_003.jpg	100
1033.817	0.972	972.5	regulate	Run2	regulate/STIM_003.jpg	100
1038.541	1.568	1568.3	regulate	Run2	regulate/STIM_004.jpg	99
1042.719	1.143	1143.0	regulate	Run2	regulate/STIM_004.jpg	99
1046.027	1.913	1912.7	regulate	Run2	regulate/STIM_004.jpg	99
1051.582	1.156	1156.4	regulate	Run2	regulate/STIM_004.jpg	100
1055.258	2.262	2262.1	regulate	Run2	regulate/STIM_005.jpg	100
1061.845	1.36	1359.5	regulate	Run2	regulate/STIM_005.jpg	100
1066.103	1.213	1213.2	regulate	Run2	regulate/STIM_005.jpg	99
1070.018	2.038	2038.3	regulate	Run2	regulate/STIM_005.jpg	100
1075.208	2.568	2568.5	regulate	Run2	regulate/STIM_006.jpg	99
1080.311	1.035	1034.6	regulate	Run2	regulate/STIM_006.jpg	100
1084.735	2.169	2168.9	regulate	Run2	regulate/STIM_006.jpg	99
1090.62	1.503	1503.3	regulate	Run2	regulate/STIM_006.jpg	99
1095.564	2.125	2125.1	regulate	Run2	regulate/STIM_007.jpg	100
1100.979	1.984	1984.2	regulate	Run2	regulate/STIM_007.jpg	100
1105.733	1.196	1196.3	regulate	Run2	regulate/STIM_007.jpg	99
1110.703	1.046	1046.0	regulate	Run2	regulate/STIM_007.jpg	100
1114.611	1.308	1307.6	regulate	Run2	regulate/STIM_008.jpg	99
1119.099	2.091	2091.2	regulate	Run2	regulate/STIM_008.jpg	99
1123.829	1.681	1680.7	regulate	Run2	regulate/STIM_008.jpg	99
1129.555	1.818	1818.4	regulate	Run2	regulate/STIM_008.jpg	100
1135.481	2.257	2257.2	regulate	Run2	regulate/STIM_009.jpg	99
1140.977	1.32	1319.5	regulate	Run2	regulate/STIM_009.jpg	100
1145.814	2.107	2107.4	regulate	Run2	regulate/STIM_009.jpg	100
1151.812	1.471	1470.6	regulate	Run2	regulate/STIM_009.jpg	99
1155.882	2.496	2495.6	regulate	Run2	regulate/STIM_010.jpg	100
1162.527	1.226	1225.6	regulate	Run2	regulate/STIM_010.jpg	100
1167.176	1.815	1815.4	regulate	Run2	regulate/STIM_010.jpg	100
1173.062	1.636	1635.7	regulate	Run2	regulate/STIM_010.jpg	99
1178.534	2.129	2129.1	regulate	Run2	regulate/STIM_011.jpg	100
1183.343	2.102	2102.5	regulate	Run2	regulate/STIM_011.jpg	100
1188.359	1.634	1633.5	regulate	Run2	regulate/STIM_011.jpg	100
1193.564	1.874	1874.1	regulate	Run2	regulate/STIM_011.jpg	99
1197.804	1.977	1976.8	regulate	Run2	regulate/STIM_012.jpg	100
1203.206	2.164	2163.6	regulate	Run2	regulate/STIM_012.jpg	99
1208.687	1.976	1976.4	regulate	Run2	regulate/STIM_012.jpg	100
1213.522	1.498	1498.3	regulate	Run2	regulate/STIM_012.jpg	100
1218.838	1.498	1497.5	regulate	Run2	regulate/STIM_013.jpg	99
1223.65	2.174	2174.1	regulate	Run2	regulate/STIM_013.jpg	99
1229.566	1.618	1618.4	regulate	Run2	regulate/STIM_013.jpg	99
1235.068	1.215	1215.0	regulate	Run2	regulate/STIM_013.jpg	100
1238.496	2.265	2264.6	regulate	Run2	regulate/STIM_014.jpg	100
1244.299	1.402	1401.5	regulate	Run2	regulate/STIM_014.jpg	99
1249.49	0.919	919.1	regulate	Run2	regulate/STIM_014.jpg	100
1253.819	2.006	2005.6	regulate	Run2	regulate/STIM_014.jpg	99
1259.246	1.529	1529.1	regulate	Run2	regulate/STIM_015.jpg	100
1262.991	1.052	1051.6	regulate	Run2	regulate/STIM_015.jpg	100
1266.442	2.14	2140.2	regulate	Run2	regulate/STIM_015.jpg	100
1271.631	0.963	962.7	regulate	Run2	regulate/STIM_015.jpg	100
1276.114	1.527	1526.8	regulate	Run2	regulate/STIM_016.jpg	100
1281.807	1.579	1579.0	regulate	Run2	regulate/STIM_016.jpg	100
1286.571	1.6	1600.4	regulate	Run2	regulate/STIM_016.jpg	99
1291.846	1.296	1295.9	regulate	Run2	regulate/STIM_016.jpg	100
1296.558	2.155	2154.9	regulate	Run2	regulate/STIM_017.jpg	99
1301.086	1.518	1518.2	regulate	Run2	regulate/STIM_017.jpg	99
1305.743	1.244	1243.9	regulate	Run2	regulate/STIM_017.jpg	100
1310.144	1.381	1381.0	regulate	Run2	regulate/STIM_017.jpg	99
1313.859	1.756	1756.1	regulate	Run2	regulate/STIM_018.jpg	99
1318.825	1.444	1444.3	regulate	Run2	regulate/STIM_018.jpg	100
1324.214	1.141	1140.9	regulate	Run2	regulate/STIM_018.jpg	100
1328.565	1.438	1437.6	regulate	Run2	regulate/STIM_018.jpg	100
1332.834	1.04	1040.1	regulate	Run2	regulate/STIM_019.jpg	100
1337.55	2.094	2093.8	regulate	Run2	regulate/STIM_019.jpg	99
1342.702	1.413	1413.3	regulate	Run2	regulate/STIM_019.jpg	99
1347.445	1.287	1286.7	regulate	Run2	regulate/STIM_019.jpg	100
1351.901	2.317	2316.9	regulate	Run2	regulate/STIM_020.jpg	100
1357.954	2.022	2021.8	regulate	Run2	regulate/STIM_020.jpg	100
1363.466	1.212	1212.3	regulate	Run2	regulate/STIM_020.jpg	99
1366.866	1.964	1964.5	regulate	Run2	regulate/STIM_020.jpg	99
1372.147	1.821	1820.6	regulate	Run2	regulate/STIM_021.jpg	100
1378.174	2.154	2153.9	regulate	Run2	regulate/STIM_021.jpg	99
1384.527	1.531	1531.2	regulate	Run2	regulate/STIM_021.jpg	99
1388.31	1.991	1991.1	regulate	Run2	regulate/STIM_021.jpg	99
1393.053	2.118	2118.1	regulate	Run2	regulate/STIM_022.jpg	100
1397.602	2.29	2290.1	regulate	Run2	regulate/STIM_022.jpg	99
1402.734	1.861	1860.9	regulate	Run2	regulate/STIM_022.jpg	99
1407.89	1.602	1602.5	regulate	Run2	regulate/STIM_022.jpg	100
1412.498	1.9	1900.3	regulate	Run2	regulate/STIM_023.jpg	100
1418.132	1.793	1792.6	regulate	Run2	regulate/STIM_023.jpg	99
1423.468	2.077	2076.6	regulate	Run2	regulate/STIM_023.jpg	99
1428.478	2.067	2066.6	regulate	Run2	regulate/STIM_023.jpg	100
1434.155	1.495	1495.0	regulate	Run2	regulate/STIM_024.jpg	99
1439.366	1.509	1508.6	regulate	Run2	regulate/STIM_024.jpg	100
1443.886	1.807	1807.4	regulate	Run2	regulate/STIM_024.jpg	100
1449.312	1.295	1295.1	regulate	Run2	regulate/STIM_024.jpg	99
1454.626	1.457	1457.1	regulate	Run2	regulate/STIM_025.jpg	100
1459.976	1.839	1838.8	regulate	Run2	regulate/STIM_025.jpg	100
1465.717	1.75	1749.6	regulate	Run2	regulate/STIM_025.jpg	99
1471.587	0.987	987.3	regulate	Run2	regulate/STIM_025.jpg	99
1475.624	1.28	1279.7	regulate	Run2	regulate/STIM_026.jpg	99
1479.901	1.672	1672.3	regulate	Run2	regulate/STIM_026.jpg	99
1484.841	2.107	2107.1	regulate	Run2	regulate/STIM_026.jpg	100
1489.88	0.944	944.0	regulate	Run2	regulate/STIM_026.jpg	99
1494.495	1.33	1329.7	regulate	Run2	regulate/STIM_027.jpg	100
1499.737	1.501	1500.8	regulate	Run2	regulate/STIM_027.jpg	99
1505.155	1.818	1818.4	regulate	Run2	regulate/STIM_027.jpg	99
1510.006	1.343	1343.0	regulate	Run2	regulate/STIM_027.jpg	99
1513.846	1.267	1266.9	regulate	Run2	regulate/STIM_028.jpg	100
1517.844	1.59	1590.5	regulate	Run2	regulate/STIM_028.jpg	100
1522.869	2.084	2084.0	regulate	Run2	regulate/STIM_028.jpg	99
1528.104	1.17	1170.4	regulate	Run2	regulate/STIM_028.jpg	99
1533.462	1.538	1538.5	regulate	Run2	regulate/STIM_029.jpg	100
1538.396	2.038	2038.0	regulate	Run2	regulate/STIM_029.jpg	99
1543.574	1.371	1371.4	regulate	Run2	regulate/STIM_029.jpg	99
1547.992	1.509	1508.7	regulate	Run2	regulate/STIM_029.jpg	99
1553.048	1.186	1185.9	observe	Run2	observe/STIM_000.jpg	99
1557.178	1.144	1143.6	observe	Run2	observe/STIM_000.jpg	100
1562.178	0.809	809.4	observe	Run2	observe/STIM_000.jpg	100
1566.208	1.27	1270.4	observe	Run2	observe/STIM_000.jpg	99
1569.903	0.99	990.3	observe	Run2	observe/STIM_001.jpg	99
1574.397	1.169	1169.2	observe	Run2	observe/STIM_001.jpg	99
1578.025	1.227	1227.2	observe	Run2	observe/STIM_001.jpg	100
1581.733	1.332	1332.3	observe	Run2	observe/STIM_001.jpg	100
1587.036	0.817	816.8	observe	Run2	observe/STIM_002.jpg	100
1591.43	0.854	853.9	observe	Run2	observe/STIM_002.jpg	99
1596.159	1.356	1356.4	observe	Run2	observe/STIM_002.jpg	99
1601.014	1.132	1131.8	observe	Run2	observe/STIM_002.jpg	99
1605.954	0.809	808.6	observe	Run2	observe/STIM_003.jpg	99
1608.955	1.374	1373.9	observe	Run2	observe/STIM_003.jpg	100
1612.88	0.787	787.0	observe	Run2	observe/STIM_003.jpg	99
1616.838	1.228	1228.0	observe	Run2	observe/STIM_003.jpg	99
1621.024	0.914	913.8	observe	Run2	observe/STIM_004.jpg	99
1625.157	0.855	854.9	observe	Run2	observe/STIM_004.jpg	100
1629.165	1.154	1153.6	observe	Run2	observe/STIM_004.jpg	100
1634.351	1.022	1021.9	observe	Run2	observe/STIM_004.jpg	100
1638.56	0.842	841.6	observe	Run2	observe/STIM_005.jpg	99
1642.329	0.818	818.1	observe	Run2	observe/STIM_005.jpg	99
1646.29	1.215	1215.2	observe	Run2	observe/STIM_005.jpg	99
1649.857	1.275	1274.7	observe	Run2	observe/STIM_005.jpg	100
1653.979	0.975	974.9	observe	Run2	observe/STIM_006.jpg	100
1657.897	1.284	1284.1	observe	Run2	observe/STIM_006.jpg	100
1662.268	0.962	961.9	observe	Run2	observe/STIM_006.jpg	99
1666.381	1.419	1418.8	observe	Run2	observe/STIM_006.jpg	99
1671.762	1.202	1202.4	observe	Run2	observe/STIM_007.jpg	99
1676.96	1.402	1402.5	observe	Run2	observe/STIM_007.jpg	100
1680.767	0.905	905.3	observe	Run2	observe/STIM_007.jpg	99
1684.946	1.172	1171.9	observe	Run2	observe/STIM_007.jpg	99
1688.564	1.217	1217.0	observe	Run2	observe/STIM_008.jpg	100
1693.245	1.197	1197.4	observe	Run2	observe/STIM_008.jpg	99
1698.466	1.123	1122.9	observe	Run2	observe/STIM_008.jpg	99
1703.562	1.222	1222.0	observe	Run2	observe/STIM_008.jpg	100
1707.795	0.975	975.2	observe	Run2	observe/STIM_009.jpg	100
1711.89	1.19	1189.7	observe	Run2	observe/STIM_009.jpg	99
1717.264	0.881	880.8	observe	Run2	observe/STIM_009.jpg	100
1721.495	0.919	918.9	observe	Run2	observe/STIM_009.jpg	100
1725.78	1.31	1309.5	observe	Run2	observe/STIM_010.jpg	100
1731.285	0.977	977.4	observe	Run2	observe/STIM_010.jpg	100
1736.309	0.884	884.1	observe	Run2	observe/STIM_010.jpg	100
1740.81	1.224	1223.9	observe	Run2	observe/STIM_010.jpg	100
1745.046	1.077	1077.1	observe	Run2	observe/STIM_011.jpg	100
1750.22	0.944	943.9	observe	Run2	observe/STIM_011.jpg	100
1754.891	1.287	1287.4	observe	Run2	observe/STIM_011.jpg	100
1758.949	0.818	817.8	observe	Run2	observe/STIM_011.jpg	99
1762.923	1.232	1232.0	observe	Run2	observe/STIM_012.jpg	100
1767.737	1.364	1363.5	observe	Run2	observe/STIM_012.jpg	100
1772.835	0.954	954.4	observe	Run2	observe/STIM_012.jpg	100
1777.422	0.742	741.5	observe	Run2	observe/STIM_012.jpg	100
1781.953	0.91	910.2	observe	Run2	observe/STIM_013.jpg	99
1786.674	0.86	859.6	observe	Run2	observe/STIM_013.jpg	100
1790.118	1.142	1141.5	observe	Run2	observe/STIM_013.jpg	99
1795.31	1.022	1021.9	observe	Run2	observe/STIM_013.jpg	99
1800.01	0.812	812.4	observe	Run2	observe/STIM_014.jpg	99
1804.533	1.141	1140.7	observe	Run2	observe/STIM_014.jpg	100
1809.15	0.807	807.3	observe	Run2	observe/STIM_014.jpg	100
1812.319	0.747	746.8	observe	Run2	observe/STIM_014.jpg	100
1816.663	0.776	776.4	observe	Run2	observe/STIM_015.jpg	99
1820.153	1.02	1019.5	observe	Run2	observe/STIM_015.jpg	100
1824.758	1.324	1323.9	observe	Run2	observe/STIM_015.jpg	99
1828.22	0.818	817.5	observe	Run2	observe/STIM_015.jpg	99
1832.065	1.377	1376.9	observe	Run2	observe/STIM_016.jpg	100
1836.806	1.067	1067.3	observe	Run2	observe/STIM_016.jpg	99
1841.601	0.839	839.0	observe	Run2	observe/STIM_016.jpg	100
1846.09	0.837	836.9	observe	Run2	observe/STIM_016.jpg	99
1849.242	1.425	1425.3	observe	Run2	observe/STIM_017.jpg	100
1853.046	1.139	1139.3	observe	Run2	observe/STIM_017.jpg	99
1857.186	1.244	1243.9	observe	Run2	observe/STIM_017.jpg	99
1861.692	1.135	1134.9	observe	Run2	observe/STIM_017.jpg	99
1865.462	0.616	616.4	observe	Run2	observe/STIM_018.jpg	100
1868.282	1.207	1206.9	observe	Run2	observe/STIM_018.jpg	100
1872.649	1.098	1098.2	observe	Run2	observe/STIM_018.jpg	100
1876.16	0.82	819.9	observe	Run2	observe/STIM_018.jpg	99
1879.195	1.099	1099.2	observe	Run2	observe/STIM_019.jpg	100
1882.935	1.196	1196.3	observe	Run2	observe/STIM_019.jpg	100
1888.141	0.956	955.6	observe	Run2	observe/STIM_019.jpg	100
1892.325	1.121	1120.8	observe	Run2	observe/STIM_019.jpg	100
1896.599	1.841	1841.3	regulate	Run3	regulate/STIM_000.jpg	100
1902.62	1.842	1841.7	regulate	Run3	regulate/STIM_000.jpg	100
1906.913	1.144	1144.0	regulate	Run3	regulate/STIM_000.jpg	99
1912.242	0.995	994.6	regulate	Run3	regulate/STIM_000.jpg	100
1915.673	1.141	1141.4	regulate	Run3	regulate/STIM_001.jpg	99
1919.184	1.364	1364.2	regulate	Run3	regulate/STIM_001.jpg	99
1923.615	2.091	2090.7	regulate	Run3	regulate/STIM_001.jpg	99
1928.53	2.125	2124.6	regulate	Run3	regulate/STIM_001.jpg	100
1933.304	1.905	1904.6	regulate	Run3	regulate/STIM_002.jpg	100
1938.645	1.895	1894.9	regulate	Run3	regulate/STIM_002.jpg	99
1943.015	1.327	1327.1	regulate	Run3	regulate/STIM_002.jpg	99
1948.032	0.971	971.3	regulate	Run3	regulate/STIM_002.jpg	99
1951.902	1.224	1224.0	regulate	Run3	regulate/STIM_003.jpg	99
1955.625	1.998	1998.2	regulate	Run3	regulate/STIM_003.jpg	99
1960.969	1.557	1557.1	regulate	Run3	regulate/STIM_003.jpg	99
1965.467	1.533	1532.9	regulate	Run3	regulate/STIM_003.jpg	100
1970.239	1.371	1370.8	regulate	Run3	regulate/STIM_004.jpg	99
1974.734	1.327	1327.2	regulate	Run3	regulate/STIM_004.jpg	99
1979.146	1.215	1214.8	regulate	Run3	regulate/STIM_004.jpg	100
1982.689	0.899	899.0	regulate	Run3	regulate/STIM_004.jpg	100
1987.423	1.105	1104.7	regulate	Run3	regulate/STIM_005.jpg	100
1991.768	1.081	1080.6	regulate	Run3	regulate/STIM_005.jpg	99
1996.748	2.141	2141.0	regulate	Run3	regulate/STIM_005.jpg	99
2001.644	1.495	1494.6	regulate	Run3	regulate/STIM_005.jpg	100
2006.385	1.158	1158.2	regulate	Run3	regulate/STIM_006.jpg	99
2009.725	1.62	1620.1	regulate	Run3	regulate/STIM_006.jpg	99
2014.907	1.916	1915.7	regulate	Run3	regulate/STIM_006.jpg	99
2019.676	1.437	1437.3	regulate	Run3	regulate/STIM_006.jpg	99
2024.301	1.552	1552.5	regulate	Run3	regulate/STIM_007.jpg	99
2028.498	1.011	1011.3	regulate	Run3	regulate/STIM_007.jpg	99
2033.338	1.599	1599.3	regulate	Run3	regulate/STIM_007.jpg	100
2037.933	1.444	1443.7	regulate	Run3	regulate/STIM_007.jpg	100
2041.848	1.805	1804.7	regulate	Run3	regulate/STIM_008.jpg	99
2047.628	1.594	1594.0	regulate	Run3	regulate/STIM_008.jpg	100
2051.735	1.128	1128.3	regulate	Run3	regulate/STIM_008.jpg	99
2056.975	1.372	1371.8	regulate	Run3	regulate/STIM_008.jpg	100
2061.54	1.76	1760.5	regulate	Run3	regulate/STIM_009.jpg	99
2066.347	1.45	1450.4	regulate	Run3	regulate/STIM_009.jpg	99
2070.738	1.895	1895.2	regulate	Run3	regulate/STIM_009.jpg	99
2076.444	1.512	1511.6	regulate	Run3	regulate/STIM_009.jpg	99
2081.206	1.94	1940.4	regulate	Run3	regulate/STIM_010.jpg	100
2086.373	2.063	2062.8	regulate	Run3	regulate/STIM_010.jpg	99
2092.189	1.818	1817.5	regulate	Run3	regulate/STIM_010.jpg	99
2097.741	1.185	1184.8	regulate	Run3	regulate/STIM_010.jpg	100
2102.756	1.858	1857.6	regulate	Run3	regulate/STIM_011.jpg	99
2107.138	2.099	2099.1	regulate	Run3	regulate/STIM_011.jpg	100
2112.816	1.147	1147.2	regulate	Run3	regulate/STIM_011.jpg	100
2117.617	1.943	1943.4	regulate	Run3	regulate/STIM_011.jpg	99
2123.53	1.913	1912.9	regulate	Run3	regulate/STIM_012.jpg	100
2128.266	2.108	2107.9	regulate	Run3	regulate/STIM_012.jpg	100
2133.712	1.363	1363.0	regulate	Run3	regulate/STIM_012.jpg	100
2138.993	1.97	1970.3	regulate	Run3	regulate/STIM_012.jpg	99
2144.37	1.736	1735.6	regulate	Run3	regulate/STIM_013.jpg	99
2149.63	0.908	907.6	regulate	Run3	regulate/STIM_013.jpg	100
2154.639	1.716	1716.3	regulate	Run3	regulate/STIM_013.jpg	100
2159.824	1.677	1676.7	regulate	Run3	regulate/STIM_013.jpg	99
2165.229	1.321	1320.7	regulate	Run3	regulate/STIM_014.jpg	100
2170.635	1.966	1966.0	regulate	Run3	regulate/STIM_014.jpg	99
2174.997	1.787	1787.2	regulate	Run3	regulate/STIM_014.jpg	99
2179.681	1.451	1450.6	regulate	Run3	regulate/STIM_014.jpg	99
2183.642	2.091	2091.2	regulate	Run3	regulate/STIM_015.jpg	100
2189.743	1.229	1228.9	regulate	Run3	regulate/STIM_015.jpg	100
2193.564	1.333	1333.0	regulate	Run3	regulate/STIM_015.jpg	100
2198.227	1.133	1133.0	regulate	Run3	regulate/STIM_015.jpg	99
2201.73	2.022	2022.1	regulate	Run3	regulate/STIM_016.jpg	100
2206.498	1.094	1094.4	regulate	Run3	regulate/STIM_016.jpg	100
2211.663	1.284	1284.1	regulate	Run3	regulate/STIM_016.jpg	100
2215.459	0.881	880.7	regulate	Run3	regulate/STIM_016.jpg	100
2219.625	1.845	1844.6	regulate	Run3	regulate/STIM_017.jpg	100
2224.136	0.901	900.9	regulate	Run3	regulate/STIM_017.jpg	100
2227.651	1.362	1361.8	regulate	Run3	regulate/STIM_017.jpg	99
2232.162	0.938	938.3	regulate	Run3	regulate/STIM_017.jpg	100
2236.511	0.989	989.4	regulate	Run3	regulate/STIM_018.jpg	100
2241.013	1.169	1168.9	regulate	Run3	regulate/STIM_018.jpg	99
2245.487	1.634	1634.4	regulate	Run3	regulate/STIM_018.jpg	100
2250.461	1.21	1210.4	regulate	Run3	regulate/STIM_018.jpg	99
2254.09	1.313	1312.6	regulate	Run3	regulate/STIM_019.jpg	99
2259.06	0.978	978.5	regulate	Run3	regulate/STIM_019.jpg	99
2262.56	1.291	1291.0	regulate	Run3	regulate/STIM_019.jpg	100
2266.182	1.278	1277.5	regulate	Run3	regulate/STIM_019.jpg	100
2270.866	1.177	1176.9	regulate	Run3	regulate/STIM_020.jpg	99
2274.702	1.036	1036.1	regulate	Run3	regulate/STIM_020.jpg	100
2278.564	0.958	958.1	regulate	Run3	regulate/STIM_020.jpg	100
2282.919	1.999	1999.2	regulate	Run3	regulate/STIM_020.jpg	100
2287.586	1.273	1272.9	regulate	Run3	regulate/STIM_021.jpg	100
2291.359	1.244	1244.0	regulate	Run3	regulate/STIM_021.jpg	99
2296.415	1.106	1105.7	regulate	Run3	regulate/STIM_021.jpg	99
2299.881	2.058	2057.7	regulate	Run3	regulate/STIM_021.jpg	99
2304.536	1.808	1808.2	regulate	Run3	regulate/STIM_022.jpg	99
2308.971	1.487	1486.7	regulate	Run3	regulate/STIM_022.jpg	100
2312.935	1.9	1899.5	regulate	Run3	regulate/STIM_022.jpg	100
2317.488	1.048	1047.9	regulate	Run3	regulate/STIM_022.jpg	100
2321.367	1.969	1968.8	regulate	Run3	regulate/STIM_023.jpg	99
2325.651	1.464	1463.5	regulate	Run3	regulate/STIM_023.jpg	99
2329.907	1.065	1065.4	regulate	Run3	regulate/STIM_023.jpg	100
2334.921	1.73	1730.4	regulate	Run3	regulate/STIM_023.jpg	100
2339.23	0.958	958.3	regulate	Run3	regulate/STIM_024.jpg	99
2343.411	1.625	1624.7	regulate	Run3	regulate/STIM_024.jpg	100
2347.917	1.537	1536.6	regulate	Run3	regulate/STIM_024.jpg	100
2352.297	1.89	1890.3	regulate	Run3	regulate/STIM_024.jpg	100
2356.847	1.426	1425.7	regulate	Run3	regulate/STIM_025.jpg	99
2362.464	1.432	1432.4	regulate	Run3	regulate/STIM_025.jpg	99
2367.576	1.644	1644.3	regulate	Run3	regulate/STIM_025.jpg	100
2371.611	1.511	1511.1	regulate	Run3	regulate/STIM_025.jpg	99
2376.637	1.862	1862.1	regulate	Run3	regulate/STIM_026.jpg	100
2381.119	2.012	2011.9	regulate	Run3	regulate/STIM_026.jpg	99
2385.748	1.576	1575.7	regulate	Run3	regulate/STIM_026.jpg	99
2389.728	1.296	1296.0	regulate	Run3	regulate/STIM_026.jpg	100
2394.465	1.075	1074.6	regulate	Run3	regulate/STIM_027.jpg	100
2399.573	1.592	1591.7	regulate	Run3	regulate/STIM_027.jpg	99
2405.562	1.937	1937.3	regulate	Run3	regulate/STIM_027.jpg	100
2411.059	1.781	1781.2	regulate	Run3	regulate/STIM_027.jpg	99
2416.407	1.832	1831.5	regulate	Run3	regulate/STIM_028.jpg	99
2422.272	1.213	1212.7	regulate	Run3	regulate/STIM_028.jpg	99
2426.322	1.15	1149.8	regulate	Run3	regulate/STIM_028.jpg	100
2431.302	1.556	1556.0	regulate	Run3	regulate/STIM_028.jpg	99
2435.26	1.199	1198.6	regulate	Run3	regulate/STIM_029.jpg	100
2438.742	1.88	1879.8	regulate	Run3	regulate/STIM_029.jpg	100
2443.94	1.934	1934.4	regulate	Run3	regulate/STIM_029.jpg	100
2448.861	1.936	1936.5	regulate	Run3	regulate/STIM_029.jpg	100
2454.063	1.121	1120.9	observe	Run3	observe/STIM_000.jpg	100
2457.495	0.9	900.0	observe	Run3	observe/STIM_000.jpg	100
2461.006	1.308	1308.4	observe	Run3	observe/STIM_000.jpg	99
2465.662	1.027	1027.3	observe	Run3	observe/STIM_000.jpg	99
2470.001	1.392	1392.3	observe	Run3	observe/STIM_001.jpg	100
2475.12	0.802	802.2	observe	Run3	observe/STIM_001.jpg	100
2478.753	1.322	1322.4	observe	Run3	observe/STIM_001.jpg	100
2482.685	1.087	1087.3	observe	Run3	observe/STIM_001.jpg	99
2487.33	0.98	979.8	observe	Run3	observe/STIM_002.jpg	100
2490.596	1.175	1175.2	observe	Run3	observe/STIM_002.jpg	100
2495.693	1.196	1196.1	observe	Run3	observe/STIM_002.jpg	100
2500.707	0.8	800.3	observe	Run3	observe/STIM_002.jpg	99
2504.727	1.267	1266.8	observe	Run3	observe/STIM_003.jpg	100
2508.904	1.057	1057.4	observe	Run3	observe/STIM_003.jpg	100
2513.919	1.382	1382.4	observe	Run3	observe/STIM_003.jpg	99
2518.162	0.986	986.2	observe	Run3	observe/STIM_003.jpg	99
2522.631	1.025	1025.2	observe	Run3	observe/STIM_004.jpg	100
2527.555	0.902	901.6	observe	Run3	observe/STIM_004.jpg	99
2531.534	1.346	1345.9	observe	Run3	observe/STIM_004.jpg	99
2535.465	1.261	1261.1	observe	Run3	observe/STIM_004.jpg	100
2540.489	1.296	1295.9	observe	Run3	observe/STIM_005.jpg	99
2544.055	1.164	1163.9	observe	Run3	observe/STIM_005.jpg	100
2547.87	1.358	1357.8	observe	Run3	observe/STIM_005.jpg	100
2552.262	1.228	1228.1	observe	Run3	observe/STIM_005.jpg	99
2557.288	1.228	1227.7	observe	Run3	observe/STIM_006.jpg	99
2562.358	0.808	808.3	observe	Run3	observe/STIM_006.jpg	100
2566.996	0.978	977.9	observe	Run3	observe/STIM_006.jpg	99
2572.061	0.952	951.5	observe	Run3	observe/STIM_006.jpg	99
2576.411	0.815	814.9	observe	Run3	observe/STIM_007.jpg	99
2581.147	0.964	964.5	observe	Run3	observe/STIM_007.jpg	100
2585.813	1.437	1436.6	observe	Run3	observe/STIM_007.jpg	100
2591.294	1.18	1179.5	observe	Run3	observe/STIM_007.jpg	100
2596.559	0.708	707.5	observe	Run3	observe/STIM_008.jpg	99
2600.476	0.729	729.1	observe	Run3	observe/STIM_008.jpg	100
2605.151	1.1	1100.2	observe	Run3	observe/STIM_008.jpg	100
2608.89	0.986	986.1	observe	Run3	observe/STIM_008.jpg	99
2613.65	1.307	1307.1	observe	Run3	observe/STIM_009.jpg	100
2618.972	1.164	1163.8	observe	Run3	observe/STIM_009.jpg	99
2624.173	0.855	855.2	observe	Run3	observe/STIM_009.jpg	99
2627.323	1.182	1182.1	observe	Run3	observe/STIM_009.jpg	100
2631.135	0.917	917.2	observe	Run3	observe/STIM_010.jpg	100
2635.412	1.153	1152.7	observe	Run3	observe/STIM_010.jpg	100
2639.756	0.765	765.0	observe	Run3	observe/STIM_010.jpg	100
2644.418	1.038	1038.0	observe	Run3	observe/STIM_010.jpg	100
2648.667	0.823	822.9	observe	Run3	observe/STIM_011.jpg	100
2652.594	1.149	1149.0	observe	Run3	observe/STIM_011.jpg	100
2656.648	1.142	1142.2	observe	Run3	observe/STIM_011.jpg	100
2660.563	0.985	984.8	observe	Run3	observe/STIM_011.jpg	99
2664.148	1.324	1323.7	observe	Run3	observe/STIM_012.jpg	100
2667.841	0.899	899.3	observe	Run3	observe/STIM_012.jpg	100
2671.34	0.857	856.8	observe	Run3	observe/STIM_012.jpg	100
2676.215	0.811	810.7	observe	Run3	observe/STIM_012.jpg	99
2681.045	0.797	797.0	observe	Run3	observe/STIM_013.jpg	100
2685.691	0.832	832.0	observe	Run3	observe/STIM_013.jpg	99
2690.136	1.285	1284.7	observe	Run3	observe/STIM_013.jpg	99
2694.595	0.741	741.0	observe	Run3	observe/STIM_013.jpg	99
2699.173	1.132	1132.2	observe	Run3	observe/STIM_014.jpg	99
2702.97	1.137	1137.3	observe	Run3	observe/STIM_014.jpg	99
2706.277	0.98	979.7	observe	Run3	observe/STIM_014.jpg	99
2711.031	0.933	933.1	observe	Run3	observe/STIM_014.jpg	99
2715.492	1.082	1082.0	observe	Run3	observe/STIM_015.jpg	100
2718.99	1.173	1172.8	observe	Run3	observe/STIM_015.jpg	100
2723.326	0.834	833.8	observe	Run3	observe/STIM_015.jpg	100
2726.695	1.005	1004.8	observe	Run3	observe/STIM_015.jpg	99
2731.113	1.394	1394.5	observe	Run3	observe/STIM_016.jpg	100
2735.938	0.795	794.6	observe	Run3	observe/STIM_016.jpg	99
2740.643	1.2	1200.4	observe	Run3	observe/STIM_016.jpg	100
2744.552	1.086	1085.6	observe	Run3	observe/STIM_016.jpg	99
2748.09	1.403	1402.7	observe	Run3	observe/STIM_017.jpg	99
2753.248	0.926	926.1	observe	Run3	observe/STIM_017.jpg	99
2756.574	1.206	1206.0	observe	Run3	observe/STIM_017.jpg	100
2760.372	1.158	1157.9	observe	Run3	observe/STIM_017.jpg	100
2764.261	0.73	729.8	observe	Run3	observe/STIM_018.jpg	99
2767.517	1.296	1296.2	observe	Run3	observe/STIM_018.jpg	99
2771.539	1.35	1350.1	observe	Run3	observe/STIM_018.jpg	100
2775.595	0.994	993.7	observe	Run3	observe/STIM_018.jpg	100
2779.727	0.906	905.9	observe	Run3	observe/STIM_019.jpg	99
2783.112	1.109	1108.6	observe	Run3	observe/STIM_019.jpg	99
2787.225	0.732	732.1	observe	Run3	observe/STIM_019.jpg	99
2790.842	1.174	1173.5	observe	Run3	observe/STIM_019.jpg	99
