onset	duration	accuracy_binary	trial_type	learning_stage	stimulus
0.0	1.782	0	regulate	Run1	regulate/STIM_000.jpg
5.501	1.285	0	regulate	Run1	regulate/STIM_000.jpg
10.355	1.904	1	regulate	Run1	regulate/STIM_000.jpg
15.496	1.669	1	regulate	Run1	regulate/STIM_000.jpg
19.94	1.818	1	regulate	Run1	regulate/STIM_001.jpg
25.047	2.283	0	regulate	Run1	regulate/STIM_001.jpg
30.834	1.898	1	regulate	Run1	regulate/STIM_001.jpg
36.405	1.3	0	regulate	Run1	regulate/STIM_001.jpg
40.943	2.765	0	regulate	Run1	regulate/STIM_002.jpg
46.229	1.684	1	regulate	Run1	regulate/STIM_002.jpg
51.666	1.768	0	regulate	Run1	regulate/STIM_002.jpg
57.224	1.07	1	regulate	Run1	regulate/STIM_002.jpg
61.955	1.667	1	regulate	Run1	regulate/STIM_003.jpg
67.19	2.433	1	regulate	Run1	regulate/STIM_003.jpg
72.991	1.761	1	regulate	Run1	regulate/STIM_003.jpg
77.245	1.36	1	regulate	Run1	regulate/STIM_003.jpg
82.568	1.284	1	regulate	Run1	regulate/STIM_004.jpg
87.889	1.792	1	regulate	Run1	regulate/STIM_004.jpg
92.317	1.84	1	regulate	Run1	regulate/STIM_004.jpg
97.316	2.062	1	regulate	Run1	regulate/STIM_004.jpg
102.447	1.796	0	regulate	Run1	regulate/STIM_005.jpg
107.006	1.45	0	regulate	Run1	regulate/STIM_005.jpg
112.665	1.616	1	regulate	Run1	regulate/STIM_005.jpg
117.896	1.786	1	regulate	Run1	regulate/STIM_005.jpg
123.234	2.528	0	regulate	Run1	regulate/STIM_006.jpg
128.187	2.564	1	regulate	Run1	regulate/STIM_006.jpg
134.102	2.085	1	regulate	Run1	regulate/STIM_006.jpg
138.952	1.786	1	regulate	Run1	regulate/STIM_006.jpg
143.883	2.711	1	regulate	Run1	regulate/STIM_007.jpg
150.689	1.183	1	regulate	Run1	regulate/STIM_007.jpg
155.643	1.819	1	regulate	Run1	regulate/STIM_007.jpg
161.478	1.836	1	regulate	Run1	regulate/STIM_007.jpg
167.451	1.987	1	regulate	Run1	regulate/STIM_008.jpg
173.621	2.648	1	regulate	Run1	regulate/STIM_008.jpg
178.862	2.621	1	regulate	Run1	regulate/STIM_008.jpg
184.077	1.193	1	regulate	Run1	regulate/STIM_008.jpg
187.919	1.308	0	regulate	Run1	regulate/STIM_009.jpg
192.606	1.819	0	regulate	Run1	regulate/STIM_009.jpg
197.976	2.111	1	regulate	Run1	regulate/STIM_009.jpg
204.13	2.303	1	regulate	Run1	regulate/STIM_009.jpg
209.886	2.583	0	regulate	Run1	regulate/STIM_010.jpg
214.815	2.586	1	regulate	Run1	regulate/STIM_010.jpg
221.185	1.173	1	regulate	Run1	regulate/STIM_010.jpg
226.296	2.086	1	regulate	Run1	regulate/STIM_010.jpg
231.668	1.95	1	regulate	Run1	regulate/STIM_011.jpg
236.356	2.374	1	regulate	Run1	regulate/STIM_011.jpg
242.174	1.419	1	regulate	Run1	regulate/STIM_011.jpg
246.278	1.486	1	regulate	Run1	regulate/STIM_011.jpg
251.197	2.749	0	regulate	Run1	regulate/STIM_012.jpg
257.723	2.534	1	regulate	Run1	regulate/STIM_012.jpg
263.341	1.733	1	regulate	Run1	regulate/STIM_012.jpg
267.956	1.47	1	regulate	Run1	regulate/STIM_012.jpg
272.215	1.852	1	regulate	Run1	regulate/STIM_013.jpg
277.755	2.351	1	regulate	Run1	regulate/STIM_013.jpg
282.61	1.744	1	regulate	Run1	regulate/STIM_013.jpg
288.541	2.285	1	regulate	Run1	regulate/STIM_013.jpg
293.256	1.738	1	regulate	Run1	regulate/STIM_014.jpg
298.12	1.818	1	regulate	Run1	regulate/STIM_014.jpg
303.313	1.703	1	regulate	Run1	regulate/STIM_014.jpg
308.882	1.484	1	regulate	Run1	regulate/STIM_014.jpg
313.776	1.706	1	regulate	Run1	regulate/STIM_015.jpg
318.816	1.872	1	regulate	Run1	regulate/STIM_015.jpg
323.315	1.112	0	regulate	Run1	regulate/STIM_015.jpg
327.652	2.051	1	regulate	Run1	regulate/STIM_015.jpg
332.366	1.875	1	regulate	Run1	regulate/STIM_016.jpg
338.545	2.102	1	regulate	Run1	regulate/STIM_016.jpg
344.861	1.742	0	regulate	Run1	regulate/STIM_016.jpg
350.029	1.324	1	regulate	Run1	regulate/STIM_016.jpg
355.45	2.897	0	regulate	Run1	regulate/STIM_017.jpg
362.098	1.377	1	regulate	Run1	regulate/STIM_017.jpg
367.22	1.499	1	regulate	Run1	regulate/STIM_017.jpg
371.923	1.178	1	regulate	Run1	regulate/STIM_017.jpg
377.141	1.474	1	regulate	Run1	regulate/STIM_018.jpg
380.948	2.574	1	regulate	Run1	regulate/STIM_018.jpg
386.407	2.396	1	regulate	Run1	regulate/STIM_018.jpg
391.727	1.163	1	regulate	Run1	regulate/STIM_018.jpg
395.623	1.599	0	regulate	Run1	regulate/STIM_019.jpg
400.363	1.74	1	regulate	Run1	regulate/STIM_019.jpg
404.522	2.406	1	regulate	Run1	regulate/STIM_019.jpg
410.506	1.885	1	regulate	Run1	regulate/STIM_019.jpg
416.628	2.97	1	regulate	Run1	regulate/STIM_020.jpg
423.447	2.14	1	regulate	Run1	regulate/STIM_020.jpg
428.016	1.265	1	regulate	Run1	regulate/STIM_020.jpg
432.004	2.154	1	regulate	Run1	regulate/STIM_020.jpg
437.057	2.758	1	regulate	Run1	regulate/STIM_021.jpg
442.871	2.503	1	regulate	Run1	regulate/STIM_021.jpg
448.155	1.315	1	regulate	Run1	regulate/STIM_021.jpg
453.17	2.566	1	regulate	Run1	regulate/STIM_021.jpg
459.241	2.246	0	regulate	Run1	regulate/STIM_022.jpg
463.902	2.305	1	regulate	Run1	regulate/STIM_022.jpg
469.694	1.266	0	regulate	Run1	regulate/STIM_022.jpg
474.502	2.463	1	regulate	Run1	regulate/STIM_022.jpg
480.438	2.011	1	regulate	Run1	regulate/STIM_023.jpg
485.211	2.815	1	regulate	Run1	regulate/STIM_023.jpg
492.016	1.674	1	regulate	Run1	regulate/STIM_023.jpg
497.107	1.779	1	regulate	Run1	regulate/STIM_023.jpg
501.284	1.273	1	regulate	Run1	regulate/STIM_024.jpg
505.075	2.486	0	regulate	Run1	regulate/STIM_024.jpg
511.404	1.227	1	regulate	Run1	regulate/STIM_024.jpg
515.775	1.118	1	regulate	Run1	regulate/STIM_024.jpg
519.704	1.581	1	regulate	Run1	regulate/STIM_025.jpg
523.902	2.244	1	regulate	Run1	regulate/STIM_025.jpg
529.445	2.663	1	regulate	Run1	regulate/STIM_025.jpg
534.881	2.508	0	regulate	Run1	regulate/STIM_025.jpg
541.217	1.85	1	regulate	Run1	regulate/STIM_026.jpg
545.844	2.468	1	regulate	Run1	regulate/STIM_026.jpg
551.52	2.54	1	regulate	Run1	regulate/STIM_026.jpg
558.059	1.264	1	regulate	Run1	regulate/STIM_026.jpg
562.621	2.471	1	regulate	Run1	regulate/STIM_027.jpg
569.396	2.433	1	regulate	Run1	regulate/STIM_027.jpg
575.437	2.06	1	regulate	Run1	regulate/STIM_027.jpg
580.058	1.959	1	regulate	Run1	regulate/STIM_027.jpg
586.013	2.999	1	regulate	Run1	regulate/STIM_028.jpg
591.818	1.272	1	regulate	Run1	regulate/STIM_028.jpg
595.331	1.748	1	regulate	Run1	regulate/STIM_028.jpg
601.201	2.219	1	regulate	Run1	regulate/STIM_028.jpg
606.48	2.038	1	regulate	Run1	regulate/STIM_029.jpg
611.383	1.53	1	regulate	Run1	regulate/STIM_029.jpg
615.544	1.236	0	regulate	Run1	regulate/STIM_029.jpg
620.833	2.124	0	regulate	Run1	regulate/STIM_029.jpg
625.308	1.194	1	observe	Run1	observe/STIM_000.jpg
629.322	0.774	1	observe	Run1	observe/STIM_000.jpg
632.52	0.881	1	observe	Run1	observe/STIM_000.jpg
636.575	1.077	1	observe	Run1	observe/STIM_000.jpg
640.64	0.895	1	observe	Run1	observe/STIM_001.jpg
643.826	1.333	1	observe	Run1	observe/STIM_001.jpg
647.582	1.131	1	observe	Run1	observe/STIM_001.jpg
652.525	0.732	1	observe	Run1	observe/STIM_001.jpg
656.814	1.34	1	observe	Run1	observe/STIM_002.jpg
661.89	1.241	1	observe	Run1	observe/STIM_002.jpg
666.635	1.143	1	observe	Run1	observe/STIM_002.jpg
670.434	1.221	1	observe	Run1	observe/STIM_002.jpg
674.912	1.295	1	observe	Run1	observe/STIM_003.jpg
680.249	1.146	1	observe	Run1	observe/STIM_003.jpg
684.303	0.994	1	observe	Run1	observe/STIM_003.jpg
687.69	0.882	1	observe	Run1	observe/STIM_003.jpg
692.381	1.356	1	observe	Run1	observe/STIM_004.jpg
697.426	1.114	1	observe	Run1	observe/STIM_004.jpg
702.081	1.084	0	observe	Run1	observe/STIM_004.jpg
705.743	0.75	1	observe	Run1	observe/STIM_004.jpg
709.901	1.012	1	observe	Run1	observe/STIM_005.jpg
713.907	0.686	1	observe	Run1	observe/STIM_005.jpg
716.966	1.007	1	observe	Run1	observe/STIM_005.jpg
720.961	1.255	1	observe	Run1	observe/STIM_005.jpg
725.526	0.871	1	observe	Run1	observe/STIM_006.jpg
729.454	1.177	0	observe	Run1	observe/STIM_006.jpg
733.998	1.184	1	observe	Run1	observe/STIM_006.jpg
738.027	1.178	1	observe	Run1	observe/STIM_006.jpg
742.929	1.258	1	observe	Run1	observe/STIM_007.jpg
747.284	0.913	1	observe	Run1	observe/STIM_007.jpg
750.271	0.866	1	observe	Run1	observe/STIM_007.jpg
754.251	0.858	1	observe	Run1	observe/STIM_007.jpg
758.591	1.326	1	observe	Run1	observe/STIM_008.jpg
762.28	1.098	0	observe	Run1	observe/STIM_008.jpg
766.212	1.126	1	observe	Run1	observe/STIM_008.jpg
771.294	0.988	1	observe	Run1	observe/STIM_008.jpg
776.098	1.26	1	observe	Run1	observe/STIM_009.jpg
781.026	0.946	0	observe	Run1	observe/STIM_009.jpg
784.305	1.146	1	observe	Run1	observe/STIM_009.jpg
789.123	1.13	1	observe	Run1	observe/STIM_009.jpg
794.175	1.107	1	observe	Run1	observe/STIM_010.jpg
799.111	0.819	1	observe	Run1	observe/STIM_010.jpg
804.018	0.841	1	observe	Run1	observe/STIM_010.jpg
807.519	0.707	1	observe	Run1	observe/STIM_010.jpg
811.477	0.766	1	observe	Run1	observe/STIM_011.jpg
816.014	1.182	1	observe	Run1	observe/STIM_011.jpg
819.821	0.792	1	observe	Run1	observe/STIM_011.jpg
824.683	1.165	1	observe	Run1	observe/STIM_011.jpg
828.98	0.618	1	observe	Run1	observe/STIM_012.jpg
832.475	1.309	1	observe	Run1	observe/STIM_012.jpg
836.398	0.933	1	observe	Run1	observe/STIM_012.jpg
841.146	0.843	1	observe	Run1	observe/STIM_012.jpg
845.652	0.863	1	observe	Run1	observe/STIM_013.jpg
849.261	1.378	1	observe	Run1	observe/STIM_013.jpg
852.966	0.875	1	observe	Run1	observe/STIM_013.jpg
856.388	1.174	1	observe	Run1	observe/STIM_013.jpg
861.638	1.13	1	observe	Run1	observe/STIM_014.jpg
865.273	1.313	1	observe	Run1	observe/STIM_014.jpg
869.556	1.213	1	observe	Run1	observe/STIM_014.jpg
874.527	1.01	1	observe	Run1	observe/STIM_014.jpg
878.233	1.238	1	observe	Run1	observe/STIM_015.jpg
882.216	0.931	1	observe	Run1	observe/STIM_015.jpg
885.669	1.092	1	observe	Run1	observe/STIM_015.jpg
888.972	1.117	1	observe	Run1	observe/STIM_015.jpg
892.241	1.192	1	observe	Run1	observe/STIM_016.jpg
896.668	0.824	0	observe	Run1	observe/STIM_016.jpg
900.122	1.046	1	observe	Run1	observe/STIM_016.jpg
904.306	0.731	1	observe	Run1	observe/STIM_016.jpg
908.229	1.404	1	observe	Run1	observe/STIM_017.jpg
913.407	0.849	1	observe	Run1	observe/STIM_017.jpg
916.984	1.228	0	observe	Run1	observe/STIM_017.jpg
922.074	0.937	1	observe	Run1	observe/STIM_017.jpg
925.432	0.81	1	observe	Run1	observe/STIM_018.jpg
929.094	0.943	1	observe	Run1	observe/STIM_018.jpg
932.425	1.123	1	observe	Run1	observe/STIM_018.jpg
937.415	1.244	1	observe	Run1	observe/STIM_018.jpg
942.786	1.031	1	observe	Run1	observe/STIM_019.jpg
945.988	0.729	1	observe	Run1	observe/STIM_019.jpg
950.435	0.785	1	observe	Run1	observe/STIM_019.jpg
954.235	1.286	1	observe	Run1	observe/STIM_019.jpg
959.658	2.448	1	regulate	Run2	regulate/STIM_000.jpg
965.481	2.337	0	regulate	Run2	regulate/STIM_000.jpg
970.472	1.114	1	regulate	Run2	regulate/STIM_000.jpg
974.018	1.198	1	regulate	Run2	regulate/STIM_000.jpg
978.395	1.805	1	regulate	Run2	regulate/STIM_001.jpg
984.271	1.796	1	regulate	Run2	regulate/STIM_001.jpg
989.082	1.898	1	regulate	Run2	regulate/STIM_001.jpg
993.565	1.936	1	regulate	Run2	regulate/STIM_001.jpg
998.455	1.134	1	regulate	Run2	regulate/STIM_002.jpg
1002.891	2.481	1	regulate	Run2	regulate/STIM_002.jpg
1008.339	1.431	1	regulate	Run2	regulate/STIM_002.jpg
1012.315	2.022	1	regulate	Run2	regulate/STIM_002.jpg
1018.431	2.26	1	regulate	Run2	regulate/STIM_003.jpg
1024.683	1.809	1	regulate	Run2	regulate/STIM_003.jpg
1029.33	1.003	1	regulate	Run2	regulate/STIM_003.jpg
1033.817	0.972	1	regulate	Run2	regulate/STIM_003.jpg
1038.541	1.568	1	regulate	Run2	regulate/STIM_004.jpg
1042.719	1.143	1	regulate	Run2	regulate/STIM_004.jpg
1046.027	1.913	1	regulate	Run2	regulate/STIM_004.jpg
1051.582	1.156	1	regulate	Run2	regulate/STIM_004.jpg
1055.258	2.262	0	regulate	Run2	regulate/STIM_005.jpg
1061.845	1.36	1	regulate	Run2	regulate/STIM_005.jpg
1066.103	1.213	1	regulate	Run2	regulate/STIM_005.jpg
1070.018	2.038	1	regulate	Run2	regulate/STIM_005.jpg
1075.208	2.568	1	regulate	Run2	regulate/STIM_006.jpg
1080.311	1.035	0	regulate	Run2	regulate/STIM_006.jpg
1084.735	2.169	0	regulate	Run2	regulate/STIM_006.jpg
1090.62	1.503	1	regulate	Run2	regulate/STIM_006.jpg
1095.564	2.125	1	regulate	Run2	regulate/STIM_007.jpg
1100.979	1.984	1	regulate	Run2	regulate/STIM_007.jpg
1105.733	1.196	1	regulate	Run2	regulate/STIM_007.jpg
1110.703	1.046	1	regulate	Run2	regulate/STIM_007.jpg
1114.611	1.308	1	regulate	Run2	regulate/STIM_008.jpg
1119.099	2.091	1	regulate	Run2	regulate/STIM_008.jpg
1123.829	1.681	1	regulate	Run2	regulate/STIM_008.jpg
1129.555	1.818	1	regulate	Run2	regulate/STIM_008.jpg
1135.481	2.257	1	regulate	Run2	regulate/STIM_009.jpg
1140.977	1.32	1	regulate	Run2	regulate/STIM_009.jpg
1145.814	2.107	1	regulate	Run2	regulate/STIM_009.jpg
1151.812	1.471	1	regulate	Run2	regulate/STIM_009.jpg
1155.882	2.496	1	regulate	Run2	regulate/STIM_010.jpg
1162.527	1.226	1	regulate	Run2	regulate/STIM_010.jpg
1167.176	1.815	1	regulate	Run2	regulate/STIM_010.jpg
1173.062	1.636	1	regulate	Run2	regulate/STIM_010.jpg
1178.534	2.129	1	regulate	Run2	regulate/STIM_011.jpg
1183.343	2.102	0	regulate	Run2	regulate/STIM_011.jpg
1188.359	1.634	1	regulate	Run2	regulate/STIM_011.jpg
1193.564	1.874	1	regulate	Run2	regulate/STIM_011.jpg
1197.804	1.977	0	regulate	Run2	regulate/STIM_012.jpg
1203.206	2.164	1	regulate	Run2	regulate/STIM_012.jpg
1208.687	1.976	1	regulate	Run2	regulate/STIM_012.jpg
1213.522	1.498	1	regulate	Run2	regulate/STIM_012.jpg
1218.838	1.498	1	regulate	Run2	regulate/STIM_013.jpg
1223.65	2.174	1	regulate	Run2	regulate/STIM_013.jpg
1229.566	1.618	0	regulate	Run2	regulate/STIM_013.jpg
1235.068	1.215	1	regulate	Run2	regulate/STIM_013.jpg
1238.496	2.265	1	regulate	Run2	regulate/STIM_014.jpg
1244.299	1.402	1	regulate	Run2	regulate/STIM_014.jpg
1249.49	0.919	0	regulate	Run2	regulate/STIM_014.jpg
1253.819	2.006	1	regulate	Run2	regulate/STIM_014.jpg
1259.246	1.529	1	regulate	Run2	regulate/STIM_015.jpg
1262.991	1.052	1	regulate	Run2	regulate/STIM_015.jpg
1266.442	2.14	1	regulate	Run2	regulate/STIM_015.jpg
1271.631	0.963	1	regulate	Run2	regulate/STIM_015.jpg
1276.114	1.527	1	regulate	Run2	regulate/STIM_016.jpg
1281.807	1.579	0	regulate	Run2	regulate/STIM_016.jpg
1286.571	1.6	1	regulate	Run2	regulate/STIM_016.jpg
1291.846	1.296	1	regulate	Run2	regulate/STIM_016.jpg
1296.558	2.155	1	regulate	Run2	regulate/STIM_017.jpg
1301.086	1.518	1	regulate	Run2	regulate/STIM_017.jpg
1305.743	1.244	1	regulate	Run2	regulate/STIM_017.jpg
1310.144	1.381	1	regulate	Run2	regulate/STIM_017.jpg
1313.859	1.756	1	regulate	Run2	regulate/STIM_018.jpg
1318.825	1.444	1	regulate	Run2	regulate/STIM_018.jpg
1324.214	1.141	1	regulate	Run2	regulate/STIM_018.jpg
1328.565	1.438	1	regulate	Run2	regulate/STIM_018.jpg
1332.834	1.04	1	regulate	Run2	regulate/STIM_019.jpg
1337.55	2.094	0	regulate	Run2	regulate/STIM_019.jpg
1342.702	1.413	1	regulate	Run2	regulate/STIM_019.jpg
1347.445	1.287	0	regulate	Run2	regulate/STIM_019.jpg
1351.901	2.317	1	regulate	Run2	regulate/STIM_020.jpg
1357.954	2.022	1	regulate	Run2	regulate/STIM_020.jpg
1363.466	1.212	1	regulate	Run2	regulate/STIM_020.jpg
1366.866	1.964	1	regulate	Run2	regulate/STIM_020.jpg
1372.147	1.821	1	regulate	Run2	regulate/STIM_021.jpg
1378.174	2.154	0	regulate	Run2	regulate/STIM_021.jpg
1384.527	1.531	1	regulate	Run2	regulate/STIM_021.jpg
1388.31	1.991	1	regulate	Run2	regulate/STIM_021.jpg
1393.053	2.118	1	regulate	Run2	regulate/STIM_022.jpg
1397.602	2.29	1	regulate	Run2	regulate/STIM_022.jpg
1402.734	1.861	1	regulate	Run2	regulate/STIM_022.jpg
1407.89	1.602	0	regulate	Run2	regulate/STIM_022.jpg
1412.498	1.9	0	regulate	Run2	regulate/STIM_023.jpg
1418.132	1.793	1	regulate	Run2	regulate/STIM_023.jpg
1423.468	2.077	1	regulate	Run2	regulate/STIM_023.jpg
1428.478	2.067	1	regulate	Run2	regulate/STIM_023.jpg
1434.155	1.495	1	regulate	Run2	regulate/STIM_024.jpg
1439.366	1.509	1	regulate	Run2	regulate/STIM_024.jpg
1443.886	1.807	1	regulate	Run2	regulate/STIM_024.jpg
1449.312	1.295	1	regulate	Run2	regulate/STIM_024.jpg
1454.626	1.457	1	regulate	Run2	regulate/STIM_025.jpg
1459.976	1.839	1	regulate	Run2	regulate/STIM_025.jpg
1465.717	1.75	1	regulate	Run2	regulate/STIM_025.jpg
1471.587	0.987	1	regulate	Run2	regulate/STIM_025.jpg
1475.624	1.28	1	regulate	Run2	regulate/STIM_026.jpg
1479.901	1.672	1	regulate	Run2	regulate/STIM_026.jpg
1484.841	2.107	1	regulate	Run2	regulate/STIM_026.jpg
1489.88	0.944	1	regulate	Run2	regulate/STIM_026.jpg
1494.495	1.33	1	regulate	Run2	regulate/STIM_027.jpg
1499.737	1.501	1	regulate	Run2	regulate/STIM_027.jpg
1505.155	1.818	1	regulate	Run2	regulate/STIM_027.jpg
1510.006	1.343	1	regulate	Run2	regulate/STIM_027.jpg
1513.846	1.267	1	regulate	Run2	regulate/STIM_028.jpg
1517.844	1.59	1	regulate	Run2	regulate/STIM_028.jpg
1522.869	2.084	1	regulate	Run2	regulate/STIM_028.jpg
1528.104	1.17	1	regulate	Run2	regulate/STIM_028.jpg
1533.462	1.538	1	regulate	Run2	regulate/STIM_029.jpg
1538.396	2.038	1	regulate	Run2	regulate/STIM_029.jpg
1543.574	1.371	1	regulate	Run2	regulate/STIM_029.jpg
1547.992	1.509	1	regulate	Run2	regulate/STIM_029.jpg
1553.048	1.186	1	observe	Run2	observe/STIM_000.jpg
1557.178	1.144	1	observe	Run2	observe/STIM_000.jpg
1562.178	0.809	1	observe	Run2	observe/STIM_000.jpg
1566.208	1.27	1	observe	Run2	observe/STIM_000.jpg
1569.903	0.99	1	observe	Run2	observe/STIM_001.jpg
1574.397	1.169	1	observe	Run2	observe/STIM_001.jpg
1578.025	1.227	1	observe	Run2	observe/STIM_001.jpg
1581.733	1.332	1	observe	Run2	observe/STIM_001.jpg
1587.036	0.817	1	observe	Run2	observe/STIM_002.jpg
1591.43	0.854	1	observe	Run2	observe/STIM_002.jpg
1596.159	1.356	1	observe	Run2	observe/STIM_002.jpg
1601.014	1.132	1	observe	Run2	observe/STIM_002.jpg
1605.954	0.809	1	observe	Run2	observe/STIM_003.jpg
1608.955	1.374	1	observe	Run2	observe/STIM_003.jpg
1612.88	0.787	1	observe	Run2	observe/STIM_003.jpg
1616.838	1.228	1	observe	Run2	observe/STIM_003.jpg
1621.024	0.914	0	observe	Run2	observe/STIM_004.jpg
1625.157	0.855	0	observe	Run2	observe/STIM_004.jpg
1629.165	1.154	1	observe	Run2	observe/STIM_004.jpg
1634.351	1.022	1	observe	Run2	observe/STIM_004.jpg
1638.56	0.842	1	observe	Run2	observe/STIM_005.jpg
1642.329	0.818	1	observe	Run2	observe/STIM_005.jpg
1646.29	1.215	1	observe	Run2	observe/STIM_005.jpg
1649.857	1.275	0	observe	Run2	observe/STIM_005.jpg
1653.979	0.975	1	observe	Run2	observe/STIM_006.jpg
1657.897	1.284	1	observe	Run2	observe/STIM_006.jpg
1662.268	0.962	1	observe	Run2	observe/STIM_006.jpg
1666.381	1.419	1	observe	Run2	observe/STIM_006.jpg
1671.762	1.202	1	observe	Run2	observe/STIM_007.jpg
1676.96	1.402	1	observe	Run2	observe/STIM_007.jpg
1680.767	0.905	1	observe	Run2	observe/STIM_007.jpg
1684.946	1.172	1	observe	Run2	observe/STIM_007.jpg
1688.564	1.217	1	observe	Run2	observe/STIM_008.jpg
1693.245	1.197	1	observe	Run2	observe/STIM_008.jpg
1698.466	1.123	0	observe	Run2	observe/STIM_008.jpg
1703.562	1.222	1	observe	Run2	observe/STIM_008.jpg
1707.795	0.975	1	observe	Run2	observe/STIM_009.jpg
1711.89	1.19	0	observe	Run2	observe/STIM_009.jpg
1717.264	0.881	1	observe	Run2	observe/STIM_009.jpg
1721.495	0.919	1	observe	Run2	observe/STIM_009.jpg
1725.78	1.31	1	observe	Run2	observe/STIM_010.jpg
1731.285	0.977	1	observe	Run2	observe/STIM_010.jpg
1736.309	0.884	1	observe	Run2	observe/STIM_010.jpg
1740.81	1.224	1	observe	Run2	observe/STIM_010.jpg
1745.046	1.077	1	observe	Run2	observe/STIM_011.jpg
1750.22	0.944	1	observe	Run2	observe/STIM_011.jpg
1754.891	1.287	1	observe	Run2	observe/STIM_011.jpg
1758.949	0.818	1	observe	Run2	observe/STIM_011.jpg
1762.923	1.232	1	observe	Run2	observe/STIM_012.jpg
1767.737	1.364	1	observe	Run2	observe/STIM_012.jpg
1772.835	0.954	1	observe	Run2	observe/STIM_012.jpg
1777.422	0.742	0	observe	Run2	observe/STIM_012.jpg
1781.953	0.91	1	observe	Run2	observe/STIM_013.jpg
1786.674	0.86	0	observe	Run2	observe/STIM_013.jpg
1790.118	1.142	1	observe	Run2	observe/STIM_013.jpg
1795.31	1.022	1	observe	Run2	observe/STIM_013.jpg
1800.01	0.812	0	observe	Run2	observe/STIM_014.jpg
1804.533	1.141	1	observe	Run2	observe/STIM_014.jpg
1809.15	0.807	1	observe	Run2	observe/STIM_014.jpg
1812.319	0.747	0	observe	Run2	observe/STIM_014.jpg
1816.663	0.776	1	observe	Run2	observe/STIM_015.jpg
1820.153	1.02	1	observe	Run2	observe/STIM_015.jpg
1824.758	1.324	1	observe	Run2	observe/STIM_015.jpg
1828.22	0.818	0	observe	Run2	observe/STIM_015.jpg
1832.065	1.377	1	observe	Run2	observe/STIM_016.jpg
1836.806	1.067	0	observe	Run2	observe/STIM_016.jpg
1841.601	0.839	1	observe	Run2	observe/STIM_016.jpg
1846.09	0.837	1	observe	Run2	observe/STIM_016.jpg
1849.242	1.425	1	observe	Run2	observe/STIM_017.jpg
1853.046	1.139	1	observe	Run2	observe/STIM_017.jpg
1857.186	1.244	1	observe	Run2	observe/STIM_017.jpg
1861.692	1.135	1	observe	Run2	observe/STIM_017.jpg
1865.462	0.616	1	observe	Run2	observe/STIM_018.jpg
1868.282	1.207	1	observe	Run2	observe/STIM_018.jpg
1872.649	1.098	1	observe	Run2	observe/STIM_018.jpg
1876.16	0.82	1	observe	Run2	observe/STIM_018.jpg
1879.195	1.099	1	observe	Run2	observe/STIM_019.jpg
1882.935	1.196	1	observe	Run2	observe/STIM_019.jpg
1888.141	0.956	1	observe	Run2	observe/STIM_019.jpg
1892.325	1.121	1	observe	Run2	observe/STIM_019.jpg
1896.599	1.841	0	regulate	Run3	regulate/STIM_000.jpg
1902.62	1.842	1	regulate	Run3	regulate/STIM_000.jpg
1906.913	1.144	1	regulate	Run3	regulate/STIM_000.jpg
1912.242	0.995	1	regulate	Run3	regulate/STIM_000.jpg
1915.673	1.141	1	regulate	Run3	regulate/STIM_001.jpg
1919.184	1.364	1	regulate	Run3	regulate/STIM_001.jpg
1923.615	2.091	1	regulate	Run3	regulate/STIM_001.jpg
1928.53	2.125	1	regulate	Run3	regulate/STIM_001.jpg
1933.304	1.905	0	regulate	Run3	regulate/STIM_002.jpg
1938.645	1.895	1	regulate	Run3	regulate/STIM_002.jpg
1943.015	1.327	1	regulate	Run3	regulate/STIM_002.jpg
1948.032	0.971	0	regulate	Run3	regulate/STIM_002.jpg
1951.902	1.224	1	regulate	Run3	regulate/STIM_003.jpg
1955.625	1.998	1	regulate	Run3	regulate/STIM_003.jpg
1960.969	1.557	1	regulate	Run3	regulate/STIM_003.jpg
1965.467	1.533	1	regulate	Run3	regulate/STIM_003.jpg
1970.239	1.371	1	regulate	Run3	regulate/STIM_004.jpg
1974.734	1.327	1	regulate	Run3	regulate/STIM_004.jpg
1979.146	1.215	1	regulate	Run3	regulate/STIM_004.jpg
1982.689	0.899	1	regulate	Run3	regulate/STIM_004.jpg
1987.423	1.105	0	regulate	Run3	regulate/STIM_005.jpg
1991.768	1.081	1	regulate	Run3	regulate/STIM_005.jpg
1996.748	2.141	1	regulate	Run3	regulate/STIM_005.jpg
2001.644	1.495	1	regulate	Run3	regulate/STIM_005.jpg
2006.385	1.158	1	regulate	Run3	regulate/STIM_006.jpg
2009.725	1.62	1	regulate	Run3	regulate/STIM_006.jpg
2014.907	1.916	1	regulate	Run3	regulate/STIM_006.jpg
2019.676	1.437	1	regulate	Run3	regulate/STIM_006.jpg
2024.301	1.552	1	regulate	Run3	regulate/STIM_007.jpg
2028.498	1.011	1	regulate	Run3	regulate/STIM_007.jpg
2033.338	1.599	0	regulate	Run3	regulate/STIM_007.jpg
2037.933	1.444	1	regulate	Run3	regulate/STIM_007.jpg
2041.848	1.805	1	regulate	Run3	regulate/STIM_008.jpg
2047.628	1.594	1	regulate	Run3	regulate/STIM_008.jpg
2051.735	1.128	1	regulate	Run3	regulate/STIM_008.jpg
2056.975	1.372	1	regulate	Run3	regulate/STIM_008.jpg
2061.54	1.76	1	regulate	Run3	regulate/STIM_009.jpg
2066.347	1.45	1	regulate	Run3	regulate/STIM_009.jpg
2070.738	1.895	1	regulate	Run3	regulate/STIM_009.jpg
2076.444	1.512	1	regulate	Run3	regulate/STIM_009.jpg
2081.206	1.94	1	regulate	Run3	regulate/STIM_010.jpg
2086.373	2.063	1	regulate	Run3	regulate/STIM_010.jpg
2092.189	1.818	1	regulate	Run3	regulate/STIM_010.jpg
2097.741	1.185	1	regulate	Run3	regulate/STIM_010.jpg
2102.756	1.858	1	regulate	Run3	regulate/STIM_011.jpg
2107.138	2.099	1	regulate	Run3	regulate/STIM_011.jpg
2112.816	1.147	1	regulate	Run3	regulate/STIM_011.jpg
2117.617	1.943	1	regulate	Run3	regulate/STIM_011.jpg
2123.53	1.913	1	regulate	Run3	regulate/STIM_012.jpg
2128.266	2.108	1	regulate	Run3	regulate/STIM_012.jpg
2133.712	1.363	1	regulate	Run3	regulate/STIM_012.jpg
2138.993	1.97	1	regulate	Run3	regulate/STIM_012.jpg
2144.37	1.736	1	regulate	Run3	regulate/STIM_013.jpg
2149.63	0.908	1	regulate	Run3	regulate/STIM_013.jpg
2154.639	1.716	1	regulate	Run3	regulate/STIM_013.jpg
2159.824	1.677	1	regulate	Run3	regulate/STIM_013.jpg
2165.229	1.321	1	regulate	Run3	regulate/STIM_014.jpg
2170.635	1.966	1	regulate	Run3	regulate/STIM_014.jpg
2174.997	1.787	1	regulate	Run3	regulate/STIM_014.jpg
2179.681	1.451	1	regulate	Run3	regulate/STIM_014.jpg
2183.642	2.091	1	regulate	Run3	regulate/STIM_015.jpg
2189.743	1.229	1	regulate	Run3	regulate/STIM_015.jpg
2193.564	1.333	1	regulate	Run3	regulate/STIM_015.jpg
2198.227	1.133	1	regulate	Run3	regulate/STIM_015.jpg
2201.73	2.022	1	regulate	Run3	regulate/STIM_016.jpg
2206.498	1.094	1	regulate	Run3	regulate/STIM_016.jpg
2211.663	1.284	1	regulate	Run3	regulate/STIM_016.jpg
2215.459	0.881	1	regulate	Run3	regulate/STIM_016.jpg
2219.625	1.845	1	regulate	Run3	regulate/STIM_017.jpg
2224.136	0.901	1	regulate	Run3	regulate/STIM_017.jpg
2227.651	1.362	1	regulate	Run3	regulate/STIM_017.jpg
2232.162	0.938	1	regulate	Run3	regulate/STIM_017.jpg
2236.511	0.989	1	regulate	Run3	regulate/STIM_018.jpg
2241.013	1.169	0	regulate	Run3	regulate/STIM_018.jpg
2245.487	1.634	1	regulate	Run3	regulate/STIM_018.jpg
2250.461	1.21	1	regulate	Run3	regulate/STIM_018.jpg
2254.09	1.313	1	regulate	Run3	regulate/STIM_019.jpg
2259.06	0.978	1	regulate	Run3	regulate/STIM_019.jpg
2262.56	1.291	1	regulate	Run3	regulate/STIM_019.jpg
2266.182	1.278	1	regulate	Run3	regulate/STIM_019.jpg
2270.866	1.177	1	regulate	Run3	regulate/STIM_020.jpg
2274.702	1.036	1	regulate	Run3	regulate/STIM_020.jpg
2278.564	0.958	1	regulate	Run3	regulate/STIM_020.jpg
2282.919	1.999	1	regulate	Run3	regulate/STIM_020.jpg
2287.586	1.273	1	regulate	Run3	regulate/STIM_021.jpg
2291.359	1.244	1	regulate	Run3	regulate/STIM_021.jpg
2296.415	1.106	1	regulate	Run3	regulate/STIM_021.jpg
2299.881	2.058	1	regulate	Run3	regulate/STIM_021.jpg
2304.536	1.808	1	regulate	Run3	regulate/STIM_022.jpg
2308.971	1.487	1	regulate	Run3	regulate/STIM_022.jpg
2312.935	1.9	1	regulate	Run3	regulate/STIM_022.jpg
2317.488	1.048	1	regulate	Run3	regulate/STIM_022.jpg
2321.367	1.969	1	regulate	Run3	regulate/STIM_023.jpg
2325.651	1.464	1	regulate	Run3	regulate/STIM_023.jpg
2329.907	1.065	1	regulate	Run3	regulate/STIM_023.jpg
2334.921	1.73	1	regulate	Run3	regulate/STIM_023.jpg
2339.23	0.958	1	regulate	Run3	regulate/STIM_024.jpg
2343.411	1.625	1	regulate	Run3	regulate/STIM_024.jpg
2347.917	1.537	1	regulate	Run3	regulate/STIM_024.jpg
2352.297	1.89	1	regulate	Run3	regulate/STIM_024.jpg
2356.847	1.426	1	regulate	Run3	regulate/STIM_025.jpg
2362.464	1.432	1	regulate	Run3	regulate/STIM_025.jpg
2367.576	1.644	1	regulate	Run3	regulate/STIM_025.jpg
2371.611	1.511	1	regulate	Run3	regulate/STIM_025.jpg
2376.637	1.862	0	regulate	Run3	regulate/STIM_026.jpg
2381.119	2.012	1	regulate	Run3	regulate/STIM_026.jpg
2385.748	1.576	1	regulate	Run3	regulate/STIM_026.jpg
2389.728	1.296	1	regulate	Run3	regulate/STIM_026.jpg
2394.465	1.075	1	regulate	Run3	regulate/STIM_027.jpg
2399.573	1.592	1	regulate	Run3	regulate/STIM_027.jpg
2405.562	1.937	1	regulate	Run3	regulate/STIM_027.jpg
2411.059	1.781	1	regulate	Run3	regulate/STIM_027.jpg
2416.407	1.832	1	regulate	Run3	regulate/STIM_028.jpg
2422.272	1.213	1	regulate	Run3	regulate/STIM_028.jpg
2426.322	1.15	1	regulate	Run3	regulate/STIM_028.jpg
2431.302	1.556	1	regulate	Run3	regulate/STIM_028.jpg
2435.26	1.199	1	regulate	Run3	regulate/STIM_029.jpg
2438.742	1.88	1	regulate	Run3	regulate/STIM_029.jpg
2443.94	1.934	1	regulate	Run3	regulate/STIM_029.jpg
2448.861	1.936	1	regulate	Run3	regulate/STIM_029.jpg
2454.063	1.121	1	observe	Run3	observe/STIM_000.jpg
2457.495	0.9	1	observe	Run3	observe/STIM_000.jpg
2461.006	1.308	1	observe	Run3	observe/STIM_000.jpg
2465.662	1.027	1	observe	Run3	observe/STIM_000.jpg
2470.001	1.392	1	observe	Run3	observe/STIM_001.jpg
2475.12	0.802	0	observe	Run3	observe/STIM_001.jpg
2478.753	1.322	1	observe	Run3	observe/STIM_001.jpg
2482.685	1.087	1	observe	Run3	observe/STIM_001.jpg
2487.33	0.98	0	observe	Run3	observe/STIM_002.jpg
2490.596	1.175	1	observe	Run3	observe/STIM_002.jpg
2495.693	1.196	1	observe	Run3	observe/STIM_002.jpg
2500.707	0.8	1	observe	Run3	observe/STIM_002.jpg
2504.727	1.267	1	observe	Run3	observe/STIM_003.jpg
2508.904	1.057	1	observe	Run3	observe/STIM_003.jpg
2513.919	1.382	1	observe	Run3	observe/STIM_003.jpg
2518.162	0.986	1	observe	Run3	observe/STIM_003.jpg
2522.631	1.025	1	observe	Run3	observe/STIM_004.jpg
2527.555	0.902	0	observe	Run3	observe/STIM_004.jpg
2531.534	1.346	0	observe	Run3	observe/STIM_004.jpg
2535.465	1.261	1	observe	Run3	observe/STIM_004.jpg
2540.489	1.296	1	observe	Run3	observe/STIM_005.jpg
2544.055	1.164	1	observe	Run3	observe/STIM_005.jpg
2547.87	1.358	1	observe	Run3	observe/STIM_005.jpg
2552.262	1.228	1	observe	Run3	observe/STIM_005.jpg
2557.288	1.228	1	observe	Run3	observe/STIM_006.jpg
2562.358	0.808	1	observe	Run3	observe/STIM_006.jpg
2566.996	0.978	1	observe	Run3	observe/STIM_006.jpg
2572.061	0.952	1	observe	Run3	observe/STIM_006.jpg
2576.411	0.815	1	observe	Run3	observe/STIM_007.jpg
2581.147	0.964	1	observe	Run3	observe/STIM_007.jpg
2585.813	1.437	1	observe	Run3	observe/STIM_007.jpg
2591.294	1.18	1	observe	Run3	observe/STIM_007.jpg
2596.559	0.708	1	observe	Run3	observe/STIM_008.jpg
2600.476	0.729	1	observe	Run3	observe/STIM_008.jpg
2605.151	1.1	1	observe	Run3	observe/STIM_008.jpg
2608.89	0.986	0	observe	Run3	observe/STIM_008.jpg
2613.65	1.307	1	observe	Run3	observe/STIM_009.jpg
2618.972	1.164	1	observe	Run3	observe/STIM_009.jpg
2624.173	0.855	0	observe	Run3	observe/STIM_009.jpg
2627.323	1.182	1	observe	Run3	observe/STIM_009.jpg
2631.135	0.917	1	observe	Run3	observe/STIM_010.jpg
2635.412	1.153	1	observe	Run3	observe/STIM_010.jpg
2639.756	0.765	1	observe	Run3	observe/STIM_010.jpg
2644.418	1.038	0	observe	Run3	observe/STIM_010.jpg
2648.667	0.823	1	observe	Run3	observe/STIM_011.jpg
2652.594	1.149	1	observe	Run3	observe/STIM_011.jpg
2656.648	1.142	1	observe	Run3	observe/STIM_011.jpg
2660.563	0.985	1	observe	Run3	observe/STIM_011.jpg
2664.148	1.324	1	observe	Run3	observe/STIM_012.jpg
2667.841	0.899	1	observe	Run3	observe/STIM_012.jpg
2671.34	0.857	1	observe	Run3	observe/STIM_012.jpg
2676.215	0.811	1	observe	Run3	observe/STIM_012.jpg
2681.045	0.797	1	observe	Run3	observe/STIM_013.jpg
2685.691	0.832	1	observe	Run3	observe/STIM_013.jpg
2690.136	1.285	1	observe	Run3	observe/STIM_013.jpg
2694.595	0.741	1	observe	Run3	observe/STIM_013.jpg
2699.173	1.132	1	observe	Run3	observe/STIM_014.jpg
2702.97	1.137	1	observe	Run3	observe/STIM_014.jpg
2706.277	0.98	1	observe	Run3	observe/STIM_014.jpg
2711.031	0.933	1	observe	Run3	observe/STIM_014.jpg
2715.492	1.082	1	observe	Run3	observe/STIM_015.jpg
2718.99	1.173	1	observe	Run3	observe/STIM_015.jpg
2723.326	0.834	1	observe	Run3	observe/STIM_015.jpg
2726.695	1.005	1	observe	Run3	observe/STIM_015.jpg
2731.113	1.394	1	observe	Run3	observe/STIM_016.jpg
2735.938	0.795	1	observe	Run3	observe/STIM_016.jpg
2740.643	1.2	1	observe	Run3	observe/STIM_016.jpg
2744.552	1.086	0	observe	Run3	observe/STIM_016.jpg
2748.09	1.403	1	observe	Run3	observe/STIM_017.jpg
2753.248	0.926	1	observe	Run3	observe/STIM_017.jpg
2756.574	1.206	1	observe	Run3	observe/STIM_017.jpg
2760.372	1.158	1	observe	Run3	observe/STIM_017.jpg
2764.261	0.73	1	observe	Run3	observe/STIM_018.jpg
2767.517	1.296	1	observe	Run3	observe/STIM_018.jpg
2771.539	1.35	1	observe	Run3	observe/STIM_018.jpg
2775.595	0.994	1	observe	Run3	observe/STIM_018.jpg
2779.727	0.906	1	observe	Run3	observe/STIM_019.jpg
2783.112	1.109	1	observe	Run3	observe/STIM_019.jpg
2787.225	0.732	1	observe	Run3	observe/STIM_019.jpg
2790.842	1.174	1	observe	Run3	observe/STIM_019.jpg
