onset	duration	response_time_ms	trial_type	learning_stage	stimulus	response_port
0.0	1.76	1760.5	generate	Run1	generate/STIM_000.jpg	100
4.892	2.704	2703.9	generate	Run1	generate/STIM_000.jpg	100
11.364	2.373	2372.6	generate	Run1	generate/STIM_000.jpg	99
16.218	2.794	2793.5	generate	Run1	generate/STIM_000.jpg	100
21.631	2.025	2025.1	generate	Run1	generate/STIM_000.jpg	99
25.885	2.527	2527.3	generate	Run1	generate/STIM_001.jpg	100
31.27	1.463	1463.3	generate	Run1	generate/STIM_001.jpg	100
36.063	2.539	2539.0	generate	Run1	generate/STIM_001.jpg	100
42.574	1.955	1954.7	generate	Run1	generate/STIM_001.jpg	99
46.719	2.459	2459.1	generate	Run1	generate/STIM_001.jpg	99
52.339	2.919	2918.7	generate	Run1	generate/STIM_002.jpg	100
57.838	1.75	1750.5	generate	Run1	generate/STIM_002.jpg	99
63.24	2.679	2678.6	generate	Run1	generate/STIM_002.jpg	100
68.678	2.943	2942.7	generate	Run1	generate/STIM_002.jpg	100
75.259	1.752	1752.5	generate	Run1	generate/STIM_002.jpg	100
79.585	2.644	2644.1	generate	Run1	generate/STIM_003.jpg	99
86.202	1.571	1571.2	generate	Run1	generate/STIM_003.jpg	99
91.384	1.372	1371.5	generate	Run1	generate/STIM_003.jpg	100
96.64	2.077	2076.6	generate	Run1	generate/STIM_003.jpg	99
102.24	2.239	2239.0	generate	Run1	generate/STIM_003.jpg	100
106.495	1.447	1446.9	generate	Run1	generate/STIM_004.jpg	99
110.604	2.301	2300.7	generate	Run1	generate/STIM_004.jpg	100
116.363	2.875	2875.3	generate	Run1	generate/STIM_004.jpg	99
122.391	1.636	1636.2	generate	Run1	generate/STIM_004.jpg	99
127.463	1.66	1659.7	generate	Run1	generate/STIM_004.jpg	99
132.215	1.724	1723.7	generate	Run1	generate/STIM_005.jpg	99
137.64	2.375	2374.6	generate	Run1	generate/STIM_005.jpg	99
142.95	2.441	2440.8	generate	Run1	generate/STIM_005.jpg	100
147.809	2.887	2887.2	generate	Run1	generate/STIM_005.jpg	99
153.401	2.547	2546.8	generate	Run1	generate/STIM_005.jpg	100
159.219	3.042	3042.3	generate	Run1	generate/STIM_006.jpg	99
165.776	2.191	2191.1	generate	Run1	generate/STIM_006.jpg	99
171.858	1.383	1382.8	generate	Run1	generate/STIM_006.jpg	99
176.481	2.867	2867.0	generate	Run1	generate/STIM_006.jpg	99
182.92	1.92	1919.7	generate	Run1	generate/STIM_006.jpg	99
187.113	2.236	2236.3	generate	Run1	generate/STIM_007.jpg	99
191.868	3.019	3019.2	generate	Run1	generate/STIM_007.jpg	99
197.637	1.45	1449.7	generate	Run1	generate/STIM_007.jpg	100
201.969	2.079	2078.8	generate	Run1	generate/STIM_007.jpg	99
207.65	1.591	1591.0	generate	Run1	generate/STIM_007.jpg	99
211.784	2.127	2127.0	generate	Run1	generate/STIM_008.jpg	99
217.529	2.288	2288.2	generate	Run1	generate/STIM_008.jpg	99
223.05	2.318	2318.2	generate	Run1	generate/STIM_008.jpg	99
227.688	1.44	1440.0	generate	Run1	generate/STIM_008.jpg	100
232.497	1.698	1697.8	generate	Run1	generate/STIM_008.jpg	99
237.193	1.704	1704.0	generate	Run1	generate/STIM_009.jpg	99
242.201	1.353	1353.3	generate	Run1	generate/STIM_009.jpg	99
246.522	2.821	2821.3	generate	Run1	generate/STIM_009.jpg	100
251.413	1.395	1395.4	generate	Run1	generate/STIM_009.jpg	99
256.55	1.466	1465.6	generate	Run1	generate/STIM_009.jpg	99
261.478	3.118	3117.6	generate	Run1	generate/STIM_010.jpg	100
266.774	1.872	1871.5	generate	Run1	generate/STIM_010.jpg	99
271.89	1.313	1312.7	generate	Run1	generate/STIM_010.jpg	99
275.261	1.672	1671.8	generate	Run1	generate/STIM_010.jpg	99
279.926	1.697	1697.2	generate	Run1	generate/STIM_010.jpg	99
284.178	2.602	2602.0	generate	Run1	generate/STIM_011.jpg	100
290.429	2.9	2899.5	generate	Run1	generate/STIM_011.jpg	100
295.562	2.401	2401.4	generate	Run1	generate/STIM_011.jpg	100
301.337	2.77	2769.5	generate	Run1	generate/STIM_011.jpg	100
306.528	1.3	1299.5	generate	Run1	generate/STIM_011.jpg	99
311.406	3.155	3155.0	generate	Run1	generate/STIM_012.jpg	99
317.015	2.754	2754.2	generate	Run1	generate/STIM_012.jpg	100
322.952	1.849	1848.6	generate	Run1	generate/STIM_012.jpg	100
326.933	2.476	2475.5	generate	Run1	generate/STIM_012.jpg	100
331.863	1.49	1490.1	generate	Run1	generate/STIM_012.jpg	99
337.153	3.434	3434.3	generate	Run1	generate/STIM_013.jpg	99
342.939	1.722	1722.3	generate	Run1	generate/STIM_013.jpg	99
348.403	2.553	2553.3	generate	Run1	generate/STIM_013.jpg	100
354.567	1.694	1694.0	generate	Run1	generate/STIM_013.jpg	99
358.722	2.092	2092.3	generate	Run1	generate/STIM_013.jpg	99
363.64	3.298	3297.9	generate	Run1	generate/STIM_014.jpg	100
370.684	3.0	2999.9	generate	Run1	generate/STIM_014.jpg	100
377.217	3.0	2999.6	generate	Run1	generate/STIM_014.jpg	99
383.69	2.453	2453.0	generate	Run1	generate/STIM_014.jpg	99
388.897	1.323	1323.0	generate	Run1	generate/STIM_014.jpg	100
393.611	3.137	3137.0	generate	Run1	generate/STIM_015.jpg	100
399.632	1.987	1986.6	generate	Run1	generate/STIM_015.jpg	100
403.778	1.509	1508.9	generate	Run1	generate/STIM_015.jpg	100
408.107	1.718	1718.4	generate	Run1	generate/STIM_015.jpg	99
412.882	1.707	1706.7	generate	Run1	generate/STIM_015.jpg	100
417.051	3.429	3429.0	generate	Run1	generate/STIM_016.jpg	100
423.444	3.225	3225.1	generate	Run1	generate/STIM_016.jpg	100
430.152	1.834	1834.2	generate	Run1	generate/STIM_016.jpg	99
435.531	1.842	1842.0	generate	Run1	generate/STIM_016.jpg	99
440.171	1.922	1922.5	generate	Run1	generate/STIM_016.jpg	99
444.147	1.414	1414.2	generate	Run1	generate/STIM_017.jpg	99
447.845	2.704	2704.2	generate	Run1	generate/STIM_017.jpg	99
454.143	1.95	1950.3	generate	Run1	generate/STIM_017.jpg	99
459.168	2.662	2661.5	generate	Run1	generate/STIM_017.jpg	99
465.207	1.811	1811.2	generate	Run1	generate/STIM_017.jpg	99
470.605	2.32	2320.0	generate	Run1	generate/STIM_018.jpg	100
476.653	2.577	2577.4	generate	Run1	generate/STIM_018.jpg	100
483.017	2.56	2559.7	generate	Run1	generate/STIM_018.jpg	99
487.606	2.877	2877.4	generate	Run1	generate/STIM_018.jpg	100
493.928	2.559	2558.7	generate	Run1	generate/STIM_018.jpg	100
499.704	1.682	1682.1	generate	Run1	generate/STIM_019.jpg	99
503.526	2.85	2849.7	generate	Run1	generate/STIM_019.jpg	100
509.974	2.79	2789.5	generate	Run1	generate/STIM_019.jpg	99
515.272	2.076	2075.6	generate	Run1	generate/STIM_019.jpg	99
519.694	2.187	2187.1	generate	Run1	generate/STIM_019.jpg	99
524.347	2.972	2972.1	generate	Run1	generate/STIM_020.jpg	100
530.03	3.144	3144.3	generate	Run1	generate/STIM_020.jpg	99
536.931	2.111	2111.2	generate	Run1	generate/STIM_020.jpg	99
542.624	1.617	1617.0	generate	Run1	generate/STIM_020.jpg	99
546.506	1.178	1178.3	generate	Run1	generate/STIM_020.jpg	99
550.441	1.577	1576.8	generate	Run1	generate/STIM_021.jpg	99
554.338	2.425	2424.9	generate	Run1	generate/STIM_021.jpg	99
559.917	2.451	2451.0	generate	Run1	generate/STIM_021.jpg	100
566.294	2.773	2772.9	generate	Run1	generate/STIM_021.jpg	100
572.273	1.51	1510.0	generate	Run1	generate/STIM_021.jpg	99
576.566	2.593	2592.6	generate	Run1	generate/STIM_022.jpg	100
582.716	1.515	1515.2	generate	Run1	generate/STIM_022.jpg	100
587.582	1.493	1493.3	generate	Run1	generate/STIM_022.jpg	100
592.204	2.769	2769.1	generate	Run1	generate/STIM_022.jpg	99
598.319	1.151	1151.3	generate	Run1	generate/STIM_022.jpg	100
602.75	1.863	1862.8	generate	Run1	generate/STIM_023.jpg	99
607.612	2.135	2135.2	generate	Run1	generate/STIM_023.jpg	100
612.567	2.445	2444.7	generate	Run1	generate/STIM_023.jpg	99
618.009	2.504	2504.0	generate	Run1	generate/STIM_023.jpg	99
623.743	2.376	2376.5	generate	Run1	generate/STIM_023.jpg	99
628.351	1.978	1978.1	generate	Run1	generate/STIM_024.jpg	99
633.055	3.137	3136.7	generate	Run1	generate/STIM_024.jpg	100
638.95	2.356	2356.0	generate	Run1	generate/STIM_024.jpg	100
644.335	1.603	1602.9	generate	Run1	generate/STIM_024.jpg	99
649.205	2.776	2776.5	generate	Run1	generate/STIM_024.jpg	99
654.945	0.668	668.3	repeat	Run1	repeat/STIM_000.jpg	100
659.029	1.009	1009.0	repeat	Run1	repeat/STIM_000.jpg	100
663.902	0.998	998.1	repeat	Run1	repeat/STIM_000.jpg	100
667.036	0.744	743.6	repeat	Run1	repeat/STIM_000.jpg	99
671.261	0.682	681.9	repeat	Run1	repeat/STIM_000.jpg	100
675.804	0.829	829.2	repeat	Run1	repeat/STIM_001.jpg	99
679.621	1.095	1095.4	repeat	Run1	repeat/STIM_001.jpg	100
683.499	0.713	712.7	repeat	Run1	repeat/STIM_001.jpg	100
686.468	1.075	1075.3	repeat	Run1	repeat/STIM_001.jpg	99
690.632	0.852	851.6	repeat	Run1	repeat/STIM_001.jpg	100
695.066	0.93	929.5	repeat	Run1	repeat/STIM_002.jpg	100
698.393	0.67	669.7	repeat	Run1	repeat/STIM_002.jpg	100
701.208	0.837	836.6	repeat	Run1	repeat/STIM_002.jpg	99
705.925	0.959	959.1	repeat	Run1	repeat/STIM_002.jpg	100
710.03	0.607	606.6	repeat	Run1	repeat/STIM_002.jpg	100
714.478	0.872	872.0	repeat	Run1	repeat/STIM_003.jpg	99
717.898	0.848	847.7	repeat	Run1	repeat/STIM_003.jpg	99
722.415	0.954	954.2	repeat	Run1	repeat/STIM_003.jpg	99
727.146	1.003	1003.2	repeat	Run1	repeat/STIM_003.jpg	100
731.733	0.888	887.8	repeat	Run1	repeat/STIM_003.jpg	100
735.031	1.165	1165.3	repeat	Run1	repeat/STIM_004.jpg	100
738.819	0.97	970.0	repeat	Run1	repeat/STIM_004.jpg	100
741.891	0.785	785.0	repeat	Run1	repeat/STIM_004.jpg	100
745.02	1.086	1085.8	repeat	Run1	repeat/STIM_004.jpg	99
748.984	1.012	1012.2	repeat	Run1	repeat/STIM_004.jpg	99
753.778	0.655	655.3	repeat	Run1	repeat/STIM_005.jpg	100
758.153	0.745	744.8	repeat	Run1	repeat/STIM_005.jpg	100
761.483	0.586	586.0	repeat	Run1	repeat/STIM_005.jpg	100
765.596	0.684	683.6	repeat	Run1	repeat/STIM_005.jpg	99
768.754	0.967	967.0	repeat	Run1	repeat/STIM_005.jpg	99
772.579	0.861	860.6	repeat	Run1	repeat/STIM_006.jpg	100
776.433	0.809	809.3	repeat	Run1	repeat/STIM_006.jpg	99
780.727	0.859	859.0	repeat	Run1	repeat/STIM_006.jpg	99
784.265	0.949	948.7	repeat	Run1	repeat/STIM_006.jpg	99
788.749	1.1	1100.5	repeat	Run1	repeat/STIM_006.jpg	100
793.522	1.128	1127.6	repeat	Run1	repeat/STIM_007.jpg	100
796.847	1.0	1000.5	repeat	Run1	repeat/STIM_007.jpg	99
800.087	0.594	593.8	repeat	Run1	repeat/STIM_007.jpg	99
803.339	0.859	858.8	repeat	Run1	repeat/STIM_007.jpg	100
806.741	1.013	1012.9	repeat	Run1	repeat/STIM_007.jpg	100
809.817	0.97	970.3	repeat	Run1	repeat/STIM_008.jpg	100
814.509	0.906	905.7	repeat	Run1	repeat/STIM_008.jpg	99
818.642	0.782	782.4	repeat	Run1	repeat/STIM_008.jpg	100
823.169	0.835	835.0	repeat	Run1	repeat/STIM_008.jpg	100
827.528	0.817	817.2	repeat	Run1	repeat/STIM_008.jpg	99
830.867	1.029	1028.9	repeat	Run1	repeat/STIM_009.jpg	99
834.512	0.971	970.7	repeat	Run1	repeat/STIM_009.jpg	100
838.496	0.987	986.8	repeat	Run1	repeat/STIM_009.jpg	99
841.6	0.671	671.4	repeat	Run1	repeat/STIM_009.jpg	99
845.481	0.858	857.7	repeat	Run1	repeat/STIM_009.jpg	99
849.935	0.915	915.2	repeat	Run1	repeat/STIM_010.jpg	99
854.511	1.003	1003.3	repeat	Run1	repeat/STIM_010.jpg	100
859.06	0.787	787.4	repeat	Run1	repeat/STIM_010.jpg	99
862.083	0.897	897.3	repeat	Run1	repeat/STIM_010.jpg	99
865.307	1.008	1008.5	repeat	Run1	repeat/STIM_010.jpg	99
868.909	0.971	971.3	repeat	Run1	repeat/STIM_011.jpg	99
872.759	0.753	752.7	repeat	Run1	repeat/STIM_011.jpg	100
876.929	0.795	795.2	repeat	Run1	repeat/STIM_011.jpg	99
881.462	1.101	1101.0	repeat	Run1	repeat/STIM_011.jpg	99
884.601	0.617	616.9	repeat	Run1	repeat/STIM_011.jpg	99
887.291	1.012	1012.3	repeat	Run1	repeat/STIM_012.jpg	99
891.269	0.891	891.0	repeat	Run1	repeat/STIM_012.jpg	99
896.055	0.956	956.4	repeat	Run1	repeat/STIM_012.jpg	100
899.597	0.915	915.2	repeat	Run1	repeat/STIM_012.jpg	100
903.149	1.092	1092.2	repeat	Run1	repeat/STIM_012.jpg	100
907.294	0.744	743.7	repeat	Run1	repeat/STIM_013.jpg	100
910.895	0.876	876.5	repeat	Run1	repeat/STIM_013.jpg	99
914.41	1.16	1159.7	repeat	Run1	repeat/STIM_013.jpg	99
918.185	0.759	758.6	repeat	Run1	repeat/STIM_013.jpg	100
921.319	0.591	591.1	repeat	Run1	repeat/STIM_013.jpg	99
924.828	0.59	589.6	repeat	Run1	repeat/STIM_014.jpg	100
928.284	0.708	707.7	repeat	Run1	repeat/STIM_014.jpg	99
932.226	1.012	1012.4	repeat	Run1	repeat/STIM_014.jpg	100
935.689	0.967	966.8	repeat	Run1	repeat/STIM_014.jpg	99
940.244	0.767	766.7	repeat	Run1	repeat/STIM_014.jpg	100
944.567	2.658	2658.4	generate	Run2	generate/STIM_000.jpg	99
950.27	1.288	1287.8	generate	Run2	generate/STIM_000.jpg	99
954.386	1.394	1393.9	generate	Run2	generate/STIM_000.jpg	99
958.738	1.065	1064.8	generate	Run2	generate/STIM_000.jpg	100
962.897	2.161	2161.2	generate	Run2	generate/STIM_000.jpg	100
968.289	1.345	1345.3	generate	Run2	generate/STIM_001.jpg	99
972.904	2.259	2259.4	generate	Run2	generate/STIM_001.jpg	99
979.028	1.377	1376.7	generate	Run2	generate/STIM_001.jpg	99
983.881	1.073	1072.6	generate	Run2	generate/STIM_001.jpg	100
988.105	0.984	984.3	generate	Run2	generate/STIM_001.jpg	100
991.938	1.778	1778.4	generate	Run2	generate/STIM_002.jpg	99
996.72	1.204	1204.3	generate	Run2	generate/STIM_002.jpg	99
1001.016	1.513	1513.2	generate	Run2	generate/STIM_002.jpg	99
1004.709	2.362	2362.3	generate	Run2	generate/STIM_002.jpg	99
1009.966	1.925	1924.8	generate	Run2	generate/STIM_002.jpg	99
1014.329	2.977	2977.1	generate	Run2	generate/STIM_003.jpg	99
1020.16	1.255	1255.3	generate	Run2	generate/STIM_003.jpg	100
1023.858	1.537	1536.6	generate	Run2	generate/STIM_003.jpg	99
1028.539	2.426	2425.9	generate	Run2	generate/STIM_003.jpg	100
1034.862	1.41	1410.1	generate	Run2	generate/STIM_003.jpg	100
1039.539	1.291	1291.4	generate	Run2	generate/STIM_004.jpg	100
1042.959	2.363	2363.4	generate	Run2	generate/STIM_004.jpg	100
1048.692	2.025	2024.8	generate	Run2	generate/STIM_004.jpg	100
1054.163	1.68	1680.0	generate	Run2	generate/STIM_004.jpg	100
1057.985	1.388	1387.5	generate	Run2	generate/STIM_004.jpg	99
1061.774	1.505	1504.6	generate	Run2	generate/STIM_005.jpg	100
1065.834	1.644	1643.6	generate	Run2	generate/STIM_005.jpg	99
1069.648	2.308	2308.3	generate	Run2	generate/STIM_005.jpg	99
1075.894	1.028	1028.1	generate	Run2	generate/STIM_005.jpg	99
1079.902	2.313	2313.0	generate	Run2	generate/STIM_005.jpg	99
1084.587	2.768	2768.5	generate	Run2	generate/STIM_006.jpg	99
1089.908	1.657	1656.6	generate	Run2	generate/STIM_006.jpg	100
1094.835	1.072	1072.2	generate	Run2	generate/STIM_006.jpg	99
1099.845	2.34	2340.3	generate	Run2	generate/STIM_006.jpg	100
1105.334	1.173	1173.3	generate	Run2	generate/STIM_006.jpg	99
1108.681	1.73	1730.2	generate	Run2	generate/STIM_007.jpg	100
1113.989	2.328	2328.2	generate	Run2	generate/STIM_007.jpg	100
1118.366	2.581	2581.1	generate	Run2	generate/STIM_007.jpg	100
1123.441	2.324	2324.2	generate	Run2	generate/STIM_007.jpg	100
1128.924	1.158	1157.7	generate	Run2	generate/STIM_007.jpg	100
1133.229	1.385	1384.9	generate	Run2	generate/STIM_008.jpg	100
1137.669	1.297	1296.8	generate	Run2	generate/STIM_008.jpg	99
1142.09	1.292	1291.8	generate	Run2	generate/STIM_008.jpg	100
1146.983	2.135	2134.6	generate	Run2	generate/STIM_008.jpg	100
1151.772	1.356	1355.5	generate	Run2	generate/STIM_008.jpg	100
1155.818	2.094	2094.3	generate	Run2	generate/STIM_009.jpg	100
1160.117	1.583	1582.8	generate	Run2	generate/STIM_009.jpg	100
1165.423	1.616	1616.3	generate	Run2	generate/STIM_009.jpg	99
1170.802	1.834	1834.0	generate	Run2	generate/STIM_009.jpg	99
1175.822	2.059	2059.2	generate	Run2	generate/STIM_009.jpg	99
1181.782	2.614	2613.6	generate	Run2	generate/STIM_010.jpg	100
1187.39	1.72	1720.4	generate	Run2	generate/STIM_010.jpg	99
1191.329	1.382	1382.4	generate	Run2	generate/STIM_010.jpg	100
1195.656	1.432	1431.6	generate	Run2	generate/STIM_010.jpg	100
1199.134	2.005	2004.8	generate	Run2	generate/STIM_010.jpg	100
1203.925	1.554	1553.6	generate	Run2	generate/STIM_011.jpg	99
1208.724	1.257	1257.2	generate	Run2	generate/STIM_011.jpg	99
1212.719	1.986	1986.3	generate	Run2	generate/STIM_011.jpg	99
1218.032	2.218	2218.0	generate	Run2	generate/STIM_011.jpg	99
1223.137	1.507	1506.7	generate	Run2	generate/STIM_011.jpg	100
1227.944	2.893	2893.2	generate	Run2	generate/STIM_012.jpg	100
1234.166	1.508	1507.6	generate	Run2	generate/STIM_012.jpg	99
1238.156	1.162	1161.6	generate	Run2	generate/STIM_012.jpg	99
1242.113	1.48	1480.0	generate	Run2	generate/STIM_012.jpg	100
1246.966	2.26	2260.5	generate	Run2	generate/STIM_012.jpg	99
1251.438	2.948	2947.7	generate	Run2	generate/STIM_013.jpg	99
1257.977	2.485	2484.6	generate	Run2	generate/STIM_013.jpg	99
1264.203	1.633	1633.3	generate	Run2	generate/STIM_013.jpg	99
1267.937	1.647	1647.2	generate	Run2	generate/STIM_013.jpg	99
1272.551	1.664	1664.2	generate	Run2	generate/STIM_013.jpg	100
1276.541	2.591	2590.9	generate	Run2	generate/STIM_014.jpg	100
1281.775	2.338	2337.9	generate	Run2	generate/STIM_014.jpg	99
1286.688	2.606	2606.3	generate	Run2	generate/STIM_014.jpg	100
1291.648	1.716	1715.5	generate	Run2	generate/STIM_014.jpg	99
1295.926	1.861	1861.2	generate	Run2	generate/STIM_014.jpg	99
1301.062	1.49	1489.6	generate	Run2	generate/STIM_015.jpg	99
1305.506	2.774	2773.8	generate	Run2	generate/STIM_015.jpg	100
1311.671	1.244	1244.5	generate	Run2	generate/STIM_015.jpg	99
1315.817	2.33	2330.0	generate	Run2	generate/STIM_015.jpg	100
1321.925	2.045	2045.0	generate	Run2	generate/STIM_015.jpg	99
1326.684	1.986	1986.0	generate	Run2	generate/STIM_016.jpg	100
1331.247	2.464	2464.3	generate	Run2	generate/STIM_016.jpg	100
1336.676	1.218	1218.1	generate	Run2	generate/STIM_016.jpg	100
1340.083	1.811	1811.4	generate	Run2	generate/STIM_016.jpg	99
1345.157	2.246	2245.7	generate	Run2	generate/STIM_016.jpg	99
1350.248	2.492	2491.5	generate	Run2	generate/STIM_017.jpg	99
1355.118	2.176	2176.4	generate	Run2	generate/STIM_017.jpg	99
1359.81	2.383	2383.0	generate	Run2	generate/STIM_017.jpg	99
1364.451	2.069	2068.7	generate	Run2	generate/STIM_017.jpg	99
1369.164	2.136	2136.2	generate	Run2	generate/STIM_017.jpg	100
1375.123	2.15	2150.0	generate	Run2	generate/STIM_018.jpg	100
1381.058	2.469	2468.8	generate	Run2	generate/STIM_018.jpg	99
1387.025	1.165	1165.0	generate	Run2	generate/STIM_018.jpg	100
1390.28	2.304	2303.7	generate	Run2	generate/STIM_018.jpg	100
1396.117	1.031	1031.3	generate	Run2	generate/STIM_018.jpg	99
1399.955	2.84	2839.7	generate	Run2	generate/STIM_019.jpg	99
1405.629	1.663	1662.9	generate	Run2	generate/STIM_019.jpg	100
1410.385	2.274	2273.7	generate	Run2	generate/STIM_019.jpg	100
1416.033	1.603	1602.7	generate	Run2	generate/STIM_019.jpg	100
1420.301	1.779	1778.8	generate	Run2	generate/STIM_019.jpg	100
1425.673	1.542	1542.4	generate	Run2	generate/STIM_020.jpg	99
1431.204	2.226	2226.3	generate	Run2	generate/STIM_020.jpg	99
1437.133	2.158	2158.1	generate	Run2	generate/STIM_020.jpg	100
1441.942	1.372	1371.8	generate	Run2	generate/STIM_020.jpg	100
1445.376	1.203	1203.1	generate	Run2	generate/STIM_020.jpg	99
1450.308	2.936	2936.2	generate	Run2	generate/STIM_021.jpg	99
1455.658	2.384	2383.6	generate	Run2	generate/STIM_021.jpg	99
1460.166	2.603	2602.7	generate	Run2	generate/STIM_021.jpg	100
1464.809	1.316	1316.0	generate	Run2	generate/STIM_021.jpg	99
1469.772	2.157	2157.3	generate	Run2	generate/STIM_021.jpg	100
1474.455	2.515	2514.7	generate	Run2	generate/STIM_022.jpg	100
1480.941	1.74	1740.1	generate	Run2	generate/STIM_022.jpg	99
1485.73	2.158	2158.0	generate	Run2	generate/STIM_022.jpg	100
1490.816	2.358	2358.5	generate	Run2	generate/STIM_022.jpg	99
1495.698	1.551	1551.0	generate	Run2	generate/STIM_022.jpg	100
1499.741	2.758	2758.4	generate	Run2	generate/STIM_023.jpg	100
1504.908	1.674	1674.5	generate	Run2	generate/STIM_023.jpg	99
1509.665	1.42	1419.7	generate	Run2	generate/STIM_023.jpg	100
1513.413	2.084	2083.5	generate	Run2	generate/STIM_023.jpg	100
1519.237	2.389	2388.7	generate	Run2	generate/STIM_023.jpg	100
1525.397	1.381	1381.3	generate	Run2	generate/STIM_024.jpg	99
1530.0	2.614	2613.9	generate	Run2	generate/STIM_024.jpg	100
1535.295	2.622	2621.9	generate	Run2	generate/STIM_024.jpg	100
1541.226	2.043	2042.8	generate	Run2	generate/STIM_024.jpg	99
1547.232	1.532	1532.1	generate	Run2	generate/STIM_024.jpg	99
1551.067	0.61	609.7	repeat	Run2	repeat/STIM_000.jpg	99
1554.029	0.703	703.1	repeat	Run2	repeat/STIM_000.jpg	99
1557.49	0.781	780.8	repeat	Run2	repeat/STIM_000.jpg	99
1561.632	0.941	941.3	repeat	Run2	repeat/STIM_000.jpg	100
1565.638	1.025	1024.6	repeat	Run2	repeat/STIM_000.jpg	99
1570.173	0.677	676.8	repeat	Run2	repeat/STIM_001.jpg	100
1574.66	0.928	928.0	repeat	Run2	repeat/STIM_001.jpg	99
1578.338	0.842	842.5	repeat	Run2	repeat/STIM_001.jpg	99
1581.222	0.814	814.0	repeat	Run2	repeat/STIM_001.jpg	100
1584.881	1.051	1050.9	repeat	Run2	repeat/STIM_001.jpg	100
1588.444	1.002	1002.5	repeat	Run2	repeat/STIM_002.jpg	100
1593.142	0.641	640.8	repeat	Run2	repeat/STIM_002.jpg	99
1596.405	0.769	768.7	repeat	Run2	repeat/STIM_002.jpg	100
1599.212	1.098	1098.1	repeat	Run2	repeat/STIM_002.jpg	99
1603.338	1.04	1040.4	repeat	Run2	repeat/STIM_002.jpg	100
1607.542	0.877	877.1	repeat	Run2	repeat/STIM_003.jpg	100
1611.253	0.967	966.6	repeat	Run2	repeat/STIM_003.jpg	100
1615.975	0.617	617.2	repeat	Run2	repeat/STIM_003.jpg	99
1619.14	0.686	686.0	repeat	Run2	repeat/STIM_003.jpg	99
1621.948	0.677	676.7	repeat	Run2	repeat/STIM_003.jpg	99
1626.534	0.883	883.2	repeat	Run2	repeat/STIM_004.jpg	100
1629.479	0.992	991.9	repeat	Run2	repeat/STIM_004.jpg	100
1632.832	0.646	646.4	repeat	Run2	repeat/STIM_004.jpg	99
1637.222	1.094	1094.1	repeat	Run2	repeat/STIM_004.jpg	99
1642.086	0.828	828.1	repeat	Run2	repeat/STIM_004.jpg	100
1645.934	0.756	755.6	repeat	Run2	repeat/STIM_005.jpg	100
1650.027	1.145	1144.8	repeat	Run2	repeat/STIM_005.jpg	99
1654.272	1.124	1124.1	repeat	Run2	repeat/STIM_005.jpg	99
1657.881	0.8	799.7	repeat	Run2	repeat/STIM_005.jpg	99
1660.999	0.941	940.8	repeat	Run2	repeat/STIM_005.jpg	100
1664.005	0.865	864.6	repeat	Run2	repeat/STIM_006.jpg	100
1667.244	0.667	667.1	repeat	Run2	repeat/STIM_006.jpg	100
1671.746	0.924	924.1	repeat	Run2	repeat/STIM_006.jpg	100
1675.637	1.143	1142.8	repeat	Run2	repeat/STIM_006.jpg	100
1679.472	0.952	952.3	repeat	Run2	repeat/STIM_006.jpg	99
1684.123	1.099	1098.7	repeat	Run2	repeat/STIM_007.jpg	99
1687.644	1.158	1158.0	repeat	Run2	repeat/STIM_007.jpg	99
1692.644	0.923	922.7	repeat	Run2	repeat/STIM_007.jpg	99
1697.36	0.698	697.9	repeat	Run2	repeat/STIM_007.jpg	100
1700.29	0.938	937.9	repeat	Run2	repeat/STIM_007.jpg	100
1704.456	1.045	1045.3	repeat	Run2	repeat/STIM_008.jpg	100
1709.374	0.869	869.1	repeat	Run2	repeat/STIM_008.jpg	100
1713.838	0.677	677.3	repeat	Run2	repeat/STIM_008.jpg	100
1717.857	1.001	1001.3	repeat	Run2	repeat/STIM_008.jpg	99
1722.792	0.759	758.7	repeat	Run2	repeat/STIM_008.jpg	99
1726.732	0.771	771.4	repeat	Run2	repeat/STIM_009.jpg	100
1730.462	0.879	879.4	repeat	Run2	repeat/STIM_009.jpg	100
1735.197	0.989	989.3	repeat	Run2	repeat/STIM_009.jpg	100
1739.543	0.846	845.9	repeat	Run2	repeat/STIM_009.jpg	100
1742.592	0.62	620.0	repeat	Run2	repeat/STIM_009.jpg	100
1746.836	1.159	1159.2	repeat	Run2	repeat/STIM_010.jpg	100
1751.738	0.79	790.2	repeat	Run2	repeat/STIM_010.jpg	99
1756.198	1.051	1050.6	repeat	Run2	repeat/STIM_010.jpg	99
1760.429	0.678	677.5	repeat	Run2	repeat/STIM_010.jpg	99
1764.638	1.131	1131.4	repeat	Run2	repeat/STIM_010.jpg	100
1768.485	0.746	746.4	repeat	Run2	repeat/STIM_011.jpg	99
1771.634	0.797	796.8	repeat	Run2	repeat/STIM_011.jpg	99
1775.98	0.921	920.9	repeat	Run2	repeat/STIM_011.jpg	99
1779.658	0.657	657.4	repeat	Run2	repeat/STIM_011.jpg	100
1783.498	0.96	959.5	repeat	Run2	repeat/STIM_011.jpg	99
1788.408	0.702	701.9	repeat	Run2	repeat/STIM_012.jpg	100
1791.306	1.139	1139.2	repeat	Run2	repeat/STIM_012.jpg	99
1794.778	0.809	809.4	repeat	Run2	repeat/STIM_012.jpg	99
1799.583	0.778	777.5	repeat	Run2	repeat/STIM_012.jpg	100
1803.415	0.878	878.1	repeat	Run2	repeat/STIM_012.jpg	100
1807.356	1.137	1137.3	repeat	Run2	repeat/STIM_013.jpg	99
1811.897	0.689	688.8	repeat	Run2	repeat/STIM_013.jpg	99
1815.188	0.659	659.4	repeat	Run2	repeat/STIM_013.jpg	100
1818.599	0.811	810.8	repeat	Run2	repeat/STIM_013.jpg	100
1821.88	0.761	761.3	repeat	Run2	repeat/STIM_013.jpg	99
1825.71	1.144	1144.2	repeat	Run2	repeat/STIM_014.jpg	100
1830.71	0.924	924.3	repeat	Run2	repeat/STIM_014.jpg	100
1833.937	0.697	696.9	repeat	Run2	repeat/STIM_014.jpg	99
1837.611	0.904	904.5	repeat	Run2	repeat/STIM_014.jpg	99
1841.292	0.931	930.7	repeat	Run2	repeat/STIM_014.jpg	100
1845.922	1.119	1118.9	generate	Run3	generate/STIM_000.jpg	100
1849.329	1.341	1340.7	generate	Run3	generate/STIM_000.jpg	99
1852.843	1.52	1520.3	generate	Run3	generate/STIM_000.jpg	99
1858.346	1.147	1147.3	generate	Run3	generate/STIM_000.jpg	99
1863.296	1.154	1154.5	generate	Run3	generate/STIM_000.jpg	99
1867.412	1.875	1875.0	generate	Run3	generate/STIM_001.jpg	100
1871.985	2.329	2329.3	generate	Run3	generate/STIM_001.jpg	100
1878.205	2.372	2372.0	generate	Run3	generate/STIM_001.jpg	99
1883.118	1.251	1250.6	generate	Run3	generate/STIM_001.jpg	100
1886.932	2.04	2040.4	generate	Run3	generate/STIM_001.jpg	99
1892.943	1.552	1551.7	generate	Run3	generate/STIM_002.jpg	99
1896.848	1.356	1356.2	generate	Run3	generate/STIM_002.jpg	99
1900.228	1.706	1705.5	generate	Run3	generate/STIM_002.jpg	100
1904.025	1.79	1790.4	generate	Run3	generate/STIM_002.jpg	100
1908.961	1.667	1667.3	generate	Run3	generate/STIM_002.jpg	100
1912.7	1.055	1055.1	generate	Run3	generate/STIM_003.jpg	100
1917.111	1.23	1230.4	generate	Run3	generate/STIM_003.jpg	100
1921.55	1.898	1898.3	generate	Run3	generate/STIM_003.jpg	100
1926.414	2.265	2265.1	generate	Run3	generate/STIM_003.jpg	100
1930.839	1.502	1501.5	generate	Run3	generate/STIM_003.jpg	99
1935.053	1.598	1597.8	generate	Run3	generate/STIM_004.jpg	99
1938.915	2.347	2346.9	generate	Run3	generate/STIM_004.jpg	99
1944.606	1.576	1576.4	generate	Run3	generate/STIM_004.jpg	100
1949.115	1.79	1789.7	generate	Run3	generate/STIM_004.jpg	99
1953.318	1.476	1476.0	generate	Run3	generate/STIM_004.jpg	100
1958.188	1.036	1035.7	generate	Run3	generate/STIM_005.jpg	100
1962.878	2.365	2364.9	generate	Run3	generate/STIM_005.jpg	99
1969.074	2.4	2400.4	generate	Run3	generate/STIM_005.jpg	99
1974.169	1.058	1057.7	generate	Run3	generate/STIM_005.jpg	100
1977.76	1.108	1108.0	generate	Run3	generate/STIM_005.jpg	99
1982.766	2.232	2232.1	generate	Run3	generate/STIM_006.jpg	99
1988.475	2.3	2300.0	generate	Run3	generate/STIM_006.jpg	99
1992.795	2.136	2135.5	generate	Run3	generate/STIM_006.jpg	100
1998.511	1.33	1330.5	generate	Run3	generate/STIM_006.jpg	99
2002.131	2.263	2263.0	generate	Run3	generate/STIM_006.jpg	100
2006.947	2.354	2354.0	generate	Run3	generate/STIM_007.jpg	99
2012.04	2.208	2207.5	generate	Run3	generate/STIM_007.jpg	100
2017.462	1.182	1181.8	generate	Run3	generate/STIM_007.jpg	99
2021.517	1.254	1253.7	generate	Run3	generate/STIM_007.jpg	99
2026.048	1.918	1918.5	generate	Run3	generate/STIM_007.jpg	100
2031.242	1.253	1253.3	generate	Run3	generate/STIM_008.jpg	99
2035.519	1.555	1555.4	generate	Run3	generate/STIM_008.jpg	99
2039.852	1.696	1696.4	generate	Run3	generate/STIM_008.jpg	100
2043.749	2.165	2165.2	generate	Run3	generate/STIM_008.jpg	100
2049.703	1.69	1689.5	generate	Run3	generate/STIM_008.jpg	99
2053.908	1.123	1123.1	generate	Run3	generate/STIM_009.jpg	100
2058.677	1.968	1968.3	generate	Run3	generate/STIM_009.jpg	100
2063.658	1.106	1105.7	generate	Run3	generate/STIM_009.jpg	99
2067.632	1.062	1061.5	generate	Run3	generate/STIM_009.jpg	99
2071.056	2.31	2309.7	generate	Run3	generate/STIM_009.jpg	100
2077.14	1.099	1099.4	generate	Run3	generate/STIM_010.jpg	100
2080.47	1.645	1645.0	generate	Run3	generate/STIM_010.jpg	100
2084.926	1.866	1866.0	generate	Run3	generate/STIM_010.jpg	99
2090.236	1.399	1398.7	generate	Run3	generate/STIM_010.jpg	99
2094.833	1.831	1831.2	generate	Run3	generate/STIM_010.jpg	100
2099.784	1.48	1480.3	generate	Run3	generate/STIM_011.jpg	100
2103.318	1.191	1191.1	generate	Run3	generate/STIM_011.jpg	99
2107.128	1.157	1157.1	generate	Run3	generate/STIM_011.jpg	99
2111.709	2.154	2153.9	generate	Run3	generate/STIM_011.jpg	100
2116.138	1.091	1091.3	generate	Run3	generate/STIM_011.jpg	100
2120.352	2.303	2302.9	generate	Run3	generate/STIM_012.jpg	100
2124.969	2.383	2383.4	generate	Run3	generate/STIM_012.jpg	99
2130.524	1.345	1344.6	generate	Run3	generate/STIM_012.jpg	100
2134.261	1.898	1897.6	generate	Run3	generate/STIM_012.jpg	100
2138.951	2.323	2323.4	generate	Run3	generate/STIM_012.jpg	99
2144.855	1.62	1619.6	generate	Run3	generate/STIM_013.jpg	100
2150.097	1.262	1262.0	generate	Run3	generate/STIM_013.jpg	99
2154.037	2.369	2369.0	generate	Run3	generate/STIM_013.jpg	100
2159.904	1.572	1571.5	generate	Run3	generate/STIM_013.jpg	99
2164.366	1.809	1808.7	generate	Run3	generate/STIM_013.jpg	100
2169.957	1.906	1906.4	generate	Run3	generate/STIM_014.jpg	99
2174.64	1.575	1574.6	generate	Run3	generate/STIM_014.jpg	99
2178.866	1.288	1287.6	generate	Run3	generate/STIM_014.jpg	99
2182.97	2.228	2227.7	generate	Run3	generate/STIM_014.jpg	99
2188.394	1.492	1491.7	generate	Run3	generate/STIM_014.jpg	100
2193.044	1.91	1910.2	generate	Run3	generate/STIM_015.jpg	99
2198.43	1.63	1629.7	generate	Run3	generate/STIM_015.jpg	100
2203.686	2.181	2181.2	generate	Run3	generate/STIM_015.jpg	99
2209.714	1.319	1318.6	generate	Run3	generate/STIM_015.jpg	100
2213.946	1.041	1041.2	generate	Run3	generate/STIM_015.jpg	99
2218.156	1.26	1260.3	generate	Run3	generate/STIM_016.jpg	99
2222.879	2.22	2219.6	generate	Run3	generate/STIM_016.jpg	100
2228.532	1.129	1129.3	generate	Run3	generate/STIM_016.jpg	100
2233.468	1.567	1566.8	generate	Run3	generate/STIM_016.jpg	99
2238.092	1.791	1790.9	generate	Run3	generate/STIM_016.jpg	99
2243.309	2.173	2173.1	generate	Run3	generate/STIM_017.jpg	100
2248.49	1.436	1436.5	generate	Run3	generate/STIM_017.jpg	100
2253.414	1.924	1924.3	generate	Run3	generate/STIM_017.jpg	100
2258.198	2.422	2422.2	generate	Run3	generate/STIM_017.jpg	100
2263.389	2.123	2122.6	generate	Run3	generate/STIM_017.jpg	100
2268.31	1.593	1592.8	generate	Run3	generate/STIM_018.jpg	100
2273.178	1.117	1117.0	generate	Run3	generate/STIM_018.jpg	100
2276.739	2.048	2047.8	generate	Run3	generate/STIM_018.jpg	99
2281.425	2.401	2401.3	generate	Run3	generate/STIM_018.jpg	99
2286.765	1.285	1285.4	generate	Run3	generate/STIM_018.jpg	99
2291.331	1.056	1056.4	generate	Run3	generate/STIM_019.jpg	99
2295.086	2.134	2134.1	generate	Run3	generate/STIM_019.jpg	99
2299.52	2.332	2331.5	generate	Run3	generate/STIM_019.jpg	99
2304.413	1.649	1648.7	generate	Run3	generate/STIM_019.jpg	99
2308.666	1.674	1674.0	generate	Run3	generate/STIM_019.jpg	99
2312.488	2.127	2126.9	generate	Run3	generate/STIM_020.jpg	99
2318.374	1.683	1682.6	generate	Run3	generate/STIM_020.jpg	99
2323.91	1.782	1782.4	generate	Run3	generate/STIM_020.jpg	100
2329.542	1.998	1997.6	generate	Run3	generate/STIM_020.jpg	99
2334.726	1.68	1680.2	generate	Run3	generate/STIM_020.jpg	99
2338.641	1.013	1012.6	generate	Run3	generate/STIM_021.jpg	99
2342.265	1.347	1347.0	generate	Run3	generate/STIM_021.jpg	99
2346.056	1.064	1064.0	generate	Run3	generate/STIM_021.jpg	99
2350.725	1.96	1960.2	generate	Run3	generate/STIM_021.jpg	99
2354.719	1.881	1880.7	generate	Run3	generate/STIM_021.jpg	100
2360.261	1.475	1475.3	generate	Run3	generate/STIM_022.jpg	100
2365.068	1.786	1786.0	generate	Run3	generate/STIM_022.jpg	99
2370.054	1.588	1588.1	generate	Run3	generate/STIM_022.jpg	100
2374.814	1.41	1409.7	generate	Run3	generate/STIM_022.jpg	99
2378.3	1.432	1432.0	generate	Run3	generate/STIM_022.jpg	99
2383.22	1.182	1182.0	generate	Run3	generate/STIM_023.jpg	100
2386.589	2.392	2392.1	generate	Run3	generate/STIM_023.jpg	99
2391.645	1.108	1108.3	generate	Run3	generate/STIM_023.jpg	100
2396.283	0.991	991.4	generate	Run3	generate/STIM_023.jpg	100
2399.786	2.031	2030.9	generate	Run3	generate/STIM_023.jpg	99
2405.024	2.165	2165.0	generate	Run3	generate/STIM_024.jpg	99
2409.938	2.442	2442.2	generate	Run3	generate/STIM_024.jpg	99
2416.377	2.094	2093.9	generate	Run3	generate/STIM_024.jpg	100
2421.633	1.367	1366.9	generate	Run3	generate/STIM_024.jpg	99
2426.486	1.755	1754.9	generate	Run3	generate/STIM_024.jpg	99
2431.084	0.965	965.4	repeat	Run3	repeat/STIM_000.jpg	100
2435.212	0.641	640.8	repeat	Run3	repeat/STIM_000.jpg	99
2437.895	0.868	868.1	repeat	Run3	repeat/STIM_000.jpg	99
2440.99	0.628	627.9	repeat	Run3	repeat/STIM_000.jpg	100
2443.76	0.829	829.4	repeat	Run3	repeat/STIM_000.jpg	100
2447.492	1.115	1114.7	repeat	Run3	repeat/STIM_001.jpg	99
2450.745	1.137	1137.2	repeat	Run3	repeat/STIM_001.jpg	100
2455.411	1.142	1141.8	repeat	Run3	repeat/STIM_001.jpg	100
2458.661	0.607	606.6	repeat	Run3	repeat/STIM_001.jpg	99
2461.907	1.088	1088.0	repeat	Run3	repeat/STIM_001.jpg	99
2465.228	0.846	846.3	repeat	Run3	repeat/STIM_002.jpg	99
2470.027	0.967	966.9	repeat	Run3	repeat/STIM_002.jpg	100
2474.748	0.697	697.2	repeat	Run3	repeat/STIM_002.jpg	100
2479.279	0.624	624.0	repeat	Run3	repeat/STIM_002.jpg	100
2482.005	1.151	1150.9	repeat	Run3	repeat/STIM_002.jpg	99
2486.109	1.149	1149.2	repeat	Run3	repeat/STIM_003.jpg	100
2490.077	1.138	1138.3	repeat	Run3	repeat/STIM_003.jpg	100
2493.851	0.814	814.5	repeat	Run3	repeat/STIM_003.jpg	100
2496.78	0.915	914.8	repeat	Run3	repeat/STIM_003.jpg	99
2500.239	1.101	1101.0	repeat	Run3	repeat/STIM_003.jpg	100
2503.709	1.083	1082.9	repeat	Run3	repeat/STIM_004.jpg	99
2507.911	0.908	908.3	repeat	Run3	repeat/STIM_004.jpg	99
2511.249	0.664	664.3	repeat	Run3	repeat/STIM_004.jpg	100
2515.331	0.84	840.5	repeat	Run3	repeat/STIM_004.jpg	99
2520.012	0.657	656.6	repeat	Run3	repeat/STIM_004.jpg	100
2522.776	0.625	625.1	repeat	Run3	repeat/STIM_005.jpg	100
2527.361	1.065	1065.1	repeat	Run3	repeat/STIM_005.jpg	100
2532.044	1.008	1007.5	repeat	Run3	repeat/STIM_005.jpg	100
2536.391	1.043	1043.1	repeat	Run3	repeat/STIM_005.jpg	99
2541.399	0.707	707.3	repeat	Run3	repeat/STIM_005.jpg	99
2545.439	0.924	923.7	repeat	Run3	repeat/STIM_006.jpg	100
2549.808	0.696	696.2	repeat	Run3	repeat/STIM_006.jpg	99
2552.88	0.643	642.6	repeat	Run3	repeat/STIM_006.jpg	99
2556.238	1.006	1006.4	repeat	Run3	repeat/STIM_006.jpg	99
2560.654	1.093	1093.2	repeat	Run3	repeat/STIM_006.jpg	99
2563.908	0.703	703.0	repeat	Run3	repeat/STIM_007.jpg	99
2567.851	1.147	1146.7	repeat	Run3	repeat/STIM_007.jpg	100
2572.514	0.885	885.0	repeat	Run3	repeat/STIM_007.jpg	99
2576.04	0.936	936.4	repeat	Run3	repeat/STIM_007.jpg	100
2580.12	0.854	854.3	repeat	Run3	repeat/STIM_007.jpg	99
2583.433	0.956	955.5	repeat	Run3	repeat/STIM_008.jpg	99
2586.522	1.023	1023.2	repeat	Run3	repeat/STIM_008.jpg	100
2590.97	1.078	1077.9	repeat	Run3	repeat/STIM_008.jpg	100
2594.919	0.815	814.9	repeat	Run3	repeat/STIM_008.jpg	100
2598.116	1.116	1115.9	repeat	Run3	repeat/STIM_008.jpg	99
2601.287	0.939	939.0	repeat	Run3	repeat/STIM_009.jpg	99
2605.971	0.94	939.9	repeat	Run3	repeat/STIM_009.jpg	100
2610.046	0.983	982.7	repeat	Run3	repeat/STIM_009.jpg	100
2613.431	0.985	985.2	repeat	Run3	repeat/STIM_009.jpg	100
2618.05	1.142	1141.7	repeat	Run3	repeat/STIM_009.jpg	100
2622.813	0.729	729.3	repeat	Run3	repeat/STIM_010.jpg	99
2625.791	0.75	750.4	repeat	Run3	repeat/STIM_010.jpg	99
2630.152	1.164	1164.5	repeat	Run3	repeat/STIM_010.jpg	100
2634.41	0.597	597.3	repeat	Run3	repeat/STIM_010.jpg	99
2638.454	1.148	1147.9	repeat	Run3	repeat/STIM_010.jpg	100
2641.798	0.826	825.7	repeat	Run3	repeat/STIM_011.jpg	100
2645.73	1.115	1115.2	repeat	Run3	repeat/STIM_011.jpg	99
2650.107	0.927	927.3	repeat	Run3	repeat/STIM_011.jpg	99
2653.801	0.98	979.9	repeat	Run3	repeat/STIM_011.jpg	99
2657.616	0.989	988.7	repeat	Run3	repeat/STIM_011.jpg	99
2662.01	0.986	986.1	repeat	Run3	repeat/STIM_012.jpg	99
2665.148	1.023	1022.7	repeat	Run3	repeat/STIM_012.jpg	99
2670.04	1.117	1116.7	repeat	Run3	repeat/STIM_012.jpg	100
2673.773	0.939	939.2	repeat	Run3	repeat/STIM_012.jpg	100
2678.129	0.865	864.6	repeat	Run3	repeat/STIM_012.jpg	100
2681.681	0.91	909.8	repeat	Run3	repeat/STIM_013.jpg	100
2684.712	0.672	672.2	repeat	Run3	repeat/STIM_013.jpg	100
2687.737	1.029	1028.9	repeat	Run3	repeat/STIM_013.jpg	100
2692.656	0.91	910.5	repeat	Run3	repeat/STIM_013.jpg	100
2695.907	0.697	697.3	repeat	Run3	repeat/STIM_013.jpg	99
2700.493	1.066	1066.4	repeat	Run3	repeat/STIM_014.jpg	99
2705.246	0.895	895.2	repeat	Run3	repeat/STIM_014.jpg	99
2708.328	1.151	1151.4	repeat	Run3	repeat/STIM_014.jpg	99
2711.994	0.877	876.8	repeat	Run3	repeat/STIM_014.jpg	100
2716.007	0.924	923.7	repeat	Run3	repeat/STIM_014.jpg	100
2719.231	1.149	1148.7	generate	Run4	generate/STIM_000.jpg	100
2723.841	1.067	1066.7	generate	Run4	generate/STIM_000.jpg	100
2728.766	1.61	1609.7	generate	Run4	generate/STIM_000.jpg	100
2733.296	2.304	2303.8	generate	Run4	generate/STIM_000.jpg	100
2738.213	2.403	2403.0	generate	Run4	generate/STIM_000.jpg	99
2744.439	1.258	1257.5	generate	Run4	generate/STIM_001.jpg	100
2749.118	1.037	1037.1	generate	Run4	generate/STIM_001.jpg	100
2752.303	1.577	1577.3	generate	Run4	generate/STIM_001.jpg	100
2756.744	1.166	1166.2	generate	Run4	generate/STIM_001.jpg	99
2760.539	1.857	1857.0	generate	Run4	generate/STIM_001.jpg	100
2766.174	1.912	1911.8	generate	Run4	generate/STIM_002.jpg	100
2771.617	2.18	2179.7	generate	Run4	generate/STIM_002.jpg	100
2776.618	1.33	1330.2	generate	Run4	generate/STIM_002.jpg	99
2780.443	1.505	1505.4	generate	Run4	generate/STIM_002.jpg	99
2784.142	1.769	1768.7	generate	Run4	generate/STIM_002.jpg	99
2789.842	1.966	1965.6	generate	Run4	generate/STIM_003.jpg	99
2794.574	1.245	1244.9	generate	Run4	generate/STIM_003.jpg	100
2798.717	2.176	2176.0	generate	Run4	generate/STIM_003.jpg	99
2803.243	1.669	1669.0	generate	Run4	generate/STIM_003.jpg	99
2807.43	1.544	1544.4	generate	Run4	generate/STIM_003.jpg	100
2811.843	1.199	1198.9	generate	Run4	generate/STIM_004.jpg	99
2815.973	1.407	1407.1	generate	Run4	generate/STIM_004.jpg	99
2819.523	2.06	2059.7	generate	Run4	generate/STIM_004.jpg	99
2823.775	1.474	1474.5	generate	Run4	generate/STIM_004.jpg	100
2828.73	1.15	1149.9	generate	Run4	generate/STIM_004.jpg	99
2832.64	1.999	1998.8	generate	Run4	generate/STIM_005.jpg	100
2837.856	1.64	1640.5	generate	Run4	generate/STIM_005.jpg	100
2842.422	1.388	1387.9	generate	Run4	generate/STIM_005.jpg	100
2846.909	1.134	1134.3	generate	Run4	generate/STIM_005.jpg	100
2850.9	1.873	1873.2	generate	Run4	generate/STIM_005.jpg	99
2854.823	2.274	2274.3	generate	Run4	generate/STIM_006.jpg	100
2859.934	2.03	2030.1	generate	Run4	generate/STIM_006.jpg	99
2864.29	1.088	1088.2	generate	Run4	generate/STIM_006.jpg	99
2868.924	1.747	1747.3	generate	Run4	generate/STIM_006.jpg	99
2873.613	1.874	1874.0	generate	Run4	generate/STIM_006.jpg	99
2879.294	1.157	1156.9	generate	Run4	generate/STIM_007.jpg	100
2882.835	1.415	1414.6	generate	Run4	generate/STIM_007.jpg	100
2887.963	2.189	2189.1	generate	Run4	generate/STIM_007.jpg	99
2893.516	1.171	1171.2	generate	Run4	generate/STIM_007.jpg	100
2897.864	1.935	1935.1	generate	Run4	generate/STIM_007.jpg	100
2903.522	2.251	2250.7	generate	Run4	generate/STIM_008.jpg	100
2908.92	1.94	1940.4	generate	Run4	generate/STIM_008.jpg	100
2914.612	1.506	1505.9	generate	Run4	generate/STIM_008.jpg	100
2919.195	1.348	1348.4	generate	Run4	generate/STIM_008.jpg	99
2922.895	2.44	2439.8	generate	Run4	generate/STIM_008.jpg	99
2927.697	2.016	2016.4	generate	Run4	generate/STIM_009.jpg	100
2932.139	2.054	2054.0	generate	Run4	generate/STIM_009.jpg	99
2936.499	1.568	1568.0	generate	Run4	generate/STIM_009.jpg	99
2940.531	2.421	2420.7	generate	Run4	generate/STIM_009.jpg	100
2945.867	2.326	2326.4	generate	Run4	generate/STIM_009.jpg	99
2951.632	1.811	1811.3	generate	Run4	generate/STIM_010.jpg	100
2956.142	2.297	2296.8	generate	Run4	generate/STIM_010.jpg	100
2962.046	1.251	1250.8	generate	Run4	generate/STIM_010.jpg	100
2965.606	1.793	1793.2	generate	Run4	generate/STIM_010.jpg	99
2969.578	1.218	1217.6	generate	Run4	generate/STIM_010.jpg	99
2973.85	2.34	2340.5	generate	Run4	generate/STIM_011.jpg	100
2979.744	2.108	2108.2	generate	Run4	generate/STIM_011.jpg	99
2984.248	1.227	1226.6	generate	Run4	generate/STIM_011.jpg	99
2987.957	1.525	1525.4	generate	Run4	generate/STIM_011.jpg	99
2991.992	2.1	2100.4	generate	Run4	generate/STIM_011.jpg	99
2996.886	1.918	1917.5	generate	Run4	generate/STIM_012.jpg	100
3002.325	1.307	1306.9	generate	Run4	generate/STIM_012.jpg	99
3007.24	2.293	2293.4	generate	Run4	generate/STIM_012.jpg	100
3012.117	2.218	2218.2	generate	Run4	generate/STIM_012.jpg	100
3018.128	1.804	1803.5	generate	Run4	generate/STIM_012.jpg	99
3023.817	1.188	1188.0	generate	Run4	generate/STIM_013.jpg	100
3027.173	1.358	1357.6	generate	Run4	generate/STIM_013.jpg	99
3032.36	2.188	2188.1	generate	Run4	generate/STIM_013.jpg	100
3036.605	1.495	1495.4	generate	Run4	generate/STIM_013.jpg	100
3040.792	2.263	2262.8	generate	Run4	generate/STIM_013.jpg	100
3046.705	1.397	1396.9	generate	Run4	generate/STIM_014.jpg	99
3051.957	1.71	1710.1	generate	Run4	generate/STIM_014.jpg	99
3055.792	2.37	2369.8	generate	Run4	generate/STIM_014.jpg	99
3061.913	1.082	1081.7	generate	Run4	generate/STIM_014.jpg	100
3065.462	1.129	1128.7	generate	Run4	generate/STIM_014.jpg	99
3069.193	1.538	1538.1	generate	Run4	generate/STIM_015.jpg	99
3072.926	1.331	1331.0	generate	Run4	generate/STIM_015.jpg	100
3077.639	1.769	1769.3	generate	Run4	generate/STIM_015.jpg	99
3081.784	1.884	1883.7	generate	Run4	generate/STIM_015.jpg	100
3086.064	1.902	1902.1	generate	Run4	generate/STIM_015.jpg	99
3091.363	2.101	2101.1	generate	Run4	generate/STIM_016.jpg	100
3096.891	2.298	2298.1	generate	Run4	generate/STIM_016.jpg	99
3102.752	1.281	1280.7	generate	Run4	generate/STIM_016.jpg	100
3106.675	2.28	2280.5	generate	Run4	generate/STIM_016.jpg	100
3111.492	1.126	1126.4	generate	Run4	generate/STIM_016.jpg	100
3116.046	1.771	1770.6	generate	Run4	generate/STIM_017.jpg	100
3121.489	1.496	1496.4	generate	Run4	generate/STIM_017.jpg	100
3125.98	1.408	1407.8	generate	Run4	generate/STIM_017.jpg	99
3130.415	1.59	1590.5	generate	Run4	generate/STIM_017.jpg	99
3134.556	1.397	1396.7	generate	Run4	generate/STIM_017.jpg	100
3138.679	1.77	1769.7	generate	Run4	generate/STIM_018.jpg	100
3143.876	1.799	1799.3	generate	Run4	generate/STIM_018.jpg	100
3148.973	2.313	2312.9	generate	Run4	generate/STIM_018.jpg	99
3153.5	1.672	1672.5	generate	Run4	generate/STIM_018.jpg	100
3158.473	2.129	2128.6	generate	Run4	generate/STIM_018.jpg	99
3163.752	1.102	1101.9	generate	Run4	generate/STIM_019.jpg	100
3168.12	1.335	1335.0	generate	Run4	generate/STIM_019.jpg	100
3171.808	1.849	1848.7	generate	Run4	generate/STIM_019.jpg	100
3177.26	1.085	1085.2	generate	Run4	generate/STIM_019.jpg	100
3182.05	1.507	1507.0	generate	Run4	generate/STIM_019.jpg	99
3187.289	1.056	1055.7	generate	Run4	generate/STIM_020.jpg	99
3190.565	1.106	1106.0	generate	Run4	generate/STIM_020.jpg	100
3194.51	2.181	2181.1	generate	Run4	generate/STIM_020.jpg	100
3199.312	1.419	1419.3	generate	Run4	generate/STIM_020.jpg	100
3204.274	2.335	2335.2	generate	Run4	generate/STIM_020.jpg	100
3209.33	1.442	1441.7	generate	Run4	generate/STIM_021.jpg	99
3214.113	1.961	1961.1	generate	Run4	generate/STIM_021.jpg	99
3218.948	1.383	1382.6	generate	Run4	generate/STIM_021.jpg	99
3222.549	1.653	1652.7	generate	Run4	generate/STIM_021.jpg	100
3227.573	2.048	2047.6	generate	Run4	generate/STIM_021.jpg	100
3231.991	1.416	1416.4	generate	Run4	generate/STIM_022.jpg	99
3236.128	1.446	1446.4	generate	Run4	generate/STIM_022.jpg	100
3241.086	1.965	1965.4	generate	Run4	generate/STIM_022.jpg	99
3246.121	1.998	1997.9	generate	Run4	generate/STIM_022.jpg	99
3252.012	1.314	1314.3	generate	Run4	generate/STIM_022.jpg	99
3256.091	1.312	1312.1	generate	Run4	generate/STIM_023.jpg	100
3259.998	1.199	1198.6	generate	Run4	generate/STIM_023.jpg	99
3264.535	1.451	1450.9	generate	Run4	generate/STIM_023.jpg	100
3269.624	1.259	1259.2	generate	Run4	generate/STIM_023.jpg	100
3273.622	1.458	1457.7	generate	Run4	generate/STIM_023.jpg	99
3278.929	1.456	1456.1	generate	Run4	generate/STIM_024.jpg	99
3284.375	1.211	1211.1	generate	Run4	generate/STIM_024.jpg	100
3288.305	1.307	1306.6	generate	Run4	generate/STIM_024.jpg	99
3293.066	1.576	1575.6	generate	Run4	generate/STIM_024.jpg	100
3297.051	2.447	2446.7	generate	Run4	generate/STIM_024.jpg	99
3301.946	0.923	922.7	repeat	Run4	repeat/STIM_000.jpg	100
3305.369	1.026	1026.3	repeat	Run4	repeat/STIM_000.jpg	99
3309.824	1.119	1118.7	repeat	Run4	repeat/STIM_000.jpg	99
3313.166	1.106	1106.1	repeat	Run4	repeat/STIM_000.jpg	99
3317.303	0.916	915.5	repeat	Run4	repeat/STIM_000.jpg	99
3320.808	0.95	949.8	repeat	Run4	repeat/STIM_001.jpg	100
3325.102	0.954	953.6	repeat	Run4	repeat/STIM_001.jpg	100
3329.76	1.021	1020.8	repeat	Run4	repeat/STIM_001.jpg	100
3334.286	0.591	591.2	repeat	Run4	repeat/STIM_001.jpg	100
3337.657	1.146	1146.3	repeat	Run4	repeat/STIM_001.jpg	100
3341.951	0.768	768.1	repeat	Run4	repeat/STIM_002.jpg	100
3345.87	1.126	1125.8	repeat	Run4	repeat/STIM_002.jpg	99
3349.26	1.019	1018.6	repeat	Run4	repeat/STIM_002.jpg	99
3353.77	0.903	903.2	repeat	Run4	repeat/STIM_002.jpg	100
3357.165	0.596	596.5	repeat	Run4	repeat/STIM_002.jpg	100
3360.364	0.605	605.2	repeat	Run4	repeat/STIM_003.jpg	100
3363.434	0.782	781.6	repeat	Run4	repeat/STIM_003.jpg	99
3367.985	0.747	746.8	repeat	Run4	repeat/STIM_003.jpg	99
3371.722	1.051	1051.1	repeat	Run4	repeat/STIM_003.jpg	100
3376.744	0.603	603.1	repeat	Run4	repeat/STIM_003.jpg	100
3381.201	0.673	672.9	repeat	Run4	repeat/STIM_004.jpg	99
3385.417	1.135	1134.6	repeat	Run4	repeat/STIM_004.jpg	99
3389.351	1.03	1029.8	repeat	Run4	repeat/STIM_004.jpg	100
3393.685	1.124	1124.1	repeat	Run4	repeat/STIM_004.jpg	99
3396.983	0.608	607.9	repeat	Run4	repeat/STIM_004.jpg	100
3401.379	1.104	1104.3	repeat	Run4	repeat/STIM_005.jpg	99
3404.829	0.709	708.6	repeat	Run4	repeat/STIM_005.jpg	99
3409.083	0.941	941.4	repeat	Run4	repeat/STIM_005.jpg	99
3413.436	0.953	952.8	repeat	Run4	repeat/STIM_005.jpg	100
3417.424	0.924	924.0	repeat	Run4	repeat/STIM_005.jpg	99
3421.679	1.012	1011.6	repeat	Run4	repeat/STIM_006.jpg	99
3425.642	0.961	961.3	repeat	Run4	repeat/STIM_006.jpg	99
3429.525	1.047	1047.3	repeat	Run4	repeat/STIM_006.jpg	99
3434.342	0.586	586.5	repeat	Run4	repeat/STIM_006.jpg	100
3438.725	0.973	972.7	repeat	Run4	repeat/STIM_006.jpg	100
3443.292	0.893	893.2	repeat	Run4	repeat/STIM_007.jpg	99
3446.941	0.766	765.6	repeat	Run4	repeat/STIM_007.jpg	99
3449.729	1.16	1159.7	repeat	Run4	repeat/STIM_007.jpg	99
3454.354	0.875	875.1	repeat	Run4	repeat/STIM_007.jpg	100
3459.092	0.771	771.4	repeat	Run4	repeat/STIM_007.jpg	100
3462.096	0.968	967.8	repeat	Run4	repeat/STIM_008.jpg	99
3466.986	0.634	633.7	repeat	Run4	repeat/STIM_008.jpg	100
3470.942	0.793	793.4	repeat	Run4	repeat/STIM_008.jpg	100
3473.965	0.954	954.1	repeat	Run4	repeat/STIM_008.jpg	99
3478.207	0.897	897.4	repeat	Run4	repeat/STIM_008.jpg	99
3481.464	0.772	771.8	repeat	Run4	repeat/STIM_009.jpg	99
3486.187	1.024	1023.9	repeat	Run4	repeat/STIM_009.jpg	100
3490.733	1.024	1024.1	repeat	Run4	repeat/STIM_009.jpg	99
3493.821	0.77	769.6	repeat	Run4	repeat/STIM_009.jpg	100
3496.846	0.746	745.6	repeat	Run4	repeat/STIM_009.jpg	99
3500.899	1.164	1163.8	repeat	Run4	repeat/STIM_010.jpg	99
3505.845	1.066	1066.3	repeat	Run4	repeat/STIM_010.jpg	100
3509.179	0.762	762.2	repeat	Run4	repeat/STIM_010.jpg	100
3512.414	0.938	938.0	repeat	Run4	repeat/STIM_010.jpg	100
3515.699	0.783	783.0	repeat	Run4	repeat/STIM_010.jpg	100
3520.472	1.137	1136.6	repeat	Run4	repeat/STIM_011.jpg	100
3524.4	0.707	707.1	repeat	Run4	repeat/STIM_011.jpg	99
3528.719	0.993	993.0	repeat	Run4	repeat/STIM_011.jpg	100
3531.898	0.984	984.5	repeat	Run4	repeat/STIM_011.jpg	100
3535.583	1.052	1052.5	repeat	Run4	repeat/STIM_011.jpg	99
3540.494	0.656	655.6	repeat	Run4	repeat/STIM_012.jpg	99
3543.577	1.141	1140.7	repeat	Run4	repeat/STIM_012.jpg	100
3548.163	0.766	766.2	repeat	Run4	repeat/STIM_012.jpg	100
3552.238	1.112	1112.4	repeat	Run4	repeat/STIM_012.jpg	99
3556.363	0.854	854.2	repeat	Run4	repeat/STIM_012.jpg	100
3560.515	0.787	787.0	repeat	Run4	repeat/STIM_013.jpg	100
3564.73	1.14	1140.3	repeat	Run4	repeat/STIM_013.jpg	99
3569.794	0.626	626.0	repeat	Run4	repeat/STIM_013.jpg	100
3572.685	1.042	1042.4	repeat	Run4	repeat/STIM_013.jpg	100
3577.206	1.061	1060.8	repeat	Run4	repeat/STIM_013.jpg	99
3582.206	1.125	1125.1	repeat	Run4	repeat/STIM_014.jpg	100
3587.246	1.053	1052.8	repeat	Run4	repeat/STIM_014.jpg	100
3590.586	0.706	705.8	repeat	Run4	repeat/STIM_014.jpg	100
3593.7	0.637	637.1	repeat	Run4	repeat/STIM_014.jpg	99
3596.635	0.868	868.4	repeat	Run4	repeat/STIM_014.jpg	99
