onset	duration	accuracy	trial_type	learning_stage	stimulus
0.0	2.01	correct	generate	Run1	generate/STIM_000.jpg
5.86	1.528	correct	generate	Run1	generate/STIM_000.jpg
10.483	1.994	correct	generate	Run1	generate/STIM_000.jpg
15.535	1.856	incorrect	generate	Run1	generate/STIM_000.jpg
21.251	1.379	incorrect	generate	Run1	generate/STIM_000.jpg
25.081	1.81	correct	generate	Run1	generate/STIM_001.jpg
29.999	1.936	correct	generate	Run1	generate/STIM_001.jpg
34.101	1.173	correct	generate	Run1	generate/STIM_001.jpg
39.004	2.512	correct	generate	Run1	generate/STIM_001.jpg
44.282	2.119	incorrect	generate	Run1	generate/STIM_001.jpg
49.208	2.91	correct	generate	Run1	generate/STIM_002.jpg
54.455	1.716	correct	generate	Run1	generate/STIM_002.jpg
59.206	1.636	incorrect	generate	Run1	generate/STIM_002.jpg
64.208	1.78	incorrect	generate	Run1	generate/STIM_002.jpg
68.959	1.855	correct	generate	Run1	generate/STIM_002.jpg
73.547	2.927	incorrect	generate	Run1	generate/STIM_003.jpg
79.334	1.851	incorrect	generate	Run1	generate/STIM_003.jpg
83.181	2.765	correct	generate	Run1	generate/STIM_003.jpg
88.314	1.879	correct	generate	Run1	generate/STIM_003.jpg
92.935	1.948	correct	generate	Run1	generate/STIM_003.jpg
97.75	2.733	incorrect	generate	Run1	generate/STIM_004.jpg
103.899	1.408	correct	generate	Run1	generate/STIM_004.jpg
108.211	1.605	correct	generate	Run1	generate/STIM_004.jpg
112.055	1.408	correct	generate	Run1	generate/STIM_004.jpg
115.845	2.095	correct	generate	Run1	generate/STIM_004.jpg
121.358	2.675	incorrect	generate	Run1	generate/STIM_005.jpg
126.63	1.224	correct	generate	Run1	generate/STIM_005.jpg
131.861	1.341	correct	generate	Run1	generate/STIM_005.jpg
136.262	2.065	correct	generate	Run1	generate/STIM_005.jpg
140.332	2.41	correct	generate	Run1	generate/STIM_005.jpg
145.431	2.211	correct	generate	Run1	generate/STIM_006.jpg
150.617	2.396	correct	generate	Run1	generate/STIM_006.jpg
155.723	1.823	correct	generate	Run1	generate/STIM_006.jpg
160.614	1.063	incorrect	generate	Run1	generate/STIM_006.jpg
165.561	1.863	correct	generate	Run1	generate/STIM_006.jpg
170.973	1.686	incorrect	generate	Run1	generate/STIM_007.jpg
175.095	2.863	correct	generate	Run1	generate/STIM_007.jpg
180.807	1.659	correct	generate	Run1	generate/STIM_007.jpg
185.536	1.306	correct	generate	Run1	generate/STIM_007.jpg
190.55	1.186	correct	generate	Run1	generate/STIM_007.jpg
193.836	2.967	correct	generate	Run1	generate/STIM_008.jpg
199.67	2.43	correct	generate	Run1	generate/STIM_008.jpg
204.092	1.525	correct	generate	Run1	generate/STIM_008.jpg
209.569	1.623	correct	generate	Run1	generate/STIM_008.jpg
214.002	1.325	correct	generate	Run1	generate/STIM_008.jpg
218.803	2.649	correct	generate	Run1	generate/STIM_009.jpg
224.621	1.757	correct	generate	Run1	generate/STIM_009.jpg
229.05	1.78	incorrect	generate	Run1	generate/STIM_009.jpg
232.933	1.103	correct	generate	Run1	generate/STIM_009.jpg
236.637	2.007	correct	generate	Run1	generate/STIM_009.jpg
241.479	1.742	incorrect	generate	Run1	generate/STIM_010.jpg
247.09	2.418	correct	generate	Run1	generate/STIM_010.jpg
253.155	2.3	incorrect	generate	Run1	generate/STIM_010.jpg
258.508	2.371	correct	generate	Run1	generate/STIM_010.jpg
262.849	1.62	correct	generate	Run1	generate/STIM_010.jpg
266.558	2.676	correct	generate	Run1	generate/STIM_011.jpg
272.421	1.923	correct	generate	Run1	generate/STIM_011.jpg
276.221	1.271	correct	generate	Run1	generate/STIM_011.jpg
279.722	2.609	correct	generate	Run1	generate/STIM_011.jpg
284.8	1.133	correct	generate	Run1	generate/STIM_011.jpg
287.942	2.7	correct	generate	Run1	generate/STIM_012.jpg
292.89	1.557	incorrect	generate	Run1	generate/STIM_012.jpg
296.666	1.929	correct	generate	Run1	generate/STIM_012.jpg
300.733	2.07	incorrect	generate	Run1	generate/STIM_012.jpg
305.577	1.114	incorrect	generate	Run1	generate/STIM_012.jpg
310.224	1.689	correct	generate	Run1	generate/STIM_013.jpg
314.358	2.632	incorrect	generate	Run1	generate/STIM_013.jpg
319.133	2.568	correct	generate	Run1	generate/STIM_013.jpg
325.615	2.643	correct	generate	Run1	generate/STIM_013.jpg
331.623	1.783	correct	generate	Run1	generate/STIM_013.jpg
336.456	1.6	correct	generate	Run1	generate/STIM_014.jpg
340.144	2.097	correct	generate	Run1	generate/STIM_014.jpg
345.296	2.354	incorrect	generate	Run1	generate/STIM_014.jpg
350.537	2.037	correct	generate	Run1	generate/STIM_014.jpg
356.262	1.119	correct	generate	Run1	generate/STIM_014.jpg
359.513	1.441	correct	generate	Run1	generate/STIM_015.jpg
363.735	1.312	correct	generate	Run1	generate/STIM_015.jpg
368.163	1.218	correct	generate	Run1	generate/STIM_015.jpg
372.276	2.304	correct	generate	Run1	generate/STIM_015.jpg
378.3	1.133	correct	generate	Run1	generate/STIM_015.jpg
382.395	1.622	correct	generate	Run1	generate/STIM_016.jpg
385.989	1.536	correct	generate	Run1	generate/STIM_016.jpg
390.28	2.105	correct	generate	Run1	generate/STIM_016.jpg
395.246	2.643	correct	generate	Run1	generate/STIM_016.jpg
399.887	1.048	correct	generate	Run1	generate/STIM_016.jpg
403.645	2.309	correct	generate	Run1	generate/STIM_017.jpg
408.975	1.184	incorrect	generate	Run1	generate/STIM_017.jpg
412.726	2.732	incorrect	generate	Run1	generate/STIM_017.jpg
418.612	2.136	correct	generate	Run1	generate/STIM_017.jpg
422.591	1.239	correct	generate	Run1	generate/STIM_017.jpg
426.609	1.534	correct	generate	Run1	generate/STIM_018.jpg
430.629	2.456	correct	generate	Run1	generate/STIM_018.jpg
436.441	2.205	correct	generate	Run1	generate/STIM_018.jpg
440.825	1.684	incorrect	generate	Run1	generate/STIM_018.jpg
445.377	1.892	correct	generate	Run1	generate/STIM_018.jpg
450.801	2.025	correct	generate	Run1	generate/STIM_019.jpg
455.322	2.454	correct	generate	Run1	generate/STIM_019.jpg
461.585	1.519	correct	generate	Run1	generate/STIM_019.jpg
466.703	2.055	correct	generate	Run1	generate/STIM_019.jpg
471.634	1.102	correct	generate	Run1	generate/STIM_019.jpg
475.439	2.868	incorrect	generate	Run1	generate/STIM_020.jpg
480.378	1.703	correct	generate	Run1	generate/STIM_020.jpg
485.402	1.244	incorrect	generate	Run1	generate/STIM_020.jpg
490.256	1.485	incorrect	generate	Run1	generate/STIM_020.jpg
493.971	1.117	correct	generate	Run1	generate/STIM_020.jpg
499.054	1.805	correct	generate	Run1	generate/STIM_021.jpg
503.409	2.759	correct	generate	Run1	generate/STIM_021.jpg
509.979	1.838	correct	generate	Run1	generate/STIM_021.jpg
515.74	2.582	correct	generate	Run1	generate/STIM_021.jpg
520.844	2.485	incorrect	generate	Run1	generate/STIM_021.jpg
525.92	3.027	correct	generate	Run1	generate/STIM_022.jpg
532.176	2.574	correct	generate	Run1	generate/STIM_022.jpg
537.756	2.112	correct	generate	Run1	generate/STIM_022.jpg
542.723	2.484	correct	generate	Run1	generate/STIM_022.jpg
548.527	2.261	correct	generate	Run1	generate/STIM_022.jpg
554.244	1.324	correct	generate	Run1	generate/STIM_023.jpg
558.567	2.421	correct	generate	Run1	generate/STIM_023.jpg
564.951	2.201	correct	generate	Run1	generate/STIM_023.jpg
570.134	1.703	correct	generate	Run1	generate/STIM_023.jpg
574.566	2.139	correct	generate	Run1	generate/STIM_023.jpg
580.234	1.762	incorrect	generate	Run1	generate/STIM_024.jpg
585.538	1.296	correct	generate	Run1	generate/STIM_024.jpg
589.937	1.205	correct	generate	Run1	generate/STIM_024.jpg
593.545	1.108	correct	generate	Run1	generate/STIM_024.jpg
598.338	1.206	correct	generate	Run1	generate/STIM_024.jpg
603.306	0.552	correct	repeat	Run1	repeat/STIM_000.jpg
606.839	0.697	correct	repeat	Run1	repeat/STIM_000.jpg
611.106	0.974	correct	repeat	Run1	repeat/STIM_000.jpg
614.618	0.75	correct	repeat	Run1	repeat/STIM_000.jpg
618.589	0.819	correct	repeat	Run1	repeat/STIM_000.jpg
622.243	0.934	correct	repeat	Run1	repeat/STIM_001.jpg
626.186	0.706	correct	repeat	Run1	repeat/STIM_001.jpg
630.048	0.655	correct	repeat	Run1	repeat/STIM_001.jpg
634.175	0.983	correct	repeat	Run1	repeat/STIM_001.jpg
637.263	0.74	incorrect	repeat	Run1	repeat/STIM_001.jpg
640.635	0.889	correct	repeat	Run1	repeat/STIM_002.jpg
644.5	0.761	correct	repeat	Run1	repeat/STIM_002.jpg
648.144	0.614	correct	repeat	Run1	repeat/STIM_002.jpg
651.942	0.748	correct	repeat	Run1	repeat/STIM_002.jpg
655.301	0.828	incorrect	repeat	Run1	repeat/STIM_002.jpg
658.491	0.591	correct	repeat	Run1	repeat/STIM_003.jpg
662.681	0.948	correct	repeat	Run1	repeat/STIM_003.jpg
666.11	0.576	correct	repeat	Run1	repeat/STIM_003.jpg
670.558	0.558	correct	repeat	Run1	repeat/STIM_003.jpg
674.815	0.617	correct	repeat	Run1	repeat/STIM_003.jpg
678.672	1.08	correct	repeat	Run1	repeat/STIM_004.jpg
683.568	0.922	correct	repeat	Run1	repeat/STIM_004.jpg
686.611	0.706	correct	repeat	Run1	repeat/STIM_004.jpg
689.373	0.787	correct	repeat	Run1	repeat/STIM_004.jpg
692.528	0.68	correct	repeat	Run1	repeat/STIM_004.jpg
695.212	0.781	correct	repeat	Run1	repeat/STIM_005.jpg
697.996	1.07	correct	repeat	Run1	repeat/STIM_005.jpg
702.289	0.54	correct	repeat	Run1	repeat/STIM_005.jpg
706.207	0.698	correct	repeat	Run1	repeat/STIM_005.jpg
710.054	0.998	correct	repeat	Run1	repeat/STIM_005.jpg
713.797	0.588	correct	repeat	Run1	repeat/STIM_006.jpg
717.61	0.988	correct	repeat	Run1	repeat/STIM_006.jpg
721.819	0.709	correct	repeat	Run1	repeat/STIM_006.jpg
725.088	0.912	incorrect	repeat	Run1	repeat/STIM_006.jpg
728.104	0.838	correct	repeat	Run1	repeat/STIM_006.jpg
732.119	0.92	correct	repeat	Run1	repeat/STIM_007.jpg
735.324	0.756	correct	repeat	Run1	repeat/STIM_007.jpg
739.417	0.757	correct	repeat	Run1	repeat/STIM_007.jpg
743.28	1.006	correct	repeat	Run1	repeat/STIM_007.jpg
747.457	0.568	correct	repeat	Run1	repeat/STIM_007.jpg
751.132	0.888	correct	repeat	Run1	repeat/STIM_008.jpg
754.44	0.873	correct	repeat	Run1	repeat/STIM_008.jpg
757.983	0.81	correct	repeat	Run1	repeat/STIM_008.jpg
762.67	1.048	correct	repeat	Run1	repeat/STIM_008.jpg
767.351	0.722	correct	repeat	Run1	repeat/STIM_008.jpg
771.34	0.957	correct	repeat	Run1	repeat/STIM_009.jpg
776.062	0.936	correct	repeat	Run1	repeat/STIM_009.jpg
780.451	0.79	correct	repeat	Run1	repeat/STIM_009.jpg
784.58	0.891	correct	repeat	Run1	repeat/STIM_009.jpg
788.328	0.857	correct	repeat	Run1	repeat/STIM_009.jpg
792.754	0.922	correct	repeat	Run1	repeat/STIM_010.jpg
797.631	0.884	incorrect	repeat	Run1	repeat/STIM_010.jpg
800.577	0.546	correct	repeat	Run1	repeat/STIM_010.jpg
804.506	0.878	correct	repeat	Run1	repeat/STIM_010.jpg
808.793	0.756	correct	repeat	Run1	repeat/STIM_010.jpg
812.672	0.563	correct	repeat	Run1	repeat/STIM_011.jpg
815.58	0.852	correct	repeat	Run1	repeat/STIM_011.jpg
819.838	0.769	correct	repeat	Run1	repeat/STIM_011.jpg
824.191	0.96	incorrect	repeat	Run1	repeat/STIM_011.jpg
827.758	0.776	correct	repeat	Run1	repeat/STIM_011.jpg
831.138	0.748	correct	repeat	Run1	repeat/STIM_012.jpg
834.608	0.787	correct	repeat	Run1	repeat/STIM_012.jpg
837.968	0.945	correct	repeat	Run1	repeat/STIM_012.jpg
841.855	0.79	correct	repeat	Run1	repeat/STIM_012.jpg
845.544	0.547	correct	repeat	Run1	repeat/STIM_012.jpg
848.547	0.63	correct	repeat	Run1	repeat/STIM_013.jpg
851.832	0.684	correct	repeat	Run1	repeat/STIM_013.jpg
855.701	0.461	correct	repeat	Run1	repeat/STIM_013.jpg
859.281	0.675	correct	repeat	Run1	repeat/STIM_013.jpg
863.34	0.631	correct	repeat	Run1	repeat/STIM_013.jpg
867.552	0.628	correct	repeat	Run1	repeat/STIM_014.jpg
872.163	0.634	correct	repeat	Run1	repeat/STIM_014.jpg
874.989	0.528	correct	repeat	Run1	repeat/STIM_014.jpg
879.051	0.463	correct	repeat	Run1	repeat/STIM_014.jpg
882.727	0.813	correct	repeat	Run1	repeat/STIM_014.jpg
886.144	2.6	correct	generate	Run2	generate/STIM_000.jpg
891.32	1.209	correct	generate	Run2	generate/STIM_000.jpg
896.107	1.477	correct	generate	Run2	generate/STIM_000.jpg
900.477	1.583	correct	generate	Run2	generate/STIM_000.jpg
904.138	1.249	correct	generate	Run2	generate/STIM_000.jpg
908.428	2.367	correct	generate	Run2	generate/STIM_001.jpg
914.632	1.22	incorrect	generate	Run2	generate/STIM_001.jpg
919.479	1.482	correct	generate	Run2	generate/STIM_001.jpg
924.841	2.028	correct	generate	Run2	generate/STIM_001.jpg
929.232	1.045	correct	generate	Run2	generate/STIM_001.jpg
932.469	1.341	correct	generate	Run2	generate/STIM_002.jpg
936.532	1.118	correct	generate	Run2	generate/STIM_002.jpg
941.136	1.961	correct	generate	Run2	generate/STIM_002.jpg
946.28	1.687	correct	generate	Run2	generate/STIM_002.jpg
950.757	2.227	correct	generate	Run2	generate/STIM_002.jpg
956.728	1.338	correct	generate	Run2	generate/STIM_003.jpg
961.926	1.947	correct	generate	Run2	generate/STIM_003.jpg
966.02	1.413	correct	generate	Run2	generate/STIM_003.jpg
970.065	1.359	correct	generate	Run2	generate/STIM_003.jpg
974.309	1.375	correct	generate	Run2	generate/STIM_003.jpg
979.553	2.346	correct	generate	Run2	generate/STIM_004.jpg
984.796	2.304	correct	generate	Run2	generate/STIM_004.jpg
989.928	1.2	correct	generate	Run2	generate/STIM_004.jpg
994.824	1.0	correct	generate	Run2	generate/STIM_004.jpg
999.821	0.966	correct	generate	Run2	generate/STIM_004.jpg
1003.355	1.147	correct	generate	Run2	generate/STIM_005.jpg
1007.362	1.718	correct	generate	Run2	generate/STIM_005.jpg
1011.613	0.957	correct	generate	Run2	generate/STIM_005.jpg
1014.895	1.807	correct	generate	Run2	generate/STIM_005.jpg
1020.474	2.046	correct	generate	Run2	generate/STIM_005.jpg
1026.167	1.7	incorrect	generate	Run2	generate/STIM_006.jpg
1031.517	1.185	correct	generate	Run2	generate/STIM_006.jpg
1034.938	2.279	correct	generate	Run2	generate/STIM_006.jpg
1040.431	1.017	correct	generate	Run2	generate/STIM_006.jpg
1043.408	1.945	incorrect	generate	Run2	generate/STIM_006.jpg
1047.731	1.23	correct	generate	Run2	generate/STIM_007.jpg
1052.725	2.433	correct	generate	Run2	generate/STIM_007.jpg
1058.987	0.999	correct	generate	Run2	generate/STIM_007.jpg
1062.476	1.489	incorrect	generate	Run2	generate/STIM_007.jpg
1066.152	1.652	correct	generate	Run2	generate/STIM_007.jpg
1071.207	2.479	correct	generate	Run2	generate/STIM_008.jpg
1075.713	2.426	incorrect	generate	Run2	generate/STIM_008.jpg
1080.674	2.247	incorrect	generate	Run2	generate/STIM_008.jpg
1086.758	2.086	correct	generate	Run2	generate/STIM_008.jpg
1092.479	1.64	correct	generate	Run2	generate/STIM_008.jpg
1096.927	1.892	correct	generate	Run2	generate/STIM_009.jpg
1101.637	2.036	correct	generate	Run2	generate/STIM_009.jpg
1105.864	1.737	correct	generate	Run2	generate/STIM_009.jpg
1110.394	0.852	correct	generate	Run2	generate/STIM_009.jpg
1114.226	1.803	correct	generate	Run2	generate/STIM_009.jpg
1118.689	2.326	incorrect	generate	Run2	generate/STIM_010.jpg
1124.681	2.49	correct	generate	Run2	generate/STIM_010.jpg
1130.254	2.378	correct	generate	Run2	generate/STIM_010.jpg
1135.818	1.662	correct	generate	Run2	generate/STIM_010.jpg
1139.625	1.806	correct	generate	Run2	generate/STIM_010.jpg
1144.223	1.22	incorrect	generate	Run2	generate/STIM_011.jpg
1148.592	2.393	correct	generate	Run2	generate/STIM_011.jpg
1153.708	1.868	correct	generate	Run2	generate/STIM_011.jpg
1159.222	1.664	correct	generate	Run2	generate/STIM_011.jpg
1164.471	1.331	incorrect	generate	Run2	generate/STIM_011.jpg
1167.779	1.301	correct	generate	Run2	generate/STIM_012.jpg
1171.236	1.266	correct	generate	Run2	generate/STIM_012.jpg
1175.274	2.255	correct	generate	Run2	generate/STIM_012.jpg
1180.252	1.62	correct	generate	Run2	generate/STIM_012.jpg
1185.803	1.944	incorrect	generate	Run2	generate/STIM_012.jpg
1190.183	2.616	correct	generate	Run2	generate/STIM_013.jpg
1196.495	1.32	correct	generate	Run2	generate/STIM_013.jpg
1201.67	0.965	correct	generate	Run2	generate/STIM_013.jpg
1204.605	0.939	correct	generate	Run2	generate/STIM_013.jpg
1208.943	1.088	correct	generate	Run2	generate/STIM_013.jpg
1213.375	1.79	correct	generate	Run2	generate/STIM_014.jpg
1218.593	1.176	correct	generate	Run2	generate/STIM_014.jpg
1222.312	1.937	correct	generate	Run2	generate/STIM_014.jpg
1226.52	1.917	correct	generate	Run2	generate/STIM_014.jpg
1232.053	1.147	correct	generate	Run2	generate/STIM_014.jpg
1237.159	1.478	correct	generate	Run2	generate/STIM_015.jpg
1240.817	2.121	correct	generate	Run2	generate/STIM_015.jpg
1244.963	2.03	correct	generate	Run2	generate/STIM_015.jpg
1250.436	2.101	correct	generate	Run2	generate/STIM_015.jpg
1255.379	1.22	correct	generate	Run2	generate/STIM_015.jpg
1259.984	1.498	correct	generate	Run2	generate/STIM_016.jpg
1264.713	1.353	correct	generate	Run2	generate/STIM_016.jpg
1268.483	1.94	incorrect	generate	Run2	generate/STIM_016.jpg
1273.521	1.32	correct	generate	Run2	generate/STIM_016.jpg
1278.346	1.828	incorrect	generate	Run2	generate/STIM_016.jpg
1282.209	1.035	correct	generate	Run2	generate/STIM_017.jpg
1286.477	1.366	correct	generate	Run2	generate/STIM_017.jpg
1291.188	1.255	incorrect	generate	Run2	generate/STIM_017.jpg
1295.342	1.55	correct	generate	Run2	generate/STIM_017.jpg
1300.789	0.969	incorrect	generate	Run2	generate/STIM_017.jpg
1303.913	1.836	correct	generate	Run2	generate/STIM_018.jpg
1308.03	2.438	correct	generate	Run2	generate/STIM_018.jpg
1312.58	1.126	correct	generate	Run2	generate/STIM_018.jpg
1315.969	0.898	correct	generate	Run2	generate/STIM_018.jpg
1320.624	1.048	incorrect	generate	Run2	generate/STIM_018.jpg
1325.283	2.529	correct	generate	Run2	generate/STIM_019.jpg
1330.488	2.26	correct	generate	Run2	generate/STIM_019.jpg
1335.777	1.807	incorrect	generate	Run2	generate/STIM_019.jpg
1340.984	1.24	incorrect	generate	Run2	generate/STIM_019.jpg
1345.668	0.839	correct	generate	Run2	generate/STIM_019.jpg
1349.565	2.056	correct	generate	Run2	generate/STIM_020.jpg
1354.449	2.004	correct	generate	Run2	generate/STIM_020.jpg
1358.451	1.427	correct	generate	Run2	generate/STIM_020.jpg
1362.539	1.425	correct	generate	Run2	generate/STIM_020.jpg
1367.101	1.702	incorrect	generate	Run2	generate/STIM_020.jpg
1372.387	1.699	incorrect	generate	Run2	generate/STIM_021.jpg
1377.262	1.184	correct	generate	Run2	generate/STIM_021.jpg
1381.21	1.248	correct	generate	Run2	generate/STIM_021.jpg
1384.903	1.559	correct	generate	Run2	generate/STIM_021.jpg
1389.975	1.8	correct	generate	Run2	generate/STIM_021.jpg
1393.888	1.641	correct	generate	Run2	generate/STIM_022.jpg
1398.461	2.035	correct	generate	Run2	generate/STIM_022.jpg
1404.171	1.407	correct	generate	Run2	generate/STIM_022.jpg
1408.342	1.798	incorrect	generate	Run2	generate/STIM_022.jpg
1413.571	1.0	incorrect	generate	Run2	generate/STIM_022.jpg
1418.385	2.466	correct	generate	Run2	generate/STIM_023.jpg
1424.58	2.018	correct	generate	Run2	generate/STIM_023.jpg
1429.089	1.952	correct	generate	Run2	generate/STIM_023.jpg
1433.467	1.282	correct	generate	Run2	generate/STIM_023.jpg
1438.024	0.958	correct	generate	Run2	generate/STIM_023.jpg
1442.853	2.113	correct	generate	Run2	generate/STIM_024.jpg
1446.98	1.354	incorrect	generate	Run2	generate/STIM_024.jpg
1451.827	1.322	correct	generate	Run2	generate/STIM_024.jpg
1456.115	1.828	incorrect	generate	Run2	generate/STIM_024.jpg
1460.473	0.892	correct	generate	Run2	generate/STIM_024.jpg
1464.968	0.964	correct	repeat	Run2	repeat/STIM_000.jpg
1469.711	0.888	correct	repeat	Run2	repeat/STIM_000.jpg
1473.703	0.657	correct	repeat	Run2	repeat/STIM_000.jpg
1477.093	0.605	correct	repeat	Run2	repeat/STIM_000.jpg
1481.153	0.974	correct	repeat	Run2	repeat/STIM_000.jpg
1484.863	0.474	correct	repeat	Run2	repeat/STIM_001.jpg
1487.507	0.95	correct	repeat	Run2	repeat/STIM_001.jpg
1491.669	0.937	correct	repeat	Run2	repeat/STIM_001.jpg
1494.974	0.767	correct	repeat	Run2	repeat/STIM_001.jpg
1498.437	1.014	correct	repeat	Run2	repeat/STIM_001.jpg
1502.044	1.029	correct	repeat	Run2	repeat/STIM_002.jpg
1504.995	0.576	correct	repeat	Run2	repeat/STIM_002.jpg
1507.685	0.931	correct	repeat	Run2	repeat/STIM_002.jpg
1511.835	0.647	correct	repeat	Run2	repeat/STIM_002.jpg
1514.594	1.045	correct	repeat	Run2	repeat/STIM_002.jpg
1517.625	0.818	incorrect	repeat	Run2	repeat/STIM_003.jpg
1521.154	0.772	correct	repeat	Run2	repeat/STIM_003.jpg
1524.181	0.937	correct	repeat	Run2	repeat/STIM_003.jpg
1528.147	0.892	incorrect	repeat	Run2	repeat/STIM_003.jpg
1532.577	0.602	correct	repeat	Run2	repeat/STIM_003.jpg
1535.679	0.732	correct	repeat	Run2	repeat/STIM_004.jpg
1540.018	0.922	correct	repeat	Run2	repeat/STIM_004.jpg
1544.334	0.981	correct	repeat	Run2	repeat/STIM_004.jpg
1547.505	1.051	correct	repeat	Run2	repeat/STIM_004.jpg
1551.644	0.923	correct	repeat	Run2	repeat/STIM_004.jpg
1555.482	0.977	correct	repeat	Run2	repeat/STIM_005.jpg
1558.821	0.73	correct	repeat	Run2	repeat/STIM_005.jpg
1562.202	0.972	correct	repeat	Run2	repeat/STIM_005.jpg
1566.907	0.64	correct	repeat	Run2	repeat/STIM_005.jpg
1569.928	0.955	correct	repeat	Run2	repeat/STIM_005.jpg
1572.841	0.61	correct	repeat	Run2	repeat/STIM_006.jpg
1576.73	0.913	correct	repeat	Run2	repeat/STIM_006.jpg
1580.439	0.902	correct	repeat	Run2	repeat/STIM_006.jpg
1583.46	0.998	correct	repeat	Run2	repeat/STIM_006.jpg
1586.64	0.579	correct	repeat	Run2	repeat/STIM_006.jpg
1589.871	0.905	correct	repeat	Run2	repeat/STIM_007.jpg
1592.763	0.538	correct	repeat	Run2	repeat/STIM_007.jpg
1595.648	0.575	correct	repeat	Run2	repeat/STIM_007.jpg
1598.861	0.577	correct	repeat	Run2	repeat/STIM_007.jpg
1602.27	1.028	correct	repeat	Run2	repeat/STIM_007.jpg
1606.925	0.585	incorrect	repeat	Run2	repeat/STIM_008.jpg
1610.203	0.826	correct	repeat	Run2	repeat/STIM_008.jpg
1614.802	0.976	correct	repeat	Run2	repeat/STIM_008.jpg
1618.686	0.636	correct	repeat	Run2	repeat/STIM_008.jpg
1622.038	0.677	correct	repeat	Run2	repeat/STIM_008.jpg
1626.061	0.914	correct	repeat	Run2	repeat/STIM_009.jpg
1629.134	0.622	correct	repeat	Run2	repeat/STIM_009.jpg
1632.811	0.926	correct	repeat	Run2	repeat/STIM_009.jpg
1637.07	0.59	correct	repeat	Run2	repeat/STIM_009.jpg
1641.336	0.609	correct	repeat	Run2	repeat/STIM_009.jpg
1644.752	0.817	correct	repeat	Run2	repeat/STIM_010.jpg
1648.822	0.908	correct	repeat	Run2	repeat/STIM_010.jpg
1652.26	0.658	correct	repeat	Run2	repeat/STIM_010.jpg
1656.628	1.089	correct	repeat	Run2	repeat/STIM_010.jpg
1660.997	0.904	correct	repeat	Run2	repeat/STIM_010.jpg
1664.38	0.925	correct	repeat	Run2	repeat/STIM_011.jpg
1667.786	0.651	correct	repeat	Run2	repeat/STIM_011.jpg
1671.901	0.995	correct	repeat	Run2	repeat/STIM_011.jpg
1676.81	0.787	correct	repeat	Run2	repeat/STIM_011.jpg
1680.774	0.922	correct	repeat	Run2	repeat/STIM_011.jpg
1684.754	0.726	correct	repeat	Run2	repeat/STIM_012.jpg
1689.391	0.816	correct	repeat	Run2	repeat/STIM_012.jpg
1693.371	0.68	correct	repeat	Run2	repeat/STIM_012.jpg
1696.322	0.775	correct	repeat	Run2	repeat/STIM_012.jpg
1700.887	1.012	correct	repeat	Run2	repeat/STIM_012.jpg
1705.769	0.873	correct	repeat	Run2	repeat/STIM_013.jpg
1709.841	0.882	correct	repeat	Run2	repeat/STIM_013.jpg
1712.773	0.816	correct	repeat	Run2	repeat/STIM_013.jpg
1716.27	0.618	correct	repeat	Run2	repeat/STIM_013.jpg
1719.964	0.665	correct	repeat	Run2	repeat/STIM_013.jpg
1724.52	1.008	correct	repeat	Run2	repeat/STIM_014.jpg
1727.744	0.662	correct	repeat	Run2	repeat/STIM_014.jpg
1731.65	0.823	correct	repeat	Run2	repeat/STIM_014.jpg
1735.591	0.716	correct	repeat	Run2	repeat/STIM_014.jpg
1738.645	0.733	correct	repeat	Run2	repeat/STIM_014.jpg
1742.43	0.925	correct	generate	Run3	generate/STIM_000.jpg
1745.464	1.511	correct	generate	Run3	generate/STIM_000.jpg
1749.442	1.78	correct	generate	Run3	generate/STIM_000.jpg
1753.252	2.131	correct	generate	Run3	generate/STIM_000.jpg
1758.062	2.138	correct	generate	Run3	generate/STIM_000.jpg
1763.778	1.663	correct	generate	Run3	generate/STIM_001.jpg
1767.59	1.455	correct	generate	Run3	generate/STIM_001.jpg
1771.462	1.823	correct	generate	Run3	generate/STIM_001.jpg
1776.803	1.349	correct	generate	Run3	generate/STIM_001.jpg
1780.767	1.734	correct	generate	Run3	generate/STIM_001.jpg
1785.361	1.899	correct	generate	Run3	generate/STIM_002.jpg
1789.212	1.666	correct	generate	Run3	generate/STIM_002.jpg
1794.427	1.566	correct	generate	Run3	generate/STIM_002.jpg
1798.908	1.286	correct	generate	Run3	generate/STIM_002.jpg
1804.173	1.498	correct	generate	Run3	generate/STIM_002.jpg
1808.139	1.968	correct	generate	Run3	generate/STIM_003.jpg
1813.075	1.597	correct	generate	Run3	generate/STIM_003.jpg
1818.467	0.854	correct	generate	Run3	generate/STIM_003.jpg
1822.229	1.05	correct	generate	Run3	generate/STIM_003.jpg
1826.481	1.099	correct	generate	Run3	generate/STIM_003.jpg
1830.964	1.55	correct	generate	Run3	generate/STIM_004.jpg
1834.886	2.11	correct	generate	Run3	generate/STIM_004.jpg
1839.77	2.129	correct	generate	Run3	generate/STIM_004.jpg
1845.597	1.59	correct	generate	Run3	generate/STIM_004.jpg
1849.97	1.212	correct	generate	Run3	generate/STIM_004.jpg
1854.718	2.184	incorrect	generate	Run3	generate/STIM_005.jpg
1858.835	1.233	correct	generate	Run3	generate/STIM_005.jpg
1863.21	2.063	correct	generate	Run3	generate/STIM_005.jpg
1868.25	1.627	correct	generate	Run3	generate/STIM_005.jpg
1873.201	0.979	correct	generate	Run3	generate/STIM_005.jpg
1876.58	1.042	correct	generate	Run3	generate/STIM_006.jpg
1881.016	1.316	correct	generate	Run3	generate/STIM_006.jpg
1885.104	1.361	correct	generate	Run3	generate/STIM_006.jpg
1888.536	1.543	correct	generate	Run3	generate/STIM_006.jpg
1893.034	1.44	correct	generate	Run3	generate/STIM_006.jpg
1897.453	1.47	correct	generate	Run3	generate/STIM_007.jpg
1902.818	1.444	correct	generate	Run3	generate/STIM_007.jpg
1907.267	0.858	correct	generate	Run3	generate/STIM_007.jpg
1911.37	1.469	incorrect	generate	Run3	generate/STIM_007.jpg
1916.206	1.288	correct	generate	Run3	generate/STIM_007.jpg
1920.804	1.325	correct	generate	Run3	generate/STIM_008.jpg
1925.869	1.741	correct	generate	Run3	generate/STIM_008.jpg
1930.399	1.392	correct	generate	Run3	generate/STIM_008.jpg
1935.018	1.048	correct	generate	Run3	generate/STIM_008.jpg
1938.359	1.97	correct	generate	Run3	generate/STIM_008.jpg
1942.847	1.027	correct	generate	Run3	generate/STIM_009.jpg
1947.696	1.566	correct	generate	Run3	generate/STIM_009.jpg
1952.079	1.468	correct	generate	Run3	generate/STIM_009.jpg
1956.79	1.963	correct	generate	Run3	generate/STIM_009.jpg
1960.877	1.925	correct	generate	Run3	generate/STIM_009.jpg
1965.334	1.503	incorrect	generate	Run3	generate/STIM_010.jpg
1969.714	1.705	correct	generate	Run3	generate/STIM_010.jpg
1974.78	1.133	incorrect	generate	Run3	generate/STIM_010.jpg
1978.103	1.917	correct	generate	Run3	generate/STIM_010.jpg
1982.114	1.771	correct	generate	Run3	generate/STIM_010.jpg
1986.718	1.309	correct	generate	Run3	generate/STIM_011.jpg
1991.036	1.919	correct	generate	Run3	generate/STIM_011.jpg
1996.136	1.348	correct	generate	Run3	generate/STIM_011.jpg
2000.159	1.517	correct	generate	Run3	generate/STIM_011.jpg
2004.375	1.7	correct	generate	Run3	generate/STIM_011.jpg
2009.958	1.99	correct	generate	Run3	generate/STIM_012.jpg
2015.387	1.622	correct	generate	Run3	generate/STIM_012.jpg
2019.664	1.313	correct	generate	Run3	generate/STIM_012.jpg
2023.117	1.338	correct	generate	Run3	generate/STIM_012.jpg
2027.254	1.76	correct	generate	Run3	generate/STIM_012.jpg
2033.008	0.909	correct	generate	Run3	generate/STIM_013.jpg
2036.017	1.427	correct	generate	Run3	generate/STIM_013.jpg
2041.237	1.946	correct	generate	Run3	generate/STIM_013.jpg
2046.029	1.995	correct	generate	Run3	generate/STIM_013.jpg
2050.377	2.092	correct	generate	Run3	generate/STIM_013.jpg
2056.25	1.977	correct	generate	Run3	generate/STIM_014.jpg
2061.412	1.192	correct	generate	Run3	generate/STIM_014.jpg
2066.115	1.036	correct	generate	Run3	generate/STIM_014.jpg
2069.392	1.256	incorrect	generate	Run3	generate/STIM_014.jpg
2072.739	0.92	correct	generate	Run3	generate/STIM_014.jpg
2077.457	1.754	correct	generate	Run3	generate/STIM_015.jpg
2082.967	0.986	correct	generate	Run3	generate/STIM_015.jpg
2087.372	1.692	correct	generate	Run3	generate/STIM_015.jpg
2091.829	1.229	correct	generate	Run3	generate/STIM_015.jpg
2096.252	1.016	correct	generate	Run3	generate/STIM_015.jpg
2100.157	1.604	correct	generate	Run3	generate/STIM_016.jpg
2104.837	1.568	correct	generate	Run3	generate/STIM_016.jpg
2110.093	1.85	correct	generate	Run3	generate/STIM_016.jpg
2115.271	1.888	correct	generate	Run3	generate/STIM_016.jpg
2119.882	1.656	incorrect	generate	Run3	generate/STIM_016.jpg
2124.974	1.457	correct	generate	Run3	generate/STIM_017.jpg
2129.898	0.895	correct	generate	Run3	generate/STIM_017.jpg
2133.575	1.61	correct	generate	Run3	generate/STIM_017.jpg
2137.761	1.308	incorrect	generate	Run3	generate/STIM_017.jpg
2141.747	1.472	correct	generate	Run3	generate/STIM_017.jpg
2146.549	1.645	correct	generate	Run3	generate/STIM_018.jpg
2152.001	1.498	correct	generate	Run3	generate/STIM_018.jpg
2155.819	1.51	correct	generate	Run3	generate/STIM_018.jpg
2159.387	1.494	incorrect	generate	Run3	generate/STIM_018.jpg
2163.367	1.277	correct	generate	Run3	generate/STIM_018.jpg
2167.379	1.507	correct	generate	Run3	generate/STIM_019.jpg
2171.314	1.9	correct	generate	Run3	generate/STIM_019.jpg
2176.747	1.781	correct	generate	Run3	generate/STIM_019.jpg
2180.764	1.859	correct	generate	Run3	generate/STIM_019.jpg
2186.4	1.135	correct	generate	Run3	generate/STIM_019.jpg
2190.24	1.346	correct	generate	Run3	generate/STIM_020.jpg
2194.376	1.254	correct	generate	Run3	generate/STIM_020.jpg
2197.964	1.151	correct	generate	Run3	generate/STIM_020.jpg
2202.198	1.095	correct	generate	Run3	generate/STIM_020.jpg
2205.866	1.237	correct	generate	Run3	generate/STIM_020.jpg
2209.446	1.4	correct	generate	Run3	generate/STIM_021.jpg
2213.58	1.195	incorrect	generate	Run3	generate/STIM_021.jpg
2217.857	1.216	correct	generate	Run3	generate/STIM_021.jpg
2221.589	1.142	correct	generate	Run3	generate/STIM_021.jpg
2225.792	1.431	correct	generate	Run3	generate/STIM_021.jpg
2229.209	1.069	correct	generate	Run3	generate/STIM_022.jpg
2233.021	0.837	correct	generate	Run3	generate/STIM_022.jpg
2236.668	1.471	correct	generate	Run3	generate/STIM_022.jpg
2241.689	1.943	correct	generate	Run3	generate/STIM_022.jpg
2246.668	1.358	correct	generate	Run3	generate/STIM_022.jpg
2251.723	1.121	correct	generate	Run3	generate/STIM_023.jpg
2255.04	1.967	correct	generate	Run3	generate/STIM_023.jpg
2259.075	0.971	incorrect	generate	Run3	generate/STIM_023.jpg
2262.779	1.002	correct	generate	Run3	generate/STIM_023.jpg
2266.454	1.903	incorrect	generate	Run3	generate/STIM_023.jpg
2270.528	1.115	correct	generate	Run3	generate/STIM_024.jpg
2273.879	0.865	correct	generate	Run3	generate/STIM_024.jpg
2277.067	1.98	correct	generate	Run3	generate/STIM_024.jpg
2281.561	1.266	correct	generate	Run3	generate/STIM_024.jpg
2286.343	1.086	correct	generate	Run3	generate/STIM_024.jpg
2289.95	0.931	correct	repeat	Run3	repeat/STIM_000.jpg
2294.16	0.784	correct	repeat	Run3	repeat/STIM_000.jpg
2297.305	0.84	correct	repeat	Run3	repeat/STIM_000.jpg
2301.667	0.633	correct	repeat	Run3	repeat/STIM_000.jpg
2304.745	1.031	correct	repeat	Run3	repeat/STIM_000.jpg
2308.488	0.646	correct	repeat	Run3	repeat/STIM_001.jpg
2312.298	1.096	correct	repeat	Run3	repeat/STIM_001.jpg
2316.817	0.764	correct	repeat	Run3	repeat/STIM_001.jpg
2321.018	0.899	correct	repeat	Run3	repeat/STIM_001.jpg
2324.981	0.609	correct	repeat	Run3	repeat/STIM_001.jpg
2327.801	0.569	correct	repeat	Run3	repeat/STIM_002.jpg
2331.278	0.829	correct	repeat	Run3	repeat/STIM_002.jpg
2335.983	0.63	correct	repeat	Run3	repeat/STIM_002.jpg
2340.558	0.491	correct	repeat	Run3	repeat/STIM_002.jpg
2343.451	0.803	correct	repeat	Run3	repeat/STIM_002.jpg
2346.461	0.753	correct	repeat	Run3	repeat/STIM_003.jpg
2349.882	0.611	correct	repeat	Run3	repeat/STIM_003.jpg
2353.458	0.516	correct	repeat	Run3	repeat/STIM_003.jpg
2357.969	0.762	correct	repeat	Run3	repeat/STIM_003.jpg
2360.781	0.992	correct	repeat	Run3	repeat/STIM_003.jpg
2365.437	0.905	correct	repeat	Run3	repeat/STIM_004.jpg
2370.334	0.6	correct	repeat	Run3	repeat/STIM_004.jpg
2374.048	0.994	correct	repeat	Run3	repeat/STIM_004.jpg
2378.259	0.646	correct	repeat	Run3	repeat/STIM_004.jpg
2381.346	0.818	correct	repeat	Run3	repeat/STIM_004.jpg
2385.567	0.562	correct	repeat	Run3	repeat/STIM_005.jpg
2389.87	0.66	correct	repeat	Run3	repeat/STIM_005.jpg
2392.991	1.022	correct	repeat	Run3	repeat/STIM_005.jpg
2396.234	1.104	correct	repeat	Run3	repeat/STIM_005.jpg
2399.948	0.577	correct	repeat	Run3	repeat/STIM_005.jpg
2402.726	0.825	correct	repeat	Run3	repeat/STIM_006.jpg
2406.222	0.908	correct	repeat	Run3	repeat/STIM_006.jpg
2409.486	0.612	correct	repeat	Run3	repeat/STIM_006.jpg
2412.774	0.563	correct	repeat	Run3	repeat/STIM_006.jpg
2415.432	0.951	correct	repeat	Run3	repeat/STIM_006.jpg
2420.282	0.88	correct	repeat	Run3	repeat/STIM_007.jpg
2424.172	0.964	correct	repeat	Run3	repeat/STIM_007.jpg
2427.739	0.888	correct	repeat	Run3	repeat/STIM_007.jpg
2432.38	0.591	correct	repeat	Run3	repeat/STIM_007.jpg
2436.368	0.612	correct	repeat	Run3	repeat/STIM_007.jpg
2439.385	0.599	correct	repeat	Run3	repeat/STIM_008.jpg
2443.131	0.806	correct	repeat	Run3	repeat/STIM_008.jpg
2447.112	0.56	correct	repeat	Run3	repeat/STIM_008.jpg
2451.455	0.945	correct	repeat	Run3	repeat/STIM_008.jpg
2455.841	0.503	correct	repeat	Run3	repeat/STIM_008.jpg
2459.184	0.821	correct	repeat	Run3	repeat/STIM_009.jpg
2462.794	0.948	correct	repeat	Run3	repeat/STIM_009.jpg
2467.405	0.83	correct	repeat	Run3	repeat/STIM_009.jpg
2471.249	1.01	incorrect	repeat	Run3	repeat/STIM_009.jpg
2474.401	0.826	correct	repeat	Run3	repeat/STIM_009.jpg
2477.963	0.886	correct	repeat	Run3	repeat/STIM_010.jpg
2482.541	0.813	correct	repeat	Run3	repeat/STIM_010.jpg
2485.693	0.63	correct	repeat	Run3	repeat/STIM_010.jpg
2490.201	0.573	correct	repeat	Run3	repeat/STIM_010.jpg
2494.691	0.885	correct	repeat	Run3	repeat/STIM_010.jpg
2498.054	0.776	correct	repeat	Run3	repeat/STIM_011.jpg
2502.17	0.901	correct	repeat	Run3	repeat/STIM_011.jpg
2507.006	0.573	correct	repeat	Run3	repeat/STIM_011.jpg
2510.613	0.923	correct	repeat	Run3	repeat/STIM_011.jpg
2514.808	0.7	correct	repeat	Run3	repeat/STIM_011.jpg
2519.224	0.702	correct	repeat	Run3	repeat/STIM_012.jpg
2522.797	0.982	correct	repeat	Run3	repeat/STIM_012.jpg
2527.014	0.798	correct	repeat	Run3	repeat/STIM_012.jpg
2530.664	0.538	correct	repeat	Run3	repeat/STIM_012.jpg
2533.901	0.847	correct	repeat	Run3	repeat/STIM_012.jpg
2537.804	0.828	correct	repeat	Run3	repeat/STIM_013.jpg
2541.683	0.705	correct	repeat	Run3	repeat/STIM_013.jpg
2546.002	0.837	correct	repeat	Run3	repeat/STIM_013.jpg
2549.996	0.851	correct	repeat	Run3	repeat/STIM_013.jpg
2552.877	0.868	incorrect	repeat	Run3	repeat/STIM_013.jpg
2557.581	0.996	correct	repeat	Run3	repeat/STIM_014.jpg
2561.636	0.857	correct	repeat	Run3	repeat/STIM_014.jpg
2564.989	0.795	correct	repeat	Run3	repeat/STIM_014.jpg
2567.856	0.592	correct	repeat	Run3	repeat/STIM_014.jpg
2571.641	0.785	correct	repeat	Run3	repeat/STIM_014.jpg
2574.466	1.032	correct	generate	Run4	generate/STIM_000.jpg
2578.391	1.489	correct	generate	Run4	generate/STIM_000.jpg
2583.119	1.643	correct	generate	Run4	generate/STIM_000.jpg
2587.483	1.399	correct	generate	Run4	generate/STIM_000.jpg
2591.077	0.913	correct	generate	Run4	generate/STIM_000.jpg
2595.708	1.653	correct	generate	Run4	generate/STIM_001.jpg
2600.707	1.332	correct	generate	Run4	generate/STIM_001.jpg
2605.078	1.55	correct	generate	Run4	generate/STIM_001.jpg
2608.917	2.053	correct	generate	Run4	generate/STIM_001.jpg
2613.615	2.001	correct	generate	Run4	generate/STIM_001.jpg
2617.844	1.715	correct	generate	Run4	generate/STIM_002.jpg
2622.58	1.466	correct	generate	Run4	generate/STIM_002.jpg
2627.053	1.998	correct	generate	Run4	generate/STIM_002.jpg
2631.872	1.866	correct	generate	Run4	generate/STIM_002.jpg
2636.412	1.972	correct	generate	Run4	generate/STIM_002.jpg
2641.096	1.217	correct	generate	Run4	generate/STIM_003.jpg
2644.852	1.036	correct	generate	Run4	generate/STIM_003.jpg
2649.665	1.987	correct	generate	Run4	generate/STIM_003.jpg
2655.126	1.159	correct	generate	Run4	generate/STIM_003.jpg
2660.052	1.227	correct	generate	Run4	generate/STIM_003.jpg
2663.308	1.532	incorrect	generate	Run4	generate/STIM_004.jpg
2667.049	2.038	correct	generate	Run4	generate/STIM_004.jpg
2671.271	0.856	correct	generate	Run4	generate/STIM_004.jpg
2675.608	1.205	correct	generate	Run4	generate/STIM_004.jpg
2679.869	2.065	correct	generate	Run4	generate/STIM_004.jpg
2685.446	1.899	correct	generate	Run4	generate/STIM_005.jpg
2690.003	1.392	correct	generate	Run4	generate/STIM_005.jpg
2694.767	1.838	correct	generate	Run4	generate/STIM_005.jpg
2698.963	1.456	correct	generate	Run4	generate/STIM_005.jpg
2703.783	1.086	correct	generate	Run4	generate/STIM_005.jpg
2708.725	1.823	correct	generate	Run4	generate/STIM_006.jpg
2713.919	1.817	correct	generate	Run4	generate/STIM_006.jpg
2718.416	1.81	correct	generate	Run4	generate/STIM_006.jpg
2723.386	1.934	correct	generate	Run4	generate/STIM_006.jpg
2727.25	1.756	correct	generate	Run4	generate/STIM_006.jpg
2731.267	1.206	correct	generate	Run4	generate/STIM_007.jpg
2734.511	1.903	correct	generate	Run4	generate/STIM_007.jpg
2738.842	1.909	correct	generate	Run4	generate/STIM_007.jpg
2743.653	2.133	correct	generate	Run4	generate/STIM_007.jpg
2748.93	0.883	correct	generate	Run4	generate/STIM_007.jpg
2753.254	1.279	incorrect	generate	Run4	generate/STIM_008.jpg
2756.624	1.513	correct	generate	Run4	generate/STIM_008.jpg
2761.573	1.257	correct	generate	Run4	generate/STIM_008.jpg
2765.65	1.15	correct	generate	Run4	generate/STIM_008.jpg
2770.035	1.173	correct	generate	Run4	generate/STIM_008.jpg
2773.286	1.707	correct	generate	Run4	generate/STIM_009.jpg
2777.897	1.469	correct	generate	Run4	generate/STIM_009.jpg
2781.406	0.928	correct	generate	Run4	generate/STIM_009.jpg
2784.959	1.218	correct	generate	Run4	generate/STIM_009.jpg
2789.471	2.204	correct	generate	Run4	generate/STIM_009.jpg
2794.745	1.365	correct	generate	Run4	generate/STIM_010.jpg
2800.085	1.225	correct	generate	Run4	generate/STIM_010.jpg
2805.058	1.225	correct	generate	Run4	generate/STIM_010.jpg
2809.181	0.932	correct	generate	Run4	generate/STIM_010.jpg
2813.453	1.631	correct	generate	Run4	generate/STIM_010.jpg
2818.109	1.092	correct	generate	Run4	generate/STIM_011.jpg
2823.059	1.932	correct	generate	Run4	generate/STIM_011.jpg
2828.715	1.714	correct	generate	Run4	generate/STIM_011.jpg
2833.566	1.946	correct	generate	Run4	generate/STIM_011.jpg
2839.112	1.074	correct	generate	Run4	generate/STIM_011.jpg
2843.755	1.616	correct	generate	Run4	generate/STIM_012.jpg
2847.393	1.852	correct	generate	Run4	generate/STIM_012.jpg
2853.023	1.148	correct	generate	Run4	generate/STIM_012.jpg
2856.696	1.688	correct	generate	Run4	generate/STIM_012.jpg
2861.839	0.953	correct	generate	Run4	generate/STIM_012.jpg
2864.752	0.885	correct	generate	Run4	generate/STIM_013.jpg
2868.902	0.936	correct	generate	Run4	generate/STIM_013.jpg
2873.844	2.056	correct	generate	Run4	generate/STIM_013.jpg
2878.549	1.765	correct	generate	Run4	generate/STIM_013.jpg
2883.413	1.167	correct	generate	Run4	generate/STIM_013.jpg
2887.273	2.083	correct	generate	Run4	generate/STIM_014.jpg
2891.745	2.01	correct	generate	Run4	generate/STIM_014.jpg
2896.552	1.646	correct	generate	Run4	generate/STIM_014.jpg
2901.677	1.83	correct	generate	Run4	generate/STIM_014.jpg
2905.806	0.903	correct	generate	Run4	generate/STIM_014.jpg
2909.959	1.952	correct	generate	Run4	generate/STIM_015.jpg
2915.365	1.836	correct	generate	Run4	generate/STIM_015.jpg
2919.99	2.148	correct	generate	Run4	generate/STIM_015.jpg
2924.336	1.861	correct	generate	Run4	generate/STIM_015.jpg
2929.141	1.34	correct	generate	Run4	generate/STIM_015.jpg
2934.107	1.377	incorrect	generate	Run4	generate/STIM_016.jpg
2937.902	1.685	correct	generate	Run4	generate/STIM_016.jpg
2941.914	1.926	correct	generate	Run4	generate/STIM_016.jpg
2947.624	1.018	correct	generate	Run4	generate/STIM_016.jpg
2951.435	1.114	correct	generate	Run4	generate/STIM_016.jpg
2956.055	1.074	correct	generate	Run4	generate/STIM_017.jpg
2959.876	1.958	correct	generate	Run4	generate/STIM_017.jpg
2964.855	1.909	correct	generate	Run4	generate/STIM_017.jpg
2969.996	1.09	correct	generate	Run4	generate/STIM_017.jpg
2973.87	1.536	correct	generate	Run4	generate/STIM_017.jpg
2977.841	1.855	correct	generate	Run4	generate/STIM_018.jpg
2982.737	1.057	correct	generate	Run4	generate/STIM_018.jpg
2986.336	1.17	correct	generate	Run4	generate/STIM_018.jpg
2990.462	2.034	correct	generate	Run4	generate/STIM_018.jpg
2995.705	1.914	correct	generate	Run4	generate/STIM_018.jpg
3000.816	1.545	correct	generate	Run4	generate/STIM_019.jpg
3006.163	1.01	correct	generate	Run4	generate/STIM_019.jpg
3010.251	1.352	correct	generate	Run4	generate/STIM_019.jpg
3015.298	2.175	correct	generate	Run4	generate/STIM_019.jpg
3019.407	2.114	correct	generate	Run4	generate/STIM_019.jpg
3025.437	1.435	correct	generate	Run4	generate/STIM_020.jpg
3030.582	1.465	incorrect	generate	Run4	generate/STIM_020.jpg
3034.407	1.999	correct	generate	Run4	generate/STIM_020.jpg
3038.63	1.789	correct	generate	Run4	generate/STIM_020.jpg
3043.364	1.948	correct	generate	Run4	generate/STIM_020.jpg
3048.684	1.476	correct	generate	Run4	generate/STIM_021.jpg
3052.479	1.323	correct	generate	Run4	generate/STIM_021.jpg
3056.133	1.102	correct	generate	Run4	generate/STIM_021.jpg
3059.9	1.182	correct	generate	Run4	generate/STIM_021.jpg
3063.479	1.48	correct	generate	Run4	generate/STIM_021.jpg
3066.947	1.975	correct	generate	Run4	generate/STIM_022.jpg
3071.647	1.983	correct	generate	Run4	generate/STIM_022.jpg
3077.19	0.958	correct	generate	Run4	generate/STIM_022.jpg
3081.779	1.811	correct	generate	Run4	generate/STIM_022.jpg
3086.461	1.533	correct	generate	Run4	generate/STIM_022.jpg
3090.796	1.973	correct	generate	Run4	generate/STIM_023.jpg
3095.504	1.247	correct	generate	Run4	generate/STIM_023.jpg
3099.997	1.886	correct	generate	Run4	generate/STIM_023.jpg
3104.528	1.367	correct	generate	Run4	generate/STIM_023.jpg
3109.771	0.937	correct	generate	Run4	generate/STIM_023.jpg
3114.552	1.702	correct	generate	Run4	generate/STIM_024.jpg
3118.973	2.056	correct	generate	Run4	generate/STIM_024.jpg
3124.336	1.656	correct	generate	Run4	generate/STIM_024.jpg
3128.948	0.91	correct	generate	Run4	generate/STIM_024.jpg
3133.347	2.164	correct	generate	Run4	generate/STIM_024.jpg
3139.394	0.742	correct	repeat	Run4	repeat/STIM_000.jpg
3143.23	0.555	correct	repeat	Run4	repeat/STIM_000.jpg
3147.52	0.807	correct	repeat	Run4	repeat/STIM_000.jpg
3150.671	0.895	correct	repeat	Run4	repeat/STIM_000.jpg
3153.891	0.984	correct	repeat	Run4	repeat/STIM_000.jpg
3158.388	0.671	correct	repeat	Run4	repeat/STIM_001.jpg
3162.326	0.679	correct	repeat	Run4	repeat/STIM_001.jpg
3166.316	0.973	correct	repeat	Run4	repeat/STIM_001.jpg
3170.769	0.97	incorrect	repeat	Run4	repeat/STIM_001.jpg
3175.12	0.456	correct	repeat	Run4	repeat/STIM_001.jpg
3179.247	0.781	correct	repeat	Run4	repeat/STIM_002.jpg
3182.489	0.527	incorrect	repeat	Run4	repeat/STIM_002.jpg
3186.073	0.939	correct	repeat	Run4	repeat/STIM_002.jpg
3190.321	0.642	correct	repeat	Run4	repeat/STIM_002.jpg
3194.72	0.784	correct	repeat	Run4	repeat/STIM_002.jpg
3199.443	0.853	correct	repeat	Run4	repeat/STIM_003.jpg
3204.108	0.87	correct	repeat	Run4	repeat/STIM_003.jpg
3207.635	0.733	correct	repeat	Run4	repeat/STIM_003.jpg
3211.922	0.588	correct	repeat	Run4	repeat/STIM_003.jpg
3215.953	0.803	correct	repeat	Run4	repeat/STIM_003.jpg
3218.804	0.994	correct	repeat	Run4	repeat/STIM_004.jpg
3222.244	0.601	correct	repeat	Run4	repeat/STIM_004.jpg
3226.439	0.743	correct	repeat	Run4	repeat/STIM_004.jpg
3230.474	0.68	correct	repeat	Run4	repeat/STIM_004.jpg
3234.591	0.73	correct	repeat	Run4	repeat/STIM_004.jpg
3237.486	0.964	correct	repeat	Run4	repeat/STIM_005.jpg
3241.116	0.76	correct	repeat	Run4	repeat/STIM_005.jpg
3244.011	0.942	incorrect	repeat	Run4	repeat/STIM_005.jpg
3247.722	0.795	correct	repeat	Run4	repeat/STIM_005.jpg
3251.898	0.532	correct	repeat	Run4	repeat/STIM_005.jpg
3254.455	0.713	correct	repeat	Run4	repeat/STIM_006.jpg
3258.174	0.999	correct	repeat	Run4	repeat/STIM_006.jpg
3261.948	0.948	correct	repeat	Run4	repeat/STIM_006.jpg
3266.364	0.736	correct	repeat	Run4	repeat/STIM_006.jpg
3269.947	0.851	correct	repeat	Run4	repeat/STIM_006.jpg
3273.207	0.721	correct	repeat	Run4	repeat/STIM_007.jpg
3276.899	0.982	correct	repeat	Run4	repeat/STIM_007.jpg
3281.843	0.943	correct	repeat	Run4	repeat/STIM_007.jpg
3286.094	0.846	correct	repeat	Run4	repeat/STIM_007.jpg
3289.981	0.892	correct	repeat	Run4	repeat/STIM_007.jpg
3293.447	0.896	correct	repeat	Run4	repeat/STIM_008.jpg
3297.799	1.032	correct	repeat	Run4	repeat/STIM_008.jpg
3301.923	0.729	correct	repeat	Run4	repeat/STIM_008.jpg
3305.938	0.746	incorrect	repeat	Run4	repeat/STIM_008.jpg
3308.859	0.539	correct	repeat	Run4	repeat/STIM_008.jpg
3312.094	0.693	correct	repeat	Run4	repeat/STIM_009.jpg
3316.237	1.016	correct	repeat	Run4	repeat/STIM_009.jpg
3319.886	0.785	correct	repeat	Run4	repeat/STIM_009.jpg
3322.646	0.922	correct	repeat	Run4	repeat/STIM_009.jpg
3326.09	0.713	correct	repeat	Run4	repeat/STIM_009.jpg
3329.24	0.783	correct	repeat	Run4	repeat/STIM_010.jpg
3332.056	0.871	correct	repeat	Run4	repeat/STIM_010.jpg
3335.087	0.839	correct	repeat	Run4	repeat/STIM_010.jpg
3338.532	0.865	correct	repeat	Run4	repeat/STIM_010.jpg
3343.317	0.976	correct	repeat	Run4	repeat/STIM_010.jpg
3348.007	1.064	correct	repeat	Run4	repeat/STIM_011.jpg
3352.403	0.489	correct	repeat	Run4	repeat/STIM_011.jpg
3356.204	0.656	correct	repeat	Run4	repeat/STIM_011.jpg
3359.047	0.505	correct	repeat	Run4	repeat/STIM_011.jpg
3363.52	0.95	correct	repeat	Run4	repeat/STIM_011.jpg
3367.012	0.92	correct	repeat	Run4	repeat/STIM_012.jpg
3371.376	0.813	correct	repeat	Run4	repeat/STIM_012.jpg
3375.376	0.8	correct	repeat	Run4	repeat/STIM_012.jpg
3379.132	0.782	correct	repeat	Run4	repeat/STIM_012.jpg
3383.578	0.537	correct	repeat	Run4	repeat/STIM_012.jpg
3387.322	0.63	correct	repeat	Run4	repeat/STIM_013.jpg
3391.773	0.733	correct	repeat	Run4	repeat/STIM_013.jpg
3394.603	0.697	correct	repeat	Run4	repeat/STIM_013.jpg
3397.851	0.749	correct	repeat	Run4	repeat/STIM_013.jpg
3402.037	0.732	correct	repeat	Run4	repeat/STIM_013.jpg
3405.969	0.501	correct	repeat	Run4	repeat/STIM_014.jpg
3410.427	0.78	correct	repeat	Run4	repeat/STIM_014.jpg
3414.34	0.686	correct	repeat	Run4	repeat/STIM_014.jpg
3418.813	0.895	correct	repeat	Run4	repeat/STIM_014.jpg
3421.627	0.607	correct	repeat	Run4	repeat/STIM_014.jpg
