onset	duration	accuracy	trial_type	learning_stage	stimulus
0.0	1.76	correct	generate	Run1	generate/STIM_000.jpg
4.892	2.704	correct	generate	Run1	generate/STIM_000.jpg
11.364	2.373	incorrect	generate	Run1	generate/STIM_000.jpg
16.218	2.794	incorrect	generate	Run1	generate/STIM_000.jpg
21.631	2.025	incorrect	generate	Run1	generate/STIM_000.jpg
25.885	2.527	incorrect	generate	Run1	generate/STIM_001.jpg
31.27	1.463	correct	generate	Run1	generate/STIM_001.jpg
36.063	2.539	correct	generate	Run1	generate/STIM_001.jpg
42.574	1.955	incorrect	generate	Run1	generate/STIM_001.jpg
46.719	2.459	incorrect	generate	Run1	generate/STIM_001.jpg
52.339	2.919	correct	generate	Run1	generate/STIM_002.jpg
57.838	1.75	correct	generate	Run1	generate/STIM_002.jpg
63.24	2.679	incorrect	generate	Run1	generate/STIM_002.jpg
68.678	2.943	incorrect	generate	Run1	generate/STIM_002.jpg
75.259	1.752	correct	generate	Run1	generate/STIM_002.jpg
79.585	2.644	incorrect	generate	Run1	generate/STIM_003.jpg
86.202	1.571	incorrect	generate	Run1	generate/STIM_003.jpg
91.384	1.372	correct	generate	Run1	generate/STIM_003.jpg
96.64	2.077	correct	generate	Run1	generate/STIM_003.jpg
102.24	2.239	correct	generate	Run1	generate/STIM_003.jpg
106.495	1.447	incorrect	generate	Run1	generate/STIM_004.jpg
110.604	2.301	correct	generate	Run1	generate/STIM_004.jpg
116.363	2.875	correct	generate	Run1	generate/STIM_004.jpg
122.391	1.636	correct	generate	Run1	generate/STIM_004.jpg
127.463	1.66	incorrect	generate	Run1	generate/STIM_004.jpg
132.215	1.724	incorrect	generate	Run1	generate/STIM_005.jpg
137.64	2.375	correct	generate	Run1	generate/STIM_005.jpg
142.95	2.441	correct	generate	Run1	generate/STIM_005.jpg
147.809	2.887	correct	generate	Run1	generate/STIM_005.jpg
153.401	2.547	correct	generate	Run1	generate/STIM_005.jpg
159.219	3.042	incorrect	generate	Run1	generate/STIM_006.jpg
165.776	2.191	correct	generate	Run1	generate/STIM_006.jpg
171.858	1.383	correct	generate	Run1	generate/STIM_006.jpg
176.481	2.867	incorrect	generate	Run1	generate/STIM_006.jpg
182.92	1.92	incorrect	generate	Run1	generate/STIM_006.jpg
187.113	2.236	incorrect	generate	Run1	generate/STIM_007.jpg
191.868	3.019	correct	generate	Run1	generate/STIM_007.jpg
197.637	1.45	correct	generate	Run1	generate/STIM_007.jpg
201.969	2.079	correct	generate	Run1	generate/STIM_007.jpg
207.65	1.591	correct	generate	Run1	generate/STIM_007.jpg
211.784	2.127	incorrect	generate	Run1	generate/STIM_008.jpg
217.529	2.288	correct	generate	Run1	generate/STIM_008.jpg
223.05	2.318	incorrect	generate	Run1	generate/STIM_008.jpg
227.688	1.44	incorrect	generate	Run1	generate/STIM_008.jpg
232.497	1.698	correct	generate	Run1	generate/STIM_008.jpg
237.193	1.704	correct	generate	Run1	generate/STIM_009.jpg
242.201	1.353	incorrect	generate	Run1	generate/STIM_009.jpg
246.522	2.821	incorrect	generate	Run1	generate/STIM_009.jpg
251.413	1.395	correct	generate	Run1	generate/STIM_009.jpg
256.55	1.466	correct	generate	Run1	generate/STIM_009.jpg
261.478	3.118	incorrect	generate	Run1	generate/STIM_010.jpg
266.774	1.872	incorrect	generate	Run1	generate/STIM_010.jpg
271.89	1.313	incorrect	generate	Run1	generate/STIM_010.jpg
275.261	1.672	incorrect	generate	Run1	generate/STIM_010.jpg
279.926	1.697	correct	generate	Run1	generate/STIM_010.jpg
284.178	2.602	incorrect	generate	Run1	generate/STIM_011.jpg
290.429	2.9	correct	generate	Run1	generate/STIM_011.jpg
295.562	2.401	correct	generate	Run1	generate/STIM_011.jpg
301.337	2.77	correct	generate	Run1	generate/STIM_011.jpg
306.528	1.3	incorrect	generate	Run1	generate/STIM_011.jpg
311.406	3.155	incorrect	generate	Run1	generate/STIM_012.jpg
317.015	2.754	incorrect	generate	Run1	generate/STIM_012.jpg
322.952	1.849	correct	generate	Run1	generate/STIM_012.jpg
326.933	2.476	incorrect	generate	Run1	generate/STIM_012.jpg
331.863	1.49	incorrect	generate	Run1	generate/STIM_012.jpg
337.153	3.434	correct	generate	Run1	generate/STIM_013.jpg
342.939	1.722	incorrect	generate	Run1	generate/STIM_013.jpg
348.403	2.553	correct	generate	Run1	generate/STIM_013.jpg
354.567	1.694	correct	generate	Run1	generate/STIM_013.jpg
358.722	2.092	correct	generate	Run1	generate/STIM_013.jpg
363.64	3.298	incorrect	generate	Run1	generate/STIM_014.jpg
370.684	3.0	incorrect	generate	Run1	generate/STIM_014.jpg
377.217	3.0	incorrect	generate	Run1	generate/STIM_014.jpg
383.69	2.453	incorrect	generate	Run1	generate/STIM_014.jpg
388.897	1.323	correct	generate	Run1	generate/STIM_014.jpg
393.611	3.137	incorrect	generate	Run1	generate/STIM_015.jpg
399.632	1.987	incorrect	generate	Run1	generate/STIM_015.jpg
403.778	1.509	correct	generate	Run1	generate/STIM_015.jpg
408.107	1.718	incorrect	generate	Run1	generate/STIM_015.jpg
412.882	1.707	incorrect	generate	Run1	generate/STIM_015.jpg
417.051	3.429	correct	generate	Run1	generate/STIM_016.jpg
423.444	3.225	incorrect	generate	Run1	generate/STIM_016.jpg
430.152	1.834	incorrect	generate	Run1	generate/STIM_016.jpg
435.531	1.842	correct	generate	Run1	generate/STIM_016.jpg
440.171	1.922	correct	generate	Run1	generate/STIM_016.jpg
444.147	1.414	correct	generate	Run1	generate/STIM_017.jpg
447.845	2.704	incorrect	generate	Run1	generate/STIM_017.jpg
454.143	1.95	incorrect	generate	Run1	generate/STIM_017.jpg
459.168	2.662	correct	generate	Run1	generate/STIM_017.jpg
465.207	1.811	correct	generate	Run1	generate/STIM_017.jpg
470.605	2.32	correct	generate	Run1	generate/STIM_018.jpg
476.653	2.577	incorrect	generate	Run1	generate/STIM_018.jpg
483.017	2.56	incorrect	generate	Run1	generate/STIM_018.jpg
487.606	2.877	incorrect	generate	Run1	generate/STIM_018.jpg
493.928	2.559	correct	generate	Run1	generate/STIM_018.jpg
499.704	1.682	correct	generate	Run1	generate/STIM_019.jpg
503.526	2.85	correct	generate	Run1	generate/STIM_019.jpg
509.974	2.79	correct	generate	Run1	generate/STIM_019.jpg
515.272	2.076	correct	generate	Run1	generate/STIM_019.jpg
519.694	2.187	correct	generate	Run1	generate/STIM_019.jpg
524.347	2.972	incorrect	generate	Run1	generate/STIM_020.jpg
530.03	3.144	correct	generate	Run1	generate/STIM_020.jpg
536.931	2.111	incorrect	generate	Run1	generate/STIM_020.jpg
542.624	1.617	incorrect	generate	Run1	generate/STIM_020.jpg
546.506	1.178	correct	generate	Run1	generate/STIM_020.jpg
550.441	1.577	incorrect	generate	Run1	generate/STIM_021.jpg
554.338	2.425	correct	generate	Run1	generate/STIM_021.jpg
559.917	2.451	correct	generate	Run1	generate/STIM_021.jpg
566.294	2.773	correct	generate	Run1	generate/STIM_021.jpg
572.273	1.51	incorrect	generate	Run1	generate/STIM_021.jpg
576.566	2.593	correct	generate	Run1	generate/STIM_022.jpg
582.716	1.515	incorrect	generate	Run1	generate/STIM_022.jpg
587.582	1.493	correct	generate	Run1	generate/STIM_022.jpg
592.204	2.769	correct	generate	Run1	generate/STIM_022.jpg
598.319	1.151	correct	generate	Run1	generate/STIM_022.jpg
602.75	1.863	correct	generate	Run1	generate/STIM_023.jpg
607.612	2.135	incorrect	generate	Run1	generate/STIM_023.jpg
612.567	2.445	correct	generate	Run1	generate/STIM_023.jpg
618.009	2.504	correct	generate	Run1	generate/STIM_023.jpg
623.743	2.376	correct	generate	Run1	generate/STIM_023.jpg
628.351	1.978	incorrect	generate	Run1	generate/STIM_024.jpg
633.055	3.137	correct	generate	Run1	generate/STIM_024.jpg
638.95	2.356	correct	generate	Run1	generate/STIM_024.jpg
644.335	1.603	incorrect	generate	Run1	generate/STIM_024.jpg
649.205	2.776	correct	generate	Run1	generate/STIM_024.jpg
654.945	0.668	correct	repeat	Run1	repeat/STIM_000.jpg
659.029	1.009	incorrect	repeat	Run1	repeat/STIM_000.jpg
663.902	0.998	correct	repeat	Run1	repeat/STIM_000.jpg
667.036	0.744	correct	repeat	Run1	repeat/STIM_000.jpg
671.261	0.682	incorrect	repeat	Run1	repeat/STIM_000.jpg
675.804	0.829	correct	repeat	Run1	repeat/STIM_001.jpg
679.621	1.095	correct	repeat	Run1	repeat/STIM_001.jpg
683.499	0.713	correct	repeat	Run1	repeat/STIM_001.jpg
686.468	1.075	correct	repeat	Run1	repeat/STIM_001.jpg
690.632	0.852	incorrect	repeat	Run1	repeat/STIM_001.jpg
695.066	0.93	incorrect	repeat	Run1	repeat/STIM_002.jpg
698.393	0.67	correct	repeat	Run1	repeat/STIM_002.jpg
701.208	0.837	correct	repeat	Run1	repeat/STIM_002.jpg
705.925	0.959	correct	repeat	Run1	repeat/STIM_002.jpg
710.03	0.607	incorrect	repeat	Run1	repeat/STIM_002.jpg
714.478	0.872	incorrect	repeat	Run1	repeat/STIM_003.jpg
717.898	0.848	correct	repeat	Run1	repeat/STIM_003.jpg
722.415	0.954	correct	repeat	Run1	repeat/STIM_003.jpg
727.146	1.003	incorrect	repeat	Run1	repeat/STIM_003.jpg
731.733	0.888	correct	repeat	Run1	repeat/STIM_003.jpg
735.031	1.165	incorrect	repeat	Run1	repeat/STIM_004.jpg
738.819	0.97	correct	repeat	Run1	repeat/STIM_004.jpg
741.891	0.785	correct	repeat	Run1	repeat/STIM_004.jpg
745.02	1.086	correct	repeat	Run1	repeat/STIM_004.jpg
748.984	1.012	incorrect	repeat	Run1	repeat/STIM_004.jpg
753.778	0.655	correct	repeat	Run1	repeat/STIM_005.jpg
758.153	0.745	correct	repeat	Run1	repeat/STIM_005.jpg
761.483	0.586	correct	repeat	Run1	repeat/STIM_005.jpg
765.596	0.684	incorrect	repeat	Run1	repeat/STIM_005.jpg
768.754	0.967	correct	repeat	Run1	repeat/STIM_005.jpg
772.579	0.861	correct	repeat	Run1	repeat/STIM_006.jpg
776.433	0.809	correct	repeat	Run1	repeat/STIM_006.jpg
780.727	0.859	incorrect	repeat	Run1	repeat/STIM_006.jpg
784.265	0.949	incorrect	repeat	Run1	repeat/STIM_006.jpg
788.749	1.1	correct	repeat	Run1	repeat/STIM_006.jpg
793.522	1.128	correct	repeat	Run1	repeat/STIM_007.jpg
796.847	1.0	correct	repeat	Run1	repeat/STIM_007.jpg
800.087	0.594	correct	repeat	Run1	repeat/STIM_007.jpg
803.339	0.859	correct	repeat	Run1	repeat/STIM_007.jpg
806.741	1.013	correct	repeat	Run1	repeat/STIM_007.jpg
809.817	0.97	incorrect	repeat	Run1	repeat/STIM_008.jpg
814.509	0.906	correct	repeat	Run1	repeat/STIM_008.jpg
818.642	0.782	incorrect	repeat	Run1	repeat/STIM_008.jpg
823.169	0.835	correct	repeat	Run1	repeat/STIM_008.jpg
827.528	0.817	correct	repeat	Run1	repeat/STIM_008.jpg
830.867	1.029	correct	repeat	Run1	repeat/STIM_009.jpg
834.512	0.971	correct	repeat	Run1	repeat/STIM_009.jpg
838.496	0.987	correct	repeat	Run1	repeat/STIM_009.jpg
841.6	0.671	incorrect	repeat	Run1	repeat/STIM_009.jpg
845.481	0.858	correct	repeat	Run1	repeat/STIM_009.jpg
849.935	0.915	correct	repeat	Run1	repeat/STIM_010.jpg
854.511	1.003	incorrect	repeat	Run1	repeat/STIM_010.jpg
859.06	0.787	incorrect	repeat	Run1	repeat/STIM_010.jpg
862.083	0.897	correct	repeat	Run1	repeat/STIM_010.jpg
865.307	1.008	correct	repeat	Run1	repeat/STIM_010.jpg
868.909	0.971	correct	repeat	Run1	repeat/STIM_011.jpg
872.759	0.753	incorrect	repeat	Run1	repeat/STIM_011.jpg
876.929	0.795	correct	repeat	Run1	repeat/STIM_011.jpg
881.462	1.101	incorrect	repeat	Run1	repeat/STIM_011.jpg
884.601	0.617	correct	repeat	Run1	repeat/STIM_011.jpg
887.291	1.012	correct	repeat	Run1	repeat/STIM_012.jpg
891.269	0.891	correct	repeat	Run1	repeat/STIM_012.jpg
896.055	0.956	correct	repeat	Run1	repeat/STIM_012.jpg
899.597	0.915	correct	repeat	Run1	repeat/STIM_012.jpg
903.149	1.092	correct	repeat	Run1	repeat/STIM_012.jpg
907.294	0.744	correct	repeat	Run1	repeat/STIM_013.jpg
910.895	0.876	correct	repeat	Run1	repeat/STIM_013.jpg
914.41	1.16	correct	repeat	Run1	repeat/STIM_013.jpg
918.185	0.759	correct	repeat	Run1	repeat/STIM_013.jpg
921.319	0.591	incorrect	repeat	Run1	repeat/STIM_013.jpg
924.828	0.59	correct	repeat	Run1	repeat/STIM_014.jpg
928.284	0.708	correct	repeat	Run1	repeat/STIM_014.jpg
932.226	1.012	incorrect	repeat	Run1	repeat/STIM_014.jpg
935.689	0.967	correct	repeat	Run1	repeat/STIM_014.jpg
940.244	0.767	correct	repeat	Run1	repeat/STIM_014.jpg
944.567	2.658	incorrect	generate	Run2	generate/STIM_000.jpg
950.27	1.288	correct	generate	Run2	generate/STIM_000.jpg
954.386	1.394	correct	generate	Run2	generate/STIM_000.jpg
958.738	1.065	correct	generate	Run2	generate/STIM_000.jpg
962.897	2.161	incorrect	generate	Run2	generate/STIM_000.jpg
968.289	1.345	correct	generate	Run2	generate/STIM_001.jpg
972.904	2.259	incorrect	generate	Run2	generate/STIM_001.jpg
979.028	1.377	incorrect	generate	Run2	generate/STIM_001.jpg
983.881	1.073	incorrect	generate	Run2	generate/STIM_001.jpg
988.105	0.984	correct	generate	Run2	generate/STIM_001.jpg
991.938	1.778	correct	generate	Run2	generate/STIM_002.jpg
996.72	1.204	correct	generate	Run2	generate/STIM_002.jpg
1001.016	1.513	correct	generate	Run2	generate/STIM_002.jpg
1004.709	2.362	incorrect	generate	Run2	generate/STIM_002.jpg
1009.966	1.925	correct	generate	Run2	generate/STIM_002.jpg
1014.329	2.977	correct	generate	Run2	generate/STIM_003.jpg
1020.16	1.255	correct	generate	Run2	generate/STIM_003.jpg
1023.858	1.537	correct	generate	Run2	generate/STIM_003.jpg
1028.539	2.426	incorrect	generate	Run2	generate/STIM_003.jpg
1034.862	1.41	correct	generate	Run2	generate/STIM_003.jpg
1039.539	1.291	correct	generate	Run2	generate/STIM_004.jpg
1042.959	2.363	correct	generate	Run2	generate/STIM_004.jpg
1048.692	2.025	correct	generate	Run2	generate/STIM_004.jpg
1054.163	1.68	incorrect	generate	Run2	generate/STIM_004.jpg
1057.985	1.388	correct	generate	Run2	generate/STIM_004.jpg
1061.774	1.505	correct	generate	Run2	generate/STIM_005.jpg
1065.834	1.644	correct	generate	Run2	generate/STIM_005.jpg
1069.648	2.308	correct	generate	Run2	generate/STIM_005.jpg
1075.894	1.028	correct	generate	Run2	generate/STIM_005.jpg
1079.902	2.313	incorrect	generate	Run2	generate/STIM_005.jpg
1084.587	2.768	incorrect	generate	Run2	generate/STIM_006.jpg
1089.908	1.657	correct	generate	Run2	generate/STIM_006.jpg
1094.835	1.072	incorrect	generate	Run2	generate/STIM_006.jpg
1099.845	2.34	correct	generate	Run2	generate/STIM_006.jpg
1105.334	1.173	incorrect	generate	Run2	generate/STIM_006.jpg
1108.681	1.73	incorrect	generate	Run2	generate/STIM_007.jpg
1113.989	2.328	correct	generate	Run2	generate/STIM_007.jpg
1118.366	2.581	correct	generate	Run2	generate/STIM_007.jpg
1123.441	2.324	incorrect	generate	Run2	generate/STIM_007.jpg
1128.924	1.158	correct	generate	Run2	generate/STIM_007.jpg
1133.229	1.385	incorrect	generate	Run2	generate/STIM_008.jpg
1137.669	1.297	incorrect	generate	Run2	generate/STIM_008.jpg
1142.09	1.292	incorrect	generate	Run2	generate/STIM_008.jpg
1146.983	2.135	correct	generate	Run2	generate/STIM_008.jpg
1151.772	1.356	incorrect	generate	Run2	generate/STIM_008.jpg
1155.818	2.094	correct	generate	Run2	generate/STIM_009.jpg
1160.117	1.583	correct	generate	Run2	generate/STIM_009.jpg
1165.423	1.616	correct	generate	Run2	generate/STIM_009.jpg
1170.802	1.834	correct	generate	Run2	generate/STIM_009.jpg
1175.822	2.059	correct	generate	Run2	generate/STIM_009.jpg
1181.782	2.614	incorrect	generate	Run2	generate/STIM_010.jpg
1187.39	1.72	correct	generate	Run2	generate/STIM_010.jpg
1191.329	1.382	incorrect	generate	Run2	generate/STIM_010.jpg
1195.656	1.432	correct	generate	Run2	generate/STIM_010.jpg
1199.134	2.005	incorrect	generate	Run2	generate/STIM_010.jpg
1203.925	1.554	incorrect	generate	Run2	generate/STIM_011.jpg
1208.724	1.257	correct	generate	Run2	generate/STIM_011.jpg
1212.719	1.986	correct	generate	Run2	generate/STIM_011.jpg
1218.032	2.218	correct	generate	Run2	generate/STIM_011.jpg
1223.137	1.507	incorrect	generate	Run2	generate/STIM_011.jpg
1227.944	2.893	incorrect	generate	Run2	generate/STIM_012.jpg
1234.166	1.508	correct	generate	Run2	generate/STIM_012.jpg
1238.156	1.162	incorrect	generate	Run2	generate/STIM_012.jpg
1242.113	1.48	correct	generate	Run2	generate/STIM_012.jpg
1246.966	2.26	incorrect	generate	Run2	generate/STIM_012.jpg
1251.438	2.948	correct	generate	Run2	generate/STIM_013.jpg
1257.977	2.485	correct	generate	Run2	generate/STIM_013.jpg
1264.203	1.633	incorrect	generate	Run2	generate/STIM_013.jpg
1267.937	1.647	incorrect	generate	Run2	generate/STIM_013.jpg
1272.551	1.664	incorrect	generate	Run2	generate/STIM_013.jpg
1276.541	2.591	correct	generate	Run2	generate/STIM_014.jpg
1281.775	2.338	correct	generate	Run2	generate/STIM_014.jpg
1286.688	2.606	correct	generate	Run2	generate/STIM_014.jpg
1291.648	1.716	correct	generate	Run2	generate/STIM_014.jpg
1295.926	1.861	correct	generate	Run2	generate/STIM_014.jpg
1301.062	1.49	correct	generate	Run2	generate/STIM_015.jpg
1305.506	2.774	incorrect	generate	Run2	generate/STIM_015.jpg
1311.671	1.244	correct	generate	Run2	generate/STIM_015.jpg
1315.817	2.33	correct	generate	Run2	generate/STIM_015.jpg
1321.925	2.045	correct	generate	Run2	generate/STIM_015.jpg
1326.684	1.986	correct	generate	Run2	generate/STIM_016.jpg
1331.247	2.464	incorrect	generate	Run2	generate/STIM_016.jpg
1336.676	1.218	incorrect	generate	Run2	generate/STIM_016.jpg
1340.083	1.811	incorrect	generate	Run2	generate/STIM_016.jpg
1345.157	2.246	incorrect	generate	Run2	generate/STIM_016.jpg
1350.248	2.492	incorrect	generate	Run2	generate/STIM_017.jpg
1355.118	2.176	correct	generate	Run2	generate/STIM_017.jpg
1359.81	2.383	incorrect	generate	Run2	generate/STIM_017.jpg
1364.451	2.069	correct	generate	Run2	generate/STIM_017.jpg
1369.164	2.136	incorrect	generate	Run2	generate/STIM_017.jpg
1375.123	2.15	correct	generate	Run2	generate/STIM_018.jpg
1381.058	2.469	correct	generate	Run2	generate/STIM_018.jpg
1387.025	1.165	correct	generate	Run2	generate/STIM_018.jpg
1390.28	2.304	correct	generate	Run2	generate/STIM_018.jpg
1396.117	1.031	incorrect	generate	Run2	generate/STIM_018.jpg
1399.955	2.84	correct	generate	Run2	generate/STIM_019.jpg
1405.629	1.663	incorrect	generate	Run2	generate/STIM_019.jpg
1410.385	2.274	incorrect	generate	Run2	generate/STIM_019.jpg
1416.033	1.603	incorrect	generate	Run2	generate/STIM_019.jpg
1420.301	1.779	correct	generate	Run2	generate/STIM_019.jpg
1425.673	1.542	correct	generate	Run2	generate/STIM_020.jpg
1431.204	2.226	incorrect	generate	Run2	generate/STIM_020.jpg
1437.133	2.158	correct	generate	Run2	generate/STIM_020.jpg
1441.942	1.372	correct	generate	Run2	generate/STIM_020.jpg
1445.376	1.203	incorrect	generate	Run2	generate/STIM_020.jpg
1450.308	2.936	incorrect	generate	Run2	generate/STIM_021.jpg
1455.658	2.384	correct	generate	Run2	generate/STIM_021.jpg
1460.166	2.603	correct	generate	Run2	generate/STIM_021.jpg
1464.809	1.316	incorrect	generate	Run2	generate/STIM_021.jpg
1469.772	2.157	incorrect	generate	Run2	generate/STIM_021.jpg
1474.455	2.515	correct	generate	Run2	generate/STIM_022.jpg
1480.941	1.74	correct	generate	Run2	generate/STIM_022.jpg
1485.73	2.158	incorrect	generate	Run2	generate/STIM_022.jpg
1490.816	2.358	incorrect	generate	Run2	generate/STIM_022.jpg
1495.698	1.551	incorrect	generate	Run2	generate/STIM_022.jpg
1499.741	2.758	correct	generate	Run2	generate/STIM_023.jpg
1504.908	1.674	incorrect	generate	Run2	generate/STIM_023.jpg
1509.665	1.42	incorrect	generate	Run2	generate/STIM_023.jpg
1513.413	2.084	correct	generate	Run2	generate/STIM_023.jpg
1519.237	2.389	correct	generate	Run2	generate/STIM_023.jpg
1525.397	1.381	incorrect	generate	Run2	generate/STIM_024.jpg
1530.0	2.614	incorrect	generate	Run2	generate/STIM_024.jpg
1535.295	2.622	correct	generate	Run2	generate/STIM_024.jpg
1541.226	2.043	incorrect	generate	Run2	generate/STIM_024.jpg
1547.232	1.532	incorrect	generate	Run2	generate/STIM_024.jpg
1551.067	0.61	correct	repeat	Run2	repeat/STIM_000.jpg
1554.029	0.703	correct	repeat	Run2	repeat/STIM_000.jpg
1557.49	0.781	correct	repeat	Run2	repeat/STIM_000.jpg
1561.632	0.941	incorrect	repeat	Run2	repeat/STIM_000.jpg
1565.638	1.025	correct	repeat	Run2	repeat/STIM_000.jpg
1570.173	0.677	incorrect	repeat	Run2	repeat/STIM_001.jpg
1574.66	0.928	incorrect	repeat	Run2	repeat/STIM_001.jpg
1578.338	0.842	correct	repeat	Run2	repeat/STIM_001.jpg
1581.222	0.814	incorrect	repeat	Run2	repeat/STIM_001.jpg
1584.881	1.051	incorrect	repeat	Run2	repeat/STIM_001.jpg
1588.444	1.002	correct	repeat	Run2	repeat/STIM_002.jpg
1593.142	0.641	correct	repeat	Run2	repeat/STIM_002.jpg
1596.405	0.769	correct	repeat	Run2	repeat/STIM_002.jpg
1599.212	1.098	correct	repeat	Run2	repeat/STIM_002.jpg
1603.338	1.04	correct	repeat	Run2	repeat/STIM_002.jpg
1607.542	0.877	incorrect	repeat	Run2	repeat/STIM_003.jpg
1611.253	0.967	incorrect	repeat	Run2	repeat/STIM_003.jpg
1615.975	0.617	incorrect	repeat	Run2	repeat/STIM_003.jpg
1619.14	0.686	incorrect	repeat	Run2	repeat/STIM_003.jpg
1621.948	0.677	correct	repeat	Run2	repeat/STIM_003.jpg
1626.534	0.883	correct	repeat	Run2	repeat/STIM_004.jpg
1629.479	0.992	incorrect	repeat	Run2	repeat/STIM_004.jpg
1632.832	0.646	correct	repeat	Run2	repeat/STIM_004.jpg
1637.222	1.094	correct	repeat	Run2	repeat/STIM_004.jpg
1642.086	0.828	correct	repeat	Run2	repeat/STIM_004.jpg
1645.934	0.756	incorrect	repeat	Run2	repeat/STIM_005.jpg
1650.027	1.145	correct	repeat	Run2	repeat/STIM_005.jpg
1654.272	1.124	incorrect	repeat	Run2	repeat/STIM_005.jpg
1657.881	0.8	correct	repeat	Run2	repeat/STIM_005.jpg
1660.999	0.941	correct	repeat	Run2	repeat/STIM_005.jpg
1664.005	0.865	incorrect	repeat	Run2	repeat/STIM_006.jpg
1667.244	0.667	incorrect	repeat	Run2	repeat/STIM_006.jpg
1671.746	0.924	correct	repeat	Run2	repeat/STIM_006.jpg
1675.637	1.143	incorrect	repeat	Run2	repeat/STIM_006.jpg
1679.472	0.952	correct	repeat	Run2	repeat/STIM_006.jpg
1684.123	1.099	incorrect	repeat	Run2	repeat/STIM_007.jpg
1687.644	1.158	correct	repeat	Run2	repeat/STIM_007.jpg
1692.644	0.923	correct	repeat	Run2	repeat/STIM_007.jpg
1697.36	0.698	incorrect	repeat	Run2	repeat/STIM_007.jpg
1700.29	0.938	incorrect	repeat	Run2	repeat/STIM_007.jpg
1704.456	1.045	incorrect	repeat	Run2	repeat/STIM_008.jpg
1709.374	0.869	incorrect	repeat	Run2	repeat/STIM_008.jpg
1713.838	0.677	correct	repeat	Run2	repeat/STIM_008.jpg
1717.857	1.001	correct	repeat	Run2	repeat/STIM_008.jpg
1722.792	0.759	correct	repeat	Run2	repeat/STIM_008.jpg
1726.732	0.771	correct	repeat	Run2	repeat/STIM_009.jpg
1730.462	0.879	incorrect	repeat	Run2	repeat/STIM_009.jpg
1735.197	0.989	incorrect	repeat	Run2	repeat/STIM_009.jpg
1739.543	0.846	correct	repeat	Run2	repeat/STIM_009.jpg
1742.592	0.62	incorrect	repeat	Run2	repeat/STIM_009.jpg
1746.836	1.159	correct	repeat	Run2	repeat/STIM_010.jpg
1751.738	0.79	incorrect	repeat	Run2	repeat/STIM_010.jpg
1756.198	1.051	correct	repeat	Run2	repeat/STIM_010.jpg
1760.429	0.678	correct	repeat	Run2	repeat/STIM_010.jpg
1764.638	1.131	correct	repeat	Run2	repeat/STIM_010.jpg
1768.485	0.746	correct	repeat	Run2	repeat/STIM_011.jpg
1771.634	0.797	correct	repeat	Run2	repeat/STIM_011.jpg
1775.98	0.921	correct	repeat	Run2	repeat/STIM_011.jpg
1779.658	0.657	incorrect	repeat	Run2	repeat/STIM_011.jpg
1783.498	0.96	incorrect	repeat	Run2	repeat/STIM_011.jpg
1788.408	0.702	incorrect	repeat	Run2	repeat/STIM_012.jpg
1791.306	1.139	correct	repeat	Run2	repeat/STIM_012.jpg
1794.778	0.809	incorrect	repeat	Run2	repeat/STIM_012.jpg
1799.583	0.778	correct	repeat	Run2	repeat/STIM_012.jpg
1803.415	0.878	incorrect	repeat	Run2	repeat/STIM_012.jpg
1807.356	1.137	correct	repeat	Run2	repeat/STIM_013.jpg
1811.897	0.689	incorrect	repeat	Run2	repeat/STIM_013.jpg
1815.188	0.659	incorrect	repeat	Run2	repeat/STIM_013.jpg
1818.599	0.811	correct	repeat	Run2	repeat/STIM_013.jpg
1821.88	0.761	incorrect	repeat	Run2	repeat/STIM_013.jpg
1825.71	1.144	correct	repeat	Run2	repeat/STIM_014.jpg
1830.71	0.924	correct	repeat	Run2	repeat/STIM_014.jpg
1833.937	0.697	correct	repeat	Run2	repeat/STIM_014.jpg
1837.611	0.904	correct	repeat	Run2	repeat/STIM_014.jpg
1841.292	0.931	correct	repeat	Run2	repeat/STIM_014.jpg
1845.922	1.119	correct	generate	Run3	generate/STIM_000.jpg
1849.329	1.341	correct	generate	Run3	generate/STIM_000.jpg
1852.843	1.52	correct	generate	Run3	generate/STIM_000.jpg
1858.346	1.147	correct	generate	Run3	generate/STIM_000.jpg
1863.296	1.154	incorrect	generate	Run3	generate/STIM_000.jpg
1867.412	1.875	incorrect	generate	Run3	generate/STIM_001.jpg
1871.985	2.329	correct	generate	Run3	generate/STIM_001.jpg
1878.205	2.372	correct	generate	Run3	generate/STIM_001.jpg
1883.118	1.251	incorrect	generate	Run3	generate/STIM_001.jpg
1886.932	2.04	correct	generate	Run3	generate/STIM_001.jpg
1892.943	1.552	correct	generate	Run3	generate/STIM_002.jpg
1896.848	1.356	correct	generate	Run3	generate/STIM_002.jpg
1900.228	1.706	correct	generate	Run3	generate/STIM_002.jpg
1904.025	1.79	incorrect	generate	Run3	generate/STIM_002.jpg
1908.961	1.667	correct	generate	Run3	generate/STIM_002.jpg
1912.7	1.055	correct	generate	Run3	generate/STIM_003.jpg
1917.111	1.23	correct	generate	Run3	generate/STIM_003.jpg
1921.55	1.898	correct	generate	Run3	generate/STIM_003.jpg
1926.414	2.265	incorrect	generate	Run3	generate/STIM_003.jpg
1930.839	1.502	correct	generate	Run3	generate/STIM_003.jpg
1935.053	1.598	correct	generate	Run3	generate/STIM_004.jpg
1938.915	2.347	correct	generate	Run3	generate/STIM_004.jpg
1944.606	1.576	correct	generate	Run3	generate/STIM_004.jpg
1949.115	1.79	correct	generate	Run3	generate/STIM_004.jpg
1953.318	1.476	correct	generate	Run3	generate/STIM_004.jpg
1958.188	1.036	incorrect	generate	Run3	generate/STIM_005.jpg
1962.878	2.365	correct	generate	Run3	generate/STIM_005.jpg
1969.074	2.4	correct	generate	Run3	generate/STIM_005.jpg
1974.169	1.058	correct	generate	Run3	generate/STIM_005.jpg
1977.76	1.108	correct	generate	Run3	generate/STIM_005.jpg
1982.766	2.232	incorrect	generate	Run3	generate/STIM_006.jpg
1988.475	2.3	correct	generate	Run3	generate/STIM_006.jpg
1992.795	2.136	correct	generate	Run3	generate/STIM_006.jpg
1998.511	1.33	incorrect	generate	Run3	generate/STIM_006.jpg
2002.131	2.263	correct	generate	Run3	generate/STIM_006.jpg
2006.947	2.354	correct	generate	Run3	generate/STIM_007.jpg
2012.04	2.208	correct	generate	Run3	generate/STIM_007.jpg
2017.462	1.182	correct	generate	Run3	generate/STIM_007.jpg
2021.517	1.254	incorrect	generate	Run3	generate/STIM_007.jpg
2026.048	1.918	correct	generate	Run3	generate/STIM_007.jpg
2031.242	1.253	correct	generate	Run3	generate/STIM_008.jpg
2035.519	1.555	correct	generate	Run3	generate/STIM_008.jpg
2039.852	1.696	correct	generate	Run3	generate/STIM_008.jpg
2043.749	2.165	correct	generate	Run3	generate/STIM_008.jpg
2049.703	1.69	correct	generate	Run3	generate/STIM_008.jpg
2053.908	1.123	incorrect	generate	Run3	generate/STIM_009.jpg
2058.677	1.968	correct	generate	Run3	generate/STIM_009.jpg
2063.658	1.106	correct	generate	Run3	generate/STIM_009.jpg
2067.632	1.062	incorrect	generate	Run3	generate/STIM_009.jpg
2071.056	2.31	correct	generate	Run3	generate/STIM_009.jpg
2077.14	1.099	incorrect	generate	Run3	generate/STIM_010.jpg
2080.47	1.645	correct	generate	Run3	generate/STIM_010.jpg
2084.926	1.866	incorrect	generate	Run3	generate/STIM_010.jpg
2090.236	1.399	correct	generate	Run3	generate/STIM_010.jpg
2094.833	1.831	correct	generate	Run3	generate/STIM_010.jpg
2099.784	1.48	correct	generate	Run3	generate/STIM_011.jpg
2103.318	1.191	incorrect	generate	Run3	generate/STIM_011.jpg
2107.128	1.157	correct	generate	Run3	generate/STIM_011.jpg
2111.709	2.154	correct	generate	Run3	generate/STIM_011.jpg
2116.138	1.091	incorrect	generate	Run3	generate/STIM_011.jpg
2120.352	2.303	correct	generate	Run3	generate/STIM_012.jpg
2124.969	2.383	incorrect	generate	Run3	generate/STIM_012.jpg
2130.524	1.345	incorrect	generate	Run3	generate/STIM_012.jpg
2134.261	1.898	correct	generate	Run3	generate/STIM_012.jpg
2138.951	2.323	correct	generate	Run3	generate/STIM_012.jpg
2144.855	1.62	incorrect	generate	Run3	generate/STIM_013.jpg
2150.097	1.262	incorrect	generate	Run3	generate/STIM_013.jpg
2154.037	2.369	correct	generate	Run3	generate/STIM_013.jpg
2159.904	1.572	incorrect	generate	Run3	generate/STIM_013.jpg
2164.366	1.809	incorrect	generate	Run3	generate/STIM_013.jpg
2169.957	1.906	correct	generate	Run3	generate/STIM_014.jpg
2174.64	1.575	correct	generate	Run3	generate/STIM_014.jpg
2178.866	1.288	correct	generate	Run3	generate/STIM_014.jpg
2182.97	2.228	incorrect	generate	Run3	generate/STIM_014.jpg
2188.394	1.492	correct	generate	Run3	generate/STIM_014.jpg
2193.044	1.91	correct	generate	Run3	generate/STIM_015.jpg
2198.43	1.63	correct	generate	Run3	generate/STIM_015.jpg
2203.686	2.181	correct	generate	Run3	generate/STIM_015.jpg
2209.714	1.319	incorrect	generate	Run3	generate/STIM_015.jpg
2213.946	1.041	incorrect	generate	Run3	generate/STIM_015.jpg
2218.156	1.26	correct	generate	Run3	generate/STIM_016.jpg
2222.879	2.22	correct	generate	Run3	generate/STIM_016.jpg
2228.532	1.129	correct	generate	Run3	generate/STIM_016.jpg
2233.468	1.567	correct	generate	Run3	generate/STIM_016.jpg
2238.092	1.791	incorrect	generate	Run3	generate/STIM_016.jpg
2243.309	2.173	correct	generate	Run3	generate/STIM_017.jpg
2248.49	1.436	incorrect	generate	Run3	generate/STIM_017.jpg
2253.414	1.924	correct	generate	Run3	generate/STIM_017.jpg
2258.198	2.422	incorrect	generate	Run3	generate/STIM_017.jpg
2263.389	2.123	correct	generate	Run3	generate/STIM_017.jpg
2268.31	1.593	incorrect	generate	Run3	generate/STIM_018.jpg
2273.178	1.117	correct	generate	Run3	generate/STIM_018.jpg
2276.739	2.048	correct	generate	Run3	generate/STIM_018.jpg
2281.425	2.401	incorrect	generate	Run3	generate/STIM_018.jpg
2286.765	1.285	incorrect	generate	Run3	generate/STIM_018.jpg
2291.331	1.056	incorrect	generate	Run3	generate/STIM_019.jpg
2295.086	2.134	correct	generate	Run3	generate/STIM_019.jpg
2299.52	2.332	correct	generate	Run3	generate/STIM_019.jpg
2304.413	1.649	correct	generate	Run3	generate/STIM_019.jpg
2308.666	1.674	correct	generate	Run3	generate/STIM_019.jpg
2312.488	2.127	correct	generate	Run3	generate/STIM_020.jpg
2318.374	1.683	correct	generate	Run3	generate/STIM_020.jpg
2323.91	1.782	correct	generate	Run3	generate/STIM_020.jpg
2329.542	1.998	correct	generate	Run3	generate/STIM_020.jpg
2334.726	1.68	correct	generate	Run3	generate/STIM_020.jpg
2338.641	1.013	incorrect	generate	Run3	generate/STIM_021.jpg
2342.265	1.347	incorrect	generate	Run3	generate/STIM_021.jpg
2346.056	1.064	correct	generate	Run3	generate/STIM_021.jpg
2350.725	1.96	correct	generate	Run3	generate/STIM_021.jpg
2354.719	1.881	incorrect	generate	Run3	generate/STIM_021.jpg
2360.261	1.475	correct	generate	Run3	generate/STIM_022.jpg
2365.068	1.786	incorrect	generate	Run3	generate/STIM_022.jpg
2370.054	1.588	correct	generate	Run3	generate/STIM_022.jpg
2374.814	1.41	incorrect	generate	Run3	generate/STIM_022.jpg
2378.3	1.432	correct	generate	Run3	generate/STIM_022.jpg
2383.22	1.182	correct	generate	Run3	generate/STIM_023.jpg
2386.589	2.392	incorrect	generate	Run3	generate/STIM_023.jpg
2391.645	1.108	incorrect	generate	Run3	generate/STIM_023.jpg
2396.283	0.991	incorrect	generate	Run3	generate/STIM_023.jpg
2399.786	2.031	incorrect	generate	Run3	generate/STIM_023.jpg
2405.024	2.165	correct	generate	Run3	generate/STIM_024.jpg
2409.938	2.442	incorrect	generate	Run3	generate/STIM_024.jpg
2416.377	2.094	correct	generate	Run3	generate/STIM_024.jpg
2421.633	1.367	correct	generate	Run3	generate/STIM_024.jpg
2426.486	1.755	correct	generate	Run3	generate/STIM_024.jpg
2431.084	0.965	incorrect	repeat	Run3	repeat/STIM_000.jpg
2435.212	0.641	incorrect	repeat	Run3	repeat/STIM_000.jpg
2437.895	0.868	incorrect	repeat	Run3	repeat/STIM_000.jpg
2440.99	0.628	correct	repeat	Run3	repeat/STIM_000.jpg
2443.76	0.829	correct	repeat	Run3	repeat/STIM_000.jpg
2447.492	1.115	incorrect	repeat	Run3	repeat/STIM_001.jpg
2450.745	1.137	incorrect	repeat	Run3	repeat/STIM_001.jpg
2455.411	1.142	incorrect	repeat	Run3	repeat/STIM_001.jpg
2458.661	0.607	incorrect	repeat	Run3	repeat/STIM_001.jpg
2461.907	1.088	correct	repeat	Run3	repeat/STIM_001.jpg
2465.228	0.846	correct	repeat	Run3	repeat/STIM_002.jpg
2470.027	0.967	incorrect	repeat	Run3	repeat/STIM_002.jpg
2474.748	0.697	correct	repeat	Run3	repeat/STIM_002.jpg
2479.279	0.624	correct	repeat	Run3	repeat/STIM_002.jpg
2482.005	1.151	correct	repeat	Run3	repeat/STIM_002.jpg
2486.109	1.149	correct	repeat	Run3	repeat/STIM_003.jpg
2490.077	1.138	correct	repeat	Run3	repeat/STIM_003.jpg
2493.851	0.814	correct	repeat	Run3	repeat/STIM_003.jpg
2496.78	0.915	correct	repeat	Run3	repeat/STIM_003.jpg
2500.239	1.101	correct	repeat	Run3	repeat/STIM_003.jpg
2503.709	1.083	correct	repeat	Run3	repeat/STIM_004.jpg
2507.911	0.908	correct	repeat	Run3	repeat/STIM_004.jpg
2511.249	0.664	incorrect	repeat	Run3	repeat/STIM_004.jpg
2515.331	0.84	correct	repeat	Run3	repeat/STIM_004.jpg
2520.012	0.657	correct	repeat	Run3	repeat/STIM_004.jpg
2522.776	0.625	correct	repeat	Run3	repeat/STIM_005.jpg
2527.361	1.065	correct	repeat	Run3	repeat/STIM_005.jpg
2532.044	1.008	correct	repeat	Run3	repeat/STIM_005.jpg
2536.391	1.043	correct	repeat	Run3	repeat/STIM_005.jpg
2541.399	0.707	correct	repeat	Run3	repeat/STIM_005.jpg
2545.439	0.924	correct	repeat	Run3	repeat/STIM_006.jpg
2549.808	0.696	correct	repeat	Run3	repeat/STIM_006.jpg
2552.88	0.643	correct	repeat	Run3	repeat/STIM_006.jpg
2556.238	1.006	incorrect	repeat	Run3	repeat/STIM_006.jpg
2560.654	1.093	correct	repeat	Run3	repeat/STIM_006.jpg
2563.908	0.703	correct	repeat	Run3	repeat/STIM_007.jpg
2567.851	1.147	correct	repeat	Run3	repeat/STIM_007.jpg
2572.514	0.885	correct	repeat	Run3	repeat/STIM_007.jpg
2576.04	0.936	correct	repeat	Run3	repeat/STIM_007.jpg
2580.12	0.854	correct	repeat	Run3	repeat/STIM_007.jpg
2583.433	0.956	correct	repeat	Run3	repeat/STIM_008.jpg
2586.522	1.023	correct	repeat	Run3	repeat/STIM_008.jpg
2590.97	1.078	correct	repeat	Run3	repeat/STIM_008.jpg
2594.919	0.815	correct	repeat	Run3	repeat/STIM_008.jpg
2598.116	1.116	correct	repeat	Run3	repeat/STIM_008.jpg
2601.287	0.939	incorrect	repeat	Run3	repeat/STIM_009.jpg
2605.971	0.94	correct	repeat	Run3	repeat/STIM_009.jpg
2610.046	0.983	correct	repeat	Run3	repeat/STIM_009.jpg
2613.431	0.985	incorrect	repeat	Run3	repeat/STIM_009.jpg
2618.05	1.142	correct	repeat	Run3	repeat/STIM_009.jpg
2622.813	0.729	correct	repeat	Run3	repeat/STIM_010.jpg
2625.791	0.75	correct	repeat	Run3	repeat/STIM_010.jpg
2630.152	1.164	incorrect	repeat	Run3	repeat/STIM_010.jpg
2634.41	0.597	correct	repeat	Run3	repeat/STIM_010.jpg
2638.454	1.148	correct	repeat	Run3	repeat/STIM_010.jpg
2641.798	0.826	correct	repeat	Run3	repeat/STIM_011.jpg
2645.73	1.115	correct	repeat	Run3	repeat/STIM_011.jpg
2650.107	0.927	incorrect	repeat	Run3	repeat/STIM_011.jpg
2653.801	0.98	correct	repeat	Run3	repeat/STIM_011.jpg
2657.616	0.989	correct	repeat	Run3	repeat/STIM_011.jpg
2662.01	0.986	correct	repeat	Run3	repeat/STIM_012.jpg
2665.148	1.023	incorrect	repeat	Run3	repeat/STIM_012.jpg
2670.04	1.117	correct	repeat	Run3	repeat/STIM_012.jpg
2673.773	0.939	correct	repeat	Run3	repeat/STIM_012.jpg
2678.129	0.865	correct	repeat	Run3	repeat/STIM_012.jpg
2681.681	0.91	correct	repeat	Run3	repeat/STIM_013.jpg
2684.712	0.672	incorrect	repeat	Run3	repeat/STIM_013.jpg
2687.737	1.029	correct	repeat	Run3	repeat/STIM_013.jpg
2692.656	0.91	correct	repeat	Run3	repeat/STIM_013.jpg
2695.907	0.697	incorrect	repeat	Run3	repeat/STIM_013.jpg
2700.493	1.066	correct	repeat	Run3	repeat/STIM_014.jpg
2705.246	0.895	correct	repeat	Run3	repeat/STIM_014.jpg
2708.328	1.151	correct	repeat	Run3	repeat/STIM_014.jpg
2711.994	0.877	correct	repeat	Run3	repeat/STIM_014.jpg
2716.007	0.924	correct	repeat	Run3	repeat/STIM_014.jpg
2719.231	1.149	correct	generate	Run4	generate/STIM_000.jpg
2723.841	1.067	correct	generate	Run4	generate/STIM_000.jpg
2728.766	1.61	incorrect	generate	Run4	generate/STIM_000.jpg
2733.296	2.304	correct	generate	Run4	generate/STIM_000.jpg
2738.213	2.403	correct	generate	Run4	generate/STIM_000.jpg
2744.439	1.258	correct	generate	Run4	generate/STIM_001.jpg
2749.118	1.037	correct	generate	Run4	generate/STIM_001.jpg
2752.303	1.577	incorrect	generate	Run4	generate/STIM_001.jpg
2756.744	1.166	incorrect	generate	Run4	generate/STIM_001.jpg
2760.539	1.857	incorrect	generate	Run4	generate/STIM_001.jpg
2766.174	1.912	incorrect	generate	Run4	generate/STIM_002.jpg
2771.617	2.18	correct	generate	Run4	generate/STIM_002.jpg
2776.618	1.33	incorrect	generate	Run4	generate/STIM_002.jpg
2780.443	1.505	correct	generate	Run4	generate/STIM_002.jpg
2784.142	1.769	correct	generate	Run4	generate/STIM_002.jpg
2789.842	1.966	correct	generate	Run4	generate/STIM_003.jpg
2794.574	1.245	correct	generate	Run4	generate/STIM_003.jpg
2798.717	2.176	correct	generate	Run4	generate/STIM_003.jpg
2803.243	1.669	correct	generate	Run4	generate/STIM_003.jpg
2807.43	1.544	correct	generate	Run4	generate/STIM_003.jpg
2811.843	1.199	incorrect	generate	Run4	generate/STIM_004.jpg
2815.973	1.407	correct	generate	Run4	generate/STIM_004.jpg
2819.523	2.06	incorrect	generate	Run4	generate/STIM_004.jpg
2823.775	1.474	correct	generate	Run4	generate/STIM_004.jpg
2828.73	1.15	correct	generate	Run4	generate/STIM_004.jpg
2832.64	1.999	correct	generate	Run4	generate/STIM_005.jpg
2837.856	1.64	correct	generate	Run4	generate/STIM_005.jpg
2842.422	1.388	correct	generate	Run4	generate/STIM_005.jpg
2846.909	1.134	incorrect	generate	Run4	generate/STIM_005.jpg
2850.9	1.873	correct	generate	Run4	generate/STIM_005.jpg
2854.823	2.274	correct	generate	Run4	generate/STIM_006.jpg
2859.934	2.03	incorrect	generate	Run4	generate/STIM_006.jpg
2864.29	1.088	correct	generate	Run4	generate/STIM_006.jpg
2868.924	1.747	incorrect	generate	Run4	generate/STIM_006.jpg
2873.613	1.874	incorrect	generate	Run4	generate/STIM_006.jpg
2879.294	1.157	correct	generate	Run4	generate/STIM_007.jpg
2882.835	1.415	correct	generate	Run4	generate/STIM_007.jpg
2887.963	2.189	correct	generate	Run4	generate/STIM_007.jpg
2893.516	1.171	correct	generate	Run4	generate/STIM_007.jpg
2897.864	1.935	incorrect	generate	Run4	generate/STIM_007.jpg
2903.522	2.251	incorrect	generate	Run4	generate/STIM_008.jpg
2908.92	1.94	correct	generate	Run4	generate/STIM_008.jpg
2914.612	1.506	correct	generate	Run4	generate/STIM_008.jpg
2919.195	1.348	incorrect	generate	Run4	generate/STIM_008.jpg
2922.895	2.44	correct	generate	Run4	generate/STIM_008.jpg
2927.697	2.016	correct	generate	Run4	generate/STIM_009.jpg
2932.139	2.054	correct	generate	Run4	generate/STIM_009.jpg
2936.499	1.568	incorrect	generate	Run4	generate/STIM_009.jpg
2940.531	2.421	incorrect	generate	Run4	generate/STIM_009.jpg
2945.867	2.326	correct	generate	Run4	generate/STIM_009.jpg
2951.632	1.811	correct	generate	Run4	generate/STIM_010.jpg
2956.142	2.297	correct	generate	Run4	generate/STIM_010.jpg
2962.046	1.251	incorrect	generate	Run4	generate/STIM_010.jpg
2965.606	1.793	correct	generate	Run4	generate/STIM_010.jpg
2969.578	1.218	incorrect	generate	Run4	generate/STIM_010.jpg
2973.85	2.34	incorrect	generate	Run4	generate/STIM_011.jpg
2979.744	2.108	correct	generate	Run4	generate/STIM_011.jpg
2984.248	1.227	correct	generate	Run4	generate/STIM_011.jpg
2987.957	1.525	correct	generate	Run4	generate/STIM_011.jpg
2991.992	2.1	incorrect	generate	Run4	generate/STIM_011.jpg
2996.886	1.918	incorrect	generate	Run4	generate/STIM_012.jpg
3002.325	1.307	correct	generate	Run4	generate/STIM_012.jpg
3007.24	2.293	correct	generate	Run4	generate/STIM_012.jpg
3012.117	2.218	correct	generate	Run4	generate/STIM_012.jpg
3018.128	1.804	correct	generate	Run4	generate/STIM_012.jpg
3023.817	1.188	correct	generate	Run4	generate/STIM_013.jpg
3027.173	1.358	correct	generate	Run4	generate/STIM_013.jpg
3032.36	2.188	incorrect	generate	Run4	generate/STIM_013.jpg
3036.605	1.495	correct	generate	Run4	generate/STIM_013.jpg
3040.792	2.263	correct	generate	Run4	generate/STIM_013.jpg
3046.705	1.397	correct	generate	Run4	generate/STIM_014.jpg
3051.957	1.71	correct	generate	Run4	generate/STIM_014.jpg
3055.792	2.37	correct	generate	Run4	generate/STIM_014.jpg
3061.913	1.082	correct	generate	Run4	generate/STIM_014.jpg
3065.462	1.129	correct	generate	Run4	generate/STIM_014.jpg
3069.193	1.538	incorrect	generate	Run4	generate/STIM_015.jpg
3072.926	1.331	correct	generate	Run4	generate/STIM_015.jpg
3077.639	1.769	correct	generate	Run4	generate/STIM_015.jpg
3081.784	1.884	correct	generate	Run4	generate/STIM_015.jpg
3086.064	1.902	correct	generate	Run4	generate/STIM_015.jpg
3091.363	2.101	incorrect	generate	Run4	generate/STIM_016.jpg
3096.891	2.298	incorrect	generate	Run4	generate/STIM_016.jpg
3102.752	1.281	incorrect	generate	Run4	generate/STIM_016.jpg
3106.675	2.28	correct	generate	Run4	generate/STIM_016.jpg
3111.492	1.126	correct	generate	Run4	generate/STIM_016.jpg
3116.046	1.771	correct	generate	Run4	generate/STIM_017.jpg
3121.489	1.496	correct	generate	Run4	generate/STIM_017.jpg
3125.98	1.408	correct	generate	Run4	generate/STIM_017.jpg
3130.415	1.59	correct	generate	Run4	generate/STIM_017.jpg
3134.556	1.397	correct	generate	Run4	generate/STIM_017.jpg
3138.679	1.77	incorrect	generate	Run4	generate/STIM_018.jpg
3143.876	1.799	correct	generate	Run4	generate/STIM_018.jpg
3148.973	2.313	correct	generate	Run4	generate/STIM_018.jpg
3153.5	1.672	correct	generate	Run4	generate/STIM_018.jpg
3158.473	2.129	correct	generate	Run4	generate/STIM_018.jpg
3163.752	1.102	incorrect	generate	Run4	generate/STIM_019.jpg
3168.12	1.335	incorrect	generate	Run4	generate/STIM_019.jpg
3171.808	1.849	correct	generate	Run4	generate/STIM_019.jpg
3177.26	1.085	correct	generate	Run4	generate/STIM_019.jpg
3182.05	1.507	correct	generate	Run4	generate/STIM_019.jpg
3187.289	1.056	incorrect	generate	Run4	generate/STIM_020.jpg
3190.565	1.106	incorrect	generate	Run4	generate/STIM_020.jpg
3194.51	2.181	correct	generate	Run4	generate/STIM_020.jpg
3199.312	1.419	correct	generate	Run4	generate/STIM_020.jpg
3204.274	2.335	correct	generate	Run4	generate/STIM_020.jpg
3209.33	1.442	incorrect	generate	Run4	generate/STIM_021.jpg
3214.113	1.961	incorrect	generate	Run4	generate/STIM_021.jpg
3218.948	1.383	correct	generate	Run4	generate/STIM_021.jpg
3222.549	1.653	correct	generate	Run4	generate/STIM_021.jpg
3227.573	2.048	correct	generate	Run4	generate/STIM_021.jpg
3231.991	1.416	correct	generate	Run4	generate/STIM_022.jpg
3236.128	1.446	correct	generate	Run4	generate/STIM_022.jpg
3241.086	1.965	correct	generate	Run4	generate/STIM_022.jpg
3246.121	1.998	correct	generate	Run4	generate/STIM_022.jpg
3252.012	1.314	correct	generate	Run4	generate/STIM_022.jpg
3256.091	1.312	correct	generate	Run4	generate/STIM_023.jpg
3259.998	1.199	correct	generate	Run4	generate/STIM_023.jpg
3264.535	1.451	correct	generate	Run4	generate/STIM_023.jpg
3269.624	1.259	correct	generate	Run4	generate/STIM_023.jpg
3273.622	1.458	correct	generate	Run4	generate/STIM_023.jpg
3278.929	1.456	correct	generate	Run4	generate/STIM_024.jpg
3284.375	1.211	correct	generate	Run4	generate/STIM_024.jpg
3288.305	1.307	correct	generate	Run4	generate/STIM_024.jpg
3293.066	1.576	correct	generate	Run4	generate/STIM_024.jpg
3297.051	2.447	correct	generate	Run4	generate/STIM_024.jpg
3301.946	0.923	correct	repeat	Run4	repeat/STIM_000.jpg
3305.369	1.026	correct	repeat	Run4	repeat/STIM_000.jpg
3309.824	1.119	correct	repeat	Run4	repeat/STIM_000.jpg
3313.166	1.106	correct	repeat	Run4	repeat/STIM_000.jpg
3317.303	0.916	incorrect	repeat	Run4	repeat/STIM_000.jpg
3320.808	0.95	incorrect	repeat	Run4	repeat/STIM_001.jpg
3325.102	0.954	correct	repeat	Run4	repeat/STIM_001.jpg
3329.76	1.021	correct	repeat	Run4	repeat/STIM_001.jpg
3334.286	0.591	incorrect	repeat	Run4	repeat/STIM_001.jpg
3337.657	1.146	correct	repeat	Run4	repeat/STIM_001.jpg
3341.951	0.768	correct	repeat	Run4	repeat/STIM_002.jpg
3345.87	1.126	incorrect	repeat	Run4	repeat/STIM_002.jpg
3349.26	1.019	incorrect	repeat	Run4	repeat/STIM_002.jpg
3353.77	0.903	correct	repeat	Run4	repeat/STIM_002.jpg
3357.165	0.596	incorrect	repeat	Run4	repeat/STIM_002.jpg
3360.364	0.605	correct	repeat	Run4	repeat/STIM_003.jpg
3363.434	0.782	incorrect	repeat	Run4	repeat/STIM_003.jpg
3367.985	0.747	incorrect	repeat	Run4	repeat/STIM_003.jpg
3371.722	1.051	correct	repeat	Run4	repeat/STIM_003.jpg
3376.744	0.603	incorrect	repeat	Run4	repeat/STIM_003.jpg
3381.201	0.673	correct	repeat	Run4	repeat/STIM_004.jpg
3385.417	1.135	correct	repeat	Run4	repeat/STIM_004.jpg
3389.351	1.03	correct	repeat	Run4	repeat/STIM_004.jpg
3393.685	1.124	correct	repeat	Run4	repeat/STIM_004.jpg
3396.983	0.608	correct	repeat	Run4	repeat/STIM_004.jpg
3401.379	1.104	correct	repeat	Run4	repeat/STIM_005.jpg
3404.829	0.709	correct	repeat	Run4	repeat/STIM_005.jpg
3409.083	0.941	incorrect	repeat	Run4	repeat/STIM_005.jpg
3413.436	0.953	correct	repeat	Run4	repeat/STIM_005.jpg
3417.424	0.924	correct	repeat	Run4	repeat/STIM_005.jpg
3421.679	1.012	incorrect	repeat	Run4	repeat/STIM_006.jpg
3425.642	0.961	correct	repeat	Run4	repeat/STIM_006.jpg
3429.525	1.047	incorrect	repeat	Run4	repeat/STIM_006.jpg
3434.342	0.586	incorrect	repeat	Run4	repeat/STIM_006.jpg
3438.725	0.973	correct	repeat	Run4	repeat/STIM_006.jpg
3443.292	0.893	correct	repeat	Run4	repeat/STIM_007.jpg
3446.941	0.766	correct	repeat	Run4	repeat/STIM_007.jpg
3449.729	1.16	correct	repeat	Run4	repeat/STIM_007.jpg
3454.354	0.875	incorrect	repeat	Run4	repeat/STIM_007.jpg
3459.092	0.771	correct	repeat	Run4	repeat/STIM_007.jpg
3462.096	0.968	incorrect	repeat	Run4	repeat/STIM_008.jpg
3466.986	0.634	correct	repeat	Run4	repeat/STIM_008.jpg
3470.942	0.793	correct	repeat	Run4	repeat/STIM_008.jpg
3473.965	0.954	incorrect	repeat	Run4	repeat/STIM_008.jpg
3478.207	0.897	correct	repeat	Run4	repeat/STIM_008.jpg
3481.464	0.772	correct	repeat	Run4	repeat/STIM_009.jpg
3486.187	1.024	incorrect	repeat	Run4	repeat/STIM_009.jpg
3490.733	1.024	correct	repeat	Run4	repeat/STIM_009.jpg
3493.821	0.77	correct	repeat	Run4	repeat/STIM_009.jpg
3496.846	0.746	correct	repeat	Run4	repeat/STIM_009.jpg
3500.899	1.164	correct	repeat	Run4	repeat/STIM_010.jpg
3505.845	1.066	correct	repeat	Run4	repeat/STIM_010.jpg
3509.179	0.762	correct	repeat	Run4	repeat/STIM_010.jpg
3512.414	0.938	correct	repeat	Run4	repeat/STIM_010.jpg
3515.699	0.783	correct	repeat	Run4	repeat/STIM_010.jpg
3520.472	1.137	correct	repeat	Run4	repeat/STIM_011.jpg
3524.4	0.707	correct	repeat	Run4	repeat/STIM_011.jpg
3528.719	0.993	correct	repeat	Run4	repeat/STIM_011.jpg
3531.898	0.984	correct	repeat	Run4	repeat/STIM_011.jpg
3535.583	1.052	correct	repeat	Run4	repeat/STIM_011.jpg
3540.494	0.656	correct	repeat	Run4	repeat/STIM_012.jpg
3543.577	1.141	correct	repeat	Run4	repeat/STIM_012.jpg
3548.163	0.766	incorrect	repeat	Run4	repeat/STIM_012.jpg
3552.238	1.112	incorrect	repeat	Run4	repeat/STIM_012.jpg
3556.363	0.854	correct	repeat	Run4	repeat/STIM_012.jpg
3560.515	0.787	correct	repeat	Run4	repeat/STIM_013.jpg
3564.73	1.14	correct	repeat	Run4	repeat/STIM_013.jpg
3569.794	0.626	correct	repeat	Run4	repeat/STIM_013.jpg
3572.685	1.042	correct	repeat	Run4	repeat/STIM_013.jpg
3577.206	1.061	correct	repeat	Run4	repeat/STIM_013.jpg
3582.206	1.125	correct	repeat	Run4	repeat/STIM_014.jpg
3587.246	1.053	correct	repeat	Run4	repeat/STIM_014.jpg
3590.586	0.706	incorrect	repeat	Run4	repeat/STIM_014.jpg
3593.7	0.637	incorrect	repeat	Run4	repeat/STIM_014.jpg
3596.635	0.868	correct	repeat	Run4	repeat/STIM_014.jpg
