onset	duration	response_time_ms	trial_type	learning_stage	stimulus	response_port
0.0	2.01	2010.0	generate	Run1	generate/STIM_000.jpg	100
5.86	1.528	1528.1	generate	Run1	generate/STIM_000.jpg	100
10.483	1.994	1993.8	generate	Run1	generate/STIM_000.jpg	99
15.535	1.856	1855.7	generate	Run1	generate/STIM_000.jpg	100
21.251	1.379	1379.1	generate	Run1	generate/STIM_000.jpg	99
25.081	1.81	1810.4	generate	Run1	generate/STIM_001.jpg	100
29.999	1.936	1935.9	generate	Run1	generate/STIM_001.jpg	100
34.101	1.173	1172.7	generate	Run1	generate/STIM_001.jpg	100
39.004	2.512	2511.8	generate	Run1	generate/STIM_001.jpg	99
44.282	2.119	2118.9	generate	Run1	generate/STIM_001.jpg	99
49.208	2.91	2910.0	generate	Run1	generate/STIM_002.jpg	100
54.455	1.716	1715.6	generate	Run1	generate/STIM_002.jpg	99
59.206	1.636	1636.5	generate	Run1	generate/STIM_002.jpg	100
64.208	1.78	1779.9	generate	Run1	generate/STIM_002.jpg	100
68.959	1.855	1855.3	generate	Run1	generate/STIM_002.jpg	100
73.547	2.927	2926.9	generate	Run1	generate/STIM_003.jpg	99
79.334	1.851	1851.0	generate	Run1	generate/STIM_003.jpg	99
83.181	2.765	2765.0	generate	Run1	generate/STIM_003.jpg	100
88.314	1.879	1878.9	generate	Run1	generate/STIM_003.jpg	99
92.935	1.948	1947.6	generate	Run1	generate/STIM_003.jpg	100
97.75	2.733	2733.0	generate	Run1	generate/STIM_004.jpg	99
103.899	1.408	1408.2	generate	Run1	generate/STIM_004.jpg	100
108.211	1.605	1604.7	generate	Run1	generate/STIM_004.jpg	99
112.055	1.408	1407.6	generate	Run1	generate/STIM_004.jpg	99
115.845	2.095	2094.7	generate	Run1	generate/STIM_004.jpg	99
121.358	2.675	2675.0	generate	Run1	generate/STIM_005.jpg	99
126.63	1.224	1223.6	generate	Run1	generate/STIM_005.jpg	99
131.861	1.341	1340.6	generate	Run1	generate/STIM_005.jpg	100
136.262	2.065	2065.0	generate	Run1	generate/STIM_005.jpg	99
140.332	2.41	2410.2	generate	Run1	generate/STIM_005.jpg	100
145.431	2.211	2211.2	generate	Run1	generate/STIM_006.jpg	99
150.617	2.396	2396.3	generate	Run1	generate/STIM_006.jpg	99
155.723	1.823	1823.4	generate	Run1	generate/STIM_006.jpg	99
160.614	1.063	1063.4	generate	Run1	generate/STIM_006.jpg	99
165.561	1.863	1862.7	generate	Run1	generate/STIM_006.jpg	99
170.973	1.686	1685.7	generate	Run1	generate/STIM_007.jpg	99
175.095	2.863	2863.4	generate	Run1	generate/STIM_007.jpg	99
180.807	1.659	1659.0	generate	Run1	generate/STIM_007.jpg	100
185.536	1.306	1306.3	generate	Run1	generate/STIM_007.jpg	99
190.55	1.186	1185.5	generate	Run1	generate/STIM_007.jpg	99
193.836	2.967	2967.1	generate	Run1	generate/STIM_008.jpg	99
199.67	2.43	2429.8	generate	Run1	generate/STIM_008.jpg	99
204.092	1.525	1525.2	generate	Run1	generate/STIM_008.jpg	99
209.569	1.623	1623.3	generate	Run1	generate/STIM_008.jpg	100
214.002	1.325	1325.0	generate	Run1	generate/STIM_008.jpg	99
218.803	2.649	2649.0	generate	Run1	generate/STIM_009.jpg	99
224.621	1.757	1757.0	generate	Run1	generate/STIM_009.jpg	99
229.05	1.78	1779.9	generate	Run1	generate/STIM_009.jpg	100
232.933	1.103	1102.7	generate	Run1	generate/STIM_009.jpg	99
236.637	2.007	2007.1	generate	Run1	generate/STIM_009.jpg	99
241.479	1.742	1741.8	generate	Run1	generate/STIM_010.jpg	100
247.09	2.418	2417.7	generate	Run1	generate/STIM_010.jpg	99
253.155	2.3	2299.8	generate	Run1	generate/STIM_010.jpg	99
258.508	2.371	2370.8	generate	Run1	generate/STIM_010.jpg	99
262.849	1.62	1620.4	generate	Run1	generate/STIM_010.jpg	99
266.558	2.676	2676.2	generate	Run1	generate/STIM_011.jpg	100
272.421	1.923	1923.2	generate	Run1	generate/STIM_011.jpg	100
276.221	1.271	1271.0	generate	Run1	generate/STIM_011.jpg	100
279.722	2.609	2609.3	generate	Run1	generate/STIM_011.jpg	100
284.8	1.133	1133.1	generate	Run1	generate/STIM_011.jpg	99
287.942	2.7	2700.4	generate	Run1	generate/STIM_012.jpg	99
292.89	1.557	1556.9	generate	Run1	generate/STIM_012.jpg	100
296.666	1.929	1928.8	generate	Run1	generate/STIM_012.jpg	100
300.733	2.07	2070.3	generate	Run1	generate/STIM_012.jpg	100
305.577	1.114	1114.2	generate	Run1	generate/STIM_012.jpg	99
310.224	1.689	1689.4	generate	Run1	generate/STIM_013.jpg	99
314.358	2.632	2631.8	generate	Run1	generate/STIM_013.jpg	99
319.133	2.568	2568.4	generate	Run1	generate/STIM_013.jpg	100
325.615	2.643	2643.3	generate	Run1	generate/STIM_013.jpg	99
331.623	1.783	1783.4	generate	Run1	generate/STIM_013.jpg	99
336.456	1.6	1600.2	generate	Run1	generate/STIM_014.jpg	100
340.144	2.097	2097.4	generate	Run1	generate/STIM_014.jpg	100
345.296	2.354	2354.5	generate	Run1	generate/STIM_014.jpg	99
350.537	2.037	2036.5	generate	Run1	generate/STIM_014.jpg	99
356.262	1.119	1119.1	generate	Run1	generate/STIM_014.jpg	100
359.513	1.441	1440.6	generate	Run1	generate/STIM_015.jpg	100
363.735	1.312	1312.0	generate	Run1	generate/STIM_015.jpg	100
368.163	1.218	1218.3	generate	Run1	generate/STIM_015.jpg	100
372.276	2.304	2303.7	generate	Run1	generate/STIM_015.jpg	99
378.3	1.133	1132.7	generate	Run1	generate/STIM_015.jpg	100
382.395	1.622	1621.9	generate	Run1	generate/STIM_016.jpg	100
385.989	1.536	1536.2	generate	Run1	generate/STIM_016.jpg	100
390.28	2.105	2105.1	generate	Run1	generate/STIM_016.jpg	99
395.246	2.643	2642.6	generate	Run1	generate/STIM_016.jpg	99
399.887	1.048	1048.0	generate	Run1	generate/STIM_016.jpg	99
403.645	2.309	2309.4	generate	Run1	generate/STIM_017.jpg	99
408.975	1.184	1183.9	generate	Run1	generate/STIM_017.jpg	99
412.726	2.732	2732.2	generate	Run1	generate/STIM_017.jpg	99
418.612	2.136	2136.0	generate	Run1	generate/STIM_017.jpg	99
422.591	1.239	1239.2	generate	Run1	generate/STIM_017.jpg	99
426.609	1.534	1534.5	generate	Run1	generate/STIM_018.jpg	100
430.629	2.456	2455.7	generate	Run1	generate/STIM_018.jpg	100
436.441	2.205	2205.2	generate	Run1	generate/STIM_018.jpg	99
440.825	1.684	1684.3	generate	Run1	generate/STIM_018.jpg	100
445.377	1.892	1891.6	generate	Run1	generate/STIM_018.jpg	100
450.801	2.025	2025.2	generate	Run1	generate/STIM_019.jpg	99
455.322	2.454	2454.5	generate	Run1	generate/STIM_019.jpg	100
461.585	1.519	1518.6	generate	Run1	generate/STIM_019.jpg	99
466.703	2.055	2054.7	generate	Run1	generate/STIM_019.jpg	99
471.634	1.102	1101.9	generate	Run1	generate/STIM_019.jpg	99
475.439	2.868	2868.2	generate	Run1	generate/STIM_020.jpg	100
480.378	1.703	1702.7	generate	Run1	generate/STIM_020.jpg	99
485.402	1.244	1244.2	generate	Run1	generate/STIM_020.jpg	99
490.256	1.485	1484.8	generate	Run1	generate/STIM_020.jpg	99
493.971	1.117	1117.4	generate	Run1	generate/STIM_020.jpg	99
499.054	1.805	1805.2	generate	Run1	generate/STIM_021.jpg	99
503.409	2.759	2759.2	generate	Run1	generate/STIM_021.jpg	99
509.979	1.838	1837.8	generate	Run1	generate/STIM_021.jpg	100
515.74	2.582	2582.1	generate	Run1	generate/STIM_021.jpg	100
520.844	2.485	2485.3	generate	Run1	generate/STIM_021.jpg	99
525.92	3.027	3027.4	generate	Run1	generate/STIM_022.jpg	100
532.176	2.574	2574.0	generate	Run1	generate/STIM_022.jpg	100
537.756	2.112	2112.0	generate	Run1	generate/STIM_022.jpg	100
542.723	2.484	2484.1	generate	Run1	generate/STIM_022.jpg	99
548.527	2.261	2261.2	generate	Run1	generate/STIM_022.jpg	100
554.244	1.324	1323.6	generate	Run1	generate/STIM_023.jpg	99
558.567	2.421	2420.7	generate	Run1	generate/STIM_023.jpg	100
564.951	2.201	2200.7	generate	Run1	generate/STIM_023.jpg	99
570.134	1.703	1703.2	generate	Run1	generate/STIM_023.jpg	99
574.566	2.139	2139.3	generate	Run1	generate/STIM_023.jpg	99
580.234	1.762	1762.1	generate	Run1	generate/STIM_024.jpg	99
585.538	1.296	1296.4	generate	Run1	generate/STIM_024.jpg	100
589.937	1.205	1204.7	generate	Run1	generate/STIM_024.jpg	100
593.545	1.108	1107.6	generate	Run1	generate/STIM_024.jpg	99
598.338	1.206	1205.7	generate	Run1	generate/STIM_024.jpg	99
603.306	0.552	551.5	repeat	Run1	repeat/STIM_000.jpg	100
606.839	0.697	697.4	repeat	Run1	repeat/STIM_000.jpg	100
611.106	0.974	974.4	repeat	Run1	repeat/STIM_000.jpg	100
614.618	0.75	750.2	repeat	Run1	repeat/STIM_000.jpg	99
618.589	0.819	818.6	repeat	Run1	repeat/STIM_000.jpg	100
622.243	0.934	934.5	repeat	Run1	repeat/STIM_001.jpg	99
626.186	0.706	705.7	repeat	Run1	repeat/STIM_001.jpg	100
630.048	0.655	655.2	repeat	Run1	repeat/STIM_001.jpg	100
634.175	0.983	983.4	repeat	Run1	repeat/STIM_001.jpg	99
637.263	0.74	739.7	repeat	Run1	repeat/STIM_001.jpg	100
640.635	0.889	888.8	repeat	Run1	repeat/STIM_002.jpg	100
644.5	0.761	761.2	repeat	Run1	repeat/STIM_002.jpg	100
648.144	0.614	614.0	repeat	Run1	repeat/STIM_002.jpg	99
651.942	0.748	748.0	repeat	Run1	repeat/STIM_002.jpg	100
655.301	0.828	828.0	repeat	Run1	repeat/STIM_002.jpg	100
658.491	0.591	591.2	repeat	Run1	repeat/STIM_003.jpg	99
662.681	0.948	947.5	repeat	Run1	repeat/STIM_003.jpg	99
666.11	0.576	575.5	repeat	Run1	repeat/STIM_003.jpg	99
670.558	0.558	557.6	repeat	Run1	repeat/STIM_003.jpg	100
674.815	0.617	616.9	repeat	Run1	repeat/STIM_003.jpg	100
678.672	1.08	1079.7	repeat	Run1	repeat/STIM_004.jpg	100
683.568	0.922	922.4	repeat	Run1	repeat/STIM_004.jpg	100
686.611	0.706	705.9	repeat	Run1	repeat/STIM_004.jpg	100
689.373	0.787	787.3	repeat	Run1	repeat/STIM_004.jpg	99
692.528	0.68	680.0	repeat	Run1	repeat/STIM_004.jpg	99
695.212	0.781	781.1	repeat	Run1	repeat/STIM_005.jpg	100
697.996	1.07	1070.1	repeat	Run1	repeat/STIM_005.jpg	100
702.289	0.54	540.3	repeat	Run1	repeat/STIM_005.jpg	100
706.207	0.698	698.5	repeat	Run1	repeat/STIM_005.jpg	99
710.054	0.998	998.1	repeat	Run1	repeat/STIM_005.jpg	99
713.797	0.588	587.5	repeat	Run1	repeat/STIM_006.jpg	100
717.61	0.988	987.8	repeat	Run1	repeat/STIM_006.jpg	99
721.819	0.709	708.7	repeat	Run1	repeat/STIM_006.jpg	99
725.088	0.912	912.4	repeat	Run1	repeat/STIM_006.jpg	99
728.104	0.838	837.8	repeat	Run1	repeat/STIM_006.jpg	100
732.119	0.92	919.7	repeat	Run1	repeat/STIM_007.jpg	100
735.324	0.756	756.2	repeat	Run1	repeat/STIM_007.jpg	99
739.417	0.757	757.0	repeat	Run1	repeat/STIM_007.jpg	99
743.28	1.006	1005.8	repeat	Run1	repeat/STIM_007.jpg	100
747.457	0.568	568.5	repeat	Run1	repeat/STIM_007.jpg	100
751.132	0.888	887.8	repeat	Run1	repeat/STIM_008.jpg	100
754.44	0.873	873.4	repeat	Run1	repeat/STIM_008.jpg	99
757.983	0.81	810.4	repeat	Run1	repeat/STIM_008.jpg	100
762.67	1.048	1047.6	repeat	Run1	repeat/STIM_008.jpg	100
767.351	0.722	721.8	repeat	Run1	repeat/STIM_008.jpg	99
771.34	0.957	957.1	repeat	Run1	repeat/STIM_009.jpg	99
776.062	0.936	936.0	repeat	Run1	repeat/STIM_009.jpg	100
780.451	0.79	789.6	repeat	Run1	repeat/STIM_009.jpg	99
784.58	0.891	890.6	repeat	Run1	repeat/STIM_009.jpg	99
788.328	0.857	856.7	repeat	Run1	repeat/STIM_009.jpg	99
792.754	0.922	922.5	repeat	Run1	repeat/STIM_010.jpg	99
797.631	0.884	883.8	repeat	Run1	repeat/STIM_010.jpg	100
800.577	0.546	545.6	repeat	Run1	repeat/STIM_010.jpg	99
804.506	0.878	878.4	repeat	Run1	repeat/STIM_010.jpg	99
808.793	0.756	756.0	repeat	Run1	repeat/STIM_010.jpg	99
812.672	0.563	562.9	repeat	Run1	repeat/STIM_011.jpg	99
815.58	0.852	852.2	repeat	Run1	repeat/STIM_011.jpg	100
819.838	0.769	769.4	repeat	Run1	repeat/STIM_011.jpg	99
824.191	0.96	960.2	repeat	Run1	repeat/STIM_011.jpg	99
827.758	0.776	775.9	repeat	Run1	repeat/STIM_011.jpg	99
831.138	0.748	748.4	repeat	Run1	repeat/STIM_012.jpg	99
834.608	0.787	787.2	repeat	Run1	repeat/STIM_012.jpg	99
837.968	0.945	945.1	repeat	Run1	repeat/STIM_012.jpg	100
841.855	0.79	789.5	repeat	Run1	repeat/STIM_012.jpg	100
845.544	0.547	547.3	repeat	Run1	repeat/STIM_012.jpg	100
848.547	0.63	630.4	repeat	Run1	repeat/STIM_013.jpg	100
851.832	0.684	684.3	repeat	Run1	repeat/STIM_013.jpg	99
855.701	0.461	460.9	repeat	Run1	repeat/STIM_013.jpg	99
859.281	0.675	675.1	repeat	Run1	repeat/STIM_013.jpg	100
863.34	0.631	631.0	repeat	Run1	repeat/STIM_013.jpg	99
867.552	0.628	628.2	repeat	Run1	repeat/STIM_014.jpg	100
872.163	0.634	634.0	repeat	Run1	repeat/STIM_014.jpg	99
874.989	0.528	527.5	repeat	Run1	repeat/STIM_014.jpg	100
879.051	0.463	462.9	repeat	Run1	repeat/STIM_014.jpg	99
882.727	0.813	813.3	repeat	Run1	repeat/STIM_014.jpg	100
886.144	2.6	2599.8	generate	Run2	generate/STIM_000.jpg	99
891.32	1.209	1208.8	generate	Run2	generate/STIM_000.jpg	99
896.107	1.477	1476.9	generate	Run2	generate/STIM_000.jpg	99
900.477	1.583	1582.6	generate	Run2	generate/STIM_000.jpg	100
904.138	1.249	1249.1	generate	Run2	generate/STIM_000.jpg	100
908.428	2.367	2367.2	generate	Run2	generate/STIM_001.jpg	99
914.632	1.22	1220.3	generate	Run2	generate/STIM_001.jpg	99
919.479	1.482	1481.7	generate	Run2	generate/STIM_001.jpg	99
924.841	2.028	2028.3	generate	Run2	generate/STIM_001.jpg	100
929.232	1.045	1044.7	generate	Run2	generate/STIM_001.jpg	100
932.469	1.341	1340.7	generate	Run2	generate/STIM_002.jpg	99
936.532	1.118	1118.2	generate	Run2	generate/STIM_002.jpg	99
941.136	1.961	1961.3	generate	Run2	generate/STIM_002.jpg	99
946.28	1.687	1686.8	generate	Run2	generate/STIM_002.jpg	99
950.757	2.227	2226.9	generate	Run2	generate/STIM_002.jpg	99
956.728	1.338	1337.9	generate	Run2	generate/STIM_003.jpg	99
961.926	1.947	1947.1	generate	Run2	generate/STIM_003.jpg	100
966.02	1.413	1413.3	generate	Run2	generate/STIM_003.jpg	99
970.065	1.359	1359.2	generate	Run2	generate/STIM_003.jpg	100
974.309	1.375	1375.4	generate	Run2	generate/STIM_003.jpg	100
979.553	2.346	2346.1	generate	Run2	generate/STIM_004.jpg	100
984.796	2.304	2304.2	generate	Run2	generate/STIM_004.jpg	100
989.928	1.2	1199.7	generate	Run2	generate/STIM_004.jpg	100
994.824	1.0	999.8	generate	Run2	generate/STIM_004.jpg	100
999.821	0.966	965.9	generate	Run2	generate/STIM_004.jpg	99
1003.355	1.147	1147.1	generate	Run2	generate/STIM_005.jpg	100
1007.362	1.718	1718.4	generate	Run2	generate/STIM_005.jpg	99
1011.613	0.957	957.2	generate	Run2	generate/STIM_005.jpg	99
1014.895	1.807	1806.7	generate	Run2	generate/STIM_005.jpg	99
1020.474	2.046	2045.9	generate	Run2	generate/STIM_005.jpg	99
1026.167	1.7	1700.3	generate	Run2	generate/STIM_006.jpg	99
1031.517	1.185	1184.6	generate	Run2	generate/STIM_006.jpg	100
1034.938	2.279	2278.8	generate	Run2	generate/STIM_006.jpg	99
1040.431	1.017	1017.2	generate	Run2	generate/STIM_006.jpg	100
1043.408	1.945	1945.3	generate	Run2	generate/STIM_006.jpg	99
1047.731	1.23	1230.0	generate	Run2	generate/STIM_007.jpg	100
1052.725	2.433	2432.9	generate	Run2	generate/STIM_007.jpg	100
1058.987	0.999	998.7	generate	Run2	generate/STIM_007.jpg	100
1062.476	1.489	1489.1	generate	Run2	generate/STIM_007.jpg	100
1066.152	1.652	1652.3	generate	Run2	generate/STIM_007.jpg	100
1071.207	2.479	2479.2	generate	Run2	generate/STIM_008.jpg	100
1075.713	2.426	2426.4	generate	Run2	generate/STIM_008.jpg	99
1080.674	2.247	2247.4	generate	Run2	generate/STIM_008.jpg	100
1086.758	2.086	2085.6	generate	Run2	generate/STIM_008.jpg	100
1092.479	1.64	1640.2	generate	Run2	generate/STIM_008.jpg	100
1096.927	1.892	1892.3	generate	Run2	generate/STIM_009.jpg	100
1101.637	2.036	2036.1	generate	Run2	generate/STIM_009.jpg	100
1105.864	1.737	1736.7	generate	Run2	generate/STIM_009.jpg	99
1110.394	0.852	851.7	generate	Run2	generate/STIM_009.jpg	99
1114.226	1.803	1803.4	generate	Run2	generate/STIM_009.jpg	99
1118.689	2.326	2326.4	generate	Run2	generate/STIM_010.jpg	100
1124.681	2.49	2489.5	generate	Run2	generate/STIM_010.jpg	99
1130.254	2.378	2377.8	generate	Run2	generate/STIM_010.jpg	100
1135.818	1.662	1662.1	generate	Run2	generate/STIM_010.jpg	100
1139.625	1.806	1806.3	generate	Run2	generate/STIM_010.jpg	100
1144.223	1.22	1219.9	generate	Run2	generate/STIM_011.jpg	99
1148.592	2.393	2393.1	generate	Run2	generate/STIM_011.jpg	99
1153.708	1.868	1868.0	generate	Run2	generate/STIM_011.jpg	99
1159.222	1.664	1663.8	generate	Run2	generate/STIM_011.jpg	99
1164.471	1.331	1331.1	generate	Run2	generate/STIM_011.jpg	100
1167.779	1.301	1301.4	generate	Run2	generate/STIM_012.jpg	100
1171.236	1.266	1266.1	generate	Run2	generate/STIM_012.jpg	99
1175.274	2.255	2254.6	generate	Run2	generate/STIM_012.jpg	99
1180.252	1.62	1620.1	generate	Run2	generate/STIM_012.jpg	100
1185.803	1.944	1944.4	generate	Run2	generate/STIM_012.jpg	99
1190.183	2.616	2616.2	generate	Run2	generate/STIM_013.jpg	99
1196.495	1.32	1320.4	generate	Run2	generate/STIM_013.jpg	99
1201.67	0.965	965.0	generate	Run2	generate/STIM_013.jpg	99
1204.605	0.939	938.9	generate	Run2	generate/STIM_013.jpg	99
1208.943	1.088	1087.6	generate	Run2	generate/STIM_013.jpg	100
1213.375	1.79	1790.0	generate	Run2	generate/STIM_014.jpg	100
1218.593	1.176	1175.9	generate	Run2	generate/STIM_014.jpg	99
1222.312	1.937	1937.4	generate	Run2	generate/STIM_014.jpg	100
1226.52	1.917	1916.7	generate	Run2	generate/STIM_014.jpg	99
1232.053	1.147	1146.6	generate	Run2	generate/STIM_014.jpg	99
1237.159	1.478	1477.6	generate	Run2	generate/STIM_015.jpg	99
1240.817	2.121	2121.2	generate	Run2	generate/STIM_015.jpg	100
1244.963	2.03	2030.4	generate	Run2	generate/STIM_015.jpg	99
1250.436	2.101	2101.2	generate	Run2	generate/STIM_015.jpg	100
1255.379	1.22	1220.4	generate	Run2	generate/STIM_015.jpg	99
1259.984	1.498	1498.1	generate	Run2	generate/STIM_016.jpg	100
1264.713	1.353	1352.8	generate	Run2	generate/STIM_016.jpg	100
1268.483	1.94	1939.9	generate	Run2	generate/STIM_016.jpg	100
1273.521	1.32	1319.9	generate	Run2	generate/STIM_016.jpg	99
1278.346	1.828	1828.0	generate	Run2	generate/STIM_016.jpg	99
1282.209	1.035	1034.6	generate	Run2	generate/STIM_017.jpg	99
1286.477	1.366	1366.1	generate	Run2	generate/STIM_017.jpg	99
1291.188	1.255	1254.8	generate	Run2	generate/STIM_017.jpg	99
1295.342	1.55	1549.5	generate	Run2	generate/STIM_017.jpg	99
1300.789	0.969	968.9	generate	Run2	generate/STIM_017.jpg	100
1303.913	1.836	1836.1	generate	Run2	generate/STIM_018.jpg	100
1308.03	2.438	2438.5	generate	Run2	generate/STIM_018.jpg	99
1312.58	1.126	1125.8	generate	Run2	generate/STIM_018.jpg	100
1315.969	0.898	897.5	generate	Run2	generate/STIM_018.jpg	100
1320.624	1.048	1048.0	generate	Run2	generate/STIM_018.jpg	99
1325.283	2.529	2529.2	generate	Run2	generate/STIM_019.jpg	99
1330.488	2.26	2259.9	generate	Run2	generate/STIM_019.jpg	100
1335.777	1.807	1806.6	generate	Run2	generate/STIM_019.jpg	100
1340.984	1.24	1240.3	generate	Run2	generate/STIM_019.jpg	100
1345.668	0.839	838.9	generate	Run2	generate/STIM_019.jpg	100
1349.565	2.056	2056.0	generate	Run2	generate/STIM_020.jpg	99
1354.449	2.004	2004.4	generate	Run2	generate/STIM_020.jpg	99
1358.451	1.427	1427.1	generate	Run2	generate/STIM_020.jpg	100
1362.539	1.425	1425.2	generate	Run2	generate/STIM_020.jpg	100
1367.101	1.702	1701.9	generate	Run2	generate/STIM_020.jpg	99
1372.387	1.699	1699.4	generate	Run2	generate/STIM_021.jpg	99
1377.262	1.184	1183.5	generate	Run2	generate/STIM_021.jpg	99
1381.21	1.248	1248.3	generate	Run2	generate/STIM_021.jpg	100
1384.903	1.559	1559.4	generate	Run2	generate/STIM_021.jpg	99
1389.975	1.8	1800.4	generate	Run2	generate/STIM_021.jpg	100
1393.888	1.641	1640.8	generate	Run2	generate/STIM_022.jpg	100
1398.461	2.035	2035.3	generate	Run2	generate/STIM_022.jpg	99
1404.171	1.407	1406.7	generate	Run2	generate/STIM_022.jpg	100
1408.342	1.798	1797.6	generate	Run2	generate/STIM_022.jpg	99
1413.571	1.0	1000.0	generate	Run2	generate/STIM_022.jpg	100
1418.385	2.466	2465.8	generate	Run2	generate/STIM_023.jpg	100
1424.58	2.018	2018.3	generate	Run2	generate/STIM_023.jpg	99
1429.089	1.952	1951.5	generate	Run2	generate/STIM_023.jpg	100
1433.467	1.282	1282.4	generate	Run2	generate/STIM_023.jpg	100
1438.024	0.958	957.7	generate	Run2	generate/STIM_023.jpg	100
1442.853	2.113	2113.4	generate	Run2	generate/STIM_024.jpg	99
1446.98	1.354	1353.9	generate	Run2	generate/STIM_024.jpg	100
1451.827	1.322	1321.6	generate	Run2	generate/STIM_024.jpg	100
1456.115	1.828	1828.2	generate	Run2	generate/STIM_024.jpg	99
1460.473	0.892	891.8	generate	Run2	generate/STIM_024.jpg	99
1464.968	0.964	964.3	repeat	Run2	repeat/STIM_000.jpg	99
1469.711	0.888	888.4	repeat	Run2	repeat/STIM_000.jpg	99
1473.703	0.657	657.3	repeat	Run2	repeat/STIM_000.jpg	99
1477.093	0.605	605.1	repeat	Run2	repeat/STIM_000.jpg	100
1481.153	0.974	974.2	repeat	Run2	repeat/STIM_000.jpg	99
1484.863	0.474	473.7	repeat	Run2	repeat/STIM_001.jpg	100
1487.507	0.95	949.5	repeat	Run2	repeat/STIM_001.jpg	99
1491.669	0.937	937.0	repeat	Run2	repeat/STIM_001.jpg	99
1494.974	0.767	767.2	repeat	Run2	repeat/STIM_001.jpg	100
1498.437	1.014	1014.4	repeat	Run2	repeat/STIM_001.jpg	100
1502.044	1.029	1029.1	repeat	Run2	repeat/STIM_002.jpg	100
1504.995	0.576	576.2	repeat	Run2	repeat/STIM_002.jpg	99
1507.685	0.931	931.4	repeat	Run2	repeat/STIM_002.jpg	100
1511.835	0.647	646.8	repeat	Run2	repeat/STIM_002.jpg	99
1514.594	1.045	1044.6	repeat	Run2	repeat/STIM_002.jpg	100
1517.625	0.818	818.3	repeat	Run2	repeat/STIM_003.jpg	100
1521.154	0.772	771.8	repeat	Run2	repeat/STIM_003.jpg	100
1524.181	0.937	937.0	repeat	Run2	repeat/STIM_003.jpg	99
1528.147	0.892	892.5	repeat	Run2	repeat/STIM_003.jpg	99
1532.577	0.602	601.8	repeat	Run2	repeat/STIM_003.jpg	99
1535.679	0.732	732.0	repeat	Run2	repeat/STIM_004.jpg	100
1540.018	0.922	921.7	repeat	Run2	repeat/STIM_004.jpg	100
1544.334	0.981	981.2	repeat	Run2	repeat/STIM_004.jpg	99
1547.505	1.051	1050.9	repeat	Run2	repeat/STIM_004.jpg	99
1551.644	0.923	922.7	repeat	Run2	repeat/STIM_004.jpg	100
1555.482	0.977	976.8	repeat	Run2	repeat/STIM_005.jpg	100
1558.821	0.73	730.4	repeat	Run2	repeat/STIM_005.jpg	99
1562.202	0.972	972.0	repeat	Run2	repeat/STIM_005.jpg	99
1566.907	0.64	639.9	repeat	Run2	repeat/STIM_005.jpg	99
1569.928	0.955	955.4	repeat	Run2	repeat/STIM_005.jpg	100
1572.841	0.61	610.0	repeat	Run2	repeat/STIM_006.jpg	100
1576.73	0.913	912.6	repeat	Run2	repeat/STIM_006.jpg	100
1580.439	0.902	901.8	repeat	Run2	repeat/STIM_006.jpg	100
1583.46	0.998	998.4	repeat	Run2	repeat/STIM_006.jpg	100
1586.64	0.579	579.0	repeat	Run2	repeat/STIM_006.jpg	99
1589.871	0.905	905.1	repeat	Run2	repeat/STIM_007.jpg	99
1592.763	0.538	538.2	repeat	Run2	repeat/STIM_007.jpg	99
1595.648	0.575	575.2	repeat	Run2	repeat/STIM_007.jpg	99
1598.861	0.577	577.3	repeat	Run2	repeat/STIM_007.jpg	100
1602.27	1.028	1028.2	repeat	Run2	repeat/STIM_007.jpg	100
1606.925	0.585	585.1	repeat	Run2	repeat/STIM_008.jpg	100
1610.203	0.826	826.2	repeat	Run2	repeat/STIM_008.jpg	100
1614.802	0.976	975.9	repeat	Run2	repeat/STIM_008.jpg	100
1618.686	0.636	635.6	repeat	Run2	repeat/STIM_008.jpg	99
1622.038	0.677	676.8	repeat	Run2	repeat/STIM_008.jpg	99
1626.061	0.914	914.0	repeat	Run2	repeat/STIM_009.jpg	100
1629.134	0.622	622.4	repeat	Run2	repeat/STIM_009.jpg	100
1632.811	0.926	926.2	repeat	Run2	repeat/STIM_009.jpg	100
1637.07	0.59	590.4	repeat	Run2	repeat/STIM_009.jpg	100
1641.336	0.609	608.9	repeat	Run2	repeat/STIM_009.jpg	100
1644.752	0.817	816.8	repeat	Run2	repeat/STIM_010.jpg	100
1648.822	0.908	907.5	repeat	Run2	repeat/STIM_010.jpg	99
1652.26	0.658	658.1	repeat	Run2	repeat/STIM_010.jpg	99
1656.628	1.089	1089.0	repeat	Run2	repeat/STIM_010.jpg	99
1660.997	0.904	904.5	repeat	Run2	repeat/STIM_010.jpg	100
1664.38	0.925	924.9	repeat	Run2	repeat/STIM_011.jpg	99
1667.786	0.651	651.1	repeat	Run2	repeat/STIM_011.jpg	99
1671.901	0.995	994.7	repeat	Run2	repeat/STIM_011.jpg	99
1676.81	0.787	786.8	repeat	Run2	repeat/STIM_011.jpg	100
1680.774	0.922	921.8	repeat	Run2	repeat/STIM_011.jpg	99
1684.754	0.726	726.4	repeat	Run2	repeat/STIM_012.jpg	100
1689.391	0.816	816.1	repeat	Run2	repeat/STIM_012.jpg	99
1693.371	0.68	680.5	repeat	Run2	repeat/STIM_012.jpg	99
1696.322	0.775	774.6	repeat	Run2	repeat/STIM_012.jpg	100
1700.887	1.012	1011.8	repeat	Run2	repeat/STIM_012.jpg	100
1705.769	0.873	872.7	repeat	Run2	repeat/STIM_013.jpg	99
1709.841	0.882	881.6	repeat	Run2	repeat/STIM_013.jpg	99
1712.773	0.816	815.6	repeat	Run2	repeat/STIM_013.jpg	100
1716.27	0.618	618.3	repeat	Run2	repeat/STIM_013.jpg	100
1719.964	0.665	665.4	repeat	Run2	repeat/STIM_013.jpg	99
1724.52	1.008	1008.3	repeat	Run2	repeat/STIM_014.jpg	100
1727.744	0.662	661.9	repeat	Run2	repeat/STIM_014.jpg	100
1731.65	0.823	822.9	repeat	Run2	repeat/STIM_014.jpg	99
1735.591	0.716	715.9	repeat	Run2	repeat/STIM_014.jpg	99
1738.645	0.733	733.4	repeat	Run2	repeat/STIM_014.jpg	100
1742.43	0.925	925.4	generate	Run3	generate/STIM_000.jpg	100
1745.464	1.511	1511.2	generate	Run3	generate/STIM_000.jpg	99
1749.442	1.78	1780.3	generate	Run3	generate/STIM_000.jpg	99
1753.252	2.131	2131.0	generate	Run3	generate/STIM_000.jpg	99
1758.062	2.138	2137.8	generate	Run3	generate/STIM_000.jpg	99
1763.778	1.663	1663.3	generate	Run3	generate/STIM_001.jpg	100
1767.59	1.455	1455.4	generate	Run3	generate/STIM_001.jpg	100
1771.462	1.823	1822.9	generate	Run3	generate/STIM_001.jpg	99
1776.803	1.349	1349.0	generate	Run3	generate/STIM_001.jpg	100
1780.767	1.734	1734.1	generate	Run3	generate/STIM_001.jpg	99
1785.361	1.899	1898.8	generate	Run3	generate/STIM_002.jpg	99
1789.212	1.666	1666.0	generate	Run3	generate/STIM_002.jpg	99
1794.427	1.566	1566.0	generate	Run3	generate/STIM_002.jpg	100
1798.908	1.286	1286.1	generate	Run3	generate/STIM_002.jpg	100
1804.173	1.498	1498.5	generate	Run3	generate/STIM_002.jpg	100
1808.139	1.968	1967.6	generate	Run3	generate/STIM_003.jpg	100
1813.075	1.597	1596.6	generate	Run3	generate/STIM_003.jpg	100
1818.467	0.854	854.0	generate	Run3	generate/STIM_003.jpg	100
1822.229	1.05	1049.7	generate	Run3	generate/STIM_003.jpg	100
1826.481	1.099	1098.9	generate	Run3	generate/STIM_003.jpg	99
1830.964	1.55	1550.1	generate	Run3	generate/STIM_004.jpg	99
1834.886	2.11	2109.5	generate	Run3	generate/STIM_004.jpg	99
1839.77	2.129	2129.1	generate	Run3	generate/STIM_004.jpg	100
1845.597	1.59	1590.0	generate	Run3	generate/STIM_004.jpg	99
1849.97	1.212	1211.7	generate	Run3	generate/STIM_004.jpg	100
1854.718	2.184	2183.5	generate	Run3	generate/STIM_005.jpg	100
1858.835	1.233	1233.0	generate	Run3	generate/STIM_005.jpg	99
1863.21	2.063	2062.8	generate	Run3	generate/STIM_005.jpg	99
1868.25	1.627	1627.1	generate	Run3	generate/STIM_005.jpg	100
1873.201	0.979	978.9	generate	Run3	generate/STIM_005.jpg	99
1876.58	1.042	1042.1	generate	Run3	generate/STIM_006.jpg	99
1881.016	1.316	1316.3	generate	Run3	generate/STIM_006.jpg	99
1885.104	1.361	1361.4	generate	Run3	generate/STIM_006.jpg	100
1888.536	1.543	1542.7	generate	Run3	generate/STIM_006.jpg	99
1893.034	1.44	1440.3	generate	Run3	generate/STIM_006.jpg	100
1897.453	1.47	1470.5	generate	Run3	generate/STIM_007.jpg	99
1902.818	1.444	1444.1	generate	Run3	generate/STIM_007.jpg	100
1907.267	0.858	857.7	generate	Run3	generate/STIM_007.jpg	99
1911.37	1.469	1469.4	generate	Run3	generate/STIM_007.jpg	99
1916.206	1.288	1287.6	generate	Run3	generate/STIM_007.jpg	100
1920.804	1.325	1325.1	generate	Run3	generate/STIM_008.jpg	99
1925.869	1.741	1741.2	generate	Run3	generate/STIM_008.jpg	99
1930.399	1.392	1391.5	generate	Run3	generate/STIM_008.jpg	100
1935.018	1.048	1047.6	generate	Run3	generate/STIM_008.jpg	100
1938.359	1.97	1970.0	generate	Run3	generate/STIM_008.jpg	99
1942.847	1.027	1026.6	generate	Run3	generate/STIM_009.jpg	100
1947.696	1.566	1566.0	generate	Run3	generate/STIM_009.jpg	100
1952.079	1.468	1467.5	generate	Run3	generate/STIM_009.jpg	99
1956.79	1.963	1963.0	generate	Run3	generate/STIM_009.jpg	99
1960.877	1.925	1925.1	generate	Run3	generate/STIM_009.jpg	100
1965.334	1.503	1502.9	generate	Run3	generate/STIM_010.jpg	100
1969.714	1.705	1704.6	generate	Run3	generate/STIM_010.jpg	100
1974.78	1.133	1132.7	generate	Run3	generate/STIM_010.jpg	99
1978.103	1.917	1916.9	generate	Run3	generate/STIM_010.jpg	99
1982.114	1.771	1771.0	generate	Run3	generate/STIM_010.jpg	100
1986.718	1.309	1308.6	generate	Run3	generate/STIM_011.jpg	100
1991.036	1.919	1918.6	generate	Run3	generate/STIM_011.jpg	99
1996.136	1.348	1348.4	generate	Run3	generate/STIM_011.jpg	99
2000.159	1.517	1517.3	generate	Run3	generate/STIM_011.jpg	100
2004.375	1.7	1699.6	generate	Run3	generate/STIM_011.jpg	100
2009.958	1.99	1989.9	generate	Run3	generate/STIM_012.jpg	100
2015.387	1.622	1621.6	generate	Run3	generate/STIM_012.jpg	99
2019.664	1.313	1313.2	generate	Run3	generate/STIM_012.jpg	100
2023.117	1.338	1338.4	generate	Run3	generate/STIM_012.jpg	100
2027.254	1.76	1760.1	generate	Run3	generate/STIM_012.jpg	99
2033.008	0.909	909.4	generate	Run3	generate/STIM_013.jpg	100
2036.017	1.427	1426.7	generate	Run3	generate/STIM_013.jpg	99
2041.237	1.946	1945.6	generate	Run3	generate/STIM_013.jpg	100
2046.029	1.995	1995.3	generate	Run3	generate/STIM_013.jpg	99
2050.377	2.092	2091.8	generate	Run3	generate/STIM_013.jpg	100
2056.25	1.977	1977.1	generate	Run3	generate/STIM_014.jpg	99
2061.412	1.192	1192.1	generate	Run3	generate/STIM_014.jpg	99
2066.115	1.036	1035.9	generate	Run3	generate/STIM_014.jpg	99
2069.392	1.256	1255.8	generate	Run3	generate/STIM_014.jpg	99
2072.739	0.92	920.3	generate	Run3	generate/STIM_014.jpg	100
2077.457	1.754	1753.9	generate	Run3	generate/STIM_015.jpg	99
2082.967	0.986	986.5	generate	Run3	generate/STIM_015.jpg	100
2087.372	1.692	1692.3	generate	Run3	generate/STIM_015.jpg	99
2091.829	1.229	1229.0	generate	Run3	generate/STIM_015.jpg	100
2096.252	1.016	1015.9	generate	Run3	generate/STIM_015.jpg	99
2100.157	1.604	1604.4	generate	Run3	generate/STIM_016.jpg	99
2104.837	1.568	1567.7	generate	Run3	generate/STIM_016.jpg	100
2110.093	1.85	1849.6	generate	Run3	generate/STIM_016.jpg	100
2115.271	1.888	1888.1	generate	Run3	generate/STIM_016.jpg	99
2119.882	1.656	1656.5	generate	Run3	generate/STIM_016.jpg	99
2124.974	1.457	1457.3	generate	Run3	generate/STIM_017.jpg	100
2129.898	0.895	895.1	generate	Run3	generate/STIM_017.jpg	100
2133.575	1.61	1609.5	generate	Run3	generate/STIM_017.jpg	100
2137.761	1.308	1307.5	generate	Run3	generate/STIM_017.jpg	100
2141.747	1.472	1472.5	generate	Run3	generate/STIM_017.jpg	100
2146.549	1.645	1644.7	generate	Run3	generate/STIM_018.jpg	100
2152.001	1.498	1498.0	generate	Run3	generate/STIM_018.jpg	100
2155.819	1.51	1509.6	generate	Run3	generate/STIM_018.jpg	99
2159.387	1.494	1493.8	generate	Run3	generate/STIM_018.jpg	99
2163.367	1.277	1276.7	generate	Run3	generate/STIM_018.jpg	99
2167.379	1.507	1507.2	generate	Run3	generate/STIM_019.jpg	99
2171.314	1.9	1899.6	generate	Run3	generate/STIM_019.jpg	99
2176.747	1.781	1781.3	generate	Run3	generate/STIM_019.jpg	99
2180.764	1.859	1858.9	generate	Run3	generate/STIM_019.jpg	99
2186.4	1.135	1135.1	generate	Run3	generate/STIM_019.jpg	99
2190.24	1.346	1346.4	generate	Run3	generate/STIM_020.jpg	99
2194.376	1.254	1254.1	generate	Run3	generate/STIM_020.jpg	99
2197.964	1.151	1150.9	generate	Run3	generate/STIM_020.jpg	100
2202.198	1.095	1094.7	generate	Run3	generate/STIM_020.jpg	99
2205.866	1.237	1237.0	generate	Run3	generate/STIM_020.jpg	99
2209.446	1.4	1400.1	generate	Run3	generate/STIM_021.jpg	99
2213.58	1.195	1195.3	generate	Run3	generate/STIM_021.jpg	99
2217.857	1.216	1215.7	generate	Run3	generate/STIM_021.jpg	99
2221.589	1.142	1142.4	generate	Run3	generate/STIM_021.jpg	99
2225.792	1.431	1431.1	generate	Run3	generate/STIM_021.jpg	100
2229.209	1.069	1069.2	generate	Run3	generate/STIM_022.jpg	100
2233.021	0.837	837.0	generate	Run3	generate/STIM_022.jpg	99
2236.668	1.471	1471.3	generate	Run3	generate/STIM_022.jpg	100
2241.689	1.943	1943.3	generate	Run3	generate/STIM_022.jpg	99
2246.668	1.358	1358.1	generate	Run3	generate/STIM_022.jpg	99
2251.723	1.121	1121.3	generate	Run3	generate/STIM_023.jpg	100
2255.04	1.967	1966.6	generate	Run3	generate/STIM_023.jpg	99
2259.075	0.971	971.0	generate	Run3	generate/STIM_023.jpg	100
2262.779	1.002	1001.5	generate	Run3	generate/STIM_023.jpg	100
2266.454	1.903	1903.2	generate	Run3	generate/STIM_023.jpg	99
2270.528	1.115	1115.1	generate	Run3	generate/STIM_024.jpg	99
2273.879	0.865	864.8	generate	Run3	generate/STIM_024.jpg	99
2277.067	1.98	1979.8	generate	Run3	generate/STIM_024.jpg	100
2281.561	1.266	1265.7	generate	Run3	generate/STIM_024.jpg	99
2286.343	1.086	1086.4	generate	Run3	generate/STIM_024.jpg	99
2289.95	0.931	931.4	repeat	Run3	repeat/STIM_000.jpg	100
2294.16	0.784	784.4	repeat	Run3	repeat/STIM_000.jpg	99
2297.305	0.84	840.0	repeat	Run3	repeat/STIM_000.jpg	99
2301.667	0.633	633.0	repeat	Run3	repeat/STIM_000.jpg	100
2304.745	1.031	1030.6	repeat	Run3	repeat/STIM_000.jpg	100
2308.488	0.646	646.1	repeat	Run3	repeat/STIM_001.jpg	99
2312.298	1.096	1096.4	repeat	Run3	repeat/STIM_001.jpg	100
2316.817	0.764	764.5	repeat	Run3	repeat/STIM_001.jpg	100
2321.018	0.899	899.0	repeat	Run3	repeat/STIM_001.jpg	99
2324.981	0.609	609.3	repeat	Run3	repeat/STIM_001.jpg	99
2327.801	0.569	568.8	repeat	Run3	repeat/STIM_002.jpg	99
2331.278	0.829	828.6	repeat	Run3	repeat/STIM_002.jpg	100
2335.983	0.63	630.0	repeat	Run3	repeat/STIM_002.jpg	100
2340.558	0.491	490.7	repeat	Run3	repeat/STIM_002.jpg	100
2343.451	0.803	802.9	repeat	Run3	repeat/STIM_002.jpg	99
2346.461	0.753	752.8	repeat	Run3	repeat/STIM_003.jpg	100
2349.882	0.611	611.2	repeat	Run3	repeat/STIM_003.jpg	100
2353.458	0.516	515.9	repeat	Run3	repeat/STIM_003.jpg	100
2357.969	0.762	761.8	repeat	Run3	repeat/STIM_003.jpg	99
2360.781	0.992	992.2	repeat	Run3	repeat/STIM_003.jpg	100
2365.437	0.905	904.6	repeat	Run3	repeat/STIM_004.jpg	99
2370.334	0.6	599.8	repeat	Run3	repeat/STIM_004.jpg	99
2374.048	0.994	993.5	repeat	Run3	repeat/STIM_004.jpg	100
2378.259	0.646	645.7	repeat	Run3	repeat/STIM_004.jpg	99
2381.346	0.818	818.1	repeat	Run3	repeat/STIM_004.jpg	100
2385.567	0.562	562.5	repeat	Run3	repeat/STIM_005.jpg	100
2389.87	0.66	659.5	repeat	Run3	repeat/STIM_005.jpg	100
2392.991	1.022	1021.7	repeat	Run3	repeat/STIM_005.jpg	100
2396.234	1.104	1104.3	repeat	Run3	repeat/STIM_005.jpg	99
2399.948	0.577	577.1	repeat	Run3	repeat/STIM_005.jpg	99
2402.726	0.825	825.1	repeat	Run3	repeat/STIM_006.jpg	100
2406.222	0.908	908.2	repeat	Run3	repeat/STIM_006.jpg	99
2409.486	0.612	612.5	repeat	Run3	repeat/STIM_006.jpg	99
2412.774	0.563	563.4	repeat	Run3	repeat/STIM_006.jpg	99
2415.432	0.951	950.7	repeat	Run3	repeat/STIM_006.jpg	99
2420.282	0.88	879.5	repeat	Run3	repeat/STIM_007.jpg	99
2424.172	0.964	964.4	repeat	Run3	repeat/STIM_007.jpg	100
2427.739	0.888	887.7	repeat	Run3	repeat/STIM_007.jpg	99
2432.38	0.591	591.2	repeat	Run3	repeat/STIM_007.jpg	100
2436.368	0.612	612.4	repeat	Run3	repeat/STIM_007.jpg	99
2439.385	0.599	598.6	repeat	Run3	repeat/STIM_008.jpg	99
2443.131	0.806	806.1	repeat	Run3	repeat/STIM_008.jpg	100
2447.112	0.56	560.2	repeat	Run3	repeat/STIM_008.jpg	100
2451.455	0.945	945.3	repeat	Run3	repeat/STIM_008.jpg	100
2455.841	0.503	503.5	repeat	Run3	repeat/STIM_008.jpg	99
2459.184	0.821	820.6	repeat	Run3	repeat/STIM_009.jpg	99
2462.794	0.948	947.6	repeat	Run3	repeat/STIM_009.jpg	100
2467.405	0.83	829.9	repeat	Run3	repeat/STIM_009.jpg	100
2471.249	1.01	1010.0	repeat	Run3	repeat/STIM_009.jpg	100
2474.401	0.826	826.3	repeat	Run3	repeat/STIM_009.jpg	100
2477.963	0.886	886.4	repeat	Run3	repeat/STIM_010.jpg	99
2482.541	0.813	812.9	repeat	Run3	repeat/STIM_010.jpg	99
2485.693	0.63	629.8	repeat	Run3	repeat/STIM_010.jpg	100
2490.201	0.573	573.3	repeat	Run3	repeat/STIM_010.jpg	99
2494.691	0.885	885.0	repeat	Run3	repeat/STIM_010.jpg	100
2498.054	0.776	776.5	repeat	Run3	repeat/STIM_011.jpg	100
2502.17	0.901	900.8	repeat	Run3	repeat/STIM_011.jpg	99
2507.006	0.573	572.6	repeat	Run3	repeat/STIM_011.jpg	99
2510.613	0.923	923.1	repeat	Run3	repeat/STIM_011.jpg	99
2514.808	0.7	700.1	repeat	Run3	repeat/STIM_011.jpg	99
2519.224	0.702	702.4	repeat	Run3	repeat/STIM_012.jpg	99
2522.797	0.982	982.1	repeat	Run3	repeat/STIM_012.jpg	99
2527.014	0.798	797.7	repeat	Run3	repeat/STIM_012.jpg	100
2530.664	0.538	538.3	repeat	Run3	repeat/STIM_012.jpg	100
2533.901	0.847	846.6	repeat	Run3	repeat/STIM_012.jpg	100
2537.804	0.828	828.5	repeat	Run3	repeat/STIM_013.jpg	100
2541.683	0.705	705.0	repeat	Run3	repeat/STIM_013.jpg	100
2546.002	0.837	836.7	repeat	Run3	repeat/STIM_013.jpg	100
2549.996	0.851	850.6	repeat	Run3	repeat/STIM_013.jpg	100
2552.877	0.868	867.8	repeat	Run3	repeat/STIM_013.jpg	99
2557.581	0.996	995.5	repeat	Run3	repeat/STIM_014.jpg	99
2561.636	0.857	857.2	repeat	Run3	repeat/STIM_014.jpg	99
2564.989	0.795	794.8	repeat	Run3	repeat/STIM_014.jpg	99
2567.856	0.592	591.6	repeat	Run3	repeat/STIM_014.jpg	100
2571.641	0.785	784.8	repeat	Run3	repeat/STIM_014.jpg	100
2574.466	1.032	1031.9	generate	Run4	generate/STIM_000.jpg	100
2578.391	1.489	1489.2	generate	Run4	generate/STIM_000.jpg	100
2583.119	1.643	1642.6	generate	Run4	generate/STIM_000.jpg	100
2587.483	1.399	1398.6	generate	Run4	generate/STIM_000.jpg	100
2591.077	0.913	912.9	generate	Run4	generate/STIM_000.jpg	99
2595.708	1.653	1653.3	generate	Run4	generate/STIM_001.jpg	100
2600.707	1.332	1332.1	generate	Run4	generate/STIM_001.jpg	100
2605.078	1.55	1550.4	generate	Run4	generate/STIM_001.jpg	100
2608.917	2.053	2053.1	generate	Run4	generate/STIM_001.jpg	99
2613.615	2.001	2000.8	generate	Run4	generate/STIM_001.jpg	100
2617.844	1.715	1715.3	generate	Run4	generate/STIM_002.jpg	100
2622.58	1.466	1465.7	generate	Run4	generate/STIM_002.jpg	100
2627.053	1.998	1998.0	generate	Run4	generate/STIM_002.jpg	99
2631.872	1.866	1866.0	generate	Run4	generate/STIM_002.jpg	99
2636.412	1.972	1972.4	generate	Run4	generate/STIM_002.jpg	99
2641.096	1.217	1217.3	generate	Run4	generate/STIM_003.jpg	99
2644.852	1.036	1036.0	generate	Run4	generate/STIM_003.jpg	100
2649.665	1.987	1986.7	generate	Run4	generate/STIM_003.jpg	99
2655.126	1.159	1158.8	generate	Run4	generate/STIM_003.jpg	99
2660.052	1.227	1227.2	generate	Run4	generate/STIM_003.jpg	100
2663.308	1.532	1531.5	generate	Run4	generate/STIM_004.jpg	99
2667.049	2.038	2037.5	generate	Run4	generate/STIM_004.jpg	99
2671.271	0.856	856.2	generate	Run4	generate/STIM_004.jpg	99
2675.608	1.205	1205.1	generate	Run4	generate/STIM_004.jpg	100
2679.869	2.065	2065.0	generate	Run4	generate/STIM_004.jpg	99
2685.446	1.899	1898.6	generate	Run4	generate/STIM_005.jpg	100
2690.003	1.392	1392.1	generate	Run4	generate/STIM_005.jpg	100
2694.767	1.838	1838.0	generate	Run4	generate/STIM_005.jpg	100
2698.963	1.456	1456.1	generate	Run4	generate/STIM_005.jpg	100
2703.783	1.086	1085.8	generate	Run4	generate/STIM_005.jpg	99
2708.725	1.823	1823.3	generate	Run4	generate/STIM_006.jpg	100
2713.919	1.817	1816.6	generate	Run4	generate/STIM_006.jpg	99
2718.416	1.81	1810.4	generate	Run4	generate/STIM_006.jpg	99
2723.386	1.934	1934.2	generate	Run4	generate/STIM_006.jpg	99
2727.25	1.756	1756.2	generate	Run4	generate/STIM_006.jpg	99
2731.267	1.206	1206.0	generate	Run4	generate/STIM_007.jpg	100
2734.511	1.903	1902.7	generate	Run4	generate/STIM_007.jpg	100
2738.842	1.909	1909.3	generate	Run4	generate/STIM_007.jpg	99
2743.653	2.133	2132.9	generate	Run4	generate/STIM_007.jpg	100
2748.93	0.883	883.1	generate	Run4	generate/STIM_007.jpg	100
2753.254	1.279	1279.3	generate	Run4	generate/STIM_008.jpg	100
2756.624	1.513	1513.1	generate	Run4	generate/STIM_008.jpg	100
2761.573	1.257	1256.7	generate	Run4	generate/STIM_008.jpg	100
2765.65	1.15	1149.6	generate	Run4	generate/STIM_008.jpg	99
2770.035	1.173	1172.6	generate	Run4	generate/STIM_008.jpg	99
2773.286	1.707	1706.9	generate	Run4	generate/STIM_009.jpg	100
2777.897	1.469	1468.8	generate	Run4	generate/STIM_009.jpg	99
2781.406	0.928	928.0	generate	Run4	generate/STIM_009.jpg	99
2784.959	1.218	1218.2	generate	Run4	generate/STIM_009.jpg	100
2789.471	2.204	2204.3	generate	Run4	generate/STIM_009.jpg	99
2794.745	1.365	1365.4	generate	Run4	generate/STIM_010.jpg	100
2800.085	1.225	1225.0	generate	Run4	generate/STIM_010.jpg	100
2805.058	1.225	1224.8	generate	Run4	generate/STIM_010.jpg	100
2809.181	0.932	931.8	generate	Run4	generate/STIM_010.jpg	99
2813.453	1.631	1630.8	generate	Run4	generate/STIM_010.jpg	99
2818.109	1.092	1092.5	generate	Run4	generate/STIM_011.jpg	100
2823.059	1.932	1932.1	generate	Run4	generate/STIM_011.jpg	99
2828.715	1.714	1713.8	generate	Run4	generate/STIM_011.jpg	99
2833.566	1.946	1945.9	generate	Run4	generate/STIM_011.jpg	99
2839.112	1.074	1074.2	generate	Run4	generate/STIM_011.jpg	99
2843.755	1.616	1615.6	generate	Run4	generate/STIM_012.jpg	100
2847.393	1.852	1851.8	generate	Run4	generate/STIM_012.jpg	99
2853.023	1.148	1148.4	generate	Run4	generate/STIM_012.jpg	100
2856.696	1.688	1687.6	generate	Run4	generate/STIM_012.jpg	100
2861.839	0.953	953.4	generate	Run4	generate/STIM_012.jpg	99
2864.752	0.885	885.2	generate	Run4	generate/STIM_013.jpg	100
2868.902	0.936	936.3	generate	Run4	generate/STIM_013.jpg	99
2873.844	2.056	2056.1	generate	Run4	generate/STIM_013.jpg	100
2878.549	1.765	1764.7	generate	Run4	generate/STIM_013.jpg	100
2883.413	1.167	1167.0	generate	Run4	generate/STIM_013.jpg	100
2887.273	2.083	2083.2	generate	Run4	generate/STIM_014.jpg	99
2891.745	2.01	2009.9	generate	Run4	generate/STIM_014.jpg	99
2896.552	1.646	1645.8	generate	Run4	generate/STIM_014.jpg	99
2901.677	1.83	1830.4	generate	Run4	generate/STIM_014.jpg	100
2905.806	0.903	903.4	generate	Run4	generate/STIM_014.jpg	99
2909.959	1.952	1952.5	generate	Run4	generate/STIM_015.jpg	99
2915.365	1.836	1836.1	generate	Run4	generate/STIM_015.jpg	100
2919.99	2.148	2147.8	generate	Run4	generate/STIM_015.jpg	99
2924.336	1.861	1860.8	generate	Run4	generate/STIM_015.jpg	100
2929.141	1.34	1340.1	generate	Run4	generate/STIM_015.jpg	99
2934.107	1.377	1376.9	generate	Run4	generate/STIM_016.jpg	100
2937.902	1.685	1685.3	generate	Run4	generate/STIM_016.jpg	99
2941.914	1.926	1925.5	generate	Run4	generate/STIM_016.jpg	100
2947.624	1.018	1017.5	generate	Run4	generate/STIM_016.jpg	100
2951.435	1.114	1113.9	generate	Run4	generate/STIM_016.jpg	100
2956.055	1.074	1074.2	generate	Run4	generate/STIM_017.jpg	100
2959.876	1.958	1957.7	generate	Run4	generate/STIM_017.jpg	100
2964.855	1.909	1908.8	generate	Run4	generate/STIM_017.jpg	99
2969.996	1.09	1090.4	generate	Run4	generate/STIM_017.jpg	99
2973.87	1.536	1536.5	generate	Run4	generate/STIM_017.jpg	100
2977.841	1.855	1854.8	generate	Run4	generate/STIM_018.jpg	100
2982.737	1.057	1056.9	generate	Run4	generate/STIM_018.jpg	100
2986.336	1.17	1169.6	generate	Run4	generate/STIM_018.jpg	99
2990.462	2.034	2033.7	generate	Run4	generate/STIM_018.jpg	100
2995.705	1.914	1913.8	generate	Run4	generate/STIM_018.jpg	99
3000.816	1.545	1545.0	generate	Run4	generate/STIM_019.jpg	100
3006.163	1.01	1010.5	generate	Run4	generate/STIM_019.jpg	100
3010.251	1.352	1351.6	generate	Run4	generate/STIM_019.jpg	100
3015.298	2.175	2175.3	generate	Run4	generate/STIM_019.jpg	100
3019.407	2.114	2114.3	generate	Run4	generate/STIM_019.jpg	99
3025.437	1.435	1435.2	generate	Run4	generate/STIM_020.jpg	99
3030.582	1.465	1464.9	generate	Run4	generate/STIM_020.jpg	100
3034.407	1.999	1998.9	generate	Run4	generate/STIM_020.jpg	100
3038.63	1.789	1789.1	generate	Run4	generate/STIM_020.jpg	100
3043.364	1.948	1948.0	generate	Run4	generate/STIM_020.jpg	100
3048.684	1.476	1476.4	generate	Run4	generate/STIM_021.jpg	99
3052.479	1.323	1322.7	generate	Run4	generate/STIM_021.jpg	99
3056.133	1.102	1102.3	generate	Run4	generate/STIM_021.jpg	99
3059.9	1.182	1181.8	generate	Run4	generate/STIM_021.jpg	100
3063.479	1.48	1479.8	generate	Run4	generate/STIM_021.jpg	100
3066.947	1.975	1974.6	generate	Run4	generate/STIM_022.jpg	99
3071.647	1.983	1982.6	generate	Run4	generate/STIM_022.jpg	100
3077.19	0.958	958.3	generate	Run4	generate/STIM_022.jpg	99
3081.779	1.811	1811.1	generate	Run4	generate/STIM_022.jpg	99
3086.461	1.533	1532.6	generate	Run4	generate/STIM_022.jpg	99
3090.796	1.973	1972.6	generate	Run4	generate/STIM_023.jpg	100
3095.504	1.247	1246.7	generate	Run4	generate/STIM_023.jpg	99
3099.997	1.886	1886.0	generate	Run4	generate/STIM_023.jpg	100
3104.528	1.367	1367.1	generate	Run4	generate/STIM_023.jpg	100
3109.771	0.937	936.6	generate	Run4	generate/STIM_023.jpg	99
3114.552	1.702	1701.5	generate	Run4	generate/STIM_024.jpg	99
3118.973	2.056	2055.7	generate	Run4	generate/STIM_024.jpg	100
3124.336	1.656	1655.8	generate	Run4	generate/STIM_024.jpg	99
3128.948	0.91	910.3	generate	Run4	generate/STIM_024.jpg	100
3133.347	2.164	2163.7	generate	Run4	generate/STIM_024.jpg	99
3139.394	0.742	742.0	repeat	Run4	repeat/STIM_000.jpg	100
3143.23	0.555	555.0	repeat	Run4	repeat/STIM_000.jpg	99
3147.52	0.807	806.6	repeat	Run4	repeat/STIM_000.jpg	99
3150.671	0.895	895.0	repeat	Run4	repeat/STIM_000.jpg	99
3153.891	0.984	984.1	repeat	Run4	repeat/STIM_000.jpg	99
3158.388	0.671	671.1	repeat	Run4	repeat/STIM_001.jpg	100
3162.326	0.679	679.0	repeat	Run4	repeat/STIM_001.jpg	100
3166.316	0.973	972.9	repeat	Run4	repeat/STIM_001.jpg	100
3170.769	0.97	970.5	repeat	Run4	repeat/STIM_001.jpg	100
3175.12	0.456	456.2	repeat	Run4	repeat/STIM_001.jpg	100
3179.247	0.781	781.2	repeat	Run4	repeat/STIM_002.jpg	100
3182.489	0.527	527.1	repeat	Run4	repeat/STIM_002.jpg	99
3186.073	0.939	939.4	repeat	Run4	repeat/STIM_002.jpg	99
3190.321	0.642	641.7	repeat	Run4	repeat/STIM_002.jpg	100
3194.72	0.784	784.3	repeat	Run4	repeat/STIM_002.jpg	100
3199.443	0.853	852.9	repeat	Run4	repeat/STIM_003.jpg	100
3204.108	0.87	869.7	repeat	Run4	repeat/STIM_003.jpg	99
3207.635	0.733	733.3	repeat	Run4	repeat/STIM_003.jpg	99
3211.922	0.588	587.5	repeat	Run4	repeat/STIM_003.jpg	100
3215.953	0.803	802.9	repeat	Run4	repeat/STIM_003.jpg	100
3218.804	0.994	993.6	repeat	Run4	repeat/STIM_004.jpg	99
3222.244	0.601	601.2	repeat	Run4	repeat/STIM_004.jpg	99
3226.439	0.743	742.8	repeat	Run4	repeat/STIM_004.jpg	100
3230.474	0.68	679.8	repeat	Run4	repeat/STIM_004.jpg	99
3234.591	0.73	730.0	repeat	Run4	repeat/STIM_004.jpg	100
3237.486	0.964	964.1	repeat	Run4	repeat/STIM_005.jpg	99
3241.116	0.76	759.6	repeat	Run4	repeat/STIM_005.jpg	99
3244.011	0.942	942.3	repeat	Run4	repeat/STIM_005.jpg	99
3247.722	0.795	795.2	repeat	Run4	repeat/STIM_005.jpg	100
3251.898	0.532	532.4	repeat	Run4	repeat/STIM_005.jpg	99
3254.455	0.713	713.3	repeat	Run4	repeat/STIM_006.jpg	99
3258.174	0.999	998.9	repeat	Run4	repeat/STIM_006.jpg	99
3261.948	0.948	948.3	repeat	Run4	repeat/STIM_006.jpg	99
3266.364	0.736	736.5	repeat	Run4	repeat/STIM_006.jpg	100
3269.947	0.851	851.4	repeat	Run4	repeat/STIM_006.jpg	100
3273.207	0.721	720.7	repeat	Run4	repeat/STIM_007.jpg	99
3276.899	0.982	982.0	repeat	Run4	repeat/STIM_007.jpg	99
3281.843	0.943	943.4	repeat	Run4	repeat/STIM_007.jpg	99
3286.094	0.846	846.1	repeat	Run4	repeat/STIM_007.jpg	100
3289.981	0.892	891.8	repeat	Run4	repeat/STIM_007.jpg	100
3293.447	0.896	895.9	repeat	Run4	repeat/STIM_008.jpg	99
3297.799	1.032	1032.3	repeat	Run4	repeat/STIM_008.jpg	100
3301.923	0.729	728.7	repeat	Run4	repeat/STIM_008.jpg	100
3305.938	0.746	746.0	repeat	Run4	repeat/STIM_008.jpg	99
3308.859	0.539	539.2	repeat	Run4	repeat/STIM_008.jpg	99
3312.094	0.693	692.9	repeat	Run4	repeat/STIM_009.jpg	99
3316.237	1.016	1016.4	repeat	Run4	repeat/STIM_009.jpg	100
3319.886	0.785	784.6	repeat	Run4	repeat/STIM_009.jpg	99
3322.646	0.922	921.9	repeat	Run4	repeat/STIM_009.jpg	100
3326.09	0.713	712.6	repeat	Run4	repeat/STIM_009.jpg	99
3329.24	0.783	783.2	repeat	Run4	repeat/STIM_010.jpg	99
3332.056	0.871	870.8	repeat	Run4	repeat/STIM_010.jpg	100
3335.087	0.839	838.7	repeat	Run4	repeat/STIM_010.jpg	100
3338.532	0.865	864.6	repeat	Run4	repeat/STIM_010.jpg	100
3343.317	0.976	976.5	repeat	Run4	repeat/STIM_010.jpg	100
3348.007	1.064	1063.9	repeat	Run4	repeat/STIM_011.jpg	100
3352.403	0.489	489.4	repeat	Run4	repeat/STIM_011.jpg	99
3356.204	0.656	655.8	repeat	Run4	repeat/STIM_011.jpg	100
3359.047	0.505	505.2	repeat	Run4	repeat/STIM_011.jpg	100
3363.52	0.95	950.3	repeat	Run4	repeat/STIM_011.jpg	99
3367.012	0.92	920.5	repeat	Run4	repeat/STIM_012.jpg	99
3371.376	0.813	813.4	repeat	Run4	repeat/STIM_012.jpg	100
3375.376	0.8	799.7	repeat	Run4	repeat/STIM_012.jpg	100
3379.132	0.782	781.6	repeat	Run4	repeat/STIM_012.jpg	99
3383.578	0.537	536.6	repeat	Run4	repeat/STIM_012.jpg	100
3387.322	0.63	629.9	repeat	Run4	repeat/STIM_013.jpg	100
3391.773	0.733	733.1	repeat	Run4	repeat/STIM_013.jpg	99
3394.603	0.697	697.2	repeat	Run4	repeat/STIM_013.jpg	100
3397.851	0.749	749.3	repeat	Run4	repeat/STIM_013.jpg	100
3402.037	0.732	731.9	repeat	Run4	repeat/STIM_013.jpg	99
3405.969	0.501	501.0	repeat	Run4	repeat/STIM_014.jpg	100
3410.427	0.78	779.6	repeat	Run4	repeat/STIM_014.jpg	100
3414.34	0.686	686.1	repeat	Run4	repeat/STIM_014.jpg	100
3418.813	0.895	895.0	repeat	Run4	repeat/STIM_014.jpg	99
3421.627	0.607	607.1	repeat	Run4	repeat/STIM_014.jpg	99
