onset	duration	accuracy	trial_type	learning_stage	stimulus
0.0	0.71	correct	study	Phase1	study/STIM_000.jpg
3.812	1.035	correct	study	Phase1	study/STIM_000.jpg
7.435	1.051	correct	study	Phase1	study/STIM_000.jpg
11.557	1.226	incorrect	study	Phase1	study/STIM_001.jpg
14.797	1.311	correct	study	Phase1	study/STIM_001.jpg
18.571	1.094	correct	study	Phase1	study/STIM_001.jpg
22.814	1.09	correct	study	Phase1	study/STIM_002.jpg
26.871	0.751	correct	study	Phase1	study/STIM_002.jpg
30.771	0.822	correct	study	Phase1	study/STIM_002.jpg
35.353	0.921	correct	study	Phase1	study/STIM_003.jpg
39.151	0.812	correct	study	Phase1	study/STIM_003.jpg
43.131	0.648	correct	study	Phase1	study/STIM_003.jpg
46.928	1.419	incorrect	study	Phase1	study/STIM_004.jpg
51.512	1.001	correct	study	Phase1	study/STIM_004.jpg
54.95	1.332	correct	study	Phase1	study/STIM_004.jpg
59.335	0.745	correct	study	Phase1	study/STIM_005.jpg
63.191	1.288	incorrect	study	Phase1	study/STIM_005.jpg
68.089	1.009	incorrect	study	Phase1	study/STIM_005.jpg
72.01	0.674	correct	study	Phase1	study/STIM_006.jpg
76.587	1.177	correct	study	Phase1	study/STIM_006.jpg
80.165	0.976	correct	study	Phase1	study/STIM_006.jpg
84.495	1.33	correct	study	Phase1	study/STIM_007.jpg
87.999	0.836	correct	study	Phase1	study/STIM_007.jpg
92.353	0.812	correct	study	Phase1	study/STIM_007.jpg
95.867	0.676	correct	study	Phase1	study/STIM_008.jpg
99.881	0.859	correct	study	Phase1	study/STIM_008.jpg
103.225	1.146	correct	study	Phase1	study/STIM_008.jpg
108.115	1.129	correct	study	Phase1	study/STIM_009.jpg
112.888	1.259	correct	study	Phase1	study/STIM_009.jpg
116.243	0.708	correct	study	Phase1	study/STIM_009.jpg
119.591	1.096	correct	study	Phase1	study/STIM_010.jpg
124.174	1.3	correct	study	Phase1	study/STIM_010.jpg
128.306	0.753	correct	study	Phase1	study/STIM_010.jpg
132.159	0.916	correct	study	Phase1	study/STIM_011.jpg
136.554	1.139	correct	study	Phase1	study/STIM_011.jpg
140.238	1.11	correct	study	Phase1	study/STIM_011.jpg
144.264	0.872	incorrect	study	Phase1	study/STIM_012.jpg
147.815	1.363	correct	study	Phase1	study/STIM_012.jpg
152.96	1.242	correct	study	Phase1	study/STIM_012.jpg
157.263	0.814	correct	study	Phase1	study/STIM_013.jpg
160.921	0.767	correct	study	Phase1	study/STIM_013.jpg
165.08	0.969	correct	study	Phase1	study/STIM_013.jpg
169.698	1.192	correct	study	Phase1	study/STIM_014.jpg
173.5	1.215	correct	study	Phase1	study/STIM_014.jpg
178.187	0.986	correct	study	Phase1	study/STIM_014.jpg
182.884	1.317	correct	study	Phase1	study/STIM_015.jpg
187.121	0.893	correct	study	Phase1	study/STIM_015.jpg
191.945	0.699	correct	study	Phase1	study/STIM_015.jpg
196.626	1.503	correct	study	Phase1	study/STIM_016.jpg
201.06	0.78	correct	study	Phase1	study/STIM_016.jpg
205.061	0.844	correct	study	Phase1	study/STIM_016.jpg
208.138	1.204	correct	study	Phase1	study/STIM_017.jpg
212.286	1.248	correct	study	Phase1	study/STIM_017.jpg
215.541	0.697	correct	study	Phase1	study/STIM_017.jpg
218.319	1.475	correct	study	Phase1	study/STIM_018.jpg
222.518	0.886	correct	study	Phase1	study/STIM_018.jpg
226.628	0.672	correct	study	Phase1	study/STIM_018.jpg
230.573	1.344	correct	study	Phase1	study/STIM_019.jpg
235.321	1.333	incorrect	study	Phase1	study/STIM_019.jpg
239.532	1.248	correct	study	Phase1	study/STIM_019.jpg
243.319	1.298	incorrect	study	Phase1	study/STIM_020.jpg
248.029	0.739	incorrect	study	Phase1	study/STIM_020.jpg
251.527	1.358	correct	study	Phase1	study/STIM_020.jpg
256.25	0.782	correct	study	Phase1	study/STIM_021.jpg
259.135	0.695	correct	study	Phase1	study/STIM_021.jpg
263.571	1.155	correct	study	Phase1	study/STIM_021.jpg
266.859	1.253	correct	study	Phase1	study/STIM_022.jpg
271.39	1.048	incorrect	study	Phase1	study/STIM_022.jpg
276.252	1.049	correct	study	Phase1	study/STIM_022.jpg
280.865	1.398	correct	study	Phase1	study/STIM_023.jpg
285.3	0.694	correct	study	Phase1	study/STIM_023.jpg
288.478	0.632	correct	study	Phase1	study/STIM_023.jpg
292.376	1.228	correct	study	Phase1	study/STIM_024.jpg
296.911	1.283	correct	study	Phase1	study/STIM_024.jpg
301.82	0.953	correct	study	Phase1	study/STIM_024.jpg
306.051	0.848	correct	study	Phase1	study/STIM_025.jpg
310.343	1.249	correct	study	Phase1	study/STIM_025.jpg
314.858	1.004	correct	study	Phase1	study/STIM_025.jpg
319.487	1.134	correct	study	Phase1	study/STIM_026.jpg
323.231	0.82	correct	study	Phase1	study/STIM_026.jpg
326.427	0.885	correct	study	Phase1	study/STIM_026.jpg
331.231	0.849	correct	study	Phase1	study/STIM_027.jpg
334.084	0.818	correct	study	Phase1	study/STIM_027.jpg
337.825	0.806	correct	study	Phase1	study/STIM_027.jpg
341.757	1.016	correct	study	Phase1	study/STIM_028.jpg
346.563	1.086	correct	study	Phase1	study/STIM_028.jpg
350.157	0.929	correct	study	Phase1	study/STIM_028.jpg
355.015	0.989	correct	study	Phase1	study/STIM_029.jpg
359.833	0.754	correct	study	Phase1	study/STIM_029.jpg
362.995	1.032	correct	study	Phase1	study/STIM_029.jpg
366.602	0.955	correct	test	Phase1	test/STIM_000.jpg
371.548	0.687	correct	test	Phase1	test/STIM_000.jpg
374.84	0.509	correct	test	Phase1	test/STIM_000.jpg
378.366	0.98	correct	test	Phase1	test/STIM_001.jpg
383.011	0.925	incorrect	test	Phase1	test/STIM_001.jpg
386.148	0.548	correct	test	Phase1	test/STIM_001.jpg
389.818	0.715	correct	test	Phase1	test/STIM_002.jpg
393.319	0.905	correct	test	Phase1	test/STIM_002.jpg
397.937	0.541	correct	test	Phase1	test/STIM_002.jpg
400.857	0.558	correct	test	Phase1	test/STIM_003.jpg
404.748	0.575	correct	test	Phase1	test/STIM_003.jpg
408.135	0.755	correct	test	Phase1	test/STIM_003.jpg
411.589	1.087	correct	test	Phase1	test/STIM_004.jpg
416.361	0.709	correct	test	Phase1	test/STIM_004.jpg
419.238	0.841	correct	test	Phase1	test/STIM_004.jpg
422.222	0.909	correct	test	Phase1	test/STIM_005.jpg
426.436	0.631	correct	test	Phase1	test/STIM_005.jpg
429.216	0.649	correct	test	Phase1	test/STIM_005.jpg
432.117	0.66	correct	test	Phase1	test/STIM_006.jpg
436.676	1.046	correct	test	Phase1	test/STIM_006.jpg
439.855	1.089	incorrect	test	Phase1	test/STIM_006.jpg
444.9	0.82	correct	test	Phase1	test/STIM_007.jpg
448.615	0.87	correct	test	Phase1	test/STIM_007.jpg
451.924	0.953	correct	test	Phase1	test/STIM_007.jpg
455.602	1.015	correct	test	Phase1	test/STIM_008.jpg
458.772	0.626	correct	test	Phase1	test/STIM_008.jpg
461.954	0.601	correct	test	Phase1	test/STIM_008.jpg
465.874	0.583	correct	test	Phase1	test/STIM_009.jpg
469.049	0.702	incorrect	test	Phase1	test/STIM_009.jpg
473.548	1.031	incorrect	test	Phase1	test/STIM_009.jpg
477.366	0.808	correct	test	Phase1	test/STIM_010.jpg
480.298	0.844	correct	test	Phase1	test/STIM_010.jpg
484.043	0.747	correct	test	Phase1	test/STIM_010.jpg
487.992	0.984	correct	test	Phase1	test/STIM_011.jpg
492.596	1.058	correct	test	Phase1	test/STIM_011.jpg
495.994	0.637	correct	test	Phase1	test/STIM_011.jpg
499.276	0.713	correct	test	Phase1	test/STIM_012.jpg
502.71	0.931	correct	test	Phase1	test/STIM_012.jpg
505.87	0.504	correct	test	Phase1	test/STIM_012.jpg
508.851	0.594	correct	test	Phase1	test/STIM_013.jpg
511.817	0.97	correct	test	Phase1	test/STIM_013.jpg
515.122	0.847	correct	test	Phase1	test/STIM_013.jpg
518.364	0.854	correct	test	Phase1	test/STIM_014.jpg
521.911	0.953	correct	test	Phase1	test/STIM_014.jpg
526.696	0.872	correct	test	Phase1	test/STIM_014.jpg
531.065	0.567	correct	test	Phase1	test/STIM_015.jpg
535.298	1.039	correct	test	Phase1	test/STIM_015.jpg
538.961	0.874	correct	test	Phase1	test/STIM_015.jpg
542.977	0.986	correct	test	Phase1	test/STIM_016.jpg
547.001	0.939	correct	test	Phase1	test/STIM_016.jpg
551.283	0.808	correct	test	Phase1	test/STIM_016.jpg
555.2	0.879	correct	test	Phase1	test/STIM_017.jpg
558.524	0.912	correct	test	Phase1	test/STIM_017.jpg
561.691	1.004	correct	test	Phase1	test/STIM_017.jpg
565.777	0.928	correct	test	Phase1	test/STIM_018.jpg
569.026	0.618	incorrect	test	Phase1	test/STIM_018.jpg
571.789	0.67	correct	test	Phase1	test/STIM_018.jpg
574.806	1.075	correct	test	Phase1	test/STIM_019.jpg
579.047	0.904	correct	test	Phase1	test/STIM_019.jpg
582.892	1.026	correct	test	Phase1	test/STIM_019.jpg
587.094	1.062	correct	test	Phase1	test/STIM_020.jpg
590.954	0.532	correct	test	Phase1	test/STIM_020.jpg
595.336	0.53	correct	test	Phase1	test/STIM_020.jpg
599.483	0.718	correct	test	Phase1	test/STIM_021.jpg
603.833	0.832	correct	test	Phase1	test/STIM_021.jpg
607.253	0.901	correct	test	Phase1	test/STIM_021.jpg
611.654	0.864	correct	test	Phase1	test/STIM_022.jpg
616.227	0.837	correct	test	Phase1	test/STIM_022.jpg
619.573	0.889	correct	test	Phase1	test/STIM_022.jpg
623.209	1.063	correct	test	Phase1	test/STIM_023.jpg
627.148	0.978	correct	test	Phase1	test/STIM_023.jpg
631.538	0.679	correct	test	Phase1	test/STIM_023.jpg
635.769	0.519	correct	test	Phase1	test/STIM_024.jpg
640.157	0.984	correct	test	Phase1	test/STIM_024.jpg
644.018	0.925	correct	test	Phase1	test/STIM_024.jpg
647.808	1.002	correct	test	Phase1	test/STIM_025.jpg
651.898	0.7	correct	test	Phase1	test/STIM_025.jpg
654.826	0.72	correct	test	Phase1	test/STIM_025.jpg
658.452	0.764	correct	test	Phase1	test/STIM_026.jpg
663.112	0.553	correct	test	Phase1	test/STIM_026.jpg
666.375	0.621	correct	test	Phase1	test/STIM_026.jpg
670.8	0.989	correct	test	Phase1	test/STIM_027.jpg
674.083	0.901	correct	test	Phase1	test/STIM_027.jpg
678.822	0.966	correct	test	Phase1	test/STIM_027.jpg
682.174	0.592	correct	test	Phase1	test/STIM_028.jpg
685.575	0.748	correct	test	Phase1	test/STIM_028.jpg
689.118	1.018	correct	test	Phase1	test/STIM_028.jpg
692.802	0.626	incorrect	test	Phase1	test/STIM_029.jpg
695.857	0.586	correct	test	Phase1	test/STIM_029.jpg
698.536	0.803	correct	test	Phase1	test/STIM_029.jpg
703.306	0.682	correct	study	Phase2	study/STIM_000.jpg
707.096	0.859	correct	study	Phase2	study/STIM_000.jpg
710.432	0.7	correct	study	Phase2	study/STIM_000.jpg
713.497	0.913	correct	study	Phase2	study/STIM_001.jpg
717.046	0.614	correct	study	Phase2	study/STIM_001.jpg
720.37	0.893	correct	study	Phase2	study/STIM_001.jpg
725.249	0.767	correct	study	Phase2	study/STIM_002.jpg
728.072	0.985	correct	study	Phase2	study/STIM_002.jpg
732.863	0.561	correct	study	Phase2	study/STIM_002.jpg
737.203	1.14	correct	study	Phase2	study/STIM_003.jpg
742.123	0.995	correct	study	Phase2	study/STIM_003.jpg
745.208	0.817	correct	study	Phase2	study/STIM_003.jpg
748.562	0.692	correct	study	Phase2	study/STIM_004.jpg
752.938	0.574	correct	study	Phase2	study/STIM_004.jpg
757.039	0.996	correct	study	Phase2	study/STIM_004.jpg
761.34	0.91	correct	study	Phase2	study/STIM_005.jpg
764.524	0.897	incorrect	study	Phase2	study/STIM_005.jpg
768.358	0.964	correct	study	Phase2	study/STIM_005.jpg
772.338	1.172	correct	study	Phase2	study/STIM_006.jpg
775.766	0.902	correct	study	Phase2	study/STIM_006.jpg
779.082	0.912	correct	study	Phase2	study/STIM_006.jpg
783.529	0.99	correct	study	Phase2	study/STIM_007.jpg
787.219	0.719	correct	study	Phase2	study/STIM_007.jpg
791.538	0.742	correct	study	Phase2	study/STIM_007.jpg
796.045	0.959	correct	study	Phase2	study/STIM_008.jpg
800.585	0.83	correct	study	Phase2	study/STIM_008.jpg
805.219	0.812	correct	study	Phase2	study/STIM_008.jpg
809.486	0.666	correct	study	Phase2	study/STIM_009.jpg
813.983	0.927	correct	study	Phase2	study/STIM_009.jpg
817.814	0.77	correct	study	Phase2	study/STIM_009.jpg
820.935	0.759	correct	study	Phase2	study/STIM_010.jpg
825.066	1.196	correct	study	Phase2	study/STIM_010.jpg
828.67	0.578	correct	study	Phase2	study/STIM_010.jpg
832.011	1.231	correct	study	Phase2	study/STIM_011.jpg
835.33	0.726	correct	study	Phase2	study/STIM_011.jpg
838.61	0.772	correct	study	Phase2	study/STIM_011.jpg
842.898	0.762	correct	study	Phase2	study/STIM_012.jpg
846.857	0.658	correct	study	Phase2	study/STIM_012.jpg
850.017	0.629	correct	study	Phase2	study/STIM_012.jpg
854.06	0.749	correct	study	Phase2	study/STIM_013.jpg
857.118	0.573	incorrect	study	Phase2	study/STIM_013.jpg
860.418	0.634	correct	study	Phase2	study/STIM_013.jpg
864.413	0.765	correct	study	Phase2	study/STIM_014.jpg
867.563	0.701	correct	study	Phase2	study/STIM_014.jpg
871.409	0.572	correct	study	Phase2	study/STIM_014.jpg
874.598	1.097	correct	study	Phase2	study/STIM_015.jpg
879.531	0.859	correct	study	Phase2	study/STIM_015.jpg
883.799	0.616	correct	study	Phase2	study/STIM_015.jpg
886.88	0.707	correct	study	Phase2	study/STIM_016.jpg
891.557	0.748	correct	study	Phase2	study/STIM_016.jpg
895.175	1.03	correct	study	Phase2	study/STIM_016.jpg
898.615	1.199	incorrect	study	Phase2	study/STIM_017.jpg
903.18	1.096	correct	study	Phase2	study/STIM_017.jpg
907.586	0.662	correct	study	Phase2	study/STIM_017.jpg
911.507	1.206	correct	study	Phase2	study/STIM_018.jpg
915.643	0.761	correct	study	Phase2	study/STIM_018.jpg
918.771	0.641	correct	study	Phase2	study/STIM_018.jpg
922.368	0.938	correct	study	Phase2	study/STIM_019.jpg
925.786	0.759	correct	study	Phase2	study/STIM_019.jpg
929.864	0.858	correct	study	Phase2	study/STIM_019.jpg
934.058	0.916	correct	study	Phase2	study/STIM_020.jpg
937.795	1.136	correct	study	Phase2	study/STIM_020.jpg
941.118	0.917	correct	study	Phase2	study/STIM_020.jpg
944.947	1.068	correct	study	Phase2	study/STIM_021.jpg
948.103	0.832	correct	study	Phase2	study/STIM_021.jpg
951.836	0.864	correct	study	Phase2	study/STIM_021.jpg
955.629	0.914	incorrect	study	Phase2	study/STIM_022.jpg
958.871	0.773	correct	study	Phase2	study/STIM_022.jpg
961.976	0.965	correct	study	Phase2	study/STIM_022.jpg
965.566	0.964	correct	study	Phase2	study/STIM_023.jpg
970.209	0.977	correct	study	Phase2	study/STIM_023.jpg
973.512	0.688	correct	study	Phase2	study/STIM_023.jpg
976.716	0.903	correct	study	Phase2	study/STIM_024.jpg
981.402	1.101	correct	study	Phase2	study/STIM_024.jpg
986.324	0.935	correct	study	Phase2	study/STIM_024.jpg
989.754	1.234	correct	study	Phase2	study/STIM_025.jpg
993.152	0.641	correct	study	Phase2	study/STIM_025.jpg
997.039	1.099	correct	study	Phase2	study/STIM_025.jpg
1000.833	1.049	correct	study	Phase2	study/STIM_026.jpg
1004.81	0.548	incorrect	study	Phase2	study/STIM_026.jpg
1008.926	0.632	correct	study	Phase2	study/STIM_026.jpg
1011.822	1.011	correct	study	Phase2	study/STIM_027.jpg
1016.485	1.189	correct	study	Phase2	study/STIM_027.jpg
1019.889	0.852	correct	study	Phase2	study/STIM_027.jpg
1024.059	1.211	correct	study	Phase2	study/STIM_028.jpg
1028.125	0.555	correct	study	Phase2	study/STIM_028.jpg
1032.065	0.801	correct	study	Phase2	study/STIM_028.jpg
1035.343	1.187	correct	study	Phase2	study/STIM_029.jpg
1039.854	0.724	correct	study	Phase2	study/STIM_029.jpg
1043.83	1.096	correct	study	Phase2	study/STIM_029.jpg
1048.605	0.836	correct	test	Phase2	test/STIM_000.jpg
1052.576	0.842	correct	test	Phase2	test/STIM_000.jpg
1056.211	1.035	correct	test	Phase2	test/STIM_000.jpg
1060.697	0.941	correct	test	Phase2	test/STIM_001.jpg
1065.303	1.052	correct	test	Phase2	test/STIM_001.jpg
1068.621	0.966	correct	test	Phase2	test/STIM_001.jpg
1072.805	1.087	correct	test	Phase2	test/STIM_002.jpg
1076.589	0.659	correct	test	Phase2	test/STIM_002.jpg
1079.584	0.806	correct	test	Phase2	test/STIM_002.jpg
1084.01	0.611	correct	test	Phase2	test/STIM_003.jpg
1088.315	0.821	correct	test	Phase2	test/STIM_003.jpg
1092.951	0.709	correct	test	Phase2	test/STIM_003.jpg
1096.83	0.786	correct	test	Phase2	test/STIM_004.jpg
1101.196	0.901	correct	test	Phase2	test/STIM_004.jpg
1105.999	1.017	correct	test	Phase2	test/STIM_004.jpg
1110.717	0.963	correct	test	Phase2	test/STIM_005.jpg
1115.159	1.02	correct	test	Phase2	test/STIM_005.jpg
1120.135	0.616	correct	test	Phase2	test/STIM_005.jpg
1124.61	0.505	correct	test	Phase2	test/STIM_006.jpg
1128.774	1.046	correct	test	Phase2	test/STIM_006.jpg
1133.375	0.79	correct	test	Phase2	test/STIM_006.jpg
1137.678	0.782	correct	test	Phase2	test/STIM_007.jpg
1141.881	0.586	correct	test	Phase2	test/STIM_007.jpg
1144.996	0.706	correct	test	Phase2	test/STIM_007.jpg
1149.491	0.853	correct	test	Phase2	test/STIM_008.jpg
1152.977	0.811	correct	test	Phase2	test/STIM_008.jpg
1157.19	0.808	correct	test	Phase2	test/STIM_008.jpg
1160.487	0.654	correct	test	Phase2	test/STIM_009.jpg
1163.855	0.978	incorrect	test	Phase2	test/STIM_009.jpg
1167.013	0.907	correct	test	Phase2	test/STIM_009.jpg
1171.681	1.011	correct	test	Phase2	test/STIM_010.jpg
1176.322	1.016	correct	test	Phase2	test/STIM_010.jpg
1180.392	0.66	incorrect	test	Phase2	test/STIM_010.jpg
1183.687	0.648	correct	test	Phase2	test/STIM_011.jpg
1187.589	0.646	correct	test	Phase2	test/STIM_011.jpg
1191.653	0.971	correct	test	Phase2	test/STIM_011.jpg
1196.31	0.538	correct	test	Phase2	test/STIM_012.jpg
1199.681	0.695	correct	test	Phase2	test/STIM_012.jpg
1202.641	0.714	correct	test	Phase2	test/STIM_012.jpg
1206.204	1.003	correct	test	Phase2	test/STIM_013.jpg
1210.39	1.087	correct	test	Phase2	test/STIM_013.jpg
1214.839	0.621	correct	test	Phase2	test/STIM_013.jpg
1217.888	0.681	correct	test	Phase2	test/STIM_014.jpg
1220.938	0.557	correct	test	Phase2	test/STIM_014.jpg
1223.497	0.862	correct	test	Phase2	test/STIM_014.jpg
1226.74	0.729	incorrect	test	Phase2	test/STIM_015.jpg
1230.876	0.583	correct	test	Phase2	test/STIM_015.jpg
1234.972	0.895	correct	test	Phase2	test/STIM_015.jpg
1237.991	0.905	correct	test	Phase2	test/STIM_016.jpg
1241.015	1.077	correct	test	Phase2	test/STIM_016.jpg
1244.864	0.608	correct	test	Phase2	test/STIM_016.jpg
1249.397	0.629	correct	test	Phase2	test/STIM_017.jpg
1253.439	0.814	correct	test	Phase2	test/STIM_017.jpg
1258.111	0.863	correct	test	Phase2	test/STIM_017.jpg
1261.954	0.798	correct	test	Phase2	test/STIM_018.jpg
1265.746	0.834	correct	test	Phase2	test/STIM_018.jpg
1268.873	0.895	correct	test	Phase2	test/STIM_018.jpg
1273.449	0.517	correct	test	Phase2	test/STIM_019.jpg
1277.923	0.541	correct	test	Phase2	test/STIM_019.jpg
1280.716	0.989	correct	test	Phase2	test/STIM_019.jpg
1285.155	1.078	incorrect	test	Phase2	test/STIM_020.jpg
1288.842	0.724	correct	test	Phase2	test/STIM_020.jpg
1291.928	0.728	correct	test	Phase2	test/STIM_020.jpg
1295.635	1.064	correct	test	Phase2	test/STIM_021.jpg
1298.777	0.842	correct	test	Phase2	test/STIM_021.jpg
1302.054	0.8	correct	test	Phase2	test/STIM_021.jpg
1306.378	0.64	correct	test	Phase2	test/STIM_022.jpg
1309.629	0.927	correct	test	Phase2	test/STIM_022.jpg
1313.116	0.85	correct	test	Phase2	test/STIM_022.jpg
1316.281	0.891	correct	test	Phase2	test/STIM_023.jpg
1321.156	0.568	correct	test	Phase2	test/STIM_023.jpg
1324.234	0.522	correct	test	Phase2	test/STIM_023.jpg
1327.893	0.916	correct	test	Phase2	test/STIM_024.jpg
1331.105	0.604	correct	test	Phase2	test/STIM_024.jpg
1335.269	0.863	correct	test	Phase2	test/STIM_024.jpg
1339.624	0.647	correct	test	Phase2	test/STIM_025.jpg
1343.094	0.9	correct	test	Phase2	test/STIM_025.jpg
1346.269	0.521	correct	test	Phase2	test/STIM_025.jpg
1349.184	0.718	correct	test	Phase2	test/STIM_026.jpg
1352.802	0.632	correct	test	Phase2	test/STIM_026.jpg
1356.25	0.836	correct	test	Phase2	test/STIM_026.jpg
1360.895	0.506	correct	test	Phase2	test/STIM_027.jpg
1364.887	1.028	correct	test	Phase2	test/STIM_027.jpg
1369.261	0.845	correct	test	Phase2	test/STIM_027.jpg
1373.468	0.651	correct	test	Phase2	test/STIM_028.jpg
1377.851	0.785	correct	test	Phase2	test/STIM_028.jpg
1382.111	0.779	correct	test	Phase2	test/STIM_028.jpg
1385.552	0.675	incorrect	test	Phase2	test/STIM_029.jpg
1389.074	0.849	correct	test	Phase2	test/STIM_029.jpg
1393.372	0.926	correct	test	Phase2	test/STIM_029.jpg
1396.568	0.71	correct	study	Phase3	study/STIM_000.jpg
1401.197	1.029	correct	study	Phase3	study/STIM_000.jpg
1404.281	0.691	correct	study	Phase3	study/STIM_000.jpg
1407.547	0.836	incorrect	study	Phase3	study/STIM_001.jpg
1412.034	0.995	correct	study	Phase3	study/STIM_001.jpg
1416.276	0.693	correct	study	Phase3	study/STIM_001.jpg
1419.925	0.909	correct	study	Phase3	study/STIM_002.jpg
1424.479	0.774	correct	study	Phase3	study/STIM_002.jpg
1428.467	0.508	correct	study	Phase3	study/STIM_002.jpg
1432.616	0.55	correct	study	Phase3	study/STIM_003.jpg
1437.007	0.618	correct	study	Phase3	study/STIM_003.jpg
1440.175	0.926	correct	study	Phase3	study/STIM_003.jpg
1443.956	0.487	correct	study	Phase3	study/STIM_004.jpg
1447.439	0.943	correct	study	Phase3	study/STIM_004.jpg
1452.08	0.564	correct	study	Phase3	study/STIM_004.jpg
1455.312	0.522	correct	study	Phase3	study/STIM_005.jpg
1458.806	0.538	correct	study	Phase3	study/STIM_005.jpg
1461.738	0.985	correct	study	Phase3	study/STIM_005.jpg
1466.627	0.671	correct	study	Phase3	study/STIM_006.jpg
1469.975	0.628	correct	study	Phase3	study/STIM_006.jpg
1473.169	0.64	correct	study	Phase3	study/STIM_006.jpg
1477.739	0.991	correct	study	Phase3	study/STIM_007.jpg
1481.772	0.754	correct	study	Phase3	study/STIM_007.jpg
1485.589	0.537	correct	study	Phase3	study/STIM_007.jpg
1488.301	0.816	correct	study	Phase3	study/STIM_008.jpg
1492.375	0.886	correct	study	Phase3	study/STIM_008.jpg
1496.2	0.506	correct	study	Phase3	study/STIM_008.jpg
1499.391	0.924	correct	study	Phase3	study/STIM_009.jpg
1502.565	0.875	correct	study	Phase3	study/STIM_009.jpg
1505.773	0.914	correct	study	Phase3	study/STIM_009.jpg
1509.153	0.844	correct	study	Phase3	study/STIM_010.jpg
1512.114	0.977	correct	study	Phase3	study/STIM_010.jpg
1515.726	0.783	correct	study	Phase3	study/STIM_010.jpg
1518.864	0.556	correct	study	Phase3	study/STIM_011.jpg
1523.154	0.897	correct	study	Phase3	study/STIM_011.jpg
1527.869	1.047	correct	study	Phase3	study/STIM_011.jpg
1531.623	0.709	incorrect	study	Phase3	study/STIM_012.jpg
1534.892	0.554	correct	study	Phase3	study/STIM_012.jpg
1537.833	1.004	correct	study	Phase3	study/STIM_012.jpg
1541.947	0.926	correct	study	Phase3	study/STIM_013.jpg
1546.301	0.822	correct	study	Phase3	study/STIM_013.jpg
1549.557	0.958	correct	study	Phase3	study/STIM_013.jpg
1553.495	0.563	correct	study	Phase3	study/STIM_014.jpg
1556.447	0.942	correct	study	Phase3	study/STIM_014.jpg
1559.902	0.718	correct	study	Phase3	study/STIM_014.jpg
1563.995	0.983	correct	study	Phase3	study/STIM_015.jpg
1568.889	0.516	correct	study	Phase3	study/STIM_015.jpg
1571.819	0.965	correct	study	Phase3	study/STIM_015.jpg
1575.886	0.707	correct	study	Phase3	study/STIM_016.jpg
1580.342	0.904	correct	study	Phase3	study/STIM_016.jpg
1584.499	0.864	correct	study	Phase3	study/STIM_016.jpg
1588.34	0.855	correct	study	Phase3	study/STIM_017.jpg
1592.657	1.02	correct	study	Phase3	study/STIM_017.jpg
1596.499	0.479	correct	study	Phase3	study/STIM_017.jpg
1599.241	0.891	correct	study	Phase3	study/STIM_018.jpg
1603.578	0.792	correct	study	Phase3	study/STIM_018.jpg
1607.663	0.796	correct	study	Phase3	study/STIM_018.jpg
1612.248	0.786	correct	study	Phase3	study/STIM_019.jpg
1615.296	0.691	correct	study	Phase3	study/STIM_019.jpg
1618.437	0.736	correct	study	Phase3	study/STIM_019.jpg
1621.655	0.902	correct	study	Phase3	study/STIM_020.jpg
1624.93	0.67	correct	study	Phase3	study/STIM_020.jpg
1628.046	0.59	correct	study	Phase3	study/STIM_020.jpg
1632.451	0.852	correct	study	Phase3	study/STIM_021.jpg
1635.819	0.817	correct	study	Phase3	study/STIM_021.jpg
1639.142	0.674	correct	study	Phase3	study/STIM_021.jpg
1641.992	0.698	correct	study	Phase3	study/STIM_022.jpg
1646.001	0.715	correct	study	Phase3	study/STIM_022.jpg
1649.967	0.992	correct	study	Phase3	study/STIM_022.jpg
1654.602	0.629	correct	study	Phase3	study/STIM_023.jpg
1657.232	0.736	correct	study	Phase3	study/STIM_023.jpg
1660.191	0.963	correct	study	Phase3	study/STIM_023.jpg
1665.153	0.763	correct	study	Phase3	study/STIM_024.jpg
1668.444	0.726	correct	study	Phase3	study/STIM_024.jpg
1673.151	0.578	correct	study	Phase3	study/STIM_024.jpg
1675.989	0.994	correct	study	Phase3	study/STIM_025.jpg
1680.551	0.659	correct	study	Phase3	study/STIM_025.jpg
1684.626	0.662	correct	study	Phase3	study/STIM_025.jpg
1688.547	0.644	correct	study	Phase3	study/STIM_026.jpg
1691.668	0.834	correct	study	Phase3	study/STIM_026.jpg
1695.517	0.618	correct	study	Phase3	study/STIM_026.jpg
1698.424	0.86	correct	study	Phase3	study/STIM_027.jpg
1702.211	0.596	correct	study	Phase3	study/STIM_027.jpg
1705.432	0.82	correct	study	Phase3	study/STIM_027.jpg
1709.688	0.741	correct	study	Phase3	study/STIM_028.jpg
1714.299	0.759	correct	study	Phase3	study/STIM_028.jpg
1718.978	0.478	correct	study	Phase3	study/STIM_028.jpg
1722.722	0.996	correct	study	Phase3	study/STIM_029.jpg
1727.341	0.923	correct	study	Phase3	study/STIM_029.jpg
1731.664	0.845	correct	study	Phase3	study/STIM_029.jpg
1734.766	0.946	correct	test	Phase3	test/STIM_000.jpg
1739.189	0.944	correct	test	Phase3	test/STIM_000.jpg
1742.628	0.848	correct	test	Phase3	test/STIM_000.jpg
1746.812	0.589	correct	test	Phase3	test/STIM_001.jpg
1750.041	0.566	correct	test	Phase3	test/STIM_001.jpg
1753.33	0.53	correct	test	Phase3	test/STIM_001.jpg
1757.04	0.581	correct	test	Phase3	test/STIM_002.jpg
1760.225	0.656	correct	test	Phase3	test/STIM_002.jpg
1763.817	0.726	correct	test	Phase3	test/STIM_002.jpg
1768.364	0.689	correct	test	Phase3	test/STIM_003.jpg
1772.134	0.924	correct	test	Phase3	test/STIM_003.jpg
1776.435	0.884	correct	test	Phase3	test/STIM_003.jpg
1781.051	0.581	correct	test	Phase3	test/STIM_004.jpg
1784.542	0.772	correct	test	Phase3	test/STIM_004.jpg
1787.968	0.865	correct	test	Phase3	test/STIM_004.jpg
1790.934	1.02	correct	test	Phase3	test/STIM_005.jpg
1794.37	0.695	correct	test	Phase3	test/STIM_005.jpg
1797.508	0.879	correct	test	Phase3	test/STIM_005.jpg
1800.721	0.64	incorrect	test	Phase3	test/STIM_006.jpg
1805.236	0.872	correct	test	Phase3	test/STIM_006.jpg
1809.716	1.046	correct	test	Phase3	test/STIM_006.jpg
1813.108	0.686	correct	test	Phase3	test/STIM_007.jpg
1816.197	0.604	correct	test	Phase3	test/STIM_007.jpg
1818.973	0.747	correct	test	Phase3	test/STIM_007.jpg
1822.307	0.92	correct	test	Phase3	test/STIM_008.jpg
1827.224	0.532	correct	test	Phase3	test/STIM_008.jpg
1831.33	1.078	correct	test	Phase3	test/STIM_008.jpg
1836.004	1.076	correct	test	Phase3	test/STIM_009.jpg
1839.196	1.001	correct	test	Phase3	test/STIM_009.jpg
1843.111	0.505	correct	test	Phase3	test/STIM_009.jpg
1846.959	0.969	correct	test	Phase3	test/STIM_010.jpg
1850.184	0.762	correct	test	Phase3	test/STIM_010.jpg
1854.453	0.639	correct	test	Phase3	test/STIM_010.jpg
1857.972	0.873	correct	test	Phase3	test/STIM_011.jpg
1861.074	0.762	correct	test	Phase3	test/STIM_011.jpg
1865.771	0.92	correct	test	Phase3	test/STIM_011.jpg
1869.098	0.724	correct	test	Phase3	test/STIM_012.jpg
1873.323	0.602	correct	test	Phase3	test/STIM_012.jpg
1876.251	0.876	correct	test	Phase3	test/STIM_012.jpg
1880.794	0.934	correct	test	Phase3	test/STIM_013.jpg
1885.385	0.7	correct	test	Phase3	test/STIM_013.jpg
1888.587	0.784	correct	test	Phase3	test/STIM_013.jpg
1891.44	1.035	correct	test	Phase3	test/STIM_014.jpg
1894.859	0.598	correct	test	Phase3	test/STIM_014.jpg
1897.621	0.762	correct	test	Phase3	test/STIM_014.jpg
1900.85	0.58	correct	test	Phase3	test/STIM_015.jpg
1904.11	0.586	correct	test	Phase3	test/STIM_015.jpg
1907.639	0.582	correct	test	Phase3	test/STIM_015.jpg
1911.772	0.695	incorrect	test	Phase3	test/STIM_016.jpg
1916.216	0.755	correct	test	Phase3	test/STIM_016.jpg
1920.455	0.558	correct	test	Phase3	test/STIM_016.jpg
1924.093	0.902	correct	test	Phase3	test/STIM_017.jpg
1926.996	0.7	correct	test	Phase3	test/STIM_017.jpg
1930.567	0.557	correct	test	Phase3	test/STIM_017.jpg
1933.361	0.953	correct	test	Phase3	test/STIM_018.jpg
1936.611	0.708	correct	test	Phase3	test/STIM_018.jpg
1940.747	0.526	correct	test	Phase3	test/STIM_018.jpg
1943.514	0.838	correct	test	Phase3	test/STIM_019.jpg
1947.528	0.705	correct	test	Phase3	test/STIM_019.jpg
1951.798	0.969	correct	test	Phase3	test/STIM_019.jpg
1956.661	0.849	correct	test	Phase3	test/STIM_020.jpg
1960.74	0.788	correct	test	Phase3	test/STIM_020.jpg
1963.968	0.565	correct	test	Phase3	test/STIM_020.jpg
1968.23	1.04	correct	test	Phase3	test/STIM_021.jpg
1973.08	1.083	correct	test	Phase3	test/STIM_021.jpg
1976.47	0.861	correct	test	Phase3	test/STIM_021.jpg
1980.024	0.932	correct	test	Phase3	test/STIM_022.jpg
1983.031	0.913	correct	test	Phase3	test/STIM_022.jpg
1986.715	0.685	correct	test	Phase3	test/STIM_022.jpg
1989.709	0.928	correct	test	Phase3	test/STIM_023.jpg
1994.308	1.037	correct	test	Phase3	test/STIM_023.jpg
1998.09	0.972	correct	test	Phase3	test/STIM_023.jpg
2001.601	0.943	correct	test	Phase3	test/STIM_024.jpg
2004.764	0.918	correct	test	Phase3	test/STIM_024.jpg
2008.294	1.022	correct	test	Phase3	test/STIM_024.jpg
2012.845	0.731	correct	test	Phase3	test/STIM_025.jpg
2016.457	0.744	correct	test	Phase3	test/STIM_025.jpg
2020.877	0.51	correct	test	Phase3	test/STIM_025.jpg
2023.797	1.022	correct	test	Phase3	test/STIM_026.jpg
2027.498	0.923	correct	test	Phase3	test/STIM_026.jpg
2031.688	0.698	correct	test	Phase3	test/STIM_026.jpg
2034.494	1.065	correct	test	Phase3	test/STIM_027.jpg
2038.169	1.01	correct	test	Phase3	test/STIM_027.jpg
2043.173	0.91	correct	test	Phase3	test/STIM_027.jpg
2046.386	0.862	correct	test	Phase3	test/STIM_028.jpg
2050.816	0.585	correct	test	Phase3	test/STIM_028.jpg
2054.355	0.977	correct	test	Phase3	test/STIM_028.jpg
2058.828	0.647	correct	test	Phase3	test/STIM_029.jpg
2062.237	0.515	correct	test	Phase3	test/STIM_029.jpg
2065.491	0.544	correct	test	Phase3	test/STIM_029.jpg
