onset	duration	accuracy	trial_type	learning_stage	stimulus
0.0	1.452	correct	study	Phase1	study/STIM_000.jpg
4.564	1.224	correct	study	Phase1	study/STIM_000.jpg
9.355	1.686	correct	study	Phase1	study/STIM_000.jpg
13.492	1.881	incorrect	study	Phase1	study/STIM_001.jpg
18.55	1.388	correct	study	Phase1	study/STIM_001.jpg
23.438	1.489	correct	study	Phase1	study/STIM_001.jpg
27.692	1.134	correct	study	Phase1	study/STIM_002.jpg
32.269	1.374	correct	study	Phase1	study/STIM_002.jpg
36.014	1.427	correct	study	Phase1	study/STIM_002.jpg
40.996	1.292	correct	study	Phase1	study/STIM_003.jpg
45.572	1.52	correct	study	Phase1	study/STIM_003.jpg
50.442	1.067	incorrect	study	Phase1	study/STIM_003.jpg
55.13	1.168	incorrect	study	Phase1	study/STIM_004.jpg
58.869	1.464	correct	study	Phase1	study/STIM_004.jpg
63.344	1.198	correct	study	Phase1	study/STIM_004.jpg
66.817	1.184	correct	study	Phase1	study/STIM_005.jpg
70.426	0.846	incorrect	study	Phase1	study/STIM_005.jpg
73.752	1.65	incorrect	study	Phase1	study/STIM_005.jpg
78.261	1.173	correct	study	Phase1	study/STIM_006.jpg
82.082	1.657	correct	study	Phase1	study/STIM_006.jpg
86.216	1.375	correct	study	Phase1	study/STIM_006.jpg
90.935	0.926	correct	study	Phase1	study/STIM_007.jpg
95.358	1.027	correct	study	Phase1	study/STIM_007.jpg
99.781	1.039	correct	study	Phase1	study/STIM_007.jpg
102.891	1.49	correct	study	Phase1	study/STIM_008.jpg
107.327	1.64	correct	study	Phase1	study/STIM_008.jpg
112.648	1.322	correct	study	Phase1	study/STIM_008.jpg
116.595	1.118	correct	study	Phase1	study/STIM_009.jpg
119.897	1.008	correct	study	Phase1	study/STIM_009.jpg
123.582	1.242	correct	study	Phase1	study/STIM_009.jpg
128.219	1.283	correct	study	Phase1	study/STIM_010.jpg
133.196	1.268	correct	study	Phase1	study/STIM_010.jpg
137.743	1.313	correct	study	Phase1	study/STIM_010.jpg
141.495	0.92	correct	study	Phase1	study/STIM_011.jpg
144.882	1.7	correct	study	Phase1	study/STIM_011.jpg
149.897	1.591	correct	study	Phase1	study/STIM_011.jpg
153.789	1.872	correct	study	Phase1	study/STIM_012.jpg
157.96	1.513	correct	study	Phase1	study/STIM_012.jpg
161.479	1.383	incorrect	study	Phase1	study/STIM_012.jpg
166.542	1.42	correct	study	Phase1	study/STIM_013.jpg
170.062	1.656	incorrect	study	Phase1	study/STIM_013.jpg
174.789	1.317	correct	study	Phase1	study/STIM_013.jpg
180.013	1.2	correct	study	Phase1	study/STIM_014.jpg
184.379	0.808	correct	study	Phase1	study/STIM_014.jpg
187.779	1.057	correct	study	Phase1	study/STIM_014.jpg
191.224	1.507	correct	study	Phase1	study/STIM_015.jpg
195.577	1.616	correct	study	Phase1	study/STIM_015.jpg
200.498	0.971	correct	study	Phase1	study/STIM_015.jpg
204.502	1.78	correct	study	Phase1	study/STIM_016.jpg
209.156	1.09	correct	study	Phase1	study/STIM_016.jpg
212.8	1.267	correct	study	Phase1	study/STIM_016.jpg
217.919	1.584	incorrect	study	Phase1	study/STIM_017.jpg
222.245	1.448	correct	study	Phase1	study/STIM_017.jpg
225.714	1.598	correct	study	Phase1	study/STIM_017.jpg
229.461	0.899	correct	study	Phase1	study/STIM_018.jpg
232.398	1.608	correct	study	Phase1	study/STIM_018.jpg
237.395	1.342	correct	study	Phase1	study/STIM_018.jpg
241.591	1.791	correct	study	Phase1	study/STIM_019.jpg
245.354	1.543	correct	study	Phase1	study/STIM_019.jpg
249.231	1.087	correct	study	Phase1	study/STIM_019.jpg
253.384	1.819	incorrect	study	Phase1	study/STIM_020.jpg
258.419	1.076	incorrect	study	Phase1	study/STIM_020.jpg
262.177	1.19	correct	study	Phase1	study/STIM_020.jpg
265.891	1.204	correct	study	Phase1	study/STIM_021.jpg
269.55	0.942	correct	study	Phase1	study/STIM_021.jpg
273.083	1.09	correct	study	Phase1	study/STIM_021.jpg
277.862	1.034	correct	study	Phase1	study/STIM_022.jpg
281.504	1.732	incorrect	study	Phase1	study/STIM_022.jpg
285.381	1.083	correct	study	Phase1	study/STIM_022.jpg
289.909	1.276	correct	study	Phase1	study/STIM_023.jpg
293.149	1.794	correct	study	Phase1	study/STIM_023.jpg
297.486	1.222	correct	study	Phase1	study/STIM_023.jpg
301.701	1.115	correct	study	Phase1	study/STIM_024.jpg
305.171	0.841	correct	study	Phase1	study/STIM_024.jpg
307.989	1.111	correct	study	Phase1	study/STIM_024.jpg
311.461	1.419	correct	study	Phase1	study/STIM_025.jpg
315.035	0.939	correct	study	Phase1	study/STIM_025.jpg
318.151	1.261	correct	study	Phase1	study/STIM_025.jpg
323.101	1.006	correct	study	Phase1	study/STIM_026.jpg
327.474	1.543	correct	study	Phase1	study/STIM_026.jpg
331.34	1.306	correct	study	Phase1	study/STIM_026.jpg
336.056	1.509	correct	study	Phase1	study/STIM_027.jpg
340.356	1.429	correct	study	Phase1	study/STIM_027.jpg
345.171	0.921	correct	study	Phase1	study/STIM_027.jpg
349.722	1.556	correct	study	Phase1	study/STIM_028.jpg
353.434	1.325	correct	study	Phase1	study/STIM_028.jpg
358.214	1.101	correct	study	Phase1	study/STIM_028.jpg
361.791	1.702	correct	study	Phase1	study/STIM_029.jpg
366.351	1.231	correct	study	Phase1	study/STIM_029.jpg
370.06	1.278	correct	study	Phase1	study/STIM_029.jpg
374.457	1.044	correct	test	Phase1	test/STIM_000.jpg
377.902	1.145	correct	test	Phase1	test/STIM_000.jpg
382.062	1.279	correct	test	Phase1	test/STIM_000.jpg
386.954	0.718	correct	test	Phase1	test/STIM_001.jpg
390.596	0.905	incorrect	test	Phase1	test/STIM_001.jpg
393.626	1.121	correct	test	Phase1	test/STIM_001.jpg
397.019	0.985	correct	test	Phase1	test/STIM_002.jpg
400.627	0.618	correct	test	Phase1	test/STIM_002.jpg
403.283	0.816	correct	test	Phase1	test/STIM_002.jpg
407.562	1.027	correct	test	Phase1	test/STIM_003.jpg
410.976	1.05	correct	test	Phase1	test/STIM_003.jpg
415.944	1.005	correct	test	Phase1	test/STIM_003.jpg
419.117	1.081	correct	test	Phase1	test/STIM_004.jpg
423.708	0.944	correct	test	Phase1	test/STIM_004.jpg
427.171	0.766	correct	test	Phase1	test/STIM_004.jpg
430.152	0.592	correct	test	Phase1	test/STIM_005.jpg
434.226	0.761	correct	test	Phase1	test/STIM_005.jpg
438.449	1.069	correct	test	Phase1	test/STIM_005.jpg
441.965	1.018	correct	test	Phase1	test/STIM_006.jpg
445.551	1.112	correct	test	Phase1	test/STIM_006.jpg
450.431	1.247	incorrect	test	Phase1	test/STIM_006.jpg
455.477	0.91	correct	test	Phase1	test/STIM_007.jpg
458.691	1.252	incorrect	test	Phase1	test/STIM_007.jpg
463.574	1.459	correct	test	Phase1	test/STIM_007.jpg
468.494	0.818	correct	test	Phase1	test/STIM_008.jpg
471.57	0.975	correct	test	Phase1	test/STIM_008.jpg
475.567	1.265	correct	test	Phase1	test/STIM_008.jpg
479.586	1.215	correct	test	Phase1	test/STIM_009.jpg
483.522	0.627	incorrect	test	Phase1	test/STIM_009.jpg
488.047	1.352	incorrect	test	Phase1	test/STIM_009.jpg
491.667	0.616	correct	test	Phase1	test/STIM_010.jpg
496.08	0.919	correct	test	Phase1	test/STIM_010.jpg
500.787	0.725	correct	test	Phase1	test/STIM_010.jpg
505.323	1.247	correct	test	Phase1	test/STIM_011.jpg
510.412	0.874	correct	test	Phase1	test/STIM_011.jpg
513.348	0.663	correct	test	Phase1	test/STIM_011.jpg
516.582	1.28	correct	test	Phase1	test/STIM_012.jpg
520.023	1.077	correct	test	Phase1	test/STIM_012.jpg
524.361	0.653	correct	test	Phase1	test/STIM_012.jpg
528.258	1.034	correct	test	Phase1	test/STIM_013.jpg
531.379	1.057	correct	test	Phase1	test/STIM_013.jpg
536.303	0.805	correct	test	Phase1	test/STIM_013.jpg
538.995	0.881	correct	test	Phase1	test/STIM_014.jpg
542.532	1.152	correct	test	Phase1	test/STIM_014.jpg
547.385	0.958	correct	test	Phase1	test/STIM_014.jpg
551.075	1.006	correct	test	Phase1	test/STIM_015.jpg
555.633	1.233	correct	test	Phase1	test/STIM_015.jpg
559.121	1.314	correct	test	Phase1	test/STIM_015.jpg
562.837	1.124	correct	test	Phase1	test/STIM_016.jpg
566.189	0.974	correct	test	Phase1	test/STIM_016.jpg
570.935	1.356	correct	test	Phase1	test/STIM_016.jpg
575.781	0.977	correct	test	Phase1	test/STIM_017.jpg
578.989	1.351	correct	test	Phase1	test/STIM_017.jpg
583.812	0.795	correct	test	Phase1	test/STIM_017.jpg
586.872	1.26	correct	test	Phase1	test/STIM_018.jpg
591.45	0.806	correct	test	Phase1	test/STIM_018.jpg
595.161	1.002	correct	test	Phase1	test/STIM_018.jpg
599.425	0.703	correct	test	Phase1	test/STIM_019.jpg
603.609	0.893	correct	test	Phase1	test/STIM_019.jpg
608.135	0.911	correct	test	Phase1	test/STIM_019.jpg
611.122	1.152	correct	test	Phase1	test/STIM_020.jpg
616.157	0.649	correct	test	Phase1	test/STIM_020.jpg
619.852	1.087	correct	test	Phase1	test/STIM_020.jpg
624.341	0.551	correct	test	Phase1	test/STIM_021.jpg
628.172	0.774	correct	test	Phase1	test/STIM_021.jpg
632.226	1.011	correct	test	Phase1	test/STIM_021.jpg
636.03	0.806	correct	test	Phase1	test/STIM_022.jpg
640.058	0.774	correct	test	Phase1	test/STIM_022.jpg
644.57	1.318	correct	test	Phase1	test/STIM_022.jpg
649.587	0.867	correct	test	Phase1	test/STIM_023.jpg
653.608	0.642	correct	test	Phase1	test/STIM_023.jpg
656.646	1.314	correct	test	Phase1	test/STIM_023.jpg
661.425	1.129	correct	test	Phase1	test/STIM_024.jpg
666.109	1.281	correct	test	Phase1	test/STIM_024.jpg
669.944	0.785	correct	test	Phase1	test/STIM_024.jpg
674.718	1.059	correct	test	Phase1	test/STIM_025.jpg
678.491	1.231	correct	test	Phase1	test/STIM_025.jpg
683.114	1.267	correct	test	Phase1	test/STIM_025.jpg
687.574	1.209	correct	test	Phase1	test/STIM_026.jpg
692.349	0.76	correct	test	Phase1	test/STIM_026.jpg
696.863	0.767	correct	test	Phase1	test/STIM_026.jpg
700.544	1.014	correct	test	Phase1	test/STIM_027.jpg
704.936	1.33	correct	test	Phase1	test/STIM_027.jpg
710.052	1.336	correct	test	Phase1	test/STIM_027.jpg
713.879	1.168	correct	test	Phase1	test/STIM_028.jpg
718.966	1.179	correct	test	Phase1	test/STIM_028.jpg
722.553	0.666	correct	test	Phase1	test/STIM_028.jpg
725.745	0.86	incorrect	test	Phase1	test/STIM_029.jpg
730.487	1.411	correct	test	Phase1	test/STIM_029.jpg
734.035	0.933	correct	test	Phase1	test/STIM_029.jpg
738.358	1.235	correct	study	Phase2	study/STIM_000.jpg
742.757	1.107	correct	study	Phase2	study/STIM_000.jpg
747.691	0.885	correct	study	Phase2	study/STIM_000.jpg
750.968	1.241	correct	study	Phase2	study/STIM_001.jpg
754.597	1.359	correct	study	Phase2	study/STIM_001.jpg
759.328	1.351	correct	study	Phase2	study/STIM_001.jpg
762.85	1.008	correct	study	Phase2	study/STIM_002.jpg
767.481	1.079	correct	study	Phase2	study/STIM_002.jpg
771.351	0.68	correct	study	Phase2	study/STIM_002.jpg
775.487	1.416	correct	study	Phase2	study/STIM_003.jpg
779.973	1.388	correct	study	Phase2	study/STIM_003.jpg
783.926	0.867	incorrect	study	Phase2	study/STIM_003.jpg
787.656	1.462	correct	study	Phase2	study/STIM_004.jpg
792.175	0.838	correct	study	Phase2	study/STIM_004.jpg
795.234	0.713	correct	study	Phase2	study/STIM_004.jpg
798.842	1.261	correct	study	Phase2	study/STIM_005.jpg
802.155	1.45	correct	study	Phase2	study/STIM_005.jpg
806.467	1.354	correct	study	Phase2	study/STIM_005.jpg
810.808	1.196	incorrect	study	Phase2	study/STIM_006.jpg
815.38	1.392	correct	study	Phase2	study/STIM_006.jpg
820.169	0.806	correct	study	Phase2	study/STIM_006.jpg
823.024	1.357	correct	study	Phase2	study/STIM_007.jpg
828.199	1.07	correct	study	Phase2	study/STIM_007.jpg
831.846	0.981	correct	study	Phase2	study/STIM_007.jpg
835.133	0.874	correct	study	Phase2	study/STIM_008.jpg
838.419	1.529	correct	study	Phase2	study/STIM_008.jpg
842.624	0.94	correct	study	Phase2	study/STIM_008.jpg
845.744	1.622	correct	study	Phase2	study/STIM_009.jpg
851.064	0.927	correct	study	Phase2	study/STIM_009.jpg
854.47	0.941	correct	study	Phase2	study/STIM_009.jpg
858.316	0.862	correct	study	Phase2	study/STIM_010.jpg
861.561	0.959	correct	study	Phase2	study/STIM_010.jpg
865.681	1.217	correct	study	Phase2	study/STIM_010.jpg
870.077	1.15	correct	study	Phase2	study/STIM_011.jpg
874.374	1.04	correct	study	Phase2	study/STIM_011.jpg
879.202	0.705	correct	study	Phase2	study/STIM_011.jpg
882.982	1.438	incorrect	study	Phase2	study/STIM_012.jpg
887.091	1.305	correct	study	Phase2	study/STIM_012.jpg
891.946	1.199	correct	study	Phase2	study/STIM_012.jpg
896.536	0.848	correct	study	Phase2	study/STIM_013.jpg
900.389	1.104	incorrect	study	Phase2	study/STIM_013.jpg
904.939	1.101	correct	study	Phase2	study/STIM_013.jpg
909.736	1.264	correct	study	Phase2	study/STIM_014.jpg
913.809	0.663	correct	study	Phase2	study/STIM_014.jpg
917.582	0.711	correct	study	Phase2	study/STIM_014.jpg
922.059	0.858	correct	study	Phase2	study/STIM_015.jpg
926.216	1.384	correct	study	Phase2	study/STIM_015.jpg
930.856	0.927	correct	study	Phase2	study/STIM_015.jpg
935.381	1.644	correct	study	Phase2	study/STIM_016.jpg
939.702	0.956	correct	study	Phase2	study/STIM_016.jpg
944.6	1.151	correct	study	Phase2	study/STIM_016.jpg
948.692	0.859	incorrect	study	Phase2	study/STIM_017.jpg
951.885	0.839	correct	study	Phase2	study/STIM_017.jpg
956.432	1.255	correct	study	Phase2	study/STIM_017.jpg
960.922	1.172	correct	study	Phase2	study/STIM_018.jpg
965.549	0.697	correct	study	Phase2	study/STIM_018.jpg
969.607	0.986	correct	study	Phase2	study/STIM_018.jpg
973.878	1.165	correct	study	Phase2	study/STIM_019.jpg
977.764	1.29	correct	study	Phase2	study/STIM_019.jpg
982.016	0.71	correct	study	Phase2	study/STIM_019.jpg
985.341	0.972	correct	study	Phase2	study/STIM_020.jpg
989.29	1.035	correct	study	Phase2	study/STIM_020.jpg
993.767	0.664	correct	study	Phase2	study/STIM_020.jpg
997.339	1.059	correct	study	Phase2	study/STIM_021.jpg
1001.451	1.153	correct	study	Phase2	study/STIM_021.jpg
1006.062	1.027	correct	study	Phase2	study/STIM_021.jpg
1010.64	0.681	incorrect	study	Phase2	study/STIM_022.jpg
1014.482	1.042	correct	study	Phase2	study/STIM_022.jpg
1018.553	1.073	correct	study	Phase2	study/STIM_022.jpg
1023.34	1.251	correct	study	Phase2	study/STIM_023.jpg
1027.666	1.425	correct	study	Phase2	study/STIM_023.jpg
1032.697	0.976	correct	study	Phase2	study/STIM_023.jpg
1036.765	0.868	correct	study	Phase2	study/STIM_024.jpg
1040.886	1.413	correct	study	Phase2	study/STIM_024.jpg
1044.955	0.941	incorrect	study	Phase2	study/STIM_024.jpg
1049.551	1.055	correct	study	Phase2	study/STIM_025.jpg
1053.58	0.693	correct	study	Phase2	study/STIM_025.jpg
1057.279	0.998	correct	study	Phase2	study/STIM_025.jpg
1061.87	0.958	incorrect	study	Phase2	study/STIM_026.jpg
1066.753	1.044	incorrect	study	Phase2	study/STIM_026.jpg
1071.02	0.788	correct	study	Phase2	study/STIM_026.jpg
1075.445	0.849	correct	study	Phase2	study/STIM_027.jpg
1079.039	1.648	correct	study	Phase2	study/STIM_027.jpg
1082.643	0.837	correct	study	Phase2	study/STIM_027.jpg
1085.445	1.031	correct	study	Phase2	study/STIM_028.jpg
1088.864	1.126	correct	study	Phase2	study/STIM_028.jpg
1093.828	1.281	correct	study	Phase2	study/STIM_028.jpg
1097.515	1.68	correct	study	Phase2	study/STIM_029.jpg
1101.264	0.853	correct	study	Phase2	study/STIM_029.jpg
1105.126	0.749	correct	study	Phase2	study/STIM_029.jpg
1107.95	0.926	correct	test	Phase2	test/STIM_000.jpg
1111.194	1.12	correct	test	Phase2	test/STIM_000.jpg
1115.804	1.199	correct	test	Phase2	test/STIM_000.jpg
1119.767	0.947	correct	test	Phase2	test/STIM_001.jpg
1124.402	1.373	correct	test	Phase2	test/STIM_001.jpg
1128.488	0.712	correct	test	Phase2	test/STIM_001.jpg
1132.336	1.308	correct	test	Phase2	test/STIM_002.jpg
1137.093	0.791	correct	test	Phase2	test/STIM_002.jpg
1139.996	0.811	correct	test	Phase2	test/STIM_002.jpg
1144.476	1.307	correct	test	Phase2	test/STIM_003.jpg
1147.956	1.216	correct	test	Phase2	test/STIM_003.jpg
1151.733	0.841	correct	test	Phase2	test/STIM_003.jpg
1155.94	0.705	correct	test	Phase2	test/STIM_004.jpg
1159.451	1.282	correct	test	Phase2	test/STIM_004.jpg
1164.577	0.9	correct	test	Phase2	test/STIM_004.jpg
1167.993	1.408	correct	test	Phase2	test/STIM_005.jpg
1172.61	1.421	correct	test	Phase2	test/STIM_005.jpg
1177.154	1.311	correct	test	Phase2	test/STIM_005.jpg
1180.895	0.689	correct	test	Phase2	test/STIM_006.jpg
1185.091	1.289	correct	test	Phase2	test/STIM_006.jpg
1189.473	0.629	correct	test	Phase2	test/STIM_006.jpg
1193.31	1.209	correct	test	Phase2	test/STIM_007.jpg
1197.77	1.316	correct	test	Phase2	test/STIM_007.jpg
1202.276	0.817	correct	test	Phase2	test/STIM_007.jpg
1206.27	1.074	correct	test	Phase2	test/STIM_008.jpg
1210.603	0.953	correct	test	Phase2	test/STIM_008.jpg
1214.541	0.806	correct	test	Phase2	test/STIM_008.jpg
1217.717	0.988	correct	test	Phase2	test/STIM_009.jpg
1221.572	1.222	incorrect	test	Phase2	test/STIM_009.jpg
1226.099	1.029	correct	test	Phase2	test/STIM_009.jpg
1231.037	1.241	correct	test	Phase2	test/STIM_010.jpg
1234.714	0.953	correct	test	Phase2	test/STIM_010.jpg
1238.355	1.039	incorrect	test	Phase2	test/STIM_010.jpg
1242.525	1.149	correct	test	Phase2	test/STIM_011.jpg
1247.452	1.139	correct	test	Phase2	test/STIM_011.jpg
1251.773	1.159	correct	test	Phase2	test/STIM_011.jpg
1256.583	1.25	correct	test	Phase2	test/STIM_012.jpg
1259.975	1.198	correct	test	Phase2	test/STIM_012.jpg
1264.802	1.149	correct	test	Phase2	test/STIM_012.jpg
1269.83	1.374	correct	test	Phase2	test/STIM_013.jpg
1274.522	0.84	correct	test	Phase2	test/STIM_013.jpg
1277.503	1.288	correct	test	Phase2	test/STIM_013.jpg
1281.285	1.041	correct	test	Phase2	test/STIM_014.jpg
1286.266	1.155	correct	test	Phase2	test/STIM_014.jpg
1291.254	0.988	correct	test	Phase2	test/STIM_014.jpg
1295.852	0.68	incorrect	test	Phase2	test/STIM_015.jpg
1300.03	0.834	correct	test	Phase2	test/STIM_015.jpg
1303.128	1.153	correct	test	Phase2	test/STIM_015.jpg
1308.158	1.217	correct	test	Phase2	test/STIM_016.jpg
1311.624	1.306	correct	test	Phase2	test/STIM_016.jpg
1316.663	0.852	correct	test	Phase2	test/STIM_016.jpg
1320.698	1.385	correct	test	Phase2	test/STIM_017.jpg
1324.021	1.408	correct	test	Phase2	test/STIM_017.jpg
1328.514	0.786	correct	test	Phase2	test/STIM_017.jpg
1331.565	1.23	correct	test	Phase2	test/STIM_018.jpg
1334.902	0.788	correct	test	Phase2	test/STIM_018.jpg
1338.775	1.218	correct	test	Phase2	test/STIM_018.jpg
1342.027	0.974	correct	test	Phase2	test/STIM_019.jpg
1345.649	1.189	correct	test	Phase2	test/STIM_019.jpg
1349.642	0.728	incorrect	test	Phase2	test/STIM_019.jpg
1352.782	1.024	incorrect	test	Phase2	test/STIM_020.jpg
1356.694	1.124	correct	test	Phase2	test/STIM_020.jpg
1361.286	1.402	correct	test	Phase2	test/STIM_020.jpg
1365.028	1.071	correct	test	Phase2	test/STIM_021.jpg
1368.689	0.944	correct	test	Phase2	test/STIM_021.jpg
1372.583	1.118	correct	test	Phase2	test/STIM_021.jpg
1376.025	0.98	correct	test	Phase2	test/STIM_022.jpg
1380.375	0.724	correct	test	Phase2	test/STIM_022.jpg
1383.667	1.104	incorrect	test	Phase2	test/STIM_022.jpg
1388.497	1.13	correct	test	Phase2	test/STIM_023.jpg
1392.942	0.728	correct	test	Phase2	test/STIM_023.jpg
1396.641	1.043	correct	test	Phase2	test/STIM_023.jpg
1401.146	1.145	correct	test	Phase2	test/STIM_024.jpg
1405.25	1.034	correct	test	Phase2	test/STIM_024.jpg
1409.94	0.813	correct	test	Phase2	test/STIM_024.jpg
1413.027	0.795	correct	test	Phase2	test/STIM_025.jpg
1417.412	1.0	correct	test	Phase2	test/STIM_025.jpg
1420.889	0.989	correct	test	Phase2	test/STIM_025.jpg
1425.268	1.186	correct	test	Phase2	test/STIM_026.jpg
1428.984	0.687	correct	test	Phase2	test/STIM_026.jpg
1432.211	0.752	correct	test	Phase2	test/STIM_026.jpg
1436.639	1.213	correct	test	Phase2	test/STIM_027.jpg
1440.945	1.179	correct	test	Phase2	test/STIM_027.jpg
1445.141	1.054	correct	test	Phase2	test/STIM_027.jpg
1449.699	1.387	correct	test	Phase2	test/STIM_028.jpg
1454.805	1.114	correct	test	Phase2	test/STIM_028.jpg
1459.107	1.384	correct	test	Phase2	test/STIM_028.jpg
1464.331	0.688	incorrect	test	Phase2	test/STIM_029.jpg
1467.494	0.888	correct	test	Phase2	test/STIM_029.jpg
1472.221	1.24	correct	test	Phase2	test/STIM_029.jpg
1475.666	1.023	correct	study	Phase3	study/STIM_000.jpg
1478.823	0.88	correct	study	Phase3	study/STIM_000.jpg
1482.047	1.189	correct	study	Phase3	study/STIM_000.jpg
1486.961	1.091	incorrect	study	Phase3	study/STIM_001.jpg
1490.713	0.894	correct	study	Phase3	study/STIM_001.jpg
1494.662	0.758	correct	study	Phase3	study/STIM_001.jpg
1497.672	0.857	correct	study	Phase3	study/STIM_002.jpg
1501.247	0.926	correct	study	Phase3	study/STIM_002.jpg
1504.809	1.256	correct	study	Phase3	study/STIM_002.jpg
1509.921	0.749	correct	study	Phase3	study/STIM_003.jpg
1514.171	1.017	correct	study	Phase3	study/STIM_003.jpg
1517.94	0.986	correct	study	Phase3	study/STIM_003.jpg
1522.425	0.955	correct	study	Phase3	study/STIM_004.jpg
1526.845	0.93	correct	study	Phase3	study/STIM_004.jpg
1531.661	1.365	correct	study	Phase3	study/STIM_004.jpg
1535.022	0.604	correct	study	Phase3	study/STIM_005.jpg
1537.754	0.839	correct	study	Phase3	study/STIM_005.jpg
1542.584	0.84	correct	study	Phase3	study/STIM_005.jpg
1545.383	0.768	correct	study	Phase3	study/STIM_006.jpg
1548.253	1.138	correct	study	Phase3	study/STIM_006.jpg
1551.745	0.766	correct	study	Phase3	study/STIM_006.jpg
1554.596	0.585	correct	study	Phase3	study/STIM_007.jpg
1557.55	0.725	correct	study	Phase3	study/STIM_007.jpg
1561.7	0.802	correct	study	Phase3	study/STIM_007.jpg
1564.852	0.846	correct	study	Phase3	study/STIM_008.jpg
1569.198	0.802	correct	study	Phase3	study/STIM_008.jpg
1573.241	0.792	correct	study	Phase3	study/STIM_008.jpg
1577.132	1.223	correct	study	Phase3	study/STIM_009.jpg
1581.559	0.816	correct	study	Phase3	study/STIM_009.jpg
1586.018	0.559	correct	study	Phase3	study/STIM_009.jpg
1589.959	0.777	correct	study	Phase3	study/STIM_010.jpg
1592.868	1.236	correct	study	Phase3	study/STIM_010.jpg
1597.691	0.668	correct	study	Phase3	study/STIM_010.jpg
1600.426	0.786	correct	study	Phase3	study/STIM_011.jpg
1604.09	1.092	correct	study	Phase3	study/STIM_011.jpg
1608.172	1.021	correct	study	Phase3	study/STIM_011.jpg
1611.383	0.617	incorrect	study	Phase3	study/STIM_012.jpg
1615.944	1.178	correct	study	Phase3	study/STIM_012.jpg
1620.272	1.042	correct	study	Phase3	study/STIM_012.jpg
1624.937	1.08	correct	study	Phase3	study/STIM_013.jpg
1628.038	0.76	correct	study	Phase3	study/STIM_013.jpg
1632.526	1.277	correct	study	Phase3	study/STIM_013.jpg
1637.015	0.651	incorrect	study	Phase3	study/STIM_014.jpg
1641.059	1.009	correct	study	Phase3	study/STIM_014.jpg
1644.442	0.94	correct	study	Phase3	study/STIM_014.jpg
1649.226	0.876	correct	study	Phase3	study/STIM_015.jpg
1652.209	0.698	correct	study	Phase3	study/STIM_015.jpg
1656.274	1.295	correct	study	Phase3	study/STIM_015.jpg
1660.863	1.004	correct	study	Phase3	study/STIM_016.jpg
1664.462	1.124	correct	study	Phase3	study/STIM_016.jpg
1667.458	0.87	correct	study	Phase3	study/STIM_016.jpg
1671.148	0.708	correct	study	Phase3	study/STIM_017.jpg
1674.856	0.989	correct	study	Phase3	study/STIM_017.jpg
1677.839	1.122	correct	study	Phase3	study/STIM_017.jpg
1681.993	0.6	correct	study	Phase3	study/STIM_018.jpg
1684.89	0.901	correct	study	Phase3	study/STIM_018.jpg
1688.255	1.268	correct	study	Phase3	study/STIM_018.jpg
1692.879	1.309	correct	study	Phase3	study/STIM_019.jpg
1697.528	0.565	correct	study	Phase3	study/STIM_019.jpg
1700.508	1.024	correct	study	Phase3	study/STIM_019.jpg
1704.636	0.971	correct	study	Phase3	study/STIM_020.jpg
1709.126	0.629	correct	study	Phase3	study/STIM_020.jpg
1711.703	0.896	correct	study	Phase3	study/STIM_020.jpg
1715.415	1.172	incorrect	study	Phase3	study/STIM_021.jpg
1720.206	1.352	correct	study	Phase3	study/STIM_021.jpg
1723.577	0.821	correct	study	Phase3	study/STIM_021.jpg
1728.164	0.822	correct	study	Phase3	study/STIM_022.jpg
1732.938	1.09	correct	study	Phase3	study/STIM_022.jpg
1736.216	0.772	correct	study	Phase3	study/STIM_022.jpg
1740.433	0.875	correct	study	Phase3	study/STIM_023.jpg
1744.11	0.9	correct	study	Phase3	study/STIM_023.jpg
1748.835	0.615	correct	study	Phase3	study/STIM_023.jpg
1753.085	0.819	correct	study	Phase3	study/STIM_024.jpg
1757.17	1.048	correct	study	Phase3	study/STIM_024.jpg
1760.232	0.998	correct	study	Phase3	study/STIM_024.jpg
1764.094	0.672	correct	study	Phase3	study/STIM_025.jpg
1767.92	0.717	incorrect	study	Phase3	study/STIM_025.jpg
1771.463	0.982	correct	study	Phase3	study/STIM_025.jpg
1775.249	0.927	correct	study	Phase3	study/STIM_026.jpg
1779.674	1.179	correct	study	Phase3	study/STIM_026.jpg
1783.048	0.959	correct	study	Phase3	study/STIM_026.jpg
1786.667	0.652	correct	study	Phase3	study/STIM_027.jpg
1791.153	0.956	correct	study	Phase3	study/STIM_027.jpg
1794.659	1.075	correct	study	Phase3	study/STIM_027.jpg
1798.656	0.718	correct	study	Phase3	study/STIM_028.jpg
1802.85	1.29	correct	study	Phase3	study/STIM_028.jpg
1807.038	0.822	correct	study	Phase3	study/STIM_028.jpg
1810.032	0.953	correct	study	Phase3	study/STIM_029.jpg
1814.657	0.986	correct	study	Phase3	study/STIM_029.jpg
1818.132	0.732	correct	study	Phase3	study/STIM_029.jpg
1821.951	0.676	correct	test	Phase3	test/STIM_000.jpg
1825.836	0.785	correct	test	Phase3	test/STIM_000.jpg
1830.449	1.372	incorrect	test	Phase3	test/STIM_000.jpg
1833.77	0.703	correct	test	Phase3	test/STIM_001.jpg
1836.979	0.945	correct	test	Phase3	test/STIM_001.jpg
1840.761	0.938	correct	test	Phase3	test/STIM_001.jpg
1844.544	0.882	correct	test	Phase3	test/STIM_002.jpg
1849.174	0.982	correct	test	Phase3	test/STIM_002.jpg
1853.487	1.37	correct	test	Phase3	test/STIM_002.jpg
1857.141	0.838	correct	test	Phase3	test/STIM_003.jpg
1860.493	0.864	correct	test	Phase3	test/STIM_003.jpg
1864.471	1.35	correct	test	Phase3	test/STIM_003.jpg
1868.664	0.756	correct	test	Phase3	test/STIM_004.jpg
1872.16	1.058	correct	test	Phase3	test/STIM_004.jpg
1876.637	1.027	correct	test	Phase3	test/STIM_004.jpg
1880.729	1.207	correct	test	Phase3	test/STIM_005.jpg
1885.817	1.201	correct	test	Phase3	test/STIM_005.jpg
1890.559	0.901	correct	test	Phase3	test/STIM_005.jpg
1894.728	0.943	incorrect	test	Phase3	test/STIM_006.jpg
1898.003	0.728	correct	test	Phase3	test/STIM_006.jpg
1902.174	1.098	correct	test	Phase3	test/STIM_006.jpg
1905.56	0.818	correct	test	Phase3	test/STIM_007.jpg
1909.568	1.077	correct	test	Phase3	test/STIM_007.jpg
1913.122	1.184	correct	test	Phase3	test/STIM_007.jpg
1916.752	1.367	correct	test	Phase3	test/STIM_008.jpg
1920.001	0.858	correct	test	Phase3	test/STIM_008.jpg
1924.475	0.766	correct	test	Phase3	test/STIM_008.jpg
1927.499	1.314	correct	test	Phase3	test/STIM_009.jpg
1930.817	1.066	correct	test	Phase3	test/STIM_009.jpg
1934.954	1.147	correct	test	Phase3	test/STIM_009.jpg
1939.908	0.987	correct	test	Phase3	test/STIM_010.jpg
1943.349	0.74	correct	test	Phase3	test/STIM_010.jpg
1947.842	0.896	correct	test	Phase3	test/STIM_010.jpg
1952.659	0.689	correct	test	Phase3	test/STIM_011.jpg
1956.733	1.249	correct	test	Phase3	test/STIM_011.jpg
1960.91	1.127	correct	test	Phase3	test/STIM_011.jpg
1965.378	1.134	correct	test	Phase3	test/STIM_012.jpg
1970.261	0.753	correct	test	Phase3	test/STIM_012.jpg
1973.211	0.63	correct	test	Phase3	test/STIM_012.jpg
1977.102	1.331	correct	test	Phase3	test/STIM_013.jpg
1980.958	1.134	correct	test	Phase3	test/STIM_013.jpg
1985.759	1.2	correct	test	Phase3	test/STIM_013.jpg
1989.38	1.121	correct	test	Phase3	test/STIM_014.jpg
1993.508	0.872	correct	test	Phase3	test/STIM_014.jpg
1996.429	1.197	correct	test	Phase3	test/STIM_014.jpg
2000.441	1.033	correct	test	Phase3	test/STIM_015.jpg
2005.264	0.55	correct	test	Phase3	test/STIM_015.jpg
2008.121	0.902	correct	test	Phase3	test/STIM_015.jpg
2011.731	0.779	incorrect	test	Phase3	test/STIM_016.jpg
2014.49	1.104	correct	test	Phase3	test/STIM_016.jpg
2018.087	0.902	correct	test	Phase3	test/STIM_016.jpg
2022.451	0.855	correct	test	Phase3	test/STIM_017.jpg
2026.774	0.908	incorrect	test	Phase3	test/STIM_017.jpg
2030.778	1.15	incorrect	test	Phase3	test/STIM_017.jpg
2035.511	0.898	correct	test	Phase3	test/STIM_018.jpg
2039.42	0.915	correct	test	Phase3	test/STIM_018.jpg
2042.661	0.703	correct	test	Phase3	test/STIM_018.jpg
2045.59	0.778	correct	test	Phase3	test/STIM_019.jpg
2048.817	1.258	correct	test	Phase3	test/STIM_019.jpg
2053.221	0.815	incorrect	test	Phase3	test/STIM_019.jpg
2056.364	1.198	correct	test	Phase3	test/STIM_020.jpg
2060.444	1.267	correct	test	Phase3	test/STIM_020.jpg
2064.475	1.081	correct	test	Phase3	test/STIM_020.jpg
2067.694	0.669	correct	test	Phase3	test/STIM_021.jpg
2070.966	0.702	correct	test	Phase3	test/STIM_021.jpg
2074.142	0.672	correct	test	Phase3	test/STIM_021.jpg
2077.077	1.087	correct	test	Phase3	test/STIM_022.jpg
2081.665	1.29	correct	test	Phase3	test/STIM_022.jpg
2085.227	1.185	incorrect	test	Phase3	test/STIM_022.jpg
2089.728	0.805	correct	test	Phase3	test/STIM_023.jpg
2094.379	1.091	correct	test	Phase3	test/STIM_023.jpg
2098.811	0.612	correct	test	Phase3	test/STIM_023.jpg
2102.104	1.4	correct	test	Phase3	test/STIM_024.jpg
2105.965	1.079	correct	test	Phase3	test/STIM_024.jpg
2110.281	1.222	correct	test	Phase3	test/STIM_024.jpg
2113.879	1.37	correct	test	Phase3	test/STIM_025.jpg
2117.518	1.156	correct	test	Phase3	test/STIM_025.jpg
2122.269	0.617	correct	test	Phase3	test/STIM_025.jpg
2125.499	1.332	correct	test	Phase3	test/STIM_026.jpg
2129.801	0.643	correct	test	Phase3	test/STIM_026.jpg
2132.631	1.328	correct	test	Phase3	test/STIM_026.jpg
2136.961	1.231	correct	test	Phase3	test/STIM_027.jpg
2141.589	1.197	correct	test	Phase3	test/STIM_027.jpg
2145.498	0.99	correct	test	Phase3	test/STIM_027.jpg
2149.239	1.249	correct	test	Phase3	test/STIM_028.jpg
2153.305	0.876	correct	test	Phase3	test/STIM_028.jpg
2158.084	1.009	correct	test	Phase3	test/STIM_028.jpg
2162.29	0.741	correct	test	Phase3	test/STIM_029.jpg
2166.116	0.759	correct	test	Phase3	test/STIM_029.jpg
2170.042	0.884	correct	test	Phase3	test/STIM_029.jpg
