onset	duration	response_time_ms	trial_type	learning_stage	stimulus	response_port
0.0	1.367	1366.7	generate	Run1	generate/STIM_000.jpg	100
4.868	1.42	1420.4	generate	Run1	generate/STIM_000.jpg	99
9.893	2.126	2125.5	generate	Run1	generate/STIM_000.jpg	99
14.229	1.041	1041.3	generate	Run1	generate/STIM_000.jpg	99
18.031	1.163	1162.6	generate	Run1	generate/STIM_000.jpg	100
21.492	2.553	2553.4	generate	Run1	generate/STIM_001.jpg	100
27.16	1.874	1874.3	generate	Run1	generate/STIM_001.jpg	100
31.113	1.286	1286.3	generate	Run1	generate/STIM_001.jpg	99
34.664	1.077	1077.0	generate	Run1	generate/STIM_001.jpg	100
38.497	1.801	1800.8	generate	Run1	generate/STIM_001.jpg	99
44.01	2.175	2175.2	generate	Run1	generate/STIM_002.jpg	100
48.632	2.181	2180.8	generate	Run1	generate/STIM_002.jpg	100
53.815	1.894	1894.0	generate	Run1	generate/STIM_002.jpg	99
59.688	1.169	1169.2	generate	Run1	generate/STIM_002.jpg	99
63.857	1.044	1044.0	generate	Run1	generate/STIM_002.jpg	100
68.81	2.676	2676.2	generate	Run1	generate/STIM_003.jpg	100
75.332	1.657	1656.9	generate	Run1	generate/STIM_003.jpg	99
80.704	1.294	1293.5	generate	Run1	generate/STIM_003.jpg	99
85.438	1.282	1282.3	generate	Run1	generate/STIM_003.jpg	99
89.852	1.274	1273.9	generate	Run1	generate/STIM_003.jpg	99
94.134	2.78	2780.1	generate	Run1	generate/STIM_004.jpg	99
99.515	1.701	1700.9	generate	Run1	generate/STIM_004.jpg	99
105.04	1.402	1401.9	generate	Run1	generate/STIM_004.jpg	99
108.751	1.286	1285.9	generate	Run1	generate/STIM_004.jpg	100
113.594	2.198	2198.0	generate	Run1	generate/STIM_004.jpg	100
119.476	2.286	2285.9	generate	Run1	generate/STIM_005.jpg	100
125.431	1.36	1360.4	generate	Run1	generate/STIM_005.jpg	100
130.3	1.922	1921.5	generate	Run1	generate/STIM_005.jpg	99
134.281	2.266	2266.0	generate	Run1	generate/STIM_005.jpg	99
139.997	1.953	1953.1	generate	Run1	generate/STIM_005.jpg	100
145.676	1.472	1472.5	generate	Run1	generate/STIM_006.jpg	99
150.004	1.757	1757.4	generate	Run1	generate/STIM_006.jpg	100
154.387	1.478	1478.4	generate	Run1	generate/STIM_006.jpg	100
158.842	2.008	2008.3	generate	Run1	generate/STIM_006.jpg	99
163.234	1.81	1810.4	generate	Run1	generate/STIM_006.jpg	100
167.923	1.314	1314.1	generate	Run1	generate/STIM_007.jpg	100
172.286	2.546	2545.5	generate	Run1	generate/STIM_007.jpg	99
177.713	2.283	2282.8	generate	Run1	generate/STIM_007.jpg	100
183.723	1.099	1099.2	generate	Run1	generate/STIM_007.jpg	100
188.687	0.932	932.0	generate	Run1	generate/STIM_007.jpg	100
193.197	1.841	1841.4	generate	Run1	generate/STIM_008.jpg	99
197.393	2.33	2330.5	generate	Run1	generate/STIM_008.jpg	100
203.04	1.051	1051.3	generate	Run1	generate/STIM_008.jpg	99
207.453	1.304	1304.3	generate	Run1	generate/STIM_008.jpg	100
211.435	2.177	2177.4	generate	Run1	generate/STIM_008.jpg	99
216.766	2.276	2275.6	generate	Run1	generate/STIM_009.jpg	100
222.663	2.452	2452.0	generate	Run1	generate/STIM_009.jpg	100
228.643	2.104	2103.6	generate	Run1	generate/STIM_009.jpg	99
233.75	1.643	1642.6	generate	Run1	generate/STIM_009.jpg	100
237.61	0.981	981.3	generate	Run1	generate/STIM_009.jpg	99
240.764	1.921	1921.2	generate	Run1	generate/STIM_010.jpg	100
246.209	1.276	1275.5	generate	Run1	generate/STIM_010.jpg	99
250.704	1.245	1244.6	generate	Run1	generate/STIM_010.jpg	100
254.423	1.679	1678.9	generate	Run1	generate/STIM_010.jpg	99
260.069	1.777	1776.8	generate	Run1	generate/STIM_010.jpg	99
263.931	2.832	2832.2	generate	Run1	generate/STIM_011.jpg	100
270.112	1.862	1862.2	generate	Run1	generate/STIM_011.jpg	100
275.803	1.855	1854.7	generate	Run1	generate/STIM_011.jpg	99
280.624	1.584	1584.2	generate	Run1	generate/STIM_011.jpg	99
284.646	1.737	1736.8	generate	Run1	generate/STIM_011.jpg	99
288.606	1.905	1905.1	generate	Run1	generate/STIM_012.jpg	100
293.566	1.4	1400.3	generate	Run1	generate/STIM_012.jpg	99
297.065	2.338	2338.1	generate	Run1	generate/STIM_012.jpg	99
302.656	1.233	1233.1	generate	Run1	generate/STIM_012.jpg	100
305.989	1.524	1524.3	generate	Run1	generate/STIM_012.jpg	100
311.161	2.838	2838.3	generate	Run1	generate/STIM_013.jpg	99
316.893	1.842	1842.4	generate	Run1	generate/STIM_013.jpg	100
322.735	2.417	2417.0	generate	Run1	generate/STIM_013.jpg	99
328.953	1.65	1650.5	generate	Run1	generate/STIM_013.jpg	100
333.68	2.053	2053.3	generate	Run1	generate/STIM_013.jpg	99
338.159	1.32	1320.5	generate	Run1	generate/STIM_014.jpg	100
342.763	1.898	1898.3	generate	Run1	generate/STIM_014.jpg	100
348.517	1.934	1934.3	generate	Run1	generate/STIM_014.jpg	99
352.796	2.372	2371.5	generate	Run1	generate/STIM_014.jpg	99
358.867	1.865	1864.8	generate	Run1	generate/STIM_014.jpg	99
364.077	2.144	2143.5	generate	Run1	generate/STIM_015.jpg	99
368.593	1.694	1693.6	generate	Run1	generate/STIM_015.jpg	99
372.693	2.179	2178.9	generate	Run1	generate/STIM_015.jpg	99
377.711	1.231	1230.6	generate	Run1	generate/STIM_015.jpg	100
381.062	1.175	1174.9	generate	Run1	generate/STIM_015.jpg	100
384.891	1.142	1142.5	generate	Run1	generate/STIM_016.jpg	99
389.697	1.786	1785.6	generate	Run1	generate/STIM_016.jpg	100
394.658	1.808	1808.2	generate	Run1	generate/STIM_016.jpg	100
400.419	1.307	1307.4	generate	Run1	generate/STIM_016.jpg	100
404.354	1.741	1740.8	generate	Run1	generate/STIM_016.jpg	99
409.109	1.367	1367.3	generate	Run1	generate/STIM_017.jpg	99
414.129	2.426	2425.9	generate	Run1	generate/STIM_017.jpg	100
419.678	2.005	2005.0	generate	Run1	generate/STIM_017.jpg	100
424.075	0.987	986.6	generate	Run1	generate/STIM_017.jpg	99
428.753	1.496	1496.2	generate	Run1	generate/STIM_017.jpg	100
433.219	2.567	2567.3	generate	Run1	generate/STIM_018.jpg	99
438.307	1.785	1784.7	generate	Run1	generate/STIM_018.jpg	100
442.147	2.1	2100.4	generate	Run1	generate/STIM_018.jpg	100
447.129	2.052	2051.9	generate	Run1	generate/STIM_018.jpg	100
451.682	1.676	1676.5	generate	Run1	generate/STIM_018.jpg	100
456.942	1.639	1639.1	generate	Run1	generate/STIM_019.jpg	100
461.269	2.607	2607.4	generate	Run1	generate/STIM_019.jpg	100
467.635	1.58	1579.7	generate	Run1	generate/STIM_019.jpg	100
471.275	1.863	1863.2	generate	Run1	generate/STIM_019.jpg	100
476.771	1.86	1859.8	generate	Run1	generate/STIM_019.jpg	99
481.422	1.842	1841.9	generate	Run1	generate/STIM_020.jpg	100
486.046	1.391	1390.6	generate	Run1	generate/STIM_020.jpg	100
491.358	2.525	2525.3	generate	Run1	generate/STIM_020.jpg	99
496.696	2.38	2380.1	generate	Run1	generate/STIM_020.jpg	99
502.497	1.123	1123.0	generate	Run1	generate/STIM_020.jpg	100
506.628	1.152	1152.1	generate	Run1	generate/STIM_021.jpg	99
510.888	2.003	2003.5	generate	Run1	generate/STIM_021.jpg	99
515.403	1.742	1742.2	generate	Run1	generate/STIM_021.jpg	99
520.3	1.398	1397.6	generate	Run1	generate/STIM_021.jpg	99
525.162	1.273	1273.0	generate	Run1	generate/STIM_021.jpg	100
529.395	1.75	1750.5	generate	Run1	generate/STIM_022.jpg	100
534.618	1.948	1948.5	generate	Run1	generate/STIM_022.jpg	100
539.543	1.688	1688.1	generate	Run1	generate/STIM_022.jpg	99
543.849	1.134	1134.4	generate	Run1	generate/STIM_022.jpg	99
547.018	2.253	2253.3	generate	Run1	generate/STIM_022.jpg	100
552.665	2.04	2039.7	generate	Run1	generate/STIM_023.jpg	100
557.887	1.358	1358.1	generate	Run1	generate/STIM_023.jpg	99
561.682	1.767	1767.4	generate	Run1	generate/STIM_023.jpg	100
565.578	1.658	1658.5	generate	Run1	generate/STIM_023.jpg	100
571.104	1.574	1573.5	generate	Run1	generate/STIM_023.jpg	99
574.74	1.835	1835.4	generate	Run1	generate/STIM_024.jpg	99
579.063	1.475	1474.8	generate	Run1	generate/STIM_024.jpg	100
583.761	1.658	1658.4	generate	Run1	generate/STIM_024.jpg	100
588.036	2.383	2383.3	generate	Run1	generate/STIM_024.jpg	99
592.764	1.623	1623.2	generate	Run1	generate/STIM_024.jpg	99
597.07	0.817	816.8	repeat	Run1	repeat/STIM_000.jpg	99
600.784	0.532	532.5	repeat	Run1	repeat/STIM_000.jpg	99
604.545	0.569	569.2	repeat	Run1	repeat/STIM_000.jpg	99
608.537	0.532	531.9	repeat	Run1	repeat/STIM_000.jpg	100
611.89	0.624	623.5	repeat	Run1	repeat/STIM_000.jpg	99
616.297	0.503	503.2	repeat	Run1	repeat/STIM_001.jpg	99
619.385	0.771	770.7	repeat	Run1	repeat/STIM_001.jpg	100
623.29	0.58	579.8	repeat	Run1	repeat/STIM_001.jpg	99
627.519	0.64	639.6	repeat	Run1	repeat/STIM_001.jpg	99
632.136	0.91	910.4	repeat	Run1	repeat/STIM_001.jpg	99
635.578	0.581	581.0	repeat	Run1	repeat/STIM_002.jpg	99
638.996	0.702	702.5	repeat	Run1	repeat/STIM_002.jpg	99
643.299	0.784	784.3	repeat	Run1	repeat/STIM_002.jpg	99
647.204	0.723	723.0	repeat	Run1	repeat/STIM_002.jpg	100
650.206	0.648	648.4	repeat	Run1	repeat/STIM_002.jpg	100
653.967	0.541	540.7	repeat	Run1	repeat/STIM_003.jpg	100
657.863	0.544	544.3	repeat	Run1	repeat/STIM_003.jpg	99
661.536	0.519	519.1	repeat	Run1	repeat/STIM_003.jpg	100
664.456	0.603	603.2	repeat	Run1	repeat/STIM_003.jpg	100
667.305	0.675	674.6	repeat	Run1	repeat/STIM_003.jpg	100
670.936	0.574	573.8	repeat	Run1	repeat/STIM_004.jpg	100
675.333	0.642	642.2	repeat	Run1	repeat/STIM_004.jpg	99
678.004	0.559	559.0	repeat	Run1	repeat/STIM_004.jpg	99
682.366	0.911	910.8	repeat	Run1	repeat/STIM_004.jpg	100
686.735	0.551	551.2	repeat	Run1	repeat/STIM_004.jpg	99
691.165	0.56	560.5	repeat	Run1	repeat/STIM_005.jpg	99
695.59	0.501	501.5	repeat	Run1	repeat/STIM_005.jpg	99
699.016	0.622	622.4	repeat	Run1	repeat/STIM_005.jpg	99
703.083	0.887	887.0	repeat	Run1	repeat/STIM_005.jpg	100
707.118	0.55	549.7	repeat	Run1	repeat/STIM_005.jpg	100
709.78	0.714	713.9	repeat	Run1	repeat/STIM_006.jpg	100
714.214	0.655	655.4	repeat	Run1	repeat/STIM_006.jpg	99
717.199	0.624	624.5	repeat	Run1	repeat/STIM_006.jpg	99
720.97	0.698	698.1	repeat	Run1	repeat/STIM_006.jpg	99
723.851	0.776	775.9	repeat	Run1	repeat/STIM_006.jpg	99
727.139	0.485	484.8	repeat	Run1	repeat/STIM_007.jpg	99
730.11	0.726	725.9	repeat	Run1	repeat/STIM_007.jpg	100
734.136	0.935	934.9	repeat	Run1	repeat/STIM_007.jpg	99
737.686	0.891	890.6	repeat	Run1	repeat/STIM_007.jpg	99
741.423	0.878	877.8	repeat	Run1	repeat/STIM_007.jpg	99
745.485	0.682	682.1	repeat	Run1	repeat/STIM_008.jpg	100
749.363	0.51	510.0	repeat	Run1	repeat/STIM_008.jpg	100
752.77	0.837	837.3	repeat	Run1	repeat/STIM_008.jpg	100
756.436	0.758	758.2	repeat	Run1	repeat/STIM_008.jpg	99
760.829	0.712	711.8	repeat	Run1	repeat/STIM_008.jpg	100
764.02	0.941	941.1	repeat	Run1	repeat/STIM_009.jpg	99
767.557	0.661	660.6	repeat	Run1	repeat/STIM_009.jpg	100
771.364	0.917	916.9	repeat	Run1	repeat/STIM_009.jpg	99
775.001	0.69	690.1	repeat	Run1	repeat/STIM_009.jpg	99
778.05	0.944	944.5	repeat	Run1	repeat/STIM_009.jpg	100
782.645	0.629	629.1	repeat	Run1	repeat/STIM_010.jpg	99
785.577	0.705	705.3	repeat	Run1	repeat/STIM_010.jpg	100
788.72	0.59	590.3	repeat	Run1	repeat/STIM_010.jpg	100
792.093	0.923	922.6	repeat	Run1	repeat/STIM_010.jpg	100
795.762	0.679	679.3	repeat	Run1	repeat/STIM_010.jpg	99
798.636	0.764	764.1	repeat	Run1	repeat/STIM_011.jpg	99
803.19	0.68	680.5	repeat	Run1	repeat/STIM_011.jpg	99
807.342	0.8	800.5	repeat	Run1	repeat/STIM_011.jpg	99
812.082	0.734	734.2	repeat	Run1	repeat/STIM_011.jpg	100
815.781	0.745	744.9	repeat	Run1	repeat/STIM_011.jpg	100
820.156	0.54	540.3	repeat	Run1	repeat/STIM_012.jpg	99
822.806	0.866	865.7	repeat	Run1	repeat/STIM_012.jpg	100
826.383	0.919	919.0	repeat	Run1	repeat/STIM_012.jpg	100
829.844	0.648	648.4	repeat	Run1	repeat/STIM_012.jpg	99
832.983	0.701	700.9	repeat	Run1	repeat/STIM_012.jpg	99
836.394	0.587	586.9	repeat	Run1	repeat/STIM_013.jpg	99
839.403	0.642	641.7	repeat	Run1	repeat/STIM_013.jpg	99
844.045	0.631	630.6	repeat	Run1	repeat/STIM_013.jpg	99
848.479	0.549	548.9	repeat	Run1	repeat/STIM_013.jpg	99
851.688	0.895	894.8	repeat	Run1	repeat/STIM_013.jpg	100
855.646	0.944	944.3	repeat	Run1	repeat/STIM_014.jpg	99
860.179	0.798	798.4	repeat	Run1	repeat/STIM_014.jpg	100
864.004	0.863	863.2	repeat	Run1	repeat/STIM_014.jpg	100
868.05	0.494	494.4	repeat	Run1	repeat/STIM_014.jpg	99
871.463	0.887	886.7	repeat	Run1	repeat/STIM_014.jpg	99
874.511	1.639	1639.3	generate	Run2	generate/STIM_000.jpg	99
880.141	1.7	1699.9	generate	Run2	generate/STIM_000.jpg	99
885.746	1.142	1142.5	generate	Run2	generate/STIM_000.jpg	100
890.509	1.707	1707.3	generate	Run2	generate/STIM_000.jpg	99
894.334	1.79	1789.5	generate	Run2	generate/STIM_000.jpg	100
898.549	1.044	1044.1	generate	Run2	generate/STIM_001.jpg	100
901.761	1.228	1227.7	generate	Run2	generate/STIM_001.jpg	99
905.131	0.985	985.2	generate	Run2	generate/STIM_001.jpg	100
909.966	1.586	1586.0	generate	Run2	generate/STIM_001.jpg	99
915.265	1.135	1134.7	generate	Run2	generate/STIM_001.jpg	99
918.845	1.638	1638.4	generate	Run2	generate/STIM_002.jpg	99
923.809	1.784	1784.1	generate	Run2	generate/STIM_002.jpg	99
929.232	0.966	965.8	generate	Run2	generate/STIM_002.jpg	99
933.363	1.771	1771.2	generate	Run2	generate/STIM_002.jpg	99
938.201	0.917	917.3	generate	Run2	generate/STIM_002.jpg	100
943.008	1.226	1225.6	generate	Run2	generate/STIM_003.jpg	100
947.587	2.124	2124.4	generate	Run2	generate/STIM_003.jpg	99
951.72	1.447	1447.1	generate	Run2	generate/STIM_003.jpg	100
956.558	1.551	1550.8	generate	Run2	generate/STIM_003.jpg	100
961.088	0.953	952.7	generate	Run2	generate/STIM_003.jpg	99
964.115	1.35	1349.9	generate	Run2	generate/STIM_004.jpg	100
968.821	1.804	1804.4	generate	Run2	generate/STIM_004.jpg	99
973.563	1.684	1684.4	generate	Run2	generate/STIM_004.jpg	99
978.015	1.585	1584.8	generate	Run2	generate/STIM_004.jpg	99
982.225	1.062	1062.4	generate	Run2	generate/STIM_004.jpg	100
985.531	2.224	2224.3	generate	Run2	generate/STIM_005.jpg	100
990.221	2.105	2105.3	generate	Run2	generate/STIM_005.jpg	99
996.277	0.934	933.7	generate	Run2	generate/STIM_005.jpg	99
999.657	0.937	936.8	generate	Run2	generate/STIM_005.jpg	100
1003.056	1.041	1040.7	generate	Run2	generate/STIM_005.jpg	99
1007.218	1.802	1801.7	generate	Run2	generate/STIM_006.jpg	99
1011.138	1.252	1252.2	generate	Run2	generate/STIM_006.jpg	99
1016.303	1.516	1515.9	generate	Run2	generate/STIM_006.jpg	100
1021.602	1.48	1479.7	generate	Run2	generate/STIM_006.jpg	100
1025.252	1.104	1103.9	generate	Run2	generate/STIM_006.jpg	100
1030.0	1.932	1932.0	generate	Run2	generate/STIM_007.jpg	99
1035.286	0.933	932.6	generate	Run2	generate/STIM_007.jpg	99
1039.617	1.845	1844.9	generate	Run2	generate/STIM_007.jpg	99
1044.917	1.879	1879.0	generate	Run2	generate/STIM_007.jpg	100
1049.604	1.93	1929.5	generate	Run2	generate/STIM_007.jpg	99
1053.796	1.256	1255.8	generate	Run2	generate/STIM_008.jpg	100
1058.972	0.966	965.9	generate	Run2	generate/STIM_008.jpg	100
1063.869	1.415	1414.7	generate	Run2	generate/STIM_008.jpg	100
1067.978	0.937	936.6	generate	Run2	generate/STIM_008.jpg	100
1072.247	1.546	1546.5	generate	Run2	generate/STIM_008.jpg	99
1076.924	1.969	1968.7	generate	Run2	generate/STIM_009.jpg	99
1081.973	1.818	1818.4	generate	Run2	generate/STIM_009.jpg	100
1086.134	1.539	1539.1	generate	Run2	generate/STIM_009.jpg	99
1091.462	1.5	1499.7	generate	Run2	generate/STIM_009.jpg	100
1095.535	1.952	1951.6	generate	Run2	generate/STIM_009.jpg	99
1100.242	2.394	2394.4	generate	Run2	generate/STIM_010.jpg	100
1105.131	1.52	1519.5	generate	Run2	generate/STIM_010.jpg	100
1108.745	1.777	1777.1	generate	Run2	generate/STIM_010.jpg	100
1113.587	1.793	1793.0	generate	Run2	generate/STIM_010.jpg	100
1117.39	1.547	1546.7	generate	Run2	generate/STIM_010.jpg	100
1122.324	2.137	2136.7	generate	Run2	generate/STIM_011.jpg	99
1126.613	2.251	2251.0	generate	Run2	generate/STIM_011.jpg	99
1131.386	0.932	932.4	generate	Run2	generate/STIM_011.jpg	99
1135.24	1.291	1290.6	generate	Run2	generate/STIM_011.jpg	99
1138.695	1.675	1674.8	generate	Run2	generate/STIM_011.jpg	99
1143.87	1.614	1614.4	generate	Run2	generate/STIM_012.jpg	100
1149.461	1.304	1303.7	generate	Run2	generate/STIM_012.jpg	100
1154.279	1.596	1595.5	generate	Run2	generate/STIM_012.jpg	99
1159.71	1.17	1170.2	generate	Run2	generate/STIM_012.jpg	100
1164.435	0.88	880.3	generate	Run2	generate/STIM_012.jpg	100
1168.384	2.374	2373.9	generate	Run2	generate/STIM_013.jpg	100
1174.609	1.779	1779.1	generate	Run2	generate/STIM_013.jpg	99
1179.462	0.914	914.5	generate	Run2	generate/STIM_013.jpg	100
1182.594	1.957	1957.1	generate	Run2	generate/STIM_013.jpg	99
1187.455	1.89	1889.5	generate	Run2	generate/STIM_013.jpg	99
1192.194	1.119	1118.9	generate	Run2	generate/STIM_014.jpg	99
1196.873	1.3	1300.2	generate	Run2	generate/STIM_014.jpg	99
1201.676	1.953	1953.3	generate	Run2	generate/STIM_014.jpg	99
1207.565	1.076	1075.9	generate	Run2	generate/STIM_014.jpg	100
1211.731	0.898	898.2	generate	Run2	generate/STIM_014.jpg	100
1215.028	2.09	2090.5	generate	Run2	generate/STIM_015.jpg	100
1219.968	1.597	1597.1	generate	Run2	generate/STIM_015.jpg	100
1224.025	1.528	1527.6	generate	Run2	generate/STIM_015.jpg	99
1228.78	1.838	1838.0	generate	Run2	generate/STIM_015.jpg	100
1234.317	0.935	935.2	generate	Run2	generate/STIM_015.jpg	100
1237.448	2.178	2178.3	generate	Run2	generate/STIM_016.jpg	100
1241.96	1.215	1215.4	generate	Run2	generate/STIM_016.jpg	100
1245.797	1.813	1812.9	generate	Run2	generate/STIM_016.jpg	99
1251.57	1.471	1471.4	generate	Run2	generate/STIM_016.jpg	100
1256.152	1.72	1719.9	generate	Run2	generate/STIM_016.jpg	100
1260.688	2.353	2353.4	generate	Run2	generate/STIM_017.jpg	100
1267.028	1.761	1760.8	generate	Run2	generate/STIM_017.jpg	100
1271.868	1.742	1741.5	generate	Run2	generate/STIM_017.jpg	99
1275.739	1.852	1851.7	generate	Run2	generate/STIM_017.jpg	99
1280.612	1.723	1722.8	generate	Run2	generate/STIM_017.jpg	99
1284.666	2.333	2333.2	generate	Run2	generate/STIM_018.jpg	100
1290.773	1.883	1883.4	generate	Run2	generate/STIM_018.jpg	100
1295.302	1.316	1316.0	generate	Run2	generate/STIM_018.jpg	99
1299.862	1.449	1449.2	generate	Run2	generate/STIM_018.jpg	100
1303.827	1.805	1805.1	generate	Run2	generate/STIM_018.jpg	100
1309.594	1.149	1149.2	generate	Run2	generate/STIM_019.jpg	100
1314.198	1.215	1215.4	generate	Run2	generate/STIM_019.jpg	100
1317.783	1.213	1212.8	generate	Run2	generate/STIM_019.jpg	100
1322.273	1.924	1923.8	generate	Run2	generate/STIM_019.jpg	100
1326.223	1.942	1942.1	generate	Run2	generate/STIM_019.jpg	99
1331.405	2.287	2287.3	generate	Run2	generate/STIM_020.jpg	99
1336.453	1.757	1757.0	generate	Run2	generate/STIM_020.jpg	100
1341.045	1.63	1629.5	generate	Run2	generate/STIM_020.jpg	100
1345.256	1.092	1092.1	generate	Run2	generate/STIM_020.jpg	99
1349.42	1.081	1080.9	generate	Run2	generate/STIM_020.jpg	100
1353.73	2.328	2328.3	generate	Run2	generate/STIM_021.jpg	100
1359.214	1.034	1034.4	generate	Run2	generate/STIM_021.jpg	100
1362.934	1.688	1688.1	generate	Run2	generate/STIM_021.jpg	100
1367.621	1.794	1794.5	generate	Run2	generate/STIM_021.jpg	99
1372.25	0.878	878.5	generate	Run2	generate/STIM_021.jpg	99
1376.948	1.435	1434.7	generate	Run2	generate/STIM_022.jpg	99
1382.16	1.139	1138.7	generate	Run2	generate/STIM_022.jpg	99
1386.179	1.629	1629.4	generate	Run2	generate/STIM_022.jpg	99
1391.147	1.954	1953.6	generate	Run2	generate/STIM_022.jpg	99
1396.497	1.779	1779.3	generate	Run2	generate/STIM_022.jpg	99
1401.508	1.398	1397.5	generate	Run2	generate/STIM_023.jpg	100
1405.214	2.148	2148.0	generate	Run2	generate/STIM_023.jpg	99
1410.114	1.021	1020.8	generate	Run2	generate/STIM_023.jpg	99
1414.201	1.756	1756.5	generate	Run2	generate/STIM_023.jpg	99
1418.231	1.606	1605.8	generate	Run2	generate/STIM_023.jpg	100
1423.582	2.356	2355.8	generate	Run2	generate/STIM_024.jpg	100
1429.697	1.351	1351.3	generate	Run2	generate/STIM_024.jpg	99
1433.197	1.424	1424.5	generate	Run2	generate/STIM_024.jpg	100
1437.923	1.059	1059.0	generate	Run2	generate/STIM_024.jpg	99
1442.082	1.257	1256.7	generate	Run2	generate/STIM_024.jpg	99
1447.232	0.487	486.6	repeat	Run2	repeat/STIM_000.jpg	100
1451.62	0.732	732.2	repeat	Run2	repeat/STIM_000.jpg	100
1454.49	0.572	572.5	repeat	Run2	repeat/STIM_000.jpg	100
1457.44	0.726	726.2	repeat	Run2	repeat/STIM_000.jpg	100
1460.986	0.795	794.7	repeat	Run2	repeat/STIM_000.jpg	100
1465.323	0.635	634.8	repeat	Run2	repeat/STIM_001.jpg	99
1468.605	0.783	783.4	repeat	Run2	repeat/STIM_001.jpg	99
1472.694	0.519	519.1	repeat	Run2	repeat/STIM_001.jpg	100
1476.273	0.899	898.6	repeat	Run2	repeat/STIM_001.jpg	99
1479.196	0.694	693.9	repeat	Run2	repeat/STIM_001.jpg	100
1482.473	0.569	568.6	repeat	Run2	repeat/STIM_002.jpg	99
1486.56	0.514	514.4	repeat	Run2	repeat/STIM_002.jpg	100
1489.948	0.864	863.5	repeat	Run2	repeat/STIM_002.jpg	99
1494.385	0.558	557.7	repeat	Run2	repeat/STIM_002.jpg	99
1498.49	0.657	657.4	repeat	Run2	repeat/STIM_002.jpg	99
1502.212	0.669	669.1	repeat	Run2	repeat/STIM_003.jpg	100
1506.745	0.648	648.1	repeat	Run2	repeat/STIM_003.jpg	99
1510.642	0.919	919.4	repeat	Run2	repeat/STIM_003.jpg	100
1514.306	0.657	657.4	repeat	Run2	repeat/STIM_003.jpg	99
1518.228	0.59	590.5	repeat	Run2	repeat/STIM_003.jpg	100
1521.567	0.669	669.3	repeat	Run2	repeat/STIM_004.jpg	99
1525.029	0.862	861.9	repeat	Run2	repeat/STIM_004.jpg	100
1528.267	0.924	924.0	repeat	Run2	repeat/STIM_004.jpg	100
1532.288	0.494	493.7	repeat	Run2	repeat/STIM_004.jpg	99
1535.66	0.618	617.6	repeat	Run2	repeat/STIM_004.jpg	100
1539.97	0.5	499.7	repeat	Run2	repeat/STIM_005.jpg	99
1543.142	0.908	907.6	repeat	Run2	repeat/STIM_005.jpg	99
1547.649	0.781	781.0	repeat	Run2	repeat/STIM_005.jpg	99
1552.023	0.767	767.1	repeat	Run2	repeat/STIM_005.jpg	99
1555.781	0.844	844.1	repeat	Run2	repeat/STIM_005.jpg	100
1559.436	0.499	499.1	repeat	Run2	repeat/STIM_006.jpg	100
1562.9	0.847	846.6	repeat	Run2	repeat/STIM_006.jpg	99
1566.665	0.724	723.5	repeat	Run2	repeat/STIM_006.jpg	99
1570.999	0.503	502.6	repeat	Run2	repeat/STIM_006.jpg	99
1575.284	0.891	891.0	repeat	Run2	repeat/STIM_006.jpg	100
1580.105	0.927	926.7	repeat	Run2	repeat/STIM_007.jpg	100
1583.063	0.685	685.1	repeat	Run2	repeat/STIM_007.jpg	100
1585.817	0.625	624.7	repeat	Run2	repeat/STIM_007.jpg	100
1589.052	0.683	682.8	repeat	Run2	repeat/STIM_007.jpg	99
1591.759	0.675	675.2	repeat	Run2	repeat/STIM_007.jpg	99
1594.671	0.865	865.2	repeat	Run2	repeat/STIM_008.jpg	99
1599.519	0.505	505.0	repeat	Run2	repeat/STIM_008.jpg	100
1603.397	0.626	625.8	repeat	Run2	repeat/STIM_008.jpg	100
1606.941	0.848	847.5	repeat	Run2	repeat/STIM_008.jpg	100
1610.233	0.933	933.4	repeat	Run2	repeat/STIM_008.jpg	99
1614.948	0.816	815.7	repeat	Run2	repeat/STIM_009.jpg	99
1617.867	0.76	760.3	repeat	Run2	repeat/STIM_009.jpg	100
1621.976	0.478	477.8	repeat	Run2	repeat/STIM_009.jpg	100
1625.376	0.868	867.8	repeat	Run2	repeat/STIM_009.jpg	100
1630.16	0.881	881.0	repeat	Run2	repeat/STIM_009.jpg	99
1633.152	0.676	676.0	repeat	Run2	repeat/STIM_010.jpg	100
1636.163	0.928	928.2	repeat	Run2	repeat/STIM_010.jpg	99
1641.011	0.589	588.7	repeat	Run2	repeat/STIM_010.jpg	100
1644.185	0.889	888.7	repeat	Run2	repeat/STIM_010.jpg	99
1647.811	0.585	584.6	repeat	Run2	repeat/STIM_010.jpg	100
1651.013	0.728	728.0	repeat	Run2	repeat/STIM_011.jpg	100
1654.106	0.791	791.1	repeat	Run2	repeat/STIM_011.jpg	100
1657.772	0.706	706.2	repeat	Run2	repeat/STIM_011.jpg	99
1661.41	0.481	480.6	repeat	Run2	repeat/STIM_011.jpg	100
1665.102	0.861	861.0	repeat	Run2	repeat/STIM_011.jpg	100
1669.484	0.83	829.5	repeat	Run2	repeat/STIM_012.jpg	99
1674.276	0.93	929.9	repeat	Run2	repeat/STIM_012.jpg	99
1678.846	0.607	607.2	repeat	Run2	repeat/STIM_012.jpg	100
1682.291	0.93	929.5	repeat	Run2	repeat/STIM_012.jpg	99
1687.18	0.55	550.1	repeat	Run2	repeat/STIM_012.jpg	99
1690.268	0.552	551.9	repeat	Run2	repeat/STIM_013.jpg	100
1694.238	0.652	651.7	repeat	Run2	repeat/STIM_013.jpg	100
1697.389	0.504	504.3	repeat	Run2	repeat/STIM_013.jpg	99
1700.027	0.603	603.1	repeat	Run2	repeat/STIM_013.jpg	99
1703.998	0.817	817.4	repeat	Run2	repeat/STIM_013.jpg	99
1708.752	0.571	571.1	repeat	Run2	repeat/STIM_014.jpg	99
1712.833	0.798	797.8	repeat	Run2	repeat/STIM_014.jpg	100
1717.519	0.834	833.6	repeat	Run2	repeat/STIM_014.jpg	100
1721.306	0.942	942.5	repeat	Run2	repeat/STIM_014.jpg	99
1725.385	0.782	781.7	repeat	Run2	repeat/STIM_014.jpg	100
1728.759	1.707	1706.7	generate	Run3	generate/STIM_000.jpg	100
1733.348	1.153	1153.0	generate	Run3	generate/STIM_000.jpg	100
1738.314	1.482	1481.5	generate	Run3	generate/STIM_000.jpg	100
1743.101	1.709	1708.6	generate	Run3	generate/STIM_000.jpg	100
1748.519	1.529	1528.9	generate	Run3	generate/STIM_000.jpg	100
1752.931	1.032	1032.0	generate	Run3	generate/STIM_001.jpg	99
1757.955	1.044	1043.6	generate	Run3	generate/STIM_001.jpg	100
1761.899	1.394	1394.4	generate	Run3	generate/STIM_001.jpg	99
1765.709	0.924	923.9	generate	Run3	generate/STIM_001.jpg	100
1770.059	1.347	1347.2	generate	Run3	generate/STIM_001.jpg	100
1773.751	1.512	1511.8	generate	Run3	generate/STIM_002.jpg	99
1778.772	1.042	1042.2	generate	Run3	generate/STIM_002.jpg	99
1783.499	1.17	1170.0	generate	Run3	generate/STIM_002.jpg	99
1787.62	1.918	1917.8	generate	Run3	generate/STIM_002.jpg	100
1792.976	1.777	1776.9	generate	Run3	generate/STIM_002.jpg	100
1797.792	1.471	1470.6	generate	Run3	generate/STIM_003.jpg	99
1801.905	1.453	1453.2	generate	Run3	generate/STIM_003.jpg	100
1806.848	1.45	1450.5	generate	Run3	generate/STIM_003.jpg	99
1810.925	1.637	1636.7	generate	Run3	generate/STIM_003.jpg	99
1815.23	1.427	1426.6	generate	Run3	generate/STIM_003.jpg	99
1818.928	1.067	1066.8	generate	Run3	generate/STIM_004.jpg	100
1823.173	1.594	1593.8	generate	Run3	generate/STIM_004.jpg	99
1828.511	1.955	1955.3	generate	Run3	generate/STIM_004.jpg	99
1833.547	1.015	1014.9	generate	Run3	generate/STIM_004.jpg	100
1837.52	1.0	1000.2	generate	Run3	generate/STIM_004.jpg	100
1841.208	1.258	1257.6	generate	Run3	generate/STIM_005.jpg	100
1844.646	1.79	1789.9	generate	Run3	generate/STIM_005.jpg	99
1849.866	0.801	801.2	generate	Run3	generate/STIM_005.jpg	99
1853.261	1.801	1800.6	generate	Run3	generate/STIM_005.jpg	99
1858.326	0.891	891.1	generate	Run3	generate/STIM_005.jpg	99
1862.625	1.738	1737.5	generate	Run3	generate/STIM_006.jpg	99
1868.255	1.344	1344.0	generate	Run3	generate/STIM_006.jpg	100
1871.784	1.352	1351.8	generate	Run3	generate/STIM_006.jpg	99
1875.501	1.248	1247.7	generate	Run3	generate/STIM_006.jpg	99
1879.685	1.504	1503.8	generate	Run3	generate/STIM_006.jpg	100
1884.46	1.628	1627.8	generate	Run3	generate/STIM_007.jpg	99
1889.269	0.878	877.5	generate	Run3	generate/STIM_007.jpg	100
1892.811	1.859	1859.0	generate	Run3	generate/STIM_007.jpg	100
1897.324	1.832	1831.9	generate	Run3	generate/STIM_007.jpg	100
1902.799	1.825	1825.3	generate	Run3	generate/STIM_007.jpg	99
1907.572	1.512	1512.2	generate	Run3	generate/STIM_008.jpg	100
1912.321	0.89	890.2	generate	Run3	generate/STIM_008.jpg	99
1915.888	0.951	950.6	generate	Run3	generate/STIM_008.jpg	99
1919.441	1.588	1587.9	generate	Run3	generate/STIM_008.jpg	100
1924.838	1.338	1337.5	generate	Run3	generate/STIM_008.jpg	100
1929.335	0.826	826.2	generate	Run3	generate/STIM_009.jpg	100
1932.863	0.868	867.5	generate	Run3	generate/STIM_009.jpg	99
1936.664	1.625	1625.2	generate	Run3	generate/STIM_009.jpg	99
1940.371	0.891	891.2	generate	Run3	generate/STIM_009.jpg	99
1944.939	1.098	1098.1	generate	Run3	generate/STIM_009.jpg	100
1949.526	1.783	1782.7	generate	Run3	generate/STIM_010.jpg	100
1954.962	1.628	1628.0	generate	Run3	generate/STIM_010.jpg	99
1958.778	1.369	1369.3	generate	Run3	generate/STIM_010.jpg	99
1963.259	1.416	1415.5	generate	Run3	generate/STIM_010.jpg	99
1967.048	1.074	1073.8	generate	Run3	generate/STIM_010.jpg	100
1971.376	1.476	1475.8	generate	Run3	generate/STIM_011.jpg	100
1976.388	1.626	1626.3	generate	Run3	generate/STIM_011.jpg	100
1981.577	0.874	874.0	generate	Run3	generate/STIM_011.jpg	99
1984.765	1.32	1320.0	generate	Run3	generate/STIM_011.jpg	100
1989.591	1.245	1245.1	generate	Run3	generate/STIM_011.jpg	100
1993.456	1.012	1011.6	generate	Run3	generate/STIM_012.jpg	99
1997.965	1.632	1631.6	generate	Run3	generate/STIM_012.jpg	99
2003.353	1.294	1293.9	generate	Run3	generate/STIM_012.jpg	99
2008.646	1.294	1294.1	generate	Run3	generate/STIM_012.jpg	99
2013.875	1.909	1909.1	generate	Run3	generate/STIM_012.jpg	99
2019.55	1.685	1685.0	generate	Run3	generate/STIM_013.jpg	99
2025.131	1.363	1363.4	generate	Run3	generate/STIM_013.jpg	99
2029.644	1.514	1513.5	generate	Run3	generate/STIM_013.jpg	99
2033.238	1.784	1783.9	generate	Run3	generate/STIM_013.jpg	99
2038.736	1.488	1487.7	generate	Run3	generate/STIM_013.jpg	99
2044.157	1.725	1725.3	generate	Run3	generate/STIM_014.jpg	99
2047.903	1.794	1793.6	generate	Run3	generate/STIM_014.jpg	99
2053.407	1.818	1817.6	generate	Run3	generate/STIM_014.jpg	99
2057.274	1.016	1016.5	generate	Run3	generate/STIM_014.jpg	100
2061.792	1.169	1169.0	generate	Run3	generate/STIM_014.jpg	100
2065.865	1.682	1682.4	generate	Run3	generate/STIM_015.jpg	100
2070.348	1.008	1008.1	generate	Run3	generate/STIM_015.jpg	100
2073.879	1.052	1051.5	generate	Run3	generate/STIM_015.jpg	99
2077.597	1.329	1329.4	generate	Run3	generate/STIM_015.jpg	99
2081.336	1.858	1858.0	generate	Run3	generate/STIM_015.jpg	100
2087.088	0.893	893.2	generate	Run3	generate/STIM_016.jpg	99
2091.306	1.707	1706.8	generate	Run3	generate/STIM_016.jpg	99
2096.29	0.857	856.9	generate	Run3	generate/STIM_016.jpg	100
2100.213	0.862	862.4	generate	Run3	generate/STIM_016.jpg	100
2104.23	1.099	1098.9	generate	Run3	generate/STIM_016.jpg	100
2107.646	1.149	1148.6	generate	Run3	generate/STIM_017.jpg	100
2111.392	1.043	1042.7	generate	Run3	generate/STIM_017.jpg	99
2114.564	1.452	1451.6	generate	Run3	generate/STIM_017.jpg	100
2118.15	1.954	1953.6	generate	Run3	generate/STIM_017.jpg	100
2123.051	1.236	1236.0	generate	Run3	generate/STIM_017.jpg	100
2126.708	1.871	1870.7	generate	Run3	generate/STIM_018.jpg	99
2131.81	1.858	1857.9	generate	Run3	generate/STIM_018.jpg	99
2135.745	1.387	1386.8	generate	Run3	generate/STIM_018.jpg	100
2140.949	1.78	1780.1	generate	Run3	generate/STIM_018.jpg	99
2145.215	1.863	1863.3	generate	Run3	generate/STIM_018.jpg	100
2150.999	0.8	799.5	generate	Run3	generate/STIM_019.jpg	99
2154.735	1.12	1119.5	generate	Run3	generate/STIM_019.jpg	100
2159.547	0.84	840.4	generate	Run3	generate/STIM_019.jpg	99
2164.137	1.185	1184.8	generate	Run3	generate/STIM_019.jpg	99
2168.714	1.739	1739.0	generate	Run3	generate/STIM_019.jpg	100
2172.945	1.126	1125.9	generate	Run3	generate/STIM_020.jpg	100
2177.15	0.884	884.0	generate	Run3	generate/STIM_020.jpg	100
2181.531	1.047	1046.8	generate	Run3	generate/STIM_020.jpg	99
2186.116	1.893	1893.0	generate	Run3	generate/STIM_020.jpg	100
2190.182	1.751	1751.1	generate	Run3	generate/STIM_020.jpg	100
2194.916	1.864	1863.9	generate	Run3	generate/STIM_021.jpg	99
2199.097	1.181	1180.8	generate	Run3	generate/STIM_021.jpg	100
2203.152	1.236	1235.8	generate	Run3	generate/STIM_021.jpg	99
2207.244	1.179	1178.8	generate	Run3	generate/STIM_021.jpg	99
2211.953	0.876	876.4	generate	Run3	generate/STIM_021.jpg	99
2214.979	0.86	860.5	generate	Run3	generate/STIM_022.jpg	99
2217.994	1.062	1062.5	generate	Run3	generate/STIM_022.jpg	99
2221.743	1.22	1219.8	generate	Run3	generate/STIM_022.jpg	100
2226.296	1.971	1971.4	generate	Run3	generate/STIM_022.jpg	99
2230.737	1.253	1252.8	generate	Run3	generate/STIM_022.jpg	99
2235.203	1.27	1269.5	generate	Run3	generate/STIM_023.jpg	99
2239.679	0.802	801.6	generate	Run3	generate/STIM_023.jpg	100
2242.575	1.664	1664.1	generate	Run3	generate/STIM_023.jpg	100
2247.276	1.197	1196.8	generate	Run3	generate/STIM_023.jpg	99
2252.277	0.913	912.6	generate	Run3	generate/STIM_023.jpg	100
2256.53	1.144	1144.5	generate	Run3	generate/STIM_024.jpg	100
2260.82	1.13	1130.4	generate	Run3	generate/STIM_024.jpg	99
2265.492	1.022	1021.9	generate	Run3	generate/STIM_024.jpg	100
2269.988	0.92	920.1	generate	Run3	generate/STIM_024.jpg	100
2273.658	0.856	855.6	generate	Run3	generate/STIM_024.jpg	100
2277.154	0.824	824.1	repeat	Run3	repeat/STIM_000.jpg	99
2281.581	0.613	612.7	repeat	Run3	repeat/STIM_000.jpg	100
2284.607	0.914	914.1	repeat	Run3	repeat/STIM_000.jpg	100
2288.96	0.888	888.2	repeat	Run3	repeat/STIM_000.jpg	100
2293.376	0.804	804.5	repeat	Run3	repeat/STIM_000.jpg	100
2297.621	0.772	772.5	repeat	Run3	repeat/STIM_001.jpg	100
2302.362	0.756	756.4	repeat	Run3	repeat/STIM_001.jpg	99
2306.694	0.874	874.1	repeat	Run3	repeat/STIM_001.jpg	99
2310.384	0.55	550.3	repeat	Run3	repeat/STIM_001.jpg	99
2314.257	0.549	549.1	repeat	Run3	repeat/STIM_001.jpg	100
2318.378	0.74	740.1	repeat	Run3	repeat/STIM_002.jpg	100
2322.001	0.756	755.9	repeat	Run3	repeat/STIM_002.jpg	100
2326.618	0.657	657.0	repeat	Run3	repeat/STIM_002.jpg	100
2329.68	0.905	905.0	repeat	Run3	repeat/STIM_002.jpg	100
2332.958	0.765	764.8	repeat	Run3	repeat/STIM_002.jpg	100
2336.425	0.695	694.9	repeat	Run3	repeat/STIM_003.jpg	99
2340.785	0.637	636.6	repeat	Run3	repeat/STIM_003.jpg	100
2343.756	0.555	555.0	repeat	Run3	repeat/STIM_003.jpg	100
2347.819	0.884	883.9	repeat	Run3	repeat/STIM_003.jpg	100
2352.177	0.504	504.0	repeat	Run3	repeat/STIM_003.jpg	100
2356.296	0.657	656.7	repeat	Run3	repeat/STIM_004.jpg	100
2360.331	0.711	711.3	repeat	Run3	repeat/STIM_004.jpg	100
2363.068	0.674	674.0	repeat	Run3	repeat/STIM_004.jpg	100
2367.499	0.476	476.3	repeat	Run3	repeat/STIM_004.jpg	99
2371.899	0.626	625.8	repeat	Run3	repeat/STIM_004.jpg	100
2375.842	0.507	506.7	repeat	Run3	repeat/STIM_005.jpg	99
2379.86	0.91	910.5	repeat	Run3	repeat/STIM_005.jpg	100
2384.326	0.8	799.7	repeat	Run3	repeat/STIM_005.jpg	100
2387.739	0.504	504.2	repeat	Run3	repeat/STIM_005.jpg	100
2391.404	0.485	484.7	repeat	Run3	repeat/STIM_005.jpg	99
2395.408	0.879	879.1	repeat	Run3	repeat/STIM_006.jpg	100
2399.875	0.682	682.1	repeat	Run3	repeat/STIM_006.jpg	100
2403.283	0.546	545.9	repeat	Run3	repeat/STIM_006.jpg	100
2407.48	0.757	756.6	repeat	Run3	repeat/STIM_006.jpg	99
2411.751	0.902	901.7	repeat	Run3	repeat/STIM_006.jpg	100
2414.847	0.654	654.5	repeat	Run3	repeat/STIM_007.jpg	100
2418.309	0.705	705.0	repeat	Run3	repeat/STIM_007.jpg	99
2422.628	0.632	632.2	repeat	Run3	repeat/STIM_007.jpg	99
2426.944	0.635	635.1	repeat	Run3	repeat/STIM_007.jpg	100
2431.546	0.681	681.4	repeat	Run3	repeat/STIM_007.jpg	99
2435.299	0.947	946.6	repeat	Run3	repeat/STIM_008.jpg	99
2438.718	0.491	490.9	repeat	Run3	repeat/STIM_008.jpg	100
2441.397	0.565	564.8	repeat	Run3	repeat/STIM_008.jpg	99
2445.078	0.897	897.4	repeat	Run3	repeat/STIM_008.jpg	100
2449.253	0.809	808.6	repeat	Run3	repeat/STIM_008.jpg	100
2453.626	0.636	636.0	repeat	Run3	repeat/STIM_009.jpg	100
2457.601	0.698	698.0	repeat	Run3	repeat/STIM_009.jpg	99
2461.642	0.526	525.6	repeat	Run3	repeat/STIM_009.jpg	100
2465.212	0.768	768.1	repeat	Run3	repeat/STIM_009.jpg	100
2469.662	0.694	694.5	repeat	Run3	repeat/STIM_009.jpg	99
2473.052	0.728	727.5	repeat	Run3	repeat/STIM_010.jpg	100
2477.758	0.713	712.6	repeat	Run3	repeat/STIM_010.jpg	100
2481.375	0.805	805.0	repeat	Run3	repeat/STIM_010.jpg	100
2485.253	0.863	862.7	repeat	Run3	repeat/STIM_010.jpg	99
2490.025	0.928	928.5	repeat	Run3	repeat/STIM_010.jpg	100
2494.529	0.842	842.4	repeat	Run3	repeat/STIM_011.jpg	99
2497.491	0.9	900.0	repeat	Run3	repeat/STIM_011.jpg	99
2500.926	0.593	592.7	repeat	Run3	repeat/STIM_011.jpg	100
2504.566	0.869	869.0	repeat	Run3	repeat/STIM_011.jpg	99
2507.938	0.826	825.7	repeat	Run3	repeat/STIM_011.jpg	99
2511.902	0.497	496.9	repeat	Run3	repeat/STIM_012.jpg	99
2514.738	0.752	751.9	repeat	Run3	repeat/STIM_012.jpg	100
2519.432	0.543	543.1	repeat	Run3	repeat/STIM_012.jpg	100
2523.533	0.552	552.1	repeat	Run3	repeat/STIM_012.jpg	99
2526.131	0.786	785.8	repeat	Run3	repeat/STIM_012.jpg	100
2529.192	0.887	886.8	repeat	Run3	repeat/STIM_013.jpg	100
2533.779	0.574	574.2	repeat	Run3	repeat/STIM_013.jpg	100
2538.329	0.838	838.4	repeat	Run3	repeat/STIM_013.jpg	99
2541.771	0.764	763.9	repeat	Run3	repeat/STIM_013.jpg	100
2546.525	0.764	763.7	repeat	Run3	repeat/STIM_013.jpg	99
2551.113	0.731	731.1	repeat	Run3	repeat/STIM_014.jpg	100
2554.075	0.634	633.5	repeat	Run3	repeat/STIM_014.jpg	100
2557.417	0.641	640.6	repeat	Run3	repeat/STIM_014.jpg	99
2560.368	0.661	660.8	repeat	Run3	repeat/STIM_014.jpg	99
2563.738	0.621	621.2	repeat	Run3	repeat/STIM_014.jpg	99
2567.726	1.943	1943.2	generate	Run4	generate/STIM_000.jpg	99
2572.092	1.089	1089.2	generate	Run4	generate/STIM_000.jpg	100
2576.99	1.839	1839.1	generate	Run4	generate/STIM_000.jpg	99
2580.999	1.72	1719.6	generate	Run4	generate/STIM_000.jpg	99
2585.193	1.181	1181.2	generate	Run4	generate/STIM_000.jpg	99
2589.408	1.649	1649.1	generate	Run4	generate/STIM_001.jpg	100
2593.129	1.926	1925.7	generate	Run4	generate/STIM_001.jpg	99
2598.973	1.539	1538.8	generate	Run4	generate/STIM_001.jpg	99
2604.442	1.601	1601.3	generate	Run4	generate/STIM_001.jpg	100
2608.993	0.839	839.2	generate	Run4	generate/STIM_001.jpg	99
2612.806	0.951	951.3	generate	Run4	generate/STIM_002.jpg	99
2616.333	1.93	1929.5	generate	Run4	generate/STIM_002.jpg	99
2620.513	0.964	963.5	generate	Run4	generate/STIM_002.jpg	100
2624.963	1.727	1727.2	generate	Run4	generate/STIM_002.jpg	99
2629.279	1.565	1564.8	generate	Run4	generate/STIM_002.jpg	100
2633.37	1.275	1275.4	generate	Run4	generate/STIM_003.jpg	100
2636.759	0.907	907.4	generate	Run4	generate/STIM_003.jpg	100
2640.77	0.827	826.8	generate	Run4	generate/STIM_003.jpg	100
2643.918	1.26	1260.4	generate	Run4	generate/STIM_003.jpg	100
2648.963	1.913	1913.1	generate	Run4	generate/STIM_003.jpg	100
2653.825	0.797	797.3	generate	Run4	generate/STIM_004.jpg	99
2657.02	1.125	1124.9	generate	Run4	generate/STIM_004.jpg	99
2660.836	1.056	1055.6	generate	Run4	generate/STIM_004.jpg	100
2664.546	1.949	1948.7	generate	Run4	generate/STIM_004.jpg	100
2669.631	0.914	914.5	generate	Run4	generate/STIM_004.jpg	99
2674.338	1.389	1388.7	generate	Run4	generate/STIM_005.jpg	100
2678.296	1.744	1743.9	generate	Run4	generate/STIM_005.jpg	100
2682.898	1.488	1488.4	generate	Run4	generate/STIM_005.jpg	99
2686.845	1.348	1347.9	generate	Run4	generate/STIM_005.jpg	99
2690.233	1.325	1324.8	generate	Run4	generate/STIM_005.jpg	99
2694.887	1.044	1044.0	generate	Run4	generate/STIM_006.jpg	100
2698.634	0.916	915.6	generate	Run4	generate/STIM_006.jpg	99
2703.168	1.442	1442.5	generate	Run4	generate/STIM_006.jpg	99
2707.764	1.038	1038.2	generate	Run4	generate/STIM_006.jpg	99
2712.051	1.256	1255.9	generate	Run4	generate/STIM_006.jpg	100
2716.569	0.86	860.4	generate	Run4	generate/STIM_007.jpg	100
2720.617	1.676	1676.1	generate	Run4	generate/STIM_007.jpg	100
2726.062	1.36	1359.8	generate	Run4	generate/STIM_007.jpg	100
2730.673	0.892	892.4	generate	Run4	generate/STIM_007.jpg	100
2733.573	1.182	1182.1	generate	Run4	generate/STIM_007.jpg	100
2737.05	1.801	1800.8	generate	Run4	generate/STIM_008.jpg	100
2742.742	1.343	1343.2	generate	Run4	generate/STIM_008.jpg	99
2747.197	1.617	1617.3	generate	Run4	generate/STIM_008.jpg	100
2750.868	1.342	1342.4	generate	Run4	generate/STIM_008.jpg	99
2755.68	0.807	807.3	generate	Run4	generate/STIM_008.jpg	100
2759.989	1.263	1263.1	generate	Run4	generate/STIM_009.jpg	100
2763.444	0.88	879.6	generate	Run4	generate/STIM_009.jpg	100
2766.429	1.666	1665.8	generate	Run4	generate/STIM_009.jpg	99
2771.244	1.168	1167.7	generate	Run4	generate/STIM_009.jpg	100
2775.958	1.329	1329.2	generate	Run4	generate/STIM_009.jpg	99
2779.975	0.945	944.7	generate	Run4	generate/STIM_010.jpg	99
2784.616	1.34	1339.8	generate	Run4	generate/STIM_010.jpg	100
2789.583	1.499	1499.0	generate	Run4	generate/STIM_010.jpg	100
2794.981	1.097	1097.0	generate	Run4	generate/STIM_010.jpg	100
2799.538	1.542	1542.2	generate	Run4	generate/STIM_010.jpg	99
2803.89	1.228	1227.7	generate	Run4	generate/STIM_011.jpg	99
2808.035	1.224	1223.7	generate	Run4	generate/STIM_011.jpg	100
2811.573	1.554	1554.4	generate	Run4	generate/STIM_011.jpg	100
2816.595	1.677	1677.1	generate	Run4	generate/STIM_011.jpg	100
2822.058	1.841	1840.8	generate	Run4	generate/STIM_011.jpg	100
2826.986	1.206	1206.0	generate	Run4	generate/STIM_012.jpg	100
2831.17	1.771	1770.6	generate	Run4	generate/STIM_012.jpg	100
2835.546	1.506	1505.9	generate	Run4	generate/STIM_012.jpg	100
2840.641	1.021	1021.0	generate	Run4	generate/STIM_012.jpg	100
2843.682	1.175	1175.3	generate	Run4	generate/STIM_012.jpg	99
2847.047	1.56	1559.9	generate	Run4	generate/STIM_013.jpg	99
2851.592	0.806	806.4	generate	Run4	generate/STIM_013.jpg	100
2856.204	0.952	952.2	generate	Run4	generate/STIM_013.jpg	99
2860.657	1.938	1937.5	generate	Run4	generate/STIM_013.jpg	99
2864.656	1.285	1285.3	generate	Run4	generate/STIM_013.jpg	100
2869.851	1.558	1557.9	generate	Run4	generate/STIM_014.jpg	99
2874.278	1.564	1563.8	generate	Run4	generate/STIM_014.jpg	99
2878.042	1.181	1181.2	generate	Run4	generate/STIM_014.jpg	100
2883.154	1.766	1765.5	generate	Run4	generate/STIM_014.jpg	100
2888.248	1.773	1773.4	generate	Run4	generate/STIM_014.jpg	99
2892.407	1.242	1242.3	generate	Run4	generate/STIM_015.jpg	99
2897.043	1.708	1707.9	generate	Run4	generate/STIM_015.jpg	100
2901.88	1.858	1857.9	generate	Run4	generate/STIM_015.jpg	100
2906.9	1.708	1708.0	generate	Run4	generate/STIM_015.jpg	100
2911.026	1.975	1975.3	generate	Run4	generate/STIM_015.jpg	100
2915.45	0.932	932.4	generate	Run4	generate/STIM_016.jpg	99
2918.873	1.324	1324.1	generate	Run4	generate/STIM_016.jpg	99
2923.492	1.865	1865.4	generate	Run4	generate/STIM_016.jpg	100
2929.143	1.777	1777.2	generate	Run4	generate/STIM_016.jpg	99
2934.287	1.717	1717.1	generate	Run4	generate/STIM_016.jpg	99
2938.906	1.69	1690.3	generate	Run4	generate/STIM_017.jpg	99
2944.543	0.896	896.1	generate	Run4	generate/STIM_017.jpg	100
2948.367	0.896	896.5	generate	Run4	generate/STIM_017.jpg	100
2952.858	0.997	997.3	generate	Run4	generate/STIM_017.jpg	100
2957.588	1.698	1697.9	generate	Run4	generate/STIM_017.jpg	100
2963.149	1.45	1449.6	generate	Run4	generate/STIM_018.jpg	99
2968.459	1.151	1150.6	generate	Run4	generate/STIM_018.jpg	99
2972.607	1.153	1153.2	generate	Run4	generate/STIM_018.jpg	99
2977.53	0.952	952.3	generate	Run4	generate/STIM_018.jpg	99
2982.362	1.806	1806.2	generate	Run4	generate/STIM_018.jpg	100
2987.495	1.746	1746.3	generate	Run4	generate/STIM_019.jpg	99
2992.725	1.496	1495.7	generate	Run4	generate/STIM_019.jpg	100
2997.808	1.334	1333.5	generate	Run4	generate/STIM_019.jpg	99
3001.816	1.246	1246.0	generate	Run4	generate/STIM_019.jpg	99
3006.244	1.404	1403.6	generate	Run4	generate/STIM_019.jpg	99
3010.75	1.074	1074.2	generate	Run4	generate/STIM_020.jpg	100
3014.045	0.977	977.4	generate	Run4	generate/STIM_020.jpg	99
3018.802	1.497	1497.2	generate	Run4	generate/STIM_020.jpg	99
3022.54	1.98	1980.0	generate	Run4	generate/STIM_020.jpg	100
3026.896	0.861	860.6	generate	Run4	generate/STIM_020.jpg	99
3031.613	0.975	975.3	generate	Run4	generate/STIM_021.jpg	99
3036.103	0.835	834.6	generate	Run4	generate/STIM_021.jpg	99
3040.694	1.815	1814.6	generate	Run4	generate/STIM_021.jpg	100
3045.944	1.453	1453.1	generate	Run4	generate/STIM_021.jpg	100
3050.623	1.48	1480.1	generate	Run4	generate/STIM_021.jpg	99
3055.316	1.682	1682.3	generate	Run4	generate/STIM_022.jpg	99
3059.712	1.372	1371.6	generate	Run4	generate/STIM_022.jpg	99
3064.78	1.521	1521.1	generate	Run4	generate/STIM_022.jpg	100
3068.873	1.773	1772.7	generate	Run4	generate/STIM_022.jpg	100
3073.105	0.93	929.5	generate	Run4	generate/STIM_022.jpg	99
3077.307	1.2	1199.9	generate	Run4	generate/STIM_023.jpg	99
3081.633	1.161	1160.7	generate	Run4	generate/STIM_023.jpg	99
3085.863	0.867	867.3	generate	Run4	generate/STIM_023.jpg	100
3089.585	1.235	1234.6	generate	Run4	generate/STIM_023.jpg	99
3093.487	1.63	1630.3	generate	Run4	generate/STIM_023.jpg	99
3098.866	1.294	1294.0	generate	Run4	generate/STIM_024.jpg	99
3102.193	1.184	1184.2	generate	Run4	generate/STIM_024.jpg	99
3106.323	1.341	1341.2	generate	Run4	generate/STIM_024.jpg	99
3111.376	1.868	1868.5	generate	Run4	generate/STIM_024.jpg	99
3115.699	1.61	1610.3	generate	Run4	generate/STIM_024.jpg	100
3120.684	0.839	838.7	repeat	Run4	repeat/STIM_000.jpg	99
3125.012	0.793	792.8	repeat	Run4	repeat/STIM_000.jpg	99
3128.173	0.608	607.9	repeat	Run4	repeat/STIM_000.jpg	100
3131.009	0.606	606.1	repeat	Run4	repeat/STIM_000.jpg	99
3134.356	0.916	916.4	repeat	Run4	repeat/STIM_000.jpg	100
3138.045	0.556	556.2	repeat	Run4	repeat/STIM_001.jpg	100
3142.576	0.577	577.4	repeat	Run4	repeat/STIM_001.jpg	99
3147.043	0.654	654.0	repeat	Run4	repeat/STIM_001.jpg	99
3150.157	0.899	899.3	repeat	Run4	repeat/STIM_001.jpg	99
3154.648	0.666	666.0	repeat	Run4	repeat/STIM_001.jpg	99
3158.064	0.853	852.8	repeat	Run4	repeat/STIM_002.jpg	100
3161.942	0.707	706.8	repeat	Run4	repeat/STIM_002.jpg	99
3165.395	0.538	538.2	repeat	Run4	repeat/STIM_002.jpg	100
3169.31	0.906	906.4	repeat	Run4	repeat/STIM_002.jpg	99
3172.968	0.535	535.3	repeat	Run4	repeat/STIM_002.jpg	100
3176.265	0.484	484.1	repeat	Run4	repeat/STIM_003.jpg	99
3179.9	0.652	652.2	repeat	Run4	repeat/STIM_003.jpg	99
3183.856	0.906	906.1	repeat	Run4	repeat/STIM_003.jpg	100
3188.162	0.92	920.2	repeat	Run4	repeat/STIM_003.jpg	100
3192.022	0.565	564.6	repeat	Run4	repeat/STIM_003.jpg	100
3195.683	0.593	593.4	repeat	Run4	repeat/STIM_004.jpg	100
3199.572	0.794	794.3	repeat	Run4	repeat/STIM_004.jpg	100
3203.108	0.526	526.1	repeat	Run4	repeat/STIM_004.jpg	100
3205.8	0.806	806.0	repeat	Run4	repeat/STIM_004.jpg	99
3209.477	0.857	856.9	repeat	Run4	repeat/STIM_004.jpg	99
3213.309	0.821	820.9	repeat	Run4	repeat/STIM_005.jpg	100
3216.692	0.851	850.6	repeat	Run4	repeat/STIM_005.jpg	99
3220.734	0.946	945.7	repeat	Run4	repeat/STIM_005.jpg	99
3224.567	0.912	912.0	repeat	Run4	repeat/STIM_005.jpg	99
3228.874	0.552	552.4	repeat	Run4	repeat/STIM_005.jpg	99
3232.302	0.727	727.2	repeat	Run4	repeat/STIM_006.jpg	99
3235.813	0.596	596.2	repeat	Run4	repeat/STIM_006.jpg	99
3239.649	0.927	927.3	repeat	Run4	repeat/STIM_006.jpg	99
3243.112	0.856	856.3	repeat	Run4	repeat/STIM_006.jpg	99
3246.19	0.621	621.2	repeat	Run4	repeat/STIM_006.jpg	100
3249.922	0.922	921.9	repeat	Run4	repeat/STIM_007.jpg	100
3254.09	0.756	756.3	repeat	Run4	repeat/STIM_007.jpg	99
3258.819	0.809	808.7	repeat	Run4	repeat/STIM_007.jpg	99
3262.496	0.824	823.5	repeat	Run4	repeat/STIM_007.jpg	99
3266.365	0.513	513.3	repeat	Run4	repeat/STIM_007.jpg	100
3270.873	0.669	668.7	repeat	Run4	repeat/STIM_008.jpg	99
3273.943	0.879	879.0	repeat	Run4	repeat/STIM_008.jpg	99
3277.513	0.542	541.7	repeat	Run4	repeat/STIM_008.jpg	100
3281.381	0.884	884.0	repeat	Run4	repeat/STIM_008.jpg	99
3284.601	0.584	583.5	repeat	Run4	repeat/STIM_008.jpg	99
3288.967	0.871	871.4	repeat	Run4	repeat/STIM_009.jpg	100
3292.889	0.692	691.5	repeat	Run4	repeat/STIM_009.jpg	99
3297.299	0.566	566.5	repeat	Run4	repeat/STIM_009.jpg	100
3301.658	0.589	589.4	repeat	Run4	repeat/STIM_009.jpg	99
3305.429	0.627	627.4	repeat	Run4	repeat/STIM_009.jpg	99
3309.358	0.715	715.0	repeat	Run4	repeat/STIM_010.jpg	99
3313.824	0.821	821.4	repeat	Run4	repeat/STIM_010.jpg	99
3317.22	0.87	870.0	repeat	Run4	repeat/STIM_010.jpg	99
3321.459	0.683	683.2	repeat	Run4	repeat/STIM_010.jpg	100
3325.376	0.904	903.8	repeat	Run4	repeat/STIM_010.jpg	99
3329.61	0.528	527.7	repeat	Run4	repeat/STIM_011.jpg	99
3333.788	0.664	664.0	repeat	Run4	repeat/STIM_011.jpg	100
3336.812	0.685	684.8	repeat	Run4	repeat/STIM_011.jpg	100
3339.748	0.67	670.3	repeat	Run4	repeat/STIM_011.jpg	100
3343.029	0.836	836.3	repeat	Run4	repeat/STIM_011.jpg	100
3346.573	0.476	475.7	repeat	Run4	repeat/STIM_012.jpg	100
3349.642	0.482	481.8	repeat	Run4	repeat/STIM_012.jpg	100
3353.484	0.913	913.2	repeat	Run4	repeat/STIM_012.jpg	100
3358.128	0.56	559.8	repeat	Run4	repeat/STIM_012.jpg	100
3361.108	0.481	480.6	repeat	Run4	repeat/STIM_012.jpg	100
3363.786	0.905	904.6	repeat	Run4	repeat/STIM_013.jpg	99
3368.62	0.779	779.1	repeat	Run4	repeat/STIM_013.jpg	99
3371.819	0.51	510.1	repeat	Run4	repeat/STIM_013.jpg	100
3374.497	0.89	889.5	repeat	Run4	repeat/STIM_013.jpg	100
3378.873	0.868	868.0	repeat	Run4	repeat/STIM_013.jpg	100
3382.588	0.917	916.8	repeat	Run4	repeat/STIM_014.jpg	100
3385.862	0.594	594.3	repeat	Run4	repeat/STIM_014.jpg	100
3390.108	0.83	830.4	repeat	Run4	repeat/STIM_014.jpg	100
3394.865	0.657	656.6	repeat	Run4	repeat/STIM_014.jpg	99
3399.034	0.902	901.5	repeat	Run4	repeat/STIM_014.jpg	100
