onset	duration	accuracy	trial_type	learning_stage	stimulus
0.0	1.367	correct	generate	Run1	generate/STIM_000.jpg
4.868	1.42	correct	generate	Run1	generate/STIM_000.jpg
9.893	2.126	correct	generate	Run1	generate/STIM_000.jpg
14.229	1.041	correct	generate	Run1	generate/STIM_000.jpg
18.031	1.163	correct	generate	Run1	generate/STIM_000.jpg
21.492	2.553	correct	generate	Run1	generate/STIM_001.jpg
27.16	1.874	incorrect	generate	Run1	generate/STIM_001.jpg
31.113	1.286	correct	generate	Run1	generate/STIM_001.jpg
34.664	1.077	correct	generate	Run1	generate/STIM_001.jpg
38.497	1.801	incorrect	generate	Run1	generate/STIM_001.jpg
44.01	2.175	correct	generate	Run1	generate/STIM_002.jpg
48.632	2.181	correct	generate	Run1	generate/STIM_002.jpg
53.815	1.894	correct	generate	Run1	generate/STIM_002.jpg
59.688	1.169	correct	generate	Run1	generate/STIM_002.jpg
63.857	1.044	correct	generate	Run1	generate/STIM_002.jpg
68.81	2.676	incorrect	generate	Run1	generate/STIM_003.jpg
75.332	1.657	correct	generate	Run1	generate/STIM_003.jpg
80.704	1.294	correct	generate	Run1	generate/STIM_003.jpg
85.438	1.282	correct	generate	Run1	generate/STIM_003.jpg
89.852	1.274	correct	generate	Run1	generate/STIM_003.jpg
94.134	2.78	correct	generate	Run1	generate/STIM_004.jpg
99.515	1.701	correct	generate	Run1	generate/STIM_004.jpg
105.04	1.402	incorrect	generate	Run1	generate/STIM_004.jpg
108.751	1.286	correct	generate	Run1	generate/STIM_004.jpg
113.594	2.198	correct	generate	Run1	generate/STIM_004.jpg
119.476	2.286	correct	generate	Run1	generate/STIM_005.jpg
125.431	1.36	correct	generate	Run1	generate/STIM_005.jpg
130.3	1.922	correct	generate	Run1	generate/STIM_005.jpg
134.281	2.266	correct	generate	Run1	generate/STIM_005.jpg
139.997	1.953	correct	generate	Run1	generate/STIM_005.jpg
145.676	1.472	correct	generate	Run1	generate/STIM_006.jpg
150.004	1.757	correct	generate	Run1	generate/STIM_006.jpg
154.387	1.478	correct	generate	Run1	generate/STIM_006.jpg
158.842	2.008	correct	generate	Run1	generate/STIM_006.jpg
163.234	1.81	correct	generate	Run1	generate/STIM_006.jpg
167.923	1.314	correct	generate	Run1	generate/STIM_007.jpg
172.286	2.546	correct	generate	Run1	generate/STIM_007.jpg
177.713	2.283	correct	generate	Run1	generate/STIM_007.jpg
183.723	1.099	correct	generate	Run1	generate/STIM_007.jpg
188.687	0.932	correct	generate	Run1	generate/STIM_007.jpg
193.197	1.841	correct	generate	Run1	generate/STIM_008.jpg
197.393	2.33	correct	generate	Run1	generate/STIM_008.jpg
203.04	1.051	correct	generate	Run1	generate/STIM_008.jpg
207.453	1.304	correct	generate	Run1	generate/STIM_008.jpg
211.435	2.177	correct	generate	Run1	generate/STIM_008.jpg
216.766	2.276	correct	generate	Run1	generate/STIM_009.jpg
222.663	2.452	correct	generate	Run1	generate/STIM_009.jpg
228.643	2.104	correct	generate	Run1	generate/STIM_009.jpg
233.75	1.643	correct	generate	Run1	generate/STIM_009.jpg
237.61	0.981	correct	generate	Run1	generate/STIM_009.jpg
240.764	1.921	incorrect	generate	Run1	generate/STIM_010.jpg
246.209	1.276	correct	generate	Run1	generate/STIM_010.jpg
250.704	1.245	correct	generate	Run1	generate/STIM_010.jpg
254.423	1.679	correct	generate	Run1	generate/STIM_010.jpg
260.069	1.777	correct	generate	Run1	generate/STIM_010.jpg
263.931	2.832	correct	generate	Run1	generate/STIM_011.jpg
270.112	1.862	incorrect	generate	Run1	generate/STIM_011.jpg
275.803	1.855	correct	generate	Run1	generate/STIM_011.jpg
280.624	1.584	correct	generate	Run1	generate/STIM_011.jpg
284.646	1.737	correct	generate	Run1	generate/STIM_011.jpg
288.606	1.905	incorrect	generate	Run1	generate/STIM_012.jpg
293.566	1.4	correct	generate	Run1	generate/STIM_012.jpg
297.065	2.338	correct	generate	Run1	generate/STIM_012.jpg
302.656	1.233	correct	generate	Run1	generate/STIM_012.jpg
305.989	1.524	correct	generate	Run1	generate/STIM_012.jpg
311.161	2.838	correct	generate	Run1	generate/STIM_013.jpg
316.893	1.842	incorrect	generate	Run1	generate/STIM_013.jpg
322.735	2.417	correct	generate	Run1	generate/STIM_013.jpg
328.953	1.65	correct	generate	Run1	generate/STIM_013.jpg
333.68	2.053	correct	generate	Run1	generate/STIM_013.jpg
338.159	1.32	correct	generate	Run1	generate/STIM_014.jpg
342.763	1.898	correct	generate	Run1	generate/STIM_014.jpg
348.517	1.934	correct	generate	Run1	generate/STIM_014.jpg
352.796	2.372	correct	generate	Run1	generate/STIM_014.jpg
358.867	1.865	correct	generate	Run1	generate/STIM_014.jpg
364.077	2.144	correct	generate	Run1	generate/STIM_015.jpg
368.593	1.694	correct	generate	Run1	generate/STIM_015.jpg
372.693	2.179	correct	generate	Run1	generate/STIM_015.jpg
377.711	1.231	correct	generate	Run1	generate/STIM_015.jpg
381.062	1.175	correct	generate	Run1	generate/STIM_015.jpg
384.891	1.142	correct	generate	Run1	generate/STIM_016.jpg
389.697	1.786	incorrect	generate	Run1	generate/STIM_016.jpg
394.658	1.808	correct	generate	Run1	generate/STIM_016.jpg
400.419	1.307	correct	generate	Run1	generate/STIM_016.jpg
404.354	1.741	incorrect	generate	Run1	generate/STIM_016.jpg
409.109	1.367	correct	generate	Run1	generate/STIM_017.jpg
414.129	2.426	correct	generate	Run1	generate/STIM_017.jpg
419.678	2.005	correct	generate	Run1	generate/STIM_017.jpg
424.075	0.987	correct	generate	Run1	generate/STIM_017.jpg
428.753	1.496	correct	generate	Run1	generate/STIM_017.jpg
433.219	2.567	correct	generate	Run1	generate/STIM_018.jpg
438.307	1.785	correct	generate	Run1	generate/STIM_018.jpg
442.147	2.1	correct	generate	Run1	generate/STIM_018.jpg
447.129	2.052	correct	generate	Run1	generate/STIM_018.jpg
451.682	1.676	correct	generate	Run1	generate/STIM_018.jpg
456.942	1.639	correct	generate	Run1	generate/STIM_019.jpg
461.269	2.607	correct	generate	Run1	generate/STIM_019.jpg
467.635	1.58	correct	generate	Run1	generate/STIM_019.jpg
471.275	1.863	correct	generate	Run1	generate/STIM_019.jpg
476.771	1.86	correct	generate	Run1	generate/STIM_019.jpg
481.422	1.842	correct	generate	Run1	generate/STIM_020.jpg
486.046	1.391	correct	generate	Run1	generate/STIM_020.jpg
491.358	2.525	correct	generate	Run1	generate/STIM_020.jpg
496.696	2.38	correct	generate	Run1	generate/STIM_020.jpg
502.497	1.123	correct	generate	Run1	generate/STIM_020.jpg
506.628	1.152	correct	generate	Run1	generate/STIM_021.jpg
510.888	2.003	correct	generate	Run1	generate/STIM_021.jpg
515.403	1.742	correct	generate	Run1	generate/STIM_021.jpg
520.3	1.398	correct	generate	Run1	generate/STIM_021.jpg
525.162	1.273	correct	generate	Run1	generate/STIM_021.jpg
529.395	1.75	correct	generate	Run1	generate/STIM_022.jpg
534.618	1.948	incorrect	generate	Run1	generate/STIM_022.jpg
539.543	1.688	correct	generate	Run1	generate/STIM_022.jpg
543.849	1.134	correct	generate	Run1	generate/STIM_022.jpg
547.018	2.253	correct	generate	Run1	generate/STIM_022.jpg
552.665	2.04	correct	generate	Run1	generate/STIM_023.jpg
557.887	1.358	correct	generate	Run1	generate/STIM_023.jpg
561.682	1.767	correct	generate	Run1	generate/STIM_023.jpg
565.578	1.658	incorrect	generate	Run1	generate/STIM_023.jpg
571.104	1.574	correct	generate	Run1	generate/STIM_023.jpg
574.74	1.835	correct	generate	Run1	generate/STIM_024.jpg
579.063	1.475	correct	generate	Run1	generate/STIM_024.jpg
583.761	1.658	correct	generate	Run1	generate/STIM_024.jpg
588.036	2.383	correct	generate	Run1	generate/STIM_024.jpg
592.764	1.623	correct	generate	Run1	generate/STIM_024.jpg
597.07	0.817	correct	repeat	Run1	repeat/STIM_000.jpg
600.784	0.532	correct	repeat	Run1	repeat/STIM_000.jpg
604.545	0.569	correct	repeat	Run1	repeat/STIM_000.jpg
608.537	0.532	correct	repeat	Run1	repeat/STIM_000.jpg
611.89	0.624	correct	repeat	Run1	repeat/STIM_000.jpg
616.297	0.503	correct	repeat	Run1	repeat/STIM_001.jpg
619.385	0.771	correct	repeat	Run1	repeat/STIM_001.jpg
623.29	0.58	correct	repeat	Run1	repeat/STIM_001.jpg
627.519	0.64	correct	repeat	Run1	repeat/STIM_001.jpg
632.136	0.91	correct	repeat	Run1	repeat/STIM_001.jpg
635.578	0.581	correct	repeat	Run1	repeat/STIM_002.jpg
638.996	0.702	correct	repeat	Run1	repeat/STIM_002.jpg
643.299	0.784	correct	repeat	Run1	repeat/STIM_002.jpg
647.204	0.723	correct	repeat	Run1	repeat/STIM_002.jpg
650.206	0.648	correct	repeat	Run1	repeat/STIM_002.jpg
653.967	0.541	correct	repeat	Run1	repeat/STIM_003.jpg
657.863	0.544	correct	repeat	Run1	repeat/STIM_003.jpg
661.536	0.519	correct	repeat	Run1	repeat/STIM_003.jpg
664.456	0.603	correct	repeat	Run1	repeat/STIM_003.jpg
667.305	0.675	correct	repeat	Run1	repeat/STIM_003.jpg
670.936	0.574	correct	repeat	Run1	repeat/STIM_004.jpg
675.333	0.642	correct	repeat	Run1	repeat/STIM_004.jpg
678.004	0.559	correct	repeat	Run1	repeat/STIM_004.jpg
682.366	0.911	incorrect	repeat	Run1	repeat/STIM_004.jpg
686.735	0.551	correct	repeat	Run1	repeat/STIM_004.jpg
691.165	0.56	correct	repeat	Run1	repeat/STIM_005.jpg
695.59	0.501	correct	repeat	Run1	repeat/STIM_005.jpg
699.016	0.622	correct	repeat	Run1	repeat/STIM_005.jpg
703.083	0.887	correct	repeat	Run1	repeat/STIM_005.jpg
707.118	0.55	correct	repeat	Run1	repeat/STIM_005.jpg
709.78	0.714	correct	repeat	Run1	repeat/STIM_006.jpg
714.214	0.655	correct	repeat	Run1	repeat/STIM_006.jpg
717.199	0.624	correct	repeat	Run1	repeat/STIM_006.jpg
720.97	0.698	correct	repeat	Run1	repeat/STIM_006.jpg
723.851	0.776	correct	repeat	Run1	repeat/STIM_006.jpg
727.139	0.485	correct	repeat	Run1	repeat/STIM_007.jpg
730.11	0.726	correct	repeat	Run1	repeat/STIM_007.jpg
734.136	0.935	correct	repeat	Run1	repeat/STIM_007.jpg
737.686	0.891	correct	repeat	Run1	repeat/STIM_007.jpg
741.423	0.878	correct	repeat	Run1	repeat/STIM_007.jpg
745.485	0.682	correct	repeat	Run1	repeat/STIM_008.jpg
749.363	0.51	correct	repeat	Run1	repeat/STIM_008.jpg
752.77	0.837	correct	repeat	Run1	repeat/STIM_008.jpg
756.436	0.758	correct	repeat	Run1	repeat/STIM_008.jpg
760.829	0.712	correct	repeat	Run1	repeat/STIM_008.jpg
764.02	0.941	correct	repeat	Run1	repeat/STIM_009.jpg
767.557	0.661	correct	repeat	Run1	repeat/STIM_009.jpg
771.364	0.917	correct	repeat	Run1	repeat/STIM_009.jpg
775.001	0.69	correct	repeat	Run1	repeat/STIM_009.jpg
778.05	0.944	correct	repeat	Run1	repeat/STIM_009.jpg
782.645	0.629	correct	repeat	Run1	repeat/STIM_010.jpg
785.577	0.705	correct	repeat	Run1	repeat/STIM_010.jpg
788.72	0.59	incorrect	repeat	Run1	repeat/STIM_010.jpg
792.093	0.923	correct	repeat	Run1	repeat/STIM_010.jpg
795.762	0.679	correct	repeat	Run1	repeat/STIM_010.jpg
798.636	0.764	correct	repeat	Run1	repeat/STIM_011.jpg
803.19	0.68	correct	repeat	Run1	repeat/STIM_011.jpg
807.342	0.8	correct	repeat	Run1	repeat/STIM_011.jpg
812.082	0.734	correct	repeat	Run1	repeat/STIM_011.jpg
815.781	0.745	correct	repeat	Run1	repeat/STIM_011.jpg
820.156	0.54	correct	repeat	Run1	repeat/STIM_012.jpg
822.806	0.866	correct	repeat	Run1	repeat/STIM_012.jpg
826.383	0.919	correct	repeat	Run1	repeat/STIM_012.jpg
829.844	0.648	correct	repeat	Run1	repeat/STIM_012.jpg
832.983	0.701	correct	repeat	Run1	repeat/STIM_012.jpg
836.394	0.587	correct	repeat	Run1	repeat/STIM_013.jpg
839.403	0.642	correct	repeat	Run1	repeat/STIM_013.jpg
844.045	0.631	correct	repeat	Run1	repeat/STIM_013.jpg
848.479	0.549	correct	repeat	Run1	repeat/STIM_013.jpg
851.688	0.895	correct	repeat	Run1	repeat/STIM_013.jpg
855.646	0.944	correct	repeat	Run1	repeat/STIM_014.jpg
860.179	0.798	correct	repeat	Run1	repeat/STIM_014.jpg
864.004	0.863	correct	repeat	Run1	repeat/STIM_014.jpg
868.05	0.494	correct	repeat	Run1	repeat/STIM_014.jpg
871.463	0.887	incorrect	repeat	Run1	repeat/STIM_014.jpg
874.511	1.639	correct	generate	Run2	generate/STIM_000.jpg
880.141	1.7	correct	generate	Run2	generate/STIM_000.jpg
885.746	1.142	correct	generate	Run2	generate/STIM_000.jpg
890.509	1.707	correct	generate	Run2	generate/STIM_000.jpg
894.334	1.79	correct	generate	Run2	generate/STIM_000.jpg
898.549	1.044	incorrect	generate	Run2	generate/STIM_001.jpg
901.761	1.228	correct	generate	Run2	generate/STIM_001.jpg
905.131	0.985	correct	generate	Run2	generate/STIM_001.jpg
909.966	1.586	correct	generate	Run2	generate/STIM_001.jpg
915.265	1.135	correct	generate	Run2	generate/STIM_001.jpg
918.845	1.638	incorrect	generate	Run2	generate/STIM_002.jpg
923.809	1.784	correct	generate	Run2	generate/STIM_002.jpg
929.232	0.966	correct	generate	Run2	generate/STIM_002.jpg
933.363	1.771	correct	generate	Run2	generate/STIM_002.jpg
938.201	0.917	correct	generate	Run2	generate/STIM_002.jpg
943.008	1.226	correct	generate	Run2	generate/STIM_003.jpg
947.587	2.124	correct	generate	Run2	generate/STIM_003.jpg
951.72	1.447	incorrect	generate	Run2	generate/STIM_003.jpg
956.558	1.551	correct	generate	Run2	generate/STIM_003.jpg
961.088	0.953	correct	generate	Run2	generate/STIM_003.jpg
964.115	1.35	correct	generate	Run2	generate/STIM_004.jpg
968.821	1.804	correct	generate	Run2	generate/STIM_004.jpg
973.563	1.684	correct	generate	Run2	generate/STIM_004.jpg
978.015	1.585	correct	generate	Run2	generate/STIM_004.jpg
982.225	1.062	correct	generate	Run2	generate/STIM_004.jpg
985.531	2.224	correct	generate	Run2	generate/STIM_005.jpg
990.221	2.105	correct	generate	Run2	generate/STIM_005.jpg
996.277	0.934	correct	generate	Run2	generate/STIM_005.jpg
999.657	0.937	correct	generate	Run2	generate/STIM_005.jpg
1003.056	1.041	correct	generate	Run2	generate/STIM_005.jpg
1007.218	1.802	correct	generate	Run2	generate/STIM_006.jpg
1011.138	1.252	correct	generate	Run2	generate/STIM_006.jpg
1016.303	1.516	correct	generate	Run2	generate/STIM_006.jpg
1021.602	1.48	correct	generate	Run2	generate/STIM_006.jpg
1025.252	1.104	correct	generate	Run2	generate/STIM_006.jpg
1030.0	1.932	correct	generate	Run2	generate/STIM_007.jpg
1035.286	0.933	correct	generate	Run2	generate/STIM_007.jpg
1039.617	1.845	correct	generate	Run2	generate/STIM_007.jpg
1044.917	1.879	correct	generate	Run2	generate/STIM_007.jpg
1049.604	1.93	correct	generate	Run2	generate/STIM_007.jpg
1053.796	1.256	correct	generate	Run2	generate/STIM_008.jpg
1058.972	0.966	correct	generate	Run2	generate/STIM_008.jpg
1063.869	1.415	correct	generate	Run2	generate/STIM_008.jpg
1067.978	0.937	correct	generate	Run2	generate/STIM_008.jpg
1072.247	1.546	correct	generate	Run2	generate/STIM_008.jpg
1076.924	1.969	correct	generate	Run2	generate/STIM_009.jpg
1081.973	1.818	correct	generate	Run2	generate/STIM_009.jpg
1086.134	1.539	correct	generate	Run2	generate/STIM_009.jpg
1091.462	1.5	correct	generate	Run2	generate/STIM_009.jpg
1095.535	1.952	correct	generate	Run2	generate/STIM_009.jpg
1100.242	2.394	correct	generate	Run2	generate/STIM_010.jpg
1105.131	1.52	correct	generate	Run2	generate/STIM_010.jpg
1108.745	1.777	correct	generate	Run2	generate/STIM_010.jpg
1113.587	1.793	correct	generate	Run2	generate/STIM_010.jpg
1117.39	1.547	correct	generate	Run2	generate/STIM_010.jpg
1122.324	2.137	correct	generate	Run2	generate/STIM_011.jpg
1126.613	2.251	correct	generate	Run2	generate/STIM_011.jpg
1131.386	0.932	correct	generate	Run2	generate/STIM_011.jpg
1135.24	1.291	correct	generate	Run2	generate/STIM_011.jpg
1138.695	1.675	correct	generate	Run2	generate/STIM_011.jpg
1143.87	1.614	correct	generate	Run2	generate/STIM_012.jpg
1149.461	1.304	correct	generate	Run2	generate/STIM_012.jpg
1154.279	1.596	correct	generate	Run2	generate/STIM_012.jpg
1159.71	1.17	correct	generate	Run2	generate/STIM_012.jpg
1164.435	0.88	correct	generate	Run2	generate/STIM_012.jpg
1168.384	2.374	incorrect	generate	Run2	generate/STIM_013.jpg
1174.609	1.779	correct	generate	Run2	generate/STIM_013.jpg
1179.462	0.914	correct	generate	Run2	generate/STIM_013.jpg
1182.594	1.957	correct	generate	Run2	generate/STIM_013.jpg
1187.455	1.89	incorrect	generate	Run2	generate/STIM_013.jpg
1192.194	1.119	correct	generate	Run2	generate/STIM_014.jpg
1196.873	1.3	correct	generate	Run2	generate/STIM_014.jpg
1201.676	1.953	correct	generate	Run2	generate/STIM_014.jpg
1207.565	1.076	correct	generate	Run2	generate/STIM_014.jpg
1211.731	0.898	correct	generate	Run2	generate/STIM_014.jpg
1215.028	2.09	correct	generate	Run2	generate/STIM_015.jpg
1219.968	1.597	correct	generate	Run2	generate/STIM_015.jpg
1224.025	1.528	correct	generate	Run2	generate/STIM_015.jpg
1228.78	1.838	correct	generate	Run2	generate/STIM_015.jpg
1234.317	0.935	correct	generate	Run2	generate/STIM_015.jpg
1237.448	2.178	correct	generate	Run2	generate/STIM_016.jpg
1241.96	1.215	correct	generate	Run2	generate/STIM_016.jpg
1245.797	1.813	correct	generate	Run2	generate/STIM_016.jpg
1251.57	1.471	correct	generate	Run2	generate/STIM_016.jpg
1256.152	1.72	correct	generate	Run2	generate/STIM_016.jpg
1260.688	2.353	correct	generate	Run2	generate/STIM_017.jpg
1267.028	1.761	correct	generate	Run2	generate/STIM_017.jpg
1271.868	1.742	correct	generate	Run2	generate/STIM_017.jpg
1275.739	1.852	correct	generate	Run2	generate/STIM_017.jpg
1280.612	1.723	correct	generate	Run2	generate/STIM_017.jpg
1284.666	2.333	correct	generate	Run2	generate/STIM_018.jpg
1290.773	1.883	incorrect	generate	Run2	generate/STIM_018.jpg
1295.302	1.316	correct	generate	Run2	generate/STIM_018.jpg
1299.862	1.449	correct	generate	Run2	generate/STIM_018.jpg
1303.827	1.805	correct	generate	Run2	generate/STIM_018.jpg
1309.594	1.149	correct	generate	Run2	generate/STIM_019.jpg
1314.198	1.215	correct	generate	Run2	generate/STIM_019.jpg
1317.783	1.213	correct	generate	Run2	generate/STIM_019.jpg
1322.273	1.924	correct	generate	Run2	generate/STIM_019.jpg
1326.223	1.942	correct	generate	Run2	generate/STIM_019.jpg
1331.405	2.287	correct	generate	Run2	generate/STIM_020.jpg
1336.453	1.757	correct	generate	Run2	generate/STIM_020.jpg
1341.045	1.63	correct	generate	Run2	generate/STIM_020.jpg
1345.256	1.092	correct	generate	Run2	generate/STIM_020.jpg
1349.42	1.081	correct	generate	Run2	generate/STIM_020.jpg
1353.73	2.328	correct	generate	Run2	generate/STIM_021.jpg
1359.214	1.034	correct	generate	Run2	generate/STIM_021.jpg
1362.934	1.688	correct	generate	Run2	generate/STIM_021.jpg
1367.621	1.794	correct	generate	Run2	generate/STIM_021.jpg
1372.25	0.878	correct	generate	Run2	generate/STIM_021.jpg
1376.948	1.435	correct	generate	Run2	generate/STIM_022.jpg
1382.16	1.139	correct	generate	Run2	generate/STIM_022.jpg
1386.179	1.629	correct	generate	Run2	generate/STIM_022.jpg
1391.147	1.954	correct	generate	Run2	generate/STIM_022.jpg
1396.497	1.779	correct	generate	Run2	generate/STIM_022.jpg
1401.508	1.398	incorrect	generate	Run2	generate/STIM_023.jpg
1405.214	2.148	correct	generate	Run2	generate/STIM_023.jpg
1410.114	1.021	incorrect	generate	Run2	generate/STIM_023.jpg
1414.201	1.756	correct	generate	Run2	generate/STIM_023.jpg
1418.231	1.606	correct	generate	Run2	generate/STIM_023.jpg
1423.582	2.356	correct	generate	Run2	generate/STIM_024.jpg
1429.697	1.351	incorrect	generate	Run2	generate/STIM_024.jpg
1433.197	1.424	correct	generate	Run2	generate/STIM_024.jpg
1437.923	1.059	correct	generate	Run2	generate/STIM_024.jpg
1442.082	1.257	correct	generate	Run2	generate/STIM_024.jpg
1447.232	0.487	correct	repeat	Run2	repeat/STIM_000.jpg
1451.62	0.732	correct	repeat	Run2	repeat/STIM_000.jpg
1454.49	0.572	correct	repeat	Run2	repeat/STIM_000.jpg
1457.44	0.726	correct	repeat	Run2	repeat/STIM_000.jpg
1460.986	0.795	correct	repeat	Run2	repeat/STIM_000.jpg
1465.323	0.635	correct	repeat	Run2	repeat/STIM_001.jpg
1468.605	0.783	correct	repeat	Run2	repeat/STIM_001.jpg
1472.694	0.519	correct	repeat	Run2	repeat/STIM_001.jpg
1476.273	0.899	correct	repeat	Run2	repeat/STIM_001.jpg
1479.196	0.694	correct	repeat	Run2	repeat/STIM_001.jpg
1482.473	0.569	incorrect	repeat	Run2	repeat/STIM_002.jpg
1486.56	0.514	correct	repeat	Run2	repeat/STIM_002.jpg
1489.948	0.864	correct	repeat	Run2	repeat/STIM_002.jpg
1494.385	0.558	correct	repeat	Run2	repeat/STIM_002.jpg
1498.49	0.657	correct	repeat	Run2	repeat/STIM_002.jpg
1502.212	0.669	correct	repeat	Run2	repeat/STIM_003.jpg
1506.745	0.648	correct	repeat	Run2	repeat/STIM_003.jpg
1510.642	0.919	correct	repeat	Run2	repeat/STIM_003.jpg
1514.306	0.657	correct	repeat	Run2	repeat/STIM_003.jpg
1518.228	0.59	correct	repeat	Run2	repeat/STIM_003.jpg
1521.567	0.669	correct	repeat	Run2	repeat/STIM_004.jpg
1525.029	0.862	correct	repeat	Run2	repeat/STIM_004.jpg
1528.267	0.924	correct	repeat	Run2	repeat/STIM_004.jpg
1532.288	0.494	correct	repeat	Run2	repeat/STIM_004.jpg
1535.66	0.618	correct	repeat	Run2	repeat/STIM_004.jpg
1539.97	0.5	correct	repeat	Run2	repeat/STIM_005.jpg
1543.142	0.908	correct	repeat	Run2	repeat/STIM_005.jpg
1547.649	0.781	correct	repeat	Run2	repeat/STIM_005.jpg
1552.023	0.767	correct	repeat	Run2	repeat/STIM_005.jpg
1555.781	0.844	correct	repeat	Run2	repeat/STIM_005.jpg
1559.436	0.499	correct	repeat	Run2	repeat/STIM_006.jpg
1562.9	0.847	correct	repeat	Run2	repeat/STIM_006.jpg
1566.665	0.724	correct	repeat	Run2	repeat/STIM_006.jpg
1570.999	0.503	correct	repeat	Run2	repeat/STIM_006.jpg
1575.284	0.891	incorrect	repeat	Run2	repeat/STIM_006.jpg
1580.105	0.927	correct	repeat	Run2	repeat/STIM_007.jpg
1583.063	0.685	correct	repeat	Run2	repeat/STIM_007.jpg
1585.817	0.625	correct	repeat	Run2	repeat/STIM_007.jpg
1589.052	0.683	correct	repeat	Run2	repeat/STIM_007.jpg
1591.759	0.675	correct	repeat	Run2	repeat/STIM_007.jpg
1594.671	0.865	correct	repeat	Run2	repeat/STIM_008.jpg
1599.519	0.505	correct	repeat	Run2	repeat/STIM_008.jpg
1603.397	0.626	correct	repeat	Run2	repeat/STIM_008.jpg
1606.941	0.848	correct	repeat	Run2	repeat/STIM_008.jpg
1610.233	0.933	correct	repeat	Run2	repeat/STIM_008.jpg
1614.948	0.816	correct	repeat	Run2	repeat/STIM_009.jpg
1617.867	0.76	correct	repeat	Run2	repeat/STIM_009.jpg
1621.976	0.478	correct	repeat	Run2	repeat/STIM_009.jpg
1625.376	0.868	correct	repeat	Run2	repeat/STIM_009.jpg
1630.16	0.881	correct	repeat	Run2	repeat/STIM_009.jpg
1633.152	0.676	correct	repeat	Run2	repeat/STIM_010.jpg
1636.163	0.928	correct	repeat	Run2	repeat/STIM_010.jpg
1641.011	0.589	correct	repeat	Run2	repeat/STIM_010.jpg
1644.185	0.889	correct	repeat	Run2	repeat/STIM_010.jpg
1647.811	0.585	correct	repeat	Run2	repeat/STIM_010.jpg
1651.013	0.728	correct	repeat	Run2	repeat/STIM_011.jpg
1654.106	0.791	correct	repeat	Run2	repeat/STIM_011.jpg
1657.772	0.706	correct	repeat	Run2	repeat/STIM_011.jpg
1661.41	0.481	correct	repeat	Run2	repeat/STIM_011.jpg
1665.102	0.861	correct	repeat	Run2	repeat/STIM_011.jpg
1669.484	0.83	correct	repeat	Run2	repeat/STIM_012.jpg
1674.276	0.93	correct	repeat	Run2	repeat/STIM_012.jpg
1678.846	0.607	correct	repeat	Run2	repeat/STIM_012.jpg
1682.291	0.93	correct	repeat	Run2	repeat/STIM_012.jpg
1687.18	0.55	correct	repeat	Run2	repeat/STIM_012.jpg
1690.268	0.552	correct	repeat	Run2	repeat/STIM_013.jpg
1694.238	0.652	correct	repeat	Run2	repeat/STIM_013.jpg
1697.389	0.504	incorrect	repeat	Run2	repeat/STIM_013.jpg
1700.027	0.603	correct	repeat	Run2	repeat/STIM_013.jpg
1703.998	0.817	correct	repeat	Run2	repeat/STIM_013.jpg
1708.752	0.571	correct	repeat	Run2	repeat/STIM_014.jpg
1712.833	0.798	correct	repeat	Run2	repeat/STIM_014.jpg
1717.519	0.834	correct	repeat	Run2	repeat/STIM_014.jpg
1721.306	0.942	correct	repeat	Run2	repeat/STIM_014.jpg
1725.385	0.782	correct	repeat	Run2	repeat/STIM_014.jpg
1728.759	1.707	correct	generate	Run3	generate/STIM_000.jpg
1733.348	1.153	correct	generate	Run3	generate/STIM_000.jpg
1738.314	1.482	incorrect	generate	Run3	generate/STIM_000.jpg
1743.101	1.709	correct	generate	Run3	generate/STIM_000.jpg
1748.519	1.529	correct	generate	Run3	generate/STIM_000.jpg
1752.931	1.032	correct	generate	Run3	generate/STIM_001.jpg
1757.955	1.044	correct	generate	Run3	generate/STIM_001.jpg
1761.899	1.394	correct	generate	Run3	generate/STIM_001.jpg
1765.709	0.924	correct	generate	Run3	generate/STIM_001.jpg
1770.059	1.347	correct	generate	Run3	generate/STIM_001.jpg
1773.751	1.512	correct	generate	Run3	generate/STIM_002.jpg
1778.772	1.042	correct	generate	Run3	generate/STIM_002.jpg
1783.499	1.17	correct	generate	Run3	generate/STIM_002.jpg
1787.62	1.918	correct	generate	Run3	generate/STIM_002.jpg
1792.976	1.777	correct	generate	Run3	generate/STIM_002.jpg
1797.792	1.471	correct	generate	Run3	generate/STIM_003.jpg
1801.905	1.453	correct	generate	Run3	generate/STIM_003.jpg
1806.848	1.45	correct	generate	Run3	generate/STIM_003.jpg
1810.925	1.637	correct	generate	Run3	generate/STIM_003.jpg
1815.23	1.427	incorrect	generate	Run3	generate/STIM_003.jpg
1818.928	1.067	correct	generate	Run3	generate/STIM_004.jpg
1823.173	1.594	correct	generate	Run3	generate/STIM_004.jpg
1828.511	1.955	correct	generate	Run3	generate/STIM_004.jpg
1833.547	1.015	correct	generate	Run3	generate/STIM_004.jpg
1837.52	1.0	correct	generate	Run3	generate/STIM_004.jpg
1841.208	1.258	correct	generate	Run3	generate/STIM_005.jpg
1844.646	1.79	correct	generate	Run3	generate/STIM_005.jpg
1849.866	0.801	correct	generate	Run3	generate/STIM_005.jpg
1853.261	1.801	correct	generate	Run3	generate/STIM_005.jpg
1858.326	0.891	correct	generate	Run3	generate/STIM_005.jpg
1862.625	1.738	correct	generate	Run3	generate/STIM_006.jpg
1868.255	1.344	incorrect	generate	Run3	generate/STIM_006.jpg
1871.784	1.352	correct	generate	Run3	generate/STIM_006.jpg
1875.501	1.248	correct	generate	Run3	generate/STIM_006.jpg
1879.685	1.504	correct	generate	Run3	generate/STIM_006.jpg
1884.46	1.628	correct	generate	Run3	generate/STIM_007.jpg
1889.269	0.878	correct	generate	Run3	generate/STIM_007.jpg
1892.811	1.859	correct	generate	Run3	generate/STIM_007.jpg
1897.324	1.832	correct	generate	Run3	generate/STIM_007.jpg
1902.799	1.825	correct	generate	Run3	generate/STIM_007.jpg
1907.572	1.512	correct	generate	Run3	generate/STIM_008.jpg
1912.321	0.89	correct	generate	Run3	generate/STIM_008.jpg
1915.888	0.951	correct	generate	Run3	generate/STIM_008.jpg
1919.441	1.588	correct	generate	Run3	generate/STIM_008.jpg
1924.838	1.338	correct	generate	Run3	generate/STIM_008.jpg
1929.335	0.826	correct	generate	Run3	generate/STIM_009.jpg
1932.863	0.868	correct	generate	Run3	generate/STIM_009.jpg
1936.664	1.625	correct	generate	Run3	generate/STIM_009.jpg
1940.371	0.891	correct	generate	Run3	generate/STIM_009.jpg
1944.939	1.098	correct	generate	Run3	generate/STIM_009.jpg
1949.526	1.783	correct	generate	Run3	generate/STIM_010.jpg
1954.962	1.628	correct	generate	Run3	generate/STIM_010.jpg
1958.778	1.369	correct	generate	Run3	generate/STIM_010.jpg
1963.259	1.416	correct	generate	Run3	generate/STIM_010.jpg
1967.048	1.074	correct	generate	Run3	generate/STIM_010.jpg
1971.376	1.476	correct	generate	Run3	generate/STIM_011.jpg
1976.388	1.626	correct	generate	Run3	generate/STIM_011.jpg
1981.577	0.874	correct	generate	Run3	generate/STIM_011.jpg
1984.765	1.32	correct	generate	Run3	generate/STIM_011.jpg
1989.591	1.245	correct	generate	Run3	generate/STIM_011.jpg
1993.456	1.012	incorrect	generate	Run3	generate/STIM_012.jpg
1997.965	1.632	correct	generate	Run3	generate/STIM_012.jpg
2003.353	1.294	correct	generate	Run3	generate/STIM_012.jpg
2008.646	1.294	correct	generate	Run3	generate/STIM_012.jpg
2013.875	1.909	correct	generate	Run3	generate/STIM_012.jpg
2019.55	1.685	correct	generate	Run3	generate/STIM_013.jpg
2025.131	1.363	correct	generate	Run3	generate/STIM_013.jpg
2029.644	1.514	correct	generate	Run3	generate/STIM_013.jpg
2033.238	1.784	correct	generate	Run3	generate/STIM_013.jpg
2038.736	1.488	correct	generate	Run3	generate/STIM_013.jpg
2044.157	1.725	correct	generate	Run3	generate/STIM_014.jpg
2047.903	1.794	correct	generate	Run3	generate/STIM_014.jpg
2053.407	1.818	correct	generate	Run3	generate/STIM_014.jpg
2057.274	1.016	correct	generate	Run3	generate/STIM_014.jpg
2061.792	1.169	correct	generate	Run3	generate/STIM_014.jpg
2065.865	1.682	correct	generate	Run3	generate/STIM_015.jpg
2070.348	1.008	correct	generate	Run3	generate/STIM_015.jpg
2073.879	1.052	correct	generate	Run3	generate/STIM_015.jpg
2077.597	1.329	correct	generate	Run3	generate/STIM_015.jpg
2081.336	1.858	correct	generate	Run3	generate/STIM_015.jpg
2087.088	0.893	correct	generate	Run3	generate/STIM_016.jpg
2091.306	1.707	correct	generate	Run3	generate/STIM_016.jpg
2096.29	0.857	correct	generate	Run3	generate/STIM_016.jpg
2100.213	0.862	correct	generate	Run3	generate/STIM_016.jpg
2104.23	1.099	correct	generate	Run3	generate/STIM_016.jpg
2107.646	1.149	correct	generate	Run3	generate/STIM_017.jpg
2111.392	1.043	correct	generate	Run3	generate/STIM_017.jpg
2114.564	1.452	correct	generate	Run3	generate/STIM_017.jpg
2118.15	1.954	correct	generate	Run3	generate/STIM_017.jpg
2123.051	1.236	correct	generate	Run3	generate/STIM_017.jpg
2126.708	1.871	correct	generate	Run3	generate/STIM_018.jpg
2131.81	1.858	correct	generate	Run3	generate/STIM_018.jpg
2135.745	1.387	correct	generate	Run3	generate/STIM_018.jpg
2140.949	1.78	correct	generate	Run3	generate/STIM_018.jpg
2145.215	1.863	correct	generate	Run3	generate/STIM_018.jpg
2150.999	0.8	correct	generate	Run3	generate/STIM_019.jpg
2154.735	1.12	correct	generate	Run3	generate/STIM_019.jpg
2159.547	0.84	correct	generate	Run3	generate/STIM_019.jpg
2164.137	1.185	incorrect	generate	Run3	generate/STIM_019.jpg
2168.714	1.739	correct	generate	Run3	generate/STIM_019.jpg
2172.945	1.126	correct	generate	Run3	generate/STIM_020.jpg
2177.15	0.884	correct	generate	Run3	generate/STIM_020.jpg
2181.531	1.047	correct	generate	Run3	generate/STIM_020.jpg
2186.116	1.893	correct	generate	Run3	generate/STIM_020.jpg
2190.182	1.751	correct	generate	Run3	generate/STIM_020.jpg
2194.916	1.864	incorrect	generate	Run3	generate/STIM_021.jpg
2199.097	1.181	correct	generate	Run3	generate/STIM_021.jpg
2203.152	1.236	correct	generate	Run3	generate/STIM_021.jpg
2207.244	1.179	correct	generate	Run3	generate/STIM_021.jpg
2211.953	0.876	correct	generate	Run3	generate/STIM_021.jpg
2214.979	0.86	correct	generate	Run3	generate/STIM_022.jpg
2217.994	1.062	correct	generate	Run3	generate/STIM_022.jpg
2221.743	1.22	correct	generate	Run3	generate/STIM_022.jpg
2226.296	1.971	correct	generate	Run3	generate/STIM_022.jpg
2230.737	1.253	correct	generate	Run3	generate/STIM_022.jpg
2235.203	1.27	correct	generate	Run3	generate/STIM_023.jpg
2239.679	0.802	correct	generate	Run3	generate/STIM_023.jpg
2242.575	1.664	correct	generate	Run3	generate/STIM_023.jpg
2247.276	1.197	correct	generate	Run3	generate/STIM_023.jpg
2252.277	0.913	correct	generate	Run3	generate/STIM_023.jpg
2256.53	1.144	correct	generate	Run3	generate/STIM_024.jpg
2260.82	1.13	correct	generate	Run3	generate/STIM_024.jpg
2265.492	1.022	correct	generate	Run3	generate/STIM_024.jpg
2269.988	0.92	correct	generate	Run3	generate/STIM_024.jpg
2273.658	0.856	correct	generate	Run3	generate/STIM_024.jpg
2277.154	0.824	correct	repeat	Run3	repeat/STIM_000.jpg
2281.581	0.613	correct	repeat	Run3	repeat/STIM_000.jpg
2284.607	0.914	correct	repeat	Run3	repeat/STIM_000.jpg
2288.96	0.888	correct	repeat	Run3	repeat/STIM_000.jpg
2293.376	0.804	correct	repeat	Run3	repeat/STIM_000.jpg
2297.621	0.772	correct	repeat	Run3	repeat/STIM_001.jpg
2302.362	0.756	correct	repeat	Run3	repeat/STIM_001.jpg
2306.694	0.874	correct	repeat	Run3	repeat/STIM_001.jpg
2310.384	0.55	correct	repeat	Run3	repeat/STIM_001.jpg
2314.257	0.549	correct	repeat	Run3	repeat/STIM_001.jpg
2318.378	0.74	correct	repeat	Run3	repeat/STIM_002.jpg
2322.001	0.756	correct	repeat	Run3	repeat/STIM_002.jpg
2326.618	0.657	correct	repeat	Run3	repeat/STIM_002.jpg
2329.68	0.905	correct	repeat	Run3	repeat/STIM_002.jpg
2332.958	0.765	correct	repeat	Run3	repeat/STIM_002.jpg
2336.425	0.695	correct	repeat	Run3	repeat/STIM_003.jpg
2340.785	0.637	correct	repeat	Run3	repeat/STIM_003.jpg
2343.756	0.555	correct	repeat	Run3	repeat/STIM_003.jpg
2347.819	0.884	correct	repeat	Run3	repeat/STIM_003.jpg
2352.177	0.504	correct	repeat	Run3	repeat/STIM_003.jpg
2356.296	0.657	correct	repeat	Run3	repeat/STIM_004.jpg
2360.331	0.711	correct	repeat	Run3	repeat/STIM_004.jpg
2363.068	0.674	correct	repeat	Run3	repeat/STIM_004.jpg
2367.499	0.476	correct	repeat	Run3	repeat/STIM_004.jpg
2371.899	0.626	correct	repeat	Run3	repeat/STIM_004.jpg
2375.842	0.507	correct	repeat	Run3	repeat/STIM_005.jpg
2379.86	0.91	correct	repeat	Run3	repeat/STIM_005.jpg
2384.326	0.8	correct	repeat	Run3	repeat/STIM_005.jpg
2387.739	0.504	correct	repeat	Run3	repeat/STIM_005.jpg
2391.404	0.485	correct	repeat	Run3	repeat/STIM_005.jpg
2395.408	0.879	correct	repeat	Run3	repeat/STIM_006.jpg
2399.875	0.682	correct	repeat	Run3	repeat/STIM_006.jpg
2403.283	0.546	correct	repeat	Run3	repeat/STIM_006.jpg
2407.48	0.757	correct	repeat	Run3	repeat/STIM_006.jpg
2411.751	0.902	correct	repeat	Run3	repeat/STIM_006.jpg
2414.847	0.654	correct	repeat	Run3	repeat/STIM_007.jpg
2418.309	0.705	incorrect	repeat	Run3	repeat/STIM_007.jpg
2422.628	0.632	correct	repeat	Run3	repeat/STIM_007.jpg
2426.944	0.635	correct	repeat	Run3	repeat/STIM_007.jpg
2431.546	0.681	correct	repeat	Run3	repeat/STIM_007.jpg
2435.299	0.947	correct	repeat	Run3	repeat/STIM_008.jpg
2438.718	0.491	correct	repeat	Run3	repeat/STIM_008.jpg
2441.397	0.565	correct	repeat	Run3	repeat/STIM_008.jpg
2445.078	0.897	correct	repeat	Run3	repeat/STIM_008.jpg
2449.253	0.809	correct	repeat	Run3	repeat/STIM_008.jpg
2453.626	0.636	correct	repeat	Run3	repeat/STIM_009.jpg
2457.601	0.698	correct	repeat	Run3	repeat/STIM_009.jpg
2461.642	0.526	correct	repeat	Run3	repeat/STIM_009.jpg
2465.212	0.768	correct	repeat	Run3	repeat/STIM_009.jpg
2469.662	0.694	correct	repeat	Run3	repeat/STIM_009.jpg
2473.052	0.728	correct	repeat	Run3	repeat/STIM_010.jpg
2477.758	0.713	correct	repeat	Run3	repeat/STIM_010.jpg
2481.375	0.805	correct	repeat	Run3	repeat/STIM_010.jpg
2485.253	0.863	correct	repeat	Run3	repeat/STIM_010.jpg
2490.025	0.928	correct	repeat	Run3	repeat/STIM_010.jpg
2494.529	0.842	correct	repeat	Run3	repeat/STIM_011.jpg
2497.491	0.9	correct	repeat	Run3	repeat/STIM_011.jpg
2500.926	0.593	correct	repeat	Run3	repeat/STIM_011.jpg
2504.566	0.869	correct	repeat	Run3	repeat/STIM_011.jpg
2507.938	0.826	incorrect	repeat	Run3	repeat/STIM_011.jpg
2511.902	0.497	correct	repeat	Run3	repeat/STIM_012.jpg
2514.738	0.752	correct	repeat	Run3	repeat/STIM_012.jpg
2519.432	0.543	correct	repeat	Run3	repeat/STIM_012.jpg
2523.533	0.552	correct	repeat	Run3	repeat/STIM_012.jpg
2526.131	0.786	correct	repeat	Run3	repeat/STIM_012.jpg
2529.192	0.887	correct	repeat	Run3	repeat/STIM_013.jpg
2533.779	0.574	correct	repeat	Run3	repeat/STIM_013.jpg
2538.329	0.838	correct	repeat	Run3	repeat/STIM_013.jpg
2541.771	0.764	incorrect	repeat	Run3	repeat/STIM_013.jpg
2546.525	0.764	incorrect	repeat	Run3	repeat/STIM_013.jpg
2551.113	0.731	correct	repeat	Run3	repeat/STIM_014.jpg
2554.075	0.634	correct	repeat	Run3	repeat/STIM_014.jpg
2557.417	0.641	correct	repeat	Run3	repeat/STIM_014.jpg
2560.368	0.661	correct	repeat	Run3	repeat/STIM_014.jpg
2563.738	0.621	correct	repeat	Run3	repeat/STIM_014.jpg
2567.726	1.943	correct	generate	Run4	generate/STIM_000.jpg
2572.092	1.089	correct	generate	Run4	generate/STIM_000.jpg
2576.99	1.839	correct	generate	Run4	generate/STIM_000.jpg
2580.999	1.72	correct	generate	Run4	generate/STIM_000.jpg
2585.193	1.181	correct	generate	Run4	generate/STIM_000.jpg
2589.408	1.649	correct	generate	Run4	generate/STIM_001.jpg
2593.129	1.926	correct	generate	Run4	generate/STIM_001.jpg
2598.973	1.539	correct	generate	Run4	generate/STIM_001.jpg
2604.442	1.601	correct	generate	Run4	generate/STIM_001.jpg
2608.993	0.839	correct	generate	Run4	generate/STIM_001.jpg
2612.806	0.951	correct	generate	Run4	generate/STIM_002.jpg
2616.333	1.93	correct	generate	Run4	generate/STIM_002.jpg
2620.513	0.964	correct	generate	Run4	generate/STIM_002.jpg
2624.963	1.727	correct	generate	Run4	generate/STIM_002.jpg
2629.279	1.565	correct	generate	Run4	generate/STIM_002.jpg
2633.37	1.275	correct	generate	Run4	generate/STIM_003.jpg
2636.759	0.907	correct	generate	Run4	generate/STIM_003.jpg
2640.77	0.827	correct	generate	Run4	generate/STIM_003.jpg
2643.918	1.26	correct	generate	Run4	generate/STIM_003.jpg
2648.963	1.913	correct	generate	Run4	generate/STIM_003.jpg
2653.825	0.797	correct	generate	Run4	generate/STIM_004.jpg
2657.02	1.125	correct	generate	Run4	generate/STIM_004.jpg
2660.836	1.056	correct	generate	Run4	generate/STIM_004.jpg
2664.546	1.949	correct	generate	Run4	generate/STIM_004.jpg
2669.631	0.914	correct	generate	Run4	generate/STIM_004.jpg
2674.338	1.389	correct	generate	Run4	generate/STIM_005.jpg
2678.296	1.744	correct	generate	Run4	generate/STIM_005.jpg
2682.898	1.488	correct	generate	Run4	generate/STIM_005.jpg
2686.845	1.348	correct	generate	Run4	generate/STIM_005.jpg
2690.233	1.325	correct	generate	Run4	generate/STIM_005.jpg
2694.887	1.044	correct	generate	Run4	generate/STIM_006.jpg
2698.634	0.916	correct	generate	Run4	generate/STIM_006.jpg
2703.168	1.442	correct	generate	Run4	generate/STIM_006.jpg
2707.764	1.038	correct	generate	Run4	generate/STIM_006.jpg
2712.051	1.256	correct	generate	Run4	generate/STIM_006.jpg
2716.569	0.86	correct	generate	Run4	generate/STIM_007.jpg
2720.617	1.676	correct	generate	Run4	generate/STIM_007.jpg
2726.062	1.36	correct	generate	Run4	generate/STIM_007.jpg
2730.673	0.892	incorrect	generate	Run4	generate/STIM_007.jpg
2733.573	1.182	correct	generate	Run4	generate/STIM_007.jpg
2737.05	1.801	correct	generate	Run4	generate/STIM_008.jpg
2742.742	1.343	correct	generate	Run4	generate/STIM_008.jpg
2747.197	1.617	correct	generate	Run4	generate/STIM_008.jpg
2750.868	1.342	correct	generate	Run4	generate/STIM_008.jpg
2755.68	0.807	correct	generate	Run4	generate/STIM_008.jpg
2759.989	1.263	correct	generate	Run4	generate/STIM_009.jpg
2763.444	0.88	correct	generate	Run4	generate/STIM_009.jpg
2766.429	1.666	correct	generate	Run4	generate/STIM_009.jpg
2771.244	1.168	correct	generate	Run4	generate/STIM_009.jpg
2775.958	1.329	correct	generate	Run4	generate/STIM_009.jpg
2779.975	0.945	correct	generate	Run4	generate/STIM_010.jpg
2784.616	1.34	correct	generate	Run4	generate/STIM_010.jpg
2789.583	1.499	correct	generate	Run4	generate/STIM_010.jpg
2794.981	1.097	correct	generate	Run4	generate/STIM_010.jpg
2799.538	1.542	correct	generate	Run4	generate/STIM_010.jpg
2803.89	1.228	correct	generate	Run4	generate/STIM_011.jpg
2808.035	1.224	correct	generate	Run4	generate/STIM_011.jpg
2811.573	1.554	correct	generate	Run4	generate/STIM_011.jpg
2816.595	1.677	correct	generate	Run4	generate/STIM_011.jpg
2822.058	1.841	correct	generate	Run4	generate/STIM_011.jpg
2826.986	1.206	correct	generate	Run4	generate/STIM_012.jpg
2831.17	1.771	correct	generate	Run4	generate/STIM_012.jpg
2835.546	1.506	correct	generate	Run4	generate/STIM_012.jpg
2840.641	1.021	correct	generate	Run4	generate/STIM_012.jpg
2843.682	1.175	correct	generate	Run4	generate/STIM_012.jpg
2847.047	1.56	correct	generate	Run4	generate/STIM_013.jpg
2851.592	0.806	correct	generate	Run4	generate/STIM_013.jpg
2856.204	0.952	correct	generate	Run4	generate/STIM_013.jpg
2860.657	1.938	correct	generate	Run4	generate/STIM_013.jpg
2864.656	1.285	correct	generate	Run4	generate/STIM_013.jpg
2869.851	1.558	correct	generate	Run4	generate/STIM_014.jpg
2874.278	1.564	correct	generate	Run4	generate/STIM_014.jpg
2878.042	1.181	correct	generate	Run4	generate/STIM_014.jpg
2883.154	1.766	correct	generate	Run4	generate/STIM_014.jpg
2888.248	1.773	correct	generate	Run4	generate/STIM_014.jpg
2892.407	1.242	correct	generate	Run4	generate/STIM_015.jpg
2897.043	1.708	correct	generate	Run4	generate/STIM_015.jpg
2901.88	1.858	correct	generate	Run4	generate/STIM_015.jpg
2906.9	1.708	correct	generate	Run4	generate/STIM_015.jpg
2911.026	1.975	correct	generate	Run4	generate/STIM_015.jpg
2915.45	0.932	correct	generate	Run4	generate/STIM_016.jpg
2918.873	1.324	correct	generate	Run4	generate/STIM_016.jpg
2923.492	1.865	correct	generate	Run4	generate/STIM_016.jpg
2929.143	1.777	correct	generate	Run4	generate/STIM_016.jpg
2934.287	1.717	correct	generate	Run4	generate/STIM_016.jpg
2938.906	1.69	incorrect	generate	Run4	generate/STIM_017.jpg
2944.543	0.896	correct	generate	Run4	generate/STIM_017.jpg
2948.367	0.896	correct	generate	Run4	generate/STIM_017.jpg
2952.858	0.997	correct	generate	Run4	generate/STIM_017.jpg
2957.588	1.698	correct	generate	Run4	generate/STIM_017.jpg
2963.149	1.45	correct	generate	Run4	generate/STIM_018.jpg
2968.459	1.151	correct	generate	Run4	generate/STIM_018.jpg
2972.607	1.153	correct	generate	Run4	generate/STIM_018.jpg
2977.53	0.952	correct	generate	Run4	generate/STIM_018.jpg
2982.362	1.806	correct	generate	Run4	generate/STIM_018.jpg
2987.495	1.746	correct	generate	Run4	generate/STIM_019.jpg
2992.725	1.496	correct	generate	Run4	generate/STIM_019.jpg
2997.808	1.334	correct	generate	Run4	generate/STIM_019.jpg
3001.816	1.246	correct	generate	Run4	generate/STIM_019.jpg
3006.244	1.404	correct	generate	Run4	generate/STIM_019.jpg
3010.75	1.074	correct	generate	Run4	generate/STIM_020.jpg
3014.045	0.977	correct	generate	Run4	generate/STIM_020.jpg
3018.802	1.497	correct	generate	Run4	generate/STIM_020.jpg
3022.54	1.98	correct	generate	Run4	generate/STIM_020.jpg
3026.896	0.861	correct	generate	Run4	generate/STIM_020.jpg
3031.613	0.975	correct	generate	Run4	generate/STIM_021.jpg
3036.103	0.835	correct	generate	Run4	generate/STIM_021.jpg
3040.694	1.815	correct	generate	Run4	generate/STIM_021.jpg
3045.944	1.453	correct	generate	Run4	generate/STIM_021.jpg
3050.623	1.48	incorrect	generate	Run4	generate/STIM_021.jpg
3055.316	1.682	correct	generate	Run4	generate/STIM_022.jpg
3059.712	1.372	correct	generate	Run4	generate/STIM_022.jpg
3064.78	1.521	correct	generate	Run4	generate/STIM_022.jpg
3068.873	1.773	correct	generate	Run4	generate/STIM_022.jpg
3073.105	0.93	correct	generate	Run4	generate/STIM_022.jpg
3077.307	1.2	correct	generate	Run4	generate/STIM_023.jpg
3081.633	1.161	correct	generate	Run4	generate/STIM_023.jpg
3085.863	0.867	correct	generate	Run4	generate/STIM_023.jpg
3089.585	1.235	correct	generate	Run4	generate/STIM_023.jpg
3093.487	1.63	correct	generate	Run4	generate/STIM_023.jpg
3098.866	1.294	correct	generate	Run4	generate/STIM_024.jpg
3102.193	1.184	correct	generate	Run4	generate/STIM_024.jpg
3106.323	1.341	correct	generate	Run4	generate/STIM_024.jpg
3111.376	1.868	correct	generate	Run4	generate/STIM_024.jpg
3115.699	1.61	correct	generate	Run4	generate/STIM_024.jpg
3120.684	0.839	correct	repeat	Run4	repeat/STIM_000.jpg
3125.012	0.793	correct	repeat	Run4	repeat/STIM_000.jpg
3128.173	0.608	correct	repeat	Run4	repeat/STIM_000.jpg
3131.009	0.606	correct	repeat	Run4	repeat/STIM_000.jpg
3134.356	0.916	correct	repeat	Run4	repeat/STIM_000.jpg
3138.045	0.556	correct	repeat	Run4	repeat/STIM_001.jpg
3142.576	0.577	correct	repeat	Run4	repeat/STIM_001.jpg
3147.043	0.654	correct	repeat	Run4	repeat/STIM_001.jpg
3150.157	0.899	correct	repeat	Run4	repeat/STIM_001.jpg
3154.648	0.666	correct	repeat	Run4	repeat/STIM_001.jpg
3158.064	0.853	correct	repeat	Run4	repeat/STIM_002.jpg
3161.942	0.707	correct	repeat	Run4	repeat/STIM_002.jpg
3165.395	0.538	correct	repeat	Run4	repeat/STIM_002.jpg
3169.31	0.906	incorrect	repeat	Run4	repeat/STIM_002.jpg
3172.968	0.535	correct	repeat	Run4	repeat/STIM_002.jpg
3176.265	0.484	correct	repeat	Run4	repeat/STIM_003.jpg
3179.9	0.652	correct	repeat	Run4	repeat/STIM_003.jpg
3183.856	0.906	correct	repeat	Run4	repeat/STIM_003.jpg
3188.162	0.92	correct	repeat	Run4	repeat/STIM_003.jpg
3192.022	0.565	correct	repeat	Run4	repeat/STIM_003.jpg
3195.683	0.593	correct	repeat	Run4	repeat/STIM_004.jpg
3199.572	0.794	correct	repeat	Run4	repeat/STIM_004.jpg
3203.108	0.526	correct	repeat	Run4	repeat/STIM_004.jpg
3205.8	0.806	correct	repeat	Run4	repeat/STIM_004.jpg
3209.477	0.857	correct	repeat	Run4	repeat/STIM_004.jpg
3213.309	0.821	correct	repeat	Run4	repeat/STIM_005.jpg
3216.692	0.851	correct	repeat	Run4	repeat/STIM_005.jpg
3220.734	0.946	correct	repeat	Run4	repeat/STIM_005.jpg
3224.567	0.912	correct	repeat	Run4	repeat/STIM_005.jpg
3228.874	0.552	correct	repeat	Run4	repeat/STIM_005.jpg
3232.302	0.727	correct	repeat	Run4	repeat/STIM_006.jpg
3235.813	0.596	correct	repeat	Run4	repeat/STIM_006.jpg
3239.649	0.927	correct	repeat	Run4	repeat/STIM_006.jpg
3243.112	0.856	correct	repeat	Run4	repeat/STIM_006.jpg
3246.19	0.621	correct	repeat	Run4	repeat/STIM_006.jpg
3249.922	0.922	correct	repeat	Run4	repeat/STIM_007.jpg
3254.09	0.756	correct	repeat	Run4	repeat/STIM_007.jpg
3258.819	0.809	correct	repeat	Run4	repeat/STIM_007.jpg
3262.496	0.824	correct	repeat	Run4	repeat/STIM_007.jpg
3266.365	0.513	correct	repeat	Run4	repeat/STIM_007.jpg
3270.873	0.669	correct	repeat	Run4	repeat/STIM_008.jpg
3273.943	0.879	correct	repeat	Run4	repeat/STIM_008.jpg
3277.513	0.542	correct	repeat	Run4	repeat/STIM_008.jpg
3281.381	0.884	correct	repeat	Run4	repeat/STIM_008.jpg
3284.601	0.584	correct	repeat	Run4	repeat/STIM_008.jpg
3288.967	0.871	correct	repeat	Run4	repeat/STIM_009.jpg
3292.889	0.692	correct	repeat	Run4	repeat/STIM_009.jpg
3297.299	0.566	correct	repeat	Run4	repeat/STIM_009.jpg
3301.658	0.589	correct	repeat	Run4	repeat/STIM_009.jpg
3305.429	0.627	correct	repeat	Run4	repeat/STIM_009.jpg
3309.358	0.715	correct	repeat	Run4	repeat/STIM_010.jpg
3313.824	0.821	correct	repeat	Run4	repeat/STIM_010.jpg
3317.22	0.87	correct	repeat	Run4	repeat/STIM_010.jpg
3321.459	0.683	correct	repeat	Run4	repeat/STIM_010.jpg
3325.376	0.904	correct	repeat	Run4	repeat/STIM_010.jpg
3329.61	0.528	correct	repeat	Run4	repeat/STIM_011.jpg
3333.788	0.664	correct	repeat	Run4	repeat/STIM_011.jpg
3336.812	0.685	correct	repeat	Run4	repeat/STIM_011.jpg
3339.748	0.67	correct	repeat	Run4	repeat/STIM_011.jpg
3343.029	0.836	correct	repeat	Run4	repeat/STIM_011.jpg
3346.573	0.476	correct	repeat	Run4	repeat/STIM_012.jpg
3349.642	0.482	incorrect	repeat	Run4	repeat/STIM_012.jpg
3353.484	0.913	correct	repeat	Run4	repeat/STIM_012.jpg
3358.128	0.56	correct	repeat	Run4	repeat/STIM_012.jpg
3361.108	0.481	correct	repeat	Run4	repeat/STIM_012.jpg
3363.786	0.905	correct	repeat	Run4	repeat/STIM_013.jpg
3368.62	0.779	correct	repeat	Run4	repeat/STIM_013.jpg
3371.819	0.51	correct	repeat	Run4	repeat/STIM_013.jpg
3374.497	0.89	correct	repeat	Run4	repeat/STIM_013.jpg
3378.873	0.868	correct	repeat	Run4	repeat/STIM_013.jpg
3382.588	0.917	correct	repeat	Run4	repeat/STIM_014.jpg
3385.862	0.594	correct	repeat	Run4	repeat/STIM_014.jpg
3390.108	0.83	correct	repeat	Run4	repeat/STIM_014.jpg
3394.865	0.657	correct	repeat	Run4	repeat/STIM_014.jpg
3399.034	0.902	correct	repeat	Run4	repeat/STIM_014.jpg
