onset	duration	accuracy	trial_type	learning_stage	stimulus
0.0	2.267	correct	generate	Run1	generate/STIM_000.jpg
4.756	1.525	correct	generate	Run1	generate/STIM_000.jpg
9.888	1.31	correct	generate	Run1	generate/STIM_000.jpg
13.839	1.414	correct	generate	Run1	generate/STIM_000.jpg
17.434	1.308	correct	generate	Run1	generate/STIM_000.jpg
20.702	2.933	correct	generate	Run1	generate/STIM_001.jpg
26.817	1.306	incorrect	generate	Run1	generate/STIM_001.jpg
31.621	2.136	correct	generate	Run1	generate/STIM_001.jpg
36.523	2.213	correct	generate	Run1	generate/STIM_001.jpg
40.654	1.408	incorrect	generate	Run1	generate/STIM_001.jpg
45.572	2.155	correct	generate	Run1	generate/STIM_002.jpg
50.959	1.941	correct	generate	Run1	generate/STIM_002.jpg
55.576	1.606	correct	generate	Run1	generate/STIM_002.jpg
60.17	1.95	correct	generate	Run1	generate/STIM_002.jpg
65.917	1.803	correct	generate	Run1	generate/STIM_002.jpg
70.247	1.77	incorrect	generate	Run1	generate/STIM_003.jpg
75.21	1.622	correct	generate	Run1	generate/STIM_003.jpg
79.277	2.301	correct	generate	Run1	generate/STIM_003.jpg
85.36	2.381	correct	generate	Run1	generate/STIM_003.jpg
90.529	2.35	correct	generate	Run1	generate/STIM_003.jpg
95.379	1.436	incorrect	generate	Run1	generate/STIM_004.jpg
99.367	2.255	incorrect	generate	Run1	generate/STIM_004.jpg
104.483	2.365	incorrect	generate	Run1	generate/STIM_004.jpg
108.842	1.174	correct	generate	Run1	generate/STIM_004.jpg
112.133	2.356	correct	generate	Run1	generate/STIM_004.jpg
117.077	1.88	correct	generate	Run1	generate/STIM_005.jpg
120.899	2.666	correct	generate	Run1	generate/STIM_005.jpg
125.751	2.7	correct	generate	Run1	generate/STIM_005.jpg
131.464	2.553	correct	generate	Run1	generate/STIM_005.jpg
136.38	1.118	correct	generate	Run1	generate/STIM_005.jpg
140.659	1.675	correct	generate	Run1	generate/STIM_006.jpg
146.036	2.262	correct	generate	Run1	generate/STIM_006.jpg
151.951	1.814	incorrect	generate	Run1	generate/STIM_006.jpg
155.941	1.795	correct	generate	Run1	generate/STIM_006.jpg
160.316	1.463	correct	generate	Run1	generate/STIM_006.jpg
165.43	1.884	correct	generate	Run1	generate/STIM_007.jpg
169.333	1.776	correct	generate	Run1	generate/STIM_007.jpg
174.748	1.817	correct	generate	Run1	generate/STIM_007.jpg
178.835	1.356	correct	generate	Run1	generate/STIM_007.jpg
183.967	2.014	incorrect	generate	Run1	generate/STIM_007.jpg
189.573	1.451	correct	generate	Run1	generate/STIM_008.jpg
194.593	2.927	correct	generate	Run1	generate/STIM_008.jpg
200.61	1.548	correct	generate	Run1	generate/STIM_008.jpg
204.807	1.406	incorrect	generate	Run1	generate/STIM_008.jpg
209.195	2.141	correct	generate	Run1	generate/STIM_008.jpg
213.835	2.213	correct	generate	Run1	generate/STIM_009.jpg
218.191	1.955	correct	generate	Run1	generate/STIM_009.jpg
223.557	1.367	correct	generate	Run1	generate/STIM_009.jpg
228.405	1.672	correct	generate	Run1	generate/STIM_009.jpg
232.846	2.089	correct	generate	Run1	generate/STIM_009.jpg
236.871	3.065	incorrect	generate	Run1	generate/STIM_010.jpg
242.205	2.661	correct	generate	Run1	generate/STIM_010.jpg
248.02	1.697	correct	generate	Run1	generate/STIM_010.jpg
252.328	2.665	correct	generate	Run1	generate/STIM_010.jpg
257.375	2.045	incorrect	generate	Run1	generate/STIM_010.jpg
261.456	1.845	correct	generate	Run1	generate/STIM_011.jpg
265.256	1.803	incorrect	generate	Run1	generate/STIM_011.jpg
270.156	2.349	incorrect	generate	Run1	generate/STIM_011.jpg
275.588	1.708	correct	generate	Run1	generate/STIM_011.jpg
279.754	2.084	correct	generate	Run1	generate/STIM_011.jpg
284.259	3.01	incorrect	generate	Run1	generate/STIM_012.jpg
289.531	2.083	correct	generate	Run1	generate/STIM_012.jpg
295.282	1.265	correct	generate	Run1	generate/STIM_012.jpg
299.174	1.568	correct	generate	Run1	generate/STIM_012.jpg
303.203	1.665	correct	generate	Run1	generate/STIM_012.jpg
308.283	1.542	correct	generate	Run1	generate/STIM_013.jpg
313.07	2.356	incorrect	generate	Run1	generate/STIM_013.jpg
319.16	2.34	correct	generate	Run1	generate/STIM_013.jpg
324.359	1.781	correct	generate	Run1	generate/STIM_013.jpg
329.128	2.009	correct	generate	Run1	generate/STIM_013.jpg
333.377	2.834	correct	generate	Run1	generate/STIM_014.jpg
339.957	2.362	correct	generate	Run1	generate/STIM_014.jpg
345.519	1.782	correct	generate	Run1	generate/STIM_014.jpg
350.297	2.134	correct	generate	Run1	generate/STIM_014.jpg
355.648	1.738	correct	generate	Run1	generate/STIM_014.jpg
360.222	2.536	correct	generate	Run1	generate/STIM_015.jpg
365.844	2.442	correct	generate	Run1	generate/STIM_015.jpg
370.924	1.26	correct	generate	Run1	generate/STIM_015.jpg
374.854	1.807	correct	generate	Run1	generate/STIM_015.jpg
379.993	2.369	correct	generate	Run1	generate/STIM_015.jpg
384.95	1.445	correct	generate	Run1	generate/STIM_016.jpg
388.59	1.341	incorrect	generate	Run1	generate/STIM_016.jpg
391.927	1.747	correct	generate	Run1	generate/STIM_016.jpg
397.374	2.034	correct	generate	Run1	generate/STIM_016.jpg
402.244	2.334	incorrect	generate	Run1	generate/STIM_016.jpg
406.648	1.973	incorrect	generate	Run1	generate/STIM_017.jpg
410.804	1.228	incorrect	generate	Run1	generate/STIM_017.jpg
415.564	2.924	correct	generate	Run1	generate/STIM_017.jpg
420.937	2.305	correct	generate	Run1	generate/STIM_017.jpg
426.753	2.308	correct	generate	Run1	generate/STIM_017.jpg
431.431	1.748	correct	generate	Run1	generate/STIM_018.jpg
436.339	2.239	correct	generate	Run1	generate/STIM_018.jpg
441.649	2.348	correct	generate	Run1	generate/STIM_018.jpg
446.741	1.199	correct	generate	Run1	generate/STIM_018.jpg
449.942	1.233	correct	generate	Run1	generate/STIM_018.jpg
454.289	1.79	correct	generate	Run1	generate/STIM_019.jpg
459.285	1.792	incorrect	generate	Run1	generate/STIM_019.jpg
464.828	1.37	correct	generate	Run1	generate/STIM_019.jpg
469.677	2.413	correct	generate	Run1	generate/STIM_019.jpg
475.696	1.166	correct	generate	Run1	generate/STIM_019.jpg
480.706	1.612	correct	generate	Run1	generate/STIM_020.jpg
486.014	1.907	correct	generate	Run1	generate/STIM_020.jpg
490.607	1.345	correct	generate	Run1	generate/STIM_020.jpg
495.492	2.381	correct	generate	Run1	generate/STIM_020.jpg
499.695	2.033	correct	generate	Run1	generate/STIM_020.jpg
505.437	1.528	correct	generate	Run1	generate/STIM_021.jpg
509.887	2.078	correct	generate	Run1	generate/STIM_021.jpg
515.102	1.379	correct	generate	Run1	generate/STIM_021.jpg
519.764	1.126	incorrect	generate	Run1	generate/STIM_021.jpg
524.697	1.282	correct	generate	Run1	generate/STIM_021.jpg
529.404	1.45	correct	generate	Run1	generate/STIM_022.jpg
533.689	2.165	incorrect	generate	Run1	generate/STIM_022.jpg
539.256	1.525	correct	generate	Run1	generate/STIM_022.jpg
543.545	1.84	correct	generate	Run1	generate/STIM_022.jpg
548.28	1.654	correct	generate	Run1	generate/STIM_022.jpg
551.955	1.667	correct	generate	Run1	generate/STIM_023.jpg
556.064	1.405	correct	generate	Run1	generate/STIM_023.jpg
559.65	2.809	incorrect	generate	Run1	generate/STIM_023.jpg
565.075	1.24	correct	generate	Run1	generate/STIM_023.jpg
568.651	1.153	correct	generate	Run1	generate/STIM_023.jpg
572.429	2.568	correct	generate	Run1	generate/STIM_024.jpg
578.819	1.699	incorrect	generate	Run1	generate/STIM_024.jpg
584.016	2.249	correct	generate	Run1	generate/STIM_024.jpg
589.12	1.614	correct	generate	Run1	generate/STIM_024.jpg
593.806	2.096	correct	generate	Run1	generate/STIM_024.jpg
599.415	0.948	correct	repeat	Run1	repeat/STIM_000.jpg
603.064	0.66	correct	repeat	Run1	repeat/STIM_000.jpg
606.257	0.576	correct	repeat	Run1	repeat/STIM_000.jpg
610.563	1.069	correct	repeat	Run1	repeat/STIM_000.jpg
614.637	0.997	incorrect	repeat	Run1	repeat/STIM_000.jpg
618.448	0.629	correct	repeat	Run1	repeat/STIM_001.jpg
622.781	0.55	correct	repeat	Run1	repeat/STIM_001.jpg
625.931	0.702	correct	repeat	Run1	repeat/STIM_001.jpg
629.578	0.538	correct	repeat	Run1	repeat/STIM_001.jpg
634.043	0.785	correct	repeat	Run1	repeat/STIM_001.jpg
638.127	0.992	correct	repeat	Run1	repeat/STIM_002.jpg
643.053	0.753	correct	repeat	Run1	repeat/STIM_002.jpg
647.318	0.792	correct	repeat	Run1	repeat/STIM_002.jpg
651.871	1.058	correct	repeat	Run1	repeat/STIM_002.jpg
655.097	0.862	correct	repeat	Run1	repeat/STIM_002.jpg
659.027	0.701	correct	repeat	Run1	repeat/STIM_003.jpg
663.489	0.95	correct	repeat	Run1	repeat/STIM_003.jpg
667.589	0.554	correct	repeat	Run1	repeat/STIM_003.jpg
671.943	0.585	correct	repeat	Run1	repeat/STIM_003.jpg
674.952	0.885	incorrect	repeat	Run1	repeat/STIM_003.jpg
679.534	0.971	correct	repeat	Run1	repeat/STIM_004.jpg
683.561	0.597	correct	repeat	Run1	repeat/STIM_004.jpg
686.137	0.692	correct	repeat	Run1	repeat/STIM_004.jpg
689.476	0.843	incorrect	repeat	Run1	repeat/STIM_004.jpg
692.351	0.948	correct	repeat	Run1	repeat/STIM_004.jpg
695.607	0.941	correct	repeat	Run1	repeat/STIM_005.jpg
699.566	0.937	correct	repeat	Run1	repeat/STIM_005.jpg
704.184	0.935	correct	repeat	Run1	repeat/STIM_005.jpg
707.84	1.018	correct	repeat	Run1	repeat/STIM_005.jpg
711.022	0.661	correct	repeat	Run1	repeat/STIM_005.jpg
715.018	1.052	correct	repeat	Run1	repeat/STIM_006.jpg
719.167	0.954	incorrect	repeat	Run1	repeat/STIM_006.jpg
723.17	0.861	correct	repeat	Run1	repeat/STIM_006.jpg
726.093	0.59	correct	repeat	Run1	repeat/STIM_006.jpg
730.437	0.862	correct	repeat	Run1	repeat/STIM_006.jpg
735.085	0.86	correct	repeat	Run1	repeat/STIM_007.jpg
739.922	0.726	correct	repeat	Run1	repeat/STIM_007.jpg
744.28	0.818	correct	repeat	Run1	repeat/STIM_007.jpg
747.183	0.847	correct	repeat	Run1	repeat/STIM_007.jpg
750.75	0.71	correct	repeat	Run1	repeat/STIM_007.jpg
754.254	0.673	correct	repeat	Run1	repeat/STIM_008.jpg
758.036	0.707	correct	repeat	Run1	repeat/STIM_008.jpg
761.492	1.037	correct	repeat	Run1	repeat/STIM_008.jpg
766.364	0.929	correct	repeat	Run1	repeat/STIM_008.jpg
770.983	0.6	correct	repeat	Run1	repeat/STIM_008.jpg
774.01	1.059	correct	repeat	Run1	repeat/STIM_009.jpg
778.213	0.874	correct	repeat	Run1	repeat/STIM_009.jpg
781.682	0.719	correct	repeat	Run1	repeat/STIM_009.jpg
785.413	0.582	correct	repeat	Run1	repeat/STIM_009.jpg
789.233	0.808	correct	repeat	Run1	repeat/STIM_009.jpg
793.499	0.854	correct	repeat	Run1	repeat/STIM_010.jpg
797.253	0.657	correct	repeat	Run1	repeat/STIM_010.jpg
801.127	0.911	incorrect	repeat	Run1	repeat/STIM_010.jpg
805.457	1.073	correct	repeat	Run1	repeat/STIM_010.jpg
810.35	0.631	correct	repeat	Run1	repeat/STIM_010.jpg
814.339	1.087	correct	repeat	Run1	repeat/STIM_011.jpg
819.17	0.881	correct	repeat	Run1	repeat/STIM_011.jpg
822.894	0.863	correct	repeat	Run1	repeat/STIM_011.jpg
827.036	0.725	correct	repeat	Run1	repeat/STIM_011.jpg
831.444	0.668	correct	repeat	Run1	repeat/STIM_011.jpg
835.582	0.538	correct	repeat	Run1	repeat/STIM_012.jpg
839.235	0.52	correct	repeat	Run1	repeat/STIM_012.jpg
842.058	0.622	correct	repeat	Run1	repeat/STIM_012.jpg
844.8	0.618	correct	repeat	Run1	repeat/STIM_012.jpg
848.615	0.944	correct	repeat	Run1	repeat/STIM_012.jpg
852.745	0.886	correct	repeat	Run1	repeat/STIM_013.jpg
856.624	0.92	correct	repeat	Run1	repeat/STIM_013.jpg
861.441	0.886	correct	repeat	Run1	repeat/STIM_013.jpg
866.306	0.912	correct	repeat	Run1	repeat/STIM_013.jpg
870.78	0.796	correct	repeat	Run1	repeat/STIM_013.jpg
875.114	0.651	correct	repeat	Run1	repeat/STIM_014.jpg
878.499	0.64	correct	repeat	Run1	repeat/STIM_014.jpg
881.707	1.014	correct	repeat	Run1	repeat/STIM_014.jpg
886.478	0.62	correct	repeat	Run1	repeat/STIM_014.jpg
890.132	1.033	incorrect	repeat	Run1	repeat/STIM_014.jpg
894.397	2.66	correct	generate	Run2	generate/STIM_000.jpg
899.913	1.632	correct	generate	Run2	generate/STIM_000.jpg
903.668	1.498	correct	generate	Run2	generate/STIM_000.jpg
907.703	1.309	correct	generate	Run2	generate/STIM_000.jpg
912.386	1.474	correct	generate	Run2	generate/STIM_000.jpg
916.274	1.097	incorrect	generate	Run2	generate/STIM_001.jpg
919.583	0.961	correct	generate	Run2	generate/STIM_001.jpg
923.918	1.199	correct	generate	Run2	generate/STIM_001.jpg
928.372	1.241	correct	generate	Run2	generate/STIM_001.jpg
933.348	1.03	correct	generate	Run2	generate/STIM_001.jpg
936.303	2.726	incorrect	generate	Run2	generate/STIM_002.jpg
941.594	1.619	correct	generate	Run2	generate/STIM_002.jpg
945.546	2.036	correct	generate	Run2	generate/STIM_002.jpg
950.814	0.993	correct	generate	Run2	generate/STIM_002.jpg
955.556	1.484	correct	generate	Run2	generate/STIM_002.jpg
960.699	1.142	correct	generate	Run2	generate/STIM_003.jpg
964.587	2.302	correct	generate	Run2	generate/STIM_003.jpg
969.043	1.127	incorrect	generate	Run2	generate/STIM_003.jpg
973.398	1.262	correct	generate	Run2	generate/STIM_003.jpg
977.332	1.633	correct	generate	Run2	generate/STIM_003.jpg
981.311	1.333	correct	generate	Run2	generate/STIM_004.jpg
984.968	1.741	correct	generate	Run2	generate/STIM_004.jpg
988.719	2.155	correct	generate	Run2	generate/STIM_004.jpg
993.387	1.379	correct	generate	Run2	generate/STIM_004.jpg
997.744	1.521	correct	generate	Run2	generate/STIM_004.jpg
1001.785	2.001	correct	generate	Run2	generate/STIM_005.jpg
1006.571	1.456	incorrect	generate	Run2	generate/STIM_005.jpg
1011.309	1.578	correct	generate	Run2	generate/STIM_005.jpg
1016.13	1.518	correct	generate	Run2	generate/STIM_005.jpg
1020.87	1.61	correct	generate	Run2	generate/STIM_005.jpg
1024.92	1.826	correct	generate	Run2	generate/STIM_006.jpg
1028.911	1.396	correct	generate	Run2	generate/STIM_006.jpg
1032.205	2.104	correct	generate	Run2	generate/STIM_006.jpg
1036.6	1.202	correct	generate	Run2	generate/STIM_006.jpg
1040.224	1.803	correct	generate	Run2	generate/STIM_006.jpg
1044.797	1.2	correct	generate	Run2	generate/STIM_007.jpg
1047.949	1.643	correct	generate	Run2	generate/STIM_007.jpg
1052.127	2.071	incorrect	generate	Run2	generate/STIM_007.jpg
1056.535	2.06	correct	generate	Run2	generate/STIM_007.jpg
1061.389	1.691	correct	generate	Run2	generate/STIM_007.jpg
1066.86	1.747	correct	generate	Run2	generate/STIM_008.jpg
1072.167	1.624	correct	generate	Run2	generate/STIM_008.jpg
1075.924	1.484	incorrect	generate	Run2	generate/STIM_008.jpg
1080.361	1.303	correct	generate	Run2	generate/STIM_008.jpg
1084.042	1.958	incorrect	generate	Run2	generate/STIM_008.jpg
1088.811	2.397	correct	generate	Run2	generate/STIM_009.jpg
1094.153	2.274	correct	generate	Run2	generate/STIM_009.jpg
1099.75	1.869	incorrect	generate	Run2	generate/STIM_009.jpg
1104.082	1.104	correct	generate	Run2	generate/STIM_009.jpg
1108.065	0.906	correct	generate	Run2	generate/STIM_009.jpg
1112.697	1.577	correct	generate	Run2	generate/STIM_010.jpg
1116.62	1.95	correct	generate	Run2	generate/STIM_010.jpg
1120.859	2.29	correct	generate	Run2	generate/STIM_010.jpg
1126.693	1.447	correct	generate	Run2	generate/STIM_010.jpg
1130.303	0.984	correct	generate	Run2	generate/STIM_010.jpg
1135.156	1.326	correct	generate	Run2	generate/STIM_011.jpg
1139.069	1.813	correct	generate	Run2	generate/STIM_011.jpg
1144.162	1.861	correct	generate	Run2	generate/STIM_011.jpg
1148.178	1.481	correct	generate	Run2	generate/STIM_011.jpg
1151.851	1.967	correct	generate	Run2	generate/STIM_011.jpg
1156.489	1.49	correct	generate	Run2	generate/STIM_012.jpg
1161.737	2.056	correct	generate	Run2	generate/STIM_012.jpg
1167.428	1.87	correct	generate	Run2	generate/STIM_012.jpg
1172.277	2.035	correct	generate	Run2	generate/STIM_012.jpg
1176.626	1.03	correct	generate	Run2	generate/STIM_012.jpg
1180.786	1.819	incorrect	generate	Run2	generate/STIM_013.jpg
1186.216	1.28	correct	generate	Run2	generate/STIM_013.jpg
1191.104	1.287	correct	generate	Run2	generate/STIM_013.jpg
1195.316	1.134	correct	generate	Run2	generate/STIM_013.jpg
1200.372	1.877	incorrect	generate	Run2	generate/STIM_013.jpg
1205.601	1.988	correct	generate	Run2	generate/STIM_014.jpg
1211.401	2.545	correct	generate	Run2	generate/STIM_014.jpg
1217.571	2.398	incorrect	generate	Run2	generate/STIM_014.jpg
1222.763	1.391	correct	generate	Run2	generate/STIM_014.jpg
1226.335	0.961	correct	generate	Run2	generate/STIM_014.jpg
1230.743	1.289	correct	generate	Run2	generate/STIM_015.jpg
1234.54	2.155	correct	generate	Run2	generate/STIM_015.jpg
1238.962	1.232	correct	generate	Run2	generate/STIM_015.jpg
1242.115	1.8	correct	generate	Run2	generate/STIM_015.jpg
1246.246	1.915	correct	generate	Run2	generate/STIM_015.jpg
1250.93	1.276	correct	generate	Run2	generate/STIM_016.jpg
1254.582	2.405	incorrect	generate	Run2	generate/STIM_016.jpg
1260.063	1.935	correct	generate	Run2	generate/STIM_016.jpg
1265.538	1.135	correct	generate	Run2	generate/STIM_016.jpg
1269.013	0.952	correct	generate	Run2	generate/STIM_016.jpg
1272.427	2.401	correct	generate	Run2	generate/STIM_017.jpg
1277.1	2.242	correct	generate	Run2	generate/STIM_017.jpg
1282.689	1.963	correct	generate	Run2	generate/STIM_017.jpg
1287.31	1.576	correct	generate	Run2	generate/STIM_017.jpg
1291.915	2.027	correct	generate	Run2	generate/STIM_017.jpg
1296.062	2.397	correct	generate	Run2	generate/STIM_018.jpg
1300.617	1.591	correct	generate	Run2	generate/STIM_018.jpg
1304.881	1.103	correct	generate	Run2	generate/STIM_018.jpg
1309.512	2.155	correct	generate	Run2	generate/STIM_018.jpg
1314.089	2.119	correct	generate	Run2	generate/STIM_018.jpg
1319.962	1.347	correct	generate	Run2	generate/STIM_019.jpg
1323.643	1.335	correct	generate	Run2	generate/STIM_019.jpg
1327.15	1.376	correct	generate	Run2	generate/STIM_019.jpg
1332.117	0.959	correct	generate	Run2	generate/STIM_019.jpg
1336.606	1.966	correct	generate	Run2	generate/STIM_019.jpg
1341.443	2.248	correct	generate	Run2	generate/STIM_020.jpg
1346.889	2.419	incorrect	generate	Run2	generate/STIM_020.jpg
1353.021	1.244	correct	generate	Run2	generate/STIM_020.jpg
1357.446	1.709	correct	generate	Run2	generate/STIM_020.jpg
1361.596	1.226	correct	generate	Run2	generate/STIM_020.jpg
1365.478	1.979	correct	generate	Run2	generate/STIM_021.jpg
1370.049	2.088	correct	generate	Run2	generate/STIM_021.jpg
1374.16	1.988	correct	generate	Run2	generate/STIM_021.jpg
1379.388	0.928	correct	generate	Run2	generate/STIM_021.jpg
1383.265	1.211	correct	generate	Run2	generate/STIM_021.jpg
1387.519	2.135	incorrect	generate	Run2	generate/STIM_022.jpg
1391.995	1.792	correct	generate	Run2	generate/STIM_022.jpg
1397.478	2.296	correct	generate	Run2	generate/STIM_022.jpg
1402.288	2.013	correct	generate	Run2	generate/STIM_022.jpg
1406.244	1.632	incorrect	generate	Run2	generate/STIM_022.jpg
1410.756	2.054	incorrect	generate	Run2	generate/STIM_023.jpg
1416.506	2.021	correct	generate	Run2	generate/STIM_023.jpg
1421.664	1.268	incorrect	generate	Run2	generate/STIM_023.jpg
1426.874	1.314	correct	generate	Run2	generate/STIM_023.jpg
1430.795	1.512	correct	generate	Run2	generate/STIM_023.jpg
1435.881	1.531	correct	generate	Run2	generate/STIM_024.jpg
1440.77	2.09	incorrect	generate	Run2	generate/STIM_024.jpg
1446.354	1.684	correct	generate	Run2	generate/STIM_024.jpg
1451.782	2.187	correct	generate	Run2	generate/STIM_024.jpg
1457.336	1.458	correct	generate	Run2	generate/STIM_024.jpg
1461.556	0.75	correct	repeat	Run2	repeat/STIM_000.jpg
1465.38	0.734	correct	repeat	Run2	repeat/STIM_000.jpg
1469.184	0.84	correct	repeat	Run2	repeat/STIM_000.jpg
1473.549	0.928	correct	repeat	Run2	repeat/STIM_000.jpg
1478.095	0.92	correct	repeat	Run2	repeat/STIM_000.jpg
1482.856	0.931	correct	repeat	Run2	repeat/STIM_001.jpg
1486.775	0.838	correct	repeat	Run2	repeat/STIM_001.jpg
1490.784	0.98	correct	repeat	Run2	repeat/STIM_001.jpg
1493.939	0.676	correct	repeat	Run2	repeat/STIM_001.jpg
1496.744	0.949	correct	repeat	Run2	repeat/STIM_001.jpg
1500.939	0.921	incorrect	repeat	Run2	repeat/STIM_002.jpg
1504.224	0.868	correct	repeat	Run2	repeat/STIM_002.jpg
1508.356	1.043	correct	repeat	Run2	repeat/STIM_002.jpg
1511.696	1.04	correct	repeat	Run2	repeat/STIM_002.jpg
1514.974	0.578	correct	repeat	Run2	repeat/STIM_002.jpg
1519.434	0.844	correct	repeat	Run2	repeat/STIM_003.jpg
1523.109	0.531	correct	repeat	Run2	repeat/STIM_003.jpg
1526.801	0.515	correct	repeat	Run2	repeat/STIM_003.jpg
1530.179	0.621	correct	repeat	Run2	repeat/STIM_003.jpg
1534.428	0.844	correct	repeat	Run2	repeat/STIM_003.jpg
1537.285	0.729	correct	repeat	Run2	repeat/STIM_004.jpg
1541.849	0.553	correct	repeat	Run2	repeat/STIM_004.jpg
1546.184	0.933	correct	repeat	Run2	repeat/STIM_004.jpg
1550.577	0.61	correct	repeat	Run2	repeat/STIM_004.jpg
1554.644	0.908	correct	repeat	Run2	repeat/STIM_004.jpg
1557.682	0.558	correct	repeat	Run2	repeat/STIM_005.jpg
1562.083	0.586	correct	repeat	Run2	repeat/STIM_005.jpg
1566.046	0.982	correct	repeat	Run2	repeat/STIM_005.jpg
1569.632	0.904	correct	repeat	Run2	repeat/STIM_005.jpg
1573.569	0.828	correct	repeat	Run2	repeat/STIM_005.jpg
1576.61	0.585	correct	repeat	Run2	repeat/STIM_006.jpg
1580.747	1.0	correct	repeat	Run2	repeat/STIM_006.jpg
1583.791	0.76	correct	repeat	Run2	repeat/STIM_006.jpg
1588.46	0.82	correct	repeat	Run2	repeat/STIM_006.jpg
1592.685	0.887	incorrect	repeat	Run2	repeat/STIM_006.jpg
1595.63	0.881	correct	repeat	Run2	repeat/STIM_007.jpg
1600.044	0.692	correct	repeat	Run2	repeat/STIM_007.jpg
1604.453	1.029	incorrect	repeat	Run2	repeat/STIM_007.jpg
1608.761	0.972	correct	repeat	Run2	repeat/STIM_007.jpg
1612.783	0.845	correct	repeat	Run2	repeat/STIM_007.jpg
1617.168	0.768	correct	repeat	Run2	repeat/STIM_008.jpg
1621.127	0.912	correct	repeat	Run2	repeat/STIM_008.jpg
1625.449	0.539	correct	repeat	Run2	repeat/STIM_008.jpg
1628.701	0.539	correct	repeat	Run2	repeat/STIM_008.jpg
1632.593	0.502	correct	repeat	Run2	repeat/STIM_008.jpg
1635.789	0.638	correct	repeat	Run2	repeat/STIM_009.jpg
1639.899	0.86	correct	repeat	Run2	repeat/STIM_009.jpg
1643.257	0.618	incorrect	repeat	Run2	repeat/STIM_009.jpg
1647.113	0.611	correct	repeat	Run2	repeat/STIM_009.jpg
1649.848	0.868	correct	repeat	Run2	repeat/STIM_009.jpg
1652.954	0.953	correct	repeat	Run2	repeat/STIM_010.jpg
1656.253	0.618	correct	repeat	Run2	repeat/STIM_010.jpg
1660.034	0.825	correct	repeat	Run2	repeat/STIM_010.jpg
1663.132	0.85	correct	repeat	Run2	repeat/STIM_010.jpg
1666.344	0.643	correct	repeat	Run2	repeat/STIM_010.jpg
1669.886	0.785	correct	repeat	Run2	repeat/STIM_011.jpg
1673.816	0.631	correct	repeat	Run2	repeat/STIM_011.jpg
1677.243	0.816	correct	repeat	Run2	repeat/STIM_011.jpg
1680.421	0.955	correct	repeat	Run2	repeat/STIM_011.jpg
1684.677	0.839	correct	repeat	Run2	repeat/STIM_011.jpg
1688.276	0.584	correct	repeat	Run2	repeat/STIM_012.jpg
1691.587	0.872	correct	repeat	Run2	repeat/STIM_012.jpg
1695.989	0.965	correct	repeat	Run2	repeat/STIM_012.jpg
1700.48	0.942	correct	repeat	Run2	repeat/STIM_012.jpg
1704.695	0.671	correct	repeat	Run2	repeat/STIM_012.jpg
1707.823	0.865	correct	repeat	Run2	repeat/STIM_013.jpg
1712.535	0.885	correct	repeat	Run2	repeat/STIM_013.jpg
1717.054	0.693	incorrect	repeat	Run2	repeat/STIM_013.jpg
1720.933	0.59	correct	repeat	Run2	repeat/STIM_013.jpg
1725.136	0.999	correct	repeat	Run2	repeat/STIM_013.jpg
1728.432	0.624	correct	repeat	Run2	repeat/STIM_014.jpg
1731.8	0.724	correct	repeat	Run2	repeat/STIM_014.jpg
1735.017	0.961	correct	repeat	Run2	repeat/STIM_014.jpg
1738.396	0.886	incorrect	repeat	Run2	repeat/STIM_014.jpg
1742.678	0.7	correct	repeat	Run2	repeat/STIM_014.jpg
1745.897	0.832	incorrect	generate	Run3	generate/STIM_000.jpg
1749.049	2.124	correct	generate	Run3	generate/STIM_000.jpg
1754.729	1.664	incorrect	generate	Run3	generate/STIM_000.jpg
1759.395	2.2	correct	generate	Run3	generate/STIM_000.jpg
1764.707	2.122	correct	generate	Run3	generate/STIM_000.jpg
1770.44	1.555	correct	generate	Run3	generate/STIM_001.jpg
1774.189	1.555	correct	generate	Run3	generate/STIM_001.jpg
1779.458	1.707	correct	generate	Run3	generate/STIM_001.jpg
1783.93	1.498	correct	generate	Run3	generate/STIM_001.jpg
1787.591	1.056	correct	generate	Run3	generate/STIM_001.jpg
1792.399	1.309	correct	generate	Run3	generate/STIM_002.jpg
1797.459	0.872	correct	generate	Run3	generate/STIM_002.jpg
1801.008	0.962	correct	generate	Run3	generate/STIM_002.jpg
1804.555	2.088	correct	generate	Run3	generate/STIM_002.jpg
1809.765	1.292	correct	generate	Run3	generate/STIM_002.jpg
1815.067	1.513	correct	generate	Run3	generate/STIM_003.jpg
1820.052	2.296	correct	generate	Run3	generate/STIM_003.jpg
1825.799	1.216	correct	generate	Run3	generate/STIM_003.jpg
1829.806	2.023	correct	generate	Run3	generate/STIM_003.jpg
1834.778	1.218	incorrect	generate	Run3	generate/STIM_003.jpg
1838.429	1.539	correct	generate	Run3	generate/STIM_004.jpg
1842.056	1.516	correct	generate	Run3	generate/STIM_004.jpg
1847.249	0.803	correct	generate	Run3	generate/STIM_004.jpg
1850.921	1.274	correct	generate	Run3	generate/STIM_004.jpg
1855.088	1.953	correct	generate	Run3	generate/STIM_004.jpg
1860.864	0.872	correct	generate	Run3	generate/STIM_005.jpg
1864.543	1.289	correct	generate	Run3	generate/STIM_005.jpg
1869.655	1.322	correct	generate	Run3	generate/STIM_005.jpg
1873.408	1.164	correct	generate	Run3	generate/STIM_005.jpg
1878.053	1.511	correct	generate	Run3	generate/STIM_005.jpg
1882.704	1.735	correct	generate	Run3	generate/STIM_006.jpg
1887.263	1.175	incorrect	generate	Run3	generate/STIM_006.jpg
1891.166	2.06	correct	generate	Run3	generate/STIM_006.jpg
1896.324	2.145	correct	generate	Run3	generate/STIM_006.jpg
1900.709	1.72	correct	generate	Run3	generate/STIM_006.jpg
1905.104	1.95	correct	generate	Run3	generate/STIM_007.jpg
1909.315	1.497	correct	generate	Run3	generate/STIM_007.jpg
1912.777	1.728	correct	generate	Run3	generate/STIM_007.jpg
1916.397	1.356	correct	generate	Run3	generate/STIM_007.jpg
1920.576	1.867	correct	generate	Run3	generate/STIM_007.jpg
1924.415	1.925	correct	generate	Run3	generate/STIM_008.jpg
1929.082	1.461	correct	generate	Run3	generate/STIM_008.jpg
1933.741	1.166	correct	generate	Run3	generate/STIM_008.jpg
1937.678	1.915	correct	generate	Run3	generate/STIM_008.jpg
1942.364	1.865	correct	generate	Run3	generate/STIM_008.jpg
1946.858	1.026	incorrect	generate	Run3	generate/STIM_009.jpg
1951.666	1.764	correct	generate	Run3	generate/STIM_009.jpg
1956.626	1.645	correct	generate	Run3	generate/STIM_009.jpg
1960.435	2.087	correct	generate	Run3	generate/STIM_009.jpg
1965.742	1.857	incorrect	generate	Run3	generate/STIM_009.jpg
1971.308	1.127	correct	generate	Run3	generate/STIM_010.jpg
1975.141	1.9	correct	generate	Run3	generate/STIM_010.jpg
1979.874	2.1	correct	generate	Run3	generate/STIM_010.jpg
1984.444	1.18	correct	generate	Run3	generate/STIM_010.jpg
1988.498	1.646	correct	generate	Run3	generate/STIM_010.jpg
1992.727	2.05	correct	generate	Run3	generate/STIM_011.jpg
1998.171	1.078	correct	generate	Run3	generate/STIM_011.jpg
2001.231	1.677	correct	generate	Run3	generate/STIM_011.jpg
2006.585	1.669	correct	generate	Run3	generate/STIM_011.jpg
2010.367	1.302	correct	generate	Run3	generate/STIM_011.jpg
2013.821	2.03	incorrect	generate	Run3	generate/STIM_012.jpg
2019.188	2.186	correct	generate	Run3	generate/STIM_012.jpg
2023.566	1.618	correct	generate	Run3	generate/STIM_012.jpg
2027.627	1.152	correct	generate	Run3	generate/STIM_012.jpg
2032.47	2.056	correct	generate	Run3	generate/STIM_012.jpg
2036.458	1.758	correct	generate	Run3	generate/STIM_013.jpg
2041.532	1.293	correct	generate	Run3	generate/STIM_013.jpg
2045.78	1.487	correct	generate	Run3	generate/STIM_013.jpg
2050.004	1.075	correct	generate	Run3	generate/STIM_013.jpg
2053.402	1.274	correct	generate	Run3	generate/STIM_013.jpg
2057.181	1.328	correct	generate	Run3	generate/STIM_014.jpg
2061.765	1.233	correct	generate	Run3	generate/STIM_014.jpg
2066.262	1.613	correct	generate	Run3	generate/STIM_014.jpg
2070.042	1.936	correct	generate	Run3	generate/STIM_014.jpg
2074.379	1.309	correct	generate	Run3	generate/STIM_014.jpg
2079.004	1.419	correct	generate	Run3	generate/STIM_015.jpg
2084.233	1.696	correct	generate	Run3	generate/STIM_015.jpg
2088.677	1.014	correct	generate	Run3	generate/STIM_015.jpg
2092.07	1.13	correct	generate	Run3	generate/STIM_015.jpg
2095.862	1.355	correct	generate	Run3	generate/STIM_015.jpg
2100.071	1.024	correct	generate	Run3	generate/STIM_016.jpg
2104.909	1.535	correct	generate	Run3	generate/STIM_016.jpg
2109.222	1.024	correct	generate	Run3	generate/STIM_016.jpg
2112.379	1.667	correct	generate	Run3	generate/STIM_016.jpg
2116.73	1.938	correct	generate	Run3	generate/STIM_016.jpg
2122.404	1.763	incorrect	generate	Run3	generate/STIM_017.jpg
2127.75	1.701	correct	generate	Run3	generate/STIM_017.jpg
2131.947	1.381	correct	generate	Run3	generate/STIM_017.jpg
2136.611	1.164	correct	generate	Run3	generate/STIM_017.jpg
2140.822	1.188	correct	generate	Run3	generate/STIM_017.jpg
2143.992	1.511	incorrect	generate	Run3	generate/STIM_018.jpg
2149.017	0.957	correct	generate	Run3	generate/STIM_018.jpg
2153.149	1.805	correct	generate	Run3	generate/STIM_018.jpg
2157.687	1.133	correct	generate	Run3	generate/STIM_018.jpg
2161.63	1.114	correct	generate	Run3	generate/STIM_018.jpg
2164.682	1.284	correct	generate	Run3	generate/STIM_019.jpg
2168.931	1.064	correct	generate	Run3	generate/STIM_019.jpg
2173.109	1.914	correct	generate	Run3	generate/STIM_019.jpg
2177.569	1.446	correct	generate	Run3	generate/STIM_019.jpg
2182.814	1.753	correct	generate	Run3	generate/STIM_019.jpg
2187.21	1.392	correct	generate	Run3	generate/STIM_020.jpg
2191.094	1.493	correct	generate	Run3	generate/STIM_020.jpg
2195.954	1.274	correct	generate	Run3	generate/STIM_020.jpg
2199.711	1.477	correct	generate	Run3	generate/STIM_020.jpg
2203.17	1.975	correct	generate	Run3	generate/STIM_020.jpg
2208.837	1.49	incorrect	generate	Run3	generate/STIM_021.jpg
2212.587	1.491	correct	generate	Run3	generate/STIM_021.jpg
2217.818	1.114	correct	generate	Run3	generate/STIM_021.jpg
2221.396	1.162	correct	generate	Run3	generate/STIM_021.jpg
2225.478	1.659	correct	generate	Run3	generate/STIM_021.jpg
2230.324	1.228	correct	generate	Run3	generate/STIM_022.jpg
2233.66	1.966	correct	generate	Run3	generate/STIM_022.jpg
2239.04	1.544	correct	generate	Run3	generate/STIM_022.jpg
2244.125	1.824	correct	generate	Run3	generate/STIM_022.jpg
2248.784	1.706	correct	generate	Run3	generate/STIM_022.jpg
2253.891	1.52	correct	generate	Run3	generate/STIM_023.jpg
2259.141	1.088	correct	generate	Run3	generate/STIM_023.jpg
2263.36	1.158	correct	generate	Run3	generate/STIM_023.jpg
2266.517	1.299	correct	generate	Run3	generate/STIM_023.jpg
2271.328	1.768	incorrect	generate	Run3	generate/STIM_023.jpg
2275.548	1.887	correct	generate	Run3	generate/STIM_024.jpg
2280.658	1.737	correct	generate	Run3	generate/STIM_024.jpg
2285.109	1.271	correct	generate	Run3	generate/STIM_024.jpg
2290.219	1.937	correct	generate	Run3	generate/STIM_024.jpg
2294.601	1.628	correct	generate	Run3	generate/STIM_024.jpg
2299.055	1.004	correct	repeat	Run3	repeat/STIM_000.jpg
2302.917	0.811	correct	repeat	Run3	repeat/STIM_000.jpg
2307.373	0.67	correct	repeat	Run3	repeat/STIM_000.jpg
2310.782	1.041	correct	repeat	Run3	repeat/STIM_000.jpg
2314.36	0.674	correct	repeat	Run3	repeat/STIM_000.jpg
2317.8	0.8	correct	repeat	Run3	repeat/STIM_001.jpg
2320.916	0.766	correct	repeat	Run3	repeat/STIM_001.jpg
2323.799	0.812	correct	repeat	Run3	repeat/STIM_001.jpg
2327.102	0.652	correct	repeat	Run3	repeat/STIM_001.jpg
2330.712	0.886	correct	repeat	Run3	repeat/STIM_001.jpg
2335.48	1.011	correct	repeat	Run3	repeat/STIM_002.jpg
2338.682	0.822	correct	repeat	Run3	repeat/STIM_002.jpg
2342.965	1.1	correct	repeat	Run3	repeat/STIM_002.jpg
2346.683	0.798	correct	repeat	Run3	repeat/STIM_002.jpg
2350.17	1.017	correct	repeat	Run3	repeat/STIM_002.jpg
2353.338	0.683	correct	repeat	Run3	repeat/STIM_003.jpg
2357.601	0.794	correct	repeat	Run3	repeat/STIM_003.jpg
2360.837	0.996	correct	repeat	Run3	repeat/STIM_003.jpg
2363.954	0.523	correct	repeat	Run3	repeat/STIM_003.jpg
2368.354	1.07	correct	repeat	Run3	repeat/STIM_003.jpg
2371.677	0.57	correct	repeat	Run3	repeat/STIM_004.jpg
2374.88	0.842	correct	repeat	Run3	repeat/STIM_004.jpg
2378.734	0.987	correct	repeat	Run3	repeat/STIM_004.jpg
2382.195	1.033	correct	repeat	Run3	repeat/STIM_004.jpg
2385.273	0.765	correct	repeat	Run3	repeat/STIM_004.jpg
2388.076	0.846	correct	repeat	Run3	repeat/STIM_005.jpg
2392.128	1.018	correct	repeat	Run3	repeat/STIM_005.jpg
2396.637	0.637	correct	repeat	Run3	repeat/STIM_005.jpg
2400.28	0.582	correct	repeat	Run3	repeat/STIM_005.jpg
2403.484	0.89	correct	repeat	Run3	repeat/STIM_005.jpg
2407.272	1.006	correct	repeat	Run3	repeat/STIM_006.jpg
2411.052	0.971	correct	repeat	Run3	repeat/STIM_006.jpg
2415.282	0.923	correct	repeat	Run3	repeat/STIM_006.jpg
2418.81	0.533	correct	repeat	Run3	repeat/STIM_006.jpg
2422.555	0.989	correct	repeat	Run3	repeat/STIM_006.jpg
2427.172	0.623	correct	repeat	Run3	repeat/STIM_007.jpg
2430.428	0.843	incorrect	repeat	Run3	repeat/STIM_007.jpg
2435.107	0.995	correct	repeat	Run3	repeat/STIM_007.jpg
2439.879	0.746	correct	repeat	Run3	repeat/STIM_007.jpg
2442.874	0.918	correct	repeat	Run3	repeat/STIM_007.jpg
2446.012	0.859	correct	repeat	Run3	repeat/STIM_008.jpg
2449.538	0.732	correct	repeat	Run3	repeat/STIM_008.jpg
2453.552	0.769	correct	repeat	Run3	repeat/STIM_008.jpg
2456.882	0.738	correct	repeat	Run3	repeat/STIM_008.jpg
2460.789	0.831	correct	repeat	Run3	repeat/STIM_008.jpg
2464.847	0.807	correct	repeat	Run3	repeat/STIM_009.jpg
2468.301	0.572	correct	repeat	Run3	repeat/STIM_009.jpg
2472.657	0.521	correct	repeat	Run3	repeat/STIM_009.jpg
2475.99	0.607	correct	repeat	Run3	repeat/STIM_009.jpg
2480.005	1.036	correct	repeat	Run3	repeat/STIM_009.jpg
2483.6	0.786	correct	repeat	Run3	repeat/STIM_010.jpg
2488.095	0.623	correct	repeat	Run3	repeat/STIM_010.jpg
2491.03	0.933	correct	repeat	Run3	repeat/STIM_010.jpg
2494.016	0.972	correct	repeat	Run3	repeat/STIM_010.jpg
2497.897	0.722	correct	repeat	Run3	repeat/STIM_010.jpg
2500.73	1.066	correct	repeat	Run3	repeat/STIM_011.jpg
2504.356	0.562	correct	repeat	Run3	repeat/STIM_011.jpg
2508.464	0.709	correct	repeat	Run3	repeat/STIM_011.jpg
2511.846	0.733	correct	repeat	Run3	repeat/STIM_011.jpg
2516.504	1.007	incorrect	repeat	Run3	repeat/STIM_011.jpg
2520.111	0.919	correct	repeat	Run3	repeat/STIM_012.jpg
2523.749	0.624	correct	repeat	Run3	repeat/STIM_012.jpg
2527.272	0.797	correct	repeat	Run3	repeat/STIM_012.jpg
2531.233	0.683	correct	repeat	Run3	repeat/STIM_012.jpg
2534.129	0.684	correct	repeat	Run3	repeat/STIM_012.jpg
2538.703	0.83	correct	repeat	Run3	repeat/STIM_013.jpg
2542.392	0.945	correct	repeat	Run3	repeat/STIM_013.jpg
2545.902	0.748	correct	repeat	Run3	repeat/STIM_013.jpg
2549.055	1.052	incorrect	repeat	Run3	repeat/STIM_013.jpg
2552.168	0.549	incorrect	repeat	Run3	repeat/STIM_013.jpg
2555.081	0.894	correct	repeat	Run3	repeat/STIM_014.jpg
2559.737	0.554	correct	repeat	Run3	repeat/STIM_014.jpg
2563.256	0.816	correct	repeat	Run3	repeat/STIM_014.jpg
2566.024	0.702	correct	repeat	Run3	repeat/STIM_014.jpg
2570.352	0.929	correct	repeat	Run3	repeat/STIM_014.jpg
2574.473	2.11	correct	generate	Run4	generate/STIM_000.jpg
2580.088	1.052	correct	generate	Run4	generate/STIM_000.jpg
2584.534	1.179	correct	generate	Run4	generate/STIM_000.jpg
2588.783	2.128	correct	generate	Run4	generate/STIM_000.jpg
2593.999	1.088	correct	generate	Run4	generate/STIM_000.jpg
2597.68	1.489	correct	generate	Run4	generate/STIM_001.jpg
2602.553	1.855	correct	generate	Run4	generate/STIM_001.jpg
2607.394	1.638	correct	generate	Run4	generate/STIM_001.jpg
2612.078	2.101	correct	generate	Run4	generate/STIM_001.jpg
2617.084	1.422	correct	generate	Run4	generate/STIM_001.jpg
2621.888	0.876	correct	generate	Run4	generate/STIM_002.jpg
2626.771	1.091	correct	generate	Run4	generate/STIM_002.jpg
2630.252	0.961	correct	generate	Run4	generate/STIM_002.jpg
2633.84	1.302	correct	generate	Run4	generate/STIM_002.jpg
2639.136	1.161	correct	generate	Run4	generate/STIM_002.jpg
2642.576	1.049	correct	generate	Run4	generate/STIM_003.jpg
2645.789	1.155	correct	generate	Run4	generate/STIM_003.jpg
2650.387	1.434	correct	generate	Run4	generate/STIM_003.jpg
2654.683	2.046	correct	generate	Run4	generate/STIM_003.jpg
2660.227	1.602	correct	generate	Run4	generate/STIM_003.jpg
2664.341	1.25	correct	generate	Run4	generate/STIM_004.jpg
2669.171	1.365	correct	generate	Run4	generate/STIM_004.jpg
2672.648	1.722	correct	generate	Run4	generate/STIM_004.jpg
2676.272	1.878	correct	generate	Run4	generate/STIM_004.jpg
2681.769	2.275	correct	generate	Run4	generate/STIM_004.jpg
2686.584	1.76	correct	generate	Run4	generate/STIM_005.jpg
2690.876	1.644	incorrect	generate	Run4	generate/STIM_005.jpg
2695.703	1.753	correct	generate	Run4	generate/STIM_005.jpg
2701.025	0.998	correct	generate	Run4	generate/STIM_005.jpg
2704.164	2.169	correct	generate	Run4	generate/STIM_005.jpg
2709.126	2.126	correct	generate	Run4	generate/STIM_006.jpg
2713.529	0.959	correct	generate	Run4	generate/STIM_006.jpg
2717.413	0.937	correct	generate	Run4	generate/STIM_006.jpg
2722.091	1.66	correct	generate	Run4	generate/STIM_006.jpg
2725.797	1.237	correct	generate	Run4	generate/STIM_006.jpg
2729.297	1.499	correct	generate	Run4	generate/STIM_007.jpg
2732.97	1.62	correct	generate	Run4	generate/STIM_007.jpg
2736.616	1.702	correct	generate	Run4	generate/STIM_007.jpg
2740.802	1.545	incorrect	generate	Run4	generate/STIM_007.jpg
2745.262	1.911	correct	generate	Run4	generate/STIM_007.jpg
2749.378	1.327	correct	generate	Run4	generate/STIM_008.jpg
2752.859	1.652	incorrect	generate	Run4	generate/STIM_008.jpg
2757.9	1.501	correct	generate	Run4	generate/STIM_008.jpg
2762.884	1.301	correct	generate	Run4	generate/STIM_008.jpg
2767.144	1.059	correct	generate	Run4	generate/STIM_008.jpg
2771.991	1.608	correct	generate	Run4	generate/STIM_009.jpg
2777.229	1.532	correct	generate	Run4	generate/STIM_009.jpg
2782.071	1.087	correct	generate	Run4	generate/STIM_009.jpg
2786.322	1.504	correct	generate	Run4	generate/STIM_009.jpg
2790.232	1.392	incorrect	generate	Run4	generate/STIM_009.jpg
2795.283	1.635	correct	generate	Run4	generate/STIM_010.jpg
2799.094	1.029	correct	generate	Run4	generate/STIM_010.jpg
2803.111	1.123	correct	generate	Run4	generate/STIM_010.jpg
2808.148	1.524	correct	generate	Run4	generate/STIM_010.jpg
2812.819	1.297	correct	generate	Run4	generate/STIM_010.jpg
2817.641	1.114	correct	generate	Run4	generate/STIM_011.jpg
2822.449	1.315	correct	generate	Run4	generate/STIM_011.jpg
2826.311	0.927	correct	generate	Run4	generate/STIM_011.jpg
2830.801	1.147	correct	generate	Run4	generate/STIM_011.jpg
2834.029	1.108	correct	generate	Run4	generate/STIM_011.jpg
2837.488	1.236	correct	generate	Run4	generate/STIM_012.jpg
2842.483	1.599	correct	generate	Run4	generate/STIM_012.jpg
2847.889	1.924	correct	generate	Run4	generate/STIM_012.jpg
2852.934	1.492	correct	generate	Run4	generate/STIM_012.jpg
2858.258	1.95	correct	generate	Run4	generate/STIM_012.jpg
2862.443	1.672	correct	generate	Run4	generate/STIM_013.jpg
2867.013	2.018	correct	generate	Run4	generate/STIM_013.jpg
2871.602	1.264	incorrect	generate	Run4	generate/STIM_013.jpg
2876.728	1.438	correct	generate	Run4	generate/STIM_013.jpg
2880.057	1.761	correct	generate	Run4	generate/STIM_013.jpg
2884.374	2.137	correct	generate	Run4	generate/STIM_014.jpg
2889.582	1.219	correct	generate	Run4	generate/STIM_014.jpg
2893.709	2.01	correct	generate	Run4	generate/STIM_014.jpg
2898.862	1.128	correct	generate	Run4	generate/STIM_014.jpg
2903.096	1.813	correct	generate	Run4	generate/STIM_014.jpg
2906.892	1.311	correct	generate	Run4	generate/STIM_015.jpg
2911.801	1.374	correct	generate	Run4	generate/STIM_015.jpg
2915.975	1.54	correct	generate	Run4	generate/STIM_015.jpg
2920.86	1.978	correct	generate	Run4	generate/STIM_015.jpg
2926.795	2.026	correct	generate	Run4	generate/STIM_015.jpg
2931.306	1.248	correct	generate	Run4	generate/STIM_016.jpg
2935.685	2.108	correct	generate	Run4	generate/STIM_016.jpg
2940.73	1.624	correct	generate	Run4	generate/STIM_016.jpg
2945.696	2.063	correct	generate	Run4	generate/STIM_016.jpg
2950.832	0.934	correct	generate	Run4	generate/STIM_016.jpg
2953.844	1.403	incorrect	generate	Run4	generate/STIM_017.jpg
2957.836	2.144	correct	generate	Run4	generate/STIM_017.jpg
2963.514	2.144	correct	generate	Run4	generate/STIM_017.jpg
2969.256	1.377	correct	generate	Run4	generate/STIM_017.jpg
2973.805	2.01	correct	generate	Run4	generate/STIM_017.jpg
2979.702	1.878	correct	generate	Run4	generate/STIM_018.jpg
2984.126	1.869	correct	generate	Run4	generate/STIM_018.jpg
2988.087	1.565	correct	generate	Run4	generate/STIM_018.jpg
2993.433	1.926	correct	generate	Run4	generate/STIM_018.jpg
2998.137	1.494	correct	generate	Run4	generate/STIM_018.jpg
3003.368	1.742	incorrect	generate	Run4	generate/STIM_019.jpg
3008.375	2.04	correct	generate	Run4	generate/STIM_019.jpg
3013.459	1.906	correct	generate	Run4	generate/STIM_019.jpg
3019.043	1.542	correct	generate	Run4	generate/STIM_019.jpg
3023.76	1.379	correct	generate	Run4	generate/STIM_019.jpg
3028.994	2.212	correct	generate	Run4	generate/STIM_020.jpg
3034.804	1.902	correct	generate	Run4	generate/STIM_020.jpg
3039.593	1.742	correct	generate	Run4	generate/STIM_020.jpg
3045.187	2.08	correct	generate	Run4	generate/STIM_020.jpg
3050.394	1.497	correct	generate	Run4	generate/STIM_020.jpg
3054.129	1.911	correct	generate	Run4	generate/STIM_021.jpg
3058.22	1.011	correct	generate	Run4	generate/STIM_021.jpg
3062.796	1.925	correct	generate	Run4	generate/STIM_021.jpg
3067.18	1.45	correct	generate	Run4	generate/STIM_021.jpg
3070.721	1.115	incorrect	generate	Run4	generate/STIM_021.jpg
3074.663	1.324	correct	generate	Run4	generate/STIM_022.jpg
3079.815	1.642	correct	generate	Run4	generate/STIM_022.jpg
3083.453	2.111	correct	generate	Run4	generate/STIM_022.jpg
3088.768	1.633	correct	generate	Run4	generate/STIM_022.jpg
3093.146	1.056	correct	generate	Run4	generate/STIM_022.jpg
3097.507	1.765	correct	generate	Run4	generate/STIM_023.jpg
3102.921	1.241	correct	generate	Run4	generate/STIM_023.jpg
3107.899	1.43	correct	generate	Run4	generate/STIM_023.jpg
3111.807	2.162	correct	generate	Run4	generate/STIM_023.jpg
3116.745	1.451	correct	generate	Run4	generate/STIM_023.jpg
3121.608	0.922	correct	generate	Run4	generate/STIM_024.jpg
3125.034	1.172	incorrect	generate	Run4	generate/STIM_024.jpg
3129.071	0.981	correct	generate	Run4	generate/STIM_024.jpg
3133.648	1.037	correct	generate	Run4	generate/STIM_024.jpg
3137.754	1.974	correct	generate	Run4	generate/STIM_024.jpg
3142.755	0.752	correct	repeat	Run4	repeat/STIM_000.jpg
3147.084	1.061	correct	repeat	Run4	repeat/STIM_000.jpg
3150.474	0.883	correct	repeat	Run4	repeat/STIM_000.jpg
3154.157	0.783	correct	repeat	Run4	repeat/STIM_000.jpg
3158.611	0.624	correct	repeat	Run4	repeat/STIM_000.jpg
3162.642	0.997	correct	repeat	Run4	repeat/STIM_001.jpg
3165.928	0.937	correct	repeat	Run4	repeat/STIM_001.jpg
3169.183	0.79	correct	repeat	Run4	repeat/STIM_001.jpg
3172.595	0.852	correct	repeat	Run4	repeat/STIM_001.jpg
3177.306	0.963	correct	repeat	Run4	repeat/STIM_001.jpg
3181.04	0.977	correct	repeat	Run4	repeat/STIM_002.jpg
3183.987	0.608	correct	repeat	Run4	repeat/STIM_002.jpg
3188.364	0.747	correct	repeat	Run4	repeat/STIM_002.jpg
3191.132	0.831	incorrect	repeat	Run4	repeat/STIM_002.jpg
3193.997	0.869	correct	repeat	Run4	repeat/STIM_002.jpg
3198.302	0.743	correct	repeat	Run4	repeat/STIM_003.jpg
3201.234	0.544	correct	repeat	Run4	repeat/STIM_003.jpg
3204.612	0.892	correct	repeat	Run4	repeat/STIM_003.jpg
3209.25	1.023	correct	repeat	Run4	repeat/STIM_003.jpg
3213.591	1.006	correct	repeat	Run4	repeat/STIM_003.jpg
3218.152	0.891	correct	repeat	Run4	repeat/STIM_004.jpg
3221.108	1.004	correct	repeat	Run4	repeat/STIM_004.jpg
3225.234	0.918	correct	repeat	Run4	repeat/STIM_004.jpg
3229.839	1.071	correct	repeat	Run4	repeat/STIM_004.jpg
3233.715	0.667	correct	repeat	Run4	repeat/STIM_004.jpg
3238.238	0.971	correct	repeat	Run4	repeat/STIM_005.jpg
3242.16	0.975	correct	repeat	Run4	repeat/STIM_005.jpg
3245.551	0.986	correct	repeat	Run4	repeat/STIM_005.jpg
3249.362	0.958	correct	repeat	Run4	repeat/STIM_005.jpg
3253.899	0.573	correct	repeat	Run4	repeat/STIM_005.jpg
3258.34	0.873	correct	repeat	Run4	repeat/STIM_006.jpg
3261.456	0.765	correct	repeat	Run4	repeat/STIM_006.jpg
3264.63	0.906	correct	repeat	Run4	repeat/STIM_006.jpg
3268.733	0.855	incorrect	repeat	Run4	repeat/STIM_006.jpg
3273.442	0.955	correct	repeat	Run4	repeat/STIM_006.jpg
3278.245	0.992	correct	repeat	Run4	repeat/STIM_007.jpg
3282.559	0.785	correct	repeat	Run4	repeat/STIM_007.jpg
3285.423	0.878	correct	repeat	Run4	repeat/STIM_007.jpg
3289.713	0.846	correct	repeat	Run4	repeat/STIM_007.jpg
3294.073	0.51	correct	repeat	Run4	repeat/STIM_007.jpg
3296.718	0.809	correct	repeat	Run4	repeat/STIM_008.jpg
3300.763	0.725	incorrect	repeat	Run4	repeat/STIM_008.jpg
3304.03	0.905	correct	repeat	Run4	repeat/STIM_008.jpg
3308.716	0.652	incorrect	repeat	Run4	repeat/STIM_008.jpg
3311.968	0.895	correct	repeat	Run4	repeat/STIM_008.jpg
3316.157	0.682	correct	repeat	Run4	repeat/STIM_009.jpg
3319.222	0.97	correct	repeat	Run4	repeat/STIM_009.jpg
3322.65	0.811	correct	repeat	Run4	repeat/STIM_009.jpg
3326.019	1.102	correct	repeat	Run4	repeat/STIM_009.jpg
3330.665	0.824	correct	repeat	Run4	repeat/STIM_009.jpg
3334.181	0.554	correct	repeat	Run4	repeat/STIM_010.jpg
3337.192	0.487	correct	repeat	Run4	repeat/STIM_010.jpg
3340.268	0.843	correct	repeat	Run4	repeat/STIM_010.jpg
3344.55	0.531	correct	repeat	Run4	repeat/STIM_010.jpg
3348.24	0.434	correct	repeat	Run4	repeat/STIM_010.jpg
3352.177	0.876	correct	repeat	Run4	repeat/STIM_011.jpg
3355.876	0.967	correct	repeat	Run4	repeat/STIM_011.jpg
3359.926	0.678	correct	repeat	Run4	repeat/STIM_011.jpg
3363.673	1.117	correct	repeat	Run4	repeat/STIM_011.jpg
3367.873	1.009	correct	repeat	Run4	repeat/STIM_011.jpg
3372.709	1.088	correct	repeat	Run4	repeat/STIM_012.jpg
3376.815	0.98	incorrect	repeat	Run4	repeat/STIM_012.jpg
3379.936	0.915	correct	repeat	Run4	repeat/STIM_012.jpg
3384.63	0.787	correct	repeat	Run4	repeat/STIM_012.jpg
3388.637	0.941	correct	repeat	Run4	repeat/STIM_012.jpg
3393.018	0.76	correct	repeat	Run4	repeat/STIM_013.jpg
3396.57	0.942	correct	repeat	Run4	repeat/STIM_013.jpg
3399.812	0.796	correct	repeat	Run4	repeat/STIM_013.jpg
3402.66	0.922	correct	repeat	Run4	repeat/STIM_013.jpg
3405.539	0.548	correct	repeat	Run4	repeat/STIM_013.jpg
3408.806	0.862	correct	repeat	Run4	repeat/STIM_014.jpg
3413.467	0.538	correct	repeat	Run4	repeat/STIM_014.jpg
3417.352	0.993	correct	repeat	Run4	repeat/STIM_014.jpg
3421.604	0.635	correct	repeat	Run4	repeat/STIM_014.jpg
3424.283	0.836	correct	repeat	Run4	repeat/STIM_014.jpg
