onset	duration	accuracy	trial_type	learning_stage	stimulus
0.0	1.078	correct	study	Phase1	study/STIM_000.jpg
4.969	1.123	correct	study	Phase1	study/STIM_000.jpg
10.078	1.081	correct	study	Phase1	study/STIM_000.jpg
13.622	1.472	correct	study	Phase1	study/STIM_001.jpg
19.017	1.276	correct	study	Phase1	study/STIM_001.jpg
24.183	1.755	correct	study	Phase1	study/STIM_001.jpg
29.607	1.288	correct	study	Phase1	study/STIM_002.jpg
33.645	1.244	correct	study	Phase1	study/STIM_002.jpg
38.034	1.321	correct	study	Phase1	study/STIM_002.jpg
42.439	1.932	correct	study	Phase1	study/STIM_003.jpg
47.333	1.777	correct	study	Phase1	study/STIM_003.jpg
51.38	1.322	correct	study	Phase1	study/STIM_003.jpg
56.237	1.926	correct	study	Phase1	study/STIM_004.jpg
61.033	1.265	correct	study	Phase1	study/STIM_004.jpg
65.886	1.391	correct	study	Phase1	study/STIM_004.jpg
70.954	1.076	correct	study	Phase1	study/STIM_005.jpg
74.783	1.467	correct	study	Phase1	study/STIM_005.jpg
78.939	1.572	correct	study	Phase1	study/STIM_005.jpg
84.32	1.499	correct	study	Phase1	study/STIM_006.jpg
89.784	1.298	correct	study	Phase1	study/STIM_006.jpg
94.752	1.002	correct	study	Phase1	study/STIM_006.jpg
98.938	1.663	correct	study	Phase1	study/STIM_007.jpg
104.133	1.15	correct	study	Phase1	study/STIM_007.jpg
108.301	1.054	correct	study	Phase1	study/STIM_007.jpg
112.885	1.946	correct	study	Phase1	study/STIM_008.jpg
118.13	1.462	correct	study	Phase1	study/STIM_008.jpg
121.668	1.071	incorrect	study	Phase1	study/STIM_008.jpg
125.587	1.919	correct	study	Phase1	study/STIM_009.jpg
131.5	1.551	correct	study	Phase1	study/STIM_009.jpg
135.845	1.674	correct	study	Phase1	study/STIM_009.jpg
140.881	0.975	correct	study	Phase1	study/STIM_010.jpg
145.614	1.013	correct	study	Phase1	study/STIM_010.jpg
148.678	1.693	incorrect	study	Phase1	study/STIM_010.jpg
153.08	0.989	correct	study	Phase1	study/STIM_011.jpg
156.128	1.328	correct	study	Phase1	study/STIM_011.jpg
160.402	0.803	correct	study	Phase1	study/STIM_011.jpg
163.237	1.547	correct	study	Phase1	study/STIM_012.jpg
167.25	1.498	correct	study	Phase1	study/STIM_012.jpg
171.302	1.601	correct	study	Phase1	study/STIM_012.jpg
174.971	1.281	correct	study	Phase1	study/STIM_013.jpg
179.715	1.126	correct	study	Phase1	study/STIM_013.jpg
184.21	1.15	correct	study	Phase1	study/STIM_013.jpg
187.723	1.403	correct	study	Phase1	study/STIM_014.jpg
192.662	1.58	correct	study	Phase1	study/STIM_014.jpg
197.432	0.805	correct	study	Phase1	study/STIM_014.jpg
201.765	1.307	correct	study	Phase1	study/STIM_015.jpg
207.024	1.457	correct	study	Phase1	study/STIM_015.jpg
211.241	0.794	correct	study	Phase1	study/STIM_015.jpg
215.678	1.558	correct	study	Phase1	study/STIM_016.jpg
220.836	1.709	correct	study	Phase1	study/STIM_016.jpg
226.288	1.426	correct	study	Phase1	study/STIM_016.jpg
231.689	1.908	correct	study	Phase1	study/STIM_017.jpg
237.283	1.099	correct	study	Phase1	study/STIM_017.jpg
240.75	1.295	correct	study	Phase1	study/STIM_017.jpg
244.471	1.605	correct	study	Phase1	study/STIM_018.jpg
248.199	1.227	correct	study	Phase1	study/STIM_018.jpg
252.065	1.038	correct	study	Phase1	study/STIM_018.jpg
255.43	1.312	correct	study	Phase1	study/STIM_019.jpg
259.19	1.537	incorrect	study	Phase1	study/STIM_019.jpg
263.435	1.1	correct	study	Phase1	study/STIM_019.jpg
267.391	1.624	correct	study	Phase1	study/STIM_020.jpg
271.297	1.801	correct	study	Phase1	study/STIM_020.jpg
275.188	1.079	correct	study	Phase1	study/STIM_020.jpg
278.453	1.548	correct	study	Phase1	study/STIM_021.jpg
283.259	0.835	correct	study	Phase1	study/STIM_021.jpg
286.435	1.431	correct	study	Phase1	study/STIM_021.jpg
290.21	0.994	correct	study	Phase1	study/STIM_022.jpg
293.697	1.002	correct	study	Phase1	study/STIM_022.jpg
297.541	1.312	correct	study	Phase1	study/STIM_022.jpg
302.576	1.058	correct	study	Phase1	study/STIM_023.jpg
305.777	0.97	correct	study	Phase1	study/STIM_023.jpg
310.133	1.449	correct	study	Phase1	study/STIM_023.jpg
315.486	1.425	correct	study	Phase1	study/STIM_024.jpg
319.406	0.931	correct	study	Phase1	study/STIM_024.jpg
322.967	1.299	correct	study	Phase1	study/STIM_024.jpg
327.942	1.961	correct	study	Phase1	study/STIM_025.jpg
333.588	1.732	correct	study	Phase1	study/STIM_025.jpg
338.005	1.526	correct	study	Phase1	study/STIM_025.jpg
342.781	1.64	correct	study	Phase1	study/STIM_026.jpg
346.836	1.707	correct	study	Phase1	study/STIM_026.jpg
350.975	1.317	correct	study	Phase1	study/STIM_026.jpg
356.227	1.687	correct	study	Phase1	study/STIM_027.jpg
360.183	0.907	correct	study	Phase1	study/STIM_027.jpg
363.857	1.117	correct	study	Phase1	study/STIM_027.jpg
368.738	1.543	correct	study	Phase1	study/STIM_028.jpg
373.024	1.253	correct	study	Phase1	study/STIM_028.jpg
377.153	1.383	correct	study	Phase1	study/STIM_028.jpg
382.213	1.853	correct	study	Phase1	study/STIM_029.jpg
386.545	1.807	correct	study	Phase1	study/STIM_029.jpg
391.632	1.516	correct	study	Phase1	study/STIM_029.jpg
395.284	0.771	correct	test	Phase1	test/STIM_000.jpg
398.896	0.774	correct	test	Phase1	test/STIM_000.jpg
402.826	0.935	correct	test	Phase1	test/STIM_000.jpg
406.943	0.743	correct	test	Phase1	test/STIM_001.jpg
411.291	1.069	correct	test	Phase1	test/STIM_001.jpg
415.934	0.889	correct	test	Phase1	test/STIM_001.jpg
419.764	1.358	correct	test	Phase1	test/STIM_002.jpg
424.933	0.695	correct	test	Phase1	test/STIM_002.jpg
429.025	0.799	correct	test	Phase1	test/STIM_002.jpg
432.097	0.907	correct	test	Phase1	test/STIM_003.jpg
436.477	1.19	correct	test	Phase1	test/STIM_003.jpg
441.115	1.184	correct	test	Phase1	test/STIM_003.jpg
446.065	0.88	correct	test	Phase1	test/STIM_004.jpg
450.427	0.828	correct	test	Phase1	test/STIM_004.jpg
454.325	0.883	correct	test	Phase1	test/STIM_004.jpg
457.833	1.389	correct	test	Phase1	test/STIM_005.jpg
462.555	0.741	correct	test	Phase1	test/STIM_005.jpg
466.327	1.304	correct	test	Phase1	test/STIM_005.jpg
469.839	0.711	correct	test	Phase1	test/STIM_006.jpg
474.319	0.686	correct	test	Phase1	test/STIM_006.jpg
478.392	1.284	correct	test	Phase1	test/STIM_006.jpg
483.246	0.753	correct	test	Phase1	test/STIM_007.jpg
487.969	1.408	correct	test	Phase1	test/STIM_007.jpg
492.795	1.38	correct	test	Phase1	test/STIM_007.jpg
496.449	1.164	correct	test	Phase1	test/STIM_008.jpg
501.008	1.267	correct	test	Phase1	test/STIM_008.jpg
504.467	0.783	incorrect	test	Phase1	test/STIM_008.jpg
508.236	0.663	correct	test	Phase1	test/STIM_009.jpg
511.895	1.292	correct	test	Phase1	test/STIM_009.jpg
515.39	1.124	correct	test	Phase1	test/STIM_009.jpg
518.583	1.296	correct	test	Phase1	test/STIM_010.jpg
522.667	0.938	correct	test	Phase1	test/STIM_010.jpg
526.615	0.995	correct	test	Phase1	test/STIM_010.jpg
529.707	0.72	correct	test	Phase1	test/STIM_011.jpg
533.803	1.055	correct	test	Phase1	test/STIM_011.jpg
537.855	0.823	correct	test	Phase1	test/STIM_011.jpg
541.267	1.368	correct	test	Phase1	test/STIM_012.jpg
544.97	1.03	correct	test	Phase1	test/STIM_012.jpg
548.073	1.032	correct	test	Phase1	test/STIM_012.jpg
551.124	0.88	correct	test	Phase1	test/STIM_013.jpg
554.793	0.757	correct	test	Phase1	test/STIM_013.jpg
558.971	1.169	correct	test	Phase1	test/STIM_013.jpg
562.415	1.035	correct	test	Phase1	test/STIM_014.jpg
566.388	0.803	correct	test	Phase1	test/STIM_014.jpg
571.079	1.221	correct	test	Phase1	test/STIM_014.jpg
574.89	1.337	correct	test	Phase1	test/STIM_015.jpg
579.297	1.198	correct	test	Phase1	test/STIM_015.jpg
582.575	0.828	correct	test	Phase1	test/STIM_015.jpg
586.449	1.276	correct	test	Phase1	test/STIM_016.jpg
591.613	1.348	correct	test	Phase1	test/STIM_016.jpg
595.597	1.113	correct	test	Phase1	test/STIM_016.jpg
599.706	1.281	correct	test	Phase1	test/STIM_017.jpg
603.656	1.178	correct	test	Phase1	test/STIM_017.jpg
607.714	1.389	correct	test	Phase1	test/STIM_017.jpg
613.001	1.205	correct	test	Phase1	test/STIM_018.jpg
617.39	0.762	correct	test	Phase1	test/STIM_018.jpg
620.657	1.416	correct	test	Phase1	test/STIM_018.jpg
624.535	1.13	correct	test	Phase1	test/STIM_019.jpg
627.707	0.753	correct	test	Phase1	test/STIM_019.jpg
631.427	0.765	correct	test	Phase1	test/STIM_019.jpg
634.699	0.824	correct	test	Phase1	test/STIM_020.jpg
638.248	0.689	correct	test	Phase1	test/STIM_020.jpg
642.527	0.848	correct	test	Phase1	test/STIM_020.jpg
647.099	0.927	correct	test	Phase1	test/STIM_021.jpg
651.095	0.96	correct	test	Phase1	test/STIM_021.jpg
655.002	0.67	correct	test	Phase1	test/STIM_021.jpg
657.899	1.008	correct	test	Phase1	test/STIM_022.jpg
662.318	0.967	correct	test	Phase1	test/STIM_022.jpg
665.548	1.152	correct	test	Phase1	test/STIM_022.jpg
670.479	1.096	correct	test	Phase1	test/STIM_023.jpg
673.902	0.918	correct	test	Phase1	test/STIM_023.jpg
677.212	1.381	correct	test	Phase1	test/STIM_023.jpg
680.658	1.083	correct	test	Phase1	test/STIM_024.jpg
684.232	1.054	correct	test	Phase1	test/STIM_024.jpg
687.679	1.123	correct	test	Phase1	test/STIM_024.jpg
691.532	1.075	correct	test	Phase1	test/STIM_025.jpg
696.361	1.314	correct	test	Phase1	test/STIM_025.jpg
701.475	0.77	correct	test	Phase1	test/STIM_025.jpg
705.55	0.948	correct	test	Phase1	test/STIM_026.jpg
709.804	0.694	correct	test	Phase1	test/STIM_026.jpg
713.42	0.857	correct	test	Phase1	test/STIM_026.jpg
716.45	1.266	correct	test	Phase1	test/STIM_027.jpg
720.02	0.844	correct	test	Phase1	test/STIM_027.jpg
724.773	0.882	correct	test	Phase1	test/STIM_027.jpg
728.668	1.384	correct	test	Phase1	test/STIM_028.jpg
733.999	0.99	correct	test	Phase1	test/STIM_028.jpg
737.906	1.058	correct	test	Phase1	test/STIM_028.jpg
742.41	1.127	correct	test	Phase1	test/STIM_029.jpg
747.121	1.377	correct	test	Phase1	test/STIM_029.jpg
751.675	1.315	correct	test	Phase1	test/STIM_029.jpg
756.591	1.57	correct	study	Phase2	study/STIM_000.jpg
761.595	1.539	correct	study	Phase2	study/STIM_000.jpg
766.765	0.725	correct	study	Phase2	study/STIM_000.jpg
770.603	1.398	correct	study	Phase2	study/STIM_001.jpg
774.188	0.969	correct	study	Phase2	study/STIM_001.jpg
778.911	1.4	correct	study	Phase2	study/STIM_001.jpg
783.056	1.118	incorrect	study	Phase2	study/STIM_002.jpg
787.507	1.01	correct	study	Phase2	study/STIM_002.jpg
791.395	0.837	correct	study	Phase2	study/STIM_002.jpg
795.174	0.932	correct	study	Phase2	study/STIM_003.jpg
798.661	1.224	correct	study	Phase2	study/STIM_003.jpg
802.979	1.183	correct	study	Phase2	study/STIM_003.jpg
806.91	0.895	correct	study	Phase2	study/STIM_004.jpg
810.611	1.26	correct	study	Phase2	study/STIM_004.jpg
815.578	0.716	correct	study	Phase2	study/STIM_004.jpg
820.193	1.658	correct	study	Phase2	study/STIM_005.jpg
824.135	1.313	correct	study	Phase2	study/STIM_005.jpg
829.242	0.913	correct	study	Phase2	study/STIM_005.jpg
833.99	0.753	correct	study	Phase2	study/STIM_006.jpg
837.588	1.308	correct	study	Phase2	study/STIM_006.jpg
842.235	1.373	correct	study	Phase2	study/STIM_006.jpg
846.652	1.413	correct	study	Phase2	study/STIM_007.jpg
850.962	0.712	correct	study	Phase2	study/STIM_007.jpg
853.913	0.934	correct	study	Phase2	study/STIM_007.jpg
857.699	0.907	correct	study	Phase2	study/STIM_008.jpg
862.349	1.037	correct	study	Phase2	study/STIM_008.jpg
867.293	1.092	correct	study	Phase2	study/STIM_008.jpg
870.669	1.54	correct	study	Phase2	study/STIM_009.jpg
874.254	1.545	correct	study	Phase2	study/STIM_009.jpg
878.566	1.434	correct	study	Phase2	study/STIM_009.jpg
883.36	0.919	incorrect	study	Phase2	study/STIM_010.jpg
887.838	1.026	correct	study	Phase2	study/STIM_010.jpg
891.693	0.84	correct	study	Phase2	study/STIM_010.jpg
894.922	1.521	correct	study	Phase2	study/STIM_011.jpg
899.229	0.957	correct	study	Phase2	study/STIM_011.jpg
902.389	1.045	correct	study	Phase2	study/STIM_011.jpg
907.202	0.809	correct	study	Phase2	study/STIM_012.jpg
910.347	0.775	correct	study	Phase2	study/STIM_012.jpg
913.327	1.08	correct	study	Phase2	study/STIM_012.jpg
916.475	1.168	correct	study	Phase2	study/STIM_013.jpg
920.323	0.987	correct	study	Phase2	study/STIM_013.jpg
923.347	1.287	correct	study	Phase2	study/STIM_013.jpg
927.401	1.13	correct	study	Phase2	study/STIM_014.jpg
930.719	0.797	correct	study	Phase2	study/STIM_014.jpg
935.16	0.764	correct	study	Phase2	study/STIM_014.jpg
938.501	1.56	correct	study	Phase2	study/STIM_015.jpg
942.404	1.557	correct	study	Phase2	study/STIM_015.jpg
947.097	1.119	correct	study	Phase2	study/STIM_015.jpg
952.119	1.523	correct	study	Phase2	study/STIM_016.jpg
957.59	1.096	correct	study	Phase2	study/STIM_016.jpg
962.217	0.965	correct	study	Phase2	study/STIM_016.jpg
966.149	1.599	correct	study	Phase2	study/STIM_017.jpg
971.445	1.062	correct	study	Phase2	study/STIM_017.jpg
976.204	1.446	correct	study	Phase2	study/STIM_017.jpg
980.257	1.103	correct	study	Phase2	study/STIM_018.jpg
983.381	0.893	correct	study	Phase2	study/STIM_018.jpg
987.085	0.924	correct	study	Phase2	study/STIM_018.jpg
991.844	1.619	correct	study	Phase2	study/STIM_019.jpg
997.288	1.34	correct	study	Phase2	study/STIM_019.jpg
1001.849	0.676	correct	study	Phase2	study/STIM_019.jpg
1005.991	1.472	correct	study	Phase2	study/STIM_020.jpg
1010.72	0.854	correct	study	Phase2	study/STIM_020.jpg
1014.924	0.732	correct	study	Phase2	study/STIM_020.jpg
1018.982	1.183	correct	study	Phase2	study/STIM_021.jpg
1022.727	1.271	correct	study	Phase2	study/STIM_021.jpg
1027.085	1.437	correct	study	Phase2	study/STIM_021.jpg
1030.622	1.657	correct	study	Phase2	study/STIM_022.jpg
1035.715	1.162	correct	study	Phase2	study/STIM_022.jpg
1039.232	0.799	correct	study	Phase2	study/STIM_022.jpg
1043.777	1.172	correct	study	Phase2	study/STIM_023.jpg
1048.717	1.122	correct	study	Phase2	study/STIM_023.jpg
1052.654	0.952	correct	study	Phase2	study/STIM_023.jpg
1056.815	1.173	correct	study	Phase2	study/STIM_024.jpg
1060.624	1.202	correct	study	Phase2	study/STIM_024.jpg
1065.332	0.737	correct	study	Phase2	study/STIM_024.jpg
1069.672	0.911	correct	study	Phase2	study/STIM_025.jpg
1074.524	1.153	correct	study	Phase2	study/STIM_025.jpg
1078.318	1.327	correct	study	Phase2	study/STIM_025.jpg
1083.092	1.461	correct	study	Phase2	study/STIM_026.jpg
1088.12	0.974	correct	study	Phase2	study/STIM_026.jpg
1092.467	0.791	correct	study	Phase2	study/STIM_026.jpg
1096.562	1.348	correct	study	Phase2	study/STIM_027.jpg
1101.502	1.118	incorrect	study	Phase2	study/STIM_027.jpg
1106.092	0.911	correct	study	Phase2	study/STIM_027.jpg
1110.338	1.57	correct	study	Phase2	study/STIM_028.jpg
1114.937	0.801	correct	study	Phase2	study/STIM_028.jpg
1119.11	0.718	correct	study	Phase2	study/STIM_028.jpg
1123.629	1.639	correct	study	Phase2	study/STIM_029.jpg
1128.766	1.505	correct	study	Phase2	study/STIM_029.jpg
1133.099	1.406	correct	study	Phase2	study/STIM_029.jpg
1138.372	1.056	correct	test	Phase2	test/STIM_000.jpg
1142.328	0.903	correct	test	Phase2	test/STIM_000.jpg
1146.314	1.023	correct	test	Phase2	test/STIM_000.jpg
1149.513	1.266	correct	test	Phase2	test/STIM_001.jpg
1154.421	1.283	correct	test	Phase2	test/STIM_001.jpg
1157.713	1.349	correct	test	Phase2	test/STIM_001.jpg
1161.276	1.189	correct	test	Phase2	test/STIM_002.jpg
1164.521	1.055	correct	test	Phase2	test/STIM_002.jpg
1169.505	1.336	correct	test	Phase2	test/STIM_002.jpg
1172.968	0.902	incorrect	test	Phase2	test/STIM_003.jpg
1176.832	0.783	correct	test	Phase2	test/STIM_003.jpg
1180.486	1.377	correct	test	Phase2	test/STIM_003.jpg
1184.994	1.146	correct	test	Phase2	test/STIM_004.jpg
1188.586	1.341	correct	test	Phase2	test/STIM_004.jpg
1192.306	1.089	correct	test	Phase2	test/STIM_004.jpg
1196.085	0.796	correct	test	Phase2	test/STIM_005.jpg
1199.803	0.972	correct	test	Phase2	test/STIM_005.jpg
1204.559	1.299	correct	test	Phase2	test/STIM_005.jpg
1207.919	0.995	correct	test	Phase2	test/STIM_006.jpg
1211.199	0.954	correct	test	Phase2	test/STIM_006.jpg
1216.068	0.69	correct	test	Phase2	test/STIM_006.jpg
1219.083	1.179	incorrect	test	Phase2	test/STIM_007.jpg
1223.357	1.244	correct	test	Phase2	test/STIM_007.jpg
1227.997	0.73	correct	test	Phase2	test/STIM_007.jpg
1232.19	0.818	correct	test	Phase2	test/STIM_008.jpg
1236.962	1.279	correct	test	Phase2	test/STIM_008.jpg
1241.963	1.127	correct	test	Phase2	test/STIM_008.jpg
1245.807	1.416	correct	test	Phase2	test/STIM_009.jpg
1250.403	0.869	correct	test	Phase2	test/STIM_009.jpg
1254.407	0.924	correct	test	Phase2	test/STIM_009.jpg
1258.448	1.068	correct	test	Phase2	test/STIM_010.jpg
1262.396	1.273	correct	test	Phase2	test/STIM_010.jpg
1266.557	1.031	correct	test	Phase2	test/STIM_010.jpg
1270.899	0.73	correct	test	Phase2	test/STIM_011.jpg
1275.294	1.229	correct	test	Phase2	test/STIM_011.jpg
1280.038	1.019	correct	test	Phase2	test/STIM_011.jpg
1284.817	1.333	correct	test	Phase2	test/STIM_012.jpg
1289.869	0.731	correct	test	Phase2	test/STIM_012.jpg
1293.697	1.151	correct	test	Phase2	test/STIM_012.jpg
1297.792	0.726	correct	test	Phase2	test/STIM_013.jpg
1302.228	1.217	correct	test	Phase2	test/STIM_013.jpg
1307.433	1.16	correct	test	Phase2	test/STIM_013.jpg
1311.932	1.409	correct	test	Phase2	test/STIM_014.jpg
1316.379	0.934	correct	test	Phase2	test/STIM_014.jpg
1320.494	1.134	correct	test	Phase2	test/STIM_014.jpg
1324.485	1.08	correct	test	Phase2	test/STIM_015.jpg
1329.091	0.744	correct	test	Phase2	test/STIM_015.jpg
1331.889	0.66	correct	test	Phase2	test/STIM_015.jpg
1336.147	1.344	correct	test	Phase2	test/STIM_016.jpg
1340.618	1.193	correct	test	Phase2	test/STIM_016.jpg
1345.636	0.698	correct	test	Phase2	test/STIM_016.jpg
1348.432	1.124	correct	test	Phase2	test/STIM_017.jpg
1352.173	1.305	correct	test	Phase2	test/STIM_017.jpg
1357.475	0.654	correct	test	Phase2	test/STIM_017.jpg
1360.733	0.673	correct	test	Phase2	test/STIM_018.jpg
1363.512	1.225	correct	test	Phase2	test/STIM_018.jpg
1367.243	1.296	correct	test	Phase2	test/STIM_018.jpg
1371.367	1.394	correct	test	Phase2	test/STIM_019.jpg
1375.593	1.266	correct	test	Phase2	test/STIM_019.jpg
1379.391	1.155	correct	test	Phase2	test/STIM_019.jpg
1382.818	0.705	correct	test	Phase2	test/STIM_020.jpg
1386.874	0.968	correct	test	Phase2	test/STIM_020.jpg
1390.664	1.196	correct	test	Phase2	test/STIM_020.jpg
1395.541	1.044	correct	test	Phase2	test/STIM_021.jpg
1399.413	1.148	correct	test	Phase2	test/STIM_021.jpg
1403.43	0.814	correct	test	Phase2	test/STIM_021.jpg
1407.421	1.313	correct	test	Phase2	test/STIM_022.jpg
1411.126	1.005	correct	test	Phase2	test/STIM_022.jpg
1414.474	0.697	correct	test	Phase2	test/STIM_022.jpg
1418.808	0.681	correct	test	Phase2	test/STIM_023.jpg
1422.816	0.754	correct	test	Phase2	test/STIM_023.jpg
1426.641	1.381	correct	test	Phase2	test/STIM_023.jpg
1430.997	0.959	correct	test	Phase2	test/STIM_024.jpg
1434.1	1.086	correct	test	Phase2	test/STIM_024.jpg
1439.162	1.187	correct	test	Phase2	test/STIM_024.jpg
1443.172	0.922	correct	test	Phase2	test/STIM_025.jpg
1447.574	1.279	correct	test	Phase2	test/STIM_025.jpg
1452.286	1.353	correct	test	Phase2	test/STIM_025.jpg
1457.047	1.14	correct	test	Phase2	test/STIM_026.jpg
1460.553	0.748	correct	test	Phase2	test/STIM_026.jpg
1463.62	1.094	correct	test	Phase2	test/STIM_026.jpg
1467.766	0.682	correct	test	Phase2	test/STIM_027.jpg
1470.674	0.771	correct	test	Phase2	test/STIM_027.jpg
1474.134	0.877	correct	test	Phase2	test/STIM_027.jpg
1478.282	1.152	correct	test	Phase2	test/STIM_028.jpg
1483.272	1.265	correct	test	Phase2	test/STIM_028.jpg
1487.508	1.004	correct	test	Phase2	test/STIM_028.jpg
1492.147	0.737	correct	test	Phase2	test/STIM_029.jpg
1495.74	1.012	correct	test	Phase2	test/STIM_029.jpg
1499.188	0.732	correct	test	Phase2	test/STIM_029.jpg
1502.268	0.668	correct	study	Phase3	study/STIM_000.jpg
1505.375	0.886	correct	study	Phase3	study/STIM_000.jpg
1508.446	1.038	correct	study	Phase3	study/STIM_000.jpg
1513.417	0.871	correct	study	Phase3	study/STIM_001.jpg
1517.908	0.823	correct	study	Phase3	study/STIM_001.jpg
1522.396	0.794	correct	study	Phase3	study/STIM_001.jpg
1525.232	0.776	correct	study	Phase3	study/STIM_002.jpg
1528.396	1.143	correct	study	Phase3	study/STIM_002.jpg
1533.458	0.972	correct	study	Phase3	study/STIM_002.jpg
1537.253	0.777	correct	study	Phase3	study/STIM_003.jpg
1541.329	0.96	correct	study	Phase3	study/STIM_003.jpg
1545.122	1.011	correct	study	Phase3	study/STIM_003.jpg
1549.132	0.804	correct	study	Phase3	study/STIM_004.jpg
1552.611	1.233	correct	study	Phase3	study/STIM_004.jpg
1556.508	0.682	correct	study	Phase3	study/STIM_004.jpg
1560.507	0.904	correct	study	Phase3	study/STIM_005.jpg
1564.445	0.836	correct	study	Phase3	study/STIM_005.jpg
1568.528	1.22	correct	study	Phase3	study/STIM_005.jpg
1572.083	1.122	correct	study	Phase3	study/STIM_006.jpg
1576.131	1.313	correct	study	Phase3	study/STIM_006.jpg
1580.668	0.888	correct	study	Phase3	study/STIM_006.jpg
1584.463	1.066	incorrect	study	Phase3	study/STIM_007.jpg
1588.31	1.236	correct	study	Phase3	study/STIM_007.jpg
1592.137	1.23	correct	study	Phase3	study/STIM_007.jpg
1596.191	1.288	correct	study	Phase3	study/STIM_008.jpg
1599.923	1.256	correct	study	Phase3	study/STIM_008.jpg
1603.624	0.656	correct	study	Phase3	study/STIM_008.jpg
1606.803	1.191	correct	study	Phase3	study/STIM_009.jpg
1610.905	1.056	correct	study	Phase3	study/STIM_009.jpg
1614.142	1.14	correct	study	Phase3	study/STIM_009.jpg
1617.709	1.25	correct	study	Phase3	study/STIM_010.jpg
1620.987	0.787	correct	study	Phase3	study/STIM_010.jpg
1624.779	1.013	correct	study	Phase3	study/STIM_010.jpg
1629.142	0.814	correct	study	Phase3	study/STIM_011.jpg
1632.694	1.123	correct	study	Phase3	study/STIM_011.jpg
1636.228	0.763	correct	study	Phase3	study/STIM_011.jpg
1639.406	1.074	correct	study	Phase3	study/STIM_012.jpg
1643.8	0.973	correct	study	Phase3	study/STIM_012.jpg
1648.691	0.739	correct	study	Phase3	study/STIM_012.jpg
1653.256	1.143	correct	study	Phase3	study/STIM_013.jpg
1657.03	0.633	correct	study	Phase3	study/STIM_013.jpg
1660.889	1.164	correct	study	Phase3	study/STIM_013.jpg
1665.689	1.174	correct	study	Phase3	study/STIM_014.jpg
1669.558	1.098	correct	study	Phase3	study/STIM_014.jpg
1672.886	0.677	correct	study	Phase3	study/STIM_014.jpg
1675.874	0.742	correct	study	Phase3	study/STIM_015.jpg
1679.84	1.072	correct	study	Phase3	study/STIM_015.jpg
1684.05	1.069	correct	study	Phase3	study/STIM_015.jpg
1687.565	0.774	correct	study	Phase3	study/STIM_016.jpg
1691.656	1.029	correct	study	Phase3	study/STIM_016.jpg
1695.414	0.747	correct	study	Phase3	study/STIM_016.jpg
1700.063	1.132	correct	study	Phase3	study/STIM_017.jpg
1703.7	0.618	correct	study	Phase3	study/STIM_017.jpg
1707.257	1.369	correct	study	Phase3	study/STIM_017.jpg
1711.661	1.224	correct	study	Phase3	study/STIM_018.jpg
1715.373	1.015	correct	study	Phase3	study/STIM_018.jpg
1719.291	0.747	incorrect	study	Phase3	study/STIM_018.jpg
1722.6	0.618	correct	study	Phase3	study/STIM_019.jpg
1726.59	1.136	correct	study	Phase3	study/STIM_019.jpg
1731.105	1.359	correct	study	Phase3	study/STIM_019.jpg
1735.89	0.885	correct	study	Phase3	study/STIM_020.jpg
1740.49	1.299	correct	study	Phase3	study/STIM_020.jpg
1744.385	0.712	correct	study	Phase3	study/STIM_020.jpg
1748.089	0.806	correct	study	Phase3	study/STIM_021.jpg
1751.434	1.262	correct	study	Phase3	study/STIM_021.jpg
1755.43	1.085	correct	study	Phase3	study/STIM_021.jpg
1758.671	1.256	correct	study	Phase3	study/STIM_022.jpg
1763.667	1.272	correct	study	Phase3	study/STIM_022.jpg
1768.761	1.258	correct	study	Phase3	study/STIM_022.jpg
1773.719	1.237	correct	study	Phase3	study/STIM_023.jpg
1777.38	1.305	correct	study	Phase3	study/STIM_023.jpg
1781.249	0.87	correct	study	Phase3	study/STIM_023.jpg
1785.075	0.672	correct	study	Phase3	study/STIM_024.jpg
1789.239	0.861	correct	study	Phase3	study/STIM_024.jpg
1793.633	1.183	correct	study	Phase3	study/STIM_024.jpg
1797.013	1.061	correct	study	Phase3	study/STIM_025.jpg
1800.373	0.894	correct	study	Phase3	study/STIM_025.jpg
1805.155	0.957	correct	study	Phase3	study/STIM_025.jpg
1808.627	0.788	correct	study	Phase3	study/STIM_026.jpg
1812.403	1.055	correct	study	Phase3	study/STIM_026.jpg
1817.237	1.083	correct	study	Phase3	study/STIM_026.jpg
1822.295	1.09	correct	study	Phase3	study/STIM_027.jpg
1825.957	0.794	correct	study	Phase3	study/STIM_027.jpg
1829.768	0.783	correct	study	Phase3	study/STIM_027.jpg
1832.61	1.137	correct	study	Phase3	study/STIM_028.jpg
1837.125	0.974	correct	study	Phase3	study/STIM_028.jpg
1840.769	1.36	correct	study	Phase3	study/STIM_028.jpg
1845.497	0.957	correct	study	Phase3	study/STIM_029.jpg
1850.033	1.221	correct	study	Phase3	study/STIM_029.jpg
1854.898	0.774	correct	study	Phase3	study/STIM_029.jpg
1858.107	1.02	incorrect	test	Phase3	test/STIM_000.jpg
1861.564	0.74	correct	test	Phase3	test/STIM_000.jpg
1866.272	1.112	correct	test	Phase3	test/STIM_000.jpg
1870.507	1.251	correct	test	Phase3	test/STIM_001.jpg
1874.846	0.972	correct	test	Phase3	test/STIM_001.jpg
1879.757	0.752	correct	test	Phase3	test/STIM_001.jpg
1884.095	1.061	correct	test	Phase3	test/STIM_002.jpg
1888.466	0.86	correct	test	Phase3	test/STIM_002.jpg
1893.31	1.14	correct	test	Phase3	test/STIM_002.jpg
1898.065	1.152	correct	test	Phase3	test/STIM_003.jpg
1901.791	1.14	correct	test	Phase3	test/STIM_003.jpg
1906.176	0.783	correct	test	Phase3	test/STIM_003.jpg
1909.532	1.113	correct	test	Phase3	test/STIM_004.jpg
1914.553	0.827	correct	test	Phase3	test/STIM_004.jpg
1917.453	0.958	correct	test	Phase3	test/STIM_004.jpg
1922.242	0.834	correct	test	Phase3	test/STIM_005.jpg
1925.518	0.921	correct	test	Phase3	test/STIM_005.jpg
1929.733	1.254	correct	test	Phase3	test/STIM_005.jpg
1933.502	0.828	correct	test	Phase3	test/STIM_006.jpg
1937.892	1.3	correct	test	Phase3	test/STIM_006.jpg
1941.341	1.235	correct	test	Phase3	test/STIM_006.jpg
1944.788	0.99	correct	test	Phase3	test/STIM_007.jpg
1949.41	1.172	correct	test	Phase3	test/STIM_007.jpg
1953.035	0.872	correct	test	Phase3	test/STIM_007.jpg
1956.482	1.21	correct	test	Phase3	test/STIM_008.jpg
1961.362	1.012	correct	test	Phase3	test/STIM_008.jpg
1965.199	1.195	correct	test	Phase3	test/STIM_008.jpg
1968.409	1.358	correct	test	Phase3	test/STIM_009.jpg
1973.644	0.675	correct	test	Phase3	test/STIM_009.jpg
1977.389	1.04	correct	test	Phase3	test/STIM_009.jpg
1980.906	1.247	correct	test	Phase3	test/STIM_010.jpg
1985.211	0.924	correct	test	Phase3	test/STIM_010.jpg
1989.499	0.866	correct	test	Phase3	test/STIM_010.jpg
1993.697	1.024	correct	test	Phase3	test/STIM_011.jpg
1996.943	1.187	correct	test	Phase3	test/STIM_011.jpg
2001.863	0.891	correct	test	Phase3	test/STIM_011.jpg
2006.274	1.054	correct	test	Phase3	test/STIM_012.jpg
2010.14	0.67	correct	test	Phase3	test/STIM_012.jpg
2013.542	1.199	correct	test	Phase3	test/STIM_012.jpg
2018.043	1.259	correct	test	Phase3	test/STIM_013.jpg
2022.139	0.951	correct	test	Phase3	test/STIM_013.jpg
2026.649	1.235	correct	test	Phase3	test/STIM_013.jpg
2031.609	1.103	correct	test	Phase3	test/STIM_014.jpg
2034.748	0.946	correct	test	Phase3	test/STIM_014.jpg
2037.873	1.004	correct	test	Phase3	test/STIM_014.jpg
2042.311	1.071	correct	test	Phase3	test/STIM_015.jpg
2045.469	1.384	correct	test	Phase3	test/STIM_015.jpg
2050.218	0.73	correct	test	Phase3	test/STIM_015.jpg
2053.316	1.05	correct	test	Phase3	test/STIM_016.jpg
2057.758	1.07	correct	test	Phase3	test/STIM_016.jpg
2062.316	0.798	correct	test	Phase3	test/STIM_016.jpg
2065.824	0.912	correct	test	Phase3	test/STIM_017.jpg
2070.711	1.121	correct	test	Phase3	test/STIM_017.jpg
2074.025	1.187	correct	test	Phase3	test/STIM_017.jpg
2079.189	1.379	correct	test	Phase3	test/STIM_018.jpg
2084.511	0.734	correct	test	Phase3	test/STIM_018.jpg
2087.752	0.709	correct	test	Phase3	test/STIM_018.jpg
2090.58	1.308	correct	test	Phase3	test/STIM_019.jpg
2094.64	0.668	correct	test	Phase3	test/STIM_019.jpg
2097.716	1.031	correct	test	Phase3	test/STIM_019.jpg
2101.917	1.243	correct	test	Phase3	test/STIM_020.jpg
2105.481	1.264	correct	test	Phase3	test/STIM_020.jpg
2109.319	1.237	correct	test	Phase3	test/STIM_020.jpg
2114.386	0.759	correct	test	Phase3	test/STIM_021.jpg
2117.33	1.387	correct	test	Phase3	test/STIM_021.jpg
2121.112	1.332	correct	test	Phase3	test/STIM_021.jpg
2125.84	0.746	correct	test	Phase3	test/STIM_022.jpg
2130.219	1.091	correct	test	Phase3	test/STIM_022.jpg
2133.654	1.313	correct	test	Phase3	test/STIM_022.jpg
2138.378	0.938	correct	test	Phase3	test/STIM_023.jpg
2143.271	0.906	correct	test	Phase3	test/STIM_023.jpg
2146.522	0.747	correct	test	Phase3	test/STIM_023.jpg
2150.957	1.164	correct	test	Phase3	test/STIM_024.jpg
2154.602	1.349	correct	test	Phase3	test/STIM_024.jpg
2159.588	0.872	correct	test	Phase3	test/STIM_024.jpg
2164.289	0.687	correct	test	Phase3	test/STIM_025.jpg
2167.315	0.818	correct	test	Phase3	test/STIM_025.jpg
2171.286	0.902	correct	test	Phase3	test/STIM_025.jpg
2174.53	0.671	correct	test	Phase3	test/STIM_026.jpg
2178.236	1.18	correct	test	Phase3	test/STIM_026.jpg
2183.211	1.004	correct	test	Phase3	test/STIM_026.jpg
2187.476	1.169	correct	test	Phase3	test/STIM_027.jpg
2192.024	0.901	correct	test	Phase3	test/STIM_027.jpg
2196.254	0.841	correct	test	Phase3	test/STIM_027.jpg
2200.078	1.018	correct	test	Phase3	test/STIM_028.jpg
2203.155	1.409	correct	test	Phase3	test/STIM_028.jpg
2207.415	0.8	correct	test	Phase3	test/STIM_028.jpg
2211.559	0.896	correct	test	Phase3	test/STIM_029.jpg
2215.215	1.106	correct	test	Phase3	test/STIM_029.jpg
2219.611	1.312	correct	test	Phase3	test/STIM_029.jpg
