onset	duration	response_time_ms	trial_type	learning_stage	stimulus	response_port
0.0	1.078	1077.9	study	Phase1	study/STIM_000.jpg	99
4.969	1.123	1123.4	study	Phase1	study/STIM_000.jpg	100
10.078	1.081	1081.2	study	Phase1	study/STIM_000.jpg	99
13.622	1.472	1471.5	study	Phase1	study/STIM_001.jpg	99
19.017	1.276	1276.4	study	Phase1	study/STIM_001.jpg	99
24.183	1.755	1755.0	study	Phase1	study/STIM_001.jpg	100
29.607	1.288	1288.4	study	Phase1	study/STIM_002.jpg	99
33.645	1.244	1243.6	study	Phase1	study/STIM_002.jpg	100
38.034	1.321	1321.0	study	Phase1	study/STIM_002.jpg	100
42.439	1.932	1932.5	study	Phase1	study/STIM_003.jpg	100
47.333	1.777	1776.8	study	Phase1	study/STIM_003.jpg	99
51.38	1.322	1321.8	study	Phase1	study/STIM_003.jpg	99
56.237	1.926	1926.0	study	Phase1	study/STIM_004.jpg	100
61.033	1.265	1264.7	study	Phase1	study/STIM_004.jpg	99
65.886	1.391	1390.6	study	Phase1	study/STIM_004.jpg	100
70.954	1.076	1075.8	study	Phase1	study/STIM_005.jpg	99
74.783	1.467	1466.6	study	Phase1	study/STIM_005.jpg	99
78.939	1.572	1571.7	study	Phase1	study/STIM_005.jpg	99
84.32	1.499	1498.7	study	Phase1	study/STIM_006.jpg	100
89.784	1.298	1298.3	study	Phase1	study/STIM_006.jpg	99
94.752	1.002	1002.0	study	Phase1	study/STIM_006.jpg	100
98.938	1.663	1662.6	study	Phase1	study/STIM_007.jpg	99
104.133	1.15	1150.1	study	Phase1	study/STIM_007.jpg	99
108.301	1.054	1054.1	study	Phase1	study/STIM_007.jpg	99
112.885	1.946	1946.2	study	Phase1	study/STIM_008.jpg	100
118.13	1.462	1461.5	study	Phase1	study/STIM_008.jpg	99
121.668	1.071	1070.9	study	Phase1	study/STIM_008.jpg	100
125.587	1.919	1918.9	study	Phase1	study/STIM_009.jpg	100
131.5	1.551	1550.6	study	Phase1	study/STIM_009.jpg	99
135.845	1.674	1674.4	study	Phase1	study/STIM_009.jpg	100
140.881	0.975	975.2	study	Phase1	study/STIM_010.jpg	99
145.614	1.013	1012.9	study	Phase1	study/STIM_010.jpg	100
148.678	1.693	1693.2	study	Phase1	study/STIM_010.jpg	100
153.08	0.989	988.6	study	Phase1	study/STIM_011.jpg	99
156.128	1.328	1327.9	study	Phase1	study/STIM_011.jpg	100
160.402	0.803	802.6	study	Phase1	study/STIM_011.jpg	99
163.237	1.547	1546.7	study	Phase1	study/STIM_012.jpg	100
167.25	1.498	1497.8	study	Phase1	study/STIM_012.jpg	99
171.302	1.601	1600.8	study	Phase1	study/STIM_012.jpg	99
174.971	1.281	1280.8	study	Phase1	study/STIM_013.jpg	100
179.715	1.126	1125.6	study	Phase1	study/STIM_013.jpg	99
184.21	1.15	1150.4	study	Phase1	study/STIM_013.jpg	100
187.723	1.403	1403.3	study	Phase1	study/STIM_014.jpg	100
192.662	1.58	1580.2	study	Phase1	study/STIM_014.jpg	99
197.432	0.805	804.9	study	Phase1	study/STIM_014.jpg	100
201.765	1.307	1307.3	study	Phase1	study/STIM_015.jpg	100
207.024	1.457	1457.0	study	Phase1	study/STIM_015.jpg	100
211.241	0.794	794.0	study	Phase1	study/STIM_015.jpg	100
215.678	1.558	1558.5	study	Phase1	study/STIM_016.jpg	100
220.836	1.709	1709.4	study	Phase1	study/STIM_016.jpg	100
226.288	1.426	1426.3	study	Phase1	study/STIM_016.jpg	100
231.689	1.908	1907.5	study	Phase1	study/STIM_017.jpg	99
237.283	1.099	1099.1	study	Phase1	study/STIM_017.jpg	100
240.75	1.295	1294.9	study	Phase1	study/STIM_017.jpg	100
244.471	1.605	1605.2	study	Phase1	study/STIM_018.jpg	99
248.199	1.227	1226.8	study	Phase1	study/STIM_018.jpg	100
252.065	1.038	1037.7	study	Phase1	study/STIM_018.jpg	99
255.43	1.312	1311.6	study	Phase1	study/STIM_019.jpg	100
259.19	1.537	1537.0	study	Phase1	study/STIM_019.jpg	99
263.435	1.1	1099.7	study	Phase1	study/STIM_019.jpg	100
267.391	1.624	1624.4	study	Phase1	study/STIM_020.jpg	100
271.297	1.801	1801.1	study	Phase1	study/STIM_020.jpg	99
275.188	1.079	1079.4	study	Phase1	study/STIM_020.jpg	99
278.453	1.548	1547.6	study	Phase1	study/STIM_021.jpg	100
283.259	0.835	835.3	study	Phase1	study/STIM_021.jpg	100
286.435	1.431	1431.4	study	Phase1	study/STIM_021.jpg	100
290.21	0.994	993.7	study	Phase1	study/STIM_022.jpg	99
293.697	1.002	1002.5	study	Phase1	study/STIM_022.jpg	100
297.541	1.312	1312.2	study	Phase1	study/STIM_022.jpg	100
302.576	1.058	1057.8	study	Phase1	study/STIM_023.jpg	99
305.777	0.97	969.9	study	Phase1	study/STIM_023.jpg	99
310.133	1.449	1448.7	study	Phase1	study/STIM_023.jpg	99
315.486	1.425	1424.7	study	Phase1	study/STIM_024.jpg	100
319.406	0.931	930.7	study	Phase1	study/STIM_024.jpg	100
322.967	1.299	1298.7	study	Phase1	study/STIM_024.jpg	99
327.942	1.961	1961.4	study	Phase1	study/STIM_025.jpg	100
333.588	1.732	1732.2	study	Phase1	study/STIM_025.jpg	100
338.005	1.526	1526.3	study	Phase1	study/STIM_025.jpg	100
342.781	1.64	1640.1	study	Phase1	study/STIM_026.jpg	100
346.836	1.707	1707.1	study	Phase1	study/STIM_026.jpg	99
350.975	1.317	1316.9	study	Phase1	study/STIM_026.jpg	99
356.227	1.687	1687.4	study	Phase1	study/STIM_027.jpg	100
360.183	0.907	907.3	study	Phase1	study/STIM_027.jpg	100
363.857	1.117	1116.7	study	Phase1	study/STIM_027.jpg	100
368.738	1.543	1542.6	study	Phase1	study/STIM_028.jpg	100
373.024	1.253	1253.1	study	Phase1	study/STIM_028.jpg	100
377.153	1.383	1383.4	study	Phase1	study/STIM_028.jpg	100
382.213	1.853	1852.9	study	Phase1	study/STIM_029.jpg	99
386.545	1.807	1806.9	study	Phase1	study/STIM_029.jpg	99
391.632	1.516	1515.9	study	Phase1	study/STIM_029.jpg	100
395.284	0.771	770.7	test	Phase1	test/STIM_000.jpg	99
398.896	0.774	774.0	test	Phase1	test/STIM_000.jpg	99
402.826	0.935	934.9	test	Phase1	test/STIM_000.jpg	99
406.943	0.743	742.8	test	Phase1	test/STIM_001.jpg	99
411.291	1.069	1068.9	test	Phase1	test/STIM_001.jpg	99
415.934	0.889	888.8	test	Phase1	test/STIM_001.jpg	99
419.764	1.358	1357.8	test	Phase1	test/STIM_002.jpg	99
424.933	0.695	694.9	test	Phase1	test/STIM_002.jpg	99
429.025	0.799	799.3	test	Phase1	test/STIM_002.jpg	100
432.097	0.907	907.4	test	Phase1	test/STIM_003.jpg	99
436.477	1.19	1189.5	test	Phase1	test/STIM_003.jpg	99
441.115	1.184	1184.0	test	Phase1	test/STIM_003.jpg	100
446.065	0.88	879.9	test	Phase1	test/STIM_004.jpg	99
450.427	0.828	828.4	test	Phase1	test/STIM_004.jpg	100
454.325	0.883	882.9	test	Phase1	test/STIM_004.jpg	99
457.833	1.389	1388.8	test	Phase1	test/STIM_005.jpg	99
462.555	0.741	740.6	test	Phase1	test/STIM_005.jpg	100
466.327	1.304	1303.5	test	Phase1	test/STIM_005.jpg	100
469.839	0.711	710.7	test	Phase1	test/STIM_006.jpg	100
474.319	0.686	686.2	test	Phase1	test/STIM_006.jpg	100
478.392	1.284	1284.0	test	Phase1	test/STIM_006.jpg	99
483.246	0.753	753.0	test	Phase1	test/STIM_007.jpg	99
487.969	1.408	1408.4	test	Phase1	test/STIM_007.jpg	99
492.795	1.38	1379.7	test	Phase1	test/STIM_007.jpg	99
496.449	1.164	1164.3	test	Phase1	test/STIM_008.jpg	99
501.008	1.267	1266.8	test	Phase1	test/STIM_008.jpg	100
504.467	0.783	782.8	test	Phase1	test/STIM_008.jpg	100
508.236	0.663	663.1	test	Phase1	test/STIM_009.jpg	99
511.895	1.292	1291.9	test	Phase1	test/STIM_009.jpg	100
515.39	1.124	1123.6	test	Phase1	test/STIM_009.jpg	100
518.583	1.296	1296.1	test	Phase1	test/STIM_010.jpg	99
522.667	0.938	938.3	test	Phase1	test/STIM_010.jpg	100
526.615	0.995	995.1	test	Phase1	test/STIM_010.jpg	99
529.707	0.72	719.9	test	Phase1	test/STIM_011.jpg	99
533.803	1.055	1054.9	test	Phase1	test/STIM_011.jpg	100
537.855	0.823	823.2	test	Phase1	test/STIM_011.jpg	99
541.267	1.368	1367.8	test	Phase1	test/STIM_012.jpg	100
544.97	1.03	1030.3	test	Phase1	test/STIM_012.jpg	100
548.073	1.032	1032.3	test	Phase1	test/STIM_012.jpg	100
551.124	0.88	879.8	test	Phase1	test/STIM_013.jpg	100
554.793	0.757	757.3	test	Phase1	test/STIM_013.jpg	99
558.971	1.169	1169.3	test	Phase1	test/STIM_013.jpg	100
562.415	1.035	1035.0	test	Phase1	test/STIM_014.jpg	99
566.388	0.803	803.2	test	Phase1	test/STIM_014.jpg	100
571.079	1.221	1220.8	test	Phase1	test/STIM_014.jpg	99
574.89	1.337	1336.9	test	Phase1	test/STIM_015.jpg	100
579.297	1.198	1198.3	test	Phase1	test/STIM_015.jpg	100
582.575	0.828	827.7	test	Phase1	test/STIM_015.jpg	99
586.449	1.276	1276.0	test	Phase1	test/STIM_016.jpg	100
591.613	1.348	1347.5	test	Phase1	test/STIM_016.jpg	99
595.597	1.113	1112.9	test	Phase1	test/STIM_016.jpg	99
599.706	1.281	1281.3	test	Phase1	test/STIM_017.jpg	100
603.656	1.178	1177.6	test	Phase1	test/STIM_017.jpg	100
607.714	1.389	1389.2	test	Phase1	test/STIM_017.jpg	99
613.001	1.205	1205.1	test	Phase1	test/STIM_018.jpg	99
617.39	0.762	762.4	test	Phase1	test/STIM_018.jpg	99
620.657	1.416	1415.8	test	Phase1	test/STIM_018.jpg	100
624.535	1.13	1129.9	test	Phase1	test/STIM_019.jpg	100
627.707	0.753	752.7	test	Phase1	test/STIM_019.jpg	100
631.427	0.765	765.3	test	Phase1	test/STIM_019.jpg	100
634.699	0.824	824.5	test	Phase1	test/STIM_020.jpg	100
638.248	0.689	689.3	test	Phase1	test/STIM_020.jpg	100
642.527	0.848	848.0	test	Phase1	test/STIM_020.jpg	99
647.099	0.927	926.6	test	Phase1	test/STIM_021.jpg	100
651.095	0.96	960.1	test	Phase1	test/STIM_021.jpg	100
655.002	0.67	670.1	test	Phase1	test/STIM_021.jpg	100
657.899	1.008	1008.0	test	Phase1	test/STIM_022.jpg	99
662.318	0.967	967.3	test	Phase1	test/STIM_022.jpg	99
665.548	1.152	1152.4	test	Phase1	test/STIM_022.jpg	99
670.479	1.096	1096.1	test	Phase1	test/STIM_023.jpg	100
673.902	0.918	917.6	test	Phase1	test/STIM_023.jpg	99
677.212	1.381	1380.6	test	Phase1	test/STIM_023.jpg	99
680.658	1.083	1082.7	test	Phase1	test/STIM_024.jpg	99
684.232	1.054	1053.6	test	Phase1	test/STIM_024.jpg	100
687.679	1.123	1122.9	test	Phase1	test/STIM_024.jpg	99
691.532	1.075	1075.3	test	Phase1	test/STIM_025.jpg	99
696.361	1.314	1313.5	test	Phase1	test/STIM_025.jpg	100
701.475	0.77	769.5	test	Phase1	test/STIM_025.jpg	100
705.55	0.948	948.3	test	Phase1	test/STIM_026.jpg	100
709.804	0.694	694.2	test	Phase1	test/STIM_026.jpg	99
713.42	0.857	857.3	test	Phase1	test/STIM_026.jpg	100
716.45	1.266	1265.6	test	Phase1	test/STIM_027.jpg	100
720.02	0.844	844.1	test	Phase1	test/STIM_027.jpg	99
724.773	0.882	882.5	test	Phase1	test/STIM_027.jpg	99
728.668	1.384	1383.7	test	Phase1	test/STIM_028.jpg	100
733.999	0.99	990.4	test	Phase1	test/STIM_028.jpg	100
737.906	1.058	1058.3	test	Phase1	test/STIM_028.jpg	99
742.41	1.127	1126.6	test	Phase1	test/STIM_029.jpg	99
747.121	1.377	1377.3	test	Phase1	test/STIM_029.jpg	99
751.675	1.315	1314.6	test	Phase1	test/STIM_029.jpg	100
756.591	1.57	1570.3	study	Phase2	study/STIM_000.jpg	100
761.595	1.539	1538.7	study	Phase2	study/STIM_000.jpg	99
766.765	0.725	724.6	study	Phase2	study/STIM_000.jpg	99
770.603	1.398	1398.4	study	Phase2	study/STIM_001.jpg	100
774.188	0.969	968.8	study	Phase2	study/STIM_001.jpg	99
778.911	1.4	1400.1	study	Phase2	study/STIM_001.jpg	99
783.056	1.118	1117.9	study	Phase2	study/STIM_002.jpg	99
787.507	1.01	1009.9	study	Phase2	study/STIM_002.jpg	99
791.395	0.837	837.2	study	Phase2	study/STIM_002.jpg	99
795.174	0.932	931.9	study	Phase2	study/STIM_003.jpg	100
798.661	1.224	1223.9	study	Phase2	study/STIM_003.jpg	99
802.979	1.183	1182.7	study	Phase2	study/STIM_003.jpg	99
806.91	0.895	895.4	study	Phase2	study/STIM_004.jpg	100
810.611	1.26	1259.9	study	Phase2	study/STIM_004.jpg	100
815.578	0.716	716.1	study	Phase2	study/STIM_004.jpg	100
820.193	1.658	1658.3	study	Phase2	study/STIM_005.jpg	99
824.135	1.313	1313.2	study	Phase2	study/STIM_005.jpg	99
829.242	0.913	912.7	study	Phase2	study/STIM_005.jpg	100
833.99	0.753	753.4	study	Phase2	study/STIM_006.jpg	100
837.588	1.308	1308.5	study	Phase2	study/STIM_006.jpg	100
842.235	1.373	1373.3	study	Phase2	study/STIM_006.jpg	100
846.652	1.413	1413.2	study	Phase2	study/STIM_007.jpg	99
850.962	0.712	712.4	study	Phase2	study/STIM_007.jpg	99
853.913	0.934	934.5	study	Phase2	study/STIM_007.jpg	100
857.699	0.907	906.6	study	Phase2	study/STIM_008.jpg	99
862.349	1.037	1037.3	study	Phase2	study/STIM_008.jpg	100
867.293	1.092	1091.7	study	Phase2	study/STIM_008.jpg	99
870.669	1.54	1539.9	study	Phase2	study/STIM_009.jpg	99
874.254	1.545	1545.2	study	Phase2	study/STIM_009.jpg	100
878.566	1.434	1433.8	study	Phase2	study/STIM_009.jpg	100
883.36	0.919	918.9	study	Phase2	study/STIM_010.jpg	99
887.838	1.026	1026.5	study	Phase2	study/STIM_010.jpg	99
891.693	0.84	840.4	study	Phase2	study/STIM_010.jpg	99
894.922	1.521	1521.4	study	Phase2	study/STIM_011.jpg	99
899.229	0.957	957.4	study	Phase2	study/STIM_011.jpg	100
902.389	1.045	1044.7	study	Phase2	study/STIM_011.jpg	99
907.202	0.809	809.1	study	Phase2	study/STIM_012.jpg	99
910.347	0.775	774.8	study	Phase2	study/STIM_012.jpg	100
913.327	1.08	1079.8	study	Phase2	study/STIM_012.jpg	100
916.475	1.168	1168.3	study	Phase2	study/STIM_013.jpg	100
920.323	0.987	986.9	study	Phase2	study/STIM_013.jpg	100
923.347	1.287	1287.3	study	Phase2	study/STIM_013.jpg	100
927.401	1.13	1130.3	study	Phase2	study/STIM_014.jpg	99
930.719	0.797	797.2	study	Phase2	study/STIM_014.jpg	100
935.16	0.764	764.0	study	Phase2	study/STIM_014.jpg	100
938.501	1.56	1559.6	study	Phase2	study/STIM_015.jpg	99
942.404	1.557	1557.1	study	Phase2	study/STIM_015.jpg	100
947.097	1.119	1119.3	study	Phase2	study/STIM_015.jpg	100
952.119	1.523	1522.9	study	Phase2	study/STIM_016.jpg	100
957.59	1.096	1096.1	study	Phase2	study/STIM_016.jpg	100
962.217	0.965	965.2	study	Phase2	study/STIM_016.jpg	100
966.149	1.599	1598.7	study	Phase2	study/STIM_017.jpg	99
971.445	1.062	1062.2	study	Phase2	study/STIM_017.jpg	99
976.204	1.446	1446.5	study	Phase2	study/STIM_017.jpg	99
980.257	1.103	1102.9	study	Phase2	study/STIM_018.jpg	99
983.381	0.893	892.8	study	Phase2	study/STIM_018.jpg	99
987.085	0.924	923.9	study	Phase2	study/STIM_018.jpg	100
991.844	1.619	1619.3	study	Phase2	study/STIM_019.jpg	100
997.288	1.34	1340.1	study	Phase2	study/STIM_019.jpg	100
1001.849	0.676	675.5	study	Phase2	study/STIM_019.jpg	100
1005.991	1.472	1472.4	study	Phase2	study/STIM_020.jpg	100
1010.72	0.854	853.5	study	Phase2	study/STIM_020.jpg	100
1014.924	0.732	731.8	study	Phase2	study/STIM_020.jpg	100
1018.982	1.183	1182.7	study	Phase2	study/STIM_021.jpg	100
1022.727	1.271	1271.2	study	Phase2	study/STIM_021.jpg	99
1027.085	1.437	1436.8	study	Phase2	study/STIM_021.jpg	100
1030.622	1.657	1657.1	study	Phase2	study/STIM_022.jpg	100
1035.715	1.162	1161.8	study	Phase2	study/STIM_022.jpg	100
1039.232	0.799	799.2	study	Phase2	study/STIM_022.jpg	100
1043.777	1.172	1172.0	study	Phase2	study/STIM_023.jpg	100
1048.717	1.122	1122.2	study	Phase2	study/STIM_023.jpg	99
1052.654	0.952	952.3	study	Phase2	study/STIM_023.jpg	99
1056.815	1.173	1173.2	study	Phase2	study/STIM_024.jpg	99
1060.624	1.202	1201.8	study	Phase2	study/STIM_024.jpg	99
1065.332	0.737	737.4	study	Phase2	study/STIM_024.jpg	99
1069.672	0.911	910.8	study	Phase2	study/STIM_025.jpg	99
1074.524	1.153	1153.4	study	Phase2	study/STIM_025.jpg	99
1078.318	1.327	1327.0	study	Phase2	study/STIM_025.jpg	100
1083.092	1.461	1461.3	study	Phase2	study/STIM_026.jpg	99
1088.12	0.974	973.8	study	Phase2	study/STIM_026.jpg	99
1092.467	0.791	791.3	study	Phase2	study/STIM_026.jpg	99
1096.562	1.348	1348.2	study	Phase2	study/STIM_027.jpg	99
1101.502	1.118	1117.8	study	Phase2	study/STIM_027.jpg	99
1106.092	0.911	911.2	study	Phase2	study/STIM_027.jpg	99
1110.338	1.57	1569.7	study	Phase2	study/STIM_028.jpg	99
1114.937	0.801	801.1	study	Phase2	study/STIM_028.jpg	99
1119.11	0.718	717.5	study	Phase2	study/STIM_028.jpg	100
1123.629	1.639	1639.1	study	Phase2	study/STIM_029.jpg	99
1128.766	1.505	1505.2	study	Phase2	study/STIM_029.jpg	100
1133.099	1.406	1405.5	study	Phase2	study/STIM_029.jpg	100
1138.372	1.056	1056.1	test	Phase2	test/STIM_000.jpg	100
1142.328	0.903	902.8	test	Phase2	test/STIM_000.jpg	99
1146.314	1.023	1022.9	test	Phase2	test/STIM_000.jpg	99
1149.513	1.266	1266.0	test	Phase2	test/STIM_001.jpg	99
1154.421	1.283	1283.0	test	Phase2	test/STIM_001.jpg	100
1157.713	1.349	1349.1	test	Phase2	test/STIM_001.jpg	100
1161.276	1.189	1189.3	test	Phase2	test/STIM_002.jpg	100
1164.521	1.055	1055.1	test	Phase2	test/STIM_002.jpg	100
1169.505	1.336	1335.8	test	Phase2	test/STIM_002.jpg	100
1172.968	0.902	901.7	test	Phase2	test/STIM_003.jpg	99
1176.832	0.783	782.8	test	Phase2	test/STIM_003.jpg	100
1180.486	1.377	1376.6	test	Phase2	test/STIM_003.jpg	100
1184.994	1.146	1145.5	test	Phase2	test/STIM_004.jpg	100
1188.586	1.341	1341.1	test	Phase2	test/STIM_004.jpg	99
1192.306	1.089	1088.9	test	Phase2	test/STIM_004.jpg	99
1196.085	0.796	795.7	test	Phase2	test/STIM_005.jpg	99
1199.803	0.972	972.2	test	Phase2	test/STIM_005.jpg	100
1204.559	1.299	1299.1	test	Phase2	test/STIM_005.jpg	100
1207.919	0.995	994.7	test	Phase2	test/STIM_006.jpg	100
1211.199	0.954	953.8	test	Phase2	test/STIM_006.jpg	100
1216.068	0.69	690.2	test	Phase2	test/STIM_006.jpg	100
1219.083	1.179	1179.4	test	Phase2	test/STIM_007.jpg	99
1223.357	1.244	1243.7	test	Phase2	test/STIM_007.jpg	100
1227.997	0.73	729.8	test	Phase2	test/STIM_007.jpg	100
1232.19	0.818	818.2	test	Phase2	test/STIM_008.jpg	99
1236.962	1.279	1279.4	test	Phase2	test/STIM_008.jpg	100
1241.963	1.127	1126.6	test	Phase2	test/STIM_008.jpg	99
1245.807	1.416	1415.7	test	Phase2	test/STIM_009.jpg	100
1250.403	0.869	869.1	test	Phase2	test/STIM_009.jpg	100
1254.407	0.924	923.5	test	Phase2	test/STIM_009.jpg	100
1258.448	1.068	1067.6	test	Phase2	test/STIM_010.jpg	99
1262.396	1.273	1273.4	test	Phase2	test/STIM_010.jpg	100
1266.557	1.031	1030.7	test	Phase2	test/STIM_010.jpg	99
1270.899	0.73	730.4	test	Phase2	test/STIM_011.jpg	100
1275.294	1.229	1228.9	test	Phase2	test/STIM_011.jpg	99
1280.038	1.019	1019.2	test	Phase2	test/STIM_011.jpg	99
1284.817	1.333	1333.3	test	Phase2	test/STIM_012.jpg	100
1289.869	0.731	731.3	test	Phase2	test/STIM_012.jpg	100
1293.697	1.151	1151.2	test	Phase2	test/STIM_012.jpg	99
1297.792	0.726	725.9	test	Phase2	test/STIM_013.jpg	99
1302.228	1.217	1216.7	test	Phase2	test/STIM_013.jpg	99
1307.433	1.16	1159.7	test	Phase2	test/STIM_013.jpg	99
1311.932	1.409	1408.8	test	Phase2	test/STIM_014.jpg	99
1316.379	0.934	933.8	test	Phase2	test/STIM_014.jpg	100
1320.494	1.134	1134.1	test	Phase2	test/STIM_014.jpg	100
1324.485	1.08	1079.7	test	Phase2	test/STIM_015.jpg	100
1329.091	0.744	744.5	test	Phase2	test/STIM_015.jpg	99
1331.889	0.66	660.0	test	Phase2	test/STIM_015.jpg	100
1336.147	1.344	1344.2	test	Phase2	test/STIM_016.jpg	100
1340.618	1.193	1192.6	test	Phase2	test/STIM_016.jpg	100
1345.636	0.698	697.6	test	Phase2	test/STIM_016.jpg	100
1348.432	1.124	1124.3	test	Phase2	test/STIM_017.jpg	100
1352.173	1.305	1305.3	test	Phase2	test/STIM_017.jpg	100
1357.475	0.654	654.2	test	Phase2	test/STIM_017.jpg	100
1360.733	0.673	673.4	test	Phase2	test/STIM_018.jpg	99
1363.512	1.225	1225.3	test	Phase2	test/STIM_018.jpg	99
1367.243	1.296	1295.7	test	Phase2	test/STIM_018.jpg	100
1371.367	1.394	1393.9	test	Phase2	test/STIM_019.jpg	100
1375.593	1.266	1266.4	test	Phase2	test/STIM_019.jpg	100
1379.391	1.155	1154.8	test	Phase2	test/STIM_019.jpg	100
1382.818	0.705	705.0	test	Phase2	test/STIM_020.jpg	99
1386.874	0.968	968.1	test	Phase2	test/STIM_020.jpg	99
1390.664	1.196	1195.8	test	Phase2	test/STIM_020.jpg	100
1395.541	1.044	1043.9	test	Phase2	test/STIM_021.jpg	100
1399.413	1.148	1147.7	test	Phase2	test/STIM_021.jpg	99
1403.43	0.814	813.8	test	Phase2	test/STIM_021.jpg	100
1407.421	1.313	1313.4	test	Phase2	test/STIM_022.jpg	99
1411.126	1.005	1005.0	test	Phase2	test/STIM_022.jpg	100
1414.474	0.697	697.2	test	Phase2	test/STIM_022.jpg	99
1418.808	0.681	680.8	test	Phase2	test/STIM_023.jpg	99
1422.816	0.754	753.7	test	Phase2	test/STIM_023.jpg	99
1426.641	1.381	1381.2	test	Phase2	test/STIM_023.jpg	99
1430.997	0.959	959.0	test	Phase2	test/STIM_024.jpg	100
1434.1	1.086	1085.8	test	Phase2	test/STIM_024.jpg	99
1439.162	1.187	1187.0	test	Phase2	test/STIM_024.jpg	99
1443.172	0.922	922.2	test	Phase2	test/STIM_025.jpg	100
1447.574	1.279	1279.1	test	Phase2	test/STIM_025.jpg	99
1452.286	1.353	1352.9	test	Phase2	test/STIM_025.jpg	100
1457.047	1.14	1139.8	test	Phase2	test/STIM_026.jpg	99
1460.553	0.748	748.2	test	Phase2	test/STIM_026.jpg	99
1463.62	1.094	1094.1	test	Phase2	test/STIM_026.jpg	99
1467.766	0.682	681.7	test	Phase2	test/STIM_027.jpg	100
1470.674	0.771	771.1	test	Phase2	test/STIM_027.jpg	99
1474.134	0.877	876.7	test	Phase2	test/STIM_027.jpg	100
1478.282	1.152	1151.5	test	Phase2	test/STIM_028.jpg	99
1483.272	1.265	1264.6	test	Phase2	test/STIM_028.jpg	99
1487.508	1.004	1003.6	test	Phase2	test/STIM_028.jpg	100
1492.147	0.737	737.3	test	Phase2	test/STIM_029.jpg	99
1495.74	1.012	1011.5	test	Phase2	test/STIM_029.jpg	99
1499.188	0.732	732.4	test	Phase2	test/STIM_029.jpg	99
1502.268	0.668	667.5	study	Phase3	study/STIM_000.jpg	99
1505.375	0.886	885.9	study	Phase3	study/STIM_000.jpg	99
1508.446	1.038	1037.8	study	Phase3	study/STIM_000.jpg	99
1513.417	0.871	870.7	study	Phase3	study/STIM_001.jpg	100
1517.908	0.823	823.3	study	Phase3	study/STIM_001.jpg	100
1522.396	0.794	794.4	study	Phase3	study/STIM_001.jpg	99
1525.232	0.776	775.9	study	Phase3	study/STIM_002.jpg	99
1528.396	1.143	1143.0	study	Phase3	study/STIM_002.jpg	99
1533.458	0.972	972.1	study	Phase3	study/STIM_002.jpg	100
1537.253	0.777	776.7	study	Phase3	study/STIM_003.jpg	100
1541.329	0.96	959.7	study	Phase3	study/STIM_003.jpg	100
1545.122	1.011	1010.7	study	Phase3	study/STIM_003.jpg	100
1549.132	0.804	803.5	study	Phase3	study/STIM_004.jpg	100
1552.611	1.233	1233.0	study	Phase3	study/STIM_004.jpg	100
1556.508	0.682	682.3	study	Phase3	study/STIM_004.jpg	99
1560.507	0.904	904.3	study	Phase3	study/STIM_005.jpg	99
1564.445	0.836	835.7	study	Phase3	study/STIM_005.jpg	99
1568.528	1.22	1220.4	study	Phase3	study/STIM_005.jpg	100
1572.083	1.122	1121.7	study	Phase3	study/STIM_006.jpg	99
1576.131	1.313	1313.4	study	Phase3	study/STIM_006.jpg	99
1580.668	0.888	887.6	study	Phase3	study/STIM_006.jpg	100
1584.463	1.066	1065.8	study	Phase3	study/STIM_007.jpg	99
1588.31	1.236	1236.2	study	Phase3	study/STIM_007.jpg	100
1592.137	1.23	1229.6	study	Phase3	study/STIM_007.jpg	100
1596.191	1.288	1288.4	study	Phase3	study/STIM_008.jpg	99
1599.923	1.256	1255.9	study	Phase3	study/STIM_008.jpg	99
1603.624	0.656	655.6	study	Phase3	study/STIM_008.jpg	100
1606.803	1.191	1191.3	study	Phase3	study/STIM_009.jpg	100
1610.905	1.056	1056.0	study	Phase3	study/STIM_009.jpg	100
1614.142	1.14	1140.3	study	Phase3	study/STIM_009.jpg	100
1617.709	1.25	1249.5	study	Phase3	study/STIM_010.jpg	100
1620.987	0.787	787.0	study	Phase3	study/STIM_010.jpg	100
1624.779	1.013	1013.1	study	Phase3	study/STIM_010.jpg	99
1629.142	0.814	813.6	study	Phase3	study/STIM_011.jpg	100
1632.694	1.123	1123.0	study	Phase3	study/STIM_011.jpg	100
1636.228	0.763	763.3	study	Phase3	study/STIM_011.jpg	99
1639.406	1.074	1073.5	study	Phase3	study/STIM_012.jpg	100
1643.8	0.973	972.9	study	Phase3	study/STIM_012.jpg	99
1648.691	0.739	738.6	study	Phase3	study/STIM_012.jpg	100
1653.256	1.143	1142.7	study	Phase3	study/STIM_013.jpg	100
1657.03	0.633	633.4	study	Phase3	study/STIM_013.jpg	100
1660.889	1.164	1163.8	study	Phase3	study/STIM_013.jpg	100
1665.689	1.174	1173.9	study	Phase3	study/STIM_014.jpg	99
1669.558	1.098	1097.5	study	Phase3	study/STIM_014.jpg	99
1672.886	0.677	677.0	study	Phase3	study/STIM_014.jpg	100
1675.874	0.742	741.6	study	Phase3	study/STIM_015.jpg	99
1679.84	1.072	1071.7	study	Phase3	study/STIM_015.jpg	99
1684.05	1.069	1069.4	study	Phase3	study/STIM_015.jpg	99
1687.565	0.774	774.0	study	Phase3	study/STIM_016.jpg	100
1691.656	1.029	1029.2	study	Phase3	study/STIM_016.jpg	100
1695.414	0.747	746.6	study	Phase3	study/STIM_016.jpg	100
1700.063	1.132	1131.6	study	Phase3	study/STIM_017.jpg	99
1703.7	0.618	618.2	study	Phase3	study/STIM_017.jpg	100
1707.257	1.369	1368.7	study	Phase3	study/STIM_017.jpg	100
1711.661	1.224	1224.3	study	Phase3	study/STIM_018.jpg	99
1715.373	1.015	1014.9	study	Phase3	study/STIM_018.jpg	99
1719.291	0.747	747.0	study	Phase3	study/STIM_018.jpg	100
1722.6	0.618	618.2	study	Phase3	study/STIM_019.jpg	100
1726.59	1.136	1136.5	study	Phase3	study/STIM_019.jpg	99
1731.105	1.359	1359.4	study	Phase3	study/STIM_019.jpg	100
1735.89	0.885	884.6	study	Phase3	study/STIM_020.jpg	100
1740.49	1.299	1298.7	study	Phase3	study/STIM_020.jpg	99
1744.385	0.712	712.5	study	Phase3	study/STIM_020.jpg	99
1748.089	0.806	805.6	study	Phase3	study/STIM_021.jpg	100
1751.434	1.262	1261.8	study	Phase3	study/STIM_021.jpg	100
1755.43	1.085	1085.0	study	Phase3	study/STIM_021.jpg	99
1758.671	1.256	1256.0	study	Phase3	study/STIM_022.jpg	99
1763.667	1.272	1272.3	study	Phase3	study/STIM_022.jpg	100
1768.761	1.258	1257.6	study	Phase3	study/STIM_022.jpg	99
1773.719	1.237	1236.8	study	Phase3	study/STIM_023.jpg	99
1777.38	1.305	1305.1	study	Phase3	study/STIM_023.jpg	99
1781.249	0.87	870.5	study	Phase3	study/STIM_023.jpg	99
1785.075	0.672	672.5	study	Phase3	study/STIM_024.jpg	100
1789.239	0.861	861.0	study	Phase3	study/STIM_024.jpg	100
1793.633	1.183	1183.4	study	Phase3	study/STIM_024.jpg	99
1797.013	1.061	1061.3	study	Phase3	study/STIM_025.jpg	99
1800.373	0.894	894.1	study	Phase3	study/STIM_025.jpg	100
1805.155	0.957	956.7	study	Phase3	study/STIM_025.jpg	99
1808.627	0.788	788.1	study	Phase3	study/STIM_026.jpg	99
1812.403	1.055	1055.3	study	Phase3	study/STIM_026.jpg	100
1817.237	1.083	1083.3	study	Phase3	study/STIM_026.jpg	100
1822.295	1.09	1089.6	study	Phase3	study/STIM_027.jpg	99
1825.957	0.794	793.5	study	Phase3	study/STIM_027.jpg	100
1829.768	0.783	783.1	study	Phase3	study/STIM_027.jpg	100
1832.61	1.137	1137.2	study	Phase3	study/STIM_028.jpg	99
1837.125	0.974	974.3	study	Phase3	study/STIM_028.jpg	99
1840.769	1.36	1359.9	study	Phase3	study/STIM_028.jpg	100
1845.497	0.957	956.9	study	Phase3	study/STIM_029.jpg	100
1850.033	1.221	1220.8	study	Phase3	study/STIM_029.jpg	99
1854.898	0.774	773.6	study	Phase3	study/STIM_029.jpg	99
1858.107	1.02	1019.6	test	Phase3	test/STIM_000.jpg	99
1861.564	0.74	740.1	test	Phase3	test/STIM_000.jpg	100
1866.272	1.112	1112.3	test	Phase3	test/STIM_000.jpg	100
1870.507	1.251	1250.8	test	Phase3	test/STIM_001.jpg	100
1874.846	0.972	971.9	test	Phase3	test/STIM_001.jpg	100
1879.757	0.752	752.5	test	Phase3	test/STIM_001.jpg	100
1884.095	1.061	1060.8	test	Phase3	test/STIM_002.jpg	100
1888.466	0.86	860.0	test	Phase3	test/STIM_002.jpg	100
1893.31	1.14	1139.5	test	Phase3	test/STIM_002.jpg	99
1898.065	1.152	1151.6	test	Phase3	test/STIM_003.jpg	100
1901.791	1.14	1140.0	test	Phase3	test/STIM_003.jpg	100
1906.176	0.783	782.6	test	Phase3	test/STIM_003.jpg	99
1909.532	1.113	1113.2	test	Phase3	test/STIM_004.jpg	99
1914.553	0.827	827.3	test	Phase3	test/STIM_004.jpg	99
1917.453	0.958	958.2	test	Phase3	test/STIM_004.jpg	100
1922.242	0.834	834.4	test	Phase3	test/STIM_005.jpg	99
1925.518	0.921	921.0	test	Phase3	test/STIM_005.jpg	100
1929.733	1.254	1253.5	test	Phase3	test/STIM_005.jpg	100
1933.502	0.828	827.9	test	Phase3	test/STIM_006.jpg	100
1937.892	1.3	1300.2	test	Phase3	test/STIM_006.jpg	100
1941.341	1.235	1235.4	test	Phase3	test/STIM_006.jpg	100
1944.788	0.99	990.0	test	Phase3	test/STIM_007.jpg	100
1949.41	1.172	1172.3	test	Phase3	test/STIM_007.jpg	100
1953.035	0.872	871.9	test	Phase3	test/STIM_007.jpg	99
1956.482	1.21	1209.8	test	Phase3	test/STIM_008.jpg	100
1961.362	1.012	1012.1	test	Phase3	test/STIM_008.jpg	99
1965.199	1.195	1195.2	test	Phase3	test/STIM_008.jpg	100
1968.409	1.358	1357.6	test	Phase3	test/STIM_009.jpg	100
1973.644	0.675	675.4	test	Phase3	test/STIM_009.jpg	99
1977.389	1.04	1039.8	test	Phase3	test/STIM_009.jpg	99
1980.906	1.247	1247.1	test	Phase3	test/STIM_010.jpg	100
1985.211	0.924	923.5	test	Phase3	test/STIM_010.jpg	100
1989.499	0.866	866.4	test	Phase3	test/STIM_010.jpg	99
1993.697	1.024	1024.5	test	Phase3	test/STIM_011.jpg	100
1996.943	1.187	1187.4	test	Phase3	test/STIM_011.jpg	100
2001.863	0.891	891.4	test	Phase3	test/STIM_011.jpg	100
2006.274	1.054	1054.0	test	Phase3	test/STIM_012.jpg	99
2010.14	0.67	670.3	test	Phase3	test/STIM_012.jpg	99
2013.542	1.199	1198.7	test	Phase3	test/STIM_012.jpg	100
2018.043	1.259	1258.8	test	Phase3	test/STIM_013.jpg	100
2022.139	0.951	951.4	test	Phase3	test/STIM_013.jpg	99
2026.649	1.235	1234.6	test	Phase3	test/STIM_013.jpg	100
2031.609	1.103	1103.3	test	Phase3	test/STIM_014.jpg	99
2034.748	0.946	945.9	test	Phase3	test/STIM_014.jpg	99
2037.873	1.004	1004.5	test	Phase3	test/STIM_014.jpg	99
2042.311	1.071	1071.1	test	Phase3	test/STIM_015.jpg	100
2045.469	1.384	1384.3	test	Phase3	test/STIM_015.jpg	100
2050.218	0.73	729.5	test	Phase3	test/STIM_015.jpg	99
2053.316	1.05	1050.3	test	Phase3	test/STIM_016.jpg	100
2057.758	1.07	1069.9	test	Phase3	test/STIM_016.jpg	99
2062.316	0.798	798.0	test	Phase3	test/STIM_016.jpg	100
2065.824	0.912	912.3	test	Phase3	test/STIM_017.jpg	99
2070.711	1.121	1120.8	test	Phase3	test/STIM_017.jpg	100
2074.025	1.187	1187.3	test	Phase3	test/STIM_017.jpg	99
2079.189	1.379	1379.1	test	Phase3	test/STIM_018.jpg	99
2084.511	0.734	734.5	test	Phase3	test/STIM_018.jpg	100
2087.752	0.709	708.9	test	Phase3	test/STIM_018.jpg	100
2090.58	1.308	1307.5	test	Phase3	test/STIM_019.jpg	100
2094.64	0.668	668.3	test	Phase3	test/STIM_019.jpg	100
2097.716	1.031	1030.7	test	Phase3	test/STIM_019.jpg	99
2101.917	1.243	1242.9	test	Phase3	test/STIM_020.jpg	99
2105.481	1.264	1264.3	test	Phase3	test/STIM_020.jpg	100
2109.319	1.237	1237.0	test	Phase3	test/STIM_020.jpg	99
2114.386	0.759	758.8	test	Phase3	test/STIM_021.jpg	99
2117.33	1.387	1387.1	test	Phase3	test/STIM_021.jpg	100
2121.112	1.332	1332.1	test	Phase3	test/STIM_021.jpg	100
2125.84	0.746	746.2	test	Phase3	test/STIM_022.jpg	100
2130.219	1.091	1090.7	test	Phase3	test/STIM_022.jpg	99
2133.654	1.313	1313.2	test	Phase3	test/STIM_022.jpg	100
2138.378	0.938	938.5	test	Phase3	test/STIM_023.jpg	99
2143.271	0.906	905.5	test	Phase3	test/STIM_023.jpg	99
2146.522	0.747	746.8	test	Phase3	test/STIM_023.jpg	99
2150.957	1.164	1163.8	test	Phase3	test/STIM_024.jpg	100
2154.602	1.349	1349.1	test	Phase3	test/STIM_024.jpg	100
2159.588	0.872	872.1	test	Phase3	test/STIM_024.jpg	99
2164.289	0.687	686.9	test	Phase3	test/STIM_025.jpg	99
2167.315	0.818	818.2	test	Phase3	test/STIM_025.jpg	99
2171.286	0.902	902.5	test	Phase3	test/STIM_025.jpg	100
2174.53	0.671	671.0	test	Phase3	test/STIM_026.jpg	99
2178.236	1.18	1180.1	test	Phase3	test/STIM_026.jpg	100
2183.211	1.004	1004.5	test	Phase3	test/STIM_026.jpg	99
2187.476	1.169	1169.0	test	Phase3	test/STIM_027.jpg	100
2192.024	0.901	900.8	test	Phase3	test/STIM_027.jpg	100
2196.254	0.841	841.0	test	Phase3	test/STIM_027.jpg	100
2200.078	1.018	1018.0	test	Phase3	test/STIM_028.jpg	100
2203.155	1.409	1409.0	test	Phase3	test/STIM_028.jpg	99
2207.415	0.8	799.9	test	Phase3	test/STIM_028.jpg	99
2211.559	0.896	895.7	test	Phase3	test/STIM_029.jpg	100
2215.215	1.106	1106.3	test	Phase3	test/STIM_029.jpg	99
2219.611	1.312	1312.5	test	Phase3	test/STIM_029.jpg	99
