onset	duration	accuracy	trial_type	learning_stage	stimulus
0.0	1.627	correct	study	Phase1	study/STIM_000.jpg
4.192	1.058	correct	study	Phase1	study/STIM_000.jpg
8.892	1.535	correct	study	Phase1	study/STIM_000.jpg
12.761	1.075	correct	study	Phase1	study/STIM_001.jpg
15.825	0.976	correct	study	Phase1	study/STIM_001.jpg
19.875	1.067	correct	study	Phase1	study/STIM_001.jpg
24.105	1.497	correct	study	Phase1	study/STIM_002.jpg
28.086	1.471	correct	study	Phase1	study/STIM_002.jpg
32.247	0.788	correct	study	Phase1	study/STIM_002.jpg
36.829	0.93	incorrect	study	Phase1	study/STIM_003.jpg
41.313	1.102	correct	study	Phase1	study/STIM_003.jpg
44.793	1.561	correct	study	Phase1	study/STIM_003.jpg
48.809	1.863	correct	study	Phase1	study/STIM_004.jpg
52.848	1.605	incorrect	study	Phase1	study/STIM_004.jpg
56.617	1.034	correct	study	Phase1	study/STIM_004.jpg
61.05	1.752	correct	study	Phase1	study/STIM_005.jpg
65.518	1.187	correct	study	Phase1	study/STIM_005.jpg
70.067	1.676	correct	study	Phase1	study/STIM_005.jpg
74.202	1.38	correct	study	Phase1	study/STIM_006.jpg
77.859	0.796	correct	study	Phase1	study/STIM_006.jpg
81.741	1.293	correct	study	Phase1	study/STIM_006.jpg
86.484	1.09	correct	study	Phase1	study/STIM_007.jpg
90.369	1.64	correct	study	Phase1	study/STIM_007.jpg
95.867	1.131	correct	study	Phase1	study/STIM_007.jpg
100.655	1.516	correct	study	Phase1	study/STIM_008.jpg
104.791	1.546	correct	study	Phase1	study/STIM_008.jpg
109.088	1.318	incorrect	study	Phase1	study/STIM_008.jpg
112.427	0.96	correct	study	Phase1	study/STIM_009.jpg
115.78	1.238	correct	study	Phase1	study/STIM_009.jpg
119.648	0.805	correct	study	Phase1	study/STIM_009.jpg
124.377	1.306	correct	study	Phase1	study/STIM_010.jpg
127.729	0.976	correct	study	Phase1	study/STIM_010.jpg
131.656	1.415	incorrect	study	Phase1	study/STIM_010.jpg
135.567	1.556	incorrect	study	Phase1	study/STIM_011.jpg
140.772	1.235	correct	study	Phase1	study/STIM_011.jpg
145.089	1.72	incorrect	study	Phase1	study/STIM_011.jpg
149.153	1.159	correct	study	Phase1	study/STIM_012.jpg
152.916	1.013	correct	study	Phase1	study/STIM_012.jpg
155.996	0.846	correct	study	Phase1	study/STIM_012.jpg
159.58	1.228	incorrect	study	Phase1	study/STIM_013.jpg
163.449	1.757	correct	study	Phase1	study/STIM_013.jpg
168.14	0.897	correct	study	Phase1	study/STIM_013.jpg
172.767	1.207	correct	study	Phase1	study/STIM_014.jpg
177.653	1.472	correct	study	Phase1	study/STIM_014.jpg
182.45	0.789	correct	study	Phase1	study/STIM_014.jpg
187.083	1.106	correct	study	Phase1	study/STIM_015.jpg
190.938	1.477	correct	study	Phase1	study/STIM_015.jpg
195.425	0.754	correct	study	Phase1	study/STIM_015.jpg
198.746	1.392	correct	study	Phase1	study/STIM_016.jpg
203.753	0.981	correct	study	Phase1	study/STIM_016.jpg
207.45	1.552	correct	study	Phase1	study/STIM_016.jpg
212.654	1.51	correct	study	Phase1	study/STIM_017.jpg
216.742	1.78	correct	study	Phase1	study/STIM_017.jpg
221.184	0.934	correct	study	Phase1	study/STIM_017.jpg
226.034	1.15	correct	study	Phase1	study/STIM_018.jpg
229.364	1.796	correct	study	Phase1	study/STIM_018.jpg
233.722	1.106	correct	study	Phase1	study/STIM_018.jpg
237.903	1.9	correct	study	Phase1	study/STIM_019.jpg
242.703	1.676	incorrect	study	Phase1	study/STIM_019.jpg
248.043	1.517	correct	study	Phase1	study/STIM_019.jpg
251.655	1.467	incorrect	study	Phase1	study/STIM_020.jpg
256.02	1.214	correct	study	Phase1	study/STIM_020.jpg
259.854	1.159	incorrect	study	Phase1	study/STIM_020.jpg
263.494	1.553	correct	study	Phase1	study/STIM_021.jpg
267.33	1.366	correct	study	Phase1	study/STIM_021.jpg
270.845	1.631	correct	study	Phase1	study/STIM_021.jpg
275.038	1.192	correct	study	Phase1	study/STIM_022.jpg
278.238	1.396	correct	study	Phase1	study/STIM_022.jpg
283.125	1.662	correct	study	Phase1	study/STIM_022.jpg
287.577	1.541	incorrect	study	Phase1	study/STIM_023.jpg
292.83	1.418	correct	study	Phase1	study/STIM_023.jpg
296.394	1.062	incorrect	study	Phase1	study/STIM_023.jpg
299.808	1.531	correct	study	Phase1	study/STIM_024.jpg
304.504	1.414	correct	study	Phase1	study/STIM_024.jpg
309.225	1.093	correct	study	Phase1	study/STIM_024.jpg
313.006	1.445	correct	study	Phase1	study/STIM_025.jpg
317.505	1.015	correct	study	Phase1	study/STIM_025.jpg
321.153	1.308	incorrect	study	Phase1	study/STIM_025.jpg
326.354	1.485	correct	study	Phase1	study/STIM_026.jpg
331.352	1.324	correct	study	Phase1	study/STIM_026.jpg
336.079	0.787	correct	study	Phase1	study/STIM_026.jpg
340.436	1.633	correct	study	Phase1	study/STIM_027.jpg
344.593	1.6	correct	study	Phase1	study/STIM_027.jpg
349.844	1.371	correct	study	Phase1	study/STIM_027.jpg
353.421	1.562	correct	study	Phase1	study/STIM_028.jpg
357.557	1.471	correct	study	Phase1	study/STIM_028.jpg
362.134	1.04	incorrect	study	Phase1	study/STIM_028.jpg
365.619	1.639	correct	study	Phase1	study/STIM_029.jpg
369.192	1.899	correct	study	Phase1	study/STIM_029.jpg
374.21	1.665	correct	study	Phase1	study/STIM_029.jpg
379.363	1.394	correct	test	Phase1	test/STIM_000.jpg
383.762	0.934	correct	test	Phase1	test/STIM_000.jpg
388.3	1.218	correct	test	Phase1	test/STIM_000.jpg
392.692	0.993	incorrect	test	Phase1	test/STIM_001.jpg
395.633	1.243	correct	test	Phase1	test/STIM_001.jpg
399.427	1.288	correct	test	Phase1	test/STIM_001.jpg
404.473	0.639	correct	test	Phase1	test/STIM_002.jpg
407.983	0.729	correct	test	Phase1	test/STIM_002.jpg
412.446	1.072	correct	test	Phase1	test/STIM_002.jpg
417.312	0.846	correct	test	Phase1	test/STIM_003.jpg
420.671	0.925	correct	test	Phase1	test/STIM_003.jpg
424.461	0.628	incorrect	test	Phase1	test/STIM_003.jpg
427.955	1.039	correct	test	Phase1	test/STIM_004.jpg
432.166	0.96	correct	test	Phase1	test/STIM_004.jpg
435.755	0.867	correct	test	Phase1	test/STIM_004.jpg
440.004	0.641	correct	test	Phase1	test/STIM_005.jpg
444.263	1.109	correct	test	Phase1	test/STIM_005.jpg
449.079	0.725	correct	test	Phase1	test/STIM_005.jpg
452.427	0.658	correct	test	Phase1	test/STIM_006.jpg
456.332	0.694	correct	test	Phase1	test/STIM_006.jpg
460.865	1.231	correct	test	Phase1	test/STIM_006.jpg
464.298	1.011	correct	test	Phase1	test/STIM_007.jpg
469.167	1.285	correct	test	Phase1	test/STIM_007.jpg
472.758	1.255	correct	test	Phase1	test/STIM_007.jpg
477.018	0.97	correct	test	Phase1	test/STIM_008.jpg
481.677	0.848	correct	test	Phase1	test/STIM_008.jpg
484.443	1.374	incorrect	test	Phase1	test/STIM_008.jpg
488.141	0.741	correct	test	Phase1	test/STIM_009.jpg
491.232	1.12	correct	test	Phase1	test/STIM_009.jpg
494.45	1.024	correct	test	Phase1	test/STIM_009.jpg
498.309	0.918	correct	test	Phase1	test/STIM_010.jpg
502.282	0.696	correct	test	Phase1	test/STIM_010.jpg
505.258	1.037	correct	test	Phase1	test/STIM_010.jpg
509.203	1.197	incorrect	test	Phase1	test/STIM_011.jpg
513.498	0.58	correct	test	Phase1	test/STIM_011.jpg
517.541	1.27	correct	test	Phase1	test/STIM_011.jpg
522.219	1.266	correct	test	Phase1	test/STIM_012.jpg
526.096	1.219	correct	test	Phase1	test/STIM_012.jpg
530.454	0.887	correct	test	Phase1	test/STIM_012.jpg
533.958	0.839	correct	test	Phase1	test/STIM_013.jpg
536.751	0.9	correct	test	Phase1	test/STIM_013.jpg
540.206	1.261	correct	test	Phase1	test/STIM_013.jpg
545.09	1.263	correct	test	Phase1	test/STIM_014.jpg
549.52	1.153	correct	test	Phase1	test/STIM_014.jpg
553.518	1.105	correct	test	Phase1	test/STIM_014.jpg
558.051	1.096	correct	test	Phase1	test/STIM_015.jpg
562.467	0.963	correct	test	Phase1	test/STIM_015.jpg
566.975	0.629	correct	test	Phase1	test/STIM_015.jpg
571.253	1.113	correct	test	Phase1	test/STIM_016.jpg
575.548	0.608	correct	test	Phase1	test/STIM_016.jpg
578.742	0.915	correct	test	Phase1	test/STIM_016.jpg
583.149	0.926	correct	test	Phase1	test/STIM_017.jpg
586.705	0.986	correct	test	Phase1	test/STIM_017.jpg
590.205	1.234	correct	test	Phase1	test/STIM_017.jpg
593.438	0.899	incorrect	test	Phase1	test/STIM_018.jpg
597.907	1.367	correct	test	Phase1	test/STIM_018.jpg
602.038	0.955	correct	test	Phase1	test/STIM_018.jpg
606.103	0.999	correct	test	Phase1	test/STIM_019.jpg
609.534	0.866	correct	test	Phase1	test/STIM_019.jpg
613.956	0.74	correct	test	Phase1	test/STIM_019.jpg
616.778	1.009	incorrect	test	Phase1	test/STIM_020.jpg
620.115	0.66	correct	test	Phase1	test/STIM_020.jpg
623.481	1.238	correct	test	Phase1	test/STIM_020.jpg
626.832	1.088	correct	test	Phase1	test/STIM_021.jpg
630.445	1.09	correct	test	Phase1	test/STIM_021.jpg
634.162	1.016	correct	test	Phase1	test/STIM_021.jpg
637.177	1.394	incorrect	test	Phase1	test/STIM_022.jpg
641.021	1.343	correct	test	Phase1	test/STIM_022.jpg
645.473	1.12	correct	test	Phase1	test/STIM_022.jpg
650.089	0.631	correct	test	Phase1	test/STIM_023.jpg
653.327	0.602	correct	test	Phase1	test/STIM_023.jpg
657.209	0.832	correct	test	Phase1	test/STIM_023.jpg
661.212	1.018	correct	test	Phase1	test/STIM_024.jpg
665.8	1.289	incorrect	test	Phase1	test/STIM_024.jpg
670.473	1.238	correct	test	Phase1	test/STIM_024.jpg
675.112	0.981	incorrect	test	Phase1	test/STIM_025.jpg
679.817	1.279	correct	test	Phase1	test/STIM_025.jpg
683.242	0.842	correct	test	Phase1	test/STIM_025.jpg
687.739	1.414	correct	test	Phase1	test/STIM_026.jpg
692.337	0.688	correct	test	Phase1	test/STIM_026.jpg
695.965	1.292	correct	test	Phase1	test/STIM_026.jpg
699.776	1.06	correct	test	Phase1	test/STIM_027.jpg
703.402	1.368	correct	test	Phase1	test/STIM_027.jpg
707.285	1.079	correct	test	Phase1	test/STIM_027.jpg
711.27	1.185	correct	test	Phase1	test/STIM_028.jpg
716.088	1.095	correct	test	Phase1	test/STIM_028.jpg
719.155	1.353	correct	test	Phase1	test/STIM_028.jpg
722.603	0.849	correct	test	Phase1	test/STIM_029.jpg
726.474	0.872	correct	test	Phase1	test/STIM_029.jpg
729.542	0.941	correct	test	Phase1	test/STIM_029.jpg
733.69	1.035	correct	study	Phase2	study/STIM_000.jpg
738.012	1.232	correct	study	Phase2	study/STIM_000.jpg
741.632	1.256	correct	study	Phase2	study/STIM_000.jpg
746.831	0.615	correct	study	Phase2	study/STIM_001.jpg
749.892	1.125	incorrect	study	Phase2	study/STIM_001.jpg
754.451	1.27	correct	study	Phase2	study/STIM_001.jpg
758.034	1.466	incorrect	study	Phase2	study/STIM_002.jpg
762.327	0.802	correct	study	Phase2	study/STIM_002.jpg
765.607	1.07	correct	study	Phase2	study/STIM_002.jpg
770.282	1.084	correct	study	Phase2	study/STIM_003.jpg
773.747	1.418	correct	study	Phase2	study/STIM_003.jpg
777.482	0.913	correct	study	Phase2	study/STIM_003.jpg
780.342	1.169	correct	study	Phase2	study/STIM_004.jpg
785.396	0.757	correct	study	Phase2	study/STIM_004.jpg
788.805	0.829	correct	study	Phase2	study/STIM_004.jpg
793.178	1.253	correct	study	Phase2	study/STIM_005.jpg
798.377	1.156	correct	study	Phase2	study/STIM_005.jpg
801.621	1.159	correct	study	Phase2	study/STIM_005.jpg
806.218	0.768	correct	study	Phase2	study/STIM_006.jpg
810.092	1.133	correct	study	Phase2	study/STIM_006.jpg
815.174	1.067	correct	study	Phase2	study/STIM_006.jpg
820.083	1.587	correct	study	Phase2	study/STIM_007.jpg
825.415	1.242	incorrect	study	Phase2	study/STIM_007.jpg
829.124	0.96	correct	study	Phase2	study/STIM_007.jpg
833.437	0.974	correct	study	Phase2	study/STIM_008.jpg
837.987	1.197	correct	study	Phase2	study/STIM_008.jpg
842.761	0.806	correct	study	Phase2	study/STIM_008.jpg
847.433	0.837	correct	study	Phase2	study/STIM_009.jpg
850.28	1.073	correct	study	Phase2	study/STIM_009.jpg
854.919	1.155	correct	study	Phase2	study/STIM_009.jpg
859.372	1.285	incorrect	study	Phase2	study/STIM_010.jpg
863.838	1.397	correct	study	Phase2	study/STIM_010.jpg
868.202	0.673	correct	study	Phase2	study/STIM_010.jpg
871.199	1.18	correct	study	Phase2	study/STIM_011.jpg
874.335	1.056	correct	study	Phase2	study/STIM_011.jpg
878.211	0.847	correct	study	Phase2	study/STIM_011.jpg
880.975	1.52	correct	study	Phase2	study/STIM_012.jpg
884.757	1.069	correct	study	Phase2	study/STIM_012.jpg
889.062	0.561	correct	study	Phase2	study/STIM_012.jpg
892.694	1.385	correct	study	Phase2	study/STIM_013.jpg
896.221	0.857	correct	study	Phase2	study/STIM_013.jpg
901.104	1.098	correct	study	Phase2	study/STIM_013.jpg
904.975	1.36	correct	study	Phase2	study/STIM_014.jpg
910.093	0.998	correct	study	Phase2	study/STIM_014.jpg
913.609	1.188	correct	study	Phase2	study/STIM_014.jpg
916.792	1.008	correct	study	Phase2	study/STIM_015.jpg
920.127	0.772	correct	study	Phase2	study/STIM_015.jpg
923.599	0.939	correct	study	Phase2	study/STIM_015.jpg
926.81	0.9	correct	study	Phase2	study/STIM_016.jpg
929.969	1.298	correct	study	Phase2	study/STIM_016.jpg
935.079	0.651	correct	study	Phase2	study/STIM_016.jpg
938.711	0.783	correct	study	Phase2	study/STIM_017.jpg
942.211	0.936	correct	study	Phase2	study/STIM_017.jpg
946.936	0.923	correct	study	Phase2	study/STIM_017.jpg
951.329	1.415	correct	study	Phase2	study/STIM_018.jpg
956.092	1.064	correct	study	Phase2	study/STIM_018.jpg
959.647	0.686	correct	study	Phase2	study/STIM_018.jpg
962.792	1.089	correct	study	Phase2	study/STIM_019.jpg
967.261	1.133	correct	study	Phase2	study/STIM_019.jpg
972.117	1.305	correct	study	Phase2	study/STIM_019.jpg
975.678	1.019	correct	study	Phase2	study/STIM_020.jpg
979.289	0.789	correct	study	Phase2	study/STIM_020.jpg
983.985	0.915	correct	study	Phase2	study/STIM_020.jpg
986.858	1.41	incorrect	study	Phase2	study/STIM_021.jpg
990.356	1.456	correct	study	Phase2	study/STIM_021.jpg
995.223	1.378	correct	study	Phase2	study/STIM_021.jpg
999.979	0.936	correct	study	Phase2	study/STIM_022.jpg
1002.862	0.838	correct	study	Phase2	study/STIM_022.jpg
1005.628	0.872	correct	study	Phase2	study/STIM_022.jpg
1009.817	0.764	correct	study	Phase2	study/STIM_023.jpg
1013.809	1.171	correct	study	Phase2	study/STIM_023.jpg
1018.056	1.238	correct	study	Phase2	study/STIM_023.jpg
1022.071	0.956	correct	study	Phase2	study/STIM_024.jpg
1025.401	0.97	correct	study	Phase2	study/STIM_024.jpg
1028.957	1.054	correct	study	Phase2	study/STIM_024.jpg
1033.925	1.49	correct	study	Phase2	study/STIM_025.jpg
1037.428	0.78	correct	study	Phase2	study/STIM_025.jpg
1040.698	1.151	correct	study	Phase2	study/STIM_025.jpg
1045.442	0.946	correct	study	Phase2	study/STIM_026.jpg
1049.916	1.086	correct	study	Phase2	study/STIM_026.jpg
1053.211	1.181	correct	study	Phase2	study/STIM_026.jpg
1057.025	0.97	correct	study	Phase2	study/STIM_027.jpg
1061.3	1.18	incorrect	study	Phase2	study/STIM_027.jpg
1065.886	1.275	correct	study	Phase2	study/STIM_027.jpg
1070.2	1.04	correct	study	Phase2	study/STIM_028.jpg
1074.062	1.246	correct	study	Phase2	study/STIM_028.jpg
1077.97	0.685	correct	study	Phase2	study/STIM_028.jpg
1081.492	1.037	correct	study	Phase2	study/STIM_029.jpg
1085.41	0.837	correct	study	Phase2	study/STIM_029.jpg
1088.751	0.665	correct	study	Phase2	study/STIM_029.jpg
1092.058	0.648	correct	test	Phase2	test/STIM_000.jpg
1096.241	0.839	correct	test	Phase2	test/STIM_000.jpg
1100.904	1.122	correct	test	Phase2	test/STIM_000.jpg
1104.064	1.107	incorrect	test	Phase2	test/STIM_001.jpg
1107.229	0.791	correct	test	Phase2	test/STIM_001.jpg
1111.13	1.037	correct	test	Phase2	test/STIM_001.jpg
1114.306	0.958	correct	test	Phase2	test/STIM_002.jpg
1117.285	1.365	incorrect	test	Phase2	test/STIM_002.jpg
1121.396	0.689	correct	test	Phase2	test/STIM_002.jpg
1124.995	1.097	incorrect	test	Phase2	test/STIM_003.jpg
1128.858	1.166	correct	test	Phase2	test/STIM_003.jpg
1133.057	0.607	correct	test	Phase2	test/STIM_003.jpg
1137.319	0.713	correct	test	Phase2	test/STIM_004.jpg
1141.795	1.02	correct	test	Phase2	test/STIM_004.jpg
1146.265	1.281	correct	test	Phase2	test/STIM_004.jpg
1151.314	1.303	correct	test	Phase2	test/STIM_005.jpg
1156.15	1.004	correct	test	Phase2	test/STIM_005.jpg
1159.701	0.763	correct	test	Phase2	test/STIM_005.jpg
1162.416	1.014	correct	test	Phase2	test/STIM_006.jpg
1165.864	0.873	correct	test	Phase2	test/STIM_006.jpg
1169.191	1.192	correct	test	Phase2	test/STIM_006.jpg
1173.547	0.803	incorrect	test	Phase2	test/STIM_007.jpg
1176.653	0.62	correct	test	Phase2	test/STIM_007.jpg
1180.459	0.707	correct	test	Phase2	test/STIM_007.jpg
1184.061	1.188	correct	test	Phase2	test/STIM_008.jpg
1187.43	1.237	correct	test	Phase2	test/STIM_008.jpg
1191.301	1.074	correct	test	Phase2	test/STIM_008.jpg
1196.216	1.019	correct	test	Phase2	test/STIM_009.jpg
1199.571	0.821	correct	test	Phase2	test/STIM_009.jpg
1203.98	1.138	correct	test	Phase2	test/STIM_009.jpg
1208.498	1.1	correct	test	Phase2	test/STIM_010.jpg
1212.477	0.993	correct	test	Phase2	test/STIM_010.jpg
1216.175	0.61	correct	test	Phase2	test/STIM_010.jpg
1220.727	0.677	correct	test	Phase2	test/STIM_011.jpg
1224.235	0.802	correct	test	Phase2	test/STIM_011.jpg
1227.254	0.699	correct	test	Phase2	test/STIM_011.jpg
1231.464	0.67	correct	test	Phase2	test/STIM_012.jpg
1235.355	1.133	correct	test	Phase2	test/STIM_012.jpg
1238.995	1.146	incorrect	test	Phase2	test/STIM_012.jpg
1242.497	0.901	correct	test	Phase2	test/STIM_013.jpg
1246.335	0.931	correct	test	Phase2	test/STIM_013.jpg
1250.908	0.977	correct	test	Phase2	test/STIM_013.jpg
1255.037	0.68	correct	test	Phase2	test/STIM_014.jpg
1259.242	0.911	correct	test	Phase2	test/STIM_014.jpg
1262.178	1.155	correct	test	Phase2	test/STIM_014.jpg
1266.151	0.978	correct	test	Phase2	test/STIM_015.jpg
1270.039	0.907	correct	test	Phase2	test/STIM_015.jpg
1273.464	0.75	correct	test	Phase2	test/STIM_015.jpg
1277.619	1.226	correct	test	Phase2	test/STIM_016.jpg
1281.207	1.097	correct	test	Phase2	test/STIM_016.jpg
1285.994	1.223	incorrect	test	Phase2	test/STIM_016.jpg
1290.819	1.25	correct	test	Phase2	test/STIM_017.jpg
1294.88	1.025	correct	test	Phase2	test/STIM_017.jpg
1298.889	1.351	correct	test	Phase2	test/STIM_017.jpg
1303.989	0.985	correct	test	Phase2	test/STIM_018.jpg
1308.26	0.87	correct	test	Phase2	test/STIM_018.jpg
1312.591	0.84	correct	test	Phase2	test/STIM_018.jpg
1315.429	1.35	correct	test	Phase2	test/STIM_019.jpg
1319.577	1.32	correct	test	Phase2	test/STIM_019.jpg
1323.0	1.096	correct	test	Phase2	test/STIM_019.jpg
1326.176	1.295	correct	test	Phase2	test/STIM_020.jpg
1330.73	0.998	correct	test	Phase2	test/STIM_020.jpg
1334.721	0.681	incorrect	test	Phase2	test/STIM_020.jpg
1338.415	0.703	correct	test	Phase2	test/STIM_021.jpg
1341.279	1.044	correct	test	Phase2	test/STIM_021.jpg
1345.078	1.252	correct	test	Phase2	test/STIM_021.jpg
1350.207	0.816	correct	test	Phase2	test/STIM_022.jpg
1354.22	1.147	incorrect	test	Phase2	test/STIM_022.jpg
1358.444	1.283	correct	test	Phase2	test/STIM_022.jpg
1362.846	0.898	correct	test	Phase2	test/STIM_023.jpg
1366.864	1.295	correct	test	Phase2	test/STIM_023.jpg
1371.644	1.097	correct	test	Phase2	test/STIM_023.jpg
1375.033	0.761	correct	test	Phase2	test/STIM_024.jpg
1379.137	1.24	correct	test	Phase2	test/STIM_024.jpg
1382.489	0.845	correct	test	Phase2	test/STIM_024.jpg
1386.226	0.902	correct	test	Phase2	test/STIM_025.jpg
1390.826	0.908	correct	test	Phase2	test/STIM_025.jpg
1394.912	0.91	correct	test	Phase2	test/STIM_025.jpg
1398.939	0.604	correct	test	Phase2	test/STIM_026.jpg
1403.05	1.076	correct	test	Phase2	test/STIM_026.jpg
1406.254	0.721	correct	test	Phase2	test/STIM_026.jpg
1410.622	1.003	correct	test	Phase2	test/STIM_027.jpg
1415.48	1.121	correct	test	Phase2	test/STIM_027.jpg
1418.523	0.968	correct	test	Phase2	test/STIM_027.jpg
1422.115	1.12	correct	test	Phase2	test/STIM_028.jpg
1425.528	1.306	correct	test	Phase2	test/STIM_028.jpg
1430.126	1.403	correct	test	Phase2	test/STIM_028.jpg
1435.02	1.02	correct	test	Phase2	test/STIM_029.jpg
1439.45	0.754	correct	test	Phase2	test/STIM_029.jpg
1443.25	0.673	correct	test	Phase2	test/STIM_029.jpg
1446.834	0.774	correct	study	Phase3	study/STIM_000.jpg
1451.276	1.38	correct	study	Phase3	study/STIM_000.jpg
1456.041	1.043	correct	study	Phase3	study/STIM_000.jpg
1460.565	0.78	correct	study	Phase3	study/STIM_001.jpg
1463.92	0.636	correct	study	Phase3	study/STIM_001.jpg
1466.819	1.039	correct	study	Phase3	study/STIM_001.jpg
1470.949	0.997	correct	study	Phase3	study/STIM_002.jpg
1475.174	1.38	incorrect	study	Phase3	study/STIM_002.jpg
1479.832	0.525	correct	study	Phase3	study/STIM_002.jpg
1483.182	1.102	correct	study	Phase3	study/STIM_003.jpg
1486.489	1.072	correct	study	Phase3	study/STIM_003.jpg
1489.922	1.258	correct	study	Phase3	study/STIM_003.jpg
1494.598	1.274	correct	study	Phase3	study/STIM_004.jpg
1498.7	0.808	correct	study	Phase3	study/STIM_004.jpg
1503.002	1.105	correct	study	Phase3	study/STIM_004.jpg
1506.396	0.984	correct	study	Phase3	study/STIM_005.jpg
1511.174	0.561	correct	study	Phase3	study/STIM_005.jpg
1514.701	1.052	correct	study	Phase3	study/STIM_005.jpg
1519.404	0.963	correct	study	Phase3	study/STIM_006.jpg
1523.655	0.826	correct	study	Phase3	study/STIM_006.jpg
1528.085	0.724	correct	study	Phase3	study/STIM_006.jpg
1532.065	0.823	incorrect	study	Phase3	study/STIM_007.jpg
1536.164	1.129	correct	study	Phase3	study/STIM_007.jpg
1539.538	1.28	correct	study	Phase3	study/STIM_007.jpg
1544.48	0.839	correct	study	Phase3	study/STIM_008.jpg
1548.341	0.955	correct	study	Phase3	study/STIM_008.jpg
1551.337	0.598	incorrect	study	Phase3	study/STIM_008.jpg
1554.364	0.969	correct	study	Phase3	study/STIM_009.jpg
1558.03	0.708	correct	study	Phase3	study/STIM_009.jpg
1561.02	1.15	correct	study	Phase3	study/STIM_009.jpg
1565.656	1.353	correct	study	Phase3	study/STIM_010.jpg
1569.89	0.91	correct	study	Phase3	study/STIM_010.jpg
1573.963	0.792	correct	study	Phase3	study/STIM_010.jpg
1578.713	1.199	correct	study	Phase3	study/STIM_011.jpg
1583.774	1.327	correct	study	Phase3	study/STIM_011.jpg
1588.812	1.223	correct	study	Phase3	study/STIM_011.jpg
1593.33	0.871	correct	study	Phase3	study/STIM_012.jpg
1597.93	0.887	correct	study	Phase3	study/STIM_012.jpg
1602.683	1.361	correct	study	Phase3	study/STIM_012.jpg
1607.77	0.553	correct	study	Phase3	study/STIM_013.jpg
1611.913	1.163	correct	study	Phase3	study/STIM_013.jpg
1615.095	0.667	correct	study	Phase3	study/STIM_013.jpg
1617.911	0.568	correct	study	Phase3	study/STIM_014.jpg
1621.809	0.741	correct	study	Phase3	study/STIM_014.jpg
1626.383	1.256	correct	study	Phase3	study/STIM_014.jpg
1630.744	0.78	correct	study	Phase3	study/STIM_015.jpg
1634.179	1.08	correct	study	Phase3	study/STIM_015.jpg
1638.322	1.163	correct	study	Phase3	study/STIM_015.jpg
1643.174	0.92	correct	study	Phase3	study/STIM_016.jpg
1646.899	0.89	correct	study	Phase3	study/STIM_016.jpg
1651.425	1.034	correct	study	Phase3	study/STIM_016.jpg
1655.408	0.706	incorrect	study	Phase3	study/STIM_017.jpg
1659.862	0.571	correct	study	Phase3	study/STIM_017.jpg
1662.589	0.866	correct	study	Phase3	study/STIM_017.jpg
1665.485	0.995	correct	study	Phase3	study/STIM_018.jpg
1669.954	1.126	correct	study	Phase3	study/STIM_018.jpg
1674.042	0.759	incorrect	study	Phase3	study/STIM_018.jpg
1677.436	0.799	correct	study	Phase3	study/STIM_019.jpg
1682.197	1.205	correct	study	Phase3	study/STIM_019.jpg
1687.123	1.122	correct	study	Phase3	study/STIM_019.jpg
1692.082	1.337	correct	study	Phase3	study/STIM_020.jpg
1696.234	0.592	correct	study	Phase3	study/STIM_020.jpg
1699.989	0.802	correct	study	Phase3	study/STIM_020.jpg
1704.682	1.022	correct	study	Phase3	study/STIM_021.jpg
1708.672	0.635	correct	study	Phase3	study/STIM_021.jpg
1712.487	1.015	correct	study	Phase3	study/STIM_021.jpg
1716.537	0.597	correct	study	Phase3	study/STIM_022.jpg
1719.736	0.581	incorrect	study	Phase3	study/STIM_022.jpg
1722.537	0.74	correct	study	Phase3	study/STIM_022.jpg
1726.698	0.866	correct	study	Phase3	study/STIM_023.jpg
1731.306	0.84	correct	study	Phase3	study/STIM_023.jpg
1734.389	0.646	correct	study	Phase3	study/STIM_023.jpg
1737.542	1.217	correct	study	Phase3	study/STIM_024.jpg
1741.929	1.078	correct	study	Phase3	study/STIM_024.jpg
1746.377	1.009	correct	study	Phase3	study/STIM_024.jpg
1750.919	0.834	correct	study	Phase3	study/STIM_025.jpg
1754.226	0.705	correct	study	Phase3	study/STIM_025.jpg
1758.855	0.992	correct	study	Phase3	study/STIM_025.jpg
1761.741	0.794	correct	study	Phase3	study/STIM_026.jpg
1765.252	0.602	correct	study	Phase3	study/STIM_026.jpg
1769.195	1.212	correct	study	Phase3	study/STIM_026.jpg
1774.063	0.548	correct	study	Phase3	study/STIM_027.jpg
1776.769	1.342	correct	study	Phase3	study/STIM_027.jpg
1781.488	1.259	correct	study	Phase3	study/STIM_027.jpg
1785.152	1.025	correct	study	Phase3	study/STIM_028.jpg
1788.173	1.022	correct	study	Phase3	study/STIM_028.jpg
1791.095	1.068	correct	study	Phase3	study/STIM_028.jpg
1794.406	0.926	correct	study	Phase3	study/STIM_029.jpg
1799.036	0.851	correct	study	Phase3	study/STIM_029.jpg
1802.132	0.586	correct	study	Phase3	study/STIM_029.jpg
1806.597	1.328	incorrect	test	Phase3	test/STIM_000.jpg
1810.57	0.635	correct	test	Phase3	test/STIM_000.jpg
1814.563	0.915	correct	test	Phase3	test/STIM_000.jpg
1818.954	1.202	correct	test	Phase3	test/STIM_001.jpg
1823.685	0.712	correct	test	Phase3	test/STIM_001.jpg
1826.774	0.796	correct	test	Phase3	test/STIM_001.jpg
1829.949	1.396	correct	test	Phase3	test/STIM_002.jpg
1835.099	0.644	correct	test	Phase3	test/STIM_002.jpg
1838.928	0.943	correct	test	Phase3	test/STIM_002.jpg
1842.617	1.178	incorrect	test	Phase3	test/STIM_003.jpg
1846.93	0.87	correct	test	Phase3	test/STIM_003.jpg
1851.064	0.939	correct	test	Phase3	test/STIM_003.jpg
1855.17	1.33	incorrect	test	Phase3	test/STIM_004.jpg
1860.029	1.021	correct	test	Phase3	test/STIM_004.jpg
1864.932	1.01	correct	test	Phase3	test/STIM_004.jpg
1868.985	0.767	correct	test	Phase3	test/STIM_005.jpg
1873.606	1.294	correct	test	Phase3	test/STIM_005.jpg
1877.429	0.977	correct	test	Phase3	test/STIM_005.jpg
1880.778	0.791	correct	test	Phase3	test/STIM_006.jpg
1885.0	1.168	correct	test	Phase3	test/STIM_006.jpg
1888.804	1.301	correct	test	Phase3	test/STIM_006.jpg
1893.921	0.762	correct	test	Phase3	test/STIM_007.jpg
1898.12	1.354	correct	test	Phase3	test/STIM_007.jpg
1902.824	0.859	correct	test	Phase3	test/STIM_007.jpg
1907.298	1.231	correct	test	Phase3	test/STIM_008.jpg
1910.519	1.112	correct	test	Phase3	test/STIM_008.jpg
1915.504	1.045	correct	test	Phase3	test/STIM_008.jpg
1920.517	0.777	correct	test	Phase3	test/STIM_009.jpg
1924.495	0.856	correct	test	Phase3	test/STIM_009.jpg
1929.101	1.034	correct	test	Phase3	test/STIM_009.jpg
1932.728	0.729	correct	test	Phase3	test/STIM_010.jpg
1935.728	1.182	correct	test	Phase3	test/STIM_010.jpg
1939.047	0.722	correct	test	Phase3	test/STIM_010.jpg
1942.528	1.062	correct	test	Phase3	test/STIM_011.jpg
1946.188	0.832	correct	test	Phase3	test/STIM_011.jpg
1949.66	0.728	correct	test	Phase3	test/STIM_011.jpg
1954.212	1.314	incorrect	test	Phase3	test/STIM_012.jpg
1958.573	0.671	correct	test	Phase3	test/STIM_012.jpg
1961.639	0.695	correct	test	Phase3	test/STIM_012.jpg
1964.925	0.687	correct	test	Phase3	test/STIM_013.jpg
1969.126	1.075	correct	test	Phase3	test/STIM_013.jpg
1973.183	0.669	incorrect	test	Phase3	test/STIM_013.jpg
1976.509	0.605	correct	test	Phase3	test/STIM_014.jpg
1979.199	0.973	correct	test	Phase3	test/STIM_014.jpg
1982.846	1.076	correct	test	Phase3	test/STIM_014.jpg
1986.602	1.352	correct	test	Phase3	test/STIM_015.jpg
1990.923	1.044	correct	test	Phase3	test/STIM_015.jpg
1993.978	0.64	correct	test	Phase3	test/STIM_015.jpg
1997.363	0.593	correct	test	Phase3	test/STIM_016.jpg
2000.262	1.426	correct	test	Phase3	test/STIM_016.jpg
2003.791	1.084	correct	test	Phase3	test/STIM_016.jpg
2007.981	1.039	correct	test	Phase3	test/STIM_017.jpg
2012.444	0.847	correct	test	Phase3	test/STIM_017.jpg
2017.113	0.751	correct	test	Phase3	test/STIM_017.jpg
2020.229	0.652	correct	test	Phase3	test/STIM_018.jpg
2022.937	0.749	correct	test	Phase3	test/STIM_018.jpg
2025.687	1.272	correct	test	Phase3	test/STIM_018.jpg
2029.636	1.391	correct	test	Phase3	test/STIM_019.jpg
2034.413	0.729	correct	test	Phase3	test/STIM_019.jpg
2039.038	0.819	correct	test	Phase3	test/STIM_019.jpg
2043.297	0.892	correct	test	Phase3	test/STIM_020.jpg
2046.306	0.696	correct	test	Phase3	test/STIM_020.jpg
2050.147	1.111	correct	test	Phase3	test/STIM_020.jpg
2054.269	0.886	correct	test	Phase3	test/STIM_021.jpg
2058.822	0.936	correct	test	Phase3	test/STIM_021.jpg
2061.786	0.95	correct	test	Phase3	test/STIM_021.jpg
2064.789	1.254	correct	test	Phase3	test/STIM_022.jpg
2068.598	1.201	correct	test	Phase3	test/STIM_022.jpg
2071.769	1.271	correct	test	Phase3	test/STIM_022.jpg
2076.691	1.27	correct	test	Phase3	test/STIM_023.jpg
2080.811	0.686	correct	test	Phase3	test/STIM_023.jpg
2084.901	0.806	incorrect	test	Phase3	test/STIM_023.jpg
2088.681	1.078	correct	test	Phase3	test/STIM_024.jpg
2093.175	1.198	correct	test	Phase3	test/STIM_024.jpg
2096.708	1.042	correct	test	Phase3	test/STIM_024.jpg
2101.631	1.049	correct	test	Phase3	test/STIM_025.jpg
2106.077	1.234	correct	test	Phase3	test/STIM_025.jpg
2110.067	0.915	correct	test	Phase3	test/STIM_025.jpg
2114.845	1.159	correct	test	Phase3	test/STIM_026.jpg
2118.867	0.567	correct	test	Phase3	test/STIM_026.jpg
2122.266	1.25	correct	test	Phase3	test/STIM_026.jpg
2125.766	1.008	correct	test	Phase3	test/STIM_027.jpg
2129.923	0.964	correct	test	Phase3	test/STIM_027.jpg
2133.355	1.245	correct	test	Phase3	test/STIM_027.jpg
2138.05	0.926	correct	test	Phase3	test/STIM_028.jpg
2143.014	1.121	incorrect	test	Phase3	test/STIM_028.jpg
2147.028	0.784	correct	test	Phase3	test/STIM_028.jpg
2150.929	1.214	correct	test	Phase3	test/STIM_029.jpg
2154.932	1.041	correct	test	Phase3	test/STIM_029.jpg
2158.197	0.69	correct	test	Phase3	test/STIM_029.jpg
