onset	duration	response_time_ms	trial_type	learning_stage	stimulus	response_port
0.0	2.562	2561.8	regulate	Run1	regulate/STIM_000.jpg	100
5.671	2.243	2243.2	regulate	Run1	regulate/STIM_000.jpg	99
10.812	2.352	2352.1	regulate	Run1	regulate/STIM_000.jpg	99
16.371	1.546	1546.4	regulate	Run1	regulate/STIM_000.jpg	100
21.372	2.219	2218.7	regulate	Run1	regulate/STIM_001.jpg	100
27.171	2.39	2390.4	regulate	Run1	regulate/STIM_001.jpg	99
31.669	3.015	3015.4	regulate	Run1	regulate/STIM_001.jpg	100
38.152	2.212	2212.3	regulate	Run1	regulate/STIM_001.jpg	99
43.359	2.224	2224.4	regulate	Run1	regulate/STIM_002.jpg	100
49.095	1.668	1667.9	regulate	Run1	regulate/STIM_002.jpg	99
53.387	2.684	2684.1	regulate	Run1	regulate/STIM_002.jpg	99
59.315	2.667	2666.6	regulate	Run1	regulate/STIM_002.jpg	99
65.073	1.8	1800.3	regulate	Run1	regulate/STIM_003.jpg	99
69.284	2.814	2814.4	regulate	Run1	regulate/STIM_003.jpg	100
76.044	2.502	2501.6	regulate	Run1	regulate/STIM_003.jpg	99
81.309	1.575	1575.4	regulate	Run1	regulate/STIM_003.jpg	100
85.747	1.87	1869.9	regulate	Run1	regulate/STIM_004.jpg	100
90.443	3.094	3094.1	regulate	Run1	regulate/STIM_004.jpg	100
96.202	1.807	1807.3	regulate	Run1	regulate/STIM_004.jpg	100
100.722	2.799	2798.8	regulate	Run1	regulate/STIM_004.jpg	100
106.087	2.088	2087.5	regulate	Run1	regulate/STIM_005.jpg	100
112.117	1.895	1895.1	regulate	Run1	regulate/STIM_005.jpg	99
117.908	3.126	3126.3	regulate	Run1	regulate/STIM_005.jpg	100
123.283	1.676	1675.9	regulate	Run1	regulate/STIM_005.jpg	100
128.711	2.82	2819.7	regulate	Run1	regulate/STIM_006.jpg	100
133.764	2.843	2843.3	regulate	Run1	regulate/STIM_006.jpg	99
139.376	2.171	2170.8	regulate	Run1	regulate/STIM_006.jpg	100
143.652	1.825	1824.9	regulate	Run1	regulate/STIM_006.jpg	100
148.088	1.949	1949.2	regulate	Run1	regulate/STIM_007.jpg	99
153.505	2.665	2664.6	regulate	Run1	regulate/STIM_007.jpg	100
158.14	2.694	2693.8	regulate	Run1	regulate/STIM_007.jpg	99
164.253	2.896	2896.5	regulate	Run1	regulate/STIM_007.jpg	100
170.561	2.624	2624.3	regulate	Run1	regulate/STIM_008.jpg	99
175.528	3.084	3083.6	regulate	Run1	regulate/STIM_008.jpg	99
181.807	2.397	2397.2	regulate	Run1	regulate/STIM_008.jpg	100
188.09	1.544	1544.5	regulate	Run1	regulate/STIM_008.jpg	100
191.814	3.066	3066.1	regulate	Run1	regulate/STIM_009.jpg	99
196.929	1.451	1450.9	regulate	Run1	regulate/STIM_009.jpg	99
201.349	2.607	2606.8	regulate	Run1	regulate/STIM_009.jpg	99
206.958	1.291	1291.3	regulate	Run1	regulate/STIM_009.jpg	100
211.366	2.701	2700.8	regulate	Run1	regulate/STIM_010.jpg	99
216.352	2.475	2474.8	regulate	Run1	regulate/STIM_010.jpg	99
222.111	2.545	2544.8	regulate	Run1	regulate/STIM_010.jpg	99
228.611	1.978	1978.0	regulate	Run1	regulate/STIM_010.jpg	99
234.445	1.824	1823.7	regulate	Run1	regulate/STIM_011.jpg	99
239.218	1.782	1781.8	regulate	Run1	regulate/STIM_011.jpg	100
244.485	2.293	2292.8	regulate	Run1	regulate/STIM_011.jpg	100
250.191	1.867	1867.4	regulate	Run1	regulate/STIM_011.jpg	99
255.611	2.686	2686.1	regulate	Run1	regulate/STIM_012.jpg	100
261.048	2.674	2674.2	regulate	Run1	regulate/STIM_012.jpg	99
267.121	2.971	2971.2	regulate	Run1	regulate/STIM_012.jpg	99
272.582	1.936	1936.3	regulate	Run1	regulate/STIM_012.jpg	99
276.774	1.886	1885.9	regulate	Run1	regulate/STIM_013.jpg	100
282.542	2.184	2183.5	regulate	Run1	regulate/STIM_013.jpg	99
288.088	2.689	2689.0	regulate	Run1	regulate/STIM_013.jpg	99
294.487	1.393	1392.7	regulate	Run1	regulate/STIM_013.jpg	99
298.382	2.641	2641.1	regulate	Run1	regulate/STIM_014.jpg	99
304.402	2.061	2061.1	regulate	Run1	regulate/STIM_014.jpg	100
309.67	1.816	1815.7	regulate	Run1	regulate/STIM_014.jpg	99
314.924	1.413	1413.0	regulate	Run1	regulate/STIM_014.jpg	100
319.042	3.214	3214.4	regulate	Run1	regulate/STIM_015.jpg	100
324.714	2.616	2616.1	regulate	Run1	regulate/STIM_015.jpg	99
330.292	2.296	2295.6	regulate	Run1	regulate/STIM_015.jpg	100
336.095	2.747	2746.9	regulate	Run1	regulate/STIM_015.jpg	99
342.716	3.088	3088.0	regulate	Run1	regulate/STIM_016.jpg	100
348.833	2.452	2451.6	regulate	Run1	regulate/STIM_016.jpg	99
353.82	3.026	3026.2	regulate	Run1	regulate/STIM_016.jpg	99
359.314	2.552	2552.5	regulate	Run1	regulate/STIM_016.jpg	99
365.073	3.473	3472.7	regulate	Run1	regulate/STIM_017.jpg	99
370.511	1.67	1670.5	regulate	Run1	regulate/STIM_017.jpg	99
374.294	2.132	2131.7	regulate	Run1	regulate/STIM_017.jpg	99
379.16	1.763	1762.9	regulate	Run1	regulate/STIM_017.jpg	99
383.868	2.87	2869.7	regulate	Run1	regulate/STIM_018.jpg	99
390.651	2.224	2224.5	regulate	Run1	regulate/STIM_018.jpg	99
395.324	1.6	1600.1	regulate	Run1	regulate/STIM_018.jpg	100
400.583	1.622	1622.0	regulate	Run1	regulate/STIM_018.jpg	100
404.405	3.408	3408.0	regulate	Run1	regulate/STIM_019.jpg	100
410.079	2.628	2628.4	regulate	Run1	regulate/STIM_019.jpg	99
415.046	2.337	2336.9	regulate	Run1	regulate/STIM_019.jpg	100
420.614	1.577	1577.0	regulate	Run1	regulate/STIM_019.jpg	99
425.997	1.822	1822.4	regulate	Run1	regulate/STIM_020.jpg	99
431.264	3.019	3019.0	regulate	Run1	regulate/STIM_020.jpg	99
437.948	2.92	2920.2	regulate	Run1	regulate/STIM_020.jpg	100
443.891	2.912	2911.6	regulate	Run1	regulate/STIM_020.jpg	100
449.093	1.976	1976.1	regulate	Run1	regulate/STIM_021.jpg	100
454.185	2.175	2174.6	regulate	Run1	regulate/STIM_021.jpg	100
459.42	2.207	2206.7	regulate	Run1	regulate/STIM_021.jpg	99
464.572	1.563	1562.7	regulate	Run1	regulate/STIM_021.jpg	99
468.72	2.995	2995.2	regulate	Run1	regulate/STIM_022.jpg	99
475.49	2.222	2221.6	regulate	Run1	regulate/STIM_022.jpg	100
481.324	1.436	1436.1	regulate	Run1	regulate/STIM_022.jpg	100
485.657	2.602	2602.5	regulate	Run1	regulate/STIM_022.jpg	99
491.943	2.402	2402.2	regulate	Run1	regulate/STIM_023.jpg	99
498.285	3.194	3193.5	regulate	Run1	regulate/STIM_023.jpg	100
503.534	1.562	1561.8	regulate	Run1	regulate/STIM_023.jpg	100
508.523	2.802	2802.2	regulate	Run1	regulate/STIM_023.jpg	100
515.039	2.372	2372.0	regulate	Run1	regulate/STIM_024.jpg	99
520.397	2.442	2441.8	regulate	Run1	regulate/STIM_024.jpg	100
525.682	2.626	2626.4	regulate	Run1	regulate/STIM_024.jpg	100
531.278	1.626	1625.9	regulate	Run1	regulate/STIM_024.jpg	99
536.862	2.476	2476.3	regulate	Run1	regulate/STIM_025.jpg	100
542.153	2.951	2951.3	regulate	Run1	regulate/STIM_025.jpg	100
547.352	2.034	2034.2	regulate	Run1	regulate/STIM_025.jpg	99
551.539	1.72	1720.4	regulate	Run1	regulate/STIM_025.jpg	99
555.369	1.623	1623.0	regulate	Run1	regulate/STIM_026.jpg	99
559.371	2.473	2473.4	regulate	Run1	regulate/STIM_026.jpg	100
564.354	2.586	2586.3	regulate	Run1	regulate/STIM_026.jpg	100
570.556	1.631	1631.3	regulate	Run1	regulate/STIM_026.jpg	100
575.922	3.049	3049.1	regulate	Run1	regulate/STIM_027.jpg	100
581.749	3.246	3246.3	regulate	Run1	regulate/STIM_027.jpg	100
587.814	2.883	2882.6	regulate	Run1	regulate/STIM_027.jpg	99
593.678	1.545	1544.8	regulate	Run1	regulate/STIM_027.jpg	100
598.16	1.754	1754.5	regulate	Run1	regulate/STIM_028.jpg	100
602.88	1.833	1832.8	regulate	Run1	regulate/STIM_028.jpg	100
607.086	1.756	1755.8	regulate	Run1	regulate/STIM_028.jpg	99
612.565	1.707	1706.7	regulate	Run1	regulate/STIM_028.jpg	100
616.518	2.468	2468.0	regulate	Run1	regulate/STIM_029.jpg	99
622.142	2.278	2278.2	regulate	Run1	regulate/STIM_029.jpg	99
628.386	2.362	2362.3	regulate	Run1	regulate/STIM_029.jpg	99
633.718	2.372	2371.5	regulate	Run1	regulate/STIM_029.jpg	99
639.071	0.933	933.3	observe	Run1	observe/STIM_000.jpg	100
642.785	0.903	903.1	observe	Run1	observe/STIM_000.jpg	99
646.324	0.856	855.5	observe	Run1	observe/STIM_000.jpg	100
650.441	1.569	1569.2	observe	Run1	observe/STIM_000.jpg	100
654.7	0.886	886.0	observe	Run1	observe/STIM_001.jpg	99
657.831	1.494	1494.1	observe	Run1	observe/STIM_001.jpg	100
662.521	1.57	1569.7	observe	Run1	observe/STIM_001.jpg	100
666.444	0.9	899.7	observe	Run1	observe/STIM_001.jpg	100
671.275	1.615	1614.7	observe	Run1	observe/STIM_002.jpg	100
675.625	1.576	1576.0	observe	Run1	observe/STIM_002.jpg	99
679.443	1.35	1349.8	observe	Run1	observe/STIM_002.jpg	99
683.051	1.39	1390.5	observe	Run1	observe/STIM_002.jpg	99
687.364	1.329	1328.7	observe	Run1	observe/STIM_003.jpg	100
692.082	1.294	1293.8	observe	Run1	observe/STIM_003.jpg	100
696.01	1.487	1487.1	observe	Run1	observe/STIM_003.jpg	99
700.727	1.1	1100.2	observe	Run1	observe/STIM_003.jpg	100
704.421	1.374	1374.0	observe	Run1	observe/STIM_004.jpg	99
708.523	0.935	935.4	observe	Run1	observe/STIM_004.jpg	99
711.704	0.816	816.1	observe	Run1	observe/STIM_004.jpg	99
715.033	0.818	818.5	observe	Run1	observe/STIM_004.jpg	100
718.513	1.192	1192.0	observe	Run1	observe/STIM_005.jpg	100
722.915	1.386	1386.4	observe	Run1	observe/STIM_005.jpg	99
728.053	1.098	1098.0	observe	Run1	observe/STIM_005.jpg	99
732.985	0.971	971.0	observe	Run1	observe/STIM_005.jpg	99
736.633	1.46	1459.7	observe	Run1	observe/STIM_006.jpg	99
741.489	1.003	1003.0	observe	Run1	observe/STIM_006.jpg	99
745.567	0.938	937.6	observe	Run1	observe/STIM_006.jpg	99
749.956	0.941	940.6	observe	Run1	observe/STIM_006.jpg	99
754.496	1.576	1576.1	observe	Run1	observe/STIM_007.jpg	100
759.026	0.964	964.5	observe	Run1	observe/STIM_007.jpg	100
763.008	0.913	912.8	observe	Run1	observe/STIM_007.jpg	100
766.747	1.102	1101.7	observe	Run1	observe/STIM_007.jpg	100
769.886	1.092	1092.3	observe	Run1	observe/STIM_008.jpg	99
773.032	1.15	1149.6	observe	Run1	observe/STIM_008.jpg	100
776.919	0.825	824.6	observe	Run1	observe/STIM_008.jpg	100
780.864	1.04	1040.5	observe	Run1	observe/STIM_008.jpg	100
785.053	1.171	1171.0	observe	Run1	observe/STIM_009.jpg	100
789.098	1.518	1517.5	observe	Run1	observe/STIM_009.jpg	100
793.149	0.822	822.2	observe	Run1	observe/STIM_009.jpg	99
797.583	1.453	1453.3	observe	Run1	observe/STIM_009.jpg	99
802.297	1.0	999.7	observe	Run1	observe/STIM_010.jpg	99
807.17	1.188	1188.3	observe	Run1	observe/STIM_010.jpg	100
811.589	0.848	848.1	observe	Run1	observe/STIM_010.jpg	99
815.799	0.866	865.8	observe	Run1	observe/STIM_010.jpg	100
819.665	0.879	879.2	observe	Run1	observe/STIM_011.jpg	100
823.322	1.369	1369.2	observe	Run1	observe/STIM_011.jpg	99
826.717	1.148	1147.5	observe	Run1	observe/STIM_011.jpg	100
831.613	1.606	1606.4	observe	Run1	observe/STIM_011.jpg	99
835.245	1.232	1232.0	observe	Run1	observe/STIM_012.jpg	99
840.298	1.312	1311.7	observe	Run1	observe/STIM_012.jpg	99
844.749	1.073	1073.1	observe	Run1	observe/STIM_012.jpg	99
848.914	1.297	1296.8	observe	Run1	observe/STIM_012.jpg	99
852.508	1.198	1197.8	observe	Run1	observe/STIM_013.jpg	99
856.683	1.355	1355.2	observe	Run1	observe/STIM_013.jpg	99
860.483	1.469	1468.7	observe	Run1	observe/STIM_013.jpg	99
863.998	0.939	938.9	observe	Run1	observe/STIM_013.jpg	99
867.275	0.928	927.5	observe	Run1	observe/STIM_014.jpg	100
871.234	1.005	1005.2	observe	Run1	observe/STIM_014.jpg	99
874.247	0.875	874.9	observe	Run1	observe/STIM_014.jpg	99
877.488	0.998	998.4	observe	Run1	observe/STIM_014.jpg	99
881.179	1.536	1536.4	observe	Run1	observe/STIM_015.jpg	100
884.725	1.382	1382.3	observe	Run1	observe/STIM_015.jpg	100
888.723	1.554	1554.2	observe	Run1	observe/STIM_015.jpg	100
893.137	1.319	1318.9	observe	Run1	observe/STIM_015.jpg	100
897.713	1.364	1363.9	observe	Run1	observe/STIM_016.jpg	99
901.152	1.592	1592.5	observe	Run1	observe/STIM_016.jpg	100
906.511	1.121	1121.3	observe	Run1	observe/STIM_016.jpg	99
909.846	1.17	1170.0	observe	Run1	observe/STIM_016.jpg	99
913.397	1.173	1173.2	observe	Run1	observe/STIM_017.jpg	100
917.842	0.944	944.4	observe	Run1	observe/STIM_017.jpg	99
921.139	1.026	1026.2	observe	Run1	observe/STIM_017.jpg	100
924.871	1.13	1129.6	observe	Run1	observe/STIM_017.jpg	100
929.758	0.969	969.3	observe	Run1	observe/STIM_018.jpg	100
933.208	0.878	878.4	observe	Run1	observe/STIM_018.jpg	99
936.59	1.076	1076.3	observe	Run1	observe/STIM_018.jpg	100
940.857	1.297	1296.6	observe	Run1	observe/STIM_018.jpg	100
945.582	1.368	1367.6	observe	Run1	observe/STIM_019.jpg	100
949.371	1.52	1520.5	observe	Run1	observe/STIM_019.jpg	100
953.514	1.526	1526.4	observe	Run1	observe/STIM_019.jpg	100
958.018	1.004	1003.8	observe	Run1	observe/STIM_019.jpg	99
961.693	1.74	1739.8	regulate	Run2	regulate/STIM_000.jpg	99
965.858	1.74	1740.3	regulate	Run2	regulate/STIM_000.jpg	99
969.606	2.259	2259.2	regulate	Run2	regulate/STIM_000.jpg	100
974.167	2.103	2103.3	regulate	Run2	regulate/STIM_000.jpg	100
979.772	1.79	1790.2	regulate	Run2	regulate/STIM_001.jpg	99
983.544	1.812	1811.9	regulate	Run2	regulate/STIM_001.jpg	100
988.003	2.513	2513.3	regulate	Run2	regulate/STIM_001.jpg	99
993.806	1.688	1687.6	regulate	Run2	regulate/STIM_001.jpg	100
998.303	1.293	1293.1	regulate	Run2	regulate/STIM_002.jpg	100
1002.651	2.717	2716.8	regulate	Run2	regulate/STIM_002.jpg	99
1009.249	1.353	1353.4	regulate	Run2	regulate/STIM_002.jpg	100
1014.164	1.977	1977.3	regulate	Run2	regulate/STIM_002.jpg	99
1018.807	1.965	1964.9	regulate	Run2	regulate/STIM_003.jpg	100
1024.46	2.022	2021.7	regulate	Run2	regulate/STIM_003.jpg	100
1030.334	1.956	1956.5	regulate	Run2	regulate/STIM_003.jpg	99
1035.137	1.609	1609.0	regulate	Run2	regulate/STIM_003.jpg	100
1040.289	2.314	2313.9	regulate	Run2	regulate/STIM_004.jpg	100
1046.311	1.298	1297.7	regulate	Run2	regulate/STIM_004.jpg	99
1049.635	2.311	2310.7	regulate	Run2	regulate/STIM_004.jpg	100
1055.42	1.453	1453.3	regulate	Run2	regulate/STIM_004.jpg	100
1059.072	2.817	2817.0	regulate	Run2	regulate/STIM_005.jpg	100
1064.174	1.301	1300.6	regulate	Run2	regulate/STIM_005.jpg	99
1067.655	1.452	1451.5	regulate	Run2	regulate/STIM_005.jpg	99
1072.409	1.267	1266.7	regulate	Run2	regulate/STIM_005.jpg	100
1076.002	1.887	1887.0	regulate	Run2	regulate/STIM_006.jpg	100
1081.326	2.834	2833.7	regulate	Run2	regulate/STIM_006.jpg	100
1086.335	2.624	2624.2	regulate	Run2	regulate/STIM_006.jpg	99
1091.137	2.112	2111.5	regulate	Run2	regulate/STIM_006.jpg	100
1095.51	1.555	1555.2	regulate	Run2	regulate/STIM_007.jpg	99
1100.877	2.599	2599.3	regulate	Run2	regulate/STIM_007.jpg	99
1106.229	1.812	1811.7	regulate	Run2	regulate/STIM_007.jpg	99
1111.022	2.257	2257.3	regulate	Run2	regulate/STIM_007.jpg	99
1115.393	2.946	2945.5	regulate	Run2	regulate/STIM_008.jpg	99
1121.959	1.294	1293.8	regulate	Run2	regulate/STIM_008.jpg	100
1126.195	2.64	2640.5	regulate	Run2	regulate/STIM_008.jpg	99
1132.557	1.951	1951.3	regulate	Run2	regulate/STIM_008.jpg	100
1138.113	1.697	1697.3	regulate	Run2	regulate/STIM_009.jpg	100
1143.759	2.165	2165.4	regulate	Run2	regulate/STIM_009.jpg	100
1148.033	2.537	2537.4	regulate	Run2	regulate/STIM_009.jpg	99
1154.371	2.233	2233.2	regulate	Run2	regulate/STIM_009.jpg	100
1158.698	1.346	1345.6	regulate	Run2	regulate/STIM_010.jpg	99
1163.572	1.745	1744.9	regulate	Run2	regulate/STIM_010.jpg	100
1167.497	1.81	1809.5	regulate	Run2	regulate/STIM_010.jpg	100
1171.49	1.077	1076.7	regulate	Run2	regulate/STIM_010.jpg	100
1176.198	2.146	2145.5	regulate	Run2	regulate/STIM_011.jpg	100
1181.902	1.268	1268.4	regulate	Run2	regulate/STIM_011.jpg	99
1186.419	2.486	2485.5	regulate	Run2	regulate/STIM_011.jpg	100
1191.858	1.649	1649.4	regulate	Run2	regulate/STIM_011.jpg	99
1196.475	2.9	2900.4	regulate	Run2	regulate/STIM_012.jpg	99
1202.935	1.57	1569.5	regulate	Run2	regulate/STIM_012.jpg	99
1208.114	1.233	1233.2	regulate	Run2	regulate/STIM_012.jpg	100
1211.493	1.388	1388.5	regulate	Run2	regulate/STIM_012.jpg	100
1216.852	2.943	2943.3	regulate	Run2	regulate/STIM_013.jpg	99
1222.238	2.515	2514.7	regulate	Run2	regulate/STIM_013.jpg	99
1228.542	1.647	1646.8	regulate	Run2	regulate/STIM_013.jpg	100
1233.747	1.711	1711.4	regulate	Run2	regulate/STIM_013.jpg	100
1237.563	2.085	2085.2	regulate	Run2	regulate/STIM_014.jpg	100
1241.97	1.935	1935.4	regulate	Run2	regulate/STIM_014.jpg	99
1246.366	1.621	1620.8	regulate	Run2	regulate/STIM_014.jpg	100
1251.823	1.087	1087.2	regulate	Run2	regulate/STIM_014.jpg	100
1255.152	2.788	2788.4	regulate	Run2	regulate/STIM_015.jpg	100
1260.565	2.598	2598.0	regulate	Run2	regulate/STIM_015.jpg	99
1267.043	1.744	1743.9	regulate	Run2	regulate/STIM_015.jpg	100
1271.428	2.401	2401.0	regulate	Run2	regulate/STIM_015.jpg	99
1277.103	1.696	1696.4	regulate	Run2	regulate/STIM_016.jpg	100
1282.19	1.395	1394.6	regulate	Run2	regulate/STIM_016.jpg	99
1287.131	2.361	2361.2	regulate	Run2	regulate/STIM_016.jpg	100
1292.08	2.474	2473.8	regulate	Run2	regulate/STIM_016.jpg	99
1297.132	1.496	1496.2	regulate	Run2	regulate/STIM_017.jpg	100
1301.844	1.717	1716.9	regulate	Run2	regulate/STIM_017.jpg	99
1307.409	2.418	2418.1	regulate	Run2	regulate/STIM_017.jpg	99
1312.474	2.355	2354.7	regulate	Run2	regulate/STIM_017.jpg	100
1316.971	1.429	1428.6	regulate	Run2	regulate/STIM_018.jpg	99
1320.416	2.584	2583.6	regulate	Run2	regulate/STIM_018.jpg	100
1325.352	1.61	1609.9	regulate	Run2	regulate/STIM_018.jpg	99
1330.44	2.352	2352.5	regulate	Run2	regulate/STIM_018.jpg	100
1335.582	2.56	2559.9	regulate	Run2	regulate/STIM_019.jpg	100
1341.904	1.512	1511.7	regulate	Run2	regulate/STIM_019.jpg	99
1346.111	2.31	2309.6	regulate	Run2	regulate/STIM_019.jpg	100
1352.07	1.955	1955.2	regulate	Run2	regulate/STIM_019.jpg	100
1356.157	1.96	1959.5	regulate	Run2	regulate/STIM_020.jpg	99
1360.348	1.274	1273.9	regulate	Run2	regulate/STIM_020.jpg	100
1363.845	1.286	1285.5	regulate	Run2	regulate/STIM_020.jpg	100
1368.87	2.353	2352.9	regulate	Run2	regulate/STIM_020.jpg	100
1373.212	1.795	1795.0	regulate	Run2	regulate/STIM_021.jpg	99
1378.686	2.542	2541.9	regulate	Run2	regulate/STIM_021.jpg	100
1384.753	1.778	1778.4	regulate	Run2	regulate/STIM_021.jpg	100
1390.183	1.681	1680.8	regulate	Run2	regulate/STIM_021.jpg	100
1395.205	2.437	2436.8	regulate	Run2	regulate/STIM_022.jpg	99
1399.749	1.575	1574.9	regulate	Run2	regulate/STIM_022.jpg	100
1404.513	1.729	1728.8	regulate	Run2	regulate/STIM_022.jpg	100
1408.947	1.318	1318.3	regulate	Run2	regulate/STIM_022.jpg	99
1413.859	2.736	2736.4	regulate	Run2	regulate/STIM_023.jpg	99
1420.151	1.425	1424.6	regulate	Run2	regulate/STIM_023.jpg	100
1423.746	1.814	1814.3	regulate	Run2	regulate/STIM_023.jpg	100
1427.63	1.389	1389.0	regulate	Run2	regulate/STIM_023.jpg	100
1432.326	2.817	2816.9	regulate	Run2	regulate/STIM_024.jpg	99
1438.469	1.494	1494.0	regulate	Run2	regulate/STIM_024.jpg	99
1443.628	2.02	2019.9	regulate	Run2	regulate/STIM_024.jpg	99
1449.237	1.275	1275.0	regulate	Run2	regulate/STIM_024.jpg	99
1453.809	1.837	1836.6	regulate	Run2	regulate/STIM_025.jpg	99
1458.652	2.53	2529.8	regulate	Run2	regulate/STIM_025.jpg	100
1464.762	2.064	2063.6	regulate	Run2	regulate/STIM_025.jpg	99
1469.93	1.091	1091.0	regulate	Run2	regulate/STIM_025.jpg	100
1473.02	1.902	1901.8	regulate	Run2	regulate/STIM_026.jpg	99
1477.11	2.422	2422.1	regulate	Run2	regulate/STIM_026.jpg	99
1483.3	2.647	2647.2	regulate	Run2	regulate/STIM_026.jpg	99
1489.851	1.472	1471.9	regulate	Run2	regulate/STIM_026.jpg	99
1494.066	1.531	1531.2	regulate	Run2	regulate/STIM_027.jpg	100
1499.466	1.577	1577.4	regulate	Run2	regulate/STIM_027.jpg	100
1504.879	1.82	1820.0	regulate	Run2	regulate/STIM_027.jpg	100
1509.083	2.009	2009.0	regulate	Run2	regulate/STIM_027.jpg	100
1513.482	1.354	1354.5	regulate	Run2	regulate/STIM_028.jpg	100
1517.997	1.987	1986.9	regulate	Run2	regulate/STIM_028.jpg	99
1523.751	1.656	1656.0	regulate	Run2	regulate/STIM_028.jpg	100
1528.722	1.079	1079.1	regulate	Run2	regulate/STIM_028.jpg	100
1533.61	1.513	1512.9	regulate	Run2	regulate/STIM_029.jpg	99
1538.971	1.574	1574.0	regulate	Run2	regulate/STIM_029.jpg	100
1542.636	2.082	2081.5	regulate	Run2	regulate/STIM_029.jpg	99
1548.383	2.421	2420.8	regulate	Run2	regulate/STIM_029.jpg	100
1553.473	1.076	1075.7	observe	Run2	observe/STIM_000.jpg	100
1556.844	0.974	973.6	observe	Run2	observe/STIM_000.jpg	99
1560.491	1.264	1263.6	observe	Run2	observe/STIM_000.jpg	99
1565.387	1.407	1406.8	observe	Run2	observe/STIM_000.jpg	100
1569.934	1.575	1574.9	observe	Run2	observe/STIM_001.jpg	99
1574.928	1.452	1452.5	observe	Run2	observe/STIM_001.jpg	100
1579.492	1.483	1483.1	observe	Run2	observe/STIM_001.jpg	99
1584.931	1.05	1050.1	observe	Run2	observe/STIM_001.jpg	100
1588.167	1.521	1521.2	observe	Run2	observe/STIM_002.jpg	100
1593.506	1.614	1613.8	observe	Run2	observe/STIM_002.jpg	99
1597.429	1.442	1441.8	observe	Run2	observe/STIM_002.jpg	100
1601.56	1.449	1449.1	observe	Run2	observe/STIM_002.jpg	100
1606.847	1.119	1119.2	observe	Run2	observe/STIM_003.jpg	99
1610.9	1.353	1353.1	observe	Run2	observe/STIM_003.jpg	99
1615.128	0.861	860.6	observe	Run2	observe/STIM_003.jpg	100
1619.201	1.129	1129.1	observe	Run2	observe/STIM_003.jpg	100
1622.87	1.232	1232.0	observe	Run2	observe/STIM_004.jpg	99
1627.341	1.547	1546.9	observe	Run2	observe/STIM_004.jpg	100
1631.135	1.463	1463.3	observe	Run2	observe/STIM_004.jpg	99
1635.871	0.896	895.7	observe	Run2	observe/STIM_004.jpg	99
1640.255	1.336	1336.1	observe	Run2	observe/STIM_005.jpg	99
1644.358	0.86	860.5	observe	Run2	observe/STIM_005.jpg	100
1648.168	1.327	1327.0	observe	Run2	observe/STIM_005.jpg	99
1652.688	1.184	1184.5	observe	Run2	observe/STIM_005.jpg	99
1656.474	1.065	1065.1	observe	Run2	observe/STIM_006.jpg	100
1660.827	1.004	1003.7	observe	Run2	observe/STIM_006.jpg	99
1665.324	1.257	1256.9	observe	Run2	observe/STIM_006.jpg	100
1669.562	1.522	1522.3	observe	Run2	observe/STIM_006.jpg	100
1674.744	1.106	1106.3	observe	Run2	observe/STIM_007.jpg	100
1678.357	1.459	1458.8	observe	Run2	observe/STIM_007.jpg	99
1682.505	0.861	861.4	observe	Run2	observe/STIM_007.jpg	99
1686.412	1.591	1591.3	observe	Run2	observe/STIM_007.jpg	99
1691.12	0.964	963.5	observe	Run2	observe/STIM_008.jpg	100
1695.201	1.27	1270.3	observe	Run2	observe/STIM_008.jpg	99
1700.064	1.245	1244.7	observe	Run2	observe/STIM_008.jpg	100
1705.26	1.452	1451.8	observe	Run2	observe/STIM_008.jpg	100
1709.715	1.317	1317.0	observe	Run2	observe/STIM_009.jpg	99
1713.595	1.128	1128.4	observe	Run2	observe/STIM_009.jpg	99
1717.913	0.819	819.3	observe	Run2	observe/STIM_009.jpg	100
1722.532	0.942	942.0	observe	Run2	observe/STIM_009.jpg	100
1726.027	1.004	1003.5	observe	Run2	observe/STIM_010.jpg	100
1730.237	1.617	1617.2	observe	Run2	observe/STIM_010.jpg	100
1734.389	0.914	914.3	observe	Run2	observe/STIM_010.jpg	99
1738.294	1.532	1531.9	observe	Run2	observe/STIM_010.jpg	100
1743.562	1.347	1347.3	observe	Run2	observe/STIM_011.jpg	100
1747.196	0.846	845.6	observe	Run2	observe/STIM_011.jpg	100
1751.17	1.394	1394.3	observe	Run2	observe/STIM_011.jpg	100
1755.418	1.074	1074.4	observe	Run2	observe/STIM_011.jpg	99
1759.401	1.011	1010.7	observe	Run2	observe/STIM_012.jpg	99
1763.5	1.332	1331.8	observe	Run2	observe/STIM_012.jpg	99
1766.894	1.411	1410.9	observe	Run2	observe/STIM_012.jpg	100
1771.772	1.232	1231.9	observe	Run2	observe/STIM_012.jpg	99
1775.645	1.373	1372.6	observe	Run2	observe/STIM_013.jpg	99
1780.847	1.498	1498.4	observe	Run2	observe/STIM_013.jpg	100
1784.719	0.967	967.0	observe	Run2	observe/STIM_013.jpg	100
1788.535	0.932	931.5	observe	Run2	observe/STIM_013.jpg	99
1791.638	1.111	1111.1	observe	Run2	observe/STIM_014.jpg	100
1796.478	1.047	1047.4	observe	Run2	observe/STIM_014.jpg	100
1799.63	0.971	971.0	observe	Run2	observe/STIM_014.jpg	99
1803.905	0.877	877.4	observe	Run2	observe/STIM_014.jpg	99
1806.944	1.423	1422.6	observe	Run2	observe/STIM_015.jpg	100
1811.84	1.243	1243.2	observe	Run2	observe/STIM_015.jpg	99
1816.328	0.991	990.7	observe	Run2	observe/STIM_015.jpg	100
1821.082	1.188	1187.5	observe	Run2	observe/STIM_015.jpg	100
1825.098	1.383	1383.2	observe	Run2	observe/STIM_016.jpg	99
1829.683	1.489	1488.7	observe	Run2	observe/STIM_016.jpg	99
1834.772	1.619	1618.7	observe	Run2	observe/STIM_016.jpg	100
1838.828	1.498	1497.8	observe	Run2	observe/STIM_016.jpg	99
1844.023	1.564	1564.3	observe	Run2	observe/STIM_017.jpg	100
1848.77	1.521	1521.0	observe	Run2	observe/STIM_017.jpg	100
1852.755	1.1	1100.5	observe	Run2	observe/STIM_017.jpg	99
1856.713	1.357	1357.3	observe	Run2	observe/STIM_017.jpg	99
1860.698	1.496	1496.3	observe	Run2	observe/STIM_018.jpg	99
1864.393	1.534	1534.5	observe	Run2	observe/STIM_018.jpg	100
1869.887	1.034	1034.2	observe	Run2	observe/STIM_018.jpg	99
1874.379	1.492	1491.8	observe	Run2	observe/STIM_018.jpg	99
1877.918	0.89	890.0	observe	Run2	observe/STIM_019.jpg	99
1881.908	1.148	1147.6	observe	Run2	observe/STIM_019.jpg	99
1886.872	1.564	1563.7	observe	Run2	observe/STIM_019.jpg	100
1891.106	1.143	1143.1	observe	Run2	observe/STIM_019.jpg	100
1895.239	1.752	1752.2	regulate	Run3	regulate/STIM_000.jpg	100
1899.326	1.764	1763.7	regulate	Run3	regulate/STIM_000.jpg	100
1903.678	1.081	1081.2	regulate	Run3	regulate/STIM_000.jpg	100
1908.341	2.055	2054.6	regulate	Run3	regulate/STIM_000.jpg	99
1913.524	2.378	2378.1	regulate	Run3	regulate/STIM_001.jpg	99
1918.872	1.468	1467.8	regulate	Run3	regulate/STIM_001.jpg	99
1922.54	2.099	2099.4	regulate	Run3	regulate/STIM_001.jpg	99
1927.428	2.288	2288.4	regulate	Run3	regulate/STIM_001.jpg	100
1933.021	2.384	2383.7	regulate	Run3	regulate/STIM_002.jpg	99
1938.499	1.657	1657.0	regulate	Run3	regulate/STIM_002.jpg	99
1943.874	1.248	1248.2	regulate	Run3	regulate/STIM_002.jpg	99
1947.21	2.424	2424.4	regulate	Run3	regulate/STIM_002.jpg	100
1952.655	1.095	1094.9	regulate	Run3	regulate/STIM_003.jpg	100
1956.769	1.188	1188.2	regulate	Run3	regulate/STIM_003.jpg	100
1960.179	1.146	1146.1	regulate	Run3	regulate/STIM_003.jpg	99
1963.986	1.985	1984.9	regulate	Run3	regulate/STIM_003.jpg	100
1969.472	1.592	1592.1	regulate	Run3	regulate/STIM_004.jpg	100
1973.57	1.502	1502.1	regulate	Run3	regulate/STIM_004.jpg	99
1977.733	1.723	1722.6	regulate	Run3	regulate/STIM_004.jpg	100
1981.951	1.331	1331.1	regulate	Run3	regulate/STIM_004.jpg	100
1986.343	1.247	1247.2	regulate	Run3	regulate/STIM_005.jpg	99
1991.09	2.43	2430.4	regulate	Run3	regulate/STIM_005.jpg	100
1996.342	1.759	1758.6	regulate	Run3	regulate/STIM_005.jpg	100
2000.283	1.485	1484.9	regulate	Run3	regulate/STIM_005.jpg	99
2005.229	1.79	1789.9	regulate	Run3	regulate/STIM_006.jpg	100
2010.496	1.393	1393.4	regulate	Run3	regulate/STIM_006.jpg	99
2015.079	2.467	2466.7	regulate	Run3	regulate/STIM_006.jpg	100
2021.328	2.466	2466.1	regulate	Run3	regulate/STIM_006.jpg	99
2026.439	1.09	1090.4	regulate	Run3	regulate/STIM_007.jpg	99
2030.708	2.117	2117.0	regulate	Run3	regulate/STIM_007.jpg	100
2036.076	1.683	1683.3	regulate	Run3	regulate/STIM_007.jpg	100
2040.535	2.372	2371.5	regulate	Run3	regulate/STIM_007.jpg	99
2046.128	2.265	2264.8	regulate	Run3	regulate/STIM_008.jpg	100
2051.222	1.786	1786.1	regulate	Run3	regulate/STIM_008.jpg	99
2056.006	2.122	2122.4	regulate	Run3	regulate/STIM_008.jpg	99
2061.886	2.233	2232.8	regulate	Run3	regulate/STIM_008.jpg	99
2067.832	1.842	1842.1	regulate	Run3	regulate/STIM_009.jpg	99
2072.735	1.821	1820.9	regulate	Run3	regulate/STIM_009.jpg	100
2077.616	1.064	1064.4	regulate	Run3	regulate/STIM_009.jpg	100
2080.929	1.077	1076.6	regulate	Run3	regulate/STIM_009.jpg	100
2085.957	1.361	1361.0	regulate	Run3	regulate/STIM_010.jpg	100
2089.797	1.739	1739.0	regulate	Run3	regulate/STIM_010.jpg	99
2095.285	1.137	1137.3	regulate	Run3	regulate/STIM_010.jpg	99
2099.561	1.661	1661.1	regulate	Run3	regulate/STIM_010.jpg	100
2104.511	1.596	1595.8	regulate	Run3	regulate/STIM_011.jpg	100
2110.059	2.271	2271.2	regulate	Run3	regulate/STIM_011.jpg	99
2116.074	1.318	1318.4	regulate	Run3	regulate/STIM_011.jpg	100
2119.525	1.318	1317.8	regulate	Run3	regulate/STIM_011.jpg	99
2124.009	1.077	1076.6	regulate	Run3	regulate/STIM_012.jpg	99
2128.195	2.197	2197.0	regulate	Run3	regulate/STIM_012.jpg	99
2133.178	1.624	1624.5	regulate	Run3	regulate/STIM_012.jpg	100
2137.007	1.972	1972.1	regulate	Run3	regulate/STIM_012.jpg	99
2141.569	1.749	1749.3	regulate	Run3	regulate/STIM_013.jpg	99
2146.805	2.032	2032.0	regulate	Run3	regulate/STIM_013.jpg	100
2152.219	1.493	1492.7	regulate	Run3	regulate/STIM_013.jpg	99
2156.027	1.984	1984.3	regulate	Run3	regulate/STIM_013.jpg	100
2161.707	2.276	2276.0	regulate	Run3	regulate/STIM_014.jpg	99
2166.96	1.825	1825.3	regulate	Run3	regulate/STIM_014.jpg	99
2172.372	1.293	1292.8	regulate	Run3	regulate/STIM_014.jpg	100
2175.997	1.909	1908.7	regulate	Run3	regulate/STIM_014.jpg	99
2179.907	1.673	1673.4	regulate	Run3	regulate/STIM_015.jpg	100
2183.756	2.214	2213.5	regulate	Run3	regulate/STIM_015.jpg	100
2187.985	1.294	1294.0	regulate	Run3	regulate/STIM_015.jpg	99
2192.744	2.002	2002.4	regulate	Run3	regulate/STIM_015.jpg	100
2196.86	1.308	1307.6	regulate	Run3	regulate/STIM_016.jpg	99
2200.617	1.294	1294.4	regulate	Run3	regulate/STIM_016.jpg	99
2204.472	2.122	2122.1	regulate	Run3	regulate/STIM_016.jpg	100
2209.52	1.784	1784.1	regulate	Run3	regulate/STIM_016.jpg	100
2213.916	1.233	1232.6	regulate	Run3	regulate/STIM_017.jpg	99
2218.293	1.81	1809.8	regulate	Run3	regulate/STIM_017.jpg	99
2222.147	1.893	1892.9	regulate	Run3	regulate/STIM_017.jpg	99
2227.03	1.091	1090.7	regulate	Run3	regulate/STIM_017.jpg	100
2231.479	1.285	1285.3	regulate	Run3	regulate/STIM_018.jpg	99
2235.817	1.231	1230.8	regulate	Run3	regulate/STIM_018.jpg	100
2240.058	1.406	1405.6	regulate	Run3	regulate/STIM_018.jpg	100
2243.969	1.582	1582.1	regulate	Run3	regulate/STIM_018.jpg	100
2247.957	1.904	1904.3	regulate	Run3	regulate/STIM_019.jpg	99
2252.26	1.696	1695.5	regulate	Run3	regulate/STIM_019.jpg	99
2256.498	2.218	2218.3	regulate	Run3	regulate/STIM_019.jpg	100
2260.747	2.435	2435.1	regulate	Run3	regulate/STIM_019.jpg	100
2266.661	2.202	2201.7	regulate	Run3	regulate/STIM_020.jpg	99
2271.727	1.315	1315.2	regulate	Run3	regulate/STIM_020.jpg	99
2275.739	1.539	1538.8	regulate	Run3	regulate/STIM_020.jpg	100
2279.427	1.957	1957.2	regulate	Run3	regulate/STIM_020.jpg	99
2284.896	1.376	1376.5	regulate	Run3	regulate/STIM_021.jpg	99
2290.066	1.085	1085.0	regulate	Run3	regulate/STIM_021.jpg	100
2294.693	1.338	1338.2	regulate	Run3	regulate/STIM_021.jpg	100
2298.314	1.883	1883.2	regulate	Run3	regulate/STIM_021.jpg	100
2302.253	1.991	1990.8	regulate	Run3	regulate/STIM_022.jpg	100
2307.28	2.103	2102.8	regulate	Run3	regulate/STIM_022.jpg	100
2312.94	1.731	1731.2	regulate	Run3	regulate/STIM_022.jpg	100
2317.922	2.439	2438.8	regulate	Run3	regulate/STIM_022.jpg	99
2323.698	1.853	1853.4	regulate	Run3	regulate/STIM_023.jpg	100
2328.669	1.44	1440.1	regulate	Run3	regulate/STIM_023.jpg	99
2333.83	1.246	1246.0	regulate	Run3	regulate/STIM_023.jpg	99
2338.725	1.712	1712.0	regulate	Run3	regulate/STIM_023.jpg	99
2343.215	1.633	1632.7	regulate	Run3	regulate/STIM_024.jpg	99
2348.219	1.273	1272.6	regulate	Run3	regulate/STIM_024.jpg	99
2352.14	1.227	1226.8	regulate	Run3	regulate/STIM_024.jpg	99
2355.412	2.357	2356.6	regulate	Run3	regulate/STIM_024.jpg	100
2361.429	2.079	2079.0	regulate	Run3	regulate/STIM_025.jpg	99
2366.018	1.615	1614.8	regulate	Run3	regulate/STIM_025.jpg	99
2369.71	1.252	1251.9	regulate	Run3	regulate/STIM_025.jpg	99
2373.98	2.309	2309.0	regulate	Run3	regulate/STIM_025.jpg	99
2379.618	1.967	1966.6	regulate	Run3	regulate/STIM_026.jpg	100
2385.093	1.349	1348.6	regulate	Run3	regulate/STIM_026.jpg	99
2389.384	1.081	1080.6	regulate	Run3	regulate/STIM_026.jpg	99
2392.49	1.25	1249.6	regulate	Run3	regulate/STIM_026.jpg	100
2396.065	1.418	1417.8	regulate	Run3	regulate/STIM_027.jpg	99
2399.561	1.77	1770.2	regulate	Run3	regulate/STIM_027.jpg	100
2404.589	2.456	2455.5	regulate	Run3	regulate/STIM_027.jpg	100
2410.395	1.827	1827.0	regulate	Run3	regulate/STIM_027.jpg	100
2415.545	1.558	1558.4	regulate	Run3	regulate/STIM_028.jpg	99
2419.811	1.656	1656.5	regulate	Run3	regulate/STIM_028.jpg	100
2424.578	2.357	2356.8	regulate	Run3	regulate/STIM_028.jpg	100
2428.939	1.816	1815.6	regulate	Run3	regulate/STIM_028.jpg	100
2433.82	1.123	1122.6	regulate	Run3	regulate/STIM_029.jpg	100
2438.022	1.854	1854.4	regulate	Run3	regulate/STIM_029.jpg	100
2443.147	1.257	1257.0	regulate	Run3	regulate/STIM_029.jpg	100
2447.48	2.352	2351.7	regulate	Run3	regulate/STIM_029.jpg	99
2452.392	0.927	927.4	observe	Run3	observe/STIM_000.jpg	100
2456.771	1.551	1551.1	observe	Run3	observe/STIM_000.jpg	99
2461.508	0.948	947.7	observe	Run3	observe/STIM_000.jpg	99
2464.817	1.06	1060.2	observe	Run3	observe/STIM_000.jpg	99
2469.37	1.428	1428.0	observe	Run3	observe/STIM_001.jpg	99
2473.909	1.104	1104.5	observe	Run3	observe/STIM_001.jpg	100
2478.665	0.97	970.0	observe	Run3	observe/STIM_001.jpg	100
2482.458	1.01	1009.7	observe	Run3	observe/STIM_001.jpg	100
2485.923	1.064	1064.4	observe	Run3	observe/STIM_002.jpg	100
2489.554	1.058	1057.9	observe	Run3	observe/STIM_002.jpg	99
2493.615	1.351	1351.4	observe	Run3	observe/STIM_002.jpg	99
2497.665	1.131	1130.7	observe	Run3	observe/STIM_002.jpg	100
2502.072	1.375	1375.3	observe	Run3	observe/STIM_003.jpg	99
2505.715	0.945	945.1	observe	Run3	observe/STIM_003.jpg	100
2509.48	1.118	1118.4	observe	Run3	observe/STIM_003.jpg	99
2514.061	1.482	1482.0	observe	Run3	observe/STIM_003.jpg	100
2518.959	1.094	1093.8	observe	Run3	observe/STIM_004.jpg	99
2523.499	1.198	1198.1	observe	Run3	observe/STIM_004.jpg	99
2528.029	1.037	1037.0	observe	Run3	observe/STIM_004.jpg	99
2531.072	0.881	881.0	observe	Run3	observe/STIM_004.jpg	100
2534.282	1.272	1271.9	observe	Run3	observe/STIM_005.jpg	100
2538.213	1.104	1104.1	observe	Run3	observe/STIM_005.jpg	100
2542.047	0.93	930.5	observe	Run3	observe/STIM_005.jpg	99
2545.867	1.411	1410.9	observe	Run3	observe/STIM_005.jpg	100
2549.45	1.135	1135.2	observe	Run3	observe/STIM_006.jpg	99
2553.171	1.185	1184.7	observe	Run3	observe/STIM_006.jpg	99
2557.516	1.16	1159.7	observe	Run3	observe/STIM_006.jpg	100
2562.218	1.373	1373.4	observe	Run3	observe/STIM_006.jpg	100
2566.525	1.072	1072.2	observe	Run3	observe/STIM_007.jpg	99
2569.819	1.398	1398.0	observe	Run3	observe/STIM_007.jpg	100
2574.276	1.209	1208.7	observe	Run3	observe/STIM_007.jpg	99
2577.604	1.575	1575.2	observe	Run3	observe/STIM_007.jpg	99
2582.075	0.837	836.8	observe	Run3	observe/STIM_008.jpg	99
2586.593	0.956	956.2	observe	Run3	observe/STIM_008.jpg	99
2590.834	1.247	1246.7	observe	Run3	observe/STIM_008.jpg	99
2594.464	1.438	1438.1	observe	Run3	observe/STIM_008.jpg	100
2599.002	1.281	1280.6	observe	Run3	observe/STIM_009.jpg	100
2603.771	0.861	861.0	observe	Run3	observe/STIM_009.jpg	99
2607.443	0.845	844.8	observe	Run3	observe/STIM_009.jpg	100
2611.501	0.932	931.6	observe	Run3	observe/STIM_009.jpg	99
2615.291	1.518	1518.4	observe	Run3	observe/STIM_010.jpg	99
2618.978	1.359	1359.1	observe	Run3	observe/STIM_010.jpg	99
2624.318	1.501	1501.3	observe	Run3	observe/STIM_010.jpg	100
2629.546	1.078	1078.4	observe	Run3	observe/STIM_010.jpg	99
2633.0	0.827	827.4	observe	Run3	observe/STIM_011.jpg	99
2636.616	1.573	1572.6	observe	Run3	observe/STIM_011.jpg	99
2640.182	0.978	977.9	observe	Run3	observe/STIM_011.jpg	99
2644.253	1.612	1612.2	observe	Run3	observe/STIM_011.jpg	99
2648.243	1.254	1253.6	observe	Run3	observe/STIM_012.jpg	99
2651.652	0.938	937.8	observe	Run3	observe/STIM_012.jpg	99
2656.049	0.811	810.6	observe	Run3	observe/STIM_012.jpg	100
2659.511	1.484	1483.7	observe	Run3	observe/STIM_012.jpg	99
2664.279	1.358	1357.8	observe	Run3	observe/STIM_013.jpg	100
2668.486	1.54	1539.6	observe	Run3	observe/STIM_013.jpg	99
2672.539	1.404	1403.5	observe	Run3	observe/STIM_013.jpg	99
2677.696	1.473	1473.1	observe	Run3	observe/STIM_013.jpg	99
2682.834	1.192	1191.9	observe	Run3	observe/STIM_014.jpg	99
2686.657	1.343	1343.2	observe	Run3	observe/STIM_014.jpg	99
2691.642	1.431	1431.0	observe	Run3	observe/STIM_014.jpg	99
2696.637	1.422	1421.8	observe	Run3	observe/STIM_014.jpg	99
2701.739	1.106	1106.2	observe	Run3	observe/STIM_015.jpg	99
2706.129	1.526	1526.3	observe	Run3	observe/STIM_015.jpg	100
2710.336	1.143	1142.8	observe	Run3	observe/STIM_015.jpg	100
2715.24	1.442	1441.6	observe	Run3	observe/STIM_015.jpg	100
2720.056	1.351	1351.4	observe	Run3	observe/STIM_016.jpg	99
2725.389	1.4	1400.5	observe	Run3	observe/STIM_016.jpg	99
2730.362	1.014	1014.2	observe	Run3	observe/STIM_016.jpg	100
2734.149	1.192	1192.0	observe	Run3	observe/STIM_016.jpg	100
2738.594	1.084	1083.8	observe	Run3	observe/STIM_017.jpg	100
2742.886	1.406	1405.8	observe	Run3	observe/STIM_017.jpg	100
2747.149	0.946	946.2	observe	Run3	observe/STIM_017.jpg	99
2750.794	1.306	1306.2	observe	Run3	observe/STIM_017.jpg	99
2755.154	1.242	1242.2	observe	Run3	observe/STIM_018.jpg	99
2759.509	0.907	907.4	observe	Run3	observe/STIM_018.jpg	100
2763.391	1.132	1131.6	observe	Run3	observe/STIM_018.jpg	99
2767.201	0.838	837.6	observe	Run3	observe/STIM_018.jpg	100
2771.07	1.494	1493.8	observe	Run3	observe/STIM_019.jpg	100
2775.417	1.126	1126.4	observe	Run3	observe/STIM_019.jpg	99
2778.615	1.16	1159.7	observe	Run3	observe/STIM_019.jpg	99
2783.746	1.117	1117.0	observe	Run3	observe/STIM_019.jpg	99
