onset	duration	accuracy	trial_type	learning_stage	stimulus
0.0	1.902	correct	generate	Run1	generate/STIM_000.jpg
4.498	2.42	incorrect	generate	Run1	generate/STIM_000.jpg
10.548	2.301	incorrect	generate	Run1	generate/STIM_000.jpg
16.561	1.567	correct	generate	Run1	generate/STIM_000.jpg
20.59	1.833	correct	generate	Run1	generate/STIM_000.jpg
25.672	1.721	correct	generate	Run1	generate/STIM_001.jpg
29.562	1.906	correct	generate	Run1	generate/STIM_001.jpg
35.305	1.714	correct	generate	Run1	generate/STIM_001.jpg
40.139	1.615	correct	generate	Run1	generate/STIM_001.jpg
44.311	2.016	correct	generate	Run1	generate/STIM_001.jpg
50.156	1.526	correct	generate	Run1	generate/STIM_002.jpg
54.557	2.793	correct	generate	Run1	generate/STIM_002.jpg
60.524	2.189	correct	generate	Run1	generate/STIM_002.jpg
64.991	1.296	incorrect	generate	Run1	generate/STIM_002.jpg
69.242	1.898	correct	generate	Run1	generate/STIM_002.jpg
74.114	1.512	incorrect	generate	Run1	generate/STIM_003.jpg
79.155	2.119	correct	generate	Run1	generate/STIM_003.jpg
84.601	2.396	correct	generate	Run1	generate/STIM_003.jpg
90.064	1.775	incorrect	generate	Run1	generate/STIM_003.jpg
95.526	1.815	correct	generate	Run1	generate/STIM_003.jpg
101.273	1.583	incorrect	generate	Run1	generate/STIM_004.jpg
105.832	2.19	correct	generate	Run1	generate/STIM_004.jpg
111.514	1.709	correct	generate	Run1	generate/STIM_004.jpg
116.318	1.613	correct	generate	Run1	generate/STIM_004.jpg
120.319	1.836	correct	generate	Run1	generate/STIM_004.jpg
125.281	2.99	correct	generate	Run1	generate/STIM_005.jpg
131.275	1.213	correct	generate	Run1	generate/STIM_005.jpg
135.128	1.894	incorrect	generate	Run1	generate/STIM_005.jpg
139.649	1.65	correct	generate	Run1	generate/STIM_005.jpg
144.391	2.334	incorrect	generate	Run1	generate/STIM_005.jpg
149.309	2.731	incorrect	generate	Run1	generate/STIM_006.jpg
155.475	1.854	correct	generate	Run1	generate/STIM_006.jpg
160.072	2.017	incorrect	generate	Run1	generate/STIM_006.jpg
165.406	2.135	correct	generate	Run1	generate/STIM_006.jpg
170.97	1.46	correct	generate	Run1	generate/STIM_006.jpg
174.814	1.638	correct	generate	Run1	generate/STIM_007.jpg
179.473	2.594	correct	generate	Run1	generate/STIM_007.jpg
184.568	2.744	correct	generate	Run1	generate/STIM_007.jpg
190.104	1.942	correct	generate	Run1	generate/STIM_007.jpg
194.485	1.05	correct	generate	Run1	generate/STIM_007.jpg
199.068	2.966	incorrect	generate	Run1	generate/STIM_008.jpg
204.628	1.66	incorrect	generate	Run1	generate/STIM_008.jpg
209.999	2.33	correct	generate	Run1	generate/STIM_008.jpg
214.742	1.251	incorrect	generate	Run1	generate/STIM_008.jpg
219.877	1.028	incorrect	generate	Run1	generate/STIM_008.jpg
223.686	1.788	incorrect	generate	Run1	generate/STIM_009.jpg
228.54	1.59	correct	generate	Run1	generate/STIM_009.jpg
232.934	1.65	correct	generate	Run1	generate/STIM_009.jpg
237.677	1.347	correct	generate	Run1	generate/STIM_009.jpg
242.539	1.918	correct	generate	Run1	generate/STIM_009.jpg
247.508	1.398	correct	generate	Run1	generate/STIM_010.jpg
252.812	1.186	incorrect	generate	Run1	generate/STIM_010.jpg
257.726	1.835	correct	generate	Run1	generate/STIM_010.jpg
263.173	2.505	correct	generate	Run1	generate/STIM_010.jpg
269.399	1.527	correct	generate	Run1	generate/STIM_010.jpg
274.704	2.728	incorrect	generate	Run1	generate/STIM_011.jpg
279.714	1.919	correct	generate	Run1	generate/STIM_011.jpg
283.843	2.067	correct	generate	Run1	generate/STIM_011.jpg
288.447	1.643	correct	generate	Run1	generate/STIM_011.jpg
293.983	2.249	incorrect	generate	Run1	generate/STIM_011.jpg
298.444	2.409	correct	generate	Run1	generate/STIM_012.jpg
304.47	2.372	correct	generate	Run1	generate/STIM_012.jpg
309.708	1.585	correct	generate	Run1	generate/STIM_012.jpg
315.047	2.065	incorrect	generate	Run1	generate/STIM_012.jpg
319.948	1.73	incorrect	generate	Run1	generate/STIM_012.jpg
324.487	2.328	incorrect	generate	Run1	generate/STIM_013.jpg
330.352	1.455	correct	generate	Run1	generate/STIM_013.jpg
335.006	2.527	correct	generate	Run1	generate/STIM_013.jpg
340.377	2.346	correct	generate	Run1	generate/STIM_013.jpg
345.567	2.361	correct	generate	Run1	generate/STIM_013.jpg
351.802	2.673	correct	generate	Run1	generate/STIM_014.jpg
358.061	1.265	correct	generate	Run1	generate/STIM_014.jpg
361.648	1.978	incorrect	generate	Run1	generate/STIM_014.jpg
366.109	1.34	correct	generate	Run1	generate/STIM_014.jpg
370.342	1.985	incorrect	generate	Run1	generate/STIM_014.jpg
375.31	2.122	correct	generate	Run1	generate/STIM_015.jpg
379.449	2.013	incorrect	generate	Run1	generate/STIM_015.jpg
383.747	1.853	incorrect	generate	Run1	generate/STIM_015.jpg
389.26	1.148	incorrect	generate	Run1	generate/STIM_015.jpg
393.318	1.23	correct	generate	Run1	generate/STIM_015.jpg
397.662	1.87	correct	generate	Run1	generate/STIM_016.jpg
401.748	1.837	correct	generate	Run1	generate/STIM_016.jpg
406.771	2.258	correct	generate	Run1	generate/STIM_016.jpg
412.516	2.295	correct	generate	Run1	generate/STIM_016.jpg
417.715	1.801	correct	generate	Run1	generate/STIM_016.jpg
421.638	2.449	incorrect	generate	Run1	generate/STIM_017.jpg
427.925	2.569	correct	generate	Run1	generate/STIM_017.jpg
433.797	1.752	correct	generate	Run1	generate/STIM_017.jpg
437.559	2.146	correct	generate	Run1	generate/STIM_017.jpg
442.158	1.464	correct	generate	Run1	generate/STIM_017.jpg
447.319	1.454	correct	generate	Run1	generate/STIM_018.jpg
452.347	1.372	correct	generate	Run1	generate/STIM_018.jpg
456.091	2.415	correct	generate	Run1	generate/STIM_018.jpg
462.073	2.388	correct	generate	Run1	generate/STIM_018.jpg
467.986	1.074	incorrect	generate	Run1	generate/STIM_018.jpg
472.147	2.289	correct	generate	Run1	generate/STIM_019.jpg
476.999	2.831	correct	generate	Run1	generate/STIM_019.jpg
483.701	2.684	incorrect	generate	Run1	generate/STIM_019.jpg
488.938	2.317	correct	generate	Run1	generate/STIM_019.jpg
494.874	2.349	correct	generate	Run1	generate/STIM_019.jpg
500.424	2.129	incorrect	generate	Run1	generate/STIM_020.jpg
506.183	2.772	correct	generate	Run1	generate/STIM_020.jpg
512.871	2.555	correct	generate	Run1	generate/STIM_020.jpg
517.471	2.466	correct	generate	Run1	generate/STIM_020.jpg
522.383	1.736	correct	generate	Run1	generate/STIM_020.jpg
526.84	2.234	incorrect	generate	Run1	generate/STIM_021.jpg
531.249	1.351	incorrect	generate	Run1	generate/STIM_021.jpg
535.478	2.338	incorrect	generate	Run1	generate/STIM_021.jpg
539.893	2.028	correct	generate	Run1	generate/STIM_021.jpg
544.161	1.45	correct	generate	Run1	generate/STIM_021.jpg
548.447	2.793	correct	generate	Run1	generate/STIM_022.jpg
553.85	2.26	correct	generate	Run1	generate/STIM_022.jpg
558.966	1.814	correct	generate	Run1	generate/STIM_022.jpg
564.273	1.189	correct	generate	Run1	generate/STIM_022.jpg
568.089	2.433	correct	generate	Run1	generate/STIM_022.jpg
573.085	1.706	correct	generate	Run1	generate/STIM_023.jpg
577.572	2.879	correct	generate	Run1	generate/STIM_023.jpg
582.636	1.863	correct	generate	Run1	generate/STIM_023.jpg
587.159	2.57	correct	generate	Run1	generate/STIM_023.jpg
593.349	1.142	incorrect	generate	Run1	generate/STIM_023.jpg
597.133	1.926	correct	generate	Run1	generate/STIM_024.jpg
602.151	2.628	incorrect	generate	Run1	generate/STIM_024.jpg
607.769	2.146	correct	generate	Run1	generate/STIM_024.jpg
613.424	1.667	correct	generate	Run1	generate/STIM_024.jpg
618.458	1.957	correct	generate	Run1	generate/STIM_024.jpg
623.668	0.678	correct	repeat	Run1	repeat/STIM_000.jpg
626.967	0.911	correct	repeat	Run1	repeat/STIM_000.jpg
630.867	0.786	correct	repeat	Run1	repeat/STIM_000.jpg
635.126	0.84	correct	repeat	Run1	repeat/STIM_000.jpg
638.583	0.784	correct	repeat	Run1	repeat/STIM_000.jpg
642.218	0.894	correct	repeat	Run1	repeat/STIM_001.jpg
646.932	0.515	correct	repeat	Run1	repeat/STIM_001.jpg
651.171	0.727	correct	repeat	Run1	repeat/STIM_001.jpg
655.651	0.651	correct	repeat	Run1	repeat/STIM_001.jpg
658.318	0.986	correct	repeat	Run1	repeat/STIM_001.jpg
662.457	0.52	correct	repeat	Run1	repeat/STIM_002.jpg
666.266	0.574	correct	repeat	Run1	repeat/STIM_002.jpg
670.038	0.97	correct	repeat	Run1	repeat/STIM_002.jpg
674.056	0.798	correct	repeat	Run1	repeat/STIM_002.jpg
678.229	0.879	correct	repeat	Run1	repeat/STIM_002.jpg
681.345	0.571	correct	repeat	Run1	repeat/STIM_003.jpg
684.15	0.866	correct	repeat	Run1	repeat/STIM_003.jpg
687.046	0.657	correct	repeat	Run1	repeat/STIM_003.jpg
690.02	0.721	correct	repeat	Run1	repeat/STIM_003.jpg
692.941	0.567	correct	repeat	Run1	repeat/STIM_003.jpg
695.752	0.909	incorrect	repeat	Run1	repeat/STIM_004.jpg
699.604	0.908	correct	repeat	Run1	repeat/STIM_004.jpg
704.148	0.79	correct	repeat	Run1	repeat/STIM_004.jpg
708.641	0.609	correct	repeat	Run1	repeat/STIM_004.jpg
711.699	0.951	correct	repeat	Run1	repeat/STIM_004.jpg
715.427	0.691	correct	repeat	Run1	repeat/STIM_005.jpg
718.405	0.653	correct	repeat	Run1	repeat/STIM_005.jpg
721.227	0.59	correct	repeat	Run1	repeat/STIM_005.jpg
723.871	0.609	correct	repeat	Run1	repeat/STIM_005.jpg
726.935	0.666	correct	repeat	Run1	repeat/STIM_005.jpg
729.893	0.669	correct	repeat	Run1	repeat/STIM_006.jpg
733.265	0.734	correct	repeat	Run1	repeat/STIM_006.jpg
736.197	0.884	correct	repeat	Run1	repeat/STIM_006.jpg
740.686	0.894	correct	repeat	Run1	repeat/STIM_006.jpg
745.118	0.542	correct	repeat	Run1	repeat/STIM_006.jpg
748.948	0.636	correct	repeat	Run1	repeat/STIM_007.jpg
752.087	0.949	correct	repeat	Run1	repeat/STIM_007.jpg
755.237	0.82	correct	repeat	Run1	repeat/STIM_007.jpg
758.876	0.774	correct	repeat	Run1	repeat/STIM_007.jpg
761.988	0.911	correct	repeat	Run1	repeat/STIM_007.jpg
766.431	0.627	correct	repeat	Run1	repeat/STIM_008.jpg
769.086	0.898	correct	repeat	Run1	repeat/STIM_008.jpg
773.1	0.518	correct	repeat	Run1	repeat/STIM_008.jpg
776.265	0.667	correct	repeat	Run1	repeat/STIM_008.jpg
780.173	0.535	correct	repeat	Run1	repeat/STIM_008.jpg
783.163	0.929	correct	repeat	Run1	repeat/STIM_009.jpg
786.667	0.711	correct	repeat	Run1	repeat/STIM_009.jpg
790.753	0.91	incorrect	repeat	Run1	repeat/STIM_009.jpg
795.251	0.551	correct	repeat	Run1	repeat/STIM_009.jpg
798.582	0.695	correct	repeat	Run1	repeat/STIM_009.jpg
801.404	0.601	correct	repeat	Run1	repeat/STIM_010.jpg
805.602	0.95	correct	repeat	Run1	repeat/STIM_010.jpg
809.475	0.813	correct	repeat	Run1	repeat/STIM_010.jpg
813.001	0.819	incorrect	repeat	Run1	repeat/STIM_010.jpg
817.252	0.877	correct	repeat	Run1	repeat/STIM_010.jpg
821.86	0.799	correct	repeat	Run1	repeat/STIM_011.jpg
824.995	0.582	correct	repeat	Run1	repeat/STIM_011.jpg
828.833	0.872	correct	repeat	Run1	repeat/STIM_011.jpg
831.863	0.82	correct	repeat	Run1	repeat/STIM_011.jpg
834.827	0.76	correct	repeat	Run1	repeat/STIM_011.jpg
839.093	0.825	correct	repeat	Run1	repeat/STIM_012.jpg
842.462	0.759	correct	repeat	Run1	repeat/STIM_012.jpg
845.539	0.675	correct	repeat	Run1	repeat/STIM_012.jpg
850.065	0.764	correct	repeat	Run1	repeat/STIM_012.jpg
854.233	0.642	correct	repeat	Run1	repeat/STIM_012.jpg
858.582	0.929	correct	repeat	Run1	repeat/STIM_013.jpg
861.802	0.719	correct	repeat	Run1	repeat/STIM_013.jpg
865.621	0.866	correct	repeat	Run1	repeat/STIM_013.jpg
868.689	0.644	correct	repeat	Run1	repeat/STIM_013.jpg
872.601	0.998	correct	repeat	Run1	repeat/STIM_013.jpg
876.427	0.704	correct	repeat	Run1	repeat/STIM_014.jpg
880.595	1.022	correct	repeat	Run1	repeat/STIM_014.jpg
885.515	0.598	correct	repeat	Run1	repeat/STIM_014.jpg
888.58	0.715	correct	repeat	Run1	repeat/STIM_014.jpg
891.966	0.682	correct	repeat	Run1	repeat/STIM_014.jpg
894.69	1.924	incorrect	generate	Run2	generate/STIM_000.jpg
899.258	1.364	correct	generate	Run2	generate/STIM_000.jpg
904.467	1.643	correct	generate	Run2	generate/STIM_000.jpg
908.64	1.995	incorrect	generate	Run2	generate/STIM_000.jpg
912.964	0.894	correct	generate	Run2	generate/STIM_000.jpg
915.87	2.448	incorrect	generate	Run2	generate/STIM_001.jpg
921.361	1.317	correct	generate	Run2	generate/STIM_001.jpg
926.058	2.296	correct	generate	Run2	generate/STIM_001.jpg
931.555	1.063	correct	generate	Run2	generate/STIM_001.jpg
934.687	1.579	correct	generate	Run2	generate/STIM_001.jpg
938.958	1.757	correct	generate	Run2	generate/STIM_002.jpg
944.301	1.514	correct	generate	Run2	generate/STIM_002.jpg
949.25	1.637	correct	generate	Run2	generate/STIM_002.jpg
953.437	0.92	correct	generate	Run2	generate/STIM_002.jpg
957.002	0.949	correct	generate	Run2	generate/STIM_002.jpg
961.507	2.195	correct	generate	Run2	generate/STIM_003.jpg
967.539	2.099	correct	generate	Run2	generate/STIM_003.jpg
973.138	1.53	correct	generate	Run2	generate/STIM_003.jpg
977.944	1.523	correct	generate	Run2	generate/STIM_003.jpg
981.485	0.892	correct	generate	Run2	generate/STIM_003.jpg
985.046	1.192	correct	generate	Run2	generate/STIM_004.jpg
989.052	1.409	correct	generate	Run2	generate/STIM_004.jpg
992.937	1.568	correct	generate	Run2	generate/STIM_004.jpg
996.814	1.736	correct	generate	Run2	generate/STIM_004.jpg
1000.696	1.59	correct	generate	Run2	generate/STIM_004.jpg
1004.446	1.177	correct	generate	Run2	generate/STIM_005.jpg
1009.546	1.858	correct	generate	Run2	generate/STIM_005.jpg
1014.754	1.073	correct	generate	Run2	generate/STIM_005.jpg
1018.317	1.118	correct	generate	Run2	generate/STIM_005.jpg
1021.959	1.904	correct	generate	Run2	generate/STIM_005.jpg
1027.447	1.278	incorrect	generate	Run2	generate/STIM_006.jpg
1032.54	2.423	correct	generate	Run2	generate/STIM_006.jpg
1037.523	2.149	correct	generate	Run2	generate/STIM_006.jpg
1043.068	1.516	correct	generate	Run2	generate/STIM_006.jpg
1047.448	1.537	correct	generate	Run2	generate/STIM_006.jpg
1052.37	1.239	correct	generate	Run2	generate/STIM_007.jpg
1056.993	1.912	incorrect	generate	Run2	generate/STIM_007.jpg
1061.701	2.083	correct	generate	Run2	generate/STIM_007.jpg
1067.13	1.624	correct	generate	Run2	generate/STIM_007.jpg
1072.549	1.555	correct	generate	Run2	generate/STIM_007.jpg
1077.965	2.558	incorrect	generate	Run2	generate/STIM_008.jpg
1083.555	1.704	incorrect	generate	Run2	generate/STIM_008.jpg
1087.986	1.233	correct	generate	Run2	generate/STIM_008.jpg
1092.354	1.723	incorrect	generate	Run2	generate/STIM_008.jpg
1096.661	0.974	correct	generate	Run2	generate/STIM_008.jpg
1101.396	1.167	correct	generate	Run2	generate/STIM_009.jpg
1105.526	1.765	correct	generate	Run2	generate/STIM_009.jpg
1110.633	1.606	correct	generate	Run2	generate/STIM_009.jpg
1115.528	1.937	correct	generate	Run2	generate/STIM_009.jpg
1120.634	1.163	correct	generate	Run2	generate/STIM_009.jpg
1125.403	2.026	correct	generate	Run2	generate/STIM_010.jpg
1130.074	1.325	correct	generate	Run2	generate/STIM_010.jpg
1134.142	0.982	correct	generate	Run2	generate/STIM_010.jpg
1139.022	1.02	correct	generate	Run2	generate/STIM_010.jpg
1143.109	1.198	correct	generate	Run2	generate/STIM_010.jpg
1148.053	2.001	correct	generate	Run2	generate/STIM_011.jpg
1153.187	1.183	incorrect	generate	Run2	generate/STIM_011.jpg
1156.534	1.861	correct	generate	Run2	generate/STIM_011.jpg
1161.185	1.174	incorrect	generate	Run2	generate/STIM_011.jpg
1165.179	1.307	correct	generate	Run2	generate/STIM_011.jpg
1169.351	1.941	correct	generate	Run2	generate/STIM_012.jpg
1174.758	1.7	correct	generate	Run2	generate/STIM_012.jpg
1178.578	1.826	correct	generate	Run2	generate/STIM_012.jpg
1182.615	2.009	correct	generate	Run2	generate/STIM_012.jpg
1187.11	1.129	correct	generate	Run2	generate/STIM_012.jpg
1191.932	2.117	incorrect	generate	Run2	generate/STIM_013.jpg
1196.604	1.252	correct	generate	Run2	generate/STIM_013.jpg
1199.961	1.683	correct	generate	Run2	generate/STIM_013.jpg
1204.433	0.906	correct	generate	Run2	generate/STIM_013.jpg
1207.573	2.124	incorrect	generate	Run2	generate/STIM_013.jpg
1212.566	1.327	correct	generate	Run2	generate/STIM_014.jpg
1216.536	1.377	correct	generate	Run2	generate/STIM_014.jpg
1219.904	1.21	correct	generate	Run2	generate/STIM_014.jpg
1224.064	1.852	incorrect	generate	Run2	generate/STIM_014.jpg
1229.695	1.311	correct	generate	Run2	generate/STIM_014.jpg
1233.476	1.987	correct	generate	Run2	generate/STIM_015.jpg
1238.848	1.566	correct	generate	Run2	generate/STIM_015.jpg
1242.679	1.945	correct	generate	Run2	generate/STIM_015.jpg
1248.485	1.592	correct	generate	Run2	generate/STIM_015.jpg
1252.042	1.239	correct	generate	Run2	generate/STIM_015.jpg
1255.734	1.682	incorrect	generate	Run2	generate/STIM_016.jpg
1260.563	1.591	correct	generate	Run2	generate/STIM_016.jpg
1265.355	1.838	correct	generate	Run2	generate/STIM_016.jpg
1270.491	0.982	correct	generate	Run2	generate/STIM_016.jpg
1273.826	1.707	correct	generate	Run2	generate/STIM_016.jpg
1278.142	1.25	correct	generate	Run2	generate/STIM_017.jpg
1281.913	1.097	correct	generate	Run2	generate/STIM_017.jpg
1286.288	1.464	correct	generate	Run2	generate/STIM_017.jpg
1290.902	1.706	correct	generate	Run2	generate/STIM_017.jpg
1294.966	2.054	correct	generate	Run2	generate/STIM_017.jpg
1299.519	2.21	correct	generate	Run2	generate/STIM_018.jpg
1305.318	1.467	correct	generate	Run2	generate/STIM_018.jpg
1309.51	1.214	correct	generate	Run2	generate/STIM_018.jpg
1314.25	1.913	correct	generate	Run2	generate/STIM_018.jpg
1318.82	1.468	correct	generate	Run2	generate/STIM_018.jpg
1323.185	2.238	incorrect	generate	Run2	generate/STIM_019.jpg
1328.639	1.195	correct	generate	Run2	generate/STIM_019.jpg
1333.325	1.278	correct	generate	Run2	generate/STIM_019.jpg
1337.445	1.315	correct	generate	Run2	generate/STIM_019.jpg
1340.734	1.151	correct	generate	Run2	generate/STIM_019.jpg
1344.271	1.587	correct	generate	Run2	generate/STIM_020.jpg
1349.231	1.496	incorrect	generate	Run2	generate/STIM_020.jpg
1354.527	1.288	correct	generate	Run2	generate/STIM_020.jpg
1358.158	1.109	correct	generate	Run2	generate/STIM_020.jpg
1362.278	1.808	correct	generate	Run2	generate/STIM_020.jpg
1366.775	1.846	correct	generate	Run2	generate/STIM_021.jpg
1371.089	1.609	correct	generate	Run2	generate/STIM_021.jpg
1374.793	1.223	correct	generate	Run2	generate/STIM_021.jpg
1379.867	1.29	correct	generate	Run2	generate/STIM_021.jpg
1385.092	1.869	correct	generate	Run2	generate/STIM_021.jpg
1390.754	1.238	incorrect	generate	Run2	generate/STIM_022.jpg
1394.337	1.148	correct	generate	Run2	generate/STIM_022.jpg
1399.242	1.948	incorrect	generate	Run2	generate/STIM_022.jpg
1404.731	1.054	correct	generate	Run2	generate/STIM_022.jpg
1409.15	1.029	incorrect	generate	Run2	generate/STIM_022.jpg
1413.571	1.067	correct	generate	Run2	generate/STIM_023.jpg
1416.857	1.814	incorrect	generate	Run2	generate/STIM_023.jpg
1422.328	1.182	correct	generate	Run2	generate/STIM_023.jpg
1426.307	1.874	correct	generate	Run2	generate/STIM_023.jpg
1430.388	1.097	correct	generate	Run2	generate/STIM_023.jpg
1434.124	2.166	correct	generate	Run2	generate/STIM_024.jpg
1438.338	2.134	correct	generate	Run2	generate/STIM_024.jpg
1442.689	2.287	correct	generate	Run2	generate/STIM_024.jpg
1448.624	1.726	correct	generate	Run2	generate/STIM_024.jpg
1454.089	1.706	correct	generate	Run2	generate/STIM_024.jpg
1459.134	0.891	correct	repeat	Run2	repeat/STIM_000.jpg
1463.696	0.958	correct	repeat	Run2	repeat/STIM_000.jpg
1466.959	0.95	correct	repeat	Run2	repeat/STIM_000.jpg
1470.343	0.692	correct	repeat	Run2	repeat/STIM_000.jpg
1474.269	1.001	correct	repeat	Run2	repeat/STIM_000.jpg
1477.558	0.569	correct	repeat	Run2	repeat/STIM_001.jpg
1481.541	0.62	correct	repeat	Run2	repeat/STIM_001.jpg
1484.385	0.529	correct	repeat	Run2	repeat/STIM_001.jpg
1487.448	0.901	correct	repeat	Run2	repeat/STIM_001.jpg
1492.043	0.623	incorrect	repeat	Run2	repeat/STIM_001.jpg
1495.568	0.976	correct	repeat	Run2	repeat/STIM_002.jpg
1500.172	0.549	correct	repeat	Run2	repeat/STIM_002.jpg
1504.03	0.653	correct	repeat	Run2	repeat/STIM_002.jpg
1508.499	0.917	correct	repeat	Run2	repeat/STIM_002.jpg
1511.461	0.644	correct	repeat	Run2	repeat/STIM_002.jpg
1515.789	0.76	correct	repeat	Run2	repeat/STIM_003.jpg
1519.065	0.822	correct	repeat	Run2	repeat/STIM_003.jpg
1521.939	0.656	correct	repeat	Run2	repeat/STIM_003.jpg
1524.974	0.518	incorrect	repeat	Run2	repeat/STIM_003.jpg
1527.966	0.899	correct	repeat	Run2	repeat/STIM_003.jpg
1532.247	1.004	correct	repeat	Run2	repeat/STIM_004.jpg
1535.386	1.007	correct	repeat	Run2	repeat/STIM_004.jpg
1538.575	0.895	correct	repeat	Run2	repeat/STIM_004.jpg
1542.28	0.697	correct	repeat	Run2	repeat/STIM_004.jpg
1546.463	0.64	correct	repeat	Run2	repeat/STIM_004.jpg
1549.589	0.714	correct	repeat	Run2	repeat/STIM_005.jpg
1553.459	0.992	correct	repeat	Run2	repeat/STIM_005.jpg
1556.608	0.842	incorrect	repeat	Run2	repeat/STIM_005.jpg
1561.279	0.583	correct	repeat	Run2	repeat/STIM_005.jpg
1564.244	0.675	correct	repeat	Run2	repeat/STIM_005.jpg
1568.751	0.654	incorrect	repeat	Run2	repeat/STIM_006.jpg
1572.906	0.761	correct	repeat	Run2	repeat/STIM_006.jpg
1577.084	0.536	correct	repeat	Run2	repeat/STIM_006.jpg
1579.618	0.845	correct	repeat	Run2	repeat/STIM_006.jpg
1583.107	0.589	correct	repeat	Run2	repeat/STIM_006.jpg
1586.594	0.996	correct	repeat	Run2	repeat/STIM_007.jpg
1591.559	0.576	correct	repeat	Run2	repeat/STIM_007.jpg
1594.803	0.888	correct	repeat	Run2	repeat/STIM_007.jpg
1597.989	0.75	correct	repeat	Run2	repeat/STIM_007.jpg
1601.189	0.567	incorrect	repeat	Run2	repeat/STIM_007.jpg
1604.592	0.906	correct	repeat	Run2	repeat/STIM_008.jpg
1608.719	0.969	correct	repeat	Run2	repeat/STIM_008.jpg
1612.338	0.79	correct	repeat	Run2	repeat/STIM_008.jpg
1615.587	0.666	correct	repeat	Run2	repeat/STIM_008.jpg
1618.819	0.852	correct	repeat	Run2	repeat/STIM_008.jpg
1622.363	0.777	correct	repeat	Run2	repeat/STIM_009.jpg
1625.409	0.554	correct	repeat	Run2	repeat/STIM_009.jpg
1628.566	0.984	correct	repeat	Run2	repeat/STIM_009.jpg
1633.104	0.562	correct	repeat	Run2	repeat/STIM_009.jpg
1637.632	0.768	correct	repeat	Run2	repeat/STIM_009.jpg
1641.513	0.806	correct	repeat	Run2	repeat/STIM_010.jpg
1645.876	0.923	correct	repeat	Run2	repeat/STIM_010.jpg
1650.726	0.54	correct	repeat	Run2	repeat/STIM_010.jpg
1654.507	0.831	correct	repeat	Run2	repeat/STIM_010.jpg
1658.398	0.836	correct	repeat	Run2	repeat/STIM_010.jpg
1661.753	0.943	correct	repeat	Run2	repeat/STIM_011.jpg
1666.477	0.61	correct	repeat	Run2	repeat/STIM_011.jpg
1669.126	1.013	correct	repeat	Run2	repeat/STIM_011.jpg
1672.642	0.516	correct	repeat	Run2	repeat/STIM_011.jpg
1675.549	0.549	correct	repeat	Run2	repeat/STIM_011.jpg
1678.703	0.556	correct	repeat	Run2	repeat/STIM_012.jpg
1683.139	0.536	correct	repeat	Run2	repeat/STIM_012.jpg
1686.614	0.647	correct	repeat	Run2	repeat/STIM_012.jpg
1690.505	0.995	correct	repeat	Run2	repeat/STIM_012.jpg
1694.013	0.851	correct	repeat	Run2	repeat/STIM_012.jpg
1698.404	0.901	correct	repeat	Run2	repeat/STIM_013.jpg
1701.992	0.653	incorrect	repeat	Run2	repeat/STIM_013.jpg
1705.102	0.634	correct	repeat	Run2	repeat/STIM_013.jpg
1709.592	0.878	correct	repeat	Run2	repeat/STIM_013.jpg
1713.806	0.923	correct	repeat	Run2	repeat/STIM_013.jpg
1718.027	0.759	correct	repeat	Run2	repeat/STIM_014.jpg
1721.018	0.928	correct	repeat	Run2	repeat/STIM_014.jpg
1725.289	0.716	correct	repeat	Run2	repeat/STIM_014.jpg
1728.03	0.942	correct	repeat	Run2	repeat/STIM_014.jpg
1731.523	0.662	correct	repeat	Run2	repeat/STIM_014.jpg
1736.067	1.584	correct	generate	Run3	generate/STIM_000.jpg
1740.838	2.035	incorrect	generate	Run3	generate/STIM_000.jpg
1745.205	1.52	correct	generate	Run3	generate/STIM_000.jpg
1749.148	1.829	correct	generate	Run3	generate/STIM_000.jpg
1753.45	2.008	correct	generate	Run3	generate/STIM_000.jpg
1757.477	0.904	correct	generate	Run3	generate/STIM_001.jpg
1761.63	0.876	correct	generate	Run3	generate/STIM_001.jpg
1765.996	1.162	correct	generate	Run3	generate/STIM_001.jpg
1770.881	2.052	correct	generate	Run3	generate/STIM_001.jpg
1775.201	1.801	correct	generate	Run3	generate/STIM_001.jpg
1780.394	1.775	correct	generate	Run3	generate/STIM_002.jpg
1785.891	0.96	correct	generate	Run3	generate/STIM_002.jpg
1790.723	1.821	correct	generate	Run3	generate/STIM_002.jpg
1794.528	1.043	correct	generate	Run3	generate/STIM_002.jpg
1799.435	1.131	correct	generate	Run3	generate/STIM_002.jpg
1802.982	0.894	correct	generate	Run3	generate/STIM_003.jpg
1807.319	1.616	incorrect	generate	Run3	generate/STIM_003.jpg
1811.917	1.26	correct	generate	Run3	generate/STIM_003.jpg
1816.119	1.814	correct	generate	Run3	generate/STIM_003.jpg
1821.857	1.474	correct	generate	Run3	generate/STIM_003.jpg
1826.705	1.959	correct	generate	Run3	generate/STIM_004.jpg
1831.179	1.199	correct	generate	Run3	generate/STIM_004.jpg
1834.52	0.949	correct	generate	Run3	generate/STIM_004.jpg
1837.765	1.403	correct	generate	Run3	generate/STIM_004.jpg
1841.785	1.518	correct	generate	Run3	generate/STIM_004.jpg
1845.471	1.62	correct	generate	Run3	generate/STIM_005.jpg
1850.553	1.706	correct	generate	Run3	generate/STIM_005.jpg
1855.044	1.444	correct	generate	Run3	generate/STIM_005.jpg
1858.986	1.359	correct	generate	Run3	generate/STIM_005.jpg
1862.999	1.014	correct	generate	Run3	generate/STIM_005.jpg
1867.193	1.76	correct	generate	Run3	generate/STIM_006.jpg
1872.128	1.716	correct	generate	Run3	generate/STIM_006.jpg
1876.172	0.866	correct	generate	Run3	generate/STIM_006.jpg
1879.596	1.268	correct	generate	Run3	generate/STIM_006.jpg
1884.481	1.512	correct	generate	Run3	generate/STIM_006.jpg
1889.073	1.066	correct	generate	Run3	generate/STIM_007.jpg
1892.874	0.947	correct	generate	Run3	generate/STIM_007.jpg
1897.018	2.007	correct	generate	Run3	generate/STIM_007.jpg
1901.334	1.373	correct	generate	Run3	generate/STIM_007.jpg
1905.296	0.958	correct	generate	Run3	generate/STIM_007.jpg
1910.209	1.873	correct	generate	Run3	generate/STIM_008.jpg
1914.281	0.98	correct	generate	Run3	generate/STIM_008.jpg
1917.365	1.538	correct	generate	Run3	generate/STIM_008.jpg
1922.577	1.985	correct	generate	Run3	generate/STIM_008.jpg
1927.624	1.803	correct	generate	Run3	generate/STIM_008.jpg
1932.347	1.113	correct	generate	Run3	generate/STIM_009.jpg
1935.519	1.383	correct	generate	Run3	generate/STIM_009.jpg
1939.195	1.526	correct	generate	Run3	generate/STIM_009.jpg
1942.799	1.485	incorrect	generate	Run3	generate/STIM_009.jpg
1947.727	1.086	correct	generate	Run3	generate/STIM_009.jpg
1951.747	1.816	correct	generate	Run3	generate/STIM_010.jpg
1955.677	1.841	incorrect	generate	Run3	generate/STIM_010.jpg
1961.467	1.889	correct	generate	Run3	generate/STIM_010.jpg
1965.836	1.962	correct	generate	Run3	generate/STIM_010.jpg
1970.979	0.93	correct	generate	Run3	generate/STIM_010.jpg
1975.546	1.867	correct	generate	Run3	generate/STIM_011.jpg
1980.665	0.872	correct	generate	Run3	generate/STIM_011.jpg
1984.031	1.496	correct	generate	Run3	generate/STIM_011.jpg
1989.492	1.514	correct	generate	Run3	generate/STIM_011.jpg
1993.356	2.122	correct	generate	Run3	generate/STIM_011.jpg
1998.183	1.774	incorrect	generate	Run3	generate/STIM_012.jpg
2001.956	1.719	correct	generate	Run3	generate/STIM_012.jpg
2007.516	1.155	correct	generate	Run3	generate/STIM_012.jpg
2011.982	2.121	incorrect	generate	Run3	generate/STIM_012.jpg
2017.988	1.225	correct	generate	Run3	generate/STIM_012.jpg
2022.523	1.857	correct	generate	Run3	generate/STIM_013.jpg
2026.38	1.299	correct	generate	Run3	generate/STIM_013.jpg
2030.641	2.035	correct	generate	Run3	generate/STIM_013.jpg
2036.584	1.827	correct	generate	Run3	generate/STIM_013.jpg
2042.256	0.934	correct	generate	Run3	generate/STIM_013.jpg
2047.082	0.904	correct	generate	Run3	generate/STIM_014.jpg
2051.486	2.132	correct	generate	Run3	generate/STIM_014.jpg
2056.31	1.188	correct	generate	Run3	generate/STIM_014.jpg
2060.083	1.118	correct	generate	Run3	generate/STIM_014.jpg
2064.5	1.513	correct	generate	Run3	generate/STIM_014.jpg
2069.275	1.112	correct	generate	Run3	generate/STIM_015.jpg
2072.485	0.887	correct	generate	Run3	generate/STIM_015.jpg
2076.592	0.982	correct	generate	Run3	generate/STIM_015.jpg
2080.514	0.951	correct	generate	Run3	generate/STIM_015.jpg
2084.601	1.289	incorrect	generate	Run3	generate/STIM_015.jpg
2088.0	1.909	correct	generate	Run3	generate/STIM_016.jpg
2092.036	1.961	correct	generate	Run3	generate/STIM_016.jpg
2096.938	1.297	incorrect	generate	Run3	generate/STIM_016.jpg
2101.067	1.589	correct	generate	Run3	generate/STIM_016.jpg
2106.246	1.046	correct	generate	Run3	generate/STIM_016.jpg
2111.268	2.072	correct	generate	Run3	generate/STIM_017.jpg
2115.883	1.849	correct	generate	Run3	generate/STIM_017.jpg
2120.51	1.243	incorrect	generate	Run3	generate/STIM_017.jpg
2123.957	1.046	correct	generate	Run3	generate/STIM_017.jpg
2127.784	1.618	correct	generate	Run3	generate/STIM_017.jpg
2133.359	1.648	correct	generate	Run3	generate/STIM_018.jpg
2136.997	1.323	correct	generate	Run3	generate/STIM_018.jpg
2141.759	2.017	correct	generate	Run3	generate/STIM_018.jpg
2146.166	1.574	correct	generate	Run3	generate/STIM_018.jpg
2151.453	0.898	correct	generate	Run3	generate/STIM_018.jpg
2155.12	1.725	correct	generate	Run3	generate/STIM_019.jpg
2159.7	1.365	correct	generate	Run3	generate/STIM_019.jpg
2164.467	1.386	correct	generate	Run3	generate/STIM_019.jpg
2169.148	1.223	correct	generate	Run3	generate/STIM_019.jpg
2174.131	1.252	correct	generate	Run3	generate/STIM_019.jpg
2179.333	2.034	correct	generate	Run3	generate/STIM_020.jpg
2183.644	1.924	incorrect	generate	Run3	generate/STIM_020.jpg
2189.025	1.145	correct	generate	Run3	generate/STIM_020.jpg
2193.09	1.334	incorrect	generate	Run3	generate/STIM_020.jpg
2196.772	1.61	correct	generate	Run3	generate/STIM_020.jpg
2201.988	1.68	incorrect	generate	Run3	generate/STIM_021.jpg
2206.475	1.318	correct	generate	Run3	generate/STIM_021.jpg
2210.913	1.184	incorrect	generate	Run3	generate/STIM_021.jpg
2214.141	1.506	correct	generate	Run3	generate/STIM_021.jpg
2217.714	1.65	correct	generate	Run3	generate/STIM_021.jpg
2222.84	1.374	correct	generate	Run3	generate/STIM_022.jpg
2226.306	1.518	correct	generate	Run3	generate/STIM_022.jpg
2231.771	1.795	correct	generate	Run3	generate/STIM_022.jpg
2237.361	1.467	correct	generate	Run3	generate/STIM_022.jpg
2240.83	1.504	correct	generate	Run3	generate/STIM_022.jpg
2244.39	1.217	incorrect	generate	Run3	generate/STIM_023.jpg
2249.072	1.904	correct	generate	Run3	generate/STIM_023.jpg
2253.109	1.408	correct	generate	Run3	generate/STIM_023.jpg
2256.808	1.569	correct	generate	Run3	generate/STIM_023.jpg
2262.128	1.597	correct	generate	Run3	generate/STIM_023.jpg
2266.335	1.568	correct	generate	Run3	generate/STIM_024.jpg
2271.649	1.969	correct	generate	Run3	generate/STIM_024.jpg
2277.367	1.793	correct	generate	Run3	generate/STIM_024.jpg
2282.301	1.961	correct	generate	Run3	generate/STIM_024.jpg
2287.033	1.475	correct	generate	Run3	generate/STIM_024.jpg
2291.776	1.002	correct	repeat	Run3	repeat/STIM_000.jpg
2295.143	0.62	correct	repeat	Run3	repeat/STIM_000.jpg
2299.511	0.676	correct	repeat	Run3	repeat/STIM_000.jpg
2303.636	0.813	correct	repeat	Run3	repeat/STIM_000.jpg
2307.423	0.526	correct	repeat	Run3	repeat/STIM_000.jpg
2309.985	0.737	correct	repeat	Run3	repeat/STIM_001.jpg
2313.329	0.985	correct	repeat	Run3	repeat/STIM_001.jpg
2317.487	0.836	incorrect	repeat	Run3	repeat/STIM_001.jpg
2320.644	0.69	correct	repeat	Run3	repeat/STIM_001.jpg
2325.286	0.769	correct	repeat	Run3	repeat/STIM_001.jpg
2329.316	0.611	correct	repeat	Run3	repeat/STIM_002.jpg
2332.46	0.593	correct	repeat	Run3	repeat/STIM_002.jpg
2335.885	0.671	correct	repeat	Run3	repeat/STIM_002.jpg
2339.967	0.621	correct	repeat	Run3	repeat/STIM_002.jpg
2342.857	0.78	correct	repeat	Run3	repeat/STIM_002.jpg
2347.595	0.631	correct	repeat	Run3	repeat/STIM_003.jpg
2351.865	0.66	correct	repeat	Run3	repeat/STIM_003.jpg
2356.318	0.554	incorrect	repeat	Run3	repeat/STIM_003.jpg
2360.023	0.849	correct	repeat	Run3	repeat/STIM_003.jpg
2362.864	0.869	correct	repeat	Run3	repeat/STIM_003.jpg
2366.666	0.597	correct	repeat	Run3	repeat/STIM_004.jpg
2371.1	0.724	correct	repeat	Run3	repeat/STIM_004.jpg
2374.21	0.869	correct	repeat	Run3	repeat/STIM_004.jpg
2378.819	0.696	incorrect	repeat	Run3	repeat/STIM_004.jpg
2383.236	0.788	correct	repeat	Run3	repeat/STIM_004.jpg
2387.699	0.663	incorrect	repeat	Run3	repeat/STIM_005.jpg
2390.367	0.925	correct	repeat	Run3	repeat/STIM_005.jpg
2394.62	0.538	correct	repeat	Run3	repeat/STIM_005.jpg
2397.417	0.876	correct	repeat	Run3	repeat/STIM_005.jpg
2402.122	0.715	correct	repeat	Run3	repeat/STIM_005.jpg
2405.268	0.783	correct	repeat	Run3	repeat/STIM_006.jpg
2409.214	0.645	correct	repeat	Run3	repeat/STIM_006.jpg
2412.0	0.64	correct	repeat	Run3	repeat/STIM_006.jpg
2416.015	0.654	correct	repeat	Run3	repeat/STIM_006.jpg
2420.58	0.956	correct	repeat	Run3	repeat/STIM_006.jpg
2424.745	0.88	correct	repeat	Run3	repeat/STIM_007.jpg
2428.304	0.641	correct	repeat	Run3	repeat/STIM_007.jpg
2431.686	0.842	correct	repeat	Run3	repeat/STIM_007.jpg
2434.749	0.655	correct	repeat	Run3	repeat/STIM_007.jpg
2437.976	0.56	correct	repeat	Run3	repeat/STIM_007.jpg
2441.882	0.856	correct	repeat	Run3	repeat/STIM_008.jpg
2445.468	0.736	correct	repeat	Run3	repeat/STIM_008.jpg
2449.529	0.922	correct	repeat	Run3	repeat/STIM_008.jpg
2453.26	0.86	correct	repeat	Run3	repeat/STIM_008.jpg
2457.166	0.671	correct	repeat	Run3	repeat/STIM_008.jpg
2460.341	0.873	correct	repeat	Run3	repeat/STIM_009.jpg
2463.939	0.733	correct	repeat	Run3	repeat/STIM_009.jpg
2466.829	0.83	correct	repeat	Run3	repeat/STIM_009.jpg
2471.063	1.018	correct	repeat	Run3	repeat/STIM_009.jpg
2475.544	0.593	correct	repeat	Run3	repeat/STIM_009.jpg
2478.701	0.737	correct	repeat	Run3	repeat/STIM_010.jpg
2481.55	0.959	correct	repeat	Run3	repeat/STIM_010.jpg
2486.026	0.778	correct	repeat	Run3	repeat/STIM_010.jpg
2490.23	0.571	correct	repeat	Run3	repeat/STIM_010.jpg
2493.571	0.556	correct	repeat	Run3	repeat/STIM_010.jpg
2496.121	0.888	correct	repeat	Run3	repeat/STIM_011.jpg
2499.423	0.649	correct	repeat	Run3	repeat/STIM_011.jpg
2502.927	0.932	correct	repeat	Run3	repeat/STIM_011.jpg
2507.146	0.816	correct	repeat	Run3	repeat/STIM_011.jpg
2511.742	0.871	correct	repeat	Run3	repeat/STIM_011.jpg
2515.257	0.706	correct	repeat	Run3	repeat/STIM_012.jpg
2518.532	0.748	correct	repeat	Run3	repeat/STIM_012.jpg
2522.839	0.668	correct	repeat	Run3	repeat/STIM_012.jpg
2526.273	0.844	correct	repeat	Run3	repeat/STIM_012.jpg
2529.392	1.015	correct	repeat	Run3	repeat/STIM_012.jpg
2533.564	0.574	correct	repeat	Run3	repeat/STIM_013.jpg
2537.386	0.877	correct	repeat	Run3	repeat/STIM_013.jpg
2541.658	0.521	correct	repeat	Run3	repeat/STIM_013.jpg
2544.746	0.844	correct	repeat	Run3	repeat/STIM_013.jpg
2548.138	0.638	correct	repeat	Run3	repeat/STIM_013.jpg
2552.676	0.746	correct	repeat	Run3	repeat/STIM_014.jpg
2556.199	0.546	correct	repeat	Run3	repeat/STIM_014.jpg
2560.325	0.686	correct	repeat	Run3	repeat/STIM_014.jpg
2564.022	0.671	correct	repeat	Run3	repeat/STIM_014.jpg
2568.348	0.594	correct	repeat	Run3	repeat/STIM_014.jpg
2572.166	1.726	correct	generate	Run4	generate/STIM_000.jpg
2576.58	1.397	correct	generate	Run4	generate/STIM_000.jpg
2581.793	1.762	correct	generate	Run4	generate/STIM_000.jpg
2586.404	0.993	correct	generate	Run4	generate/STIM_000.jpg
2590.748	1.745	correct	generate	Run4	generate/STIM_000.jpg
2595.192	1.114	correct	generate	Run4	generate/STIM_001.jpg
2599.015	1.739	correct	generate	Run4	generate/STIM_001.jpg
2603.51	1.73	correct	generate	Run4	generate/STIM_001.jpg
2607.837	1.455	correct	generate	Run4	generate/STIM_001.jpg
2613.023	1.575	correct	generate	Run4	generate/STIM_001.jpg
2617.491	1.347	correct	generate	Run4	generate/STIM_002.jpg
2621.654	0.867	correct	generate	Run4	generate/STIM_002.jpg
2625.597	1.332	correct	generate	Run4	generate/STIM_002.jpg
2629.443	1.41	correct	generate	Run4	generate/STIM_002.jpg
2632.971	1.44	correct	generate	Run4	generate/STIM_002.jpg
2637.44	0.878	correct	generate	Run4	generate/STIM_003.jpg
2642.262	0.89	correct	generate	Run4	generate/STIM_003.jpg
2646.491	0.889	correct	generate	Run4	generate/STIM_003.jpg
2650.06	1.998	correct	generate	Run4	generate/STIM_003.jpg
2655.833	1.724	correct	generate	Run4	generate/STIM_003.jpg
2660.371	2.139	correct	generate	Run4	generate/STIM_004.jpg
2666.457	1.963	correct	generate	Run4	generate/STIM_004.jpg
2671.328	1.497	correct	generate	Run4	generate/STIM_004.jpg
2676.055	1.197	correct	generate	Run4	generate/STIM_004.jpg
2680.673	1.048	correct	generate	Run4	generate/STIM_004.jpg
2685.692	1.154	correct	generate	Run4	generate/STIM_005.jpg
2690.786	1.817	correct	generate	Run4	generate/STIM_005.jpg
2696.254	1.188	correct	generate	Run4	generate/STIM_005.jpg
2699.542	2.134	correct	generate	Run4	generate/STIM_005.jpg
2705.59	1.872	correct	generate	Run4	generate/STIM_005.jpg
2710.894	1.57	correct	generate	Run4	generate/STIM_006.jpg
2716.395	2.134	incorrect	generate	Run4	generate/STIM_006.jpg
2720.739	1.345	incorrect	generate	Run4	generate/STIM_006.jpg
2725.305	1.665	correct	generate	Run4	generate/STIM_006.jpg
2729.743	1.546	correct	generate	Run4	generate/STIM_006.jpg
2735.115	0.97	correct	generate	Run4	generate/STIM_007.jpg
2738.969	1.752	correct	generate	Run4	generate/STIM_007.jpg
2743.326	1.573	correct	generate	Run4	generate/STIM_007.jpg
2747.273	1.662	correct	generate	Run4	generate/STIM_007.jpg
2751.982	0.978	correct	generate	Run4	generate/STIM_007.jpg
2755.81	1.997	correct	generate	Run4	generate/STIM_008.jpg
2760.611	1.149	correct	generate	Run4	generate/STIM_008.jpg
2763.883	1.045	correct	generate	Run4	generate/STIM_008.jpg
2768.183	1.245	correct	generate	Run4	generate/STIM_008.jpg
2771.66	1.246	correct	generate	Run4	generate/STIM_008.jpg
2774.979	1.996	correct	generate	Run4	generate/STIM_009.jpg
2779.243	1.82	correct	generate	Run4	generate/STIM_009.jpg
2784.904	1.51	correct	generate	Run4	generate/STIM_009.jpg
2788.754	1.621	correct	generate	Run4	generate/STIM_009.jpg
2793.692	1.507	correct	generate	Run4	generate/STIM_009.jpg
2797.944	0.964	correct	generate	Run4	generate/STIM_010.jpg
2802.619	0.867	correct	generate	Run4	generate/STIM_010.jpg
2806.505	1.144	correct	generate	Run4	generate/STIM_010.jpg
2810.913	1.683	correct	generate	Run4	generate/STIM_010.jpg
2815.884	1.667	correct	generate	Run4	generate/STIM_010.jpg
2820.715	1.33	correct	generate	Run4	generate/STIM_011.jpg
2825.361	1.241	correct	generate	Run4	generate/STIM_011.jpg
2829.715	1.479	correct	generate	Run4	generate/STIM_011.jpg
2834.063	1.5	correct	generate	Run4	generate/STIM_011.jpg
2838.17	1.108	correct	generate	Run4	generate/STIM_011.jpg
2842.604	0.944	correct	generate	Run4	generate/STIM_012.jpg
2847.253	1.558	correct	generate	Run4	generate/STIM_012.jpg
2850.876	1.558	correct	generate	Run4	generate/STIM_012.jpg
2855.372	1.454	correct	generate	Run4	generate/STIM_012.jpg
2859.899	1.616	correct	generate	Run4	generate/STIM_012.jpg
2863.754	1.21	correct	generate	Run4	generate/STIM_013.jpg
2868.149	1.05	correct	generate	Run4	generate/STIM_013.jpg
2871.821	1.636	correct	generate	Run4	generate/STIM_013.jpg
2876.882	1.965	correct	generate	Run4	generate/STIM_013.jpg
2881.368	1.161	correct	generate	Run4	generate/STIM_013.jpg
2885.189	0.987	incorrect	generate	Run4	generate/STIM_014.jpg
2889.116	1.484	correct	generate	Run4	generate/STIM_014.jpg
2894.181	1.598	correct	generate	Run4	generate/STIM_014.jpg
2899.113	1.032	correct	generate	Run4	generate/STIM_014.jpg
2903.515	1.732	correct	generate	Run4	generate/STIM_014.jpg
2909.103	1.678	correct	generate	Run4	generate/STIM_015.jpg
2912.809	0.985	correct	generate	Run4	generate/STIM_015.jpg
2917.503	1.13	correct	generate	Run4	generate/STIM_015.jpg
2920.765	2.07	correct	generate	Run4	generate/STIM_015.jpg
2925.571	0.907	correct	generate	Run4	generate/STIM_015.jpg
2929.209	1.368	correct	generate	Run4	generate/STIM_016.jpg
2932.932	1.754	correct	generate	Run4	generate/STIM_016.jpg
2938.571	1.241	correct	generate	Run4	generate/STIM_016.jpg
2942.769	1.759	correct	generate	Run4	generate/STIM_016.jpg
2947.503	1.443	correct	generate	Run4	generate/STIM_016.jpg
2952.528	1.693	correct	generate	Run4	generate/STIM_017.jpg
2957.445	1.298	correct	generate	Run4	generate/STIM_017.jpg
2961.004	1.046	correct	generate	Run4	generate/STIM_017.jpg
2964.043	1.918	correct	generate	Run4	generate/STIM_017.jpg
2969.618	0.894	incorrect	generate	Run4	generate/STIM_017.jpg
2974.124	1.303	correct	generate	Run4	generate/STIM_018.jpg
2978.256	1.886	correct	generate	Run4	generate/STIM_018.jpg
2982.395	1.115	correct	generate	Run4	generate/STIM_018.jpg
2986.189	2.132	correct	generate	Run4	generate/STIM_018.jpg
2991.41	1.889	correct	generate	Run4	generate/STIM_018.jpg
2996.294	1.04	correct	generate	Run4	generate/STIM_019.jpg
3000.468	1.805	correct	generate	Run4	generate/STIM_019.jpg
3005.677	1.104	correct	generate	Run4	generate/STIM_019.jpg
3009.861	1.856	correct	generate	Run4	generate/STIM_019.jpg
3015.602	1.299	correct	generate	Run4	generate/STIM_019.jpg
3019.276	1.23	correct	generate	Run4	generate/STIM_020.jpg
3023.571	1.229	incorrect	generate	Run4	generate/STIM_020.jpg
3028.278	1.446	correct	generate	Run4	generate/STIM_020.jpg
3033.624	0.876	correct	generate	Run4	generate/STIM_020.jpg
3036.731	0.966	correct	generate	Run4	generate/STIM_020.jpg
3039.785	2.034	correct	generate	Run4	generate/STIM_021.jpg
3045.51	1.748	correct	generate	Run4	generate/STIM_021.jpg
3050.795	1.611	correct	generate	Run4	generate/STIM_021.jpg
3055.868	1.505	correct	generate	Run4	generate/STIM_021.jpg
3059.738	1.543	correct	generate	Run4	generate/STIM_021.jpg
3065.247	1.991	correct	generate	Run4	generate/STIM_022.jpg
3069.964	1.426	correct	generate	Run4	generate/STIM_022.jpg
3074.674	1.803	correct	generate	Run4	generate/STIM_022.jpg
3078.854	1.095	correct	generate	Run4	generate/STIM_022.jpg
3083.729	1.593	correct	generate	Run4	generate/STIM_022.jpg
3087.539	2.004	correct	generate	Run4	generate/STIM_023.jpg
3092.744	1.539	correct	generate	Run4	generate/STIM_023.jpg
3097.99	1.146	correct	generate	Run4	generate/STIM_023.jpg
3102.884	1.239	correct	generate	Run4	generate/STIM_023.jpg
3107.233	0.967	correct	generate	Run4	generate/STIM_023.jpg
3111.52	1.65	correct	generate	Run4	generate/STIM_024.jpg
3116.798	1.643	correct	generate	Run4	generate/STIM_024.jpg
3120.73	1.49	correct	generate	Run4	generate/STIM_024.jpg
3126.148	1.03	correct	generate	Run4	generate/STIM_024.jpg
3129.902	1.376	correct	generate	Run4	generate/STIM_024.jpg
3133.822	0.832	correct	repeat	Run4	repeat/STIM_000.jpg
3137.713	0.956	correct	repeat	Run4	repeat/STIM_000.jpg
3141.37	0.72	correct	repeat	Run4	repeat/STIM_000.jpg
3144.953	0.752	correct	repeat	Run4	repeat/STIM_000.jpg
3149.438	0.775	correct	repeat	Run4	repeat/STIM_000.jpg
3153.043	0.923	correct	repeat	Run4	repeat/STIM_001.jpg
3157.068	0.719	correct	repeat	Run4	repeat/STIM_001.jpg
3159.903	0.689	correct	repeat	Run4	repeat/STIM_001.jpg
3164.274	0.886	correct	repeat	Run4	repeat/STIM_001.jpg
3167.233	0.684	correct	repeat	Run4	repeat/STIM_001.jpg
3171.263	0.773	correct	repeat	Run4	repeat/STIM_002.jpg
3175.79	0.737	correct	repeat	Run4	repeat/STIM_002.jpg
3180.261	0.816	correct	repeat	Run4	repeat/STIM_002.jpg
3183.895	0.843	correct	repeat	Run4	repeat/STIM_002.jpg
3187.249	0.526	correct	repeat	Run4	repeat/STIM_002.jpg
3190.089	0.934	correct	repeat	Run4	repeat/STIM_003.jpg
3194.568	0.663	correct	repeat	Run4	repeat/STIM_003.jpg
3198.901	0.86	correct	repeat	Run4	repeat/STIM_003.jpg
3201.837	0.986	correct	repeat	Run4	repeat/STIM_003.jpg
3205.71	0.913	correct	repeat	Run4	repeat/STIM_003.jpg
3210.143	0.648	correct	repeat	Run4	repeat/STIM_004.jpg
3213.933	0.605	correct	repeat	Run4	repeat/STIM_004.jpg
3217.818	0.71	correct	repeat	Run4	repeat/STIM_004.jpg
3221.519	0.598	correct	repeat	Run4	repeat/STIM_004.jpg
3225.202	0.57	correct	repeat	Run4	repeat/STIM_004.jpg
3228.472	0.744	correct	repeat	Run4	repeat/STIM_005.jpg
3231.687	0.799	incorrect	repeat	Run4	repeat/STIM_005.jpg
3236.257	0.634	correct	repeat	Run4	repeat/STIM_005.jpg
3240.827	0.675	correct	repeat	Run4	repeat/STIM_005.jpg
3244.868	0.614	incorrect	repeat	Run4	repeat/STIM_005.jpg
3247.934	0.615	correct	repeat	Run4	repeat/STIM_006.jpg
3251.942	0.692	correct	repeat	Run4	repeat/STIM_006.jpg
3254.806	0.537	correct	repeat	Run4	repeat/STIM_006.jpg
3257.776	0.749	correct	repeat	Run4	repeat/STIM_006.jpg
3261.466	0.637	correct	repeat	Run4	repeat/STIM_006.jpg
3264.889	0.889	correct	repeat	Run4	repeat/STIM_007.jpg
3269.269	0.77	correct	repeat	Run4	repeat/STIM_007.jpg
3273.483	0.96	correct	repeat	Run4	repeat/STIM_007.jpg
3277.545	0.84	correct	repeat	Run4	repeat/STIM_007.jpg
3280.953	0.929	correct	repeat	Run4	repeat/STIM_007.jpg
3284.791	0.943	correct	repeat	Run4	repeat/STIM_008.jpg
3288.886	0.565	correct	repeat	Run4	repeat/STIM_008.jpg
3293.13	0.562	correct	repeat	Run4	repeat/STIM_008.jpg
3297.205	0.897	correct	repeat	Run4	repeat/STIM_008.jpg
3301.991	0.523	correct	repeat	Run4	repeat/STIM_008.jpg
3306.043	0.712	correct	repeat	Run4	repeat/STIM_009.jpg
3308.827	0.518	correct	repeat	Run4	repeat/STIM_009.jpg
3312.717	0.555	correct	repeat	Run4	repeat/STIM_009.jpg
3315.326	0.67	correct	repeat	Run4	repeat/STIM_009.jpg
3318.829	0.585	correct	repeat	Run4	repeat/STIM_009.jpg
3323.141	0.766	correct	repeat	Run4	repeat/STIM_010.jpg
3327.137	0.666	correct	repeat	Run4	repeat/STIM_010.jpg
3330.993	0.654	correct	repeat	Run4	repeat/STIM_010.jpg
3335.545	0.847	correct	repeat	Run4	repeat/STIM_010.jpg
3338.593	0.599	correct	repeat	Run4	repeat/STIM_010.jpg
3343.073	1.012	correct	repeat	Run4	repeat/STIM_011.jpg
3346.697	0.888	correct	repeat	Run4	repeat/STIM_011.jpg
3350.858	1.004	correct	repeat	Run4	repeat/STIM_011.jpg
3355.137	0.924	correct	repeat	Run4	repeat/STIM_011.jpg
3358.921	0.581	correct	repeat	Run4	repeat/STIM_011.jpg
3362.804	0.575	correct	repeat	Run4	repeat/STIM_012.jpg
3366.797	0.531	correct	repeat	Run4	repeat/STIM_012.jpg
3370.799	0.649	correct	repeat	Run4	repeat/STIM_012.jpg
3373.565	0.874	correct	repeat	Run4	repeat/STIM_012.jpg
3377.743	0.734	correct	repeat	Run4	repeat/STIM_012.jpg
3381.505	0.887	correct	repeat	Run4	repeat/STIM_013.jpg
3385.945	0.858	correct	repeat	Run4	repeat/STIM_013.jpg
3390.58	0.774	correct	repeat	Run4	repeat/STIM_013.jpg
3393.513	0.856	correct	repeat	Run4	repeat/STIM_013.jpg
3396.552	0.685	correct	repeat	Run4	repeat/STIM_013.jpg
3399.716	0.8	correct	repeat	Run4	repeat/STIM_014.jpg
3404.175	0.876	correct	repeat	Run4	repeat/STIM_014.jpg
3408.299	0.978	correct	repeat	Run4	repeat/STIM_014.jpg
3411.325	0.683	correct	repeat	Run4	repeat/STIM_014.jpg
3415.856	0.711	correct	repeat	Run4	repeat/STIM_014.jpg
