onset	duration	accuracy	trial_type	learning_stage	stimulus
0.0	1.408	correct	study	Phase1	study/STIM_000.jpg
3.626	0.95	correct	study	Phase1	study/STIM_000.jpg
8.007	1.233	correct	study	Phase1	study/STIM_000.jpg
12.068	0.804	correct	study	Phase1	study/STIM_001.jpg
16.229	1.151	correct	study	Phase1	study/STIM_001.jpg
20.052	0.937	correct	study	Phase1	study/STIM_001.jpg
24.584	1.252	correct	study	Phase1	study/STIM_002.jpg
28.265	1.317	correct	study	Phase1	study/STIM_002.jpg
33.255	1.499	correct	study	Phase1	study/STIM_002.jpg
37.509	1.512	correct	study	Phase1	study/STIM_003.jpg
41.355	0.754	correct	study	Phase1	study/STIM_003.jpg
45.916	0.89	correct	study	Phase1	study/STIM_003.jpg
50.745	0.785	correct	study	Phase1	study/STIM_004.jpg
54.173	0.757	correct	study	Phase1	study/STIM_004.jpg
57.21	1.158	correct	study	Phase1	study/STIM_004.jpg
60.498	0.809	correct	study	Phase1	study/STIM_005.jpg
63.449	1.411	correct	study	Phase1	study/STIM_005.jpg
67.546	1.044	correct	study	Phase1	study/STIM_005.jpg
72.411	1.442	incorrect	study	Phase1	study/STIM_006.jpg
76.493	1.068	correct	study	Phase1	study/STIM_006.jpg
80.808	1.098	correct	study	Phase1	study/STIM_006.jpg
85.878	1.543	correct	study	Phase1	study/STIM_007.jpg
90.876	0.967	correct	study	Phase1	study/STIM_007.jpg
94.548	1.03	correct	study	Phase1	study/STIM_007.jpg
99.208	1.103	correct	study	Phase1	study/STIM_008.jpg
102.459	0.882	correct	study	Phase1	study/STIM_008.jpg
106.558	1.499	correct	study	Phase1	study/STIM_008.jpg
110.801	1.046	correct	study	Phase1	study/STIM_009.jpg
115.844	1.293	correct	study	Phase1	study/STIM_009.jpg
120.7	0.99	correct	study	Phase1	study/STIM_009.jpg
125.356	1.416	correct	study	Phase1	study/STIM_010.jpg
129.445	0.854	correct	study	Phase1	study/STIM_010.jpg
134.11	0.717	correct	study	Phase1	study/STIM_010.jpg
137.446	1.348	correct	study	Phase1	study/STIM_011.jpg
141.231	0.872	correct	study	Phase1	study/STIM_011.jpg
145.108	0.918	correct	study	Phase1	study/STIM_011.jpg
148.953	0.817	correct	study	Phase1	study/STIM_012.jpg
152.428	1.314	correct	study	Phase1	study/STIM_012.jpg
156.884	1.347	correct	study	Phase1	study/STIM_012.jpg
160.753	1.08	correct	study	Phase1	study/STIM_013.jpg
165.687	1.538	correct	study	Phase1	study/STIM_013.jpg
169.489	1.11	correct	study	Phase1	study/STIM_013.jpg
173.29	0.903	correct	study	Phase1	study/STIM_014.jpg
178.092	1.624	correct	study	Phase1	study/STIM_014.jpg
182.914	1.419	correct	study	Phase1	study/STIM_014.jpg
187.712	1.15	correct	study	Phase1	study/STIM_015.jpg
191.668	0.792	correct	study	Phase1	study/STIM_015.jpg
194.965	0.952	correct	study	Phase1	study/STIM_015.jpg
199.647	1.231	correct	study	Phase1	study/STIM_016.jpg
204.017	1.094	correct	study	Phase1	study/STIM_016.jpg
208.601	0.794	correct	study	Phase1	study/STIM_016.jpg
212.816	0.96	correct	study	Phase1	study/STIM_017.jpg
216.726	1.13	correct	study	Phase1	study/STIM_017.jpg
221.103	1.237	correct	study	Phase1	study/STIM_017.jpg
224.925	1.068	correct	study	Phase1	study/STIM_018.jpg
228.608	1.614	correct	study	Phase1	study/STIM_018.jpg
232.551	0.69	correct	study	Phase1	study/STIM_018.jpg
235.73	0.87	correct	study	Phase1	study/STIM_019.jpg
240.316	1.389	correct	study	Phase1	study/STIM_019.jpg
244.504	1.12	correct	study	Phase1	study/STIM_019.jpg
249.302	1.627	correct	study	Phase1	study/STIM_020.jpg
254.318	0.824	correct	study	Phase1	study/STIM_020.jpg
257.64	1.055	correct	study	Phase1	study/STIM_020.jpg
261.209	0.811	correct	study	Phase1	study/STIM_021.jpg
264.064	0.731	correct	study	Phase1	study/STIM_021.jpg
267.274	0.875	correct	study	Phase1	study/STIM_021.jpg
270.761	0.883	correct	study	Phase1	study/STIM_022.jpg
275.359	1.336	correct	study	Phase1	study/STIM_022.jpg
279.819	1.298	correct	study	Phase1	study/STIM_022.jpg
284.449	1.59	correct	study	Phase1	study/STIM_023.jpg
289.197	1.112	correct	study	Phase1	study/STIM_023.jpg
293.946	0.69	correct	study	Phase1	study/STIM_023.jpg
297.002	1.209	correct	study	Phase1	study/STIM_024.jpg
300.661	1.154	correct	study	Phase1	study/STIM_024.jpg
304.605	0.837	correct	study	Phase1	study/STIM_024.jpg
308.189	1.707	correct	study	Phase1	study/STIM_025.jpg
312.125	1.38	correct	study	Phase1	study/STIM_025.jpg
315.565	0.776	correct	study	Phase1	study/STIM_025.jpg
320.223	0.946	correct	study	Phase1	study/STIM_026.jpg
323.65	1.189	correct	study	Phase1	study/STIM_026.jpg
327.282	1.333	correct	study	Phase1	study/STIM_026.jpg
332.46	1.386	correct	study	Phase1	study/STIM_027.jpg
337.426	1.463	correct	study	Phase1	study/STIM_027.jpg
341.568	1.487	correct	study	Phase1	study/STIM_027.jpg
345.139	1.194	correct	study	Phase1	study/STIM_028.jpg
349.876	1.555	incorrect	study	Phase1	study/STIM_028.jpg
353.631	1.19	correct	study	Phase1	study/STIM_028.jpg
357.007	0.926	correct	study	Phase1	study/STIM_029.jpg
361.12	1.525	correct	study	Phase1	study/STIM_029.jpg
366.609	0.739	correct	study	Phase1	study/STIM_029.jpg
370.977	0.78	correct	test	Phase1	test/STIM_000.jpg
374.333	1.164	correct	test	Phase1	test/STIM_000.jpg
379.012	0.946	correct	test	Phase1	test/STIM_000.jpg
383.022	0.809	correct	test	Phase1	test/STIM_001.jpg
387.347	1.178	correct	test	Phase1	test/STIM_001.jpg
392.143	1.196	correct	test	Phase1	test/STIM_001.jpg
395.6	0.625	correct	test	Phase1	test/STIM_002.jpg
399.482	0.99	correct	test	Phase1	test/STIM_002.jpg
403.269	0.792	correct	test	Phase1	test/STIM_002.jpg
407.712	1.195	correct	test	Phase1	test/STIM_003.jpg
411.761	0.994	correct	test	Phase1	test/STIM_003.jpg
415.736	0.715	correct	test	Phase1	test/STIM_003.jpg
418.452	1.05	correct	test	Phase1	test/STIM_004.jpg
421.989	0.77	correct	test	Phase1	test/STIM_004.jpg
425.554	1.02	correct	test	Phase1	test/STIM_004.jpg
428.823	0.904	correct	test	Phase1	test/STIM_005.jpg
432.318	0.616	correct	test	Phase1	test/STIM_005.jpg
436.317	0.652	correct	test	Phase1	test/STIM_005.jpg
440.919	1.025	correct	test	Phase1	test/STIM_006.jpg
445.347	1.075	correct	test	Phase1	test/STIM_006.jpg
449.378	0.857	correct	test	Phase1	test/STIM_006.jpg
454.088	0.973	correct	test	Phase1	test/STIM_007.jpg
458.901	1.181	correct	test	Phase1	test/STIM_007.jpg
463.829	1.236	incorrect	test	Phase1	test/STIM_007.jpg
468.75	1.119	correct	test	Phase1	test/STIM_008.jpg
472.066	1.224	correct	test	Phase1	test/STIM_008.jpg
477.031	0.574	correct	test	Phase1	test/STIM_008.jpg
480.537	0.73	correct	test	Phase1	test/STIM_009.jpg
484.398	0.623	correct	test	Phase1	test/STIM_009.jpg
487.797	0.695	correct	test	Phase1	test/STIM_009.jpg
491.323	0.633	correct	test	Phase1	test/STIM_010.jpg
494.138	0.657	correct	test	Phase1	test/STIM_010.jpg
498.514	1.187	correct	test	Phase1	test/STIM_010.jpg
502.369	0.752	correct	test	Phase1	test/STIM_011.jpg
506.566	1.233	correct	test	Phase1	test/STIM_011.jpg
509.897	1.034	correct	test	Phase1	test/STIM_011.jpg
514.623	1.023	correct	test	Phase1	test/STIM_012.jpg
518.668	1.18	correct	test	Phase1	test/STIM_012.jpg
523.543	0.777	correct	test	Phase1	test/STIM_012.jpg
527.416	0.873	correct	test	Phase1	test/STIM_013.jpg
530.489	0.743	correct	test	Phase1	test/STIM_013.jpg
533.422	0.785	correct	test	Phase1	test/STIM_013.jpg
537.452	0.676	correct	test	Phase1	test/STIM_014.jpg
541.023	1.182	correct	test	Phase1	test/STIM_014.jpg
544.755	0.666	correct	test	Phase1	test/STIM_014.jpg
548.485	0.642	correct	test	Phase1	test/STIM_015.jpg
552.306	0.755	correct	test	Phase1	test/STIM_015.jpg
556.61	1.202	correct	test	Phase1	test/STIM_015.jpg
560.123	1.211	correct	test	Phase1	test/STIM_016.jpg
565.289	0.574	correct	test	Phase1	test/STIM_016.jpg
568.478	1.196	incorrect	test	Phase1	test/STIM_016.jpg
572.983	0.624	correct	test	Phase1	test/STIM_017.jpg
577.154	0.923	correct	test	Phase1	test/STIM_017.jpg
580.935	1.15	correct	test	Phase1	test/STIM_017.jpg
586.044	1.21	correct	test	Phase1	test/STIM_018.jpg
591.027	1.136	correct	test	Phase1	test/STIM_018.jpg
595.411	0.62	correct	test	Phase1	test/STIM_018.jpg
598.379	0.618	correct	test	Phase1	test/STIM_019.jpg
602.151	1.141	correct	test	Phase1	test/STIM_019.jpg
606.171	0.611	correct	test	Phase1	test/STIM_019.jpg
609.913	0.869	correct	test	Phase1	test/STIM_020.jpg
613.787	0.797	correct	test	Phase1	test/STIM_020.jpg
617.671	1.155	correct	test	Phase1	test/STIM_020.jpg
621.303	1.138	correct	test	Phase1	test/STIM_021.jpg
624.855	0.986	correct	test	Phase1	test/STIM_021.jpg
629.53	0.873	correct	test	Phase1	test/STIM_021.jpg
632.594	0.835	correct	test	Phase1	test/STIM_022.jpg
637.046	0.678	correct	test	Phase1	test/STIM_022.jpg
640.383	1.004	correct	test	Phase1	test/STIM_022.jpg
644.886	0.911	incorrect	test	Phase1	test/STIM_023.jpg
648.671	0.654	correct	test	Phase1	test/STIM_023.jpg
653.229	1.099	correct	test	Phase1	test/STIM_023.jpg
657.622	1.191	correct	test	Phase1	test/STIM_024.jpg
661.476	1.222	correct	test	Phase1	test/STIM_024.jpg
665.344	0.88	correct	test	Phase1	test/STIM_024.jpg
668.523	1.209	correct	test	Phase1	test/STIM_025.jpg
673.482	0.697	correct	test	Phase1	test/STIM_025.jpg
676.227	1.08	correct	test	Phase1	test/STIM_025.jpg
680.559	0.606	correct	test	Phase1	test/STIM_026.jpg
683.313	0.764	correct	test	Phase1	test/STIM_026.jpg
687.209	0.979	correct	test	Phase1	test/STIM_026.jpg
690.734	0.734	correct	test	Phase1	test/STIM_027.jpg
695.166	0.982	correct	test	Phase1	test/STIM_027.jpg
698.502	1.153	correct	test	Phase1	test/STIM_027.jpg
702.973	0.842	correct	test	Phase1	test/STIM_028.jpg
707.774	1.102	correct	test	Phase1	test/STIM_028.jpg
712.572	1.077	correct	test	Phase1	test/STIM_028.jpg
716.501	0.695	correct	test	Phase1	test/STIM_029.jpg
720.642	0.749	correct	test	Phase1	test/STIM_029.jpg
725.382	0.622	correct	test	Phase1	test/STIM_029.jpg
729.608	1.285	correct	study	Phase2	study/STIM_000.jpg
733.592	0.955	correct	study	Phase2	study/STIM_000.jpg
738.494	0.805	correct	study	Phase2	study/STIM_000.jpg
741.838	1.447	correct	study	Phase2	study/STIM_001.jpg
746.212	1.076	correct	study	Phase2	study/STIM_001.jpg
749.837	0.652	correct	study	Phase2	study/STIM_001.jpg
753.184	1.264	correct	study	Phase2	study/STIM_002.jpg
756.654	1.258	correct	study	Phase2	study/STIM_002.jpg
761.833	1.049	correct	study	Phase2	study/STIM_002.jpg
765.83	1.172	correct	study	Phase2	study/STIM_003.jpg
769.032	0.708	correct	study	Phase2	study/STIM_003.jpg
772.599	0.919	correct	study	Phase2	study/STIM_003.jpg
776.864	1.129	correct	study	Phase2	study/STIM_004.jpg
780.021	0.668	correct	study	Phase2	study/STIM_004.jpg
782.997	0.84	correct	study	Phase2	study/STIM_004.jpg
786.932	0.834	correct	study	Phase2	study/STIM_005.jpg
790.994	1.264	correct	study	Phase2	study/STIM_005.jpg
795.365	0.83	correct	study	Phase2	study/STIM_005.jpg
799.954	0.679	correct	study	Phase2	study/STIM_006.jpg
803.961	1.128	correct	study	Phase2	study/STIM_006.jpg
808.3	0.917	correct	study	Phase2	study/STIM_006.jpg
811.773	1.367	correct	study	Phase2	study/STIM_007.jpg
815.967	0.664	correct	study	Phase2	study/STIM_007.jpg
820.037	1.009	correct	study	Phase2	study/STIM_007.jpg
823.914	1.127	correct	study	Phase2	study/STIM_008.jpg
828.924	1.057	correct	study	Phase2	study/STIM_008.jpg
832.881	1.146	correct	study	Phase2	study/STIM_008.jpg
836.613	1.197	correct	study	Phase2	study/STIM_009.jpg
841.394	0.708	correct	study	Phase2	study/STIM_009.jpg
844.24	0.58	correct	study	Phase2	study/STIM_009.jpg
847.982	0.932	correct	study	Phase2	study/STIM_010.jpg
852.148	0.997	correct	study	Phase2	study/STIM_010.jpg
857.111	1.024	correct	study	Phase2	study/STIM_010.jpg
861.117	1.199	incorrect	study	Phase2	study/STIM_011.jpg
864.973	0.666	correct	study	Phase2	study/STIM_011.jpg
868.032	0.917	incorrect	study	Phase2	study/STIM_011.jpg
871.92	0.919	correct	study	Phase2	study/STIM_012.jpg
875.939	0.816	correct	study	Phase2	study/STIM_012.jpg
880.709	0.65	correct	study	Phase2	study/STIM_012.jpg
884.306	1.431	correct	study	Phase2	study/STIM_013.jpg
889.533	0.863	correct	study	Phase2	study/STIM_013.jpg
892.602	0.609	correct	study	Phase2	study/STIM_013.jpg
897.065	0.72	correct	study	Phase2	study/STIM_014.jpg
899.852	0.689	correct	study	Phase2	study/STIM_014.jpg
904.481	1.048	correct	study	Phase2	study/STIM_014.jpg
909.081	1.08	correct	study	Phase2	study/STIM_015.jpg
913.352	0.849	correct	study	Phase2	study/STIM_015.jpg
917.268	1.159	correct	study	Phase2	study/STIM_015.jpg
921.249	1.265	correct	study	Phase2	study/STIM_016.jpg
926.067	0.892	correct	study	Phase2	study/STIM_016.jpg
929.686	1.007	correct	study	Phase2	study/STIM_016.jpg
934.541	0.71	correct	study	Phase2	study/STIM_017.jpg
938.665	0.86	correct	study	Phase2	study/STIM_017.jpg
943.007	1.0	correct	study	Phase2	study/STIM_017.jpg
946.785	1.042	correct	study	Phase2	study/STIM_018.jpg
950.255	0.927	correct	study	Phase2	study/STIM_018.jpg
954.712	1.116	correct	study	Phase2	study/STIM_018.jpg
957.992	0.656	correct	study	Phase2	study/STIM_019.jpg
961.469	1.362	correct	study	Phase2	study/STIM_019.jpg
965.343	1.207	correct	study	Phase2	study/STIM_019.jpg
969.749	0.725	correct	study	Phase2	study/STIM_020.jpg
974.362	1.058	correct	study	Phase2	study/STIM_020.jpg
978.671	1.221	correct	study	Phase2	study/STIM_020.jpg
982.902	1.423	correct	study	Phase2	study/STIM_021.jpg
987.764	1.077	correct	study	Phase2	study/STIM_021.jpg
991.544	0.795	correct	study	Phase2	study/STIM_021.jpg
994.77	0.987	correct	study	Phase2	study/STIM_022.jpg
997.773	1.348	correct	study	Phase2	study/STIM_022.jpg
1003.059	0.671	correct	study	Phase2	study/STIM_022.jpg
1006.133	1.286	correct	study	Phase2	study/STIM_023.jpg
1009.644	1.304	correct	study	Phase2	study/STIM_023.jpg
1014.174	1.275	correct	study	Phase2	study/STIM_023.jpg
1019.361	0.924	correct	study	Phase2	study/STIM_024.jpg
1022.662	0.99	correct	study	Phase2	study/STIM_024.jpg
1025.953	1.042	correct	study	Phase2	study/STIM_024.jpg
1029.677	1.183	correct	study	Phase2	study/STIM_025.jpg
1034.484	0.728	correct	study	Phase2	study/STIM_025.jpg
1037.34	0.71	correct	study	Phase2	study/STIM_025.jpg
1041.759	0.852	correct	study	Phase2	study/STIM_026.jpg
1045.685	0.77	correct	study	Phase2	study/STIM_026.jpg
1050.003	0.675	correct	study	Phase2	study/STIM_026.jpg
1054.227	0.92	correct	study	Phase2	study/STIM_027.jpg
1057.248	1.072	correct	study	Phase2	study/STIM_027.jpg
1061.981	0.825	correct	study	Phase2	study/STIM_027.jpg
1066.488	0.688	correct	study	Phase2	study/STIM_028.jpg
1069.916	0.826	correct	study	Phase2	study/STIM_028.jpg
1074.243	0.617	correct	study	Phase2	study/STIM_028.jpg
1077.915	1.376	correct	study	Phase2	study/STIM_029.jpg
1082.439	0.99	correct	study	Phase2	study/STIM_029.jpg
1086.341	0.718	correct	study	Phase2	study/STIM_029.jpg
1089.962	1.21	correct	test	Phase2	test/STIM_000.jpg
1094.537	1.198	correct	test	Phase2	test/STIM_000.jpg
1099.477	1.122	correct	test	Phase2	test/STIM_000.jpg
1103.8	0.675	correct	test	Phase2	test/STIM_001.jpg
1106.936	1.066	correct	test	Phase2	test/STIM_001.jpg
1110.825	0.75	correct	test	Phase2	test/STIM_001.jpg
1113.718	0.6	correct	test	Phase2	test/STIM_002.jpg
1118.261	1.223	correct	test	Phase2	test/STIM_002.jpg
1123.244	0.714	correct	test	Phase2	test/STIM_002.jpg
1126.243	0.638	correct	test	Phase2	test/STIM_003.jpg
1130.028	1.091	correct	test	Phase2	test/STIM_003.jpg
1135.075	0.86	correct	test	Phase2	test/STIM_003.jpg
1138.867	1.023	correct	test	Phase2	test/STIM_004.jpg
1142.808	0.966	correct	test	Phase2	test/STIM_004.jpg
1147.067	1.228	correct	test	Phase2	test/STIM_004.jpg
1152.068	0.946	correct	test	Phase2	test/STIM_005.jpg
1156.923	0.893	correct	test	Phase2	test/STIM_005.jpg
1160.179	0.734	correct	test	Phase2	test/STIM_005.jpg
1164.142	1.179	correct	test	Phase2	test/STIM_006.jpg
1167.564	0.575	incorrect	test	Phase2	test/STIM_006.jpg
1172.135	1.034	correct	test	Phase2	test/STIM_006.jpg
1176.923	1.092	correct	test	Phase2	test/STIM_007.jpg
1181.648	0.771	correct	test	Phase2	test/STIM_007.jpg
1184.872	0.883	correct	test	Phase2	test/STIM_007.jpg
1188.333	0.686	correct	test	Phase2	test/STIM_008.jpg
1192.999	1.089	correct	test	Phase2	test/STIM_008.jpg
1196.578	0.716	correct	test	Phase2	test/STIM_008.jpg
1200.397	0.974	correct	test	Phase2	test/STIM_009.jpg
1204.732	0.766	correct	test	Phase2	test/STIM_009.jpg
1208.86	0.804	correct	test	Phase2	test/STIM_009.jpg
1212.413	0.752	correct	test	Phase2	test/STIM_010.jpg
1216.826	1.139	correct	test	Phase2	test/STIM_010.jpg
1220.094	1.063	correct	test	Phase2	test/STIM_010.jpg
1223.945	0.614	correct	test	Phase2	test/STIM_011.jpg
1228.144	1.107	correct	test	Phase2	test/STIM_011.jpg
1231.923	0.66	correct	test	Phase2	test/STIM_011.jpg
1236.568	1.008	correct	test	Phase2	test/STIM_012.jpg
1241.106	1.131	correct	test	Phase2	test/STIM_012.jpg
1244.27	0.696	correct	test	Phase2	test/STIM_012.jpg
1247.717	1.226	correct	test	Phase2	test/STIM_013.jpg
1252.856	0.705	correct	test	Phase2	test/STIM_013.jpg
1256.204	1.23	correct	test	Phase2	test/STIM_013.jpg
1260.467	1.099	correct	test	Phase2	test/STIM_014.jpg
1264.502	1.228	correct	test	Phase2	test/STIM_014.jpg
1268.939	0.607	correct	test	Phase2	test/STIM_014.jpg
1272.842	0.84	correct	test	Phase2	test/STIM_015.jpg
1276.866	0.58	correct	test	Phase2	test/STIM_015.jpg
1280.677	0.697	correct	test	Phase2	test/STIM_015.jpg
1284.681	0.607	correct	test	Phase2	test/STIM_016.jpg
1287.587	0.958	correct	test	Phase2	test/STIM_016.jpg
1291.986	0.741	correct	test	Phase2	test/STIM_016.jpg
1294.885	0.855	correct	test	Phase2	test/STIM_017.jpg
1298.175	0.742	correct	test	Phase2	test/STIM_017.jpg
1302.128	1.024	correct	test	Phase2	test/STIM_017.jpg
1306.875	0.895	correct	test	Phase2	test/STIM_018.jpg
1310.349	1.012	correct	test	Phase2	test/STIM_018.jpg
1314.423	1.026	correct	test	Phase2	test/STIM_018.jpg
1319.212	0.961	correct	test	Phase2	test/STIM_019.jpg
1322.67	1.023	correct	test	Phase2	test/STIM_019.jpg
1326.465	1.09	correct	test	Phase2	test/STIM_019.jpg
1329.674	0.958	correct	test	Phase2	test/STIM_020.jpg
1334.567	1.112	correct	test	Phase2	test/STIM_020.jpg
1337.922	0.967	correct	test	Phase2	test/STIM_020.jpg
1340.959	0.932	correct	test	Phase2	test/STIM_021.jpg
1344.093	1.105	correct	test	Phase2	test/STIM_021.jpg
1348.711	1.119	correct	test	Phase2	test/STIM_021.jpg
1352.358	0.71	correct	test	Phase2	test/STIM_022.jpg
1356.963	1.049	correct	test	Phase2	test/STIM_022.jpg
1361.289	0.829	correct	test	Phase2	test/STIM_022.jpg
1364.269	0.592	correct	test	Phase2	test/STIM_023.jpg
1367.738	0.939	correct	test	Phase2	test/STIM_023.jpg
1371.232	0.888	correct	test	Phase2	test/STIM_023.jpg
1374.897	1.118	correct	test	Phase2	test/STIM_024.jpg
1379.222	1.168	correct	test	Phase2	test/STIM_024.jpg
1384.17	0.751	correct	test	Phase2	test/STIM_024.jpg
1387.443	0.757	correct	test	Phase2	test/STIM_025.jpg
1391.498	0.626	correct	test	Phase2	test/STIM_025.jpg
1394.435	0.991	correct	test	Phase2	test/STIM_025.jpg
1399.146	1.198	correct	test	Phase2	test/STIM_026.jpg
1402.963	0.731	correct	test	Phase2	test/STIM_026.jpg
1407.523	0.954	correct	test	Phase2	test/STIM_026.jpg
1411.458	0.59	correct	test	Phase2	test/STIM_027.jpg
1415.124	1.05	correct	test	Phase2	test/STIM_027.jpg
1419.617	1.111	correct	test	Phase2	test/STIM_027.jpg
1424.221	0.84	correct	test	Phase2	test/STIM_028.jpg
1428.59	1.232	correct	test	Phase2	test/STIM_028.jpg
1432.644	0.681	correct	test	Phase2	test/STIM_028.jpg
1436.712	1.182	correct	test	Phase2	test/STIM_029.jpg
1440.253	0.761	correct	test	Phase2	test/STIM_029.jpg
1443.596	0.727	correct	test	Phase2	test/STIM_029.jpg
1446.338	0.892	correct	study	Phase3	study/STIM_000.jpg
1449.763	0.935	correct	study	Phase3	study/STIM_000.jpg
1454.008	0.83	correct	study	Phase3	study/STIM_000.jpg
1458.509	1.038	correct	study	Phase3	study/STIM_001.jpg
1461.754	0.581	correct	study	Phase3	study/STIM_001.jpg
1465.5	0.567	correct	study	Phase3	study/STIM_001.jpg
1469.574	0.729	correct	study	Phase3	study/STIM_002.jpg
1473.794	0.697	correct	study	Phase3	study/STIM_002.jpg
1477.986	0.798	correct	study	Phase3	study/STIM_002.jpg
1481.827	1.147	correct	study	Phase3	study/STIM_003.jpg
1485.319	0.988	correct	study	Phase3	study/STIM_003.jpg
1489.49	1.022	correct	study	Phase3	study/STIM_003.jpg
1494.14	1.014	correct	study	Phase3	study/STIM_004.jpg
1497.456	1.09	correct	study	Phase3	study/STIM_004.jpg
1500.82	0.858	correct	study	Phase3	study/STIM_004.jpg
1505.187	1.014	correct	study	Phase3	study/STIM_005.jpg
1509.955	0.654	correct	study	Phase3	study/STIM_005.jpg
1513.522	0.752	correct	study	Phase3	study/STIM_005.jpg
1516.609	0.974	correct	study	Phase3	study/STIM_006.jpg
1519.827	0.608	correct	study	Phase3	study/STIM_006.jpg
1523.923	1.007	correct	study	Phase3	study/STIM_006.jpg
1528.05	0.589	correct	study	Phase3	study/STIM_007.jpg
1532.454	0.998	correct	study	Phase3	study/STIM_007.jpg
1537.075	1.085	correct	study	Phase3	study/STIM_007.jpg
1540.772	0.678	correct	study	Phase3	study/STIM_008.jpg
1544.707	0.648	correct	study	Phase3	study/STIM_008.jpg
1548.291	0.688	correct	study	Phase3	study/STIM_008.jpg
1552.826	1.031	correct	study	Phase3	study/STIM_009.jpg
1557.023	0.858	correct	study	Phase3	study/STIM_009.jpg
1561.67	0.698	correct	study	Phase3	study/STIM_009.jpg
1565.869	0.65	correct	study	Phase3	study/STIM_010.jpg
1568.575	0.624	correct	study	Phase3	study/STIM_010.jpg
1571.308	0.97	correct	study	Phase3	study/STIM_010.jpg
1575.025	1.116	correct	study	Phase3	study/STIM_011.jpg
1578.792	0.633	correct	study	Phase3	study/STIM_011.jpg
1582.265	0.942	correct	study	Phase3	study/STIM_011.jpg
1586.298	0.951	correct	study	Phase3	study/STIM_012.jpg
1589.847	0.772	correct	study	Phase3	study/STIM_012.jpg
1593.842	0.652	correct	study	Phase3	study/STIM_012.jpg
1597.429	0.812	correct	study	Phase3	study/STIM_013.jpg
1602.091	1.041	correct	study	Phase3	study/STIM_013.jpg
1606.492	1.131	incorrect	study	Phase3	study/STIM_013.jpg
1610.123	0.894	correct	study	Phase3	study/STIM_014.jpg
1613.09	1.188	correct	study	Phase3	study/STIM_014.jpg
1616.997	0.728	correct	study	Phase3	study/STIM_014.jpg
1621.308	1.17	correct	study	Phase3	study/STIM_015.jpg
1626.382	1.082	correct	study	Phase3	study/STIM_015.jpg
1630.812	0.823	correct	study	Phase3	study/STIM_015.jpg
1633.751	0.997	correct	study	Phase3	study/STIM_016.jpg
1638.382	1.082	correct	study	Phase3	study/STIM_016.jpg
1642.112	0.854	correct	study	Phase3	study/STIM_016.jpg
1645.54	0.928	correct	study	Phase3	study/STIM_017.jpg
1648.579	0.535	correct	study	Phase3	study/STIM_017.jpg
1652.698	1.174	correct	study	Phase3	study/STIM_017.jpg
1656.897	0.631	correct	study	Phase3	study/STIM_018.jpg
1659.817	0.94	correct	study	Phase3	study/STIM_018.jpg
1663.149	1.042	correct	study	Phase3	study/STIM_018.jpg
1666.942	0.607	correct	study	Phase3	study/STIM_019.jpg
1669.896	0.782	correct	study	Phase3	study/STIM_019.jpg
1673.279	0.97	correct	study	Phase3	study/STIM_019.jpg
1677.05	0.661	correct	study	Phase3	study/STIM_020.jpg
1681.419	0.914	correct	study	Phase3	study/STIM_020.jpg
1684.632	0.833	correct	study	Phase3	study/STIM_020.jpg
1689.351	1.122	correct	study	Phase3	study/STIM_021.jpg
1693.507	0.683	correct	study	Phase3	study/STIM_021.jpg
1697.943	0.884	correct	study	Phase3	study/STIM_021.jpg
1701.243	1.066	correct	study	Phase3	study/STIM_022.jpg
1705.246	0.678	correct	study	Phase3	study/STIM_022.jpg
1709.843	0.879	correct	study	Phase3	study/STIM_022.jpg
1713.765	1.052	correct	study	Phase3	study/STIM_023.jpg
1717.175	0.923	correct	study	Phase3	study/STIM_023.jpg
1721.523	1.12	correct	study	Phase3	study/STIM_023.jpg
1724.794	1.171	correct	study	Phase3	study/STIM_024.jpg
1729.212	0.977	incorrect	study	Phase3	study/STIM_024.jpg
1732.599	1.036	correct	study	Phase3	study/STIM_024.jpg
1736.741	0.858	correct	study	Phase3	study/STIM_025.jpg
1739.768	0.759	correct	study	Phase3	study/STIM_025.jpg
1744.434	1.055	correct	study	Phase3	study/STIM_025.jpg
1748.525	0.644	correct	study	Phase3	study/STIM_026.jpg
1751.919	0.604	correct	study	Phase3	study/STIM_026.jpg
1756.271	1.124	correct	study	Phase3	study/STIM_026.jpg
1761.168	0.714	correct	study	Phase3	study/STIM_027.jpg
1765.577	1.108	correct	study	Phase3	study/STIM_027.jpg
1769.835	1.075	correct	study	Phase3	study/STIM_027.jpg
1774.69	0.901	correct	study	Phase3	study/STIM_028.jpg
1779.583	0.611	correct	study	Phase3	study/STIM_028.jpg
1783.193	0.791	correct	study	Phase3	study/STIM_028.jpg
1786.096	0.87	correct	study	Phase3	study/STIM_029.jpg
1789.394	0.817	correct	study	Phase3	study/STIM_029.jpg
1793.068	0.772	correct	study	Phase3	study/STIM_029.jpg
1796.878	0.992	correct	test	Phase3	test/STIM_000.jpg
1800.775	1.116	correct	test	Phase3	test/STIM_000.jpg
1804.567	1.009	correct	test	Phase3	test/STIM_000.jpg
1808.693	0.609	correct	test	Phase3	test/STIM_001.jpg
1811.872	0.759	correct	test	Phase3	test/STIM_001.jpg
1814.668	1.074	correct	test	Phase3	test/STIM_001.jpg
1818.363	0.923	correct	test	Phase3	test/STIM_002.jpg
1823.054	0.628	correct	test	Phase3	test/STIM_002.jpg
1827.381	0.981	correct	test	Phase3	test/STIM_002.jpg
1831.204	1.042	correct	test	Phase3	test/STIM_003.jpg
1836.032	0.799	correct	test	Phase3	test/STIM_003.jpg
1838.838	0.589	correct	test	Phase3	test/STIM_003.jpg
1841.827	0.612	correct	test	Phase3	test/STIM_004.jpg
1845.29	1.058	correct	test	Phase3	test/STIM_004.jpg
1848.823	0.906	correct	test	Phase3	test/STIM_004.jpg
1853.36	0.786	incorrect	test	Phase3	test/STIM_005.jpg
1857.563	0.613	correct	test	Phase3	test/STIM_005.jpg
1860.513	1.056	correct	test	Phase3	test/STIM_005.jpg
1864.592	0.633	correct	test	Phase3	test/STIM_006.jpg
1867.913	1.176	correct	test	Phase3	test/STIM_006.jpg
1871.101	0.88	correct	test	Phase3	test/STIM_006.jpg
1875.799	0.916	correct	test	Phase3	test/STIM_007.jpg
1878.935	0.826	correct	test	Phase3	test/STIM_007.jpg
1883.148	1.149	correct	test	Phase3	test/STIM_007.jpg
1886.383	1.22	correct	test	Phase3	test/STIM_008.jpg
1891.499	0.817	correct	test	Phase3	test/STIM_008.jpg
1895.694	1.224	correct	test	Phase3	test/STIM_008.jpg
1899.24	0.692	correct	test	Phase3	test/STIM_009.jpg
1903.206	1.064	correct	test	Phase3	test/STIM_009.jpg
1908.188	0.997	correct	test	Phase3	test/STIM_009.jpg
1912.265	0.847	correct	test	Phase3	test/STIM_010.jpg
1916.276	1.148	correct	test	Phase3	test/STIM_010.jpg
1920.775	0.937	correct	test	Phase3	test/STIM_010.jpg
1923.792	0.705	correct	test	Phase3	test/STIM_011.jpg
1927.006	0.774	correct	test	Phase3	test/STIM_011.jpg
1930.621	0.637	correct	test	Phase3	test/STIM_011.jpg
1934.606	0.929	correct	test	Phase3	test/STIM_012.jpg
1938.804	1.122	correct	test	Phase3	test/STIM_012.jpg
1943.209	1.206	correct	test	Phase3	test/STIM_012.jpg
1947.267	1.0	correct	test	Phase3	test/STIM_013.jpg
1951.389	1.225	correct	test	Phase3	test/STIM_013.jpg
1956.469	0.842	correct	test	Phase3	test/STIM_013.jpg
1960.47	0.599	correct	test	Phase3	test/STIM_014.jpg
1963.618	0.593	correct	test	Phase3	test/STIM_014.jpg
1966.762	1.102	correct	test	Phase3	test/STIM_014.jpg
1970.252	1.22	correct	test	Phase3	test/STIM_015.jpg
1974.675	0.977	correct	test	Phase3	test/STIM_015.jpg
1979.482	1.02	correct	test	Phase3	test/STIM_015.jpg
1984.227	0.692	correct	test	Phase3	test/STIM_016.jpg
1988.82	0.988	correct	test	Phase3	test/STIM_016.jpg
1993.115	1.13	correct	test	Phase3	test/STIM_016.jpg
1996.791	0.684	correct	test	Phase3	test/STIM_017.jpg
2000.878	0.722	correct	test	Phase3	test/STIM_017.jpg
2004.287	1.216	correct	test	Phase3	test/STIM_017.jpg
2008.306	0.699	correct	test	Phase3	test/STIM_018.jpg
2011.345	0.642	correct	test	Phase3	test/STIM_018.jpg
2015.982	0.68	correct	test	Phase3	test/STIM_018.jpg
2019.322	0.879	correct	test	Phase3	test/STIM_019.jpg
2022.803	0.705	correct	test	Phase3	test/STIM_019.jpg
2026.933	0.994	correct	test	Phase3	test/STIM_019.jpg
2031.745	1.217	correct	test	Phase3	test/STIM_020.jpg
2035.408	0.921	correct	test	Phase3	test/STIM_020.jpg
2039.202	0.959	correct	test	Phase3	test/STIM_020.jpg
2042.823	0.932	correct	test	Phase3	test/STIM_021.jpg
2046.167	1.007	correct	test	Phase3	test/STIM_021.jpg
2049.307	0.939	correct	test	Phase3	test/STIM_021.jpg
2052.291	0.685	correct	test	Phase3	test/STIM_022.jpg
2056.383	0.706	correct	test	Phase3	test/STIM_022.jpg
2059.454	0.98	correct	test	Phase3	test/STIM_022.jpg
2063.741	1.234	correct	test	Phase3	test/STIM_023.jpg
2066.983	1.161	correct	test	Phase3	test/STIM_023.jpg
2072.05	0.759	correct	test	Phase3	test/STIM_023.jpg
2074.992	0.646	correct	test	Phase3	test/STIM_024.jpg
2079.527	0.978	correct	test	Phase3	test/STIM_024.jpg
2084.029	0.746	correct	test	Phase3	test/STIM_024.jpg
2086.779	0.805	correct	test	Phase3	test/STIM_025.jpg
2089.708	0.691	correct	test	Phase3	test/STIM_025.jpg
2094.228	0.664	correct	test	Phase3	test/STIM_025.jpg
2098.079	0.933	correct	test	Phase3	test/STIM_026.jpg
2101.65	0.605	correct	test	Phase3	test/STIM_026.jpg
2104.632	0.945	correct	test	Phase3	test/STIM_026.jpg
2108.642	0.86	correct	test	Phase3	test/STIM_027.jpg
2113.185	0.717	correct	test	Phase3	test/STIM_027.jpg
2117.417	0.85	correct	test	Phase3	test/STIM_027.jpg
2121.209	0.633	correct	test	Phase3	test/STIM_028.jpg
2124.065	0.696	correct	test	Phase3	test/STIM_028.jpg
2128.459	0.728	correct	test	Phase3	test/STIM_028.jpg
2133.097	1.21	correct	test	Phase3	test/STIM_029.jpg
2137.034	0.62	correct	test	Phase3	test/STIM_029.jpg
2140.771	1.137	correct	test	Phase3	test/STIM_029.jpg
