onset	duration	accuracy	trial_type	learning_stage	stimulus
0.0	2.818	incorrect	generate	Run1	generate/STIM_000.jpg
6.606	1.835	correct	generate	Run1	generate/STIM_000.jpg
11.72	1.469	correct	generate	Run1	generate/STIM_000.jpg
16.769	1.411	correct	generate	Run1	generate/STIM_000.jpg
21.884	1.684	correct	generate	Run1	generate/STIM_000.jpg
26.245	2.406	correct	generate	Run1	generate/STIM_001.jpg
31.872	1.641	incorrect	generate	Run1	generate/STIM_001.jpg
36.241	1.994	correct	generate	Run1	generate/STIM_001.jpg
41.504	2.335	incorrect	generate	Run1	generate/STIM_001.jpg
47.145	1.59	correct	generate	Run1	generate/STIM_001.jpg
52.301	2.806	incorrect	generate	Run1	generate/STIM_002.jpg
58.759	1.368	correct	generate	Run1	generate/STIM_002.jpg
63.956	1.486	correct	generate	Run1	generate/STIM_002.jpg
68.841	1.591	correct	generate	Run1	generate/STIM_002.jpg
72.853	1.734	incorrect	generate	Run1	generate/STIM_002.jpg
77.579	2.388	correct	generate	Run1	generate/STIM_003.jpg
83.525	1.304	incorrect	generate	Run1	generate/STIM_003.jpg
88.577	1.428	correct	generate	Run1	generate/STIM_003.jpg
92.91	1.477	incorrect	generate	Run1	generate/STIM_003.jpg
97.099	1.266	correct	generate	Run1	generate/STIM_003.jpg
100.465	2.029	correct	generate	Run1	generate/STIM_004.jpg
104.594	1.107	incorrect	generate	Run1	generate/STIM_004.jpg
109.323	1.326	correct	generate	Run1	generate/STIM_004.jpg
113.325	1.564	correct	generate	Run1	generate/STIM_004.jpg
118.799	1.035	incorrect	generate	Run1	generate/STIM_004.jpg
122.376	1.954	correct	generate	Run1	generate/STIM_005.jpg
126.559	1.683	correct	generate	Run1	generate/STIM_005.jpg
131.198	2.332	incorrect	generate	Run1	generate/STIM_005.jpg
135.855	2.095	correct	generate	Run1	generate/STIM_005.jpg
141.329	1.483	correct	generate	Run1	generate/STIM_005.jpg
146.026	2.544	correct	generate	Run1	generate/STIM_006.jpg
152.333	1.646	correct	generate	Run1	generate/STIM_006.jpg
156.764	1.883	correct	generate	Run1	generate/STIM_006.jpg
162.443	2.32	correct	generate	Run1	generate/STIM_006.jpg
167.662	1.676	correct	generate	Run1	generate/STIM_006.jpg
173.106	2.415	correct	generate	Run1	generate/STIM_007.jpg
177.641	1.763	correct	generate	Run1	generate/STIM_007.jpg
181.647	2.399	correct	generate	Run1	generate/STIM_007.jpg
187.952	1.259	correct	generate	Run1	generate/STIM_007.jpg
192.581	2.026	incorrect	generate	Run1	generate/STIM_007.jpg
197.844	1.813	correct	generate	Run1	generate/STIM_008.jpg
202.281	2.272	correct	generate	Run1	generate/STIM_008.jpg
207.097	2.063	correct	generate	Run1	generate/STIM_008.jpg
211.591	2.102	correct	generate	Run1	generate/STIM_008.jpg
215.734	1.366	correct	generate	Run1	generate/STIM_008.jpg
220.941	2.017	correct	generate	Run1	generate/STIM_009.jpg
225.782	1.67	correct	generate	Run1	generate/STIM_009.jpg
230.299	2.217	correct	generate	Run1	generate/STIM_009.jpg
236.47	1.722	correct	generate	Run1	generate/STIM_009.jpg
241.415	0.984	correct	generate	Run1	generate/STIM_009.jpg
246.121	2.51	correct	generate	Run1	generate/STIM_010.jpg
251.679	1.157	correct	generate	Run1	generate/STIM_010.jpg
256.704	1.453	incorrect	generate	Run1	generate/STIM_010.jpg
261.022	1.432	correct	generate	Run1	generate/STIM_010.jpg
264.535	1.145	correct	generate	Run1	generate/STIM_010.jpg
268.267	1.616	correct	generate	Run1	generate/STIM_011.jpg
273.496	1.783	incorrect	generate	Run1	generate/STIM_011.jpg
278.87	2.47	incorrect	generate	Run1	generate/STIM_011.jpg
284.99	2.401	correct	generate	Run1	generate/STIM_011.jpg
289.6	1.508	correct	generate	Run1	generate/STIM_011.jpg
293.525	2.274	correct	generate	Run1	generate/STIM_012.jpg
299.228	1.779	correct	generate	Run1	generate/STIM_012.jpg
304.183	1.538	incorrect	generate	Run1	generate/STIM_012.jpg
308.324	1.336	correct	generate	Run1	generate/STIM_012.jpg
313.338	1.49	correct	generate	Run1	generate/STIM_012.jpg
317.809	1.801	incorrect	generate	Run1	generate/STIM_013.jpg
322.291	1.637	correct	generate	Run1	generate/STIM_013.jpg
326.278	1.146	correct	generate	Run1	generate/STIM_013.jpg
329.647	1.014	correct	generate	Run1	generate/STIM_013.jpg
334.57	1.123	correct	generate	Run1	generate/STIM_013.jpg
338.923	1.742	correct	generate	Run1	generate/STIM_014.jpg
344.111	2.658	correct	generate	Run1	generate/STIM_014.jpg
348.984	1.112	correct	generate	Run1	generate/STIM_014.jpg
353.43	1.64	incorrect	generate	Run1	generate/STIM_014.jpg
357.87	2.023	correct	generate	Run1	generate/STIM_014.jpg
363.404	2.705	correct	generate	Run1	generate/STIM_015.jpg
368.475	1.42	correct	generate	Run1	generate/STIM_015.jpg
372.064	2.399	correct	generate	Run1	generate/STIM_015.jpg
377.006	0.983	correct	generate	Run1	generate/STIM_015.jpg
381.646	2.295	correct	generate	Run1	generate/STIM_015.jpg
385.984	1.806	correct	generate	Run1	generate/STIM_016.jpg
391.77	1.161	correct	generate	Run1	generate/STIM_016.jpg
395.073	2.349	correct	generate	Run1	generate/STIM_016.jpg
400.419	1.37	correct	generate	Run1	generate/STIM_016.jpg
405.176	2.204	correct	generate	Run1	generate/STIM_016.jpg
410.855	1.812	correct	generate	Run1	generate/STIM_017.jpg
416.52	2.169	correct	generate	Run1	generate/STIM_017.jpg
422.123	1.91	incorrect	generate	Run1	generate/STIM_017.jpg
427.135	1.275	correct	generate	Run1	generate/STIM_017.jpg
432.229	1.657	correct	generate	Run1	generate/STIM_017.jpg
437.812	2.257	correct	generate	Run1	generate/STIM_018.jpg
442.88	1.997	correct	generate	Run1	generate/STIM_018.jpg
448.508	2.436	correct	generate	Run1	generate/STIM_018.jpg
453.598	1.878	correct	generate	Run1	generate/STIM_018.jpg
459.346	2.182	correct	generate	Run1	generate/STIM_018.jpg
464.824	2.115	correct	generate	Run1	generate/STIM_019.jpg
470.922	1.666	correct	generate	Run1	generate/STIM_019.jpg
475.707	1.17	correct	generate	Run1	generate/STIM_019.jpg
478.882	1.24	correct	generate	Run1	generate/STIM_019.jpg
482.403	0.973	correct	generate	Run1	generate/STIM_019.jpg
485.889	1.315	correct	generate	Run1	generate/STIM_020.jpg
490.181	1.79	correct	generate	Run1	generate/STIM_020.jpg
494.612	2.104	incorrect	generate	Run1	generate/STIM_020.jpg
499.301	1.178	correct	generate	Run1	generate/STIM_020.jpg
504.034	1.493	correct	generate	Run1	generate/STIM_020.jpg
509.019	1.4	correct	generate	Run1	generate/STIM_021.jpg
514.173	1.771	correct	generate	Run1	generate/STIM_021.jpg
518.93	1.172	incorrect	generate	Run1	generate/STIM_021.jpg
522.196	1.038	correct	generate	Run1	generate/STIM_021.jpg
525.535	1.127	correct	generate	Run1	generate/STIM_021.jpg
529.871	2.643	correct	generate	Run1	generate/STIM_022.jpg
535.907	2.13	incorrect	generate	Run1	generate/STIM_022.jpg
541.479	2.015	correct	generate	Run1	generate/STIM_022.jpg
546.989	1.165	correct	generate	Run1	generate/STIM_022.jpg
551.903	1.174	correct	generate	Run1	generate/STIM_022.jpg
556.86	1.37	incorrect	generate	Run1	generate/STIM_023.jpg
561.531	1.458	correct	generate	Run1	generate/STIM_023.jpg
566.934	1.631	correct	generate	Run1	generate/STIM_023.jpg
571.191	1.111	correct	generate	Run1	generate/STIM_023.jpg
576.054	1.22	incorrect	generate	Run1	generate/STIM_023.jpg
579.94	2.721	incorrect	generate	Run1	generate/STIM_024.jpg
586.04	2.177	incorrect	generate	Run1	generate/STIM_024.jpg
590.988	1.59	incorrect	generate	Run1	generate/STIM_024.jpg
595.305	1.418	correct	generate	Run1	generate/STIM_024.jpg
599.655	1.082	correct	generate	Run1	generate/STIM_024.jpg
603.753	0.59	correct	repeat	Run1	repeat/STIM_000.jpg
606.537	0.605	correct	repeat	Run1	repeat/STIM_000.jpg
609.994	0.829	correct	repeat	Run1	repeat/STIM_000.jpg
613.67	0.601	correct	repeat	Run1	repeat/STIM_000.jpg
616.996	0.838	correct	repeat	Run1	repeat/STIM_000.jpg
621.481	0.95	correct	repeat	Run1	repeat/STIM_001.jpg
626.006	0.898	correct	repeat	Run1	repeat/STIM_001.jpg
629.626	0.732	correct	repeat	Run1	repeat/STIM_001.jpg
632.512	0.834	correct	repeat	Run1	repeat/STIM_001.jpg
636.119	0.951	correct	repeat	Run1	repeat/STIM_001.jpg
639.137	0.849	correct	repeat	Run1	repeat/STIM_002.jpg
642.328	0.483	correct	repeat	Run1	repeat/STIM_002.jpg
646.749	0.593	correct	repeat	Run1	repeat/STIM_002.jpg
650.618	0.742	correct	repeat	Run1	repeat/STIM_002.jpg
653.56	0.685	correct	repeat	Run1	repeat/STIM_002.jpg
656.437	0.589	correct	repeat	Run1	repeat/STIM_003.jpg
660.931	0.524	correct	repeat	Run1	repeat/STIM_003.jpg
665.181	0.743	correct	repeat	Run1	repeat/STIM_003.jpg
669.507	0.869	correct	repeat	Run1	repeat/STIM_003.jpg
673.772	0.493	correct	repeat	Run1	repeat/STIM_003.jpg
678.157	0.832	correct	repeat	Run1	repeat/STIM_004.jpg
682.62	0.747	correct	repeat	Run1	repeat/STIM_004.jpg
686.867	0.51	correct	repeat	Run1	repeat/STIM_004.jpg
690.905	0.506	correct	repeat	Run1	repeat/STIM_004.jpg
693.512	0.575	correct	repeat	Run1	repeat/STIM_004.jpg
696.141	0.899	correct	repeat	Run1	repeat/STIM_005.jpg
699.408	0.748	correct	repeat	Run1	repeat/STIM_005.jpg
702.963	0.673	correct	repeat	Run1	repeat/STIM_005.jpg
706.407	0.852	correct	repeat	Run1	repeat/STIM_005.jpg
709.435	0.512	correct	repeat	Run1	repeat/STIM_005.jpg
713.553	0.652	correct	repeat	Run1	repeat/STIM_006.jpg
717.436	0.754	correct	repeat	Run1	repeat/STIM_006.jpg
721.192	0.941	correct	repeat	Run1	repeat/STIM_006.jpg
724.814	0.732	correct	repeat	Run1	repeat/STIM_006.jpg
729.021	0.651	correct	repeat	Run1	repeat/STIM_006.jpg
732.427	0.916	correct	repeat	Run1	repeat/STIM_007.jpg
735.959	0.671	correct	repeat	Run1	repeat/STIM_007.jpg
740.544	0.762	correct	repeat	Run1	repeat/STIM_007.jpg
744.042	0.698	correct	repeat	Run1	repeat/STIM_007.jpg
747.577	0.832	correct	repeat	Run1	repeat/STIM_007.jpg
750.893	0.852	correct	repeat	Run1	repeat/STIM_008.jpg
754.297	0.774	correct	repeat	Run1	repeat/STIM_008.jpg
758.727	0.553	correct	repeat	Run1	repeat/STIM_008.jpg
762.906	0.848	correct	repeat	Run1	repeat/STIM_008.jpg
766.479	0.826	correct	repeat	Run1	repeat/STIM_008.jpg
770.905	0.87	correct	repeat	Run1	repeat/STIM_009.jpg
774.698	0.69	correct	repeat	Run1	repeat/STIM_009.jpg
777.848	0.712	correct	repeat	Run1	repeat/STIM_009.jpg
782.423	0.575	correct	repeat	Run1	repeat/STIM_009.jpg
786.381	0.802	correct	repeat	Run1	repeat/STIM_009.jpg
790.525	0.697	correct	repeat	Run1	repeat/STIM_010.jpg
793.704	0.664	correct	repeat	Run1	repeat/STIM_010.jpg
798.351	0.937	correct	repeat	Run1	repeat/STIM_010.jpg
802.153	0.665	correct	repeat	Run1	repeat/STIM_010.jpg
806.137	0.658	correct	repeat	Run1	repeat/STIM_010.jpg
809.103	0.884	correct	repeat	Run1	repeat/STIM_011.jpg
812.747	0.896	correct	repeat	Run1	repeat/STIM_011.jpg
817.195	0.848	correct	repeat	Run1	repeat/STIM_011.jpg
821.214	0.641	incorrect	repeat	Run1	repeat/STIM_011.jpg
823.935	0.605	correct	repeat	Run1	repeat/STIM_011.jpg
828.074	0.658	correct	repeat	Run1	repeat/STIM_012.jpg
830.834	0.83	correct	repeat	Run1	repeat/STIM_012.jpg
834.468	0.818	correct	repeat	Run1	repeat/STIM_012.jpg
838.266	0.632	correct	repeat	Run1	repeat/STIM_012.jpg
841.827	0.586	correct	repeat	Run1	repeat/STIM_012.jpg
844.538	0.947	correct	repeat	Run1	repeat/STIM_013.jpg
848.076	0.497	correct	repeat	Run1	repeat/STIM_013.jpg
852.572	0.718	correct	repeat	Run1	repeat/STIM_013.jpg
856.602	0.659	correct	repeat	Run1	repeat/STIM_013.jpg
860.691	0.831	correct	repeat	Run1	repeat/STIM_013.jpg
865.081	0.484	correct	repeat	Run1	repeat/STIM_014.jpg
869.246	0.742	correct	repeat	Run1	repeat/STIM_014.jpg
873.674	0.547	correct	repeat	Run1	repeat/STIM_014.jpg
877.587	0.566	correct	repeat	Run1	repeat/STIM_014.jpg
881.919	0.739	correct	repeat	Run1	repeat/STIM_014.jpg
886.576	2.315	correct	generate	Run2	generate/STIM_000.jpg
891.224	1.572	correct	generate	Run2	generate/STIM_000.jpg
895.455	1.753	correct	generate	Run2	generate/STIM_000.jpg
901.058	1.383	correct	generate	Run2	generate/STIM_000.jpg
905.198	1.217	correct	generate	Run2	generate/STIM_000.jpg
908.846	1.518	correct	generate	Run2	generate/STIM_001.jpg
913.049	2.189	correct	generate	Run2	generate/STIM_001.jpg
918.809	1.069	correct	generate	Run2	generate/STIM_001.jpg
923.684	0.815	incorrect	generate	Run2	generate/STIM_001.jpg
928.139	1.901	correct	generate	Run2	generate/STIM_001.jpg
932.969	2.43	correct	generate	Run2	generate/STIM_002.jpg
938.213	1.254	correct	generate	Run2	generate/STIM_002.jpg
943.4	1.186	incorrect	generate	Run2	generate/STIM_002.jpg
947.651	1.322	correct	generate	Run2	generate/STIM_002.jpg
952.779	1.179	correct	generate	Run2	generate/STIM_002.jpg
957.875	1.3	correct	generate	Run2	generate/STIM_003.jpg
962.739	2.025	correct	generate	Run2	generate/STIM_003.jpg
968.421	1.367	correct	generate	Run2	generate/STIM_003.jpg
972.325	1.38	correct	generate	Run2	generate/STIM_003.jpg
976.311	1.996	correct	generate	Run2	generate/STIM_003.jpg
981.004	2.405	correct	generate	Run2	generate/STIM_004.jpg
985.784	1.969	incorrect	generate	Run2	generate/STIM_004.jpg
991.338	1.062	incorrect	generate	Run2	generate/STIM_004.jpg
995.443	1.953	incorrect	generate	Run2	generate/STIM_004.jpg
1001.334	1.202	correct	generate	Run2	generate/STIM_004.jpg
1004.911	2.412	correct	generate	Run2	generate/STIM_005.jpg
1009.54	2.148	correct	generate	Run2	generate/STIM_005.jpg
1015.055	0.954	correct	generate	Run2	generate/STIM_005.jpg
1018.449	1.306	correct	generate	Run2	generate/STIM_005.jpg
1023.65	0.961	correct	generate	Run2	generate/STIM_005.jpg
1028.022	1.424	correct	generate	Run2	generate/STIM_006.jpg
1032.827	1.758	correct	generate	Run2	generate/STIM_006.jpg
1036.833	1.648	incorrect	generate	Run2	generate/STIM_006.jpg
1040.836	1.851	correct	generate	Run2	generate/STIM_006.jpg
1045.269	1.379	correct	generate	Run2	generate/STIM_006.jpg
1050.506	2.252	incorrect	generate	Run2	generate/STIM_007.jpg
1055.876	1.95	correct	generate	Run2	generate/STIM_007.jpg
1061.315	1.932	correct	generate	Run2	generate/STIM_007.jpg
1065.591	1.177	correct	generate	Run2	generate/STIM_007.jpg
1070.628	0.885	correct	generate	Run2	generate/STIM_007.jpg
1074.573	1.134	correct	generate	Run2	generate/STIM_008.jpg
1078.263	1.519	correct	generate	Run2	generate/STIM_008.jpg
1081.973	0.884	correct	generate	Run2	generate/STIM_008.jpg
1084.879	0.923	incorrect	generate	Run2	generate/STIM_008.jpg
1089.021	1.337	correct	generate	Run2	generate/STIM_008.jpg
1093.745	1.734	correct	generate	Run2	generate/STIM_009.jpg
1098.302	2.229	correct	generate	Run2	generate/STIM_009.jpg
1103.157	1.178	correct	generate	Run2	generate/STIM_009.jpg
1107.926	1.512	correct	generate	Run2	generate/STIM_009.jpg
1111.792	0.994	correct	generate	Run2	generate/STIM_009.jpg
1116.362	1.383	correct	generate	Run2	generate/STIM_010.jpg
1121.329	2.124	incorrect	generate	Run2	generate/STIM_010.jpg
1125.973	1.341	correct	generate	Run2	generate/STIM_010.jpg
1129.451	1.826	correct	generate	Run2	generate/STIM_010.jpg
1134.041	1.123	correct	generate	Run2	generate/STIM_010.jpg
1138.568	1.82	correct	generate	Run2	generate/STIM_011.jpg
1143.894	1.374	correct	generate	Run2	generate/STIM_011.jpg
1148.408	0.994	correct	generate	Run2	generate/STIM_011.jpg
1153.039	1.003	incorrect	generate	Run2	generate/STIM_011.jpg
1156.613	0.856	correct	generate	Run2	generate/STIM_011.jpg
1160.997	2.333	correct	generate	Run2	generate/STIM_012.jpg
1165.424	1.082	correct	generate	Run2	generate/STIM_012.jpg
1168.531	1.061	incorrect	generate	Run2	generate/STIM_012.jpg
1172.762	2.007	correct	generate	Run2	generate/STIM_012.jpg
1177.325	1.933	correct	generate	Run2	generate/STIM_012.jpg
1182.483	2.026	correct	generate	Run2	generate/STIM_013.jpg
1187.795	2.148	correct	generate	Run2	generate/STIM_013.jpg
1192.798	0.884	correct	generate	Run2	generate/STIM_013.jpg
1196.888	1.798	correct	generate	Run2	generate/STIM_013.jpg
1201.061	1.764	correct	generate	Run2	generate/STIM_013.jpg
1205.703	2.36	correct	generate	Run2	generate/STIM_014.jpg
1211.165	1.872	correct	generate	Run2	generate/STIM_014.jpg
1215.985	1.132	correct	generate	Run2	generate/STIM_014.jpg
1219.573	1.546	correct	generate	Run2	generate/STIM_014.jpg
1224.267	1.229	correct	generate	Run2	generate/STIM_014.jpg
1229.403	2.195	correct	generate	Run2	generate/STIM_015.jpg
1234.567	1.238	correct	generate	Run2	generate/STIM_015.jpg
1239.477	1.835	correct	generate	Run2	generate/STIM_015.jpg
1244.072	1.061	correct	generate	Run2	generate/STIM_015.jpg
1247.885	1.276	correct	generate	Run2	generate/STIM_015.jpg
1252.511	2.157	correct	generate	Run2	generate/STIM_016.jpg
1257.092	1.493	correct	generate	Run2	generate/STIM_016.jpg
1261.782	1.127	correct	generate	Run2	generate/STIM_016.jpg
1265.217	1.623	correct	generate	Run2	generate/STIM_016.jpg
1269.014	0.815	correct	generate	Run2	generate/STIM_016.jpg
1273.304	1.505	correct	generate	Run2	generate/STIM_017.jpg
1278.497	1.797	correct	generate	Run2	generate/STIM_017.jpg
1283.867	1.063	correct	generate	Run2	generate/STIM_017.jpg
1288.403	1.001	correct	generate	Run2	generate/STIM_017.jpg
1291.985	1.709	correct	generate	Run2	generate/STIM_017.jpg
1295.772	1.468	correct	generate	Run2	generate/STIM_018.jpg
1300.227	2.042	correct	generate	Run2	generate/STIM_018.jpg
1306.061	1.616	correct	generate	Run2	generate/STIM_018.jpg
1309.845	1.498	correct	generate	Run2	generate/STIM_018.jpg
1314.646	1.298	correct	generate	Run2	generate/STIM_018.jpg
1319.313	2.383	correct	generate	Run2	generate/STIM_019.jpg
1324.674	2.058	correct	generate	Run2	generate/STIM_019.jpg
1330.029	1.221	correct	generate	Run2	generate/STIM_019.jpg
1333.701	1.004	correct	generate	Run2	generate/STIM_019.jpg
1336.88	1.287	correct	generate	Run2	generate/STIM_019.jpg
1341.608	1.184	correct	generate	Run2	generate/STIM_020.jpg
1345.206	2.005	correct	generate	Run2	generate/STIM_020.jpg
1350.164	1.18	correct	generate	Run2	generate/STIM_020.jpg
1354.315	1.723	correct	generate	Run2	generate/STIM_020.jpg
1358.983	1.852	correct	generate	Run2	generate/STIM_020.jpg
1364.152	1.228	correct	generate	Run2	generate/STIM_021.jpg
1368.691	1.673	correct	generate	Run2	generate/STIM_021.jpg
1373.973	2.065	correct	generate	Run2	generate/STIM_021.jpg
1378.773	1.005	correct	generate	Run2	generate/STIM_021.jpg
1381.896	1.598	correct	generate	Run2	generate/STIM_021.jpg
1387.441	2.238	correct	generate	Run2	generate/STIM_022.jpg
1392.576	1.786	incorrect	generate	Run2	generate/STIM_022.jpg
1396.397	1.421	correct	generate	Run2	generate/STIM_022.jpg
1399.908	0.902	correct	generate	Run2	generate/STIM_022.jpg
1403.501	1.471	correct	generate	Run2	generate/STIM_022.jpg
1407.431	1.929	correct	generate	Run2	generate/STIM_023.jpg
1412.541	1.86	incorrect	generate	Run2	generate/STIM_023.jpg
1417.978	0.917	correct	generate	Run2	generate/STIM_023.jpg
1422.323	0.898	correct	generate	Run2	generate/STIM_023.jpg
1426.956	1.713	correct	generate	Run2	generate/STIM_023.jpg
1430.807	1.622	incorrect	generate	Run2	generate/STIM_024.jpg
1434.564	1.716	correct	generate	Run2	generate/STIM_024.jpg
1439.694	2.017	correct	generate	Run2	generate/STIM_024.jpg
1444.165	1.708	correct	generate	Run2	generate/STIM_024.jpg
1448.081	1.995	incorrect	generate	Run2	generate/STIM_024.jpg
1452.705	0.754	correct	repeat	Run2	repeat/STIM_000.jpg
1456.44	0.788	correct	repeat	Run2	repeat/STIM_000.jpg
1459.45	0.825	correct	repeat	Run2	repeat/STIM_000.jpg
1463.196	0.919	correct	repeat	Run2	repeat/STIM_000.jpg
1467.317	0.84	correct	repeat	Run2	repeat/STIM_000.jpg
1471.773	0.554	correct	repeat	Run2	repeat/STIM_001.jpg
1474.426	0.744	correct	repeat	Run2	repeat/STIM_001.jpg
1477.709	0.609	correct	repeat	Run2	repeat/STIM_001.jpg
1480.488	0.611	correct	repeat	Run2	repeat/STIM_001.jpg
1483.299	0.774	correct	repeat	Run2	repeat/STIM_001.jpg
1486.842	0.852	correct	repeat	Run2	repeat/STIM_002.jpg
1491.094	0.58	correct	repeat	Run2	repeat/STIM_002.jpg
1495.078	0.893	correct	repeat	Run2	repeat/STIM_002.jpg
1499.696	0.798	correct	repeat	Run2	repeat/STIM_002.jpg
1504.255	0.704	correct	repeat	Run2	repeat/STIM_002.jpg
1507.379	0.608	correct	repeat	Run2	repeat/STIM_003.jpg
1510.252	0.864	correct	repeat	Run2	repeat/STIM_003.jpg
1513.845	0.553	correct	repeat	Run2	repeat/STIM_003.jpg
1518.009	0.649	correct	repeat	Run2	repeat/STIM_003.jpg
1522.441	0.534	correct	repeat	Run2	repeat/STIM_003.jpg
1525.458	0.794	correct	repeat	Run2	repeat/STIM_004.jpg
1529.217	0.526	correct	repeat	Run2	repeat/STIM_004.jpg
1533.449	0.7	correct	repeat	Run2	repeat/STIM_004.jpg
1536.809	0.767	correct	repeat	Run2	repeat/STIM_004.jpg
1541.339	0.934	correct	repeat	Run2	repeat/STIM_004.jpg
1545.185	0.537	correct	repeat	Run2	repeat/STIM_005.jpg
1548.876	0.753	correct	repeat	Run2	repeat/STIM_005.jpg
1552.111	0.516	correct	repeat	Run2	repeat/STIM_005.jpg
1555.934	0.615	correct	repeat	Run2	repeat/STIM_005.jpg
1560.127	0.608	correct	repeat	Run2	repeat/STIM_005.jpg
1562.81	0.704	correct	repeat	Run2	repeat/STIM_006.jpg
1567.036	0.734	incorrect	repeat	Run2	repeat/STIM_006.jpg
1570.492	0.791	correct	repeat	Run2	repeat/STIM_006.jpg
1573.797	0.648	correct	repeat	Run2	repeat/STIM_006.jpg
1578.014	0.638	correct	repeat	Run2	repeat/STIM_006.jpg
1581.758	0.8	correct	repeat	Run2	repeat/STIM_007.jpg
1585.091	0.676	correct	repeat	Run2	repeat/STIM_007.jpg
1587.891	0.636	correct	repeat	Run2	repeat/STIM_007.jpg
1591.241	0.687	incorrect	repeat	Run2	repeat/STIM_007.jpg
1595.883	0.891	correct	repeat	Run2	repeat/STIM_007.jpg
1599.783	0.775	correct	repeat	Run2	repeat/STIM_008.jpg
1602.798	0.788	correct	repeat	Run2	repeat/STIM_008.jpg
1606.878	0.889	correct	repeat	Run2	repeat/STIM_008.jpg
1609.964	0.76	correct	repeat	Run2	repeat/STIM_008.jpg
1613.188	0.671	correct	repeat	Run2	repeat/STIM_008.jpg
1616.786	0.634	correct	repeat	Run2	repeat/STIM_009.jpg
1620.206	0.818	correct	repeat	Run2	repeat/STIM_009.jpg
1624.561	0.667	correct	repeat	Run2	repeat/STIM_009.jpg
1627.656	0.842	correct	repeat	Run2	repeat/STIM_009.jpg
1632.291	0.671	correct	repeat	Run2	repeat/STIM_009.jpg
1635.886	0.771	correct	repeat	Run2	repeat/STIM_010.jpg
1639.805	0.562	incorrect	repeat	Run2	repeat/STIM_010.jpg
1643.471	0.96	correct	repeat	Run2	repeat/STIM_010.jpg
1647.109	0.659	correct	repeat	Run2	repeat/STIM_010.jpg
1651.078	0.916	correct	repeat	Run2	repeat/STIM_010.jpg
1655.49	0.687	correct	repeat	Run2	repeat/STIM_011.jpg
1658.647	0.544	correct	repeat	Run2	repeat/STIM_011.jpg
1661.697	0.716	correct	repeat	Run2	repeat/STIM_011.jpg
1665.728	0.74	correct	repeat	Run2	repeat/STIM_011.jpg
1669.879	0.501	correct	repeat	Run2	repeat/STIM_011.jpg
1672.584	0.696	correct	repeat	Run2	repeat/STIM_012.jpg
1675.817	0.905	correct	repeat	Run2	repeat/STIM_012.jpg
1679.19	0.876	correct	repeat	Run2	repeat/STIM_012.jpg
1683.718	0.629	correct	repeat	Run2	repeat/STIM_012.jpg
1686.739	0.936	correct	repeat	Run2	repeat/STIM_012.jpg
1690.446	0.791	correct	repeat	Run2	repeat/STIM_013.jpg
1693.324	0.706	correct	repeat	Run2	repeat/STIM_013.jpg
1697.676	0.504	correct	repeat	Run2	repeat/STIM_013.jpg
1701.605	0.802	correct	repeat	Run2	repeat/STIM_013.jpg
1704.851	0.75	correct	repeat	Run2	repeat/STIM_013.jpg
1709.299	0.656	correct	repeat	Run2	repeat/STIM_014.jpg
1712.104	0.642	correct	repeat	Run2	repeat/STIM_014.jpg
1716.69	0.609	correct	repeat	Run2	repeat/STIM_014.jpg
1720.967	0.784	correct	repeat	Run2	repeat/STIM_014.jpg
1723.885	0.525	correct	repeat	Run2	repeat/STIM_014.jpg
1727.847	1.316	correct	generate	Run3	generate/STIM_000.jpg
1732.071	1.769	correct	generate	Run3	generate/STIM_000.jpg
1736.247	1.086	correct	generate	Run3	generate/STIM_000.jpg
1740.417	1.329	correct	generate	Run3	generate/STIM_000.jpg
1743.84	2.018	correct	generate	Run3	generate/STIM_000.jpg
1749.558	1.088	correct	generate	Run3	generate/STIM_001.jpg
1752.688	1.195	correct	generate	Run3	generate/STIM_001.jpg
1756.801	1.811	correct	generate	Run3	generate/STIM_001.jpg
1760.818	1.69	correct	generate	Run3	generate/STIM_001.jpg
1766.209	1.154	correct	generate	Run3	generate/STIM_001.jpg
1769.518	1.944	correct	generate	Run3	generate/STIM_002.jpg
1773.93	0.81	correct	generate	Run3	generate/STIM_002.jpg
1778.4	1.32	correct	generate	Run3	generate/STIM_002.jpg
1783.093	1.644	correct	generate	Run3	generate/STIM_002.jpg
1786.897	1.167	correct	generate	Run3	generate/STIM_002.jpg
1791.069	1.414	correct	generate	Run3	generate/STIM_003.jpg
1795.912	1.202	correct	generate	Run3	generate/STIM_003.jpg
1800.542	1.546	correct	generate	Run3	generate/STIM_003.jpg
1805.204	1.249	correct	generate	Run3	generate/STIM_003.jpg
1808.822	1.663	correct	generate	Run3	generate/STIM_003.jpg
1812.956	0.871	correct	generate	Run3	generate/STIM_004.jpg
1816.468	1.263	correct	generate	Run3	generate/STIM_004.jpg
1821.687	1.791	correct	generate	Run3	generate/STIM_004.jpg
1826.553	1.493	correct	generate	Run3	generate/STIM_004.jpg
1831.594	1.856	incorrect	generate	Run3	generate/STIM_004.jpg
1837.182	1.522	correct	generate	Run3	generate/STIM_005.jpg
1841.736	1.29	correct	generate	Run3	generate/STIM_005.jpg
1846.929	1.87	correct	generate	Run3	generate/STIM_005.jpg
1851.138	1.315	incorrect	generate	Run3	generate/STIM_005.jpg
1854.706	1.214	correct	generate	Run3	generate/STIM_005.jpg
1858.84	1.392	correct	generate	Run3	generate/STIM_006.jpg
1863.565	1.155	correct	generate	Run3	generate/STIM_006.jpg
1868.535	0.95	correct	generate	Run3	generate/STIM_006.jpg
1872.478	1.729	correct	generate	Run3	generate/STIM_006.jpg
1877.464	0.899	correct	generate	Run3	generate/STIM_006.jpg
1881.219	0.836	correct	generate	Run3	generate/STIM_007.jpg
1884.476	2.01	correct	generate	Run3	generate/STIM_007.jpg
1889.888	1.408	correct	generate	Run3	generate/STIM_007.jpg
1894.752	1.488	correct	generate	Run3	generate/STIM_007.jpg
1899.322	0.905	correct	generate	Run3	generate/STIM_007.jpg
1903.455	1.74	correct	generate	Run3	generate/STIM_008.jpg
1908.409	1.628	correct	generate	Run3	generate/STIM_008.jpg
1912.701	1.631	correct	generate	Run3	generate/STIM_008.jpg
1917.577	1.562	correct	generate	Run3	generate/STIM_008.jpg
1921.544	1.874	correct	generate	Run3	generate/STIM_008.jpg
1926.774	1.518	correct	generate	Run3	generate/STIM_009.jpg
1932.001	1.765	correct	generate	Run3	generate/STIM_009.jpg
1936.538	1.286	correct	generate	Run3	generate/STIM_009.jpg
1941.263	1.754	correct	generate	Run3	generate/STIM_009.jpg
1945.823	1.986	correct	generate	Run3	generate/STIM_009.jpg
1950.269	1.359	correct	generate	Run3	generate/STIM_010.jpg
1953.827	1.964	correct	generate	Run3	generate/STIM_010.jpg
1957.964	1.114	correct	generate	Run3	generate/STIM_010.jpg
1962.857	0.968	correct	generate	Run3	generate/STIM_010.jpg
1967.681	1.274	correct	generate	Run3	generate/STIM_010.jpg
1971.596	1.918	correct	generate	Run3	generate/STIM_011.jpg
1977.24	1.097	correct	generate	Run3	generate/STIM_011.jpg
1981.23	1.82	correct	generate	Run3	generate/STIM_011.jpg
1986.163	1.862	correct	generate	Run3	generate/STIM_011.jpg
1991.248	1.966	correct	generate	Run3	generate/STIM_011.jpg
1996.958	1.54	correct	generate	Run3	generate/STIM_012.jpg
2001.61	1.878	correct	generate	Run3	generate/STIM_012.jpg
2006.265	1.175	correct	generate	Run3	generate/STIM_012.jpg
2010.778	1.795	correct	generate	Run3	generate/STIM_012.jpg
2016.308	1.789	correct	generate	Run3	generate/STIM_012.jpg
2020.11	1.578	correct	generate	Run3	generate/STIM_013.jpg
2024.216	1.964	correct	generate	Run3	generate/STIM_013.jpg
2028.983	1.803	correct	generate	Run3	generate/STIM_013.jpg
2034.435	1.546	correct	generate	Run3	generate/STIM_013.jpg
2038.284	1.69	correct	generate	Run3	generate/STIM_013.jpg
2042.583	1.266	correct	generate	Run3	generate/STIM_014.jpg
2047.289	1.995	correct	generate	Run3	generate/STIM_014.jpg
2051.298	1.279	correct	generate	Run3	generate/STIM_014.jpg
2055.75	1.684	correct	generate	Run3	generate/STIM_014.jpg
2059.791	0.855	correct	generate	Run3	generate/STIM_014.jpg
2063.654	0.888	correct	generate	Run3	generate/STIM_015.jpg
2067.416	1.285	correct	generate	Run3	generate/STIM_015.jpg
2071.536	1.146	correct	generate	Run3	generate/STIM_015.jpg
2075.424	0.901	correct	generate	Run3	generate/STIM_015.jpg
2079.246	1.047	correct	generate	Run3	generate/STIM_015.jpg
2083.36	1.292	correct	generate	Run3	generate/STIM_016.jpg
2088.059	1.622	correct	generate	Run3	generate/STIM_016.jpg
2092.788	0.974	correct	generate	Run3	generate/STIM_016.jpg
2096.759	1.039	correct	generate	Run3	generate/STIM_016.jpg
2100.079	1.856	correct	generate	Run3	generate/STIM_016.jpg
2104.334	1.822	correct	generate	Run3	generate/STIM_017.jpg
2108.846	0.883	correct	generate	Run3	generate/STIM_017.jpg
2112.181	1.355	correct	generate	Run3	generate/STIM_017.jpg
2117.091	1.4	correct	generate	Run3	generate/STIM_017.jpg
2120.94	0.866	correct	generate	Run3	generate/STIM_017.jpg
2124.868	1.512	correct	generate	Run3	generate/STIM_018.jpg
2129.509	0.998	correct	generate	Run3	generate/STIM_018.jpg
2132.861	1.804	correct	generate	Run3	generate/STIM_018.jpg
2136.974	1.307	correct	generate	Run3	generate/STIM_018.jpg
2141.386	1.7	incorrect	generate	Run3	generate/STIM_018.jpg
2145.39	1.841	incorrect	generate	Run3	generate/STIM_019.jpg
2149.504	1.318	correct	generate	Run3	generate/STIM_019.jpg
2153.151	1.519	correct	generate	Run3	generate/STIM_019.jpg
2157.565	1.752	correct	generate	Run3	generate/STIM_019.jpg
2162.986	1.973	correct	generate	Run3	generate/STIM_019.jpg
2168.726	1.813	correct	generate	Run3	generate/STIM_020.jpg
2173.229	1.229	correct	generate	Run3	generate/STIM_020.jpg
2176.816	1.846	correct	generate	Run3	generate/STIM_020.jpg
2182.273	1.661	correct	generate	Run3	generate/STIM_020.jpg
2186.074	1.267	correct	generate	Run3	generate/STIM_020.jpg
2190.092	1.031	correct	generate	Run3	generate/STIM_021.jpg
2194.776	1.841	correct	generate	Run3	generate/STIM_021.jpg
2199.242	1.403	correct	generate	Run3	generate/STIM_021.jpg
2204.031	1.982	correct	generate	Run3	generate/STIM_021.jpg
2208.053	1.301	correct	generate	Run3	generate/STIM_021.jpg
2213.164	1.854	correct	generate	Run3	generate/STIM_022.jpg
2218.566	1.575	correct	generate	Run3	generate/STIM_022.jpg
2223.166	1.152	correct	generate	Run3	generate/STIM_022.jpg
2227.353	1.126	correct	generate	Run3	generate/STIM_022.jpg
2232.037	1.184	correct	generate	Run3	generate/STIM_022.jpg
2236.618	1.517	correct	generate	Run3	generate/STIM_023.jpg
2241.316	1.518	correct	generate	Run3	generate/STIM_023.jpg
2245.168	1.246	correct	generate	Run3	generate/STIM_023.jpg
2248.986	1.464	correct	generate	Run3	generate/STIM_023.jpg
2253.776	1.386	correct	generate	Run3	generate/STIM_023.jpg
2259.095	1.614	correct	generate	Run3	generate/STIM_024.jpg
2263.476	1.375	correct	generate	Run3	generate/STIM_024.jpg
2268.334	1.992	correct	generate	Run3	generate/STIM_024.jpg
2273.623	1.074	correct	generate	Run3	generate/STIM_024.jpg
2276.816	1.869	correct	generate	Run3	generate/STIM_024.jpg
2282.138	0.707	correct	repeat	Run3	repeat/STIM_000.jpg
2286.651	0.91	correct	repeat	Run3	repeat/STIM_000.jpg
2291.055	0.534	correct	repeat	Run3	repeat/STIM_000.jpg
2295.085	0.727	correct	repeat	Run3	repeat/STIM_000.jpg
2299.141	0.514	correct	repeat	Run3	repeat/STIM_000.jpg
2301.731	0.67	correct	repeat	Run3	repeat/STIM_001.jpg
2304.652	0.507	correct	repeat	Run3	repeat/STIM_001.jpg
2307.526	0.652	correct	repeat	Run3	repeat/STIM_001.jpg
2310.771	0.703	correct	repeat	Run3	repeat/STIM_001.jpg
2314.699	0.58	correct	repeat	Run3	repeat/STIM_001.jpg
2317.787	0.931	correct	repeat	Run3	repeat/STIM_002.jpg
2321.363	0.833	correct	repeat	Run3	repeat/STIM_002.jpg
2326.047	0.518	correct	repeat	Run3	repeat/STIM_002.jpg
2330.25	0.875	correct	repeat	Run3	repeat/STIM_002.jpg
2334.924	0.796	correct	repeat	Run3	repeat/STIM_002.jpg
2338.453	0.848	correct	repeat	Run3	repeat/STIM_003.jpg
2341.75	0.881	correct	repeat	Run3	repeat/STIM_003.jpg
2346.009	0.489	correct	repeat	Run3	repeat/STIM_003.jpg
2348.766	0.683	correct	repeat	Run3	repeat/STIM_003.jpg
2352.413	0.877	correct	repeat	Run3	repeat/STIM_003.jpg
2357.267	0.931	correct	repeat	Run3	repeat/STIM_004.jpg
2361.114	0.873	correct	repeat	Run3	repeat/STIM_004.jpg
2365.019	0.607	correct	repeat	Run3	repeat/STIM_004.jpg
2369.579	0.667	correct	repeat	Run3	repeat/STIM_004.jpg
2373.268	0.839	correct	repeat	Run3	repeat/STIM_004.jpg
2376.569	0.71	correct	repeat	Run3	repeat/STIM_005.jpg
2380.672	0.877	correct	repeat	Run3	repeat/STIM_005.jpg
2385.458	0.675	correct	repeat	Run3	repeat/STIM_005.jpg
2389.969	0.657	correct	repeat	Run3	repeat/STIM_005.jpg
2393.757	0.81	correct	repeat	Run3	repeat/STIM_005.jpg
2397.505	0.68	correct	repeat	Run3	repeat/STIM_006.jpg
2400.564	0.842	correct	repeat	Run3	repeat/STIM_006.jpg
2404.541	0.894	correct	repeat	Run3	repeat/STIM_006.jpg
2408.132	0.64	correct	repeat	Run3	repeat/STIM_006.jpg
2411.888	0.619	correct	repeat	Run3	repeat/STIM_006.jpg
2415.196	0.582	correct	repeat	Run3	repeat/STIM_007.jpg
2418.63	0.714	correct	repeat	Run3	repeat/STIM_007.jpg
2422.719	0.543	correct	repeat	Run3	repeat/STIM_007.jpg
2427.128	0.739	correct	repeat	Run3	repeat/STIM_007.jpg
2431.295	0.76	correct	repeat	Run3	repeat/STIM_007.jpg
2435.092	0.583	correct	repeat	Run3	repeat/STIM_008.jpg
2438.669	0.81	correct	repeat	Run3	repeat/STIM_008.jpg
2442.47	0.858	correct	repeat	Run3	repeat/STIM_008.jpg
2446.106	0.757	correct	repeat	Run3	repeat/STIM_008.jpg
2450.532	0.716	correct	repeat	Run3	repeat/STIM_008.jpg
2453.701	0.484	correct	repeat	Run3	repeat/STIM_009.jpg
2457.961	0.589	correct	repeat	Run3	repeat/STIM_009.jpg
2461.587	0.482	incorrect	repeat	Run3	repeat/STIM_009.jpg
2464.664	0.822	correct	repeat	Run3	repeat/STIM_009.jpg
2469.163	0.956	correct	repeat	Run3	repeat/STIM_009.jpg
2473.708	0.698	correct	repeat	Run3	repeat/STIM_010.jpg
2476.475	0.557	correct	repeat	Run3	repeat/STIM_010.jpg
2479.788	0.746	correct	repeat	Run3	repeat/STIM_010.jpg
2483.241	0.596	incorrect	repeat	Run3	repeat/STIM_010.jpg
2487.266	0.57	correct	repeat	Run3	repeat/STIM_010.jpg
2491.67	0.663	correct	repeat	Run3	repeat/STIM_011.jpg
2495.586	0.546	correct	repeat	Run3	repeat/STIM_011.jpg
2498.44	0.79	correct	repeat	Run3	repeat/STIM_011.jpg
2501.231	0.649	correct	repeat	Run3	repeat/STIM_011.jpg
2504.734	0.706	correct	repeat	Run3	repeat/STIM_011.jpg
2508.487	0.652	correct	repeat	Run3	repeat/STIM_012.jpg
2512.197	0.905	correct	repeat	Run3	repeat/STIM_012.jpg
2515.484	0.777	correct	repeat	Run3	repeat/STIM_012.jpg
2519.533	0.85	correct	repeat	Run3	repeat/STIM_012.jpg
2523.296	0.72	correct	repeat	Run3	repeat/STIM_012.jpg
2526.553	0.527	correct	repeat	Run3	repeat/STIM_013.jpg
2529.908	0.6	correct	repeat	Run3	repeat/STIM_013.jpg
2533.661	0.781	correct	repeat	Run3	repeat/STIM_013.jpg
2537.52	0.891	correct	repeat	Run3	repeat/STIM_013.jpg
2541.5	0.776	correct	repeat	Run3	repeat/STIM_013.jpg
2544.501	0.814	correct	repeat	Run3	repeat/STIM_014.jpg
2548.451	0.722	correct	repeat	Run3	repeat/STIM_014.jpg
2551.383	0.696	correct	repeat	Run3	repeat/STIM_014.jpg
2555.986	0.61	correct	repeat	Run3	repeat/STIM_014.jpg
2560.569	0.657	correct	repeat	Run3	repeat/STIM_014.jpg
2564.604	1.874	correct	generate	Run4	generate/STIM_000.jpg
2569.398	1.783	correct	generate	Run4	generate/STIM_000.jpg
2574.798	1.539	correct	generate	Run4	generate/STIM_000.jpg
2578.377	1.174	correct	generate	Run4	generate/STIM_000.jpg
2582.83	1.656	correct	generate	Run4	generate/STIM_000.jpg
2587.272	1.572	correct	generate	Run4	generate/STIM_001.jpg
2591.971	0.872	correct	generate	Run4	generate/STIM_001.jpg
2596.348	1.18	correct	generate	Run4	generate/STIM_001.jpg
2600.735	1.624	correct	generate	Run4	generate/STIM_001.jpg
2605.255	1.858	correct	generate	Run4	generate/STIM_001.jpg
2610.102	1.854	correct	generate	Run4	generate/STIM_002.jpg
2614.558	1.094	correct	generate	Run4	generate/STIM_002.jpg
2619.136	1.819	correct	generate	Run4	generate/STIM_002.jpg
2623.952	1.919	correct	generate	Run4	generate/STIM_002.jpg
2628.447	1.105	correct	generate	Run4	generate/STIM_002.jpg
2632.512	0.927	correct	generate	Run4	generate/STIM_003.jpg
2635.848	1.936	correct	generate	Run4	generate/STIM_003.jpg
2641.038	1.066	correct	generate	Run4	generate/STIM_003.jpg
2644.564	1.932	correct	generate	Run4	generate/STIM_003.jpg
2649.178	0.876	correct	generate	Run4	generate/STIM_003.jpg
2653.788	0.864	correct	generate	Run4	generate/STIM_004.jpg
2657.743	1.05	correct	generate	Run4	generate/STIM_004.jpg
2660.884	0.915	correct	generate	Run4	generate/STIM_004.jpg
2665.45	1.789	correct	generate	Run4	generate/STIM_004.jpg
2670.718	1.21	correct	generate	Run4	generate/STIM_004.jpg
2674.573	1.043	correct	generate	Run4	generate/STIM_005.jpg
2677.783	2.008	correct	generate	Run4	generate/STIM_005.jpg
2682.778	1.036	correct	generate	Run4	generate/STIM_005.jpg
2686.565	0.81	correct	generate	Run4	generate/STIM_005.jpg
2691.008	1.798	correct	generate	Run4	generate/STIM_005.jpg
2694.923	1.384	correct	generate	Run4	generate/STIM_006.jpg
2699.58	1.13	correct	generate	Run4	generate/STIM_006.jpg
2704.687	1.029	incorrect	generate	Run4	generate/STIM_006.jpg
2708.959	1.623	incorrect	generate	Run4	generate/STIM_006.jpg
2714.339	1.014	correct	generate	Run4	generate/STIM_006.jpg
2718.156	1.748	correct	generate	Run4	generate/STIM_007.jpg
2722.624	1.161	correct	generate	Run4	generate/STIM_007.jpg
2727.229	1.498	correct	generate	Run4	generate/STIM_007.jpg
2732.647	1.392	correct	generate	Run4	generate/STIM_007.jpg
2737.474	1.137	correct	generate	Run4	generate/STIM_007.jpg
2741.025	1.478	correct	generate	Run4	generate/STIM_008.jpg
2745.571	1.908	correct	generate	Run4	generate/STIM_008.jpg
2750.013	1.702	correct	generate	Run4	generate/STIM_008.jpg
2754.285	1.514	correct	generate	Run4	generate/STIM_008.jpg
2759.165	0.949	correct	generate	Run4	generate/STIM_008.jpg
2762.198	1.788	correct	generate	Run4	generate/STIM_009.jpg
2766.556	1.36	correct	generate	Run4	generate/STIM_009.jpg
2770.277	1.41	correct	generate	Run4	generate/STIM_009.jpg
2775.551	1.817	correct	generate	Run4	generate/STIM_009.jpg
2780.011	1.492	correct	generate	Run4	generate/STIM_009.jpg
2783.605	1.254	correct	generate	Run4	generate/STIM_010.jpg
2787.255	1.883	correct	generate	Run4	generate/STIM_010.jpg
2792.26	0.928	correct	generate	Run4	generate/STIM_010.jpg
2795.271	1.208	correct	generate	Run4	generate/STIM_010.jpg
2798.688	0.984	correct	generate	Run4	generate/STIM_010.jpg
2803.622	1.531	correct	generate	Run4	generate/STIM_011.jpg
2807.671	1.624	correct	generate	Run4	generate/STIM_011.jpg
2811.821	1.076	correct	generate	Run4	generate/STIM_011.jpg
2816.629	1.314	correct	generate	Run4	generate/STIM_011.jpg
2821.616	1.326	correct	generate	Run4	generate/STIM_011.jpg
2825.471	1.172	correct	generate	Run4	generate/STIM_012.jpg
2829.071	1.82	correct	generate	Run4	generate/STIM_012.jpg
2833.344	1.684	correct	generate	Run4	generate/STIM_012.jpg
2837.084	1.356	correct	generate	Run4	generate/STIM_012.jpg
2841.306	1.568	correct	generate	Run4	generate/STIM_012.jpg
2845.681	1.087	correct	generate	Run4	generate/STIM_013.jpg
2849.044	1.46	correct	generate	Run4	generate/STIM_013.jpg
2854.171	1.669	correct	generate	Run4	generate/STIM_013.jpg
2859.194	0.821	correct	generate	Run4	generate/STIM_013.jpg
2863.901	1.688	correct	generate	Run4	generate/STIM_013.jpg
2867.657	1.858	correct	generate	Run4	generate/STIM_014.jpg
2873.509	1.532	correct	generate	Run4	generate/STIM_014.jpg
2877.506	1.287	correct	generate	Run4	generate/STIM_014.jpg
2882.619	1.936	correct	generate	Run4	generate/STIM_014.jpg
2887.184	0.834	correct	generate	Run4	generate/STIM_014.jpg
2890.702	1.027	correct	generate	Run4	generate/STIM_015.jpg
2895.482	1.204	correct	generate	Run4	generate/STIM_015.jpg
2899.566	1.992	correct	generate	Run4	generate/STIM_015.jpg
2905.054	1.527	incorrect	generate	Run4	generate/STIM_015.jpg
2909.072	1.644	correct	generate	Run4	generate/STIM_015.jpg
2912.799	1.753	correct	generate	Run4	generate/STIM_016.jpg
2916.797	0.961	correct	generate	Run4	generate/STIM_016.jpg
2921.401	1.774	correct	generate	Run4	generate/STIM_016.jpg
2925.388	1.607	correct	generate	Run4	generate/STIM_016.jpg
2929.281	1.87	correct	generate	Run4	generate/STIM_016.jpg
2933.934	1.77	correct	generate	Run4	generate/STIM_017.jpg
2939.428	1.125	correct	generate	Run4	generate/STIM_017.jpg
2943.388	1.052	correct	generate	Run4	generate/STIM_017.jpg
2946.871	1.17	correct	generate	Run4	generate/STIM_017.jpg
2951.857	1.154	correct	generate	Run4	generate/STIM_017.jpg
2955.898	0.994	correct	generate	Run4	generate/STIM_018.jpg
2960.014	1.137	correct	generate	Run4	generate/STIM_018.jpg
2964.075	1.308	correct	generate	Run4	generate/STIM_018.jpg
2968.939	0.819	correct	generate	Run4	generate/STIM_018.jpg
2972.746	1.511	correct	generate	Run4	generate/STIM_018.jpg
2977.355	1.277	correct	generate	Run4	generate/STIM_019.jpg
2980.873	1.828	correct	generate	Run4	generate/STIM_019.jpg
2985.128	1.971	correct	generate	Run4	generate/STIM_019.jpg
2990.981	1.116	correct	generate	Run4	generate/STIM_019.jpg
2995.595	1.085	correct	generate	Run4	generate/STIM_019.jpg
3000.668	1.763	correct	generate	Run4	generate/STIM_020.jpg
3005.131	1.753	correct	generate	Run4	generate/STIM_020.jpg
3009.04	1.417	correct	generate	Run4	generate/STIM_020.jpg
3013.88	0.905	correct	generate	Run4	generate/STIM_020.jpg
3016.914	1.153	correct	generate	Run4	generate/STIM_020.jpg
3020.588	0.842	correct	generate	Run4	generate/STIM_021.jpg
3024.913	1.202	correct	generate	Run4	generate/STIM_021.jpg
3028.716	0.887	correct	generate	Run4	generate/STIM_021.jpg
3032.634	1.983	incorrect	generate	Run4	generate/STIM_021.jpg
3038.07	0.941	correct	generate	Run4	generate/STIM_021.jpg
3042.828	1.76	correct	generate	Run4	generate/STIM_022.jpg
3046.657	1.764	correct	generate	Run4	generate/STIM_022.jpg
3052.385	1.477	correct	generate	Run4	generate/STIM_022.jpg
3057.366	1.146	correct	generate	Run4	generate/STIM_022.jpg
3061.332	1.172	correct	generate	Run4	generate/STIM_022.jpg
3066.326	0.957	correct	generate	Run4	generate/STIM_023.jpg
3069.381	1.327	correct	generate	Run4	generate/STIM_023.jpg
3074.283	0.922	correct	generate	Run4	generate/STIM_023.jpg
3078.627	1.221	correct	generate	Run4	generate/STIM_023.jpg
3082.493	1.074	correct	generate	Run4	generate/STIM_023.jpg
3087.212	1.961	correct	generate	Run4	generate/STIM_024.jpg
3092.12	1.191	correct	generate	Run4	generate/STIM_024.jpg
3095.509	1.231	correct	generate	Run4	generate/STIM_024.jpg
3099.808	0.949	correct	generate	Run4	generate/STIM_024.jpg
3104.002	1.262	correct	generate	Run4	generate/STIM_024.jpg
3108.283	0.581	correct	repeat	Run4	repeat/STIM_000.jpg
3111.807	0.657	correct	repeat	Run4	repeat/STIM_000.jpg
3115.931	0.616	correct	repeat	Run4	repeat/STIM_000.jpg
3119.104	0.636	correct	repeat	Run4	repeat/STIM_000.jpg
3122.746	0.772	correct	repeat	Run4	repeat/STIM_000.jpg
3126.392	0.808	correct	repeat	Run4	repeat/STIM_001.jpg
3130.338	0.508	correct	repeat	Run4	repeat/STIM_001.jpg
3133.652	0.888	correct	repeat	Run4	repeat/STIM_001.jpg
3137.725	0.54	correct	repeat	Run4	repeat/STIM_001.jpg
3140.909	0.603	correct	repeat	Run4	repeat/STIM_001.jpg
3144.278	0.879	correct	repeat	Run4	repeat/STIM_002.jpg
3148.693	0.809	correct	repeat	Run4	repeat/STIM_002.jpg
3152.445	0.949	correct	repeat	Run4	repeat/STIM_002.jpg
3156.703	0.84	correct	repeat	Run4	repeat/STIM_002.jpg
3160.535	0.548	correct	repeat	Run4	repeat/STIM_002.jpg
3164.237	0.56	correct	repeat	Run4	repeat/STIM_003.jpg
3166.948	0.917	correct	repeat	Run4	repeat/STIM_003.jpg
3171.811	0.757	correct	repeat	Run4	repeat/STIM_003.jpg
3175.703	0.927	correct	repeat	Run4	repeat/STIM_003.jpg
3180.591	0.946	correct	repeat	Run4	repeat/STIM_003.jpg
3184.594	0.843	correct	repeat	Run4	repeat/STIM_004.jpg
3189.099	0.779	correct	repeat	Run4	repeat/STIM_004.jpg
3193.835	0.556	correct	repeat	Run4	repeat/STIM_004.jpg
3196.898	0.869	correct	repeat	Run4	repeat/STIM_004.jpg
3200.686	0.887	correct	repeat	Run4	repeat/STIM_004.jpg
3205.338	0.674	correct	repeat	Run4	repeat/STIM_005.jpg
3210.004	0.488	correct	repeat	Run4	repeat/STIM_005.jpg
3213.181	0.78	correct	repeat	Run4	repeat/STIM_005.jpg
3216.356	0.876	correct	repeat	Run4	repeat/STIM_005.jpg
3219.996	0.874	correct	repeat	Run4	repeat/STIM_005.jpg
3224.302	0.512	correct	repeat	Run4	repeat/STIM_006.jpg
3228.484	0.614	correct	repeat	Run4	repeat/STIM_006.jpg
3232.913	0.617	correct	repeat	Run4	repeat/STIM_006.jpg
3235.688	0.663	correct	repeat	Run4	repeat/STIM_006.jpg
3240.031	0.486	correct	repeat	Run4	repeat/STIM_006.jpg
3243.113	0.778	correct	repeat	Run4	repeat/STIM_007.jpg
3246.757	0.864	correct	repeat	Run4	repeat/STIM_007.jpg
3250.8	0.683	correct	repeat	Run4	repeat/STIM_007.jpg
3254.237	0.619	correct	repeat	Run4	repeat/STIM_007.jpg
3257.41	0.957	correct	repeat	Run4	repeat/STIM_007.jpg
3260.452	0.542	correct	repeat	Run4	repeat/STIM_008.jpg
3263.345	0.671	correct	repeat	Run4	repeat/STIM_008.jpg
3266.157	0.776	correct	repeat	Run4	repeat/STIM_008.jpg
3269.267	0.758	correct	repeat	Run4	repeat/STIM_008.jpg
3273.965	0.961	correct	repeat	Run4	repeat/STIM_008.jpg
3277.427	0.779	correct	repeat	Run4	repeat/STIM_009.jpg
3280.851	0.76	correct	repeat	Run4	repeat/STIM_009.jpg
3284.494	0.627	correct	repeat	Run4	repeat/STIM_009.jpg
3287.342	0.646	correct	repeat	Run4	repeat/STIM_009.jpg
3291.332	0.545	correct	repeat	Run4	repeat/STIM_009.jpg
3294.687	0.87	correct	repeat	Run4	repeat/STIM_010.jpg
3298.889	0.667	correct	repeat	Run4	repeat/STIM_010.jpg
3303.006	0.663	correct	repeat	Run4	repeat/STIM_010.jpg
3306.835	0.951	incorrect	repeat	Run4	repeat/STIM_010.jpg
3309.823	0.732	correct	repeat	Run4	repeat/STIM_010.jpg
3314.49	0.827	correct	repeat	Run4	repeat/STIM_011.jpg
3318.506	0.554	correct	repeat	Run4	repeat/STIM_011.jpg
3321.724	0.924	correct	repeat	Run4	repeat/STIM_011.jpg
3324.723	0.636	correct	repeat	Run4	repeat/STIM_011.jpg
3328.6	0.862	correct	repeat	Run4	repeat/STIM_011.jpg
3332.706	0.605	correct	repeat	Run4	repeat/STIM_012.jpg
3337.185	0.839	correct	repeat	Run4	repeat/STIM_012.jpg
3340.956	0.873	correct	repeat	Run4	repeat/STIM_012.jpg
3344.055	0.528	correct	repeat	Run4	repeat/STIM_012.jpg
3347.593	0.773	correct	repeat	Run4	repeat/STIM_012.jpg
3350.676	0.616	correct	repeat	Run4	repeat/STIM_013.jpg
3354.579	0.744	correct	repeat	Run4	repeat/STIM_013.jpg
3358.29	0.756	correct	repeat	Run4	repeat/STIM_013.jpg
3361.409	0.887	correct	repeat	Run4	repeat/STIM_013.jpg
3365.128	0.959	correct	repeat	Run4	repeat/STIM_013.jpg
3368.846	0.64	correct	repeat	Run4	repeat/STIM_014.jpg
3372.767	0.837	correct	repeat	Run4	repeat/STIM_014.jpg
3376.741	0.83	correct	repeat	Run4	repeat/STIM_014.jpg
3381.455	0.753	correct	repeat	Run4	repeat/STIM_014.jpg
3386.145	0.837	correct	repeat	Run4	repeat/STIM_014.jpg
