onset	duration	accuracy_binary	trial_type	learning_stage	stimulus
0.0	2.671	0	generate	Run1	generate/STIM_000.jpg
4.536	1.951	1	generate	Run1	generate/STIM_000.jpg
8.825	2.214	1	generate	Run1	generate/STIM_000.jpg
14.586	2.234	1	generate	Run1	generate/STIM_000.jpg
20.535	2.345	1	generate	Run1	generate/STIM_000.jpg
25.645	2.446	1	generate	Run1	generate/STIM_001.jpg
30.384	2.87	0	generate	Run1	generate/STIM_001.jpg
35.743	2.175	1	generate	Run1	generate/STIM_001.jpg
40.037	1.749	0	generate	Run1	generate/STIM_001.jpg
43.705	2.404	0	generate	Run1	generate/STIM_001.jpg
49.027	2.901	0	generate	Run1	generate/STIM_002.jpg
53.869	2.3	1	generate	Run1	generate/STIM_002.jpg
58.676	2.845	1	generate	Run1	generate/STIM_002.jpg
63.372	2.114	1	generate	Run1	generate/STIM_002.jpg
68.48	1.427	0	generate	Run1	generate/STIM_002.jpg
72.113	1.568	1	generate	Run1	generate/STIM_003.jpg
76.496	2.852	1	generate	Run1	generate/STIM_003.jpg
82.719	2.268	1	generate	Run1	generate/STIM_003.jpg
88.689	1.948	0	generate	Run1	generate/STIM_003.jpg
94.206	2.328	1	generate	Run1	generate/STIM_003.jpg
99.97	2.115	1	generate	Run1	generate/STIM_004.jpg
104.426	2.002	0	generate	Run1	generate/STIM_004.jpg
109.557	2.331	1	generate	Run1	generate/STIM_004.jpg
114.277	2.758	1	generate	Run1	generate/STIM_004.jpg
119.822	1.664	0	generate	Run1	generate/STIM_004.jpg
124.53	2.948	1	generate	Run1	generate/STIM_005.jpg
129.905	1.96	1	generate	Run1	generate/STIM_005.jpg
134.339	2.874	0	generate	Run1	generate/STIM_005.jpg
139.045	2.596	0	generate	Run1	generate/STIM_005.jpg
143.49	2.53	1	generate	Run1	generate/STIM_005.jpg
149.172	1.491	1	generate	Run1	generate/STIM_006.jpg
153.115	2.008	1	generate	Run1	generate/STIM_006.jpg
157.973	1.448	1	generate	Run1	generate/STIM_006.jpg
162.698	2.562	1	generate	Run1	generate/STIM_006.jpg
168.761	2.114	1	generate	Run1	generate/STIM_006.jpg
173.947	3.2	1	generate	Run1	generate/STIM_007.jpg
179.45	3.13	1	generate	Run1	generate/STIM_007.jpg
184.806	2.817	1	generate	Run1	generate/STIM_007.jpg
189.711	1.76	1	generate	Run1	generate/STIM_007.jpg
195.221	2.569	0	generate	Run1	generate/STIM_007.jpg
200.662	3.235	1	generate	Run1	generate/STIM_008.jpg
205.623	1.79	1	generate	Run1	generate/STIM_008.jpg
210.159	2.048	0	generate	Run1	generate/STIM_008.jpg
214.507	1.16	1	generate	Run1	generate/STIM_008.jpg
219.204	2.496	1	generate	Run1	generate/STIM_008.jpg
224.522	2.13	1	generate	Run1	generate/STIM_009.jpg
229.289	1.769	1	generate	Run1	generate/STIM_009.jpg
234.725	2.397	1	generate	Run1	generate/STIM_009.jpg
240.005	1.666	1	generate	Run1	generate/STIM_009.jpg
245.457	2.312	0	generate	Run1	generate/STIM_009.jpg
249.658	1.484	1	generate	Run1	generate/STIM_010.jpg
253.037	1.444	1	generate	Run1	generate/STIM_010.jpg
256.818	2.602	0	generate	Run1	generate/STIM_010.jpg
262.019	1.663	1	generate	Run1	generate/STIM_010.jpg
266.618	1.374	1	generate	Run1	generate/STIM_010.jpg
270.821	1.793	0	generate	Run1	generate/STIM_011.jpg
276.433	2.56	0	generate	Run1	generate/STIM_011.jpg
281.936	2.545	0	generate	Run1	generate/STIM_011.jpg
286.454	1.362	0	generate	Run1	generate/STIM_011.jpg
290.576	2.117	1	generate	Run1	generate/STIM_011.jpg
295.45	1.446	1	generate	Run1	generate/STIM_012.jpg
299.382	2.866	1	generate	Run1	generate/STIM_012.jpg
305.825	1.525	0	generate	Run1	generate/STIM_012.jpg
309.948	2.019	1	generate	Run1	generate/STIM_012.jpg
313.94	1.504	1	generate	Run1	generate/STIM_012.jpg
319.156	1.404	0	generate	Run1	generate/STIM_013.jpg
323.899	2.016	0	generate	Run1	generate/STIM_013.jpg
328.278	1.278	1	generate	Run1	generate/STIM_013.jpg
332.355	1.994	0	generate	Run1	generate/STIM_013.jpg
336.359	1.208	1	generate	Run1	generate/STIM_013.jpg
340.532	2.98	1	generate	Run1	generate/STIM_014.jpg
345.915	1.395	1	generate	Run1	generate/STIM_014.jpg
350.821	2.122	1	generate	Run1	generate/STIM_014.jpg
354.845	2.485	0	generate	Run1	generate/STIM_014.jpg
360.341	1.504	1	generate	Run1	generate/STIM_014.jpg
365.546	2.14	1	generate	Run1	generate/STIM_015.jpg
369.979	2.493	1	generate	Run1	generate/STIM_015.jpg
374.754	2.242	1	generate	Run1	generate/STIM_015.jpg
380.146	2.109	0	generate	Run1	generate/STIM_015.jpg
385.493	1.141	1	generate	Run1	generate/STIM_015.jpg
389.213	1.71	1	generate	Run1	generate/STIM_016.jpg
393.014	2.972	1	generate	Run1	generate/STIM_016.jpg
398.38	2.679	1	generate	Run1	generate/STIM_016.jpg
402.853	2.659	1	generate	Run1	generate/STIM_016.jpg
407.995	2.359	1	generate	Run1	generate/STIM_016.jpg
412.415	1.937	0	generate	Run1	generate/STIM_017.jpg
417.616	2.756	1	generate	Run1	generate/STIM_017.jpg
422.323	2.517	0	generate	Run1	generate/STIM_017.jpg
427.718	2.311	1	generate	Run1	generate/STIM_017.jpg
433.008	2.194	1	generate	Run1	generate/STIM_017.jpg
438.349	2.07	1	generate	Run1	generate/STIM_018.jpg
442.6	2.048	1	generate	Run1	generate/STIM_018.jpg
447.838	2.698	1	generate	Run1	generate/STIM_018.jpg
452.578	1.168	0	generate	Run1	generate/STIM_018.jpg
457.419	1.082	1	generate	Run1	generate/STIM_018.jpg
461.704	1.612	1	generate	Run1	generate/STIM_019.jpg
466.501	2.335	0	generate	Run1	generate/STIM_019.jpg
470.811	2.729	1	generate	Run1	generate/STIM_019.jpg
476.757	1.643	0	generate	Run1	generate/STIM_019.jpg
481.515	1.319	1	generate	Run1	generate/STIM_019.jpg
485.426	3.152	1	generate	Run1	generate/STIM_020.jpg
491.931	2.194	1	generate	Run1	generate/STIM_020.jpg
496.955	1.339	1	generate	Run1	generate/STIM_020.jpg
500.184	1.817	1	generate	Run1	generate/STIM_020.jpg
504.783	1.101	1	generate	Run1	generate/STIM_020.jpg
508.453	2.74	1	generate	Run1	generate/STIM_021.jpg
514.71	1.818	1	generate	Run1	generate/STIM_021.jpg
520.097	1.516	0	generate	Run1	generate/STIM_021.jpg
525.46	1.941	1	generate	Run1	generate/STIM_021.jpg
530.203	1.36	1	generate	Run1	generate/STIM_021.jpg
534.457	1.381	1	generate	Run1	generate/STIM_022.jpg
539.528	3.124	0	generate	Run1	generate/STIM_022.jpg
545.189	2.192	1	generate	Run1	generate/STIM_022.jpg
549.318	2.541	1	generate	Run1	generate/STIM_022.jpg
555.09	1.853	0	generate	Run1	generate/STIM_022.jpg
560.674	2.831	0	generate	Run1	generate/STIM_023.jpg
566.986	1.669	1	generate	Run1	generate/STIM_023.jpg
571.26	2.243	1	generate	Run1	generate/STIM_023.jpg
576.107	2.342	1	generate	Run1	generate/STIM_023.jpg
580.91	2.46	0	generate	Run1	generate/STIM_023.jpg
586.68	2.686	0	generate	Run1	generate/STIM_024.jpg
591.903	2.095	0	generate	Run1	generate/STIM_024.jpg
597.383	2.372	0	generate	Run1	generate/STIM_024.jpg
603.201	1.225	1	generate	Run1	generate/STIM_024.jpg
606.871	2.65	1	generate	Run1	generate/STIM_024.jpg
613.233	1.078	1	repeat	Run1	repeat/STIM_000.jpg
616.664	0.827	1	repeat	Run1	repeat/STIM_000.jpg
620.709	0.81	1	repeat	Run1	repeat/STIM_000.jpg
624.738	0.993	1	repeat	Run1	repeat/STIM_000.jpg
628.858	0.992	1	repeat	Run1	repeat/STIM_000.jpg
632.026	0.984	1	repeat	Run1	repeat/STIM_001.jpg
635.273	0.813	1	repeat	Run1	repeat/STIM_001.jpg
639.335	0.665	1	repeat	Run1	repeat/STIM_001.jpg
641.959	0.718	1	repeat	Run1	repeat/STIM_001.jpg
645.409	0.84	1	repeat	Run1	repeat/STIM_001.jpg
648.637	0.913	1	repeat	Run1	repeat/STIM_002.jpg
653.061	0.769	1	repeat	Run1	repeat/STIM_002.jpg
657.537	0.663	1	repeat	Run1	repeat/STIM_002.jpg
661.586	0.576	1	repeat	Run1	repeat/STIM_002.jpg
665.038	0.667	1	repeat	Run1	repeat/STIM_002.jpg
668.156	0.734	1	repeat	Run1	repeat/STIM_003.jpg
671.596	0.711	1	repeat	Run1	repeat/STIM_003.jpg
674.537	0.958	1	repeat	Run1	repeat/STIM_003.jpg
678.06	0.666	1	repeat	Run1	repeat/STIM_003.jpg
680.984	0.8	1	repeat	Run1	repeat/STIM_003.jpg
684.85	0.622	1	repeat	Run1	repeat/STIM_004.jpg
688.38	1.035	1	repeat	Run1	repeat/STIM_004.jpg
692.205	1.078	1	repeat	Run1	repeat/STIM_004.jpg
696.85	0.995	1	repeat	Run1	repeat/STIM_004.jpg
701.184	0.64	1	repeat	Run1	repeat/STIM_004.jpg
705.638	1.021	1	repeat	Run1	repeat/STIM_005.jpg
709.098	0.708	1	repeat	Run1	repeat/STIM_005.jpg
711.998	1.034	1	repeat	Run1	repeat/STIM_005.jpg
714.947	1.023	1	repeat	Run1	repeat/STIM_005.jpg
719.115	1.008	1	repeat	Run1	repeat/STIM_005.jpg
723.994	1.087	1	repeat	Run1	repeat/STIM_006.jpg
728.052	0.7	1	repeat	Run1	repeat/STIM_006.jpg
731.047	0.591	1	repeat	Run1	repeat/STIM_006.jpg
735.531	0.962	1	repeat	Run1	repeat/STIM_006.jpg
739.988	0.783	1	repeat	Run1	repeat/STIM_006.jpg
744.082	1.078	1	repeat	Run1	repeat/STIM_007.jpg
748.199	0.631	1	repeat	Run1	repeat/STIM_007.jpg
752.367	0.588	1	repeat	Run1	repeat/STIM_007.jpg
755.195	0.716	1	repeat	Run1	repeat/STIM_007.jpg
758.473	0.838	1	repeat	Run1	repeat/STIM_007.jpg
763.133	1.027	1	repeat	Run1	repeat/STIM_008.jpg
767.292	0.714	1	repeat	Run1	repeat/STIM_008.jpg
771.436	0.799	1	repeat	Run1	repeat/STIM_008.jpg
774.468	0.645	1	repeat	Run1	repeat/STIM_008.jpg
778.299	0.95	1	repeat	Run1	repeat/STIM_008.jpg
782.965	1.069	1	repeat	Run1	repeat/STIM_009.jpg
786.565	0.587	1	repeat	Run1	repeat/STIM_009.jpg
790.68	0.769	1	repeat	Run1	repeat/STIM_009.jpg
793.433	0.819	1	repeat	Run1	repeat/STIM_009.jpg
797.031	0.85	1	repeat	Run1	repeat/STIM_009.jpg
800.011	0.682	1	repeat	Run1	repeat/STIM_010.jpg
802.877	1.03	1	repeat	Run1	repeat/STIM_010.jpg
806.694	0.586	1	repeat	Run1	repeat/STIM_010.jpg
810.688	0.674	1	repeat	Run1	repeat/STIM_010.jpg
814.797	0.683	1	repeat	Run1	repeat/STIM_010.jpg
818.114	0.986	0	repeat	Run1	repeat/STIM_011.jpg
822.167	0.708	1	repeat	Run1	repeat/STIM_011.jpg
826.339	1.073	1	repeat	Run1	repeat/STIM_011.jpg
830.169	0.7	0	repeat	Run1	repeat/STIM_011.jpg
834.786	1.08	1	repeat	Run1	repeat/STIM_011.jpg
838.055	0.94	1	repeat	Run1	repeat/STIM_012.jpg
842.009	0.633	1	repeat	Run1	repeat/STIM_012.jpg
846.132	1.015	1	repeat	Run1	repeat/STIM_012.jpg
849.959	0.897	1	repeat	Run1	repeat/STIM_012.jpg
854.468	0.863	0	repeat	Run1	repeat/STIM_012.jpg
858.012	0.847	1	repeat	Run1	repeat/STIM_013.jpg
862.391	0.904	1	repeat	Run1	repeat/STIM_013.jpg
866.369	0.802	1	repeat	Run1	repeat/STIM_013.jpg
869.916	0.864	1	repeat	Run1	repeat/STIM_013.jpg
874.448	0.869	1	repeat	Run1	repeat/STIM_013.jpg
878.658	0.652	1	repeat	Run1	repeat/STIM_014.jpg
882.008	0.84	1	repeat	Run1	repeat/STIM_014.jpg
885.89	1.054	1	repeat	Run1	repeat/STIM_014.jpg
890.788	0.985	1	repeat	Run1	repeat/STIM_014.jpg
895.595	0.943	1	repeat	Run1	repeat/STIM_014.jpg
899.157	1.162	1	generate	Run2	generate/STIM_000.jpg
903.177	1.417	1	generate	Run2	generate/STIM_000.jpg
907.195	1.851	1	generate	Run2	generate/STIM_000.jpg
911.165	1.655	1	generate	Run2	generate/STIM_000.jpg
915.703	1.964	1	generate	Run2	generate/STIM_000.jpg
920.739	1.629	1	generate	Run2	generate/STIM_001.jpg
924.361	1.622	1	generate	Run2	generate/STIM_001.jpg
928.327	1.827	1	generate	Run2	generate/STIM_001.jpg
932.87	1.879	1	generate	Run2	generate/STIM_001.jpg
936.715	1.566	1	generate	Run2	generate/STIM_001.jpg
941.677	1.67	1	generate	Run2	generate/STIM_002.jpg
946.909	2.384	1	generate	Run2	generate/STIM_002.jpg
952.031	2.229	1	generate	Run2	generate/STIM_002.jpg
957.981	0.995	1	generate	Run2	generate/STIM_002.jpg
962.284	2.11	1	generate	Run2	generate/STIM_002.jpg
966.361	2.683	1	generate	Run2	generate/STIM_003.jpg
971.998	2.257	0	generate	Run2	generate/STIM_003.jpg
976.125	1.901	1	generate	Run2	generate/STIM_003.jpg
980.073	1.866	1	generate	Run2	generate/STIM_003.jpg
985.327	2.079	0	generate	Run2	generate/STIM_003.jpg
989.285	1.624	1	generate	Run2	generate/STIM_004.jpg
992.829	2.199	0	generate	Run2	generate/STIM_004.jpg
997.16	1.183	0	generate	Run2	generate/STIM_004.jpg
1002.051	1.936	0	generate	Run2	generate/STIM_004.jpg
1006.178	1.432	1	generate	Run2	generate/STIM_004.jpg
1009.582	1.689	1	generate	Run2	generate/STIM_005.jpg
1014.807	1.976	1	generate	Run2	generate/STIM_005.jpg
1020.085	2.294	1	generate	Run2	generate/STIM_005.jpg
1025.793	1.403	1	generate	Run2	generate/STIM_005.jpg
1030.634	1.331	1	generate	Run2	generate/STIM_005.jpg
1035.281	2.713	1	generate	Run2	generate/STIM_006.jpg
1040.562	1.102	1	generate	Run2	generate/STIM_006.jpg
1043.971	1.077	0	generate	Run2	generate/STIM_006.jpg
1046.985	1.284	1	generate	Run2	generate/STIM_006.jpg
1050.422	1.953	1	generate	Run2	generate/STIM_006.jpg
1054.457	1.765	0	generate	Run2	generate/STIM_007.jpg
1058.241	2.187	0	generate	Run2	generate/STIM_007.jpg
1062.858	1.408	1	generate	Run2	generate/STIM_007.jpg
1067.48	1.265	0	generate	Run2	generate/STIM_007.jpg
1071.081	1.821	1	generate	Run2	generate/STIM_007.jpg
1075.941	1.39	1	generate	Run2	generate/STIM_008.jpg
1080.798	1.718	1	generate	Run2	generate/STIM_008.jpg
1086.129	1.664	1	generate	Run2	generate/STIM_008.jpg
1090.646	1.887	0	generate	Run2	generate/STIM_008.jpg
1094.75	1.221	1	generate	Run2	generate/STIM_008.jpg
1098.935	2.326	1	generate	Run2	generate/STIM_009.jpg
1104.5	1.339	1	generate	Run2	generate/STIM_009.jpg
1109.49	2.434	1	generate	Run2	generate/STIM_009.jpg
1115.148	1.402	1	generate	Run2	generate/STIM_009.jpg
1118.96	1.118	1	generate	Run2	generate/STIM_009.jpg
1122.832	1.634	1	generate	Run2	generate/STIM_010.jpg
1127.756	1.879	1	generate	Run2	generate/STIM_010.jpg
1132.091	2.48	1	generate	Run2	generate/STIM_010.jpg
1137.69	1.587	1	generate	Run2	generate/STIM_010.jpg
1141.352	2.094	1	generate	Run2	generate/STIM_010.jpg
1146.5	2.493	1	generate	Run2	generate/STIM_011.jpg
1151.038	2.173	1	generate	Run2	generate/STIM_011.jpg
1156.592	1.664	1	generate	Run2	generate/STIM_011.jpg
1160.481	2.106	0	generate	Run2	generate/STIM_011.jpg
1165.578	1.705	1	generate	Run2	generate/STIM_011.jpg
1170.742	1.38	1	generate	Run2	generate/STIM_012.jpg
1175.181	1.262	1	generate	Run2	generate/STIM_012.jpg
1179.652	1.631	0	generate	Run2	generate/STIM_012.jpg
1183.357	1.112	0	generate	Run2	generate/STIM_012.jpg
1187.224	1.109	1	generate	Run2	generate/STIM_012.jpg
1191.908	2.079	1	generate	Run2	generate/STIM_013.jpg
1196.163	2.231	1	generate	Run2	generate/STIM_013.jpg
1200.681	1.306	1	generate	Run2	generate/STIM_013.jpg
1205.033	1.306	1	generate	Run2	generate/STIM_013.jpg
1209.317	1.697	1	generate	Run2	generate/STIM_013.jpg
1213.679	1.44	1	generate	Run2	generate/STIM_014.jpg
1218.92	1.923	1	generate	Run2	generate/STIM_014.jpg
1223.747	1.093	1	generate	Run2	generate/STIM_014.jpg
1228.21	2.272	1	generate	Run2	generate/STIM_014.jpg
1233.642	1.004	1	generate	Run2	generate/STIM_014.jpg
1237.418	2.472	0	generate	Run2	generate/STIM_015.jpg
1243.035	1.201	1	generate	Run2	generate/STIM_015.jpg
1246.785	1.15	1	generate	Run2	generate/STIM_015.jpg
1250.791	1.61	1	generate	Run2	generate/STIM_015.jpg
1254.561	1.717	1	generate	Run2	generate/STIM_015.jpg
1260.093	2.031	1	generate	Run2	generate/STIM_016.jpg
1265.464	1.136	1	generate	Run2	generate/STIM_016.jpg
1269.926	1.589	1	generate	Run2	generate/STIM_016.jpg
1274.03	2.264	1	generate	Run2	generate/STIM_016.jpg
1278.817	0.974	1	generate	Run2	generate/STIM_016.jpg
1282.812	1.954	1	generate	Run2	generate/STIM_017.jpg
1288.562	2.536	1	generate	Run2	generate/STIM_017.jpg
1294.556	2.363	1	generate	Run2	generate/STIM_017.jpg
1299.927	1.108	1	generate	Run2	generate/STIM_017.jpg
1303.529	1.249	1	generate	Run2	generate/STIM_017.jpg
1308.634	1.349	1	generate	Run2	generate/STIM_018.jpg
1312.986	1.122	1	generate	Run2	generate/STIM_018.jpg
1317.253	1.604	1	generate	Run2	generate/STIM_018.jpg
1321.261	1.3	1	generate	Run2	generate/STIM_018.jpg
1325.911	1.55	1	generate	Run2	generate/STIM_018.jpg
1331.006	2.746	1	generate	Run2	generate/STIM_019.jpg
1335.61	1.147	1	generate	Run2	generate/STIM_019.jpg
1338.72	1.506	1	generate	Run2	generate/STIM_019.jpg
1342.306	2.2	1	generate	Run2	generate/STIM_019.jpg
1347.527	2.221	1	generate	Run2	generate/STIM_019.jpg
1353.444	2.632	1	generate	Run2	generate/STIM_020.jpg
1357.84	2.14	1	generate	Run2	generate/STIM_020.jpg
1362.563	2.476	1	generate	Run2	generate/STIM_020.jpg
1368.445	1.718	1	generate	Run2	generate/STIM_020.jpg
1373.552	1.207	1	generate	Run2	generate/STIM_020.jpg
1377.521	2.276	1	generate	Run2	generate/STIM_021.jpg
1381.748	1.663	1	generate	Run2	generate/STIM_021.jpg
1386.503	1.572	1	generate	Run2	generate/STIM_021.jpg
1390.194	1.861	1	generate	Run2	generate/STIM_021.jpg
1395.558	2.002	1	generate	Run2	generate/STIM_021.jpg
1399.993	2.578	1	generate	Run2	generate/STIM_022.jpg
1404.483	2.089	0	generate	Run2	generate/STIM_022.jpg
1409.732	2.376	1	generate	Run2	generate/STIM_022.jpg
1414.272	1.641	1	generate	Run2	generate/STIM_022.jpg
1419.017	1.315	1	generate	Run2	generate/STIM_022.jpg
1423.665	2.132	1	generate	Run2	generate/STIM_023.jpg
1429.178	1.12	0	generate	Run2	generate/STIM_023.jpg
1434.169	1.988	1	generate	Run2	generate/STIM_023.jpg
1439.036	1.261	1	generate	Run2	generate/STIM_023.jpg
1442.994	2.082	1	generate	Run2	generate/STIM_023.jpg
1447.388	2.452	0	generate	Run2	generate/STIM_024.jpg
1452.604	2.271	1	generate	Run2	generate/STIM_024.jpg
1456.98	1.685	1	generate	Run2	generate/STIM_024.jpg
1460.901	2.008	1	generate	Run2	generate/STIM_024.jpg
1466.029	1.613	1	generate	Run2	generate/STIM_024.jpg
1469.736	0.8	1	repeat	Run2	repeat/STIM_000.jpg
1474.118	1.028	1	repeat	Run2	repeat/STIM_000.jpg
1477.752	0.745	1	repeat	Run2	repeat/STIM_000.jpg
1481.496	0.829	1	repeat	Run2	repeat/STIM_000.jpg
1484.8	1.071	0	repeat	Run2	repeat/STIM_000.jpg
1488.595	0.762	1	repeat	Run2	repeat/STIM_001.jpg
1491.96	0.841	1	repeat	Run2	repeat/STIM_001.jpg
1496.22	0.773	1	repeat	Run2	repeat/STIM_001.jpg
1500.44	0.915	1	repeat	Run2	repeat/STIM_001.jpg
1505.087	0.735	1	repeat	Run2	repeat/STIM_001.jpg
1508.759	0.964	1	repeat	Run2	repeat/STIM_002.jpg
1512.572	1.003	1	repeat	Run2	repeat/STIM_002.jpg
1515.91	1.007	1	repeat	Run2	repeat/STIM_002.jpg
1520.462	0.594	1	repeat	Run2	repeat/STIM_002.jpg
1524.747	0.782	1	repeat	Run2	repeat/STIM_002.jpg
1528.722	0.697	1	repeat	Run2	repeat/STIM_003.jpg
1532.935	0.888	1	repeat	Run2	repeat/STIM_003.jpg
1536.113	0.648	1	repeat	Run2	repeat/STIM_003.jpg
1540.541	0.59	1	repeat	Run2	repeat/STIM_003.jpg
1544.358	0.808	1	repeat	Run2	repeat/STIM_003.jpg
1547.97	1.052	0	repeat	Run2	repeat/STIM_004.jpg
1552.537	0.613	1	repeat	Run2	repeat/STIM_004.jpg
1555.895	0.846	0	repeat	Run2	repeat/STIM_004.jpg
1559.749	1.028	1	repeat	Run2	repeat/STIM_004.jpg
1563.474	0.76	1	repeat	Run2	repeat/STIM_004.jpg
1567.754	0.763	1	repeat	Run2	repeat/STIM_005.jpg
1571.657	1.004	1	repeat	Run2	repeat/STIM_005.jpg
1575.309	0.953	1	repeat	Run2	repeat/STIM_005.jpg
1580.152	0.873	1	repeat	Run2	repeat/STIM_005.jpg
1583.265	1.091	1	repeat	Run2	repeat/STIM_005.jpg
1586.364	0.962	1	repeat	Run2	repeat/STIM_006.jpg
1591.126	1.078	0	repeat	Run2	repeat/STIM_006.jpg
1595.116	0.752	1	repeat	Run2	repeat/STIM_006.jpg
1598.63	0.925	1	repeat	Run2	repeat/STIM_006.jpg
1602.336	1.048	1	repeat	Run2	repeat/STIM_006.jpg
1605.68	0.592	1	repeat	Run2	repeat/STIM_007.jpg
1608.446	0.947	1	repeat	Run2	repeat/STIM_007.jpg
1613.29	1.065	1	repeat	Run2	repeat/STIM_007.jpg
1616.367	0.602	0	repeat	Run2	repeat/STIM_007.jpg
1620.055	0.694	1	repeat	Run2	repeat/STIM_007.jpg
1622.87	0.766	1	repeat	Run2	repeat/STIM_008.jpg
1625.635	0.86	1	repeat	Run2	repeat/STIM_008.jpg
1630.226	0.57	1	repeat	Run2	repeat/STIM_008.jpg
1633.713	0.998	1	repeat	Run2	repeat/STIM_008.jpg
1636.703	1.045	1	repeat	Run2	repeat/STIM_008.jpg
1639.866	0.759	1	repeat	Run2	repeat/STIM_009.jpg
1643.907	1.078	1	repeat	Run2	repeat/STIM_009.jpg
1647.197	0.797	1	repeat	Run2	repeat/STIM_009.jpg
1651.503	0.72	1	repeat	Run2	repeat/STIM_009.jpg
1655.347	0.981	0	repeat	Run2	repeat/STIM_009.jpg
1659.735	0.858	1	repeat	Run2	repeat/STIM_010.jpg
1663.644	0.784	0	repeat	Run2	repeat/STIM_010.jpg
1667.225	0.816	1	repeat	Run2	repeat/STIM_010.jpg
1671.234	0.655	1	repeat	Run2	repeat/STIM_010.jpg
1674.231	1.06	1	repeat	Run2	repeat/STIM_010.jpg
1678.735	1.02	1	repeat	Run2	repeat/STIM_011.jpg
1682.738	0.8	1	repeat	Run2	repeat/STIM_011.jpg
1685.975	1.018	1	repeat	Run2	repeat/STIM_011.jpg
1690.274	1.027	1	repeat	Run2	repeat/STIM_011.jpg
1695.052	1.008	1	repeat	Run2	repeat/STIM_011.jpg
1699.246	0.796	1	repeat	Run2	repeat/STIM_012.jpg
1703.62	0.804	1	repeat	Run2	repeat/STIM_012.jpg
1707.587	1.041	1	repeat	Run2	repeat/STIM_012.jpg
1712.52	0.874	1	repeat	Run2	repeat/STIM_012.jpg
1715.92	0.572	1	repeat	Run2	repeat/STIM_012.jpg
1719.004	1.085	1	repeat	Run2	repeat/STIM_013.jpg
1722.2	0.613	1	repeat	Run2	repeat/STIM_013.jpg
1725.024	0.946	1	repeat	Run2	repeat/STIM_013.jpg
1728.756	0.833	1	repeat	Run2	repeat/STIM_013.jpg
1732.94	0.652	1	repeat	Run2	repeat/STIM_013.jpg
1736.45	0.976	1	repeat	Run2	repeat/STIM_014.jpg
1740.786	0.63	1	repeat	Run2	repeat/STIM_014.jpg
1744.907	0.607	1	repeat	Run2	repeat/STIM_014.jpg
1749.092	0.744	1	repeat	Run2	repeat/STIM_014.jpg
1752.331	1.024	1	repeat	Run2	repeat/STIM_014.jpg
1756.237	1.016	1	generate	Run3	generate/STIM_000.jpg
1760.435	2.29	1	generate	Run3	generate/STIM_000.jpg
1766.469	1.56	1	generate	Run3	generate/STIM_000.jpg
1770.968	1.334	1	generate	Run3	generate/STIM_000.jpg
1776.004	1.939	1	generate	Run3	generate/STIM_000.jpg
1781.557	2.147	1	generate	Run3	generate/STIM_001.jpg
1786.843	2.145	1	generate	Run3	generate/STIM_001.jpg
1790.921	1.229	1	generate	Run3	generate/STIM_001.jpg
1794.654	2.073	1	generate	Run3	generate/STIM_001.jpg
1799.45	1.011	1	generate	Run3	generate/STIM_001.jpg
1802.662	2.138	1	generate	Run3	generate/STIM_002.jpg
1807.178	1.466	1	generate	Run3	generate/STIM_002.jpg
1810.912	1.81	1	generate	Run3	generate/STIM_002.jpg
1816.291	1.338	1	generate	Run3	generate/STIM_002.jpg
1820.364	2.095	1	generate	Run3	generate/STIM_002.jpg
1826.243	1.436	1	generate	Run3	generate/STIM_003.jpg
1831.434	2.041	1	generate	Run3	generate/STIM_003.jpg
1836.528	1.166	1	generate	Run3	generate/STIM_003.jpg
1839.676	1.532	1	generate	Run3	generate/STIM_003.jpg
1844.963	1.27	1	generate	Run3	generate/STIM_003.jpg
1848.123	1.464	1	generate	Run3	generate/STIM_004.jpg
1853.173	1.852	1	generate	Run3	generate/STIM_004.jpg
1858.009	0.998	1	generate	Run3	generate/STIM_004.jpg
1861.751	1.972	1	generate	Run3	generate/STIM_004.jpg
1866.297	0.956	0	generate	Run3	generate/STIM_004.jpg
1870.095	1.629	1	generate	Run3	generate/STIM_005.jpg
1874.364	1.59	1	generate	Run3	generate/STIM_005.jpg
1878.942	2.304	1	generate	Run3	generate/STIM_005.jpg
1883.973	2.296	0	generate	Run3	generate/STIM_005.jpg
1889.234	1.435	1	generate	Run3	generate/STIM_005.jpg
1893.801	1.2	1	generate	Run3	generate/STIM_006.jpg
1898.553	2.155	1	generate	Run3	generate/STIM_006.jpg
1904.15	2.164	1	generate	Run3	generate/STIM_006.jpg
1909.288	1.156	1	generate	Run3	generate/STIM_006.jpg
1913.172	1.093	1	generate	Run3	generate/STIM_006.jpg
1917.816	2.315	1	generate	Run3	generate/STIM_007.jpg
1923.311	2.314	1	generate	Run3	generate/STIM_007.jpg
1928.931	1.971	1	generate	Run3	generate/STIM_007.jpg
1934.483	2.017	1	generate	Run3	generate/STIM_007.jpg
1939.312	1.885	1	generate	Run3	generate/STIM_007.jpg
1943.75	1.161	1	generate	Run3	generate/STIM_008.jpg
1948.512	1.729	1	generate	Run3	generate/STIM_008.jpg
1953.712	1.113	1	generate	Run3	generate/STIM_008.jpg
1958.693	2.009	1	generate	Run3	generate/STIM_008.jpg
1963.812	1.553	1	generate	Run3	generate/STIM_008.jpg
1967.689	2.081	1	generate	Run3	generate/STIM_009.jpg
1972.726	1.378	1	generate	Run3	generate/STIM_009.jpg
1977.906	1.727	1	generate	Run3	generate/STIM_009.jpg
1982.237	1.689	1	generate	Run3	generate/STIM_009.jpg
1985.956	2.277	1	generate	Run3	generate/STIM_009.jpg
1991.919	2.137	1	generate	Run3	generate/STIM_010.jpg
1996.601	1.838	0	generate	Run3	generate/STIM_010.jpg
2002.094	1.209	1	generate	Run3	generate/STIM_010.jpg
2005.471	2.017	1	generate	Run3	generate/STIM_010.jpg
2010.646	1.566	1	generate	Run3	generate/STIM_010.jpg
2015.344	1.977	1	generate	Run3	generate/STIM_011.jpg
2019.451	1.139	0	generate	Run3	generate/STIM_011.jpg
2023.077	0.951	1	generate	Run3	generate/STIM_011.jpg
2026.39	2.277	1	generate	Run3	generate/STIM_011.jpg
2031.618	2.31	1	generate	Run3	generate/STIM_011.jpg
2036.028	1.861	1	generate	Run3	generate/STIM_012.jpg
2040.444	2.093	1	generate	Run3	generate/STIM_012.jpg
2046.023	2.105	1	generate	Run3	generate/STIM_012.jpg
2051.707	1.615	1	generate	Run3	generate/STIM_012.jpg
2056.137	1.498	1	generate	Run3	generate/STIM_012.jpg
2060.94	0.96	1	generate	Run3	generate/STIM_013.jpg
2065.644	1.788	1	generate	Run3	generate/STIM_013.jpg
2069.323	0.944	1	generate	Run3	generate/STIM_013.jpg
2072.178	1.156	1	generate	Run3	generate/STIM_013.jpg
2075.362	1.959	1	generate	Run3	generate/STIM_013.jpg
2079.211	2.261	1	generate	Run3	generate/STIM_014.jpg
2083.677	1.366	1	generate	Run3	generate/STIM_014.jpg
2087.549	1.941	1	generate	Run3	generate/STIM_014.jpg
2092.351	1.406	1	generate	Run3	generate/STIM_014.jpg
2096.143	1.273	1	generate	Run3	generate/STIM_014.jpg
2100.334	1.543	1	generate	Run3	generate/STIM_015.jpg
2104.33	1.242	1	generate	Run3	generate/STIM_015.jpg
2108.037	2.308	1	generate	Run3	generate/STIM_015.jpg
2113.224	1.634	1	generate	Run3	generate/STIM_015.jpg
2116.872	1.493	0	generate	Run3	generate/STIM_015.jpg
2121.052	0.958	1	generate	Run3	generate/STIM_016.jpg
2125.39	2.173	1	generate	Run3	generate/STIM_016.jpg
2131.132	1.899	1	generate	Run3	generate/STIM_016.jpg
2135.407	1.849	1	generate	Run3	generate/STIM_016.jpg
2140.16	1.024	1	generate	Run3	generate/STIM_016.jpg
2143.658	1.136	1	generate	Run3	generate/STIM_017.jpg
2147.259	1.191	1	generate	Run3	generate/STIM_017.jpg
2151.827	1.641	1	generate	Run3	generate/STIM_017.jpg
2157.244	1.421	1	generate	Run3	generate/STIM_017.jpg
2162.314	2.061	1	generate	Run3	generate/STIM_017.jpg
2166.679	1.873	1	generate	Run3	generate/STIM_018.jpg
2170.519	2.294	0	generate	Run3	generate/STIM_018.jpg
2175.497	1.939	1	generate	Run3	generate/STIM_018.jpg
2180.404	2.171	1	generate	Run3	generate/STIM_018.jpg
2184.929	2.293	0	generate	Run3	generate/STIM_018.jpg
2189.031	1.172	1	generate	Run3	generate/STIM_019.jpg
2193.719	2.129	1	generate	Run3	generate/STIM_019.jpg
2198.413	1.113	1	generate	Run3	generate/STIM_019.jpg
2201.948	1.489	1	generate	Run3	generate/STIM_019.jpg
2207.071	1.116	1	generate	Run3	generate/STIM_019.jpg
2211.714	1.15	1	generate	Run3	generate/STIM_020.jpg
2216.253	2.081	1	generate	Run3	generate/STIM_020.jpg
2221.524	2.267	1	generate	Run3	generate/STIM_020.jpg
2227.178	1.791	1	generate	Run3	generate/STIM_020.jpg
2232.004	2.299	1	generate	Run3	generate/STIM_020.jpg
2236.75	1.935	1	generate	Run3	generate/STIM_021.jpg
2241.413	1.7	1	generate	Run3	generate/STIM_021.jpg
2246.483	1.233	1	generate	Run3	generate/STIM_021.jpg
2251.416	2.29	0	generate	Run3	generate/STIM_021.jpg
2256.891	1.13	1	generate	Run3	generate/STIM_021.jpg
2260.177	1.219	1	generate	Run3	generate/STIM_022.jpg
2263.992	1.881	1	generate	Run3	generate/STIM_022.jpg
2267.792	2.134	1	generate	Run3	generate/STIM_022.jpg
2273.329	1.882	0	generate	Run3	generate/STIM_022.jpg
2277.341	2.227	1	generate	Run3	generate/STIM_022.jpg
2282.715	1.663	1	generate	Run3	generate/STIM_023.jpg
2286.898	1.351	1	generate	Run3	generate/STIM_023.jpg
2291.51	2.023	1	generate	Run3	generate/STIM_023.jpg
2296.641	1.304	1	generate	Run3	generate/STIM_023.jpg
2301.626	1.304	1	generate	Run3	generate/STIM_023.jpg
2305.097	2.188	1	generate	Run3	generate/STIM_024.jpg
2309.328	1.309	0	generate	Run3	generate/STIM_024.jpg
2314.355	1.059	1	generate	Run3	generate/STIM_024.jpg
2318.21	1.436	1	generate	Run3	generate/STIM_024.jpg
2322.684	1.782	1	generate	Run3	generate/STIM_024.jpg
2327.428	0.842	1	repeat	Run3	repeat/STIM_000.jpg
2332.19	1.051	0	repeat	Run3	repeat/STIM_000.jpg
2335.822	0.56	1	repeat	Run3	repeat/STIM_000.jpg
2339.813	0.904	1	repeat	Run3	repeat/STIM_000.jpg
2344.02	0.618	1	repeat	Run3	repeat/STIM_000.jpg
2346.778	0.89	1	repeat	Run3	repeat/STIM_001.jpg
2351.028	0.874	1	repeat	Run3	repeat/STIM_001.jpg
2354.122	1.061	1	repeat	Run3	repeat/STIM_001.jpg
2357.404	0.978	1	repeat	Run3	repeat/STIM_001.jpg
2360.4	0.985	1	repeat	Run3	repeat/STIM_001.jpg
2365.219	0.866	1	repeat	Run3	repeat/STIM_002.jpg
2368.185	0.771	1	repeat	Run3	repeat/STIM_002.jpg
2371.877	0.613	1	repeat	Run3	repeat/STIM_002.jpg
2375.657	0.558	1	repeat	Run3	repeat/STIM_002.jpg
2378.378	1.1	1	repeat	Run3	repeat/STIM_002.jpg
2382.524	0.776	1	repeat	Run3	repeat/STIM_003.jpg
2386.427	0.725	1	repeat	Run3	repeat/STIM_003.jpg
2390.565	0.618	1	repeat	Run3	repeat/STIM_003.jpg
2394.85	0.905	1	repeat	Run3	repeat/STIM_003.jpg
2398.688	0.735	1	repeat	Run3	repeat/STIM_003.jpg
2403.316	0.908	1	repeat	Run3	repeat/STIM_004.jpg
2407.782	0.555	1	repeat	Run3	repeat/STIM_004.jpg
2410.707	0.968	1	repeat	Run3	repeat/STIM_004.jpg
2413.815	1.06	1	repeat	Run3	repeat/STIM_004.jpg
2418.021	0.82	0	repeat	Run3	repeat/STIM_004.jpg
2421.176	1.091	0	repeat	Run3	repeat/STIM_005.jpg
2425.066	0.827	0	repeat	Run3	repeat/STIM_005.jpg
2429.391	0.798	1	repeat	Run3	repeat/STIM_005.jpg
2432.655	1.04	1	repeat	Run3	repeat/STIM_005.jpg
2437.484	0.847	1	repeat	Run3	repeat/STIM_005.jpg
2440.995	0.782	1	repeat	Run3	repeat/STIM_006.jpg
2444.015	0.694	1	repeat	Run3	repeat/STIM_006.jpg
2447.591	0.587	1	repeat	Run3	repeat/STIM_006.jpg
2450.438	0.699	1	repeat	Run3	repeat/STIM_006.jpg
2453.977	0.818	1	repeat	Run3	repeat/STIM_006.jpg
2456.738	0.588	1	repeat	Run3	repeat/STIM_007.jpg
2459.822	0.738	1	repeat	Run3	repeat/STIM_007.jpg
2462.541	0.574	1	repeat	Run3	repeat/STIM_007.jpg
2465.559	1.032	1	repeat	Run3	repeat/STIM_007.jpg
2468.814	0.601	1	repeat	Run3	repeat/STIM_007.jpg
2473.217	0.98	1	repeat	Run3	repeat/STIM_008.jpg
2476.232	0.629	1	repeat	Run3	repeat/STIM_008.jpg
2479.007	0.598	1	repeat	Run3	repeat/STIM_008.jpg
2482.214	0.819	1	repeat	Run3	repeat/STIM_008.jpg
2485.976	1.043	1	repeat	Run3	repeat/STIM_008.jpg
2489.474	0.893	1	repeat	Run3	repeat/STIM_009.jpg
2493.077	0.746	1	repeat	Run3	repeat/STIM_009.jpg
2496.761	0.608	0	repeat	Run3	repeat/STIM_009.jpg
2500.747	1.102	1	repeat	Run3	repeat/STIM_009.jpg
2503.945	1.038	1	repeat	Run3	repeat/STIM_009.jpg
2507.511	1.061	1	repeat	Run3	repeat/STIM_010.jpg
2512.253	1.005	1	repeat	Run3	repeat/STIM_010.jpg
2515.419	0.835	1	repeat	Run3	repeat/STIM_010.jpg
2518.628	0.721	0	repeat	Run3	repeat/STIM_010.jpg
2522.752	1.073	1	repeat	Run3	repeat/STIM_010.jpg
2527.518	0.945	1	repeat	Run3	repeat/STIM_011.jpg
2531.457	0.817	1	repeat	Run3	repeat/STIM_011.jpg
2534.667	0.987	1	repeat	Run3	repeat/STIM_011.jpg
2539.368	0.56	1	repeat	Run3	repeat/STIM_011.jpg
2543.149	0.851	1	repeat	Run3	repeat/STIM_011.jpg
2547.67	0.555	1	repeat	Run3	repeat/STIM_012.jpg
2551.005	0.59	1	repeat	Run3	repeat/STIM_012.jpg
2554.174	0.653	1	repeat	Run3	repeat/STIM_012.jpg
2557.921	0.659	1	repeat	Run3	repeat/STIM_012.jpg
2560.927	0.815	1	repeat	Run3	repeat/STIM_012.jpg
2565.22	0.89	1	repeat	Run3	repeat/STIM_013.jpg
2569.77	0.809	1	repeat	Run3	repeat/STIM_013.jpg
2574.15	0.798	1	repeat	Run3	repeat/STIM_013.jpg
2578.413	0.651	1	repeat	Run3	repeat/STIM_013.jpg
2581.174	0.584	1	repeat	Run3	repeat/STIM_013.jpg
2585.054	0.936	1	repeat	Run3	repeat/STIM_014.jpg
2588.423	0.74	1	repeat	Run3	repeat/STIM_014.jpg
2591.94	0.595	1	repeat	Run3	repeat/STIM_014.jpg
2595.117	0.866	1	repeat	Run3	repeat/STIM_014.jpg
2599.561	0.967	1	repeat	Run3	repeat/STIM_014.jpg
2602.611	1.151	1	generate	Run4	generate/STIM_000.jpg
2607.185	1.184	1	generate	Run4	generate/STIM_000.jpg
2610.865	2.224	1	generate	Run4	generate/STIM_000.jpg
2615.773	1.246	1	generate	Run4	generate/STIM_000.jpg
2619.443	2.31	1	generate	Run4	generate/STIM_000.jpg
2624.518	2.052	1	generate	Run4	generate/STIM_001.jpg
2629.524	2.003	1	generate	Run4	generate/STIM_001.jpg
2633.403	1.527	1	generate	Run4	generate/STIM_001.jpg
2637.461	1.408	1	generate	Run4	generate/STIM_001.jpg
2642.217	1.84	1	generate	Run4	generate/STIM_001.jpg
2645.999	1.677	1	generate	Run4	generate/STIM_002.jpg
2650.32	2.128	1	generate	Run4	generate/STIM_002.jpg
2656.167	2.135	1	generate	Run4	generate/STIM_002.jpg
2660.941	1.36	1	generate	Run4	generate/STIM_002.jpg
2665.735	1.45	1	generate	Run4	generate/STIM_002.jpg
2670.862	0.994	1	generate	Run4	generate/STIM_003.jpg
2674.732	1.048	1	generate	Run4	generate/STIM_003.jpg
2679.04	1.897	1	generate	Run4	generate/STIM_003.jpg
2684.224	1.176	1	generate	Run4	generate/STIM_003.jpg
2688.466	0.932	1	generate	Run4	generate/STIM_003.jpg
2692.879	2.107	1	generate	Run4	generate/STIM_004.jpg
2697.002	2.266	1	generate	Run4	generate/STIM_004.jpg
2702.223	1.993	1	generate	Run4	generate/STIM_004.jpg
2706.752	1.646	1	generate	Run4	generate/STIM_004.jpg
2710.3	2.146	1	generate	Run4	generate/STIM_004.jpg
2716.009	1.334	1	generate	Run4	generate/STIM_005.jpg
2721.205	2.028	1	generate	Run4	generate/STIM_005.jpg
2726.093	1.233	1	generate	Run4	generate/STIM_005.jpg
2729.63	2.185	1	generate	Run4	generate/STIM_005.jpg
2734.614	1.788	1	generate	Run4	generate/STIM_005.jpg
2738.595	2.058	1	generate	Run4	generate/STIM_006.jpg
2744.433	2.179	1	generate	Run4	generate/STIM_006.jpg
2749.626	1.92	0	generate	Run4	generate/STIM_006.jpg
2754.89	1.527	0	generate	Run4	generate/STIM_006.jpg
2758.346	2.006	1	generate	Run4	generate/STIM_006.jpg
2763.097	0.945	1	generate	Run4	generate/STIM_007.jpg
2767.129	2.242	1	generate	Run4	generate/STIM_007.jpg
2772.015	1.834	1	generate	Run4	generate/STIM_007.jpg
2776.883	1.902	1	generate	Run4	generate/STIM_007.jpg
2781.101	1.866	1	generate	Run4	generate/STIM_007.jpg
2785.667	1.702	1	generate	Run4	generate/STIM_008.jpg
2790.848	1.883	1	generate	Run4	generate/STIM_008.jpg
2794.89	1.019	1	generate	Run4	generate/STIM_008.jpg
2798.381	2.223	1	generate	Run4	generate/STIM_008.jpg
2802.637	1.408	1	generate	Run4	generate/STIM_008.jpg
2806.09	1.354	1	generate	Run4	generate/STIM_009.jpg
2810.061	1.814	1	generate	Run4	generate/STIM_009.jpg
2815.311	1.006	1	generate	Run4	generate/STIM_009.jpg
2820.189	1.197	1	generate	Run4	generate/STIM_009.jpg
2824.279	2.239	1	generate	Run4	generate/STIM_009.jpg
2829.884	1.763	1	generate	Run4	generate/STIM_010.jpg
2834.06	1.333	1	generate	Run4	generate/STIM_010.jpg
2838.873	2.268	1	generate	Run4	generate/STIM_010.jpg
2842.933	0.941	0	generate	Run4	generate/STIM_010.jpg
2846.571	2.092	1	generate	Run4	generate/STIM_010.jpg
2851.319	1.826	1	generate	Run4	generate/STIM_011.jpg
2856.079	1.074	1	generate	Run4	generate/STIM_011.jpg
2859.21	1.049	1	generate	Run4	generate/STIM_011.jpg
2862.242	1.809	1	generate	Run4	generate/STIM_011.jpg
2867.438	1.348	1	generate	Run4	generate/STIM_011.jpg
2871.672	2.062	1	generate	Run4	generate/STIM_012.jpg
2875.946	0.957	1	generate	Run4	generate/STIM_012.jpg
2880.531	2.139	1	generate	Run4	generate/STIM_012.jpg
2886.262	0.962	1	generate	Run4	generate/STIM_012.jpg
2889.854	1.134	1	generate	Run4	generate/STIM_012.jpg
2894.743	1.057	1	generate	Run4	generate/STIM_013.jpg
2898.377	1.187	1	generate	Run4	generate/STIM_013.jpg
2902.494	1.228	1	generate	Run4	generate/STIM_013.jpg
2906.351	1.11	1	generate	Run4	generate/STIM_013.jpg
2910.248	1.228	1	generate	Run4	generate/STIM_013.jpg
2914.566	1.719	1	generate	Run4	generate/STIM_014.jpg
2918.923	1.121	1	generate	Run4	generate/STIM_014.jpg
2923.524	1.238	1	generate	Run4	generate/STIM_014.jpg
2927.527	1.256	1	generate	Run4	generate/STIM_014.jpg
2931.862	1.109	1	generate	Run4	generate/STIM_014.jpg
2936.386	1.57	1	generate	Run4	generate/STIM_015.jpg
2940.727	1.86	1	generate	Run4	generate/STIM_015.jpg
2945.262	1.715	1	generate	Run4	generate/STIM_015.jpg
2949.532	2.098	0	generate	Run4	generate/STIM_015.jpg
2954.448	1.239	1	generate	Run4	generate/STIM_015.jpg
2958.363	2.088	1	generate	Run4	generate/STIM_016.jpg
2963.47	1.375	1	generate	Run4	generate/STIM_016.jpg
2967.222	0.991	1	generate	Run4	generate/STIM_016.jpg
2971.278	1.119	1	generate	Run4	generate/STIM_016.jpg
2974.88	1.094	1	generate	Run4	generate/STIM_016.jpg
2979.667	1.532	1	generate	Run4	generate/STIM_017.jpg
2984.622	1.787	1	generate	Run4	generate/STIM_017.jpg
2990.087	1.423	1	generate	Run4	generate/STIM_017.jpg
2993.507	1.674	1	generate	Run4	generate/STIM_017.jpg
2997.57	1.932	1	generate	Run4	generate/STIM_017.jpg
3002.081	1.535	1	generate	Run4	generate/STIM_018.jpg
3005.705	1.924	1	generate	Run4	generate/STIM_018.jpg
3010.196	1.504	1	generate	Run4	generate/STIM_018.jpg
3013.839	2.015	1	generate	Run4	generate/STIM_018.jpg
3017.827	2.28	1	generate	Run4	generate/STIM_018.jpg
3023.611	1.3	1	generate	Run4	generate/STIM_019.jpg
3028.295	1.221	1	generate	Run4	generate/STIM_019.jpg
3031.505	1.752	1	generate	Run4	generate/STIM_019.jpg
3036.123	1.0	1	generate	Run4	generate/STIM_019.jpg
3040.965	1.868	1	generate	Run4	generate/STIM_019.jpg
3044.698	1.431	1	generate	Run4	generate/STIM_020.jpg
3049.513	1.688	1	generate	Run4	generate/STIM_020.jpg
3055.013	1.929	1	generate	Run4	generate/STIM_020.jpg
3060.198	1.795	1	generate	Run4	generate/STIM_020.jpg
3063.836	2.26	1	generate	Run4	generate/STIM_020.jpg
3069.724	1.236	1	generate	Run4	generate/STIM_021.jpg
3074.65	2.043	1	generate	Run4	generate/STIM_021.jpg
3079.394	1.416	1	generate	Run4	generate/STIM_021.jpg
3083.012	1.79	0	generate	Run4	generate/STIM_021.jpg
3086.76	1.298	1	generate	Run4	generate/STIM_021.jpg
3090.044	1.748	1	generate	Run4	generate/STIM_022.jpg
3093.986	1.85	1	generate	Run4	generate/STIM_022.jpg
3099.508	1.449	1	generate	Run4	generate/STIM_022.jpg
3104.397	1.684	1	generate	Run4	generate/STIM_022.jpg
3109.215	2.221	1	generate	Run4	generate/STIM_022.jpg
3115.212	1.608	1	generate	Run4	generate/STIM_023.jpg
3118.935	1.554	1	generate	Run4	generate/STIM_023.jpg
3122.785	1.016	1	generate	Run4	generate/STIM_023.jpg
3127.67	1.884	1	generate	Run4	generate/STIM_023.jpg
3132.681	2.107	1	generate	Run4	generate/STIM_023.jpg
3136.7	2.127	1	generate	Run4	generate/STIM_024.jpg
3141.708	1.724	1	generate	Run4	generate/STIM_024.jpg
3146.156	2.1	1	generate	Run4	generate/STIM_024.jpg
3150.865	1.29	1	generate	Run4	generate/STIM_024.jpg
3154.098	1.074	1	generate	Run4	generate/STIM_024.jpg
3157.696	0.927	1	repeat	Run4	repeat/STIM_000.jpg
3160.962	0.967	1	repeat	Run4	repeat/STIM_000.jpg
3165.123	0.668	1	repeat	Run4	repeat/STIM_000.jpg
3168.486	0.697	1	repeat	Run4	repeat/STIM_000.jpg
3171.2	0.568	0	repeat	Run4	repeat/STIM_000.jpg
3174.639	0.645	1	repeat	Run4	repeat/STIM_001.jpg
3179.086	1.073	1	repeat	Run4	repeat/STIM_001.jpg
3182.462	0.751	1	repeat	Run4	repeat/STIM_001.jpg
3186.892	1.084	1	repeat	Run4	repeat/STIM_001.jpg
3190.205	0.555	1	repeat	Run4	repeat/STIM_001.jpg
3194.41	1.073	1	repeat	Run4	repeat/STIM_002.jpg
3198.462	0.869	1	repeat	Run4	repeat/STIM_002.jpg
3202.268	0.789	1	repeat	Run4	repeat/STIM_002.jpg
3206.706	0.598	1	repeat	Run4	repeat/STIM_002.jpg
3210.802	1.077	1	repeat	Run4	repeat/STIM_002.jpg
3214.312	0.693	1	repeat	Run4	repeat/STIM_003.jpg
3218.11	0.649	1	repeat	Run4	repeat/STIM_003.jpg
3221.032	0.96	1	repeat	Run4	repeat/STIM_003.jpg
3225.307	1.083	1	repeat	Run4	repeat/STIM_003.jpg
3230.195	0.839	1	repeat	Run4	repeat/STIM_003.jpg
3234.933	0.673	1	repeat	Run4	repeat/STIM_004.jpg
3238.192	0.806	1	repeat	Run4	repeat/STIM_004.jpg
3241.285	0.66	1	repeat	Run4	repeat/STIM_004.jpg
3244.273	0.825	1	repeat	Run4	repeat/STIM_004.jpg
3248.034	0.718	1	repeat	Run4	repeat/STIM_004.jpg
3251.615	0.909	1	repeat	Run4	repeat/STIM_005.jpg
3255.23	0.986	1	repeat	Run4	repeat/STIM_005.jpg
3258.194	1.068	1	repeat	Run4	repeat/STIM_005.jpg
3262.96	0.936	1	repeat	Run4	repeat/STIM_005.jpg
3266.876	0.601	1	repeat	Run4	repeat/STIM_005.jpg
3270.602	1.099	1	repeat	Run4	repeat/STIM_006.jpg
3274.208	0.964	1	repeat	Run4	repeat/STIM_006.jpg
3277.58	1.029	1	repeat	Run4	repeat/STIM_006.jpg
3281.349	0.581	1	repeat	Run4	repeat/STIM_006.jpg
3285.575	0.723	1	repeat	Run4	repeat/STIM_006.jpg
3288.659	0.679	1	repeat	Run4	repeat/STIM_007.jpg
3291.765	0.803	1	repeat	Run4	repeat/STIM_007.jpg
3296.385	0.819	1	repeat	Run4	repeat/STIM_007.jpg
3299.204	1.092	1	repeat	Run4	repeat/STIM_007.jpg
3303.817	0.597	0	repeat	Run4	repeat/STIM_007.jpg
3306.629	1.013	1	repeat	Run4	repeat/STIM_008.jpg
3310.255	1.057	1	repeat	Run4	repeat/STIM_008.jpg
3315.196	0.838	1	repeat	Run4	repeat/STIM_008.jpg
3318.966	0.956	1	repeat	Run4	repeat/STIM_008.jpg
3323.353	0.899	1	repeat	Run4	repeat/STIM_008.jpg
3327.97	0.872	1	repeat	Run4	repeat/STIM_009.jpg
3331.979	0.933	1	repeat	Run4	repeat/STIM_009.jpg
3335.271	0.666	1	repeat	Run4	repeat/STIM_009.jpg
3338.566	0.743	1	repeat	Run4	repeat/STIM_009.jpg
3342.489	1.027	0	repeat	Run4	repeat/STIM_009.jpg
3345.887	0.66	1	repeat	Run4	repeat/STIM_010.jpg
3350.084	0.891	0	repeat	Run4	repeat/STIM_010.jpg
3353.268	1.009	1	repeat	Run4	repeat/STIM_010.jpg
3358.059	0.608	0	repeat	Run4	repeat/STIM_010.jpg
3361.944	0.933	1	repeat	Run4	repeat/STIM_010.jpg
3366.405	0.894	1	repeat	Run4	repeat/STIM_011.jpg
3370.514	1.078	0	repeat	Run4	repeat/STIM_011.jpg
3375.311	1.097	1	repeat	Run4	repeat/STIM_011.jpg
3378.68	0.926	1	repeat	Run4	repeat/STIM_011.jpg
3382.117	0.858	1	repeat	Run4	repeat/STIM_011.jpg
3386.283	1.02	1	repeat	Run4	repeat/STIM_012.jpg
3389.216	0.759	1	repeat	Run4	repeat/STIM_012.jpg
3393.803	0.766	1	repeat	Run4	repeat/STIM_012.jpg
3398.037	0.926	1	repeat	Run4	repeat/STIM_012.jpg
3401.931	0.928	0	repeat	Run4	repeat/STIM_012.jpg
3405.93	0.582	0	repeat	Run4	repeat/STIM_013.jpg
3408.458	0.89	1	repeat	Run4	repeat/STIM_013.jpg
3413.128	0.555	1	repeat	Run4	repeat/STIM_013.jpg
3417.514	0.565	1	repeat	Run4	repeat/STIM_013.jpg
3421.833	0.985	1	repeat	Run4	repeat/STIM_013.jpg
3426.578	0.629	1	repeat	Run4	repeat/STIM_014.jpg
3430.505	0.626	1	repeat	Run4	repeat/STIM_014.jpg
3434.935	0.894	1	repeat	Run4	repeat/STIM_014.jpg
3438.176	0.82	1	repeat	Run4	repeat/STIM_014.jpg
3441.901	0.824	1	repeat	Run4	repeat/STIM_014.jpg
