onset	duration	accuracy_binary	trial_type	learning_stage	stimulus
0.0	2.818	0	generate	Run1	generate/STIM_000.jpg
6.606	1.835	1	generate	Run1	generate/STIM_000.jpg
11.72	1.469	1	generate	Run1	generate/STIM_000.jpg
16.769	1.411	1	generate	Run1	generate/STIM_000.jpg
21.884	1.684	1	generate	Run1	generate/STIM_000.jpg
26.245	2.406	1	generate	Run1	generate/STIM_001.jpg
31.872	1.641	0	generate	Run1	generate/STIM_001.jpg
36.241	1.994	1	generate	Run1	generate/STIM_001.jpg
41.504	2.335	0	generate	Run1	generate/STIM_001.jpg
47.145	1.59	1	generate	Run1	generate/STIM_001.jpg
52.301	2.806	0	generate	Run1	generate/STIM_002.jpg
58.759	1.368	1	generate	Run1	generate/STIM_002.jpg
63.956	1.486	1	generate	Run1	generate/STIM_002.jpg
68.841	1.591	1	generate	Run1	generate/STIM_002.jpg
72.853	1.734	0	generate	Run1	generate/STIM_002.jpg
77.579	2.388	1	generate	Run1	generate/STIM_003.jpg
83.525	1.304	0	generate	Run1	generate/STIM_003.jpg
88.577	1.428	1	generate	Run1	generate/STIM_003.jpg
92.91	1.477	0	generate	Run1	generate/STIM_003.jpg
97.099	1.266	1	generate	Run1	generate/STIM_003.jpg
100.465	2.029	1	generate	Run1	generate/STIM_004.jpg
104.594	1.107	0	generate	Run1	generate/STIM_004.jpg
109.323	1.326	1	generate	Run1	generate/STIM_004.jpg
113.325	1.564	1	generate	Run1	generate/STIM_004.jpg
118.799	1.035	0	generate	Run1	generate/STIM_004.jpg
122.376	1.954	1	generate	Run1	generate/STIM_005.jpg
126.559	1.683	1	generate	Run1	generate/STIM_005.jpg
131.198	2.332	0	generate	Run1	generate/STIM_005.jpg
135.855	2.095	1	generate	Run1	generate/STIM_005.jpg
141.329	1.483	1	generate	Run1	generate/STIM_005.jpg
146.026	2.544	1	generate	Run1	generate/STIM_006.jpg
152.333	1.646	1	generate	Run1	generate/STIM_006.jpg
156.764	1.883	1	generate	Run1	generate/STIM_006.jpg
162.443	2.32	1	generate	Run1	generate/STIM_006.jpg
167.662	1.676	1	generate	Run1	generate/STIM_006.jpg
173.106	2.415	1	generate	Run1	generate/STIM_007.jpg
177.641	1.763	1	generate	Run1	generate/STIM_007.jpg
181.647	2.399	1	generate	Run1	generate/STIM_007.jpg
187.952	1.259	1	generate	Run1	generate/STIM_007.jpg
192.581	2.026	0	generate	Run1	generate/STIM_007.jpg
197.844	1.813	1	generate	Run1	generate/STIM_008.jpg
202.281	2.272	1	generate	Run1	generate/STIM_008.jpg
207.097	2.063	1	generate	Run1	generate/STIM_008.jpg
211.591	2.102	1	generate	Run1	generate/STIM_008.jpg
215.734	1.366	1	generate	Run1	generate/STIM_008.jpg
220.941	2.017	1	generate	Run1	generate/STIM_009.jpg
225.782	1.67	1	generate	Run1	generate/STIM_009.jpg
230.299	2.217	1	generate	Run1	generate/STIM_009.jpg
236.47	1.722	1	generate	Run1	generate/STIM_009.jpg
241.415	0.984	1	generate	Run1	generate/STIM_009.jpg
246.121	2.51	1	generate	Run1	generate/STIM_010.jpg
251.679	1.157	1	generate	Run1	generate/STIM_010.jpg
256.704	1.453	0	generate	Run1	generate/STIM_010.jpg
261.022	1.432	1	generate	Run1	generate/STIM_010.jpg
264.535	1.145	1	generate	Run1	generate/STIM_010.jpg
268.267	1.616	1	generate	Run1	generate/STIM_011.jpg
273.496	1.783	0	generate	Run1	generate/STIM_011.jpg
278.87	2.47	0	generate	Run1	generate/STIM_011.jpg
284.99	2.401	1	generate	Run1	generate/STIM_011.jpg
289.6	1.508	1	generate	Run1	generate/STIM_011.jpg
293.525	2.274	1	generate	Run1	generate/STIM_012.jpg
299.228	1.779	1	generate	Run1	generate/STIM_012.jpg
304.183	1.538	0	generate	Run1	generate/STIM_012.jpg
308.324	1.336	1	generate	Run1	generate/STIM_012.jpg
313.338	1.49	1	generate	Run1	generate/STIM_012.jpg
317.809	1.801	0	generate	Run1	generate/STIM_013.jpg
322.291	1.637	1	generate	Run1	generate/STIM_013.jpg
326.278	1.146	1	generate	Run1	generate/STIM_013.jpg
329.647	1.014	1	generate	Run1	generate/STIM_013.jpg
334.57	1.123	1	generate	Run1	generate/STIM_013.jpg
338.923	1.742	1	generate	Run1	generate/STIM_014.jpg
344.111	2.658	1	generate	Run1	generate/STIM_014.jpg
348.984	1.112	1	generate	Run1	generate/STIM_014.jpg
353.43	1.64	0	generate	Run1	generate/STIM_014.jpg
357.87	2.023	1	generate	Run1	generate/STIM_014.jpg
363.404	2.705	1	generate	Run1	generate/STIM_015.jpg
368.475	1.42	1	generate	Run1	generate/STIM_015.jpg
372.064	2.399	1	generate	Run1	generate/STIM_015.jpg
377.006	0.983	1	generate	Run1	generate/STIM_015.jpg
381.646	2.295	1	generate	Run1	generate/STIM_015.jpg
385.984	1.806	1	generate	Run1	generate/STIM_016.jpg
391.77	1.161	1	generate	Run1	generate/STIM_016.jpg
395.073	2.349	1	generate	Run1	generate/STIM_016.jpg
400.419	1.37	1	generate	Run1	generate/STIM_016.jpg
405.176	2.204	1	generate	Run1	generate/STIM_016.jpg
410.855	1.812	1	generate	Run1	generate/STIM_017.jpg
416.52	2.169	1	generate	Run1	generate/STIM_017.jpg
422.123	1.91	0	generate	Run1	generate/STIM_017.jpg
427.135	1.275	1	generate	Run1	generate/STIM_017.jpg
432.229	1.657	1	generate	Run1	generate/STIM_017.jpg
437.812	2.257	1	generate	Run1	generate/STIM_018.jpg
442.88	1.997	1	generate	Run1	generate/STIM_018.jpg
448.508	2.436	1	generate	Run1	generate/STIM_018.jpg
453.598	1.878	1	generate	Run1	generate/STIM_018.jpg
459.346	2.182	1	generate	Run1	generate/STIM_018.jpg
464.824	2.115	1	generate	Run1	generate/STIM_019.jpg
470.922	1.666	1	generate	Run1	generate/STIM_019.jpg
475.707	1.17	1	generate	Run1	generate/STIM_019.jpg
478.882	1.24	1	generate	Run1	generate/STIM_019.jpg
482.403	0.973	1	generate	Run1	generate/STIM_019.jpg
485.889	1.315	1	generate	Run1	generate/STIM_020.jpg
490.181	1.79	1	generate	Run1	generate/STIM_020.jpg
494.612	2.104	0	generate	Run1	generate/STIM_020.jpg
499.301	1.178	1	generate	Run1	generate/STIM_020.jpg
504.034	1.493	1	generate	Run1	generate/STIM_020.jpg
509.019	1.4	1	generate	Run1	generate/STIM_021.jpg
514.173	1.771	1	generate	Run1	generate/STIM_021.jpg
518.93	1.172	0	generate	Run1	generate/STIM_021.jpg
522.196	1.038	1	generate	Run1	generate/STIM_021.jpg
525.535	1.127	1	generate	Run1	generate/STIM_021.jpg
529.871	2.643	1	generate	Run1	generate/STIM_022.jpg
535.907	2.13	0	generate	Run1	generate/STIM_022.jpg
541.479	2.015	1	generate	Run1	generate/STIM_022.jpg
546.989	1.165	1	generate	Run1	generate/STIM_022.jpg
551.903	1.174	1	generate	Run1	generate/STIM_022.jpg
556.86	1.37	0	generate	Run1	generate/STIM_023.jpg
561.531	1.458	1	generate	Run1	generate/STIM_023.jpg
566.934	1.631	1	generate	Run1	generate/STIM_023.jpg
571.191	1.111	1	generate	Run1	generate/STIM_023.jpg
576.054	1.22	0	generate	Run1	generate/STIM_023.jpg
579.94	2.721	0	generate	Run1	generate/STIM_024.jpg
586.04	2.177	0	generate	Run1	generate/STIM_024.jpg
590.988	1.59	0	generate	Run1	generate/STIM_024.jpg
595.305	1.418	1	generate	Run1	generate/STIM_024.jpg
599.655	1.082	1	generate	Run1	generate/STIM_024.jpg
603.753	0.59	1	repeat	Run1	repeat/STIM_000.jpg
606.537	0.605	1	repeat	Run1	repeat/STIM_000.jpg
609.994	0.829	1	repeat	Run1	repeat/STIM_000.jpg
613.67	0.601	1	repeat	Run1	repeat/STIM_000.jpg
616.996	0.838	1	repeat	Run1	repeat/STIM_000.jpg
621.481	0.95	1	repeat	Run1	repeat/STIM_001.jpg
626.006	0.898	1	repeat	Run1	repeat/STIM_001.jpg
629.626	0.732	1	repeat	Run1	repeat/STIM_001.jpg
632.512	0.834	1	repeat	Run1	repeat/STIM_001.jpg
636.119	0.951	1	repeat	Run1	repeat/STIM_001.jpg
639.137	0.849	1	repeat	Run1	repeat/STIM_002.jpg
642.328	0.483	1	repeat	Run1	repeat/STIM_002.jpg
646.749	0.593	1	repeat	Run1	repeat/STIM_002.jpg
650.618	0.742	1	repeat	Run1	repeat/STIM_002.jpg
653.56	0.685	1	repeat	Run1	repeat/STIM_002.jpg
656.437	0.589	1	repeat	Run1	repeat/STIM_003.jpg
660.931	0.524	1	repeat	Run1	repeat/STIM_003.jpg
665.181	0.743	1	repeat	Run1	repeat/STIM_003.jpg
669.507	0.869	1	repeat	Run1	repeat/STIM_003.jpg
673.772	0.493	1	repeat	Run1	repeat/STIM_003.jpg
678.157	0.832	1	repeat	Run1	repeat/STIM_004.jpg
682.62	0.747	1	repeat	Run1	repeat/STIM_004.jpg
686.867	0.51	1	repeat	Run1	repeat/STIM_004.jpg
690.905	0.506	1	repeat	Run1	repeat/STIM_004.jpg
693.512	0.575	1	repeat	Run1	repeat/STIM_004.jpg
696.141	0.899	1	repeat	Run1	repeat/STIM_005.jpg
699.408	0.748	1	repeat	Run1	repeat/STIM_005.jpg
702.963	0.673	1	repeat	Run1	repeat/STIM_005.jpg
706.407	0.852	1	repeat	Run1	repeat/STIM_005.jpg
709.435	0.512	1	repeat	Run1	repeat/STIM_005.jpg
713.553	0.652	1	repeat	Run1	repeat/STIM_006.jpg
717.436	0.754	1	repeat	Run1	repeat/STIM_006.jpg
721.192	0.941	1	repeat	Run1	repeat/STIM_006.jpg
724.814	0.732	1	repeat	Run1	repeat/STIM_006.jpg
729.021	0.651	1	repeat	Run1	repeat/STIM_006.jpg
732.427	0.916	1	repeat	Run1	repeat/STIM_007.jpg
735.959	0.671	1	repeat	Run1	repeat/STIM_007.jpg
740.544	0.762	1	repeat	Run1	repeat/STIM_007.jpg
744.042	0.698	1	repeat	Run1	repeat/STIM_007.jpg
747.577	0.832	1	repeat	Run1	repeat/STIM_007.jpg
750.893	0.852	1	repeat	Run1	repeat/STIM_008.jpg
754.297	0.774	1	repeat	Run1	repeat/STIM_008.jpg
758.727	0.553	1	repeat	Run1	repeat/STIM_008.jpg
762.906	0.848	1	repeat	Run1	repeat/STIM_008.jpg
766.479	0.826	1	repeat	Run1	repeat/STIM_008.jpg
770.905	0.87	1	repeat	Run1	repeat/STIM_009.jpg
774.698	0.69	1	repeat	Run1	repeat/STIM_009.jpg
777.848	0.712	1	repeat	Run1	repeat/STIM_009.jpg
782.423	0.575	1	repeat	Run1	repeat/STIM_009.jpg
786.381	0.802	1	repeat	Run1	repeat/STIM_009.jpg
790.525	0.697	1	repeat	Run1	repeat/STIM_010.jpg
793.704	0.664	1	repeat	Run1	repeat/STIM_010.jpg
798.351	0.937	1	repeat	Run1	repeat/STIM_010.jpg
802.153	0.665	1	repeat	Run1	repeat/STIM_010.jpg
806.137	0.658	1	repeat	Run1	repeat/STIM_010.jpg
809.103	0.884	1	repeat	Run1	repeat/STIM_011.jpg
812.747	0.896	1	repeat	Run1	repeat/STIM_011.jpg
817.195	0.848	1	repeat	Run1	repeat/STIM_011.jpg
821.214	0.641	0	repeat	Run1	repeat/STIM_011.jpg
823.935	0.605	1	repeat	Run1	repeat/STIM_011.jpg
828.074	0.658	1	repeat	Run1	repeat/STIM_012.jpg
830.834	0.83	1	repeat	Run1	repeat/STIM_012.jpg
834.468	0.818	1	repeat	Run1	repeat/STIM_012.jpg
838.266	0.632	1	repeat	Run1	repeat/STIM_012.jpg
841.827	0.586	1	repeat	Run1	repeat/STIM_012.jpg
844.538	0.947	1	repeat	Run1	repeat/STIM_013.jpg
848.076	0.497	1	repeat	Run1	repeat/STIM_013.jpg
852.572	0.718	1	repeat	Run1	repeat/STIM_013.jpg
856.602	0.659	1	repeat	Run1	repeat/STIM_013.jpg
860.691	0.831	1	repeat	Run1	repeat/STIM_013.jpg
865.081	0.484	1	repeat	Run1	repeat/STIM_014.jpg
869.246	0.742	1	repeat	Run1	repeat/STIM_014.jpg
873.674	0.547	1	repeat	Run1	repeat/STIM_014.jpg
877.587	0.566	1	repeat	Run1	repeat/STIM_014.jpg
881.919	0.739	1	repeat	Run1	repeat/STIM_014.jpg
886.576	2.315	1	generate	Run2	generate/STIM_000.jpg
891.224	1.572	1	generate	Run2	generate/STIM_000.jpg
895.455	1.753	1	generate	Run2	generate/STIM_000.jpg
901.058	1.383	1	generate	Run2	generate/STIM_000.jpg
905.198	1.217	1	generate	Run2	generate/STIM_000.jpg
908.846	1.518	1	generate	Run2	generate/STIM_001.jpg
913.049	2.189	1	generate	Run2	generate/STIM_001.jpg
918.809	1.069	1	generate	Run2	generate/STIM_001.jpg
923.684	0.815	0	generate	Run2	generate/STIM_001.jpg
928.139	1.901	1	generate	Run2	generate/STIM_001.jpg
932.969	2.43	1	generate	Run2	generate/STIM_002.jpg
938.213	1.254	1	generate	Run2	generate/STIM_002.jpg
943.4	1.186	0	generate	Run2	generate/STIM_002.jpg
947.651	1.322	1	generate	Run2	generate/STIM_002.jpg
952.779	1.179	1	generate	Run2	generate/STIM_002.jpg
957.875	1.3	1	generate	Run2	generate/STIM_003.jpg
962.739	2.025	1	generate	Run2	generate/STIM_003.jpg
968.421	1.367	1	generate	Run2	generate/STIM_003.jpg
972.325	1.38	1	generate	Run2	generate/STIM_003.jpg
976.311	1.996	1	generate	Run2	generate/STIM_003.jpg
981.004	2.405	1	generate	Run2	generate/STIM_004.jpg
985.784	1.969	0	generate	Run2	generate/STIM_004.jpg
991.338	1.062	0	generate	Run2	generate/STIM_004.jpg
995.443	1.953	0	generate	Run2	generate/STIM_004.jpg
1001.334	1.202	1	generate	Run2	generate/STIM_004.jpg
1004.911	2.412	1	generate	Run2	generate/STIM_005.jpg
1009.54	2.148	1	generate	Run2	generate/STIM_005.jpg
1015.055	0.954	1	generate	Run2	generate/STIM_005.jpg
1018.449	1.306	1	generate	Run2	generate/STIM_005.jpg
1023.65	0.961	1	generate	Run2	generate/STIM_005.jpg
1028.022	1.424	1	generate	Run2	generate/STIM_006.jpg
1032.827	1.758	1	generate	Run2	generate/STIM_006.jpg
1036.833	1.648	0	generate	Run2	generate/STIM_006.jpg
1040.836	1.851	1	generate	Run2	generate/STIM_006.jpg
1045.269	1.379	1	generate	Run2	generate/STIM_006.jpg
1050.506	2.252	0	generate	Run2	generate/STIM_007.jpg
1055.876	1.95	1	generate	Run2	generate/STIM_007.jpg
1061.315	1.932	1	generate	Run2	generate/STIM_007.jpg
1065.591	1.177	1	generate	Run2	generate/STIM_007.jpg
1070.628	0.885	1	generate	Run2	generate/STIM_007.jpg
1074.573	1.134	1	generate	Run2	generate/STIM_008.jpg
1078.263	1.519	1	generate	Run2	generate/STIM_008.jpg
1081.973	0.884	1	generate	Run2	generate/STIM_008.jpg
1084.879	0.923	0	generate	Run2	generate/STIM_008.jpg
1089.021	1.337	1	generate	Run2	generate/STIM_008.jpg
1093.745	1.734	1	generate	Run2	generate/STIM_009.jpg
1098.302	2.229	1	generate	Run2	generate/STIM_009.jpg
1103.157	1.178	1	generate	Run2	generate/STIM_009.jpg
1107.926	1.512	1	generate	Run2	generate/STIM_009.jpg
1111.792	0.994	1	generate	Run2	generate/STIM_009.jpg
1116.362	1.383	1	generate	Run2	generate/STIM_010.jpg
1121.329	2.124	0	generate	Run2	generate/STIM_010.jpg
1125.973	1.341	1	generate	Run2	generate/STIM_010.jpg
1129.451	1.826	1	generate	Run2	generate/STIM_010.jpg
1134.041	1.123	1	generate	Run2	generate/STIM_010.jpg
1138.568	1.82	1	generate	Run2	generate/STIM_011.jpg
1143.894	1.374	1	generate	Run2	generate/STIM_011.jpg
1148.408	0.994	1	generate	Run2	generate/STIM_011.jpg
1153.039	1.003	0	generate	Run2	generate/STIM_011.jpg
1156.613	0.856	1	generate	Run2	generate/STIM_011.jpg
1160.997	2.333	1	generate	Run2	generate/STIM_012.jpg
1165.424	1.082	1	generate	Run2	generate/STIM_012.jpg
1168.531	1.061	0	generate	Run2	generate/STIM_012.jpg
1172.762	2.007	1	generate	Run2	generate/STIM_012.jpg
1177.325	1.933	1	generate	Run2	generate/STIM_012.jpg
1182.483	2.026	1	generate	Run2	generate/STIM_013.jpg
1187.795	2.148	1	generate	Run2	generate/STIM_013.jpg
1192.798	0.884	1	generate	Run2	generate/STIM_013.jpg
1196.888	1.798	1	generate	Run2	generate/STIM_013.jpg
1201.061	1.764	1	generate	Run2	generate/STIM_013.jpg
1205.703	2.36	1	generate	Run2	generate/STIM_014.jpg
1211.165	1.872	1	generate	Run2	generate/STIM_014.jpg
1215.985	1.132	1	generate	Run2	generate/STIM_014.jpg
1219.573	1.546	1	generate	Run2	generate/STIM_014.jpg
1224.267	1.229	1	generate	Run2	generate/STIM_014.jpg
1229.403	2.195	1	generate	Run2	generate/STIM_015.jpg
1234.567	1.238	1	generate	Run2	generate/STIM_015.jpg
1239.477	1.835	1	generate	Run2	generate/STIM_015.jpg
1244.072	1.061	1	generate	Run2	generate/STIM_015.jpg
1247.885	1.276	1	generate	Run2	generate/STIM_015.jpg
1252.511	2.157	1	generate	Run2	generate/STIM_016.jpg
1257.092	1.493	1	generate	Run2	generate/STIM_016.jpg
1261.782	1.127	1	generate	Run2	generate/STIM_016.jpg
1265.217	1.623	1	generate	Run2	generate/STIM_016.jpg
1269.014	0.815	1	generate	Run2	generate/STIM_016.jpg
1273.304	1.505	1	generate	Run2	generate/STIM_017.jpg
1278.497	1.797	1	generate	Run2	generate/STIM_017.jpg
1283.867	1.063	1	generate	Run2	generate/STIM_017.jpg
1288.403	1.001	1	generate	Run2	generate/STIM_017.jpg
1291.985	1.709	1	generate	Run2	generate/STIM_017.jpg
1295.772	1.468	1	generate	Run2	generate/STIM_018.jpg
1300.227	2.042	1	generate	Run2	generate/STIM_018.jpg
1306.061	1.616	1	generate	Run2	generate/STIM_018.jpg
1309.845	1.498	1	generate	Run2	generate/STIM_018.jpg
1314.646	1.298	1	generate	Run2	generate/STIM_018.jpg
1319.313	2.383	1	generate	Run2	generate/STIM_019.jpg
1324.674	2.058	1	generate	Run2	generate/STIM_019.jpg
1330.029	1.221	1	generate	Run2	generate/STIM_019.jpg
1333.701	1.004	1	generate	Run2	generate/STIM_019.jpg
1336.88	1.287	1	generate	Run2	generate/STIM_019.jpg
1341.608	1.184	1	generate	Run2	generate/STIM_020.jpg
1345.206	2.005	1	generate	Run2	generate/STIM_020.jpg
1350.164	1.18	1	generate	Run2	generate/STIM_020.jpg
1354.315	1.723	1	generate	Run2	generate/STIM_020.jpg
1358.983	1.852	1	generate	Run2	generate/STIM_020.jpg
1364.152	1.228	1	generate	Run2	generate/STIM_021.jpg
1368.691	1.673	1	generate	Run2	generate/STIM_021.jpg
1373.973	2.065	1	generate	Run2	generate/STIM_021.jpg
1378.773	1.005	1	generate	Run2	generate/STIM_021.jpg
1381.896	1.598	1	generate	Run2	generate/STIM_021.jpg
1387.441	2.238	1	generate	Run2	generate/STIM_022.jpg
1392.576	1.786	0	generate	Run2	generate/STIM_022.jpg
1396.397	1.421	1	generate	Run2	generate/STIM_022.jpg
1399.908	0.902	1	generate	Run2	generate/STIM_022.jpg
1403.501	1.471	1	generate	Run2	generate/STIM_022.jpg
1407.431	1.929	1	generate	Run2	generate/STIM_023.jpg
1412.541	1.86	0	generate	Run2	generate/STIM_023.jpg
1417.978	0.917	1	generate	Run2	generate/STIM_023.jpg
1422.323	0.898	1	generate	Run2	generate/STIM_023.jpg
1426.956	1.713	1	generate	Run2	generate/STIM_023.jpg
1430.807	1.622	0	generate	Run2	generate/STIM_024.jpg
1434.564	1.716	1	generate	Run2	generate/STIM_024.jpg
1439.694	2.017	1	generate	Run2	generate/STIM_024.jpg
1444.165	1.708	1	generate	Run2	generate/STIM_024.jpg
1448.081	1.995	0	generate	Run2	generate/STIM_024.jpg
1452.705	0.754	1	repeat	Run2	repeat/STIM_000.jpg
1456.44	0.788	1	repeat	Run2	repeat/STIM_000.jpg
1459.45	0.825	1	repeat	Run2	repeat/STIM_000.jpg
1463.196	0.919	1	repeat	Run2	repeat/STIM_000.jpg
1467.317	0.84	1	repeat	Run2	repeat/STIM_000.jpg
1471.773	0.554	1	repeat	Run2	repeat/STIM_001.jpg
1474.426	0.744	1	repeat	Run2	repeat/STIM_001.jpg
1477.709	0.609	1	repeat	Run2	repeat/STIM_001.jpg
1480.488	0.611	1	repeat	Run2	repeat/STIM_001.jpg
1483.299	0.774	1	repeat	Run2	repeat/STIM_001.jpg
1486.842	0.852	1	repeat	Run2	repeat/STIM_002.jpg
1491.094	0.58	1	repeat	Run2	repeat/STIM_002.jpg
1495.078	0.893	1	repeat	Run2	repeat/STIM_002.jpg
1499.696	0.798	1	repeat	Run2	repeat/STIM_002.jpg
1504.255	0.704	1	repeat	Run2	repeat/STIM_002.jpg
1507.379	0.608	1	repeat	Run2	repeat/STIM_003.jpg
1510.252	0.864	1	repeat	Run2	repeat/STIM_003.jpg
1513.845	0.553	1	repeat	Run2	repeat/STIM_003.jpg
1518.009	0.649	1	repeat	Run2	repeat/STIM_003.jpg
1522.441	0.534	1	repeat	Run2	repeat/STIM_003.jpg
1525.458	0.794	1	repeat	Run2	repeat/STIM_004.jpg
1529.217	0.526	1	repeat	Run2	repeat/STIM_004.jpg
1533.449	0.7	1	repeat	Run2	repeat/STIM_004.jpg
1536.809	0.767	1	repeat	Run2	repeat/STIM_004.jpg
1541.339	0.934	1	repeat	Run2	repeat/STIM_004.jpg
1545.185	0.537	1	repeat	Run2	repeat/STIM_005.jpg
1548.876	0.753	1	repeat	Run2	repeat/STIM_005.jpg
1552.111	0.516	1	repeat	Run2	repeat/STIM_005.jpg
1555.934	0.615	1	repeat	Run2	repeat/STIM_005.jpg
1560.127	0.608	1	repeat	Run2	repeat/STIM_005.jpg
1562.81	0.704	1	repeat	Run2	repeat/STIM_006.jpg
1567.036	0.734	0	repeat	Run2	repeat/STIM_006.jpg
1570.492	0.791	1	repeat	Run2	repeat/STIM_006.jpg
1573.797	0.648	1	repeat	Run2	repeat/STIM_006.jpg
1578.014	0.638	1	repeat	Run2	repeat/STIM_006.jpg
1581.758	0.8	1	repeat	Run2	repeat/STIM_007.jpg
1585.091	0.676	1	repeat	Run2	repeat/STIM_007.jpg
1587.891	0.636	1	repeat	Run2	repeat/STIM_007.jpg
1591.241	0.687	0	repeat	Run2	repeat/STIM_007.jpg
1595.883	0.891	1	repeat	Run2	repeat/STIM_007.jpg
1599.783	0.775	1	repeat	Run2	repeat/STIM_008.jpg
1602.798	0.788	1	repeat	Run2	repeat/STIM_008.jpg
1606.878	0.889	1	repeat	Run2	repeat/STIM_008.jpg
1609.964	0.76	1	repeat	Run2	repeat/STIM_008.jpg
1613.188	0.671	1	repeat	Run2	repeat/STIM_008.jpg
1616.786	0.634	1	repeat	Run2	repeat/STIM_009.jpg
1620.206	0.818	1	repeat	Run2	repeat/STIM_009.jpg
1624.561	0.667	1	repeat	Run2	repeat/STIM_009.jpg
1627.656	0.842	1	repeat	Run2	repeat/STIM_009.jpg
1632.291	0.671	1	repeat	Run2	repeat/STIM_009.jpg
1635.886	0.771	1	repeat	Run2	repeat/STIM_010.jpg
1639.805	0.562	0	repeat	Run2	repeat/STIM_010.jpg
1643.471	0.96	1	repeat	Run2	repeat/STIM_010.jpg
1647.109	0.659	1	repeat	Run2	repeat/STIM_010.jpg
1651.078	0.916	1	repeat	Run2	repeat/STIM_010.jpg
1655.49	0.687	1	repeat	Run2	repeat/STIM_011.jpg
1658.647	0.544	1	repeat	Run2	repeat/STIM_011.jpg
1661.697	0.716	1	repeat	Run2	repeat/STIM_011.jpg
1665.728	0.74	1	repeat	Run2	repeat/STIM_011.jpg
1669.879	0.501	1	repeat	Run2	repeat/STIM_011.jpg
1672.584	0.696	1	repeat	Run2	repeat/STIM_012.jpg
1675.817	0.905	1	repeat	Run2	repeat/STIM_012.jpg
1679.19	0.876	1	repeat	Run2	repeat/STIM_012.jpg
1683.718	0.629	1	repeat	Run2	repeat/STIM_012.jpg
1686.739	0.936	1	repeat	Run2	repeat/STIM_012.jpg
1690.446	0.791	1	repeat	Run2	repeat/STIM_013.jpg
1693.324	0.706	1	repeat	Run2	repeat/STIM_013.jpg
1697.676	0.504	1	repeat	Run2	repeat/STIM_013.jpg
1701.605	0.802	1	repeat	Run2	repeat/STIM_013.jpg
1704.851	0.75	1	repeat	Run2	repeat/STIM_013.jpg
1709.299	0.656	1	repeat	Run2	repeat/STIM_014.jpg
1712.104	0.642	1	repeat	Run2	repeat/STIM_014.jpg
1716.69	0.609	1	repeat	Run2	repeat/STIM_014.jpg
1720.967	0.784	1	repeat	Run2	repeat/STIM_014.jpg
1723.885	0.525	1	repeat	Run2	repeat/STIM_014.jpg
1727.847	1.316	1	generate	Run3	generate/STIM_000.jpg
1732.071	1.769	1	generate	Run3	generate/STIM_000.jpg
1736.247	1.086	1	generate	Run3	generate/STIM_000.jpg
1740.417	1.329	1	generate	Run3	generate/STIM_000.jpg
1743.84	2.018	1	generate	Run3	generate/STIM_000.jpg
1749.558	1.088	1	generate	Run3	generate/STIM_001.jpg
1752.688	1.195	1	generate	Run3	generate/STIM_001.jpg
1756.801	1.811	1	generate	Run3	generate/STIM_001.jpg
1760.818	1.69	1	generate	Run3	generate/STIM_001.jpg
1766.209	1.154	1	generate	Run3	generate/STIM_001.jpg
1769.518	1.944	1	generate	Run3	generate/STIM_002.jpg
1773.93	0.81	1	generate	Run3	generate/STIM_002.jpg
1778.4	1.32	1	generate	Run3	generate/STIM_002.jpg
1783.093	1.644	1	generate	Run3	generate/STIM_002.jpg
1786.897	1.167	1	generate	Run3	generate/STIM_002.jpg
1791.069	1.414	1	generate	Run3	generate/STIM_003.jpg
1795.912	1.202	1	generate	Run3	generate/STIM_003.jpg
1800.542	1.546	1	generate	Run3	generate/STIM_003.jpg
1805.204	1.249	1	generate	Run3	generate/STIM_003.jpg
1808.822	1.663	1	generate	Run3	generate/STIM_003.jpg
1812.956	0.871	1	generate	Run3	generate/STIM_004.jpg
1816.468	1.263	1	generate	Run3	generate/STIM_004.jpg
1821.687	1.791	1	generate	Run3	generate/STIM_004.jpg
1826.553	1.493	1	generate	Run3	generate/STIM_004.jpg
1831.594	1.856	0	generate	Run3	generate/STIM_004.jpg
1837.182	1.522	1	generate	Run3	generate/STIM_005.jpg
1841.736	1.29	1	generate	Run3	generate/STIM_005.jpg
1846.929	1.87	1	generate	Run3	generate/STIM_005.jpg
1851.138	1.315	0	generate	Run3	generate/STIM_005.jpg
1854.706	1.214	1	generate	Run3	generate/STIM_005.jpg
1858.84	1.392	1	generate	Run3	generate/STIM_006.jpg
1863.565	1.155	1	generate	Run3	generate/STIM_006.jpg
1868.535	0.95	1	generate	Run3	generate/STIM_006.jpg
1872.478	1.729	1	generate	Run3	generate/STIM_006.jpg
1877.464	0.899	1	generate	Run3	generate/STIM_006.jpg
1881.219	0.836	1	generate	Run3	generate/STIM_007.jpg
1884.476	2.01	1	generate	Run3	generate/STIM_007.jpg
1889.888	1.408	1	generate	Run3	generate/STIM_007.jpg
1894.752	1.488	1	generate	Run3	generate/STIM_007.jpg
1899.322	0.905	1	generate	Run3	generate/STIM_007.jpg
1903.455	1.74	1	generate	Run3	generate/STIM_008.jpg
1908.409	1.628	1	generate	Run3	generate/STIM_008.jpg
1912.701	1.631	1	generate	Run3	generate/STIM_008.jpg
1917.577	1.562	1	generate	Run3	generate/STIM_008.jpg
1921.544	1.874	1	generate	Run3	generate/STIM_008.jpg
1926.774	1.518	1	generate	Run3	generate/STIM_009.jpg
1932.001	1.765	1	generate	Run3	generate/STIM_009.jpg
1936.538	1.286	1	generate	Run3	generate/STIM_009.jpg
1941.263	1.754	1	generate	Run3	generate/STIM_009.jpg
1945.823	1.986	1	generate	Run3	generate/STIM_009.jpg
1950.269	1.359	1	generate	Run3	generate/STIM_010.jpg
1953.827	1.964	1	generate	Run3	generate/STIM_010.jpg
1957.964	1.114	1	generate	Run3	generate/STIM_010.jpg
1962.857	0.968	1	generate	Run3	generate/STIM_010.jpg
1967.681	1.274	1	generate	Run3	generate/STIM_010.jpg
1971.596	1.918	1	generate	Run3	generate/STIM_011.jpg
1977.24	1.097	1	generate	Run3	generate/STIM_011.jpg
1981.23	1.82	1	generate	Run3	generate/STIM_011.jpg
1986.163	1.862	1	generate	Run3	generate/STIM_011.jpg
1991.248	1.966	1	generate	Run3	generate/STIM_011.jpg
1996.958	1.54	1	generate	Run3	generate/STIM_012.jpg
2001.61	1.878	1	generate	Run3	generate/STIM_012.jpg
2006.265	1.175	1	generate	Run3	generate/STIM_012.jpg
2010.778	1.795	1	generate	Run3	generate/STIM_012.jpg
2016.308	1.789	1	generate	Run3	generate/STIM_012.jpg
2020.11	1.578	1	generate	Run3	generate/STIM_013.jpg
2024.216	1.964	1	generate	Run3	generate/STIM_013.jpg
2028.983	1.803	1	generate	Run3	generate/STIM_013.jpg
2034.435	1.546	1	generate	Run3	generate/STIM_013.jpg
2038.284	1.69	1	generate	Run3	generate/STIM_013.jpg
2042.583	1.266	1	generate	Run3	generate/STIM_014.jpg
2047.289	1.995	1	generate	Run3	generate/STIM_014.jpg
2051.298	1.279	1	generate	Run3	generate/STIM_014.jpg
2055.75	1.684	1	generate	Run3	generate/STIM_014.jpg
2059.791	0.855	1	generate	Run3	generate/STIM_014.jpg
2063.654	0.888	1	generate	Run3	generate/STIM_015.jpg
2067.416	1.285	1	generate	Run3	generate/STIM_015.jpg
2071.536	1.146	1	generate	Run3	generate/STIM_015.jpg
2075.424	0.901	1	generate	Run3	generate/STIM_015.jpg
2079.246	1.047	1	generate	Run3	generate/STIM_015.jpg
2083.36	1.292	1	generate	Run3	generate/STIM_016.jpg
2088.059	1.622	1	generate	Run3	generate/STIM_016.jpg
2092.788	0.974	1	generate	Run3	generate/STIM_016.jpg
2096.759	1.039	1	generate	Run3	generate/STIM_016.jpg
2100.079	1.856	1	generate	Run3	generate/STIM_016.jpg
2104.334	1.822	1	generate	Run3	generate/STIM_017.jpg
2108.846	0.883	1	generate	Run3	generate/STIM_017.jpg
2112.181	1.355	1	generate	Run3	generate/STIM_017.jpg
2117.091	1.4	1	generate	Run3	generate/STIM_017.jpg
2120.94	0.866	1	generate	Run3	generate/STIM_017.jpg
2124.868	1.512	1	generate	Run3	generate/STIM_018.jpg
2129.509	0.998	1	generate	Run3	generate/STIM_018.jpg
2132.861	1.804	1	generate	Run3	generate/STIM_018.jpg
2136.974	1.307	1	generate	Run3	generate/STIM_018.jpg
2141.386	1.7	0	generate	Run3	generate/STIM_018.jpg
2145.39	1.841	0	generate	Run3	generate/STIM_019.jpg
2149.504	1.318	1	generate	Run3	generate/STIM_019.jpg
2153.151	1.519	1	generate	Run3	generate/STIM_019.jpg
2157.565	1.752	1	generate	Run3	generate/STIM_019.jpg
2162.986	1.973	1	generate	Run3	generate/STIM_019.jpg
2168.726	1.813	1	generate	Run3	generate/STIM_020.jpg
2173.229	1.229	1	generate	Run3	generate/STIM_020.jpg
2176.816	1.846	1	generate	Run3	generate/STIM_020.jpg
2182.273	1.661	1	generate	Run3	generate/STIM_020.jpg
2186.074	1.267	1	generate	Run3	generate/STIM_020.jpg
2190.092	1.031	1	generate	Run3	generate/STIM_021.jpg
2194.776	1.841	1	generate	Run3	generate/STIM_021.jpg
2199.242	1.403	1	generate	Run3	generate/STIM_021.jpg
2204.031	1.982	1	generate	Run3	generate/STIM_021.jpg
2208.053	1.301	1	generate	Run3	generate/STIM_021.jpg
2213.164	1.854	1	generate	Run3	generate/STIM_022.jpg
2218.566	1.575	1	generate	Run3	generate/STIM_022.jpg
2223.166	1.152	1	generate	Run3	generate/STIM_022.jpg
2227.353	1.126	1	generate	Run3	generate/STIM_022.jpg
2232.037	1.184	1	generate	Run3	generate/STIM_022.jpg
2236.618	1.517	1	generate	Run3	generate/STIM_023.jpg
2241.316	1.518	1	generate	Run3	generate/STIM_023.jpg
2245.168	1.246	1	generate	Run3	generate/STIM_023.jpg
2248.986	1.464	1	generate	Run3	generate/STIM_023.jpg
2253.776	1.386	1	generate	Run3	generate/STIM_023.jpg
2259.095	1.614	1	generate	Run3	generate/STIM_024.jpg
2263.476	1.375	1	generate	Run3	generate/STIM_024.jpg
2268.334	1.992	1	generate	Run3	generate/STIM_024.jpg
2273.623	1.074	1	generate	Run3	generate/STIM_024.jpg
2276.816	1.869	1	generate	Run3	generate/STIM_024.jpg
2282.138	0.707	1	repeat	Run3	repeat/STIM_000.jpg
2286.651	0.91	1	repeat	Run3	repeat/STIM_000.jpg
2291.055	0.534	1	repeat	Run3	repeat/STIM_000.jpg
2295.085	0.727	1	repeat	Run3	repeat/STIM_000.jpg
2299.141	0.514	1	repeat	Run3	repeat/STIM_000.jpg
2301.731	0.67	1	repeat	Run3	repeat/STIM_001.jpg
2304.652	0.507	1	repeat	Run3	repeat/STIM_001.jpg
2307.526	0.652	1	repeat	Run3	repeat/STIM_001.jpg
2310.771	0.703	1	repeat	Run3	repeat/STIM_001.jpg
2314.699	0.58	1	repeat	Run3	repeat/STIM_001.jpg
2317.787	0.931	1	repeat	Run3	repeat/STIM_002.jpg
2321.363	0.833	1	repeat	Run3	repeat/STIM_002.jpg
2326.047	0.518	1	repeat	Run3	repeat/STIM_002.jpg
2330.25	0.875	1	repeat	Run3	repeat/STIM_002.jpg
2334.924	0.796	1	repeat	Run3	repeat/STIM_002.jpg
2338.453	0.848	1	repeat	Run3	repeat/STIM_003.jpg
2341.75	0.881	1	repeat	Run3	repeat/STIM_003.jpg
2346.009	0.489	1	repeat	Run3	repeat/STIM_003.jpg
2348.766	0.683	1	repeat	Run3	repeat/STIM_003.jpg
2352.413	0.877	1	repeat	Run3	repeat/STIM_003.jpg
2357.267	0.931	1	repeat	Run3	repeat/STIM_004.jpg
2361.114	0.873	1	repeat	Run3	repeat/STIM_004.jpg
2365.019	0.607	1	repeat	Run3	repeat/STIM_004.jpg
2369.579	0.667	1	repeat	Run3	repeat/STIM_004.jpg
2373.268	0.839	1	repeat	Run3	repeat/STIM_004.jpg
2376.569	0.71	1	repeat	Run3	repeat/STIM_005.jpg
2380.672	0.877	1	repeat	Run3	repeat/STIM_005.jpg
2385.458	0.675	1	repeat	Run3	repeat/STIM_005.jpg
2389.969	0.657	1	repeat	Run3	repeat/STIM_005.jpg
2393.757	0.81	1	repeat	Run3	repeat/STIM_005.jpg
2397.505	0.68	1	repeat	Run3	repeat/STIM_006.jpg
2400.564	0.842	1	repeat	Run3	repeat/STIM_006.jpg
2404.541	0.894	1	repeat	Run3	repeat/STIM_006.jpg
2408.132	0.64	1	repeat	Run3	repeat/STIM_006.jpg
2411.888	0.619	1	repeat	Run3	repeat/STIM_006.jpg
2415.196	0.582	1	repeat	Run3	repeat/STIM_007.jpg
2418.63	0.714	1	repeat	Run3	repeat/STIM_007.jpg
2422.719	0.543	1	repeat	Run3	repeat/STIM_007.jpg
2427.128	0.739	1	repeat	Run3	repeat/STIM_007.jpg
2431.295	0.76	1	repeat	Run3	repeat/STIM_007.jpg
2435.092	0.583	1	repeat	Run3	repeat/STIM_008.jpg
2438.669	0.81	1	repeat	Run3	repeat/STIM_008.jpg
2442.47	0.858	1	repeat	Run3	repeat/STIM_008.jpg
2446.106	0.757	1	repeat	Run3	repeat/STIM_008.jpg
2450.532	0.716	1	repeat	Run3	repeat/STIM_008.jpg
2453.701	0.484	1	repeat	Run3	repeat/STIM_009.jpg
2457.961	0.589	1	repeat	Run3	repeat/STIM_009.jpg
2461.587	0.482	0	repeat	Run3	repeat/STIM_009.jpg
2464.664	0.822	1	repeat	Run3	repeat/STIM_009.jpg
2469.163	0.956	1	repeat	Run3	repeat/STIM_009.jpg
2473.708	0.698	1	repeat	Run3	repeat/STIM_010.jpg
2476.475	0.557	1	repeat	Run3	repeat/STIM_010.jpg
2479.788	0.746	1	repeat	Run3	repeat/STIM_010.jpg
2483.241	0.596	0	repeat	Run3	repeat/STIM_010.jpg
2487.266	0.57	1	repeat	Run3	repeat/STIM_010.jpg
2491.67	0.663	1	repeat	Run3	repeat/STIM_011.jpg
2495.586	0.546	1	repeat	Run3	repeat/STIM_011.jpg
2498.44	0.79	1	repeat	Run3	repeat/STIM_011.jpg
2501.231	0.649	1	repeat	Run3	repeat/STIM_011.jpg
2504.734	0.706	1	repeat	Run3	repeat/STIM_011.jpg
2508.487	0.652	1	repeat	Run3	repeat/STIM_012.jpg
2512.197	0.905	1	repeat	Run3	repeat/STIM_012.jpg
2515.484	0.777	1	repeat	Run3	repeat/STIM_012.jpg
2519.533	0.85	1	repeat	Run3	repeat/STIM_012.jpg
2523.296	0.72	1	repeat	Run3	repeat/STIM_012.jpg
2526.553	0.527	1	repeat	Run3	repeat/STIM_013.jpg
2529.908	0.6	1	repeat	Run3	repeat/STIM_013.jpg
2533.661	0.781	1	repeat	Run3	repeat/STIM_013.jpg
2537.52	0.891	1	repeat	Run3	repeat/STIM_013.jpg
2541.5	0.776	1	repeat	Run3	repeat/STIM_013.jpg
2544.501	0.814	1	repeat	Run3	repeat/STIM_014.jpg
2548.451	0.722	1	repeat	Run3	repeat/STIM_014.jpg
2551.383	0.696	1	repeat	Run3	repeat/STIM_014.jpg
2555.986	0.61	1	repeat	Run3	repeat/STIM_014.jpg
2560.569	0.657	1	repeat	Run3	repeat/STIM_014.jpg
2564.604	1.874	1	generate	Run4	generate/STIM_000.jpg
2569.398	1.783	1	generate	Run4	generate/STIM_000.jpg
2574.798	1.539	1	generate	Run4	generate/STIM_000.jpg
2578.377	1.174	1	generate	Run4	generate/STIM_000.jpg
2582.83	1.656	1	generate	Run4	generate/STIM_000.jpg
2587.272	1.572	1	generate	Run4	generate/STIM_001.jpg
2591.971	0.872	1	generate	Run4	generate/STIM_001.jpg
2596.348	1.18	1	generate	Run4	generate/STIM_001.jpg
2600.735	1.624	1	generate	Run4	generate/STIM_001.jpg
2605.255	1.858	1	generate	Run4	generate/STIM_001.jpg
2610.102	1.854	1	generate	Run4	generate/STIM_002.jpg
2614.558	1.094	1	generate	Run4	generate/STIM_002.jpg
2619.136	1.819	1	generate	Run4	generate/STIM_002.jpg
2623.952	1.919	1	generate	Run4	generate/STIM_002.jpg
2628.447	1.105	1	generate	Run4	generate/STIM_002.jpg
2632.512	0.927	1	generate	Run4	generate/STIM_003.jpg
2635.848	1.936	1	generate	Run4	generate/STIM_003.jpg
2641.038	1.066	1	generate	Run4	generate/STIM_003.jpg
2644.564	1.932	1	generate	Run4	generate/STIM_003.jpg
2649.178	0.876	1	generate	Run4	generate/STIM_003.jpg
2653.788	0.864	1	generate	Run4	generate/STIM_004.jpg
2657.743	1.05	1	generate	Run4	generate/STIM_004.jpg
2660.884	0.915	1	generate	Run4	generate/STIM_004.jpg
2665.45	1.789	1	generate	Run4	generate/STIM_004.jpg
2670.718	1.21	1	generate	Run4	generate/STIM_004.jpg
2674.573	1.043	1	generate	Run4	generate/STIM_005.jpg
2677.783	2.008	1	generate	Run4	generate/STIM_005.jpg
2682.778	1.036	1	generate	Run4	generate/STIM_005.jpg
2686.565	0.81	1	generate	Run4	generate/STIM_005.jpg
2691.008	1.798	1	generate	Run4	generate/STIM_005.jpg
2694.923	1.384	1	generate	Run4	generate/STIM_006.jpg
2699.58	1.13	1	generate	Run4	generate/STIM_006.jpg
2704.687	1.029	0	generate	Run4	generate/STIM_006.jpg
2708.959	1.623	0	generate	Run4	generate/STIM_006.jpg
2714.339	1.014	1	generate	Run4	generate/STIM_006.jpg
2718.156	1.748	1	generate	Run4	generate/STIM_007.jpg
2722.624	1.161	1	generate	Run4	generate/STIM_007.jpg
2727.229	1.498	1	generate	Run4	generate/STIM_007.jpg
2732.647	1.392	1	generate	Run4	generate/STIM_007.jpg
2737.474	1.137	1	generate	Run4	generate/STIM_007.jpg
2741.025	1.478	1	generate	Run4	generate/STIM_008.jpg
2745.571	1.908	1	generate	Run4	generate/STIM_008.jpg
2750.013	1.702	1	generate	Run4	generate/STIM_008.jpg
2754.285	1.514	1	generate	Run4	generate/STIM_008.jpg
2759.165	0.949	1	generate	Run4	generate/STIM_008.jpg
2762.198	1.788	1	generate	Run4	generate/STIM_009.jpg
2766.556	1.36	1	generate	Run4	generate/STIM_009.jpg
2770.277	1.41	1	generate	Run4	generate/STIM_009.jpg
2775.551	1.817	1	generate	Run4	generate/STIM_009.jpg
2780.011	1.492	1	generate	Run4	generate/STIM_009.jpg
2783.605	1.254	1	generate	Run4	generate/STIM_010.jpg
2787.255	1.883	1	generate	Run4	generate/STIM_010.jpg
2792.26	0.928	1	generate	Run4	generate/STIM_010.jpg
2795.271	1.208	1	generate	Run4	generate/STIM_010.jpg
2798.688	0.984	1	generate	Run4	generate/STIM_010.jpg
2803.622	1.531	1	generate	Run4	generate/STIM_011.jpg
2807.671	1.624	1	generate	Run4	generate/STIM_011.jpg
2811.821	1.076	1	generate	Run4	generate/STIM_011.jpg
2816.629	1.314	1	generate	Run4	generate/STIM_011.jpg
2821.616	1.326	1	generate	Run4	generate/STIM_011.jpg
2825.471	1.172	1	generate	Run4	generate/STIM_012.jpg
2829.071	1.82	1	generate	Run4	generate/STIM_012.jpg
2833.344	1.684	1	generate	Run4	generate/STIM_012.jpg
2837.084	1.356	1	generate	Run4	generate/STIM_012.jpg
2841.306	1.568	1	generate	Run4	generate/STIM_012.jpg
2845.681	1.087	1	generate	Run4	generate/STIM_013.jpg
2849.044	1.46	1	generate	Run4	generate/STIM_013.jpg
2854.171	1.669	1	generate	Run4	generate/STIM_013.jpg
2859.194	0.821	1	generate	Run4	generate/STIM_013.jpg
2863.901	1.688	1	generate	Run4	generate/STIM_013.jpg
2867.657	1.858	1	generate	Run4	generate/STIM_014.jpg
2873.509	1.532	1	generate	Run4	generate/STIM_014.jpg
2877.506	1.287	1	generate	Run4	generate/STIM_014.jpg
2882.619	1.936	1	generate	Run4	generate/STIM_014.jpg
2887.184	0.834	1	generate	Run4	generate/STIM_014.jpg
2890.702	1.027	1	generate	Run4	generate/STIM_015.jpg
2895.482	1.204	1	generate	Run4	generate/STIM_015.jpg
2899.566	1.992	1	generate	Run4	generate/STIM_015.jpg
2905.054	1.527	0	generate	Run4	generate/STIM_015.jpg
2909.072	1.644	1	generate	Run4	generate/STIM_015.jpg
2912.799	1.753	1	generate	Run4	generate/STIM_016.jpg
2916.797	0.961	1	generate	Run4	generate/STIM_016.jpg
2921.401	1.774	1	generate	Run4	generate/STIM_016.jpg
2925.388	1.607	1	generate	Run4	generate/STIM_016.jpg
2929.281	1.87	1	generate	Run4	generate/STIM_016.jpg
2933.934	1.77	1	generate	Run4	generate/STIM_017.jpg
2939.428	1.125	1	generate	Run4	generate/STIM_017.jpg
2943.388	1.052	1	generate	Run4	generate/STIM_017.jpg
2946.871	1.17	1	generate	Run4	generate/STIM_017.jpg
2951.857	1.154	1	generate	Run4	generate/STIM_017.jpg
2955.898	0.994	1	generate	Run4	generate/STIM_018.jpg
2960.014	1.137	1	generate	Run4	generate/STIM_018.jpg
2964.075	1.308	1	generate	Run4	generate/STIM_018.jpg
2968.939	0.819	1	generate	Run4	generate/STIM_018.jpg
2972.746	1.511	1	generate	Run4	generate/STIM_018.jpg
2977.355	1.277	1	generate	Run4	generate/STIM_019.jpg
2980.873	1.828	1	generate	Run4	generate/STIM_019.jpg
2985.128	1.971	1	generate	Run4	generate/STIM_019.jpg
2990.981	1.116	1	generate	Run4	generate/STIM_019.jpg
2995.595	1.085	1	generate	Run4	generate/STIM_019.jpg
3000.668	1.763	1	generate	Run4	generate/STIM_020.jpg
3005.131	1.753	1	generate	Run4	generate/STIM_020.jpg
3009.04	1.417	1	generate	Run4	generate/STIM_020.jpg
3013.88	0.905	1	generate	Run4	generate/STIM_020.jpg
3016.914	1.153	1	generate	Run4	generate/STIM_020.jpg
3020.588	0.842	1	generate	Run4	generate/STIM_021.jpg
3024.913	1.202	1	generate	Run4	generate/STIM_021.jpg
3028.716	0.887	1	generate	Run4	generate/STIM_021.jpg
3032.634	1.983	0	generate	Run4	generate/STIM_021.jpg
3038.07	0.941	1	generate	Run4	generate/STIM_021.jpg
3042.828	1.76	1	generate	Run4	generate/STIM_022.jpg
3046.657	1.764	1	generate	Run4	generate/STIM_022.jpg
3052.385	1.477	1	generate	Run4	generate/STIM_022.jpg
3057.366	1.146	1	generate	Run4	generate/STIM_022.jpg
3061.332	1.172	1	generate	Run4	generate/STIM_022.jpg
3066.326	0.957	1	generate	Run4	generate/STIM_023.jpg
3069.381	1.327	1	generate	Run4	generate/STIM_023.jpg
3074.283	0.922	1	generate	Run4	generate/STIM_023.jpg
3078.627	1.221	1	generate	Run4	generate/STIM_023.jpg
3082.493	1.074	1	generate	Run4	generate/STIM_023.jpg
3087.212	1.961	1	generate	Run4	generate/STIM_024.jpg
3092.12	1.191	1	generate	Run4	generate/STIM_024.jpg
3095.509	1.231	1	generate	Run4	generate/STIM_024.jpg
3099.808	0.949	1	generate	Run4	generate/STIM_024.jpg
3104.002	1.262	1	generate	Run4	generate/STIM_024.jpg
3108.283	0.581	1	repeat	Run4	repeat/STIM_000.jpg
3111.807	0.657	1	repeat	Run4	repeat/STIM_000.jpg
3115.931	0.616	1	repeat	Run4	repeat/STIM_000.jpg
3119.104	0.636	1	repeat	Run4	repeat/STIM_000.jpg
3122.746	0.772	1	repeat	Run4	repeat/STIM_000.jpg
3126.392	0.808	1	repeat	Run4	repeat/STIM_001.jpg
3130.338	0.508	1	repeat	Run4	repeat/STIM_001.jpg
3133.652	0.888	1	repeat	Run4	repeat/STIM_001.jpg
3137.725	0.54	1	repeat	Run4	repeat/STIM_001.jpg
3140.909	0.603	1	repeat	Run4	repeat/STIM_001.jpg
3144.278	0.879	1	repeat	Run4	repeat/STIM_002.jpg
3148.693	0.809	1	repeat	Run4	repeat/STIM_002.jpg
3152.445	0.949	1	repeat	Run4	repeat/STIM_002.jpg
3156.703	0.84	1	repeat	Run4	repeat/STIM_002.jpg
3160.535	0.548	1	repeat	Run4	repeat/STIM_002.jpg
3164.237	0.56	1	repeat	Run4	repeat/STIM_003.jpg
3166.948	0.917	1	repeat	Run4	repeat/STIM_003.jpg
3171.811	0.757	1	repeat	Run4	repeat/STIM_003.jpg
3175.703	0.927	1	repeat	Run4	repeat/STIM_003.jpg
3180.591	0.946	1	repeat	Run4	repeat/STIM_003.jpg
3184.594	0.843	1	repeat	Run4	repeat/STIM_004.jpg
3189.099	0.779	1	repeat	Run4	repeat/STIM_004.jpg
3193.835	0.556	1	repeat	Run4	repeat/STIM_004.jpg
3196.898	0.869	1	repeat	Run4	repeat/STIM_004.jpg
3200.686	0.887	1	repeat	Run4	repeat/STIM_004.jpg
3205.338	0.674	1	repeat	Run4	repeat/STIM_005.jpg
3210.004	0.488	1	repeat	Run4	repeat/STIM_005.jpg
3213.181	0.78	1	repeat	Run4	repeat/STIM_005.jpg
3216.356	0.876	1	repeat	Run4	repeat/STIM_005.jpg
3219.996	0.874	1	repeat	Run4	repeat/STIM_005.jpg
3224.302	0.512	1	repeat	Run4	repeat/STIM_006.jpg
3228.484	0.614	1	repeat	Run4	repeat/STIM_006.jpg
3232.913	0.617	1	repeat	Run4	repeat/STIM_006.jpg
3235.688	0.663	1	repeat	Run4	repeat/STIM_006.jpg
3240.031	0.486	1	repeat	Run4	repeat/STIM_006.jpg
3243.113	0.778	1	repeat	Run4	repeat/STIM_007.jpg
3246.757	0.864	1	repeat	Run4	repeat/STIM_007.jpg
3250.8	0.683	1	repeat	Run4	repeat/STIM_007.jpg
3254.237	0.619	1	repeat	Run4	repeat/STIM_007.jpg
3257.41	0.957	1	repeat	Run4	repeat/STIM_007.jpg
3260.452	0.542	1	repeat	Run4	repeat/STIM_008.jpg
3263.345	0.671	1	repeat	Run4	repeat/STIM_008.jpg
3266.157	0.776	1	repeat	Run4	repeat/STIM_008.jpg
3269.267	0.758	1	repeat	Run4	repeat/STIM_008.jpg
3273.965	0.961	1	repeat	Run4	repeat/STIM_008.jpg
3277.427	0.779	1	repeat	Run4	repeat/STIM_009.jpg
3280.851	0.76	1	repeat	Run4	repeat/STIM_009.jpg
3284.494	0.627	1	repeat	Run4	repeat/STIM_009.jpg
3287.342	0.646	1	repeat	Run4	repeat/STIM_009.jpg
3291.332	0.545	1	repeat	Run4	repeat/STIM_009.jpg
3294.687	0.87	1	repeat	Run4	repeat/STIM_010.jpg
3298.889	0.667	1	repeat	Run4	repeat/STIM_010.jpg
3303.006	0.663	1	repeat	Run4	repeat/STIM_010.jpg
3306.835	0.951	0	repeat	Run4	repeat/STIM_010.jpg
3309.823	0.732	1	repeat	Run4	repeat/STIM_010.jpg
3314.49	0.827	1	repeat	Run4	repeat/STIM_011.jpg
3318.506	0.554	1	repeat	Run4	repeat/STIM_011.jpg
3321.724	0.924	1	repeat	Run4	repeat/STIM_011.jpg
3324.723	0.636	1	repeat	Run4	repeat/STIM_011.jpg
3328.6	0.862	1	repeat	Run4	repeat/STIM_011.jpg
3332.706	0.605	1	repeat	Run4	repeat/STIM_012.jpg
3337.185	0.839	1	repeat	Run4	repeat/STIM_012.jpg
3340.956	0.873	1	repeat	Run4	repeat/STIM_012.jpg
3344.055	0.528	1	repeat	Run4	repeat/STIM_012.jpg
3347.593	0.773	1	repeat	Run4	repeat/STIM_012.jpg
3350.676	0.616	1	repeat	Run4	repeat/STIM_013.jpg
3354.579	0.744	1	repeat	Run4	repeat/STIM_013.jpg
3358.29	0.756	1	repeat	Run4	repeat/STIM_013.jpg
3361.409	0.887	1	repeat	Run4	repeat/STIM_013.jpg
3365.128	0.959	1	repeat	Run4	repeat/STIM_013.jpg
3368.846	0.64	1	repeat	Run4	repeat/STIM_014.jpg
3372.767	0.837	1	repeat	Run4	repeat/STIM_014.jpg
3376.741	0.83	1	repeat	Run4	repeat/STIM_014.jpg
3381.455	0.753	1	repeat	Run4	repeat/STIM_014.jpg
3386.145	0.837	1	repeat	Run4	repeat/STIM_014.jpg
