onset	duration	response_time_ms	trial_type	learning_stage	stimulus	response_port
0.0	2.034	2034.1	regulate	Run1	regulate/STIM_000.jpg	99
5.16	2.156	2155.6	regulate	Run1	regulate/STIM_000.jpg	100
10.782	2.927	2926.6	regulate	Run1	regulate/STIM_000.jpg	100
17.153	1.674	1674.2	regulate	Run1	regulate/STIM_000.jpg	99
22.173	2.141	2140.7	regulate	Run1	regulate/STIM_001.jpg	99
26.633	2.936	2936.4	regulate	Run1	regulate/STIM_001.jpg	99
32.999	2.61	2610.1	regulate	Run1	regulate/STIM_001.jpg	99
37.788	2.7	2699.7	regulate	Run1	regulate/STIM_001.jpg	100
42.781	2.142	2141.6	regulate	Run1	regulate/STIM_002.jpg	99
48.818	1.738	1738.0	regulate	Run1	regulate/STIM_002.jpg	99
54.215	2.827	2826.7	regulate	Run1	regulate/STIM_002.jpg	100
59.629	2.241	2241.4	regulate	Run1	regulate/STIM_002.jpg	99
64.741	3.31	3309.5	regulate	Run1	regulate/STIM_003.jpg	100
71.183	2.82	2819.7	regulate	Run1	regulate/STIM_003.jpg	100
77.293	2.632	2632.1	regulate	Run1	regulate/STIM_003.jpg	99
83.446	3.166	3166.4	regulate	Run1	regulate/STIM_003.jpg	100
90.582	3.275	3275.0	regulate	Run1	regulate/STIM_004.jpg	99
96.777	2.411	2410.6	regulate	Run1	regulate/STIM_004.jpg	99
103.009	2.778	2777.7	regulate	Run1	regulate/STIM_004.jpg	99
108.943	2.813	2813.1	regulate	Run1	regulate/STIM_004.jpg	100
115.342	3.522	3521.8	regulate	Run1	regulate/STIM_005.jpg	100
121.673	3.478	3478.2	regulate	Run1	regulate/STIM_005.jpg	99
128.98	2.763	2762.6	regulate	Run1	regulate/STIM_005.jpg	100
134.548	2.853	2852.9	regulate	Run1	regulate/STIM_005.jpg	99
139.86	2.202	2202.3	regulate	Run1	regulate/STIM_006.jpg	100
145.932	2.482	2482.1	regulate	Run1	regulate/STIM_006.jpg	99
151.34	3.128	3128.4	regulate	Run1	regulate/STIM_006.jpg	99
158.407	2.11	2109.5	regulate	Run1	regulate/STIM_006.jpg	100
162.556	3.055	3054.9	regulate	Run1	regulate/STIM_007.jpg	99
167.915	2.296	2296.2	regulate	Run1	regulate/STIM_007.jpg	100
173.534	1.801	1800.9	regulate	Run1	regulate/STIM_007.jpg	99
178.274	2.024	2023.9	regulate	Run1	regulate/STIM_007.jpg	100
182.627	2.437	2437.2	regulate	Run1	regulate/STIM_008.jpg	100
188.417	3.198	3197.6	regulate	Run1	regulate/STIM_008.jpg	100
194.901	2.999	2999.3	regulate	Run1	regulate/STIM_008.jpg	100
200.791	2.914	2914.0	regulate	Run1	regulate/STIM_008.jpg	100
206.126	2.836	2836.5	regulate	Run1	regulate/STIM_009.jpg	100
212.141	2.832	2832.4	regulate	Run1	regulate/STIM_009.jpg	100
217.485	1.78	1779.9	regulate	Run1	regulate/STIM_009.jpg	100
222.614	2.44	2440.2	regulate	Run1	regulate/STIM_009.jpg	99
228.215	3.558	3558.0	regulate	Run1	regulate/STIM_010.jpg	100
234.732	3.03	3029.8	regulate	Run1	regulate/STIM_010.jpg	100
239.875	3.128	3128.1	regulate	Run1	regulate/STIM_010.jpg	99
245.58	1.516	1516.2	regulate	Run1	regulate/STIM_010.jpg	99
249.737	2.026	2025.6	regulate	Run1	regulate/STIM_011.jpg	99
253.97	3.079	3078.8	regulate	Run1	regulate/STIM_011.jpg	99
259.15	1.912	1912.1	regulate	Run1	regulate/STIM_011.jpg	99
263.82	1.753	1753.4	regulate	Run1	regulate/STIM_011.jpg	99
267.69	2.569	2568.7	regulate	Run1	regulate/STIM_012.jpg	99
272.656	2.834	2833.6	regulate	Run1	regulate/STIM_012.jpg	100
279.301	1.761	1761.0	regulate	Run1	regulate/STIM_012.jpg	99
284.847	3.063	3062.7	regulate	Run1	regulate/STIM_012.jpg	99
291.502	2.905	2904.9	regulate	Run1	regulate/STIM_013.jpg	100
296.443	2.149	2148.6	regulate	Run1	regulate/STIM_013.jpg	100
301.538	2.323	2322.8	regulate	Run1	regulate/STIM_013.jpg	99
307.645	1.958	1958.5	regulate	Run1	regulate/STIM_013.jpg	100
312.122	2.256	2256.5	regulate	Run1	regulate/STIM_014.jpg	100
317.273	3.111	3111.4	regulate	Run1	regulate/STIM_014.jpg	99
324.219	3.298	3297.6	regulate	Run1	regulate/STIM_014.jpg	99
329.628	2.207	2206.9	regulate	Run1	regulate/STIM_014.jpg	100
335.831	3.042	3042.4	regulate	Run1	regulate/STIM_015.jpg	99
341.697	1.796	1795.6	regulate	Run1	regulate/STIM_015.jpg	99
347.064	3.35	3349.8	regulate	Run1	regulate/STIM_015.jpg	99
352.691	1.514	1513.8	regulate	Run1	regulate/STIM_015.jpg	99
357.974	2.468	2467.5	regulate	Run1	regulate/STIM_016.jpg	99
363.855	1.564	1564.2	regulate	Run1	regulate/STIM_016.jpg	100
368.731	2.397	2396.7	regulate	Run1	regulate/STIM_016.jpg	99
373.162	3.012	3011.7	regulate	Run1	regulate/STIM_016.jpg	99
378.849	2.687	2686.6	regulate	Run1	regulate/STIM_017.jpg	100
384.472	3.334	3333.8	regulate	Run1	regulate/STIM_017.jpg	99
390.735	3.318	3317.6	regulate	Run1	regulate/STIM_017.jpg	99
397.428	3.131	3130.9	regulate	Run1	regulate/STIM_017.jpg	99
402.698	3.416	3416.5	regulate	Run1	regulate/STIM_018.jpg	99
409.677	3.274	3274.1	regulate	Run1	regulate/STIM_018.jpg	100
416.58	3.343	3342.8	regulate	Run1	regulate/STIM_018.jpg	99
423.767	2.577	2576.6	regulate	Run1	regulate/STIM_018.jpg	100
428.783	1.599	1599.1	regulate	Run1	regulate/STIM_019.jpg	99
432.505	2.66	2660.3	regulate	Run1	regulate/STIM_019.jpg	99
437.627	2.415	2415.0	regulate	Run1	regulate/STIM_019.jpg	100
442.708	3.057	3056.6	regulate	Run1	regulate/STIM_019.jpg	100
448.745	2.941	2941.3	regulate	Run1	regulate/STIM_020.jpg	99
453.948	3.11	3109.6	regulate	Run1	regulate/STIM_020.jpg	99
460.5	2.087	2086.7	regulate	Run1	regulate/STIM_020.jpg	99
466.272	2.99	2989.6	regulate	Run1	regulate/STIM_020.jpg	99
471.751	3.24	3240.4	regulate	Run1	regulate/STIM_021.jpg	99
477.389	2.128	2128.4	regulate	Run1	regulate/STIM_021.jpg	100
481.943	3.289	3289.4	regulate	Run1	regulate/STIM_021.jpg	100
487.356	2.779	2778.7	regulate	Run1	regulate/STIM_021.jpg	99
492.993	1.607	1606.7	regulate	Run1	regulate/STIM_022.jpg	100
497.799	1.848	1848.3	regulate	Run1	regulate/STIM_022.jpg	99
502.971	2.835	2835.3	regulate	Run1	regulate/STIM_022.jpg	100
509.196	2.882	2881.5	regulate	Run1	regulate/STIM_022.jpg	99
514.981	3.163	3162.7	regulate	Run1	regulate/STIM_023.jpg	99
521.905	1.99	1989.8	regulate	Run1	regulate/STIM_023.jpg	100
526.703	2.314	2314.3	regulate	Run1	regulate/STIM_023.jpg	100
531.144	2.423	2422.7	regulate	Run1	regulate/STIM_023.jpg	100
536.822	3.446	3445.6	regulate	Run1	regulate/STIM_024.jpg	100
542.333	2.95	2949.7	regulate	Run1	regulate/STIM_024.jpg	99
547.659	2.869	2868.9	regulate	Run1	regulate/STIM_024.jpg	100
553.964	3.038	3037.5	regulate	Run1	regulate/STIM_024.jpg	100
559.414	1.734	1733.7	regulate	Run1	regulate/STIM_025.jpg	99
563.479	3.498	3498.3	regulate	Run1	regulate/STIM_025.jpg	99
570.735	3.267	3266.9	regulate	Run1	regulate/STIM_025.jpg	100
577.233	1.38	1379.8	regulate	Run1	regulate/STIM_025.jpg	99
580.694	2.918	2918.1	regulate	Run1	regulate/STIM_026.jpg	99
585.9	2.536	2536.4	regulate	Run1	regulate/STIM_026.jpg	99
592.134	2.862	2861.6	regulate	Run1	regulate/STIM_026.jpg	99
598.137	1.771	1771.0	regulate	Run1	regulate/STIM_026.jpg	100
603.012	3.061	3061.2	regulate	Run1	regulate/STIM_027.jpg	100
609.279	1.817	1817.3	regulate	Run1	regulate/STIM_027.jpg	100
614.011	2.259	2258.9	regulate	Run1	regulate/STIM_027.jpg	100
619.81	1.995	1995.1	regulate	Run1	regulate/STIM_027.jpg	100
625.442	2.282	2281.8	regulate	Run1	regulate/STIM_028.jpg	99
631.07	2.853	2853.4	regulate	Run1	regulate/STIM_028.jpg	99
636.025	3.046	3046.5	regulate	Run1	regulate/STIM_028.jpg	100
641.875	1.382	1381.9	regulate	Run1	regulate/STIM_028.jpg	99
646.625	3.644	3644.4	regulate	Run1	regulate/STIM_029.jpg	100
653.611	2.432	2432.2	regulate	Run1	regulate/STIM_029.jpg	99
659.282	2.633	2633.2	regulate	Run1	regulate/STIM_029.jpg	100
665.117	1.692	1691.7	regulate	Run1	regulate/STIM_029.jpg	99
669.879	0.92	919.7	observe	Run1	observe/STIM_000.jpg	100
673.151	1.579	1578.9	observe	Run1	observe/STIM_000.jpg	100
678.259	1.53	1529.8	observe	Run1	observe/STIM_000.jpg	100
681.958	1.399	1398.8	observe	Run1	observe/STIM_000.jpg	99
686.87	1.402	1401.5	observe	Run1	observe/STIM_001.jpg	99
691.406	1.316	1316.4	observe	Run1	observe/STIM_001.jpg	99
695.21	1.298	1298.5	observe	Run1	observe/STIM_001.jpg	99
700.439	1.528	1527.8	observe	Run1	observe/STIM_001.jpg	100
705.014	1.394	1393.7	observe	Run1	observe/STIM_002.jpg	99
708.966	1.687	1687.1	observe	Run1	observe/STIM_002.jpg	100
714.434	1.279	1279.4	observe	Run1	observe/STIM_002.jpg	100
719.531	1.67	1670.1	observe	Run1	observe/STIM_002.jpg	99
725.043	1.633	1632.6	observe	Run1	observe/STIM_003.jpg	100
730.429	1.446	1446.2	observe	Run1	observe/STIM_003.jpg	100
734.609	1.688	1688.4	observe	Run1	observe/STIM_003.jpg	99
739.122	1.195	1194.6	observe	Run1	observe/STIM_003.jpg	99
742.844	0.905	904.6	observe	Run1	observe/STIM_004.jpg	99
747.412	1.66	1659.8	observe	Run1	observe/STIM_004.jpg	99
752.829	1.061	1061.0	observe	Run1	observe/STIM_004.jpg	99
756.986	1.55	1549.8	observe	Run1	observe/STIM_004.jpg	99
762.51	1.627	1627.2	observe	Run1	observe/STIM_005.jpg	100
767.386	1.006	1006.3	observe	Run1	observe/STIM_005.jpg	100
772.278	1.667	1667.2	observe	Run1	observe/STIM_005.jpg	100
777.73	1.203	1203.1	observe	Run1	observe/STIM_005.jpg	100
782.251	1.282	1281.9	observe	Run1	observe/STIM_006.jpg	100
787.221	0.92	920.5	observe	Run1	observe/STIM_006.jpg	100
791.881	1.65	1650.0	observe	Run1	observe/STIM_006.jpg	100
795.953	1.302	1302.1	observe	Run1	observe/STIM_006.jpg	100
800.383	1.001	1001.0	observe	Run1	observe/STIM_007.jpg	99
803.415	1.432	1431.5	observe	Run1	observe/STIM_007.jpg	100
808.348	1.195	1194.7	observe	Run1	observe/STIM_007.jpg	100
812.881	1.387	1387.2	observe	Run1	observe/STIM_007.jpg	100
816.515	1.595	1594.7	observe	Run1	observe/STIM_008.jpg	100
821.274	1.358	1358.1	observe	Run1	observe/STIM_008.jpg	100
824.637	1.557	1557.2	observe	Run1	observe/STIM_008.jpg	99
829.839	0.856	855.5	observe	Run1	observe/STIM_008.jpg	99
834.132	1.354	1353.6	observe	Run1	observe/STIM_009.jpg	100
837.623	1.353	1352.8	observe	Run1	observe/STIM_009.jpg	100
842.731	1.653	1652.9	observe	Run1	observe/STIM_009.jpg	99
847.748	1.21	1210.4	observe	Run1	observe/STIM_009.jpg	99
851.148	1.382	1382.5	observe	Run1	observe/STIM_010.jpg	100
854.538	1.207	1207.3	observe	Run1	observe/STIM_010.jpg	100
858.461	1.244	1244.5	observe	Run1	observe/STIM_010.jpg	99
863.144	1.073	1072.6	observe	Run1	observe/STIM_010.jpg	100
866.917	1.689	1688.8	observe	Run1	observe/STIM_011.jpg	99
872.003	1.02	1019.5	observe	Run1	observe/STIM_011.jpg	100
875.135	1.25	1250.3	observe	Run1	observe/STIM_011.jpg	99
878.897	1.609	1608.8	observe	Run1	observe/STIM_011.jpg	99
883.741	1.454	1454.4	observe	Run1	observe/STIM_012.jpg	100
888.681	1.023	1023.2	observe	Run1	observe/STIM_012.jpg	99
892.885	1.153	1153.4	observe	Run1	observe/STIM_012.jpg	99
896.857	1.249	1249.2	observe	Run1	observe/STIM_012.jpg	100
900.16	1.013	1013.1	observe	Run1	observe/STIM_013.jpg	100
904.267	1.699	1698.9	observe	Run1	observe/STIM_013.jpg	99
909.189	1.125	1124.6	observe	Run1	observe/STIM_013.jpg	99
914.287	1.417	1417.0	observe	Run1	observe/STIM_013.jpg	99
919.002	0.984	984.5	observe	Run1	observe/STIM_014.jpg	99
922.492	1.613	1612.8	observe	Run1	observe/STIM_014.jpg	99
926.662	1.083	1083.0	observe	Run1	observe/STIM_014.jpg	99
930.914	1.432	1432.5	observe	Run1	observe/STIM_014.jpg	99
934.44	1.663	1662.7	observe	Run1	observe/STIM_015.jpg	100
939.4	1.285	1284.8	observe	Run1	observe/STIM_015.jpg	99
942.781	0.987	986.8	observe	Run1	observe/STIM_015.jpg	99
946.329	1.533	1533.4	observe	Run1	observe/STIM_015.jpg	99
951.218	1.09	1090.0	observe	Run1	observe/STIM_016.jpg	100
955.869	1.078	1077.9	observe	Run1	observe/STIM_016.jpg	100
959.428	0.861	860.6	observe	Run1	observe/STIM_016.jpg	100
963.303	1.355	1354.9	observe	Run1	observe/STIM_016.jpg	100
967.066	1.043	1042.7	observe	Run1	observe/STIM_017.jpg	100
970.422	0.94	939.6	observe	Run1	observe/STIM_017.jpg	99
973.977	1.242	1241.9	observe	Run1	observe/STIM_017.jpg	100
977.274	1.641	1640.6	observe	Run1	observe/STIM_017.jpg	100
982.897	1.352	1351.9	observe	Run1	observe/STIM_018.jpg	99
986.767	1.654	1653.9	observe	Run1	observe/STIM_018.jpg	99
991.171	1.612	1612.4	observe	Run1	observe/STIM_018.jpg	99
995.443	0.887	886.7	observe	Run1	observe/STIM_018.jpg	100
998.468	1.051	1050.7	observe	Run1	observe/STIM_019.jpg	100
1001.642	0.869	869.4	observe	Run1	observe/STIM_019.jpg	99
1004.841	1.073	1073.0	observe	Run1	observe/STIM_019.jpg	100
1009.503	1.593	1593.3	observe	Run1	observe/STIM_019.jpg	100
1013.715	2.112	2112.3	regulate	Run2	regulate/STIM_000.jpg	99
1019.827	2.035	2035.2	regulate	Run2	regulate/STIM_000.jpg	100
1024.301	2.615	2614.7	regulate	Run2	regulate/STIM_000.jpg	99
1030.048	1.632	1631.9	regulate	Run2	regulate/STIM_000.jpg	100
1034.721	1.738	1737.5	regulate	Run2	regulate/STIM_001.jpg	100
1039.607	1.946	1945.7	regulate	Run2	regulate/STIM_001.jpg	99
1045.035	1.221	1220.9	regulate	Run2	regulate/STIM_001.jpg	100
1048.994	1.922	1922.2	regulate	Run2	regulate/STIM_001.jpg	100
1053.022	2.376	2376.1	regulate	Run2	regulate/STIM_002.jpg	99
1058.075	1.772	1772.4	regulate	Run2	regulate/STIM_002.jpg	99
1062.463	1.403	1402.7	regulate	Run2	regulate/STIM_002.jpg	99
1067.093	1.61	1609.7	regulate	Run2	regulate/STIM_002.jpg	100
1072.624	2.894	2894.0	regulate	Run2	regulate/STIM_003.jpg	100
1077.854	1.754	1754.1	regulate	Run2	regulate/STIM_003.jpg	99
1081.913	1.646	1646.5	regulate	Run2	regulate/STIM_003.jpg	99
1086.045	1.917	1916.7	regulate	Run2	regulate/STIM_003.jpg	99
1091.245	1.664	1663.6	regulate	Run2	regulate/STIM_004.jpg	100
1095.328	1.313	1313.2	regulate	Run2	regulate/STIM_004.jpg	99
1098.933	2.537	2537.1	regulate	Run2	regulate/STIM_004.jpg	100
1103.795	2.571	2571.1	regulate	Run2	regulate/STIM_004.jpg	99
1110.306	2.14	2140.3	regulate	Run2	regulate/STIM_005.jpg	100
1114.8	1.304	1304.2	regulate	Run2	regulate/STIM_005.jpg	99
1118.367	1.318	1317.8	regulate	Run2	regulate/STIM_005.jpg	99
1122.641	2.324	2323.8	regulate	Run2	regulate/STIM_005.jpg	99
1128.844	2.786	2785.9	regulate	Run2	regulate/STIM_006.jpg	99
1134.872	2.773	2773.1	regulate	Run2	regulate/STIM_006.jpg	99
1141.02	2.119	2119.0	regulate	Run2	regulate/STIM_006.jpg	99
1146.512	1.454	1454.4	regulate	Run2	regulate/STIM_006.jpg	99
1150.355	2.444	2443.8	regulate	Run2	regulate/STIM_007.jpg	99
1155.851	2.797	2797.2	regulate	Run2	regulate/STIM_007.jpg	100
1160.791	1.316	1315.5	regulate	Run2	regulate/STIM_007.jpg	100
1164.677	1.851	1850.9	regulate	Run2	regulate/STIM_007.jpg	99
1169.293	2.276	2276.1	regulate	Run2	regulate/STIM_008.jpg	100
1174.764	2.865	2865.2	regulate	Run2	regulate/STIM_008.jpg	100
1181.399	1.399	1399.2	regulate	Run2	regulate/STIM_008.jpg	100
1185.148	1.92	1920.2	regulate	Run2	regulate/STIM_008.jpg	100
1190.424	2.502	2501.5	regulate	Run2	regulate/STIM_009.jpg	100
1196.258	2.34	2340.1	regulate	Run2	regulate/STIM_009.jpg	99
1200.641	2.593	2592.9	regulate	Run2	regulate/STIM_009.jpg	99
1205.559	2.372	2372.0	regulate	Run2	regulate/STIM_009.jpg	99
1209.942	1.842	1842.1	regulate	Run2	regulate/STIM_010.jpg	100
1215.277	1.982	1982.2	regulate	Run2	regulate/STIM_010.jpg	99
1219.854	1.789	1788.8	regulate	Run2	regulate/STIM_010.jpg	100
1224.756	1.633	1632.9	regulate	Run2	regulate/STIM_010.jpg	99
1230.291	1.528	1527.9	regulate	Run2	regulate/STIM_011.jpg	100
1235.203	2.884	2883.8	regulate	Run2	regulate/STIM_011.jpg	99
1240.713	1.676	1676.0	regulate	Run2	regulate/STIM_011.jpg	100
1246.19	1.174	1173.8	regulate	Run2	regulate/STIM_011.jpg	100
1249.655	3.101	3101.1	regulate	Run2	regulate/STIM_012.jpg	99
1256.31	2.461	2461.4	regulate	Run2	regulate/STIM_012.jpg	100
1261.978	1.566	1566.1	regulate	Run2	regulate/STIM_012.jpg	99
1265.865	1.491	1491.3	regulate	Run2	regulate/STIM_012.jpg	99
1270.07	2.994	2994.1	regulate	Run2	regulate/STIM_013.jpg	99
1276.49	1.306	1305.7	regulate	Run2	regulate/STIM_013.jpg	100
1280.847	1.961	1960.9	regulate	Run2	regulate/STIM_013.jpg	100
1286.339	2.232	2231.5	regulate	Run2	regulate/STIM_013.jpg	99
1292.103	1.539	1538.7	regulate	Run2	regulate/STIM_014.jpg	99
1297.421	1.818	1818.1	regulate	Run2	regulate/STIM_014.jpg	99
1301.787	2.759	2758.6	regulate	Run2	regulate/STIM_014.jpg	99
1307.049	1.191	1190.7	regulate	Run2	regulate/STIM_014.jpg	100
1310.969	1.779	1778.8	regulate	Run2	regulate/STIM_015.jpg	99
1316.725	2.054	2053.9	regulate	Run2	regulate/STIM_015.jpg	99
1322.683	1.271	1271.0	regulate	Run2	regulate/STIM_015.jpg	99
1327.072	1.354	1354.3	regulate	Run2	regulate/STIM_015.jpg	100
1331.805	3.089	3089.2	regulate	Run2	regulate/STIM_016.jpg	100
1337.745	2.667	2667.0	regulate	Run2	regulate/STIM_016.jpg	99
1343.122	2.217	2216.9	regulate	Run2	regulate/STIM_016.jpg	100
1349.081	1.188	1187.5	regulate	Run2	regulate/STIM_016.jpg	100
1354.187	2.563	2563.4	regulate	Run2	regulate/STIM_017.jpg	99
1359.342	2.152	2152.5	regulate	Run2	regulate/STIM_017.jpg	99
1363.923	1.774	1773.7	regulate	Run2	regulate/STIM_017.jpg	99
1368.328	2.253	2252.7	regulate	Run2	regulate/STIM_017.jpg	99
1374.406	2.268	2268.3	regulate	Run2	regulate/STIM_018.jpg	100
1379.278	2.548	2548.2	regulate	Run2	regulate/STIM_018.jpg	100
1385.059	2.317	2317.3	regulate	Run2	regulate/STIM_018.jpg	99
1390.759	1.47	1469.9	regulate	Run2	regulate/STIM_018.jpg	99
1395.449	3.094	3094.4	regulate	Run2	regulate/STIM_019.jpg	99
1400.696	2.456	2456.1	regulate	Run2	regulate/STIM_019.jpg	99
1406.29	1.435	1435.3	regulate	Run2	regulate/STIM_019.jpg	99
1410.552	2.029	2029.2	regulate	Run2	regulate/STIM_019.jpg	100
1415.52	1.697	1696.7	regulate	Run2	regulate/STIM_020.jpg	100
1420.632	1.545	1545.1	regulate	Run2	regulate/STIM_020.jpg	99
1424.499	2.794	2794.2	regulate	Run2	regulate/STIM_020.jpg	99
1429.334	1.176	1176.3	regulate	Run2	regulate/STIM_020.jpg	99
1433.145	2.999	2998.9	regulate	Run2	regulate/STIM_021.jpg	100
1438.719	2.298	2297.6	regulate	Run2	regulate/STIM_021.jpg	100
1444.057	1.348	1348.0	regulate	Run2	regulate/STIM_021.jpg	100
1448.574	2.269	2268.7	regulate	Run2	regulate/STIM_021.jpg	99
1453.548	1.999	1998.9	regulate	Run2	regulate/STIM_022.jpg	100
1457.572	2.309	2309.1	regulate	Run2	regulate/STIM_022.jpg	100
1463.027	2.102	2101.6	regulate	Run2	regulate/STIM_022.jpg	100
1468.477	1.548	1548.1	regulate	Run2	regulate/STIM_022.jpg	100
1473.841	1.662	1662.3	regulate	Run2	regulate/STIM_023.jpg	100
1478.369	2.015	2015.4	regulate	Run2	regulate/STIM_023.jpg	100
1483.095	1.291	1291.3	regulate	Run2	regulate/STIM_023.jpg	99
1487.717	1.686	1686.2	regulate	Run2	regulate/STIM_023.jpg	100
1492.263	2.48	2479.7	regulate	Run2	regulate/STIM_024.jpg	99
1497.586	1.936	1936.2	regulate	Run2	regulate/STIM_024.jpg	100
1502.48	2.108	2107.5	regulate	Run2	regulate/STIM_024.jpg	99
1507.989	1.846	1845.7	regulate	Run2	regulate/STIM_024.jpg	99
1513.085	2.441	2441.3	regulate	Run2	regulate/STIM_025.jpg	99
1519.356	2.399	2399.0	regulate	Run2	regulate/STIM_025.jpg	99
1524.004	2.233	2233.0	regulate	Run2	regulate/STIM_025.jpg	99
1529.295	2.011	2010.8	regulate	Run2	regulate/STIM_025.jpg	99
1533.712	1.827	1827.2	regulate	Run2	regulate/STIM_026.jpg	100
1538.689	2.023	2022.6	regulate	Run2	regulate/STIM_026.jpg	99
1543.451	2.606	2605.5	regulate	Run2	regulate/STIM_026.jpg	100
1549.411	1.356	1356.5	regulate	Run2	regulate/STIM_026.jpg	99
1553.325	2.439	2438.9	regulate	Run2	regulate/STIM_027.jpg	100
1558.861	2.548	2547.8	regulate	Run2	regulate/STIM_027.jpg	100
1564.592	2.538	2538.4	regulate	Run2	regulate/STIM_027.jpg	99
1570.165	2.386	2385.9	regulate	Run2	regulate/STIM_027.jpg	99
1574.595	1.84	1839.7	regulate	Run2	regulate/STIM_028.jpg	99
1579.352	1.992	1992.3	regulate	Run2	regulate/STIM_028.jpg	99
1584.389	2.635	2635.4	regulate	Run2	regulate/STIM_028.jpg	100
1589.914	2.199	2198.7	regulate	Run2	regulate/STIM_028.jpg	99
1595.465	1.501	1500.7	regulate	Run2	regulate/STIM_029.jpg	100
1599.626	1.767	1767.0	regulate	Run2	regulate/STIM_029.jpg	100
1605.357	1.45	1449.8	regulate	Run2	regulate/STIM_029.jpg	100
1609.801	1.559	1559.2	regulate	Run2	regulate/STIM_029.jpg	99
1613.579	1.204	1204.0	observe	Run2	observe/STIM_000.jpg	100
1616.997	1.56	1560.5	observe	Run2	observe/STIM_000.jpg	99
1622.344	1.497	1497.3	observe	Run2	observe/STIM_000.jpg	100
1626.53	0.998	997.8	observe	Run2	observe/STIM_000.jpg	100
1630.818	1.446	1445.8	observe	Run2	observe/STIM_001.jpg	100
1634.406	1.633	1633.1	observe	Run2	observe/STIM_001.jpg	100
1638.977	1.057	1057.3	observe	Run2	observe/STIM_001.jpg	99
1642.448	0.965	965.3	observe	Run2	observe/STIM_001.jpg	99
1645.921	1.68	1679.5	observe	Run2	observe/STIM_002.jpg	99
1650.567	1.238	1238.4	observe	Run2	observe/STIM_002.jpg	99
1655.617	1.705	1704.6	observe	Run2	observe/STIM_002.jpg	99
1660.331	1.117	1116.7	observe	Run2	observe/STIM_002.jpg	100
1664.272	1.553	1552.7	observe	Run2	observe/STIM_003.jpg	99
1668.463	1.196	1196.3	observe	Run2	observe/STIM_003.jpg	99
1672.041	0.911	911.4	observe	Run2	observe/STIM_003.jpg	99
1676.59	1.527	1526.8	observe	Run2	observe/STIM_003.jpg	99
1680.83	1.576	1576.1	observe	Run2	observe/STIM_004.jpg	100
1686.231	1.585	1585.3	observe	Run2	observe/STIM_004.jpg	99
1690.458	1.19	1190.0	observe	Run2	observe/STIM_004.jpg	99
1694.028	1.17	1169.5	observe	Run2	observe/STIM_004.jpg	100
1698.5	1.695	1695.1	observe	Run2	observe/STIM_005.jpg	100
1702.363	1.603	1603.1	observe	Run2	observe/STIM_005.jpg	99
1705.988	1.438	1437.7	observe	Run2	observe/STIM_005.jpg	99
1710.757	1.305	1305.0	observe	Run2	observe/STIM_005.jpg	100
1715.455	1.491	1490.9	observe	Run2	observe/STIM_006.jpg	99
1720.365	1.046	1045.6	observe	Run2	observe/STIM_006.jpg	100
1725.125	1.346	1345.7	observe	Run2	observe/STIM_006.jpg	100
1728.691	1.656	1655.7	observe	Run2	observe/STIM_006.jpg	100
1733.257	1.354	1353.8	observe	Run2	observe/STIM_007.jpg	99
1737.998	1.21	1209.5	observe	Run2	observe/STIM_007.jpg	100
1742.455	1.427	1426.6	observe	Run2	observe/STIM_007.jpg	99
1746.15	1.633	1633.0	observe	Run2	observe/STIM_007.jpg	99
1751.229	1.25	1250.5	observe	Run2	observe/STIM_008.jpg	100
1755.617	1.372	1372.0	observe	Run2	observe/STIM_008.jpg	99
1759.315	1.093	1092.8	observe	Run2	observe/STIM_008.jpg	99
1762.476	1.68	1680.2	observe	Run2	observe/STIM_008.jpg	100
1766.907	1.495	1495.3	observe	Run2	observe/STIM_009.jpg	99
1771.058	1.563	1562.6	observe	Run2	observe/STIM_009.jpg	100
1776.321	1.059	1058.8	observe	Run2	observe/STIM_009.jpg	100
1779.659	1.467	1467.4	observe	Run2	observe/STIM_009.jpg	100
1784.282	1.393	1392.7	observe	Run2	observe/STIM_010.jpg	100
1789.306	1.233	1232.8	observe	Run2	observe/STIM_010.jpg	100
1794.062	1.454	1454.0	observe	Run2	observe/STIM_010.jpg	99
1797.863	1.495	1494.7	observe	Run2	observe/STIM_010.jpg	100
1801.48	0.938	938.5	observe	Run2	observe/STIM_011.jpg	100
1804.472	1.133	1133.0	observe	Run2	observe/STIM_011.jpg	100
1808.701	1.164	1163.6	observe	Run2	observe/STIM_011.jpg	99
1811.973	1.591	1590.8	observe	Run2	observe/STIM_011.jpg	99
1816.465	1.127	1127.3	observe	Run2	observe/STIM_012.jpg	99
1820.617	1.104	1104.2	observe	Run2	observe/STIM_012.jpg	100
1823.964	0.879	878.7	observe	Run2	observe/STIM_012.jpg	100
1828.382	0.895	895.0	observe	Run2	observe/STIM_012.jpg	100
1832.283	1.02	1020.0	observe	Run2	observe/STIM_013.jpg	99
1835.873	1.033	1032.7	observe	Run2	observe/STIM_013.jpg	99
1839.355	0.924	923.5	observe	Run2	observe/STIM_013.jpg	100
1842.389	1.466	1465.8	observe	Run2	observe/STIM_013.jpg	100
1847.626	1.067	1066.8	observe	Run2	observe/STIM_014.jpg	100
1852.313	1.186	1185.7	observe	Run2	observe/STIM_014.jpg	100
1856.361	1.352	1352.0	observe	Run2	observe/STIM_014.jpg	99
1861.565	1.566	1565.6	observe	Run2	observe/STIM_014.jpg	99
1867.019	1.538	1538.5	observe	Run2	observe/STIM_015.jpg	100
1871.312	1.305	1305.3	observe	Run2	observe/STIM_015.jpg	99
1876.031	1.13	1130.3	observe	Run2	observe/STIM_015.jpg	99
1880.275	1.511	1511.4	observe	Run2	observe/STIM_015.jpg	99
1884.953	0.958	958.3	observe	Run2	observe/STIM_016.jpg	99
1889.449	1.146	1145.9	observe	Run2	observe/STIM_016.jpg	100
1893.002	1.431	1430.9	observe	Run2	observe/STIM_016.jpg	100
1897.393	1.239	1238.6	observe	Run2	observe/STIM_016.jpg	99
1901.708	1.348	1348.4	observe	Run2	observe/STIM_017.jpg	100
1906.895	1.322	1322.3	observe	Run2	observe/STIM_017.jpg	99
1910.701	1.031	1031.1	observe	Run2	observe/STIM_017.jpg	99
1914.478	1.545	1544.7	observe	Run2	observe/STIM_017.jpg	99
1919.247	1.523	1522.7	observe	Run2	observe/STIM_018.jpg	100
1923.794	1.093	1093.1	observe	Run2	observe/STIM_018.jpg	99
1927.144	1.273	1272.9	observe	Run2	observe/STIM_018.jpg	99
1932.34	1.424	1423.8	observe	Run2	observe/STIM_018.jpg	99
1936.142	1.255	1254.9	observe	Run2	observe/STIM_019.jpg	100
1940.548	1.054	1053.9	observe	Run2	observe/STIM_019.jpg	100
1945.55	0.89	889.5	observe	Run2	observe/STIM_019.jpg	100
1948.518	0.897	897.0	observe	Run2	observe/STIM_019.jpg	100
1951.658	1.599	1598.6	regulate	Run3	regulate/STIM_000.jpg	99
1957.088	1.15	1149.5	regulate	Run3	regulate/STIM_000.jpg	99
1960.331	2.476	2476.3	regulate	Run3	regulate/STIM_000.jpg	99
1966.072	1.969	1969.4	regulate	Run3	regulate/STIM_000.jpg	100
1970.891	2.102	2102.0	regulate	Run3	regulate/STIM_001.jpg	99
1976.049	1.252	1251.7	regulate	Run3	regulate/STIM_001.jpg	100
1980.587	2.117	2116.7	regulate	Run3	regulate/STIM_001.jpg	100
1985.294	2.568	2567.5	regulate	Run3	regulate/STIM_001.jpg	99
1991.312	1.184	1184.2	regulate	Run3	regulate/STIM_002.jpg	100
1995.556	2.511	2510.7	regulate	Run3	regulate/STIM_002.jpg	99
2001.906	2.279	2278.7	regulate	Run3	regulate/STIM_002.jpg	99
2006.563	1.768	1767.5	regulate	Run3	regulate/STIM_002.jpg	99
2011.042	1.675	1675.4	regulate	Run3	regulate/STIM_003.jpg	99
2014.717	2.113	2113.3	regulate	Run3	regulate/STIM_003.jpg	100
2019.152	1.148	1148.4	regulate	Run3	regulate/STIM_003.jpg	99
2022.647	1.565	1565.3	regulate	Run3	regulate/STIM_003.jpg	99
2026.301	1.995	1995.0	regulate	Run3	regulate/STIM_004.jpg	100
2032.177	1.786	1786.2	regulate	Run3	regulate/STIM_004.jpg	100
2036.26	1.225	1225.2	regulate	Run3	regulate/STIM_004.jpg	99
2041.208	1.628	1628.5	regulate	Run3	regulate/STIM_004.jpg	99
2045.814	1.459	1458.6	regulate	Run3	regulate/STIM_005.jpg	99
2050.742	2.085	2084.9	regulate	Run3	regulate/STIM_005.jpg	99
2056.036	2.015	2015.4	regulate	Run3	regulate/STIM_005.jpg	100
2060.224	1.501	1500.7	regulate	Run3	regulate/STIM_005.jpg	99
2065.017	2.34	2339.5	regulate	Run3	regulate/STIM_006.jpg	100
2070.804	2.207	2207.4	regulate	Run3	regulate/STIM_006.jpg	99
2076.257	1.71	1709.7	regulate	Run3	regulate/STIM_006.jpg	99
2081.304	1.891	1891.1	regulate	Run3	regulate/STIM_006.jpg	99
2085.993	2.424	2423.8	regulate	Run3	regulate/STIM_007.jpg	99
2091.231	1.132	1131.9	regulate	Run3	regulate/STIM_007.jpg	100
2095.859	1.787	1787.0	regulate	Run3	regulate/STIM_007.jpg	99
2100.834	1.764	1763.5	regulate	Run3	regulate/STIM_007.jpg	100
2104.63	1.457	1456.8	regulate	Run3	regulate/STIM_008.jpg	99
2108.985	1.518	1518.0	regulate	Run3	regulate/STIM_008.jpg	100
2113.867	2.093	2093.0	regulate	Run3	regulate/STIM_008.jpg	100
2118.126	1.529	1529.1	regulate	Run3	regulate/STIM_008.jpg	99
2123.059	2.55	2549.6	regulate	Run3	regulate/STIM_009.jpg	100
2128.0	2.21	2210.2	regulate	Run3	regulate/STIM_009.jpg	100
2133.756	1.123	1122.7	regulate	Run3	regulate/STIM_009.jpg	100
2138.171	2.542	2542.5	regulate	Run3	regulate/STIM_009.jpg	100
2144.451	2.406	2406.4	regulate	Run3	regulate/STIM_010.jpg	100
2150.266	1.428	1428.0	regulate	Run3	regulate/STIM_010.jpg	100
2155.57	2.608	2608.5	regulate	Run3	regulate/STIM_010.jpg	100
2160.588	1.791	1791.0	regulate	Run3	regulate/STIM_010.jpg	100
2165.16	1.54	1540.5	regulate	Run3	regulate/STIM_011.jpg	100
2169.399	1.744	1744.5	regulate	Run3	regulate/STIM_011.jpg	100
2174.232	2.416	2416.5	regulate	Run3	regulate/STIM_011.jpg	99
2179.475	1.895	1895.1	regulate	Run3	regulate/STIM_011.jpg	100
2184.205	1.971	1971.3	regulate	Run3	regulate/STIM_012.jpg	100
2188.451	2.25	2249.7	regulate	Run3	regulate/STIM_012.jpg	99
2194.039	2.117	2117.4	regulate	Run3	regulate/STIM_012.jpg	100
2198.969	2.242	2242.0	regulate	Run3	regulate/STIM_012.jpg	100
2205.137	1.378	1378.0	regulate	Run3	regulate/STIM_013.jpg	100
2209.523	1.947	1946.9	regulate	Run3	regulate/STIM_013.jpg	100
2214.287	2.132	2131.8	regulate	Run3	regulate/STIM_013.jpg	100
2218.795	2.322	2321.7	regulate	Run3	regulate/STIM_013.jpg	100
2224.695	2.611	2610.8	regulate	Run3	regulate/STIM_014.jpg	100
2229.403	1.474	1473.9	regulate	Run3	regulate/STIM_014.jpg	100
2234.474	2.516	2515.8	regulate	Run3	regulate/STIM_014.jpg	99
2239.272	2.59	2590.2	regulate	Run3	regulate/STIM_014.jpg	100
2244.855	1.221	1220.9	regulate	Run3	regulate/STIM_015.jpg	99
2249.937	2.523	2522.8	regulate	Run3	regulate/STIM_015.jpg	100
2254.884	1.622	1622.1	regulate	Run3	regulate/STIM_015.jpg	100
2259.973	1.488	1487.7	regulate	Run3	regulate/STIM_015.jpg	99
2265.106	2.555	2554.9	regulate	Run3	regulate/STIM_016.jpg	99
2270.083	1.673	1673.0	regulate	Run3	regulate/STIM_016.jpg	100
2273.851	1.575	1575.0	regulate	Run3	regulate/STIM_016.jpg	100
2278.217	1.737	1736.8	regulate	Run3	regulate/STIM_016.jpg	99
2282.361	1.238	1238.5	regulate	Run3	regulate/STIM_017.jpg	99
2286.818	1.179	1179.2	regulate	Run3	regulate/STIM_017.jpg	100
2290.675	2.324	2323.8	regulate	Run3	regulate/STIM_017.jpg	99
2296.782	1.879	1879.1	regulate	Run3	regulate/STIM_017.jpg	100
2301.759	1.816	1816.2	regulate	Run3	regulate/STIM_018.jpg	100
2305.688	1.353	1352.6	regulate	Run3	regulate/STIM_018.jpg	99
2309.797	1.68	1680.5	regulate	Run3	regulate/STIM_018.jpg	99
2313.547	1.988	1988.4	regulate	Run3	regulate/STIM_018.jpg	99
2318.671	1.948	1947.7	regulate	Run3	regulate/STIM_019.jpg	99
2324.54	1.744	1744.2	regulate	Run3	regulate/STIM_019.jpg	100
2328.349	2.568	2567.5	regulate	Run3	regulate/STIM_019.jpg	100
2334.781	1.376	1376.1	regulate	Run3	regulate/STIM_019.jpg	99
2338.518	2.352	2352.1	regulate	Run3	regulate/STIM_020.jpg	100
2343.33	1.544	1543.9	regulate	Run3	regulate/STIM_020.jpg	99
2347.612	1.225	1225.3	regulate	Run3	regulate/STIM_020.jpg	99
2352.515	2.324	2324.1	regulate	Run3	regulate/STIM_020.jpg	100
2357.394	2.524	2524.3	regulate	Run3	regulate/STIM_021.jpg	99
2363.67	1.945	1945.0	regulate	Run3	regulate/STIM_021.jpg	100
2368.674	1.739	1739.3	regulate	Run3	regulate/STIM_021.jpg	100
2374.264	1.528	1528.4	regulate	Run3	regulate/STIM_021.jpg	99
2379.744	2.019	2018.9	regulate	Run3	regulate/STIM_022.jpg	100
2385.697	2.214	2213.6	regulate	Run3	regulate/STIM_022.jpg	100
2390.228	1.139	1139.4	regulate	Run3	regulate/STIM_022.jpg	99
2395.318	1.523	1523.0	regulate	Run3	regulate/STIM_022.jpg	100
2398.884	2.566	2566.1	regulate	Run3	regulate/STIM_023.jpg	99
2404.607	1.682	1682.5	regulate	Run3	regulate/STIM_023.jpg	100
2410.045	2.31	2310.4	regulate	Run3	regulate/STIM_023.jpg	99
2415.555	1.327	1326.7	regulate	Run3	regulate/STIM_023.jpg	100
2420.63	1.222	1222.5	regulate	Run3	regulate/STIM_024.jpg	100
2424.734	1.13	1130.2	regulate	Run3	regulate/STIM_024.jpg	99
2428.806	2.588	2588.0	regulate	Run3	regulate/STIM_024.jpg	100
2435.351	1.499	1498.9	regulate	Run3	regulate/STIM_024.jpg	100
2439.076	1.5	1499.5	regulate	Run3	regulate/STIM_025.jpg	99
2443.24	1.338	1337.9	regulate	Run3	regulate/STIM_025.jpg	99
2448.023	1.411	1411.2	regulate	Run3	regulate/STIM_025.jpg	99
2452.333	1.196	1196.0	regulate	Run3	regulate/STIM_025.jpg	100
2456.211	2.298	2298.5	regulate	Run3	regulate/STIM_026.jpg	100
2461.062	2.494	2494.3	regulate	Run3	regulate/STIM_026.jpg	99
2467.017	1.403	1402.9	regulate	Run3	regulate/STIM_026.jpg	99
2471.941	1.321	1321.3	regulate	Run3	regulate/STIM_026.jpg	100
2475.262	1.998	1998.3	regulate	Run3	regulate/STIM_027.jpg	100
2480.488	1.564	1564.1	regulate	Run3	regulate/STIM_027.jpg	99
2484.537	1.748	1748.3	regulate	Run3	regulate/STIM_027.jpg	100
2489.089	1.877	1877.1	regulate	Run3	regulate/STIM_027.jpg	99
2494.963	2.003	2003.5	regulate	Run3	regulate/STIM_028.jpg	100
2499.752	1.396	1396.4	regulate	Run3	regulate/STIM_028.jpg	100
2504.157	2.108	2108.2	regulate	Run3	regulate/STIM_028.jpg	99
2508.443	1.496	1495.6	regulate	Run3	regulate/STIM_028.jpg	100
2513.536	1.342	1342.3	regulate	Run3	regulate/STIM_029.jpg	99
2517.865	1.842	1842.2	regulate	Run3	regulate/STIM_029.jpg	99
2521.714	2.188	2187.8	regulate	Run3	regulate/STIM_029.jpg	99
2526.745	2.32	2319.8	regulate	Run3	regulate/STIM_029.jpg	100
2532.248	1.59	1589.5	observe	Run3	observe/STIM_000.jpg	100
2536.88	0.958	958.2	observe	Run3	observe/STIM_000.jpg	100
2541.741	1.631	1630.7	observe	Run3	observe/STIM_000.jpg	100
2545.53	1.077	1076.7	observe	Run3	observe/STIM_000.jpg	100
2549.582	1.394	1393.7	observe	Run3	observe/STIM_001.jpg	99
2553.95	1.592	1592.1	observe	Run3	observe/STIM_001.jpg	99
2557.888	0.859	858.7	observe	Run3	observe/STIM_001.jpg	99
2562.021	1.477	1477.1	observe	Run3	observe/STIM_001.jpg	100
2567.136	1.512	1511.7	observe	Run3	observe/STIM_002.jpg	100
2571.762	0.855	854.9	observe	Run3	observe/STIM_002.jpg	100
2575.104	1.242	1242.1	observe	Run3	observe/STIM_002.jpg	99
2579.88	1.072	1071.9	observe	Run3	observe/STIM_002.jpg	100
2583.759	1.04	1039.8	observe	Run3	observe/STIM_003.jpg	99
2588.016	0.908	907.6	observe	Run3	observe/STIM_003.jpg	100
2591.856	1.38	1380.2	observe	Run3	observe/STIM_003.jpg	99
2596.066	1.44	1439.8	observe	Run3	observe/STIM_003.jpg	100
2600.852	1.029	1029.2	observe	Run3	observe/STIM_004.jpg	99
2604.914	1.667	1667.3	observe	Run3	observe/STIM_004.jpg	99
2608.637	1.519	1519.4	observe	Run3	observe/STIM_004.jpg	100
2612.519	1.322	1322.1	observe	Run3	observe/STIM_004.jpg	100
2616.483	1.198	1198.2	observe	Run3	observe/STIM_005.jpg	100
2620.528	1.5	1500.0	observe	Run3	observe/STIM_005.jpg	100
2625.45	1.083	1083.4	observe	Run3	observe/STIM_005.jpg	100
2629.82	1.616	1615.6	observe	Run3	observe/STIM_005.jpg	99
2633.735	0.988	987.6	observe	Run3	observe/STIM_006.jpg	100
2637.607	0.879	878.7	observe	Run3	observe/STIM_006.jpg	99
2641.953	1.044	1043.8	observe	Run3	observe/STIM_006.jpg	99
2645.146	1.369	1368.6	observe	Run3	observe/STIM_006.jpg	99
2649.881	0.898	898.0	observe	Run3	observe/STIM_007.jpg	99
2654.662	1.479	1479.0	observe	Run3	observe/STIM_007.jpg	99
2659.806	1.03	1030.2	observe	Run3	observe/STIM_007.jpg	100
2664.513	1.585	1585.3	observe	Run3	observe/STIM_007.jpg	99
2668.811	1.184	1183.6	observe	Run3	observe/STIM_008.jpg	100
2672.827	1.357	1357.3	observe	Run3	observe/STIM_008.jpg	100
2677.515	1.14	1139.9	observe	Run3	observe/STIM_008.jpg	100
2680.742	1.212	1211.9	observe	Run3	observe/STIM_008.jpg	100
2684.187	1.607	1607.0	observe	Run3	observe/STIM_009.jpg	99
2689.247	1.165	1164.9	observe	Run3	observe/STIM_009.jpg	99
2693.739	1.553	1553.1	observe	Run3	observe/STIM_009.jpg	99
2699.194	0.868	867.8	observe	Run3	observe/STIM_009.jpg	100
2702.22	1.475	1474.7	observe	Run3	observe/STIM_010.jpg	100
2706.099	1.632	1631.5	observe	Run3	observe/STIM_010.jpg	100
2710.695	1.361	1360.9	observe	Run3	observe/STIM_010.jpg	99
2714.221	1.158	1157.7	observe	Run3	observe/STIM_010.jpg	100
2717.879	1.68	1679.5	observe	Run3	observe/STIM_011.jpg	99
2722.253	0.914	914.3	observe	Run3	observe/STIM_011.jpg	100
2725.663	1.539	1538.9	observe	Run3	observe/STIM_011.jpg	100
2730.502	1.678	1677.7	observe	Run3	observe/STIM_011.jpg	99
2734.828	1.204	1203.7	observe	Run3	observe/STIM_012.jpg	100
2739.394	1.314	1314.2	observe	Run3	observe/STIM_012.jpg	99
2743.903	1.175	1175.3	observe	Run3	observe/STIM_012.jpg	99
2748.476	1.594	1594.2	observe	Run3	observe/STIM_012.jpg	100
2753.3	1.479	1479.4	observe	Run3	observe/STIM_013.jpg	100
2758.206	1.631	1631.1	observe	Run3	observe/STIM_013.jpg	99
2763.614	1.464	1463.7	observe	Run3	observe/STIM_013.jpg	99
2767.712	1.289	1289.1	observe	Run3	observe/STIM_013.jpg	99
2772.279	1.383	1383.2	observe	Run3	observe/STIM_014.jpg	99
2777.098	1.473	1473.4	observe	Run3	observe/STIM_014.jpg	99
2780.969	0.933	933.1	observe	Run3	observe/STIM_014.jpg	99
2785.265	1.134	1134.1	observe	Run3	observe/STIM_014.jpg	100
2789.05	1.564	1564.2	observe	Run3	observe/STIM_015.jpg	99
2793.767	1.609	1608.6	observe	Run3	observe/STIM_015.jpg	99
2799.096	1.598	1598.0	observe	Run3	observe/STIM_015.jpg	100
2804.222	1.061	1061.3	observe	Run3	observe/STIM_015.jpg	99
2808.747	1.369	1368.7	observe	Run3	observe/STIM_016.jpg	99
2812.79	1.385	1385.3	observe	Run3	observe/STIM_016.jpg	100
2817.811	1.137	1136.7	observe	Run3	observe/STIM_016.jpg	99
2822.233	1.105	1105.4	observe	Run3	observe/STIM_016.jpg	99
2827.238	1.031	1031.2	observe	Run3	observe/STIM_017.jpg	100
2830.858	1.125	1125.3	observe	Run3	observe/STIM_017.jpg	99
2834.224	1.636	1635.9	observe	Run3	observe/STIM_017.jpg	100
2838.096	1.58	1580.5	observe	Run3	observe/STIM_017.jpg	99
2842.298	1.4	1399.7	observe	Run3	observe/STIM_018.jpg	99
2847.32	1.476	1475.6	observe	Run3	observe/STIM_018.jpg	99
2852.496	1.024	1024.1	observe	Run3	observe/STIM_018.jpg	99
2857.355	1.0	1000.4	observe	Run3	observe/STIM_018.jpg	100
2861.547	1.322	1322.0	observe	Run3	observe/STIM_019.jpg	99
2865.34	1.068	1068.2	observe	Run3	observe/STIM_019.jpg	99
2868.674	1.264	1263.9	observe	Run3	observe/STIM_019.jpg	100
2873.633	1.264	1263.8	observe	Run3	observe/STIM_019.jpg	100
