onset	duration	response_time_ms	trial_type	learning_stage	stimulus	response_port
0.0	2.274	2273.9	regulate	Run1	regulate/STIM_000.jpg	99
5.198	2.618	2618.0	regulate	Run1	regulate/STIM_000.jpg	100
9.864	1.806	1805.5	regulate	Run1	regulate/STIM_000.jpg	99
14.895	2.129	2129.1	regulate	Run1	regulate/STIM_000.jpg	99
20.916	3.292	3291.9	regulate	Run1	regulate/STIM_001.jpg	99
26.464	3.413	3412.6	regulate	Run1	regulate/STIM_001.jpg	100
32.685	2.486	2485.7	regulate	Run1	regulate/STIM_001.jpg	100
38.566	2.097	2096.8	regulate	Run1	regulate/STIM_001.jpg	100
43.153	2.946	2946.2	regulate	Run1	regulate/STIM_002.jpg	100
48.326	3.32	3319.6	regulate	Run1	regulate/STIM_002.jpg	99
54.366	1.793	1792.7	regulate	Run1	regulate/STIM_002.jpg	100
58.546	3.312	3312.4	regulate	Run1	regulate/STIM_002.jpg	99
64.068	2.195	2194.6	regulate	Run1	regulate/STIM_003.jpg	100
68.339	2.006	2006.5	regulate	Run1	regulate/STIM_003.jpg	100
73.56	2.058	2058.2	regulate	Run1	regulate/STIM_003.jpg	99
78.284	1.645	1644.9	regulate	Run1	regulate/STIM_003.jpg	99
83.593	2.506	2506.2	regulate	Run1	regulate/STIM_004.jpg	99
89.888	2.246	2246.5	regulate	Run1	regulate/STIM_004.jpg	100
96.016	1.888	1888.3	regulate	Run1	regulate/STIM_004.jpg	99
100.668	3.204	3203.7	regulate	Run1	regulate/STIM_004.jpg	99
107.186	1.916	1915.9	regulate	Run1	regulate/STIM_005.jpg	100
111.589	2.406	2406.3	regulate	Run1	regulate/STIM_005.jpg	100
117.334	2.057	2057.2	regulate	Run1	regulate/STIM_005.jpg	99
121.691	3.309	3309.2	regulate	Run1	regulate/STIM_005.jpg	99
128.12	2.654	2654.3	regulate	Run1	regulate/STIM_006.jpg	99
134.491	2.212	2212.2	regulate	Run1	regulate/STIM_006.jpg	99
139.819	1.722	1722.4	regulate	Run1	regulate/STIM_006.jpg	99
145.173	2.351	2351.0	regulate	Run1	regulate/STIM_006.jpg	100
150.178	2.712	2711.6	regulate	Run1	regulate/STIM_007.jpg	99
156.646	2.494	2494.3	regulate	Run1	regulate/STIM_007.jpg	99
162.065	3.13	3129.5	regulate	Run1	regulate/STIM_007.jpg	100
168.693	3.085	3084.9	regulate	Run1	regulate/STIM_007.jpg	99
175.601	1.818	1818.2	regulate	Run1	regulate/STIM_008.jpg	99
180.265	2.952	2952.5	regulate	Run1	regulate/STIM_008.jpg	99
186.395	2.284	2284.3	regulate	Run1	regulate/STIM_008.jpg	100
190.685	2.001	2000.9	regulate	Run1	regulate/STIM_008.jpg	100
195.426	1.89	1890.1	regulate	Run1	regulate/STIM_009.jpg	99
199.971	3.379	3378.8	regulate	Run1	regulate/STIM_009.jpg	99
205.98	2.617	2617.1	regulate	Run1	regulate/STIM_009.jpg	100
212.035	2.058	2057.9	regulate	Run1	regulate/STIM_009.jpg	100
217.424	3.138	3138.2	regulate	Run1	regulate/STIM_010.jpg	100
224.063	2.117	2117.1	regulate	Run1	regulate/STIM_010.jpg	99
228.642	2.566	2566.0	regulate	Run1	regulate/STIM_010.jpg	100
233.312	1.886	1886.0	regulate	Run1	regulate/STIM_010.jpg	100
238.247	2.636	2635.7	regulate	Run1	regulate/STIM_011.jpg	100
242.987	1.668	1668.3	regulate	Run1	regulate/STIM_011.jpg	99
247.382	3.364	3363.9	regulate	Run1	regulate/STIM_011.jpg	99
253.468	3.064	3063.5	regulate	Run1	regulate/STIM_011.jpg	100
258.832	2.992	2992.5	regulate	Run1	regulate/STIM_012.jpg	100
265.089	2.471	2471.2	regulate	Run1	regulate/STIM_012.jpg	100
271.251	1.807	1807.0	regulate	Run1	regulate/STIM_012.jpg	99
275.114	2.223	2222.6	regulate	Run1	regulate/STIM_012.jpg	100
280.067	2.85	2849.8	regulate	Run1	regulate/STIM_013.jpg	99
286.304	1.844	1844.1	regulate	Run1	regulate/STIM_013.jpg	99
290.485	2.646	2645.9	regulate	Run1	regulate/STIM_013.jpg	100
296.03	1.745	1744.7	regulate	Run1	regulate/STIM_013.jpg	100
300.352	2.489	2489.0	regulate	Run1	regulate/STIM_014.jpg	99
305.915	3.277	3277.0	regulate	Run1	regulate/STIM_014.jpg	100
312.752	3.273	3273.1	regulate	Run1	regulate/STIM_014.jpg	99
319.457	2.372	2372.2	regulate	Run1	regulate/STIM_014.jpg	100
325.794	3.682	3682.2	regulate	Run1	regulate/STIM_015.jpg	99
333.266	3.152	3152.5	regulate	Run1	regulate/STIM_015.jpg	100
339.203	3.231	3231.0	regulate	Run1	regulate/STIM_015.jpg	100
344.561	1.907	1906.7	regulate	Run1	regulate/STIM_015.jpg	100
348.558	2.034	2033.5	regulate	Run1	regulate/STIM_016.jpg	100
354.373	2.357	2356.6	regulate	Run1	regulate/STIM_016.jpg	99
360.294	1.772	1771.7	regulate	Run1	regulate/STIM_016.jpg	100
365.043	1.898	1898.3	regulate	Run1	regulate/STIM_016.jpg	100
369.294	3.513	3513.2	regulate	Run1	regulate/STIM_017.jpg	99
376.047	1.676	1675.8	regulate	Run1	regulate/STIM_017.jpg	100
380.328	2.451	2451.3	regulate	Run1	regulate/STIM_017.jpg	99
386.127	2.782	2782.5	regulate	Run1	regulate/STIM_017.jpg	99
391.47	2.148	2147.5	regulate	Run1	regulate/STIM_018.jpg	99
396.662	3.246	3246.1	regulate	Run1	regulate/STIM_018.jpg	100
403.263	1.936	1936.0	regulate	Run1	regulate/STIM_018.jpg	99
407.542	2.389	2389.3	regulate	Run1	regulate/STIM_018.jpg	99
413.781	2.959	2959.0	regulate	Run1	regulate/STIM_019.jpg	100
419.227	3.186	3186.3	regulate	Run1	regulate/STIM_019.jpg	99
424.465	2.69	2689.9	regulate	Run1	regulate/STIM_019.jpg	99
429.745	1.996	1996.0	regulate	Run1	regulate/STIM_019.jpg	99
435.622	1.982	1981.6	regulate	Run1	regulate/STIM_020.jpg	100
439.718	2.822	2822.5	regulate	Run1	regulate/STIM_020.jpg	100
445.731	2.55	2550.0	regulate	Run1	regulate/STIM_020.jpg	99
452.108	3.129	3128.7	regulate	Run1	regulate/STIM_020.jpg	99
457.908	3.914	3914.0	regulate	Run1	regulate/STIM_021.jpg	99
465.358	3.336	3335.9	regulate	Run1	regulate/STIM_021.jpg	100
472.054	3.165	3164.7	regulate	Run1	regulate/STIM_021.jpg	100
478.342	2.923	2922.7	regulate	Run1	regulate/STIM_021.jpg	100
484.209	3.173	3173.1	regulate	Run1	regulate/STIM_022.jpg	100
490.982	1.966	1966.5	regulate	Run1	regulate/STIM_022.jpg	99
495.945	3.26	3259.6	regulate	Run1	regulate/STIM_022.jpg	100
501.971	1.524	1524.0	regulate	Run1	regulate/STIM_022.jpg	100
506.387	3.829	3829.2	regulate	Run1	regulate/STIM_023.jpg	100
512.517	1.704	1703.8	regulate	Run1	regulate/STIM_023.jpg	99
517.69	3.445	3444.7	regulate	Run1	regulate/STIM_023.jpg	99
523.705	1.912	1912.4	regulate	Run1	regulate/STIM_023.jpg	100
528.427	3.885	3885.3	regulate	Run1	regulate/STIM_024.jpg	99
535.44	1.841	1840.7	regulate	Run1	regulate/STIM_024.jpg	99
540.973	2.832	2831.8	regulate	Run1	regulate/STIM_024.jpg	100
547.138	1.802	1801.8	regulate	Run1	regulate/STIM_024.jpg	99
551.763	1.908	1908.0	regulate	Run1	regulate/STIM_025.jpg	100
556.053	3.287	3287.1	regulate	Run1	regulate/STIM_025.jpg	99
563.135	2.08	2080.4	regulate	Run1	regulate/STIM_025.jpg	100
567.32	2.064	2063.5	regulate	Run1	regulate/STIM_025.jpg	100
573.101	3.335	3334.7	regulate	Run1	regulate/STIM_026.jpg	100
578.675	3.612	3611.6	regulate	Run1	regulate/STIM_026.jpg	100
585.389	2.862	2861.5	regulate	Run1	regulate/STIM_026.jpg	99
591.011	2.602	2602.3	regulate	Run1	regulate/STIM_026.jpg	99
597.431	2.28	2279.9	regulate	Run1	regulate/STIM_027.jpg	100
602.629	2.153	2153.2	regulate	Run1	regulate/STIM_027.jpg	99
608.705	1.992	1992.2	regulate	Run1	regulate/STIM_027.jpg	100
613.493	1.818	1817.7	regulate	Run1	regulate/STIM_027.jpg	100
617.635	2.503	2502.6	regulate	Run1	regulate/STIM_028.jpg	100
622.312	2.06	2060.1	regulate	Run1	regulate/STIM_028.jpg	99
627.974	3.326	3326.1	regulate	Run1	regulate/STIM_028.jpg	100
635.165	1.737	1737.3	regulate	Run1	regulate/STIM_028.jpg	99
640.443	2.015	2015.5	regulate	Run1	regulate/STIM_029.jpg	99
645.315	2.086	2086.5	regulate	Run1	regulate/STIM_029.jpg	99
649.932	2.228	2228.2	regulate	Run1	regulate/STIM_029.jpg	99
654.844	1.632	1631.8	regulate	Run1	regulate/STIM_029.jpg	100
659.169	1.08	1079.6	observe	Run1	observe/STIM_000.jpg	100
663.727	1.339	1338.7	observe	Run1	observe/STIM_000.jpg	100
668.632	1.596	1595.8	observe	Run1	observe/STIM_000.jpg	99
672.913	1.64	1639.5	observe	Run1	observe/STIM_000.jpg	100
677.269	1.274	1274.1	observe	Run1	observe/STIM_001.jpg	99
681.476	1.531	1530.9	observe	Run1	observe/STIM_001.jpg	100
686.603	1.29	1290.0	observe	Run1	observe/STIM_001.jpg	99
691.103	1.711	1711.0	observe	Run1	observe/STIM_001.jpg	100
696.164	1.766	1765.5	observe	Run1	observe/STIM_002.jpg	99
700.446	0.945	944.6	observe	Run1	observe/STIM_002.jpg	99
705.116	1.475	1475.4	observe	Run1	observe/STIM_002.jpg	99
709.616	0.927	927.0	observe	Run1	observe/STIM_002.jpg	99
714.521	1.023	1023.2	observe	Run1	observe/STIM_003.jpg	99
719.394	1.641	1640.9	observe	Run1	observe/STIM_003.jpg	100
724.975	1.77	1770.2	observe	Run1	observe/STIM_003.jpg	100
729.122	1.588	1588.0	observe	Run1	observe/STIM_003.jpg	99
734.532	1.386	1385.7	observe	Run1	observe/STIM_004.jpg	99
739.534	1.771	1770.6	observe	Run1	observe/STIM_004.jpg	99
744.791	1.339	1339.3	observe	Run1	observe/STIM_004.jpg	100
749.009	1.644	1643.6	observe	Run1	observe/STIM_004.jpg	100
754.44	1.318	1318.5	observe	Run1	observe/STIM_005.jpg	100
758.408	1.241	1240.8	observe	Run1	observe/STIM_005.jpg	100
762.191	1.397	1397.4	observe	Run1	observe/STIM_005.jpg	100
766.405	1.499	1499.2	observe	Run1	observe/STIM_005.jpg	99
770.497	1.083	1083.2	observe	Run1	observe/STIM_006.jpg	99
774.123	1.364	1363.7	observe	Run1	observe/STIM_006.jpg	100
778.505	1.397	1396.9	observe	Run1	observe/STIM_006.jpg	99
783.47	1.594	1594.2	observe	Run1	observe/STIM_006.jpg	99
788.7	1.217	1216.8	observe	Run1	observe/STIM_007.jpg	99
792.968	1.708	1708.5	observe	Run1	observe/STIM_007.jpg	99
798.235	1.012	1011.9	observe	Run1	observe/STIM_007.jpg	99
801.621	1.648	1648.2	observe	Run1	observe/STIM_007.jpg	99
806.079	1.19	1189.5	observe	Run1	observe/STIM_008.jpg	100
810.195	1.413	1412.8	observe	Run1	observe/STIM_008.jpg	100
813.789	1.669	1668.9	observe	Run1	observe/STIM_008.jpg	100
817.892	1.744	1743.8	observe	Run1	observe/STIM_008.jpg	99
821.673	1.013	1013.3	observe	Run1	observe/STIM_009.jpg	100
825.237	1.799	1799.3	observe	Run1	observe/STIM_009.jpg	100
830.254	1.18	1180.1	observe	Run1	observe/STIM_009.jpg	99
835.316	1.692	1691.7	observe	Run1	observe/STIM_009.jpg	100
840.291	1.01	1009.9	observe	Run1	observe/STIM_010.jpg	100
844.211	1.729	1729.3	observe	Run1	observe/STIM_010.jpg	99
849.441	1.109	1108.7	observe	Run1	observe/STIM_010.jpg	100
852.93	0.931	930.9	observe	Run1	observe/STIM_010.jpg	99
856.129	1.642	1642.2	observe	Run1	observe/STIM_011.jpg	99
861.279	1.202	1202.4	observe	Run1	observe/STIM_011.jpg	99
864.674	1.13	1130.0	observe	Run1	observe/STIM_011.jpg	99
869.301	1.486	1486.5	observe	Run1	observe/STIM_011.jpg	99
874.478	1.105	1105.4	observe	Run1	observe/STIM_012.jpg	100
879.496	1.456	1456.1	observe	Run1	observe/STIM_012.jpg	99
884.427	1.463	1462.8	observe	Run1	observe/STIM_012.jpg	100
888.338	1.638	1637.7	observe	Run1	observe/STIM_012.jpg	100
892.111	1.063	1062.6	observe	Run1	observe/STIM_013.jpg	99
896.428	1.774	1773.6	observe	Run1	observe/STIM_013.jpg	100
900.382	1.805	1804.6	observe	Run1	observe/STIM_013.jpg	99
904.863	1.483	1483.0	observe	Run1	observe/STIM_013.jpg	99
910.25	1.204	1204.0	observe	Run1	observe/STIM_014.jpg	99
914.532	1.11	1110.0	observe	Run1	observe/STIM_014.jpg	99
918.261	1.425	1424.6	observe	Run1	observe/STIM_014.jpg	99
923.569	1.186	1185.8	observe	Run1	observe/STIM_014.jpg	100
927.337	0.924	924.3	observe	Run1	observe/STIM_015.jpg	99
930.713	1.759	1759.3	observe	Run1	observe/STIM_015.jpg	99
934.477	1.697	1697.4	observe	Run1	observe/STIM_015.jpg	100
938.619	1.634	1633.6	observe	Run1	observe/STIM_015.jpg	100
942.539	1.039	1038.6	observe	Run1	observe/STIM_016.jpg	100
946.712	1.004	1004.0	observe	Run1	observe/STIM_016.jpg	99
951.568	1.084	1083.9	observe	Run1	observe/STIM_016.jpg	99
956.641	1.199	1199.2	observe	Run1	observe/STIM_016.jpg	100
960.431	1.072	1071.9	observe	Run1	observe/STIM_017.jpg	100
965.394	1.491	1491.4	observe	Run1	observe/STIM_017.jpg	100
969.432	1.232	1232.5	observe	Run1	observe/STIM_017.jpg	100
974.285	1.725	1725.4	observe	Run1	observe/STIM_017.jpg	99
978.373	1.72	1720.1	observe	Run1	observe/STIM_018.jpg	100
982.811	1.296	1296.5	observe	Run1	observe/STIM_018.jpg	100
987.791	1.164	1163.7	observe	Run1	observe/STIM_018.jpg	100
991.305	1.763	1762.9	observe	Run1	observe/STIM_018.jpg	99
995.665	1.18	1180.1	observe	Run1	observe/STIM_019.jpg	100
999.47	1.125	1124.8	observe	Run1	observe/STIM_019.jpg	100
1002.93	1.637	1637.1	observe	Run1	observe/STIM_019.jpg	100
1007.296	1.71	1709.8	observe	Run1	observe/STIM_019.jpg	100
1012.869	2.684	2684.2	regulate	Run2	regulate/STIM_000.jpg	100
1018.327	1.451	1450.8	regulate	Run2	regulate/STIM_000.jpg	100
1022.336	2.74	2739.5	regulate	Run2	regulate/STIM_000.jpg	99
1027.251	1.818	1818.1	regulate	Run2	regulate/STIM_000.jpg	100
1032.808	1.856	1855.7	regulate	Run2	regulate/STIM_001.jpg	99
1037.09	2.902	2902.4	regulate	Run2	regulate/STIM_001.jpg	100
1043.449	2.342	2342.0	regulate	Run2	regulate/STIM_001.jpg	99
1048.662	1.653	1653.4	regulate	Run2	regulate/STIM_001.jpg	100
1053.676	2.767	2767.4	regulate	Run2	regulate/STIM_002.jpg	99
1060.235	1.695	1695.1	regulate	Run2	regulate/STIM_002.jpg	99
1065.439	2.181	2180.8	regulate	Run2	regulate/STIM_002.jpg	99
1071.507	2.463	2463.0	regulate	Run2	regulate/STIM_002.jpg	99
1076.246	3.313	3313.0	regulate	Run2	regulate/STIM_003.jpg	100
1083.432	1.688	1688.5	regulate	Run2	regulate/STIM_003.jpg	100
1088.965	2.782	2781.6	regulate	Run2	regulate/STIM_003.jpg	99
1094.248	1.321	1321.4	regulate	Run2	regulate/STIM_003.jpg	99
1099.47	1.961	1961.3	regulate	Run2	regulate/STIM_004.jpg	100
1104.746	1.9	1900.1	regulate	Run2	regulate/STIM_004.jpg	100
1109.174	2.04	2039.9	regulate	Run2	regulate/STIM_004.jpg	99
1114.298	2.634	2634.4	regulate	Run2	regulate/STIM_004.jpg	100
1120.732	2.048	2048.5	regulate	Run2	regulate/STIM_005.jpg	100
1125.312	1.65	1649.6	regulate	Run2	regulate/STIM_005.jpg	99
1129.19	2.928	2927.6	regulate	Run2	regulate/STIM_005.jpg	99
1135.418	2.63	2630.2	regulate	Run2	regulate/STIM_005.jpg	99
1141.803	2.066	2065.9	regulate	Run2	regulate/STIM_006.jpg	99
1147.736	3.034	3033.7	regulate	Run2	regulate/STIM_006.jpg	100
1154.525	1.679	1679.4	regulate	Run2	regulate/STIM_006.jpg	99
1159.81	1.731	1730.7	regulate	Run2	regulate/STIM_006.jpg	100
1163.66	1.658	1657.9	regulate	Run2	regulate/STIM_007.jpg	100
1168.893	2.466	2465.8	regulate	Run2	regulate/STIM_007.jpg	100
1174.149	1.636	1635.5	regulate	Run2	regulate/STIM_007.jpg	99
1179.039	1.892	1892.0	regulate	Run2	regulate/STIM_007.jpg	100
1184.422	1.636	1636.4	regulate	Run2	regulate/STIM_008.jpg	99
1189.369	2.726	2725.9	regulate	Run2	regulate/STIM_008.jpg	100
1195.624	2.77	2769.6	regulate	Run2	regulate/STIM_008.jpg	99
1202.209	1.948	1947.8	regulate	Run2	regulate/STIM_008.jpg	100
1207.962	3.087	3087.3	regulate	Run2	regulate/STIM_009.jpg	100
1214.432	2.174	2173.5	regulate	Run2	regulate/STIM_009.jpg	99
1220.147	1.939	1938.8	regulate	Run2	regulate/STIM_009.jpg	99
1225.893	2.527	2527.0	regulate	Run2	regulate/STIM_009.jpg	99
1230.874	2.363	2363.4	regulate	Run2	regulate/STIM_010.jpg	100
1236.971	2.379	2379.0	regulate	Run2	regulate/STIM_010.jpg	99
1242.017	1.928	1928.4	regulate	Run2	regulate/STIM_010.jpg	100
1247.263	1.819	1818.9	regulate	Run2	regulate/STIM_010.jpg	99
1251.488	2.133	2132.8	regulate	Run2	regulate/STIM_011.jpg	99
1256.795	1.788	1787.8	regulate	Run2	regulate/STIM_011.jpg	99
1262.024	2.79	2789.7	regulate	Run2	regulate/STIM_011.jpg	100
1267.627	2.561	2560.8	regulate	Run2	regulate/STIM_011.jpg	100
1272.466	3.347	3346.8	regulate	Run2	regulate/STIM_012.jpg	99
1279.521	2.32	2319.5	regulate	Run2	regulate/STIM_012.jpg	99
1284.741	1.753	1753.4	regulate	Run2	regulate/STIM_012.jpg	100
1289.802	1.475	1475.4	regulate	Run2	regulate/STIM_012.jpg	100
1293.992	2.647	2646.6	regulate	Run2	regulate/STIM_013.jpg	99
1299.946	2.438	2438.5	regulate	Run2	regulate/STIM_013.jpg	99
1304.405	1.633	1633.4	regulate	Run2	regulate/STIM_013.jpg	100
1308.783	2.027	2026.9	regulate	Run2	regulate/STIM_013.jpg	99
1313.306	2.757	2757.3	regulate	Run2	regulate/STIM_014.jpg	99
1318.33	1.532	1532.0	regulate	Run2	regulate/STIM_014.jpg	99
1323.819	1.286	1285.6	regulate	Run2	regulate/STIM_014.jpg	100
1328.35	1.551	1551.1	regulate	Run2	regulate/STIM_014.jpg	100
1333.856	1.799	1798.7	regulate	Run2	regulate/STIM_015.jpg	99
1339.559	2.732	2731.7	regulate	Run2	regulate/STIM_015.jpg	100
1345.236	2.717	2716.7	regulate	Run2	regulate/STIM_015.jpg	99
1350.548	2.613	2612.8	regulate	Run2	regulate/STIM_015.jpg	100
1355.621	3.213	3213.4	regulate	Run2	regulate/STIM_016.jpg	99
1362.776	1.728	1728.3	regulate	Run2	regulate/STIM_016.jpg	99
1366.608	2.589	2589.3	regulate	Run2	regulate/STIM_016.jpg	100
1372.695	2.265	2264.7	regulate	Run2	regulate/STIM_016.jpg	99
1377.421	3.103	3103.0	regulate	Run2	regulate/STIM_017.jpg	100
1383.986	2.489	2488.9	regulate	Run2	regulate/STIM_017.jpg	100
1389.466	1.948	1948.4	regulate	Run2	regulate/STIM_017.jpg	99
1394.274	2.658	2657.8	regulate	Run2	regulate/STIM_017.jpg	99
1400.422	3.072	3072.2	regulate	Run2	regulate/STIM_018.jpg	100
1406.376	2.725	2724.8	regulate	Run2	regulate/STIM_018.jpg	100
1411.552	1.645	1645.1	regulate	Run2	regulate/STIM_018.jpg	99
1415.742	2.202	2201.8	regulate	Run2	regulate/STIM_018.jpg	100
1420.697	2.034	2034.4	regulate	Run2	regulate/STIM_019.jpg	100
1424.742	2.476	2476.0	regulate	Run2	regulate/STIM_019.jpg	99
1429.273	2.142	2141.9	regulate	Run2	regulate/STIM_019.jpg	99
1433.865	2.549	2548.9	regulate	Run2	regulate/STIM_019.jpg	100
1438.956	2.861	2860.8	regulate	Run2	regulate/STIM_020.jpg	100
1444.595	2.743	2742.6	regulate	Run2	regulate/STIM_020.jpg	100
1449.6	1.398	1398.4	regulate	Run2	regulate/STIM_020.jpg	99
1453.409	1.574	1574.4	regulate	Run2	regulate/STIM_020.jpg	99
1457.203	2.319	2319.3	regulate	Run2	regulate/STIM_021.jpg	99
1461.912	2.086	2085.9	regulate	Run2	regulate/STIM_021.jpg	100
1466.773	2.532	2532.4	regulate	Run2	regulate/STIM_021.jpg	99
1471.559	2.009	2009.0	regulate	Run2	regulate/STIM_021.jpg	99
1476.995	3.065	3064.7	regulate	Run2	regulate/STIM_022.jpg	100
1482.513	1.413	1413.3	regulate	Run2	regulate/STIM_022.jpg	99
1487.223	1.321	1320.8	regulate	Run2	regulate/STIM_022.jpg	99
1490.759	2.002	2002.3	regulate	Run2	regulate/STIM_022.jpg	100
1495.367	2.122	2122.4	regulate	Run2	regulate/STIM_023.jpg	100
1499.825	3.11	3110.4	regulate	Run2	regulate/STIM_023.jpg	100
1506.914	2.268	2267.8	regulate	Run2	regulate/STIM_023.jpg	99
1512.376	2.278	2277.5	regulate	Run2	regulate/STIM_023.jpg	100
1517.248	2.183	2183.1	regulate	Run2	regulate/STIM_024.jpg	99
1523.055	2.87	2870.1	regulate	Run2	regulate/STIM_024.jpg	99
1528.034	1.814	1813.6	regulate	Run2	regulate/STIM_024.jpg	99
1532.197	2.116	2116.3	regulate	Run2	regulate/STIM_024.jpg	99
1536.391	2.018	2018.5	regulate	Run2	regulate/STIM_025.jpg	99
1541.432	2.914	2913.7	regulate	Run2	regulate/STIM_025.jpg	99
1547.579	2.159	2159.3	regulate	Run2	regulate/STIM_025.jpg	100
1552.225	1.568	1568.3	regulate	Run2	regulate/STIM_025.jpg	100
1557.681	2.448	2448.3	regulate	Run2	regulate/STIM_026.jpg	99
1564.071	1.41	1409.7	regulate	Run2	regulate/STIM_026.jpg	99
1567.566	1.721	1721.2	regulate	Run2	regulate/STIM_026.jpg	100
1572.493	1.464	1464.1	regulate	Run2	regulate/STIM_026.jpg	99
1576.524	1.615	1614.8	regulate	Run2	regulate/STIM_027.jpg	100
1581.594	1.85	1850.5	regulate	Run2	regulate/STIM_027.jpg	99
1587.092	2.073	2073.4	regulate	Run2	regulate/STIM_027.jpg	99
1592.267	2.492	2491.7	regulate	Run2	regulate/STIM_027.jpg	99
1598.591	2.018	2018.0	regulate	Run2	regulate/STIM_028.jpg	100
1604.177	1.384	1383.5	regulate	Run2	regulate/STIM_028.jpg	100
1608.266	1.764	1764.0	regulate	Run2	regulate/STIM_028.jpg	100
1612.101	2.116	2115.8	regulate	Run2	regulate/STIM_028.jpg	99
1617.447	3.315	3314.9	regulate	Run2	regulate/STIM_029.jpg	99
1622.861	1.583	1583.0	regulate	Run2	regulate/STIM_029.jpg	100
1628.33	2.659	2658.8	regulate	Run2	regulate/STIM_029.jpg	100
1634.259	2.679	2678.9	regulate	Run2	regulate/STIM_029.jpg	99
1640.063	1.593	1592.8	observe	Run2	observe/STIM_000.jpg	99
1645.159	1.293	1293.0	observe	Run2	observe/STIM_000.jpg	99
1649.89	1.541	1540.7	observe	Run2	observe/STIM_000.jpg	99
1654.122	1.687	1686.7	observe	Run2	observe/STIM_000.jpg	100
1659.419	1.574	1574.3	observe	Run2	observe/STIM_001.jpg	99
1663.217	1.054	1053.8	observe	Run2	observe/STIM_001.jpg	99
1667.924	1.126	1125.6	observe	Run2	observe/STIM_001.jpg	100
1671.881	1.283	1282.8	observe	Run2	observe/STIM_001.jpg	100
1676.335	1.513	1512.8	observe	Run2	observe/STIM_002.jpg	100
1680.987	1.784	1784.4	observe	Run2	observe/STIM_002.jpg	99
1685.36	1.09	1089.8	observe	Run2	observe/STIM_002.jpg	100
1689.563	0.913	913.4	observe	Run2	observe/STIM_002.jpg	100
1692.593	1.429	1429.1	observe	Run2	observe/STIM_003.jpg	100
1697.993	1.446	1445.7	observe	Run2	observe/STIM_003.jpg	100
1702.994	1.534	1534.3	observe	Run2	observe/STIM_003.jpg	99
1708.328	1.806	1805.6	observe	Run2	observe/STIM_003.jpg	100
1714.069	1.075	1075.1	observe	Run2	observe/STIM_004.jpg	100
1718.213	1.638	1637.8	observe	Run2	observe/STIM_004.jpg	100
1723.502	1.446	1445.5	observe	Run2	observe/STIM_004.jpg	100
1727.805	1.067	1067.3	observe	Run2	observe/STIM_004.jpg	100
1731.136	1.177	1176.8	observe	Run2	observe/STIM_005.jpg	100
1734.848	1.113	1113.0	observe	Run2	observe/STIM_005.jpg	99
1739.643	0.923	922.8	observe	Run2	observe/STIM_005.jpg	100
1742.935	1.626	1625.6	observe	Run2	observe/STIM_005.jpg	99
1747.996	1.454	1453.9	observe	Run2	observe/STIM_006.jpg	100
1752.902	1.397	1396.9	observe	Run2	observe/STIM_006.jpg	100
1756.53	1.384	1383.9	observe	Run2	observe/STIM_006.jpg	100
1761.736	1.798	1798.5	observe	Run2	observe/STIM_006.jpg	99
1766.866	1.163	1163.4	observe	Run2	observe/STIM_007.jpg	99
1771.097	1.633	1633.2	observe	Run2	observe/STIM_007.jpg	100
1774.987	1.621	1621.3	observe	Run2	observe/STIM_007.jpg	99
1779.922	1.585	1585.3	observe	Run2	observe/STIM_007.jpg	99
1784.173	1.133	1133.4	observe	Run2	observe/STIM_008.jpg	100
1787.313	1.307	1306.7	observe	Run2	observe/STIM_008.jpg	100
1792.481	1.625	1625.3	observe	Run2	observe/STIM_008.jpg	99
1797.916	1.409	1408.6	observe	Run2	observe/STIM_008.jpg	100
1803.161	1.674	1674.5	observe	Run2	observe/STIM_009.jpg	100
1807.664	1.591	1591.0	observe	Run2	observe/STIM_009.jpg	99
1811.638	1.75	1749.6	observe	Run2	observe/STIM_009.jpg	99
1815.851	1.126	1126.5	observe	Run2	observe/STIM_009.jpg	100
1819.402	1.325	1325.3	observe	Run2	observe/STIM_010.jpg	100
1822.775	0.928	928.0	observe	Run2	observe/STIM_010.jpg	99
1826.904	1.397	1397.4	observe	Run2	observe/STIM_010.jpg	100
1832.238	1.125	1124.7	observe	Run2	observe/STIM_010.jpg	100
1836.06	1.802	1802.2	observe	Run2	observe/STIM_011.jpg	100
1841.395	1.638	1638.0	observe	Run2	observe/STIM_011.jpg	100
1846.764	1.451	1451.2	observe	Run2	observe/STIM_011.jpg	99
1850.622	1.228	1227.8	observe	Run2	observe/STIM_011.jpg	99
1855.819	1.739	1739.0	observe	Run2	observe/STIM_012.jpg	100
1860.682	1.005	1005.1	observe	Run2	observe/STIM_012.jpg	100
1864.376	1.206	1206.0	observe	Run2	observe/STIM_012.jpg	100
1868.212	1.225	1225.1	observe	Run2	observe/STIM_012.jpg	99
1872.39	1.801	1801.0	observe	Run2	observe/STIM_013.jpg	99
1877.034	1.261	1260.7	observe	Run2	observe/STIM_013.jpg	99
1881.093	1.757	1757.1	observe	Run2	observe/STIM_013.jpg	99
1886.027	0.959	959.2	observe	Run2	observe/STIM_013.jpg	100
1890.284	1.415	1414.9	observe	Run2	observe/STIM_014.jpg	100
1895.232	1.112	1112.2	observe	Run2	observe/STIM_014.jpg	99
1899.122	1.035	1035.4	observe	Run2	observe/STIM_014.jpg	99
1902.521	1.099	1098.6	observe	Run2	observe/STIM_014.jpg	100
1907.212	1.659	1659.2	observe	Run2	observe/STIM_015.jpg	99
1911.021	1.3	1300.5	observe	Run2	observe/STIM_015.jpg	100
1915.422	1.468	1467.9	observe	Run2	observe/STIM_015.jpg	99
1920.766	1.046	1045.9	observe	Run2	observe/STIM_015.jpg	100
1924.156	1.127	1126.8	observe	Run2	observe/STIM_016.jpg	100
1928.629	1.554	1554.0	observe	Run2	observe/STIM_016.jpg	100
1932.458	1.617	1616.9	observe	Run2	observe/STIM_016.jpg	99
1936.572	1.733	1733.4	observe	Run2	observe/STIM_016.jpg	100
1940.716	1.674	1673.5	observe	Run2	observe/STIM_017.jpg	100
1945.819	1.113	1112.9	observe	Run2	observe/STIM_017.jpg	100
1948.999	1.454	1454.2	observe	Run2	observe/STIM_017.jpg	100
1954.38	1.73	1730.5	observe	Run2	observe/STIM_017.jpg	99
1959.281	0.965	965.1	observe	Run2	observe/STIM_018.jpg	99
1963.016	1.134	1133.8	observe	Run2	observe/STIM_018.jpg	99
1966.337	0.939	938.9	observe	Run2	observe/STIM_018.jpg	99
1970.032	1.306	1305.7	observe	Run2	observe/STIM_018.jpg	100
1973.897	0.958	957.8	observe	Run2	observe/STIM_019.jpg	100
1978.822	1.275	1274.7	observe	Run2	observe/STIM_019.jpg	99
1983.063	1.452	1451.9	observe	Run2	observe/STIM_019.jpg	100
1987.99	1.495	1494.8	observe	Run2	observe/STIM_019.jpg	99
1993.066	1.873	1872.6	regulate	Run3	regulate/STIM_000.jpg	99
1998.939	1.637	1637.4	regulate	Run3	regulate/STIM_000.jpg	100
2003.452	2.336	2335.6	regulate	Run3	regulate/STIM_000.jpg	99
2007.914	2.697	2697.4	regulate	Run3	regulate/STIM_000.jpg	99
2013.665	2.047	2046.7	regulate	Run3	regulate/STIM_001.jpg	100
2018.222	2.387	2387.1	regulate	Run3	regulate/STIM_001.jpg	100
2023.714	2.497	2497.1	regulate	Run3	regulate/STIM_001.jpg	100
2028.613	2.393	2392.8	regulate	Run3	regulate/STIM_001.jpg	100
2033.599	1.85	1850.5	regulate	Run3	regulate/STIM_002.jpg	99
2039.09	1.252	1251.5	regulate	Run3	regulate/STIM_002.jpg	99
2042.651	2.001	2000.9	regulate	Run3	regulate/STIM_002.jpg	100
2047.657	2.52	2520.0	regulate	Run3	regulate/STIM_002.jpg	100
2054.139	1.824	1823.9	regulate	Run3	regulate/STIM_003.jpg	99
2058.988	1.478	1478.1	regulate	Run3	regulate/STIM_003.jpg	100
2064.0	1.32	1319.5	regulate	Run3	regulate/STIM_003.jpg	100
2068.124	1.5	1500.0	regulate	Run3	regulate/STIM_003.jpg	100
2072.42	2.618	2618.3	regulate	Run3	regulate/STIM_004.jpg	99
2078.759	2.628	2627.8	regulate	Run3	regulate/STIM_004.jpg	100
2084.823	2.269	2269.3	regulate	Run3	regulate/STIM_004.jpg	99
2090.792	1.697	1696.6	regulate	Run3	regulate/STIM_004.jpg	99
2094.906	1.287	1287.3	regulate	Run3	regulate/STIM_005.jpg	99
2099.83	2.064	2063.7	regulate	Run3	regulate/STIM_005.jpg	99
2105.276	1.251	1251.4	regulate	Run3	regulate/STIM_005.jpg	99
2110.453	1.96	1959.5	regulate	Run3	regulate/STIM_005.jpg	99
2114.719	2.298	2298.1	regulate	Run3	regulate/STIM_006.jpg	100
2119.176	2.521	2521.2	regulate	Run3	regulate/STIM_006.jpg	99
2124.542	1.483	1482.9	regulate	Run3	regulate/STIM_006.jpg	99
2128.788	2.387	2387.0	regulate	Run3	regulate/STIM_006.jpg	99
2133.195	2.413	2412.8	regulate	Run3	regulate/STIM_007.jpg	99
2138.332	1.672	1671.9	regulate	Run3	regulate/STIM_007.jpg	100
2142.823	1.516	1515.5	regulate	Run3	regulate/STIM_007.jpg	99
2148.254	2.538	2538.4	regulate	Run3	regulate/STIM_007.jpg	99
2153.668	1.517	1516.7	regulate	Run3	regulate/STIM_008.jpg	99
2157.982	2.488	2487.8	regulate	Run3	regulate/STIM_008.jpg	99
2164.083	2.346	2345.5	regulate	Run3	regulate/STIM_008.jpg	100
2168.88	2.411	2411.2	regulate	Run3	regulate/STIM_008.jpg	100
2174.723	2.618	2618.1	regulate	Run3	regulate/STIM_009.jpg	100
2180.58	1.931	1931.0	regulate	Run3	regulate/STIM_009.jpg	100
2186.205	2.536	2536.4	regulate	Run3	regulate/STIM_009.jpg	100
2191.468	1.539	1538.8	regulate	Run3	regulate/STIM_009.jpg	100
2196.039	1.841	1841.0	regulate	Run3	regulate/STIM_010.jpg	100
2201.833	2.163	2163.3	regulate	Run3	regulate/STIM_010.jpg	99
2207.102	2.247	2246.7	regulate	Run3	regulate/STIM_010.jpg	99
2212.881	2.488	2488.0	regulate	Run3	regulate/STIM_010.jpg	99
2217.898	1.441	1440.6	regulate	Run3	regulate/STIM_011.jpg	100
2221.978	2.557	2557.3	regulate	Run3	regulate/STIM_011.jpg	100
2228.003	1.897	1896.7	regulate	Run3	regulate/STIM_011.jpg	99
2232.399	2.332	2331.8	regulate	Run3	regulate/STIM_011.jpg	100
2237.301	2.231	2231.3	regulate	Run3	regulate/STIM_012.jpg	99
2243.018	1.457	1456.7	regulate	Run3	regulate/STIM_012.jpg	99
2248.353	2.567	2566.8	regulate	Run3	regulate/STIM_012.jpg	99
2253.994	2.05	2050.1	regulate	Run3	regulate/STIM_012.jpg	99
2259.612	1.835	1835.3	regulate	Run3	regulate/STIM_013.jpg	99
2265.035	1.944	1944.1	regulate	Run3	regulate/STIM_013.jpg	100
2270.392	2.234	2233.9	regulate	Run3	regulate/STIM_013.jpg	99
2276.514	1.516	1515.7	regulate	Run3	regulate/STIM_013.jpg	99
2281.49	1.643	1643.1	regulate	Run3	regulate/STIM_014.jpg	99
2285.362	2.25	2250.0	regulate	Run3	regulate/STIM_014.jpg	99
2290.615	1.821	1820.6	regulate	Run3	regulate/STIM_014.jpg	100
2295.63	1.922	1921.5	regulate	Run3	regulate/STIM_014.jpg	100
2301.219	1.868	1867.7	regulate	Run3	regulate/STIM_015.jpg	99
2306.137	2.363	2363.4	regulate	Run3	regulate/STIM_015.jpg	100
2312.147	2.158	2157.7	regulate	Run3	regulate/STIM_015.jpg	100
2317.397	2.681	2680.9	regulate	Run3	regulate/STIM_015.jpg	100
2323.102	2.487	2487.1	regulate	Run3	regulate/STIM_016.jpg	99
2329.286	1.677	1677.2	regulate	Run3	regulate/STIM_016.jpg	99
2334.127	1.767	1766.6	regulate	Run3	regulate/STIM_016.jpg	99
2339.183	1.572	1571.9	regulate	Run3	regulate/STIM_016.jpg	100
2343.561	2.275	2275.4	regulate	Run3	regulate/STIM_017.jpg	100
2348.021	1.202	1202.0	regulate	Run3	regulate/STIM_017.jpg	99
2351.396	2.606	2605.7	regulate	Run3	regulate/STIM_017.jpg	100
2357.706	1.431	1430.9	regulate	Run3	regulate/STIM_017.jpg	99
2361.23	1.653	1653.0	regulate	Run3	regulate/STIM_018.jpg	100
2365.185	1.972	1971.9	regulate	Run3	regulate/STIM_018.jpg	100
2369.744	1.22	1220.0	regulate	Run3	regulate/STIM_018.jpg	100
2373.711	1.616	1616.0	regulate	Run3	regulate/STIM_018.jpg	99
2377.611	1.952	1951.6	regulate	Run3	regulate/STIM_019.jpg	99
2382.658	2.109	2109.4	regulate	Run3	regulate/STIM_019.jpg	100
2387.311	1.5	1499.6	regulate	Run3	regulate/STIM_019.jpg	100
2392.059	1.462	1461.8	regulate	Run3	regulate/STIM_019.jpg	99
2397.033	1.634	1633.9	regulate	Run3	regulate/STIM_020.jpg	99
2401.664	2.306	2306.2	regulate	Run3	regulate/STIM_020.jpg	99
2406.922	1.23	1230.1	regulate	Run3	regulate/STIM_020.jpg	100
2410.411	2.408	2408.3	regulate	Run3	regulate/STIM_020.jpg	100
2415.057	2.408	2408.0	regulate	Run3	regulate/STIM_021.jpg	100
2420.887	2.559	2559.1	regulate	Run3	regulate/STIM_021.jpg	100
2427.175	1.896	1896.3	regulate	Run3	regulate/STIM_021.jpg	100
2433.052	1.465	1465.0	regulate	Run3	regulate/STIM_021.jpg	99
2437.232	2.534	2533.6	regulate	Run3	regulate/STIM_022.jpg	100
2443.519	1.536	1536.3	regulate	Run3	regulate/STIM_022.jpg	99
2448.866	2.339	2339.2	regulate	Run3	regulate/STIM_022.jpg	99
2454.019	2.322	2321.8	regulate	Run3	regulate/STIM_022.jpg	100
2458.69	2.735	2734.7	regulate	Run3	regulate/STIM_023.jpg	99
2464.2	1.785	1784.8	regulate	Run3	regulate/STIM_023.jpg	99
2468.093	1.973	1972.8	regulate	Run3	regulate/STIM_023.jpg	100
2473.565	2.325	2325.0	regulate	Run3	regulate/STIM_023.jpg	100
2478.369	1.527	1526.7	regulate	Run3	regulate/STIM_024.jpg	100
2481.99	2.654	2653.7	regulate	Run3	regulate/STIM_024.jpg	100
2488.219	2.692	2692.4	regulate	Run3	regulate/STIM_024.jpg	99
2493.069	1.858	1858.3	regulate	Run3	regulate/STIM_024.jpg	99
2498.465	1.364	1363.5	regulate	Run3	regulate/STIM_025.jpg	100
2503.316	2.58	2580.3	regulate	Run3	regulate/STIM_025.jpg	100
2508.945	1.405	1404.6	regulate	Run3	regulate/STIM_025.jpg	100
2513.686	2.429	2429.4	regulate	Run3	regulate/STIM_025.jpg	100
2519.751	1.892	1892.1	regulate	Run3	regulate/STIM_026.jpg	100
2524.458	1.72	1719.5	regulate	Run3	regulate/STIM_026.jpg	99
2530.041	1.223	1223.1	regulate	Run3	regulate/STIM_026.jpg	99
2533.391	2.647	2646.6	regulate	Run3	regulate/STIM_026.jpg	99
2539.157	1.512	1512.0	regulate	Run3	regulate/STIM_027.jpg	100
2544.201	1.207	1207.2	regulate	Run3	regulate/STIM_027.jpg	100
2548.029	2.634	2633.8	regulate	Run3	regulate/STIM_027.jpg	100
2554.308	1.721	1720.6	regulate	Run3	regulate/STIM_027.jpg	99
2559.009	1.232	1232.4	regulate	Run3	regulate/STIM_028.jpg	100
2563.953	2.061	2060.7	regulate	Run3	regulate/STIM_028.jpg	99
2569.052	2.086	2085.5	regulate	Run3	regulate/STIM_028.jpg	99
2574.285	2.471	2470.9	regulate	Run3	regulate/STIM_028.jpg	99
2580.732	2.71	2709.6	regulate	Run3	regulate/STIM_029.jpg	99
2586.737	1.758	1758.2	regulate	Run3	regulate/STIM_029.jpg	100
2592.407	2.422	2421.6	regulate	Run3	regulate/STIM_029.jpg	100
2597.34	1.495	1494.6	regulate	Run3	regulate/STIM_029.jpg	99
2602.685	1.447	1446.9	observe	Run3	observe/STIM_000.jpg	100
2606.986	1.75	1749.8	observe	Run3	observe/STIM_000.jpg	100
2611.76	1.43	1430.5	observe	Run3	observe/STIM_000.jpg	99
2616.743	1.344	1343.5	observe	Run3	observe/STIM_000.jpg	100
2621.312	1.283	1283.1	observe	Run3	observe/STIM_001.jpg	100
2625.645	1.272	1272.0	observe	Run3	observe/STIM_001.jpg	100
2629.505	1.76	1760.2	observe	Run3	observe/STIM_001.jpg	99
2634.44	1.556	1555.6	observe	Run3	observe/STIM_001.jpg	99
2638.939	1.277	1277.0	observe	Run3	observe/STIM_002.jpg	99
2642.381	1.354	1354.3	observe	Run3	observe/STIM_002.jpg	99
2646.408	1.474	1473.9	observe	Run3	observe/STIM_002.jpg	99
2650.808	1.27	1269.7	observe	Run3	observe/STIM_002.jpg	100
2655.673	1.742	1742.2	observe	Run3	observe/STIM_003.jpg	100
2660.957	1.754	1754.1	observe	Run3	observe/STIM_003.jpg	100
2664.793	1.001	1000.6	observe	Run3	observe/STIM_003.jpg	100
2668.423	1.482	1482.3	observe	Run3	observe/STIM_003.jpg	99
2673.838	1.616	1615.6	observe	Run3	observe/STIM_004.jpg	99
2678.521	1.721	1720.6	observe	Run3	observe/STIM_004.jpg	100
2683.429	1.74	1740.0	observe	Run3	observe/STIM_004.jpg	99
2688.383	1.583	1583.0	observe	Run3	observe/STIM_004.jpg	99
2693.531	1.28	1279.7	observe	Run3	observe/STIM_005.jpg	99
2697.498	0.95	949.5	observe	Run3	observe/STIM_005.jpg	100
2701.814	1.478	1477.7	observe	Run3	observe/STIM_005.jpg	100
2706.539	1.381	1381.1	observe	Run3	observe/STIM_005.jpg	100
2711.119	1.583	1582.7	observe	Run3	observe/STIM_006.jpg	100
2715.39	0.996	996.0	observe	Run3	observe/STIM_006.jpg	100
2718.593	0.946	945.8	observe	Run3	observe/STIM_006.jpg	100
2723.334	1.164	1163.5	observe	Run3	observe/STIM_006.jpg	100
2727.288	1.708	1708.3	observe	Run3	observe/STIM_007.jpg	99
2732.07	1.286	1286.4	observe	Run3	observe/STIM_007.jpg	99
2736.253	1.72	1719.9	observe	Run3	observe/STIM_007.jpg	100
2740.987	1.559	1559.3	observe	Run3	observe/STIM_007.jpg	99
2746.382	1.145	1144.9	observe	Run3	observe/STIM_008.jpg	100
2750.607	1.369	1369.1	observe	Run3	observe/STIM_008.jpg	100
2755.174	1.088	1088.0	observe	Run3	observe/STIM_008.jpg	99
2759.205	1.388	1387.9	observe	Run3	observe/STIM_008.jpg	100
2763.359	1.228	1228.3	observe	Run3	observe/STIM_009.jpg	99
2767.021	1.692	1691.5	observe	Run3	observe/STIM_009.jpg	99
2771.534	1.73	1730.1	observe	Run3	observe/STIM_009.jpg	100
2775.276	1.446	1445.8	observe	Run3	observe/STIM_009.jpg	100
2780.208	1.321	1320.6	observe	Run3	observe/STIM_010.jpg	99
2785.047	1.433	1433.4	observe	Run3	observe/STIM_010.jpg	99
2789.377	1.795	1795.0	observe	Run3	observe/STIM_010.jpg	99
2794.865	1.64	1640.0	observe	Run3	observe/STIM_010.jpg	99
2799.108	1.704	1704.0	observe	Run3	observe/STIM_011.jpg	100
2803.481	1.186	1185.6	observe	Run3	observe/STIM_011.jpg	100
2806.777	1.118	1117.5	observe	Run3	observe/STIM_011.jpg	99
2810.073	0.933	933.0	observe	Run3	observe/STIM_011.jpg	100
2814.293	1.405	1405.4	observe	Run3	observe/STIM_012.jpg	100
2818.823	1.644	1643.8	observe	Run3	observe/STIM_012.jpg	100
2823.726	0.937	937.3	observe	Run3	observe/STIM_012.jpg	100
2827.312	1.521	1520.9	observe	Run3	observe/STIM_012.jpg	99
2832.619	1.431	1431.4	observe	Run3	observe/STIM_013.jpg	99
2837.405	1.537	1537.4	observe	Run3	observe/STIM_013.jpg	100
2842.667	1.805	1805.1	observe	Run3	observe/STIM_013.jpg	99
2846.548	1.659	1659.3	observe	Run3	observe/STIM_013.jpg	100
2851.905	1.522	1521.6	observe	Run3	observe/STIM_014.jpg	99
2855.72	0.96	959.6	observe	Run3	observe/STIM_014.jpg	100
2860.316	1.449	1448.6	observe	Run3	observe/STIM_014.jpg	100
2864.524	0.928	927.6	observe	Run3	observe/STIM_014.jpg	99
2868.587	1.532	1532.2	observe	Run3	observe/STIM_015.jpg	99
2872.544	1.798	1798.1	observe	Run3	observe/STIM_015.jpg	100
2876.806	1.243	1242.9	observe	Run3	observe/STIM_015.jpg	99
2881.855	1.17	1170.3	observe	Run3	observe/STIM_015.jpg	99
2885.764	1.721	1721.3	observe	Run3	observe/STIM_016.jpg	99
2891.448	1.616	1616.1	observe	Run3	observe/STIM_016.jpg	100
2896.541	1.796	1796.4	observe	Run3	observe/STIM_016.jpg	99
2900.846	1.027	1026.6	observe	Run3	observe/STIM_016.jpg	100
2905.574	1.102	1101.8	observe	Run3	observe/STIM_017.jpg	100
2910.323	0.933	932.8	observe	Run3	observe/STIM_017.jpg	100
2915.132	1.068	1068.1	observe	Run3	observe/STIM_017.jpg	99
2920.111	1.092	1091.5	observe	Run3	observe/STIM_017.jpg	99
2925.167	1.718	1718.0	observe	Run3	observe/STIM_018.jpg	100
2929.473	0.97	970.4	observe	Run3	observe/STIM_018.jpg	99
2934.292	1.663	1663.4	observe	Run3	observe/STIM_018.jpg	99
2939.238	0.92	920.0	observe	Run3	observe/STIM_018.jpg	99
2943.534	1.328	1327.7	observe	Run3	observe/STIM_019.jpg	100
2948.771	1.136	1136.1	observe	Run3	observe/STIM_019.jpg	100
2953.374	1.296	1295.6	observe	Run3	observe/STIM_019.jpg	100
2958.599	1.579	1579.4	observe	Run3	observe/STIM_019.jpg	100
