onset	duration	accuracy	trial_type	learning_stage	stimulus
0.0	1.736	correct	regulate	Run1	regulate/STIM_000.jpg
5.588	2.228	correct	regulate	Run1	regulate/STIM_000.jpg
10.188	2.417	incorrect	regulate	Run1	regulate/STIM_000.jpg
16.227	2.408	correct	regulate	Run1	regulate/STIM_000.jpg
21.434	2.799	correct	regulate	Run1	regulate/STIM_001.jpg
27.968	2.282	incorrect	regulate	Run1	regulate/STIM_001.jpg
33.751	1.665	incorrect	regulate	Run1	regulate/STIM_001.jpg
39.542	1.72	correct	regulate	Run1	regulate/STIM_001.jpg
44.503	2.372	correct	regulate	Run1	regulate/STIM_002.jpg
50.065	2.463	correct	regulate	Run1	regulate/STIM_002.jpg
55.792	2.657	correct	regulate	Run1	regulate/STIM_002.jpg
62.168	1.173	correct	regulate	Run1	regulate/STIM_002.jpg
67.299	1.564	correct	regulate	Run1	regulate/STIM_003.jpg
71.474	2.887	correct	regulate	Run1	regulate/STIM_003.jpg
77.21	1.91	incorrect	regulate	Run1	regulate/STIM_003.jpg
82.919	2.0	correct	regulate	Run1	regulate/STIM_003.jpg
87.651	2.477	correct	regulate	Run1	regulate/STIM_004.jpg
92.664	1.935	incorrect	regulate	Run1	regulate/STIM_004.jpg
98.562	2.389	correct	regulate	Run1	regulate/STIM_004.jpg
104.591	2.064	correct	regulate	Run1	regulate/STIM_004.jpg
109.727	2.69	incorrect	regulate	Run1	regulate/STIM_005.jpg
115.202	2.334	correct	regulate	Run1	regulate/STIM_005.jpg
120.818	2.312	incorrect	regulate	Run1	regulate/STIM_005.jpg
127.433	1.777	correct	regulate	Run1	regulate/STIM_005.jpg
132.992	2.15	correct	regulate	Run1	regulate/STIM_006.jpg
138.589	1.468	incorrect	regulate	Run1	regulate/STIM_006.jpg
142.356	1.672	correct	regulate	Run1	regulate/STIM_006.jpg
146.891	1.812	correct	regulate	Run1	regulate/STIM_006.jpg
152.864	2.959	correct	regulate	Run1	regulate/STIM_007.jpg
158.451	2.344	correct	regulate	Run1	regulate/STIM_007.jpg
163.535	1.91	incorrect	regulate	Run1	regulate/STIM_007.jpg
169.439	2.431	correct	regulate	Run1	regulate/STIM_007.jpg
176.11	1.536	incorrect	regulate	Run1	regulate/STIM_008.jpg
181.032	2.019	correct	regulate	Run1	regulate/STIM_008.jpg
186.186	1.229	correct	regulate	Run1	regulate/STIM_008.jpg
190.094	2.552	correct	regulate	Run1	regulate/STIM_008.jpg
195.673	2.586	correct	regulate	Run1	regulate/STIM_009.jpg
201.494	2.874	correct	regulate	Run1	regulate/STIM_009.jpg
207.104	1.349	correct	regulate	Run1	regulate/STIM_009.jpg
210.962	1.215	correct	regulate	Run1	regulate/STIM_009.jpg
214.465	2.004	incorrect	regulate	Run1	regulate/STIM_010.jpg
218.796	2.336	incorrect	regulate	Run1	regulate/STIM_010.jpg
225.042	1.503	correct	regulate	Run1	regulate/STIM_010.jpg
230.549	2.402	correct	regulate	Run1	regulate/STIM_010.jpg
236.392	1.984	incorrect	regulate	Run1	regulate/STIM_011.jpg
241.632	2.82	correct	regulate	Run1	regulate/STIM_011.jpg
248.264	1.907	correct	regulate	Run1	regulate/STIM_011.jpg
253.997	1.252	incorrect	regulate	Run1	regulate/STIM_011.jpg
258.247	1.452	correct	regulate	Run1	regulate/STIM_012.jpg
262.003	2.811	correct	regulate	Run1	regulate/STIM_012.jpg
267.886	1.368	correct	regulate	Run1	regulate/STIM_012.jpg
272.277	2.547	correct	regulate	Run1	regulate/STIM_012.jpg
278.731	2.202	correct	regulate	Run1	regulate/STIM_013.jpg
283.407	2.313	correct	regulate	Run1	regulate/STIM_013.jpg
288.908	2.302	correct	regulate	Run1	regulate/STIM_013.jpg
295.465	1.234	correct	regulate	Run1	regulate/STIM_013.jpg
300.595	2.709	correct	regulate	Run1	regulate/STIM_014.jpg
307.044	1.742	correct	regulate	Run1	regulate/STIM_014.jpg
312.067	1.337	correct	regulate	Run1	regulate/STIM_014.jpg
316.374	1.813	correct	regulate	Run1	regulate/STIM_014.jpg
321.128	2.224	correct	regulate	Run1	regulate/STIM_015.jpg
327.316	2.714	correct	regulate	Run1	regulate/STIM_015.jpg
334.225	1.699	correct	regulate	Run1	regulate/STIM_015.jpg
340.122	1.512	correct	regulate	Run1	regulate/STIM_015.jpg
345.651	2.686	correct	regulate	Run1	regulate/STIM_016.jpg
350.934	2.297	incorrect	regulate	Run1	regulate/STIM_016.jpg
357.541	1.553	incorrect	regulate	Run1	regulate/STIM_016.jpg
362.172	1.822	correct	regulate	Run1	regulate/STIM_016.jpg
366.798	1.716	correct	regulate	Run1	regulate/STIM_017.jpg
372.747	2.808	correct	regulate	Run1	regulate/STIM_017.jpg
379.794	1.375	correct	regulate	Run1	regulate/STIM_017.jpg
384.406	1.213	incorrect	regulate	Run1	regulate/STIM_017.jpg
389.439	1.811	correct	regulate	Run1	regulate/STIM_018.jpg
393.799	2.724	incorrect	regulate	Run1	regulate/STIM_018.jpg
399.48	2.11	correct	regulate	Run1	regulate/STIM_018.jpg
404.695	1.532	correct	regulate	Run1	regulate/STIM_018.jpg
410.371	2.386	correct	regulate	Run1	regulate/STIM_019.jpg
415.552	2.571	incorrect	regulate	Run1	regulate/STIM_019.jpg
421.146	2.451	correct	regulate	Run1	regulate/STIM_019.jpg
427.704	2.226	correct	regulate	Run1	regulate/STIM_019.jpg
432.528	2.624	correct	regulate	Run1	regulate/STIM_020.jpg
438.13	2.453	correct	regulate	Run1	regulate/STIM_020.jpg
443.836	1.211	correct	regulate	Run1	regulate/STIM_020.jpg
449.075	2.179	correct	regulate	Run1	regulate/STIM_020.jpg
454.657	2.126	correct	regulate	Run1	regulate/STIM_021.jpg
460.844	1.491	correct	regulate	Run1	regulate/STIM_021.jpg
464.793	1.647	correct	regulate	Run1	regulate/STIM_021.jpg
469.434	1.795	incorrect	regulate	Run1	regulate/STIM_021.jpg
474.946	2.179	incorrect	regulate	Run1	regulate/STIM_022.jpg
480.473	2.277	correct	regulate	Run1	regulate/STIM_022.jpg
485.17	1.56	correct	regulate	Run1	regulate/STIM_022.jpg
490.566	1.88	correct	regulate	Run1	regulate/STIM_022.jpg
495.046	2.634	correct	regulate	Run1	regulate/STIM_023.jpg
501.955	1.957	correct	regulate	Run1	regulate/STIM_023.jpg
507.0	1.83	correct	regulate	Run1	regulate/STIM_023.jpg
512.747	1.534	correct	regulate	Run1	regulate/STIM_023.jpg
517.399	2.536	correct	regulate	Run1	regulate/STIM_024.jpg
524.237	1.666	incorrect	regulate	Run1	regulate/STIM_024.jpg
529.011	1.253	correct	regulate	Run1	regulate/STIM_024.jpg
534.14	1.354	correct	regulate	Run1	regulate/STIM_024.jpg
538.045	2.293	correct	regulate	Run1	regulate/STIM_025.jpg
544.318	2.782	correct	regulate	Run1	regulate/STIM_025.jpg
551.122	2.097	correct	regulate	Run1	regulate/STIM_025.jpg
555.998	1.505	incorrect	regulate	Run1	regulate/STIM_025.jpg
560.049	2.064	incorrect	regulate	Run1	regulate/STIM_026.jpg
565.676	2.793	correct	regulate	Run1	regulate/STIM_026.jpg
571.035	2.278	correct	regulate	Run1	regulate/STIM_026.jpg
577.147	2.31	correct	regulate	Run1	regulate/STIM_026.jpg
582.155	2.885	correct	regulate	Run1	regulate/STIM_027.jpg
588.336	1.868	correct	regulate	Run1	regulate/STIM_027.jpg
593.47	2.468	correct	regulate	Run1	regulate/STIM_027.jpg
599.272	1.606	correct	regulate	Run1	regulate/STIM_027.jpg
604.715	1.546	correct	regulate	Run1	regulate/STIM_028.jpg
609.416	2.764	correct	regulate	Run1	regulate/STIM_028.jpg
615.764	2.037	correct	regulate	Run1	regulate/STIM_028.jpg
620.181	2.197	correct	regulate	Run1	regulate/STIM_028.jpg
626.372	1.822	correct	regulate	Run1	regulate/STIM_029.jpg
632.001	2.527	correct	regulate	Run1	regulate/STIM_029.jpg
637.748	1.927	correct	regulate	Run1	regulate/STIM_029.jpg
642.54	1.703	incorrect	regulate	Run1	regulate/STIM_029.jpg
646.877	1.038	correct	observe	Run1	observe/STIM_000.jpg
651.763	0.768	correct	observe	Run1	observe/STIM_000.jpg
654.746	0.882	correct	observe	Run1	observe/STIM_000.jpg
658.554	0.956	correct	observe	Run1	observe/STIM_000.jpg
663.077	0.927	incorrect	observe	Run1	observe/STIM_001.jpg
667.313	0.71	correct	observe	Run1	observe/STIM_001.jpg
671.348	1.2	correct	observe	Run1	observe/STIM_001.jpg
676.186	1.347	correct	observe	Run1	observe/STIM_001.jpg
679.866	1.129	correct	observe	Run1	observe/STIM_002.jpg
684.596	1.186	correct	observe	Run1	observe/STIM_002.jpg
688.973	1.014	correct	observe	Run1	observe/STIM_002.jpg
693.155	1.29	incorrect	observe	Run1	observe/STIM_002.jpg
697.288	1.311	correct	observe	Run1	observe/STIM_003.jpg
702.667	0.794	correct	observe	Run1	observe/STIM_003.jpg
706.585	1.27	correct	observe	Run1	observe/STIM_003.jpg
710.447	1.142	correct	observe	Run1	observe/STIM_003.jpg
714.245	1.311	correct	observe	Run1	observe/STIM_004.jpg
718.407	1.153	correct	observe	Run1	observe/STIM_004.jpg
722.554	1.385	correct	observe	Run1	observe/STIM_004.jpg
727.532	0.809	correct	observe	Run1	observe/STIM_004.jpg
731.452	0.88	correct	observe	Run1	observe/STIM_005.jpg
735.486	1.227	incorrect	observe	Run1	observe/STIM_005.jpg
739.604	0.731	correct	observe	Run1	observe/STIM_005.jpg
743.485	1.076	correct	observe	Run1	observe/STIM_005.jpg
748.41	0.993	correct	observe	Run1	observe/STIM_006.jpg
752.958	0.791	correct	observe	Run1	observe/STIM_006.jpg
756.788	0.848	correct	observe	Run1	observe/STIM_006.jpg
760.558	0.932	correct	observe	Run1	observe/STIM_006.jpg
763.728	1.215	incorrect	observe	Run1	observe/STIM_007.jpg
768.349	1.072	correct	observe	Run1	observe/STIM_007.jpg
771.603	1.2	correct	observe	Run1	observe/STIM_007.jpg
776.112	0.961	correct	observe	Run1	observe/STIM_007.jpg
779.505	1.049	correct	observe	Run1	observe/STIM_008.jpg
783.191	0.723	correct	observe	Run1	observe/STIM_008.jpg
786.439	1.284	correct	observe	Run1	observe/STIM_008.jpg
791.88	0.854	correct	observe	Run1	observe/STIM_008.jpg
794.878	1.301	correct	observe	Run1	observe/STIM_009.jpg
798.38	0.815	correct	observe	Run1	observe/STIM_009.jpg
801.978	1.079	incorrect	observe	Run1	observe/STIM_009.jpg
806.18	1.148	correct	observe	Run1	observe/STIM_009.jpg
810.264	0.959	correct	observe	Run1	observe/STIM_010.jpg
813.822	0.82	correct	observe	Run1	observe/STIM_010.jpg
818.219	0.961	correct	observe	Run1	observe/STIM_010.jpg
821.436	1.049	correct	observe	Run1	observe/STIM_010.jpg
825.942	0.958	correct	observe	Run1	observe/STIM_011.jpg
830.163	1.37	correct	observe	Run1	observe/STIM_011.jpg
833.998	1.265	correct	observe	Run1	observe/STIM_011.jpg
837.52	0.83	incorrect	observe	Run1	observe/STIM_011.jpg
842.363	1.254	correct	observe	Run1	observe/STIM_012.jpg
847.198	0.825	correct	observe	Run1	observe/STIM_012.jpg
851.823	0.83	correct	observe	Run1	observe/STIM_012.jpg
855.275	1.07	correct	observe	Run1	observe/STIM_012.jpg
858.882	1.155	correct	observe	Run1	observe/STIM_013.jpg
862.795	0.828	correct	observe	Run1	observe/STIM_013.jpg
865.841	1.189	correct	observe	Run1	observe/STIM_013.jpg
870.148	0.835	correct	observe	Run1	observe/STIM_013.jpg
874.355	1.164	correct	observe	Run1	observe/STIM_014.jpg
877.864	0.701	correct	observe	Run1	observe/STIM_014.jpg
881.141	0.881	correct	observe	Run1	observe/STIM_014.jpg
885.573	0.843	correct	observe	Run1	observe/STIM_014.jpg
890.518	1.021	correct	observe	Run1	observe/STIM_015.jpg
895.634	1.082	correct	observe	Run1	observe/STIM_015.jpg
899.002	1.191	correct	observe	Run1	observe/STIM_015.jpg
904.252	1.253	correct	observe	Run1	observe/STIM_015.jpg
909.04	1.378	correct	observe	Run1	observe/STIM_016.jpg
913.8	1.056	correct	observe	Run1	observe/STIM_016.jpg
917.945	1.034	correct	observe	Run1	observe/STIM_016.jpg
921.552	1.234	incorrect	observe	Run1	observe/STIM_016.jpg
926.474	1.156	correct	observe	Run1	observe/STIM_017.jpg
930.086	0.924	correct	observe	Run1	observe/STIM_017.jpg
933.69	1.204	correct	observe	Run1	observe/STIM_017.jpg
938.073	1.247	correct	observe	Run1	observe/STIM_017.jpg
942.269	1.305	correct	observe	Run1	observe/STIM_018.jpg
947.751	1.101	correct	observe	Run1	observe/STIM_018.jpg
952.403	0.848	correct	observe	Run1	observe/STIM_018.jpg
956.619	0.756	correct	observe	Run1	observe/STIM_018.jpg
960.445	0.729	correct	observe	Run1	observe/STIM_019.jpg
964.939	1.388	correct	observe	Run1	observe/STIM_019.jpg
968.548	1.274	correct	observe	Run1	observe/STIM_019.jpg
972.335	0.934	correct	observe	Run1	observe/STIM_019.jpg
976.508	1.212	correct	regulate	Run2	regulate/STIM_000.jpg
981.637	2.393	correct	regulate	Run2	regulate/STIM_000.jpg
986.587	1.072	correct	regulate	Run2	regulate/STIM_000.jpg
991.641	1.667	correct	regulate	Run2	regulate/STIM_000.jpg
996.943	1.299	correct	regulate	Run2	regulate/STIM_001.jpg
1002.363	2.194	correct	regulate	Run2	regulate/STIM_001.jpg
1007.394	1.766	correct	regulate	Run2	regulate/STIM_001.jpg
1013.211	1.157	incorrect	regulate	Run2	regulate/STIM_001.jpg
1016.71	1.264	correct	regulate	Run2	regulate/STIM_002.jpg
1021.908	1.666	correct	regulate	Run2	regulate/STIM_002.jpg
1026.531	0.983	correct	regulate	Run2	regulate/STIM_002.jpg
1031.413	1.841	correct	regulate	Run2	regulate/STIM_002.jpg
1037.188	1.586	correct	regulate	Run2	regulate/STIM_003.jpg
1042.165	1.344	correct	regulate	Run2	regulate/STIM_003.jpg
1046.852	1.957	correct	regulate	Run2	regulate/STIM_003.jpg
1052.003	1.395	correct	regulate	Run2	regulate/STIM_003.jpg
1056.032	1.482	correct	regulate	Run2	regulate/STIM_004.jpg
1060.322	2.293	correct	regulate	Run2	regulate/STIM_004.jpg
1066.873	1.288	correct	regulate	Run2	regulate/STIM_004.jpg
1071.049	1.852	correct	regulate	Run2	regulate/STIM_004.jpg
1075.366	1.492	correct	regulate	Run2	regulate/STIM_005.jpg
1080.051	1.373	correct	regulate	Run2	regulate/STIM_005.jpg
1084.892	2.28	correct	regulate	Run2	regulate/STIM_005.jpg
1091.301	1.816	correct	regulate	Run2	regulate/STIM_005.jpg
1096.471	2.384	correct	regulate	Run2	regulate/STIM_006.jpg
1102.233	2.24	correct	regulate	Run2	regulate/STIM_006.jpg
1107.145	2.155	correct	regulate	Run2	regulate/STIM_006.jpg
1113.217	1.609	correct	regulate	Run2	regulate/STIM_006.jpg
1118.033	1.17	correct	regulate	Run2	regulate/STIM_007.jpg
1123.013	1.1	incorrect	regulate	Run2	regulate/STIM_007.jpg
1127.557	2.043	correct	regulate	Run2	regulate/STIM_007.jpg
1132.369	1.154	correct	regulate	Run2	regulate/STIM_007.jpg
1137.206	1.138	correct	regulate	Run2	regulate/STIM_008.jpg
1140.659	2.364	correct	regulate	Run2	regulate/STIM_008.jpg
1146.886	1.968	correct	regulate	Run2	regulate/STIM_008.jpg
1151.6	1.344	correct	regulate	Run2	regulate/STIM_008.jpg
1155.238	1.899	correct	regulate	Run2	regulate/STIM_009.jpg
1159.963	1.561	correct	regulate	Run2	regulate/STIM_009.jpg
1164.028	1.176	correct	regulate	Run2	regulate/STIM_009.jpg
1168.601	2.084	incorrect	regulate	Run2	regulate/STIM_009.jpg
1174.869	1.956	correct	regulate	Run2	regulate/STIM_010.jpg
1179.304	1.212	correct	regulate	Run2	regulate/STIM_010.jpg
1183.42	1.911	correct	regulate	Run2	regulate/STIM_010.jpg
1188.616	1.699	correct	regulate	Run2	regulate/STIM_010.jpg
1193.139	1.201	incorrect	regulate	Run2	regulate/STIM_011.jpg
1196.756	1.684	incorrect	regulate	Run2	regulate/STIM_011.jpg
1202.425	1.518	correct	regulate	Run2	regulate/STIM_011.jpg
1207.591	1.216	incorrect	regulate	Run2	regulate/STIM_011.jpg
1211.768	1.662	correct	regulate	Run2	regulate/STIM_012.jpg
1215.689	1.514	correct	regulate	Run2	regulate/STIM_012.jpg
1220.959	2.059	correct	regulate	Run2	regulate/STIM_012.jpg
1226.027	1.338	correct	regulate	Run2	regulate/STIM_012.jpg
1230.777	1.365	correct	regulate	Run2	regulate/STIM_013.jpg
1235.314	2.426	incorrect	regulate	Run2	regulate/STIM_013.jpg
1242.016	1.512	correct	regulate	Run2	regulate/STIM_013.jpg
1247.586	1.018	correct	regulate	Run2	regulate/STIM_013.jpg
1251.049	1.449	correct	regulate	Run2	regulate/STIM_014.jpg
1256.347	2.39	correct	regulate	Run2	regulate/STIM_014.jpg
1261.475	1.235	correct	regulate	Run2	regulate/STIM_014.jpg
1266.112	1.06	incorrect	regulate	Run2	regulate/STIM_014.jpg
1270.934	2.351	correct	regulate	Run2	regulate/STIM_015.jpg
1275.746	1.347	correct	regulate	Run2	regulate/STIM_015.jpg
1279.798	1.769	correct	regulate	Run2	regulate/STIM_015.jpg
1284.177	1.32	correct	regulate	Run2	regulate/STIM_015.jpg
1288.574	2.174	correct	regulate	Run2	regulate/STIM_016.jpg
1294.731	1.366	correct	regulate	Run2	regulate/STIM_016.jpg
1298.845	1.964	correct	regulate	Run2	regulate/STIM_016.jpg
1303.271	2.082	correct	regulate	Run2	regulate/STIM_016.jpg
1309.251	2.384	correct	regulate	Run2	regulate/STIM_017.jpg
1315.769	1.413	correct	regulate	Run2	regulate/STIM_017.jpg
1320.831	1.952	correct	regulate	Run2	regulate/STIM_017.jpg
1325.87	0.982	correct	regulate	Run2	regulate/STIM_017.jpg
1329.525	1.462	correct	regulate	Run2	regulate/STIM_018.jpg
1333.383	1.272	correct	regulate	Run2	regulate/STIM_018.jpg
1337.274	1.36	correct	regulate	Run2	regulate/STIM_018.jpg
1342.414	1.146	incorrect	regulate	Run2	regulate/STIM_018.jpg
1347.495	1.173	correct	regulate	Run2	regulate/STIM_019.jpg
1352.686	1.669	correct	regulate	Run2	regulate/STIM_019.jpg
1356.746	1.09	correct	regulate	Run2	regulate/STIM_019.jpg
1361.978	2.038	correct	regulate	Run2	regulate/STIM_019.jpg
1367.709	1.477	correct	regulate	Run2	regulate/STIM_020.jpg
1372.835	1.083	correct	regulate	Run2	regulate/STIM_020.jpg
1376.322	1.823	correct	regulate	Run2	regulate/STIM_020.jpg
1381.736	1.825	correct	regulate	Run2	regulate/STIM_020.jpg
1386.566	1.923	incorrect	regulate	Run2	regulate/STIM_021.jpg
1390.93	1.67	correct	regulate	Run2	regulate/STIM_021.jpg
1396.121	1.774	correct	regulate	Run2	regulate/STIM_021.jpg
1400.696	0.978	correct	regulate	Run2	regulate/STIM_021.jpg
1404.564	2.21	correct	regulate	Run2	regulate/STIM_022.jpg
1410.287	1.456	correct	regulate	Run2	regulate/STIM_022.jpg
1415.298	2.28	correct	regulate	Run2	regulate/STIM_022.jpg
1420.355	1.684	correct	regulate	Run2	regulate/STIM_022.jpg
1425.221	1.463	correct	regulate	Run2	regulate/STIM_023.jpg
1429.02	1.984	correct	regulate	Run2	regulate/STIM_023.jpg
1434.088	1.498	correct	regulate	Run2	regulate/STIM_023.jpg
1438.806	1.356	correct	regulate	Run2	regulate/STIM_023.jpg
1443.34	1.149	correct	regulate	Run2	regulate/STIM_024.jpg
1448.277	1.274	correct	regulate	Run2	regulate/STIM_024.jpg
1452.411	1.331	correct	regulate	Run2	regulate/STIM_024.jpg
1457.733	1.257	correct	regulate	Run2	regulate/STIM_024.jpg
1462.2	1.32	correct	regulate	Run2	regulate/STIM_025.jpg
1467.634	1.732	correct	regulate	Run2	regulate/STIM_025.jpg
1471.944	1.587	correct	regulate	Run2	regulate/STIM_025.jpg
1476.446	1.498	correct	regulate	Run2	regulate/STIM_025.jpg
1482.133	1.273	incorrect	regulate	Run2	regulate/STIM_026.jpg
1487.587	2.018	correct	regulate	Run2	regulate/STIM_026.jpg
1493.166	1.006	correct	regulate	Run2	regulate/STIM_026.jpg
1496.802	1.596	correct	regulate	Run2	regulate/STIM_026.jpg
1502.415	2.283	incorrect	regulate	Run2	regulate/STIM_027.jpg
1508.871	2.24	correct	regulate	Run2	regulate/STIM_027.jpg
1513.743	1.993	correct	regulate	Run2	regulate/STIM_027.jpg
1520.031	1.852	correct	regulate	Run2	regulate/STIM_027.jpg
1525.346	2.104	incorrect	regulate	Run2	regulate/STIM_028.jpg
1530.71	1.132	correct	regulate	Run2	regulate/STIM_028.jpg
1535.096	1.198	correct	regulate	Run2	regulate/STIM_028.jpg
1539.911	1.553	correct	regulate	Run2	regulate/STIM_028.jpg
1544.967	1.319	correct	regulate	Run2	regulate/STIM_029.jpg
1550.112	1.302	correct	regulate	Run2	regulate/STIM_029.jpg
1554.599	2.226	correct	regulate	Run2	regulate/STIM_029.jpg
1559.395	1.8	correct	regulate	Run2	regulate/STIM_029.jpg
1563.47	1.1	correct	observe	Run2	observe/STIM_000.jpg
1566.979	1.004	correct	observe	Run2	observe/STIM_000.jpg
1571.728	0.713	correct	observe	Run2	observe/STIM_000.jpg
1574.884	1.343	correct	observe	Run2	observe/STIM_000.jpg
1579.146	1.135	correct	observe	Run2	observe/STIM_001.jpg
1583.454	1.364	correct	observe	Run2	observe/STIM_001.jpg
1588.677	0.988	correct	observe	Run2	observe/STIM_001.jpg
1593.386	0.894	incorrect	observe	Run2	observe/STIM_001.jpg
1597.277	0.969	correct	observe	Run2	observe/STIM_002.jpg
1601.883	0.843	correct	observe	Run2	observe/STIM_002.jpg
1605.459	1.346	incorrect	observe	Run2	observe/STIM_002.jpg
1609.427	0.732	correct	observe	Run2	observe/STIM_002.jpg
1613.334	0.752	correct	observe	Run2	observe/STIM_003.jpg
1616.927	0.904	incorrect	observe	Run2	observe/STIM_003.jpg
1620.154	1.189	correct	observe	Run2	observe/STIM_003.jpg
1624.788	0.999	correct	observe	Run2	observe/STIM_003.jpg
1628.247	1.351	correct	observe	Run2	observe/STIM_004.jpg
1631.834	1.377	correct	observe	Run2	observe/STIM_004.jpg
1636.135	0.788	correct	observe	Run2	observe/STIM_004.jpg
1640.641	0.856	correct	observe	Run2	observe/STIM_004.jpg
1644.069	0.717	correct	observe	Run2	observe/STIM_005.jpg
1647.925	0.92	correct	observe	Run2	observe/STIM_005.jpg
1651.473	1.156	correct	observe	Run2	observe/STIM_005.jpg
1656.606	1.28	correct	observe	Run2	observe/STIM_005.jpg
1661.906	0.816	correct	observe	Run2	observe/STIM_006.jpg
1665.258	0.857	correct	observe	Run2	observe/STIM_006.jpg
1668.681	1.102	incorrect	observe	Run2	observe/STIM_006.jpg
1673.724	1.018	correct	observe	Run2	observe/STIM_006.jpg
1677.47	0.767	correct	observe	Run2	observe/STIM_007.jpg
1682.241	0.708	correct	observe	Run2	observe/STIM_007.jpg
1686.51	1.158	correct	observe	Run2	observe/STIM_007.jpg
1690.871	1.118	incorrect	observe	Run2	observe/STIM_007.jpg
1696.099	0.71	correct	observe	Run2	observe/STIM_008.jpg
1699.139	1.199	correct	observe	Run2	observe/STIM_008.jpg
1702.771	1.206	correct	observe	Run2	observe/STIM_008.jpg
1708.152	1.097	correct	observe	Run2	observe/STIM_008.jpg
1711.917	1.38	correct	observe	Run2	observe/STIM_009.jpg
1715.815	1.369	correct	observe	Run2	observe/STIM_009.jpg
1719.672	0.925	correct	observe	Run2	observe/STIM_009.jpg
1723.291	0.933	incorrect	observe	Run2	observe/STIM_009.jpg
1726.491	1.329	correct	observe	Run2	observe/STIM_010.jpg
1731.23	1.3	correct	observe	Run2	observe/STIM_010.jpg
1734.768	1.05	correct	observe	Run2	observe/STIM_010.jpg
1739.522	1.176	correct	observe	Run2	observe/STIM_010.jpg
1744.317	1.223	correct	observe	Run2	observe/STIM_011.jpg
1748.992	0.959	correct	observe	Run2	observe/STIM_011.jpg
1752.482	0.748	correct	observe	Run2	observe/STIM_011.jpg
1757.026	0.699	correct	observe	Run2	observe/STIM_011.jpg
1760.76	0.978	correct	observe	Run2	observe/STIM_012.jpg
1765.477	0.92	correct	observe	Run2	observe/STIM_012.jpg
1768.757	1.371	correct	observe	Run2	observe/STIM_012.jpg
1772.511	1.114	correct	observe	Run2	observe/STIM_012.jpg
1777.519	1.382	correct	observe	Run2	observe/STIM_013.jpg
1782.958	0.731	correct	observe	Run2	observe/STIM_013.jpg
1787.746	0.898	correct	observe	Run2	observe/STIM_013.jpg
1792.114	1.108	correct	observe	Run2	observe/STIM_013.jpg
1796.016	1.389	correct	observe	Run2	observe/STIM_014.jpg
1799.867	0.816	correct	observe	Run2	observe/STIM_014.jpg
1803.493	1.068	correct	observe	Run2	observe/STIM_014.jpg
1807.399	0.999	incorrect	observe	Run2	observe/STIM_014.jpg
1812.178	1.288	correct	observe	Run2	observe/STIM_015.jpg
1815.8	1.311	correct	observe	Run2	observe/STIM_015.jpg
1820.72	0.824	correct	observe	Run2	observe/STIM_015.jpg
1823.921	1.082	incorrect	observe	Run2	observe/STIM_015.jpg
1828.0	1.252	correct	observe	Run2	observe/STIM_016.jpg
1831.858	1.217	correct	observe	Run2	observe/STIM_016.jpg
1837.255	1.189	correct	observe	Run2	observe/STIM_016.jpg
1840.863	0.808	correct	observe	Run2	observe/STIM_016.jpg
1845.614	1.11	correct	observe	Run2	observe/STIM_017.jpg
1849.465	0.778	incorrect	observe	Run2	observe/STIM_017.jpg
1853.002	1.108	correct	observe	Run2	observe/STIM_017.jpg
1857.617	1.166	correct	observe	Run2	observe/STIM_017.jpg
1862.943	0.809	correct	observe	Run2	observe/STIM_018.jpg
1866.16	0.741	correct	observe	Run2	observe/STIM_018.jpg
1870.699	0.984	correct	observe	Run2	observe/STIM_018.jpg
1873.944	1.34	correct	observe	Run2	observe/STIM_018.jpg
1877.579	0.947	correct	observe	Run2	observe/STIM_019.jpg
1881.549	1.124	incorrect	observe	Run2	observe/STIM_019.jpg
1885.177	0.829	incorrect	observe	Run2	observe/STIM_019.jpg
1889.515	0.887	correct	observe	Run2	observe/STIM_019.jpg
1893.638	1.762	correct	regulate	Run3	regulate/STIM_000.jpg
1897.834	1.462	correct	regulate	Run3	regulate/STIM_000.jpg
1902.492	1.062	correct	regulate	Run3	regulate/STIM_000.jpg
1905.839	1.006	correct	regulate	Run3	regulate/STIM_000.jpg
1909.193	2.06	correct	regulate	Run3	regulate/STIM_001.jpg
1914.518	1.4	correct	regulate	Run3	regulate/STIM_001.jpg
1919.98	2.047	correct	regulate	Run3	regulate/STIM_001.jpg
1925.768	0.971	correct	regulate	Run3	regulate/STIM_001.jpg
1930.367	1.723	correct	regulate	Run3	regulate/STIM_002.jpg
1934.867	1.21	correct	regulate	Run3	regulate/STIM_002.jpg
1939.202	1.799	correct	regulate	Run3	regulate/STIM_002.jpg
1943.861	1.19	correct	regulate	Run3	regulate/STIM_002.jpg
1947.565	1.232	correct	regulate	Run3	regulate/STIM_003.jpg
1951.716	1.88	correct	regulate	Run3	regulate/STIM_003.jpg
1956.544	1.765	correct	regulate	Run3	regulate/STIM_003.jpg
1961.708	1.601	correct	regulate	Run3	regulate/STIM_003.jpg
1967.318	1.04	correct	regulate	Run3	regulate/STIM_004.jpg
1970.885	1.338	incorrect	regulate	Run3	regulate/STIM_004.jpg
1975.502	1.701	correct	regulate	Run3	regulate/STIM_004.jpg
1980.676	1.538	incorrect	regulate	Run3	regulate/STIM_004.jpg
1985.642	1.264	correct	regulate	Run3	regulate/STIM_005.jpg
1990.913	1.681	correct	regulate	Run3	regulate/STIM_005.jpg
1994.874	2.023	correct	regulate	Run3	regulate/STIM_005.jpg
2000.822	1.831	correct	regulate	Run3	regulate/STIM_005.jpg
2005.429	1.842	incorrect	regulate	Run3	regulate/STIM_006.jpg
2010.24	1.242	correct	regulate	Run3	regulate/STIM_006.jpg
2014.644	1.41	correct	regulate	Run3	regulate/STIM_006.jpg
2019.462	2.03	correct	regulate	Run3	regulate/STIM_006.jpg
2025.781	2.034	correct	regulate	Run3	regulate/STIM_007.jpg
2031.038	1.201	correct	regulate	Run3	regulate/STIM_007.jpg
2035.963	2.107	correct	regulate	Run3	regulate/STIM_007.jpg
2040.571	2.062	correct	regulate	Run3	regulate/STIM_007.jpg
2045.901	1.577	correct	regulate	Run3	regulate/STIM_008.jpg
2051.055	1.118	correct	regulate	Run3	regulate/STIM_008.jpg
2055.229	1.446	correct	regulate	Run3	regulate/STIM_008.jpg
2059.041	1.192	correct	regulate	Run3	regulate/STIM_008.jpg
2063.506	1.933	correct	regulate	Run3	regulate/STIM_009.jpg
2067.885	1.709	correct	regulate	Run3	regulate/STIM_009.jpg
2072.888	1.247	correct	regulate	Run3	regulate/STIM_009.jpg
2076.989	1.176	correct	regulate	Run3	regulate/STIM_009.jpg
2081.844	1.43	correct	regulate	Run3	regulate/STIM_010.jpg
2087.442	2.058	correct	regulate	Run3	regulate/STIM_010.jpg
2092.028	2.062	correct	regulate	Run3	regulate/STIM_010.jpg
2097.492	2.086	correct	regulate	Run3	regulate/STIM_010.jpg
2103.736	1.914	correct	regulate	Run3	regulate/STIM_011.jpg
2109.504	1.87	correct	regulate	Run3	regulate/STIM_011.jpg
2114.61	0.948	correct	regulate	Run3	regulate/STIM_011.jpg
2118.375	2.015	correct	regulate	Run3	regulate/STIM_011.jpg
2123.618	1.015	correct	regulate	Run3	regulate/STIM_012.jpg
2128.315	1.865	correct	regulate	Run3	regulate/STIM_012.jpg
2133.863	1.424	correct	regulate	Run3	regulate/STIM_012.jpg
2137.664	1.148	correct	regulate	Run3	regulate/STIM_012.jpg
2141.433	1.703	correct	regulate	Run3	regulate/STIM_013.jpg
2147.112	1.173	correct	regulate	Run3	regulate/STIM_013.jpg
2150.471	1.931	correct	regulate	Run3	regulate/STIM_013.jpg
2155.777	2.07	correct	regulate	Run3	regulate/STIM_013.jpg
2160.232	1.262	correct	regulate	Run3	regulate/STIM_014.jpg
2164.023	1.464	correct	regulate	Run3	regulate/STIM_014.jpg
2168.995	1.523	correct	regulate	Run3	regulate/STIM_014.jpg
2174.443	1.991	correct	regulate	Run3	regulate/STIM_014.jpg
2180.132	1.46	correct	regulate	Run3	regulate/STIM_015.jpg
2184.524	0.934	correct	regulate	Run3	regulate/STIM_015.jpg
2187.848	1.774	correct	regulate	Run3	regulate/STIM_015.jpg
2192.077	1.184	correct	regulate	Run3	regulate/STIM_015.jpg
2196.844	1.881	correct	regulate	Run3	regulate/STIM_016.jpg
2202.22	1.205	correct	regulate	Run3	regulate/STIM_016.jpg
2206.293	0.943	correct	regulate	Run3	regulate/STIM_016.jpg
2209.974	1.194	correct	regulate	Run3	regulate/STIM_016.jpg
2214.407	2.021	correct	regulate	Run3	regulate/STIM_017.jpg
2218.789	1.868	correct	regulate	Run3	regulate/STIM_017.jpg
2224.084	1.445	correct	regulate	Run3	regulate/STIM_017.jpg
2229.645	1.777	correct	regulate	Run3	regulate/STIM_017.jpg
2233.704	0.916	correct	regulate	Run3	regulate/STIM_018.jpg
2237.084	1.084	correct	regulate	Run3	regulate/STIM_018.jpg
2242.286	1.158	incorrect	regulate	Run3	regulate/STIM_018.jpg
2245.829	1.129	correct	regulate	Run3	regulate/STIM_018.jpg
2250.124	0.979	correct	regulate	Run3	regulate/STIM_019.jpg
2254.779	1.123	correct	regulate	Run3	regulate/STIM_019.jpg
2259.912	1.705	correct	regulate	Run3	regulate/STIM_019.jpg
2265.371	1.375	incorrect	regulate	Run3	regulate/STIM_019.jpg
2269.139	1.476	incorrect	regulate	Run3	regulate/STIM_020.jpg
2274.731	1.906	correct	regulate	Run3	regulate/STIM_020.jpg
2279.872	1.983	correct	regulate	Run3	regulate/STIM_020.jpg
2285.632	1.984	correct	regulate	Run3	regulate/STIM_020.jpg
2291.329	1.063	correct	regulate	Run3	regulate/STIM_021.jpg
2294.844	1.539	correct	regulate	Run3	regulate/STIM_021.jpg
2299.227	1.73	correct	regulate	Run3	regulate/STIM_021.jpg
2303.861	1.822	correct	regulate	Run3	regulate/STIM_021.jpg
2309.835	1.052	correct	regulate	Run3	regulate/STIM_022.jpg
2315.028	1.475	correct	regulate	Run3	regulate/STIM_022.jpg
2319.244	1.126	correct	regulate	Run3	regulate/STIM_022.jpg
2323.347	1.119	correct	regulate	Run3	regulate/STIM_022.jpg
2326.712	1.461	incorrect	regulate	Run3	regulate/STIM_023.jpg
2332.109	1.64	correct	regulate	Run3	regulate/STIM_023.jpg
2337.337	1.615	correct	regulate	Run3	regulate/STIM_023.jpg
2341.44	2.067	correct	regulate	Run3	regulate/STIM_023.jpg
2347.415	1.715	correct	regulate	Run3	regulate/STIM_024.jpg
2351.692	1.183	correct	regulate	Run3	regulate/STIM_024.jpg
2355.391	1.461	correct	regulate	Run3	regulate/STIM_024.jpg
2360.798	1.978	correct	regulate	Run3	regulate/STIM_024.jpg
2366.001	1.343	correct	regulate	Run3	regulate/STIM_025.jpg
2371.067	1.959	correct	regulate	Run3	regulate/STIM_025.jpg
2376.896	2.05	correct	regulate	Run3	regulate/STIM_025.jpg
2381.698	1.638	correct	regulate	Run3	regulate/STIM_025.jpg
2387.053	1.809	correct	regulate	Run3	regulate/STIM_026.jpg
2391.404	1.628	correct	regulate	Run3	regulate/STIM_026.jpg
2397.167	2.032	correct	regulate	Run3	regulate/STIM_026.jpg
2402.472	2.127	correct	regulate	Run3	regulate/STIM_026.jpg
2407.536	1.654	correct	regulate	Run3	regulate/STIM_027.jpg
2412.249	1.192	correct	regulate	Run3	regulate/STIM_027.jpg
2416.849	1.213	correct	regulate	Run3	regulate/STIM_027.jpg
2421.315	1.793	correct	regulate	Run3	regulate/STIM_027.jpg
2426.095	1.616	correct	regulate	Run3	regulate/STIM_028.jpg
2431.179	1.137	correct	regulate	Run3	regulate/STIM_028.jpg
2435.721	2.089	correct	regulate	Run3	regulate/STIM_028.jpg
2441.227	1.939	correct	regulate	Run3	regulate/STIM_028.jpg
2447.043	1.37	correct	regulate	Run3	regulate/STIM_029.jpg
2452.142	1.587	correct	regulate	Run3	regulate/STIM_029.jpg
2457.854	2.026	correct	regulate	Run3	regulate/STIM_029.jpg
2462.659	1.346	correct	regulate	Run3	regulate/STIM_029.jpg
2467.374	1.132	correct	observe	Run3	observe/STIM_000.jpg
2470.788	1.215	correct	observe	Run3	observe/STIM_000.jpg
2474.552	1.19	correct	observe	Run3	observe/STIM_000.jpg
2478.881	1.21	correct	observe	Run3	observe/STIM_000.jpg
2483.763	1.222	correct	observe	Run3	observe/STIM_001.jpg
2488.405	0.771	incorrect	observe	Run3	observe/STIM_001.jpg
2492.807	0.719	correct	observe	Run3	observe/STIM_001.jpg
2497.623	0.745	correct	observe	Run3	observe/STIM_001.jpg
2501.629	0.955	incorrect	observe	Run3	observe/STIM_002.jpg
2506.4	0.864	correct	observe	Run3	observe/STIM_002.jpg
2510.406	0.923	correct	observe	Run3	observe/STIM_002.jpg
2514.064	0.761	correct	observe	Run3	observe/STIM_002.jpg
2517.463	1.057	correct	observe	Run3	observe/STIM_003.jpg
2520.949	0.756	correct	observe	Run3	observe/STIM_003.jpg
2524.712	0.732	correct	observe	Run3	observe/STIM_003.jpg
2529.461	0.702	correct	observe	Run3	observe/STIM_003.jpg
2533.974	1.076	correct	observe	Run3	observe/STIM_004.jpg
2538.319	0.723	correct	observe	Run3	observe/STIM_004.jpg
2541.279	0.73	correct	observe	Run3	observe/STIM_004.jpg
2545.754	0.822	incorrect	observe	Run3	observe/STIM_004.jpg
2550.365	1.092	correct	observe	Run3	observe/STIM_005.jpg
2555.166	0.963	incorrect	observe	Run3	observe/STIM_005.jpg
2559.766	1.204	correct	observe	Run3	observe/STIM_005.jpg
2563.172	1.025	incorrect	observe	Run3	observe/STIM_005.jpg
2568.294	1.118	correct	observe	Run3	observe/STIM_006.jpg
2572.862	1.178	correct	observe	Run3	observe/STIM_006.jpg
2576.314	1.153	correct	observe	Run3	observe/STIM_006.jpg
2580.592	0.709	correct	observe	Run3	observe/STIM_006.jpg
2584.288	1.113	correct	observe	Run3	observe/STIM_007.jpg
2587.575	1.264	correct	observe	Run3	observe/STIM_007.jpg
2592.166	1.036	incorrect	observe	Run3	observe/STIM_007.jpg
2596.306	1.029	correct	observe	Run3	observe/STIM_007.jpg
2601.084	1.221	correct	observe	Run3	observe/STIM_008.jpg
2604.813	1.32	correct	observe	Run3	observe/STIM_008.jpg
2608.495	1.006	correct	observe	Run3	observe/STIM_008.jpg
2612.709	1.297	correct	observe	Run3	observe/STIM_008.jpg
2616.646	1.316	correct	observe	Run3	observe/STIM_009.jpg
2622.061	1.006	correct	observe	Run3	observe/STIM_009.jpg
2625.84	1.056	correct	observe	Run3	observe/STIM_009.jpg
2630.009	1.348	correct	observe	Run3	observe/STIM_009.jpg
2634.616	1.236	correct	observe	Run3	observe/STIM_010.jpg
2639.528	0.98	correct	observe	Run3	observe/STIM_010.jpg
2643.208	1.088	correct	observe	Run3	observe/STIM_010.jpg
2648.276	0.946	correct	observe	Run3	observe/STIM_010.jpg
2652.394	1.281	correct	observe	Run3	observe/STIM_011.jpg
2657.164	0.918	correct	observe	Run3	observe/STIM_011.jpg
2661.474	0.783	incorrect	observe	Run3	observe/STIM_011.jpg
2666.2	1.267	correct	observe	Run3	observe/STIM_011.jpg
2670.214	0.792	correct	observe	Run3	observe/STIM_012.jpg
2673.183	1.323	correct	observe	Run3	observe/STIM_012.jpg
2677.909	1.39	correct	observe	Run3	observe/STIM_012.jpg
2683.486	1.189	correct	observe	Run3	observe/STIM_012.jpg
2687.877	1.074	incorrect	observe	Run3	observe/STIM_013.jpg
2691.695	1.073	correct	observe	Run3	observe/STIM_013.jpg
2696.124	1.289	correct	observe	Run3	observe/STIM_013.jpg
2700.6	1.103	correct	observe	Run3	observe/STIM_013.jpg
2704.893	0.745	incorrect	observe	Run3	observe/STIM_014.jpg
2709.398	1.153	correct	observe	Run3	observe/STIM_014.jpg
2713.903	1.05	correct	observe	Run3	observe/STIM_014.jpg
2718.357	1.32	correct	observe	Run3	observe/STIM_014.jpg
2723.018	1.212	correct	observe	Run3	observe/STIM_015.jpg
2727.179	0.723	correct	observe	Run3	observe/STIM_015.jpg
2731.003	1.12	correct	observe	Run3	observe/STIM_015.jpg
2735.353	0.939	correct	observe	Run3	observe/STIM_015.jpg
2738.597	0.826	correct	observe	Run3	observe/STIM_016.jpg
2743.305	0.812	incorrect	observe	Run3	observe/STIM_016.jpg
2748.03	1.262	correct	observe	Run3	observe/STIM_016.jpg
2752.198	0.994	incorrect	observe	Run3	observe/STIM_016.jpg
2756.599	1.18	incorrect	observe	Run3	observe/STIM_017.jpg
2761.492	0.712	correct	observe	Run3	observe/STIM_017.jpg
2764.545	1.024	correct	observe	Run3	observe/STIM_017.jpg
2769.117	0.914	incorrect	observe	Run3	observe/STIM_017.jpg
2773.475	1.051	correct	observe	Run3	observe/STIM_018.jpg
2777.58	1.216	incorrect	observe	Run3	observe/STIM_018.jpg
2781.964	1.217	incorrect	observe	Run3	observe/STIM_018.jpg
2787.217	0.92	correct	observe	Run3	observe/STIM_018.jpg
2790.335	1.264	correct	observe	Run3	observe/STIM_019.jpg
2795.314	0.912	correct	observe	Run3	observe/STIM_019.jpg
2799.65	1.141	correct	observe	Run3	observe/STIM_019.jpg
2803.608	1.145	correct	observe	Run3	observe/STIM_019.jpg
