onset	duration	response_time_ms	trial_type	learning_stage	stimulus	response_port
0.0	1.736	1735.6	regulate	Run1	regulate/STIM_000.jpg	99
5.588	2.228	2227.6	regulate	Run1	regulate/STIM_000.jpg	100
10.188	2.417	2416.8	regulate	Run1	regulate/STIM_000.jpg	99
16.227	2.408	2407.5	regulate	Run1	regulate/STIM_000.jpg	99
21.434	2.799	2798.6	regulate	Run1	regulate/STIM_001.jpg	99
27.968	2.282	2281.8	regulate	Run1	regulate/STIM_001.jpg	100
33.751	1.665	1664.8	regulate	Run1	regulate/STIM_001.jpg	100
39.542	1.72	1720.0	regulate	Run1	regulate/STIM_001.jpg	100
44.503	2.372	2372.0	regulate	Run1	regulate/STIM_002.jpg	100
50.065	2.463	2463.1	regulate	Run1	regulate/STIM_002.jpg	99
55.792	2.657	2657.3	regulate	Run1	regulate/STIM_002.jpg	100
62.168	1.173	1173.1	regulate	Run1	regulate/STIM_002.jpg	99
67.299	1.564	1564.4	regulate	Run1	regulate/STIM_003.jpg	100
71.474	2.887	2887.1	regulate	Run1	regulate/STIM_003.jpg	100
77.21	1.91	1910.2	regulate	Run1	regulate/STIM_003.jpg	99
82.919	2.0	1999.7	regulate	Run1	regulate/STIM_003.jpg	99
87.651	2.477	2477.0	regulate	Run1	regulate/STIM_004.jpg	99
92.664	1.935	1935.3	regulate	Run1	regulate/STIM_004.jpg	100
98.562	2.389	2388.7	regulate	Run1	regulate/STIM_004.jpg	99
104.591	2.064	2063.5	regulate	Run1	regulate/STIM_004.jpg	99
109.727	2.69	2689.7	regulate	Run1	regulate/STIM_005.jpg	100
115.202	2.334	2333.5	regulate	Run1	regulate/STIM_005.jpg	100
120.818	2.312	2311.5	regulate	Run1	regulate/STIM_005.jpg	99
127.433	1.777	1777.2	regulate	Run1	regulate/STIM_005.jpg	99
132.992	2.15	2150.5	regulate	Run1	regulate/STIM_006.jpg	99
138.589	1.468	1467.5	regulate	Run1	regulate/STIM_006.jpg	99
142.356	1.672	1672.3	regulate	Run1	regulate/STIM_006.jpg	99
146.891	1.812	1812.5	regulate	Run1	regulate/STIM_006.jpg	100
152.864	2.959	2959.2	regulate	Run1	regulate/STIM_007.jpg	99
158.451	2.344	2343.6	regulate	Run1	regulate/STIM_007.jpg	99
163.535	1.91	1909.8	regulate	Run1	regulate/STIM_007.jpg	100
169.439	2.431	2430.6	regulate	Run1	regulate/STIM_007.jpg	99
176.11	1.536	1535.6	regulate	Run1	regulate/STIM_008.jpg	99
181.032	2.019	2019.4	regulate	Run1	regulate/STIM_008.jpg	99
186.186	1.229	1228.9	regulate	Run1	regulate/STIM_008.jpg	100
190.094	2.552	2552.0	regulate	Run1	regulate/STIM_008.jpg	100
195.673	2.586	2586.5	regulate	Run1	regulate/STIM_009.jpg	99
201.494	2.874	2874.1	regulate	Run1	regulate/STIM_009.jpg	99
207.104	1.349	1348.7	regulate	Run1	regulate/STIM_009.jpg	100
210.962	1.215	1214.6	regulate	Run1	regulate/STIM_009.jpg	100
214.465	2.004	2004.3	regulate	Run1	regulate/STIM_010.jpg	100
218.796	2.336	2335.9	regulate	Run1	regulate/STIM_010.jpg	99
225.042	1.503	1502.6	regulate	Run1	regulate/STIM_010.jpg	100
230.549	2.402	2401.9	regulate	Run1	regulate/STIM_010.jpg	100
236.392	1.984	1984.0	regulate	Run1	regulate/STIM_011.jpg	100
241.632	2.82	2819.7	regulate	Run1	regulate/STIM_011.jpg	99
248.264	1.907	1907.3	regulate	Run1	regulate/STIM_011.jpg	99
253.997	1.252	1251.7	regulate	Run1	regulate/STIM_011.jpg	100
258.247	1.452	1451.6	regulate	Run1	regulate/STIM_012.jpg	100
262.003	2.811	2810.6	regulate	Run1	regulate/STIM_012.jpg	100
267.886	1.368	1367.5	regulate	Run1	regulate/STIM_012.jpg	99
272.277	2.547	2546.9	regulate	Run1	regulate/STIM_012.jpg	100
278.731	2.202	2201.7	regulate	Run1	regulate/STIM_013.jpg	99
283.407	2.313	2313.3	regulate	Run1	regulate/STIM_013.jpg	99
288.908	2.302	2301.6	regulate	Run1	regulate/STIM_013.jpg	100
295.465	1.234	1234.3	regulate	Run1	regulate/STIM_013.jpg	100
300.595	2.709	2709.2	regulate	Run1	regulate/STIM_014.jpg	99
307.044	1.742	1742.4	regulate	Run1	regulate/STIM_014.jpg	100
312.067	1.337	1336.7	regulate	Run1	regulate/STIM_014.jpg	99
316.374	1.813	1813.0	regulate	Run1	regulate/STIM_014.jpg	100
321.128	2.224	2224.5	regulate	Run1	regulate/STIM_015.jpg	99
327.316	2.714	2713.8	regulate	Run1	regulate/STIM_015.jpg	100
334.225	1.699	1699.3	regulate	Run1	regulate/STIM_015.jpg	100
340.122	1.512	1511.9	regulate	Run1	regulate/STIM_015.jpg	100
345.651	2.686	2686.4	regulate	Run1	regulate/STIM_016.jpg	100
350.934	2.297	2297.4	regulate	Run1	regulate/STIM_016.jpg	99
357.541	1.553	1553.2	regulate	Run1	regulate/STIM_016.jpg	100
362.172	1.822	1821.6	regulate	Run1	regulate/STIM_016.jpg	100
366.798	1.716	1716.1	regulate	Run1	regulate/STIM_017.jpg	99
372.747	2.808	2808.0	regulate	Run1	regulate/STIM_017.jpg	100
379.794	1.375	1374.6	regulate	Run1	regulate/STIM_017.jpg	99
384.406	1.213	1213.1	regulate	Run1	regulate/STIM_017.jpg	99
389.439	1.811	1811.2	regulate	Run1	regulate/STIM_018.jpg	99
393.799	2.724	2724.3	regulate	Run1	regulate/STIM_018.jpg	100
399.48	2.11	2110.4	regulate	Run1	regulate/STIM_018.jpg	99
404.695	1.532	1532.2	regulate	Run1	regulate/STIM_018.jpg	99
410.371	2.386	2385.6	regulate	Run1	regulate/STIM_019.jpg	100
415.552	2.571	2571.3	regulate	Run1	regulate/STIM_019.jpg	99
421.146	2.451	2451.4	regulate	Run1	regulate/STIM_019.jpg	99
427.704	2.226	2226.5	regulate	Run1	regulate/STIM_019.jpg	99
432.528	2.624	2623.6	regulate	Run1	regulate/STIM_020.jpg	100
438.13	2.453	2452.8	regulate	Run1	regulate/STIM_020.jpg	100
443.836	1.211	1210.7	regulate	Run1	regulate/STIM_020.jpg	99
449.075	2.179	2178.8	regulate	Run1	regulate/STIM_020.jpg	99
454.657	2.126	2125.9	regulate	Run1	regulate/STIM_021.jpg	99
460.844	1.491	1490.7	regulate	Run1	regulate/STIM_021.jpg	100
464.793	1.647	1646.9	regulate	Run1	regulate/STIM_021.jpg	100
469.434	1.795	1794.8	regulate	Run1	regulate/STIM_021.jpg	100
474.946	2.179	2178.7	regulate	Run1	regulate/STIM_022.jpg	100
480.473	2.277	2277.3	regulate	Run1	regulate/STIM_022.jpg	99
485.17	1.56	1560.4	regulate	Run1	regulate/STIM_022.jpg	100
490.566	1.88	1880.2	regulate	Run1	regulate/STIM_022.jpg	100
495.046	2.634	2634.2	regulate	Run1	regulate/STIM_023.jpg	100
501.955	1.957	1956.6	regulate	Run1	regulate/STIM_023.jpg	99
507.0	1.83	1829.8	regulate	Run1	regulate/STIM_023.jpg	99
512.747	1.534	1533.5	regulate	Run1	regulate/STIM_023.jpg	100
517.399	2.536	2536.0	regulate	Run1	regulate/STIM_024.jpg	99
524.237	1.666	1665.8	regulate	Run1	regulate/STIM_024.jpg	99
529.011	1.253	1252.9	regulate	Run1	regulate/STIM_024.jpg	100
534.14	1.354	1354.0	regulate	Run1	regulate/STIM_024.jpg	99
538.045	2.293	2293.3	regulate	Run1	regulate/STIM_025.jpg	100
544.318	2.782	2781.6	regulate	Run1	regulate/STIM_025.jpg	99
551.122	2.097	2096.9	regulate	Run1	regulate/STIM_025.jpg	100
555.998	1.505	1505.3	regulate	Run1	regulate/STIM_025.jpg	100
560.049	2.064	2064.5	regulate	Run1	regulate/STIM_026.jpg	100
565.676	2.793	2792.7	regulate	Run1	regulate/STIM_026.jpg	100
571.035	2.278	2277.9	regulate	Run1	regulate/STIM_026.jpg	99
577.147	2.31	2310.0	regulate	Run1	regulate/STIM_026.jpg	99
582.155	2.885	2884.9	regulate	Run1	regulate/STIM_027.jpg	100
588.336	1.868	1868.4	regulate	Run1	regulate/STIM_027.jpg	99
593.47	2.468	2467.6	regulate	Run1	regulate/STIM_027.jpg	100
599.272	1.606	1606.3	regulate	Run1	regulate/STIM_027.jpg	100
604.715	1.546	1545.7	regulate	Run1	regulate/STIM_028.jpg	100
609.416	2.764	2763.9	regulate	Run1	regulate/STIM_028.jpg	99
615.764	2.037	2037.4	regulate	Run1	regulate/STIM_028.jpg	100
620.181	2.197	2197.2	regulate	Run1	regulate/STIM_028.jpg	99
626.372	1.822	1822.5	regulate	Run1	regulate/STIM_029.jpg	99
632.001	2.527	2527.3	regulate	Run1	regulate/STIM_029.jpg	99
637.748	1.927	1926.8	regulate	Run1	regulate/STIM_029.jpg	99
642.54	1.703	1702.9	regulate	Run1	regulate/STIM_029.jpg	100
646.877	1.038	1037.7	observe	Run1	observe/STIM_000.jpg	100
651.763	0.768	768.5	observe	Run1	observe/STIM_000.jpg	100
654.746	0.882	882.3	observe	Run1	observe/STIM_000.jpg	99
658.554	0.956	956.3	observe	Run1	observe/STIM_000.jpg	100
663.077	0.927	926.7	observe	Run1	observe/STIM_001.jpg	99
667.313	0.71	709.7	observe	Run1	observe/STIM_001.jpg	100
671.348	1.2	1199.9	observe	Run1	observe/STIM_001.jpg	99
676.186	1.347	1346.7	observe	Run1	observe/STIM_001.jpg	100
679.866	1.129	1129.1	observe	Run1	observe/STIM_002.jpg	99
684.596	1.186	1185.5	observe	Run1	observe/STIM_002.jpg	99
688.973	1.014	1014.1	observe	Run1	observe/STIM_002.jpg	99
693.155	1.29	1289.7	observe	Run1	observe/STIM_002.jpg	99
697.288	1.311	1310.7	observe	Run1	observe/STIM_003.jpg	99
702.667	0.794	794.5	observe	Run1	observe/STIM_003.jpg	100
706.585	1.27	1269.6	observe	Run1	observe/STIM_003.jpg	100
710.447	1.142	1141.7	observe	Run1	observe/STIM_003.jpg	99
714.245	1.311	1311.2	observe	Run1	observe/STIM_004.jpg	99
718.407	1.153	1152.8	observe	Run1	observe/STIM_004.jpg	99
722.554	1.385	1385.0	observe	Run1	observe/STIM_004.jpg	100
727.532	0.809	809.2	observe	Run1	observe/STIM_004.jpg	100
731.452	0.88	880.4	observe	Run1	observe/STIM_005.jpg	100
735.486	1.227	1226.7	observe	Run1	observe/STIM_005.jpg	100
739.604	0.731	730.8	observe	Run1	observe/STIM_005.jpg	100
743.485	1.076	1075.6	observe	Run1	observe/STIM_005.jpg	99
748.41	0.993	992.9	observe	Run1	observe/STIM_006.jpg	99
752.958	0.791	790.8	observe	Run1	observe/STIM_006.jpg	100
756.788	0.848	847.7	observe	Run1	observe/STIM_006.jpg	99
760.558	0.932	932.0	observe	Run1	observe/STIM_006.jpg	99
763.728	1.215	1215.1	observe	Run1	observe/STIM_007.jpg	99
768.349	1.072	1072.4	observe	Run1	observe/STIM_007.jpg	99
771.603	1.2	1199.6	observe	Run1	observe/STIM_007.jpg	99
776.112	0.961	961.3	observe	Run1	observe/STIM_007.jpg	99
779.505	1.049	1049.4	observe	Run1	observe/STIM_008.jpg	100
783.191	0.723	723.4	observe	Run1	observe/STIM_008.jpg	100
786.439	1.284	1284.4	observe	Run1	observe/STIM_008.jpg	100
791.88	0.854	853.6	observe	Run1	observe/STIM_008.jpg	99
794.878	1.301	1300.9	observe	Run1	observe/STIM_009.jpg	100
798.38	0.815	814.7	observe	Run1	observe/STIM_009.jpg	100
801.978	1.079	1078.6	observe	Run1	observe/STIM_009.jpg	99
806.18	1.148	1148.4	observe	Run1	observe/STIM_009.jpg	100
810.264	0.959	958.7	observe	Run1	observe/STIM_010.jpg	100
813.822	0.82	819.9	observe	Run1	observe/STIM_010.jpg	99
818.219	0.961	961.3	observe	Run1	observe/STIM_010.jpg	100
821.436	1.049	1049.2	observe	Run1	observe/STIM_010.jpg	99
825.942	0.958	958.4	observe	Run1	observe/STIM_011.jpg	99
830.163	1.37	1369.8	observe	Run1	observe/STIM_011.jpg	99
833.998	1.265	1264.7	observe	Run1	observe/STIM_011.jpg	99
837.52	0.83	829.8	observe	Run1	observe/STIM_011.jpg	99
842.363	1.254	1253.9	observe	Run1	observe/STIM_012.jpg	100
847.198	0.825	824.9	observe	Run1	observe/STIM_012.jpg	99
851.823	0.83	829.8	observe	Run1	observe/STIM_012.jpg	100
855.275	1.07	1069.8	observe	Run1	observe/STIM_012.jpg	100
858.882	1.155	1155.3	observe	Run1	observe/STIM_013.jpg	99
862.795	0.828	828.3	observe	Run1	observe/STIM_013.jpg	100
865.841	1.189	1188.7	observe	Run1	observe/STIM_013.jpg	99
870.148	0.835	834.7	observe	Run1	observe/STIM_013.jpg	99
874.355	1.164	1164.0	observe	Run1	observe/STIM_014.jpg	99
877.864	0.701	701.2	observe	Run1	observe/STIM_014.jpg	99
881.141	0.881	881.0	observe	Run1	observe/STIM_014.jpg	99
885.573	0.843	843.2	observe	Run1	observe/STIM_014.jpg	100
890.518	1.021	1020.6	observe	Run1	observe/STIM_015.jpg	99
895.634	1.082	1081.6	observe	Run1	observe/STIM_015.jpg	99
899.002	1.191	1191.2	observe	Run1	observe/STIM_015.jpg	100
904.252	1.253	1252.6	observe	Run1	observe/STIM_015.jpg	100
909.04	1.378	1377.8	observe	Run1	observe/STIM_016.jpg	100
913.8	1.056	1056.2	observe	Run1	observe/STIM_016.jpg	99
917.945	1.034	1033.6	observe	Run1	observe/STIM_016.jpg	99
921.552	1.234	1233.9	observe	Run1	observe/STIM_016.jpg	100
926.474	1.156	1156.5	observe	Run1	observe/STIM_017.jpg	100
930.086	0.924	924.3	observe	Run1	observe/STIM_017.jpg	100
933.69	1.204	1203.7	observe	Run1	observe/STIM_017.jpg	100
938.073	1.247	1247.4	observe	Run1	observe/STIM_017.jpg	99
942.269	1.305	1305.1	observe	Run1	observe/STIM_018.jpg	100
947.751	1.101	1101.4	observe	Run1	observe/STIM_018.jpg	100
952.403	0.848	848.1	observe	Run1	observe/STIM_018.jpg	100
956.619	0.756	755.5	observe	Run1	observe/STIM_018.jpg	99
960.445	0.729	729.4	observe	Run1	observe/STIM_019.jpg	100
964.939	1.388	1388.3	observe	Run1	observe/STIM_019.jpg	100
968.548	1.274	1274.0	observe	Run1	observe/STIM_019.jpg	100
972.335	0.934	933.9	observe	Run1	observe/STIM_019.jpg	100
976.508	1.212	1212.1	regulate	Run2	regulate/STIM_000.jpg	100
981.637	2.393	2392.7	regulate	Run2	regulate/STIM_000.jpg	100
986.587	1.072	1071.9	regulate	Run2	regulate/STIM_000.jpg	99
991.641	1.667	1667.3	regulate	Run2	regulate/STIM_000.jpg	100
996.943	1.299	1298.6	regulate	Run2	regulate/STIM_001.jpg	99
1002.363	2.194	2193.7	regulate	Run2	regulate/STIM_001.jpg	100
1007.394	1.766	1766.2	regulate	Run2	regulate/STIM_001.jpg	99
1013.211	1.157	1156.8	regulate	Run2	regulate/STIM_001.jpg	100
1016.71	1.264	1264.4	regulate	Run2	regulate/STIM_002.jpg	99
1021.908	1.666	1666.1	regulate	Run2	regulate/STIM_002.jpg	99
1026.531	0.983	982.9	regulate	Run2	regulate/STIM_002.jpg	99
1031.413	1.841	1840.8	regulate	Run2	regulate/STIM_002.jpg	99
1037.188	1.586	1586.2	regulate	Run2	regulate/STIM_003.jpg	100
1042.165	1.344	1343.7	regulate	Run2	regulate/STIM_003.jpg	100
1046.852	1.957	1956.7	regulate	Run2	regulate/STIM_003.jpg	99
1052.003	1.395	1395.3	regulate	Run2	regulate/STIM_003.jpg	99
1056.032	1.482	1482.5	regulate	Run2	regulate/STIM_004.jpg	100
1060.322	2.293	2293.0	regulate	Run2	regulate/STIM_004.jpg	100
1066.873	1.288	1287.5	regulate	Run2	regulate/STIM_004.jpg	99
1071.049	1.852	1851.6	regulate	Run2	regulate/STIM_004.jpg	100
1075.366	1.492	1492.0	regulate	Run2	regulate/STIM_005.jpg	100
1080.051	1.373	1372.7	regulate	Run2	regulate/STIM_005.jpg	99
1084.892	2.28	2280.0	regulate	Run2	regulate/STIM_005.jpg	99
1091.301	1.816	1816.4	regulate	Run2	regulate/STIM_005.jpg	99
1096.471	2.384	2384.0	regulate	Run2	regulate/STIM_006.jpg	99
1102.233	2.24	2239.8	regulate	Run2	regulate/STIM_006.jpg	100
1107.145	2.155	2155.4	regulate	Run2	regulate/STIM_006.jpg	99
1113.217	1.609	1609.2	regulate	Run2	regulate/STIM_006.jpg	100
1118.033	1.17	1169.7	regulate	Run2	regulate/STIM_007.jpg	100
1123.013	1.1	1100.5	regulate	Run2	regulate/STIM_007.jpg	100
1127.557	2.043	2042.7	regulate	Run2	regulate/STIM_007.jpg	99
1132.369	1.154	1154.1	regulate	Run2	regulate/STIM_007.jpg	100
1137.206	1.138	1137.9	regulate	Run2	regulate/STIM_008.jpg	99
1140.659	2.364	2363.7	regulate	Run2	regulate/STIM_008.jpg	100
1146.886	1.968	1967.8	regulate	Run2	regulate/STIM_008.jpg	99
1151.6	1.344	1343.7	regulate	Run2	regulate/STIM_008.jpg	100
1155.238	1.899	1898.6	regulate	Run2	regulate/STIM_009.jpg	100
1159.963	1.561	1560.7	regulate	Run2	regulate/STIM_009.jpg	99
1164.028	1.176	1176.3	regulate	Run2	regulate/STIM_009.jpg	99
1168.601	2.084	2083.8	regulate	Run2	regulate/STIM_009.jpg	99
1174.869	1.956	1955.7	regulate	Run2	regulate/STIM_010.jpg	100
1179.304	1.212	1212.1	regulate	Run2	regulate/STIM_010.jpg	99
1183.42	1.911	1910.6	regulate	Run2	regulate/STIM_010.jpg	100
1188.616	1.699	1699.0	regulate	Run2	regulate/STIM_010.jpg	99
1193.139	1.201	1200.6	regulate	Run2	regulate/STIM_011.jpg	99
1196.756	1.684	1683.8	regulate	Run2	regulate/STIM_011.jpg	99
1202.425	1.518	1518.1	regulate	Run2	regulate/STIM_011.jpg	100
1207.591	1.216	1216.1	regulate	Run2	regulate/STIM_011.jpg	100
1211.768	1.662	1662.2	regulate	Run2	regulate/STIM_012.jpg	99
1215.689	1.514	1513.8	regulate	Run2	regulate/STIM_012.jpg	99
1220.959	2.059	2058.7	regulate	Run2	regulate/STIM_012.jpg	100
1226.027	1.338	1338.1	regulate	Run2	regulate/STIM_012.jpg	100
1230.777	1.365	1365.2	regulate	Run2	regulate/STIM_013.jpg	99
1235.314	2.426	2426.5	regulate	Run2	regulate/STIM_013.jpg	99
1242.016	1.512	1512.1	regulate	Run2	regulate/STIM_013.jpg	100
1247.586	1.018	1018.3	regulate	Run2	regulate/STIM_013.jpg	99
1251.049	1.449	1448.8	regulate	Run2	regulate/STIM_014.jpg	99
1256.347	2.39	2390.3	regulate	Run2	regulate/STIM_014.jpg	99
1261.475	1.235	1234.9	regulate	Run2	regulate/STIM_014.jpg	100
1266.112	1.06	1060.1	regulate	Run2	regulate/STIM_014.jpg	100
1270.934	2.351	2351.0	regulate	Run2	regulate/STIM_015.jpg	99
1275.746	1.347	1347.4	regulate	Run2	regulate/STIM_015.jpg	100
1279.798	1.769	1768.6	regulate	Run2	regulate/STIM_015.jpg	99
1284.177	1.32	1320.5	regulate	Run2	regulate/STIM_015.jpg	100
1288.574	2.174	2173.9	regulate	Run2	regulate/STIM_016.jpg	99
1294.731	1.366	1366.3	regulate	Run2	regulate/STIM_016.jpg	99
1298.845	1.964	1963.9	regulate	Run2	regulate/STIM_016.jpg	100
1303.271	2.082	2081.7	regulate	Run2	regulate/STIM_016.jpg	99
1309.251	2.384	2383.7	regulate	Run2	regulate/STIM_017.jpg	100
1315.769	1.413	1413.3	regulate	Run2	regulate/STIM_017.jpg	100
1320.831	1.952	1952.4	regulate	Run2	regulate/STIM_017.jpg	99
1325.87	0.982	981.6	regulate	Run2	regulate/STIM_017.jpg	99
1329.525	1.462	1462.5	regulate	Run2	regulate/STIM_018.jpg	100
1333.383	1.272	1271.7	regulate	Run2	regulate/STIM_018.jpg	100
1337.274	1.36	1359.6	regulate	Run2	regulate/STIM_018.jpg	99
1342.414	1.146	1146.5	regulate	Run2	regulate/STIM_018.jpg	100
1347.495	1.173	1172.9	regulate	Run2	regulate/STIM_019.jpg	100
1352.686	1.669	1669.4	regulate	Run2	regulate/STIM_019.jpg	99
1356.746	1.09	1089.5	regulate	Run2	regulate/STIM_019.jpg	99
1361.978	2.038	2037.6	regulate	Run2	regulate/STIM_019.jpg	100
1367.709	1.477	1477.1	regulate	Run2	regulate/STIM_020.jpg	100
1372.835	1.083	1082.7	regulate	Run2	regulate/STIM_020.jpg	100
1376.322	1.823	1823.0	regulate	Run2	regulate/STIM_020.jpg	99
1381.736	1.825	1824.7	regulate	Run2	regulate/STIM_020.jpg	99
1386.566	1.923	1922.8	regulate	Run2	regulate/STIM_021.jpg	99
1390.93	1.67	1669.5	regulate	Run2	regulate/STIM_021.jpg	100
1396.121	1.774	1774.0	regulate	Run2	regulate/STIM_021.jpg	99
1400.696	0.978	977.5	regulate	Run2	regulate/STIM_021.jpg	99
1404.564	2.21	2210.4	regulate	Run2	regulate/STIM_022.jpg	100
1410.287	1.456	1456.3	regulate	Run2	regulate/STIM_022.jpg	99
1415.298	2.28	2280.3	regulate	Run2	regulate/STIM_022.jpg	99
1420.355	1.684	1683.7	regulate	Run2	regulate/STIM_022.jpg	100
1425.221	1.463	1463.2	regulate	Run2	regulate/STIM_023.jpg	100
1429.02	1.984	1984.4	regulate	Run2	regulate/STIM_023.jpg	100
1434.088	1.498	1498.5	regulate	Run2	regulate/STIM_023.jpg	99
1438.806	1.356	1355.5	regulate	Run2	regulate/STIM_023.jpg	100
1443.34	1.149	1149.2	regulate	Run2	regulate/STIM_024.jpg	99
1448.277	1.274	1273.5	regulate	Run2	regulate/STIM_024.jpg	99
1452.411	1.331	1331.1	regulate	Run2	regulate/STIM_024.jpg	99
1457.733	1.257	1256.8	regulate	Run2	regulate/STIM_024.jpg	99
1462.2	1.32	1320.1	regulate	Run2	regulate/STIM_025.jpg	99
1467.634	1.732	1731.5	regulate	Run2	regulate/STIM_025.jpg	99
1471.944	1.587	1587.3	regulate	Run2	regulate/STIM_025.jpg	100
1476.446	1.498	1498.2	regulate	Run2	regulate/STIM_025.jpg	100
1482.133	1.273	1273.0	regulate	Run2	regulate/STIM_026.jpg	99
1487.587	2.018	2018.1	regulate	Run2	regulate/STIM_026.jpg	99
1493.166	1.006	1006.0	regulate	Run2	regulate/STIM_026.jpg	100
1496.802	1.596	1596.1	regulate	Run2	regulate/STIM_026.jpg	99
1502.415	2.283	2282.9	regulate	Run2	regulate/STIM_027.jpg	100
1508.871	2.24	2239.8	regulate	Run2	regulate/STIM_027.jpg	99
1513.743	1.993	1993.2	regulate	Run2	regulate/STIM_027.jpg	99
1520.031	1.852	1852.1	regulate	Run2	regulate/STIM_027.jpg	99
1525.346	2.104	2104.3	regulate	Run2	regulate/STIM_028.jpg	100
1530.71	1.132	1132.1	regulate	Run2	regulate/STIM_028.jpg	100
1535.096	1.198	1197.7	regulate	Run2	regulate/STIM_028.jpg	100
1539.911	1.553	1552.6	regulate	Run2	regulate/STIM_028.jpg	99
1544.967	1.319	1319.2	regulate	Run2	regulate/STIM_029.jpg	99
1550.112	1.302	1301.6	regulate	Run2	regulate/STIM_029.jpg	100
1554.599	2.226	2226.5	regulate	Run2	regulate/STIM_029.jpg	100
1559.395	1.8	1800.4	regulate	Run2	regulate/STIM_029.jpg	99
1563.47	1.1	1100.3	observe	Run2	observe/STIM_000.jpg	99
1566.979	1.004	1003.9	observe	Run2	observe/STIM_000.jpg	99
1571.728	0.713	712.7	observe	Run2	observe/STIM_000.jpg	99
1574.884	1.343	1343.1	observe	Run2	observe/STIM_000.jpg	100
1579.146	1.135	1134.7	observe	Run2	observe/STIM_001.jpg	99
1583.454	1.364	1363.9	observe	Run2	observe/STIM_001.jpg	99
1588.677	0.988	987.6	observe	Run2	observe/STIM_001.jpg	100
1593.386	0.894	893.5	observe	Run2	observe/STIM_001.jpg	100
1597.277	0.969	968.9	observe	Run2	observe/STIM_002.jpg	100
1601.883	0.843	843.4	observe	Run2	observe/STIM_002.jpg	99
1605.459	1.346	1346.0	observe	Run2	observe/STIM_002.jpg	100
1609.427	0.732	732.4	observe	Run2	observe/STIM_002.jpg	100
1613.334	0.752	752.0	observe	Run2	observe/STIM_003.jpg	100
1616.927	0.904	904.2	observe	Run2	observe/STIM_003.jpg	100
1620.154	1.189	1189.3	observe	Run2	observe/STIM_003.jpg	99
1624.788	0.999	999.1	observe	Run2	observe/STIM_003.jpg	100
1628.247	1.351	1350.6	observe	Run2	observe/STIM_004.jpg	100
1631.834	1.377	1377.2	observe	Run2	observe/STIM_004.jpg	100
1636.135	0.788	787.7	observe	Run2	observe/STIM_004.jpg	100
1640.641	0.856	855.6	observe	Run2	observe/STIM_004.jpg	100
1644.069	0.717	716.9	observe	Run2	observe/STIM_005.jpg	100
1647.925	0.92	920.4	observe	Run2	observe/STIM_005.jpg	99
1651.473	1.156	1155.8	observe	Run2	observe/STIM_005.jpg	100
1656.606	1.28	1280.0	observe	Run2	observe/STIM_005.jpg	99
1661.906	0.816	816.2	observe	Run2	observe/STIM_006.jpg	100
1665.258	0.857	857.2	observe	Run2	observe/STIM_006.jpg	100
1668.681	1.102	1102.4	observe	Run2	observe/STIM_006.jpg	100
1673.724	1.018	1018.0	observe	Run2	observe/STIM_006.jpg	99
1677.47	0.767	767.3	observe	Run2	observe/STIM_007.jpg	99
1682.241	0.708	708.2	observe	Run2	observe/STIM_007.jpg	100
1686.51	1.158	1158.4	observe	Run2	observe/STIM_007.jpg	99
1690.871	1.118	1117.8	observe	Run2	observe/STIM_007.jpg	99
1696.099	0.71	710.3	observe	Run2	observe/STIM_008.jpg	100
1699.139	1.199	1198.9	observe	Run2	observe/STIM_008.jpg	100
1702.771	1.206	1206.0	observe	Run2	observe/STIM_008.jpg	99
1708.152	1.097	1096.8	observe	Run2	observe/STIM_008.jpg	100
1711.917	1.38	1380.5	observe	Run2	observe/STIM_009.jpg	100
1715.815	1.369	1369.0	observe	Run2	observe/STIM_009.jpg	99
1719.672	0.925	924.8	observe	Run2	observe/STIM_009.jpg	99
1723.291	0.933	932.8	observe	Run2	observe/STIM_009.jpg	100
1726.491	1.329	1329.3	observe	Run2	observe/STIM_010.jpg	100
1731.23	1.3	1300.3	observe	Run2	observe/STIM_010.jpg	99
1734.768	1.05	1049.5	observe	Run2	observe/STIM_010.jpg	100
1739.522	1.176	1175.5	observe	Run2	observe/STIM_010.jpg	100
1744.317	1.223	1222.8	observe	Run2	observe/STIM_011.jpg	100
1748.992	0.959	958.7	observe	Run2	observe/STIM_011.jpg	100
1752.482	0.748	747.8	observe	Run2	observe/STIM_011.jpg	99
1757.026	0.699	699.1	observe	Run2	observe/STIM_011.jpg	99
1760.76	0.978	978.1	observe	Run2	observe/STIM_012.jpg	100
1765.477	0.92	920.3	observe	Run2	observe/STIM_012.jpg	100
1768.757	1.371	1370.6	observe	Run2	observe/STIM_012.jpg	100
1772.511	1.114	1114.5	observe	Run2	observe/STIM_012.jpg	99
1777.519	1.382	1381.5	observe	Run2	observe/STIM_013.jpg	99
1782.958	0.731	730.9	observe	Run2	observe/STIM_013.jpg	99
1787.746	0.898	898.3	observe	Run2	observe/STIM_013.jpg	99
1792.114	1.108	1108.0	observe	Run2	observe/STIM_013.jpg	100
1796.016	1.389	1389.4	observe	Run2	observe/STIM_014.jpg	100
1799.867	0.816	815.8	observe	Run2	observe/STIM_014.jpg	99
1803.493	1.068	1067.7	observe	Run2	observe/STIM_014.jpg	99
1807.399	0.999	999.3	observe	Run2	observe/STIM_014.jpg	100
1812.178	1.288	1288.3	observe	Run2	observe/STIM_015.jpg	99
1815.8	1.311	1311.4	observe	Run2	observe/STIM_015.jpg	100
1820.72	0.824	823.8	observe	Run2	observe/STIM_015.jpg	99
1823.921	1.082	1082.0	observe	Run2	observe/STIM_015.jpg	100
1828.0	1.252	1252.2	observe	Run2	observe/STIM_016.jpg	100
1831.858	1.217	1217.4	observe	Run2	observe/STIM_016.jpg	100
1837.255	1.189	1189.1	observe	Run2	observe/STIM_016.jpg	99
1840.863	0.808	807.7	observe	Run2	observe/STIM_016.jpg	100
1845.614	1.11	1109.6	observe	Run2	observe/STIM_017.jpg	100
1849.465	0.778	778.1	observe	Run2	observe/STIM_017.jpg	100
1853.002	1.108	1108.1	observe	Run2	observe/STIM_017.jpg	100
1857.617	1.166	1166.3	observe	Run2	observe/STIM_017.jpg	99
1862.943	0.809	808.6	observe	Run2	observe/STIM_018.jpg	99
1866.16	0.741	741.3	observe	Run2	observe/STIM_018.jpg	99
1870.699	0.984	984.3	observe	Run2	observe/STIM_018.jpg	99
1873.944	1.34	1340.3	observe	Run2	observe/STIM_018.jpg	100
1877.579	0.947	946.7	observe	Run2	observe/STIM_019.jpg	100
1881.549	1.124	1123.8	observe	Run2	observe/STIM_019.jpg	99
1885.177	0.829	829.0	observe	Run2	observe/STIM_019.jpg	100
1889.515	0.887	887.3	observe	Run2	observe/STIM_019.jpg	99
1893.638	1.762	1762.4	regulate	Run3	regulate/STIM_000.jpg	99
1897.834	1.462	1461.6	regulate	Run3	regulate/STIM_000.jpg	100
1902.492	1.062	1062.4	regulate	Run3	regulate/STIM_000.jpg	99
1905.839	1.006	1006.5	regulate	Run3	regulate/STIM_000.jpg	99
1909.193	2.06	2060.0	regulate	Run3	regulate/STIM_001.jpg	100
1914.518	1.4	1399.7	regulate	Run3	regulate/STIM_001.jpg	100
1919.98	2.047	2046.8	regulate	Run3	regulate/STIM_001.jpg	100
1925.768	0.971	970.7	regulate	Run3	regulate/STIM_001.jpg	100
1930.367	1.723	1722.6	regulate	Run3	regulate/STIM_002.jpg	99
1934.867	1.21	1210.4	regulate	Run3	regulate/STIM_002.jpg	99
1939.202	1.799	1799.4	regulate	Run3	regulate/STIM_002.jpg	100
1943.861	1.19	1190.5	regulate	Run3	regulate/STIM_002.jpg	100
1947.565	1.232	1232.3	regulate	Run3	regulate/STIM_003.jpg	99
1951.716	1.88	1879.6	regulate	Run3	regulate/STIM_003.jpg	100
1956.544	1.765	1765.4	regulate	Run3	regulate/STIM_003.jpg	100
1961.708	1.601	1600.9	regulate	Run3	regulate/STIM_003.jpg	100
1967.318	1.04	1040.5	regulate	Run3	regulate/STIM_004.jpg	99
1970.885	1.338	1337.8	regulate	Run3	regulate/STIM_004.jpg	100
1975.502	1.701	1700.7	regulate	Run3	regulate/STIM_004.jpg	99
1980.676	1.538	1537.6	regulate	Run3	regulate/STIM_004.jpg	99
1985.642	1.264	1264.3	regulate	Run3	regulate/STIM_005.jpg	99
1990.913	1.681	1680.8	regulate	Run3	regulate/STIM_005.jpg	99
1994.874	2.023	2022.8	regulate	Run3	regulate/STIM_005.jpg	99
2000.822	1.831	1830.9	regulate	Run3	regulate/STIM_005.jpg	99
2005.429	1.842	1842.3	regulate	Run3	regulate/STIM_006.jpg	100
2010.24	1.242	1241.6	regulate	Run3	regulate/STIM_006.jpg	99
2014.644	1.41	1410.2	regulate	Run3	regulate/STIM_006.jpg	99
2019.462	2.03	2029.5	regulate	Run3	regulate/STIM_006.jpg	99
2025.781	2.034	2033.7	regulate	Run3	regulate/STIM_007.jpg	99
2031.038	1.201	1201.1	regulate	Run3	regulate/STIM_007.jpg	100
2035.963	2.107	2107.0	regulate	Run3	regulate/STIM_007.jpg	99
2040.571	2.062	2062.4	regulate	Run3	regulate/STIM_007.jpg	99
2045.901	1.577	1577.1	regulate	Run3	regulate/STIM_008.jpg	99
2051.055	1.118	1118.1	regulate	Run3	regulate/STIM_008.jpg	99
2055.229	1.446	1446.1	regulate	Run3	regulate/STIM_008.jpg	100
2059.041	1.192	1192.0	regulate	Run3	regulate/STIM_008.jpg	100
2063.506	1.933	1933.1	regulate	Run3	regulate/STIM_009.jpg	100
2067.885	1.709	1708.9	regulate	Run3	regulate/STIM_009.jpg	100
2072.888	1.247	1247.3	regulate	Run3	regulate/STIM_009.jpg	100
2076.989	1.176	1175.5	regulate	Run3	regulate/STIM_009.jpg	100
2081.844	1.43	1429.7	regulate	Run3	regulate/STIM_010.jpg	100
2087.442	2.058	2058.3	regulate	Run3	regulate/STIM_010.jpg	99
2092.028	2.062	2061.7	regulate	Run3	regulate/STIM_010.jpg	99
2097.492	2.086	2086.5	regulate	Run3	regulate/STIM_010.jpg	99
2103.736	1.914	1913.6	regulate	Run3	regulate/STIM_011.jpg	100
2109.504	1.87	1870.0	regulate	Run3	regulate/STIM_011.jpg	100
2114.61	0.948	948.5	regulate	Run3	regulate/STIM_011.jpg	99
2118.375	2.015	2015.4	regulate	Run3	regulate/STIM_011.jpg	100
2123.618	1.015	1015.4	regulate	Run3	regulate/STIM_012.jpg	99
2128.315	1.865	1864.9	regulate	Run3	regulate/STIM_012.jpg	99
2133.863	1.424	1423.7	regulate	Run3	regulate/STIM_012.jpg	99
2137.664	1.148	1147.9	regulate	Run3	regulate/STIM_012.jpg	99
2141.433	1.703	1703.4	regulate	Run3	regulate/STIM_013.jpg	99
2147.112	1.173	1172.7	regulate	Run3	regulate/STIM_013.jpg	100
2150.471	1.931	1931.1	regulate	Run3	regulate/STIM_013.jpg	99
2155.777	2.07	2070.1	regulate	Run3	regulate/STIM_013.jpg	99
2160.232	1.262	1261.8	regulate	Run3	regulate/STIM_014.jpg	99
2164.023	1.464	1463.6	regulate	Run3	regulate/STIM_014.jpg	99
2168.995	1.523	1522.7	regulate	Run3	regulate/STIM_014.jpg	100
2174.443	1.991	1991.4	regulate	Run3	regulate/STIM_014.jpg	100
2180.132	1.46	1459.7	regulate	Run3	regulate/STIM_015.jpg	99
2184.524	0.934	934.0	regulate	Run3	regulate/STIM_015.jpg	100
2187.848	1.774	1774.0	regulate	Run3	regulate/STIM_015.jpg	100
2192.077	1.184	1183.7	regulate	Run3	regulate/STIM_015.jpg	100
2196.844	1.881	1880.7	regulate	Run3	regulate/STIM_016.jpg	99
2202.22	1.205	1204.9	regulate	Run3	regulate/STIM_016.jpg	99
2206.293	0.943	942.8	regulate	Run3	regulate/STIM_016.jpg	99
2209.974	1.194	1194.1	regulate	Run3	regulate/STIM_016.jpg	100
2214.407	2.021	2021.2	regulate	Run3	regulate/STIM_017.jpg	100
2218.789	1.868	1867.7	regulate	Run3	regulate/STIM_017.jpg	99
2224.084	1.445	1444.6	regulate	Run3	regulate/STIM_017.jpg	100
2229.645	1.777	1776.7	regulate	Run3	regulate/STIM_017.jpg	99
2233.704	0.916	916.0	regulate	Run3	regulate/STIM_018.jpg	100
2237.084	1.084	1083.6	regulate	Run3	regulate/STIM_018.jpg	100
2242.286	1.158	1158.5	regulate	Run3	regulate/STIM_018.jpg	100
2245.829	1.129	1128.6	regulate	Run3	regulate/STIM_018.jpg	99
2250.124	0.979	979.0	regulate	Run3	regulate/STIM_019.jpg	99
2254.779	1.123	1123.1	regulate	Run3	regulate/STIM_019.jpg	100
2259.912	1.705	1705.1	regulate	Run3	regulate/STIM_019.jpg	100
2265.371	1.375	1375.4	regulate	Run3	regulate/STIM_019.jpg	99
2269.139	1.476	1476.5	regulate	Run3	regulate/STIM_020.jpg	99
2274.731	1.906	1905.6	regulate	Run3	regulate/STIM_020.jpg	99
2279.872	1.983	1982.7	regulate	Run3	regulate/STIM_020.jpg	100
2285.632	1.984	1983.7	regulate	Run3	regulate/STIM_020.jpg	100
2291.329	1.063	1063.0	regulate	Run3	regulate/STIM_021.jpg	100
2294.844	1.539	1539.1	regulate	Run3	regulate/STIM_021.jpg	100
2299.227	1.73	1729.9	regulate	Run3	regulate/STIM_021.jpg	100
2303.861	1.822	1822.0	regulate	Run3	regulate/STIM_021.jpg	99
2309.835	1.052	1052.3	regulate	Run3	regulate/STIM_022.jpg	100
2315.028	1.475	1475.1	regulate	Run3	regulate/STIM_022.jpg	99
2319.244	1.126	1125.5	regulate	Run3	regulate/STIM_022.jpg	99
2323.347	1.119	1119.0	regulate	Run3	regulate/STIM_022.jpg	100
2326.712	1.461	1461.1	regulate	Run3	regulate/STIM_023.jpg	99
2332.109	1.64	1640.5	regulate	Run3	regulate/STIM_023.jpg	99
2337.337	1.615	1615.1	regulate	Run3	regulate/STIM_023.jpg	100
2341.44	2.067	2066.6	regulate	Run3	regulate/STIM_023.jpg	100
2347.415	1.715	1715.1	regulate	Run3	regulate/STIM_024.jpg	100
2351.692	1.183	1183.2	regulate	Run3	regulate/STIM_024.jpg	100
2355.391	1.461	1461.1	regulate	Run3	regulate/STIM_024.jpg	99
2360.798	1.978	1978.2	regulate	Run3	regulate/STIM_024.jpg	99
2366.001	1.343	1343.3	regulate	Run3	regulate/STIM_025.jpg	100
2371.067	1.959	1959.4	regulate	Run3	regulate/STIM_025.jpg	100
2376.896	2.05	2050.1	regulate	Run3	regulate/STIM_025.jpg	100
2381.698	1.638	1637.9	regulate	Run3	regulate/STIM_025.jpg	100
2387.053	1.809	1809.1	regulate	Run3	regulate/STIM_026.jpg	100
2391.404	1.628	1628.2	regulate	Run3	regulate/STIM_026.jpg	99
2397.167	2.032	2031.8	regulate	Run3	regulate/STIM_026.jpg	99
2402.472	2.127	2127.4	regulate	Run3	regulate/STIM_026.jpg	99
2407.536	1.654	1653.8	regulate	Run3	regulate/STIM_027.jpg	100
2412.249	1.192	1191.9	regulate	Run3	regulate/STIM_027.jpg	100
2416.849	1.213	1212.9	regulate	Run3	regulate/STIM_027.jpg	100
2421.315	1.793	1793.0	regulate	Run3	regulate/STIM_027.jpg	99
2426.095	1.616	1615.7	regulate	Run3	regulate/STIM_028.jpg	100
2431.179	1.137	1137.3	regulate	Run3	regulate/STIM_028.jpg	99
2435.721	2.089	2088.9	regulate	Run3	regulate/STIM_028.jpg	99
2441.227	1.939	1939.1	regulate	Run3	regulate/STIM_028.jpg	99
2447.043	1.37	1370.4	regulate	Run3	regulate/STIM_029.jpg	99
2452.142	1.587	1586.9	regulate	Run3	regulate/STIM_029.jpg	100
2457.854	2.026	2025.8	regulate	Run3	regulate/STIM_029.jpg	100
2462.659	1.346	1346.5	regulate	Run3	regulate/STIM_029.jpg	99
2467.374	1.132	1131.5	observe	Run3	observe/STIM_000.jpg	100
2470.788	1.215	1214.7	observe	Run3	observe/STIM_000.jpg	100
2474.552	1.19	1190.2	observe	Run3	observe/STIM_000.jpg	99
2478.881	1.21	1210.0	observe	Run3	observe/STIM_000.jpg	100
2483.763	1.222	1222.2	observe	Run3	observe/STIM_001.jpg	100
2488.405	0.771	770.6	observe	Run3	observe/STIM_001.jpg	100
2492.807	0.719	718.7	observe	Run3	observe/STIM_001.jpg	99
2497.623	0.745	745.4	observe	Run3	observe/STIM_001.jpg	99
2501.629	0.955	954.7	observe	Run3	observe/STIM_002.jpg	99
2506.4	0.864	863.7	observe	Run3	observe/STIM_002.jpg	99
2510.406	0.923	922.9	observe	Run3	observe/STIM_002.jpg	99
2514.064	0.761	761.2	observe	Run3	observe/STIM_002.jpg	100
2517.463	1.057	1057.3	observe	Run3	observe/STIM_003.jpg	100
2520.949	0.756	755.7	observe	Run3	observe/STIM_003.jpg	100
2524.712	0.732	731.6	observe	Run3	observe/STIM_003.jpg	100
2529.461	0.702	702.0	observe	Run3	observe/STIM_003.jpg	99
2533.974	1.076	1076.0	observe	Run3	observe/STIM_004.jpg	99
2538.319	0.723	723.1	observe	Run3	observe/STIM_004.jpg	100
2541.279	0.73	729.5	observe	Run3	observe/STIM_004.jpg	99
2545.754	0.822	822.3	observe	Run3	observe/STIM_004.jpg	99
2550.365	1.092	1092.2	observe	Run3	observe/STIM_005.jpg	99
2555.166	0.963	962.7	observe	Run3	observe/STIM_005.jpg	100
2559.766	1.204	1203.5	observe	Run3	observe/STIM_005.jpg	100
2563.172	1.025	1025.1	observe	Run3	observe/STIM_005.jpg	100
2568.294	1.118	1117.6	observe	Run3	observe/STIM_006.jpg	100
2572.862	1.178	1178.3	observe	Run3	observe/STIM_006.jpg	100
2576.314	1.153	1152.8	observe	Run3	observe/STIM_006.jpg	100
2580.592	0.709	709.1	observe	Run3	observe/STIM_006.jpg	100
2584.288	1.113	1112.6	observe	Run3	observe/STIM_007.jpg	99
2587.575	1.264	1263.9	observe	Run3	observe/STIM_007.jpg	99
2592.166	1.036	1035.8	observe	Run3	observe/STIM_007.jpg	100
2596.306	1.029	1029.1	observe	Run3	observe/STIM_007.jpg	99
2601.084	1.221	1220.8	observe	Run3	observe/STIM_008.jpg	100
2604.813	1.32	1319.8	observe	Run3	observe/STIM_008.jpg	100
2608.495	1.006	1006.4	observe	Run3	observe/STIM_008.jpg	99
2612.709	1.297	1296.6	observe	Run3	observe/STIM_008.jpg	100
2616.646	1.316	1315.8	observe	Run3	observe/STIM_009.jpg	99
2622.061	1.006	1006.1	observe	Run3	observe/STIM_009.jpg	99
2625.84	1.056	1056.2	observe	Run3	observe/STIM_009.jpg	100
2630.009	1.348	1348.0	observe	Run3	observe/STIM_009.jpg	100
2634.616	1.236	1235.8	observe	Run3	observe/STIM_010.jpg	99
2639.528	0.98	979.5	observe	Run3	observe/STIM_010.jpg	99
2643.208	1.088	1088.0	observe	Run3	observe/STIM_010.jpg	99
2648.276	0.946	945.7	observe	Run3	observe/STIM_010.jpg	99
2652.394	1.281	1280.8	observe	Run3	observe/STIM_011.jpg	100
2657.164	0.918	918.5	observe	Run3	observe/STIM_011.jpg	100
2661.474	0.783	782.9	observe	Run3	observe/STIM_011.jpg	99
2666.2	1.267	1267.3	observe	Run3	observe/STIM_011.jpg	100
2670.214	0.792	791.9	observe	Run3	observe/STIM_012.jpg	100
2673.183	1.323	1323.3	observe	Run3	observe/STIM_012.jpg	100
2677.909	1.39	1389.6	observe	Run3	observe/STIM_012.jpg	100
2683.486	1.189	1189.3	observe	Run3	observe/STIM_012.jpg	99
2687.877	1.074	1073.9	observe	Run3	observe/STIM_013.jpg	99
2691.695	1.073	1073.2	observe	Run3	observe/STIM_013.jpg	100
2696.124	1.289	1288.9	observe	Run3	observe/STIM_013.jpg	99
2700.6	1.103	1103.4	observe	Run3	observe/STIM_013.jpg	100
2704.893	0.745	745.2	observe	Run3	observe/STIM_014.jpg	99
2709.398	1.153	1152.6	observe	Run3	observe/STIM_014.jpg	100
2713.903	1.05	1050.3	observe	Run3	observe/STIM_014.jpg	100
2718.357	1.32	1320.0	observe	Run3	observe/STIM_014.jpg	99
2723.018	1.212	1211.9	observe	Run3	observe/STIM_015.jpg	99
2727.179	0.723	722.9	observe	Run3	observe/STIM_015.jpg	100
2731.003	1.12	1119.8	observe	Run3	observe/STIM_015.jpg	99
2735.353	0.939	939.2	observe	Run3	observe/STIM_015.jpg	99
2738.597	0.826	826.2	observe	Run3	observe/STIM_016.jpg	99
2743.305	0.812	811.8	observe	Run3	observe/STIM_016.jpg	100
2748.03	1.262	1262.4	observe	Run3	observe/STIM_016.jpg	99
2752.198	0.994	994.5	observe	Run3	observe/STIM_016.jpg	100
2756.599	1.18	1179.6	observe	Run3	observe/STIM_017.jpg	100
2761.492	0.712	712.2	observe	Run3	observe/STIM_017.jpg	100
2764.545	1.024	1023.6	observe	Run3	observe/STIM_017.jpg	99
2769.117	0.914	914.4	observe	Run3	observe/STIM_017.jpg	99
2773.475	1.051	1050.6	observe	Run3	observe/STIM_018.jpg	100
2777.58	1.216	1215.8	observe	Run3	observe/STIM_018.jpg	99
2781.964	1.217	1216.6	observe	Run3	observe/STIM_018.jpg	99
2787.217	0.92	920.3	observe	Run3	observe/STIM_018.jpg	99
2790.335	1.264	1263.9	observe	Run3	observe/STIM_019.jpg	100
2795.314	0.912	912.2	observe	Run3	observe/STIM_019.jpg	100
2799.65	1.141	1141.1	observe	Run3	observe/STIM_019.jpg	100
2803.608	1.145	1145.0	observe	Run3	observe/STIM_019.jpg	100
