onset	duration	accuracy_binary	trial_type	learning_stage	stimulus
0.0	2.09	1	regulate	Run1	regulate/STIM_000.jpg
6.11	2.153	1	regulate	Run1	regulate/STIM_000.jpg
10.989	2.011	1	regulate	Run1	regulate/STIM_000.jpg
16.948	2.681	1	regulate	Run1	regulate/STIM_000.jpg
22.732	1.617	0	regulate	Run1	regulate/STIM_001.jpg
27.302	3.212	1	regulate	Run1	regulate/STIM_001.jpg
33.098	2.474	1	regulate	Run1	regulate/STIM_001.jpg
39.33	2.321	1	regulate	Run1	regulate/STIM_001.jpg
45.348	2.629	0	regulate	Run1	regulate/STIM_002.jpg
51.9	2.783	1	regulate	Run1	regulate/STIM_002.jpg
57.547	2.899	1	regulate	Run1	regulate/STIM_002.jpg
63.266	2.073	1	regulate	Run1	regulate/STIM_002.jpg
67.98	3.263	1	regulate	Run1	regulate/STIM_003.jpg
74.825	1.81	1	regulate	Run1	regulate/STIM_003.jpg
80.381	1.636	1	regulate	Run1	regulate/STIM_003.jpg
85.395	2.256	1	regulate	Run1	regulate/STIM_003.jpg
91.573	2.095	1	regulate	Run1	regulate/STIM_004.jpg
96.341	3.068	1	regulate	Run1	regulate/STIM_004.jpg
103.047	1.374	1	regulate	Run1	regulate/STIM_004.jpg
106.634	1.777	1	regulate	Run1	regulate/STIM_004.jpg
111.775	1.88	1	regulate	Run1	regulate/STIM_005.jpg
116.232	1.832	1	regulate	Run1	regulate/STIM_005.jpg
120.484	1.99	1	regulate	Run1	regulate/STIM_005.jpg
125.398	2.536	1	regulate	Run1	regulate/STIM_005.jpg
130.286	2.163	1	regulate	Run1	regulate/STIM_006.jpg
134.928	2.75	1	regulate	Run1	regulate/STIM_006.jpg
141.276	1.659	1	regulate	Run1	regulate/STIM_006.jpg
146.697	2.847	0	regulate	Run1	regulate/STIM_006.jpg
153.437	2.348	1	regulate	Run1	regulate/STIM_007.jpg
158.136	2.748	1	regulate	Run1	regulate/STIM_007.jpg
164.958	3.038	1	regulate	Run1	regulate/STIM_007.jpg
170.102	2.093	1	regulate	Run1	regulate/STIM_007.jpg
174.777	1.468	1	regulate	Run1	regulate/STIM_008.jpg
180.058	2.745	1	regulate	Run1	regulate/STIM_008.jpg
185.225	2.14	1	regulate	Run1	regulate/STIM_008.jpg
190.493	2.864	1	regulate	Run1	regulate/STIM_008.jpg
197.241	3.292	1	regulate	Run1	regulate/STIM_009.jpg
202.946	2.48	1	regulate	Run1	regulate/STIM_009.jpg
209.46	1.328	0	regulate	Run1	regulate/STIM_009.jpg
213.529	2.619	1	regulate	Run1	regulate/STIM_009.jpg
218.83	2.681	0	regulate	Run1	regulate/STIM_010.jpg
224.18	2.569	0	regulate	Run1	regulate/STIM_010.jpg
229.573	1.414	1	regulate	Run1	regulate/STIM_010.jpg
234.719	2.675	1	regulate	Run1	regulate/STIM_010.jpg
240.426	3.354	1	regulate	Run1	regulate/STIM_011.jpg
246.388	2.983	0	regulate	Run1	regulate/STIM_011.jpg
253.201	2.378	1	regulate	Run1	regulate/STIM_011.jpg
258.201	1.813	1	regulate	Run1	regulate/STIM_011.jpg
262.147	3.15	0	regulate	Run1	regulate/STIM_012.jpg
268.308	1.577	1	regulate	Run1	regulate/STIM_012.jpg
272.815	2.098	1	regulate	Run1	regulate/STIM_012.jpg
277.865	2.549	1	regulate	Run1	regulate/STIM_012.jpg
282.535	2.282	1	regulate	Run1	regulate/STIM_013.jpg
288.286	2.625	1	regulate	Run1	regulate/STIM_013.jpg
294.011	2.122	1	regulate	Run1	regulate/STIM_013.jpg
299.689	2.23	1	regulate	Run1	regulate/STIM_013.jpg
305.524	3.027	1	regulate	Run1	regulate/STIM_014.jpg
311.882	1.844	1	regulate	Run1	regulate/STIM_014.jpg
317.439	2.765	0	regulate	Run1	regulate/STIM_014.jpg
323.911	2.043	1	regulate	Run1	regulate/STIM_014.jpg
329.993	1.862	1	regulate	Run1	regulate/STIM_015.jpg
335.84	2.583	0	regulate	Run1	regulate/STIM_015.jpg
341.399	2.311	1	regulate	Run1	regulate/STIM_015.jpg
347.629	1.645	1	regulate	Run1	regulate/STIM_015.jpg
353.277	1.606	0	regulate	Run1	regulate/STIM_016.jpg
357.717	2.82	1	regulate	Run1	regulate/STIM_016.jpg
362.736	1.326	0	regulate	Run1	regulate/STIM_016.jpg
366.122	2.651	1	regulate	Run1	regulate/STIM_016.jpg
371.338	2.835	1	regulate	Run1	regulate/STIM_017.jpg
377.096	3.005	0	regulate	Run1	regulate/STIM_017.jpg
382.823	2.742	1	regulate	Run1	regulate/STIM_017.jpg
387.733	1.425	1	regulate	Run1	regulate/STIM_017.jpg
392.873	2.045	1	regulate	Run1	regulate/STIM_018.jpg
398.687	1.842	1	regulate	Run1	regulate/STIM_018.jpg
404.207	2.139	1	regulate	Run1	regulate/STIM_018.jpg
409.645	2.582	1	regulate	Run1	regulate/STIM_018.jpg
414.434	2.141	1	regulate	Run1	regulate/STIM_019.jpg
419.764	2.617	1	regulate	Run1	regulate/STIM_019.jpg
424.765	2.307	0	regulate	Run1	regulate/STIM_019.jpg
429.695	2.174	1	regulate	Run1	regulate/STIM_019.jpg
434.941	1.69	0	regulate	Run1	regulate/STIM_020.jpg
440.147	1.826	1	regulate	Run1	regulate/STIM_020.jpg
446.031	2.48	1	regulate	Run1	regulate/STIM_020.jpg
452.441	2.688	1	regulate	Run1	regulate/STIM_020.jpg
457.407	2.276	1	regulate	Run1	regulate/STIM_021.jpg
462.856	3.062	1	regulate	Run1	regulate/STIM_021.jpg
469.585	2.336	1	regulate	Run1	regulate/STIM_021.jpg
475.285	1.398	1	regulate	Run1	regulate/STIM_021.jpg
479.412	1.973	1	regulate	Run1	regulate/STIM_022.jpg
483.596	2.059	1	regulate	Run1	regulate/STIM_022.jpg
487.978	2.443	0	regulate	Run1	regulate/STIM_022.jpg
493.533	2.733	1	regulate	Run1	regulate/STIM_022.jpg
498.621	2.54	1	regulate	Run1	regulate/STIM_023.jpg
504.848	2.802	0	regulate	Run1	regulate/STIM_023.jpg
510.917	2.788	1	regulate	Run1	regulate/STIM_023.jpg
517.318	1.428	1	regulate	Run1	regulate/STIM_023.jpg
521.107	1.55	1	regulate	Run1	regulate/STIM_024.jpg
526.34	2.082	0	regulate	Run1	regulate/STIM_024.jpg
531.708	2.269	1	regulate	Run1	regulate/STIM_024.jpg
537.561	1.755	1	regulate	Run1	regulate/STIM_024.jpg
541.77	2.297	1	regulate	Run1	regulate/STIM_025.jpg
547.697	2.935	1	regulate	Run1	regulate/STIM_025.jpg
553.656	1.404	1	regulate	Run1	regulate/STIM_025.jpg
557.501	2.016	0	regulate	Run1	regulate/STIM_025.jpg
561.753	2.675	1	regulate	Run1	regulate/STIM_026.jpg
567.251	1.737	0	regulate	Run1	regulate/STIM_026.jpg
571.657	2.914	1	regulate	Run1	regulate/STIM_026.jpg
577.928	2.157	1	regulate	Run1	regulate/STIM_026.jpg
584.105	3.265	1	regulate	Run1	regulate/STIM_027.jpg
589.95	1.474	0	regulate	Run1	regulate/STIM_027.jpg
595.305	1.503	1	regulate	Run1	regulate/STIM_027.jpg
600.316	1.541	1	regulate	Run1	regulate/STIM_027.jpg
605.589	3.034	1	regulate	Run1	regulate/STIM_028.jpg
611.399	2.613	1	regulate	Run1	regulate/STIM_028.jpg
617.726	2.398	0	regulate	Run1	regulate/STIM_028.jpg
624.071	1.539	1	regulate	Run1	regulate/STIM_028.jpg
628.565	2.902	1	regulate	Run1	regulate/STIM_029.jpg
634.829	2.274	1	regulate	Run1	regulate/STIM_029.jpg
641.117	2.457	0	regulate	Run1	regulate/STIM_029.jpg
646.391	1.502	0	regulate	Run1	regulate/STIM_029.jpg
650.271	1.253	1	observe	Run1	observe/STIM_000.jpg
655.24	1.144	1	observe	Run1	observe/STIM_000.jpg
659.015	1.12	1	observe	Run1	observe/STIM_000.jpg
662.922	1.386	1	observe	Run1	observe/STIM_000.jpg
668.087	1.049	1	observe	Run1	observe/STIM_001.jpg
671.472	0.945	1	observe	Run1	observe/STIM_001.jpg
675.761	1.317	1	observe	Run1	observe/STIM_001.jpg
680.986	0.976	1	observe	Run1	observe/STIM_001.jpg
684.27	0.825	1	observe	Run1	observe/STIM_002.jpg
688.479	0.806	1	observe	Run1	observe/STIM_002.jpg
693.09	1.339	1	observe	Run1	observe/STIM_002.jpg
697.184	1.447	1	observe	Run1	observe/STIM_002.jpg
702.641	0.963	1	observe	Run1	observe/STIM_003.jpg
705.66	1.114	1	observe	Run1	observe/STIM_003.jpg
709.59	1.08	1	observe	Run1	observe/STIM_003.jpg
714.56	0.971	0	observe	Run1	observe/STIM_003.jpg
718.294	1.085	1	observe	Run1	observe/STIM_004.jpg
721.978	1.3	1	observe	Run1	observe/STIM_004.jpg
726.764	1.488	0	observe	Run1	observe/STIM_004.jpg
731.015	1.205	1	observe	Run1	observe/STIM_004.jpg
735.851	0.844	0	observe	Run1	observe/STIM_005.jpg
738.977	0.873	1	observe	Run1	observe/STIM_005.jpg
742.574	0.83	1	observe	Run1	observe/STIM_005.jpg
747.011	1.264	1	observe	Run1	observe/STIM_005.jpg
752.254	1.068	1	observe	Run1	observe/STIM_006.jpg
757.261	0.959	1	observe	Run1	observe/STIM_006.jpg
760.794	1.337	1	observe	Run1	observe/STIM_006.jpg
765.74	1.309	1	observe	Run1	observe/STIM_006.jpg
769.755	0.882	1	observe	Run1	observe/STIM_007.jpg
773.263	0.996	1	observe	Run1	observe/STIM_007.jpg
777.592	1.468	1	observe	Run1	observe/STIM_007.jpg
781.136	1.449	1	observe	Run1	observe/STIM_007.jpg
786.567	1.258	0	observe	Run1	observe/STIM_008.jpg
790.754	0.986	1	observe	Run1	observe/STIM_008.jpg
795.153	1.17	1	observe	Run1	observe/STIM_008.jpg
799.464	1.361	1	observe	Run1	observe/STIM_008.jpg
804.401	1.01	1	observe	Run1	observe/STIM_009.jpg
808.995	1.435	1	observe	Run1	observe/STIM_009.jpg
813.285	1.481	1	observe	Run1	observe/STIM_009.jpg
818.146	1.309	1	observe	Run1	observe/STIM_009.jpg
822.211	1.437	1	observe	Run1	observe/STIM_010.jpg
826.981	1.242	1	observe	Run1	observe/STIM_010.jpg
832.157	1.354	1	observe	Run1	observe/STIM_010.jpg
836.502	1.405	1	observe	Run1	observe/STIM_010.jpg
840.188	1.524	0	observe	Run1	observe/STIM_011.jpg
844.571	1.548	1	observe	Run1	observe/STIM_011.jpg
848.925	1.303	1	observe	Run1	observe/STIM_011.jpg
852.727	1.18	1	observe	Run1	observe/STIM_011.jpg
857.007	0.903	1	observe	Run1	observe/STIM_012.jpg
860.777	1.139	0	observe	Run1	observe/STIM_012.jpg
864.358	1.289	1	observe	Run1	observe/STIM_012.jpg
869.327	1.154	0	observe	Run1	observe/STIM_012.jpg
873.898	0.924	1	observe	Run1	observe/STIM_013.jpg
878.003	1.234	1	observe	Run1	observe/STIM_013.jpg
882.233	1.22	1	observe	Run1	observe/STIM_013.jpg
885.702	1.523	1	observe	Run1	observe/STIM_013.jpg
890.749	1.369	1	observe	Run1	observe/STIM_014.jpg
895.876	0.891	1	observe	Run1	observe/STIM_014.jpg
899.637	0.923	1	observe	Run1	observe/STIM_014.jpg
902.874	1.44	1	observe	Run1	observe/STIM_014.jpg
907.533	1.179	1	observe	Run1	observe/STIM_015.jpg
911.65	1.193	1	observe	Run1	observe/STIM_015.jpg
915.81	0.806	1	observe	Run1	observe/STIM_015.jpg
918.847	1.144	1	observe	Run1	observe/STIM_015.jpg
922.098	0.851	1	observe	Run1	observe/STIM_016.jpg
926.638	0.928	1	observe	Run1	observe/STIM_016.jpg
929.694	1.064	1	observe	Run1	observe/STIM_016.jpg
933.589	1.386	1	observe	Run1	observe/STIM_016.jpg
937.749	1.051	1	observe	Run1	observe/STIM_017.jpg
942.465	1.24	1	observe	Run1	observe/STIM_017.jpg
947.141	0.959	1	observe	Run1	observe/STIM_017.jpg
950.172	1.216	1	observe	Run1	observe/STIM_017.jpg
954.345	1.527	1	observe	Run1	observe/STIM_018.jpg
959.44	1.034	1	observe	Run1	observe/STIM_018.jpg
964.126	1.517	1	observe	Run1	observe/STIM_018.jpg
969.045	0.816	1	observe	Run1	observe/STIM_018.jpg
973.167	1.396	1	observe	Run1	observe/STIM_019.jpg
977.359	1.081	0	observe	Run1	observe/STIM_019.jpg
980.842	1.007	1	observe	Run1	observe/STIM_019.jpg
984.519	1.205	1	observe	Run1	observe/STIM_019.jpg
989.042	1.394	1	regulate	Run2	regulate/STIM_000.jpg
994.232	2.008	0	regulate	Run2	regulate/STIM_000.jpg
1000.15	1.656	1	regulate	Run2	regulate/STIM_000.jpg
1004.324	1.341	0	regulate	Run2	regulate/STIM_000.jpg
1008.902	2.856	1	regulate	Run2	regulate/STIM_001.jpg
1014.012	1.28	0	regulate	Run2	regulate/STIM_001.jpg
1017.854	1.34	1	regulate	Run2	regulate/STIM_001.jpg
1022.152	1.396	1	regulate	Run2	regulate/STIM_001.jpg
1027.315	2.763	1	regulate	Run2	regulate/STIM_002.jpg
1032.697	2.174	1	regulate	Run2	regulate/STIM_002.jpg
1037.493	1.438	1	regulate	Run2	regulate/STIM_002.jpg
1041.024	1.932	1	regulate	Run2	regulate/STIM_002.jpg
1045.437	2.467	1	regulate	Run2	regulate/STIM_003.jpg
1050.482	2.657	1	regulate	Run2	regulate/STIM_003.jpg
1055.782	2.479	1	regulate	Run2	regulate/STIM_003.jpg
1061.375	2.001	1	regulate	Run2	regulate/STIM_003.jpg
1067.2	1.519	1	regulate	Run2	regulate/STIM_004.jpg
1072.241	2.011	1	regulate	Run2	regulate/STIM_004.jpg
1076.628	1.612	1	regulate	Run2	regulate/STIM_004.jpg
1080.659	1.269	1	regulate	Run2	regulate/STIM_004.jpg
1084.619	2.254	1	regulate	Run2	regulate/STIM_005.jpg
1089.311	1.592	0	regulate	Run2	regulate/STIM_005.jpg
1093.576	2.031	1	regulate	Run2	regulate/STIM_005.jpg
1098.619	2.294	1	regulate	Run2	regulate/STIM_005.jpg
1103.48	2.291	1	regulate	Run2	regulate/STIM_006.jpg
1108.125	1.475	1	regulate	Run2	regulate/STIM_006.jpg
1112.398	1.866	1	regulate	Run2	regulate/STIM_006.jpg
1116.703	2.32	0	regulate	Run2	regulate/STIM_006.jpg
1121.506	1.582	1	regulate	Run2	regulate/STIM_007.jpg
1125.88	1.652	1	regulate	Run2	regulate/STIM_007.jpg
1131.244	1.647	1	regulate	Run2	regulate/STIM_007.jpg
1136.13	1.121	0	regulate	Run2	regulate/STIM_007.jpg
1140.207	2.378	1	regulate	Run2	regulate/STIM_008.jpg
1145.135	1.236	1	regulate	Run2	regulate/STIM_008.jpg
1149.051	1.427	1	regulate	Run2	regulate/STIM_008.jpg
1153.854	1.914	1	regulate	Run2	regulate/STIM_008.jpg
1158.411	1.703	1	regulate	Run2	regulate/STIM_009.jpg
1163.83	1.749	1	regulate	Run2	regulate/STIM_009.jpg
1168.62	1.34	1	regulate	Run2	regulate/STIM_009.jpg
1173.455	2.29	1	regulate	Run2	regulate/STIM_009.jpg
1179.092	1.968	1	regulate	Run2	regulate/STIM_010.jpg
1184.489	1.605	1	regulate	Run2	regulate/STIM_010.jpg
1189.868	2.344	1	regulate	Run2	regulate/STIM_010.jpg
1195.853	1.073	1	regulate	Run2	regulate/STIM_010.jpg
1199.691	2.477	1	regulate	Run2	regulate/STIM_011.jpg
1204.669	1.981	0	regulate	Run2	regulate/STIM_011.jpg
1209.706	2.46	1	regulate	Run2	regulate/STIM_011.jpg
1215.901	1.268	1	regulate	Run2	regulate/STIM_011.jpg
1220.728	2.817	0	regulate	Run2	regulate/STIM_012.jpg
1225.768	2.543	1	regulate	Run2	regulate/STIM_012.jpg
1232.332	2.038	1	regulate	Run2	regulate/STIM_012.jpg
1238.043	2.268	1	regulate	Run2	regulate/STIM_012.jpg
1244.138	1.289	1	regulate	Run2	regulate/STIM_013.jpg
1248.108	1.582	1	regulate	Run2	regulate/STIM_013.jpg
1253.334	1.954	1	regulate	Run2	regulate/STIM_013.jpg
1259.142	2.235	1	regulate	Run2	regulate/STIM_013.jpg
1264.604	1.592	0	regulate	Run2	regulate/STIM_014.jpg
1268.64	1.486	1	regulate	Run2	regulate/STIM_014.jpg
1273.34	1.214	1	regulate	Run2	regulate/STIM_014.jpg
1277.362	2.046	1	regulate	Run2	regulate/STIM_014.jpg
1283.276	1.574	1	regulate	Run2	regulate/STIM_015.jpg
1287.931	1.728	1	regulate	Run2	regulate/STIM_015.jpg
1293.031	1.878	0	regulate	Run2	regulate/STIM_015.jpg
1298.325	2.005	1	regulate	Run2	regulate/STIM_015.jpg
1302.769	2.342	0	regulate	Run2	regulate/STIM_016.jpg
1309.113	1.634	1	regulate	Run2	regulate/STIM_016.jpg
1314.795	1.455	0	regulate	Run2	regulate/STIM_016.jpg
1318.848	1.121	1	regulate	Run2	regulate/STIM_016.jpg
1322.018	2.369	1	regulate	Run2	regulate/STIM_017.jpg
1327.165	1.323	1	regulate	Run2	regulate/STIM_017.jpg
1330.878	1.448	1	regulate	Run2	regulate/STIM_017.jpg
1335.879	1.209	1	regulate	Run2	regulate/STIM_017.jpg
1340.717	1.849	1	regulate	Run2	regulate/STIM_018.jpg
1346.074	1.907	1	regulate	Run2	regulate/STIM_018.jpg
1350.089	1.553	1	regulate	Run2	regulate/STIM_018.jpg
1353.862	1.958	1	regulate	Run2	regulate/STIM_018.jpg
1359.825	1.756	1	regulate	Run2	regulate/STIM_019.jpg
1364.693	1.581	1	regulate	Run2	regulate/STIM_019.jpg
1370.126	1.111	0	regulate	Run2	regulate/STIM_019.jpg
1374.4	1.088	1	regulate	Run2	regulate/STIM_019.jpg
1377.705	1.76	1	regulate	Run2	regulate/STIM_020.jpg
1382.755	1.559	1	regulate	Run2	regulate/STIM_020.jpg
1386.749	1.374	1	regulate	Run2	regulate/STIM_020.jpg
1390.703	1.277	1	regulate	Run2	regulate/STIM_020.jpg
1394.67	1.731	0	regulate	Run2	regulate/STIM_021.jpg
1399.761	2.217	0	regulate	Run2	regulate/STIM_021.jpg
1405.789	1.198	1	regulate	Run2	regulate/STIM_021.jpg
1410.22	2.059	1	regulate	Run2	regulate/STIM_021.jpg
1415.267	2.351	1	regulate	Run2	regulate/STIM_022.jpg
1419.906	1.207	1	regulate	Run2	regulate/STIM_022.jpg
1424.033	2.451	1	regulate	Run2	regulate/STIM_022.jpg
1430.135	2.362	1	regulate	Run2	regulate/STIM_022.jpg
1435.464	2.291	1	regulate	Run2	regulate/STIM_023.jpg
1440.872	2.108	1	regulate	Run2	regulate/STIM_023.jpg
1446.111	1.658	1	regulate	Run2	regulate/STIM_023.jpg
1449.936	1.996	0	regulate	Run2	regulate/STIM_023.jpg
1454.717	2.566	0	regulate	Run2	regulate/STIM_024.jpg
1460.546	1.362	1	regulate	Run2	regulate/STIM_024.jpg
1464.825	2.174	1	regulate	Run2	regulate/STIM_024.jpg
1469.212	2.008	1	regulate	Run2	regulate/STIM_024.jpg
1473.592	1.346	1	regulate	Run2	regulate/STIM_025.jpg
1478.321	1.474	1	regulate	Run2	regulate/STIM_025.jpg
1482.29	1.232	1	regulate	Run2	regulate/STIM_025.jpg
1486.423	1.924	1	regulate	Run2	regulate/STIM_025.jpg
1490.844	2.496	0	regulate	Run2	regulate/STIM_026.jpg
1497.419	2.02	1	regulate	Run2	regulate/STIM_026.jpg
1503.402	2.44	1	regulate	Run2	regulate/STIM_026.jpg
1508.372	1.757	1	regulate	Run2	regulate/STIM_026.jpg
1512.696	2.203	1	regulate	Run2	regulate/STIM_027.jpg
1518.038	2.588	1	regulate	Run2	regulate/STIM_027.jpg
1524.34	1.378	0	regulate	Run2	regulate/STIM_027.jpg
1529.339	1.987	1	regulate	Run2	regulate/STIM_027.jpg
1534.602	2.11	0	regulate	Run2	regulate/STIM_028.jpg
1538.827	2.509	1	regulate	Run2	regulate/STIM_028.jpg
1544.936	2.037	1	regulate	Run2	regulate/STIM_028.jpg
1550.993	2.062	1	regulate	Run2	regulate/STIM_028.jpg
1555.749	1.392	1	regulate	Run2	regulate/STIM_029.jpg
1559.227	2.378	1	regulate	Run2	regulate/STIM_029.jpg
1564.285	1.944	1	regulate	Run2	regulate/STIM_029.jpg
1570.223	2.263	1	regulate	Run2	regulate/STIM_029.jpg
1575.118	1.496	1	observe	Run2	observe/STIM_000.jpg
1580.353	1.108	0	observe	Run2	observe/STIM_000.jpg
1584.821	1.264	1	observe	Run2	observe/STIM_000.jpg
1588.99	1.207	1	observe	Run2	observe/STIM_000.jpg
1592.373	1.316	0	observe	Run2	observe/STIM_001.jpg
1595.84	0.88	1	observe	Run2	observe/STIM_001.jpg
1599.397	1.155	1	observe	Run2	observe/STIM_001.jpg
1602.699	0.931	1	observe	Run2	observe/STIM_001.jpg
1607.099	0.831	0	observe	Run2	observe/STIM_002.jpg
1611.376	1.412	1	observe	Run2	observe/STIM_002.jpg
1615.028	1.274	1	observe	Run2	observe/STIM_002.jpg
1618.592	1.49	1	observe	Run2	observe/STIM_002.jpg
1623.787	1.357	1	observe	Run2	observe/STIM_003.jpg
1627.482	0.95	1	observe	Run2	observe/STIM_003.jpg
1630.708	0.952	1	observe	Run2	observe/STIM_003.jpg
1635.618	1.074	1	observe	Run2	observe/STIM_003.jpg
1639.439	1.445	1	observe	Run2	observe/STIM_004.jpg
1644.816	1.512	1	observe	Run2	observe/STIM_004.jpg
1649.163	1.153	1	observe	Run2	observe/STIM_004.jpg
1653.46	1.197	0	observe	Run2	observe/STIM_004.jpg
1658.644	1.31	1	observe	Run2	observe/STIM_005.jpg
1663.808	0.895	1	observe	Run2	observe/STIM_005.jpg
1666.735	0.964	1	observe	Run2	observe/STIM_005.jpg
1670.762	0.86	1	observe	Run2	observe/STIM_005.jpg
1674.361	0.801	0	observe	Run2	observe/STIM_006.jpg
1677.767	1.262	1	observe	Run2	observe/STIM_006.jpg
1681.739	1.228	1	observe	Run2	observe/STIM_006.jpg
1686.07	0.943	1	observe	Run2	observe/STIM_006.jpg
1689.598	1.255	1	observe	Run2	observe/STIM_007.jpg
1694.257	1.118	1	observe	Run2	observe/STIM_007.jpg
1699.148	0.986	1	observe	Run2	observe/STIM_007.jpg
1702.673	1.486	1	observe	Run2	observe/STIM_007.jpg
1707.148	1.255	1	observe	Run2	observe/STIM_008.jpg
1712.29	1.089	1	observe	Run2	observe/STIM_008.jpg
1716.59	1.468	1	observe	Run2	observe/STIM_008.jpg
1721.02	1.196	1	observe	Run2	observe/STIM_008.jpg
1724.282	0.861	1	observe	Run2	observe/STIM_009.jpg
1728.58	1.106	1	observe	Run2	observe/STIM_009.jpg
1732.488	1.111	1	observe	Run2	observe/STIM_009.jpg
1736.045	1.0	1	observe	Run2	observe/STIM_009.jpg
1740.442	1.189	0	observe	Run2	observe/STIM_010.jpg
1744.147	0.968	1	observe	Run2	observe/STIM_010.jpg
1748.753	1.443	1	observe	Run2	observe/STIM_010.jpg
1753.064	1.083	1	observe	Run2	observe/STIM_010.jpg
1756.234	1.313	1	observe	Run2	observe/STIM_011.jpg
1760.169	1.27	1	observe	Run2	observe/STIM_011.jpg
1765.229	1.415	0	observe	Run2	observe/STIM_011.jpg
1770.14	1.121	1	observe	Run2	observe/STIM_011.jpg
1773.994	1.157	1	observe	Run2	observe/STIM_012.jpg
1778.497	0.845	1	observe	Run2	observe/STIM_012.jpg
1782.509	1.022	0	observe	Run2	observe/STIM_012.jpg
1786.467	0.871	1	observe	Run2	observe/STIM_012.jpg
1790.401	1.502	1	observe	Run2	observe/STIM_013.jpg
1795.092	1.203	1	observe	Run2	observe/STIM_013.jpg
1799.039	1.192	0	observe	Run2	observe/STIM_013.jpg
1802.869	1.54	0	observe	Run2	observe/STIM_013.jpg
1808.348	1.486	1	observe	Run2	observe/STIM_014.jpg
1813.066	1.508	1	observe	Run2	observe/STIM_014.jpg
1817.313	0.969	0	observe	Run2	observe/STIM_014.jpg
1822.236	1.28	1	observe	Run2	observe/STIM_014.jpg
1826.662	1.275	1	observe	Run2	observe/STIM_015.jpg
1831.349	0.887	1	observe	Run2	observe/STIM_015.jpg
1834.57	0.817	0	observe	Run2	observe/STIM_015.jpg
1837.468	1.272	0	observe	Run2	observe/STIM_015.jpg
1842.476	0.893	1	observe	Run2	observe/STIM_016.jpg
1846.807	1.262	1	observe	Run2	observe/STIM_016.jpg
1850.918	1.292	1	observe	Run2	observe/STIM_016.jpg
1856.016	1.309	1	observe	Run2	observe/STIM_016.jpg
1860.633	0.973	1	observe	Run2	observe/STIM_017.jpg
1864.894	0.893	1	observe	Run2	observe/STIM_017.jpg
1869.502	1.225	1	observe	Run2	observe/STIM_017.jpg
1872.91	1.462	1	observe	Run2	observe/STIM_017.jpg
1877.483	0.841	1	observe	Run2	observe/STIM_018.jpg
1880.361	0.975	1	observe	Run2	observe/STIM_018.jpg
1883.401	1.003	1	observe	Run2	observe/STIM_018.jpg
1886.71	1.26	0	observe	Run2	observe/STIM_018.jpg
1891.8	0.796	1	observe	Run2	observe/STIM_019.jpg
1896.314	1.155	1	observe	Run2	observe/STIM_019.jpg
1901.312	1.545	1	observe	Run2	observe/STIM_019.jpg
1906.23	0.777	1	observe	Run2	observe/STIM_019.jpg
1910.019	1.14	1	regulate	Run3	regulate/STIM_000.jpg
1913.636	1.839	1	regulate	Run3	regulate/STIM_000.jpg
1919.04	1.513	1	regulate	Run3	regulate/STIM_000.jpg
1923.925	1.376	1	regulate	Run3	regulate/STIM_000.jpg
1927.389	1.82	0	regulate	Run3	regulate/STIM_001.jpg
1932.202	1.158	1	regulate	Run3	regulate/STIM_001.jpg
1936.209	1.441	1	regulate	Run3	regulate/STIM_001.jpg
1940.98	1.131	1	regulate	Run3	regulate/STIM_001.jpg
1944.155	2.064	1	regulate	Run3	regulate/STIM_002.jpg
1949.149	1.121	1	regulate	Run3	regulate/STIM_002.jpg
1953.337	2.243	1	regulate	Run3	regulate/STIM_002.jpg
1958.35	1.943	1	regulate	Run3	regulate/STIM_002.jpg
1963.414	2.351	1	regulate	Run3	regulate/STIM_003.jpg
1967.896	1.881	1	regulate	Run3	regulate/STIM_003.jpg
1973.577	1.826	1	regulate	Run3	regulate/STIM_003.jpg
1978.16	1.184	1	regulate	Run3	regulate/STIM_003.jpg
1981.943	1.612	1	regulate	Run3	regulate/STIM_004.jpg
1985.827	1.126	1	regulate	Run3	regulate/STIM_004.jpg
1990.49	1.052	1	regulate	Run3	regulate/STIM_004.jpg
1995.406	1.385	1	regulate	Run3	regulate/STIM_004.jpg
1999.647	1.596	0	regulate	Run3	regulate/STIM_005.jpg
2004.688	1.227	1	regulate	Run3	regulate/STIM_005.jpg
2009.144	1.628	1	regulate	Run3	regulate/STIM_005.jpg
2014.335	2.332	1	regulate	Run3	regulate/STIM_005.jpg
2020.432	1.34	1	regulate	Run3	regulate/STIM_006.jpg
2025.751	1.093	1	regulate	Run3	regulate/STIM_006.jpg
2029.828	2.093	1	regulate	Run3	regulate/STIM_006.jpg
2034.89	1.936	1	regulate	Run3	regulate/STIM_006.jpg
2039.516	1.696	1	regulate	Run3	regulate/STIM_007.jpg
2043.335	1.157	1	regulate	Run3	regulate/STIM_007.jpg
2046.842	1.327	1	regulate	Run3	regulate/STIM_007.jpg
2051.175	1.109	1	regulate	Run3	regulate/STIM_007.jpg
2055.444	1.954	1	regulate	Run3	regulate/STIM_008.jpg
2060.513	1.279	1	regulate	Run3	regulate/STIM_008.jpg
2065.106	2.004	1	regulate	Run3	regulate/STIM_008.jpg
2069.472	2.015	1	regulate	Run3	regulate/STIM_008.jpg
2075.009	1.692	1	regulate	Run3	regulate/STIM_009.jpg
2079.925	2.363	1	regulate	Run3	regulate/STIM_009.jpg
2085.855	1.858	1	regulate	Run3	regulate/STIM_009.jpg
2091.263	1.92	1	regulate	Run3	regulate/STIM_009.jpg
2096.098	1.581	1	regulate	Run3	regulate/STIM_010.jpg
2099.973	1.201	1	regulate	Run3	regulate/STIM_010.jpg
2103.78	1.721	1	regulate	Run3	regulate/STIM_010.jpg
2109.279	2.36	1	regulate	Run3	regulate/STIM_010.jpg
2113.79	1.154	1	regulate	Run3	regulate/STIM_011.jpg
2117.52	1.502	1	regulate	Run3	regulate/STIM_011.jpg
2121.676	2.229	1	regulate	Run3	regulate/STIM_011.jpg
2126.623	1.719	1	regulate	Run3	regulate/STIM_011.jpg
2131.894	1.756	0	regulate	Run3	regulate/STIM_012.jpg
2137.098	1.083	1	regulate	Run3	regulate/STIM_012.jpg
2140.654	2.073	1	regulate	Run3	regulate/STIM_012.jpg
2145.445	2.038	1	regulate	Run3	regulate/STIM_012.jpg
2150.336	1.87	1	regulate	Run3	regulate/STIM_013.jpg
2155.603	1.865	1	regulate	Run3	regulate/STIM_013.jpg
2161.292	1.184	1	regulate	Run3	regulate/STIM_013.jpg
2166.223	1.795	1	regulate	Run3	regulate/STIM_013.jpg
2170.785	2.276	1	regulate	Run3	regulate/STIM_014.jpg
2176.011	1.345	1	regulate	Run3	regulate/STIM_014.jpg
2180.547	2.37	1	regulate	Run3	regulate/STIM_014.jpg
2185.325	1.202	1	regulate	Run3	regulate/STIM_014.jpg
2189.148	2.159	1	regulate	Run3	regulate/STIM_015.jpg
2193.581	1.122	1	regulate	Run3	regulate/STIM_015.jpg
2197.062	1.769	1	regulate	Run3	regulate/STIM_015.jpg
2200.942	1.539	1	regulate	Run3	regulate/STIM_015.jpg
2205.991	1.668	1	regulate	Run3	regulate/STIM_016.jpg
2210.504	2.159	0	regulate	Run3	regulate/STIM_016.jpg
2216.582	1.27	1	regulate	Run3	regulate/STIM_016.jpg
2219.979	1.025	1	regulate	Run3	regulate/STIM_016.jpg
2224.573	1.436	1	regulate	Run3	regulate/STIM_017.jpg
2229.355	1.064	1	regulate	Run3	regulate/STIM_017.jpg
2234.422	1.162	1	regulate	Run3	regulate/STIM_017.jpg
2237.679	2.096	0	regulate	Run3	regulate/STIM_017.jpg
2243.429	2.276	1	regulate	Run3	regulate/STIM_018.jpg
2247.859	1.395	1	regulate	Run3	regulate/STIM_018.jpg
2253.069	2.207	1	regulate	Run3	regulate/STIM_018.jpg
2259.331	2.214	1	regulate	Run3	regulate/STIM_018.jpg
2263.806	1.506	1	regulate	Run3	regulate/STIM_019.jpg
2268.745	2.209	0	regulate	Run3	regulate/STIM_019.jpg
2273.947	1.997	1	regulate	Run3	regulate/STIM_019.jpg
2278.537	1.573	1	regulate	Run3	regulate/STIM_019.jpg
2282.684	1.548	1	regulate	Run3	regulate/STIM_020.jpg
2287.799	1.364	1	regulate	Run3	regulate/STIM_020.jpg
2293.182	2.052	1	regulate	Run3	regulate/STIM_020.jpg
2297.81	1.205	0	regulate	Run3	regulate/STIM_020.jpg
2302.283	2.048	1	regulate	Run3	regulate/STIM_021.jpg
2306.906	2.02	1	regulate	Run3	regulate/STIM_021.jpg
2311.984	1.515	1	regulate	Run3	regulate/STIM_021.jpg
2317.429	1.296	1	regulate	Run3	regulate/STIM_021.jpg
2321.154	2.051	1	regulate	Run3	regulate/STIM_022.jpg
2325.704	2.031	1	regulate	Run3	regulate/STIM_022.jpg
2330.887	1.781	1	regulate	Run3	regulate/STIM_022.jpg
2336.471	1.987	1	regulate	Run3	regulate/STIM_022.jpg
2342.097	1.875	1	regulate	Run3	regulate/STIM_023.jpg
2346.844	1.21	1	regulate	Run3	regulate/STIM_023.jpg
2350.163	1.644	1	regulate	Run3	regulate/STIM_023.jpg
2354.166	1.274	1	regulate	Run3	regulate/STIM_023.jpg
2358.377	1.786	1	regulate	Run3	regulate/STIM_024.jpg
2362.715	1.768	1	regulate	Run3	regulate/STIM_024.jpg
2367.934	1.518	1	regulate	Run3	regulate/STIM_024.jpg
2372.075	1.084	1	regulate	Run3	regulate/STIM_024.jpg
2375.231	1.664	1	regulate	Run3	regulate/STIM_025.jpg
2379.502	1.794	1	regulate	Run3	regulate/STIM_025.jpg
2384.138	1.67	1	regulate	Run3	regulate/STIM_025.jpg
2387.914	1.685	1	regulate	Run3	regulate/STIM_025.jpg
2393.263	1.044	1	regulate	Run3	regulate/STIM_026.jpg
2397.124	1.901	1	regulate	Run3	regulate/STIM_026.jpg
2401.595	1.592	1	regulate	Run3	regulate/STIM_026.jpg
2405.409	2.064	1	regulate	Run3	regulate/STIM_026.jpg
2411.334	1.241	1	regulate	Run3	regulate/STIM_027.jpg
2414.989	1.882	1	regulate	Run3	regulate/STIM_027.jpg
2419.045	1.74	1	regulate	Run3	regulate/STIM_027.jpg
2423.397	1.315	1	regulate	Run3	regulate/STIM_027.jpg
2428.384	2.286	1	regulate	Run3	regulate/STIM_028.jpg
2434.571	2.164	1	regulate	Run3	regulate/STIM_028.jpg
2439.138	2.202	1	regulate	Run3	regulate/STIM_028.jpg
2444.31	2.078	1	regulate	Run3	regulate/STIM_028.jpg
2449.893	1.022	1	regulate	Run3	regulate/STIM_029.jpg
2454.931	2.194	1	regulate	Run3	regulate/STIM_029.jpg
2461.182	1.26	1	regulate	Run3	regulate/STIM_029.jpg
2466.381	1.329	1	regulate	Run3	regulate/STIM_029.jpg
2469.909	1.533	1	observe	Run3	observe/STIM_000.jpg
2473.517	0.777	1	observe	Run3	observe/STIM_000.jpg
2476.349	1.283	1	observe	Run3	observe/STIM_000.jpg
2479.78	1.137	0	observe	Run3	observe/STIM_000.jpg
2484.613	0.807	1	observe	Run3	observe/STIM_001.jpg
2487.93	1.012	1	observe	Run3	observe/STIM_001.jpg
2491.759	1.127	1	observe	Run3	observe/STIM_001.jpg
2495.072	1.361	1	observe	Run3	observe/STIM_001.jpg
2498.912	1.54	1	observe	Run3	observe/STIM_002.jpg
2502.956	1.526	1	observe	Run3	observe/STIM_002.jpg
2506.671	0.999	1	observe	Run3	observe/STIM_002.jpg
2511.687	1.186	1	observe	Run3	observe/STIM_002.jpg
2515.853	1.254	1	observe	Run3	observe/STIM_003.jpg
2519.878	1.347	1	observe	Run3	observe/STIM_003.jpg
2523.464	1.274	1	observe	Run3	observe/STIM_003.jpg
2527.485	1.532	1	observe	Run3	observe/STIM_003.jpg
2531.375	1.039	0	observe	Run3	observe/STIM_004.jpg
2535.047	0.846	1	observe	Run3	observe/STIM_004.jpg
2538.336	0.815	1	observe	Run3	observe/STIM_004.jpg
2541.192	1.358	0	observe	Run3	observe/STIM_004.jpg
2546.181	1.235	1	observe	Run3	observe/STIM_005.jpg
2551.254	0.953	1	observe	Run3	observe/STIM_005.jpg
2555.093	1.082	1	observe	Run3	observe/STIM_005.jpg
2558.81	1.435	1	observe	Run3	observe/STIM_005.jpg
2563.459	1.016	1	observe	Run3	observe/STIM_006.jpg
2567.94	0.933	1	observe	Run3	observe/STIM_006.jpg
2571.698	1.534	1	observe	Run3	observe/STIM_006.jpg
2575.819	1.172	1	observe	Run3	observe/STIM_006.jpg
2580.32	1.255	1	observe	Run3	observe/STIM_007.jpg
2585.199	1.337	1	observe	Run3	observe/STIM_007.jpg
2589.099	1.074	1	observe	Run3	observe/STIM_007.jpg
2593.887	1.171	1	observe	Run3	observe/STIM_007.jpg
2598.396	1.278	1	observe	Run3	observe/STIM_008.jpg
2601.977	1.144	0	observe	Run3	observe/STIM_008.jpg
2605.775	1.36	1	observe	Run3	observe/STIM_008.jpg
2610.442	1.438	1	observe	Run3	observe/STIM_008.jpg
2614.95	0.9	1	observe	Run3	observe/STIM_009.jpg
2619.005	0.999	1	observe	Run3	observe/STIM_009.jpg
2622.919	1.475	1	observe	Run3	observe/STIM_009.jpg
2627.433	1.406	1	observe	Run3	observe/STIM_009.jpg
2631.109	1.104	1	observe	Run3	observe/STIM_010.jpg
2635.571	1.115	1	observe	Run3	observe/STIM_010.jpg
2640.021	0.993	1	observe	Run3	observe/STIM_010.jpg
2644.455	1.367	1	observe	Run3	observe/STIM_010.jpg
2649.471	1.269	1	observe	Run3	observe/STIM_011.jpg
2653.357	1.2	0	observe	Run3	observe/STIM_011.jpg
2656.865	1.077	1	observe	Run3	observe/STIM_011.jpg
2660.265	1.177	1	observe	Run3	observe/STIM_011.jpg
2664.539	1.227	1	observe	Run3	observe/STIM_012.jpg
2669.191	0.925	1	observe	Run3	observe/STIM_012.jpg
2673.106	1.496	1	observe	Run3	observe/STIM_012.jpg
2677.987	0.842	1	observe	Run3	observe/STIM_012.jpg
2681.037	1.172	1	observe	Run3	observe/STIM_013.jpg
2685.101	1.377	1	observe	Run3	observe/STIM_013.jpg
2689.593	0.97	1	observe	Run3	observe/STIM_013.jpg
2694.229	0.923	1	observe	Run3	observe/STIM_013.jpg
2698.735	0.781	1	observe	Run3	observe/STIM_014.jpg
2701.685	1.38	1	observe	Run3	observe/STIM_014.jpg
2707.016	0.829	1	observe	Run3	observe/STIM_014.jpg
2709.906	0.981	1	observe	Run3	observe/STIM_014.jpg
2713.184	1.491	1	observe	Run3	observe/STIM_015.jpg
2718.308	0.879	1	observe	Run3	observe/STIM_015.jpg
2723.009	0.817	1	observe	Run3	observe/STIM_015.jpg
2727.408	1.167	1	observe	Run3	observe/STIM_015.jpg
2732.163	1.394	1	observe	Run3	observe/STIM_016.jpg
2735.897	1.072	1	observe	Run3	observe/STIM_016.jpg
2739.942	1.317	1	observe	Run3	observe/STIM_016.jpg
2743.902	1.122	1	observe	Run3	observe/STIM_016.jpg
2747.404	0.884	1	observe	Run3	observe/STIM_017.jpg
2751.704	1.361	1	observe	Run3	observe/STIM_017.jpg
2755.879	1.245	1	observe	Run3	observe/STIM_017.jpg
2761.139	0.9	1	observe	Run3	observe/STIM_017.jpg
2766.036	0.899	1	observe	Run3	observe/STIM_018.jpg
2770.716	1.205	1	observe	Run3	observe/STIM_018.jpg
2774.269	0.868	1	observe	Run3	observe/STIM_018.jpg
2778.455	0.954	1	observe	Run3	observe/STIM_018.jpg
2781.535	1.131	1	observe	Run3	observe/STIM_019.jpg
2785.159	1.304	1	observe	Run3	observe/STIM_019.jpg
2789.253	1.108	1	observe	Run3	observe/STIM_019.jpg
2793.392	1.049	1	observe	Run3	observe/STIM_019.jpg
