onset	duration	response_time_ms	trial_type	learning_stage	stimulus	response_port
0.0	1.608	1607.9	regulate	Run1	regulate/STIM_000.jpg	100
5.219	2.457	2457.2	regulate	Run1	regulate/STIM_000.jpg	100
10.418	2.558	2557.6	regulate	Run1	regulate/STIM_000.jpg	99
16.101	2.286	2286.3	regulate	Run1	regulate/STIM_000.jpg	99
20.736	3.382	3382.0	regulate	Run1	regulate/STIM_001.jpg	100
27.961	1.469	1469.4	regulate	Run1	regulate/STIM_001.jpg	100
33.006	1.821	1820.9	regulate	Run1	regulate/STIM_001.jpg	99
37.829	1.741	1740.6	regulate	Run1	regulate/STIM_001.jpg	100
41.637	2.282	2281.7	regulate	Run1	regulate/STIM_002.jpg	100
46.439	2.672	2671.6	regulate	Run1	regulate/STIM_002.jpg	100
51.836	2.929	2928.6	regulate	Run1	regulate/STIM_002.jpg	100
58.26	2.222	2222.5	regulate	Run1	regulate/STIM_002.jpg	100
63.4	2.923	2922.7	regulate	Run1	regulate/STIM_003.jpg	99
69.38	2.225	2224.8	regulate	Run1	regulate/STIM_003.jpg	99
75.353	2.779	2778.8	regulate	Run1	regulate/STIM_003.jpg	100
81.25	1.318	1317.9	regulate	Run1	regulate/STIM_003.jpg	100
85.574	2.858	2858.3	regulate	Run1	regulate/STIM_004.jpg	99
91.101	2.028	2027.9	regulate	Run1	regulate/STIM_004.jpg	99
96.197	1.488	1487.6	regulate	Run1	regulate/STIM_004.jpg	100
100.435	2.566	2566.1	regulate	Run1	regulate/STIM_004.jpg	100
105.905	2.041	2040.9	regulate	Run1	regulate/STIM_005.jpg	100
110.484	2.551	2550.8	regulate	Run1	regulate/STIM_005.jpg	99
115.129	1.954	1954.4	regulate	Run1	regulate/STIM_005.jpg	99
120.96	1.427	1427.1	regulate	Run1	regulate/STIM_005.jpg	99
126.007	1.8	1800.4	regulate	Run1	regulate/STIM_006.jpg	100
130.206	3.144	3144.3	regulate	Run1	regulate/STIM_006.jpg	100
136.738	2.016	2015.7	regulate	Run1	regulate/STIM_006.jpg	100
142.486	1.59	1589.6	regulate	Run1	regulate/STIM_006.jpg	99
146.988	1.865	1865.0	regulate	Run1	regulate/STIM_007.jpg	100
151.414	1.589	1588.6	regulate	Run1	regulate/STIM_007.jpg	100
155.289	1.397	1396.8	regulate	Run1	regulate/STIM_007.jpg	99
159.285	2.077	2076.7	regulate	Run1	regulate/STIM_007.jpg	99
164.302	1.49	1489.9	regulate	Run1	regulate/STIM_008.jpg	99
168.384	1.861	1860.6	regulate	Run1	regulate/STIM_008.jpg	99
172.304	1.917	1916.6	regulate	Run1	regulate/STIM_008.jpg	100
178.203	2.311	2311.3	regulate	Run1	regulate/STIM_008.jpg	99
182.563	3.286	3285.7	regulate	Run1	regulate/STIM_009.jpg	100
189.5	2.134	2133.6	regulate	Run1	regulate/STIM_009.jpg	99
195.206	1.429	1429.2	regulate	Run1	regulate/STIM_009.jpg	100
198.791	1.551	1551.0	regulate	Run1	regulate/STIM_009.jpg	100
203.04	1.479	1478.9	regulate	Run1	regulate/STIM_010.jpg	99
208.364	1.417	1417.0	regulate	Run1	regulate/STIM_010.jpg	100
212.834	1.488	1487.6	regulate	Run1	regulate/STIM_010.jpg	100
216.405	1.956	1956.4	regulate	Run1	regulate/STIM_010.jpg	99
220.846	2.419	2418.8	regulate	Run1	regulate/STIM_011.jpg	100
225.87	1.955	1954.9	regulate	Run1	regulate/STIM_011.jpg	99
231.432	1.687	1686.6	regulate	Run1	regulate/STIM_011.jpg	100
236.319	2.091	2090.9	regulate	Run1	regulate/STIM_011.jpg	100
241.729	1.493	1493.4	regulate	Run1	regulate/STIM_012.jpg	100
245.839	3.068	3067.9	regulate	Run1	regulate/STIM_012.jpg	100
251.834	1.396	1396.0	regulate	Run1	regulate/STIM_012.jpg	99
256.285	2.094	2094.5	regulate	Run1	regulate/STIM_012.jpg	99
261.278	1.916	1915.9	regulate	Run1	regulate/STIM_013.jpg	99
266.923	2.887	2886.6	regulate	Run1	regulate/STIM_013.jpg	100
273.236	2.747	2747.1	regulate	Run1	regulate/STIM_013.jpg	100
278.54	1.667	1667.4	regulate	Run1	regulate/STIM_013.jpg	99
283.064	2.526	2526.3	regulate	Run1	regulate/STIM_014.jpg	99
288.449	2.439	2439.0	regulate	Run1	regulate/STIM_014.jpg	100
294.273	2.546	2546.0	regulate	Run1	regulate/STIM_014.jpg	99
298.888	2.844	2844.5	regulate	Run1	regulate/STIM_014.jpg	100
304.492	1.651	1650.6	regulate	Run1	regulate/STIM_015.jpg	99
309.539	3.165	3165.0	regulate	Run1	regulate/STIM_015.jpg	100
315.427	2.631	2630.7	regulate	Run1	regulate/STIM_015.jpg	100
320.48	2.053	2052.8	regulate	Run1	regulate/STIM_015.jpg	99
326.386	1.843	1842.8	regulate	Run1	regulate/STIM_016.jpg	100
331.803	2.976	2975.8	regulate	Run1	regulate/STIM_016.jpg	99
336.866	2.008	2007.6	regulate	Run1	regulate/STIM_016.jpg	99
342.7	2.273	2272.7	regulate	Run1	regulate/STIM_016.jpg	100
348.794	2.525	2525.0	regulate	Run1	regulate/STIM_017.jpg	100
353.812	1.474	1473.7	regulate	Run1	regulate/STIM_017.jpg	100
357.845	2.032	2032.3	regulate	Run1	regulate/STIM_017.jpg	99
361.898	1.547	1547.0	regulate	Run1	regulate/STIM_017.jpg	99
365.502	3.296	3295.7	regulate	Run1	regulate/STIM_018.jpg	100
371.286	2.334	2334.1	regulate	Run1	regulate/STIM_018.jpg	100
375.686	1.828	1828.4	regulate	Run1	regulate/STIM_018.jpg	99
379.639	2.554	2554.0	regulate	Run1	regulate/STIM_018.jpg	100
385.802	2.385	2385.4	regulate	Run1	regulate/STIM_019.jpg	99
391.713	2.088	2088.5	regulate	Run1	regulate/STIM_019.jpg	100
397.515	1.406	1406.4	regulate	Run1	regulate/STIM_019.jpg	100
402.642	2.916	2916.1	regulate	Run1	regulate/STIM_019.jpg	100
408.63	2.069	2069.2	regulate	Run1	regulate/STIM_020.jpg	99
412.748	2.044	2044.1	regulate	Run1	regulate/STIM_020.jpg	99
418.09	3.04	3040.5	regulate	Run1	regulate/STIM_020.jpg	99
424.061	2.2	2200.4	regulate	Run1	regulate/STIM_020.jpg	99
428.305	3.295	3295.4	regulate	Run1	regulate/STIM_021.jpg	100
434.974	2.818	2818.2	regulate	Run1	regulate/STIM_021.jpg	100
441.143	3.026	3026.3	regulate	Run1	regulate/STIM_021.jpg	99
446.514	2.266	2266.4	regulate	Run1	regulate/STIM_021.jpg	99
452.088	1.901	1900.7	regulate	Run1	regulate/STIM_022.jpg	100
457.903	2.05	2050.1	regulate	Run1	regulate/STIM_022.jpg	99
462.871	2.787	2787.4	regulate	Run1	regulate/STIM_022.jpg	99
468.553	2.372	2371.8	regulate	Run1	regulate/STIM_022.jpg	100
473.699	2.15	2149.6	regulate	Run1	regulate/STIM_023.jpg	99
478.891	3.121	3120.6	regulate	Run1	regulate/STIM_023.jpg	100
484.334	1.344	1344.1	regulate	Run1	regulate/STIM_023.jpg	99
488.541	1.961	1961.0	regulate	Run1	regulate/STIM_023.jpg	99
493.375	1.955	1954.8	regulate	Run1	regulate/STIM_024.jpg	100
499.052	3.233	3232.9	regulate	Run1	regulate/STIM_024.jpg	100
505.332	2.849	2848.9	regulate	Run1	regulate/STIM_024.jpg	99
511.142	1.613	1613.0	regulate	Run1	regulate/STIM_024.jpg	100
515.988	2.217	2217.1	regulate	Run1	regulate/STIM_025.jpg	99
522.093	1.552	1551.9	regulate	Run1	regulate/STIM_025.jpg	100
526.547	2.003	2002.8	regulate	Run1	regulate/STIM_025.jpg	99
531.114	2.103	2102.7	regulate	Run1	regulate/STIM_025.jpg	100
536.014	2.102	2102.3	regulate	Run1	regulate/STIM_026.jpg	99
540.164	2.158	2158.5	regulate	Run1	regulate/STIM_026.jpg	100
544.336	2.016	2015.6	regulate	Run1	regulate/STIM_026.jpg	100
550.037	2.761	2761.0	regulate	Run1	regulate/STIM_026.jpg	99
556.559	1.56	1559.9	regulate	Run1	regulate/STIM_027.jpg	99
561.784	1.498	1498.3	regulate	Run1	regulate/STIM_027.jpg	99
565.673	1.437	1436.6	regulate	Run1	regulate/STIM_027.jpg	99
570.412	2.287	2286.8	regulate	Run1	regulate/STIM_027.jpg	99
576.649	1.788	1787.9	regulate	Run1	regulate/STIM_028.jpg	99
581.935	3.21	3209.5	regulate	Run1	regulate/STIM_028.jpg	99
588.547	2.327	2327.1	regulate	Run1	regulate/STIM_028.jpg	100
594.841	1.793	1792.6	regulate	Run1	regulate/STIM_028.jpg	100
599.432	1.538	1537.6	regulate	Run1	regulate/STIM_029.jpg	100
603.286	3.268	3268.3	regulate	Run1	regulate/STIM_029.jpg	99
609.02	3.068	3068.4	regulate	Run1	regulate/STIM_029.jpg	100
614.713	1.645	1645.2	regulate	Run1	regulate/STIM_029.jpg	100
618.395	1.506	1506.2	observe	Run1	observe/STIM_000.jpg	100
623.322	1.38	1379.6	observe	Run1	observe/STIM_000.jpg	99
628.484	1.18	1179.8	observe	Run1	observe/STIM_000.jpg	99
632.456	1.53	1530.1	observe	Run1	observe/STIM_000.jpg	99
636.902	1.409	1409.1	observe	Run1	observe/STIM_001.jpg	99
641.856	1.372	1371.9	observe	Run1	observe/STIM_001.jpg	100
645.462	1.514	1514.1	observe	Run1	observe/STIM_001.jpg	99
650.677	1.27	1269.7	observe	Run1	observe/STIM_001.jpg	99
654.96	1.049	1048.9	observe	Run1	observe/STIM_002.jpg	100
659.499	1.111	1110.7	observe	Run1	observe/STIM_002.jpg	100
664.542	1.534	1533.6	observe	Run1	observe/STIM_002.jpg	100
669.893	0.988	987.9	observe	Run1	observe/STIM_002.jpg	99
674.046	1.507	1506.9	observe	Run1	observe/STIM_003.jpg	99
677.962	1.504	1504.3	observe	Run1	observe/STIM_003.jpg	100
683.338	1.106	1106.3	observe	Run1	observe/STIM_003.jpg	100
686.533	0.792	791.8	observe	Run1	observe/STIM_003.jpg	99
690.339	0.966	965.7	observe	Run1	observe/STIM_004.jpg	99
694.351	1.426	1425.8	observe	Run1	observe/STIM_004.jpg	99
698.924	1.331	1330.7	observe	Run1	observe/STIM_004.jpg	100
702.578	1.133	1132.6	observe	Run1	observe/STIM_004.jpg	100
705.809	1.454	1453.6	observe	Run1	observe/STIM_005.jpg	100
710.507	0.929	928.8	observe	Run1	observe/STIM_005.jpg	100
714.194	1.12	1120.2	observe	Run1	observe/STIM_005.jpg	100
718.199	1.011	1011.4	observe	Run1	observe/STIM_005.jpg	99
721.653	0.92	920.2	observe	Run1	observe/STIM_006.jpg	100
726.16	1.55	1549.9	observe	Run1	observe/STIM_006.jpg	99
730.742	1.009	1008.8	observe	Run1	observe/STIM_006.jpg	100
734.839	1.352	1351.7	observe	Run1	observe/STIM_006.jpg	100
739.488	1.012	1012.2	observe	Run1	observe/STIM_007.jpg	100
744.346	1.115	1115.4	observe	Run1	observe/STIM_007.jpg	99
747.468	0.96	960.2	observe	Run1	observe/STIM_007.jpg	99
752.203	1.427	1427.0	observe	Run1	observe/STIM_007.jpg	99
755.695	1.233	1232.8	observe	Run1	observe/STIM_008.jpg	99
759.116	1.055	1055.0	observe	Run1	observe/STIM_008.jpg	99
764.013	1.34	1339.6	observe	Run1	observe/STIM_008.jpg	99
767.675	1.13	1129.8	observe	Run1	observe/STIM_008.jpg	99
770.934	1.098	1097.5	observe	Run1	observe/STIM_009.jpg	99
774.588	1.333	1332.8	observe	Run1	observe/STIM_009.jpg	99
779.604	1.465	1465.2	observe	Run1	observe/STIM_009.jpg	100
783.12	0.991	990.6	observe	Run1	observe/STIM_009.jpg	99
787.668	0.874	874.0	observe	Run1	observe/STIM_010.jpg	100
791.764	1.124	1123.5	observe	Run1	observe/STIM_010.jpg	100
794.892	1.021	1021.4	observe	Run1	observe/STIM_010.jpg	100
798.532	1.044	1043.9	observe	Run1	observe/STIM_010.jpg	100
802.356	1.477	1477.4	observe	Run1	observe/STIM_011.jpg	100
806.345	1.122	1122.2	observe	Run1	observe/STIM_011.jpg	99
810.744	1.422	1422.5	observe	Run1	observe/STIM_011.jpg	99
814.835	1.463	1463.1	observe	Run1	observe/STIM_011.jpg	99
818.916	0.927	926.8	observe	Run1	observe/STIM_012.jpg	99
823.278	1.138	1137.5	observe	Run1	observe/STIM_012.jpg	99
827.908	1.3	1300.1	observe	Run1	observe/STIM_012.jpg	99
831.683	0.815	815.2	observe	Run1	observe/STIM_012.jpg	99
834.525	1.176	1176.4	observe	Run1	observe/STIM_013.jpg	99
839.513	0.949	949.0	observe	Run1	observe/STIM_013.jpg	100
844.09	1.078	1077.7	observe	Run1	observe/STIM_013.jpg	100
848.919	1.304	1304.5	observe	Run1	observe/STIM_013.jpg	99
852.82	0.974	973.8	observe	Run1	observe/STIM_014.jpg	100
857.092	1.556	1555.7	observe	Run1	observe/STIM_014.jpg	99
861.44	1.212	1211.6	observe	Run1	observe/STIM_014.jpg	99
865.741	1.341	1340.8	observe	Run1	observe/STIM_014.jpg	100
870.015	1.411	1410.6	observe	Run1	observe/STIM_015.jpg	99
874.194	1.363	1363.4	observe	Run1	observe/STIM_015.jpg	99
879.447	1.302	1302.5	observe	Run1	observe/STIM_015.jpg	99
884.546	1.139	1138.6	observe	Run1	observe/STIM_015.jpg	99
889.313	1.056	1055.9	observe	Run1	observe/STIM_016.jpg	99
892.964	0.845	845.2	observe	Run1	observe/STIM_016.jpg	99
896.052	1.002	1001.8	observe	Run1	observe/STIM_016.jpg	99
900.815	1.543	1542.7	observe	Run1	observe/STIM_016.jpg	99
905.351	1.405	1405.4	observe	Run1	observe/STIM_017.jpg	100
908.813	0.973	973.0	observe	Run1	observe/STIM_017.jpg	99
912.629	1.378	1378.4	observe	Run1	observe/STIM_017.jpg	99
916.018	1.554	1553.8	observe	Run1	observe/STIM_017.jpg	99
920.373	1.518	1518.2	observe	Run1	observe/STIM_018.jpg	100
924.938	1.51	1510.0	observe	Run1	observe/STIM_018.jpg	100
929.805	1.5	1500.0	observe	Run1	observe/STIM_018.jpg	99
933.767	1.147	1147.4	observe	Run1	observe/STIM_018.jpg	99
938.545	1.05	1050.0	observe	Run1	observe/STIM_019.jpg	100
942.391	0.814	814.0	observe	Run1	observe/STIM_019.jpg	100
946.724	1.161	1161.1	observe	Run1	observe/STIM_019.jpg	100
950.362	1.286	1286.4	observe	Run1	observe/STIM_019.jpg	99
955.073	2.755	2755.1	regulate	Run2	regulate/STIM_000.jpg	99
961.413	2.688	2688.4	regulate	Run2	regulate/STIM_000.jpg	100
967.231	2.03	2029.8	regulate	Run2	regulate/STIM_000.jpg	99
972.754	1.565	1565.0	regulate	Run2	regulate/STIM_000.jpg	99
977.637	2.901	2900.7	regulate	Run2	regulate/STIM_001.jpg	100
982.995	2.418	2417.9	regulate	Run2	regulate/STIM_001.jpg	100
989.181	2.317	2316.8	regulate	Run2	regulate/STIM_001.jpg	99
994.337	1.401	1401.3	regulate	Run2	regulate/STIM_001.jpg	100
998.529	2.852	2851.7	regulate	Run2	regulate/STIM_002.jpg	100
1004.448	2.087	2086.9	regulate	Run2	regulate/STIM_002.jpg	100
1008.645	2.062	2061.8	regulate	Run2	regulate/STIM_002.jpg	99
1014.511	2.128	2127.7	regulate	Run2	regulate/STIM_002.jpg	99
1020.303	1.911	1910.6	regulate	Run2	regulate/STIM_003.jpg	99
1026.208	1.334	1334.0	regulate	Run2	regulate/STIM_003.jpg	99
1029.585	2.183	2182.7	regulate	Run2	regulate/STIM_003.jpg	99
1034.409	1.385	1385.2	regulate	Run2	regulate/STIM_003.jpg	100
1038.217	1.671	1671.2	regulate	Run2	regulate/STIM_004.jpg	99
1043.052	2.729	2728.6	regulate	Run2	regulate/STIM_004.jpg	99
1049.127	1.401	1401.2	regulate	Run2	regulate/STIM_004.jpg	100
1052.969	2.079	2078.6	regulate	Run2	regulate/STIM_004.jpg	100
1058.261	2.404	2403.9	regulate	Run2	regulate/STIM_005.jpg	99
1064.606	2.457	2457.2	regulate	Run2	regulate/STIM_005.jpg	100
1069.287	1.305	1305.3	regulate	Run2	regulate/STIM_005.jpg	99
1073.645	1.434	1433.5	regulate	Run2	regulate/STIM_005.jpg	99
1077.253	2.193	2192.9	regulate	Run2	regulate/STIM_006.jpg	100
1082.206	1.21	1209.9	regulate	Run2	regulate/STIM_006.jpg	100
1086.408	1.796	1796.2	regulate	Run2	regulate/STIM_006.jpg	99
1091.296	2.12	2119.8	regulate	Run2	regulate/STIM_006.jpg	100
1096.258	2.091	2090.9	regulate	Run2	regulate/STIM_007.jpg	100
1100.401	1.812	1811.7	regulate	Run2	regulate/STIM_007.jpg	99
1105.261	2.004	2003.8	regulate	Run2	regulate/STIM_007.jpg	99
1110.608	1.906	1906.1	regulate	Run2	regulate/STIM_007.jpg	100
1114.8	2.421	2420.9	regulate	Run2	regulate/STIM_008.jpg	99
1119.383	1.873	1872.6	regulate	Run2	regulate/STIM_008.jpg	100
1124.673	1.302	1301.8	regulate	Run2	regulate/STIM_008.jpg	99
1128.855	1.573	1573.1	regulate	Run2	regulate/STIM_008.jpg	100
1133.263	1.66	1659.5	regulate	Run2	regulate/STIM_009.jpg	100
1138.131	1.354	1354.0	regulate	Run2	regulate/STIM_009.jpg	99
1143.228	2.095	2095.1	regulate	Run2	regulate/STIM_009.jpg	100
1148.093	1.615	1615.3	regulate	Run2	regulate/STIM_009.jpg	99
1153.116	2.761	2761.1	regulate	Run2	regulate/STIM_010.jpg	100
1159.395	2.097	2096.8	regulate	Run2	regulate/STIM_010.jpg	99
1165.446	2.335	2335.3	regulate	Run2	regulate/STIM_010.jpg	100
1171.559	1.448	1448.5	regulate	Run2	regulate/STIM_010.jpg	99
1176.921	2.855	2855.4	regulate	Run2	regulate/STIM_011.jpg	99
1183.016	1.538	1538.5	regulate	Run2	regulate/STIM_011.jpg	100
1188.098	1.395	1394.8	regulate	Run2	regulate/STIM_011.jpg	99
1192.937	2.266	2266.4	regulate	Run2	regulate/STIM_011.jpg	99
1198.2	2.686	2685.8	regulate	Run2	regulate/STIM_012.jpg	99
1203.026	2.232	2232.1	regulate	Run2	regulate/STIM_012.jpg	99
1207.78	1.376	1376.0	regulate	Run2	regulate/STIM_012.jpg	99
1211.645	2.361	2360.9	regulate	Run2	regulate/STIM_012.jpg	100
1216.313	2.389	2388.7	regulate	Run2	regulate/STIM_013.jpg	100
1220.802	2.724	2724.4	regulate	Run2	regulate/STIM_013.jpg	100
1227.125	1.202	1202.3	regulate	Run2	regulate/STIM_013.jpg	99
1231.481	1.405	1405.4	regulate	Run2	regulate/STIM_013.jpg	100
1235.689	2.816	2816.0	regulate	Run2	regulate/STIM_014.jpg	100
1240.517	1.84	1839.8	regulate	Run2	regulate/STIM_014.jpg	99
1245.14	1.139	1138.9	regulate	Run2	regulate/STIM_014.jpg	100
1249.458	2.039	2038.8	regulate	Run2	regulate/STIM_014.jpg	100
1255.074	2.44	2440.0	regulate	Run2	regulate/STIM_015.jpg	99
1259.68	1.353	1352.7	regulate	Run2	regulate/STIM_015.jpg	99
1264.179	2.135	2134.7	regulate	Run2	regulate/STIM_015.jpg	100
1270.132	2.175	2175.4	regulate	Run2	regulate/STIM_015.jpg	100
1275.278	2.473	2473.4	regulate	Run2	regulate/STIM_016.jpg	100
1281.038	1.556	1555.9	regulate	Run2	regulate/STIM_016.jpg	99
1286.061	1.693	1692.7	regulate	Run2	regulate/STIM_016.jpg	100
1289.896	1.134	1134.1	regulate	Run2	regulate/STIM_016.jpg	100
1294.958	2.296	2296.3	regulate	Run2	regulate/STIM_017.jpg	99
1299.933	2.505	2505.0	regulate	Run2	regulate/STIM_017.jpg	99
1305.186	1.53	1530.0	regulate	Run2	regulate/STIM_017.jpg	100
1309.899	1.131	1130.7	regulate	Run2	regulate/STIM_017.jpg	99
1313.845	1.369	1369.2	regulate	Run2	regulate/STIM_018.jpg	100
1318.841	2.589	2589.2	regulate	Run2	regulate/STIM_018.jpg	100
1324.87	1.574	1574.4	regulate	Run2	regulate/STIM_018.jpg	100
1329.723	2.349	2348.6	regulate	Run2	regulate/STIM_018.jpg	99
1334.817	2.099	2099.4	regulate	Run2	regulate/STIM_019.jpg	99
1339.016	2.535	2534.7	regulate	Run2	regulate/STIM_019.jpg	99
1345.015	1.968	1967.7	regulate	Run2	regulate/STIM_019.jpg	100
1349.103	2.343	2342.8	regulate	Run2	regulate/STIM_019.jpg	99
1353.451	1.474	1473.6	regulate	Run2	regulate/STIM_020.jpg	100
1357.018	2.535	2535.0	regulate	Run2	regulate/STIM_020.jpg	99
1361.753	1.632	1632.3	regulate	Run2	regulate/STIM_020.jpg	99
1367.357	1.054	1053.7	regulate	Run2	regulate/STIM_020.jpg	100
1371.571	2.318	2317.5	regulate	Run2	regulate/STIM_021.jpg	100
1376.691	2.198	2198.0	regulate	Run2	regulate/STIM_021.jpg	99
1382.346	2.361	2360.8	regulate	Run2	regulate/STIM_021.jpg	99
1387.542	1.565	1565.1	regulate	Run2	regulate/STIM_021.jpg	99
1392.491	1.716	1715.6	regulate	Run2	regulate/STIM_022.jpg	99
1397.421	2.636	2636.5	regulate	Run2	regulate/STIM_022.jpg	100
1403.72	1.455	1455.1	regulate	Run2	regulate/STIM_022.jpg	100
1409.039	1.894	1893.6	regulate	Run2	regulate/STIM_022.jpg	100
1414.108	1.419	1418.7	regulate	Run2	regulate/STIM_023.jpg	99
1417.76	2.478	2478.2	regulate	Run2	regulate/STIM_023.jpg	99
1423.571	1.922	1922.3	regulate	Run2	regulate/STIM_023.jpg	100
1429.148	2.114	2114.4	regulate	Run2	regulate/STIM_023.jpg	99
1433.314	1.897	1896.6	regulate	Run2	regulate/STIM_024.jpg	99
1439.064	2.155	2155.3	regulate	Run2	regulate/STIM_024.jpg	100
1444.078	2.062	2062.5	regulate	Run2	regulate/STIM_024.jpg	100
1448.203	2.318	2317.6	regulate	Run2	regulate/STIM_024.jpg	100
1453.879	1.822	1822.2	regulate	Run2	regulate/STIM_025.jpg	99
1458.833	1.596	1596.4	regulate	Run2	regulate/STIM_025.jpg	99
1464.331	2.006	2005.8	regulate	Run2	regulate/STIM_025.jpg	100
1468.95	1.365	1364.8	regulate	Run2	regulate/STIM_025.jpg	99
1474.017	1.834	1833.7	regulate	Run2	regulate/STIM_026.jpg	100
1478.658	2.628	2628.4	regulate	Run2	regulate/STIM_026.jpg	99
1484.506	2.305	2304.7	regulate	Run2	regulate/STIM_026.jpg	99
1489.72	1.111	1111.2	regulate	Run2	regulate/STIM_026.jpg	100
1494.071	1.263	1263.3	regulate	Run2	regulate/STIM_027.jpg	99
1499.152	1.217	1217.1	regulate	Run2	regulate/STIM_027.jpg	100
1502.609	1.926	1925.7	regulate	Run2	regulate/STIM_027.jpg	99
1506.827	1.362	1361.8	regulate	Run2	regulate/STIM_027.jpg	100
1510.26	2.359	2359.3	regulate	Run2	regulate/STIM_028.jpg	100
1515.129	2.529	2528.9	regulate	Run2	regulate/STIM_028.jpg	100
1520.969	1.865	1865.2	regulate	Run2	regulate/STIM_028.jpg	99
1526.78	2.263	2263.1	regulate	Run2	regulate/STIM_028.jpg	99
1532.997	2.049	2049.3	regulate	Run2	regulate/STIM_029.jpg	100
1538.803	2.368	2368.1	regulate	Run2	regulate/STIM_029.jpg	99
1544.737	2.429	2428.8	regulate	Run2	regulate/STIM_029.jpg	100
1550.211	1.435	1435.4	regulate	Run2	regulate/STIM_029.jpg	100
1555.331	0.865	864.9	observe	Run2	observe/STIM_000.jpg	99
1559.232	1.418	1418.3	observe	Run2	observe/STIM_000.jpg	100
1562.759	1.192	1191.9	observe	Run2	observe/STIM_000.jpg	100
1567.85	1.42	1420.1	observe	Run2	observe/STIM_000.jpg	99
1572.589	1.412	1411.6	observe	Run2	observe/STIM_001.jpg	99
1576.075	1.494	1494.4	observe	Run2	observe/STIM_001.jpg	100
1580.509	1.218	1218.0	observe	Run2	observe/STIM_001.jpg	99
1585.104	1.338	1338.0	observe	Run2	observe/STIM_001.jpg	99
1588.609	1.454	1454.1	observe	Run2	observe/STIM_002.jpg	99
1593.461	1.315	1314.8	observe	Run2	observe/STIM_002.jpg	99
1597.346	1.258	1258.4	observe	Run2	observe/STIM_002.jpg	100
1601.171	1.38	1379.5	observe	Run2	observe/STIM_002.jpg	99
1604.721	1.377	1377.0	observe	Run2	observe/STIM_003.jpg	100
1608.909	0.929	929.4	observe	Run2	observe/STIM_003.jpg	99
1612.206	1.186	1185.7	observe	Run2	observe/STIM_003.jpg	100
1617.165	1.272	1272.1	observe	Run2	observe/STIM_003.jpg	99
1620.92	1.139	1138.9	observe	Run2	observe/STIM_004.jpg	99
1624.179	1.379	1378.7	observe	Run2	observe/STIM_004.jpg	100
1628.94	1.108	1108.0	observe	Run2	observe/STIM_004.jpg	99
1632.286	1.152	1152.5	observe	Run2	observe/STIM_004.jpg	99
1635.919	1.411	1411.4	observe	Run2	observe/STIM_005.jpg	100
1639.369	1.302	1301.8	observe	Run2	observe/STIM_005.jpg	100
1643.699	0.975	975.1	observe	Run2	observe/STIM_005.jpg	100
1647.442	1.038	1037.9	observe	Run2	observe/STIM_005.jpg	99
1651.958	1.015	1014.7	observe	Run2	observe/STIM_006.jpg	100
1655.791	1.055	1055.2	observe	Run2	observe/STIM_006.jpg	100
1659.575	1.43	1430.5	observe	Run2	observe/STIM_006.jpg	100
1664.873	1.303	1303.0	observe	Run2	observe/STIM_006.jpg	99
1669.219	0.93	929.7	observe	Run2	observe/STIM_007.jpg	100
1673.191	1.328	1328.5	observe	Run2	observe/STIM_007.jpg	99
1677.017	1.186	1185.8	observe	Run2	observe/STIM_007.jpg	99
1681.273	0.928	928.4	observe	Run2	observe/STIM_007.jpg	100
1684.337	1.305	1305.1	observe	Run2	observe/STIM_008.jpg	99
1689.39	1.093	1092.8	observe	Run2	observe/STIM_008.jpg	100
1693.595	1.429	1429.2	observe	Run2	observe/STIM_008.jpg	100
1697.654	1.53	1530.5	observe	Run2	observe/STIM_008.jpg	99
1702.535	0.935	935.0	observe	Run2	observe/STIM_009.jpg	99
1707.096	1.275	1274.9	observe	Run2	observe/STIM_009.jpg	99
1710.54	0.979	979.3	observe	Run2	observe/STIM_009.jpg	100
1714.254	0.867	867.0	observe	Run2	observe/STIM_009.jpg	99
1717.575	1.252	1252.4	observe	Run2	observe/STIM_010.jpg	99
1722.118	1.433	1432.6	observe	Run2	observe/STIM_010.jpg	100
1726.687	1.095	1094.6	observe	Run2	observe/STIM_010.jpg	99
1730.169	0.908	907.7	observe	Run2	observe/STIM_010.jpg	99
1734.539	1.434	1434.0	observe	Run2	observe/STIM_011.jpg	100
1738.019	1.343	1343.3	observe	Run2	observe/STIM_011.jpg	100
1742.933	1.486	1485.8	observe	Run2	observe/STIM_011.jpg	100
1748.386	0.789	789.1	observe	Run2	observe/STIM_011.jpg	100
1751.245	0.894	893.9	observe	Run2	observe/STIM_012.jpg	100
1754.192	1.132	1131.7	observe	Run2	observe/STIM_012.jpg	99
1758.506	1.012	1012.1	observe	Run2	observe/STIM_012.jpg	100
1762.525	1.082	1081.7	observe	Run2	observe/STIM_012.jpg	99
1767.102	1.544	1543.5	observe	Run2	observe/STIM_013.jpg	100
1772.314	0.921	921.1	observe	Run2	observe/STIM_013.jpg	100
1776.776	1.257	1257.2	observe	Run2	observe/STIM_013.jpg	100
1782.011	1.317	1316.6	observe	Run2	observe/STIM_013.jpg	100
1785.503	0.888	887.5	observe	Run2	observe/STIM_014.jpg	100
1790.216	1.542	1542.3	observe	Run2	observe/STIM_014.jpg	100
1795.149	1.345	1345.2	observe	Run2	observe/STIM_014.jpg	99
1799.201	1.197	1196.8	observe	Run2	observe/STIM_014.jpg	99
1803.349	1.517	1516.6	observe	Run2	observe/STIM_015.jpg	99
1807.189	0.983	982.6	observe	Run2	observe/STIM_015.jpg	100
1810.37	1.35	1350.3	observe	Run2	observe/STIM_015.jpg	100
1814.15	1.054	1053.8	observe	Run2	observe/STIM_015.jpg	99
1818.467	1.541	1541.3	observe	Run2	observe/STIM_016.jpg	99
1823.794	1.12	1119.5	observe	Run2	observe/STIM_016.jpg	100
1827.85	1.17	1169.9	observe	Run2	observe/STIM_016.jpg	100
1832.382	1.204	1203.8	observe	Run2	observe/STIM_016.jpg	100
1835.964	1.093	1093.3	observe	Run2	observe/STIM_017.jpg	99
1840.859	0.893	892.8	observe	Run2	observe/STIM_017.jpg	100
1844.279	1.516	1515.5	observe	Run2	observe/STIM_017.jpg	99
1848.587	0.984	983.6	observe	Run2	observe/STIM_017.jpg	99
1852.636	1.166	1166.1	observe	Run2	observe/STIM_018.jpg	100
1856.346	1.184	1184.5	observe	Run2	observe/STIM_018.jpg	99
1859.961	0.982	982.4	observe	Run2	observe/STIM_018.jpg	100
1863.395	0.97	970.1	observe	Run2	observe/STIM_018.jpg	100
1867.421	1.098	1098.1	observe	Run2	observe/STIM_019.jpg	100
1872.293	1.369	1368.7	observe	Run2	observe/STIM_019.jpg	99
1876.581	1.441	1440.8	observe	Run2	observe/STIM_019.jpg	99
1881.674	1.434	1433.8	observe	Run2	observe/STIM_019.jpg	99
1886.13	1.714	1713.8	regulate	Run3	regulate/STIM_000.jpg	100
1890.269	2.242	2241.7	regulate	Run3	regulate/STIM_000.jpg	99
1895.23	1.669	1669.3	regulate	Run3	regulate/STIM_000.jpg	100
1899.955	2.18	2180.2	regulate	Run3	regulate/STIM_000.jpg	100
1904.379	1.264	1263.5	regulate	Run3	regulate/STIM_001.jpg	99
1907.97	2.009	2008.7	regulate	Run3	regulate/STIM_001.jpg	99
1913.656	1.174	1174.0	regulate	Run3	regulate/STIM_001.jpg	100
1918.623	2.208	2207.5	regulate	Run3	regulate/STIM_001.jpg	99
1923.658	1.643	1643.3	regulate	Run3	regulate/STIM_002.jpg	99
1929.099	1.694	1694.5	regulate	Run3	regulate/STIM_002.jpg	99
1933.077	2.223	2223.2	regulate	Run3	regulate/STIM_002.jpg	100
1937.884	2.181	2181.2	regulate	Run3	regulate/STIM_002.jpg	100
1942.203	2.286	2286.5	regulate	Run3	regulate/STIM_003.jpg	100
1948.169	1.928	1927.7	regulate	Run3	regulate/STIM_003.jpg	100
1952.103	1.269	1268.8	regulate	Run3	regulate/STIM_003.jpg	100
1955.629	2.373	2373.4	regulate	Run3	regulate/STIM_003.jpg	100
1960.022	2.26	2260.5	regulate	Run3	regulate/STIM_004.jpg	100
1964.359	2.288	2287.8	regulate	Run3	regulate/STIM_004.jpg	100
1969.253	1.608	1607.7	regulate	Run3	regulate/STIM_004.jpg	99
1973.635	1.136	1135.6	regulate	Run3	regulate/STIM_004.jpg	100
1978.156	2.075	2075.2	regulate	Run3	regulate/STIM_005.jpg	100
1982.499	1.796	1795.5	regulate	Run3	regulate/STIM_005.jpg	100
1986.551	1.907	1906.6	regulate	Run3	regulate/STIM_005.jpg	99
1992.302	1.821	1821.4	regulate	Run3	regulate/STIM_005.jpg	99
1997.565	1.963	1963.3	regulate	Run3	regulate/STIM_006.jpg	99
2001.557	1.733	1733.1	regulate	Run3	regulate/STIM_006.jpg	100
2006.696	1.347	1346.6	regulate	Run3	regulate/STIM_006.jpg	100
2011.471	1.968	1968.2	regulate	Run3	regulate/STIM_006.jpg	100
2016.349	1.078	1077.5	regulate	Run3	regulate/STIM_007.jpg	100
2019.894	1.561	1561.0	regulate	Run3	regulate/STIM_007.jpg	99
2024.985	2.097	2097.2	regulate	Run3	regulate/STIM_007.jpg	100
2030.997	1.757	1757.4	regulate	Run3	regulate/STIM_007.jpg	100
2036.145	2.116	2115.9	regulate	Run3	regulate/STIM_008.jpg	100
2041.394	1.489	1488.7	regulate	Run3	regulate/STIM_008.jpg	99
2046.17	1.906	1906.1	regulate	Run3	regulate/STIM_008.jpg	99
2051.207	1.639	1638.8	regulate	Run3	regulate/STIM_008.jpg	100
2056.443	2.125	2125.2	regulate	Run3	regulate/STIM_009.jpg	100
2061.27	2.081	2081.1	regulate	Run3	regulate/STIM_009.jpg	100
2066.284	2.015	2015.0	regulate	Run3	regulate/STIM_009.jpg	100
2071.686	1.114	1114.0	regulate	Run3	regulate/STIM_009.jpg	100
2075.36	2.125	2124.7	regulate	Run3	regulate/STIM_010.jpg	100
2079.573	1.873	1873.1	regulate	Run3	regulate/STIM_010.jpg	99
2084.485	2.316	2316.2	regulate	Run3	regulate/STIM_010.jpg	100
2089.606	2.068	2068.3	regulate	Run3	regulate/STIM_010.jpg	100
2093.774	1.409	1409.0	regulate	Run3	regulate/STIM_011.jpg	99
2097.286	2.269	2269.3	regulate	Run3	regulate/STIM_011.jpg	99
2103.204	1.407	1407.3	regulate	Run3	regulate/STIM_011.jpg	100
2107.888	1.096	1096.0	regulate	Run3	regulate/STIM_011.jpg	100
2112.731	1.457	1456.8	regulate	Run3	regulate/STIM_012.jpg	100
2116.822	2.401	2401.1	regulate	Run3	regulate/STIM_012.jpg	100
2122.068	1.482	1482.3	regulate	Run3	regulate/STIM_012.jpg	99
2125.909	2.26	2260.1	regulate	Run3	regulate/STIM_012.jpg	99
2131.248	1.055	1055.4	regulate	Run3	regulate/STIM_013.jpg	99
2135.134	2.042	2042.5	regulate	Run3	regulate/STIM_013.jpg	99
2140.366	1.949	1948.7	regulate	Run3	regulate/STIM_013.jpg	100
2144.411	1.645	1644.6	regulate	Run3	regulate/STIM_013.jpg	99
2149.628	1.219	1219.3	regulate	Run3	regulate/STIM_014.jpg	100
2153.976	1.148	1148.5	regulate	Run3	regulate/STIM_014.jpg	99
2157.179	1.75	1749.9	regulate	Run3	regulate/STIM_014.jpg	99
2162.004	1.171	1170.7	regulate	Run3	regulate/STIM_014.jpg	99
2166.356	1.657	1656.6	regulate	Run3	regulate/STIM_015.jpg	100
2170.815	1.488	1488.0	regulate	Run3	regulate/STIM_015.jpg	99
2175.118	1.419	1419.1	regulate	Run3	regulate/STIM_015.jpg	99
2179.171	1.475	1475.0	regulate	Run3	regulate/STIM_015.jpg	99
2183.14	2.392	2391.5	regulate	Run3	regulate/STIM_016.jpg	100
2188.127	1.43	1430.0	regulate	Run3	regulate/STIM_016.jpg	99
2192.087	1.323	1323.0	regulate	Run3	regulate/STIM_016.jpg	99
2197.17	2.392	2392.0	regulate	Run3	regulate/STIM_016.jpg	99
2202.245	2.164	2164.1	regulate	Run3	regulate/STIM_017.jpg	99
2208.023	1.178	1178.5	regulate	Run3	regulate/STIM_017.jpg	100
2211.764	1.581	1580.8	regulate	Run3	regulate/STIM_017.jpg	99
2216.106	1.405	1404.7	regulate	Run3	regulate/STIM_017.jpg	100
2221.168	1.074	1074.1	regulate	Run3	regulate/STIM_018.jpg	99
2225.476	2.242	2241.8	regulate	Run3	regulate/STIM_018.jpg	100
2231.602	1.76	1760.0	regulate	Run3	regulate/STIM_018.jpg	100
2235.815	2.316	2316.2	regulate	Run3	regulate/STIM_018.jpg	99
2240.47	2.395	2395.1	regulate	Run3	regulate/STIM_019.jpg	100
2246.751	1.36	1359.9	regulate	Run3	regulate/STIM_019.jpg	99
2251.603	2.262	2261.8	regulate	Run3	regulate/STIM_019.jpg	100
2256.625	1.044	1044.4	regulate	Run3	regulate/STIM_019.jpg	99
2261.454	1.907	1907.0	regulate	Run3	regulate/STIM_020.jpg	99
2266.561	2.384	2384.5	regulate	Run3	regulate/STIM_020.jpg	100
2271.724	1.316	1316.2	regulate	Run3	regulate/STIM_020.jpg	100
2276.423	1.74	1739.8	regulate	Run3	regulate/STIM_020.jpg	99
2280.493	2.232	2231.6	regulate	Run3	regulate/STIM_021.jpg	99
2284.938	1.183	1183.2	regulate	Run3	regulate/STIM_021.jpg	99
2289.689	1.431	1430.8	regulate	Run3	regulate/STIM_021.jpg	99
2294.415	1.852	1852.2	regulate	Run3	regulate/STIM_021.jpg	100
2299.862	1.364	1363.9	regulate	Run3	regulate/STIM_022.jpg	100
2304.666	1.177	1177.3	regulate	Run3	regulate/STIM_022.jpg	99
2309.391	1.962	1962.4	regulate	Run3	regulate/STIM_022.jpg	99
2314.714	1.074	1074.3	regulate	Run3	regulate/STIM_022.jpg	100
2319.394	1.787	1786.7	regulate	Run3	regulate/STIM_023.jpg	100
2323.512	2.329	2329.0	regulate	Run3	regulate/STIM_023.jpg	100
2329.429	1.748	1747.6	regulate	Run3	regulate/STIM_023.jpg	99
2334.59	2.183	2183.3	regulate	Run3	regulate/STIM_023.jpg	100
2339.331	2.067	2066.9	regulate	Run3	regulate/STIM_024.jpg	100
2344.292	2.007	2006.6	regulate	Run3	regulate/STIM_024.jpg	100
2350.158	2.076	2075.7	regulate	Run3	regulate/STIM_024.jpg	99
2354.832	1.771	1771.0	regulate	Run3	regulate/STIM_024.jpg	100
2359.217	1.652	1652.0	regulate	Run3	regulate/STIM_025.jpg	100
2363.718	1.378	1378.1	regulate	Run3	regulate/STIM_025.jpg	99
2367.628	2.242	2241.7	regulate	Run3	regulate/STIM_025.jpg	100
2372.977	1.664	1663.9	regulate	Run3	regulate/STIM_025.jpg	100
2377.191	1.778	1777.8	regulate	Run3	regulate/STIM_026.jpg	99
2382.394	1.565	1564.6	regulate	Run3	regulate/STIM_026.jpg	99
2386.734	1.986	1985.5	regulate	Run3	regulate/STIM_026.jpg	100
2391.543	2.159	2159.4	regulate	Run3	regulate/STIM_026.jpg	99
2396.106	2.343	2343.2	regulate	Run3	regulate/STIM_027.jpg	100
2401.266	1.231	1230.7	regulate	Run3	regulate/STIM_027.jpg	99
2405.893	1.147	1147.3	regulate	Run3	regulate/STIM_027.jpg	100
2410.35	1.055	1055.0	regulate	Run3	regulate/STIM_027.jpg	100
2413.919	1.279	1278.7	regulate	Run3	regulate/STIM_028.jpg	100
2419.049	2.411	2411.0	regulate	Run3	regulate/STIM_028.jpg	99
2423.914	1.584	1584.2	regulate	Run3	regulate/STIM_028.jpg	99
2429.383	1.87	1869.7	regulate	Run3	regulate/STIM_028.jpg	99
2434.894	1.446	1446.1	regulate	Run3	regulate/STIM_029.jpg	99
2440.028	1.124	1124.3	regulate	Run3	regulate/STIM_029.jpg	100
2444.242	1.922	1922.2	regulate	Run3	regulate/STIM_029.jpg	99
2449.198	2.349	2349.1	regulate	Run3	regulate/STIM_029.jpg	99
2453.809	1.357	1357.1	observe	Run3	observe/STIM_000.jpg	100
2458.697	0.801	801.0	observe	Run3	observe/STIM_000.jpg	100
2463.302	0.809	809.1	observe	Run3	observe/STIM_000.jpg	100
2467.252	1.301	1301.1	observe	Run3	observe/STIM_000.jpg	99
2471.674	1.402	1401.7	observe	Run3	observe/STIM_001.jpg	99
2475.259	1.014	1013.9	observe	Run3	observe/STIM_001.jpg	100
2479.014	0.81	810.5	observe	Run3	observe/STIM_001.jpg	99
2481.837	1.399	1398.6	observe	Run3	observe/STIM_001.jpg	100
2487.22	1.339	1339.0	observe	Run3	observe/STIM_002.jpg	100
2490.633	1.23	1229.7	observe	Run3	observe/STIM_002.jpg	100
2494.171	1.547	1547.2	observe	Run3	observe/STIM_002.jpg	100
2497.852	1.194	1194.0	observe	Run3	observe/STIM_002.jpg	99
2502.107	1.002	1001.7	observe	Run3	observe/STIM_003.jpg	99
2507.055	1.47	1469.9	observe	Run3	observe/STIM_003.jpg	100
2511.309	1.475	1475.2	observe	Run3	observe/STIM_003.jpg	99
2515.905	1.098	1097.8	observe	Run3	observe/STIM_003.jpg	100
2520.375	1.165	1165.1	observe	Run3	observe/STIM_004.jpg	100
2524.531	0.86	860.0	observe	Run3	observe/STIM_004.jpg	100
2527.803	1.232	1231.6	observe	Run3	observe/STIM_004.jpg	99
2532.332	1.152	1151.9	observe	Run3	observe/STIM_004.jpg	100
2535.798	1.03	1029.5	observe	Run3	observe/STIM_005.jpg	99
2538.846	1.505	1505.0	observe	Run3	observe/STIM_005.jpg	99
2544.152	0.942	941.6	observe	Run3	observe/STIM_005.jpg	99
2548.016	1.166	1166.1	observe	Run3	observe/STIM_005.jpg	99
2552.671	1.254	1253.5	observe	Run3	observe/STIM_006.jpg	100
2557.512	1.564	1564.5	observe	Run3	observe/STIM_006.jpg	99
2562.894	1.512	1512.1	observe	Run3	observe/STIM_006.jpg	100
2566.502	1.08	1080.0	observe	Run3	observe/STIM_006.jpg	99
2571.5	1.192	1192.1	observe	Run3	observe/STIM_007.jpg	100
2575.169	1.551	1550.6	observe	Run3	observe/STIM_007.jpg	100
2579.697	1.32	1320.0	observe	Run3	observe/STIM_007.jpg	99
2584.896	1.464	1463.6	observe	Run3	observe/STIM_007.jpg	99
2589.723	0.889	888.9	observe	Run3	observe/STIM_008.jpg	100
2592.792	1.547	1546.8	observe	Run3	observe/STIM_008.jpg	99
2597.659	0.967	967.2	observe	Run3	observe/STIM_008.jpg	100
2601.574	1.535	1534.6	observe	Run3	observe/STIM_008.jpg	99
2606.866	0.907	907.4	observe	Run3	observe/STIM_009.jpg	100
2611.267	1.3	1300.2	observe	Run3	observe/STIM_009.jpg	100
2616.015	0.902	902.4	observe	Run3	observe/STIM_009.jpg	99
2620.523	1.007	1007.0	observe	Run3	observe/STIM_009.jpg	100
2624.118	1.27	1270.4	observe	Run3	observe/STIM_010.jpg	99
2628.715	1.521	1520.8	observe	Run3	observe/STIM_010.jpg	99
2633.16	1.513	1513.1	observe	Run3	observe/STIM_010.jpg	99
2637.167	0.986	986.1	observe	Run3	observe/STIM_010.jpg	99
2640.664	0.896	895.6	observe	Run3	observe/STIM_011.jpg	99
2644.303	1.172	1171.9	observe	Run3	observe/STIM_011.jpg	99
2649.087	1.417	1417.3	observe	Run3	observe/STIM_011.jpg	99
2653.592	1.154	1153.6	observe	Run3	observe/STIM_011.jpg	100
2657.869	1.01	1010.1	observe	Run3	observe/STIM_012.jpg	100
2661.363	1.522	1522.3	observe	Run3	observe/STIM_012.jpg	100
2665.547	1.484	1484.1	observe	Run3	observe/STIM_012.jpg	100
2670.445	1.285	1285.0	observe	Run3	observe/STIM_012.jpg	99
2675.03	1.388	1387.8	observe	Run3	observe/STIM_013.jpg	100
2678.837	1.048	1048.0	observe	Run3	observe/STIM_013.jpg	99
2683.315	0.915	915.3	observe	Run3	observe/STIM_013.jpg	99
2686.728	1.096	1096.5	observe	Run3	observe/STIM_013.jpg	100
2690.572	1.168	1167.6	observe	Run3	observe/STIM_014.jpg	100
2695.298	1.236	1236.2	observe	Run3	observe/STIM_014.jpg	100
2699.132	1.036	1035.7	observe	Run3	observe/STIM_014.jpg	99
2703.509	1.356	1356.1	observe	Run3	observe/STIM_014.jpg	100
2707.943	1.047	1046.6	observe	Run3	observe/STIM_015.jpg	99
2711.754	0.918	917.8	observe	Run3	observe/STIM_015.jpg	99
2715.806	0.986	986.3	observe	Run3	observe/STIM_015.jpg	99
2720.19	1.392	1391.8	observe	Run3	observe/STIM_015.jpg	100
2724.573	0.945	944.7	observe	Run3	observe/STIM_016.jpg	100
2727.661	1.176	1175.8	observe	Run3	observe/STIM_016.jpg	100
2731.136	1.488	1488.4	observe	Run3	observe/STIM_016.jpg	99
2734.768	1.202	1202.4	observe	Run3	observe/STIM_016.jpg	99
2738.755	1.322	1321.9	observe	Run3	observe/STIM_017.jpg	99
2743.114	1.01	1009.8	observe	Run3	observe/STIM_017.jpg	100
2746.344	1.108	1108.2	observe	Run3	observe/STIM_017.jpg	99
2749.911	0.827	826.6	observe	Run3	observe/STIM_017.jpg	99
2754.492	1.104	1104.5	observe	Run3	observe/STIM_018.jpg	99
2757.627	0.789	788.6	observe	Run3	observe/STIM_018.jpg	99
2762.363	1.226	1226.0	observe	Run3	observe/STIM_018.jpg	99
2766.559	0.906	905.8	observe	Run3	observe/STIM_018.jpg	99
2769.923	1.153	1152.6	observe	Run3	observe/STIM_019.jpg	100
2774.815	1.088	1088.1	observe	Run3	observe/STIM_019.jpg	99
2778.264	0.997	997.3	observe	Run3	observe/STIM_019.jpg	100
2781.464	1.107	1107.3	observe	Run3	observe/STIM_019.jpg	99
