onset	duration	accuracy	trial_type	learning_stage	stimulus
0.0	1.608	correct	regulate	Run1	regulate/STIM_000.jpg
5.219	2.457	correct	regulate	Run1	regulate/STIM_000.jpg
10.418	2.558	correct	regulate	Run1	regulate/STIM_000.jpg
16.101	2.286	correct	regulate	Run1	regulate/STIM_000.jpg
20.736	3.382	correct	regulate	Run1	regulate/STIM_001.jpg
27.961	1.469	correct	regulate	Run1	regulate/STIM_001.jpg
33.006	1.821	correct	regulate	Run1	regulate/STIM_001.jpg
37.829	1.741	correct	regulate	Run1	regulate/STIM_001.jpg
41.637	2.282	incorrect	regulate	Run1	regulate/STIM_002.jpg
46.439	2.672	correct	regulate	Run1	regulate/STIM_002.jpg
51.836	2.929	correct	regulate	Run1	regulate/STIM_002.jpg
58.26	2.222	correct	regulate	Run1	regulate/STIM_002.jpg
63.4	2.923	correct	regulate	Run1	regulate/STIM_003.jpg
69.38	2.225	correct	regulate	Run1	regulate/STIM_003.jpg
75.353	2.779	incorrect	regulate	Run1	regulate/STIM_003.jpg
81.25	1.318	correct	regulate	Run1	regulate/STIM_003.jpg
85.574	2.858	correct	regulate	Run1	regulate/STIM_004.jpg
91.101	2.028	correct	regulate	Run1	regulate/STIM_004.jpg
96.197	1.488	correct	regulate	Run1	regulate/STIM_004.jpg
100.435	2.566	correct	regulate	Run1	regulate/STIM_004.jpg
105.905	2.041	correct	regulate	Run1	regulate/STIM_005.jpg
110.484	2.551	correct	regulate	Run1	regulate/STIM_005.jpg
115.129	1.954	correct	regulate	Run1	regulate/STIM_005.jpg
120.96	1.427	correct	regulate	Run1	regulate/STIM_005.jpg
126.007	1.8	correct	regulate	Run1	regulate/STIM_006.jpg
130.206	3.144	correct	regulate	Run1	regulate/STIM_006.jpg
136.738	2.016	correct	regulate	Run1	regulate/STIM_006.jpg
142.486	1.59	correct	regulate	Run1	regulate/STIM_006.jpg
146.988	1.865	correct	regulate	Run1	regulate/STIM_007.jpg
151.414	1.589	correct	regulate	Run1	regulate/STIM_007.jpg
155.289	1.397	correct	regulate	Run1	regulate/STIM_007.jpg
159.285	2.077	correct	regulate	Run1	regulate/STIM_007.jpg
164.302	1.49	correct	regulate	Run1	regulate/STIM_008.jpg
168.384	1.861	correct	regulate	Run1	regulate/STIM_008.jpg
172.304	1.917	correct	regulate	Run1	regulate/STIM_008.jpg
178.203	2.311	incorrect	regulate	Run1	regulate/STIM_008.jpg
182.563	3.286	correct	regulate	Run1	regulate/STIM_009.jpg
189.5	2.134	correct	regulate	Run1	regulate/STIM_009.jpg
195.206	1.429	incorrect	regulate	Run1	regulate/STIM_009.jpg
198.791	1.551	correct	regulate	Run1	regulate/STIM_009.jpg
203.04	1.479	incorrect	regulate	Run1	regulate/STIM_010.jpg
208.364	1.417	incorrect	regulate	Run1	regulate/STIM_010.jpg
212.834	1.488	correct	regulate	Run1	regulate/STIM_010.jpg
216.405	1.956	correct	regulate	Run1	regulate/STIM_010.jpg
220.846	2.419	correct	regulate	Run1	regulate/STIM_011.jpg
225.87	1.955	incorrect	regulate	Run1	regulate/STIM_011.jpg
231.432	1.687	correct	regulate	Run1	regulate/STIM_011.jpg
236.319	2.091	correct	regulate	Run1	regulate/STIM_011.jpg
241.729	1.493	correct	regulate	Run1	regulate/STIM_012.jpg
245.839	3.068	incorrect	regulate	Run1	regulate/STIM_012.jpg
251.834	1.396	incorrect	regulate	Run1	regulate/STIM_012.jpg
256.285	2.094	correct	regulate	Run1	regulate/STIM_012.jpg
261.278	1.916	correct	regulate	Run1	regulate/STIM_013.jpg
266.923	2.887	correct	regulate	Run1	regulate/STIM_013.jpg
273.236	2.747	correct	regulate	Run1	regulate/STIM_013.jpg
278.54	1.667	correct	regulate	Run1	regulate/STIM_013.jpg
283.064	2.526	correct	regulate	Run1	regulate/STIM_014.jpg
288.449	2.439	correct	regulate	Run1	regulate/STIM_014.jpg
294.273	2.546	correct	regulate	Run1	regulate/STIM_014.jpg
298.888	2.844	correct	regulate	Run1	regulate/STIM_014.jpg
304.492	1.651	correct	regulate	Run1	regulate/STIM_015.jpg
309.539	3.165	correct	regulate	Run1	regulate/STIM_015.jpg
315.427	2.631	correct	regulate	Run1	regulate/STIM_015.jpg
320.48	2.053	correct	regulate	Run1	regulate/STIM_015.jpg
326.386	1.843	incorrect	regulate	Run1	regulate/STIM_016.jpg
331.803	2.976	correct	regulate	Run1	regulate/STIM_016.jpg
336.866	2.008	incorrect	regulate	Run1	regulate/STIM_016.jpg
342.7	2.273	correct	regulate	Run1	regulate/STIM_016.jpg
348.794	2.525	correct	regulate	Run1	regulate/STIM_017.jpg
353.812	1.474	correct	regulate	Run1	regulate/STIM_017.jpg
357.845	2.032	correct	regulate	Run1	regulate/STIM_017.jpg
361.898	1.547	correct	regulate	Run1	regulate/STIM_017.jpg
365.502	3.296	correct	regulate	Run1	regulate/STIM_018.jpg
371.286	2.334	correct	regulate	Run1	regulate/STIM_018.jpg
375.686	1.828	correct	regulate	Run1	regulate/STIM_018.jpg
379.639	2.554	correct	regulate	Run1	regulate/STIM_018.jpg
385.802	2.385	correct	regulate	Run1	regulate/STIM_019.jpg
391.713	2.088	correct	regulate	Run1	regulate/STIM_019.jpg
397.515	1.406	incorrect	regulate	Run1	regulate/STIM_019.jpg
402.642	2.916	correct	regulate	Run1	regulate/STIM_019.jpg
408.63	2.069	incorrect	regulate	Run1	regulate/STIM_020.jpg
412.748	2.044	correct	regulate	Run1	regulate/STIM_020.jpg
418.09	3.04	correct	regulate	Run1	regulate/STIM_020.jpg
424.061	2.2	correct	regulate	Run1	regulate/STIM_020.jpg
428.305	3.295	correct	regulate	Run1	regulate/STIM_021.jpg
434.974	2.818	correct	regulate	Run1	regulate/STIM_021.jpg
441.143	3.026	correct	regulate	Run1	regulate/STIM_021.jpg
446.514	2.266	correct	regulate	Run1	regulate/STIM_021.jpg
452.088	1.901	correct	regulate	Run1	regulate/STIM_022.jpg
457.903	2.05	correct	regulate	Run1	regulate/STIM_022.jpg
462.871	2.787	correct	regulate	Run1	regulate/STIM_022.jpg
468.553	2.372	correct	regulate	Run1	regulate/STIM_022.jpg
473.699	2.15	correct	regulate	Run1	regulate/STIM_023.jpg
478.891	3.121	incorrect	regulate	Run1	regulate/STIM_023.jpg
484.334	1.344	correct	regulate	Run1	regulate/STIM_023.jpg
488.541	1.961	correct	regulate	Run1	regulate/STIM_023.jpg
493.375	1.955	correct	regulate	Run1	regulate/STIM_024.jpg
499.052	3.233	incorrect	regulate	Run1	regulate/STIM_024.jpg
505.332	2.849	correct	regulate	Run1	regulate/STIM_024.jpg
511.142	1.613	correct	regulate	Run1	regulate/STIM_024.jpg
515.988	2.217	incorrect	regulate	Run1	regulate/STIM_025.jpg
522.093	1.552	correct	regulate	Run1	regulate/STIM_025.jpg
526.547	2.003	correct	regulate	Run1	regulate/STIM_025.jpg
531.114	2.103	incorrect	regulate	Run1	regulate/STIM_025.jpg
536.014	2.102	correct	regulate	Run1	regulate/STIM_026.jpg
540.164	2.158	correct	regulate	Run1	regulate/STIM_026.jpg
544.336	2.016	correct	regulate	Run1	regulate/STIM_026.jpg
550.037	2.761	correct	regulate	Run1	regulate/STIM_026.jpg
556.559	1.56	correct	regulate	Run1	regulate/STIM_027.jpg
561.784	1.498	correct	regulate	Run1	regulate/STIM_027.jpg
565.673	1.437	correct	regulate	Run1	regulate/STIM_027.jpg
570.412	2.287	correct	regulate	Run1	regulate/STIM_027.jpg
576.649	1.788	correct	regulate	Run1	regulate/STIM_028.jpg
581.935	3.21	correct	regulate	Run1	regulate/STIM_028.jpg
588.547	2.327	incorrect	regulate	Run1	regulate/STIM_028.jpg
594.841	1.793	correct	regulate	Run1	regulate/STIM_028.jpg
599.432	1.538	correct	regulate	Run1	regulate/STIM_029.jpg
603.286	3.268	correct	regulate	Run1	regulate/STIM_029.jpg
609.02	3.068	incorrect	regulate	Run1	regulate/STIM_029.jpg
614.713	1.645	correct	regulate	Run1	regulate/STIM_029.jpg
618.395	1.506	correct	observe	Run1	observe/STIM_000.jpg
623.322	1.38	correct	observe	Run1	observe/STIM_000.jpg
628.484	1.18	correct	observe	Run1	observe/STIM_000.jpg
632.456	1.53	correct	observe	Run1	observe/STIM_000.jpg
636.902	1.409	incorrect	observe	Run1	observe/STIM_001.jpg
641.856	1.372	correct	observe	Run1	observe/STIM_001.jpg
645.462	1.514	correct	observe	Run1	observe/STIM_001.jpg
650.677	1.27	correct	observe	Run1	observe/STIM_001.jpg
654.96	1.049	correct	observe	Run1	observe/STIM_002.jpg
659.499	1.111	correct	observe	Run1	observe/STIM_002.jpg
664.542	1.534	correct	observe	Run1	observe/STIM_002.jpg
669.893	0.988	correct	observe	Run1	observe/STIM_002.jpg
674.046	1.507	correct	observe	Run1	observe/STIM_003.jpg
677.962	1.504	correct	observe	Run1	observe/STIM_003.jpg
683.338	1.106	correct	observe	Run1	observe/STIM_003.jpg
686.533	0.792	incorrect	observe	Run1	observe/STIM_003.jpg
690.339	0.966	correct	observe	Run1	observe/STIM_004.jpg
694.351	1.426	correct	observe	Run1	observe/STIM_004.jpg
698.924	1.331	incorrect	observe	Run1	observe/STIM_004.jpg
702.578	1.133	correct	observe	Run1	observe/STIM_004.jpg
705.809	1.454	correct	observe	Run1	observe/STIM_005.jpg
710.507	0.929	correct	observe	Run1	observe/STIM_005.jpg
714.194	1.12	correct	observe	Run1	observe/STIM_005.jpg
718.199	1.011	correct	observe	Run1	observe/STIM_005.jpg
721.653	0.92	correct	observe	Run1	observe/STIM_006.jpg
726.16	1.55	correct	observe	Run1	observe/STIM_006.jpg
730.742	1.009	correct	observe	Run1	observe/STIM_006.jpg
734.839	1.352	correct	observe	Run1	observe/STIM_006.jpg
739.488	1.012	correct	observe	Run1	observe/STIM_007.jpg
744.346	1.115	correct	observe	Run1	observe/STIM_007.jpg
747.468	0.96	correct	observe	Run1	observe/STIM_007.jpg
752.203	1.427	correct	observe	Run1	observe/STIM_007.jpg
755.695	1.233	correct	observe	Run1	observe/STIM_008.jpg
759.116	1.055	correct	observe	Run1	observe/STIM_008.jpg
764.013	1.34	correct	observe	Run1	observe/STIM_008.jpg
767.675	1.13	correct	observe	Run1	observe/STIM_008.jpg
770.934	1.098	correct	observe	Run1	observe/STIM_009.jpg
774.588	1.333	correct	observe	Run1	observe/STIM_009.jpg
779.604	1.465	correct	observe	Run1	observe/STIM_009.jpg
783.12	0.991	correct	observe	Run1	observe/STIM_009.jpg
787.668	0.874	correct	observe	Run1	observe/STIM_010.jpg
791.764	1.124	correct	observe	Run1	observe/STIM_010.jpg
794.892	1.021	correct	observe	Run1	observe/STIM_010.jpg
798.532	1.044	correct	observe	Run1	observe/STIM_010.jpg
802.356	1.477	correct	observe	Run1	observe/STIM_011.jpg
806.345	1.122	correct	observe	Run1	observe/STIM_011.jpg
810.744	1.422	correct	observe	Run1	observe/STIM_011.jpg
814.835	1.463	correct	observe	Run1	observe/STIM_011.jpg
818.916	0.927	correct	observe	Run1	observe/STIM_012.jpg
823.278	1.138	incorrect	observe	Run1	observe/STIM_012.jpg
827.908	1.3	correct	observe	Run1	observe/STIM_012.jpg
831.683	0.815	incorrect	observe	Run1	observe/STIM_012.jpg
834.525	1.176	correct	observe	Run1	observe/STIM_013.jpg
839.513	0.949	correct	observe	Run1	observe/STIM_013.jpg
844.09	1.078	correct	observe	Run1	observe/STIM_013.jpg
848.919	1.304	correct	observe	Run1	observe/STIM_013.jpg
852.82	0.974	correct	observe	Run1	observe/STIM_014.jpg
857.092	1.556	correct	observe	Run1	observe/STIM_014.jpg
861.44	1.212	correct	observe	Run1	observe/STIM_014.jpg
865.741	1.341	correct	observe	Run1	observe/STIM_014.jpg
870.015	1.411	correct	observe	Run1	observe/STIM_015.jpg
874.194	1.363	correct	observe	Run1	observe/STIM_015.jpg
879.447	1.302	correct	observe	Run1	observe/STIM_015.jpg
884.546	1.139	correct	observe	Run1	observe/STIM_015.jpg
889.313	1.056	correct	observe	Run1	observe/STIM_016.jpg
892.964	0.845	correct	observe	Run1	observe/STIM_016.jpg
896.052	1.002	correct	observe	Run1	observe/STIM_016.jpg
900.815	1.543	correct	observe	Run1	observe/STIM_016.jpg
905.351	1.405	correct	observe	Run1	observe/STIM_017.jpg
908.813	0.973	correct	observe	Run1	observe/STIM_017.jpg
912.629	1.378	correct	observe	Run1	observe/STIM_017.jpg
916.018	1.554	correct	observe	Run1	observe/STIM_017.jpg
920.373	1.518	correct	observe	Run1	observe/STIM_018.jpg
924.938	1.51	correct	observe	Run1	observe/STIM_018.jpg
929.805	1.5	correct	observe	Run1	observe/STIM_018.jpg
933.767	1.147	correct	observe	Run1	observe/STIM_018.jpg
938.545	1.05	correct	observe	Run1	observe/STIM_019.jpg
942.391	0.814	incorrect	observe	Run1	observe/STIM_019.jpg
946.724	1.161	correct	observe	Run1	observe/STIM_019.jpg
950.362	1.286	correct	observe	Run1	observe/STIM_019.jpg
955.073	2.755	correct	regulate	Run2	regulate/STIM_000.jpg
961.413	2.688	correct	regulate	Run2	regulate/STIM_000.jpg
967.231	2.03	correct	regulate	Run2	regulate/STIM_000.jpg
972.754	1.565	incorrect	regulate	Run2	regulate/STIM_000.jpg
977.637	2.901	correct	regulate	Run2	regulate/STIM_001.jpg
982.995	2.418	incorrect	regulate	Run2	regulate/STIM_001.jpg
989.181	2.317	correct	regulate	Run2	regulate/STIM_001.jpg
994.337	1.401	correct	regulate	Run2	regulate/STIM_001.jpg
998.529	2.852	correct	regulate	Run2	regulate/STIM_002.jpg
1004.448	2.087	correct	regulate	Run2	regulate/STIM_002.jpg
1008.645	2.062	correct	regulate	Run2	regulate/STIM_002.jpg
1014.511	2.128	correct	regulate	Run2	regulate/STIM_002.jpg
1020.303	1.911	correct	regulate	Run2	regulate/STIM_003.jpg
1026.208	1.334	incorrect	regulate	Run2	regulate/STIM_003.jpg
1029.585	2.183	correct	regulate	Run2	regulate/STIM_003.jpg
1034.409	1.385	incorrect	regulate	Run2	regulate/STIM_003.jpg
1038.217	1.671	correct	regulate	Run2	regulate/STIM_004.jpg
1043.052	2.729	correct	regulate	Run2	regulate/STIM_004.jpg
1049.127	1.401	correct	regulate	Run2	regulate/STIM_004.jpg
1052.969	2.079	correct	regulate	Run2	regulate/STIM_004.jpg
1058.261	2.404	correct	regulate	Run2	regulate/STIM_005.jpg
1064.606	2.457	incorrect	regulate	Run2	regulate/STIM_005.jpg
1069.287	1.305	correct	regulate	Run2	regulate/STIM_005.jpg
1073.645	1.434	correct	regulate	Run2	regulate/STIM_005.jpg
1077.253	2.193	correct	regulate	Run2	regulate/STIM_006.jpg
1082.206	1.21	correct	regulate	Run2	regulate/STIM_006.jpg
1086.408	1.796	correct	regulate	Run2	regulate/STIM_006.jpg
1091.296	2.12	incorrect	regulate	Run2	regulate/STIM_006.jpg
1096.258	2.091	correct	regulate	Run2	regulate/STIM_007.jpg
1100.401	1.812	correct	regulate	Run2	regulate/STIM_007.jpg
1105.261	2.004	correct	regulate	Run2	regulate/STIM_007.jpg
1110.608	1.906	correct	regulate	Run2	regulate/STIM_007.jpg
1114.8	2.421	correct	regulate	Run2	regulate/STIM_008.jpg
1119.383	1.873	correct	regulate	Run2	regulate/STIM_008.jpg
1124.673	1.302	correct	regulate	Run2	regulate/STIM_008.jpg
1128.855	1.573	correct	regulate	Run2	regulate/STIM_008.jpg
1133.263	1.66	correct	regulate	Run2	regulate/STIM_009.jpg
1138.131	1.354	correct	regulate	Run2	regulate/STIM_009.jpg
1143.228	2.095	correct	regulate	Run2	regulate/STIM_009.jpg
1148.093	1.615	correct	regulate	Run2	regulate/STIM_009.jpg
1153.116	2.761	correct	regulate	Run2	regulate/STIM_010.jpg
1159.395	2.097	correct	regulate	Run2	regulate/STIM_010.jpg
1165.446	2.335	correct	regulate	Run2	regulate/STIM_010.jpg
1171.559	1.448	correct	regulate	Run2	regulate/STIM_010.jpg
1176.921	2.855	correct	regulate	Run2	regulate/STIM_011.jpg
1183.016	1.538	correct	regulate	Run2	regulate/STIM_011.jpg
1188.098	1.395	correct	regulate	Run2	regulate/STIM_011.jpg
1192.937	2.266	correct	regulate	Run2	regulate/STIM_011.jpg
1198.2	2.686	incorrect	regulate	Run2	regulate/STIM_012.jpg
1203.026	2.232	correct	regulate	Run2	regulate/STIM_012.jpg
1207.78	1.376	correct	regulate	Run2	regulate/STIM_012.jpg
1211.645	2.361	correct	regulate	Run2	regulate/STIM_012.jpg
1216.313	2.389	correct	regulate	Run2	regulate/STIM_013.jpg
1220.802	2.724	correct	regulate	Run2	regulate/STIM_013.jpg
1227.125	1.202	correct	regulate	Run2	regulate/STIM_013.jpg
1231.481	1.405	correct	regulate	Run2	regulate/STIM_013.jpg
1235.689	2.816	incorrect	regulate	Run2	regulate/STIM_014.jpg
1240.517	1.84	correct	regulate	Run2	regulate/STIM_014.jpg
1245.14	1.139	correct	regulate	Run2	regulate/STIM_014.jpg
1249.458	2.039	correct	regulate	Run2	regulate/STIM_014.jpg
1255.074	2.44	correct	regulate	Run2	regulate/STIM_015.jpg
1259.68	1.353	correct	regulate	Run2	regulate/STIM_015.jpg
1264.179	2.135	incorrect	regulate	Run2	regulate/STIM_015.jpg
1270.132	2.175	correct	regulate	Run2	regulate/STIM_015.jpg
1275.278	2.473	incorrect	regulate	Run2	regulate/STIM_016.jpg
1281.038	1.556	correct	regulate	Run2	regulate/STIM_016.jpg
1286.061	1.693	incorrect	regulate	Run2	regulate/STIM_016.jpg
1289.896	1.134	correct	regulate	Run2	regulate/STIM_016.jpg
1294.958	2.296	correct	regulate	Run2	regulate/STIM_017.jpg
1299.933	2.505	correct	regulate	Run2	regulate/STIM_017.jpg
1305.186	1.53	correct	regulate	Run2	regulate/STIM_017.jpg
1309.899	1.131	correct	regulate	Run2	regulate/STIM_017.jpg
1313.845	1.369	correct	regulate	Run2	regulate/STIM_018.jpg
1318.841	2.589	correct	regulate	Run2	regulate/STIM_018.jpg
1324.87	1.574	correct	regulate	Run2	regulate/STIM_018.jpg
1329.723	2.349	correct	regulate	Run2	regulate/STIM_018.jpg
1334.817	2.099	correct	regulate	Run2	regulate/STIM_019.jpg
1339.016	2.535	correct	regulate	Run2	regulate/STIM_019.jpg
1345.015	1.968	incorrect	regulate	Run2	regulate/STIM_019.jpg
1349.103	2.343	correct	regulate	Run2	regulate/STIM_019.jpg
1353.451	1.474	correct	regulate	Run2	regulate/STIM_020.jpg
1357.018	2.535	correct	regulate	Run2	regulate/STIM_020.jpg
1361.753	1.632	correct	regulate	Run2	regulate/STIM_020.jpg
1367.357	1.054	correct	regulate	Run2	regulate/STIM_020.jpg
1371.571	2.318	incorrect	regulate	Run2	regulate/STIM_021.jpg
1376.691	2.198	incorrect	regulate	Run2	regulate/STIM_021.jpg
1382.346	2.361	correct	regulate	Run2	regulate/STIM_021.jpg
1387.542	1.565	incorrect	regulate	Run2	regulate/STIM_021.jpg
1392.491	1.716	correct	regulate	Run2	regulate/STIM_022.jpg
1397.421	2.636	correct	regulate	Run2	regulate/STIM_022.jpg
1403.72	1.455	correct	regulate	Run2	regulate/STIM_022.jpg
1409.039	1.894	incorrect	regulate	Run2	regulate/STIM_022.jpg
1414.108	1.419	correct	regulate	Run2	regulate/STIM_023.jpg
1417.76	2.478	correct	regulate	Run2	regulate/STIM_023.jpg
1423.571	1.922	correct	regulate	Run2	regulate/STIM_023.jpg
1429.148	2.114	incorrect	regulate	Run2	regulate/STIM_023.jpg
1433.314	1.897	incorrect	regulate	Run2	regulate/STIM_024.jpg
1439.064	2.155	correct	regulate	Run2	regulate/STIM_024.jpg
1444.078	2.062	correct	regulate	Run2	regulate/STIM_024.jpg
1448.203	2.318	correct	regulate	Run2	regulate/STIM_024.jpg
1453.879	1.822	correct	regulate	Run2	regulate/STIM_025.jpg
1458.833	1.596	correct	regulate	Run2	regulate/STIM_025.jpg
1464.331	2.006	correct	regulate	Run2	regulate/STIM_025.jpg
1468.95	1.365	correct	regulate	Run2	regulate/STIM_025.jpg
1474.017	1.834	incorrect	regulate	Run2	regulate/STIM_026.jpg
1478.658	2.628	correct	regulate	Run2	regulate/STIM_026.jpg
1484.506	2.305	correct	regulate	Run2	regulate/STIM_026.jpg
1489.72	1.111	correct	regulate	Run2	regulate/STIM_026.jpg
1494.071	1.263	correct	regulate	Run2	regulate/STIM_027.jpg
1499.152	1.217	correct	regulate	Run2	regulate/STIM_027.jpg
1502.609	1.926	incorrect	regulate	Run2	regulate/STIM_027.jpg
1506.827	1.362	correct	regulate	Run2	regulate/STIM_027.jpg
1510.26	2.359	incorrect	regulate	Run2	regulate/STIM_028.jpg
1515.129	2.529	correct	regulate	Run2	regulate/STIM_028.jpg
1520.969	1.865	correct	regulate	Run2	regulate/STIM_028.jpg
1526.78	2.263	correct	regulate	Run2	regulate/STIM_028.jpg
1532.997	2.049	correct	regulate	Run2	regulate/STIM_029.jpg
1538.803	2.368	correct	regulate	Run2	regulate/STIM_029.jpg
1544.737	2.429	correct	regulate	Run2	regulate/STIM_029.jpg
1550.211	1.435	correct	regulate	Run2	regulate/STIM_029.jpg
1555.331	0.865	correct	observe	Run2	observe/STIM_000.jpg
1559.232	1.418	incorrect	observe	Run2	observe/STIM_000.jpg
1562.759	1.192	correct	observe	Run2	observe/STIM_000.jpg
1567.85	1.42	correct	observe	Run2	observe/STIM_000.jpg
1572.589	1.412	incorrect	observe	Run2	observe/STIM_001.jpg
1576.075	1.494	correct	observe	Run2	observe/STIM_001.jpg
1580.509	1.218	correct	observe	Run2	observe/STIM_001.jpg
1585.104	1.338	correct	observe	Run2	observe/STIM_001.jpg
1588.609	1.454	incorrect	observe	Run2	observe/STIM_002.jpg
1593.461	1.315	correct	observe	Run2	observe/STIM_002.jpg
1597.346	1.258	correct	observe	Run2	observe/STIM_002.jpg
1601.171	1.38	correct	observe	Run2	observe/STIM_002.jpg
1604.721	1.377	correct	observe	Run2	observe/STIM_003.jpg
1608.909	0.929	correct	observe	Run2	observe/STIM_003.jpg
1612.206	1.186	correct	observe	Run2	observe/STIM_003.jpg
1617.165	1.272	correct	observe	Run2	observe/STIM_003.jpg
1620.92	1.139	correct	observe	Run2	observe/STIM_004.jpg
1624.179	1.379	correct	observe	Run2	observe/STIM_004.jpg
1628.94	1.108	correct	observe	Run2	observe/STIM_004.jpg
1632.286	1.152	incorrect	observe	Run2	observe/STIM_004.jpg
1635.919	1.411	correct	observe	Run2	observe/STIM_005.jpg
1639.369	1.302	correct	observe	Run2	observe/STIM_005.jpg
1643.699	0.975	correct	observe	Run2	observe/STIM_005.jpg
1647.442	1.038	correct	observe	Run2	observe/STIM_005.jpg
1651.958	1.015	correct	observe	Run2	observe/STIM_006.jpg
1655.791	1.055	correct	observe	Run2	observe/STIM_006.jpg
1659.575	1.43	correct	observe	Run2	observe/STIM_006.jpg
1664.873	1.303	correct	observe	Run2	observe/STIM_006.jpg
1669.219	0.93	correct	observe	Run2	observe/STIM_007.jpg
1673.191	1.328	correct	observe	Run2	observe/STIM_007.jpg
1677.017	1.186	correct	observe	Run2	observe/STIM_007.jpg
1681.273	0.928	correct	observe	Run2	observe/STIM_007.jpg
1684.337	1.305	correct	observe	Run2	observe/STIM_008.jpg
1689.39	1.093	correct	observe	Run2	observe/STIM_008.jpg
1693.595	1.429	correct	observe	Run2	observe/STIM_008.jpg
1697.654	1.53	correct	observe	Run2	observe/STIM_008.jpg
1702.535	0.935	correct	observe	Run2	observe/STIM_009.jpg
1707.096	1.275	correct	observe	Run2	observe/STIM_009.jpg
1710.54	0.979	correct	observe	Run2	observe/STIM_009.jpg
1714.254	0.867	correct	observe	Run2	observe/STIM_009.jpg
1717.575	1.252	correct	observe	Run2	observe/STIM_010.jpg
1722.118	1.433	correct	observe	Run2	observe/STIM_010.jpg
1726.687	1.095	correct	observe	Run2	observe/STIM_010.jpg
1730.169	0.908	correct	observe	Run2	observe/STIM_010.jpg
1734.539	1.434	correct	observe	Run2	observe/STIM_011.jpg
1738.019	1.343	correct	observe	Run2	observe/STIM_011.jpg
1742.933	1.486	incorrect	observe	Run2	observe/STIM_011.jpg
1748.386	0.789	correct	observe	Run2	observe/STIM_011.jpg
1751.245	0.894	correct	observe	Run2	observe/STIM_012.jpg
1754.192	1.132	correct	observe	Run2	observe/STIM_012.jpg
1758.506	1.012	incorrect	observe	Run2	observe/STIM_012.jpg
1762.525	1.082	correct	observe	Run2	observe/STIM_012.jpg
1767.102	1.544	correct	observe	Run2	observe/STIM_013.jpg
1772.314	0.921	correct	observe	Run2	observe/STIM_013.jpg
1776.776	1.257	incorrect	observe	Run2	observe/STIM_013.jpg
1782.011	1.317	correct	observe	Run2	observe/STIM_013.jpg
1785.503	0.888	correct	observe	Run2	observe/STIM_014.jpg
1790.216	1.542	correct	observe	Run2	observe/STIM_014.jpg
1795.149	1.345	incorrect	observe	Run2	observe/STIM_014.jpg
1799.201	1.197	incorrect	observe	Run2	observe/STIM_014.jpg
1803.349	1.517	correct	observe	Run2	observe/STIM_015.jpg
1807.189	0.983	correct	observe	Run2	observe/STIM_015.jpg
1810.37	1.35	correct	observe	Run2	observe/STIM_015.jpg
1814.15	1.054	correct	observe	Run2	observe/STIM_015.jpg
1818.467	1.541	correct	observe	Run2	observe/STIM_016.jpg
1823.794	1.12	correct	observe	Run2	observe/STIM_016.jpg
1827.85	1.17	correct	observe	Run2	observe/STIM_016.jpg
1832.382	1.204	correct	observe	Run2	observe/STIM_016.jpg
1835.964	1.093	correct	observe	Run2	observe/STIM_017.jpg
1840.859	0.893	correct	observe	Run2	observe/STIM_017.jpg
1844.279	1.516	correct	observe	Run2	observe/STIM_017.jpg
1848.587	0.984	correct	observe	Run2	observe/STIM_017.jpg
1852.636	1.166	correct	observe	Run2	observe/STIM_018.jpg
1856.346	1.184	correct	observe	Run2	observe/STIM_018.jpg
1859.961	0.982	correct	observe	Run2	observe/STIM_018.jpg
1863.395	0.97	correct	observe	Run2	observe/STIM_018.jpg
1867.421	1.098	correct	observe	Run2	observe/STIM_019.jpg
1872.293	1.369	correct	observe	Run2	observe/STIM_019.jpg
1876.581	1.441	correct	observe	Run2	observe/STIM_019.jpg
1881.674	1.434	correct	observe	Run2	observe/STIM_019.jpg
1886.13	1.714	correct	regulate	Run3	regulate/STIM_000.jpg
1890.269	2.242	correct	regulate	Run3	regulate/STIM_000.jpg
1895.23	1.669	correct	regulate	Run3	regulate/STIM_000.jpg
1899.955	2.18	correct	regulate	Run3	regulate/STIM_000.jpg
1904.379	1.264	correct	regulate	Run3	regulate/STIM_001.jpg
1907.97	2.009	correct	regulate	Run3	regulate/STIM_001.jpg
1913.656	1.174	correct	regulate	Run3	regulate/STIM_001.jpg
1918.623	2.208	correct	regulate	Run3	regulate/STIM_001.jpg
1923.658	1.643	correct	regulate	Run3	regulate/STIM_002.jpg
1929.099	1.694	correct	regulate	Run3	regulate/STIM_002.jpg
1933.077	2.223	correct	regulate	Run3	regulate/STIM_002.jpg
1937.884	2.181	correct	regulate	Run3	regulate/STIM_002.jpg
1942.203	2.286	correct	regulate	Run3	regulate/STIM_003.jpg
1948.169	1.928	correct	regulate	Run3	regulate/STIM_003.jpg
1952.103	1.269	correct	regulate	Run3	regulate/STIM_003.jpg
1955.629	2.373	correct	regulate	Run3	regulate/STIM_003.jpg
1960.022	2.26	correct	regulate	Run3	regulate/STIM_004.jpg
1964.359	2.288	correct	regulate	Run3	regulate/STIM_004.jpg
1969.253	1.608	correct	regulate	Run3	regulate/STIM_004.jpg
1973.635	1.136	correct	regulate	Run3	regulate/STIM_004.jpg
1978.156	2.075	incorrect	regulate	Run3	regulate/STIM_005.jpg
1982.499	1.796	correct	regulate	Run3	regulate/STIM_005.jpg
1986.551	1.907	correct	regulate	Run3	regulate/STIM_005.jpg
1992.302	1.821	correct	regulate	Run3	regulate/STIM_005.jpg
1997.565	1.963	correct	regulate	Run3	regulate/STIM_006.jpg
2001.557	1.733	correct	regulate	Run3	regulate/STIM_006.jpg
2006.696	1.347	correct	regulate	Run3	regulate/STIM_006.jpg
2011.471	1.968	correct	regulate	Run3	regulate/STIM_006.jpg
2016.349	1.078	correct	regulate	Run3	regulate/STIM_007.jpg
2019.894	1.561	correct	regulate	Run3	regulate/STIM_007.jpg
2024.985	2.097	correct	regulate	Run3	regulate/STIM_007.jpg
2030.997	1.757	correct	regulate	Run3	regulate/STIM_007.jpg
2036.145	2.116	correct	regulate	Run3	regulate/STIM_008.jpg
2041.394	1.489	correct	regulate	Run3	regulate/STIM_008.jpg
2046.17	1.906	correct	regulate	Run3	regulate/STIM_008.jpg
2051.207	1.639	correct	regulate	Run3	regulate/STIM_008.jpg
2056.443	2.125	correct	regulate	Run3	regulate/STIM_009.jpg
2061.27	2.081	correct	regulate	Run3	regulate/STIM_009.jpg
2066.284	2.015	correct	regulate	Run3	regulate/STIM_009.jpg
2071.686	1.114	correct	regulate	Run3	regulate/STIM_009.jpg
2075.36	2.125	correct	regulate	Run3	regulate/STIM_010.jpg
2079.573	1.873	correct	regulate	Run3	regulate/STIM_010.jpg
2084.485	2.316	correct	regulate	Run3	regulate/STIM_010.jpg
2089.606	2.068	correct	regulate	Run3	regulate/STIM_010.jpg
2093.774	1.409	correct	regulate	Run3	regulate/STIM_011.jpg
2097.286	2.269	correct	regulate	Run3	regulate/STIM_011.jpg
2103.204	1.407	correct	regulate	Run3	regulate/STIM_011.jpg
2107.888	1.096	correct	regulate	Run3	regulate/STIM_011.jpg
2112.731	1.457	correct	regulate	Run3	regulate/STIM_012.jpg
2116.822	2.401	correct	regulate	Run3	regulate/STIM_012.jpg
2122.068	1.482	correct	regulate	Run3	regulate/STIM_012.jpg
2125.909	2.26	correct	regulate	Run3	regulate/STIM_012.jpg
2131.248	1.055	correct	regulate	Run3	regulate/STIM_013.jpg
2135.134	2.042	correct	regulate	Run3	regulate/STIM_013.jpg
2140.366	1.949	correct	regulate	Run3	regulate/STIM_013.jpg
2144.411	1.645	correct	regulate	Run3	regulate/STIM_013.jpg
2149.628	1.219	correct	regulate	Run3	regulate/STIM_014.jpg
2153.976	1.148	correct	regulate	Run3	regulate/STIM_014.jpg
2157.179	1.75	correct	regulate	Run3	regulate/STIM_014.jpg
2162.004	1.171	correct	regulate	Run3	regulate/STIM_014.jpg
2166.356	1.657	correct	regulate	Run3	regulate/STIM_015.jpg
2170.815	1.488	correct	regulate	Run3	regulate/STIM_015.jpg
2175.118	1.419	correct	regulate	Run3	regulate/STIM_015.jpg
2179.171	1.475	correct	regulate	Run3	regulate/STIM_015.jpg
2183.14	2.392	correct	regulate	Run3	regulate/STIM_016.jpg
2188.127	1.43	incorrect	regulate	Run3	regulate/STIM_016.jpg
2192.087	1.323	correct	regulate	Run3	regulate/STIM_016.jpg
2197.17	2.392	correct	regulate	Run3	regulate/STIM_016.jpg
2202.245	2.164	correct	regulate	Run3	regulate/STIM_017.jpg
2208.023	1.178	correct	regulate	Run3	regulate/STIM_017.jpg
2211.764	1.581	correct	regulate	Run3	regulate/STIM_017.jpg
2216.106	1.405	correct	regulate	Run3	regulate/STIM_017.jpg
2221.168	1.074	correct	regulate	Run3	regulate/STIM_018.jpg
2225.476	2.242	correct	regulate	Run3	regulate/STIM_018.jpg
2231.602	1.76	correct	regulate	Run3	regulate/STIM_018.jpg
2235.815	2.316	correct	regulate	Run3	regulate/STIM_018.jpg
2240.47	2.395	correct	regulate	Run3	regulate/STIM_019.jpg
2246.751	1.36	correct	regulate	Run3	regulate/STIM_019.jpg
2251.603	2.262	correct	regulate	Run3	regulate/STIM_019.jpg
2256.625	1.044	correct	regulate	Run3	regulate/STIM_019.jpg
2261.454	1.907	correct	regulate	Run3	regulate/STIM_020.jpg
2266.561	2.384	correct	regulate	Run3	regulate/STIM_020.jpg
2271.724	1.316	correct	regulate	Run3	regulate/STIM_020.jpg
2276.423	1.74	incorrect	regulate	Run3	regulate/STIM_020.jpg
2280.493	2.232	correct	regulate	Run3	regulate/STIM_021.jpg
2284.938	1.183	correct	regulate	Run3	regulate/STIM_021.jpg
2289.689	1.431	correct	regulate	Run3	regulate/STIM_021.jpg
2294.415	1.852	correct	regulate	Run3	regulate/STIM_021.jpg
2299.862	1.364	correct	regulate	Run3	regulate/STIM_022.jpg
2304.666	1.177	correct	regulate	Run3	regulate/STIM_022.jpg
2309.391	1.962	correct	regulate	Run3	regulate/STIM_022.jpg
2314.714	1.074	correct	regulate	Run3	regulate/STIM_022.jpg
2319.394	1.787	correct	regulate	Run3	regulate/STIM_023.jpg
2323.512	2.329	correct	regulate	Run3	regulate/STIM_023.jpg
2329.429	1.748	correct	regulate	Run3	regulate/STIM_023.jpg
2334.59	2.183	correct	regulate	Run3	regulate/STIM_023.jpg
2339.331	2.067	correct	regulate	Run3	regulate/STIM_024.jpg
2344.292	2.007	correct	regulate	Run3	regulate/STIM_024.jpg
2350.158	2.076	correct	regulate	Run3	regulate/STIM_024.jpg
2354.832	1.771	correct	regulate	Run3	regulate/STIM_024.jpg
2359.217	1.652	correct	regulate	Run3	regulate/STIM_025.jpg
2363.718	1.378	correct	regulate	Run3	regulate/STIM_025.jpg
2367.628	2.242	correct	regulate	Run3	regulate/STIM_025.jpg
2372.977	1.664	correct	regulate	Run3	regulate/STIM_025.jpg
2377.191	1.778	correct	regulate	Run3	regulate/STIM_026.jpg
2382.394	1.565	correct	regulate	Run3	regulate/STIM_026.jpg
2386.734	1.986	correct	regulate	Run3	regulate/STIM_026.jpg
2391.543	2.159	correct	regulate	Run3	regulate/STIM_026.jpg
2396.106	2.343	correct	regulate	Run3	regulate/STIM_027.jpg
2401.266	1.231	correct	regulate	Run3	regulate/STIM_027.jpg
2405.893	1.147	correct	regulate	Run3	regulate/STIM_027.jpg
2410.35	1.055	correct	regulate	Run3	regulate/STIM_027.jpg
2413.919	1.279	correct	regulate	Run3	regulate/STIM_028.jpg
2419.049	2.411	correct	regulate	Run3	regulate/STIM_028.jpg
2423.914	1.584	correct	regulate	Run3	regulate/STIM_028.jpg
2429.383	1.87	correct	regulate	Run3	regulate/STIM_028.jpg
2434.894	1.446	correct	regulate	Run3	regulate/STIM_029.jpg
2440.028	1.124	incorrect	regulate	Run3	regulate/STIM_029.jpg
2444.242	1.922	correct	regulate	Run3	regulate/STIM_029.jpg
2449.198	2.349	correct	regulate	Run3	regulate/STIM_029.jpg
2453.809	1.357	correct	observe	Run3	observe/STIM_000.jpg
2458.697	0.801	correct	observe	Run3	observe/STIM_000.jpg
2463.302	0.809	correct	observe	Run3	observe/STIM_000.jpg
2467.252	1.301	correct	observe	Run3	observe/STIM_000.jpg
2471.674	1.402	correct	observe	Run3	observe/STIM_001.jpg
2475.259	1.014	correct	observe	Run3	observe/STIM_001.jpg
2479.014	0.81	correct	observe	Run3	observe/STIM_001.jpg
2481.837	1.399	correct	observe	Run3	observe/STIM_001.jpg
2487.22	1.339	correct	observe	Run3	observe/STIM_002.jpg
2490.633	1.23	correct	observe	Run3	observe/STIM_002.jpg
2494.171	1.547	correct	observe	Run3	observe/STIM_002.jpg
2497.852	1.194	correct	observe	Run3	observe/STIM_002.jpg
2502.107	1.002	correct	observe	Run3	observe/STIM_003.jpg
2507.055	1.47	correct	observe	Run3	observe/STIM_003.jpg
2511.309	1.475	correct	observe	Run3	observe/STIM_003.jpg
2515.905	1.098	correct	observe	Run3	observe/STIM_003.jpg
2520.375	1.165	incorrect	observe	Run3	observe/STIM_004.jpg
2524.531	0.86	correct	observe	Run3	observe/STIM_004.jpg
2527.803	1.232	correct	observe	Run3	observe/STIM_004.jpg
2532.332	1.152	correct	observe	Run3	observe/STIM_004.jpg
2535.798	1.03	correct	observe	Run3	observe/STIM_005.jpg
2538.846	1.505	correct	observe	Run3	observe/STIM_005.jpg
2544.152	0.942	correct	observe	Run3	observe/STIM_005.jpg
2548.016	1.166	correct	observe	Run3	observe/STIM_005.jpg
2552.671	1.254	correct	observe	Run3	observe/STIM_006.jpg
2557.512	1.564	correct	observe	Run3	observe/STIM_006.jpg
2562.894	1.512	correct	observe	Run3	observe/STIM_006.jpg
2566.502	1.08	correct	observe	Run3	observe/STIM_006.jpg
2571.5	1.192	correct	observe	Run3	observe/STIM_007.jpg
2575.169	1.551	correct	observe	Run3	observe/STIM_007.jpg
2579.697	1.32	correct	observe	Run3	observe/STIM_007.jpg
2584.896	1.464	correct	observe	Run3	observe/STIM_007.jpg
2589.723	0.889	correct	observe	Run3	observe/STIM_008.jpg
2592.792	1.547	incorrect	observe	Run3	observe/STIM_008.jpg
2597.659	0.967	correct	observe	Run3	observe/STIM_008.jpg
2601.574	1.535	correct	observe	Run3	observe/STIM_008.jpg
2606.866	0.907	correct	observe	Run3	observe/STIM_009.jpg
2611.267	1.3	correct	observe	Run3	observe/STIM_009.jpg
2616.015	0.902	correct	observe	Run3	observe/STIM_009.jpg
2620.523	1.007	correct	observe	Run3	observe/STIM_009.jpg
2624.118	1.27	correct	observe	Run3	observe/STIM_010.jpg
2628.715	1.521	correct	observe	Run3	observe/STIM_010.jpg
2633.16	1.513	correct	observe	Run3	observe/STIM_010.jpg
2637.167	0.986	correct	observe	Run3	observe/STIM_010.jpg
2640.664	0.896	correct	observe	Run3	observe/STIM_011.jpg
2644.303	1.172	incorrect	observe	Run3	observe/STIM_011.jpg
2649.087	1.417	correct	observe	Run3	observe/STIM_011.jpg
2653.592	1.154	correct	observe	Run3	observe/STIM_011.jpg
2657.869	1.01	correct	observe	Run3	observe/STIM_012.jpg
2661.363	1.522	correct	observe	Run3	observe/STIM_012.jpg
2665.547	1.484	correct	observe	Run3	observe/STIM_012.jpg
2670.445	1.285	correct	observe	Run3	observe/STIM_012.jpg
2675.03	1.388	correct	observe	Run3	observe/STIM_013.jpg
2678.837	1.048	correct	observe	Run3	observe/STIM_013.jpg
2683.315	0.915	correct	observe	Run3	observe/STIM_013.jpg
2686.728	1.096	correct	observe	Run3	observe/STIM_013.jpg
2690.572	1.168	correct	observe	Run3	observe/STIM_014.jpg
2695.298	1.236	correct	observe	Run3	observe/STIM_014.jpg
2699.132	1.036	correct	observe	Run3	observe/STIM_014.jpg
2703.509	1.356	correct	observe	Run3	observe/STIM_014.jpg
2707.943	1.047	correct	observe	Run3	observe/STIM_015.jpg
2711.754	0.918	correct	observe	Run3	observe/STIM_015.jpg
2715.806	0.986	correct	observe	Run3	observe/STIM_015.jpg
2720.19	1.392	correct	observe	Run3	observe/STIM_015.jpg
2724.573	0.945	correct	observe	Run3	observe/STIM_016.jpg
2727.661	1.176	correct	observe	Run3	observe/STIM_016.jpg
2731.136	1.488	correct	observe	Run3	observe/STIM_016.jpg
2734.768	1.202	correct	observe	Run3	observe/STIM_016.jpg
2738.755	1.322	correct	observe	Run3	observe/STIM_017.jpg
2743.114	1.01	correct	observe	Run3	observe/STIM_017.jpg
2746.344	1.108	correct	observe	Run3	observe/STIM_017.jpg
2749.911	0.827	correct	observe	Run3	observe/STIM_017.jpg
2754.492	1.104	correct	observe	Run3	observe/STIM_018.jpg
2757.627	0.789	correct	observe	Run3	observe/STIM_018.jpg
2762.363	1.226	correct	observe	Run3	observe/STIM_018.jpg
2766.559	0.906	correct	observe	Run3	observe/STIM_018.jpg
2769.923	1.153	correct	observe	Run3	observe/STIM_019.jpg
2774.815	1.088	correct	observe	Run3	observe/STIM_019.jpg
2778.264	0.997	correct	observe	Run3	observe/STIM_019.jpg
2781.464	1.107	correct	observe	Run3	observe/STIM_019.jpg
