onset	duration	response_time_ms	trial_type	learning_stage	stimulus	response_port
0.0	1.882	1882.3	study	Phase1	study/STIM_000.jpg	99
5.027	1.228	1228.5	study	Phase1	study/STIM_000.jpg	99
9.417	1.609	1609.3	study	Phase1	study/STIM_000.jpg	100
14.654	0.845	845.1	study	Phase1	study/STIM_001.jpg	99
19.032	1.574	1574.1	study	Phase1	study/STIM_001.jpg	99
22.877	0.805	805.1	study	Phase1	study/STIM_001.jpg	99
26.919	1.253	1253.2	study	Phase1	study/STIM_002.jpg	100
30.332	1.021	1021.1	study	Phase1	study/STIM_002.jpg	99
34.637	1.183	1183.3	study	Phase1	study/STIM_002.jpg	99
37.855	0.941	941.0	study	Phase1	study/STIM_003.jpg	100
41.975	0.914	913.8	study	Phase1	study/STIM_003.jpg	100
45.957	0.919	919.3	study	Phase1	study/STIM_003.jpg	99
50.249	1.826	1826.0	study	Phase1	study/STIM_004.jpg	100
54.528	0.878	877.6	study	Phase1	study/STIM_004.jpg	99
59.321	0.944	943.8	study	Phase1	study/STIM_004.jpg	99
63.789	1.002	1001.9	study	Phase1	study/STIM_005.jpg	99
66.986	1.181	1180.9	study	Phase1	study/STIM_005.jpg	100
71.983	1.438	1437.7	study	Phase1	study/STIM_005.jpg	100
76.918	1.448	1448.0	study	Phase1	study/STIM_006.jpg	100
80.731	1.534	1534.4	study	Phase1	study/STIM_006.jpg	99
84.758	0.893	893.4	study	Phase1	study/STIM_006.jpg	100
88.808	1.867	1867.4	study	Phase1	study/STIM_007.jpg	99
93.636	1.145	1144.8	study	Phase1	study/STIM_007.jpg	99
97.362	1.012	1012.2	study	Phase1	study/STIM_007.jpg	99
100.894	0.992	992.5	study	Phase1	study/STIM_008.jpg	100
104.932	1.598	1598.0	study	Phase1	study/STIM_008.jpg	100
109.653	0.787	786.9	study	Phase1	study/STIM_008.jpg	99
112.643	1.873	1872.6	study	Phase1	study/STIM_009.jpg	100
116.786	1.556	1556.1	study	Phase1	study/STIM_009.jpg	100
120.296	1.118	1117.7	study	Phase1	study/STIM_009.jpg	100
123.943	1.288	1288.0	study	Phase1	study/STIM_010.jpg	99
128.938	1.044	1043.7	study	Phase1	study/STIM_010.jpg	100
132.677	1.065	1064.8	study	Phase1	study/STIM_010.jpg	100
137.168	1.727	1726.6	study	Phase1	study/STIM_011.jpg	99
142.792	1.394	1394.4	study	Phase1	study/STIM_011.jpg	99
146.432	1.092	1091.6	study	Phase1	study/STIM_011.jpg	99
150.079	1.533	1533.2	study	Phase1	study/STIM_012.jpg	100
154.215	1.708	1708.3	study	Phase1	study/STIM_012.jpg	100
157.846	1.204	1203.9	study	Phase1	study/STIM_012.jpg	99
161.975	1.848	1847.9	study	Phase1	study/STIM_013.jpg	100
167.647	1.148	1148.5	study	Phase1	study/STIM_013.jpg	99
172.052	1.288	1288.3	study	Phase1	study/STIM_013.jpg	100
177.027	1.26	1260.1	study	Phase1	study/STIM_014.jpg	99
180.866	1.003	1003.3	study	Phase1	study/STIM_014.jpg	99
185.493	1.203	1202.6	study	Phase1	study/STIM_014.jpg	100
188.75	0.956	955.5	study	Phase1	study/STIM_015.jpg	99
192.628	0.896	895.5	study	Phase1	study/STIM_015.jpg	100
196.695	1.268	1268.4	study	Phase1	study/STIM_015.jpg	99
201.324	1.139	1139.1	study	Phase1	study/STIM_016.jpg	99
205.551	0.808	808.1	study	Phase1	study/STIM_016.jpg	100
209.71	1.618	1617.8	study	Phase1	study/STIM_016.jpg	100
213.679	1.639	1638.9	study	Phase1	study/STIM_017.jpg	100
217.29	1.125	1124.7	study	Phase1	study/STIM_017.jpg	100
221.325	0.993	992.9	study	Phase1	study/STIM_017.jpg	99
226.098	1.868	1867.9	study	Phase1	study/STIM_018.jpg	99
231.815	1.615	1614.9	study	Phase1	study/STIM_018.jpg	100
236.4	0.816	815.7	study	Phase1	study/STIM_018.jpg	99
239.635	1.62	1620.3	study	Phase1	study/STIM_019.jpg	100
244.68	0.924	923.8	study	Phase1	study/STIM_019.jpg	100
248.975	0.77	769.6	study	Phase1	study/STIM_019.jpg	99
252.348	1.689	1688.7	study	Phase1	study/STIM_020.jpg	100
257.092	0.881	880.9	study	Phase1	study/STIM_020.jpg	100
261.429	1.225	1224.8	study	Phase1	study/STIM_020.jpg	99
264.604	1.216	1216.1	study	Phase1	study/STIM_021.jpg	100
268.525	0.82	820.4	study	Phase1	study/STIM_021.jpg	99
272.118	1.455	1455.0	study	Phase1	study/STIM_021.jpg	100
275.543	1.61	1609.8	study	Phase1	study/STIM_022.jpg	99
280.21	0.967	967.3	study	Phase1	study/STIM_022.jpg	100
285.017	1.671	1670.7	study	Phase1	study/STIM_022.jpg	99
290.304	1.636	1635.8	study	Phase1	study/STIM_023.jpg	99
294.675	1.21	1210.1	study	Phase1	study/STIM_023.jpg	99
299.13	1.287	1287.0	study	Phase1	study/STIM_023.jpg	99
303.02	0.893	893.2	study	Phase1	study/STIM_024.jpg	99
307.513	1.634	1634.4	study	Phase1	study/STIM_024.jpg	99
312.186	1.45	1449.5	study	Phase1	study/STIM_024.jpg	99
315.953	1.862	1862.3	study	Phase1	study/STIM_025.jpg	100
320.529	0.876	875.9	study	Phase1	study/STIM_025.jpg	100
324.68	1.457	1457.0	study	Phase1	study/STIM_025.jpg	99
329.977	1.326	1325.6	study	Phase1	study/STIM_026.jpg	99
334.556	0.921	920.9	study	Phase1	study/STIM_026.jpg	99
338.16	0.783	783.3	study	Phase1	study/STIM_026.jpg	99
342.784	1.445	1444.7	study	Phase1	study/STIM_027.jpg	99
347.552	1.702	1702.3	study	Phase1	study/STIM_027.jpg	99
352.294	0.984	984.3	study	Phase1	study/STIM_027.jpg	99
356.811	1.065	1065.2	study	Phase1	study/STIM_028.jpg	100
360.182	1.272	1271.7	study	Phase1	study/STIM_028.jpg	99
363.458	1.459	1459.3	study	Phase1	study/STIM_028.jpg	100
367.97	1.329	1329.0	study	Phase1	study/STIM_029.jpg	99
372.72	0.801	801.2	study	Phase1	study/STIM_029.jpg	100
375.961	1.242	1242.4	study	Phase1	study/STIM_029.jpg	100
379.38	0.692	691.9	test	Phase1	test/STIM_000.jpg	99
382.825	1.126	1126.5	test	Phase1	test/STIM_000.jpg	100
386.671	0.862	862.5	test	Phase1	test/STIM_000.jpg	99
391.127	0.878	878.0	test	Phase1	test/STIM_001.jpg	99
395.855	0.794	794.1	test	Phase1	test/STIM_001.jpg	99
400.436	1.156	1156.0	test	Phase1	test/STIM_001.jpg	99
405.135	1.087	1087.0	test	Phase1	test/STIM_002.jpg	99
408.685	0.767	767.4	test	Phase1	test/STIM_002.jpg	99
411.587	0.817	816.8	test	Phase1	test/STIM_002.jpg	100
414.552	1.093	1093.3	test	Phase1	test/STIM_003.jpg	100
417.868	0.998	997.8	test	Phase1	test/STIM_003.jpg	99
421.954	1.282	1281.7	test	Phase1	test/STIM_003.jpg	100
425.901	0.822	821.8	test	Phase1	test/STIM_004.jpg	99
429.605	0.768	767.5	test	Phase1	test/STIM_004.jpg	99
434.164	0.981	980.6	test	Phase1	test/STIM_004.jpg	100
439.066	0.884	884.1	test	Phase1	test/STIM_005.jpg	99
442.663	0.969	968.7	test	Phase1	test/STIM_005.jpg	99
446.459	1.314	1313.7	test	Phase1	test/STIM_005.jpg	100
450.354	0.636	635.9	test	Phase1	test/STIM_006.jpg	99
453.76	0.974	974.0	test	Phase1	test/STIM_006.jpg	99
457.582	0.733	733.2	test	Phase1	test/STIM_006.jpg	100
461.691	0.852	851.5	test	Phase1	test/STIM_007.jpg	99
465.248	0.921	921.0	test	Phase1	test/STIM_007.jpg	100
469.394	1.199	1198.6	test	Phase1	test/STIM_007.jpg	100
473.541	1.052	1052.2	test	Phase1	test/STIM_008.jpg	100
477.47	0.651	651.3	test	Phase1	test/STIM_008.jpg	99
480.24	1.033	1032.7	test	Phase1	test/STIM_008.jpg	100
484.931	0.933	933.1	test	Phase1	test/STIM_009.jpg	100
488.736	1.328	1328.2	test	Phase1	test/STIM_009.jpg	99
493.749	1.204	1203.7	test	Phase1	test/STIM_009.jpg	99
498.886	0.823	822.8	test	Phase1	test/STIM_010.jpg	100
503.118	0.633	633.4	test	Phase1	test/STIM_010.jpg	99
506.862	1.068	1068.0	test	Phase1	test/STIM_010.jpg	99
510.963	1.359	1358.8	test	Phase1	test/STIM_011.jpg	100
515.553	0.956	956.1	test	Phase1	test/STIM_011.jpg	99
519.448	1.337	1336.8	test	Phase1	test/STIM_011.jpg	99
522.828	1.116	1116.0	test	Phase1	test/STIM_012.jpg	100
526.727	0.698	698.5	test	Phase1	test/STIM_012.jpg	99
530.903	0.9	900.2	test	Phase1	test/STIM_012.jpg	100
535.207	0.635	635.3	test	Phase1	test/STIM_013.jpg	99
538.927	1.259	1259.4	test	Phase1	test/STIM_013.jpg	100
542.466	0.68	680.0	test	Phase1	test/STIM_013.jpg	100
546.932	1.146	1145.8	test	Phase1	test/STIM_014.jpg	99
550.034	0.897	897.0	test	Phase1	test/STIM_014.jpg	99
553.98	0.824	824.5	test	Phase1	test/STIM_014.jpg	99
557.549	0.734	734.5	test	Phase1	test/STIM_015.jpg	100
561.929	0.98	979.7	test	Phase1	test/STIM_015.jpg	99
565.163	0.75	750.1	test	Phase1	test/STIM_015.jpg	100
568.155	0.993	993.1	test	Phase1	test/STIM_016.jpg	100
572.385	0.94	940.0	test	Phase1	test/STIM_016.jpg	100
575.966	0.832	831.7	test	Phase1	test/STIM_016.jpg	100
579.543	1.137	1137.0	test	Phase1	test/STIM_017.jpg	99
583.002	1.083	1083.4	test	Phase1	test/STIM_017.jpg	100
586.506	1.364	1364.3	test	Phase1	test/STIM_017.jpg	99
591.51	0.924	923.9	test	Phase1	test/STIM_018.jpg	100
594.783	1.363	1363.2	test	Phase1	test/STIM_018.jpg	100
599.206	1.189	1188.8	test	Phase1	test/STIM_018.jpg	99
603.019	1.317	1316.8	test	Phase1	test/STIM_019.jpg	99
606.818	0.82	819.7	test	Phase1	test/STIM_019.jpg	100
610.21	1.306	1305.6	test	Phase1	test/STIM_019.jpg	99
615.382	1.231	1231.4	test	Phase1	test/STIM_020.jpg	100
618.71	0.997	997.4	test	Phase1	test/STIM_020.jpg	99
623.223	0.868	867.9	test	Phase1	test/STIM_020.jpg	100
627.433	0.856	856.0	test	Phase1	test/STIM_021.jpg	99
631.654	1.1	1099.9	test	Phase1	test/STIM_021.jpg	99
635.248	0.857	857.4	test	Phase1	test/STIM_021.jpg	100
639.341	1.162	1161.8	test	Phase1	test/STIM_022.jpg	99
644.393	1.21	1209.6	test	Phase1	test/STIM_022.jpg	99
649.215	1.283	1283.2	test	Phase1	test/STIM_022.jpg	100
653.401	1.102	1101.6	test	Phase1	test/STIM_023.jpg	100
657.888	1.107	1107.3	test	Phase1	test/STIM_023.jpg	99
661.578	1.156	1156.5	test	Phase1	test/STIM_023.jpg	100
664.889	1.224	1223.5	test	Phase1	test/STIM_024.jpg	99
669.041	1.282	1281.6	test	Phase1	test/STIM_024.jpg	99
673.432	1.192	1191.9	test	Phase1	test/STIM_024.jpg	100
677.746	1.275	1275.1	test	Phase1	test/STIM_025.jpg	99
682.087	0.96	960.2	test	Phase1	test/STIM_025.jpg	99
685.034	0.792	791.7	test	Phase1	test/STIM_025.jpg	99
688.238	0.891	890.8	test	Phase1	test/STIM_026.jpg	99
692.749	0.902	902.5	test	Phase1	test/STIM_026.jpg	100
697.585	1.365	1364.6	test	Phase1	test/STIM_026.jpg	99
701.617	0.928	928.2	test	Phase1	test/STIM_027.jpg	99
705.026	1.127	1126.9	test	Phase1	test/STIM_027.jpg	99
709.019	1.087	1086.7	test	Phase1	test/STIM_027.jpg	99
713.965	1.26	1260.1	test	Phase1	test/STIM_028.jpg	100
717.366	0.979	978.6	test	Phase1	test/STIM_028.jpg	99
720.474	1.301	1301.0	test	Phase1	test/STIM_028.jpg	100
723.723	0.935	935.1	test	Phase1	test/STIM_029.jpg	100
728.067	1.252	1252.1	test	Phase1	test/STIM_029.jpg	100
733.205	1.009	1009.0	test	Phase1	test/STIM_029.jpg	100
737.728	0.869	869.1	study	Phase2	study/STIM_000.jpg	99
742.211	0.714	713.5	study	Phase2	study/STIM_000.jpg	100
746.091	1.122	1122.1	study	Phase2	study/STIM_000.jpg	99
751.005	0.832	832.0	study	Phase2	study/STIM_001.jpg	99
754.237	1.36	1359.5	study	Phase2	study/STIM_001.jpg	99
758.921	1.416	1416.2	study	Phase2	study/STIM_001.jpg	99
763.205	1.088	1088.4	study	Phase2	study/STIM_002.jpg	100
767.135	1.286	1286.4	study	Phase2	study/STIM_002.jpg	99
771.299	1.084	1083.8	study	Phase2	study/STIM_002.jpg	99
774.547	1.051	1050.8	study	Phase2	study/STIM_003.jpg	99
779.388	0.683	682.7	study	Phase2	study/STIM_003.jpg	100
782.146	1.292	1292.2	study	Phase2	study/STIM_003.jpg	99
786.659	0.874	874.4	study	Phase2	study/STIM_004.jpg	99
790.464	0.712	712.1	study	Phase2	study/STIM_004.jpg	100
794.623	1.234	1234.3	study	Phase2	study/STIM_004.jpg	99
797.833	1.496	1496.5	study	Phase2	study/STIM_005.jpg	100
803.036	0.854	854.2	study	Phase2	study/STIM_005.jpg	99
807.742	1.416	1415.8	study	Phase2	study/STIM_005.jpg	100
812.402	1.083	1082.7	study	Phase2	study/STIM_006.jpg	100
816.164	0.961	961.2	study	Phase2	study/STIM_006.jpg	100
819.787	0.873	872.8	study	Phase2	study/STIM_006.jpg	100
822.686	0.729	728.6	study	Phase2	study/STIM_007.jpg	100
826.132	0.918	918.2	study	Phase2	study/STIM_007.jpg	99
830.852	0.865	864.6	study	Phase2	study/STIM_007.jpg	99
833.756	1.546	1546.0	study	Phase2	study/STIM_008.jpg	99
837.933	1.047	1046.7	study	Phase2	study/STIM_008.jpg	100
842.727	0.668	668.5	study	Phase2	study/STIM_008.jpg	99
846.137	0.862	861.7	study	Phase2	study/STIM_009.jpg	99
849.427	0.912	911.6	study	Phase2	study/STIM_009.jpg	100
854.093	1.279	1279.3	study	Phase2	study/STIM_009.jpg	100
857.315	1.008	1008.0	study	Phase2	study/STIM_010.jpg	100
861.315	0.88	880.1	study	Phase2	study/STIM_010.jpg	100
864.535	1.005	1004.6	study	Phase2	study/STIM_010.jpg	100
868.194	1.05	1050.4	study	Phase2	study/STIM_011.jpg	100
871.684	0.881	880.8	study	Phase2	study/STIM_011.jpg	99
875.853	0.832	832.0	study	Phase2	study/STIM_011.jpg	100
879.517	1.157	1156.7	study	Phase2	study/STIM_012.jpg	100
883.88	0.762	761.5	study	Phase2	study/STIM_012.jpg	100
888.103	1.283	1283.0	study	Phase2	study/STIM_012.jpg	100
893.116	1.191	1190.9	study	Phase2	study/STIM_013.jpg	100
897.222	0.712	712.3	study	Phase2	study/STIM_013.jpg	100
901.106	0.811	810.9	study	Phase2	study/STIM_013.jpg	99
905.252	1.055	1054.8	study	Phase2	study/STIM_014.jpg	99
909.108	0.698	697.5	study	Phase2	study/STIM_014.jpg	99
913.342	1.112	1112.3	study	Phase2	study/STIM_014.jpg	100
916.595	1.316	1315.8	study	Phase2	study/STIM_015.jpg	99
920.55	1.116	1115.9	study	Phase2	study/STIM_015.jpg	100
924.342	1.107	1107.3	study	Phase2	study/STIM_015.jpg	99
928.82	0.892	892.1	study	Phase2	study/STIM_016.jpg	99
932.963	0.725	724.7	study	Phase2	study/STIM_016.jpg	99
937.369	0.918	918.2	study	Phase2	study/STIM_016.jpg	100
942.023	1.369	1369.4	study	Phase2	study/STIM_017.jpg	99
946.1	1.43	1430.3	study	Phase2	study/STIM_017.jpg	99
950.592	1.293	1293.0	study	Phase2	study/STIM_017.jpg	99
954.725	1.426	1425.6	study	Phase2	study/STIM_018.jpg	99
959.104	1.067	1067.3	study	Phase2	study/STIM_018.jpg	99
964.021	1.255	1254.6	study	Phase2	study/STIM_018.jpg	100
968.406	0.745	745.1	study	Phase2	study/STIM_019.jpg	100
972.118	1.511	1510.8	study	Phase2	study/STIM_019.jpg	99
976.913	1.285	1285.4	study	Phase2	study/STIM_019.jpg	99
981.24	1.589	1588.7	study	Phase2	study/STIM_020.jpg	100
986.691	1.388	1388.0	study	Phase2	study/STIM_020.jpg	99
990.308	0.737	736.8	study	Phase2	study/STIM_020.jpg	99
994.271	1.199	1198.8	study	Phase2	study/STIM_021.jpg	100
997.709	1.468	1467.5	study	Phase2	study/STIM_021.jpg	100
1001.395	0.975	974.7	study	Phase2	study/STIM_021.jpg	100
1004.506	1.537	1537.3	study	Phase2	study/STIM_022.jpg	99
1007.974	1.256	1256.4	study	Phase2	study/STIM_022.jpg	100
1011.735	1.062	1062.0	study	Phase2	study/STIM_022.jpg	99
1014.758	1.122	1121.7	study	Phase2	study/STIM_023.jpg	100
1018.267	1.012	1012.4	study	Phase2	study/STIM_023.jpg	100
1023.101	1.209	1208.9	study	Phase2	study/STIM_023.jpg	99
1027.025	0.801	800.9	study	Phase2	study/STIM_024.jpg	100
1031.617	1.462	1461.9	study	Phase2	study/STIM_024.jpg	99
1035.447	1.128	1127.8	study	Phase2	study/STIM_024.jpg	100
1040.252	1.12	1119.9	study	Phase2	study/STIM_025.jpg	100
1044.108	0.944	944.3	study	Phase2	study/STIM_025.jpg	100
1047.117	0.846	846.2	study	Phase2	study/STIM_025.jpg	100
1051.781	0.978	977.7	study	Phase2	study/STIM_026.jpg	99
1056.185	1.044	1043.7	study	Phase2	study/STIM_026.jpg	99
1060.127	1.061	1060.7	study	Phase2	study/STIM_026.jpg	100
1064.04	1.435	1435.1	study	Phase2	study/STIM_027.jpg	99
1068.174	1.149	1148.7	study	Phase2	study/STIM_027.jpg	100
1071.272	1.306	1305.8	study	Phase2	study/STIM_027.jpg	99
1074.573	0.803	802.6	study	Phase2	study/STIM_028.jpg	99
1078.791	0.907	906.6	study	Phase2	study/STIM_028.jpg	99
1081.951	1.265	1265.3	study	Phase2	study/STIM_028.jpg	100
1086.351	0.98	979.5	study	Phase2	study/STIM_029.jpg	99
1089.911	1.258	1257.7	study	Phase2	study/STIM_029.jpg	100
1094.569	1.353	1353.1	study	Phase2	study/STIM_029.jpg	100
1098.544	1.129	1128.7	test	Phase2	test/STIM_000.jpg	100
1101.984	1.184	1184.2	test	Phase2	test/STIM_000.jpg	100
1106.909	1.171	1171.0	test	Phase2	test/STIM_000.jpg	100
1110.997	1.322	1321.8	test	Phase2	test/STIM_001.jpg	100
1115.765	1.335	1334.9	test	Phase2	test/STIM_001.jpg	99
1119.118	0.819	819.2	test	Phase2	test/STIM_001.jpg	100
1122.953	0.896	896.5	test	Phase2	test/STIM_002.jpg	100
1127.649	1.174	1174.5	test	Phase2	test/STIM_002.jpg	99
1132.661	0.766	766.1	test	Phase2	test/STIM_002.jpg	100
1135.524	0.759	758.9	test	Phase2	test/STIM_003.jpg	99
1139.434	0.802	802.5	test	Phase2	test/STIM_003.jpg	100
1143.91	0.723	722.8	test	Phase2	test/STIM_003.jpg	99
1147.386	0.685	685.4	test	Phase2	test/STIM_004.jpg	100
1151.607	1.205	1205.1	test	Phase2	test/STIM_004.jpg	99
1156.271	0.833	832.8	test	Phase2	test/STIM_004.jpg	99
1160.473	1.248	1248.4	test	Phase2	test/STIM_005.jpg	99
1163.854	0.818	818.5	test	Phase2	test/STIM_005.jpg	100
1167.722	1.244	1244.0	test	Phase2	test/STIM_005.jpg	100
1171.882	0.888	887.5	test	Phase2	test/STIM_006.jpg	100
1176.218	0.976	976.2	test	Phase2	test/STIM_006.jpg	99
1179.163	0.648	648.0	test	Phase2	test/STIM_006.jpg	100
1183.592	0.817	816.7	test	Phase2	test/STIM_007.jpg	99
1187.53	0.979	978.6	test	Phase2	test/STIM_007.jpg	99
1191.204	0.806	805.8	test	Phase2	test/STIM_007.jpg	99
1194.958	1.241	1241.2	test	Phase2	test/STIM_008.jpg	100
1198.349	0.914	913.9	test	Phase2	test/STIM_008.jpg	99
1201.315	0.83	829.9	test	Phase2	test/STIM_008.jpg	100
1205.52	0.81	810.2	test	Phase2	test/STIM_009.jpg	100
1209.995	0.821	820.7	test	Phase2	test/STIM_009.jpg	100
1214.707	1.078	1077.6	test	Phase2	test/STIM_009.jpg	99
1219.064	0.921	921.0	test	Phase2	test/STIM_010.jpg	99
1222.002	0.732	731.8	test	Phase2	test/STIM_010.jpg	100
1226.326	1.024	1023.9	test	Phase2	test/STIM_010.jpg	100
1230.719	0.763	763.3	test	Phase2	test/STIM_011.jpg	99
1235.026	1.142	1142.1	test	Phase2	test/STIM_011.jpg	100
1238.456	1.25	1250.3	test	Phase2	test/STIM_011.jpg	100
1242.962	1.182	1181.6	test	Phase2	test/STIM_012.jpg	100
1247.63	0.65	650.0	test	Phase2	test/STIM_012.jpg	100
1251.01	1.248	1247.6	test	Phase2	test/STIM_012.jpg	99
1255.61	1.048	1048.4	test	Phase2	test/STIM_013.jpg	99
1260.591	1.217	1217.4	test	Phase2	test/STIM_013.jpg	99
1265.702	0.976	975.7	test	Phase2	test/STIM_013.jpg	99
1268.867	1.357	1357.0	test	Phase2	test/STIM_014.jpg	99
1273.079	0.851	850.8	test	Phase2	test/STIM_014.jpg	100
1277.418	0.699	699.2	test	Phase2	test/STIM_014.jpg	100
1280.769	0.815	815.3	test	Phase2	test/STIM_015.jpg	100
1285.543	1.231	1231.0	test	Phase2	test/STIM_015.jpg	99
1290.506	0.92	920.5	test	Phase2	test/STIM_015.jpg	99
1294.572	1.021	1021.1	test	Phase2	test/STIM_016.jpg	100
1297.907	1.19	1190.2	test	Phase2	test/STIM_016.jpg	99
1302.682	0.772	771.8	test	Phase2	test/STIM_016.jpg	100
1306.764	0.99	990.5	test	Phase2	test/STIM_017.jpg	99
1310.901	0.942	942.2	test	Phase2	test/STIM_017.jpg	100
1314.47	0.649	649.4	test	Phase2	test/STIM_017.jpg	100
1317.687	1.079	1079.0	test	Phase2	test/STIM_018.jpg	100
1321.233	1.288	1288.1	test	Phase2	test/STIM_018.jpg	100
1324.957	1.042	1042.4	test	Phase2	test/STIM_018.jpg	100
1329.713	0.805	805.2	test	Phase2	test/STIM_019.jpg	99
1333.644	1.093	1093.3	test	Phase2	test/STIM_019.jpg	99
1338.677	0.886	886.0	test	Phase2	test/STIM_019.jpg	100
1341.607	0.979	978.8	test	Phase2	test/STIM_020.jpg	100
1346.471	1.25	1249.5	test	Phase2	test/STIM_020.jpg	100
1350.738	1.213	1212.7	test	Phase2	test/STIM_020.jpg	99
1354.126	0.644	644.2	test	Phase2	test/STIM_021.jpg	99
1358.114	0.868	868.4	test	Phase2	test/STIM_021.jpg	100
1361.074	0.745	745.4	test	Phase2	test/STIM_021.jpg	100
1364.644	0.731	730.9	test	Phase2	test/STIM_022.jpg	99
1368.634	0.972	971.9	test	Phase2	test/STIM_022.jpg	99
1373.495	0.673	673.4	test	Phase2	test/STIM_022.jpg	99
1378.103	0.73	730.3	test	Phase2	test/STIM_023.jpg	100
1382.259	0.783	783.4	test	Phase2	test/STIM_023.jpg	99
1385.28	0.739	739.1	test	Phase2	test/STIM_023.jpg	100
1389.389	0.644	644.4	test	Phase2	test/STIM_024.jpg	99
1392.864	0.759	758.9	test	Phase2	test/STIM_024.jpg	100
1396.295	0.874	874.2	test	Phase2	test/STIM_024.jpg	100
1399.519	0.994	993.5	test	Phase2	test/STIM_025.jpg	100
1403.444	1.328	1328.3	test	Phase2	test/STIM_025.jpg	100
1406.884	0.69	690.3	test	Phase2	test/STIM_025.jpg	99
1410.684	0.783	782.8	test	Phase2	test/STIM_026.jpg	99
1414.976	0.906	906.5	test	Phase2	test/STIM_026.jpg	100
1419.112	0.801	800.6	test	Phase2	test/STIM_026.jpg	99
1423.084	0.908	908.5	test	Phase2	test/STIM_027.jpg	100
1426.535	1.048	1047.6	test	Phase2	test/STIM_027.jpg	100
1431.499	0.713	713.1	test	Phase2	test/STIM_027.jpg	99
1434.755	0.855	854.9	test	Phase2	test/STIM_028.jpg	99
1439.566	1.16	1160.3	test	Phase2	test/STIM_028.jpg	99
1443.81	1.274	1274.4	test	Phase2	test/STIM_028.jpg	100
1448.115	1.064	1063.9	test	Phase2	test/STIM_029.jpg	100
1452.385	1.004	1003.5	test	Phase2	test/STIM_029.jpg	100
1456.093	0.872	872.2	test	Phase2	test/STIM_029.jpg	100
1459.861	0.666	665.9	study	Phase3	study/STIM_000.jpg	99
1462.871	0.651	651.0	study	Phase3	study/STIM_000.jpg	100
1465.568	0.848	848.0	study	Phase3	study/STIM_000.jpg	99
1469.611	0.846	846.0	study	Phase3	study/STIM_001.jpg	100
1474.045	0.656	656.0	study	Phase3	study/STIM_001.jpg	100
1476.698	1.218	1217.5	study	Phase3	study/STIM_001.jpg	100
1481.289	0.723	723.2	study	Phase3	study/STIM_002.jpg	99
1485.612	0.631	630.8	study	Phase3	study/STIM_002.jpg	100
1488.485	0.966	965.9	study	Phase3	study/STIM_002.jpg	99
1492.591	0.777	776.8	study	Phase3	study/STIM_003.jpg	99
1495.768	1.285	1284.8	study	Phase3	study/STIM_003.jpg	99
1500.9	1.305	1304.7	study	Phase3	study/STIM_003.jpg	100
1506.053	1.043	1043.3	study	Phase3	study/STIM_004.jpg	100
1510.039	0.652	651.8	study	Phase3	study/STIM_004.jpg	100
1513.976	0.794	794.3	study	Phase3	study/STIM_004.jpg	100
1518.111	0.824	823.8	study	Phase3	study/STIM_005.jpg	99
1522.065	1.25	1249.5	study	Phase3	study/STIM_005.jpg	100
1525.986	0.721	720.7	study	Phase3	study/STIM_005.jpg	99
1529.339	0.688	688.4	study	Phase3	study/STIM_006.jpg	100
1533.945	0.636	636.1	study	Phase3	study/STIM_006.jpg	99
1538.527	0.604	603.9	study	Phase3	study/STIM_006.jpg	99
1541.833	0.844	843.5	study	Phase3	study/STIM_007.jpg	99
1545.428	0.867	866.9	study	Phase3	study/STIM_007.jpg	99
1549.676	1.323	1323.0	study	Phase3	study/STIM_007.jpg	100
1553.847	0.647	646.7	study	Phase3	study/STIM_008.jpg	100
1556.698	1.035	1035.2	study	Phase3	study/STIM_008.jpg	100
1561.404	0.664	663.5	study	Phase3	study/STIM_008.jpg	100
1565.034	1.065	1064.6	study	Phase3	study/STIM_009.jpg	99
1568.129	1.166	1165.9	study	Phase3	study/STIM_009.jpg	100
1572.125	0.839	838.7	study	Phase3	study/STIM_009.jpg	100
1576.394	1.221	1221.3	study	Phase3	study/STIM_010.jpg	99
1580.277	0.98	980.3	study	Phase3	study/STIM_010.jpg	99
1584.039	1.06	1059.5	study	Phase3	study/STIM_010.jpg	100
1587.692	1.23	1230.4	study	Phase3	study/STIM_011.jpg	99
1591.897	0.663	663.4	study	Phase3	study/STIM_011.jpg	99
1594.735	1.322	1321.9	study	Phase3	study/STIM_011.jpg	99
1599.356	0.916	916.0	study	Phase3	study/STIM_012.jpg	100
1603.207	1.194	1194.1	study	Phase3	study/STIM_012.jpg	100
1606.485	1.036	1036.5	study	Phase3	study/STIM_012.jpg	99
1609.591	1.047	1046.9	study	Phase3	study/STIM_013.jpg	99
1613.968	1.13	1130.5	study	Phase3	study/STIM_013.jpg	100
1618.11	1.292	1291.6	study	Phase3	study/STIM_013.jpg	100
1621.89	0.915	914.9	study	Phase3	study/STIM_014.jpg	100
1626.079	0.916	916.1	study	Phase3	study/STIM_014.jpg	100
1630.326	0.594	593.6	study	Phase3	study/STIM_014.jpg	100
1633.095	0.757	756.7	study	Phase3	study/STIM_015.jpg	99
1637.178	0.938	938.2	study	Phase3	study/STIM_015.jpg	99
1640.654	0.9	900.1	study	Phase3	study/STIM_015.jpg	100
1644.629	0.924	924.1	study	Phase3	study/STIM_016.jpg	100
1648.04	1.318	1318.2	study	Phase3	study/STIM_016.jpg	100
1652.404	1.076	1075.6	study	Phase3	study/STIM_016.jpg	99
1656.048	0.615	615.1	study	Phase3	study/STIM_017.jpg	99
1658.797	1.165	1164.7	study	Phase3	study/STIM_017.jpg	100
1662.17	1.308	1307.7	study	Phase3	study/STIM_017.jpg	99
1667.386	1.074	1073.7	study	Phase3	study/STIM_018.jpg	99
1671.691	1.282	1281.5	study	Phase3	study/STIM_018.jpg	99
1676.23	0.923	922.7	study	Phase3	study/STIM_018.jpg	100
1679.991	0.891	891.2	study	Phase3	study/STIM_019.jpg	99
1684.435	0.751	751.4	study	Phase3	study/STIM_019.jpg	100
1688.57	0.763	763.4	study	Phase3	study/STIM_019.jpg	99
1692.905	1.17	1170.2	study	Phase3	study/STIM_020.jpg	99
1696.717	1.317	1316.6	study	Phase3	study/STIM_020.jpg	100
1701.567	1.096	1096.0	study	Phase3	study/STIM_020.jpg	100
1706.053	1.014	1014.3	study	Phase3	study/STIM_021.jpg	99
1709.99	0.688	688.1	study	Phase3	study/STIM_021.jpg	100
1712.896	1.163	1163.2	study	Phase3	study/STIM_021.jpg	100
1716.773	0.776	775.6	study	Phase3	study/STIM_022.jpg	100
1720.36	0.82	819.9	study	Phase3	study/STIM_022.jpg	99
1723.625	1.23	1229.7	study	Phase3	study/STIM_022.jpg	99
1728.542	1.24	1240.1	study	Phase3	study/STIM_023.jpg	100
1733.492	1.267	1267.4	study	Phase3	study/STIM_023.jpg	99
1738.389	1.3	1299.7	study	Phase3	study/STIM_023.jpg	100
1743.384	1.04	1040.4	study	Phase3	study/STIM_024.jpg	99
1746.819	0.74	740.1	study	Phase3	study/STIM_024.jpg	100
1750.997	1.24	1239.7	study	Phase3	study/STIM_024.jpg	99
1755.421	0.912	912.1	study	Phase3	study/STIM_025.jpg	100
1760.001	0.824	824.5	study	Phase3	study/STIM_025.jpg	99
1763.268	1.304	1304.2	study	Phase3	study/STIM_025.jpg	100
1767.961	1.311	1310.8	study	Phase3	study/STIM_026.jpg	99
1772.153	0.937	936.6	study	Phase3	study/STIM_026.jpg	100
1776.861	1.159	1159.1	study	Phase3	study/STIM_026.jpg	99
1780.49	1.206	1205.5	study	Phase3	study/STIM_027.jpg	99
1784.081	1.094	1093.6	study	Phase3	study/STIM_027.jpg	99
1787.559	0.803	802.9	study	Phase3	study/STIM_027.jpg	99
1792.223	1.066	1065.7	study	Phase3	study/STIM_028.jpg	99
1796.328	1.217	1217.2	study	Phase3	study/STIM_028.jpg	99
1799.545	0.62	619.7	study	Phase3	study/STIM_028.jpg	100
1802.7	0.998	997.8	study	Phase3	study/STIM_029.jpg	100
1807.319	0.995	995.2	study	Phase3	study/STIM_029.jpg	99
1810.705	0.803	803.0	study	Phase3	study/STIM_029.jpg	100
1814.683	0.808	808.4	test	Phase3	test/STIM_000.jpg	100
1819.382	0.917	917.3	test	Phase3	test/STIM_000.jpg	99
1823.994	1.011	1010.8	test	Phase3	test/STIM_000.jpg	99
1828.121	1.2	1199.8	test	Phase3	test/STIM_001.jpg	100
1833.134	1.188	1188.2	test	Phase3	test/STIM_001.jpg	99
1837.4	0.81	809.9	test	Phase3	test/STIM_001.jpg	99
1841.105	0.69	689.5	test	Phase3	test/STIM_002.jpg	100
1844.706	1.012	1012.4	test	Phase3	test/STIM_002.jpg	100
1848.718	0.848	847.5	test	Phase3	test/STIM_002.jpg	99
1852.245	0.982	982.3	test	Phase3	test/STIM_003.jpg	99
1855.427	0.73	729.7	test	Phase3	test/STIM_003.jpg	100
1859.356	0.646	645.6	test	Phase3	test/STIM_003.jpg	100
1861.974	0.731	731.0	test	Phase3	test/STIM_004.jpg	99
1865.414	0.749	748.6	test	Phase3	test/STIM_004.jpg	99
1868.5	1.22	1219.8	test	Phase3	test/STIM_004.jpg	99
1871.851	0.82	820.5	test	Phase3	test/STIM_005.jpg	100
1875.36	0.652	652.0	test	Phase3	test/STIM_005.jpg	100
1878.509	1.039	1038.7	test	Phase3	test/STIM_005.jpg	100
1883.017	1.164	1164.2	test	Phase3	test/STIM_006.jpg	99
1886.662	0.919	919.0	test	Phase3	test/STIM_006.jpg	100
1890.388	1.199	1198.9	test	Phase3	test/STIM_006.jpg	100
1893.663	1.237	1237.0	test	Phase3	test/STIM_007.jpg	99
1897.375	1.357	1357.4	test	Phase3	test/STIM_007.jpg	99
1902.104	1.288	1288.1	test	Phase3	test/STIM_007.jpg	99
1905.483	1.357	1357.0	test	Phase3	test/STIM_008.jpg	100
1910.108	0.715	715.1	test	Phase3	test/STIM_008.jpg	99
1913.339	1.339	1339.3	test	Phase3	test/STIM_008.jpg	100
1916.65	1.07	1069.8	test	Phase3	test/STIM_009.jpg	99
1920.637	0.944	943.8	test	Phase3	test/STIM_009.jpg	99
1924.035	1.268	1267.5	test	Phase3	test/STIM_009.jpg	99
1928.762	1.309	1308.6	test	Phase3	test/STIM_010.jpg	100
1932.595	1.247	1246.6	test	Phase3	test/STIM_010.jpg	99
1937.536	1.124	1124.2	test	Phase3	test/STIM_010.jpg	99
1941.058	1.314	1314.3	test	Phase3	test/STIM_011.jpg	100
1945.232	1.122	1121.7	test	Phase3	test/STIM_011.jpg	99
1949.725	0.947	947.2	test	Phase3	test/STIM_011.jpg	100
1954.044	1.218	1218.3	test	Phase3	test/STIM_012.jpg	100
1958.479	1.24	1240.0	test	Phase3	test/STIM_012.jpg	100
1961.822	0.683	683.3	test	Phase3	test/STIM_012.jpg	100
1965.631	1.222	1222.1	test	Phase3	test/STIM_013.jpg	99
1968.85	0.841	841.1	test	Phase3	test/STIM_013.jpg	100
1972.478	0.648	648.1	test	Phase3	test/STIM_013.jpg	100
1976.232	0.732	731.6	test	Phase3	test/STIM_014.jpg	99
1979.031	1.296	1296.3	test	Phase3	test/STIM_014.jpg	99
1983.934	1.188	1187.5	test	Phase3	test/STIM_014.jpg	99
1987.391	1.287	1286.9	test	Phase3	test/STIM_015.jpg	100
1990.98	0.792	792.1	test	Phase3	test/STIM_015.jpg	99
1994.513	1.359	1359.4	test	Phase3	test/STIM_015.jpg	99
1997.971	0.688	687.6	test	Phase3	test/STIM_016.jpg	100
2001.554	0.922	922.4	test	Phase3	test/STIM_016.jpg	99
2005.204	0.95	949.7	test	Phase3	test/STIM_016.jpg	100
2009.693	1.227	1226.7	test	Phase3	test/STIM_017.jpg	99
2013.842	1.321	1321.0	test	Phase3	test/STIM_017.jpg	99
2017.981	1.259	1258.9	test	Phase3	test/STIM_017.jpg	100
2021.963	0.791	791.0	test	Phase3	test/STIM_018.jpg	99
2026.183	0.651	650.7	test	Phase3	test/STIM_018.jpg	99
2030.752	1.073	1072.7	test	Phase3	test/STIM_018.jpg	99
2035.156	1.193	1193.0	test	Phase3	test/STIM_019.jpg	99
2038.389	0.853	853.4	test	Phase3	test/STIM_019.jpg	100
2041.859	1.212	1211.9	test	Phase3	test/STIM_019.jpg	99
2045.841	1.304	1304.0	test	Phase3	test/STIM_020.jpg	99
2049.997	1.289	1289.0	test	Phase3	test/STIM_020.jpg	99
2054.585	0.636	635.6	test	Phase3	test/STIM_020.jpg	99
2058.503	0.864	863.7	test	Phase3	test/STIM_021.jpg	100
2061.816	1.056	1056.3	test	Phase3	test/STIM_021.jpg	100
2065.75	0.646	646.1	test	Phase3	test/STIM_021.jpg	100
2069.852	0.649	649.2	test	Phase3	test/STIM_022.jpg	100
2073.136	0.882	881.9	test	Phase3	test/STIM_022.jpg	100
2076.006	0.769	769.3	test	Phase3	test/STIM_022.jpg	100
2079.251	1.256	1256.3	test	Phase3	test/STIM_023.jpg	99
2083.024	1.302	1301.5	test	Phase3	test/STIM_023.jpg	99
2087.473	0.816	816.4	test	Phase3	test/STIM_023.jpg	99
2091.863	0.877	876.6	test	Phase3	test/STIM_024.jpg	100
2096.674	0.898	898.3	test	Phase3	test/STIM_024.jpg	99
2099.923	1.26	1259.9	test	Phase3	test/STIM_024.jpg	100
2104.337	1.234	1234.1	test	Phase3	test/STIM_025.jpg	99
2109.181	1.32	1320.0	test	Phase3	test/STIM_025.jpg	100
2112.676	1.275	1274.8	test	Phase3	test/STIM_025.jpg	99
2116.212	1.149	1149.2	test	Phase3	test/STIM_026.jpg	100
2119.777	1.155	1155.1	test	Phase3	test/STIM_026.jpg	100
2123.709	0.643	642.9	test	Phase3	test/STIM_026.jpg	99
2126.767	1.14	1140.2	test	Phase3	test/STIM_027.jpg	99
2131.714	0.987	987.0	test	Phase3	test/STIM_027.jpg	100
2136.44	0.64	639.6	test	Phase3	test/STIM_027.jpg	99
2140.507	1.211	1210.7	test	Phase3	test/STIM_028.jpg	100
2144.306	0.716	715.6	test	Phase3	test/STIM_028.jpg	100
2148.209	1.35	1350.2	test	Phase3	test/STIM_028.jpg	99
2153.129	0.716	716.3	test	Phase3	test/STIM_029.jpg	100
2156.689	0.693	692.8	test	Phase3	test/STIM_029.jpg	99
2160.781	0.708	708.0	test	Phase3	test/STIM_029.jpg	99
