onset	duration	accuracy	trial_type	learning_stage	stimulus
0.0	1.882	correct	study	Phase1	study/STIM_000.jpg
5.027	1.228	incorrect	study	Phase1	study/STIM_000.jpg
9.417	1.609	correct	study	Phase1	study/STIM_000.jpg
14.654	0.845	incorrect	study	Phase1	study/STIM_001.jpg
19.032	1.574	correct	study	Phase1	study/STIM_001.jpg
22.877	0.805	correct	study	Phase1	study/STIM_001.jpg
26.919	1.253	correct	study	Phase1	study/STIM_002.jpg
30.332	1.021	correct	study	Phase1	study/STIM_002.jpg
34.637	1.183	correct	study	Phase1	study/STIM_002.jpg
37.855	0.941	incorrect	study	Phase1	study/STIM_003.jpg
41.975	0.914	correct	study	Phase1	study/STIM_003.jpg
45.957	0.919	correct	study	Phase1	study/STIM_003.jpg
50.249	1.826	correct	study	Phase1	study/STIM_004.jpg
54.528	0.878	correct	study	Phase1	study/STIM_004.jpg
59.321	0.944	correct	study	Phase1	study/STIM_004.jpg
63.789	1.002	correct	study	Phase1	study/STIM_005.jpg
66.986	1.181	correct	study	Phase1	study/STIM_005.jpg
71.983	1.438	correct	study	Phase1	study/STIM_005.jpg
76.918	1.448	correct	study	Phase1	study/STIM_006.jpg
80.731	1.534	correct	study	Phase1	study/STIM_006.jpg
84.758	0.893	correct	study	Phase1	study/STIM_006.jpg
88.808	1.867	correct	study	Phase1	study/STIM_007.jpg
93.636	1.145	correct	study	Phase1	study/STIM_007.jpg
97.362	1.012	correct	study	Phase1	study/STIM_007.jpg
100.894	0.992	correct	study	Phase1	study/STIM_008.jpg
104.932	1.598	correct	study	Phase1	study/STIM_008.jpg
109.653	0.787	incorrect	study	Phase1	study/STIM_008.jpg
112.643	1.873	correct	study	Phase1	study/STIM_009.jpg
116.786	1.556	correct	study	Phase1	study/STIM_009.jpg
120.296	1.118	correct	study	Phase1	study/STIM_009.jpg
123.943	1.288	correct	study	Phase1	study/STIM_010.jpg
128.938	1.044	correct	study	Phase1	study/STIM_010.jpg
132.677	1.065	correct	study	Phase1	study/STIM_010.jpg
137.168	1.727	correct	study	Phase1	study/STIM_011.jpg
142.792	1.394	correct	study	Phase1	study/STIM_011.jpg
146.432	1.092	incorrect	study	Phase1	study/STIM_011.jpg
150.079	1.533	correct	study	Phase1	study/STIM_012.jpg
154.215	1.708	correct	study	Phase1	study/STIM_012.jpg
157.846	1.204	correct	study	Phase1	study/STIM_012.jpg
161.975	1.848	correct	study	Phase1	study/STIM_013.jpg
167.647	1.148	correct	study	Phase1	study/STIM_013.jpg
172.052	1.288	correct	study	Phase1	study/STIM_013.jpg
177.027	1.26	correct	study	Phase1	study/STIM_014.jpg
180.866	1.003	correct	study	Phase1	study/STIM_014.jpg
185.493	1.203	incorrect	study	Phase1	study/STIM_014.jpg
188.75	0.956	correct	study	Phase1	study/STIM_015.jpg
192.628	0.896	correct	study	Phase1	study/STIM_015.jpg
196.695	1.268	incorrect	study	Phase1	study/STIM_015.jpg
201.324	1.139	incorrect	study	Phase1	study/STIM_016.jpg
205.551	0.808	correct	study	Phase1	study/STIM_016.jpg
209.71	1.618	correct	study	Phase1	study/STIM_016.jpg
213.679	1.639	incorrect	study	Phase1	study/STIM_017.jpg
217.29	1.125	correct	study	Phase1	study/STIM_017.jpg
221.325	0.993	correct	study	Phase1	study/STIM_017.jpg
226.098	1.868	correct	study	Phase1	study/STIM_018.jpg
231.815	1.615	correct	study	Phase1	study/STIM_018.jpg
236.4	0.816	correct	study	Phase1	study/STIM_018.jpg
239.635	1.62	correct	study	Phase1	study/STIM_019.jpg
244.68	0.924	correct	study	Phase1	study/STIM_019.jpg
248.975	0.77	correct	study	Phase1	study/STIM_019.jpg
252.348	1.689	incorrect	study	Phase1	study/STIM_020.jpg
257.092	0.881	correct	study	Phase1	study/STIM_020.jpg
261.429	1.225	correct	study	Phase1	study/STIM_020.jpg
264.604	1.216	correct	study	Phase1	study/STIM_021.jpg
268.525	0.82	correct	study	Phase1	study/STIM_021.jpg
272.118	1.455	correct	study	Phase1	study/STIM_021.jpg
275.543	1.61	correct	study	Phase1	study/STIM_022.jpg
280.21	0.967	incorrect	study	Phase1	study/STIM_022.jpg
285.017	1.671	correct	study	Phase1	study/STIM_022.jpg
290.304	1.636	correct	study	Phase1	study/STIM_023.jpg
294.675	1.21	correct	study	Phase1	study/STIM_023.jpg
299.13	1.287	correct	study	Phase1	study/STIM_023.jpg
303.02	0.893	correct	study	Phase1	study/STIM_024.jpg
307.513	1.634	correct	study	Phase1	study/STIM_024.jpg
312.186	1.45	correct	study	Phase1	study/STIM_024.jpg
315.953	1.862	correct	study	Phase1	study/STIM_025.jpg
320.529	0.876	correct	study	Phase1	study/STIM_025.jpg
324.68	1.457	correct	study	Phase1	study/STIM_025.jpg
329.977	1.326	correct	study	Phase1	study/STIM_026.jpg
334.556	0.921	correct	study	Phase1	study/STIM_026.jpg
338.16	0.783	correct	study	Phase1	study/STIM_026.jpg
342.784	1.445	correct	study	Phase1	study/STIM_027.jpg
347.552	1.702	correct	study	Phase1	study/STIM_027.jpg
352.294	0.984	correct	study	Phase1	study/STIM_027.jpg
356.811	1.065	correct	study	Phase1	study/STIM_028.jpg
360.182	1.272	correct	study	Phase1	study/STIM_028.jpg
363.458	1.459	correct	study	Phase1	study/STIM_028.jpg
367.97	1.329	correct	study	Phase1	study/STIM_029.jpg
372.72	0.801	correct	study	Phase1	study/STIM_029.jpg
375.961	1.242	correct	study	Phase1	study/STIM_029.jpg
379.38	0.692	correct	test	Phase1	test/STIM_000.jpg
382.825	1.126	correct	test	Phase1	test/STIM_000.jpg
386.671	0.862	incorrect	test	Phase1	test/STIM_000.jpg
391.127	0.878	correct	test	Phase1	test/STIM_001.jpg
395.855	0.794	correct	test	Phase1	test/STIM_001.jpg
400.436	1.156	correct	test	Phase1	test/STIM_001.jpg
405.135	1.087	correct	test	Phase1	test/STIM_002.jpg
408.685	0.767	correct	test	Phase1	test/STIM_002.jpg
411.587	0.817	correct	test	Phase1	test/STIM_002.jpg
414.552	1.093	correct	test	Phase1	test/STIM_003.jpg
417.868	0.998	correct	test	Phase1	test/STIM_003.jpg
421.954	1.282	correct	test	Phase1	test/STIM_003.jpg
425.901	0.822	correct	test	Phase1	test/STIM_004.jpg
429.605	0.768	correct	test	Phase1	test/STIM_004.jpg
434.164	0.981	incorrect	test	Phase1	test/STIM_004.jpg
439.066	0.884	correct	test	Phase1	test/STIM_005.jpg
442.663	0.969	correct	test	Phase1	test/STIM_005.jpg
446.459	1.314	correct	test	Phase1	test/STIM_005.jpg
450.354	0.636	correct	test	Phase1	test/STIM_006.jpg
453.76	0.974	correct	test	Phase1	test/STIM_006.jpg
457.582	0.733	correct	test	Phase1	test/STIM_006.jpg
461.691	0.852	correct	test	Phase1	test/STIM_007.jpg
465.248	0.921	correct	test	Phase1	test/STIM_007.jpg
469.394	1.199	correct	test	Phase1	test/STIM_007.jpg
473.541	1.052	correct	test	Phase1	test/STIM_008.jpg
477.47	0.651	correct	test	Phase1	test/STIM_008.jpg
480.24	1.033	correct	test	Phase1	test/STIM_008.jpg
484.931	0.933	correct	test	Phase1	test/STIM_009.jpg
488.736	1.328	correct	test	Phase1	test/STIM_009.jpg
493.749	1.204	correct	test	Phase1	test/STIM_009.jpg
498.886	0.823	correct	test	Phase1	test/STIM_010.jpg
503.118	0.633	correct	test	Phase1	test/STIM_010.jpg
506.862	1.068	correct	test	Phase1	test/STIM_010.jpg
510.963	1.359	correct	test	Phase1	test/STIM_011.jpg
515.553	0.956	correct	test	Phase1	test/STIM_011.jpg
519.448	1.337	correct	test	Phase1	test/STIM_011.jpg
522.828	1.116	correct	test	Phase1	test/STIM_012.jpg
526.727	0.698	correct	test	Phase1	test/STIM_012.jpg
530.903	0.9	correct	test	Phase1	test/STIM_012.jpg
535.207	0.635	correct	test	Phase1	test/STIM_013.jpg
538.927	1.259	correct	test	Phase1	test/STIM_013.jpg
542.466	0.68	correct	test	Phase1	test/STIM_013.jpg
546.932	1.146	correct	test	Phase1	test/STIM_014.jpg
550.034	0.897	correct	test	Phase1	test/STIM_014.jpg
553.98	0.824	correct	test	Phase1	test/STIM_014.jpg
557.549	0.734	correct	test	Phase1	test/STIM_015.jpg
561.929	0.98	correct	test	Phase1	test/STIM_015.jpg
565.163	0.75	correct	test	Phase1	test/STIM_015.jpg
568.155	0.993	correct	test	Phase1	test/STIM_016.jpg
572.385	0.94	correct	test	Phase1	test/STIM_016.jpg
575.966	0.832	correct	test	Phase1	test/STIM_016.jpg
579.543	1.137	correct	test	Phase1	test/STIM_017.jpg
583.002	1.083	correct	test	Phase1	test/STIM_017.jpg
586.506	1.364	incorrect	test	Phase1	test/STIM_017.jpg
591.51	0.924	correct	test	Phase1	test/STIM_018.jpg
594.783	1.363	correct	test	Phase1	test/STIM_018.jpg
599.206	1.189	correct	test	Phase1	test/STIM_018.jpg
603.019	1.317	incorrect	test	Phase1	test/STIM_019.jpg
606.818	0.82	correct	test	Phase1	test/STIM_019.jpg
610.21	1.306	correct	test	Phase1	test/STIM_019.jpg
615.382	1.231	correct	test	Phase1	test/STIM_020.jpg
618.71	0.997	correct	test	Phase1	test/STIM_020.jpg
623.223	0.868	correct	test	Phase1	test/STIM_020.jpg
627.433	0.856	incorrect	test	Phase1	test/STIM_021.jpg
631.654	1.1	correct	test	Phase1	test/STIM_021.jpg
635.248	0.857	incorrect	test	Phase1	test/STIM_021.jpg
639.341	1.162	correct	test	Phase1	test/STIM_022.jpg
644.393	1.21	correct	test	Phase1	test/STIM_022.jpg
649.215	1.283	incorrect	test	Phase1	test/STIM_022.jpg
653.401	1.102	correct	test	Phase1	test/STIM_023.jpg
657.888	1.107	correct	test	Phase1	test/STIM_023.jpg
661.578	1.156	correct	test	Phase1	test/STIM_023.jpg
664.889	1.224	correct	test	Phase1	test/STIM_024.jpg
669.041	1.282	correct	test	Phase1	test/STIM_024.jpg
673.432	1.192	correct	test	Phase1	test/STIM_024.jpg
677.746	1.275	correct	test	Phase1	test/STIM_025.jpg
682.087	0.96	correct	test	Phase1	test/STIM_025.jpg
685.034	0.792	correct	test	Phase1	test/STIM_025.jpg
688.238	0.891	incorrect	test	Phase1	test/STIM_026.jpg
692.749	0.902	correct	test	Phase1	test/STIM_026.jpg
697.585	1.365	correct	test	Phase1	test/STIM_026.jpg
701.617	0.928	correct	test	Phase1	test/STIM_027.jpg
705.026	1.127	correct	test	Phase1	test/STIM_027.jpg
709.019	1.087	correct	test	Phase1	test/STIM_027.jpg
713.965	1.26	correct	test	Phase1	test/STIM_028.jpg
717.366	0.979	correct	test	Phase1	test/STIM_028.jpg
720.474	1.301	correct	test	Phase1	test/STIM_028.jpg
723.723	0.935	correct	test	Phase1	test/STIM_029.jpg
728.067	1.252	incorrect	test	Phase1	test/STIM_029.jpg
733.205	1.009	incorrect	test	Phase1	test/STIM_029.jpg
737.728	0.869	correct	study	Phase2	study/STIM_000.jpg
742.211	0.714	incorrect	study	Phase2	study/STIM_000.jpg
746.091	1.122	correct	study	Phase2	study/STIM_000.jpg
751.005	0.832	correct	study	Phase2	study/STIM_001.jpg
754.237	1.36	correct	study	Phase2	study/STIM_001.jpg
758.921	1.416	correct	study	Phase2	study/STIM_001.jpg
763.205	1.088	correct	study	Phase2	study/STIM_002.jpg
767.135	1.286	correct	study	Phase2	study/STIM_002.jpg
771.299	1.084	incorrect	study	Phase2	study/STIM_002.jpg
774.547	1.051	correct	study	Phase2	study/STIM_003.jpg
779.388	0.683	correct	study	Phase2	study/STIM_003.jpg
782.146	1.292	correct	study	Phase2	study/STIM_003.jpg
786.659	0.874	correct	study	Phase2	study/STIM_004.jpg
790.464	0.712	correct	study	Phase2	study/STIM_004.jpg
794.623	1.234	correct	study	Phase2	study/STIM_004.jpg
797.833	1.496	correct	study	Phase2	study/STIM_005.jpg
803.036	0.854	correct	study	Phase2	study/STIM_005.jpg
807.742	1.416	correct	study	Phase2	study/STIM_005.jpg
812.402	1.083	correct	study	Phase2	study/STIM_006.jpg
816.164	0.961	correct	study	Phase2	study/STIM_006.jpg
819.787	0.873	correct	study	Phase2	study/STIM_006.jpg
822.686	0.729	correct	study	Phase2	study/STIM_007.jpg
826.132	0.918	correct	study	Phase2	study/STIM_007.jpg
830.852	0.865	correct	study	Phase2	study/STIM_007.jpg
833.756	1.546	incorrect	study	Phase2	study/STIM_008.jpg
837.933	1.047	correct	study	Phase2	study/STIM_008.jpg
842.727	0.668	correct	study	Phase2	study/STIM_008.jpg
846.137	0.862	correct	study	Phase2	study/STIM_009.jpg
849.427	0.912	correct	study	Phase2	study/STIM_009.jpg
854.093	1.279	correct	study	Phase2	study/STIM_009.jpg
857.315	1.008	correct	study	Phase2	study/STIM_010.jpg
861.315	0.88	correct	study	Phase2	study/STIM_010.jpg
864.535	1.005	correct	study	Phase2	study/STIM_010.jpg
868.194	1.05	correct	study	Phase2	study/STIM_011.jpg
871.684	0.881	correct	study	Phase2	study/STIM_011.jpg
875.853	0.832	correct	study	Phase2	study/STIM_011.jpg
879.517	1.157	correct	study	Phase2	study/STIM_012.jpg
883.88	0.762	correct	study	Phase2	study/STIM_012.jpg
888.103	1.283	correct	study	Phase2	study/STIM_012.jpg
893.116	1.191	correct	study	Phase2	study/STIM_013.jpg
897.222	0.712	correct	study	Phase2	study/STIM_013.jpg
901.106	0.811	correct	study	Phase2	study/STIM_013.jpg
905.252	1.055	correct	study	Phase2	study/STIM_014.jpg
909.108	0.698	correct	study	Phase2	study/STIM_014.jpg
913.342	1.112	correct	study	Phase2	study/STIM_014.jpg
916.595	1.316	correct	study	Phase2	study/STIM_015.jpg
920.55	1.116	correct	study	Phase2	study/STIM_015.jpg
924.342	1.107	correct	study	Phase2	study/STIM_015.jpg
928.82	0.892	correct	study	Phase2	study/STIM_016.jpg
932.963	0.725	correct	study	Phase2	study/STIM_016.jpg
937.369	0.918	correct	study	Phase2	study/STIM_016.jpg
942.023	1.369	correct	study	Phase2	study/STIM_017.jpg
946.1	1.43	correct	study	Phase2	study/STIM_017.jpg
950.592	1.293	incorrect	study	Phase2	study/STIM_017.jpg
954.725	1.426	correct	study	Phase2	study/STIM_018.jpg
959.104	1.067	correct	study	Phase2	study/STIM_018.jpg
964.021	1.255	correct	study	Phase2	study/STIM_018.jpg
968.406	0.745	correct	study	Phase2	study/STIM_019.jpg
972.118	1.511	correct	study	Phase2	study/STIM_019.jpg
976.913	1.285	incorrect	study	Phase2	study/STIM_019.jpg
981.24	1.589	correct	study	Phase2	study/STIM_020.jpg
986.691	1.388	correct	study	Phase2	study/STIM_020.jpg
990.308	0.737	correct	study	Phase2	study/STIM_020.jpg
994.271	1.199	correct	study	Phase2	study/STIM_021.jpg
997.709	1.468	correct	study	Phase2	study/STIM_021.jpg
1001.395	0.975	correct	study	Phase2	study/STIM_021.jpg
1004.506	1.537	correct	study	Phase2	study/STIM_022.jpg
1007.974	1.256	correct	study	Phase2	study/STIM_022.jpg
1011.735	1.062	incorrect	study	Phase2	study/STIM_022.jpg
1014.758	1.122	correct	study	Phase2	study/STIM_023.jpg
1018.267	1.012	correct	study	Phase2	study/STIM_023.jpg
1023.101	1.209	incorrect	study	Phase2	study/STIM_023.jpg
1027.025	0.801	correct	study	Phase2	study/STIM_024.jpg
1031.617	1.462	correct	study	Phase2	study/STIM_024.jpg
1035.447	1.128	correct	study	Phase2	study/STIM_024.jpg
1040.252	1.12	correct	study	Phase2	study/STIM_025.jpg
1044.108	0.944	correct	study	Phase2	study/STIM_025.jpg
1047.117	0.846	correct	study	Phase2	study/STIM_025.jpg
1051.781	0.978	correct	study	Phase2	study/STIM_026.jpg
1056.185	1.044	correct	study	Phase2	study/STIM_026.jpg
1060.127	1.061	correct	study	Phase2	study/STIM_026.jpg
1064.04	1.435	correct	study	Phase2	study/STIM_027.jpg
1068.174	1.149	correct	study	Phase2	study/STIM_027.jpg
1071.272	1.306	correct	study	Phase2	study/STIM_027.jpg
1074.573	0.803	correct	study	Phase2	study/STIM_028.jpg
1078.791	0.907	correct	study	Phase2	study/STIM_028.jpg
1081.951	1.265	correct	study	Phase2	study/STIM_028.jpg
1086.351	0.98	correct	study	Phase2	study/STIM_029.jpg
1089.911	1.258	correct	study	Phase2	study/STIM_029.jpg
1094.569	1.353	correct	study	Phase2	study/STIM_029.jpg
1098.544	1.129	incorrect	test	Phase2	test/STIM_000.jpg
1101.984	1.184	correct	test	Phase2	test/STIM_000.jpg
1106.909	1.171	correct	test	Phase2	test/STIM_000.jpg
1110.997	1.322	correct	test	Phase2	test/STIM_001.jpg
1115.765	1.335	correct	test	Phase2	test/STIM_001.jpg
1119.118	0.819	correct	test	Phase2	test/STIM_001.jpg
1122.953	0.896	correct	test	Phase2	test/STIM_002.jpg
1127.649	1.174	correct	test	Phase2	test/STIM_002.jpg
1132.661	0.766	correct	test	Phase2	test/STIM_002.jpg
1135.524	0.759	correct	test	Phase2	test/STIM_003.jpg
1139.434	0.802	correct	test	Phase2	test/STIM_003.jpg
1143.91	0.723	correct	test	Phase2	test/STIM_003.jpg
1147.386	0.685	correct	test	Phase2	test/STIM_004.jpg
1151.607	1.205	correct	test	Phase2	test/STIM_004.jpg
1156.271	0.833	correct	test	Phase2	test/STIM_004.jpg
1160.473	1.248	correct	test	Phase2	test/STIM_005.jpg
1163.854	0.818	correct	test	Phase2	test/STIM_005.jpg
1167.722	1.244	incorrect	test	Phase2	test/STIM_005.jpg
1171.882	0.888	incorrect	test	Phase2	test/STIM_006.jpg
1176.218	0.976	correct	test	Phase2	test/STIM_006.jpg
1179.163	0.648	correct	test	Phase2	test/STIM_006.jpg
1183.592	0.817	correct	test	Phase2	test/STIM_007.jpg
1187.53	0.979	correct	test	Phase2	test/STIM_007.jpg
1191.204	0.806	correct	test	Phase2	test/STIM_007.jpg
1194.958	1.241	correct	test	Phase2	test/STIM_008.jpg
1198.349	0.914	correct	test	Phase2	test/STIM_008.jpg
1201.315	0.83	correct	test	Phase2	test/STIM_008.jpg
1205.52	0.81	correct	test	Phase2	test/STIM_009.jpg
1209.995	0.821	correct	test	Phase2	test/STIM_009.jpg
1214.707	1.078	correct	test	Phase2	test/STIM_009.jpg
1219.064	0.921	correct	test	Phase2	test/STIM_010.jpg
1222.002	0.732	correct	test	Phase2	test/STIM_010.jpg
1226.326	1.024	correct	test	Phase2	test/STIM_010.jpg
1230.719	0.763	correct	test	Phase2	test/STIM_011.jpg
1235.026	1.142	correct	test	Phase2	test/STIM_011.jpg
1238.456	1.25	correct	test	Phase2	test/STIM_011.jpg
1242.962	1.182	correct	test	Phase2	test/STIM_012.jpg
1247.63	0.65	correct	test	Phase2	test/STIM_012.jpg
1251.01	1.248	correct	test	Phase2	test/STIM_012.jpg
1255.61	1.048	correct	test	Phase2	test/STIM_013.jpg
1260.591	1.217	correct	test	Phase2	test/STIM_013.jpg
1265.702	0.976	correct	test	Phase2	test/STIM_013.jpg
1268.867	1.357	correct	test	Phase2	test/STIM_014.jpg
1273.079	0.851	correct	test	Phase2	test/STIM_014.jpg
1277.418	0.699	correct	test	Phase2	test/STIM_014.jpg
1280.769	0.815	incorrect	test	Phase2	test/STIM_015.jpg
1285.543	1.231	correct	test	Phase2	test/STIM_015.jpg
1290.506	0.92	correct	test	Phase2	test/STIM_015.jpg
1294.572	1.021	correct	test	Phase2	test/STIM_016.jpg
1297.907	1.19	correct	test	Phase2	test/STIM_016.jpg
1302.682	0.772	correct	test	Phase2	test/STIM_016.jpg
1306.764	0.99	correct	test	Phase2	test/STIM_017.jpg
1310.901	0.942	correct	test	Phase2	test/STIM_017.jpg
1314.47	0.649	correct	test	Phase2	test/STIM_017.jpg
1317.687	1.079	correct	test	Phase2	test/STIM_018.jpg
1321.233	1.288	correct	test	Phase2	test/STIM_018.jpg
1324.957	1.042	correct	test	Phase2	test/STIM_018.jpg
1329.713	0.805	correct	test	Phase2	test/STIM_019.jpg
1333.644	1.093	correct	test	Phase2	test/STIM_019.jpg
1338.677	0.886	correct	test	Phase2	test/STIM_019.jpg
1341.607	0.979	correct	test	Phase2	test/STIM_020.jpg
1346.471	1.25	correct	test	Phase2	test/STIM_020.jpg
1350.738	1.213	incorrect	test	Phase2	test/STIM_020.jpg
1354.126	0.644	correct	test	Phase2	test/STIM_021.jpg
1358.114	0.868	correct	test	Phase2	test/STIM_021.jpg
1361.074	0.745	correct	test	Phase2	test/STIM_021.jpg
1364.644	0.731	correct	test	Phase2	test/STIM_022.jpg
1368.634	0.972	correct	test	Phase2	test/STIM_022.jpg
1373.495	0.673	correct	test	Phase2	test/STIM_022.jpg
1378.103	0.73	correct	test	Phase2	test/STIM_023.jpg
1382.259	0.783	correct	test	Phase2	test/STIM_023.jpg
1385.28	0.739	correct	test	Phase2	test/STIM_023.jpg
1389.389	0.644	incorrect	test	Phase2	test/STIM_024.jpg
1392.864	0.759	correct	test	Phase2	test/STIM_024.jpg
1396.295	0.874	correct	test	Phase2	test/STIM_024.jpg
1399.519	0.994	incorrect	test	Phase2	test/STIM_025.jpg
1403.444	1.328	correct	test	Phase2	test/STIM_025.jpg
1406.884	0.69	incorrect	test	Phase2	test/STIM_025.jpg
1410.684	0.783	correct	test	Phase2	test/STIM_026.jpg
1414.976	0.906	incorrect	test	Phase2	test/STIM_026.jpg
1419.112	0.801	correct	test	Phase2	test/STIM_026.jpg
1423.084	0.908	correct	test	Phase2	test/STIM_027.jpg
1426.535	1.048	correct	test	Phase2	test/STIM_027.jpg
1431.499	0.713	correct	test	Phase2	test/STIM_027.jpg
1434.755	0.855	correct	test	Phase2	test/STIM_028.jpg
1439.566	1.16	correct	test	Phase2	test/STIM_028.jpg
1443.81	1.274	correct	test	Phase2	test/STIM_028.jpg
1448.115	1.064	correct	test	Phase2	test/STIM_029.jpg
1452.385	1.004	correct	test	Phase2	test/STIM_029.jpg
1456.093	0.872	incorrect	test	Phase2	test/STIM_029.jpg
1459.861	0.666	correct	study	Phase3	study/STIM_000.jpg
1462.871	0.651	correct	study	Phase3	study/STIM_000.jpg
1465.568	0.848	correct	study	Phase3	study/STIM_000.jpg
1469.611	0.846	correct	study	Phase3	study/STIM_001.jpg
1474.045	0.656	correct	study	Phase3	study/STIM_001.jpg
1476.698	1.218	correct	study	Phase3	study/STIM_001.jpg
1481.289	0.723	correct	study	Phase3	study/STIM_002.jpg
1485.612	0.631	correct	study	Phase3	study/STIM_002.jpg
1488.485	0.966	correct	study	Phase3	study/STIM_002.jpg
1492.591	0.777	correct	study	Phase3	study/STIM_003.jpg
1495.768	1.285	correct	study	Phase3	study/STIM_003.jpg
1500.9	1.305	correct	study	Phase3	study/STIM_003.jpg
1506.053	1.043	correct	study	Phase3	study/STIM_004.jpg
1510.039	0.652	correct	study	Phase3	study/STIM_004.jpg
1513.976	0.794	correct	study	Phase3	study/STIM_004.jpg
1518.111	0.824	correct	study	Phase3	study/STIM_005.jpg
1522.065	1.25	correct	study	Phase3	study/STIM_005.jpg
1525.986	0.721	correct	study	Phase3	study/STIM_005.jpg
1529.339	0.688	correct	study	Phase3	study/STIM_006.jpg
1533.945	0.636	correct	study	Phase3	study/STIM_006.jpg
1538.527	0.604	correct	study	Phase3	study/STIM_006.jpg
1541.833	0.844	correct	study	Phase3	study/STIM_007.jpg
1545.428	0.867	correct	study	Phase3	study/STIM_007.jpg
1549.676	1.323	correct	study	Phase3	study/STIM_007.jpg
1553.847	0.647	correct	study	Phase3	study/STIM_008.jpg
1556.698	1.035	correct	study	Phase3	study/STIM_008.jpg
1561.404	0.664	correct	study	Phase3	study/STIM_008.jpg
1565.034	1.065	correct	study	Phase3	study/STIM_009.jpg
1568.129	1.166	correct	study	Phase3	study/STIM_009.jpg
1572.125	0.839	correct	study	Phase3	study/STIM_009.jpg
1576.394	1.221	correct	study	Phase3	study/STIM_010.jpg
1580.277	0.98	correct	study	Phase3	study/STIM_010.jpg
1584.039	1.06	correct	study	Phase3	study/STIM_010.jpg
1587.692	1.23	correct	study	Phase3	study/STIM_011.jpg
1591.897	0.663	correct	study	Phase3	study/STIM_011.jpg
1594.735	1.322	correct	study	Phase3	study/STIM_011.jpg
1599.356	0.916	correct	study	Phase3	study/STIM_012.jpg
1603.207	1.194	correct	study	Phase3	study/STIM_012.jpg
1606.485	1.036	correct	study	Phase3	study/STIM_012.jpg
1609.591	1.047	correct	study	Phase3	study/STIM_013.jpg
1613.968	1.13	correct	study	Phase3	study/STIM_013.jpg
1618.11	1.292	correct	study	Phase3	study/STIM_013.jpg
1621.89	0.915	correct	study	Phase3	study/STIM_014.jpg
1626.079	0.916	correct	study	Phase3	study/STIM_014.jpg
1630.326	0.594	correct	study	Phase3	study/STIM_014.jpg
1633.095	0.757	correct	study	Phase3	study/STIM_015.jpg
1637.178	0.938	correct	study	Phase3	study/STIM_015.jpg
1640.654	0.9	correct	study	Phase3	study/STIM_015.jpg
1644.629	0.924	correct	study	Phase3	study/STIM_016.jpg
1648.04	1.318	correct	study	Phase3	study/STIM_016.jpg
1652.404	1.076	correct	study	Phase3	study/STIM_016.jpg
1656.048	0.615	correct	study	Phase3	study/STIM_017.jpg
1658.797	1.165	correct	study	Phase3	study/STIM_017.jpg
1662.17	1.308	correct	study	Phase3	study/STIM_017.jpg
1667.386	1.074	correct	study	Phase3	study/STIM_018.jpg
1671.691	1.282	correct	study	Phase3	study/STIM_018.jpg
1676.23	0.923	correct	study	Phase3	study/STIM_018.jpg
1679.991	0.891	correct	study	Phase3	study/STIM_019.jpg
1684.435	0.751	correct	study	Phase3	study/STIM_019.jpg
1688.57	0.763	correct	study	Phase3	study/STIM_019.jpg
1692.905	1.17	correct	study	Phase3	study/STIM_020.jpg
1696.717	1.317	correct	study	Phase3	study/STIM_020.jpg
1701.567	1.096	correct	study	Phase3	study/STIM_020.jpg
1706.053	1.014	correct	study	Phase3	study/STIM_021.jpg
1709.99	0.688	correct	study	Phase3	study/STIM_021.jpg
1712.896	1.163	correct	study	Phase3	study/STIM_021.jpg
1716.773	0.776	correct	study	Phase3	study/STIM_022.jpg
1720.36	0.82	correct	study	Phase3	study/STIM_022.jpg
1723.625	1.23	correct	study	Phase3	study/STIM_022.jpg
1728.542	1.24	correct	study	Phase3	study/STIM_023.jpg
1733.492	1.267	correct	study	Phase3	study/STIM_023.jpg
1738.389	1.3	correct	study	Phase3	study/STIM_023.jpg
1743.384	1.04	correct	study	Phase3	study/STIM_024.jpg
1746.819	0.74	correct	study	Phase3	study/STIM_024.jpg
1750.997	1.24	correct	study	Phase3	study/STIM_024.jpg
1755.421	0.912	correct	study	Phase3	study/STIM_025.jpg
1760.001	0.824	correct	study	Phase3	study/STIM_025.jpg
1763.268	1.304	correct	study	Phase3	study/STIM_025.jpg
1767.961	1.311	correct	study	Phase3	study/STIM_026.jpg
1772.153	0.937	correct	study	Phase3	study/STIM_026.jpg
1776.861	1.159	correct	study	Phase3	study/STIM_026.jpg
1780.49	1.206	correct	study	Phase3	study/STIM_027.jpg
1784.081	1.094	correct	study	Phase3	study/STIM_027.jpg
1787.559	0.803	correct	study	Phase3	study/STIM_027.jpg
1792.223	1.066	correct	study	Phase3	study/STIM_028.jpg
1796.328	1.217	correct	study	Phase3	study/STIM_028.jpg
1799.545	0.62	correct	study	Phase3	study/STIM_028.jpg
1802.7	0.998	correct	study	Phase3	study/STIM_029.jpg
1807.319	0.995	correct	study	Phase3	study/STIM_029.jpg
1810.705	0.803	correct	study	Phase3	study/STIM_029.jpg
1814.683	0.808	correct	test	Phase3	test/STIM_000.jpg
1819.382	0.917	correct	test	Phase3	test/STIM_000.jpg
1823.994	1.011	correct	test	Phase3	test/STIM_000.jpg
1828.121	1.2	correct	test	Phase3	test/STIM_001.jpg
1833.134	1.188	correct	test	Phase3	test/STIM_001.jpg
1837.4	0.81	correct	test	Phase3	test/STIM_001.jpg
1841.105	0.69	correct	test	Phase3	test/STIM_002.jpg
1844.706	1.012	correct	test	Phase3	test/STIM_002.jpg
1848.718	0.848	correct	test	Phase3	test/STIM_002.jpg
1852.245	0.982	correct	test	Phase3	test/STIM_003.jpg
1855.427	0.73	correct	test	Phase3	test/STIM_003.jpg
1859.356	0.646	correct	test	Phase3	test/STIM_003.jpg
1861.974	0.731	incorrect	test	Phase3	test/STIM_004.jpg
1865.414	0.749	correct	test	Phase3	test/STIM_004.jpg
1868.5	1.22	correct	test	Phase3	test/STIM_004.jpg
1871.851	0.82	correct	test	Phase3	test/STIM_005.jpg
1875.36	0.652	correct	test	Phase3	test/STIM_005.jpg
1878.509	1.039	correct	test	Phase3	test/STIM_005.jpg
1883.017	1.164	correct	test	Phase3	test/STIM_006.jpg
1886.662	0.919	correct	test	Phase3	test/STIM_006.jpg
1890.388	1.199	incorrect	test	Phase3	test/STIM_006.jpg
1893.663	1.237	correct	test	Phase3	test/STIM_007.jpg
1897.375	1.357	correct	test	Phase3	test/STIM_007.jpg
1902.104	1.288	correct	test	Phase3	test/STIM_007.jpg
1905.483	1.357	correct	test	Phase3	test/STIM_008.jpg
1910.108	0.715	incorrect	test	Phase3	test/STIM_008.jpg
1913.339	1.339	correct	test	Phase3	test/STIM_008.jpg
1916.65	1.07	correct	test	Phase3	test/STIM_009.jpg
1920.637	0.944	incorrect	test	Phase3	test/STIM_009.jpg
1924.035	1.268	correct	test	Phase3	test/STIM_009.jpg
1928.762	1.309	incorrect	test	Phase3	test/STIM_010.jpg
1932.595	1.247	correct	test	Phase3	test/STIM_010.jpg
1937.536	1.124	correct	test	Phase3	test/STIM_010.jpg
1941.058	1.314	correct	test	Phase3	test/STIM_011.jpg
1945.232	1.122	correct	test	Phase3	test/STIM_011.jpg
1949.725	0.947	correct	test	Phase3	test/STIM_011.jpg
1954.044	1.218	correct	test	Phase3	test/STIM_012.jpg
1958.479	1.24	correct	test	Phase3	test/STIM_012.jpg
1961.822	0.683	correct	test	Phase3	test/STIM_012.jpg
1965.631	1.222	incorrect	test	Phase3	test/STIM_013.jpg
1968.85	0.841	correct	test	Phase3	test/STIM_013.jpg
1972.478	0.648	correct	test	Phase3	test/STIM_013.jpg
1976.232	0.732	correct	test	Phase3	test/STIM_014.jpg
1979.031	1.296	correct	test	Phase3	test/STIM_014.jpg
1983.934	1.188	correct	test	Phase3	test/STIM_014.jpg
1987.391	1.287	correct	test	Phase3	test/STIM_015.jpg
1990.98	0.792	correct	test	Phase3	test/STIM_015.jpg
1994.513	1.359	correct	test	Phase3	test/STIM_015.jpg
1997.971	0.688	correct	test	Phase3	test/STIM_016.jpg
2001.554	0.922	correct	test	Phase3	test/STIM_016.jpg
2005.204	0.95	incorrect	test	Phase3	test/STIM_016.jpg
2009.693	1.227	correct	test	Phase3	test/STIM_017.jpg
2013.842	1.321	correct	test	Phase3	test/STIM_017.jpg
2017.981	1.259	correct	test	Phase3	test/STIM_017.jpg
2021.963	0.791	correct	test	Phase3	test/STIM_018.jpg
2026.183	0.651	correct	test	Phase3	test/STIM_018.jpg
2030.752	1.073	incorrect	test	Phase3	test/STIM_018.jpg
2035.156	1.193	correct	test	Phase3	test/STIM_019.jpg
2038.389	0.853	incorrect	test	Phase3	test/STIM_019.jpg
2041.859	1.212	correct	test	Phase3	test/STIM_019.jpg
2045.841	1.304	correct	test	Phase3	test/STIM_020.jpg
2049.997	1.289	correct	test	Phase3	test/STIM_020.jpg
2054.585	0.636	correct	test	Phase3	test/STIM_020.jpg
2058.503	0.864	correct	test	Phase3	test/STIM_021.jpg
2061.816	1.056	correct	test	Phase3	test/STIM_021.jpg
2065.75	0.646	correct	test	Phase3	test/STIM_021.jpg
2069.852	0.649	correct	test	Phase3	test/STIM_022.jpg
2073.136	0.882	correct	test	Phase3	test/STIM_022.jpg
2076.006	0.769	incorrect	test	Phase3	test/STIM_022.jpg
2079.251	1.256	correct	test	Phase3	test/STIM_023.jpg
2083.024	1.302	correct	test	Phase3	test/STIM_023.jpg
2087.473	0.816	correct	test	Phase3	test/STIM_023.jpg
2091.863	0.877	correct	test	Phase3	test/STIM_024.jpg
2096.674	0.898	correct	test	Phase3	test/STIM_024.jpg
2099.923	1.26	correct	test	Phase3	test/STIM_024.jpg
2104.337	1.234	incorrect	test	Phase3	test/STIM_025.jpg
2109.181	1.32	correct	test	Phase3	test/STIM_025.jpg
2112.676	1.275	correct	test	Phase3	test/STIM_025.jpg
2116.212	1.149	correct	test	Phase3	test/STIM_026.jpg
2119.777	1.155	correct	test	Phase3	test/STIM_026.jpg
2123.709	0.643	correct	test	Phase3	test/STIM_026.jpg
2126.767	1.14	correct	test	Phase3	test/STIM_027.jpg
2131.714	0.987	correct	test	Phase3	test/STIM_027.jpg
2136.44	0.64	correct	test	Phase3	test/STIM_027.jpg
2140.507	1.211	correct	test	Phase3	test/STIM_028.jpg
2144.306	0.716	correct	test	Phase3	test/STIM_028.jpg
2148.209	1.35	correct	test	Phase3	test/STIM_028.jpg
2153.129	0.716	correct	test	Phase3	test/STIM_029.jpg
2156.689	0.693	correct	test	Phase3	test/STIM_029.jpg
2160.781	0.708	correct	test	Phase3	test/STIM_029.jpg
