onset	duration	response_time_ms	trial_type	learning_stage	stimulus	response_port
0.0	0.902	902.4	study	Phase1	study/STIM_000.jpg	99
4.479	1.054	1054.2	study	Phase1	study/STIM_000.jpg	99
9.168	0.878	878.3	study	Phase1	study/STIM_000.jpg	100
13.231	1.37	1369.9	study	Phase1	study/STIM_001.jpg	99
16.675	0.988	988.4	study	Phase1	study/STIM_001.jpg	99
20.579	0.796	796.5	study	Phase1	study/STIM_001.jpg	99
25.131	1.507	1507.4	study	Phase1	study/STIM_002.jpg	100
29.408	0.823	823.2	study	Phase1	study/STIM_002.jpg	99
33.607	1.208	1208.1	study	Phase1	study/STIM_002.jpg	99
37.262	1.364	1363.9	study	Phase1	study/STIM_003.jpg	100
42.003	1.373	1372.7	study	Phase1	study/STIM_003.jpg	100
46.911	0.974	974.4	study	Phase1	study/STIM_003.jpg	99
51.542	0.949	949.3	study	Phase1	study/STIM_004.jpg	100
54.902	1.004	1003.6	study	Phase1	study/STIM_004.jpg	99
57.938	0.631	631.3	study	Phase1	study/STIM_004.jpg	99
61.862	1.145	1145.0	study	Phase1	study/STIM_005.jpg	99
65.895	1.211	1211.4	study	Phase1	study/STIM_005.jpg	100
69.624	1.307	1306.6	study	Phase1	study/STIM_005.jpg	100
73.6	1.182	1182.5	study	Phase1	study/STIM_006.jpg	100
77.364	1.395	1395.4	study	Phase1	study/STIM_006.jpg	99
81.063	0.958	958.3	study	Phase1	study/STIM_006.jpg	100
85.046	1.246	1246.5	study	Phase1	study/STIM_007.jpg	99
89.868	1.041	1040.8	study	Phase1	study/STIM_007.jpg	99
93.184	0.962	962.1	study	Phase1	study/STIM_007.jpg	99
96.228	0.844	843.6	study	Phase1	study/STIM_008.jpg	100
99.43	0.92	919.7	study	Phase1	study/STIM_008.jpg	100
103.599	1.05	1049.5	study	Phase1	study/STIM_008.jpg	99
107.122	1.535	1534.6	study	Phase1	study/STIM_009.jpg	100
111.641	1.448	1447.8	study	Phase1	study/STIM_009.jpg	100
115.423	0.939	938.8	study	Phase1	study/STIM_009.jpg	100
119.859	1.486	1486.5	study	Phase1	study/STIM_010.jpg	99
123.632	1.437	1437.3	study	Phase1	study/STIM_010.jpg	100
128.585	1.05	1049.8	study	Phase1	study/STIM_010.jpg	100
132.139	1.098	1097.8	study	Phase1	study/STIM_011.jpg	99
135.859	1.387	1387.1	study	Phase1	study/STIM_011.jpg	99
139.346	1.013	1013.1	study	Phase1	study/STIM_011.jpg	99
144.03	0.81	810.5	study	Phase1	study/STIM_012.jpg	100
147.032	1.303	1303.0	study	Phase1	study/STIM_012.jpg	100
151.001	1.342	1341.6	study	Phase1	study/STIM_012.jpg	99
156.204	0.898	898.0	study	Phase1	study/STIM_013.jpg	100
159.289	1.203	1202.6	study	Phase1	study/STIM_013.jpg	99
162.555	0.688	687.7	study	Phase1	study/STIM_013.jpg	100
166.813	1.383	1383.2	study	Phase1	study/STIM_014.jpg	99
171.694	0.679	678.9	study	Phase1	study/STIM_014.jpg	99
175.369	0.927	927.1	study	Phase1	study/STIM_014.jpg	100
180.262	0.738	737.5	study	Phase1	study/STIM_015.jpg	99
184.582	0.885	884.8	study	Phase1	study/STIM_015.jpg	100
187.635	0.902	901.7	study	Phase1	study/STIM_015.jpg	99
190.596	0.919	919.4	study	Phase1	study/STIM_016.jpg	99
194.869	0.669	668.8	study	Phase1	study/STIM_016.jpg	100
198.235	1.388	1387.9	study	Phase1	study/STIM_016.jpg	100
202.996	0.707	707.1	study	Phase1	study/STIM_017.jpg	100
207.222	1.151	1150.6	study	Phase1	study/STIM_017.jpg	100
210.589	0.907	906.9	study	Phase1	study/STIM_017.jpg	99
214.574	0.943	943.3	study	Phase1	study/STIM_018.jpg	99
217.879	0.999	999.0	study	Phase1	study/STIM_018.jpg	100
221.849	0.988	988.4	study	Phase1	study/STIM_018.jpg	99
225.337	1.272	1271.7	study	Phase1	study/STIM_019.jpg	100
230.532	1.395	1395.1	study	Phase1	study/STIM_019.jpg	100
235.15	0.926	926.5	study	Phase1	study/STIM_019.jpg	99
239.91	0.728	727.8	study	Phase1	study/STIM_020.jpg	100
243.44	0.878	877.7	study	Phase1	study/STIM_020.jpg	100
247.219	1.226	1226.3	study	Phase1	study/STIM_020.jpg	99
251.501	0.913	913.4	study	Phase1	study/STIM_021.jpg	100
254.77	0.945	944.9	study	Phase1	study/STIM_021.jpg	99
259.618	0.987	986.8	study	Phase1	study/STIM_021.jpg	100
262.825	1.036	1035.8	study	Phase1	study/STIM_022.jpg	99
266.508	1.372	1371.8	study	Phase1	study/STIM_022.jpg	100
271.151	0.928	927.9	study	Phase1	study/STIM_022.jpg	99
276.076	0.979	979.1	study	Phase1	study/STIM_023.jpg	99
279.459	0.738	737.5	study	Phase1	study/STIM_023.jpg	99
282.604	0.702	702.0	study	Phase1	study/STIM_023.jpg	99
286.699	0.692	691.6	study	Phase1	study/STIM_024.jpg	99
290.329	1.062	1061.5	study	Phase1	study/STIM_024.jpg	99
293.697	1.176	1176.3	study	Phase1	study/STIM_024.jpg	99
296.94	1.212	1212.1	study	Phase1	study/STIM_025.jpg	100
300.404	1.283	1282.7	study	Phase1	study/STIM_025.jpg	100
305.042	1.142	1142.5	study	Phase1	study/STIM_025.jpg	99
308.63	0.928	928.1	study	Phase1	study/STIM_026.jpg	99
311.611	0.999	998.6	study	Phase1	study/STIM_026.jpg	99
314.614	1.197	1196.7	study	Phase1	study/STIM_026.jpg	99
318.785	0.883	883.1	study	Phase1	study/STIM_027.jpg	99
322.68	1.46	1460.1	study	Phase1	study/STIM_027.jpg	99
327.401	1.397	1397.4	study	Phase1	study/STIM_027.jpg	99
332.541	1.375	1374.7	study	Phase1	study/STIM_028.jpg	100
336.8	1.081	1081.3	study	Phase1	study/STIM_028.jpg	99
340.777	1.307	1306.7	study	Phase1	study/STIM_028.jpg	100
345.74	1.416	1415.8	study	Phase1	study/STIM_029.jpg	99
350.974	1.244	1244.0	study	Phase1	study/STIM_029.jpg	100
356.076	0.815	815.2	study	Phase1	study/STIM_029.jpg	100
359.87	0.947	947.3	test	Phase1	test/STIM_000.jpg	99
364.745	0.824	823.6	test	Phase1	test/STIM_000.jpg	100
369.553	0.878	877.6	test	Phase1	test/STIM_000.jpg	99
373.138	0.946	946.4	test	Phase1	test/STIM_001.jpg	99
376.438	0.744	743.8	test	Phase1	test/STIM_001.jpg	99
379.731	1.073	1073.4	test	Phase1	test/STIM_001.jpg	99
384.628	0.856	855.5	test	Phase1	test/STIM_002.jpg	99
388.755	0.955	954.6	test	Phase1	test/STIM_002.jpg	99
392.419	0.698	697.6	test	Phase1	test/STIM_002.jpg	100
396.529	1.014	1013.5	test	Phase1	test/STIM_003.jpg	100
399.544	1.068	1067.6	test	Phase1	test/STIM_003.jpg	99
404.383	1.049	1049.2	test	Phase1	test/STIM_003.jpg	100
408.942	1.031	1031.2	test	Phase1	test/STIM_004.jpg	99
413.597	0.821	821.1	test	Phase1	test/STIM_004.jpg	99
416.761	0.655	654.6	test	Phase1	test/STIM_004.jpg	100
421.143	1.101	1100.9	test	Phase1	test/STIM_005.jpg	99
425.275	1.073	1073.2	test	Phase1	test/STIM_005.jpg	99
428.832	0.847	846.7	test	Phase1	test/STIM_005.jpg	100
432.063	0.832	832.4	test	Phase1	test/STIM_006.jpg	99
436.063	0.993	993.4	test	Phase1	test/STIM_006.jpg	99
439.828	0.995	995.0	test	Phase1	test/STIM_006.jpg	100
443.671	0.994	994.0	test	Phase1	test/STIM_007.jpg	99
447.926	0.669	669.0	test	Phase1	test/STIM_007.jpg	100
450.835	0.821	821.1	test	Phase1	test/STIM_007.jpg	100
454.952	1.106	1106.4	test	Phase1	test/STIM_008.jpg	100
459.114	0.739	738.9	test	Phase1	test/STIM_008.jpg	99
462.461	0.682	682.5	test	Phase1	test/STIM_008.jpg	100
467.094	0.622	621.9	test	Phase1	test/STIM_009.jpg	100
471.589	0.984	983.8	test	Phase1	test/STIM_009.jpg	99
474.698	0.537	536.6	test	Phase1	test/STIM_009.jpg	99
478.811	0.703	702.8	test	Phase1	test/STIM_010.jpg	100
482.015	1.01	1009.7	test	Phase1	test/STIM_010.jpg	99
486.492	1.03	1030.3	test	Phase1	test/STIM_010.jpg	99
490.414	1.012	1011.8	test	Phase1	test/STIM_011.jpg	100
495.037	1.059	1058.9	test	Phase1	test/STIM_011.jpg	99
499.612	0.604	603.6	test	Phase1	test/STIM_011.jpg	99
502.359	0.697	696.9	test	Phase1	test/STIM_012.jpg	100
505.443	0.993	993.0	test	Phase1	test/STIM_012.jpg	99
510.093	0.863	863.2	test	Phase1	test/STIM_012.jpg	100
513.464	0.81	810.2	test	Phase1	test/STIM_013.jpg	99
517.622	1.06	1059.8	test	Phase1	test/STIM_013.jpg	100
520.707	0.68	679.8	test	Phase1	test/STIM_013.jpg	100
525.063	0.609	609.1	test	Phase1	test/STIM_014.jpg	99
527.963	0.831	830.8	test	Phase1	test/STIM_014.jpg	99
532.322	0.815	815.4	test	Phase1	test/STIM_014.jpg	99
537.039	0.713	712.7	test	Phase1	test/STIM_015.jpg	100
540.936	0.725	724.8	test	Phase1	test/STIM_015.jpg	99
544.754	0.52	520.0	test	Phase1	test/STIM_015.jpg	100
548.272	0.99	990.5	test	Phase1	test/STIM_016.jpg	100
552.603	1.023	1022.8	test	Phase1	test/STIM_016.jpg	100
556.545	0.846	845.5	test	Phase1	test/STIM_016.jpg	100
561.344	0.819	819.2	test	Phase1	test/STIM_017.jpg	99
565.938	0.535	534.6	test	Phase1	test/STIM_017.jpg	100
569.469	0.607	607.3	test	Phase1	test/STIM_017.jpg	99
573.42	0.941	940.9	test	Phase1	test/STIM_018.jpg	100
577.507	0.696	696.0	test	Phase1	test/STIM_018.jpg	100
581.415	0.859	859.0	test	Phase1	test/STIM_018.jpg	99
586.136	0.662	662.3	test	Phase1	test/STIM_019.jpg	99
589.199	0.994	993.8	test	Phase1	test/STIM_019.jpg	100
592.73	0.674	674.4	test	Phase1	test/STIM_019.jpg	99
596.5	0.768	768.5	test	Phase1	test/STIM_020.jpg	100
599.914	0.955	954.8	test	Phase1	test/STIM_020.jpg	99
603.053	0.527	527.2	test	Phase1	test/STIM_020.jpg	100
607.256	0.532	532.2	test	Phase1	test/STIM_021.jpg	99
611.417	0.587	587.0	test	Phase1	test/STIM_021.jpg	99
614.206	0.542	541.6	test	Phase1	test/STIM_021.jpg	100
618.077	1.076	1076.4	test	Phase1	test/STIM_022.jpg	99
621.674	0.895	895.2	test	Phase1	test/STIM_022.jpg	99
624.941	0.59	590.2	test	Phase1	test/STIM_022.jpg	100
627.799	0.782	781.6	test	Phase1	test/STIM_023.jpg	100
631.331	0.911	911.3	test	Phase1	test/STIM_023.jpg	99
635.322	0.64	639.5	test	Phase1	test/STIM_023.jpg	100
639.929	1.009	1009.1	test	Phase1	test/STIM_024.jpg	99
643.295	0.688	688.5	test	Phase1	test/STIM_024.jpg	99
647.174	0.936	936.0	test	Phase1	test/STIM_024.jpg	100
651.819	1.116	1116.0	test	Phase1	test/STIM_025.jpg	99
656.145	0.586	586.3	test	Phase1	test/STIM_025.jpg	99
658.856	0.928	928.3	test	Phase1	test/STIM_025.jpg	99
662.449	0.581	581.1	test	Phase1	test/STIM_026.jpg	99
665.51	0.878	877.7	test	Phase1	test/STIM_026.jpg	100
668.484	0.865	864.9	test	Phase1	test/STIM_026.jpg	99
672.067	1.048	1047.7	test	Phase1	test/STIM_027.jpg	99
675.414	1.066	1066.0	test	Phase1	test/STIM_027.jpg	99
679.214	0.853	853.1	test	Phase1	test/STIM_027.jpg	99
683.615	0.688	688.5	test	Phase1	test/STIM_028.jpg	100
687.413	0.803	803.1	test	Phase1	test/STIM_028.jpg	99
690.972	1.069	1069.0	test	Phase1	test/STIM_028.jpg	100
694.441	0.786	786.4	test	Phase1	test/STIM_029.jpg	100
698.265	1.083	1083.2	test	Phase1	test/STIM_029.jpg	100
701.629	0.76	760.1	test	Phase1	test/STIM_029.jpg	100
705.191	0.962	961.9	study	Phase2	study/STIM_000.jpg	99
708.193	0.607	606.7	study	Phase2	study/STIM_000.jpg	100
712.332	0.697	697.4	study	Phase2	study/STIM_000.jpg	99
715.717	1.175	1175.3	study	Phase2	study/STIM_001.jpg	99
719.327	1.164	1163.6	study	Phase2	study/STIM_001.jpg	99
723.327	1.035	1034.6	study	Phase2	study/STIM_001.jpg	99
726.924	1.262	1262.2	study	Phase2	study/STIM_002.jpg	100
731.27	1.194	1194.0	study	Phase2	study/STIM_002.jpg	99
735.155	0.745	744.7	study	Phase2	study/STIM_002.jpg	99
738.467	0.693	692.9	study	Phase2	study/STIM_003.jpg	99
741.759	0.863	862.8	study	Phase2	study/STIM_003.jpg	100
745.962	1.053	1053.1	study	Phase2	study/STIM_003.jpg	99
749.893	1.215	1214.7	study	Phase2	study/STIM_004.jpg	99
754.977	1.078	1078.5	study	Phase2	study/STIM_004.jpg	100
758.891	0.715	715.2	study	Phase2	study/STIM_004.jpg	99
762.767	0.645	645.0	study	Phase2	study/STIM_005.jpg	100
765.702	0.572	572.1	study	Phase2	study/STIM_005.jpg	99
769.359	1.045	1044.9	study	Phase2	study/STIM_005.jpg	100
773.674	1.315	1314.9	study	Phase2	study/STIM_006.jpg	100
777.315	1.097	1096.7	study	Phase2	study/STIM_006.jpg	100
781.056	0.663	663.3	study	Phase2	study/STIM_006.jpg	100
784.053	0.743	743.0	study	Phase2	study/STIM_007.jpg	100
787.533	1.166	1165.6	study	Phase2	study/STIM_007.jpg	99
792.535	0.605	604.7	study	Phase2	study/STIM_007.jpg	99
796.705	1.151	1151.4	study	Phase2	study/STIM_008.jpg	99
800.7	0.691	691.0	study	Phase2	study/STIM_008.jpg	100
804.993	1.128	1128.3	study	Phase2	study/STIM_008.jpg	99
808.87	1.066	1066.5	study	Phase2	study/STIM_009.jpg	99
813.643	0.963	962.6	study	Phase2	study/STIM_009.jpg	100
818.098	0.678	678.0	study	Phase2	study/STIM_009.jpg	100
822.742	0.922	921.5	study	Phase2	study/STIM_010.jpg	100
827.287	0.671	671.4	study	Phase2	study/STIM_010.jpg	100
830.797	0.6	600.5	study	Phase2	study/STIM_010.jpg	100
835.163	1.27	1269.7	study	Phase2	study/STIM_011.jpg	100
838.463	0.82	820.2	study	Phase2	study/STIM_011.jpg	99
843.22	0.806	806.2	study	Phase2	study/STIM_011.jpg	100
847.872	0.912	911.8	study	Phase2	study/STIM_012.jpg	100
851.419	1.068	1068.4	study	Phase2	study/STIM_012.jpg	100
856.262	0.711	710.9	study	Phase2	study/STIM_012.jpg	100
860.458	0.699	698.8	study	Phase2	study/STIM_013.jpg	100
864.825	0.679	678.9	study	Phase2	study/STIM_013.jpg	100
867.766	0.84	839.8	study	Phase2	study/STIM_013.jpg	99
871.363	0.63	630.3	study	Phase2	study/STIM_014.jpg	99
875.397	0.62	620.5	study	Phase2	study/STIM_014.jpg	99
879.226	0.94	940.3	study	Phase2	study/STIM_014.jpg	100
884.021	1.318	1318.3	study	Phase2	study/STIM_015.jpg	99
887.557	0.738	738.2	study	Phase2	study/STIM_015.jpg	100
890.401	1.099	1099.2	study	Phase2	study/STIM_015.jpg	99
894.253	0.863	863.0	study	Phase2	study/STIM_016.jpg	99
898.012	0.81	809.5	study	Phase2	study/STIM_016.jpg	99
901.875	0.592	592.5	study	Phase2	study/STIM_016.jpg	100
906.114	1.269	1268.7	study	Phase2	study/STIM_017.jpg	99
911.027	0.71	709.5	study	Phase2	study/STIM_017.jpg	99
914.304	1.166	1166.3	study	Phase2	study/STIM_017.jpg	99
917.917	1.155	1154.6	study	Phase2	study/STIM_018.jpg	99
921.325	1.098	1098.0	study	Phase2	study/STIM_018.jpg	99
926.002	1.005	1005.2	study	Phase2	study/STIM_018.jpg	100
930.447	1.216	1216.5	study	Phase2	study/STIM_019.jpg	100
935.576	0.679	678.8	study	Phase2	study/STIM_019.jpg	99
938.721	0.847	847.0	study	Phase2	study/STIM_019.jpg	99
941.689	0.728	727.8	study	Phase2	study/STIM_020.jpg	100
944.968	0.557	557.4	study	Phase2	study/STIM_020.jpg	99
949.43	0.863	863.3	study	Phase2	study/STIM_020.jpg	99
952.52	1.283	1283.4	study	Phase2	study/STIM_021.jpg	100
956.901	1.22	1220.1	study	Phase2	study/STIM_021.jpg	100
960.308	0.658	657.9	study	Phase2	study/STIM_021.jpg	100
963.774	1.02	1020.2	study	Phase2	study/STIM_022.jpg	99
967.483	0.668	667.9	study	Phase2	study/STIM_022.jpg	100
972.08	0.732	732.5	study	Phase2	study/STIM_022.jpg	99
975.143	0.642	642.3	study	Phase2	study/STIM_023.jpg	100
977.97	0.979	979.4	study	Phase2	study/STIM_023.jpg	100
982.946	1.161	1161.1	study	Phase2	study/STIM_023.jpg	99
986.566	0.948	947.9	study	Phase2	study/STIM_024.jpg	100
990.878	0.981	980.9	study	Phase2	study/STIM_024.jpg	99
994.164	0.766	765.5	study	Phase2	study/STIM_024.jpg	100
998.828	0.73	730.5	study	Phase2	study/STIM_025.jpg	100
1003.371	1.209	1209.1	study	Phase2	study/STIM_025.jpg	100
1008.577	0.551	551.1	study	Phase2	study/STIM_025.jpg	100
1011.503	0.864	864.0	study	Phase2	study/STIM_026.jpg	99
1016.105	0.634	634.2	study	Phase2	study/STIM_026.jpg	99
1020.252	1.003	1003.3	study	Phase2	study/STIM_026.jpg	100
1024.881	0.65	649.9	study	Phase2	study/STIM_027.jpg	99
1027.738	1.119	1118.6	study	Phase2	study/STIM_027.jpg	100
1031.625	0.67	670.3	study	Phase2	study/STIM_027.jpg	99
1035.454	1.058	1058.0	study	Phase2	study/STIM_028.jpg	99
1038.658	1.057	1056.6	study	Phase2	study/STIM_028.jpg	99
1042.347	0.832	831.8	study	Phase2	study/STIM_028.jpg	100
1045.231	0.843	843.1	study	Phase2	study/STIM_029.jpg	99
1048.879	0.901	901.4	study	Phase2	study/STIM_029.jpg	100
1053.59	0.634	633.6	study	Phase2	study/STIM_029.jpg	100
1056.271	0.909	909.1	test	Phase2	test/STIM_000.jpg	100
1060.043	0.559	558.8	test	Phase2	test/STIM_000.jpg	100
1064.067	0.616	616.4	test	Phase2	test/STIM_000.jpg	100
1066.917	0.816	815.5	test	Phase2	test/STIM_001.jpg	100
1071.172	0.904	904.5	test	Phase2	test/STIM_001.jpg	99
1075.1	0.921	921.0	test	Phase2	test/STIM_001.jpg	100
1079.13	0.885	884.6	test	Phase2	test/STIM_002.jpg	100
1083.873	0.794	793.6	test	Phase2	test/STIM_002.jpg	99
1088.408	0.552	552.2	test	Phase2	test/STIM_002.jpg	100
1091.35	0.563	562.8	test	Phase2	test/STIM_003.jpg	99
1095.665	0.666	666.1	test	Phase2	test/STIM_003.jpg	100
1098.835	0.694	694.0	test	Phase2	test/STIM_003.jpg	99
1102.844	0.608	608.2	test	Phase2	test/STIM_004.jpg	100
1106.712	0.551	550.7	test	Phase2	test/STIM_004.jpg	99
1111.011	1.043	1043.0	test	Phase2	test/STIM_004.jpg	99
1115.671	0.822	821.7	test	Phase2	test/STIM_005.jpg	99
1119.649	0.766	765.5	test	Phase2	test/STIM_005.jpg	100
1123.059	0.97	970.4	test	Phase2	test/STIM_005.jpg	100
1126.286	0.788	787.7	test	Phase2	test/STIM_006.jpg	100
1129.954	0.783	782.9	test	Phase2	test/STIM_006.jpg	99
1133.446	1.055	1054.8	test	Phase2	test/STIM_006.jpg	100
1137.606	0.675	675.4	test	Phase2	test/STIM_007.jpg	99
1141.597	0.773	772.9	test	Phase2	test/STIM_007.jpg	99
1145.587	0.814	814.4	test	Phase2	test/STIM_007.jpg	99
1148.795	0.629	628.7	test	Phase2	test/STIM_008.jpg	100
1152.017	0.856	856.5	test	Phase2	test/STIM_008.jpg	99
1155.874	0.803	803.4	test	Phase2	test/STIM_008.jpg	100
1159.43	0.536	536.4	test	Phase2	test/STIM_009.jpg	100
1162.415	0.88	879.8	test	Phase2	test/STIM_009.jpg	100
1166.784	1.023	1022.8	test	Phase2	test/STIM_009.jpg	99
1170.725	0.554	554.4	test	Phase2	test/STIM_010.jpg	99
1174.768	0.839	838.8	test	Phase2	test/STIM_010.jpg	100
1177.826	0.572	571.6	test	Phase2	test/STIM_010.jpg	100
1182.123	0.631	631.4	test	Phase2	test/STIM_011.jpg	99
1186.342	0.941	940.6	test	Phase2	test/STIM_011.jpg	100
1190.809	0.696	696.5	test	Phase2	test/STIM_011.jpg	100
1193.575	0.592	591.7	test	Phase2	test/STIM_012.jpg	100
1196.962	0.747	746.9	test	Phase2	test/STIM_012.jpg	100
1201.001	1.052	1052.1	test	Phase2	test/STIM_012.jpg	99
1204.386	1.035	1034.9	test	Phase2	test/STIM_013.jpg	99
1208.01	0.541	540.6	test	Phase2	test/STIM_013.jpg	99
1210.609	0.917	917.0	test	Phase2	test/STIM_013.jpg	99
1214.267	0.743	742.7	test	Phase2	test/STIM_014.jpg	99
1217.37	0.834	834.3	test	Phase2	test/STIM_014.jpg	100
1221.12	0.772	772.2	test	Phase2	test/STIM_014.jpg	100
1224.056	0.916	915.7	test	Phase2	test/STIM_015.jpg	100
1228.456	0.84	840.3	test	Phase2	test/STIM_015.jpg	99
1231.785	0.759	759.0	test	Phase2	test/STIM_015.jpg	99
1234.69	0.944	944.1	test	Phase2	test/STIM_016.jpg	100
1239.574	1.01	1009.6	test	Phase2	test/STIM_016.jpg	99
1242.914	0.717	716.6	test	Phase2	test/STIM_016.jpg	100
1245.705	0.568	568.3	test	Phase2	test/STIM_017.jpg	99
1249.142	0.932	931.6	test	Phase2	test/STIM_017.jpg	100
1252.235	1.02	1020.1	test	Phase2	test/STIM_017.jpg	100
1256.181	1.051	1051.0	test	Phase2	test/STIM_018.jpg	100
1259.966	0.665	665.2	test	Phase2	test/STIM_018.jpg	100
1263.937	0.876	876.2	test	Phase2	test/STIM_018.jpg	100
1268.533	0.817	817.0	test	Phase2	test/STIM_019.jpg	99
1272.713	0.541	541.3	test	Phase2	test/STIM_019.jpg	99
1276.922	0.597	597.0	test	Phase2	test/STIM_019.jpg	100
1280.788	1.003	1003.0	test	Phase2	test/STIM_020.jpg	100
1285.202	0.989	989.4	test	Phase2	test/STIM_020.jpg	100
1289.646	0.814	813.5	test	Phase2	test/STIM_020.jpg	99
1293.753	0.664	664.5	test	Phase2	test/STIM_021.jpg	99
1298.374	0.52	520.3	test	Phase2	test/STIM_021.jpg	100
1301.923	0.899	898.6	test	Phase2	test/STIM_021.jpg	100
1306.264	0.624	624.3	test	Phase2	test/STIM_022.jpg	99
1309.964	0.604	604.1	test	Phase2	test/STIM_022.jpg	99
1314.137	0.931	931.0	test	Phase2	test/STIM_022.jpg	99
1318.231	0.522	521.6	test	Phase2	test/STIM_023.jpg	100
1320.852	0.652	651.9	test	Phase2	test/STIM_023.jpg	99
1324.795	0.665	664.8	test	Phase2	test/STIM_023.jpg	100
1328.453	0.973	972.6	test	Phase2	test/STIM_024.jpg	99
1333.142	1.088	1087.7	test	Phase2	test/STIM_024.jpg	100
1337.845	0.854	853.6	test	Phase2	test/STIM_024.jpg	100
1340.772	0.84	839.5	test	Phase2	test/STIM_025.jpg	100
1344.73	0.654	654.0	test	Phase2	test/STIM_025.jpg	100
1349.282	1.034	1033.8	test	Phase2	test/STIM_025.jpg	99
1353.152	0.992	992.4	test	Phase2	test/STIM_026.jpg	99
1357.346	1.045	1045.3	test	Phase2	test/STIM_026.jpg	100
1361.875	1.122	1121.7	test	Phase2	test/STIM_026.jpg	99
1365.055	0.94	940.1	test	Phase2	test/STIM_027.jpg	100
1368.362	0.832	831.7	test	Phase2	test/STIM_027.jpg	100
1372.239	1.087	1087.1	test	Phase2	test/STIM_027.jpg	99
1375.699	1.026	1025.6	test	Phase2	test/STIM_028.jpg	99
1379.932	0.756	756.2	test	Phase2	test/STIM_028.jpg	99
1383.034	0.897	896.9	test	Phase2	test/STIM_028.jpg	100
1386.633	0.636	635.8	test	Phase2	test/STIM_029.jpg	100
1390.911	1.096	1095.7	test	Phase2	test/STIM_029.jpg	100
1395.505	1.069	1068.6	test	Phase2	test/STIM_029.jpg	100
1398.84	0.631	631.0	study	Phase3	study/STIM_000.jpg	99
1402.083	0.802	801.9	study	Phase3	study/STIM_000.jpg	100
1405.838	0.705	705.4	study	Phase3	study/STIM_000.jpg	99
1408.756	0.912	912.1	study	Phase3	study/STIM_001.jpg	100
1413.241	0.769	769.0	study	Phase3	study/STIM_001.jpg	100
1416.872	0.578	577.7	study	Phase3	study/STIM_001.jpg	100
1419.712	0.518	518.2	study	Phase3	study/STIM_002.jpg	99
1423.066	0.563	562.6	study	Phase3	study/STIM_002.jpg	100
1426.895	0.97	970.4	study	Phase3	study/STIM_002.jpg	99
1430.622	0.882	882.4	study	Phase3	study/STIM_003.jpg	99
1434.272	0.694	693.7	study	Phase3	study/STIM_003.jpg	99
1437.782	0.815	814.9	study	Phase3	study/STIM_003.jpg	100
1441.568	0.953	952.6	study	Phase3	study/STIM_004.jpg	100
1445.635	0.931	930.7	study	Phase3	study/STIM_004.jpg	100
1448.7	0.935	934.9	study	Phase3	study/STIM_004.jpg	100
1453.245	0.713	713.4	study	Phase3	study/STIM_005.jpg	99
1456.162	0.714	714.3	study	Phase3	study/STIM_005.jpg	100
1459.595	0.509	508.8	study	Phase3	study/STIM_005.jpg	99
1462.65	0.817	816.7	study	Phase3	study/STIM_006.jpg	100
1466.084	0.632	632.4	study	Phase3	study/STIM_006.jpg	99
1469.195	0.579	578.9	study	Phase3	study/STIM_006.jpg	99
1472.414	0.755	754.6	study	Phase3	study/STIM_007.jpg	99
1475.423	0.523	522.7	study	Phase3	study/STIM_007.jpg	99
1479.175	0.765	765.4	study	Phase3	study/STIM_007.jpg	100
1482.752	0.775	774.8	study	Phase3	study/STIM_008.jpg	100
1485.68	0.9	900.1	study	Phase3	study/STIM_008.jpg	100
1490.327	0.883	882.7	study	Phase3	study/STIM_008.jpg	100
1494.489	0.754	753.9	study	Phase3	study/STIM_009.jpg	99
1498.823	0.903	903.4	study	Phase3	study/STIM_009.jpg	100
1501.796	0.568	567.5	study	Phase3	study/STIM_009.jpg	100
1505.534	0.54	540.4	study	Phase3	study/STIM_010.jpg	99
1508.647	0.525	525.1	study	Phase3	study/STIM_010.jpg	99
1512.438	0.953	953.2	study	Phase3	study/STIM_010.jpg	100
1516.413	0.541	541.3	study	Phase3	study/STIM_011.jpg	99
1519.056	0.741	741.0	study	Phase3	study/STIM_011.jpg	99
1522.044	0.86	859.8	study	Phase3	study/STIM_011.jpg	99
1526.685	0.615	615.0	study	Phase3	study/STIM_012.jpg	100
1529.988	0.718	718.5	study	Phase3	study/STIM_012.jpg	100
1533.723	1.01	1010.1	study	Phase3	study/STIM_012.jpg	99
1537.571	0.51	510.0	study	Phase3	study/STIM_013.jpg	99
1540.83	0.801	801.2	study	Phase3	study/STIM_013.jpg	100
1544.705	0.89	889.8	study	Phase3	study/STIM_013.jpg	100
1549.154	0.877	876.9	study	Phase3	study/STIM_014.jpg	100
1552.631	0.989	989.4	study	Phase3	study/STIM_014.jpg	100
1556.847	0.597	596.6	study	Phase3	study/STIM_014.jpg	100
1560.647	0.593	593.2	study	Phase3	study/STIM_015.jpg	99
1564.213	0.655	654.8	study	Phase3	study/STIM_015.jpg	99
1567.022	0.619	619.1	study	Phase3	study/STIM_015.jpg	100
1570.761	0.808	807.5	study	Phase3	study/STIM_016.jpg	100
1575.106	0.893	892.7	study	Phase3	study/STIM_016.jpg	100
1579.001	0.913	912.7	study	Phase3	study/STIM_016.jpg	99
1582.998	0.533	533.0	study	Phase3	study/STIM_017.jpg	99
1587.069	0.953	952.6	study	Phase3	study/STIM_017.jpg	100
1591.652	0.957	956.7	study	Phase3	study/STIM_017.jpg	99
1595.59	0.771	770.8	study	Phase3	study/STIM_018.jpg	99
1598.361	0.991	991.0	study	Phase3	study/STIM_018.jpg	99
1602.865	0.527	527.1	study	Phase3	study/STIM_018.jpg	100
1606.644	0.647	646.6	study	Phase3	study/STIM_019.jpg	99
1609.316	0.767	767.0	study	Phase3	study/STIM_019.jpg	100
1612.517	1.073	1073.2	study	Phase3	study/STIM_019.jpg	99
1617.375	0.572	571.9	study	Phase3	study/STIM_020.jpg	99
1621.801	0.654	653.8	study	Phase3	study/STIM_020.jpg	100
1625.933	0.507	506.7	study	Phase3	study/STIM_020.jpg	100
1629.555	1.038	1038.5	study	Phase3	study/STIM_021.jpg	99
1633.991	0.891	891.4	study	Phase3	study/STIM_021.jpg	100
1638.541	0.927	926.6	study	Phase3	study/STIM_021.jpg	100
1642.389	0.774	774.2	study	Phase3	study/STIM_022.jpg	100
1647.067	1.003	1002.7	study	Phase3	study/STIM_022.jpg	99
1650.746	0.624	623.6	study	Phase3	study/STIM_022.jpg	99
1654.205	0.57	569.9	study	Phase3	study/STIM_023.jpg	100
1657.939	1.012	1012.1	study	Phase3	study/STIM_023.jpg	99
1661.374	0.788	788.0	study	Phase3	study/STIM_023.jpg	100
1664.233	1.014	1014.1	study	Phase3	study/STIM_024.jpg	99
1668.14	0.995	994.6	study	Phase3	study/STIM_024.jpg	100
1671.345	0.788	787.7	study	Phase3	study/STIM_024.jpg	99
1674.515	0.965	964.9	study	Phase3	study/STIM_025.jpg	100
1678.068	0.703	703.0	study	Phase3	study/STIM_025.jpg	99
1681.991	0.518	518.1	study	Phase3	study/STIM_025.jpg	100
1684.636	0.929	929.0	study	Phase3	study/STIM_026.jpg	99
1688.011	0.557	556.9	study	Phase3	study/STIM_026.jpg	100
1691.604	0.644	644.0	study	Phase3	study/STIM_026.jpg	99
1695.413	0.594	593.7	study	Phase3	study/STIM_027.jpg	99
1698.187	0.686	686.2	study	Phase3	study/STIM_027.jpg	99
1701.36	0.531	530.6	study	Phase3	study/STIM_027.jpg	99
1704.507	0.794	794.5	study	Phase3	study/STIM_028.jpg	99
1707.507	0.517	517.4	study	Phase3	study/STIM_028.jpg	99
1711.424	0.888	888.1	study	Phase3	study/STIM_028.jpg	100
1716.137	0.951	950.8	study	Phase3	study/STIM_029.jpg	100
1719.305	0.931	931.4	study	Phase3	study/STIM_029.jpg	99
1723.46	0.704	703.9	study	Phase3	study/STIM_029.jpg	100
1727.516	0.768	768.0	test	Phase3	test/STIM_000.jpg	100
1731.224	1.024	1024.3	test	Phase3	test/STIM_000.jpg	99
1735.359	0.712	711.8	test	Phase3	test/STIM_000.jpg	99
1740.047	0.804	803.8	test	Phase3	test/STIM_001.jpg	100
1744.294	0.972	972.4	test	Phase3	test/STIM_001.jpg	99
1748.84	1.045	1044.6	test	Phase3	test/STIM_001.jpg	99
1752.03	0.998	997.7	test	Phase3	test/STIM_002.jpg	100
1755.241	1.058	1058.1	test	Phase3	test/STIM_002.jpg	100
1760.053	0.88	880.5	test	Phase3	test/STIM_002.jpg	99
1764.089	1.098	1097.9	test	Phase3	test/STIM_003.jpg	99
1768.815	1.042	1041.5	test	Phase3	test/STIM_003.jpg	100
1772.17	1.108	1108.5	test	Phase3	test/STIM_003.jpg	100
1776.464	1.091	1090.6	test	Phase3	test/STIM_004.jpg	99
1780.799	0.899	899.0	test	Phase3	test/STIM_004.jpg	99
1784.324	0.706	706.1	test	Phase3	test/STIM_004.jpg	99
1788.647	0.678	677.7	test	Phase3	test/STIM_005.jpg	100
1792.276	1.038	1037.5	test	Phase3	test/STIM_005.jpg	100
1796.998	0.519	518.7	test	Phase3	test/STIM_005.jpg	100
1800.951	0.69	690.1	test	Phase3	test/STIM_006.jpg	99
1805.152	0.942	942.1	test	Phase3	test/STIM_006.jpg	100
1809.477	0.836	835.8	test	Phase3	test/STIM_006.jpg	100
1813.487	0.582	582.2	test	Phase3	test/STIM_007.jpg	99
1816.452	0.525	524.9	test	Phase3	test/STIM_007.jpg	99
1819.714	0.831	830.7	test	Phase3	test/STIM_007.jpg	99
1822.703	0.654	653.9	test	Phase3	test/STIM_008.jpg	100
1826.056	0.86	859.8	test	Phase3	test/STIM_008.jpg	99
1829.752	0.705	705.4	test	Phase3	test/STIM_008.jpg	100
1834.033	0.574	574.4	test	Phase3	test/STIM_009.jpg	99
1837.355	0.901	901.1	test	Phase3	test/STIM_009.jpg	99
1840.949	0.582	582.4	test	Phase3	test/STIM_009.jpg	99
1844.894	0.817	816.6	test	Phase3	test/STIM_010.jpg	100
1849.561	0.926	926.5	test	Phase3	test/STIM_010.jpg	99
1852.543	0.844	843.5	test	Phase3	test/STIM_010.jpg	99
1855.78	0.688	688.0	test	Phase3	test/STIM_011.jpg	100
1859.727	0.988	988.5	test	Phase3	test/STIM_011.jpg	99
1863.25	0.802	801.6	test	Phase3	test/STIM_011.jpg	100
1868.035	0.986	986.0	test	Phase3	test/STIM_012.jpg	100
1873.017	0.609	609.0	test	Phase3	test/STIM_012.jpg	100
1876.384	0.847	847.2	test	Phase3	test/STIM_012.jpg	100
1879.836	0.58	580.3	test	Phase3	test/STIM_013.jpg	99
1882.468	0.654	654.5	test	Phase3	test/STIM_013.jpg	100
1886.593	1.052	1052.3	test	Phase3	test/STIM_013.jpg	100
1890.274	0.577	577.4	test	Phase3	test/STIM_014.jpg	99
1893.323	1.038	1038.3	test	Phase3	test/STIM_014.jpg	99
1896.384	0.887	887.1	test	Phase3	test/STIM_014.jpg	99
1900.108	1.084	1083.6	test	Phase3	test/STIM_015.jpg	100
1904.415	0.926	926.5	test	Phase3	test/STIM_015.jpg	99
1907.529	0.744	743.7	test	Phase3	test/STIM_015.jpg	99
1910.319	0.724	724.2	test	Phase3	test/STIM_016.jpg	100
1913.144	1.106	1106.3	test	Phase3	test/STIM_016.jpg	99
1917.725	1.051	1050.8	test	Phase3	test/STIM_016.jpg	100
1921.652	0.812	811.5	test	Phase3	test/STIM_017.jpg	99
1925.224	1.001	1000.9	test	Phase3	test/STIM_017.jpg	99
1928.592	1.04	1040.0	test	Phase3	test/STIM_017.jpg	100
1932.829	1.105	1104.7	test	Phase3	test/STIM_018.jpg	99
1936.227	0.967	967.4	test	Phase3	test/STIM_018.jpg	99
1940.918	1.056	1056.1	test	Phase3	test/STIM_018.jpg	99
1945.952	0.683	683.4	test	Phase3	test/STIM_019.jpg	99
1948.787	1.017	1016.6	test	Phase3	test/STIM_019.jpg	100
1952.319	0.928	928.0	test	Phase3	test/STIM_019.jpg	99
1955.641	0.747	747.3	test	Phase3	test/STIM_020.jpg	99
1959.073	0.618	618.5	test	Phase3	test/STIM_020.jpg	99
1962.684	0.561	561.1	test	Phase3	test/STIM_020.jpg	99
1965.368	0.982	982.1	test	Phase3	test/STIM_021.jpg	100
1970.297	0.737	737.1	test	Phase3	test/STIM_021.jpg	100
1973.645	0.665	664.6	test	Phase3	test/STIM_021.jpg	100
1977.968	0.797	797.4	test	Phase3	test/STIM_022.jpg	100
1982.403	1.039	1039.1	test	Phase3	test/STIM_022.jpg	100
1985.536	0.805	805.2	test	Phase3	test/STIM_022.jpg	100
1990.026	0.894	893.5	test	Phase3	test/STIM_023.jpg	99
1994.447	0.799	798.7	test	Phase3	test/STIM_023.jpg	99
1998.413	0.828	827.7	test	Phase3	test/STIM_023.jpg	99
2001.624	1.03	1029.8	test	Phase3	test/STIM_024.jpg	100
2004.761	0.603	603.1	test	Phase3	test/STIM_024.jpg	99
2009.129	0.996	996.4	test	Phase3	test/STIM_024.jpg	100
2012.657	0.764	763.7	test	Phase3	test/STIM_025.jpg	99
2016.082	1.066	1066.2	test	Phase3	test/STIM_025.jpg	100
2021.071	0.863	862.9	test	Phase3	test/STIM_025.jpg	99
2025.325	0.61	610.1	test	Phase3	test/STIM_026.jpg	100
2029.873	0.821	820.8	test	Phase3	test/STIM_026.jpg	100
2034.673	0.723	723.2	test	Phase3	test/STIM_026.jpg	99
2037.946	1.078	1078.0	test	Phase3	test/STIM_027.jpg	99
2042.539	0.639	638.9	test	Phase3	test/STIM_027.jpg	100
2046.452	0.964	963.5	test	Phase3	test/STIM_027.jpg	99
2050.834	0.891	890.9	test	Phase3	test/STIM_028.jpg	100
2054.817	1.06	1059.5	test	Phase3	test/STIM_028.jpg	100
2058.349	0.785	784.9	test	Phase3	test/STIM_028.jpg	99
2061.892	0.771	770.7	test	Phase3	test/STIM_029.jpg	100
2066.634	0.633	633.4	test	Phase3	test/STIM_029.jpg	99
2071.09	1.057	1056.8	test	Phase3	test/STIM_029.jpg	99
