onset	duration	accuracy	trial_type	learning_stage	stimulus
0.0	1.058	correct	generate	Run1	generate/STIM_000.jpg
4.827	2.349	correct	generate	Run1	generate/STIM_000.jpg
10.655	1.489	correct	generate	Run1	generate/STIM_000.jpg
14.215	1.262	correct	generate	Run1	generate/STIM_000.jpg
17.825	1.636	incorrect	generate	Run1	generate/STIM_000.jpg
23.264	1.901	correct	generate	Run1	generate/STIM_001.jpg
28.734	1.955	incorrect	generate	Run1	generate/STIM_001.jpg
34.346	1.486	incorrect	generate	Run1	generate/STIM_001.jpg
38.548	2.008	correct	generate	Run1	generate/STIM_001.jpg
42.806	1.22	correct	generate	Run1	generate/STIM_001.jpg
46.486	1.536	correct	generate	Run1	generate/STIM_002.jpg
51.083	1.094	correct	generate	Run1	generate/STIM_002.jpg
56.173	2.041	incorrect	generate	Run1	generate/STIM_002.jpg
60.977	1.993	incorrect	generate	Run1	generate/STIM_002.jpg
65.693	2.038	incorrect	generate	Run1	generate/STIM_002.jpg
70.681	1.553	incorrect	generate	Run1	generate/STIM_003.jpg
76.028	1.731	correct	generate	Run1	generate/STIM_003.jpg
80.934	1.988	correct	generate	Run1	generate/STIM_003.jpg
85.275	1.108	correct	generate	Run1	generate/STIM_003.jpg
90.042	1.531	correct	generate	Run1	generate/STIM_003.jpg
93.669	2.487	correct	generate	Run1	generate/STIM_004.jpg
99.69	2.37	incorrect	generate	Run1	generate/STIM_004.jpg
104.648	1.422	incorrect	generate	Run1	generate/STIM_004.jpg
108.871	1.294	incorrect	generate	Run1	generate/STIM_004.jpg
112.265	1.208	correct	generate	Run1	generate/STIM_004.jpg
116.135	1.101	correct	generate	Run1	generate/STIM_005.jpg
120.88	1.105	correct	generate	Run1	generate/STIM_005.jpg
125.22	1.238	correct	generate	Run1	generate/STIM_005.jpg
128.998	1.375	incorrect	generate	Run1	generate/STIM_005.jpg
132.78	1.339	incorrect	generate	Run1	generate/STIM_005.jpg
136.27	2.034	correct	generate	Run1	generate/STIM_006.jpg
141.86	2.303	incorrect	generate	Run1	generate/STIM_006.jpg
148.141	1.859	incorrect	generate	Run1	generate/STIM_006.jpg
152.131	1.857	incorrect	generate	Run1	generate/STIM_006.jpg
156.966	1.881	correct	generate	Run1	generate/STIM_006.jpg
161.112	1.962	correct	generate	Run1	generate/STIM_007.jpg
166.85	1.669	incorrect	generate	Run1	generate/STIM_007.jpg
172.161	0.998	correct	generate	Run1	generate/STIM_007.jpg
177.02	1.616	correct	generate	Run1	generate/STIM_007.jpg
182.336	1.369	correct	generate	Run1	generate/STIM_007.jpg
186.121	1.122	incorrect	generate	Run1	generate/STIM_008.jpg
190.222	1.318	incorrect	generate	Run1	generate/STIM_008.jpg
194.126	1.503	incorrect	generate	Run1	generate/STIM_008.jpg
197.7	1.765	correct	generate	Run1	generate/STIM_008.jpg
201.93	0.932	incorrect	generate	Run1	generate/STIM_008.jpg
205.755	2.278	correct	generate	Run1	generate/STIM_009.jpg
210.866	1.482	incorrect	generate	Run1	generate/STIM_009.jpg
214.946	2.031	incorrect	generate	Run1	generate/STIM_009.jpg
219.531	1.386	correct	generate	Run1	generate/STIM_009.jpg
224.005	0.866	correct	generate	Run1	generate/STIM_009.jpg
226.967	1.745	incorrect	generate	Run1	generate/STIM_010.jpg
232.467	1.599	correct	generate	Run1	generate/STIM_010.jpg
236.121	1.871	incorrect	generate	Run1	generate/STIM_010.jpg
240.33	1.317	incorrect	generate	Run1	generate/STIM_010.jpg
244.193	1.218	incorrect	generate	Run1	generate/STIM_010.jpg
248.948	2.269	incorrect	generate	Run1	generate/STIM_011.jpg
255.176	2.23	incorrect	generate	Run1	generate/STIM_011.jpg
259.72	0.986	correct	generate	Run1	generate/STIM_011.jpg
262.857	1.019	incorrect	generate	Run1	generate/STIM_011.jpg
266.592	1.095	correct	generate	Run1	generate/STIM_011.jpg
269.811	1.142	incorrect	generate	Run1	generate/STIM_012.jpg
273.56	2.335	incorrect	generate	Run1	generate/STIM_012.jpg
278.734	1.526	correct	generate	Run1	generate/STIM_012.jpg
282.779	0.896	correct	generate	Run1	generate/STIM_012.jpg
286.434	1.468	incorrect	generate	Run1	generate/STIM_012.jpg
291.431	1.28	incorrect	generate	Run1	generate/STIM_013.jpg
295.643	1.857	correct	generate	Run1	generate/STIM_013.jpg
300.912	1.582	correct	generate	Run1	generate/STIM_013.jpg
305.714	1.352	correct	generate	Run1	generate/STIM_013.jpg
310.117	1.65	incorrect	generate	Run1	generate/STIM_013.jpg
314.982	1.464	incorrect	generate	Run1	generate/STIM_014.jpg
319.047	1.467	correct	generate	Run1	generate/STIM_014.jpg
323.77	2.174	correct	generate	Run1	generate/STIM_014.jpg
329.278	1.465	correct	generate	Run1	generate/STIM_014.jpg
333.528	0.979	incorrect	generate	Run1	generate/STIM_014.jpg
337.144	1.362	incorrect	generate	Run1	generate/STIM_015.jpg
341.441	1.792	incorrect	generate	Run1	generate/STIM_015.jpg
346.135	1.087	correct	generate	Run1	generate/STIM_015.jpg
350.248	1.966	correct	generate	Run1	generate/STIM_015.jpg
355.286	1.808	incorrect	generate	Run1	generate/STIM_015.jpg
360.416	2.023	correct	generate	Run1	generate/STIM_016.jpg
364.44	2.204	incorrect	generate	Run1	generate/STIM_016.jpg
369.646	1.969	correct	generate	Run1	generate/STIM_016.jpg
374.06	1.064	correct	generate	Run1	generate/STIM_016.jpg
378.305	1.635	incorrect	generate	Run1	generate/STIM_016.jpg
383.213	1.145	correct	generate	Run1	generate/STIM_017.jpg
386.618	2.13	incorrect	generate	Run1	generate/STIM_017.jpg
392.247	1.448	incorrect	generate	Run1	generate/STIM_017.jpg
395.921	0.913	correct	generate	Run1	generate/STIM_017.jpg
398.878	1.227	incorrect	generate	Run1	generate/STIM_017.jpg
403.282	1.683	correct	generate	Run1	generate/STIM_018.jpg
408.74	1.221	incorrect	generate	Run1	generate/STIM_018.jpg
413.687	1.019	correct	generate	Run1	generate/STIM_018.jpg
417.506	1.296	correct	generate	Run1	generate/STIM_018.jpg
421.348	0.854	incorrect	generate	Run1	generate/STIM_018.jpg
425.081	1.894	incorrect	generate	Run1	generate/STIM_019.jpg
430.433	2.42	correct	generate	Run1	generate/STIM_019.jpg
435.273	1.889	incorrect	generate	Run1	generate/STIM_019.jpg
440.05	2.123	incorrect	generate	Run1	generate/STIM_019.jpg
444.458	1.68	incorrect	generate	Run1	generate/STIM_019.jpg
449.982	1.971	correct	generate	Run1	generate/STIM_020.jpg
453.986	1.178	incorrect	generate	Run1	generate/STIM_020.jpg
458.131	2.176	correct	generate	Run1	generate/STIM_020.jpg
463.234	1.766	correct	generate	Run1	generate/STIM_020.jpg
468.58	0.977	correct	generate	Run1	generate/STIM_020.jpg
473.055	2.505	correct	generate	Run1	generate/STIM_021.jpg
477.811	2.349	incorrect	generate	Run1	generate/STIM_021.jpg
483.454	1.986	correct	generate	Run1	generate/STIM_021.jpg
487.442	2.179	incorrect	generate	Run1	generate/STIM_021.jpg
493.327	1.201	incorrect	generate	Run1	generate/STIM_021.jpg
497.673	1.312	incorrect	generate	Run1	generate/STIM_022.jpg
501.857	1.441	correct	generate	Run1	generate/STIM_022.jpg
506.64	1.194	correct	generate	Run1	generate/STIM_022.jpg
510.058	1.098	correct	generate	Run1	generate/STIM_022.jpg
514.834	1.962	incorrect	generate	Run1	generate/STIM_022.jpg
520.045	1.844	correct	generate	Run1	generate/STIM_023.jpg
525.675	1.744	correct	generate	Run1	generate/STIM_023.jpg
529.598	1.701	correct	generate	Run1	generate/STIM_023.jpg
535.282	1.479	correct	generate	Run1	generate/STIM_023.jpg
540.557	1.507	correct	generate	Run1	generate/STIM_023.jpg
545.528	2.077	incorrect	generate	Run1	generate/STIM_024.jpg
551.271	1.372	correct	generate	Run1	generate/STIM_024.jpg
556.474	2.092	correct	generate	Run1	generate/STIM_024.jpg
561.952	1.421	correct	generate	Run1	generate/STIM_024.jpg
565.997	1.065	incorrect	generate	Run1	generate/STIM_024.jpg
570.673	0.706	incorrect	repeat	Run1	repeat/STIM_000.jpg
573.714	0.717	correct	repeat	Run1	repeat/STIM_000.jpg
577.203	0.726	correct	repeat	Run1	repeat/STIM_000.jpg
580.221	0.58	incorrect	repeat	Run1	repeat/STIM_000.jpg
584.128	0.664	correct	repeat	Run1	repeat/STIM_000.jpg
587.396	0.657	incorrect	repeat	Run1	repeat/STIM_001.jpg
590.152	0.579	correct	repeat	Run1	repeat/STIM_001.jpg
593.069	0.67	incorrect	repeat	Run1	repeat/STIM_001.jpg
597.544	0.828	correct	repeat	Run1	repeat/STIM_001.jpg
600.509	0.435	correct	repeat	Run1	repeat/STIM_001.jpg
603.942	0.818	correct	repeat	Run1	repeat/STIM_002.jpg
607.584	0.577	incorrect	repeat	Run1	repeat/STIM_002.jpg
612.01	0.759	incorrect	repeat	Run1	repeat/STIM_002.jpg
614.905	0.844	incorrect	repeat	Run1	repeat/STIM_002.jpg
617.978	0.827	correct	repeat	Run1	repeat/STIM_002.jpg
622.287	0.622	incorrect	repeat	Run1	repeat/STIM_003.jpg
625.607	0.616	correct	repeat	Run1	repeat/STIM_003.jpg
628.602	0.7	incorrect	repeat	Run1	repeat/STIM_003.jpg
631.682	0.673	correct	repeat	Run1	repeat/STIM_003.jpg
635.697	0.691	correct	repeat	Run1	repeat/STIM_003.jpg
640.282	0.439	incorrect	repeat	Run1	repeat/STIM_004.jpg
644.641	0.508	correct	repeat	Run1	repeat/STIM_004.jpg
648.71	0.686	correct	repeat	Run1	repeat/STIM_004.jpg
651.405	0.774	correct	repeat	Run1	repeat/STIM_004.jpg
655.691	0.605	incorrect	repeat	Run1	repeat/STIM_004.jpg
658.836	0.693	correct	repeat	Run1	repeat/STIM_005.jpg
661.851	0.654	correct	repeat	Run1	repeat/STIM_005.jpg
666.214	0.758	correct	repeat	Run1	repeat/STIM_005.jpg
670.101	0.764	incorrect	repeat	Run1	repeat/STIM_005.jpg
673.694	0.569	correct	repeat	Run1	repeat/STIM_005.jpg
677.497	0.783	correct	repeat	Run1	repeat/STIM_006.jpg
680.771	0.752	correct	repeat	Run1	repeat/STIM_006.jpg
684.956	0.666	incorrect	repeat	Run1	repeat/STIM_006.jpg
688.727	0.719	incorrect	repeat	Run1	repeat/STIM_006.jpg
692.804	0.438	incorrect	repeat	Run1	repeat/STIM_006.jpg
696.983	0.721	incorrect	repeat	Run1	repeat/STIM_007.jpg
700.439	0.851	correct	repeat	Run1	repeat/STIM_007.jpg
703.739	0.544	correct	repeat	Run1	repeat/STIM_007.jpg
707.21	0.517	correct	repeat	Run1	repeat/STIM_007.jpg
709.747	0.549	incorrect	repeat	Run1	repeat/STIM_007.jpg
712.969	0.437	correct	repeat	Run1	repeat/STIM_008.jpg
716.115	0.592	incorrect	repeat	Run1	repeat/STIM_008.jpg
720.41	0.514	correct	repeat	Run1	repeat/STIM_008.jpg
724.727	0.734	correct	repeat	Run1	repeat/STIM_008.jpg
727.59	0.613	correct	repeat	Run1	repeat/STIM_008.jpg
730.219	0.856	incorrect	repeat	Run1	repeat/STIM_009.jpg
733.354	0.482	incorrect	repeat	Run1	repeat/STIM_009.jpg
736.899	0.467	correct	repeat	Run1	repeat/STIM_009.jpg
740.029	0.74	correct	repeat	Run1	repeat/STIM_009.jpg
743.307	0.671	incorrect	repeat	Run1	repeat/STIM_009.jpg
746.72	0.864	correct	repeat	Run1	repeat/STIM_010.jpg
750.68	0.635	correct	repeat	Run1	repeat/STIM_010.jpg
754.893	0.461	correct	repeat	Run1	repeat/STIM_010.jpg
759.065	0.56	correct	repeat	Run1	repeat/STIM_010.jpg
763.391	0.724	incorrect	repeat	Run1	repeat/STIM_010.jpg
766.415	0.541	correct	repeat	Run1	repeat/STIM_011.jpg
769.094	0.663	incorrect	repeat	Run1	repeat/STIM_011.jpg
773.118	0.83	incorrect	repeat	Run1	repeat/STIM_011.jpg
777.377	0.776	correct	repeat	Run1	repeat/STIM_011.jpg
780.772	0.725	correct	repeat	Run1	repeat/STIM_011.jpg
784.558	0.489	correct	repeat	Run1	repeat/STIM_012.jpg
788.094	0.596	correct	repeat	Run1	repeat/STIM_012.jpg
792.55	0.797	incorrect	repeat	Run1	repeat/STIM_012.jpg
796.315	0.515	incorrect	repeat	Run1	repeat/STIM_012.jpg
799.037	0.692	incorrect	repeat	Run1	repeat/STIM_012.jpg
802.91	0.799	correct	repeat	Run1	repeat/STIM_013.jpg
806.561	0.512	correct	repeat	Run1	repeat/STIM_013.jpg
809.968	0.839	incorrect	repeat	Run1	repeat/STIM_013.jpg
814.659	0.479	incorrect	repeat	Run1	repeat/STIM_013.jpg
817.705	0.775	correct	repeat	Run1	repeat/STIM_013.jpg
820.743	0.78	correct	repeat	Run1	repeat/STIM_014.jpg
824.263	0.513	correct	repeat	Run1	repeat/STIM_014.jpg
828.073	0.77	incorrect	repeat	Run1	repeat/STIM_014.jpg
831.043	0.821	correct	repeat	Run1	repeat/STIM_014.jpg
833.92	0.519	correct	repeat	Run1	repeat/STIM_014.jpg
838.078	1.711	correct	generate	Run2	generate/STIM_000.jpg
843.166	1.087	correct	generate	Run2	generate/STIM_000.jpg
846.348	1.941	incorrect	generate	Run2	generate/STIM_000.jpg
850.923	1.093	incorrect	generate	Run2	generate/STIM_000.jpg
855.166	1.421	incorrect	generate	Run2	generate/STIM_000.jpg
859.916	2.086	correct	generate	Run2	generate/STIM_001.jpg
864.224	0.895	incorrect	generate	Run2	generate/STIM_001.jpg
868.204	1.848	incorrect	generate	Run2	generate/STIM_001.jpg
872.775	1.297	incorrect	generate	Run2	generate/STIM_001.jpg
876.099	1.347	incorrect	generate	Run2	generate/STIM_001.jpg
880.414	1.11	incorrect	generate	Run2	generate/STIM_002.jpg
884.323	1.185	incorrect	generate	Run2	generate/STIM_002.jpg
888.965	1.135	correct	generate	Run2	generate/STIM_002.jpg
893.303	1.001	correct	generate	Run2	generate/STIM_002.jpg
897.453	0.795	correct	generate	Run2	generate/STIM_002.jpg
901.812	1.154	incorrect	generate	Run2	generate/STIM_003.jpg
905.407	1.793	incorrect	generate	Run2	generate/STIM_003.jpg
909.828	1.81	correct	generate	Run2	generate/STIM_003.jpg
915.462	1.795	incorrect	generate	Run2	generate/STIM_003.jpg
920.887	1.604	correct	generate	Run2	generate/STIM_003.jpg
925.074	1.219	incorrect	generate	Run2	generate/STIM_004.jpg
929.633	1.14	correct	generate	Run2	generate/STIM_004.jpg
933.513	1.901	correct	generate	Run2	generate/STIM_004.jpg
939.303	1.534	correct	generate	Run2	generate/STIM_004.jpg
943.233	0.877	incorrect	generate	Run2	generate/STIM_004.jpg
946.531	1.084	correct	generate	Run2	generate/STIM_005.jpg
951.44	1.054	correct	generate	Run2	generate/STIM_005.jpg
955.279	0.83	correct	generate	Run2	generate/STIM_005.jpg
960.012	1.614	correct	generate	Run2	generate/STIM_005.jpg
965.4	1.269	correct	generate	Run2	generate/STIM_005.jpg
970.449	1.65	correct	generate	Run2	generate/STIM_006.jpg
975.095	1.425	correct	generate	Run2	generate/STIM_006.jpg
980.226	1.44	incorrect	generate	Run2	generate/STIM_006.jpg
984.327	0.834	correct	generate	Run2	generate/STIM_006.jpg
988.515	1.278	incorrect	generate	Run2	generate/STIM_006.jpg
992.187	1.976	incorrect	generate	Run2	generate/STIM_007.jpg
997.172	0.995	incorrect	generate	Run2	generate/STIM_007.jpg
1000.181	1.408	correct	generate	Run2	generate/STIM_007.jpg
1003.874	0.932	correct	generate	Run2	generate/STIM_007.jpg
1008.292	0.813	correct	generate	Run2	generate/STIM_007.jpg
1011.193	1.442	correct	generate	Run2	generate/STIM_008.jpg
1015.56	0.856	incorrect	generate	Run2	generate/STIM_008.jpg
1020.077	1.922	correct	generate	Run2	generate/STIM_008.jpg
1025.322	0.794	correct	generate	Run2	generate/STIM_008.jpg
1028.763	1.416	incorrect	generate	Run2	generate/STIM_008.jpg
1032.545	1.792	incorrect	generate	Run2	generate/STIM_009.jpg
1037.904	1.824	incorrect	generate	Run2	generate/STIM_009.jpg
1043.434	0.902	correct	generate	Run2	generate/STIM_009.jpg
1046.921	1.324	correct	generate	Run2	generate/STIM_009.jpg
1051.906	0.763	correct	generate	Run2	generate/STIM_009.jpg
1056.32	1.768	correct	generate	Run2	generate/STIM_010.jpg
1061.269	1.593	correct	generate	Run2	generate/STIM_010.jpg
1065.344	1.229	correct	generate	Run2	generate/STIM_010.jpg
1069.186	1.259	correct	generate	Run2	generate/STIM_010.jpg
1073.36	0.93	incorrect	generate	Run2	generate/STIM_010.jpg
1076.491	1.582	incorrect	generate	Run2	generate/STIM_011.jpg
1081.241	1.733	correct	generate	Run2	generate/STIM_011.jpg
1085.09	0.96	incorrect	generate	Run2	generate/STIM_011.jpg
1088.236	0.837	incorrect	generate	Run2	generate/STIM_011.jpg
1091.076	1.535	correct	generate	Run2	generate/STIM_011.jpg
1095.012	0.904	incorrect	generate	Run2	generate/STIM_012.jpg
1099.873	1.6	correct	generate	Run2	generate/STIM_012.jpg
1103.864	0.976	correct	generate	Run2	generate/STIM_012.jpg
1107.493	1.67	correct	generate	Run2	generate/STIM_012.jpg
1111.24	0.862	incorrect	generate	Run2	generate/STIM_012.jpg
1114.821	1.246	correct	generate	Run2	generate/STIM_013.jpg
1120.023	1.969	correct	generate	Run2	generate/STIM_013.jpg
1125.44	1.071	incorrect	generate	Run2	generate/STIM_013.jpg
1128.549	1.397	correct	generate	Run2	generate/STIM_013.jpg
1132.379	0.903	correct	generate	Run2	generate/STIM_013.jpg
1135.534	1.643	correct	generate	Run2	generate/STIM_014.jpg
1140.905	1.884	correct	generate	Run2	generate/STIM_014.jpg
1146.393	1.89	incorrect	generate	Run2	generate/STIM_014.jpg
1151.162	0.875	correct	generate	Run2	generate/STIM_014.jpg
1155.099	1.363	incorrect	generate	Run2	generate/STIM_014.jpg
1159.63	1.506	correct	generate	Run2	generate/STIM_015.jpg
1163.536	0.849	correct	generate	Run2	generate/STIM_015.jpg
1167.783	1.331	incorrect	generate	Run2	generate/STIM_015.jpg
1172.536	1.295	correct	generate	Run2	generate/STIM_015.jpg
1176.509	1.593	correct	generate	Run2	generate/STIM_015.jpg
1181.555	1.992	correct	generate	Run2	generate/STIM_016.jpg
1186.684	1.742	correct	generate	Run2	generate/STIM_016.jpg
1190.859	1.09	incorrect	generate	Run2	generate/STIM_016.jpg
1194.516	1.432	correct	generate	Run2	generate/STIM_016.jpg
1199.617	1.336	incorrect	generate	Run2	generate/STIM_016.jpg
1203.257	1.47	incorrect	generate	Run2	generate/STIM_017.jpg
1208.278	1.07	correct	generate	Run2	generate/STIM_017.jpg
1211.477	1.174	correct	generate	Run2	generate/STIM_017.jpg
1216.03	1.378	correct	generate	Run2	generate/STIM_017.jpg
1221.121	1.218	correct	generate	Run2	generate/STIM_017.jpg
1224.722	1.875	correct	generate	Run2	generate/STIM_018.jpg
1229.209	1.799	correct	generate	Run2	generate/STIM_018.jpg
1233.965	1.888	correct	generate	Run2	generate/STIM_018.jpg
1238.702	1.071	incorrect	generate	Run2	generate/STIM_018.jpg
1242.566	1.785	correct	generate	Run2	generate/STIM_018.jpg
1247.82	1.36	correct	generate	Run2	generate/STIM_019.jpg
1251.354	1.452	correct	generate	Run2	generate/STIM_019.jpg
1255.183	1.459	correct	generate	Run2	generate/STIM_019.jpg
1260.076	1.008	correct	generate	Run2	generate/STIM_019.jpg
1264.554	1.492	correct	generate	Run2	generate/STIM_019.jpg
1269.434	1.633	incorrect	generate	Run2	generate/STIM_020.jpg
1274.388	1.635	correct	generate	Run2	generate/STIM_020.jpg
1278.388	1.328	incorrect	generate	Run2	generate/STIM_020.jpg
1283.333	1.671	correct	generate	Run2	generate/STIM_020.jpg
1288.086	1.766	correct	generate	Run2	generate/STIM_020.jpg
1291.912	1.267	correct	generate	Run2	generate/STIM_021.jpg
1296.627	1.634	incorrect	generate	Run2	generate/STIM_021.jpg
1301.878	1.61	incorrect	generate	Run2	generate/STIM_021.jpg
1306.582	0.971	correct	generate	Run2	generate/STIM_021.jpg
1310.319	1.415	correct	generate	Run2	generate/STIM_021.jpg
1315.522	2.124	correct	generate	Run2	generate/STIM_022.jpg
1320.023	1.956	correct	generate	Run2	generate/STIM_022.jpg
1324.339	1.102	correct	generate	Run2	generate/STIM_022.jpg
1328.77	0.959	correct	generate	Run2	generate/STIM_022.jpg
1333.517	1.53	incorrect	generate	Run2	generate/STIM_022.jpg
1337.236	0.93	correct	generate	Run2	generate/STIM_023.jpg
1340.857	1.132	incorrect	generate	Run2	generate/STIM_023.jpg
1345.35	0.801	correct	generate	Run2	generate/STIM_023.jpg
1349.121	1.197	correct	generate	Run2	generate/STIM_023.jpg
1352.602	1.214	incorrect	generate	Run2	generate/STIM_023.jpg
1356.089	1.105	correct	generate	Run2	generate/STIM_024.jpg
1359.668	1.919	correct	generate	Run2	generate/STIM_024.jpg
1363.834	1.449	incorrect	generate	Run2	generate/STIM_024.jpg
1367.811	0.919	correct	generate	Run2	generate/STIM_024.jpg
1372.692	1.424	correct	generate	Run2	generate/STIM_024.jpg
1376.985	0.729	incorrect	repeat	Run2	repeat/STIM_000.jpg
1379.85	0.734	incorrect	repeat	Run2	repeat/STIM_000.jpg
1383.197	0.697	incorrect	repeat	Run2	repeat/STIM_000.jpg
1386.87	0.866	correct	repeat	Run2	repeat/STIM_000.jpg
1391.592	0.708	correct	repeat	Run2	repeat/STIM_000.jpg
1395.104	0.779	correct	repeat	Run2	repeat/STIM_001.jpg
1399.855	0.767	correct	repeat	Run2	repeat/STIM_001.jpg
1402.646	0.603	correct	repeat	Run2	repeat/STIM_001.jpg
1405.418	0.853	correct	repeat	Run2	repeat/STIM_001.jpg
1409.172	0.508	correct	repeat	Run2	repeat/STIM_001.jpg
1411.785	0.819	incorrect	repeat	Run2	repeat/STIM_002.jpg
1415.35	0.593	correct	repeat	Run2	repeat/STIM_002.jpg
1419.79	0.788	incorrect	repeat	Run2	repeat/STIM_002.jpg
1423.396	0.494	correct	repeat	Run2	repeat/STIM_002.jpg
1426.223	0.807	correct	repeat	Run2	repeat/STIM_002.jpg
1429.399	0.822	incorrect	repeat	Run2	repeat/STIM_003.jpg
1433.034	0.703	incorrect	repeat	Run2	repeat/STIM_003.jpg
1436.772	0.746	incorrect	repeat	Run2	repeat/STIM_003.jpg
1439.702	0.55	correct	repeat	Run2	repeat/STIM_003.jpg
1443.844	0.504	correct	repeat	Run2	repeat/STIM_003.jpg
1447.861	0.455	correct	repeat	Run2	repeat/STIM_004.jpg
1451.178	0.681	incorrect	repeat	Run2	repeat/STIM_004.jpg
1455.127	0.76	incorrect	repeat	Run2	repeat/STIM_004.jpg
1459.389	0.704	correct	repeat	Run2	repeat/STIM_004.jpg
1462.586	0.761	correct	repeat	Run2	repeat/STIM_004.jpg
1466.563	0.699	correct	repeat	Run2	repeat/STIM_005.jpg
1469.4	0.853	incorrect	repeat	Run2	repeat/STIM_005.jpg
1472.981	0.605	incorrect	repeat	Run2	repeat/STIM_005.jpg
1475.587	0.616	correct	repeat	Run2	repeat/STIM_005.jpg
1478.582	0.707	correct	repeat	Run2	repeat/STIM_005.jpg
1481.717	0.744	correct	repeat	Run2	repeat/STIM_006.jpg
1485.182	0.626	correct	repeat	Run2	repeat/STIM_006.jpg
1489.558	0.634	correct	repeat	Run2	repeat/STIM_006.jpg
1493.848	0.475	correct	repeat	Run2	repeat/STIM_006.jpg
1497.859	0.475	incorrect	repeat	Run2	repeat/STIM_006.jpg
1501.767	0.491	correct	repeat	Run2	repeat/STIM_007.jpg
1504.471	0.765	incorrect	repeat	Run2	repeat/STIM_007.jpg
1508.932	0.796	correct	repeat	Run2	repeat/STIM_007.jpg
1512.037	0.509	incorrect	repeat	Run2	repeat/STIM_007.jpg
1516.357	0.561	incorrect	repeat	Run2	repeat/STIM_007.jpg
1519.563	0.493	incorrect	repeat	Run2	repeat/STIM_008.jpg
1523.274	0.864	correct	repeat	Run2	repeat/STIM_008.jpg
1526.144	0.639	correct	repeat	Run2	repeat/STIM_008.jpg
1529.052	0.44	correct	repeat	Run2	repeat/STIM_008.jpg
1532.052	0.814	correct	repeat	Run2	repeat/STIM_008.jpg
1535.017	0.48	incorrect	repeat	Run2	repeat/STIM_009.jpg
1538.092	0.647	correct	repeat	Run2	repeat/STIM_009.jpg
1540.902	0.477	incorrect	repeat	Run2	repeat/STIM_009.jpg
1544.833	0.646	correct	repeat	Run2	repeat/STIM_009.jpg
1549.314	0.523	correct	repeat	Run2	repeat/STIM_009.jpg
1552.818	0.613	incorrect	repeat	Run2	repeat/STIM_010.jpg
1555.598	0.837	incorrect	repeat	Run2	repeat/STIM_010.jpg
1559.461	0.615	incorrect	repeat	Run2	repeat/STIM_010.jpg
1563.204	0.662	correct	repeat	Run2	repeat/STIM_010.jpg
1567.751	0.862	incorrect	repeat	Run2	repeat/STIM_010.jpg
1571.076	0.463	correct	repeat	Run2	repeat/STIM_011.jpg
1574.197	0.469	correct	repeat	Run2	repeat/STIM_011.jpg
1577.919	0.474	correct	repeat	Run2	repeat/STIM_011.jpg
1582.364	0.765	incorrect	repeat	Run2	repeat/STIM_011.jpg
1585.145	0.572	correct	repeat	Run2	repeat/STIM_011.jpg
1589.43	0.834	correct	repeat	Run2	repeat/STIM_012.jpg
1593.698	0.831	correct	repeat	Run2	repeat/STIM_012.jpg
1597.956	0.776	incorrect	repeat	Run2	repeat/STIM_012.jpg
1602.51	0.602	correct	repeat	Run2	repeat/STIM_012.jpg
1605.901	0.632	incorrect	repeat	Run2	repeat/STIM_012.jpg
1609.069	0.504	incorrect	repeat	Run2	repeat/STIM_013.jpg
1612.671	0.858	incorrect	repeat	Run2	repeat/STIM_013.jpg
1617.346	0.559	correct	repeat	Run2	repeat/STIM_013.jpg
1620.661	0.825	correct	repeat	Run2	repeat/STIM_013.jpg
1624.111	0.602	incorrect	repeat	Run2	repeat/STIM_013.jpg
1628.201	0.771	incorrect	repeat	Run2	repeat/STIM_014.jpg
1632.246	0.597	incorrect	repeat	Run2	repeat/STIM_014.jpg
1635.714	0.645	correct	repeat	Run2	repeat/STIM_014.jpg
1639.364	0.636	correct	repeat	Run2	repeat/STIM_014.jpg
1642.693	0.708	correct	repeat	Run2	repeat/STIM_014.jpg
1647.0	1.449	correct	generate	Run3	generate/STIM_000.jpg
1650.715	1.43	incorrect	generate	Run3	generate/STIM_000.jpg
1654.155	1.503	correct	generate	Run3	generate/STIM_000.jpg
1658.743	0.865	incorrect	generate	Run3	generate/STIM_000.jpg
1662.21	1.728	correct	generate	Run3	generate/STIM_000.jpg
1667.675	0.971	incorrect	generate	Run3	generate/STIM_001.jpg
1672.399	1.713	correct	generate	Run3	generate/STIM_001.jpg
1676.337	1.268	incorrect	generate	Run3	generate/STIM_001.jpg
1680.158	1.337	incorrect	generate	Run3	generate/STIM_001.jpg
1683.732	1.354	incorrect	generate	Run3	generate/STIM_001.jpg
1688.076	1.684	correct	generate	Run3	generate/STIM_002.jpg
1693.128	0.923	correct	generate	Run3	generate/STIM_002.jpg
1697.54	1.436	correct	generate	Run3	generate/STIM_002.jpg
1702.084	1.605	correct	generate	Run3	generate/STIM_002.jpg
1706.834	1.648	correct	generate	Run3	generate/STIM_002.jpg
1712.224	0.985	correct	generate	Run3	generate/STIM_003.jpg
1716.051	1.109	correct	generate	Run3	generate/STIM_003.jpg
1720.706	1.612	incorrect	generate	Run3	generate/STIM_003.jpg
1725.41	0.734	incorrect	generate	Run3	generate/STIM_003.jpg
1728.645	1.519	correct	generate	Run3	generate/STIM_003.jpg
1732.929	0.803	correct	generate	Run3	generate/STIM_004.jpg
1737.521	1.448	correct	generate	Run3	generate/STIM_004.jpg
1741.396	0.954	correct	generate	Run3	generate/STIM_004.jpg
1745.751	1.079	correct	generate	Run3	generate/STIM_004.jpg
1749.739	0.962	correct	generate	Run3	generate/STIM_004.jpg
1754.388	1.773	incorrect	generate	Run3	generate/STIM_005.jpg
1758.652	1.208	correct	generate	Run3	generate/STIM_005.jpg
1762.54	1.228	correct	generate	Run3	generate/STIM_005.jpg
1767.046	1.327	correct	generate	Run3	generate/STIM_005.jpg
1770.433	1.593	correct	generate	Run3	generate/STIM_005.jpg
1775.429	1.201	correct	generate	Run3	generate/STIM_006.jpg
1779.931	1.413	correct	generate	Run3	generate/STIM_006.jpg
1785.101	1.103	correct	generate	Run3	generate/STIM_006.jpg
1789.845	1.123	correct	generate	Run3	generate/STIM_006.jpg
1794.378	0.958	incorrect	generate	Run3	generate/STIM_006.jpg
1797.724	1.5	correct	generate	Run3	generate/STIM_007.jpg
1802.722	0.812	incorrect	generate	Run3	generate/STIM_007.jpg
1806.308	0.852	incorrect	generate	Run3	generate/STIM_007.jpg
1811.112	1.39	correct	generate	Run3	generate/STIM_007.jpg
1815.482	1.621	incorrect	generate	Run3	generate/STIM_007.jpg
1820.743	0.894	correct	generate	Run3	generate/STIM_008.jpg
1823.962	1.56	correct	generate	Run3	generate/STIM_008.jpg
1828.198	0.817	incorrect	generate	Run3	generate/STIM_008.jpg
1832.075	1.819	correct	generate	Run3	generate/STIM_008.jpg
1835.931	0.808	incorrect	generate	Run3	generate/STIM_008.jpg
1840.009	1.683	correct	generate	Run3	generate/STIM_009.jpg
1843.933	1.572	incorrect	generate	Run3	generate/STIM_009.jpg
1848.763	1.402	correct	generate	Run3	generate/STIM_009.jpg
1853.443	0.858	correct	generate	Run3	generate/STIM_009.jpg
1857.229	0.784	incorrect	generate	Run3	generate/STIM_009.jpg
1861.674	1.022	correct	generate	Run3	generate/STIM_010.jpg
1865.374	1.407	incorrect	generate	Run3	generate/STIM_010.jpg
1870.161	1.691	correct	generate	Run3	generate/STIM_010.jpg
1874.458	0.908	correct	generate	Run3	generate/STIM_010.jpg
1879.313	1.195	correct	generate	Run3	generate/STIM_010.jpg
1883.84	1.753	incorrect	generate	Run3	generate/STIM_011.jpg
1888.527	1.004	correct	generate	Run3	generate/STIM_011.jpg
1892.161	1.6	correct	generate	Run3	generate/STIM_011.jpg
1896.957	1.053	correct	generate	Run3	generate/STIM_011.jpg
1900.391	0.796	correct	generate	Run3	generate/STIM_011.jpg
1904.43	0.981	correct	generate	Run3	generate/STIM_012.jpg
1908.377	1.353	incorrect	generate	Run3	generate/STIM_012.jpg
1913.153	0.767	incorrect	generate	Run3	generate/STIM_012.jpg
1915.921	0.8	incorrect	generate	Run3	generate/STIM_012.jpg
1919.472	1.402	incorrect	generate	Run3	generate/STIM_012.jpg
1923.932	1.613	incorrect	generate	Run3	generate/STIM_013.jpg
1929.123	1.476	correct	generate	Run3	generate/STIM_013.jpg
1933.476	1.698	correct	generate	Run3	generate/STIM_013.jpg
1938.297	1.713	incorrect	generate	Run3	generate/STIM_013.jpg
1942.708	0.903	correct	generate	Run3	generate/STIM_013.jpg
1947.002	0.737	correct	generate	Run3	generate/STIM_014.jpg
1951.429	1.201	correct	generate	Run3	generate/STIM_014.jpg
1955.657	1.446	correct	generate	Run3	generate/STIM_014.jpg
1960.944	0.974	incorrect	generate	Run3	generate/STIM_014.jpg
1965.829	1.28	correct	generate	Run3	generate/STIM_014.jpg
1969.351	1.684	correct	generate	Run3	generate/STIM_015.jpg
1973.296	1.058	correct	generate	Run3	generate/STIM_015.jpg
1977.578	1.505	correct	generate	Run3	generate/STIM_015.jpg
1982.929	0.79	incorrect	generate	Run3	generate/STIM_015.jpg
1985.825	1.114	correct	generate	Run3	generate/STIM_015.jpg
1990.466	1.56	correct	generate	Run3	generate/STIM_016.jpg
1995.116	1.195	correct	generate	Run3	generate/STIM_016.jpg
1999.869	1.684	correct	generate	Run3	generate/STIM_016.jpg
2004.964	0.876	incorrect	generate	Run3	generate/STIM_016.jpg
2009.578	1.086	correct	generate	Run3	generate/STIM_016.jpg
2014.616	0.801	correct	generate	Run3	generate/STIM_017.jpg
2017.422	1.581	correct	generate	Run3	generate/STIM_017.jpg
2022.737	1.713	correct	generate	Run3	generate/STIM_017.jpg
2026.754	1.686	incorrect	generate	Run3	generate/STIM_017.jpg
2030.736	1.72	correct	generate	Run3	generate/STIM_017.jpg
2036.221	1.757	incorrect	generate	Run3	generate/STIM_018.jpg
2041.128	1.808	correct	generate	Run3	generate/STIM_018.jpg
2046.167	0.799	correct	generate	Run3	generate/STIM_018.jpg
2050.856	1.612	correct	generate	Run3	generate/STIM_018.jpg
2054.588	1.429	incorrect	generate	Run3	generate/STIM_018.jpg
2059.642	0.779	incorrect	generate	Run3	generate/STIM_019.jpg
2062.453	0.733	correct	generate	Run3	generate/STIM_019.jpg
2065.536	0.859	incorrect	generate	Run3	generate/STIM_019.jpg
2069.599	1.548	incorrect	generate	Run3	generate/STIM_019.jpg
2073.172	1.65	correct	generate	Run3	generate/STIM_019.jpg
2076.855	0.75	correct	generate	Run3	generate/STIM_020.jpg
2081.029	1.608	incorrect	generate	Run3	generate/STIM_020.jpg
2085.316	1.263	correct	generate	Run3	generate/STIM_020.jpg
2089.192	1.348	incorrect	generate	Run3	generate/STIM_020.jpg
2094.263	1.788	correct	generate	Run3	generate/STIM_020.jpg
2099.662	1.723	incorrect	generate	Run3	generate/STIM_021.jpg
2103.936	1.334	correct	generate	Run3	generate/STIM_021.jpg
2108.206	1.308	correct	generate	Run3	generate/STIM_021.jpg
2112.466	1.177	correct	generate	Run3	generate/STIM_021.jpg
2117.535	1.239	correct	generate	Run3	generate/STIM_021.jpg
2122.615	1.152	incorrect	generate	Run3	generate/STIM_022.jpg
2125.794	1.16	incorrect	generate	Run3	generate/STIM_022.jpg
2129.628	1.236	correct	generate	Run3	generate/STIM_022.jpg
2133.462	1.715	correct	generate	Run3	generate/STIM_022.jpg
2138.254	1.307	incorrect	generate	Run3	generate/STIM_022.jpg
2142.584	1.702	incorrect	generate	Run3	generate/STIM_023.jpg
2147.172	1.473	incorrect	generate	Run3	generate/STIM_023.jpg
2152.13	0.852	correct	generate	Run3	generate/STIM_023.jpg
2156.548	1.771	correct	generate	Run3	generate/STIM_023.jpg
2161.668	1.379	correct	generate	Run3	generate/STIM_023.jpg
2166.28	1.103	incorrect	generate	Run3	generate/STIM_024.jpg
2170.362	1.351	correct	generate	Run3	generate/STIM_024.jpg
2174.199	1.392	incorrect	generate	Run3	generate/STIM_024.jpg
2178.035	1.462	correct	generate	Run3	generate/STIM_024.jpg
2181.654	1.655	incorrect	generate	Run3	generate/STIM_024.jpg
2186.322	0.436	correct	repeat	Run3	repeat/STIM_000.jpg
2189.053	0.527	incorrect	repeat	Run3	repeat/STIM_000.jpg
2192.736	0.59	incorrect	repeat	Run3	repeat/STIM_000.jpg
2197.092	0.581	correct	repeat	Run3	repeat/STIM_000.jpg
2200.765	0.655	correct	repeat	Run3	repeat/STIM_000.jpg
2204.373	0.719	correct	repeat	Run3	repeat/STIM_001.jpg
2208.344	0.783	incorrect	repeat	Run3	repeat/STIM_001.jpg
2211.397	0.822	correct	repeat	Run3	repeat/STIM_001.jpg
2214.784	0.555	correct	repeat	Run3	repeat/STIM_001.jpg
2218.038	0.731	correct	repeat	Run3	repeat/STIM_001.jpg
2221.333	0.534	correct	repeat	Run3	repeat/STIM_002.jpg
2225.211	0.856	correct	repeat	Run3	repeat/STIM_002.jpg
2228.206	0.449	correct	repeat	Run3	repeat/STIM_002.jpg
2231.491	0.583	correct	repeat	Run3	repeat/STIM_002.jpg
2235.985	0.717	correct	repeat	Run3	repeat/STIM_002.jpg
2238.978	0.579	incorrect	repeat	Run3	repeat/STIM_003.jpg
2241.901	0.558	correct	repeat	Run3	repeat/STIM_003.jpg
2244.867	0.45	correct	repeat	Run3	repeat/STIM_003.jpg
2248.019	0.498	correct	repeat	Run3	repeat/STIM_003.jpg
2252.405	0.773	correct	repeat	Run3	repeat/STIM_003.jpg
2257.063	0.64	correct	repeat	Run3	repeat/STIM_004.jpg
2261.279	0.545	correct	repeat	Run3	repeat/STIM_004.jpg
2264.42	0.483	correct	repeat	Run3	repeat/STIM_004.jpg
2268.532	0.797	correct	repeat	Run3	repeat/STIM_004.jpg
2273.328	0.725	correct	repeat	Run3	repeat/STIM_004.jpg
2277.082	0.547	correct	repeat	Run3	repeat/STIM_005.jpg
2279.685	0.47	incorrect	repeat	Run3	repeat/STIM_005.jpg
2282.284	0.581	correct	repeat	Run3	repeat/STIM_005.jpg
2286.723	0.612	incorrect	repeat	Run3	repeat/STIM_005.jpg
2290.439	0.517	incorrect	repeat	Run3	repeat/STIM_005.jpg
2293.109	0.491	incorrect	repeat	Run3	repeat/STIM_006.jpg
2297.485	0.462	incorrect	repeat	Run3	repeat/STIM_006.jpg
2301.709	0.618	incorrect	repeat	Run3	repeat/STIM_006.jpg
2305.843	0.585	correct	repeat	Run3	repeat/STIM_006.jpg
2308.475	0.777	incorrect	repeat	Run3	repeat/STIM_006.jpg
2311.99	0.691	correct	repeat	Run3	repeat/STIM_007.jpg
2315.608	0.459	incorrect	repeat	Run3	repeat/STIM_007.jpg
2318.38	0.438	correct	repeat	Run3	repeat/STIM_007.jpg
2321.222	0.583	incorrect	repeat	Run3	repeat/STIM_007.jpg
2324.046	0.686	correct	repeat	Run3	repeat/STIM_007.jpg
2328.076	0.537	correct	repeat	Run3	repeat/STIM_008.jpg
2331.064	0.645	correct	repeat	Run3	repeat/STIM_008.jpg
2333.886	0.76	incorrect	repeat	Run3	repeat/STIM_008.jpg
2337.847	0.469	correct	repeat	Run3	repeat/STIM_008.jpg
2340.356	0.756	correct	repeat	Run3	repeat/STIM_008.jpg
2344.459	0.679	correct	repeat	Run3	repeat/STIM_009.jpg
2347.514	0.564	correct	repeat	Run3	repeat/STIM_009.jpg
2350.782	0.523	correct	repeat	Run3	repeat/STIM_009.jpg
2355.298	0.833	incorrect	repeat	Run3	repeat/STIM_009.jpg
2359.734	0.576	incorrect	repeat	Run3	repeat/STIM_009.jpg
2362.986	0.776	correct	repeat	Run3	repeat/STIM_010.jpg
2367.334	0.445	correct	repeat	Run3	repeat/STIM_010.jpg
2370.785	0.658	correct	repeat	Run3	repeat/STIM_010.jpg
2374.297	0.771	correct	repeat	Run3	repeat/STIM_010.jpg
2378.478	0.665	incorrect	repeat	Run3	repeat/STIM_010.jpg
2383.075	0.705	correct	repeat	Run3	repeat/STIM_011.jpg
2385.903	0.766	incorrect	repeat	Run3	repeat/STIM_011.jpg
2389.43	0.729	correct	repeat	Run3	repeat/STIM_011.jpg
2392.963	0.665	incorrect	repeat	Run3	repeat/STIM_011.jpg
2397.473	0.741	incorrect	repeat	Run3	repeat/STIM_011.jpg
2400.566	0.811	correct	repeat	Run3	repeat/STIM_012.jpg
2403.978	0.505	incorrect	repeat	Run3	repeat/STIM_012.jpg
2407.529	0.832	correct	repeat	Run3	repeat/STIM_012.jpg
2411.099	0.815	incorrect	repeat	Run3	repeat/STIM_012.jpg
2414.917	0.759	correct	repeat	Run3	repeat/STIM_012.jpg
2418.43	0.83	correct	repeat	Run3	repeat/STIM_013.jpg
2421.347	0.468	correct	repeat	Run3	repeat/STIM_013.jpg
2424.35	0.748	correct	repeat	Run3	repeat/STIM_013.jpg
2428.13	0.505	correct	repeat	Run3	repeat/STIM_013.jpg
2431.24	0.568	correct	repeat	Run3	repeat/STIM_013.jpg
2434.007	0.86	correct	repeat	Run3	repeat/STIM_014.jpg
2438.496	0.804	correct	repeat	Run3	repeat/STIM_014.jpg
2441.57	0.856	correct	repeat	Run3	repeat/STIM_014.jpg
2445.608	0.62	correct	repeat	Run3	repeat/STIM_014.jpg
2449.227	0.672	incorrect	repeat	Run3	repeat/STIM_014.jpg
2451.899	1.473	incorrect	generate	Run4	generate/STIM_000.jpg
2456.648	1.601	correct	generate	Run4	generate/STIM_000.jpg
2461.731	1.726	incorrect	generate	Run4	generate/STIM_000.jpg
2467.158	1.66	correct	generate	Run4	generate/STIM_000.jpg
2472.065	0.936	correct	generate	Run4	generate/STIM_000.jpg
2475.335	1.232	correct	generate	Run4	generate/STIM_001.jpg
2479.96	1.538	correct	generate	Run4	generate/STIM_001.jpg
2484.812	1.34	correct	generate	Run4	generate/STIM_001.jpg
2489.567	1.535	correct	generate	Run4	generate/STIM_001.jpg
2493.266	1.216	correct	generate	Run4	generate/STIM_001.jpg
2496.831	1.501	correct	generate	Run4	generate/STIM_002.jpg
2501.201	1.5	correct	generate	Run4	generate/STIM_002.jpg
2505.057	1.686	correct	generate	Run4	generate/STIM_002.jpg
2509.288	0.919	correct	generate	Run4	generate/STIM_002.jpg
2512.974	1.368	correct	generate	Run4	generate/STIM_002.jpg
2517.975	0.915	correct	generate	Run4	generate/STIM_003.jpg
2522.857	1.646	correct	generate	Run4	generate/STIM_003.jpg
2526.938	1.152	correct	generate	Run4	generate/STIM_003.jpg
2531.713	0.944	correct	generate	Run4	generate/STIM_003.jpg
2536.113	1.677	correct	generate	Run4	generate/STIM_003.jpg
2540.829	1.666	incorrect	generate	Run4	generate/STIM_004.jpg
2545.374	1.44	correct	generate	Run4	generate/STIM_004.jpg
2549.676	1.425	correct	generate	Run4	generate/STIM_004.jpg
2554.287	1.46	correct	generate	Run4	generate/STIM_004.jpg
2559.602	1.338	correct	generate	Run4	generate/STIM_004.jpg
2563.124	0.823	correct	generate	Run4	generate/STIM_005.jpg
2566.607	1.715	correct	generate	Run4	generate/STIM_005.jpg
2570.763	1.021	correct	generate	Run4	generate/STIM_005.jpg
2573.909	0.826	correct	generate	Run4	generate/STIM_005.jpg
2576.835	1.23	correct	generate	Run4	generate/STIM_005.jpg
2581.192	1.773	correct	generate	Run4	generate/STIM_006.jpg
2586.897	0.993	incorrect	generate	Run4	generate/STIM_006.jpg
2590.443	1.52	correct	generate	Run4	generate/STIM_006.jpg
2595.77	0.942	correct	generate	Run4	generate/STIM_006.jpg
2600.182	1.056	correct	generate	Run4	generate/STIM_006.jpg
2604.99	0.996	correct	generate	Run4	generate/STIM_007.jpg
2608.437	0.806	correct	generate	Run4	generate/STIM_007.jpg
2612.554	1.578	incorrect	generate	Run4	generate/STIM_007.jpg
2617.117	0.939	correct	generate	Run4	generate/STIM_007.jpg
2620.058	1.789	incorrect	generate	Run4	generate/STIM_007.jpg
2623.94	1.025	correct	generate	Run4	generate/STIM_008.jpg
2628.209	1.244	correct	generate	Run4	generate/STIM_008.jpg
2632.191	1.632	incorrect	generate	Run4	generate/STIM_008.jpg
2637.212	1.76	correct	generate	Run4	generate/STIM_008.jpg
2641.619	1.12	correct	generate	Run4	generate/STIM_008.jpg
2646.65	1.407	incorrect	generate	Run4	generate/STIM_009.jpg
2650.506	1.257	correct	generate	Run4	generate/STIM_009.jpg
2654.395	0.762	correct	generate	Run4	generate/STIM_009.jpg
2658.997	0.751	correct	generate	Run4	generate/STIM_009.jpg
2663.56	1.479	incorrect	generate	Run4	generate/STIM_009.jpg
2667.269	0.941	correct	generate	Run4	generate/STIM_010.jpg
2671.848	1.723	correct	generate	Run4	generate/STIM_010.jpg
2677.135	0.779	correct	generate	Run4	generate/STIM_010.jpg
2680.139	1.137	correct	generate	Run4	generate/STIM_010.jpg
2683.682	0.772	correct	generate	Run4	generate/STIM_010.jpg
2688.11	1.408	incorrect	generate	Run4	generate/STIM_011.jpg
2693.152	0.868	correct	generate	Run4	generate/STIM_011.jpg
2696.099	1.731	correct	generate	Run4	generate/STIM_011.jpg
2700.289	1.169	correct	generate	Run4	generate/STIM_011.jpg
2704.409	1.78	correct	generate	Run4	generate/STIM_011.jpg
2708.976	0.98	correct	generate	Run4	generate/STIM_012.jpg
2713.848	1.487	incorrect	generate	Run4	generate/STIM_012.jpg
2717.882	1.086	correct	generate	Run4	generate/STIM_012.jpg
2721.561	0.995	correct	generate	Run4	generate/STIM_012.jpg
2726.221	1.429	incorrect	generate	Run4	generate/STIM_012.jpg
2730.353	1.417	correct	generate	Run4	generate/STIM_013.jpg
2735.599	1.817	correct	generate	Run4	generate/STIM_013.jpg
2740.077	1.166	incorrect	generate	Run4	generate/STIM_013.jpg
2744.632	1.236	correct	generate	Run4	generate/STIM_013.jpg
2748.029	1.353	incorrect	generate	Run4	generate/STIM_013.jpg
2753.271	1.688	incorrect	generate	Run4	generate/STIM_014.jpg
2758.765	1.339	correct	generate	Run4	generate/STIM_014.jpg
2764.059	1.119	correct	generate	Run4	generate/STIM_014.jpg
2767.737	1.446	correct	generate	Run4	generate/STIM_014.jpg
2772.412	1.43	correct	generate	Run4	generate/STIM_014.jpg
2776.041	1.202	correct	generate	Run4	generate/STIM_015.jpg
2780.301	1.292	correct	generate	Run4	generate/STIM_015.jpg
2785.222	1.322	correct	generate	Run4	generate/STIM_015.jpg
2790.335	1.478	correct	generate	Run4	generate/STIM_015.jpg
2794.289	1.513	correct	generate	Run4	generate/STIM_015.jpg
2798.737	1.575	correct	generate	Run4	generate/STIM_016.jpg
2803.614	1.305	correct	generate	Run4	generate/STIM_016.jpg
2808.405	0.915	correct	generate	Run4	generate/STIM_016.jpg
2811.938	1.758	incorrect	generate	Run4	generate/STIM_016.jpg
2816.525	1.345	correct	generate	Run4	generate/STIM_016.jpg
2820.728	1.612	correct	generate	Run4	generate/STIM_017.jpg
2824.36	1.578	correct	generate	Run4	generate/STIM_017.jpg
2828.165	1.36	correct	generate	Run4	generate/STIM_017.jpg
2831.94	0.952	incorrect	generate	Run4	generate/STIM_017.jpg
2836.018	0.924	correct	generate	Run4	generate/STIM_017.jpg
2839.533	0.972	incorrect	generate	Run4	generate/STIM_018.jpg
2843.47	1.071	correct	generate	Run4	generate/STIM_018.jpg
2846.659	0.924	correct	generate	Run4	generate/STIM_018.jpg
2850.183	0.947	correct	generate	Run4	generate/STIM_018.jpg
2853.515	1.768	incorrect	generate	Run4	generate/STIM_018.jpg
2859.248	1.048	correct	generate	Run4	generate/STIM_019.jpg
2863.652	0.945	correct	generate	Run4	generate/STIM_019.jpg
2868.195	1.796	correct	generate	Run4	generate/STIM_019.jpg
2873.838	1.375	correct	generate	Run4	generate/STIM_019.jpg
2879.057	1.512	correct	generate	Run4	generate/STIM_019.jpg
2883.348	1.496	correct	generate	Run4	generate/STIM_020.jpg
2887.307	1.139	correct	generate	Run4	generate/STIM_020.jpg
2892.174	1.322	correct	generate	Run4	generate/STIM_020.jpg
2896.732	1.805	correct	generate	Run4	generate/STIM_020.jpg
2902.476	1.232	correct	generate	Run4	generate/STIM_020.jpg
2905.841	1.098	correct	generate	Run4	generate/STIM_021.jpg
2908.963	1.277	incorrect	generate	Run4	generate/STIM_021.jpg
2914.158	1.01	correct	generate	Run4	generate/STIM_021.jpg
2918.46	1.534	correct	generate	Run4	generate/STIM_021.jpg
2922.65	0.795	correct	generate	Run4	generate/STIM_021.jpg
2925.622	1.722	incorrect	generate	Run4	generate/STIM_022.jpg
2930.062	1.812	incorrect	generate	Run4	generate/STIM_022.jpg
2934.552	0.955	correct	generate	Run4	generate/STIM_022.jpg
2939.108	1.459	incorrect	generate	Run4	generate/STIM_022.jpg
2943.972	1.082	correct	generate	Run4	generate/STIM_022.jpg
2948.245	1.054	incorrect	generate	Run4	generate/STIM_023.jpg
2952.082	0.859	incorrect	generate	Run4	generate/STIM_023.jpg
2956.44	1.373	correct	generate	Run4	generate/STIM_023.jpg
2960.915	1.449	correct	generate	Run4	generate/STIM_023.jpg
2965.216	1.224	correct	generate	Run4	generate/STIM_023.jpg
2968.447	1.335	correct	generate	Run4	generate/STIM_024.jpg
2973.224	1.585	correct	generate	Run4	generate/STIM_024.jpg
2977.14	1.158	correct	generate	Run4	generate/STIM_024.jpg
2980.781	1.446	correct	generate	Run4	generate/STIM_024.jpg
2986.079	1.811	correct	generate	Run4	generate/STIM_024.jpg
2991.644	0.705	correct	repeat	Run4	repeat/STIM_000.jpg
2995.296	0.803	correct	repeat	Run4	repeat/STIM_000.jpg
2998.97	0.631	incorrect	repeat	Run4	repeat/STIM_000.jpg
3003.054	0.626	incorrect	repeat	Run4	repeat/STIM_000.jpg
3006.258	0.834	incorrect	repeat	Run4	repeat/STIM_000.jpg
3011.047	0.692	incorrect	repeat	Run4	repeat/STIM_001.jpg
3015.402	0.732	correct	repeat	Run4	repeat/STIM_001.jpg
3018.278	0.831	incorrect	repeat	Run4	repeat/STIM_001.jpg
3022.071	0.758	correct	repeat	Run4	repeat/STIM_001.jpg
3025.038	0.626	correct	repeat	Run4	repeat/STIM_001.jpg
3028.665	0.438	incorrect	repeat	Run4	repeat/STIM_002.jpg
3032.46	0.624	correct	repeat	Run4	repeat/STIM_002.jpg
3037.035	0.679	correct	repeat	Run4	repeat/STIM_002.jpg
3040.165	0.754	incorrect	repeat	Run4	repeat/STIM_002.jpg
3044.83	0.46	correct	repeat	Run4	repeat/STIM_002.jpg
3048.545	0.81	correct	repeat	Run4	repeat/STIM_003.jpg
3051.516	0.785	correct	repeat	Run4	repeat/STIM_003.jpg
3056.089	0.679	incorrect	repeat	Run4	repeat/STIM_003.jpg
3059.345	0.855	correct	repeat	Run4	repeat/STIM_003.jpg
3063.736	0.814	incorrect	repeat	Run4	repeat/STIM_003.jpg
3066.85	0.724	correct	repeat	Run4	repeat/STIM_004.jpg
3071.484	0.453	correct	repeat	Run4	repeat/STIM_004.jpg
3075.245	0.801	correct	repeat	Run4	repeat/STIM_004.jpg
3079.852	0.498	correct	repeat	Run4	repeat/STIM_004.jpg
3083.939	0.457	correct	repeat	Run4	repeat/STIM_004.jpg
3087.384	0.436	correct	repeat	Run4	repeat/STIM_005.jpg
3091.809	0.714	correct	repeat	Run4	repeat/STIM_005.jpg
3095.332	0.61	correct	repeat	Run4	repeat/STIM_005.jpg
3098.107	0.678	incorrect	repeat	Run4	repeat/STIM_005.jpg
3102.781	0.564	correct	repeat	Run4	repeat/STIM_005.jpg
3106.898	0.456	incorrect	repeat	Run4	repeat/STIM_006.jpg
3109.908	0.804	correct	repeat	Run4	repeat/STIM_006.jpg
3113.176	0.703	incorrect	repeat	Run4	repeat/STIM_006.jpg
3117.746	0.586	incorrect	repeat	Run4	repeat/STIM_006.jpg
3121.659	0.693	correct	repeat	Run4	repeat/STIM_006.jpg
3124.716	0.517	correct	repeat	Run4	repeat/STIM_007.jpg
3127.559	0.496	incorrect	repeat	Run4	repeat/STIM_007.jpg
3130.591	0.756	correct	repeat	Run4	repeat/STIM_007.jpg
3134.763	0.656	correct	repeat	Run4	repeat/STIM_007.jpg
3138.767	0.697	correct	repeat	Run4	repeat/STIM_007.jpg
3141.847	0.674	incorrect	repeat	Run4	repeat/STIM_008.jpg
3144.988	0.716	correct	repeat	Run4	repeat/STIM_008.jpg
3148.053	0.602	correct	repeat	Run4	repeat/STIM_008.jpg
3152.257	0.586	correct	repeat	Run4	repeat/STIM_008.jpg
3154.903	0.524	correct	repeat	Run4	repeat/STIM_008.jpg
3158.614	0.701	incorrect	repeat	Run4	repeat/STIM_009.jpg
3162.335	0.646	correct	repeat	Run4	repeat/STIM_009.jpg
3165.216	0.759	incorrect	repeat	Run4	repeat/STIM_009.jpg
3168.7	0.791	incorrect	repeat	Run4	repeat/STIM_009.jpg
3173.406	0.582	correct	repeat	Run4	repeat/STIM_009.jpg
3176.195	0.777	correct	repeat	Run4	repeat/STIM_010.jpg
3180.066	0.688	correct	repeat	Run4	repeat/STIM_010.jpg
3184.063	0.836	correct	repeat	Run4	repeat/STIM_010.jpg
3187.466	0.588	correct	repeat	Run4	repeat/STIM_010.jpg
3190.813	0.867	incorrect	repeat	Run4	repeat/STIM_010.jpg
3194.385	0.59	incorrect	repeat	Run4	repeat/STIM_011.jpg
3198.72	0.69	correct	repeat	Run4	repeat/STIM_011.jpg
3202.358	0.561	incorrect	repeat	Run4	repeat/STIM_011.jpg
3205.923	0.82	correct	repeat	Run4	repeat/STIM_011.jpg
3208.895	0.779	incorrect	repeat	Run4	repeat/STIM_011.jpg
3211.757	0.695	correct	repeat	Run4	repeat/STIM_012.jpg
3214.851	0.809	incorrect	repeat	Run4	repeat/STIM_012.jpg
3218.359	0.814	correct	repeat	Run4	repeat/STIM_012.jpg
3221.474	0.674	correct	repeat	Run4	repeat/STIM_012.jpg
3224.793	0.458	incorrect	repeat	Run4	repeat/STIM_012.jpg
3229.185	0.618	incorrect	repeat	Run4	repeat/STIM_013.jpg
3233.384	0.61	correct	repeat	Run4	repeat/STIM_013.jpg
3236.83	0.79	correct	repeat	Run4	repeat/STIM_013.jpg
3240.415	0.486	correct	repeat	Run4	repeat/STIM_013.jpg
3243.001	0.485	correct	repeat	Run4	repeat/STIM_013.jpg
3245.831	0.446	correct	repeat	Run4	repeat/STIM_014.jpg
3249.627	0.852	correct	repeat	Run4	repeat/STIM_014.jpg
3254.269	0.669	correct	repeat	Run4	repeat/STIM_014.jpg
3258.685	0.514	correct	repeat	Run4	repeat/STIM_014.jpg
3262.368	0.563	correct	repeat	Run4	repeat/STIM_014.jpg
