onset	duration	accuracy	trial_type	learning_stage	stimulus
0.0	2.805	correct	generate	Run1	generate/STIM_000.jpg
5.473	2.141	correct	generate	Run1	generate/STIM_000.jpg
10.354	1.895	correct	generate	Run1	generate/STIM_000.jpg
15.725	1.547	correct	generate	Run1	generate/STIM_000.jpg
21.15	1.956	correct	generate	Run1	generate/STIM_000.jpg
26.712	2.08	correct	generate	Run1	generate/STIM_001.jpg
31.806	2.589	incorrect	generate	Run1	generate/STIM_001.jpg
37.976	1.585	correct	generate	Run1	generate/STIM_001.jpg
43.153	1.558	correct	generate	Run1	generate/STIM_001.jpg
47.315	0.94	correct	generate	Run1	generate/STIM_001.jpg
51.222	1.272	correct	generate	Run1	generate/STIM_002.jpg
55.689	1.735	correct	generate	Run1	generate/STIM_002.jpg
60.166	2.053	incorrect	generate	Run1	generate/STIM_002.jpg
64.703	1.918	correct	generate	Run1	generate/STIM_002.jpg
70.625	1.695	incorrect	generate	Run1	generate/STIM_002.jpg
75.263	2.101	incorrect	generate	Run1	generate/STIM_003.jpg
81.015	2.536	correct	generate	Run1	generate/STIM_003.jpg
87.662	1.146	correct	generate	Run1	generate/STIM_003.jpg
92.536	1.494	correct	generate	Run1	generate/STIM_003.jpg
96.246	1.996	correct	generate	Run1	generate/STIM_003.jpg
100.682	1.614	correct	generate	Run1	generate/STIM_004.jpg
105.068	1.404	incorrect	generate	Run1	generate/STIM_004.jpg
109.408	1.526	incorrect	generate	Run1	generate/STIM_004.jpg
113.828	1.887	incorrect	generate	Run1	generate/STIM_004.jpg
118.694	1.798	correct	generate	Run1	generate/STIM_004.jpg
124.056	1.919	correct	generate	Run1	generate/STIM_005.jpg
128.892	2.682	correct	generate	Run1	generate/STIM_005.jpg
135.487	1.688	correct	generate	Run1	generate/STIM_005.jpg
140.254	1.483	correct	generate	Run1	generate/STIM_005.jpg
144.532	1.897	correct	generate	Run1	generate/STIM_005.jpg
148.656	2.24	correct	generate	Run1	generate/STIM_006.jpg
153.287	2.565	correct	generate	Run1	generate/STIM_006.jpg
159.866	2.01	incorrect	generate	Run1	generate/STIM_006.jpg
165.631	2.385	correct	generate	Run1	generate/STIM_006.jpg
171.877	1.755	correct	generate	Run1	generate/STIM_006.jpg
175.921	1.206	correct	generate	Run1	generate/STIM_007.jpg
179.739	2.323	correct	generate	Run1	generate/STIM_007.jpg
184.374	2.379	correct	generate	Run1	generate/STIM_007.jpg
190.291	1.415	correct	generate	Run1	generate/STIM_007.jpg
195.031	1.958	correct	generate	Run1	generate/STIM_007.jpg
199.094	1.888	incorrect	generate	Run1	generate/STIM_008.jpg
204.24	1.156	incorrect	generate	Run1	generate/STIM_008.jpg
209.078	2.511	correct	generate	Run1	generate/STIM_008.jpg
215.316	1.255	correct	generate	Run1	generate/STIM_008.jpg
220.05	1.218	incorrect	generate	Run1	generate/STIM_008.jpg
223.909	1.409	correct	generate	Run1	generate/STIM_009.jpg
228.233	1.216	incorrect	generate	Run1	generate/STIM_009.jpg
233.488	1.176	incorrect	generate	Run1	generate/STIM_009.jpg
236.823	1.714	correct	generate	Run1	generate/STIM_009.jpg
242.262	1.47	correct	generate	Run1	generate/STIM_009.jpg
247.729	2.543	correct	generate	Run1	generate/STIM_010.jpg
253.947	2.252	correct	generate	Run1	generate/STIM_010.jpg
258.889	2.48	incorrect	generate	Run1	generate/STIM_010.jpg
263.881	1.763	incorrect	generate	Run1	generate/STIM_010.jpg
268.028	1.769	correct	generate	Run1	generate/STIM_010.jpg
272.818	1.818	incorrect	generate	Run1	generate/STIM_011.jpg
277.576	1.929	correct	generate	Run1	generate/STIM_011.jpg
281.943	2.119	correct	generate	Run1	generate/STIM_011.jpg
287.691	2.145	correct	generate	Run1	generate/STIM_011.jpg
293.123	1.273	correct	generate	Run1	generate/STIM_011.jpg
296.791	2.17	incorrect	generate	Run1	generate/STIM_012.jpg
302.003	1.478	incorrect	generate	Run1	generate/STIM_012.jpg
306.598	1.553	correct	generate	Run1	generate/STIM_012.jpg
310.401	1.412	correct	generate	Run1	generate/STIM_012.jpg
315.239	0.964	incorrect	generate	Run1	generate/STIM_012.jpg
319.309	1.653	incorrect	generate	Run1	generate/STIM_013.jpg
324.857	1.548	correct	generate	Run1	generate/STIM_013.jpg
329.762	1.099	correct	generate	Run1	generate/STIM_013.jpg
333.68	2.364	correct	generate	Run1	generate/STIM_013.jpg
339.671	1.11	incorrect	generate	Run1	generate/STIM_013.jpg
344.69	2.377	correct	generate	Run1	generate/STIM_014.jpg
350.487	2.08	correct	generate	Run1	generate/STIM_014.jpg
354.889	1.077	correct	generate	Run1	generate/STIM_014.jpg
359.661	1.791	correct	generate	Run1	generate/STIM_014.jpg
363.843	1.596	correct	generate	Run1	generate/STIM_014.jpg
368.178	2.498	incorrect	generate	Run1	generate/STIM_015.jpg
373.287	2.018	correct	generate	Run1	generate/STIM_015.jpg
378.822	1.206	correct	generate	Run1	generate/STIM_015.jpg
383.523	1.765	correct	generate	Run1	generate/STIM_015.jpg
387.551	0.92	correct	generate	Run1	generate/STIM_015.jpg
392.215	2.272	correct	generate	Run1	generate/STIM_016.jpg
398.371	2.635	incorrect	generate	Run1	generate/STIM_016.jpg
403.307	1.154	correct	generate	Run1	generate/STIM_016.jpg
407.977	1.142	correct	generate	Run1	generate/STIM_016.jpg
412.681	2.173	incorrect	generate	Run1	generate/STIM_016.jpg
418.604	1.956	correct	generate	Run1	generate/STIM_017.jpg
424.055	2.627	correct	generate	Run1	generate/STIM_017.jpg
429.738	2.305	incorrect	generate	Run1	generate/STIM_017.jpg
435.947	1.926	correct	generate	Run1	generate/STIM_017.jpg
441.203	1.315	incorrect	generate	Run1	generate/STIM_017.jpg
444.698	2.077	correct	generate	Run1	generate/STIM_018.jpg
449.742	1.677	correct	generate	Run1	generate/STIM_018.jpg
454.7	1.978	correct	generate	Run1	generate/STIM_018.jpg
460.414	1.359	correct	generate	Run1	generate/STIM_018.jpg
465.645	1.535	correct	generate	Run1	generate/STIM_018.jpg
470.421	1.374	incorrect	generate	Run1	generate/STIM_019.jpg
475.557	2.572	correct	generate	Run1	generate/STIM_019.jpg
481.209	2.516	correct	generate	Run1	generate/STIM_019.jpg
486.52	1.246	incorrect	generate	Run1	generate/STIM_019.jpg
491.519	1.194	correct	generate	Run1	generate/STIM_019.jpg
495.511	1.466	correct	generate	Run1	generate/STIM_020.jpg
500.349	2.684	incorrect	generate	Run1	generate/STIM_020.jpg
506.764	1.311	correct	generate	Run1	generate/STIM_020.jpg
511.015	1.872	correct	generate	Run1	generate/STIM_020.jpg
516.343	2.2	correct	generate	Run1	generate/STIM_020.jpg
521.748	2.022	correct	generate	Run1	generate/STIM_021.jpg
527.04	1.878	correct	generate	Run1	generate/STIM_021.jpg
532.805	2.048	correct	generate	Run1	generate/STIM_021.jpg
537.267	1.71	incorrect	generate	Run1	generate/STIM_021.jpg
541.265	1.051	correct	generate	Run1	generate/STIM_021.jpg
545.885	2.665	incorrect	generate	Run1	generate/STIM_022.jpg
551.833	1.903	correct	generate	Run1	generate/STIM_022.jpg
556.94	1.605	correct	generate	Run1	generate/STIM_022.jpg
561.072	2.256	correct	generate	Run1	generate/STIM_022.jpg
566.882	1.722	incorrect	generate	Run1	generate/STIM_022.jpg
572.456	2.782	correct	generate	Run1	generate/STIM_023.jpg
577.926	2.204	correct	generate	Run1	generate/STIM_023.jpg
582.751	2.382	correct	generate	Run1	generate/STIM_023.jpg
587.897	1.246	correct	generate	Run1	generate/STIM_023.jpg
592.856	1.463	correct	generate	Run1	generate/STIM_023.jpg
596.99	2.614	correct	generate	Run1	generate/STIM_024.jpg
601.986	1.591	correct	generate	Run1	generate/STIM_024.jpg
606.125	1.764	correct	generate	Run1	generate/STIM_024.jpg
611.942	1.01	correct	generate	Run1	generate/STIM_024.jpg
615.584	1.085	correct	generate	Run1	generate/STIM_024.jpg
618.791	0.84	correct	repeat	Run1	repeat/STIM_000.jpg
623.113	0.652	correct	repeat	Run1	repeat/STIM_000.jpg
626.782	0.663	correct	repeat	Run1	repeat/STIM_000.jpg
631.164	0.559	correct	repeat	Run1	repeat/STIM_000.jpg
634.331	0.529	correct	repeat	Run1	repeat/STIM_000.jpg
637.617	0.851	correct	repeat	Run1	repeat/STIM_001.jpg
642.39	0.661	correct	repeat	Run1	repeat/STIM_001.jpg
646.945	0.642	correct	repeat	Run1	repeat/STIM_001.jpg
650.329	0.868	correct	repeat	Run1	repeat/STIM_001.jpg
653.944	0.6	correct	repeat	Run1	repeat/STIM_001.jpg
656.837	0.867	correct	repeat	Run1	repeat/STIM_002.jpg
661.539	0.788	correct	repeat	Run1	repeat/STIM_002.jpg
666.364	0.906	correct	repeat	Run1	repeat/STIM_002.jpg
670.125	0.491	incorrect	repeat	Run1	repeat/STIM_002.jpg
672.987	0.508	correct	repeat	Run1	repeat/STIM_002.jpg
677.402	0.6	correct	repeat	Run1	repeat/STIM_003.jpg
680.788	0.551	correct	repeat	Run1	repeat/STIM_003.jpg
683.956	0.756	correct	repeat	Run1	repeat/STIM_003.jpg
687.751	0.681	correct	repeat	Run1	repeat/STIM_003.jpg
690.86	0.739	correct	repeat	Run1	repeat/STIM_003.jpg
695.237	0.664	correct	repeat	Run1	repeat/STIM_004.jpg
699.148	0.8	correct	repeat	Run1	repeat/STIM_004.jpg
703.349	0.598	correct	repeat	Run1	repeat/STIM_004.jpg
707.323	0.551	correct	repeat	Run1	repeat/STIM_004.jpg
710.119	0.704	correct	repeat	Run1	repeat/STIM_004.jpg
713.237	0.648	correct	repeat	Run1	repeat/STIM_005.jpg
717.049	0.706	correct	repeat	Run1	repeat/STIM_005.jpg
721.412	0.86	correct	repeat	Run1	repeat/STIM_005.jpg
725.14	0.818	incorrect	repeat	Run1	repeat/STIM_005.jpg
729.265	0.724	correct	repeat	Run1	repeat/STIM_005.jpg
732.495	0.609	correct	repeat	Run1	repeat/STIM_006.jpg
736.871	0.882	correct	repeat	Run1	repeat/STIM_006.jpg
741.055	0.911	incorrect	repeat	Run1	repeat/STIM_006.jpg
745.432	0.862	correct	repeat	Run1	repeat/STIM_006.jpg
749.297	0.541	correct	repeat	Run1	repeat/STIM_006.jpg
752.734	0.803	correct	repeat	Run1	repeat/STIM_007.jpg
756.168	0.854	correct	repeat	Run1	repeat/STIM_007.jpg
759.386	0.82	correct	repeat	Run1	repeat/STIM_007.jpg
763.048	0.867	correct	repeat	Run1	repeat/STIM_007.jpg
767.722	0.543	correct	repeat	Run1	repeat/STIM_007.jpg
771.967	0.765	correct	repeat	Run1	repeat/STIM_008.jpg
775.429	0.576	incorrect	repeat	Run1	repeat/STIM_008.jpg
778.542	0.724	correct	repeat	Run1	repeat/STIM_008.jpg
781.916	0.759	correct	repeat	Run1	repeat/STIM_008.jpg
786.713	0.623	correct	repeat	Run1	repeat/STIM_008.jpg
790.239	0.739	correct	repeat	Run1	repeat/STIM_009.jpg
793.541	0.768	correct	repeat	Run1	repeat/STIM_009.jpg
797.959	0.596	correct	repeat	Run1	repeat/STIM_009.jpg
801.034	0.787	correct	repeat	Run1	repeat/STIM_009.jpg
804.527	0.909	correct	repeat	Run1	repeat/STIM_009.jpg
809.343	0.915	correct	repeat	Run1	repeat/STIM_010.jpg
814.051	0.704	correct	repeat	Run1	repeat/STIM_010.jpg
816.899	0.696	correct	repeat	Run1	repeat/STIM_010.jpg
821.558	0.686	correct	repeat	Run1	repeat/STIM_010.jpg
825.487	0.785	correct	repeat	Run1	repeat/STIM_010.jpg
829.514	0.576	correct	repeat	Run1	repeat/STIM_011.jpg
832.905	0.486	correct	repeat	Run1	repeat/STIM_011.jpg
835.794	0.946	correct	repeat	Run1	repeat/STIM_011.jpg
839.209	0.687	correct	repeat	Run1	repeat/STIM_011.jpg
842.397	0.586	correct	repeat	Run1	repeat/STIM_011.jpg
846.785	0.617	correct	repeat	Run1	repeat/STIM_012.jpg
849.477	0.74	correct	repeat	Run1	repeat/STIM_012.jpg
852.842	0.723	correct	repeat	Run1	repeat/STIM_012.jpg
856.272	0.504	correct	repeat	Run1	repeat/STIM_012.jpg
860.227	0.747	correct	repeat	Run1	repeat/STIM_012.jpg
864.631	0.755	correct	repeat	Run1	repeat/STIM_013.jpg
869.145	0.708	correct	repeat	Run1	repeat/STIM_013.jpg
872.376	0.805	correct	repeat	Run1	repeat/STIM_013.jpg
875.275	0.823	correct	repeat	Run1	repeat/STIM_013.jpg
879.538	0.846	correct	repeat	Run1	repeat/STIM_013.jpg
883.224	0.496	correct	repeat	Run1	repeat/STIM_014.jpg
886.922	0.546	correct	repeat	Run1	repeat/STIM_014.jpg
891.111	0.49	correct	repeat	Run1	repeat/STIM_014.jpg
895.557	0.841	correct	repeat	Run1	repeat/STIM_014.jpg
900.102	0.846	correct	repeat	Run1	repeat/STIM_014.jpg
903.371	1.373	correct	generate	Run2	generate/STIM_000.jpg
908.39	1.618	correct	generate	Run2	generate/STIM_000.jpg
913.748	0.91	incorrect	generate	Run2	generate/STIM_000.jpg
918.141	1.848	incorrect	generate	Run2	generate/STIM_000.jpg
923.046	0.903	correct	generate	Run2	generate/STIM_000.jpg
926.633	1.508	correct	generate	Run2	generate/STIM_001.jpg
930.564	1.605	correct	generate	Run2	generate/STIM_001.jpg
935.014	1.073	incorrect	generate	Run2	generate/STIM_001.jpg
939.259	0.929	correct	generate	Run2	generate/STIM_001.jpg
942.763	1.424	correct	generate	Run2	generate/STIM_001.jpg
946.481	2.245	correct	generate	Run2	generate/STIM_002.jpg
952.42	1.417	correct	generate	Run2	generate/STIM_002.jpg
957.395	1.402	correct	generate	Run2	generate/STIM_002.jpg
962.371	1.988	correct	generate	Run2	generate/STIM_002.jpg
967.445	1.21	correct	generate	Run2	generate/STIM_002.jpg
971.724	1.802	correct	generate	Run2	generate/STIM_003.jpg
976.377	1.37	incorrect	generate	Run2	generate/STIM_003.jpg
981.734	1.447	correct	generate	Run2	generate/STIM_003.jpg
985.703	1.103	incorrect	generate	Run2	generate/STIM_003.jpg
989.7	0.913	correct	generate	Run2	generate/STIM_003.jpg
994.58	2.201	incorrect	generate	Run2	generate/STIM_004.jpg
1000.43	1.264	correct	generate	Run2	generate/STIM_004.jpg
1004.201	1.154	correct	generate	Run2	generate/STIM_004.jpg
1008.132	1.434	correct	generate	Run2	generate/STIM_004.jpg
1013.553	1.077	incorrect	generate	Run2	generate/STIM_004.jpg
1017.252	1.286	correct	generate	Run2	generate/STIM_005.jpg
1022.53	1.405	correct	generate	Run2	generate/STIM_005.jpg
1026.181	1.312	correct	generate	Run2	generate/STIM_005.jpg
1031.384	1.42	correct	generate	Run2	generate/STIM_005.jpg
1036.313	1.247	correct	generate	Run2	generate/STIM_005.jpg
1039.985	1.733	correct	generate	Run2	generate/STIM_006.jpg
1045.282	1.341	correct	generate	Run2	generate/STIM_006.jpg
1050.431	2.118	incorrect	generate	Run2	generate/STIM_006.jpg
1055.31	1.096	correct	generate	Run2	generate/STIM_006.jpg
1058.671	1.804	incorrect	generate	Run2	generate/STIM_006.jpg
1062.802	0.989	incorrect	generate	Run2	generate/STIM_007.jpg
1066.456	1.444	correct	generate	Run2	generate/STIM_007.jpg
1071.556	1.565	correct	generate	Run2	generate/STIM_007.jpg
1076.583	1.965	correct	generate	Run2	generate/STIM_007.jpg
1080.707	1.763	correct	generate	Run2	generate/STIM_007.jpg
1085.432	1.45	correct	generate	Run2	generate/STIM_008.jpg
1089.751	1.693	correct	generate	Run2	generate/STIM_008.jpg
1094.1	1.921	correct	generate	Run2	generate/STIM_008.jpg
1099.445	0.961	correct	generate	Run2	generate/STIM_008.jpg
1104.154	1.75	incorrect	generate	Run2	generate/STIM_008.jpg
1109.599	1.099	correct	generate	Run2	generate/STIM_009.jpg
1114.426	1.531	correct	generate	Run2	generate/STIM_009.jpg
1118.867	1.954	correct	generate	Run2	generate/STIM_009.jpg
1124.401	1.315	correct	generate	Run2	generate/STIM_009.jpg
1128.39	1.146	correct	generate	Run2	generate/STIM_009.jpg
1131.84	1.029	correct	generate	Run2	generate/STIM_010.jpg
1136.343	1.438	correct	generate	Run2	generate/STIM_010.jpg
1141.817	1.217	correct	generate	Run2	generate/STIM_010.jpg
1145.159	0.867	correct	generate	Run2	generate/STIM_010.jpg
1150.071	1.663	incorrect	generate	Run2	generate/STIM_010.jpg
1154.807	1.504	incorrect	generate	Run2	generate/STIM_011.jpg
1158.415	1.971	correct	generate	Run2	generate/STIM_011.jpg
1162.577	1.84	incorrect	generate	Run2	generate/STIM_011.jpg
1168.12	1.39	incorrect	generate	Run2	generate/STIM_011.jpg
1171.926	1.784	correct	generate	Run2	generate/STIM_011.jpg
1177.618	2.063	incorrect	generate	Run2	generate/STIM_012.jpg
1183.614	1.868	correct	generate	Run2	generate/STIM_012.jpg
1188.066	1.258	correct	generate	Run2	generate/STIM_012.jpg
1193.357	1.471	correct	generate	Run2	generate/STIM_012.jpg
1198.852	1.14	correct	generate	Run2	generate/STIM_012.jpg
1202.475	1.072	correct	generate	Run2	generate/STIM_013.jpg
1206.293	1.692	correct	generate	Run2	generate/STIM_013.jpg
1211.516	1.068	incorrect	generate	Run2	generate/STIM_013.jpg
1216.288	1.591	correct	generate	Run2	generate/STIM_013.jpg
1221.481	1.938	correct	generate	Run2	generate/STIM_013.jpg
1227.13	1.43	correct	generate	Run2	generate/STIM_014.jpg
1231.766	1.941	correct	generate	Run2	generate/STIM_014.jpg
1237.294	1.886	correct	generate	Run2	generate/STIM_014.jpg
1241.858	1.899	correct	generate	Run2	generate/STIM_014.jpg
1246.449	0.906	correct	generate	Run2	generate/STIM_014.jpg
1250.511	2.208	correct	generate	Run2	generate/STIM_015.jpg
1255.809	1.838	correct	generate	Run2	generate/STIM_015.jpg
1260.53	1.921	incorrect	generate	Run2	generate/STIM_015.jpg
1264.851	0.981	correct	generate	Run2	generate/STIM_015.jpg
1269.86	1.3	correct	generate	Run2	generate/STIM_015.jpg
1274.788	1.515	correct	generate	Run2	generate/STIM_016.jpg
1279.182	2.205	correct	generate	Run2	generate/STIM_016.jpg
1284.386	1.083	correct	generate	Run2	generate/STIM_016.jpg
1289.287	1.339	correct	generate	Run2	generate/STIM_016.jpg
1294.081	1.268	correct	generate	Run2	generate/STIM_016.jpg
1299.098	1.872	incorrect	generate	Run2	generate/STIM_017.jpg
1303.175	1.786	correct	generate	Run2	generate/STIM_017.jpg
1308.055	1.573	correct	generate	Run2	generate/STIM_017.jpg
1312.003	0.944	correct	generate	Run2	generate/STIM_017.jpg
1315.642	1.651	correct	generate	Run2	generate/STIM_017.jpg
1320.209	1.592	correct	generate	Run2	generate/STIM_018.jpg
1325.172	1.56	correct	generate	Run2	generate/STIM_018.jpg
1330.745	1.075	correct	generate	Run2	generate/STIM_018.jpg
1335.718	1.447	correct	generate	Run2	generate/STIM_018.jpg
1340.28	1.684	correct	generate	Run2	generate/STIM_018.jpg
1345.967	2.323	correct	generate	Run2	generate/STIM_019.jpg
1352.251	1.271	correct	generate	Run2	generate/STIM_019.jpg
1355.793	1.731	correct	generate	Run2	generate/STIM_019.jpg
1361.362	1.038	correct	generate	Run2	generate/STIM_019.jpg
1364.8	0.898	correct	generate	Run2	generate/STIM_019.jpg
1369.007	1.166	correct	generate	Run2	generate/STIM_020.jpg
1373.708	2.001	correct	generate	Run2	generate/STIM_020.jpg
1378.155	2.002	correct	generate	Run2	generate/STIM_020.jpg
1383.284	1.681	correct	generate	Run2	generate/STIM_020.jpg
1388.703	1.216	correct	generate	Run2	generate/STIM_020.jpg
1393.242	1.956	correct	generate	Run2	generate/STIM_021.jpg
1397.365	1.904	correct	generate	Run2	generate/STIM_021.jpg
1403.349	1.822	incorrect	generate	Run2	generate/STIM_021.jpg
1409.056	0.812	correct	generate	Run2	generate/STIM_021.jpg
1413.322	0.929	correct	generate	Run2	generate/STIM_021.jpg
1417.936	2.367	correct	generate	Run2	generate/STIM_022.jpg
1423.642	1.02	correct	generate	Run2	generate/STIM_022.jpg
1427.605	1.532	correct	generate	Run2	generate/STIM_022.jpg
1431.417	1.436	correct	generate	Run2	generate/STIM_022.jpg
1436.533	0.918	correct	generate	Run2	generate/STIM_022.jpg
1440.628	2.092	correct	generate	Run2	generate/STIM_023.jpg
1446.713	2.038	correct	generate	Run2	generate/STIM_023.jpg
1451.241	1.755	correct	generate	Run2	generate/STIM_023.jpg
1456.101	1.064	correct	generate	Run2	generate/STIM_023.jpg
1460.838	1.303	correct	generate	Run2	generate/STIM_023.jpg
1464.831	1.379	correct	generate	Run2	generate/STIM_024.jpg
1468.401	1.67	correct	generate	Run2	generate/STIM_024.jpg
1473.983	1.57	correct	generate	Run2	generate/STIM_024.jpg
1477.935	1.733	correct	generate	Run2	generate/STIM_024.jpg
1482.713	1.324	correct	generate	Run2	generate/STIM_024.jpg
1486.918	0.858	correct	repeat	Run2	repeat/STIM_000.jpg
1490.082	0.942	incorrect	repeat	Run2	repeat/STIM_000.jpg
1494.645	0.855	correct	repeat	Run2	repeat/STIM_000.jpg
1498.614	0.677	correct	repeat	Run2	repeat/STIM_000.jpg
1502.092	0.629	correct	repeat	Run2	repeat/STIM_000.jpg
1506.522	0.843	correct	repeat	Run2	repeat/STIM_001.jpg
1509.523	0.764	correct	repeat	Run2	repeat/STIM_001.jpg
1512.85	0.579	correct	repeat	Run2	repeat/STIM_001.jpg
1515.986	0.89	correct	repeat	Run2	repeat/STIM_001.jpg
1519.051	0.551	correct	repeat	Run2	repeat/STIM_001.jpg
1522.532	0.58	correct	repeat	Run2	repeat/STIM_002.jpg
1526.134	0.739	correct	repeat	Run2	repeat/STIM_002.jpg
1529.592	0.876	correct	repeat	Run2	repeat/STIM_002.jpg
1533.015	0.744	correct	repeat	Run2	repeat/STIM_002.jpg
1536.382	0.512	correct	repeat	Run2	repeat/STIM_002.jpg
1539.713	0.892	correct	repeat	Run2	repeat/STIM_003.jpg
1544.002	0.841	correct	repeat	Run2	repeat/STIM_003.jpg
1547.727	0.58	correct	repeat	Run2	repeat/STIM_003.jpg
1551.607	0.494	correct	repeat	Run2	repeat/STIM_003.jpg
1554.54	0.896	correct	repeat	Run2	repeat/STIM_003.jpg
1558.941	0.649	correct	repeat	Run2	repeat/STIM_004.jpg
1562.676	0.905	correct	repeat	Run2	repeat/STIM_004.jpg
1566.809	0.822	correct	repeat	Run2	repeat/STIM_004.jpg
1571.356	0.933	correct	repeat	Run2	repeat/STIM_004.jpg
1574.456	0.504	correct	repeat	Run2	repeat/STIM_004.jpg
1577.695	0.691	correct	repeat	Run2	repeat/STIM_005.jpg
1581.043	0.767	correct	repeat	Run2	repeat/STIM_005.jpg
1585.04	0.654	correct	repeat	Run2	repeat/STIM_005.jpg
1588.355	0.594	correct	repeat	Run2	repeat/STIM_005.jpg
1592.963	0.806	correct	repeat	Run2	repeat/STIM_005.jpg
1596.676	0.491	correct	repeat	Run2	repeat/STIM_006.jpg
1599.713	0.803	correct	repeat	Run2	repeat/STIM_006.jpg
1602.653	0.706	correct	repeat	Run2	repeat/STIM_006.jpg
1606.771	0.729	correct	repeat	Run2	repeat/STIM_006.jpg
1611.331	0.796	correct	repeat	Run2	repeat/STIM_006.jpg
1615.103	0.872	correct	repeat	Run2	repeat/STIM_007.jpg
1618.503	0.771	incorrect	repeat	Run2	repeat/STIM_007.jpg
1623.249	0.543	correct	repeat	Run2	repeat/STIM_007.jpg
1626.028	0.635	correct	repeat	Run2	repeat/STIM_007.jpg
1628.733	0.687	correct	repeat	Run2	repeat/STIM_007.jpg
1632.938	0.59	incorrect	repeat	Run2	repeat/STIM_008.jpg
1636.088	0.738	correct	repeat	Run2	repeat/STIM_008.jpg
1640.392	0.664	correct	repeat	Run2	repeat/STIM_008.jpg
1644.206	0.866	correct	repeat	Run2	repeat/STIM_008.jpg
1648.413	0.552	correct	repeat	Run2	repeat/STIM_008.jpg
1651.669	0.913	correct	repeat	Run2	repeat/STIM_009.jpg
1656.183	0.701	correct	repeat	Run2	repeat/STIM_009.jpg
1660.02	0.636	correct	repeat	Run2	repeat/STIM_009.jpg
1663.871	0.57	correct	repeat	Run2	repeat/STIM_009.jpg
1667.096	0.606	correct	repeat	Run2	repeat/STIM_009.jpg
1669.764	0.787	incorrect	repeat	Run2	repeat/STIM_010.jpg
1674.125	0.51	correct	repeat	Run2	repeat/STIM_010.jpg
1677.707	0.687	correct	repeat	Run2	repeat/STIM_010.jpg
1681.687	0.793	correct	repeat	Run2	repeat/STIM_010.jpg
1686.412	0.569	correct	repeat	Run2	repeat/STIM_010.jpg
1690.477	0.894	correct	repeat	Run2	repeat/STIM_011.jpg
1693.864	0.514	correct	repeat	Run2	repeat/STIM_011.jpg
1697.836	0.575	correct	repeat	Run2	repeat/STIM_011.jpg
1701.307	0.651	correct	repeat	Run2	repeat/STIM_011.jpg
1705.184	0.798	correct	repeat	Run2	repeat/STIM_011.jpg
1709.765	0.75	correct	repeat	Run2	repeat/STIM_012.jpg
1713.909	0.841	correct	repeat	Run2	repeat/STIM_012.jpg
1717.733	0.712	correct	repeat	Run2	repeat/STIM_012.jpg
1721.763	0.602	correct	repeat	Run2	repeat/STIM_012.jpg
1725.062	0.547	correct	repeat	Run2	repeat/STIM_012.jpg
1729.393	0.537	correct	repeat	Run2	repeat/STIM_013.jpg
1732.068	0.557	correct	repeat	Run2	repeat/STIM_013.jpg
1735.1	0.689	correct	repeat	Run2	repeat/STIM_013.jpg
1737.985	0.612	correct	repeat	Run2	repeat/STIM_013.jpg
1741.788	0.495	correct	repeat	Run2	repeat/STIM_013.jpg
1745.192	0.538	correct	repeat	Run2	repeat/STIM_014.jpg
1749.352	0.509	correct	repeat	Run2	repeat/STIM_014.jpg
1753.508	0.879	correct	repeat	Run2	repeat/STIM_014.jpg
1757.763	0.66	correct	repeat	Run2	repeat/STIM_014.jpg
1761.169	0.85	correct	repeat	Run2	repeat/STIM_014.jpg
1765.298	1.874	correct	generate	Run3	generate/STIM_000.jpg
1769.755	1.776	correct	generate	Run3	generate/STIM_000.jpg
1775.059	1.532	correct	generate	Run3	generate/STIM_000.jpg
1779.299	1.754	correct	generate	Run3	generate/STIM_000.jpg
1783.47	1.203	correct	generate	Run3	generate/STIM_000.jpg
1788.357	0.885	correct	generate	Run3	generate/STIM_001.jpg
1791.891	0.882	correct	generate	Run3	generate/STIM_001.jpg
1795.374	1.78	correct	generate	Run3	generate/STIM_001.jpg
1799.511	1.606	correct	generate	Run3	generate/STIM_001.jpg
1803.522	1.153	correct	generate	Run3	generate/STIM_001.jpg
1808.321	1.573	correct	generate	Run3	generate/STIM_002.jpg
1812.53	0.829	correct	generate	Run3	generate/STIM_002.jpg
1817.019	0.87	correct	generate	Run3	generate/STIM_002.jpg
1820.078	1.699	correct	generate	Run3	generate/STIM_002.jpg
1825.646	1.881	correct	generate	Run3	generate/STIM_002.jpg
1831.016	1.63	correct	generate	Run3	generate/STIM_003.jpg
1835.785	1.492	correct	generate	Run3	generate/STIM_003.jpg
1839.793	1.924	correct	generate	Run3	generate/STIM_003.jpg
1844.44	1.251	incorrect	generate	Run3	generate/STIM_003.jpg
1848.418	1.755	correct	generate	Run3	generate/STIM_003.jpg
1853.308	1.202	correct	generate	Run3	generate/STIM_004.jpg
1858.209	1.334	correct	generate	Run3	generate/STIM_004.jpg
1861.666	0.971	correct	generate	Run3	generate/STIM_004.jpg
1865.953	0.951	correct	generate	Run3	generate/STIM_004.jpg
1869.432	1.36	correct	generate	Run3	generate/STIM_004.jpg
1873.785	1.039	incorrect	generate	Run3	generate/STIM_005.jpg
1877.061	1.291	correct	generate	Run3	generate/STIM_005.jpg
1881.088	1.201	correct	generate	Run3	generate/STIM_005.jpg
1885.989	1.089	correct	generate	Run3	generate/STIM_005.jpg
1890.118	1.645	correct	generate	Run3	generate/STIM_005.jpg
1894.186	1.978	correct	generate	Run3	generate/STIM_006.jpg
1900.252	0.864	correct	generate	Run3	generate/STIM_006.jpg
1904.074	1.529	correct	generate	Run3	generate/STIM_006.jpg
1908.969	0.97	correct	generate	Run3	generate/STIM_006.jpg
1913.207	1.247	correct	generate	Run3	generate/STIM_006.jpg
1917.906	0.819	correct	generate	Run3	generate/STIM_007.jpg
1921.47	1.187	correct	generate	Run3	generate/STIM_007.jpg
1925.083	1.01	correct	generate	Run3	generate/STIM_007.jpg
1929.208	1.068	correct	generate	Run3	generate/STIM_007.jpg
1932.819	0.935	correct	generate	Run3	generate/STIM_007.jpg
1937.008	0.855	correct	generate	Run3	generate/STIM_008.jpg
1941.583	0.995	correct	generate	Run3	generate/STIM_008.jpg
1945.078	1.337	correct	generate	Run3	generate/STIM_008.jpg
1950.137	1.83	correct	generate	Run3	generate/STIM_008.jpg
1955.256	0.812	correct	generate	Run3	generate/STIM_008.jpg
1959.361	1.856	correct	generate	Run3	generate/STIM_009.jpg
1964.278	1.57	correct	generate	Run3	generate/STIM_009.jpg
1968.441	1.024	correct	generate	Run3	generate/STIM_009.jpg
1973.258	0.859	correct	generate	Run3	generate/STIM_009.jpg
1976.739	1.792	correct	generate	Run3	generate/STIM_009.jpg
1982.415	1.111	correct	generate	Run3	generate/STIM_010.jpg
1986.561	1.654	correct	generate	Run3	generate/STIM_010.jpg
1990.347	1.758	correct	generate	Run3	generate/STIM_010.jpg
1994.398	0.924	correct	generate	Run3	generate/STIM_010.jpg
1998.475	0.924	correct	generate	Run3	generate/STIM_010.jpg
2002.503	1.117	correct	generate	Run3	generate/STIM_011.jpg
2007.395	1.198	correct	generate	Run3	generate/STIM_011.jpg
2011.169	1.028	correct	generate	Run3	generate/STIM_011.jpg
2015.092	0.912	correct	generate	Run3	generate/STIM_011.jpg
2019.455	1.49	correct	generate	Run3	generate/STIM_011.jpg
2024.171	0.969	correct	generate	Run3	generate/STIM_012.jpg
2028.809	1.964	correct	generate	Run3	generate/STIM_012.jpg
2034.3	0.865	correct	generate	Run3	generate/STIM_012.jpg
2038.334	1.133	correct	generate	Run3	generate/STIM_012.jpg
2042.25	1.745	correct	generate	Run3	generate/STIM_012.jpg
2046.499	1.048	correct	generate	Run3	generate/STIM_013.jpg
2050.242	1.37	correct	generate	Run3	generate/STIM_013.jpg
2053.929	1.382	correct	generate	Run3	generate/STIM_013.jpg
2058.504	1.01	correct	generate	Run3	generate/STIM_013.jpg
2062.283	1.665	correct	generate	Run3	generate/STIM_013.jpg
2066.958	1.866	correct	generate	Run3	generate/STIM_014.jpg
2071.448	1.014	correct	generate	Run3	generate/STIM_014.jpg
2075.142	1.748	correct	generate	Run3	generate/STIM_014.jpg
2080.207	1.078	correct	generate	Run3	generate/STIM_014.jpg
2083.537	1.984	correct	generate	Run3	generate/STIM_014.jpg
2088.483	1.875	correct	generate	Run3	generate/STIM_015.jpg
2093.645	1.344	correct	generate	Run3	generate/STIM_015.jpg
2097.53	1.319	correct	generate	Run3	generate/STIM_015.jpg
2102.867	1.542	correct	generate	Run3	generate/STIM_015.jpg
2108.011	1.962	correct	generate	Run3	generate/STIM_015.jpg
2112.366	1.93	correct	generate	Run3	generate/STIM_016.jpg
2117.282	1.747	correct	generate	Run3	generate/STIM_016.jpg
2122.509	1.795	correct	generate	Run3	generate/STIM_016.jpg
2127.816	1.398	correct	generate	Run3	generate/STIM_016.jpg
2131.467	1.505	correct	generate	Run3	generate/STIM_016.jpg
2137.046	1.346	correct	generate	Run3	generate/STIM_017.jpg
2140.955	1.854	correct	generate	Run3	generate/STIM_017.jpg
2145.348	1.662	correct	generate	Run3	generate/STIM_017.jpg
2150.196	1.127	incorrect	generate	Run3	generate/STIM_017.jpg
2153.434	0.834	correct	generate	Run3	generate/STIM_017.jpg
2157.782	1.251	incorrect	generate	Run3	generate/STIM_018.jpg
2162.585	1.772	correct	generate	Run3	generate/STIM_018.jpg
2167.515	1.685	correct	generate	Run3	generate/STIM_018.jpg
2172.174	0.97	correct	generate	Run3	generate/STIM_018.jpg
2176.106	1.017	correct	generate	Run3	generate/STIM_018.jpg
2179.324	1.127	correct	generate	Run3	generate/STIM_019.jpg
2182.634	0.979	correct	generate	Run3	generate/STIM_019.jpg
2187.522	1.618	incorrect	generate	Run3	generate/STIM_019.jpg
2192.0	1.994	correct	generate	Run3	generate/STIM_019.jpg
2197.558	1.294	correct	generate	Run3	generate/STIM_019.jpg
2201.28	1.292	correct	generate	Run3	generate/STIM_020.jpg
2206.431	1.535	correct	generate	Run3	generate/STIM_020.jpg
2211.321	1.908	correct	generate	Run3	generate/STIM_020.jpg
2215.437	1.312	incorrect	generate	Run3	generate/STIM_020.jpg
2219.867	0.827	correct	generate	Run3	generate/STIM_020.jpg
2224.52	1.033	incorrect	generate	Run3	generate/STIM_021.jpg
2228.669	1.6	correct	generate	Run3	generate/STIM_021.jpg
2232.657	1.626	correct	generate	Run3	generate/STIM_021.jpg
2236.835	0.882	correct	generate	Run3	generate/STIM_021.jpg
2240.884	1.841	correct	generate	Run3	generate/STIM_021.jpg
2246.168	1.724	correct	generate	Run3	generate/STIM_022.jpg
2251.118	1.846	correct	generate	Run3	generate/STIM_022.jpg
2255.2	1.324	correct	generate	Run3	generate/STIM_022.jpg
2258.834	1.98	correct	generate	Run3	generate/STIM_022.jpg
2264.002	1.305	correct	generate	Run3	generate/STIM_022.jpg
2269.27	0.811	correct	generate	Run3	generate/STIM_023.jpg
2273.414	0.848	correct	generate	Run3	generate/STIM_023.jpg
2276.322	1.867	correct	generate	Run3	generate/STIM_023.jpg
2280.313	1.105	correct	generate	Run3	generate/STIM_023.jpg
2284.255	1.534	correct	generate	Run3	generate/STIM_023.jpg
2288.401	1.046	correct	generate	Run3	generate/STIM_024.jpg
2293.412	1.816	correct	generate	Run3	generate/STIM_024.jpg
2298.393	1.861	correct	generate	Run3	generate/STIM_024.jpg
2303.715	1.798	correct	generate	Run3	generate/STIM_024.jpg
2309.081	1.539	correct	generate	Run3	generate/STIM_024.jpg
2313.609	0.593	correct	repeat	Run3	repeat/STIM_000.jpg
2318.074	0.495	correct	repeat	Run3	repeat/STIM_000.jpg
2320.678	0.926	correct	repeat	Run3	repeat/STIM_000.jpg
2323.681	0.918	correct	repeat	Run3	repeat/STIM_000.jpg
2327.02	0.944	correct	repeat	Run3	repeat/STIM_000.jpg
2330.2	0.807	correct	repeat	Run3	repeat/STIM_001.jpg
2334.225	0.752	correct	repeat	Run3	repeat/STIM_001.jpg
2337.823	0.71	correct	repeat	Run3	repeat/STIM_001.jpg
2340.783	0.513	correct	repeat	Run3	repeat/STIM_001.jpg
2344.063	0.93	correct	repeat	Run3	repeat/STIM_001.jpg
2348.16	0.539	correct	repeat	Run3	repeat/STIM_002.jpg
2352.369	0.856	correct	repeat	Run3	repeat/STIM_002.jpg
2357.0	0.533	correct	repeat	Run3	repeat/STIM_002.jpg
2359.76	0.596	correct	repeat	Run3	repeat/STIM_002.jpg
2362.797	0.942	correct	repeat	Run3	repeat/STIM_002.jpg
2366.629	0.674	correct	repeat	Run3	repeat/STIM_003.jpg
2369.588	0.844	correct	repeat	Run3	repeat/STIM_003.jpg
2373.139	0.848	correct	repeat	Run3	repeat/STIM_003.jpg
2377.854	0.763	correct	repeat	Run3	repeat/STIM_003.jpg
2381.545	0.792	correct	repeat	Run3	repeat/STIM_003.jpg
2385.15	0.948	correct	repeat	Run3	repeat/STIM_004.jpg
2389.227	0.558	correct	repeat	Run3	repeat/STIM_004.jpg
2392.263	0.822	correct	repeat	Run3	repeat/STIM_004.jpg
2396.008	0.574	correct	repeat	Run3	repeat/STIM_004.jpg
2399.391	0.632	correct	repeat	Run3	repeat/STIM_004.jpg
2403.68	0.802	correct	repeat	Run3	repeat/STIM_005.jpg
2407.791	0.734	correct	repeat	Run3	repeat/STIM_005.jpg
2411.005	0.776	correct	repeat	Run3	repeat/STIM_005.jpg
2414.18	0.642	correct	repeat	Run3	repeat/STIM_005.jpg
2418.276	0.941	correct	repeat	Run3	repeat/STIM_005.jpg
2423.106	0.535	incorrect	repeat	Run3	repeat/STIM_006.jpg
2425.836	0.483	correct	repeat	Run3	repeat/STIM_006.jpg
2428.616	0.795	correct	repeat	Run3	repeat/STIM_006.jpg
2432.3	0.582	correct	repeat	Run3	repeat/STIM_006.jpg
2435.877	0.808	correct	repeat	Run3	repeat/STIM_006.jpg
2439.226	0.77	correct	repeat	Run3	repeat/STIM_007.jpg
2443.488	0.612	incorrect	repeat	Run3	repeat/STIM_007.jpg
2446.298	0.627	correct	repeat	Run3	repeat/STIM_007.jpg
2449.597	0.586	incorrect	repeat	Run3	repeat/STIM_007.jpg
2453.86	0.644	correct	repeat	Run3	repeat/STIM_007.jpg
2458.34	0.66	correct	repeat	Run3	repeat/STIM_008.jpg
2461.318	0.675	correct	repeat	Run3	repeat/STIM_008.jpg
2464.81	0.863	correct	repeat	Run3	repeat/STIM_008.jpg
2468.873	0.847	correct	repeat	Run3	repeat/STIM_008.jpg
2472.333	0.855	correct	repeat	Run3	repeat/STIM_008.jpg
2475.736	0.593	correct	repeat	Run3	repeat/STIM_009.jpg
2478.615	0.775	correct	repeat	Run3	repeat/STIM_009.jpg
2482.651	0.809	correct	repeat	Run3	repeat/STIM_009.jpg
2486.179	0.789	correct	repeat	Run3	repeat/STIM_009.jpg
2489.635	0.856	incorrect	repeat	Run3	repeat/STIM_009.jpg
2494.219	0.881	correct	repeat	Run3	repeat/STIM_010.jpg
2498.245	0.867	correct	repeat	Run3	repeat/STIM_010.jpg
2501.19	0.719	correct	repeat	Run3	repeat/STIM_010.jpg
2505.802	0.78	correct	repeat	Run3	repeat/STIM_010.jpg
2510.27	0.823	correct	repeat	Run3	repeat/STIM_010.jpg
2514.85	0.84	correct	repeat	Run3	repeat/STIM_011.jpg
2518.777	0.583	incorrect	repeat	Run3	repeat/STIM_011.jpg
2523.05	0.872	correct	repeat	Run3	repeat/STIM_011.jpg
2526.717	0.821	correct	repeat	Run3	repeat/STIM_011.jpg
2531.364	0.656	correct	repeat	Run3	repeat/STIM_011.jpg
2535.239	0.5	correct	repeat	Run3	repeat/STIM_012.jpg
2539.758	0.845	correct	repeat	Run3	repeat/STIM_012.jpg
2543.211	0.704	correct	repeat	Run3	repeat/STIM_012.jpg
2547.724	0.682	correct	repeat	Run3	repeat/STIM_012.jpg
2550.508	0.765	correct	repeat	Run3	repeat/STIM_012.jpg
2554.288	0.698	correct	repeat	Run3	repeat/STIM_013.jpg
2557.396	0.945	correct	repeat	Run3	repeat/STIM_013.jpg
2561.333	0.52	correct	repeat	Run3	repeat/STIM_013.jpg
2565.86	0.819	correct	repeat	Run3	repeat/STIM_013.jpg
2568.9	0.714	correct	repeat	Run3	repeat/STIM_013.jpg
2572.727	0.905	correct	repeat	Run3	repeat/STIM_014.jpg
2575.763	0.713	correct	repeat	Run3	repeat/STIM_014.jpg
2579.305	0.696	correct	repeat	Run3	repeat/STIM_014.jpg
2582.933	0.475	correct	repeat	Run3	repeat/STIM_014.jpg
2586.269	0.913	correct	repeat	Run3	repeat/STIM_014.jpg
2590.833	1.208	correct	generate	Run4	generate/STIM_000.jpg
2594.985	1.136	correct	generate	Run4	generate/STIM_000.jpg
2598.89	1.456	correct	generate	Run4	generate/STIM_000.jpg
2602.675	1.929	correct	generate	Run4	generate/STIM_000.jpg
2607.348	1.488	correct	generate	Run4	generate/STIM_000.jpg
2612.815	0.984	correct	generate	Run4	generate/STIM_001.jpg
2616.574	1.33	correct	generate	Run4	generate/STIM_001.jpg
2621.916	1.118	correct	generate	Run4	generate/STIM_001.jpg
2626.898	1.107	correct	generate	Run4	generate/STIM_001.jpg
2631.263	1.111	correct	generate	Run4	generate/STIM_001.jpg
2634.625	1.72	correct	generate	Run4	generate/STIM_002.jpg
2639.595	1.286	correct	generate	Run4	generate/STIM_002.jpg
2643.671	1.536	correct	generate	Run4	generate/STIM_002.jpg
2648.759	0.812	correct	generate	Run4	generate/STIM_002.jpg
2652.872	0.965	correct	generate	Run4	generate/STIM_002.jpg
2656.347	1.549	correct	generate	Run4	generate/STIM_003.jpg
2661.87	1.303	correct	generate	Run4	generate/STIM_003.jpg
2666.277	1.943	correct	generate	Run4	generate/STIM_003.jpg
2671.045	1.761	correct	generate	Run4	generate/STIM_003.jpg
2675.676	1.042	correct	generate	Run4	generate/STIM_003.jpg
2680.094	1.176	correct	generate	Run4	generate/STIM_004.jpg
2684.598	0.913	correct	generate	Run4	generate/STIM_004.jpg
2689.112	1.106	correct	generate	Run4	generate/STIM_004.jpg
2694.093	0.898	correct	generate	Run4	generate/STIM_004.jpg
2698.578	1.916	correct	generate	Run4	generate/STIM_004.jpg
2703.001	1.597	correct	generate	Run4	generate/STIM_005.jpg
2706.685	1.603	correct	generate	Run4	generate/STIM_005.jpg
2711.828	1.948	correct	generate	Run4	generate/STIM_005.jpg
2717.581	1.043	correct	generate	Run4	generate/STIM_005.jpg
2722.5	1.519	correct	generate	Run4	generate/STIM_005.jpg
2727.199	1.907	correct	generate	Run4	generate/STIM_006.jpg
2731.551	1.978	correct	generate	Run4	generate/STIM_006.jpg
2735.903	1.264	correct	generate	Run4	generate/STIM_006.jpg
2739.969	1.709	correct	generate	Run4	generate/STIM_006.jpg
2745.106	1.752	correct	generate	Run4	generate/STIM_006.jpg
2749.709	1.905	correct	generate	Run4	generate/STIM_007.jpg
2755.251	1.082	correct	generate	Run4	generate/STIM_007.jpg
2759.775	1.33	correct	generate	Run4	generate/STIM_007.jpg
2765.03	1.509	correct	generate	Run4	generate/STIM_007.jpg
2769.228	1.925	correct	generate	Run4	generate/STIM_007.jpg
2774.878	1.645	correct	generate	Run4	generate/STIM_008.jpg
2780.01	0.802	correct	generate	Run4	generate/STIM_008.jpg
2784.376	1.55	correct	generate	Run4	generate/STIM_008.jpg
2788.985	1.624	correct	generate	Run4	generate/STIM_008.jpg
2794.546	1.794	correct	generate	Run4	generate/STIM_008.jpg
2799.71	1.051	correct	generate	Run4	generate/STIM_009.jpg
2804.596	1.216	correct	generate	Run4	generate/STIM_009.jpg
2809.523	1.546	correct	generate	Run4	generate/STIM_009.jpg
2814.097	1.372	correct	generate	Run4	generate/STIM_009.jpg
2819.438	1.024	correct	generate	Run4	generate/STIM_009.jpg
2823.337	1.403	correct	generate	Run4	generate/STIM_010.jpg
2828.676	1.142	correct	generate	Run4	generate/STIM_010.jpg
2831.984	1.86	correct	generate	Run4	generate/STIM_010.jpg
2836.087	1.076	correct	generate	Run4	generate/STIM_010.jpg
2841.066	1.748	correct	generate	Run4	generate/STIM_010.jpg
2845.134	1.837	correct	generate	Run4	generate/STIM_011.jpg
2849.629	1.567	correct	generate	Run4	generate/STIM_011.jpg
2855.215	1.942	correct	generate	Run4	generate/STIM_011.jpg
2860.78	0.963	correct	generate	Run4	generate/STIM_011.jpg
2864.573	1.169	correct	generate	Run4	generate/STIM_011.jpg
2868.302	1.564	correct	generate	Run4	generate/STIM_012.jpg
2872.487	0.905	correct	generate	Run4	generate/STIM_012.jpg
2877.416	1.592	correct	generate	Run4	generate/STIM_012.jpg
2881.328	1.01	correct	generate	Run4	generate/STIM_012.jpg
2884.846	1.799	correct	generate	Run4	generate/STIM_012.jpg
2889.12	1.135	correct	generate	Run4	generate/STIM_013.jpg
2893.155	1.418	correct	generate	Run4	generate/STIM_013.jpg
2897.081	1.235	correct	generate	Run4	generate/STIM_013.jpg
2900.972	0.8	correct	generate	Run4	generate/STIM_013.jpg
2905.3	0.83	correct	generate	Run4	generate/STIM_013.jpg
2909.158	0.87	correct	generate	Run4	generate/STIM_014.jpg
2913.771	1.178	correct	generate	Run4	generate/STIM_014.jpg
2917.314	1.726	correct	generate	Run4	generate/STIM_014.jpg
2922.762	1.459	correct	generate	Run4	generate/STIM_014.jpg
2928.07	1.342	correct	generate	Run4	generate/STIM_014.jpg
2931.534	0.897	correct	generate	Run4	generate/STIM_015.jpg
2936.139	1.043	correct	generate	Run4	generate/STIM_015.jpg
2939.257	1.393	correct	generate	Run4	generate/STIM_015.jpg
2942.84	1.563	correct	generate	Run4	generate/STIM_015.jpg
2946.816	1.342	correct	generate	Run4	generate/STIM_015.jpg
2950.347	0.938	correct	generate	Run4	generate/STIM_016.jpg
2953.55	1.08	correct	generate	Run4	generate/STIM_016.jpg
2958.279	0.873	correct	generate	Run4	generate/STIM_016.jpg
2961.638	1.968	correct	generate	Run4	generate/STIM_016.jpg
2967.087	1.971	correct	generate	Run4	generate/STIM_016.jpg
2971.355	1.68	correct	generate	Run4	generate/STIM_017.jpg
2975.85	0.871	correct	generate	Run4	generate/STIM_017.jpg
2980.085	1.002	correct	generate	Run4	generate/STIM_017.jpg
2984.936	0.994	correct	generate	Run4	generate/STIM_017.jpg
2988.523	1.768	correct	generate	Run4	generate/STIM_017.jpg
2993.037	1.504	correct	generate	Run4	generate/STIM_018.jpg
2996.717	1.079	correct	generate	Run4	generate/STIM_018.jpg
2999.934	1.464	correct	generate	Run4	generate/STIM_018.jpg
3003.597	1.578	correct	generate	Run4	generate/STIM_018.jpg
3008.521	1.452	correct	generate	Run4	generate/STIM_018.jpg
3013.874	1.228	correct	generate	Run4	generate/STIM_019.jpg
3017.572	1.075	correct	generate	Run4	generate/STIM_019.jpg
3022.119	1.41	correct	generate	Run4	generate/STIM_019.jpg
3027.47	1.154	correct	generate	Run4	generate/STIM_019.jpg
3031.174	1.196	correct	generate	Run4	generate/STIM_019.jpg
3035.549	1.27	correct	generate	Run4	generate/STIM_020.jpg
3039.934	1.924	correct	generate	Run4	generate/STIM_020.jpg
3045.866	1.937	correct	generate	Run4	generate/STIM_020.jpg
3050.744	1.922	correct	generate	Run4	generate/STIM_020.jpg
3054.799	1.916	correct	generate	Run4	generate/STIM_020.jpg
3059.887	1.881	correct	generate	Run4	generate/STIM_021.jpg
3064.024	1.559	incorrect	generate	Run4	generate/STIM_021.jpg
3068.627	1.496	correct	generate	Run4	generate/STIM_021.jpg
3073.697	1.624	correct	generate	Run4	generate/STIM_021.jpg
3079.289	0.946	correct	generate	Run4	generate/STIM_021.jpg
3082.699	1.314	correct	generate	Run4	generate/STIM_022.jpg
3086.741	1.107	correct	generate	Run4	generate/STIM_022.jpg
3090.479	1.874	correct	generate	Run4	generate/STIM_022.jpg
3095.916	1.086	incorrect	generate	Run4	generate/STIM_022.jpg
3099.37	1.126	correct	generate	Run4	generate/STIM_022.jpg
3104.094	1.069	correct	generate	Run4	generate/STIM_023.jpg
3109.113	1.073	correct	generate	Run4	generate/STIM_023.jpg
3113.503	0.855	correct	generate	Run4	generate/STIM_023.jpg
3116.741	1.71	correct	generate	Run4	generate/STIM_023.jpg
3122.007	0.829	correct	generate	Run4	generate/STIM_023.jpg
3126.211	1.612	correct	generate	Run4	generate/STIM_024.jpg
3130.24	1.515	correct	generate	Run4	generate/STIM_024.jpg
3135.198	1.004	correct	generate	Run4	generate/STIM_024.jpg
3139.839	1.502	correct	generate	Run4	generate/STIM_024.jpg
3143.966	0.951	correct	generate	Run4	generate/STIM_024.jpg
3147.538	0.708	correct	repeat	Run4	repeat/STIM_000.jpg
3151.854	0.816	correct	repeat	Run4	repeat/STIM_000.jpg
3155.832	0.548	correct	repeat	Run4	repeat/STIM_000.jpg
3158.866	0.9	correct	repeat	Run4	repeat/STIM_000.jpg
3162.319	0.826	correct	repeat	Run4	repeat/STIM_000.jpg
3166.126	0.668	correct	repeat	Run4	repeat/STIM_001.jpg
3170.184	0.609	correct	repeat	Run4	repeat/STIM_001.jpg
3174.038	0.687	incorrect	repeat	Run4	repeat/STIM_001.jpg
3178.722	0.594	correct	repeat	Run4	repeat/STIM_001.jpg
3182.034	0.76	correct	repeat	Run4	repeat/STIM_001.jpg
3185.588	0.899	incorrect	repeat	Run4	repeat/STIM_002.jpg
3188.714	0.891	correct	repeat	Run4	repeat/STIM_002.jpg
3193.585	0.801	correct	repeat	Run4	repeat/STIM_002.jpg
3197.702	0.843	correct	repeat	Run4	repeat/STIM_002.jpg
3200.747	0.484	correct	repeat	Run4	repeat/STIM_002.jpg
3205.24	0.58	correct	repeat	Run4	repeat/STIM_003.jpg
3208.662	0.557	correct	repeat	Run4	repeat/STIM_003.jpg
3212.643	0.494	correct	repeat	Run4	repeat/STIM_003.jpg
3216.043	0.922	correct	repeat	Run4	repeat/STIM_003.jpg
3220.806	0.544	correct	repeat	Run4	repeat/STIM_003.jpg
3224.611	0.586	correct	repeat	Run4	repeat/STIM_004.jpg
3227.339	0.896	correct	repeat	Run4	repeat/STIM_004.jpg
3231.43	0.883	correct	repeat	Run4	repeat/STIM_004.jpg
3235.237	0.844	correct	repeat	Run4	repeat/STIM_004.jpg
3239.193	0.552	correct	repeat	Run4	repeat/STIM_004.jpg
3243.532	0.768	correct	repeat	Run4	repeat/STIM_005.jpg
3247.65	0.761	correct	repeat	Run4	repeat/STIM_005.jpg
3252.35	0.887	correct	repeat	Run4	repeat/STIM_005.jpg
3256.126	0.737	correct	repeat	Run4	repeat/STIM_005.jpg
3259.122	0.601	correct	repeat	Run4	repeat/STIM_005.jpg
3261.958	0.75	incorrect	repeat	Run4	repeat/STIM_006.jpg
3265.216	0.918	correct	repeat	Run4	repeat/STIM_006.jpg
3269.209	0.607	correct	repeat	Run4	repeat/STIM_006.jpg
3273.162	0.542	correct	repeat	Run4	repeat/STIM_006.jpg
3276.862	0.876	correct	repeat	Run4	repeat/STIM_006.jpg
3280.755	0.778	correct	repeat	Run4	repeat/STIM_007.jpg
3285.287	0.782	correct	repeat	Run4	repeat/STIM_007.jpg
3289.578	0.616	correct	repeat	Run4	repeat/STIM_007.jpg
3292.743	0.688	correct	repeat	Run4	repeat/STIM_007.jpg
3297.006	0.856	correct	repeat	Run4	repeat/STIM_007.jpg
3300.9	0.58	correct	repeat	Run4	repeat/STIM_008.jpg
3305.324	0.763	correct	repeat	Run4	repeat/STIM_008.jpg
3309.695	0.902	correct	repeat	Run4	repeat/STIM_008.jpg
3314.259	0.687	correct	repeat	Run4	repeat/STIM_008.jpg
3317.151	0.75	correct	repeat	Run4	repeat/STIM_008.jpg
3321.164	0.833	correct	repeat	Run4	repeat/STIM_009.jpg
3325.173	0.567	correct	repeat	Run4	repeat/STIM_009.jpg
3328.449	0.934	correct	repeat	Run4	repeat/STIM_009.jpg
3331.579	0.653	correct	repeat	Run4	repeat/STIM_009.jpg
3335.134	0.664	correct	repeat	Run4	repeat/STIM_009.jpg
3338.395	0.896	correct	repeat	Run4	repeat/STIM_010.jpg
3342.979	0.721	correct	repeat	Run4	repeat/STIM_010.jpg
3345.926	0.942	correct	repeat	Run4	repeat/STIM_010.jpg
3349.699	0.538	correct	repeat	Run4	repeat/STIM_010.jpg
3352.802	0.577	correct	repeat	Run4	repeat/STIM_010.jpg
3357.21	0.948	correct	repeat	Run4	repeat/STIM_011.jpg
3361.855	0.859	correct	repeat	Run4	repeat/STIM_011.jpg
3365.504	0.635	correct	repeat	Run4	repeat/STIM_011.jpg
3369.347	0.851	correct	repeat	Run4	repeat/STIM_011.jpg
3373.304	0.865	correct	repeat	Run4	repeat/STIM_011.jpg
3377.855	0.897	correct	repeat	Run4	repeat/STIM_012.jpg
3381.118	0.816	incorrect	repeat	Run4	repeat/STIM_012.jpg
3385.083	0.498	correct	repeat	Run4	repeat/STIM_012.jpg
3389.253	0.894	correct	repeat	Run4	repeat/STIM_012.jpg
3392.573	0.925	incorrect	repeat	Run4	repeat/STIM_012.jpg
3396.412	0.697	correct	repeat	Run4	repeat/STIM_013.jpg
3401.081	0.673	correct	repeat	Run4	repeat/STIM_013.jpg
3403.969	0.568	correct	repeat	Run4	repeat/STIM_013.jpg
3407.746	0.847	correct	repeat	Run4	repeat/STIM_013.jpg
3411.783	0.716	correct	repeat	Run4	repeat/STIM_013.jpg
3415.646	0.589	correct	repeat	Run4	repeat/STIM_014.jpg
3418.534	0.544	correct	repeat	Run4	repeat/STIM_014.jpg
3421.444	0.898	correct	repeat	Run4	repeat/STIM_014.jpg
3426.331	0.517	correct	repeat	Run4	repeat/STIM_014.jpg
3430.063	0.628	correct	repeat	Run4	repeat/STIM_014.jpg
