onset	duration	response_time_ms	trial_type	learning_stage	stimulus	response_port
0.0	1.058	1058.2	generate	Run1	generate/STIM_000.jpg	100
4.827	2.349	2349.2	generate	Run1	generate/STIM_000.jpg	100
10.655	1.489	1488.6	generate	Run1	generate/STIM_000.jpg	100
14.215	1.262	1261.7	generate	Run1	generate/STIM_000.jpg	100
17.825	1.636	1636.3	generate	Run1	generate/STIM_000.jpg	99
23.264	1.901	1901.4	generate	Run1	generate/STIM_001.jpg	100
28.734	1.955	1954.8	generate	Run1	generate/STIM_001.jpg	99
34.346	1.486	1486.4	generate	Run1	generate/STIM_001.jpg	100
38.548	2.008	2007.8	generate	Run1	generate/STIM_001.jpg	100
42.806	1.22	1220.3	generate	Run1	generate/STIM_001.jpg	99
46.486	1.536	1535.7	generate	Run1	generate/STIM_002.jpg	99
51.083	1.094	1094.2	generate	Run1	generate/STIM_002.jpg	99
56.173	2.041	2040.9	generate	Run1	generate/STIM_002.jpg	99
60.977	1.993	1992.6	generate	Run1	generate/STIM_002.jpg	99
65.693	2.038	2038.0	generate	Run1	generate/STIM_002.jpg	99
70.681	1.553	1553.4	generate	Run1	generate/STIM_003.jpg	100
76.028	1.731	1730.9	generate	Run1	generate/STIM_003.jpg	100
80.934	1.988	1988.2	generate	Run1	generate/STIM_003.jpg	100
85.275	1.108	1107.9	generate	Run1	generate/STIM_003.jpg	100
90.042	1.531	1531.3	generate	Run1	generate/STIM_003.jpg	99
93.669	2.487	2487.0	generate	Run1	generate/STIM_004.jpg	100
99.69	2.37	2369.7	generate	Run1	generate/STIM_004.jpg	99
104.648	1.422	1421.7	generate	Run1	generate/STIM_004.jpg	100
108.871	1.294	1294.3	generate	Run1	generate/STIM_004.jpg	99
112.265	1.208	1208.3	generate	Run1	generate/STIM_004.jpg	100
116.135	1.101	1101.1	generate	Run1	generate/STIM_005.jpg	100
120.88	1.105	1105.3	generate	Run1	generate/STIM_005.jpg	99
125.22	1.238	1237.5	generate	Run1	generate/STIM_005.jpg	99
128.998	1.375	1374.8	generate	Run1	generate/STIM_005.jpg	99
132.78	1.339	1339.3	generate	Run1	generate/STIM_005.jpg	100
136.27	2.034	2034.2	generate	Run1	generate/STIM_006.jpg	99
141.86	2.303	2302.8	generate	Run1	generate/STIM_006.jpg	99
148.141	1.859	1859.1	generate	Run1	generate/STIM_006.jpg	99
152.131	1.857	1857.4	generate	Run1	generate/STIM_006.jpg	100
156.966	1.881	1880.8	generate	Run1	generate/STIM_006.jpg	100
161.112	1.962	1961.5	generate	Run1	generate/STIM_007.jpg	100
166.85	1.669	1669.1	generate	Run1	generate/STIM_007.jpg	100
172.161	0.998	998.1	generate	Run1	generate/STIM_007.jpg	100
177.02	1.616	1615.6	generate	Run1	generate/STIM_007.jpg	100
182.336	1.369	1368.9	generate	Run1	generate/STIM_007.jpg	99
186.121	1.122	1122.5	generate	Run1	generate/STIM_008.jpg	99
190.222	1.318	1318.5	generate	Run1	generate/STIM_008.jpg	99
194.126	1.503	1503.0	generate	Run1	generate/STIM_008.jpg	100
197.7	1.765	1764.6	generate	Run1	generate/STIM_008.jpg	99
201.93	0.932	932.4	generate	Run1	generate/STIM_008.jpg	99
205.755	2.278	2277.7	generate	Run1	generate/STIM_009.jpg	99
210.866	1.482	1481.8	generate	Run1	generate/STIM_009.jpg	100
214.946	2.031	2031.5	generate	Run1	generate/STIM_009.jpg	100
219.531	1.386	1385.5	generate	Run1	generate/STIM_009.jpg	100
224.005	0.866	865.5	generate	Run1	generate/STIM_009.jpg	100
226.967	1.745	1744.6	generate	Run1	generate/STIM_010.jpg	100
232.467	1.599	1599.0	generate	Run1	generate/STIM_010.jpg	100
236.121	1.871	1871.4	generate	Run1	generate/STIM_010.jpg	100
240.33	1.317	1317.3	generate	Run1	generate/STIM_010.jpg	99
244.193	1.218	1218.3	generate	Run1	generate/STIM_010.jpg	100
248.948	2.269	2268.8	generate	Run1	generate/STIM_011.jpg	99
255.176	2.23	2229.8	generate	Run1	generate/STIM_011.jpg	99
259.72	0.986	985.9	generate	Run1	generate/STIM_011.jpg	100
262.857	1.019	1019.4	generate	Run1	generate/STIM_011.jpg	99
266.592	1.095	1094.7	generate	Run1	generate/STIM_011.jpg	100
269.811	1.142	1142.1	generate	Run1	generate/STIM_012.jpg	100
273.56	2.335	2335.4	generate	Run1	generate/STIM_012.jpg	100
278.734	1.526	1525.5	generate	Run1	generate/STIM_012.jpg	99
282.779	0.896	896.5	generate	Run1	generate/STIM_012.jpg	100
286.434	1.468	1468.0	generate	Run1	generate/STIM_012.jpg	100
291.431	1.28	1280.1	generate	Run1	generate/STIM_013.jpg	100
295.643	1.857	1856.6	generate	Run1	generate/STIM_013.jpg	99
300.912	1.582	1582.0	generate	Run1	generate/STIM_013.jpg	99
305.714	1.352	1351.7	generate	Run1	generate/STIM_013.jpg	100
310.117	1.65	1649.5	generate	Run1	generate/STIM_013.jpg	99
314.982	1.464	1463.6	generate	Run1	generate/STIM_014.jpg	99
319.047	1.467	1466.9	generate	Run1	generate/STIM_014.jpg	100
323.77	2.174	2174.5	generate	Run1	generate/STIM_014.jpg	100
329.278	1.465	1464.8	generate	Run1	generate/STIM_014.jpg	100
333.528	0.979	979.0	generate	Run1	generate/STIM_014.jpg	99
337.144	1.362	1361.6	generate	Run1	generate/STIM_015.jpg	99
341.441	1.792	1791.5	generate	Run1	generate/STIM_015.jpg	100
346.135	1.087	1087.4	generate	Run1	generate/STIM_015.jpg	100
350.248	1.966	1965.9	generate	Run1	generate/STIM_015.jpg	100
355.286	1.808	1807.8	generate	Run1	generate/STIM_015.jpg	99
360.416	2.023	2023.1	generate	Run1	generate/STIM_016.jpg	99
364.44	2.204	2204.0	generate	Run1	generate/STIM_016.jpg	99
369.646	1.969	1968.7	generate	Run1	generate/STIM_016.jpg	99
374.06	1.064	1063.6	generate	Run1	generate/STIM_016.jpg	99
378.305	1.635	1634.6	generate	Run1	generate/STIM_016.jpg	100
383.213	1.145	1145.2	generate	Run1	generate/STIM_017.jpg	100
386.618	2.13	2129.5	generate	Run1	generate/STIM_017.jpg	99
392.247	1.448	1448.2	generate	Run1	generate/STIM_017.jpg	99
395.921	0.913	913.0	generate	Run1	generate/STIM_017.jpg	99
398.878	1.227	1227.2	generate	Run1	generate/STIM_017.jpg	100
403.282	1.683	1683.1	generate	Run1	generate/STIM_018.jpg	99
408.74	1.221	1221.2	generate	Run1	generate/STIM_018.jpg	99
413.687	1.019	1018.7	generate	Run1	generate/STIM_018.jpg	100
417.506	1.296	1295.5	generate	Run1	generate/STIM_018.jpg	99
421.348	0.854	853.7	generate	Run1	generate/STIM_018.jpg	99
425.081	1.894	1893.8	generate	Run1	generate/STIM_019.jpg	99
430.433	2.42	2419.7	generate	Run1	generate/STIM_019.jpg	100
435.273	1.889	1889.2	generate	Run1	generate/STIM_019.jpg	99
440.05	2.123	2122.6	generate	Run1	generate/STIM_019.jpg	99
444.458	1.68	1680.2	generate	Run1	generate/STIM_019.jpg	99
449.982	1.971	1971.1	generate	Run1	generate/STIM_020.jpg	100
453.986	1.178	1178.2	generate	Run1	generate/STIM_020.jpg	100
458.131	2.176	2175.8	generate	Run1	generate/STIM_020.jpg	99
463.234	1.766	1766.2	generate	Run1	generate/STIM_020.jpg	99
468.58	0.977	976.7	generate	Run1	generate/STIM_020.jpg	100
473.055	2.505	2504.6	generate	Run1	generate/STIM_021.jpg	100
477.811	2.349	2348.9	generate	Run1	generate/STIM_021.jpg	99
483.454	1.986	1986.3	generate	Run1	generate/STIM_021.jpg	100
487.442	2.179	2179.1	generate	Run1	generate/STIM_021.jpg	99
493.327	1.201	1201.2	generate	Run1	generate/STIM_021.jpg	100
497.673	1.312	1311.6	generate	Run1	generate/STIM_022.jpg	100
501.857	1.441	1440.6	generate	Run1	generate/STIM_022.jpg	100
506.64	1.194	1194.1	generate	Run1	generate/STIM_022.jpg	100
510.058	1.098	1098.1	generate	Run1	generate/STIM_022.jpg	99
514.834	1.962	1962.0	generate	Run1	generate/STIM_022.jpg	100
520.045	1.844	1844.0	generate	Run1	generate/STIM_023.jpg	99
525.675	1.744	1744.1	generate	Run1	generate/STIM_023.jpg	99
529.598	1.701	1700.9	generate	Run1	generate/STIM_023.jpg	99
535.282	1.479	1478.7	generate	Run1	generate/STIM_023.jpg	100
540.557	1.507	1506.8	generate	Run1	generate/STIM_023.jpg	99
545.528	2.077	2077.1	generate	Run1	generate/STIM_024.jpg	99
551.271	1.372	1372.5	generate	Run1	generate/STIM_024.jpg	99
556.474	2.092	2092.1	generate	Run1	generate/STIM_024.jpg	100
561.952	1.421	1421.4	generate	Run1	generate/STIM_024.jpg	100
565.997	1.065	1064.8	generate	Run1	generate/STIM_024.jpg	99
570.673	0.706	705.7	repeat	Run1	repeat/STIM_000.jpg	99
573.714	0.717	717.4	repeat	Run1	repeat/STIM_000.jpg	99
577.203	0.726	726.2	repeat	Run1	repeat/STIM_000.jpg	99
580.221	0.58	580.5	repeat	Run1	repeat/STIM_000.jpg	99
584.128	0.664	663.7	repeat	Run1	repeat/STIM_000.jpg	100
587.396	0.657	657.2	repeat	Run1	repeat/STIM_001.jpg	99
590.152	0.579	579.2	repeat	Run1	repeat/STIM_001.jpg	100
593.069	0.67	669.5	repeat	Run1	repeat/STIM_001.jpg	99
597.544	0.828	827.8	repeat	Run1	repeat/STIM_001.jpg	99
600.509	0.435	434.7	repeat	Run1	repeat/STIM_001.jpg	99
603.942	0.818	818.3	repeat	Run1	repeat/STIM_002.jpg	100
607.584	0.577	576.9	repeat	Run1	repeat/STIM_002.jpg	99
612.01	0.759	759.4	repeat	Run1	repeat/STIM_002.jpg	99
614.905	0.844	843.7	repeat	Run1	repeat/STIM_002.jpg	99
617.978	0.827	827.1	repeat	Run1	repeat/STIM_002.jpg	99
622.287	0.622	622.4	repeat	Run1	repeat/STIM_003.jpg	99
625.607	0.616	616.5	repeat	Run1	repeat/STIM_003.jpg	99
628.602	0.7	699.7	repeat	Run1	repeat/STIM_003.jpg	100
631.682	0.673	673.4	repeat	Run1	repeat/STIM_003.jpg	100
635.697	0.691	691.4	repeat	Run1	repeat/STIM_003.jpg	100
640.282	0.439	439.0	repeat	Run1	repeat/STIM_004.jpg	100
644.641	0.508	507.9	repeat	Run1	repeat/STIM_004.jpg	100
648.71	0.686	685.7	repeat	Run1	repeat/STIM_004.jpg	100
651.405	0.774	773.9	repeat	Run1	repeat/STIM_004.jpg	99
655.691	0.605	604.7	repeat	Run1	repeat/STIM_004.jpg	99
658.836	0.693	693.1	repeat	Run1	repeat/STIM_005.jpg	99
661.851	0.654	654.0	repeat	Run1	repeat/STIM_005.jpg	99
666.214	0.758	757.5	repeat	Run1	repeat/STIM_005.jpg	100
670.101	0.764	764.4	repeat	Run1	repeat/STIM_005.jpg	99
673.694	0.569	568.7	repeat	Run1	repeat/STIM_005.jpg	100
677.497	0.783	783.4	repeat	Run1	repeat/STIM_006.jpg	100
680.771	0.752	751.7	repeat	Run1	repeat/STIM_006.jpg	100
684.956	0.666	666.1	repeat	Run1	repeat/STIM_006.jpg	100
688.727	0.719	719.0	repeat	Run1	repeat/STIM_006.jpg	100
692.804	0.438	438.3	repeat	Run1	repeat/STIM_006.jpg	100
696.983	0.721	720.7	repeat	Run1	repeat/STIM_007.jpg	100
700.439	0.851	851.3	repeat	Run1	repeat/STIM_007.jpg	100
703.739	0.544	544.2	repeat	Run1	repeat/STIM_007.jpg	99
707.21	0.517	517.4	repeat	Run1	repeat/STIM_007.jpg	100
709.747	0.549	549.2	repeat	Run1	repeat/STIM_007.jpg	100
712.969	0.437	437.4	repeat	Run1	repeat/STIM_008.jpg	99
716.115	0.592	592.2	repeat	Run1	repeat/STIM_008.jpg	100
720.41	0.514	514.4	repeat	Run1	repeat/STIM_008.jpg	99
724.727	0.734	734.3	repeat	Run1	repeat/STIM_008.jpg	99
727.59	0.613	612.7	repeat	Run1	repeat/STIM_008.jpg	100
730.219	0.856	856.3	repeat	Run1	repeat/STIM_009.jpg	100
733.354	0.482	481.7	repeat	Run1	repeat/STIM_009.jpg	99
736.899	0.467	467.0	repeat	Run1	repeat/STIM_009.jpg	100
740.029	0.74	739.8	repeat	Run1	repeat/STIM_009.jpg	100
743.307	0.671	671.2	repeat	Run1	repeat/STIM_009.jpg	99
746.72	0.864	863.7	repeat	Run1	repeat/STIM_010.jpg	100
750.68	0.635	635.1	repeat	Run1	repeat/STIM_010.jpg	100
754.893	0.461	461.1	repeat	Run1	repeat/STIM_010.jpg	100
759.065	0.56	560.2	repeat	Run1	repeat/STIM_010.jpg	99
763.391	0.724	723.6	repeat	Run1	repeat/STIM_010.jpg	99
766.415	0.541	541.4	repeat	Run1	repeat/STIM_011.jpg	100
769.094	0.663	663.3	repeat	Run1	repeat/STIM_011.jpg	99
773.118	0.83	829.7	repeat	Run1	repeat/STIM_011.jpg	100
777.377	0.776	775.9	repeat	Run1	repeat/STIM_011.jpg	100
780.772	0.725	725.0	repeat	Run1	repeat/STIM_011.jpg	99
784.558	0.489	488.7	repeat	Run1	repeat/STIM_012.jpg	99
788.094	0.596	596.1	repeat	Run1	repeat/STIM_012.jpg	100
792.55	0.797	796.7	repeat	Run1	repeat/STIM_012.jpg	99
796.315	0.515	515.3	repeat	Run1	repeat/STIM_012.jpg	100
799.037	0.692	691.7	repeat	Run1	repeat/STIM_012.jpg	100
802.91	0.799	799.3	repeat	Run1	repeat/STIM_013.jpg	100
806.561	0.512	512.4	repeat	Run1	repeat/STIM_013.jpg	100
809.968	0.839	838.6	repeat	Run1	repeat/STIM_013.jpg	99
814.659	0.479	478.9	repeat	Run1	repeat/STIM_013.jpg	99
817.705	0.775	774.8	repeat	Run1	repeat/STIM_013.jpg	100
820.743	0.78	779.5	repeat	Run1	repeat/STIM_014.jpg	99
824.263	0.513	513.1	repeat	Run1	repeat/STIM_014.jpg	99
828.073	0.77	769.7	repeat	Run1	repeat/STIM_014.jpg	100
831.043	0.821	821.3	repeat	Run1	repeat/STIM_014.jpg	99
833.92	0.519	519.1	repeat	Run1	repeat/STIM_014.jpg	100
838.078	1.711	1710.7	generate	Run2	generate/STIM_000.jpg	100
843.166	1.087	1086.7	generate	Run2	generate/STIM_000.jpg	99
846.348	1.941	1941.4	generate	Run2	generate/STIM_000.jpg	99
850.923	1.093	1092.9	generate	Run2	generate/STIM_000.jpg	100
855.166	1.421	1420.9	generate	Run2	generate/STIM_000.jpg	100
859.916	2.086	2085.9	generate	Run2	generate/STIM_001.jpg	99
864.224	0.895	895.2	generate	Run2	generate/STIM_001.jpg	99
868.204	1.848	1848.0	generate	Run2	generate/STIM_001.jpg	100
872.775	1.297	1296.9	generate	Run2	generate/STIM_001.jpg	100
876.099	1.347	1346.6	generate	Run2	generate/STIM_001.jpg	99
880.414	1.11	1110.2	generate	Run2	generate/STIM_002.jpg	99
884.323	1.185	1185.3	generate	Run2	generate/STIM_002.jpg	100
888.965	1.135	1135.0	generate	Run2	generate/STIM_002.jpg	99
893.303	1.001	1001.2	generate	Run2	generate/STIM_002.jpg	100
897.453	0.795	795.2	generate	Run2	generate/STIM_002.jpg	100
901.812	1.154	1153.6	generate	Run2	generate/STIM_003.jpg	100
905.407	1.793	1793.1	generate	Run2	generate/STIM_003.jpg	100
909.828	1.81	1810.2	generate	Run2	generate/STIM_003.jpg	99
915.462	1.795	1794.7	generate	Run2	generate/STIM_003.jpg	99
920.887	1.604	1603.8	generate	Run2	generate/STIM_003.jpg	99
925.074	1.219	1219.4	generate	Run2	generate/STIM_004.jpg	100
929.633	1.14	1139.9	generate	Run2	generate/STIM_004.jpg	100
933.513	1.901	1901.2	generate	Run2	generate/STIM_004.jpg	99
939.303	1.534	1533.5	generate	Run2	generate/STIM_004.jpg	100
943.233	0.877	877.3	generate	Run2	generate/STIM_004.jpg	99
946.531	1.084	1083.7	generate	Run2	generate/STIM_005.jpg	99
951.44	1.054	1054.5	generate	Run2	generate/STIM_005.jpg	99
955.279	0.83	830.0	generate	Run2	generate/STIM_005.jpg	99
960.012	1.614	1613.6	generate	Run2	generate/STIM_005.jpg	99
965.4	1.269	1269.3	generate	Run2	generate/STIM_005.jpg	100
970.449	1.65	1650.3	generate	Run2	generate/STIM_006.jpg	100
975.095	1.425	1425.2	generate	Run2	generate/STIM_006.jpg	99
980.226	1.44	1440.0	generate	Run2	generate/STIM_006.jpg	100
984.327	0.834	834.4	generate	Run2	generate/STIM_006.jpg	99
988.515	1.278	1278.4	generate	Run2	generate/STIM_006.jpg	99
992.187	1.976	1976.0	generate	Run2	generate/STIM_007.jpg	99
997.172	0.995	994.8	generate	Run2	generate/STIM_007.jpg	100
1000.181	1.408	1408.4	generate	Run2	generate/STIM_007.jpg	100
1003.874	0.932	932.2	generate	Run2	generate/STIM_007.jpg	99
1008.292	0.813	812.6	generate	Run2	generate/STIM_007.jpg	100
1011.193	1.442	1441.5	generate	Run2	generate/STIM_008.jpg	99
1015.56	0.856	855.8	generate	Run2	generate/STIM_008.jpg	100
1020.077	1.922	1922.2	generate	Run2	generate/STIM_008.jpg	99
1025.322	0.794	794.3	generate	Run2	generate/STIM_008.jpg	100
1028.763	1.416	1415.6	generate	Run2	generate/STIM_008.jpg	99
1032.545	1.792	1791.9	generate	Run2	generate/STIM_009.jpg	100
1037.904	1.824	1824.3	generate	Run2	generate/STIM_009.jpg	100
1043.434	0.902	902.2	generate	Run2	generate/STIM_009.jpg	99
1046.921	1.324	1323.7	generate	Run2	generate/STIM_009.jpg	99
1051.906	0.763	763.0	generate	Run2	generate/STIM_009.jpg	100
1056.32	1.768	1767.7	generate	Run2	generate/STIM_010.jpg	100
1061.269	1.593	1592.9	generate	Run2	generate/STIM_010.jpg	100
1065.344	1.229	1228.9	generate	Run2	generate/STIM_010.jpg	99
1069.186	1.259	1259.4	generate	Run2	generate/STIM_010.jpg	99
1073.36	0.93	930.1	generate	Run2	generate/STIM_010.jpg	100
1076.491	1.582	1581.7	generate	Run2	generate/STIM_011.jpg	99
1081.241	1.733	1733.3	generate	Run2	generate/STIM_011.jpg	100
1085.09	0.96	959.7	generate	Run2	generate/STIM_011.jpg	100
1088.236	0.837	837.3	generate	Run2	generate/STIM_011.jpg	99
1091.076	1.535	1535.1	generate	Run2	generate/STIM_011.jpg	100
1095.012	0.904	904.5	generate	Run2	generate/STIM_012.jpg	99
1099.873	1.6	1599.9	generate	Run2	generate/STIM_012.jpg	99
1103.864	0.976	976.4	generate	Run2	generate/STIM_012.jpg	99
1107.493	1.67	1670.4	generate	Run2	generate/STIM_012.jpg	100
1111.24	0.862	862.1	generate	Run2	generate/STIM_012.jpg	99
1114.821	1.246	1246.2	generate	Run2	generate/STIM_013.jpg	99
1120.023	1.969	1968.8	generate	Run2	generate/STIM_013.jpg	100
1125.44	1.071	1071.3	generate	Run2	generate/STIM_013.jpg	100
1128.549	1.397	1396.9	generate	Run2	generate/STIM_013.jpg	99
1132.379	0.903	902.7	generate	Run2	generate/STIM_013.jpg	100
1135.534	1.643	1643.1	generate	Run2	generate/STIM_014.jpg	100
1140.905	1.884	1883.6	generate	Run2	generate/STIM_014.jpg	99
1146.393	1.89	1890.2	generate	Run2	generate/STIM_014.jpg	100
1151.162	0.875	875.3	generate	Run2	generate/STIM_014.jpg	99
1155.099	1.363	1362.9	generate	Run2	generate/STIM_014.jpg	99
1159.63	1.506	1506.5	generate	Run2	generate/STIM_015.jpg	100
1163.536	0.849	849.4	generate	Run2	generate/STIM_015.jpg	99
1167.783	1.331	1330.8	generate	Run2	generate/STIM_015.jpg	100
1172.536	1.295	1294.7	generate	Run2	generate/STIM_015.jpg	100
1176.509	1.593	1593.2	generate	Run2	generate/STIM_015.jpg	100
1181.555	1.992	1991.7	generate	Run2	generate/STIM_016.jpg	100
1186.684	1.742	1742.2	generate	Run2	generate/STIM_016.jpg	99
1190.859	1.09	1090.5	generate	Run2	generate/STIM_016.jpg	100
1194.516	1.432	1431.7	generate	Run2	generate/STIM_016.jpg	99
1199.617	1.336	1335.7	generate	Run2	generate/STIM_016.jpg	100
1203.257	1.47	1469.6	generate	Run2	generate/STIM_017.jpg	99
1208.278	1.07	1069.7	generate	Run2	generate/STIM_017.jpg	100
1211.477	1.174	1174.1	generate	Run2	generate/STIM_017.jpg	100
1216.03	1.378	1378.1	generate	Run2	generate/STIM_017.jpg	99
1221.121	1.218	1218.3	generate	Run2	generate/STIM_017.jpg	99
1224.722	1.875	1875.1	generate	Run2	generate/STIM_018.jpg	99
1229.209	1.799	1799.3	generate	Run2	generate/STIM_018.jpg	100
1233.965	1.888	1888.4	generate	Run2	generate/STIM_018.jpg	99
1238.702	1.071	1071.0	generate	Run2	generate/STIM_018.jpg	99
1242.566	1.785	1784.6	generate	Run2	generate/STIM_018.jpg	100
1247.82	1.36	1359.9	generate	Run2	generate/STIM_019.jpg	99
1251.354	1.452	1451.8	generate	Run2	generate/STIM_019.jpg	99
1255.183	1.459	1459.0	generate	Run2	generate/STIM_019.jpg	99
1260.076	1.008	1008.3	generate	Run2	generate/STIM_019.jpg	100
1264.554	1.492	1492.3	generate	Run2	generate/STIM_019.jpg	100
1269.434	1.633	1632.8	generate	Run2	generate/STIM_020.jpg	100
1274.388	1.635	1634.7	generate	Run2	generate/STIM_020.jpg	99
1278.388	1.328	1328.0	generate	Run2	generate/STIM_020.jpg	100
1283.333	1.671	1671.1	generate	Run2	generate/STIM_020.jpg	99
1288.086	1.766	1766.2	generate	Run2	generate/STIM_020.jpg	99
1291.912	1.267	1267.3	generate	Run2	generate/STIM_021.jpg	99
1296.627	1.634	1633.9	generate	Run2	generate/STIM_021.jpg	99
1301.878	1.61	1610.5	generate	Run2	generate/STIM_021.jpg	100
1306.582	0.971	970.7	generate	Run2	generate/STIM_021.jpg	100
1310.319	1.415	1415.3	generate	Run2	generate/STIM_021.jpg	99
1315.522	2.124	2123.8	generate	Run2	generate/STIM_022.jpg	99
1320.023	1.956	1956.2	generate	Run2	generate/STIM_022.jpg	99
1324.339	1.102	1102.0	generate	Run2	generate/STIM_022.jpg	100
1328.77	0.959	958.6	generate	Run2	generate/STIM_022.jpg	100
1333.517	1.53	1529.8	generate	Run2	generate/STIM_022.jpg	100
1337.236	0.93	929.8	generate	Run2	generate/STIM_023.jpg	100
1340.857	1.132	1131.6	generate	Run2	generate/STIM_023.jpg	99
1345.35	0.801	800.9	generate	Run2	generate/STIM_023.jpg	100
1349.121	1.197	1196.7	generate	Run2	generate/STIM_023.jpg	100
1352.602	1.214	1214.0	generate	Run2	generate/STIM_023.jpg	99
1356.089	1.105	1105.2	generate	Run2	generate/STIM_024.jpg	100
1359.668	1.919	1919.1	generate	Run2	generate/STIM_024.jpg	99
1363.834	1.449	1449.4	generate	Run2	generate/STIM_024.jpg	100
1367.811	0.919	918.8	generate	Run2	generate/STIM_024.jpg	99
1372.692	1.424	1423.6	generate	Run2	generate/STIM_024.jpg	99
1376.985	0.729	728.8	repeat	Run2	repeat/STIM_000.jpg	100
1379.85	0.734	734.2	repeat	Run2	repeat/STIM_000.jpg	100
1383.197	0.697	696.6	repeat	Run2	repeat/STIM_000.jpg	100
1386.87	0.866	865.6	repeat	Run2	repeat/STIM_000.jpg	99
1391.592	0.708	708.0	repeat	Run2	repeat/STIM_000.jpg	99
1395.104	0.779	778.8	repeat	Run2	repeat/STIM_001.jpg	100
1399.855	0.767	766.9	repeat	Run2	repeat/STIM_001.jpg	99
1402.646	0.603	602.6	repeat	Run2	repeat/STIM_001.jpg	99
1405.418	0.853	852.8	repeat	Run2	repeat/STIM_001.jpg	100
1409.172	0.508	508.0	repeat	Run2	repeat/STIM_001.jpg	99
1411.785	0.819	818.7	repeat	Run2	repeat/STIM_002.jpg	100
1415.35	0.593	592.8	repeat	Run2	repeat/STIM_002.jpg	99
1419.79	0.788	788.1	repeat	Run2	repeat/STIM_002.jpg	100
1423.396	0.494	493.5	repeat	Run2	repeat/STIM_002.jpg	100
1426.223	0.807	806.8	repeat	Run2	repeat/STIM_002.jpg	100
1429.399	0.822	821.9	repeat	Run2	repeat/STIM_003.jpg	100
1433.034	0.703	702.7	repeat	Run2	repeat/STIM_003.jpg	100
1436.772	0.746	746.4	repeat	Run2	repeat/STIM_003.jpg	99
1439.702	0.55	550.3	repeat	Run2	repeat/STIM_003.jpg	100
1443.844	0.504	503.9	repeat	Run2	repeat/STIM_003.jpg	99
1447.861	0.455	454.9	repeat	Run2	repeat/STIM_004.jpg	99
1451.178	0.681	681.0	repeat	Run2	repeat/STIM_004.jpg	99
1455.127	0.76	760.0	repeat	Run2	repeat/STIM_004.jpg	99
1459.389	0.704	703.7	repeat	Run2	repeat/STIM_004.jpg	100
1462.586	0.761	761.4	repeat	Run2	repeat/STIM_004.jpg	99
1466.563	0.699	698.7	repeat	Run2	repeat/STIM_005.jpg	99
1469.4	0.853	853.2	repeat	Run2	repeat/STIM_005.jpg	100
1472.981	0.605	605.4	repeat	Run2	repeat/STIM_005.jpg	100
1475.587	0.616	616.3	repeat	Run2	repeat/STIM_005.jpg	100
1478.582	0.707	707.2	repeat	Run2	repeat/STIM_005.jpg	100
1481.717	0.744	744.2	repeat	Run2	repeat/STIM_006.jpg	99
1485.182	0.626	626.4	repeat	Run2	repeat/STIM_006.jpg	99
1489.558	0.634	633.8	repeat	Run2	repeat/STIM_006.jpg	99
1493.848	0.475	474.6	repeat	Run2	repeat/STIM_006.jpg	100
1497.859	0.475	474.8	repeat	Run2	repeat/STIM_006.jpg	100
1501.767	0.491	490.9	repeat	Run2	repeat/STIM_007.jpg	100
1504.471	0.765	764.6	repeat	Run2	repeat/STIM_007.jpg	100
1508.932	0.796	796.0	repeat	Run2	repeat/STIM_007.jpg	100
1512.037	0.509	509.0	repeat	Run2	repeat/STIM_007.jpg	99
1516.357	0.561	561.4	repeat	Run2	repeat/STIM_007.jpg	100
1519.563	0.493	493.4	repeat	Run2	repeat/STIM_008.jpg	99
1523.274	0.864	863.8	repeat	Run2	repeat/STIM_008.jpg	100
1526.144	0.639	638.8	repeat	Run2	repeat/STIM_008.jpg	100
1529.052	0.44	440.5	repeat	Run2	repeat/STIM_008.jpg	99
1532.052	0.814	813.7	repeat	Run2	repeat/STIM_008.jpg	100
1535.017	0.48	480.0	repeat	Run2	repeat/STIM_009.jpg	99
1538.092	0.647	646.8	repeat	Run2	repeat/STIM_009.jpg	100
1540.902	0.477	477.1	repeat	Run2	repeat/STIM_009.jpg	100
1544.833	0.646	646.1	repeat	Run2	repeat/STIM_009.jpg	99
1549.314	0.523	522.8	repeat	Run2	repeat/STIM_009.jpg	100
1552.818	0.613	613.3	repeat	Run2	repeat/STIM_010.jpg	99
1555.598	0.837	837.4	repeat	Run2	repeat/STIM_010.jpg	99
1559.461	0.615	615.2	repeat	Run2	repeat/STIM_010.jpg	99
1563.204	0.662	662.0	repeat	Run2	repeat/STIM_010.jpg	100
1567.751	0.862	861.8	repeat	Run2	repeat/STIM_010.jpg	100
1571.076	0.463	462.8	repeat	Run2	repeat/STIM_011.jpg	99
1574.197	0.469	468.9	repeat	Run2	repeat/STIM_011.jpg	100
1577.919	0.474	474.3	repeat	Run2	repeat/STIM_011.jpg	100
1582.364	0.765	764.6	repeat	Run2	repeat/STIM_011.jpg	99
1585.145	0.572	571.8	repeat	Run2	repeat/STIM_011.jpg	100
1589.43	0.834	834.0	repeat	Run2	repeat/STIM_012.jpg	99
1593.698	0.831	831.2	repeat	Run2	repeat/STIM_012.jpg	100
1597.956	0.776	776.3	repeat	Run2	repeat/STIM_012.jpg	99
1602.51	0.602	601.6	repeat	Run2	repeat/STIM_012.jpg	100
1605.901	0.632	632.3	repeat	Run2	repeat/STIM_012.jpg	100
1609.069	0.504	504.1	repeat	Run2	repeat/STIM_013.jpg	100
1612.671	0.858	857.7	repeat	Run2	repeat/STIM_013.jpg	99
1617.346	0.559	559.3	repeat	Run2	repeat/STIM_013.jpg	99
1620.661	0.825	824.7	repeat	Run2	repeat/STIM_013.jpg	99
1624.111	0.602	602.2	repeat	Run2	repeat/STIM_013.jpg	99
1628.201	0.771	770.8	repeat	Run2	repeat/STIM_014.jpg	100
1632.246	0.597	596.9	repeat	Run2	repeat/STIM_014.jpg	99
1635.714	0.645	645.0	repeat	Run2	repeat/STIM_014.jpg	99
1639.364	0.636	635.5	repeat	Run2	repeat/STIM_014.jpg	100
1642.693	0.708	708.3	repeat	Run2	repeat/STIM_014.jpg	100
1647.0	1.449	1449.4	generate	Run3	generate/STIM_000.jpg	100
1650.715	1.43	1430.2	generate	Run3	generate/STIM_000.jpg	99
1654.155	1.503	1502.8	generate	Run3	generate/STIM_000.jpg	100
1658.743	0.865	864.6	generate	Run3	generate/STIM_000.jpg	100
1662.21	1.728	1728.5	generate	Run3	generate/STIM_000.jpg	100
1667.675	0.971	971.4	generate	Run3	generate/STIM_001.jpg	100
1672.399	1.713	1713.0	generate	Run3	generate/STIM_001.jpg	99
1676.337	1.268	1267.6	generate	Run3	generate/STIM_001.jpg	99
1680.158	1.337	1336.8	generate	Run3	generate/STIM_001.jpg	99
1683.732	1.354	1353.8	generate	Run3	generate/STIM_001.jpg	99
1688.076	1.684	1684.1	generate	Run3	generate/STIM_002.jpg	99
1693.128	0.923	923.4	generate	Run3	generate/STIM_002.jpg	99
1697.54	1.436	1436.1	generate	Run3	generate/STIM_002.jpg	100
1702.084	1.605	1604.6	generate	Run3	generate/STIM_002.jpg	99
1706.834	1.648	1647.7	generate	Run3	generate/STIM_002.jpg	100
1712.224	0.985	985.3	generate	Run3	generate/STIM_003.jpg	99
1716.051	1.109	1109.1	generate	Run3	generate/STIM_003.jpg	100
1720.706	1.612	1611.5	generate	Run3	generate/STIM_003.jpg	100
1725.41	0.734	733.6	generate	Run3	generate/STIM_003.jpg	99
1728.645	1.519	1518.8	generate	Run3	generate/STIM_003.jpg	99
1732.929	0.803	802.8	generate	Run3	generate/STIM_004.jpg	99
1737.521	1.448	1448.4	generate	Run3	generate/STIM_004.jpg	99
1741.396	0.954	954.2	generate	Run3	generate/STIM_004.jpg	99
1745.751	1.079	1079.2	generate	Run3	generate/STIM_004.jpg	100
1749.739	0.962	962.0	generate	Run3	generate/STIM_004.jpg	99
1754.388	1.773	1773.1	generate	Run3	generate/STIM_005.jpg	100
1758.652	1.208	1208.2	generate	Run3	generate/STIM_005.jpg	99
1762.54	1.228	1228.5	generate	Run3	generate/STIM_005.jpg	99
1767.046	1.327	1326.9	generate	Run3	generate/STIM_005.jpg	99
1770.433	1.593	1593.2	generate	Run3	generate/STIM_005.jpg	99
1775.429	1.201	1200.9	generate	Run3	generate/STIM_006.jpg	100
1779.931	1.413	1412.7	generate	Run3	generate/STIM_006.jpg	100
1785.101	1.103	1103.3	generate	Run3	generate/STIM_006.jpg	100
1789.845	1.123	1123.0	generate	Run3	generate/STIM_006.jpg	99
1794.378	0.958	957.5	generate	Run3	generate/STIM_006.jpg	100
1797.724	1.5	1499.5	generate	Run3	generate/STIM_007.jpg	99
1802.722	0.812	812.3	generate	Run3	generate/STIM_007.jpg	99
1806.308	0.852	852.0	generate	Run3	generate/STIM_007.jpg	100
1811.112	1.39	1389.9	generate	Run3	generate/STIM_007.jpg	100
1815.482	1.621	1620.6	generate	Run3	generate/STIM_007.jpg	99
1820.743	0.894	894.2	generate	Run3	generate/STIM_008.jpg	99
1823.962	1.56	1559.9	generate	Run3	generate/STIM_008.jpg	100
1828.198	0.817	817.2	generate	Run3	generate/STIM_008.jpg	100
1832.075	1.819	1818.6	generate	Run3	generate/STIM_008.jpg	99
1835.931	0.808	807.6	generate	Run3	generate/STIM_008.jpg	100
1840.009	1.683	1683.1	generate	Run3	generate/STIM_009.jpg	100
1843.933	1.572	1572.1	generate	Run3	generate/STIM_009.jpg	99
1848.763	1.402	1402.0	generate	Run3	generate/STIM_009.jpg	100
1853.443	0.858	858.5	generate	Run3	generate/STIM_009.jpg	100
1857.229	0.784	783.9	generate	Run3	generate/STIM_009.jpg	99
1861.674	1.022	1022.4	generate	Run3	generate/STIM_010.jpg	99
1865.374	1.407	1407.1	generate	Run3	generate/STIM_010.jpg	100
1870.161	1.691	1691.2	generate	Run3	generate/STIM_010.jpg	100
1874.458	0.908	907.6	generate	Run3	generate/STIM_010.jpg	100
1879.313	1.195	1194.7	generate	Run3	generate/STIM_010.jpg	100
1883.84	1.753	1752.6	generate	Run3	generate/STIM_011.jpg	99
1888.527	1.004	1004.4	generate	Run3	generate/STIM_011.jpg	100
1892.161	1.6	1600.1	generate	Run3	generate/STIM_011.jpg	99
1896.957	1.053	1053.3	generate	Run3	generate/STIM_011.jpg	99
1900.391	0.796	796.2	generate	Run3	generate/STIM_011.jpg	100
1904.43	0.981	981.4	generate	Run3	generate/STIM_012.jpg	100
1908.377	1.353	1353.3	generate	Run3	generate/STIM_012.jpg	100
1913.153	0.767	767.1	generate	Run3	generate/STIM_012.jpg	99
1915.921	0.8	800.2	generate	Run3	generate/STIM_012.jpg	99
1919.472	1.402	1402.4	generate	Run3	generate/STIM_012.jpg	99
1923.932	1.613	1613.2	generate	Run3	generate/STIM_013.jpg	99
1929.123	1.476	1475.5	generate	Run3	generate/STIM_013.jpg	100
1933.476	1.698	1697.9	generate	Run3	generate/STIM_013.jpg	100
1938.297	1.713	1713.4	generate	Run3	generate/STIM_013.jpg	100
1942.708	0.903	903.3	generate	Run3	generate/STIM_013.jpg	99
1947.002	0.737	736.9	generate	Run3	generate/STIM_014.jpg	99
1951.429	1.201	1201.2	generate	Run3	generate/STIM_014.jpg	99
1955.657	1.446	1445.9	generate	Run3	generate/STIM_014.jpg	99
1960.944	0.974	973.5	generate	Run3	generate/STIM_014.jpg	100
1965.829	1.28	1280.0	generate	Run3	generate/STIM_014.jpg	99
1969.351	1.684	1684.1	generate	Run3	generate/STIM_015.jpg	99
1973.296	1.058	1058.3	generate	Run3	generate/STIM_015.jpg	99
1977.578	1.505	1505.1	generate	Run3	generate/STIM_015.jpg	100
1982.929	0.79	789.7	generate	Run3	generate/STIM_015.jpg	100
1985.825	1.114	1113.5	generate	Run3	generate/STIM_015.jpg	99
1990.466	1.56	1560.4	generate	Run3	generate/STIM_016.jpg	99
1995.116	1.195	1195.3	generate	Run3	generate/STIM_016.jpg	99
1999.869	1.684	1683.9	generate	Run3	generate/STIM_016.jpg	99
2004.964	0.876	876.5	generate	Run3	generate/STIM_016.jpg	99
2009.578	1.086	1085.8	generate	Run3	generate/STIM_016.jpg	100
2014.616	0.801	800.6	generate	Run3	generate/STIM_017.jpg	99
2017.422	1.581	1581.3	generate	Run3	generate/STIM_017.jpg	99
2022.737	1.713	1713.1	generate	Run3	generate/STIM_017.jpg	100
2026.754	1.686	1686.4	generate	Run3	generate/STIM_017.jpg	99
2030.736	1.72	1719.8	generate	Run3	generate/STIM_017.jpg	100
2036.221	1.757	1756.9	generate	Run3	generate/STIM_018.jpg	100
2041.128	1.808	1808.0	generate	Run3	generate/STIM_018.jpg	99
2046.167	0.799	799.1	generate	Run3	generate/STIM_018.jpg	99
2050.856	1.612	1611.8	generate	Run3	generate/STIM_018.jpg	100
2054.588	1.429	1428.9	generate	Run3	generate/STIM_018.jpg	100
2059.642	0.779	778.7	generate	Run3	generate/STIM_019.jpg	99
2062.453	0.733	733.1	generate	Run3	generate/STIM_019.jpg	100
2065.536	0.859	858.8	generate	Run3	generate/STIM_019.jpg	100
2069.599	1.548	1548.1	generate	Run3	generate/STIM_019.jpg	99
2073.172	1.65	1650.3	generate	Run3	generate/STIM_019.jpg	99
2076.855	0.75	749.6	generate	Run3	generate/STIM_020.jpg	100
2081.029	1.608	1608.2	generate	Run3	generate/STIM_020.jpg	100
2085.316	1.263	1263.4	generate	Run3	generate/STIM_020.jpg	100
2089.192	1.348	1348.0	generate	Run3	generate/STIM_020.jpg	100
2094.263	1.788	1788.5	generate	Run3	generate/STIM_020.jpg	100
2099.662	1.723	1722.7	generate	Run3	generate/STIM_021.jpg	99
2103.936	1.334	1334.5	generate	Run3	generate/STIM_021.jpg	99
2108.206	1.308	1307.9	generate	Run3	generate/STIM_021.jpg	100
2112.466	1.177	1176.6	generate	Run3	generate/STIM_021.jpg	99
2117.535	1.239	1239.1	generate	Run3	generate/STIM_021.jpg	100
2122.615	1.152	1151.6	generate	Run3	generate/STIM_022.jpg	100
2125.794	1.16	1160.0	generate	Run3	generate/STIM_022.jpg	100
2129.628	1.236	1235.5	generate	Run3	generate/STIM_022.jpg	100
2133.462	1.715	1715.1	generate	Run3	generate/STIM_022.jpg	99
2138.254	1.307	1306.7	generate	Run3	generate/STIM_022.jpg	99
2142.584	1.702	1702.1	generate	Run3	generate/STIM_023.jpg	99
2147.172	1.473	1473.3	generate	Run3	generate/STIM_023.jpg	100
2152.13	0.852	852.5	generate	Run3	generate/STIM_023.jpg	99
2156.548	1.771	1770.7	generate	Run3	generate/STIM_023.jpg	100
2161.668	1.379	1378.9	generate	Run3	generate/STIM_023.jpg	99
2166.28	1.103	1103.4	generate	Run3	generate/STIM_024.jpg	99
2170.362	1.351	1350.8	generate	Run3	generate/STIM_024.jpg	100
2174.199	1.392	1392.5	generate	Run3	generate/STIM_024.jpg	99
2178.035	1.462	1462.5	generate	Run3	generate/STIM_024.jpg	99
2181.654	1.655	1654.8	generate	Run3	generate/STIM_024.jpg	99
2186.322	0.436	435.5	repeat	Run3	repeat/STIM_000.jpg	99
2189.053	0.527	526.8	repeat	Run3	repeat/STIM_000.jpg	99
2192.736	0.59	590.0	repeat	Run3	repeat/STIM_000.jpg	99
2197.092	0.581	581.1	repeat	Run3	repeat/STIM_000.jpg	100
2200.765	0.655	654.8	repeat	Run3	repeat/STIM_000.jpg	100
2204.373	0.719	719.1	repeat	Run3	repeat/STIM_001.jpg	99
2208.344	0.783	783.1	repeat	Run3	repeat/STIM_001.jpg	100
2211.397	0.822	821.5	repeat	Run3	repeat/STIM_001.jpg	100
2214.784	0.555	554.9	repeat	Run3	repeat/STIM_001.jpg	100
2218.038	0.731	730.7	repeat	Run3	repeat/STIM_001.jpg	99
2221.333	0.534	533.5	repeat	Run3	repeat/STIM_002.jpg	99
2225.211	0.856	856.4	repeat	Run3	repeat/STIM_002.jpg	100
2228.206	0.449	449.1	repeat	Run3	repeat/STIM_002.jpg	99
2231.491	0.583	583.3	repeat	Run3	repeat/STIM_002.jpg	100
2235.985	0.717	717.3	repeat	Run3	repeat/STIM_002.jpg	100
2238.978	0.579	579.0	repeat	Run3	repeat/STIM_003.jpg	100
2241.901	0.558	557.7	repeat	Run3	repeat/STIM_003.jpg	100
2244.867	0.45	449.8	repeat	Run3	repeat/STIM_003.jpg	100
2248.019	0.498	498.5	repeat	Run3	repeat/STIM_003.jpg	99
2252.405	0.773	773.3	repeat	Run3	repeat/STIM_003.jpg	100
2257.063	0.64	640.5	repeat	Run3	repeat/STIM_004.jpg	100
2261.279	0.545	544.8	repeat	Run3	repeat/STIM_004.jpg	99
2264.42	0.483	482.9	repeat	Run3	repeat/STIM_004.jpg	99
2268.532	0.797	797.3	repeat	Run3	repeat/STIM_004.jpg	100
2273.328	0.725	725.2	repeat	Run3	repeat/STIM_004.jpg	100
2277.082	0.547	546.8	repeat	Run3	repeat/STIM_005.jpg	99
2279.685	0.47	470.5	repeat	Run3	repeat/STIM_005.jpg	99
2282.284	0.581	581.0	repeat	Run3	repeat/STIM_005.jpg	99
2286.723	0.612	612.1	repeat	Run3	repeat/STIM_005.jpg	100
2290.439	0.517	516.7	repeat	Run3	repeat/STIM_005.jpg	99
2293.109	0.491	490.8	repeat	Run3	repeat/STIM_006.jpg	99
2297.485	0.462	461.8	repeat	Run3	repeat/STIM_006.jpg	100
2301.709	0.618	618.0	repeat	Run3	repeat/STIM_006.jpg	99
2305.843	0.585	585.4	repeat	Run3	repeat/STIM_006.jpg	99
2308.475	0.777	776.9	repeat	Run3	repeat/STIM_006.jpg	99
2311.99	0.691	690.6	repeat	Run3	repeat/STIM_007.jpg	100
2315.608	0.459	458.6	repeat	Run3	repeat/STIM_007.jpg	100
2318.38	0.438	437.7	repeat	Run3	repeat/STIM_007.jpg	99
2321.222	0.583	582.9	repeat	Run3	repeat/STIM_007.jpg	100
2324.046	0.686	685.8	repeat	Run3	repeat/STIM_007.jpg	100
2328.076	0.537	537.3	repeat	Run3	repeat/STIM_008.jpg	100
2331.064	0.645	644.8	repeat	Run3	repeat/STIM_008.jpg	99
2333.886	0.76	759.5	repeat	Run3	repeat/STIM_008.jpg	100
2337.847	0.469	469.4	repeat	Run3	repeat/STIM_008.jpg	100
2340.356	0.756	755.8	repeat	Run3	repeat/STIM_008.jpg	100
2344.459	0.679	679.0	repeat	Run3	repeat/STIM_009.jpg	99
2347.514	0.564	564.0	repeat	Run3	repeat/STIM_009.jpg	99
2350.782	0.523	523.3	repeat	Run3	repeat/STIM_009.jpg	99
2355.298	0.833	833.1	repeat	Run3	repeat/STIM_009.jpg	99
2359.734	0.576	576.5	repeat	Run3	repeat/STIM_009.jpg	100
2362.986	0.776	776.0	repeat	Run3	repeat/STIM_010.jpg	100
2367.334	0.445	444.6	repeat	Run3	repeat/STIM_010.jpg	99
2370.785	0.658	657.9	repeat	Run3	repeat/STIM_010.jpg	99
2374.297	0.771	771.1	repeat	Run3	repeat/STIM_010.jpg	100
2378.478	0.665	665.1	repeat	Run3	repeat/STIM_010.jpg	99
2383.075	0.705	704.7	repeat	Run3	repeat/STIM_011.jpg	99
2385.903	0.766	766.0	repeat	Run3	repeat/STIM_011.jpg	99
2389.43	0.729	728.7	repeat	Run3	repeat/STIM_011.jpg	99
2392.963	0.665	664.6	repeat	Run3	repeat/STIM_011.jpg	99
2397.473	0.741	740.7	repeat	Run3	repeat/STIM_011.jpg	100
2400.566	0.811	810.9	repeat	Run3	repeat/STIM_012.jpg	100
2403.978	0.505	504.8	repeat	Run3	repeat/STIM_012.jpg	99
2407.529	0.832	831.6	repeat	Run3	repeat/STIM_012.jpg	99
2411.099	0.815	814.6	repeat	Run3	repeat/STIM_012.jpg	100
2414.917	0.759	759.0	repeat	Run3	repeat/STIM_012.jpg	100
2418.43	0.83	830.3	repeat	Run3	repeat/STIM_013.jpg	99
2421.347	0.468	468.5	repeat	Run3	repeat/STIM_013.jpg	100
2424.35	0.748	748.3	repeat	Run3	repeat/STIM_013.jpg	100
2428.13	0.505	505.2	repeat	Run3	repeat/STIM_013.jpg	99
2431.24	0.568	567.5	repeat	Run3	repeat/STIM_013.jpg	100
2434.007	0.86	859.6	repeat	Run3	repeat/STIM_014.jpg	99
2438.496	0.804	803.6	repeat	Run3	repeat/STIM_014.jpg	100
2441.57	0.856	855.7	repeat	Run3	repeat/STIM_014.jpg	99
2445.608	0.62	619.7	repeat	Run3	repeat/STIM_014.jpg	99
2449.227	0.672	671.5	repeat	Run3	repeat/STIM_014.jpg	100
2451.899	1.473	1473.4	generate	Run4	generate/STIM_000.jpg	100
2456.648	1.601	1601.3	generate	Run4	generate/STIM_000.jpg	100
2461.731	1.726	1725.6	generate	Run4	generate/STIM_000.jpg	99
2467.158	1.66	1660.4	generate	Run4	generate/STIM_000.jpg	99
2472.065	0.936	936.4	generate	Run4	generate/STIM_000.jpg	99
2475.335	1.232	1232.4	generate	Run4	generate/STIM_001.jpg	100
2479.96	1.538	1537.5	generate	Run4	generate/STIM_001.jpg	100
2484.812	1.34	1340.3	generate	Run4	generate/STIM_001.jpg	99
2489.567	1.535	1534.9	generate	Run4	generate/STIM_001.jpg	99
2493.266	1.216	1215.6	generate	Run4	generate/STIM_001.jpg	99
2496.831	1.501	1500.6	generate	Run4	generate/STIM_002.jpg	99
2501.201	1.5	1500.2	generate	Run4	generate/STIM_002.jpg	99
2505.057	1.686	1686.4	generate	Run4	generate/STIM_002.jpg	99
2509.288	0.919	919.1	generate	Run4	generate/STIM_002.jpg	99
2512.974	1.368	1368.3	generate	Run4	generate/STIM_002.jpg	99
2517.975	0.915	914.7	generate	Run4	generate/STIM_003.jpg	100
2522.857	1.646	1645.8	generate	Run4	generate/STIM_003.jpg	100
2526.938	1.152	1152.5	generate	Run4	generate/STIM_003.jpg	100
2531.713	0.944	944.0	generate	Run4	generate/STIM_003.jpg	99
2536.113	1.677	1677.4	generate	Run4	generate/STIM_003.jpg	100
2540.829	1.666	1665.6	generate	Run4	generate/STIM_004.jpg	100
2545.374	1.44	1440.2	generate	Run4	generate/STIM_004.jpg	100
2549.676	1.425	1425.2	generate	Run4	generate/STIM_004.jpg	99
2554.287	1.46	1459.6	generate	Run4	generate/STIM_004.jpg	100
2559.602	1.338	1337.7	generate	Run4	generate/STIM_004.jpg	99
2563.124	0.823	823.4	generate	Run4	generate/STIM_005.jpg	100
2566.607	1.715	1714.9	generate	Run4	generate/STIM_005.jpg	100
2570.763	1.021	1021.1	generate	Run4	generate/STIM_005.jpg	99
2573.909	0.826	825.5	generate	Run4	generate/STIM_005.jpg	99
2576.835	1.23	1229.6	generate	Run4	generate/STIM_005.jpg	100
2581.192	1.773	1773.4	generate	Run4	generate/STIM_006.jpg	100
2586.897	0.993	993.2	generate	Run4	generate/STIM_006.jpg	99
2590.443	1.52	1519.9	generate	Run4	generate/STIM_006.jpg	100
2595.77	0.942	942.5	generate	Run4	generate/STIM_006.jpg	100
2600.182	1.056	1056.0	generate	Run4	generate/STIM_006.jpg	100
2604.99	0.996	996.3	generate	Run4	generate/STIM_007.jpg	100
2608.437	0.806	805.9	generate	Run4	generate/STIM_007.jpg	99
2612.554	1.578	1577.6	generate	Run4	generate/STIM_007.jpg	99
2617.117	0.939	938.6	generate	Run4	generate/STIM_007.jpg	100
2620.058	1.789	1789.3	generate	Run4	generate/STIM_007.jpg	99
2623.94	1.025	1025.2	generate	Run4	generate/STIM_008.jpg	99
2628.209	1.244	1243.8	generate	Run4	generate/STIM_008.jpg	99
2632.191	1.632	1631.8	generate	Run4	generate/STIM_008.jpg	100
2637.212	1.76	1760.4	generate	Run4	generate/STIM_008.jpg	100
2641.619	1.12	1119.6	generate	Run4	generate/STIM_008.jpg	100
2646.65	1.407	1406.9	generate	Run4	generate/STIM_009.jpg	100
2650.506	1.257	1257.2	generate	Run4	generate/STIM_009.jpg	99
2654.395	0.762	762.4	generate	Run4	generate/STIM_009.jpg	100
2658.997	0.751	751.1	generate	Run4	generate/STIM_009.jpg	100
2663.56	1.479	1478.7	generate	Run4	generate/STIM_009.jpg	100
2667.269	0.941	940.6	generate	Run4	generate/STIM_010.jpg	99
2671.848	1.723	1722.8	generate	Run4	generate/STIM_010.jpg	100
2677.135	0.779	779.4	generate	Run4	generate/STIM_010.jpg	100
2680.139	1.137	1137.1	generate	Run4	generate/STIM_010.jpg	100
2683.682	0.772	771.5	generate	Run4	generate/STIM_010.jpg	100
2688.11	1.408	1407.8	generate	Run4	generate/STIM_011.jpg	99
2693.152	0.868	867.5	generate	Run4	generate/STIM_011.jpg	99
2696.099	1.731	1731.4	generate	Run4	generate/STIM_011.jpg	99
2700.289	1.169	1169.4	generate	Run4	generate/STIM_011.jpg	99
2704.409	1.78	1779.5	generate	Run4	generate/STIM_011.jpg	100
2708.976	0.98	979.7	generate	Run4	generate/STIM_012.jpg	100
2713.848	1.487	1486.9	generate	Run4	generate/STIM_012.jpg	99
2717.882	1.086	1085.9	generate	Run4	generate/STIM_012.jpg	99
2721.561	0.995	995.3	generate	Run4	generate/STIM_012.jpg	99
2726.221	1.429	1429.1	generate	Run4	generate/STIM_012.jpg	100
2730.353	1.417	1417.0	generate	Run4	generate/STIM_013.jpg	100
2735.599	1.817	1816.9	generate	Run4	generate/STIM_013.jpg	100
2740.077	1.166	1166.5	generate	Run4	generate/STIM_013.jpg	100
2744.632	1.236	1236.5	generate	Run4	generate/STIM_013.jpg	99
2748.029	1.353	1353.4	generate	Run4	generate/STIM_013.jpg	100
2753.271	1.688	1687.5	generate	Run4	generate/STIM_014.jpg	100
2758.765	1.339	1339.2	generate	Run4	generate/STIM_014.jpg	100
2764.059	1.119	1118.7	generate	Run4	generate/STIM_014.jpg	99
2767.737	1.446	1446.4	generate	Run4	generate/STIM_014.jpg	100
2772.412	1.43	1430.4	generate	Run4	generate/STIM_014.jpg	100
2776.041	1.202	1202.5	generate	Run4	generate/STIM_015.jpg	99
2780.301	1.292	1292.1	generate	Run4	generate/STIM_015.jpg	100
2785.222	1.322	1322.3	generate	Run4	generate/STIM_015.jpg	100
2790.335	1.478	1478.0	generate	Run4	generate/STIM_015.jpg	99
2794.289	1.513	1512.7	generate	Run4	generate/STIM_015.jpg	100
2798.737	1.575	1574.9	generate	Run4	generate/STIM_016.jpg	100
2803.614	1.305	1305.0	generate	Run4	generate/STIM_016.jpg	99
2808.405	0.915	914.6	generate	Run4	generate/STIM_016.jpg	100
2811.938	1.758	1758.2	generate	Run4	generate/STIM_016.jpg	100
2816.525	1.345	1344.8	generate	Run4	generate/STIM_016.jpg	99
2820.728	1.612	1611.7	generate	Run4	generate/STIM_017.jpg	100
2824.36	1.578	1578.3	generate	Run4	generate/STIM_017.jpg	100
2828.165	1.36	1360.3	generate	Run4	generate/STIM_017.jpg	99
2831.94	0.952	951.8	generate	Run4	generate/STIM_017.jpg	99
2836.018	0.924	924.1	generate	Run4	generate/STIM_017.jpg	99
2839.533	0.972	972.3	generate	Run4	generate/STIM_018.jpg	100
2843.47	1.071	1070.9	generate	Run4	generate/STIM_018.jpg	100
2846.659	0.924	924.0	generate	Run4	generate/STIM_018.jpg	99
2850.183	0.947	946.8	generate	Run4	generate/STIM_018.jpg	100
2853.515	1.768	1768.4	generate	Run4	generate/STIM_018.jpg	99
2859.248	1.048	1048.2	generate	Run4	generate/STIM_019.jpg	99
2863.652	0.945	944.8	generate	Run4	generate/STIM_019.jpg	99
2868.195	1.796	1795.8	generate	Run4	generate/STIM_019.jpg	99
2873.838	1.375	1375.0	generate	Run4	generate/STIM_019.jpg	99
2879.057	1.512	1511.7	generate	Run4	generate/STIM_019.jpg	99
2883.348	1.496	1496.5	generate	Run4	generate/STIM_020.jpg	99
2887.307	1.139	1139.3	generate	Run4	generate/STIM_020.jpg	100
2892.174	1.322	1321.5	generate	Run4	generate/STIM_020.jpg	99
2896.732	1.805	1804.8	generate	Run4	generate/STIM_020.jpg	100
2902.476	1.232	1232.1	generate	Run4	generate/STIM_020.jpg	99
2905.841	1.098	1098.0	generate	Run4	generate/STIM_021.jpg	100
2908.963	1.277	1277.2	generate	Run4	generate/STIM_021.jpg	100
2914.158	1.01	1010.4	generate	Run4	generate/STIM_021.jpg	99
2918.46	1.534	1534.5	generate	Run4	generate/STIM_021.jpg	99
2922.65	0.795	795.3	generate	Run4	generate/STIM_021.jpg	100
2925.622	1.722	1722.1	generate	Run4	generate/STIM_022.jpg	100
2930.062	1.812	1812.5	generate	Run4	generate/STIM_022.jpg	100
2934.552	0.955	954.8	generate	Run4	generate/STIM_022.jpg	100
2939.108	1.459	1459.4	generate	Run4	generate/STIM_022.jpg	100
2943.972	1.082	1081.8	generate	Run4	generate/STIM_022.jpg	99
2948.245	1.054	1054.5	generate	Run4	generate/STIM_023.jpg	99
2952.082	0.859	858.8	generate	Run4	generate/STIM_023.jpg	100
2956.44	1.373	1372.6	generate	Run4	generate/STIM_023.jpg	99
2960.915	1.449	1448.8	generate	Run4	generate/STIM_023.jpg	99
2965.216	1.224	1224.1	generate	Run4	generate/STIM_023.jpg	100
2968.447	1.335	1335.2	generate	Run4	generate/STIM_024.jpg	100
2973.224	1.585	1585.0	generate	Run4	generate/STIM_024.jpg	99
2977.14	1.158	1157.5	generate	Run4	generate/STIM_024.jpg	100
2980.781	1.446	1446.0	generate	Run4	generate/STIM_024.jpg	100
2986.079	1.811	1811.2	generate	Run4	generate/STIM_024.jpg	100
2991.644	0.705	705.4	repeat	Run4	repeat/STIM_000.jpg	99
2995.296	0.803	803.2	repeat	Run4	repeat/STIM_000.jpg	99
2998.97	0.631	631.3	repeat	Run4	repeat/STIM_000.jpg	100
3003.054	0.626	625.9	repeat	Run4	repeat/STIM_000.jpg	99
3006.258	0.834	833.7	repeat	Run4	repeat/STIM_000.jpg	99
3011.047	0.692	692.0	repeat	Run4	repeat/STIM_001.jpg	100
3015.402	0.732	732.5	repeat	Run4	repeat/STIM_001.jpg	100
3018.278	0.831	830.8	repeat	Run4	repeat/STIM_001.jpg	99
3022.071	0.758	758.0	repeat	Run4	repeat/STIM_001.jpg	99
3025.038	0.626	626.1	repeat	Run4	repeat/STIM_001.jpg	99
3028.665	0.438	437.7	repeat	Run4	repeat/STIM_002.jpg	100
3032.46	0.624	623.6	repeat	Run4	repeat/STIM_002.jpg	100
3037.035	0.679	679.2	repeat	Run4	repeat/STIM_002.jpg	100
3040.165	0.754	754.0	repeat	Run4	repeat/STIM_002.jpg	100
3044.83	0.46	459.6	repeat	Run4	repeat/STIM_002.jpg	100
3048.545	0.81	810.3	repeat	Run4	repeat/STIM_003.jpg	100
3051.516	0.785	784.6	repeat	Run4	repeat/STIM_003.jpg	100
3056.089	0.679	679.4	repeat	Run4	repeat/STIM_003.jpg	100
3059.345	0.855	855.4	repeat	Run4	repeat/STIM_003.jpg	100
3063.736	0.814	814.5	repeat	Run4	repeat/STIM_003.jpg	100
3066.85	0.724	723.8	repeat	Run4	repeat/STIM_004.jpg	99
3071.484	0.453	452.7	repeat	Run4	repeat/STIM_004.jpg	100
3075.245	0.801	800.6	repeat	Run4	repeat/STIM_004.jpg	99
3079.852	0.498	498.1	repeat	Run4	repeat/STIM_004.jpg	99
3083.939	0.457	456.9	repeat	Run4	repeat/STIM_004.jpg	99
3087.384	0.436	436.3	repeat	Run4	repeat/STIM_005.jpg	99
3091.809	0.714	714.4	repeat	Run4	repeat/STIM_005.jpg	100
3095.332	0.61	610.1	repeat	Run4	repeat/STIM_005.jpg	100
3098.107	0.678	677.9	repeat	Run4	repeat/STIM_005.jpg	100
3102.781	0.564	564.4	repeat	Run4	repeat/STIM_005.jpg	100
3106.898	0.456	456.5	repeat	Run4	repeat/STIM_006.jpg	99
3109.908	0.804	804.4	repeat	Run4	repeat/STIM_006.jpg	99
3113.176	0.703	703.3	repeat	Run4	repeat/STIM_006.jpg	100
3117.746	0.586	586.4	repeat	Run4	repeat/STIM_006.jpg	100
3121.659	0.693	693.2	repeat	Run4	repeat/STIM_006.jpg	99
3124.716	0.517	516.9	repeat	Run4	repeat/STIM_007.jpg	99
3127.559	0.496	495.8	repeat	Run4	repeat/STIM_007.jpg	99
3130.591	0.756	755.8	repeat	Run4	repeat/STIM_007.jpg	99
3134.763	0.656	656.3	repeat	Run4	repeat/STIM_007.jpg	100
3138.767	0.697	697.3	repeat	Run4	repeat/STIM_007.jpg	100
3141.847	0.674	674.4	repeat	Run4	repeat/STIM_008.jpg	100
3144.988	0.716	715.6	repeat	Run4	repeat/STIM_008.jpg	100
3148.053	0.602	601.9	repeat	Run4	repeat/STIM_008.jpg	99
3152.257	0.586	585.9	repeat	Run4	repeat/STIM_008.jpg	99
3154.903	0.524	524.2	repeat	Run4	repeat/STIM_008.jpg	99
3158.614	0.701	700.8	repeat	Run4	repeat/STIM_009.jpg	100
3162.335	0.646	645.7	repeat	Run4	repeat/STIM_009.jpg	99
3165.216	0.759	758.7	repeat	Run4	repeat/STIM_009.jpg	100
3168.7	0.791	791.0	repeat	Run4	repeat/STIM_009.jpg	99
3173.406	0.582	581.8	repeat	Run4	repeat/STIM_009.jpg	100
3176.195	0.777	777.4	repeat	Run4	repeat/STIM_010.jpg	99
3180.066	0.688	687.5	repeat	Run4	repeat/STIM_010.jpg	99
3184.063	0.836	835.5	repeat	Run4	repeat/STIM_010.jpg	100
3187.466	0.588	588.3	repeat	Run4	repeat/STIM_010.jpg	99
3190.813	0.867	866.6	repeat	Run4	repeat/STIM_010.jpg	99
3194.385	0.59	589.7	repeat	Run4	repeat/STIM_011.jpg	99
3198.72	0.69	689.6	repeat	Run4	repeat/STIM_011.jpg	99
3202.358	0.561	561.0	repeat	Run4	repeat/STIM_011.jpg	99
3205.923	0.82	819.8	repeat	Run4	repeat/STIM_011.jpg	99
3208.895	0.779	779.3	repeat	Run4	repeat/STIM_011.jpg	100
3211.757	0.695	695.4	repeat	Run4	repeat/STIM_012.jpg	100
3214.851	0.809	809.2	repeat	Run4	repeat/STIM_012.jpg	100
3218.359	0.814	813.9	repeat	Run4	repeat/STIM_012.jpg	99
3221.474	0.674	673.5	repeat	Run4	repeat/STIM_012.jpg	99
3224.793	0.458	457.8	repeat	Run4	repeat/STIM_012.jpg	100
3229.185	0.618	617.7	repeat	Run4	repeat/STIM_013.jpg	99
3233.384	0.61	610.4	repeat	Run4	repeat/STIM_013.jpg	99
3236.83	0.79	789.9	repeat	Run4	repeat/STIM_013.jpg	100
3240.415	0.486	485.6	repeat	Run4	repeat/STIM_013.jpg	100
3243.001	0.485	485.0	repeat	Run4	repeat/STIM_013.jpg	99
3245.831	0.446	445.5	repeat	Run4	repeat/STIM_014.jpg	100
3249.627	0.852	852.5	repeat	Run4	repeat/STIM_014.jpg	100
3254.269	0.669	669.4	repeat	Run4	repeat/STIM_014.jpg	99
3258.685	0.514	514.1	repeat	Run4	repeat/STIM_014.jpg	99
3262.368	0.563	563.2	repeat	Run4	repeat/STIM_014.jpg	100
