onset	duration	accuracy_binary	trial_type	learning_stage	stimulus
0.0	1.058	1	generate	Run1	generate/STIM_000.jpg
4.827	2.349	1	generate	Run1	generate/STIM_000.jpg
10.655	1.489	1	generate	Run1	generate/STIM_000.jpg
14.215	1.262	1	generate	Run1	generate/STIM_000.jpg
17.825	1.636	0	generate	Run1	generate/STIM_000.jpg
23.264	1.901	1	generate	Run1	generate/STIM_001.jpg
28.734	1.955	0	generate	Run1	generate/STIM_001.jpg
34.346	1.486	0	generate	Run1	generate/STIM_001.jpg
38.548	2.008	1	generate	Run1	generate/STIM_001.jpg
42.806	1.22	1	generate	Run1	generate/STIM_001.jpg
46.486	1.536	1	generate	Run1	generate/STIM_002.jpg
51.083	1.094	1	generate	Run1	generate/STIM_002.jpg
56.173	2.041	0	generate	Run1	generate/STIM_002.jpg
60.977	1.993	0	generate	Run1	generate/STIM_002.jpg
65.693	2.038	0	generate	Run1	generate/STIM_002.jpg
70.681	1.553	0	generate	Run1	generate/STIM_003.jpg
76.028	1.731	1	generate	Run1	generate/STIM_003.jpg
80.934	1.988	1	generate	Run1	generate/STIM_003.jpg
85.275	1.108	1	generate	Run1	generate/STIM_003.jpg
90.042	1.531	1	generate	Run1	generate/STIM_003.jpg
93.669	2.487	1	generate	Run1	generate/STIM_004.jpg
99.69	2.37	0	generate	Run1	generate/STIM_004.jpg
104.648	1.422	0	generate	Run1	generate/STIM_004.jpg
108.871	1.294	0	generate	Run1	generate/STIM_004.jpg
112.265	1.208	1	generate	Run1	generate/STIM_004.jpg
116.135	1.101	1	generate	Run1	generate/STIM_005.jpg
120.88	1.105	1	generate	Run1	generate/STIM_005.jpg
125.22	1.238	1	generate	Run1	generate/STIM_005.jpg
128.998	1.375	0	generate	Run1	generate/STIM_005.jpg
132.78	1.339	0	generate	Run1	generate/STIM_005.jpg
136.27	2.034	1	generate	Run1	generate/STIM_006.jpg
141.86	2.303	0	generate	Run1	generate/STIM_006.jpg
148.141	1.859	0	generate	Run1	generate/STIM_006.jpg
152.131	1.857	0	generate	Run1	generate/STIM_006.jpg
156.966	1.881	1	generate	Run1	generate/STIM_006.jpg
161.112	1.962	1	generate	Run1	generate/STIM_007.jpg
166.85	1.669	0	generate	Run1	generate/STIM_007.jpg
172.161	0.998	1	generate	Run1	generate/STIM_007.jpg
177.02	1.616	1	generate	Run1	generate/STIM_007.jpg
182.336	1.369	1	generate	Run1	generate/STIM_007.jpg
186.121	1.122	0	generate	Run1	generate/STIM_008.jpg
190.222	1.318	0	generate	Run1	generate/STIM_008.jpg
194.126	1.503	0	generate	Run1	generate/STIM_008.jpg
197.7	1.765	1	generate	Run1	generate/STIM_008.jpg
201.93	0.932	0	generate	Run1	generate/STIM_008.jpg
205.755	2.278	1	generate	Run1	generate/STIM_009.jpg
210.866	1.482	0	generate	Run1	generate/STIM_009.jpg
214.946	2.031	0	generate	Run1	generate/STIM_009.jpg
219.531	1.386	1	generate	Run1	generate/STIM_009.jpg
224.005	0.866	1	generate	Run1	generate/STIM_009.jpg
226.967	1.745	0	generate	Run1	generate/STIM_010.jpg
232.467	1.599	1	generate	Run1	generate/STIM_010.jpg
236.121	1.871	0	generate	Run1	generate/STIM_010.jpg
240.33	1.317	0	generate	Run1	generate/STIM_010.jpg
244.193	1.218	0	generate	Run1	generate/STIM_010.jpg
248.948	2.269	0	generate	Run1	generate/STIM_011.jpg
255.176	2.23	0	generate	Run1	generate/STIM_011.jpg
259.72	0.986	1	generate	Run1	generate/STIM_011.jpg
262.857	1.019	0	generate	Run1	generate/STIM_011.jpg
266.592	1.095	1	generate	Run1	generate/STIM_011.jpg
269.811	1.142	0	generate	Run1	generate/STIM_012.jpg
273.56	2.335	0	generate	Run1	generate/STIM_012.jpg
278.734	1.526	1	generate	Run1	generate/STIM_012.jpg
282.779	0.896	1	generate	Run1	generate/STIM_012.jpg
286.434	1.468	0	generate	Run1	generate/STIM_012.jpg
291.431	1.28	0	generate	Run1	generate/STIM_013.jpg
295.643	1.857	1	generate	Run1	generate/STIM_013.jpg
300.912	1.582	1	generate	Run1	generate/STIM_013.jpg
305.714	1.352	1	generate	Run1	generate/STIM_013.jpg
310.117	1.65	0	generate	Run1	generate/STIM_013.jpg
314.982	1.464	0	generate	Run1	generate/STIM_014.jpg
319.047	1.467	1	generate	Run1	generate/STIM_014.jpg
323.77	2.174	1	generate	Run1	generate/STIM_014.jpg
329.278	1.465	1	generate	Run1	generate/STIM_014.jpg
333.528	0.979	0	generate	Run1	generate/STIM_014.jpg
337.144	1.362	0	generate	Run1	generate/STIM_015.jpg
341.441	1.792	0	generate	Run1	generate/STIM_015.jpg
346.135	1.087	1	generate	Run1	generate/STIM_015.jpg
350.248	1.966	1	generate	Run1	generate/STIM_015.jpg
355.286	1.808	0	generate	Run1	generate/STIM_015.jpg
360.416	2.023	1	generate	Run1	generate/STIM_016.jpg
364.44	2.204	0	generate	Run1	generate/STIM_016.jpg
369.646	1.969	1	generate	Run1	generate/STIM_016.jpg
374.06	1.064	1	generate	Run1	generate/STIM_016.jpg
378.305	1.635	0	generate	Run1	generate/STIM_016.jpg
383.213	1.145	1	generate	Run1	generate/STIM_017.jpg
386.618	2.13	0	generate	Run1	generate/STIM_017.jpg
392.247	1.448	0	generate	Run1	generate/STIM_017.jpg
395.921	0.913	1	generate	Run1	generate/STIM_017.jpg
398.878	1.227	0	generate	Run1	generate/STIM_017.jpg
403.282	1.683	1	generate	Run1	generate/STIM_018.jpg
408.74	1.221	0	generate	Run1	generate/STIM_018.jpg
413.687	1.019	1	generate	Run1	generate/STIM_018.jpg
417.506	1.296	1	generate	Run1	generate/STIM_018.jpg
421.348	0.854	0	generate	Run1	generate/STIM_018.jpg
425.081	1.894	0	generate	Run1	generate/STIM_019.jpg
430.433	2.42	1	generate	Run1	generate/STIM_019.jpg
435.273	1.889	0	generate	Run1	generate/STIM_019.jpg
440.05	2.123	0	generate	Run1	generate/STIM_019.jpg
444.458	1.68	0	generate	Run1	generate/STIM_019.jpg
449.982	1.971	1	generate	Run1	generate/STIM_020.jpg
453.986	1.178	0	generate	Run1	generate/STIM_020.jpg
458.131	2.176	1	generate	Run1	generate/STIM_020.jpg
463.234	1.766	1	generate	Run1	generate/STIM_020.jpg
468.58	0.977	1	generate	Run1	generate/STIM_020.jpg
473.055	2.505	1	generate	Run1	generate/STIM_021.jpg
477.811	2.349	0	generate	Run1	generate/STIM_021.jpg
483.454	1.986	1	generate	Run1	generate/STIM_021.jpg
487.442	2.179	0	generate	Run1	generate/STIM_021.jpg
493.327	1.201	0	generate	Run1	generate/STIM_021.jpg
497.673	1.312	0	generate	Run1	generate/STIM_022.jpg
501.857	1.441	1	generate	Run1	generate/STIM_022.jpg
506.64	1.194	1	generate	Run1	generate/STIM_022.jpg
510.058	1.098	1	generate	Run1	generate/STIM_022.jpg
514.834	1.962	0	generate	Run1	generate/STIM_022.jpg
520.045	1.844	1	generate	Run1	generate/STIM_023.jpg
525.675	1.744	1	generate	Run1	generate/STIM_023.jpg
529.598	1.701	1	generate	Run1	generate/STIM_023.jpg
535.282	1.479	1	generate	Run1	generate/STIM_023.jpg
540.557	1.507	1	generate	Run1	generate/STIM_023.jpg
545.528	2.077	0	generate	Run1	generate/STIM_024.jpg
551.271	1.372	1	generate	Run1	generate/STIM_024.jpg
556.474	2.092	1	generate	Run1	generate/STIM_024.jpg
561.952	1.421	1	generate	Run1	generate/STIM_024.jpg
565.997	1.065	0	generate	Run1	generate/STIM_024.jpg
570.673	0.706	0	repeat	Run1	repeat/STIM_000.jpg
573.714	0.717	1	repeat	Run1	repeat/STIM_000.jpg
577.203	0.726	1	repeat	Run1	repeat/STIM_000.jpg
580.221	0.58	0	repeat	Run1	repeat/STIM_000.jpg
584.128	0.664	1	repeat	Run1	repeat/STIM_000.jpg
587.396	0.657	0	repeat	Run1	repeat/STIM_001.jpg
590.152	0.579	1	repeat	Run1	repeat/STIM_001.jpg
593.069	0.67	0	repeat	Run1	repeat/STIM_001.jpg
597.544	0.828	1	repeat	Run1	repeat/STIM_001.jpg
600.509	0.435	1	repeat	Run1	repeat/STIM_001.jpg
603.942	0.818	1	repeat	Run1	repeat/STIM_002.jpg
607.584	0.577	0	repeat	Run1	repeat/STIM_002.jpg
612.01	0.759	0	repeat	Run1	repeat/STIM_002.jpg
614.905	0.844	0	repeat	Run1	repeat/STIM_002.jpg
617.978	0.827	1	repeat	Run1	repeat/STIM_002.jpg
622.287	0.622	0	repeat	Run1	repeat/STIM_003.jpg
625.607	0.616	1	repeat	Run1	repeat/STIM_003.jpg
628.602	0.7	0	repeat	Run1	repeat/STIM_003.jpg
631.682	0.673	1	repeat	Run1	repeat/STIM_003.jpg
635.697	0.691	1	repeat	Run1	repeat/STIM_003.jpg
640.282	0.439	0	repeat	Run1	repeat/STIM_004.jpg
644.641	0.508	1	repeat	Run1	repeat/STIM_004.jpg
648.71	0.686	1	repeat	Run1	repeat/STIM_004.jpg
651.405	0.774	1	repeat	Run1	repeat/STIM_004.jpg
655.691	0.605	0	repeat	Run1	repeat/STIM_004.jpg
658.836	0.693	1	repeat	Run1	repeat/STIM_005.jpg
661.851	0.654	1	repeat	Run1	repeat/STIM_005.jpg
666.214	0.758	1	repeat	Run1	repeat/STIM_005.jpg
670.101	0.764	0	repeat	Run1	repeat/STIM_005.jpg
673.694	0.569	1	repeat	Run1	repeat/STIM_005.jpg
677.497	0.783	1	repeat	Run1	repeat/STIM_006.jpg
680.771	0.752	1	repeat	Run1	repeat/STIM_006.jpg
684.956	0.666	0	repeat	Run1	repeat/STIM_006.jpg
688.727	0.719	0	repeat	Run1	repeat/STIM_006.jpg
692.804	0.438	0	repeat	Run1	repeat/STIM_006.jpg
696.983	0.721	0	repeat	Run1	repeat/STIM_007.jpg
700.439	0.851	1	repeat	Run1	repeat/STIM_007.jpg
703.739	0.544	1	repeat	Run1	repeat/STIM_007.jpg
707.21	0.517	1	repeat	Run1	repeat/STIM_007.jpg
709.747	0.549	0	repeat	Run1	repeat/STIM_007.jpg
712.969	0.437	1	repeat	Run1	repeat/STIM_008.jpg
716.115	0.592	0	repeat	Run1	repeat/STIM_008.jpg
720.41	0.514	1	repeat	Run1	repeat/STIM_008.jpg
724.727	0.734	1	repeat	Run1	repeat/STIM_008.jpg
727.59	0.613	1	repeat	Run1	repeat/STIM_008.jpg
730.219	0.856	0	repeat	Run1	repeat/STIM_009.jpg
733.354	0.482	0	repeat	Run1	repeat/STIM_009.jpg
736.899	0.467	1	repeat	Run1	repeat/STIM_009.jpg
740.029	0.74	1	repeat	Run1	repeat/STIM_009.jpg
743.307	0.671	0	repeat	Run1	repeat/STIM_009.jpg
746.72	0.864	1	repeat	Run1	repeat/STIM_010.jpg
750.68	0.635	1	repeat	Run1	repeat/STIM_010.jpg
754.893	0.461	1	repeat	Run1	repeat/STIM_010.jpg
759.065	0.56	1	repeat	Run1	repeat/STIM_010.jpg
763.391	0.724	0	repeat	Run1	repeat/STIM_010.jpg
766.415	0.541	1	repeat	Run1	repeat/STIM_011.jpg
769.094	0.663	0	repeat	Run1	repeat/STIM_011.jpg
773.118	0.83	0	repeat	Run1	repeat/STIM_011.jpg
777.377	0.776	1	repeat	Run1	repeat/STIM_011.jpg
780.772	0.725	1	repeat	Run1	repeat/STIM_011.jpg
784.558	0.489	1	repeat	Run1	repeat/STIM_012.jpg
788.094	0.596	1	repeat	Run1	repeat/STIM_012.jpg
792.55	0.797	0	repeat	Run1	repeat/STIM_012.jpg
796.315	0.515	0	repeat	Run1	repeat/STIM_012.jpg
799.037	0.692	0	repeat	Run1	repeat/STIM_012.jpg
802.91	0.799	1	repeat	Run1	repeat/STIM_013.jpg
806.561	0.512	1	repeat	Run1	repeat/STIM_013.jpg
809.968	0.839	0	repeat	Run1	repeat/STIM_013.jpg
814.659	0.479	0	repeat	Run1	repeat/STIM_013.jpg
817.705	0.775	1	repeat	Run1	repeat/STIM_013.jpg
820.743	0.78	1	repeat	Run1	repeat/STIM_014.jpg
824.263	0.513	1	repeat	Run1	repeat/STIM_014.jpg
828.073	0.77	0	repeat	Run1	repeat/STIM_014.jpg
831.043	0.821	1	repeat	Run1	repeat/STIM_014.jpg
833.92	0.519	1	repeat	Run1	repeat/STIM_014.jpg
838.078	1.711	1	generate	Run2	generate/STIM_000.jpg
843.166	1.087	1	generate	Run2	generate/STIM_000.jpg
846.348	1.941	0	generate	Run2	generate/STIM_000.jpg
850.923	1.093	0	generate	Run2	generate/STIM_000.jpg
855.166	1.421	0	generate	Run2	generate/STIM_000.jpg
859.916	2.086	1	generate	Run2	generate/STIM_001.jpg
864.224	0.895	0	generate	Run2	generate/STIM_001.jpg
868.204	1.848	0	generate	Run2	generate/STIM_001.jpg
872.775	1.297	0	generate	Run2	generate/STIM_001.jpg
876.099	1.347	0	generate	Run2	generate/STIM_001.jpg
880.414	1.11	0	generate	Run2	generate/STIM_002.jpg
884.323	1.185	0	generate	Run2	generate/STIM_002.jpg
888.965	1.135	1	generate	Run2	generate/STIM_002.jpg
893.303	1.001	1	generate	Run2	generate/STIM_002.jpg
897.453	0.795	1	generate	Run2	generate/STIM_002.jpg
901.812	1.154	0	generate	Run2	generate/STIM_003.jpg
905.407	1.793	0	generate	Run2	generate/STIM_003.jpg
909.828	1.81	1	generate	Run2	generate/STIM_003.jpg
915.462	1.795	0	generate	Run2	generate/STIM_003.jpg
920.887	1.604	1	generate	Run2	generate/STIM_003.jpg
925.074	1.219	0	generate	Run2	generate/STIM_004.jpg
929.633	1.14	1	generate	Run2	generate/STIM_004.jpg
933.513	1.901	1	generate	Run2	generate/STIM_004.jpg
939.303	1.534	1	generate	Run2	generate/STIM_004.jpg
943.233	0.877	0	generate	Run2	generate/STIM_004.jpg
946.531	1.084	1	generate	Run2	generate/STIM_005.jpg
951.44	1.054	1	generate	Run2	generate/STIM_005.jpg
955.279	0.83	1	generate	Run2	generate/STIM_005.jpg
960.012	1.614	1	generate	Run2	generate/STIM_005.jpg
965.4	1.269	1	generate	Run2	generate/STIM_005.jpg
970.449	1.65	1	generate	Run2	generate/STIM_006.jpg
975.095	1.425	1	generate	Run2	generate/STIM_006.jpg
980.226	1.44	0	generate	Run2	generate/STIM_006.jpg
984.327	0.834	1	generate	Run2	generate/STIM_006.jpg
988.515	1.278	0	generate	Run2	generate/STIM_006.jpg
992.187	1.976	0	generate	Run2	generate/STIM_007.jpg
997.172	0.995	0	generate	Run2	generate/STIM_007.jpg
1000.181	1.408	1	generate	Run2	generate/STIM_007.jpg
1003.874	0.932	1	generate	Run2	generate/STIM_007.jpg
1008.292	0.813	1	generate	Run2	generate/STIM_007.jpg
1011.193	1.442	1	generate	Run2	generate/STIM_008.jpg
1015.56	0.856	0	generate	Run2	generate/STIM_008.jpg
1020.077	1.922	1	generate	Run2	generate/STIM_008.jpg
1025.322	0.794	1	generate	Run2	generate/STIM_008.jpg
1028.763	1.416	0	generate	Run2	generate/STIM_008.jpg
1032.545	1.792	0	generate	Run2	generate/STIM_009.jpg
1037.904	1.824	0	generate	Run2	generate/STIM_009.jpg
1043.434	0.902	1	generate	Run2	generate/STIM_009.jpg
1046.921	1.324	1	generate	Run2	generate/STIM_009.jpg
1051.906	0.763	1	generate	Run2	generate/STIM_009.jpg
1056.32	1.768	1	generate	Run2	generate/STIM_010.jpg
1061.269	1.593	1	generate	Run2	generate/STIM_010.jpg
1065.344	1.229	1	generate	Run2	generate/STIM_010.jpg
1069.186	1.259	1	generate	Run2	generate/STIM_010.jpg
1073.36	0.93	0	generate	Run2	generate/STIM_010.jpg
1076.491	1.582	0	generate	Run2	generate/STIM_011.jpg
1081.241	1.733	1	generate	Run2	generate/STIM_011.jpg
1085.09	0.96	0	generate	Run2	generate/STIM_011.jpg
1088.236	0.837	0	generate	Run2	generate/STIM_011.jpg
1091.076	1.535	1	generate	Run2	generate/STIM_011.jpg
1095.012	0.904	0	generate	Run2	generate/STIM_012.jpg
1099.873	1.6	1	generate	Run2	generate/STIM_012.jpg
1103.864	0.976	1	generate	Run2	generate/STIM_012.jpg
1107.493	1.67	1	generate	Run2	generate/STIM_012.jpg
1111.24	0.862	0	generate	Run2	generate/STIM_012.jpg
1114.821	1.246	1	generate	Run2	generate/STIM_013.jpg
1120.023	1.969	1	generate	Run2	generate/STIM_013.jpg
1125.44	1.071	0	generate	Run2	generate/STIM_013.jpg
1128.549	1.397	1	generate	Run2	generate/STIM_013.jpg
1132.379	0.903	1	generate	Run2	generate/STIM_013.jpg
1135.534	1.643	1	generate	Run2	generate/STIM_014.jpg
1140.905	1.884	1	generate	Run2	generate/STIM_014.jpg
1146.393	1.89	0	generate	Run2	generate/STIM_014.jpg
1151.162	0.875	1	generate	Run2	generate/STIM_014.jpg
1155.099	1.363	0	generate	Run2	generate/STIM_014.jpg
1159.63	1.506	1	generate	Run2	generate/STIM_015.jpg
1163.536	0.849	1	generate	Run2	generate/STIM_015.jpg
1167.783	1.331	0	generate	Run2	generate/STIM_015.jpg
1172.536	1.295	1	generate	Run2	generate/STIM_015.jpg
1176.509	1.593	1	generate	Run2	generate/STIM_015.jpg
1181.555	1.992	1	generate	Run2	generate/STIM_016.jpg
1186.684	1.742	1	generate	Run2	generate/STIM_016.jpg
1190.859	1.09	0	generate	Run2	generate/STIM_016.jpg
1194.516	1.432	1	generate	Run2	generate/STIM_016.jpg
1199.617	1.336	0	generate	Run2	generate/STIM_016.jpg
1203.257	1.47	0	generate	Run2	generate/STIM_017.jpg
1208.278	1.07	1	generate	Run2	generate/STIM_017.jpg
1211.477	1.174	1	generate	Run2	generate/STIM_017.jpg
1216.03	1.378	1	generate	Run2	generate/STIM_017.jpg
1221.121	1.218	1	generate	Run2	generate/STIM_017.jpg
1224.722	1.875	1	generate	Run2	generate/STIM_018.jpg
1229.209	1.799	1	generate	Run2	generate/STIM_018.jpg
1233.965	1.888	1	generate	Run2	generate/STIM_018.jpg
1238.702	1.071	0	generate	Run2	generate/STIM_018.jpg
1242.566	1.785	1	generate	Run2	generate/STIM_018.jpg
1247.82	1.36	1	generate	Run2	generate/STIM_019.jpg
1251.354	1.452	1	generate	Run2	generate/STIM_019.jpg
1255.183	1.459	1	generate	Run2	generate/STIM_019.jpg
1260.076	1.008	1	generate	Run2	generate/STIM_019.jpg
1264.554	1.492	1	generate	Run2	generate/STIM_019.jpg
1269.434	1.633	0	generate	Run2	generate/STIM_020.jpg
1274.388	1.635	1	generate	Run2	generate/STIM_020.jpg
1278.388	1.328	0	generate	Run2	generate/STIM_020.jpg
1283.333	1.671	1	generate	Run2	generate/STIM_020.jpg
1288.086	1.766	1	generate	Run2	generate/STIM_020.jpg
1291.912	1.267	1	generate	Run2	generate/STIM_021.jpg
1296.627	1.634	0	generate	Run2	generate/STIM_021.jpg
1301.878	1.61	0	generate	Run2	generate/STIM_021.jpg
1306.582	0.971	1	generate	Run2	generate/STIM_021.jpg
1310.319	1.415	1	generate	Run2	generate/STIM_021.jpg
1315.522	2.124	1	generate	Run2	generate/STIM_022.jpg
1320.023	1.956	1	generate	Run2	generate/STIM_022.jpg
1324.339	1.102	1	generate	Run2	generate/STIM_022.jpg
1328.77	0.959	1	generate	Run2	generate/STIM_022.jpg
1333.517	1.53	0	generate	Run2	generate/STIM_022.jpg
1337.236	0.93	1	generate	Run2	generate/STIM_023.jpg
1340.857	1.132	0	generate	Run2	generate/STIM_023.jpg
1345.35	0.801	1	generate	Run2	generate/STIM_023.jpg
1349.121	1.197	1	generate	Run2	generate/STIM_023.jpg
1352.602	1.214	0	generate	Run2	generate/STIM_023.jpg
1356.089	1.105	1	generate	Run2	generate/STIM_024.jpg
1359.668	1.919	1	generate	Run2	generate/STIM_024.jpg
1363.834	1.449	0	generate	Run2	generate/STIM_024.jpg
1367.811	0.919	1	generate	Run2	generate/STIM_024.jpg
1372.692	1.424	1	generate	Run2	generate/STIM_024.jpg
1376.985	0.729	0	repeat	Run2	repeat/STIM_000.jpg
1379.85	0.734	0	repeat	Run2	repeat/STIM_000.jpg
1383.197	0.697	0	repeat	Run2	repeat/STIM_000.jpg
1386.87	0.866	1	repeat	Run2	repeat/STIM_000.jpg
1391.592	0.708	1	repeat	Run2	repeat/STIM_000.jpg
1395.104	0.779	1	repeat	Run2	repeat/STIM_001.jpg
1399.855	0.767	1	repeat	Run2	repeat/STIM_001.jpg
1402.646	0.603	1	repeat	Run2	repeat/STIM_001.jpg
1405.418	0.853	1	repeat	Run2	repeat/STIM_001.jpg
1409.172	0.508	1	repeat	Run2	repeat/STIM_001.jpg
1411.785	0.819	0	repeat	Run2	repeat/STIM_002.jpg
1415.35	0.593	1	repeat	Run2	repeat/STIM_002.jpg
1419.79	0.788	0	repeat	Run2	repeat/STIM_002.jpg
1423.396	0.494	1	repeat	Run2	repeat/STIM_002.jpg
1426.223	0.807	1	repeat	Run2	repeat/STIM_002.jpg
1429.399	0.822	0	repeat	Run2	repeat/STIM_003.jpg
1433.034	0.703	0	repeat	Run2	repeat/STIM_003.jpg
1436.772	0.746	0	repeat	Run2	repeat/STIM_003.jpg
1439.702	0.55	1	repeat	Run2	repeat/STIM_003.jpg
1443.844	0.504	1	repeat	Run2	repeat/STIM_003.jpg
1447.861	0.455	1	repeat	Run2	repeat/STIM_004.jpg
1451.178	0.681	0	repeat	Run2	repeat/STIM_004.jpg
1455.127	0.76	0	repeat	Run2	repeat/STIM_004.jpg
1459.389	0.704	1	repeat	Run2	repeat/STIM_004.jpg
1462.586	0.761	1	repeat	Run2	repeat/STIM_004.jpg
1466.563	0.699	1	repeat	Run2	repeat/STIM_005.jpg
1469.4	0.853	0	repeat	Run2	repeat/STIM_005.jpg
1472.981	0.605	0	repeat	Run2	repeat/STIM_005.jpg
1475.587	0.616	1	repeat	Run2	repeat/STIM_005.jpg
1478.582	0.707	1	repeat	Run2	repeat/STIM_005.jpg
1481.717	0.744	1	repeat	Run2	repeat/STIM_006.jpg
1485.182	0.626	1	repeat	Run2	repeat/STIM_006.jpg
1489.558	0.634	1	repeat	Run2	repeat/STIM_006.jpg
1493.848	0.475	1	repeat	Run2	repeat/STIM_006.jpg
1497.859	0.475	0	repeat	Run2	repeat/STIM_006.jpg
1501.767	0.491	1	repeat	Run2	repeat/STIM_007.jpg
1504.471	0.765	0	repeat	Run2	repeat/STIM_007.jpg
1508.932	0.796	1	repeat	Run2	repeat/STIM_007.jpg
1512.037	0.509	0	repeat	Run2	repeat/STIM_007.jpg
1516.357	0.561	0	repeat	Run2	repeat/STIM_007.jpg
1519.563	0.493	0	repeat	Run2	repeat/STIM_008.jpg
1523.274	0.864	1	repeat	Run2	repeat/STIM_008.jpg
1526.144	0.639	1	repeat	Run2	repeat/STIM_008.jpg
1529.052	0.44	1	repeat	Run2	repeat/STIM_008.jpg
1532.052	0.814	1	repeat	Run2	repeat/STIM_008.jpg
1535.017	0.48	0	repeat	Run2	repeat/STIM_009.jpg
1538.092	0.647	1	repeat	Run2	repeat/STIM_009.jpg
1540.902	0.477	0	repeat	Run2	repeat/STIM_009.jpg
1544.833	0.646	1	repeat	Run2	repeat/STIM_009.jpg
1549.314	0.523	1	repeat	Run2	repeat/STIM_009.jpg
1552.818	0.613	0	repeat	Run2	repeat/STIM_010.jpg
1555.598	0.837	0	repeat	Run2	repeat/STIM_010.jpg
1559.461	0.615	0	repeat	Run2	repeat/STIM_010.jpg
1563.204	0.662	1	repeat	Run2	repeat/STIM_010.jpg
1567.751	0.862	0	repeat	Run2	repeat/STIM_010.jpg
1571.076	0.463	1	repeat	Run2	repeat/STIM_011.jpg
1574.197	0.469	1	repeat	Run2	repeat/STIM_011.jpg
1577.919	0.474	1	repeat	Run2	repeat/STIM_011.jpg
1582.364	0.765	0	repeat	Run2	repeat/STIM_011.jpg
1585.145	0.572	1	repeat	Run2	repeat/STIM_011.jpg
1589.43	0.834	1	repeat	Run2	repeat/STIM_012.jpg
1593.698	0.831	1	repeat	Run2	repeat/STIM_012.jpg
1597.956	0.776	0	repeat	Run2	repeat/STIM_012.jpg
1602.51	0.602	1	repeat	Run2	repeat/STIM_012.jpg
1605.901	0.632	0	repeat	Run2	repeat/STIM_012.jpg
1609.069	0.504	0	repeat	Run2	repeat/STIM_013.jpg
1612.671	0.858	0	repeat	Run2	repeat/STIM_013.jpg
1617.346	0.559	1	repeat	Run2	repeat/STIM_013.jpg
1620.661	0.825	1	repeat	Run2	repeat/STIM_013.jpg
1624.111	0.602	0	repeat	Run2	repeat/STIM_013.jpg
1628.201	0.771	0	repeat	Run2	repeat/STIM_014.jpg
1632.246	0.597	0	repeat	Run2	repeat/STIM_014.jpg
1635.714	0.645	1	repeat	Run2	repeat/STIM_014.jpg
1639.364	0.636	1	repeat	Run2	repeat/STIM_014.jpg
1642.693	0.708	1	repeat	Run2	repeat/STIM_014.jpg
1647.0	1.449	1	generate	Run3	generate/STIM_000.jpg
1650.715	1.43	0	generate	Run3	generate/STIM_000.jpg
1654.155	1.503	1	generate	Run3	generate/STIM_000.jpg
1658.743	0.865	0	generate	Run3	generate/STIM_000.jpg
1662.21	1.728	1	generate	Run3	generate/STIM_000.jpg
1667.675	0.971	0	generate	Run3	generate/STIM_001.jpg
1672.399	1.713	1	generate	Run3	generate/STIM_001.jpg
1676.337	1.268	0	generate	Run3	generate/STIM_001.jpg
1680.158	1.337	0	generate	Run3	generate/STIM_001.jpg
1683.732	1.354	0	generate	Run3	generate/STIM_001.jpg
1688.076	1.684	1	generate	Run3	generate/STIM_002.jpg
1693.128	0.923	1	generate	Run3	generate/STIM_002.jpg
1697.54	1.436	1	generate	Run3	generate/STIM_002.jpg
1702.084	1.605	1	generate	Run3	generate/STIM_002.jpg
1706.834	1.648	1	generate	Run3	generate/STIM_002.jpg
1712.224	0.985	1	generate	Run3	generate/STIM_003.jpg
1716.051	1.109	1	generate	Run3	generate/STIM_003.jpg
1720.706	1.612	0	generate	Run3	generate/STIM_003.jpg
1725.41	0.734	0	generate	Run3	generate/STIM_003.jpg
1728.645	1.519	1	generate	Run3	generate/STIM_003.jpg
1732.929	0.803	1	generate	Run3	generate/STIM_004.jpg
1737.521	1.448	1	generate	Run3	generate/STIM_004.jpg
1741.396	0.954	1	generate	Run3	generate/STIM_004.jpg
1745.751	1.079	1	generate	Run3	generate/STIM_004.jpg
1749.739	0.962	1	generate	Run3	generate/STIM_004.jpg
1754.388	1.773	0	generate	Run3	generate/STIM_005.jpg
1758.652	1.208	1	generate	Run3	generate/STIM_005.jpg
1762.54	1.228	1	generate	Run3	generate/STIM_005.jpg
1767.046	1.327	1	generate	Run3	generate/STIM_005.jpg
1770.433	1.593	1	generate	Run3	generate/STIM_005.jpg
1775.429	1.201	1	generate	Run3	generate/STIM_006.jpg
1779.931	1.413	1	generate	Run3	generate/STIM_006.jpg
1785.101	1.103	1	generate	Run3	generate/STIM_006.jpg
1789.845	1.123	1	generate	Run3	generate/STIM_006.jpg
1794.378	0.958	0	generate	Run3	generate/STIM_006.jpg
1797.724	1.5	1	generate	Run3	generate/STIM_007.jpg
1802.722	0.812	0	generate	Run3	generate/STIM_007.jpg
1806.308	0.852	0	generate	Run3	generate/STIM_007.jpg
1811.112	1.39	1	generate	Run3	generate/STIM_007.jpg
1815.482	1.621	0	generate	Run3	generate/STIM_007.jpg
1820.743	0.894	1	generate	Run3	generate/STIM_008.jpg
1823.962	1.56	1	generate	Run3	generate/STIM_008.jpg
1828.198	0.817	0	generate	Run3	generate/STIM_008.jpg
1832.075	1.819	1	generate	Run3	generate/STIM_008.jpg
1835.931	0.808	0	generate	Run3	generate/STIM_008.jpg
1840.009	1.683	1	generate	Run3	generate/STIM_009.jpg
1843.933	1.572	0	generate	Run3	generate/STIM_009.jpg
1848.763	1.402	1	generate	Run3	generate/STIM_009.jpg
1853.443	0.858	1	generate	Run3	generate/STIM_009.jpg
1857.229	0.784	0	generate	Run3	generate/STIM_009.jpg
1861.674	1.022	1	generate	Run3	generate/STIM_010.jpg
1865.374	1.407	0	generate	Run3	generate/STIM_010.jpg
1870.161	1.691	1	generate	Run3	generate/STIM_010.jpg
1874.458	0.908	1	generate	Run3	generate/STIM_010.jpg
1879.313	1.195	1	generate	Run3	generate/STIM_010.jpg
1883.84	1.753	0	generate	Run3	generate/STIM_011.jpg
1888.527	1.004	1	generate	Run3	generate/STIM_011.jpg
1892.161	1.6	1	generate	Run3	generate/STIM_011.jpg
1896.957	1.053	1	generate	Run3	generate/STIM_011.jpg
1900.391	0.796	1	generate	Run3	generate/STIM_011.jpg
1904.43	0.981	1	generate	Run3	generate/STIM_012.jpg
1908.377	1.353	0	generate	Run3	generate/STIM_012.jpg
1913.153	0.767	0	generate	Run3	generate/STIM_012.jpg
1915.921	0.8	0	generate	Run3	generate/STIM_012.jpg
1919.472	1.402	0	generate	Run3	generate/STIM_012.jpg
1923.932	1.613	0	generate	Run3	generate/STIM_013.jpg
1929.123	1.476	1	generate	Run3	generate/STIM_013.jpg
1933.476	1.698	1	generate	Run3	generate/STIM_013.jpg
1938.297	1.713	0	generate	Run3	generate/STIM_013.jpg
1942.708	0.903	1	generate	Run3	generate/STIM_013.jpg
1947.002	0.737	1	generate	Run3	generate/STIM_014.jpg
1951.429	1.201	1	generate	Run3	generate/STIM_014.jpg
1955.657	1.446	1	generate	Run3	generate/STIM_014.jpg
1960.944	0.974	0	generate	Run3	generate/STIM_014.jpg
1965.829	1.28	1	generate	Run3	generate/STIM_014.jpg
1969.351	1.684	1	generate	Run3	generate/STIM_015.jpg
1973.296	1.058	1	generate	Run3	generate/STIM_015.jpg
1977.578	1.505	1	generate	Run3	generate/STIM_015.jpg
1982.929	0.79	0	generate	Run3	generate/STIM_015.jpg
1985.825	1.114	1	generate	Run3	generate/STIM_015.jpg
1990.466	1.56	1	generate	Run3	generate/STIM_016.jpg
1995.116	1.195	1	generate	Run3	generate/STIM_016.jpg
1999.869	1.684	1	generate	Run3	generate/STIM_016.jpg
2004.964	0.876	0	generate	Run3	generate/STIM_016.jpg
2009.578	1.086	1	generate	Run3	generate/STIM_016.jpg
2014.616	0.801	1	generate	Run3	generate/STIM_017.jpg
2017.422	1.581	1	generate	Run3	generate/STIM_017.jpg
2022.737	1.713	1	generate	Run3	generate/STIM_017.jpg
2026.754	1.686	0	generate	Run3	generate/STIM_017.jpg
2030.736	1.72	1	generate	Run3	generate/STIM_017.jpg
2036.221	1.757	0	generate	Run3	generate/STIM_018.jpg
2041.128	1.808	1	generate	Run3	generate/STIM_018.jpg
2046.167	0.799	1	generate	Run3	generate/STIM_018.jpg
2050.856	1.612	1	generate	Run3	generate/STIM_018.jpg
2054.588	1.429	0	generate	Run3	generate/STIM_018.jpg
2059.642	0.779	0	generate	Run3	generate/STIM_019.jpg
2062.453	0.733	1	generate	Run3	generate/STIM_019.jpg
2065.536	0.859	0	generate	Run3	generate/STIM_019.jpg
2069.599	1.548	0	generate	Run3	generate/STIM_019.jpg
2073.172	1.65	1	generate	Run3	generate/STIM_019.jpg
2076.855	0.75	1	generate	Run3	generate/STIM_020.jpg
2081.029	1.608	0	generate	Run3	generate/STIM_020.jpg
2085.316	1.263	1	generate	Run3	generate/STIM_020.jpg
2089.192	1.348	0	generate	Run3	generate/STIM_020.jpg
2094.263	1.788	1	generate	Run3	generate/STIM_020.jpg
2099.662	1.723	0	generate	Run3	generate/STIM_021.jpg
2103.936	1.334	1	generate	Run3	generate/STIM_021.jpg
2108.206	1.308	1	generate	Run3	generate/STIM_021.jpg
2112.466	1.177	1	generate	Run3	generate/STIM_021.jpg
2117.535	1.239	1	generate	Run3	generate/STIM_021.jpg
2122.615	1.152	0	generate	Run3	generate/STIM_022.jpg
2125.794	1.16	0	generate	Run3	generate/STIM_022.jpg
2129.628	1.236	1	generate	Run3	generate/STIM_022.jpg
2133.462	1.715	1	generate	Run3	generate/STIM_022.jpg
2138.254	1.307	0	generate	Run3	generate/STIM_022.jpg
2142.584	1.702	0	generate	Run3	generate/STIM_023.jpg
2147.172	1.473	0	generate	Run3	generate/STIM_023.jpg
2152.13	0.852	1	generate	Run3	generate/STIM_023.jpg
2156.548	1.771	1	generate	Run3	generate/STIM_023.jpg
2161.668	1.379	1	generate	Run3	generate/STIM_023.jpg
2166.28	1.103	0	generate	Run3	generate/STIM_024.jpg
2170.362	1.351	1	generate	Run3	generate/STIM_024.jpg
2174.199	1.392	0	generate	Run3	generate/STIM_024.jpg
2178.035	1.462	1	generate	Run3	generate/STIM_024.jpg
2181.654	1.655	0	generate	Run3	generate/STIM_024.jpg
2186.322	0.436	1	repeat	Run3	repeat/STIM_000.jpg
2189.053	0.527	0	repeat	Run3	repeat/STIM_000.jpg
2192.736	0.59	0	repeat	Run3	repeat/STIM_000.jpg
2197.092	0.581	1	repeat	Run3	repeat/STIM_000.jpg
2200.765	0.655	1	repeat	Run3	repeat/STIM_000.jpg
2204.373	0.719	1	repeat	Run3	repeat/STIM_001.jpg
2208.344	0.783	0	repeat	Run3	repeat/STIM_001.jpg
2211.397	0.822	1	repeat	Run3	repeat/STIM_001.jpg
2214.784	0.555	1	repeat	Run3	repeat/STIM_001.jpg
2218.038	0.731	1	repeat	Run3	repeat/STIM_001.jpg
2221.333	0.534	1	repeat	Run3	repeat/STIM_002.jpg
2225.211	0.856	1	repeat	Run3	repeat/STIM_002.jpg
2228.206	0.449	1	repeat	Run3	repeat/STIM_002.jpg
2231.491	0.583	1	repeat	Run3	repeat/STIM_002.jpg
2235.985	0.717	1	repeat	Run3	repeat/STIM_002.jpg
2238.978	0.579	0	repeat	Run3	repeat/STIM_003.jpg
2241.901	0.558	1	repeat	Run3	repeat/STIM_003.jpg
2244.867	0.45	1	repeat	Run3	repeat/STIM_003.jpg
2248.019	0.498	1	repeat	Run3	repeat/STIM_003.jpg
2252.405	0.773	1	repeat	Run3	repeat/STIM_003.jpg
2257.063	0.64	1	repeat	Run3	repeat/STIM_004.jpg
2261.279	0.545	1	repeat	Run3	repeat/STIM_004.jpg
2264.42	0.483	1	repeat	Run3	repeat/STIM_004.jpg
2268.532	0.797	1	repeat	Run3	repeat/STIM_004.jpg
2273.328	0.725	1	repeat	Run3	repeat/STIM_004.jpg
2277.082	0.547	1	repeat	Run3	repeat/STIM_005.jpg
2279.685	0.47	0	repeat	Run3	repeat/STIM_005.jpg
2282.284	0.581	1	repeat	Run3	repeat/STIM_005.jpg
2286.723	0.612	0	repeat	Run3	repeat/STIM_005.jpg
2290.439	0.517	0	repeat	Run3	repeat/STIM_005.jpg
2293.109	0.491	0	repeat	Run3	repeat/STIM_006.jpg
2297.485	0.462	0	repeat	Run3	repeat/STIM_006.jpg
2301.709	0.618	0	repeat	Run3	repeat/STIM_006.jpg
2305.843	0.585	1	repeat	Run3	repeat/STIM_006.jpg
2308.475	0.777	0	repeat	Run3	repeat/STIM_006.jpg
2311.99	0.691	1	repeat	Run3	repeat/STIM_007.jpg
2315.608	0.459	0	repeat	Run3	repeat/STIM_007.jpg
2318.38	0.438	1	repeat	Run3	repeat/STIM_007.jpg
2321.222	0.583	0	repeat	Run3	repeat/STIM_007.jpg
2324.046	0.686	1	repeat	Run3	repeat/STIM_007.jpg
2328.076	0.537	1	repeat	Run3	repeat/STIM_008.jpg
2331.064	0.645	1	repeat	Run3	repeat/STIM_008.jpg
2333.886	0.76	0	repeat	Run3	repeat/STIM_008.jpg
2337.847	0.469	1	repeat	Run3	repeat/STIM_008.jpg
2340.356	0.756	1	repeat	Run3	repeat/STIM_008.jpg
2344.459	0.679	1	repeat	Run3	repeat/STIM_009.jpg
2347.514	0.564	1	repeat	Run3	repeat/STIM_009.jpg
2350.782	0.523	1	repeat	Run3	repeat/STIM_009.jpg
2355.298	0.833	0	repeat	Run3	repeat/STIM_009.jpg
2359.734	0.576	0	repeat	Run3	repeat/STIM_009.jpg
2362.986	0.776	1	repeat	Run3	repeat/STIM_010.jpg
2367.334	0.445	1	repeat	Run3	repeat/STIM_010.jpg
2370.785	0.658	1	repeat	Run3	repeat/STIM_010.jpg
2374.297	0.771	1	repeat	Run3	repeat/STIM_010.jpg
2378.478	0.665	0	repeat	Run3	repeat/STIM_010.jpg
2383.075	0.705	1	repeat	Run3	repeat/STIM_011.jpg
2385.903	0.766	0	repeat	Run3	repeat/STIM_011.jpg
2389.43	0.729	1	repeat	Run3	repeat/STIM_011.jpg
2392.963	0.665	0	repeat	Run3	repeat/STIM_011.jpg
2397.473	0.741	0	repeat	Run3	repeat/STIM_011.jpg
2400.566	0.811	1	repeat	Run3	repeat/STIM_012.jpg
2403.978	0.505	0	repeat	Run3	repeat/STIM_012.jpg
2407.529	0.832	1	repeat	Run3	repeat/STIM_012.jpg
2411.099	0.815	0	repeat	Run3	repeat/STIM_012.jpg
2414.917	0.759	1	repeat	Run3	repeat/STIM_012.jpg
2418.43	0.83	1	repeat	Run3	repeat/STIM_013.jpg
2421.347	0.468	1	repeat	Run3	repeat/STIM_013.jpg
2424.35	0.748	1	repeat	Run3	repeat/STIM_013.jpg
2428.13	0.505	1	repeat	Run3	repeat/STIM_013.jpg
2431.24	0.568	1	repeat	Run3	repeat/STIM_013.jpg
2434.007	0.86	1	repeat	Run3	repeat/STIM_014.jpg
2438.496	0.804	1	repeat	Run3	repeat/STIM_014.jpg
2441.57	0.856	1	repeat	Run3	repeat/STIM_014.jpg
2445.608	0.62	1	repeat	Run3	repeat/STIM_014.jpg
2449.227	0.672	0	repeat	Run3	repeat/STIM_014.jpg
2451.899	1.473	0	generate	Run4	generate/STIM_000.jpg
2456.648	1.601	1	generate	Run4	generate/STIM_000.jpg
2461.731	1.726	0	generate	Run4	generate/STIM_000.jpg
2467.158	1.66	1	generate	Run4	generate/STIM_000.jpg
2472.065	0.936	1	generate	Run4	generate/STIM_000.jpg
2475.335	1.232	1	generate	Run4	generate/STIM_001.jpg
2479.96	1.538	1	generate	Run4	generate/STIM_001.jpg
2484.812	1.34	1	generate	Run4	generate/STIM_001.jpg
2489.567	1.535	1	generate	Run4	generate/STIM_001.jpg
2493.266	1.216	1	generate	Run4	generate/STIM_001.jpg
2496.831	1.501	1	generate	Run4	generate/STIM_002.jpg
2501.201	1.5	1	generate	Run4	generate/STIM_002.jpg
2505.057	1.686	1	generate	Run4	generate/STIM_002.jpg
2509.288	0.919	1	generate	Run4	generate/STIM_002.jpg
2512.974	1.368	1	generate	Run4	generate/STIM_002.jpg
2517.975	0.915	1	generate	Run4	generate/STIM_003.jpg
2522.857	1.646	1	generate	Run4	generate/STIM_003.jpg
2526.938	1.152	1	generate	Run4	generate/STIM_003.jpg
2531.713	0.944	1	generate	Run4	generate/STIM_003.jpg
2536.113	1.677	1	generate	Run4	generate/STIM_003.jpg
2540.829	1.666	0	generate	Run4	generate/STIM_004.jpg
2545.374	1.44	1	generate	Run4	generate/STIM_004.jpg
2549.676	1.425	1	generate	Run4	generate/STIM_004.jpg
2554.287	1.46	1	generate	Run4	generate/STIM_004.jpg
2559.602	1.338	1	generate	Run4	generate/STIM_004.jpg
2563.124	0.823	1	generate	Run4	generate/STIM_005.jpg
2566.607	1.715	1	generate	Run4	generate/STIM_005.jpg
2570.763	1.021	1	generate	Run4	generate/STIM_005.jpg
2573.909	0.826	1	generate	Run4	generate/STIM_005.jpg
2576.835	1.23	1	generate	Run4	generate/STIM_005.jpg
2581.192	1.773	1	generate	Run4	generate/STIM_006.jpg
2586.897	0.993	0	generate	Run4	generate/STIM_006.jpg
2590.443	1.52	1	generate	Run4	generate/STIM_006.jpg
2595.77	0.942	1	generate	Run4	generate/STIM_006.jpg
2600.182	1.056	1	generate	Run4	generate/STIM_006.jpg
2604.99	0.996	1	generate	Run4	generate/STIM_007.jpg
2608.437	0.806	1	generate	Run4	generate/STIM_007.jpg
2612.554	1.578	0	generate	Run4	generate/STIM_007.jpg
2617.117	0.939	1	generate	Run4	generate/STIM_007.jpg
2620.058	1.789	0	generate	Run4	generate/STIM_007.jpg
2623.94	1.025	1	generate	Run4	generate/STIM_008.jpg
2628.209	1.244	1	generate	Run4	generate/STIM_008.jpg
2632.191	1.632	0	generate	Run4	generate/STIM_008.jpg
2637.212	1.76	1	generate	Run4	generate/STIM_008.jpg
2641.619	1.12	1	generate	Run4	generate/STIM_008.jpg
2646.65	1.407	0	generate	Run4	generate/STIM_009.jpg
2650.506	1.257	1	generate	Run4	generate/STIM_009.jpg
2654.395	0.762	1	generate	Run4	generate/STIM_009.jpg
2658.997	0.751	1	generate	Run4	generate/STIM_009.jpg
2663.56	1.479	0	generate	Run4	generate/STIM_009.jpg
2667.269	0.941	1	generate	Run4	generate/STIM_010.jpg
2671.848	1.723	1	generate	Run4	generate/STIM_010.jpg
2677.135	0.779	1	generate	Run4	generate/STIM_010.jpg
2680.139	1.137	1	generate	Run4	generate/STIM_010.jpg
2683.682	0.772	1	generate	Run4	generate/STIM_010.jpg
2688.11	1.408	0	generate	Run4	generate/STIM_011.jpg
2693.152	0.868	1	generate	Run4	generate/STIM_011.jpg
2696.099	1.731	1	generate	Run4	generate/STIM_011.jpg
2700.289	1.169	1	generate	Run4	generate/STIM_011.jpg
2704.409	1.78	1	generate	Run4	generate/STIM_011.jpg
2708.976	0.98	1	generate	Run4	generate/STIM_012.jpg
2713.848	1.487	0	generate	Run4	generate/STIM_012.jpg
2717.882	1.086	1	generate	Run4	generate/STIM_012.jpg
2721.561	0.995	1	generate	Run4	generate/STIM_012.jpg
2726.221	1.429	0	generate	Run4	generate/STIM_012.jpg
2730.353	1.417	1	generate	Run4	generate/STIM_013.jpg
2735.599	1.817	1	generate	Run4	generate/STIM_013.jpg
2740.077	1.166	0	generate	Run4	generate/STIM_013.jpg
2744.632	1.236	1	generate	Run4	generate/STIM_013.jpg
2748.029	1.353	0	generate	Run4	generate/STIM_013.jpg
2753.271	1.688	0	generate	Run4	generate/STIM_014.jpg
2758.765	1.339	1	generate	Run4	generate/STIM_014.jpg
2764.059	1.119	1	generate	Run4	generate/STIM_014.jpg
2767.737	1.446	1	generate	Run4	generate/STIM_014.jpg
2772.412	1.43	1	generate	Run4	generate/STIM_014.jpg
2776.041	1.202	1	generate	Run4	generate/STIM_015.jpg
2780.301	1.292	1	generate	Run4	generate/STIM_015.jpg
2785.222	1.322	1	generate	Run4	generate/STIM_015.jpg
2790.335	1.478	1	generate	Run4	generate/STIM_015.jpg
2794.289	1.513	1	generate	Run4	generate/STIM_015.jpg
2798.737	1.575	1	generate	Run4	generate/STIM_016.jpg
2803.614	1.305	1	generate	Run4	generate/STIM_016.jpg
2808.405	0.915	1	generate	Run4	generate/STIM_016.jpg
2811.938	1.758	0	generate	Run4	generate/STIM_016.jpg
2816.525	1.345	1	generate	Run4	generate/STIM_016.jpg
2820.728	1.612	1	generate	Run4	generate/STIM_017.jpg
2824.36	1.578	1	generate	Run4	generate/STIM_017.jpg
2828.165	1.36	1	generate	Run4	generate/STIM_017.jpg
2831.94	0.952	0	generate	Run4	generate/STIM_017.jpg
2836.018	0.924	1	generate	Run4	generate/STIM_017.jpg
2839.533	0.972	0	generate	Run4	generate/STIM_018.jpg
2843.47	1.071	1	generate	Run4	generate/STIM_018.jpg
2846.659	0.924	1	generate	Run4	generate/STIM_018.jpg
2850.183	0.947	1	generate	Run4	generate/STIM_018.jpg
2853.515	1.768	0	generate	Run4	generate/STIM_018.jpg
2859.248	1.048	1	generate	Run4	generate/STIM_019.jpg
2863.652	0.945	1	generate	Run4	generate/STIM_019.jpg
2868.195	1.796	1	generate	Run4	generate/STIM_019.jpg
2873.838	1.375	1	generate	Run4	generate/STIM_019.jpg
2879.057	1.512	1	generate	Run4	generate/STIM_019.jpg
2883.348	1.496	1	generate	Run4	generate/STIM_020.jpg
2887.307	1.139	1	generate	Run4	generate/STIM_020.jpg
2892.174	1.322	1	generate	Run4	generate/STIM_020.jpg
2896.732	1.805	1	generate	Run4	generate/STIM_020.jpg
2902.476	1.232	1	generate	Run4	generate/STIM_020.jpg
2905.841	1.098	1	generate	Run4	generate/STIM_021.jpg
2908.963	1.277	0	generate	Run4	generate/STIM_021.jpg
2914.158	1.01	1	generate	Run4	generate/STIM_021.jpg
2918.46	1.534	1	generate	Run4	generate/STIM_021.jpg
2922.65	0.795	1	generate	Run4	generate/STIM_021.jpg
2925.622	1.722	0	generate	Run4	generate/STIM_022.jpg
2930.062	1.812	0	generate	Run4	generate/STIM_022.jpg
2934.552	0.955	1	generate	Run4	generate/STIM_022.jpg
2939.108	1.459	0	generate	Run4	generate/STIM_022.jpg
2943.972	1.082	1	generate	Run4	generate/STIM_022.jpg
2948.245	1.054	0	generate	Run4	generate/STIM_023.jpg
2952.082	0.859	0	generate	Run4	generate/STIM_023.jpg
2956.44	1.373	1	generate	Run4	generate/STIM_023.jpg
2960.915	1.449	1	generate	Run4	generate/STIM_023.jpg
2965.216	1.224	1	generate	Run4	generate/STIM_023.jpg
2968.447	1.335	1	generate	Run4	generate/STIM_024.jpg
2973.224	1.585	1	generate	Run4	generate/STIM_024.jpg
2977.14	1.158	1	generate	Run4	generate/STIM_024.jpg
2980.781	1.446	1	generate	Run4	generate/STIM_024.jpg
2986.079	1.811	1	generate	Run4	generate/STIM_024.jpg
2991.644	0.705	1	repeat	Run4	repeat/STIM_000.jpg
2995.296	0.803	1	repeat	Run4	repeat/STIM_000.jpg
2998.97	0.631	0	repeat	Run4	repeat/STIM_000.jpg
3003.054	0.626	0	repeat	Run4	repeat/STIM_000.jpg
3006.258	0.834	0	repeat	Run4	repeat/STIM_000.jpg
3011.047	0.692	0	repeat	Run4	repeat/STIM_001.jpg
3015.402	0.732	1	repeat	Run4	repeat/STIM_001.jpg
3018.278	0.831	0	repeat	Run4	repeat/STIM_001.jpg
3022.071	0.758	1	repeat	Run4	repeat/STIM_001.jpg
3025.038	0.626	1	repeat	Run4	repeat/STIM_001.jpg
3028.665	0.438	0	repeat	Run4	repeat/STIM_002.jpg
3032.46	0.624	1	repeat	Run4	repeat/STIM_002.jpg
3037.035	0.679	1	repeat	Run4	repeat/STIM_002.jpg
3040.165	0.754	0	repeat	Run4	repeat/STIM_002.jpg
3044.83	0.46	1	repeat	Run4	repeat/STIM_002.jpg
3048.545	0.81	1	repeat	Run4	repeat/STIM_003.jpg
3051.516	0.785	1	repeat	Run4	repeat/STIM_003.jpg
3056.089	0.679	0	repeat	Run4	repeat/STIM_003.jpg
3059.345	0.855	1	repeat	Run4	repeat/STIM_003.jpg
3063.736	0.814	0	repeat	Run4	repeat/STIM_003.jpg
3066.85	0.724	1	repeat	Run4	repeat/STIM_004.jpg
3071.484	0.453	1	repeat	Run4	repeat/STIM_004.jpg
3075.245	0.801	1	repeat	Run4	repeat/STIM_004.jpg
3079.852	0.498	1	repeat	Run4	repeat/STIM_004.jpg
3083.939	0.457	1	repeat	Run4	repeat/STIM_004.jpg
3087.384	0.436	1	repeat	Run4	repeat/STIM_005.jpg
3091.809	0.714	1	repeat	Run4	repeat/STIM_005.jpg
3095.332	0.61	1	repeat	Run4	repeat/STIM_005.jpg
3098.107	0.678	0	repeat	Run4	repeat/STIM_005.jpg
3102.781	0.564	1	repeat	Run4	repeat/STIM_005.jpg
3106.898	0.456	0	repeat	Run4	repeat/STIM_006.jpg
3109.908	0.804	1	repeat	Run4	repeat/STIM_006.jpg
3113.176	0.703	0	repeat	Run4	repeat/STIM_006.jpg
3117.746	0.586	0	repeat	Run4	repeat/STIM_006.jpg
3121.659	0.693	1	repeat	Run4	repeat/STIM_006.jpg
3124.716	0.517	1	repeat	Run4	repeat/STIM_007.jpg
3127.559	0.496	0	repeat	Run4	repeat/STIM_007.jpg
3130.591	0.756	1	repeat	Run4	repeat/STIM_007.jpg
3134.763	0.656	1	repeat	Run4	repeat/STIM_007.jpg
3138.767	0.697	1	repeat	Run4	repeat/STIM_007.jpg
3141.847	0.674	0	repeat	Run4	repeat/STIM_008.jpg
3144.988	0.716	1	repeat	Run4	repeat/STIM_008.jpg
3148.053	0.602	1	repeat	Run4	repeat/STIM_008.jpg
3152.257	0.586	1	repeat	Run4	repeat/STIM_008.jpg
3154.903	0.524	1	repeat	Run4	repeat/STIM_008.jpg
3158.614	0.701	0	repeat	Run4	repeat/STIM_009.jpg
3162.335	0.646	1	repeat	Run4	repeat/STIM_009.jpg
3165.216	0.759	0	repeat	Run4	repeat/STIM_009.jpg
3168.7	0.791	0	repeat	Run4	repeat/STIM_009.jpg
3173.406	0.582	1	repeat	Run4	repeat/STIM_009.jpg
3176.195	0.777	1	repeat	Run4	repeat/STIM_010.jpg
3180.066	0.688	1	repeat	Run4	repeat/STIM_010.jpg
3184.063	0.836	1	repeat	Run4	repeat/STIM_010.jpg
3187.466	0.588	1	repeat	Run4	repeat/STIM_010.jpg
3190.813	0.867	0	repeat	Run4	repeat/STIM_010.jpg
3194.385	0.59	0	repeat	Run4	repeat/STIM_011.jpg
3198.72	0.69	1	repeat	Run4	repeat/STIM_011.jpg
3202.358	0.561	0	repeat	Run4	repeat/STIM_011.jpg
3205.923	0.82	1	repeat	Run4	repeat/STIM_011.jpg
3208.895	0.779	0	repeat	Run4	repeat/STIM_011.jpg
3211.757	0.695	1	repeat	Run4	repeat/STIM_012.jpg
3214.851	0.809	0	repeat	Run4	repeat/STIM_012.jpg
3218.359	0.814	1	repeat	Run4	repeat/STIM_012.jpg
3221.474	0.674	1	repeat	Run4	repeat/STIM_012.jpg
3224.793	0.458	0	repeat	Run4	repeat/STIM_012.jpg
3229.185	0.618	0	repeat	Run4	repeat/STIM_013.jpg
3233.384	0.61	1	repeat	Run4	repeat/STIM_013.jpg
3236.83	0.79	1	repeat	Run4	repeat/STIM_013.jpg
3240.415	0.486	1	repeat	Run4	repeat/STIM_013.jpg
3243.001	0.485	1	repeat	Run4	repeat/STIM_013.jpg
3245.831	0.446	1	repeat	Run4	repeat/STIM_014.jpg
3249.627	0.852	1	repeat	Run4	repeat/STIM_014.jpg
3254.269	0.669	1	repeat	Run4	repeat/STIM_014.jpg
3258.685	0.514	1	repeat	Run4	repeat/STIM_014.jpg
3262.368	0.563	1	repeat	Run4	repeat/STIM_014.jpg
