onset	duration	response_time_ms	trial_type	learning_stage	stimulus	response_port
0.0	2.805	2805.2	generate	Run1	generate/STIM_000.jpg	100
5.473	2.141	2141.0	generate	Run1	generate/STIM_000.jpg	100
10.354	1.895	1894.6	generate	Run1	generate/STIM_000.jpg	100
15.725	1.547	1547.3	generate	Run1	generate/STIM_000.jpg	100
21.15	1.956	1955.5	generate	Run1	generate/STIM_000.jpg	99
26.712	2.08	2080.2	generate	Run1	generate/STIM_001.jpg	100
31.806	2.589	2589.2	generate	Run1	generate/STIM_001.jpg	99
37.976	1.585	1585.1	generate	Run1	generate/STIM_001.jpg	100
43.153	1.558	1557.7	generate	Run1	generate/STIM_001.jpg	100
47.315	0.94	940.3	generate	Run1	generate/STIM_001.jpg	99
51.222	1.272	1271.7	generate	Run1	generate/STIM_002.jpg	99
55.689	1.735	1735.0	generate	Run1	generate/STIM_002.jpg	99
60.166	2.053	2052.9	generate	Run1	generate/STIM_002.jpg	99
64.703	1.918	1917.8	generate	Run1	generate/STIM_002.jpg	99
70.625	1.695	1695.4	generate	Run1	generate/STIM_002.jpg	99
75.263	2.101	2100.8	generate	Run1	generate/STIM_003.jpg	100
81.015	2.536	2536.5	generate	Run1	generate/STIM_003.jpg	100
87.662	1.146	1146.1	generate	Run1	generate/STIM_003.jpg	100
92.536	1.494	1493.8	generate	Run1	generate/STIM_003.jpg	100
96.246	1.996	1995.5	generate	Run1	generate/STIM_003.jpg	99
100.682	1.614	1614.0	generate	Run1	generate/STIM_004.jpg	100
105.068	1.404	1404.3	generate	Run1	generate/STIM_004.jpg	99
109.408	1.526	1525.8	generate	Run1	generate/STIM_004.jpg	100
113.828	1.887	1887.4	generate	Run1	generate/STIM_004.jpg	99
118.694	1.798	1798.0	generate	Run1	generate/STIM_004.jpg	100
124.056	1.919	1919.2	generate	Run1	generate/STIM_005.jpg	100
128.892	2.682	2682.3	generate	Run1	generate/STIM_005.jpg	99
135.487	1.688	1688.2	generate	Run1	generate/STIM_005.jpg	99
140.254	1.483	1483.3	generate	Run1	generate/STIM_005.jpg	99
144.532	1.897	1896.8	generate	Run1	generate/STIM_005.jpg	100
148.656	2.24	2240.0	generate	Run1	generate/STIM_006.jpg	99
153.287	2.565	2564.8	generate	Run1	generate/STIM_006.jpg	99
159.866	2.01	2010.4	generate	Run1	generate/STIM_006.jpg	99
165.631	2.385	2384.9	generate	Run1	generate/STIM_006.jpg	100
171.877	1.755	1755.4	generate	Run1	generate/STIM_006.jpg	100
175.921	1.206	1205.6	generate	Run1	generate/STIM_007.jpg	100
179.739	2.323	2323.2	generate	Run1	generate/STIM_007.jpg	100
184.374	2.379	2378.8	generate	Run1	generate/STIM_007.jpg	100
190.291	1.415	1415.3	generate	Run1	generate/STIM_007.jpg	100
195.031	1.958	1957.8	generate	Run1	generate/STIM_007.jpg	99
199.094	1.888	1888.4	generate	Run1	generate/STIM_008.jpg	99
204.24	1.156	1156.3	generate	Run1	generate/STIM_008.jpg	99
209.078	2.511	2510.9	generate	Run1	generate/STIM_008.jpg	100
215.316	1.255	1255.2	generate	Run1	generate/STIM_008.jpg	99
220.05	1.218	1218.2	generate	Run1	generate/STIM_008.jpg	99
223.909	1.409	1408.7	generate	Run1	generate/STIM_009.jpg	99
228.233	1.216	1216.5	generate	Run1	generate/STIM_009.jpg	100
233.488	1.176	1175.7	generate	Run1	generate/STIM_009.jpg	100
236.823	1.714	1713.5	generate	Run1	generate/STIM_009.jpg	100
242.262	1.47	1470.2	generate	Run1	generate/STIM_009.jpg	100
247.729	2.543	2542.9	generate	Run1	generate/STIM_010.jpg	100
253.947	2.252	2252.5	generate	Run1	generate/STIM_010.jpg	100
258.889	2.48	2479.7	generate	Run1	generate/STIM_010.jpg	100
263.881	1.763	1763.0	generate	Run1	generate/STIM_010.jpg	99
268.028	1.769	1769.2	generate	Run1	generate/STIM_010.jpg	100
272.818	1.818	1817.9	generate	Run1	generate/STIM_011.jpg	99
277.576	1.929	1929.0	generate	Run1	generate/STIM_011.jpg	99
281.943	2.119	2119.2	generate	Run1	generate/STIM_011.jpg	100
287.691	2.145	2145.3	generate	Run1	generate/STIM_011.jpg	99
293.123	1.273	1273.2	generate	Run1	generate/STIM_011.jpg	100
296.791	2.17	2170.2	generate	Run1	generate/STIM_012.jpg	100
302.003	1.478	1477.5	generate	Run1	generate/STIM_012.jpg	100
306.598	1.553	1552.9	generate	Run1	generate/STIM_012.jpg	99
310.401	1.412	1412.3	generate	Run1	generate/STIM_012.jpg	100
315.239	0.964	964.2	generate	Run1	generate/STIM_012.jpg	100
319.309	1.653	1653.0	generate	Run1	generate/STIM_013.jpg	100
324.857	1.548	1548.1	generate	Run1	generate/STIM_013.jpg	99
329.762	1.099	1099.3	generate	Run1	generate/STIM_013.jpg	99
333.68	2.364	2364.2	generate	Run1	generate/STIM_013.jpg	100
339.671	1.11	1109.5	generate	Run1	generate/STIM_013.jpg	99
344.69	2.377	2377.2	generate	Run1	generate/STIM_014.jpg	99
350.487	2.08	2079.5	generate	Run1	generate/STIM_014.jpg	100
354.889	1.077	1076.9	generate	Run1	generate/STIM_014.jpg	100
359.661	1.791	1791.2	generate	Run1	generate/STIM_014.jpg	100
363.843	1.596	1595.7	generate	Run1	generate/STIM_014.jpg	99
368.178	2.498	2497.5	generate	Run1	generate/STIM_015.jpg	99
373.287	2.018	2018.1	generate	Run1	generate/STIM_015.jpg	100
378.822	1.206	1206.3	generate	Run1	generate/STIM_015.jpg	100
383.523	1.765	1764.7	generate	Run1	generate/STIM_015.jpg	100
387.551	0.92	920.5	generate	Run1	generate/STIM_015.jpg	99
392.215	2.272	2272.4	generate	Run1	generate/STIM_016.jpg	99
398.371	2.635	2635.1	generate	Run1	generate/STIM_016.jpg	99
403.307	1.154	1154.1	generate	Run1	generate/STIM_016.jpg	99
407.977	1.142	1142.4	generate	Run1	generate/STIM_016.jpg	99
412.681	2.173	2173.2	generate	Run1	generate/STIM_016.jpg	100
418.604	1.956	1955.9	generate	Run1	generate/STIM_017.jpg	100
424.055	2.627	2627.4	generate	Run1	generate/STIM_017.jpg	99
429.738	2.305	2304.8	generate	Run1	generate/STIM_017.jpg	99
435.947	1.926	1926.2	generate	Run1	generate/STIM_017.jpg	99
441.203	1.315	1314.6	generate	Run1	generate/STIM_017.jpg	100
444.698	2.077	2077.0	generate	Run1	generate/STIM_018.jpg	99
449.742	1.677	1677.1	generate	Run1	generate/STIM_018.jpg	99
454.7	1.978	1977.9	generate	Run1	generate/STIM_018.jpg	100
460.414	1.359	1359.1	generate	Run1	generate/STIM_018.jpg	99
465.645	1.535	1535.1	generate	Run1	generate/STIM_018.jpg	99
470.421	1.374	1374.3	generate	Run1	generate/STIM_019.jpg	99
475.557	2.572	2571.8	generate	Run1	generate/STIM_019.jpg	100
481.209	2.516	2515.8	generate	Run1	generate/STIM_019.jpg	99
486.52	1.246	1245.8	generate	Run1	generate/STIM_019.jpg	99
491.519	1.194	1193.9	generate	Run1	generate/STIM_019.jpg	99
495.511	1.466	1466.3	generate	Run1	generate/STIM_020.jpg	100
500.349	2.684	2683.5	generate	Run1	generate/STIM_020.jpg	100
506.764	1.311	1310.8	generate	Run1	generate/STIM_020.jpg	99
511.015	1.872	1871.7	generate	Run1	generate/STIM_020.jpg	99
516.343	2.2	2200.5	generate	Run1	generate/STIM_020.jpg	100
521.748	2.022	2022.1	generate	Run1	generate/STIM_021.jpg	100
527.04	1.878	1878.5	generate	Run1	generate/STIM_021.jpg	99
532.805	2.048	2047.8	generate	Run1	generate/STIM_021.jpg	100
537.267	1.71	1710.4	generate	Run1	generate/STIM_021.jpg	99
541.265	1.051	1051.1	generate	Run1	generate/STIM_021.jpg	100
545.885	2.665	2664.6	generate	Run1	generate/STIM_022.jpg	100
551.833	1.903	1902.7	generate	Run1	generate/STIM_022.jpg	100
556.94	1.605	1604.6	generate	Run1	generate/STIM_022.jpg	100
561.072	2.256	2255.7	generate	Run1	generate/STIM_022.jpg	99
566.882	1.722	1722.1	generate	Run1	generate/STIM_022.jpg	100
572.456	2.782	2781.9	generate	Run1	generate/STIM_023.jpg	99
577.926	2.204	2204.3	generate	Run1	generate/STIM_023.jpg	99
582.751	2.382	2382.2	generate	Run1	generate/STIM_023.jpg	99
587.897	1.246	1245.7	generate	Run1	generate/STIM_023.jpg	100
592.856	1.463	1462.9	generate	Run1	generate/STIM_023.jpg	99
596.99	2.614	2614.3	generate	Run1	generate/STIM_024.jpg	99
601.986	1.591	1591.3	generate	Run1	generate/STIM_024.jpg	99
606.125	1.764	1764.2	generate	Run1	generate/STIM_024.jpg	100
611.942	1.01	1009.9	generate	Run1	generate/STIM_024.jpg	100
615.584	1.085	1085.3	generate	Run1	generate/STIM_024.jpg	99
618.791	0.84	839.6	repeat	Run1	repeat/STIM_000.jpg	99
623.113	0.652	652.2	repeat	Run1	repeat/STIM_000.jpg	99
626.782	0.663	662.8	repeat	Run1	repeat/STIM_000.jpg	99
631.164	0.559	559.1	repeat	Run1	repeat/STIM_000.jpg	99
634.331	0.529	528.7	repeat	Run1	repeat/STIM_000.jpg	100
637.617	0.851	851.2	repeat	Run1	repeat/STIM_001.jpg	99
642.39	0.661	660.6	repeat	Run1	repeat/STIM_001.jpg	100
646.945	0.642	642.3	repeat	Run1	repeat/STIM_001.jpg	99
650.329	0.868	868.0	repeat	Run1	repeat/STIM_001.jpg	99
653.944	0.6	600.3	repeat	Run1	repeat/STIM_001.jpg	99
656.837	0.867	867.3	repeat	Run1	repeat/STIM_002.jpg	100
661.539	0.788	787.8	repeat	Run1	repeat/STIM_002.jpg	99
666.364	0.906	905.8	repeat	Run1	repeat/STIM_002.jpg	99
670.125	0.491	490.6	repeat	Run1	repeat/STIM_002.jpg	99
672.987	0.508	507.6	repeat	Run1	repeat/STIM_002.jpg	99
677.402	0.6	599.7	repeat	Run1	repeat/STIM_003.jpg	99
680.788	0.551	550.8	repeat	Run1	repeat/STIM_003.jpg	99
683.956	0.756	755.7	repeat	Run1	repeat/STIM_003.jpg	100
687.751	0.681	680.9	repeat	Run1	repeat/STIM_003.jpg	100
690.86	0.739	739.3	repeat	Run1	repeat/STIM_003.jpg	100
695.237	0.664	664.3	repeat	Run1	repeat/STIM_004.jpg	100
699.148	0.8	800.2	repeat	Run1	repeat/STIM_004.jpg	100
703.349	0.598	598.3	repeat	Run1	repeat/STIM_004.jpg	100
707.323	0.551	550.9	repeat	Run1	repeat/STIM_004.jpg	99
710.119	0.704	704.3	repeat	Run1	repeat/STIM_004.jpg	99
713.237	0.648	647.9	repeat	Run1	repeat/STIM_005.jpg	99
717.049	0.706	705.7	repeat	Run1	repeat/STIM_005.jpg	99
721.412	0.86	860.5	repeat	Run1	repeat/STIM_005.jpg	100
725.14	0.818	817.9	repeat	Run1	repeat/STIM_005.jpg	99
729.265	0.724	724.4	repeat	Run1	repeat/STIM_005.jpg	100
732.495	0.609	609.3	repeat	Run1	repeat/STIM_006.jpg	100
736.871	0.882	882.5	repeat	Run1	repeat/STIM_006.jpg	100
741.055	0.911	911.1	repeat	Run1	repeat/STIM_006.jpg	100
745.432	0.862	862.3	repeat	Run1	repeat/STIM_006.jpg	100
749.297	0.541	540.8	repeat	Run1	repeat/STIM_006.jpg	100
752.734	0.803	802.7	repeat	Run1	repeat/STIM_007.jpg	100
756.168	0.854	854.2	repeat	Run1	repeat/STIM_007.jpg	100
759.386	0.82	819.8	repeat	Run1	repeat/STIM_007.jpg	99
763.048	0.867	866.8	repeat	Run1	repeat/STIM_007.jpg	100
767.722	0.543	542.7	repeat	Run1	repeat/STIM_007.jpg	100
771.967	0.765	765.0	repeat	Run1	repeat/STIM_008.jpg	99
775.429	0.576	576.4	repeat	Run1	repeat/STIM_008.jpg	100
778.542	0.724	723.6	repeat	Run1	repeat/STIM_008.jpg	99
781.916	0.759	759.0	repeat	Run1	repeat/STIM_008.jpg	99
786.713	0.623	623.0	repeat	Run1	repeat/STIM_008.jpg	100
790.239	0.739	739.2	repeat	Run1	repeat/STIM_009.jpg	100
793.541	0.768	768.5	repeat	Run1	repeat/STIM_009.jpg	99
797.959	0.596	596.0	repeat	Run1	repeat/STIM_009.jpg	100
801.034	0.787	786.8	repeat	Run1	repeat/STIM_009.jpg	100
804.527	0.909	908.6	repeat	Run1	repeat/STIM_009.jpg	99
809.343	0.915	915.3	repeat	Run1	repeat/STIM_010.jpg	100
814.051	0.704	703.6	repeat	Run1	repeat/STIM_010.jpg	100
816.899	0.696	695.7	repeat	Run1	repeat/STIM_010.jpg	100
821.558	0.686	686.3	repeat	Run1	repeat/STIM_010.jpg	99
825.487	0.785	785.4	repeat	Run1	repeat/STIM_010.jpg	99
829.514	0.576	576.1	repeat	Run1	repeat/STIM_011.jpg	100
832.905	0.486	485.8	repeat	Run1	repeat/STIM_011.jpg	99
835.794	0.946	945.8	repeat	Run1	repeat/STIM_011.jpg	100
839.209	0.687	687.0	repeat	Run1	repeat/STIM_011.jpg	100
842.397	0.586	585.5	repeat	Run1	repeat/STIM_011.jpg	99
846.785	0.617	617.2	repeat	Run1	repeat/STIM_012.jpg	99
849.477	0.74	740.5	repeat	Run1	repeat/STIM_012.jpg	100
852.842	0.723	722.8	repeat	Run1	repeat/STIM_012.jpg	99
856.272	0.504	503.9	repeat	Run1	repeat/STIM_012.jpg	100
860.227	0.747	747.4	repeat	Run1	repeat/STIM_012.jpg	100
864.631	0.755	754.7	repeat	Run1	repeat/STIM_013.jpg	100
869.145	0.708	708.3	repeat	Run1	repeat/STIM_013.jpg	100
872.376	0.805	805.0	repeat	Run1	repeat/STIM_013.jpg	99
875.275	0.823	823.2	repeat	Run1	repeat/STIM_013.jpg	99
879.538	0.846	846.4	repeat	Run1	repeat/STIM_013.jpg	100
883.224	0.496	496.2	repeat	Run1	repeat/STIM_014.jpg	99
886.922	0.546	545.6	repeat	Run1	repeat/STIM_014.jpg	99
891.111	0.49	490.2	repeat	Run1	repeat/STIM_014.jpg	100
895.557	0.841	841.4	repeat	Run1	repeat/STIM_014.jpg	99
900.102	0.846	846.3	repeat	Run1	repeat/STIM_014.jpg	100
903.371	1.373	1372.7	generate	Run2	generate/STIM_000.jpg	100
908.39	1.618	1618.4	generate	Run2	generate/STIM_000.jpg	99
913.748	0.91	909.9	generate	Run2	generate/STIM_000.jpg	99
918.141	1.848	1847.8	generate	Run2	generate/STIM_000.jpg	100
923.046	0.903	902.6	generate	Run2	generate/STIM_000.jpg	100
926.633	1.508	1508.2	generate	Run2	generate/STIM_001.jpg	99
930.564	1.605	1605.0	generate	Run2	generate/STIM_001.jpg	99
935.014	1.073	1072.6	generate	Run2	generate/STIM_001.jpg	100
939.259	0.929	928.6	generate	Run2	generate/STIM_001.jpg	100
942.763	1.424	1424.2	generate	Run2	generate/STIM_001.jpg	99
946.481	2.245	2245.0	generate	Run2	generate/STIM_002.jpg	99
952.42	1.417	1417.0	generate	Run2	generate/STIM_002.jpg	100
957.395	1.402	1402.2	generate	Run2	generate/STIM_002.jpg	99
962.371	1.988	1987.8	generate	Run2	generate/STIM_002.jpg	100
967.445	1.21	1209.6	generate	Run2	generate/STIM_002.jpg	100
971.724	1.802	1802.2	generate	Run2	generate/STIM_003.jpg	100
976.377	1.37	1369.6	generate	Run2	generate/STIM_003.jpg	100
981.734	1.447	1446.6	generate	Run2	generate/STIM_003.jpg	99
985.703	1.103	1102.9	generate	Run2	generate/STIM_003.jpg	99
989.7	0.913	913.2	generate	Run2	generate/STIM_003.jpg	99
994.58	2.201	2200.8	generate	Run2	generate/STIM_004.jpg	100
1000.43	1.264	1264.2	generate	Run2	generate/STIM_004.jpg	100
1004.201	1.154	1153.8	generate	Run2	generate/STIM_004.jpg	99
1008.132	1.434	1434.0	generate	Run2	generate/STIM_004.jpg	100
1013.553	1.077	1076.8	generate	Run2	generate/STIM_004.jpg	99
1017.252	1.286	1285.5	generate	Run2	generate/STIM_005.jpg	99
1022.53	1.405	1404.9	generate	Run2	generate/STIM_005.jpg	99
1026.181	1.312	1312.0	generate	Run2	generate/STIM_005.jpg	99
1031.384	1.42	1419.5	generate	Run2	generate/STIM_005.jpg	99
1036.313	1.247	1247.3	generate	Run2	generate/STIM_005.jpg	100
1039.985	1.733	1733.4	generate	Run2	generate/STIM_006.jpg	100
1045.282	1.341	1340.6	generate	Run2	generate/STIM_006.jpg	99
1050.431	2.118	2118.1	generate	Run2	generate/STIM_006.jpg	100
1055.31	1.096	1096.5	generate	Run2	generate/STIM_006.jpg	99
1058.671	1.804	1804.2	generate	Run2	generate/STIM_006.jpg	99
1062.802	0.989	988.6	generate	Run2	generate/STIM_007.jpg	99
1066.456	1.444	1443.7	generate	Run2	generate/STIM_007.jpg	100
1071.556	1.565	1565.1	generate	Run2	generate/STIM_007.jpg	100
1076.583	1.965	1964.9	generate	Run2	generate/STIM_007.jpg	99
1080.707	1.763	1762.8	generate	Run2	generate/STIM_007.jpg	100
1085.432	1.45	1449.5	generate	Run2	generate/STIM_008.jpg	99
1089.751	1.693	1693.0	generate	Run2	generate/STIM_008.jpg	100
1094.1	1.921	1920.7	generate	Run2	generate/STIM_008.jpg	99
1099.445	0.961	961.2	generate	Run2	generate/STIM_008.jpg	100
1104.154	1.75	1749.8	generate	Run2	generate/STIM_008.jpg	99
1109.599	1.099	1099.2	generate	Run2	generate/STIM_009.jpg	100
1114.426	1.531	1530.8	generate	Run2	generate/STIM_009.jpg	100
1118.867	1.954	1954.5	generate	Run2	generate/STIM_009.jpg	99
1124.401	1.315	1314.6	generate	Run2	generate/STIM_009.jpg	99
1128.39	1.146	1145.5	generate	Run2	generate/STIM_009.jpg	100
1131.84	1.029	1028.6	generate	Run2	generate/STIM_010.jpg	100
1136.343	1.438	1438.5	generate	Run2	generate/STIM_010.jpg	100
1141.817	1.217	1217.4	generate	Run2	generate/STIM_010.jpg	99
1145.159	0.867	867.0	generate	Run2	generate/STIM_010.jpg	99
1150.071	1.663	1663.1	generate	Run2	generate/STIM_010.jpg	100
1154.807	1.504	1503.8	generate	Run2	generate/STIM_011.jpg	99
1158.415	1.971	1970.7	generate	Run2	generate/STIM_011.jpg	100
1162.577	1.84	1839.7	generate	Run2	generate/STIM_011.jpg	100
1168.12	1.39	1389.9	generate	Run2	generate/STIM_011.jpg	99
1171.926	1.784	1783.5	generate	Run2	generate/STIM_011.jpg	100
1177.618	2.063	2063.2	generate	Run2	generate/STIM_012.jpg	99
1183.614	1.868	1868.4	generate	Run2	generate/STIM_012.jpg	99
1188.066	1.258	1257.6	generate	Run2	generate/STIM_012.jpg	99
1193.357	1.471	1471.2	generate	Run2	generate/STIM_012.jpg	100
1198.852	1.14	1140.0	generate	Run2	generate/STIM_012.jpg	99
1202.475	1.072	1072.2	generate	Run2	generate/STIM_013.jpg	99
1206.293	1.692	1691.7	generate	Run2	generate/STIM_013.jpg	100
1211.516	1.068	1067.5	generate	Run2	generate/STIM_013.jpg	100
1216.288	1.591	1590.8	generate	Run2	generate/STIM_013.jpg	99
1221.481	1.938	1937.6	generate	Run2	generate/STIM_013.jpg	100
1227.13	1.43	1429.8	generate	Run2	generate/STIM_014.jpg	100
1231.766	1.941	1940.6	generate	Run2	generate/STIM_014.jpg	99
1237.294	1.886	1885.7	generate	Run2	generate/STIM_014.jpg	100
1241.858	1.899	1899.0	generate	Run2	generate/STIM_014.jpg	99
1246.449	0.906	906.4	generate	Run2	generate/STIM_014.jpg	99
1250.511	2.208	2208.2	generate	Run2	generate/STIM_015.jpg	100
1255.809	1.838	1837.7	generate	Run2	generate/STIM_015.jpg	99
1260.53	1.921	1920.8	generate	Run2	generate/STIM_015.jpg	100
1264.851	0.981	980.9	generate	Run2	generate/STIM_015.jpg	100
1269.86	1.3	1300.1	generate	Run2	generate/STIM_015.jpg	100
1274.788	1.515	1515.2	generate	Run2	generate/STIM_016.jpg	100
1279.182	2.205	2204.6	generate	Run2	generate/STIM_016.jpg	99
1284.386	1.083	1082.6	generate	Run2	generate/STIM_016.jpg	100
1289.287	1.339	1339.0	generate	Run2	generate/STIM_016.jpg	99
1294.081	1.268	1268.5	generate	Run2	generate/STIM_016.jpg	100
1299.098	1.872	1871.6	generate	Run2	generate/STIM_017.jpg	99
1303.175	1.786	1785.7	generate	Run2	generate/STIM_017.jpg	100
1308.055	1.573	1573.2	generate	Run2	generate/STIM_017.jpg	100
1312.003	0.944	944.1	generate	Run2	generate/STIM_017.jpg	99
1315.642	1.651	1650.9	generate	Run2	generate/STIM_017.jpg	99
1320.209	1.592	1592.0	generate	Run2	generate/STIM_018.jpg	99
1325.172	1.56	1560.5	generate	Run2	generate/STIM_018.jpg	100
1330.745	1.075	1074.6	generate	Run2	generate/STIM_018.jpg	99
1335.718	1.447	1447.1	generate	Run2	generate/STIM_018.jpg	99
1340.28	1.684	1684.4	generate	Run2	generate/STIM_018.jpg	100
1345.967	2.323	2322.9	generate	Run2	generate/STIM_019.jpg	99
1352.251	1.271	1271.4	generate	Run2	generate/STIM_019.jpg	99
1355.793	1.731	1730.8	generate	Run2	generate/STIM_019.jpg	99
1361.362	1.038	1038.4	generate	Run2	generate/STIM_019.jpg	100
1364.8	0.898	898.3	generate	Run2	generate/STIM_019.jpg	100
1369.007	1.166	1165.7	generate	Run2	generate/STIM_020.jpg	100
1373.708	2.001	2000.6	generate	Run2	generate/STIM_020.jpg	99
1378.155	2.002	2001.8	generate	Run2	generate/STIM_020.jpg	100
1383.284	1.681	1680.6	generate	Run2	generate/STIM_020.jpg	99
1388.703	1.216	1216.2	generate	Run2	generate/STIM_020.jpg	99
1393.242	1.956	1956.5	generate	Run2	generate/STIM_021.jpg	99
1397.365	1.904	1904.0	generate	Run2	generate/STIM_021.jpg	99
1403.349	1.822	1822.2	generate	Run2	generate/STIM_021.jpg	100
1409.056	0.812	812.2	generate	Run2	generate/STIM_021.jpg	100
1413.322	0.929	929.1	generate	Run2	generate/STIM_021.jpg	99
1417.936	2.367	2366.6	generate	Run2	generate/STIM_022.jpg	99
1423.642	1.02	1019.9	generate	Run2	generate/STIM_022.jpg	99
1427.605	1.532	1532.4	generate	Run2	generate/STIM_022.jpg	100
1431.417	1.436	1436.1	generate	Run2	generate/STIM_022.jpg	100
1436.533	0.918	918.2	generate	Run2	generate/STIM_022.jpg	100
1440.628	2.092	2092.1	generate	Run2	generate/STIM_023.jpg	100
1446.713	2.038	2037.6	generate	Run2	generate/STIM_023.jpg	99
1451.241	1.755	1754.7	generate	Run2	generate/STIM_023.jpg	100
1456.101	1.064	1064.2	generate	Run2	generate/STIM_023.jpg	100
1460.838	1.303	1303.1	generate	Run2	generate/STIM_023.jpg	99
1464.831	1.379	1379.4	generate	Run2	generate/STIM_024.jpg	100
1468.401	1.67	1670.2	generate	Run2	generate/STIM_024.jpg	99
1473.983	1.57	1570.5	generate	Run2	generate/STIM_024.jpg	100
1477.935	1.733	1732.9	generate	Run2	generate/STIM_024.jpg	99
1482.713	1.324	1323.9	generate	Run2	generate/STIM_024.jpg	99
1486.918	0.858	858.2	repeat	Run2	repeat/STIM_000.jpg	100
1490.082	0.942	941.8	repeat	Run2	repeat/STIM_000.jpg	100
1494.645	0.855	854.7	repeat	Run2	repeat/STIM_000.jpg	100
1498.614	0.677	676.7	repeat	Run2	repeat/STIM_000.jpg	99
1502.092	0.629	629.0	repeat	Run2	repeat/STIM_000.jpg	99
1506.522	0.843	842.9	repeat	Run2	repeat/STIM_001.jpg	100
1509.523	0.764	764.0	repeat	Run2	repeat/STIM_001.jpg	99
1512.85	0.579	578.7	repeat	Run2	repeat/STIM_001.jpg	99
1515.986	0.89	889.7	repeat	Run2	repeat/STIM_001.jpg	100
1519.051	0.551	550.7	repeat	Run2	repeat/STIM_001.jpg	99
1522.532	0.58	579.5	repeat	Run2	repeat/STIM_002.jpg	100
1526.134	0.739	738.9	repeat	Run2	repeat/STIM_002.jpg	99
1529.592	0.876	876.5	repeat	Run2	repeat/STIM_002.jpg	100
1533.015	0.744	744.1	repeat	Run2	repeat/STIM_002.jpg	100
1536.382	0.512	511.6	repeat	Run2	repeat/STIM_002.jpg	100
1539.713	0.892	891.9	repeat	Run2	repeat/STIM_003.jpg	100
1544.002	0.841	841.2	repeat	Run2	repeat/STIM_003.jpg	100
1547.727	0.58	579.5	repeat	Run2	repeat/STIM_003.jpg	99
1551.607	0.494	493.6	repeat	Run2	repeat/STIM_003.jpg	100
1554.54	0.896	895.7	repeat	Run2	repeat/STIM_003.jpg	99
1558.941	0.649	649.4	repeat	Run2	repeat/STIM_004.jpg	99
1562.676	0.905	904.6	repeat	Run2	repeat/STIM_004.jpg	99
1566.809	0.822	822.2	repeat	Run2	repeat/STIM_004.jpg	99
1571.356	0.933	932.7	repeat	Run2	repeat/STIM_004.jpg	100
1574.456	0.504	503.8	repeat	Run2	repeat/STIM_004.jpg	99
1577.695	0.691	691.3	repeat	Run2	repeat/STIM_005.jpg	99
1581.043	0.767	766.9	repeat	Run2	repeat/STIM_005.jpg	100
1585.04	0.654	653.5	repeat	Run2	repeat/STIM_005.jpg	100
1588.355	0.594	594.1	repeat	Run2	repeat/STIM_005.jpg	100
1592.963	0.806	806.1	repeat	Run2	repeat/STIM_005.jpg	100
1596.676	0.491	490.8	repeat	Run2	repeat/STIM_006.jpg	99
1599.713	0.803	802.8	repeat	Run2	repeat/STIM_006.jpg	99
1602.653	0.706	706.2	repeat	Run2	repeat/STIM_006.jpg	99
1606.771	0.729	729.4	repeat	Run2	repeat/STIM_006.jpg	100
1611.331	0.796	795.6	repeat	Run2	repeat/STIM_006.jpg	100
1615.103	0.872	871.8	repeat	Run2	repeat/STIM_007.jpg	100
1618.503	0.771	771.2	repeat	Run2	repeat/STIM_007.jpg	100
1623.249	0.543	542.8	repeat	Run2	repeat/STIM_007.jpg	100
1626.028	0.635	635.4	repeat	Run2	repeat/STIM_007.jpg	99
1628.733	0.687	686.6	repeat	Run2	repeat/STIM_007.jpg	100
1632.938	0.59	589.6	repeat	Run2	repeat/STIM_008.jpg	99
1636.088	0.738	737.6	repeat	Run2	repeat/STIM_008.jpg	100
1640.392	0.664	664.4	repeat	Run2	repeat/STIM_008.jpg	100
1644.206	0.866	865.9	repeat	Run2	repeat/STIM_008.jpg	99
1648.413	0.552	552.4	repeat	Run2	repeat/STIM_008.jpg	100
1651.669	0.913	912.9	repeat	Run2	repeat/STIM_009.jpg	99
1656.183	0.701	700.9	repeat	Run2	repeat/STIM_009.jpg	100
1660.02	0.636	636.1	repeat	Run2	repeat/STIM_009.jpg	100
1663.871	0.57	570.4	repeat	Run2	repeat/STIM_009.jpg	99
1667.096	0.606	605.6	repeat	Run2	repeat/STIM_009.jpg	100
1669.764	0.787	786.6	repeat	Run2	repeat/STIM_010.jpg	99
1674.125	0.51	510.0	repeat	Run2	repeat/STIM_010.jpg	99
1677.707	0.687	686.6	repeat	Run2	repeat/STIM_010.jpg	99
1681.687	0.793	793.1	repeat	Run2	repeat/STIM_010.jpg	100
1686.412	0.569	568.9	repeat	Run2	repeat/STIM_010.jpg	100
1690.477	0.894	894.5	repeat	Run2	repeat/STIM_011.jpg	99
1693.864	0.514	513.9	repeat	Run2	repeat/STIM_011.jpg	100
1697.836	0.575	574.7	repeat	Run2	repeat/STIM_011.jpg	100
1701.307	0.651	650.7	repeat	Run2	repeat/STIM_011.jpg	99
1705.184	0.798	797.5	repeat	Run2	repeat/STIM_011.jpg	100
1709.765	0.75	749.9	repeat	Run2	repeat/STIM_012.jpg	99
1713.909	0.841	841.0	repeat	Run2	repeat/STIM_012.jpg	100
1717.733	0.712	711.7	repeat	Run2	repeat/STIM_012.jpg	99
1721.763	0.602	602.1	repeat	Run2	repeat/STIM_012.jpg	100
1725.062	0.547	546.6	repeat	Run2	repeat/STIM_012.jpg	100
1729.393	0.537	537.4	repeat	Run2	repeat/STIM_013.jpg	100
1732.068	0.557	557.4	repeat	Run2	repeat/STIM_013.jpg	99
1735.1	0.689	689.3	repeat	Run2	repeat/STIM_013.jpg	99
1737.985	0.612	612.1	repeat	Run2	repeat/STIM_013.jpg	99
1741.788	0.495	494.8	repeat	Run2	repeat/STIM_013.jpg	99
1745.192	0.538	538.2	repeat	Run2	repeat/STIM_014.jpg	100
1749.352	0.509	508.8	repeat	Run2	repeat/STIM_014.jpg	99
1753.508	0.879	878.7	repeat	Run2	repeat/STIM_014.jpg	99
1757.763	0.66	659.5	repeat	Run2	repeat/STIM_014.jpg	100
1761.169	0.85	849.7	repeat	Run2	repeat/STIM_014.jpg	100
1765.298	1.874	1874.2	generate	Run3	generate/STIM_000.jpg	100
1769.755	1.776	1776.3	generate	Run3	generate/STIM_000.jpg	99
1775.059	1.532	1531.8	generate	Run3	generate/STIM_000.jpg	100
1779.299	1.754	1753.6	generate	Run3	generate/STIM_000.jpg	100
1783.47	1.203	1203.0	generate	Run3	generate/STIM_000.jpg	100
1788.357	0.885	884.8	generate	Run3	generate/STIM_001.jpg	100
1791.891	0.882	882.3	generate	Run3	generate/STIM_001.jpg	99
1795.374	1.78	1780.2	generate	Run3	generate/STIM_001.jpg	99
1799.511	1.606	1605.9	generate	Run3	generate/STIM_001.jpg	99
1803.522	1.153	1152.8	generate	Run3	generate/STIM_001.jpg	99
1808.321	1.573	1572.8	generate	Run3	generate/STIM_002.jpg	99
1812.53	0.829	828.6	generate	Run3	generate/STIM_002.jpg	99
1817.019	0.87	870.5	generate	Run3	generate/STIM_002.jpg	100
1820.078	1.699	1699.4	generate	Run3	generate/STIM_002.jpg	99
1825.646	1.881	1881.1	generate	Run3	generate/STIM_002.jpg	100
1831.016	1.63	1630.5	generate	Run3	generate/STIM_003.jpg	99
1835.785	1.492	1491.8	generate	Run3	generate/STIM_003.jpg	100
1839.793	1.924	1924.4	generate	Run3	generate/STIM_003.jpg	100
1844.44	1.251	1251.3	generate	Run3	generate/STIM_003.jpg	99
1848.418	1.755	1754.7	generate	Run3	generate/STIM_003.jpg	99
1853.308	1.202	1202.0	generate	Run3	generate/STIM_004.jpg	99
1858.209	1.334	1333.9	generate	Run3	generate/STIM_004.jpg	99
1861.666	0.971	970.7	generate	Run3	generate/STIM_004.jpg	99
1865.953	0.951	950.9	generate	Run3	generate/STIM_004.jpg	100
1869.432	1.36	1359.7	generate	Run3	generate/STIM_004.jpg	99
1873.785	1.039	1039.3	generate	Run3	generate/STIM_005.jpg	100
1877.061	1.291	1290.9	generate	Run3	generate/STIM_005.jpg	99
1881.088	1.201	1201.3	generate	Run3	generate/STIM_005.jpg	99
1885.989	1.089	1089.1	generate	Run3	generate/STIM_005.jpg	99
1890.118	1.645	1644.7	generate	Run3	generate/STIM_005.jpg	99
1894.186	1.978	1978.0	generate	Run3	generate/STIM_006.jpg	100
1900.252	0.864	863.5	generate	Run3	generate/STIM_006.jpg	100
1904.074	1.529	1529.0	generate	Run3	generate/STIM_006.jpg	100
1908.969	0.97	969.5	generate	Run3	generate/STIM_006.jpg	99
1913.207	1.247	1247.3	generate	Run3	generate/STIM_006.jpg	100
1917.906	0.819	819.0	generate	Run3	generate/STIM_007.jpg	99
1921.47	1.187	1186.6	generate	Run3	generate/STIM_007.jpg	99
1925.083	1.01	1009.5	generate	Run3	generate/STIM_007.jpg	100
1929.208	1.068	1067.6	generate	Run3	generate/STIM_007.jpg	100
1932.819	0.935	935.3	generate	Run3	generate/STIM_007.jpg	99
1937.008	0.855	855.1	generate	Run3	generate/STIM_008.jpg	99
1941.583	0.995	995.3	generate	Run3	generate/STIM_008.jpg	100
1945.078	1.337	1337.2	generate	Run3	generate/STIM_008.jpg	100
1950.137	1.83	1829.8	generate	Run3	generate/STIM_008.jpg	99
1955.256	0.812	812.2	generate	Run3	generate/STIM_008.jpg	100
1959.361	1.856	1856.4	generate	Run3	generate/STIM_009.jpg	100
1964.278	1.57	1569.9	generate	Run3	generate/STIM_009.jpg	99
1968.441	1.024	1024.5	generate	Run3	generate/STIM_009.jpg	100
1973.258	0.859	858.8	generate	Run3	generate/STIM_009.jpg	100
1976.739	1.792	1791.8	generate	Run3	generate/STIM_009.jpg	99
1982.415	1.111	1111.2	generate	Run3	generate/STIM_010.jpg	99
1986.561	1.654	1654.4	generate	Run3	generate/STIM_010.jpg	100
1990.347	1.758	1758.3	generate	Run3	generate/STIM_010.jpg	100
1994.398	0.924	924.0	generate	Run3	generate/STIM_010.jpg	100
1998.475	0.924	923.5	generate	Run3	generate/STIM_010.jpg	100
2002.503	1.117	1116.8	generate	Run3	generate/STIM_011.jpg	99
2007.395	1.198	1197.9	generate	Run3	generate/STIM_011.jpg	100
2011.169	1.028	1027.8	generate	Run3	generate/STIM_011.jpg	99
2015.092	0.912	912.5	generate	Run3	generate/STIM_011.jpg	99
2019.455	1.49	1489.7	generate	Run3	generate/STIM_011.jpg	100
2024.171	0.969	968.6	generate	Run3	generate/STIM_012.jpg	100
2028.809	1.964	1963.7	generate	Run3	generate/STIM_012.jpg	100
2034.3	0.865	864.8	generate	Run3	generate/STIM_012.jpg	99
2038.334	1.133	1133.1	generate	Run3	generate/STIM_012.jpg	99
2042.25	1.745	1744.6	generate	Run3	generate/STIM_012.jpg	99
2046.499	1.048	1048.3	generate	Run3	generate/STIM_013.jpg	99
2050.242	1.37	1369.8	generate	Run3	generate/STIM_013.jpg	100
2053.929	1.382	1381.5	generate	Run3	generate/STIM_013.jpg	100
2058.504	1.01	1010.4	generate	Run3	generate/STIM_013.jpg	100
2062.283	1.665	1664.7	generate	Run3	generate/STIM_013.jpg	99
2066.958	1.866	1866.0	generate	Run3	generate/STIM_014.jpg	99
2071.448	1.014	1014.4	generate	Run3	generate/STIM_014.jpg	99
2075.142	1.748	1748.3	generate	Run3	generate/STIM_014.jpg	99
2080.207	1.078	1078.2	generate	Run3	generate/STIM_014.jpg	100
2083.537	1.984	1984.1	generate	Run3	generate/STIM_014.jpg	99
2088.483	1.875	1874.8	generate	Run3	generate/STIM_015.jpg	99
2093.645	1.344	1344.1	generate	Run3	generate/STIM_015.jpg	99
2097.53	1.319	1318.8	generate	Run3	generate/STIM_015.jpg	100
2102.867	1.542	1542.3	generate	Run3	generate/STIM_015.jpg	100
2108.011	1.962	1961.6	generate	Run3	generate/STIM_015.jpg	99
2112.366	1.93	1929.5	generate	Run3	generate/STIM_016.jpg	99
2117.282	1.747	1747.1	generate	Run3	generate/STIM_016.jpg	99
2122.509	1.795	1795.3	generate	Run3	generate/STIM_016.jpg	99
2127.816	1.398	1398.1	generate	Run3	generate/STIM_016.jpg	99
2131.467	1.505	1505.2	generate	Run3	generate/STIM_016.jpg	100
2137.046	1.346	1346.2	generate	Run3	generate/STIM_017.jpg	99
2140.955	1.854	1853.5	generate	Run3	generate/STIM_017.jpg	99
2145.348	1.662	1662.0	generate	Run3	generate/STIM_017.jpg	100
2150.196	1.127	1126.8	generate	Run3	generate/STIM_017.jpg	99
2153.434	0.834	833.9	generate	Run3	generate/STIM_017.jpg	100
2157.782	1.251	1251.3	generate	Run3	generate/STIM_018.jpg	100
2162.585	1.772	1772.1	generate	Run3	generate/STIM_018.jpg	99
2167.515	1.685	1685.4	generate	Run3	generate/STIM_018.jpg	99
2172.174	0.97	969.5	generate	Run3	generate/STIM_018.jpg	100
2176.106	1.017	1016.6	generate	Run3	generate/STIM_018.jpg	100
2179.324	1.127	1126.6	generate	Run3	generate/STIM_019.jpg	99
2182.634	0.979	979.0	generate	Run3	generate/STIM_019.jpg	100
2187.522	1.618	1618.3	generate	Run3	generate/STIM_019.jpg	100
2192.0	1.994	1993.9	generate	Run3	generate/STIM_019.jpg	99
2197.558	1.294	1294.5	generate	Run3	generate/STIM_019.jpg	99
2201.28	1.292	1291.8	generate	Run3	generate/STIM_020.jpg	100
2206.431	1.535	1534.9	generate	Run3	generate/STIM_020.jpg	100
2211.321	1.908	1908.0	generate	Run3	generate/STIM_020.jpg	100
2215.437	1.312	1312.5	generate	Run3	generate/STIM_020.jpg	100
2219.867	0.827	826.6	generate	Run3	generate/STIM_020.jpg	100
2224.52	1.033	1033.3	generate	Run3	generate/STIM_021.jpg	99
2228.669	1.6	1599.7	generate	Run3	generate/STIM_021.jpg	99
2232.657	1.626	1626.4	generate	Run3	generate/STIM_021.jpg	100
2236.835	0.882	882.1	generate	Run3	generate/STIM_021.jpg	99
2240.884	1.841	1841.0	generate	Run3	generate/STIM_021.jpg	100
2246.168	1.724	1723.7	generate	Run3	generate/STIM_022.jpg	100
2251.118	1.846	1846.3	generate	Run3	generate/STIM_022.jpg	100
2255.2	1.324	1324.3	generate	Run3	generate/STIM_022.jpg	100
2258.834	1.98	1980.5	generate	Run3	generate/STIM_022.jpg	99
2264.002	1.305	1305.3	generate	Run3	generate/STIM_022.jpg	99
2269.27	0.811	811.0	generate	Run3	generate/STIM_023.jpg	99
2273.414	0.848	847.8	generate	Run3	generate/STIM_023.jpg	100
2276.322	1.867	1867.1	generate	Run3	generate/STIM_023.jpg	99
2280.313	1.105	1104.7	generate	Run3	generate/STIM_023.jpg	100
2284.255	1.534	1533.5	generate	Run3	generate/STIM_023.jpg	99
2288.401	1.046	1046.0	generate	Run3	generate/STIM_024.jpg	99
2293.412	1.816	1815.9	generate	Run3	generate/STIM_024.jpg	100
2298.393	1.861	1861.2	generate	Run3	generate/STIM_024.jpg	99
2303.715	1.798	1798.0	generate	Run3	generate/STIM_024.jpg	99
2309.081	1.539	1539.2	generate	Run3	generate/STIM_024.jpg	99
2313.609	0.593	593.3	repeat	Run3	repeat/STIM_000.jpg	99
2318.074	0.495	495.1	repeat	Run3	repeat/STIM_000.jpg	99
2320.678	0.926	926.4	repeat	Run3	repeat/STIM_000.jpg	99
2323.681	0.918	918.0	repeat	Run3	repeat/STIM_000.jpg	100
2327.02	0.944	944.2	repeat	Run3	repeat/STIM_000.jpg	100
2330.2	0.807	806.9	repeat	Run3	repeat/STIM_001.jpg	99
2334.225	0.752	751.8	repeat	Run3	repeat/STIM_001.jpg	100
2337.823	0.71	710.2	repeat	Run3	repeat/STIM_001.jpg	100
2340.783	0.513	512.6	repeat	Run3	repeat/STIM_001.jpg	100
2344.063	0.93	930.1	repeat	Run3	repeat/STIM_001.jpg	99
2348.16	0.539	539.2	repeat	Run3	repeat/STIM_002.jpg	99
2352.369	0.856	856.5	repeat	Run3	repeat/STIM_002.jpg	100
2357.0	0.533	532.6	repeat	Run3	repeat/STIM_002.jpg	99
2359.76	0.596	596.0	repeat	Run3	repeat/STIM_002.jpg	100
2362.797	0.942	941.6	repeat	Run3	repeat/STIM_002.jpg	100
2366.629	0.674	674.4	repeat	Run3	repeat/STIM_003.jpg	100
2369.588	0.844	844.4	repeat	Run3	repeat/STIM_003.jpg	100
2373.139	0.848	847.7	repeat	Run3	repeat/STIM_003.jpg	100
2377.854	0.763	763.1	repeat	Run3	repeat/STIM_003.jpg	99
2381.545	0.792	792.5	repeat	Run3	repeat/STIM_003.jpg	100
2385.15	0.948	947.7	repeat	Run3	repeat/STIM_004.jpg	100
2389.227	0.558	558.2	repeat	Run3	repeat/STIM_004.jpg	99
2392.263	0.822	822.3	repeat	Run3	repeat/STIM_004.jpg	99
2396.008	0.574	574.4	repeat	Run3	repeat/STIM_004.jpg	100
2399.391	0.632	632.4	repeat	Run3	repeat/STIM_004.jpg	100
2403.68	0.802	802.4	repeat	Run3	repeat/STIM_005.jpg	99
2407.791	0.734	733.6	repeat	Run3	repeat/STIM_005.jpg	99
2411.005	0.776	775.6	repeat	Run3	repeat/STIM_005.jpg	99
2414.18	0.642	642.3	repeat	Run3	repeat/STIM_005.jpg	100
2418.276	0.941	940.7	repeat	Run3	repeat/STIM_005.jpg	99
2423.106	0.535	535.4	repeat	Run3	repeat/STIM_006.jpg	99
2425.836	0.483	482.9	repeat	Run3	repeat/STIM_006.jpg	100
2428.616	0.795	794.8	repeat	Run3	repeat/STIM_006.jpg	99
2432.3	0.582	581.6	repeat	Run3	repeat/STIM_006.jpg	99
2435.877	0.808	808.5	repeat	Run3	repeat/STIM_006.jpg	99
2439.226	0.77	769.8	repeat	Run3	repeat/STIM_007.jpg	100
2443.488	0.612	611.6	repeat	Run3	repeat/STIM_007.jpg	100
2446.298	0.627	627.4	repeat	Run3	repeat/STIM_007.jpg	99
2449.597	0.586	586.2	repeat	Run3	repeat/STIM_007.jpg	100
2453.86	0.644	643.7	repeat	Run3	repeat/STIM_007.jpg	100
2458.34	0.66	660.5	repeat	Run3	repeat/STIM_008.jpg	100
2461.318	0.675	674.6	repeat	Run3	repeat/STIM_008.jpg	99
2464.81	0.863	862.8	repeat	Run3	repeat/STIM_008.jpg	100
2468.873	0.847	847.1	repeat	Run3	repeat/STIM_008.jpg	100
2472.333	0.855	854.6	repeat	Run3	repeat/STIM_008.jpg	100
2475.736	0.593	593.3	repeat	Run3	repeat/STIM_009.jpg	99
2478.615	0.775	774.7	repeat	Run3	repeat/STIM_009.jpg	99
2482.651	0.809	809.3	repeat	Run3	repeat/STIM_009.jpg	99
2486.179	0.789	789.0	repeat	Run3	repeat/STIM_009.jpg	99
2489.635	0.856	856.5	repeat	Run3	repeat/STIM_009.jpg	100
2494.219	0.881	881.0	repeat	Run3	repeat/STIM_010.jpg	100
2498.245	0.867	867.0	repeat	Run3	repeat/STIM_010.jpg	99
2501.19	0.719	719.0	repeat	Run3	repeat/STIM_010.jpg	99
2505.802	0.78	780.1	repeat	Run3	repeat/STIM_010.jpg	100
2510.27	0.823	823.3	repeat	Run3	repeat/STIM_010.jpg	99
2514.85	0.84	839.9	repeat	Run3	repeat/STIM_011.jpg	99
2518.777	0.583	582.7	repeat	Run3	repeat/STIM_011.jpg	99
2523.05	0.872	871.9	repeat	Run3	repeat/STIM_011.jpg	99
2526.717	0.821	821.1	repeat	Run3	repeat/STIM_011.jpg	99
2531.364	0.656	656.2	repeat	Run3	repeat/STIM_011.jpg	100
2535.239	0.5	499.8	repeat	Run3	repeat/STIM_012.jpg	100
2539.758	0.845	845.1	repeat	Run3	repeat/STIM_012.jpg	99
2543.211	0.704	703.9	repeat	Run3	repeat/STIM_012.jpg	99
2547.724	0.682	682.0	repeat	Run3	repeat/STIM_012.jpg	100
2550.508	0.765	764.8	repeat	Run3	repeat/STIM_012.jpg	100
2554.288	0.698	698.0	repeat	Run3	repeat/STIM_013.jpg	99
2557.396	0.945	944.8	repeat	Run3	repeat/STIM_013.jpg	100
2561.333	0.52	519.9	repeat	Run3	repeat/STIM_013.jpg	100
2565.86	0.819	818.8	repeat	Run3	repeat/STIM_013.jpg	99
2568.9	0.714	714.4	repeat	Run3	repeat/STIM_013.jpg	100
2572.727	0.905	905.0	repeat	Run3	repeat/STIM_014.jpg	99
2575.763	0.713	713.3	repeat	Run3	repeat/STIM_014.jpg	100
2579.305	0.696	696.1	repeat	Run3	repeat/STIM_014.jpg	99
2582.933	0.475	475.3	repeat	Run3	repeat/STIM_014.jpg	99
2586.269	0.913	913.3	repeat	Run3	repeat/STIM_014.jpg	100
2590.833	1.208	1208.4	generate	Run4	generate/STIM_000.jpg	100
2594.985	1.136	1135.9	generate	Run4	generate/STIM_000.jpg	100
2598.89	1.456	1455.6	generate	Run4	generate/STIM_000.jpg	99
2602.675	1.929	1929.2	generate	Run4	generate/STIM_000.jpg	99
2607.348	1.488	1487.6	generate	Run4	generate/STIM_000.jpg	99
2612.815	0.984	984.1	generate	Run4	generate/STIM_001.jpg	100
2616.574	1.33	1330.0	generate	Run4	generate/STIM_001.jpg	100
2621.916	1.118	1117.5	generate	Run4	generate/STIM_001.jpg	99
2626.898	1.107	1107.1	generate	Run4	generate/STIM_001.jpg	99
2631.263	1.111	1111.0	generate	Run4	generate/STIM_001.jpg	99
2634.625	1.72	1720.4	generate	Run4	generate/STIM_002.jpg	99
2639.595	1.286	1286.1	generate	Run4	generate/STIM_002.jpg	99
2643.671	1.536	1535.6	generate	Run4	generate/STIM_002.jpg	99
2648.759	0.812	812.1	generate	Run4	generate/STIM_002.jpg	99
2652.872	0.965	965.0	generate	Run4	generate/STIM_002.jpg	99
2656.347	1.549	1548.6	generate	Run4	generate/STIM_003.jpg	100
2661.87	1.303	1302.6	generate	Run4	generate/STIM_003.jpg	100
2666.277	1.943	1942.8	generate	Run4	generate/STIM_003.jpg	100
2671.045	1.761	1761.4	generate	Run4	generate/STIM_003.jpg	99
2675.676	1.042	1042.0	generate	Run4	generate/STIM_003.jpg	100
2680.094	1.176	1175.8	generate	Run4	generate/STIM_004.jpg	100
2684.598	0.913	913.2	generate	Run4	generate/STIM_004.jpg	100
2689.112	1.106	1105.5	generate	Run4	generate/STIM_004.jpg	99
2694.093	0.898	897.7	generate	Run4	generate/STIM_004.jpg	100
2698.578	1.916	1916.3	generate	Run4	generate/STIM_004.jpg	99
2703.001	1.597	1597.4	generate	Run4	generate/STIM_005.jpg	100
2706.685	1.603	1603.0	generate	Run4	generate/STIM_005.jpg	100
2711.828	1.948	1947.5	generate	Run4	generate/STIM_005.jpg	99
2717.581	1.043	1042.7	generate	Run4	generate/STIM_005.jpg	99
2722.5	1.519	1519.3	generate	Run4	generate/STIM_005.jpg	100
2727.199	1.907	1907.0	generate	Run4	generate/STIM_006.jpg	100
2731.551	1.978	1978.0	generate	Run4	generate/STIM_006.jpg	99
2735.903	1.264	1263.6	generate	Run4	generate/STIM_006.jpg	100
2739.969	1.709	1709.0	generate	Run4	generate/STIM_006.jpg	100
2745.106	1.752	1752.2	generate	Run4	generate/STIM_006.jpg	100
2749.709	1.905	1905.1	generate	Run4	generate/STIM_007.jpg	100
2755.251	1.082	1082.4	generate	Run4	generate/STIM_007.jpg	99
2759.775	1.33	1329.5	generate	Run4	generate/STIM_007.jpg	99
2765.03	1.509	1509.0	generate	Run4	generate/STIM_007.jpg	100
2769.228	1.925	1924.7	generate	Run4	generate/STIM_007.jpg	99
2774.878	1.645	1645.0	generate	Run4	generate/STIM_008.jpg	99
2780.01	0.802	801.8	generate	Run4	generate/STIM_008.jpg	99
2784.376	1.55	1549.6	generate	Run4	generate/STIM_008.jpg	100
2788.985	1.624	1624.4	generate	Run4	generate/STIM_008.jpg	100
2794.546	1.794	1793.5	generate	Run4	generate/STIM_008.jpg	100
2799.71	1.051	1051.1	generate	Run4	generate/STIM_009.jpg	100
2804.596	1.216	1216.5	generate	Run4	generate/STIM_009.jpg	99
2809.523	1.546	1545.7	generate	Run4	generate/STIM_009.jpg	100
2814.097	1.372	1371.8	generate	Run4	generate/STIM_009.jpg	100
2819.438	1.024	1024.3	generate	Run4	generate/STIM_009.jpg	100
2823.337	1.403	1402.7	generate	Run4	generate/STIM_010.jpg	99
2828.676	1.142	1142.2	generate	Run4	generate/STIM_010.jpg	100
2831.984	1.86	1859.9	generate	Run4	generate/STIM_010.jpg	100
2836.087	1.076	1076.1	generate	Run4	generate/STIM_010.jpg	100
2841.066	1.748	1747.5	generate	Run4	generate/STIM_010.jpg	100
2845.134	1.837	1837.4	generate	Run4	generate/STIM_011.jpg	99
2849.629	1.567	1567.4	generate	Run4	generate/STIM_011.jpg	99
2855.215	1.942	1941.5	generate	Run4	generate/STIM_011.jpg	99
2860.78	0.963	962.7	generate	Run4	generate/STIM_011.jpg	99
2864.573	1.169	1168.8	generate	Run4	generate/STIM_011.jpg	100
2868.302	1.564	1563.7	generate	Run4	generate/STIM_012.jpg	100
2872.487	0.905	905.1	generate	Run4	generate/STIM_012.jpg	99
2877.416	1.592	1592.4	generate	Run4	generate/STIM_012.jpg	99
2881.328	1.01	1010.1	generate	Run4	generate/STIM_012.jpg	99
2884.846	1.799	1798.6	generate	Run4	generate/STIM_012.jpg	100
2889.12	1.135	1135.1	generate	Run4	generate/STIM_013.jpg	100
2893.155	1.418	1417.6	generate	Run4	generate/STIM_013.jpg	100
2897.081	1.235	1235.1	generate	Run4	generate/STIM_013.jpg	100
2900.972	0.8	800.0	generate	Run4	generate/STIM_013.jpg	99
2905.3	0.83	829.8	generate	Run4	generate/STIM_013.jpg	100
2909.158	0.87	869.7	generate	Run4	generate/STIM_014.jpg	100
2913.771	1.178	1178.3	generate	Run4	generate/STIM_014.jpg	100
2917.314	1.726	1726.4	generate	Run4	generate/STIM_014.jpg	99
2922.762	1.459	1459.3	generate	Run4	generate/STIM_014.jpg	100
2928.07	1.342	1342.5	generate	Run4	generate/STIM_014.jpg	100
2931.534	0.897	896.8	generate	Run4	generate/STIM_015.jpg	99
2936.139	1.043	1043.4	generate	Run4	generate/STIM_015.jpg	100
2939.257	1.393	1393.4	generate	Run4	generate/STIM_015.jpg	100
2942.84	1.563	1563.2	generate	Run4	generate/STIM_015.jpg	99
2946.816	1.342	1341.5	generate	Run4	generate/STIM_015.jpg	100
2950.347	0.938	938.2	generate	Run4	generate/STIM_016.jpg	100
2953.55	1.08	1079.8	generate	Run4	generate/STIM_016.jpg	99
2958.279	0.873	873.0	generate	Run4	generate/STIM_016.jpg	100
2961.638	1.968	1967.6	generate	Run4	generate/STIM_016.jpg	100
2967.087	1.971	1970.6	generate	Run4	generate/STIM_016.jpg	99
2971.355	1.68	1680.1	generate	Run4	generate/STIM_017.jpg	100
2975.85	0.871	871.3	generate	Run4	generate/STIM_017.jpg	100
2980.085	1.002	1002.0	generate	Run4	generate/STIM_017.jpg	99
2984.936	0.994	994.3	generate	Run4	generate/STIM_017.jpg	99
2988.523	1.768	1768.3	generate	Run4	generate/STIM_017.jpg	99
2993.037	1.504	1504.1	generate	Run4	generate/STIM_018.jpg	100
2996.717	1.079	1078.9	generate	Run4	generate/STIM_018.jpg	100
2999.934	1.464	1464.5	generate	Run4	generate/STIM_018.jpg	99
3003.597	1.578	1578.2	generate	Run4	generate/STIM_018.jpg	100
3008.521	1.452	1452.2	generate	Run4	generate/STIM_018.jpg	99
3013.874	1.228	1228.0	generate	Run4	generate/STIM_019.jpg	99
3017.572	1.075	1074.7	generate	Run4	generate/STIM_019.jpg	99
3022.119	1.41	1409.6	generate	Run4	generate/STIM_019.jpg	99
3027.47	1.154	1153.7	generate	Run4	generate/STIM_019.jpg	99
3031.174	1.196	1195.7	generate	Run4	generate/STIM_019.jpg	99
3035.549	1.27	1270.1	generate	Run4	generate/STIM_020.jpg	99
3039.934	1.924	1924.3	generate	Run4	generate/STIM_020.jpg	100
3045.866	1.937	1936.9	generate	Run4	generate/STIM_020.jpg	99
3050.744	1.922	1921.5	generate	Run4	generate/STIM_020.jpg	100
3054.799	1.916	1915.7	generate	Run4	generate/STIM_020.jpg	99
3059.887	1.881	1880.8	generate	Run4	generate/STIM_021.jpg	100
3064.024	1.559	1559.2	generate	Run4	generate/STIM_021.jpg	100
3068.627	1.496	1496.5	generate	Run4	generate/STIM_021.jpg	99
3073.697	1.624	1624.4	generate	Run4	generate/STIM_021.jpg	99
3079.289	0.946	945.7	generate	Run4	generate/STIM_021.jpg	100
3082.699	1.314	1314.4	generate	Run4	generate/STIM_022.jpg	100
3086.741	1.107	1107.0	generate	Run4	generate/STIM_022.jpg	100
3090.479	1.874	1873.5	generate	Run4	generate/STIM_022.jpg	100
3095.916	1.086	1086.5	generate	Run4	generate/STIM_022.jpg	100
3099.37	1.126	1125.6	generate	Run4	generate/STIM_022.jpg	99
3104.094	1.069	1069.1	generate	Run4	generate/STIM_023.jpg	99
3109.113	1.073	1073.0	generate	Run4	generate/STIM_023.jpg	100
3113.503	0.855	854.9	generate	Run4	generate/STIM_023.jpg	99
3116.741	1.71	1709.8	generate	Run4	generate/STIM_023.jpg	99
3122.007	0.829	828.9	generate	Run4	generate/STIM_023.jpg	100
3126.211	1.612	1612.5	generate	Run4	generate/STIM_024.jpg	100
3130.24	1.515	1514.9	generate	Run4	generate/STIM_024.jpg	99
3135.198	1.004	1004.3	generate	Run4	generate/STIM_024.jpg	100
3139.839	1.502	1501.9	generate	Run4	generate/STIM_024.jpg	100
3143.966	0.951	950.9	generate	Run4	generate/STIM_024.jpg	100
3147.538	0.708	707.5	repeat	Run4	repeat/STIM_000.jpg	99
3151.854	0.816	815.6	repeat	Run4	repeat/STIM_000.jpg	99
3155.832	0.548	547.9	repeat	Run4	repeat/STIM_000.jpg	100
3158.866	0.9	900.3	repeat	Run4	repeat/STIM_000.jpg	99
3162.319	0.826	826.4	repeat	Run4	repeat/STIM_000.jpg	99
3166.126	0.668	667.5	repeat	Run4	repeat/STIM_001.jpg	100
3170.184	0.609	608.6	repeat	Run4	repeat/STIM_001.jpg	100
3174.038	0.687	686.9	repeat	Run4	repeat/STIM_001.jpg	99
3178.722	0.594	594.1	repeat	Run4	repeat/STIM_001.jpg	99
3182.034	0.76	760.4	repeat	Run4	repeat/STIM_001.jpg	99
3185.588	0.899	899.1	repeat	Run4	repeat/STIM_002.jpg	100
3188.714	0.891	891.2	repeat	Run4	repeat/STIM_002.jpg	100
3193.585	0.801	801.2	repeat	Run4	repeat/STIM_002.jpg	100
3197.702	0.843	842.7	repeat	Run4	repeat/STIM_002.jpg	100
3200.747	0.484	484.1	repeat	Run4	repeat/STIM_002.jpg	100
3205.24	0.58	580.4	repeat	Run4	repeat/STIM_003.jpg	100
3208.662	0.557	557.0	repeat	Run4	repeat/STIM_003.jpg	100
3212.643	0.494	494.0	repeat	Run4	repeat/STIM_003.jpg	100
3216.043	0.922	922.1	repeat	Run4	repeat/STIM_003.jpg	100
3220.806	0.544	543.6	repeat	Run4	repeat/STIM_003.jpg	100
3224.611	0.586	585.8	repeat	Run4	repeat/STIM_004.jpg	99
3227.339	0.896	896.1	repeat	Run4	repeat/STIM_004.jpg	100
3231.43	0.883	882.8	repeat	Run4	repeat/STIM_004.jpg	99
3235.237	0.844	844.4	repeat	Run4	repeat/STIM_004.jpg	99
3239.193	0.552	552.2	repeat	Run4	repeat/STIM_004.jpg	99
3243.532	0.768	768.3	repeat	Run4	repeat/STIM_005.jpg	99
3247.65	0.761	761.2	repeat	Run4	repeat/STIM_005.jpg	100
3252.35	0.887	886.8	repeat	Run4	repeat/STIM_005.jpg	100
3256.126	0.737	736.7	repeat	Run4	repeat/STIM_005.jpg	100
3259.122	0.601	601.1	repeat	Run4	repeat/STIM_005.jpg	100
3261.958	0.75	749.6	repeat	Run4	repeat/STIM_006.jpg	99
3265.216	0.918	918.3	repeat	Run4	repeat/STIM_006.jpg	99
3269.209	0.607	607.4	repeat	Run4	repeat/STIM_006.jpg	100
3273.162	0.542	541.5	repeat	Run4	repeat/STIM_006.jpg	100
3276.862	0.876	876.5	repeat	Run4	repeat/STIM_006.jpg	99
3280.755	0.778	777.6	repeat	Run4	repeat/STIM_007.jpg	99
3285.287	0.782	781.6	repeat	Run4	repeat/STIM_007.jpg	99
3289.578	0.616	615.8	repeat	Run4	repeat/STIM_007.jpg	99
3292.743	0.688	688.0	repeat	Run4	repeat/STIM_007.jpg	100
3297.006	0.856	856.4	repeat	Run4	repeat/STIM_007.jpg	100
3300.9	0.58	580.2	repeat	Run4	repeat/STIM_008.jpg	100
3305.324	0.763	763.0	repeat	Run4	repeat/STIM_008.jpg	100
3309.695	0.902	902.5	repeat	Run4	repeat/STIM_008.jpg	99
3314.259	0.687	686.9	repeat	Run4	repeat/STIM_008.jpg	99
3317.151	0.75	750.4	repeat	Run4	repeat/STIM_008.jpg	99
3321.164	0.833	832.7	repeat	Run4	repeat/STIM_009.jpg	100
3325.173	0.567	566.7	repeat	Run4	repeat/STIM_009.jpg	99
3328.449	0.934	934.4	repeat	Run4	repeat/STIM_009.jpg	100
3331.579	0.653	652.7	repeat	Run4	repeat/STIM_009.jpg	99
3335.134	0.664	664.2	repeat	Run4	repeat/STIM_009.jpg	100
3338.395	0.896	896.3	repeat	Run4	repeat/STIM_010.jpg	99
3342.979	0.721	721.2	repeat	Run4	repeat/STIM_010.jpg	99
3345.926	0.942	942.3	repeat	Run4	repeat/STIM_010.jpg	100
3349.699	0.538	537.5	repeat	Run4	repeat/STIM_010.jpg	99
3352.802	0.577	576.8	repeat	Run4	repeat/STIM_010.jpg	99
3357.21	0.948	948.2	repeat	Run4	repeat/STIM_011.jpg	99
3361.855	0.859	859.3	repeat	Run4	repeat/STIM_011.jpg	99
3365.504	0.635	634.6	repeat	Run4	repeat/STIM_011.jpg	99
3369.347	0.851	850.7	repeat	Run4	repeat/STIM_011.jpg	99
3373.304	0.865	864.9	repeat	Run4	repeat/STIM_011.jpg	100
3377.855	0.897	897.2	repeat	Run4	repeat/STIM_012.jpg	100
3381.118	0.816	816.1	repeat	Run4	repeat/STIM_012.jpg	100
3385.083	0.498	498.2	repeat	Run4	repeat/STIM_012.jpg	99
3389.253	0.894	894.3	repeat	Run4	repeat/STIM_012.jpg	99
3392.573	0.925	924.9	repeat	Run4	repeat/STIM_012.jpg	100
3396.412	0.697	697.4	repeat	Run4	repeat/STIM_013.jpg	99
3401.081	0.673	673.3	repeat	Run4	repeat/STIM_013.jpg	99
3403.969	0.568	568.0	repeat	Run4	repeat/STIM_013.jpg	100
3407.746	0.847	846.7	repeat	Run4	repeat/STIM_013.jpg	100
3411.783	0.716	715.8	repeat	Run4	repeat/STIM_013.jpg	99
3415.646	0.589	589.3	repeat	Run4	repeat/STIM_014.jpg	100
3418.534	0.544	543.5	repeat	Run4	repeat/STIM_014.jpg	100
3421.444	0.898	897.7	repeat	Run4	repeat/STIM_014.jpg	99
3426.331	0.517	516.7	repeat	Run4	repeat/STIM_014.jpg	99
3430.063	0.628	628.4	repeat	Run4	repeat/STIM_014.jpg	100
