onset	duration	accuracy_binary	trial_type	learning_stage	stimulus
24.142	0.674	1	learning	LS1	h33_p11_k_down_right.jpg
28.845	1.267	1	learning	LS1	h46_p18_k_down_left.jpg
33.515	1.062	1	learning	LS1	h109_p51_k_up_left.jpg
38.202	0.591	1	learning	LS1	h117_p6_k_up_left.jpg
42.871	1.106	1	learning	LS1	h33_p11_k_down_right.jpg
47.558	1.564	1	learning	LS1	h46_p18_k_down_left.jpg
52.228	0.559	0	learning	LS1	h18_p7_k_down_right.jpg
56.881	1.138	1	learning	LS1	h109_p51_k_up_left.jpg
61.551	1.348	1	learning	LS1	h18_p7_k_down_right.jpg
66.221	0.659	1	learning	LS1	h117_p6_k_up_left.jpg
75.394	1.161	1	learning	LS2	h18_p7_k_down_right.jpg
80.047	1.094	1	learning	LS2	h46_p18_k_down_left.jpg
84.700	0.556	1	learning	LS2	h109_p51_k_up_left.jpg
89.370	0.859	1	learning	LS2	h33_p11_k_down_right.jpg
94.040	1.078	1	learning	LS2	h117_p6_k_up_left.jpg
98.710	0.173	1	learning	LS2	h46_p18_k_down_left.jpg
103.379	0.699	1	learning	LS2	h33_p11_k_down_right.jpg
108.049	0.995	1	learning	LS2	h109_p51_k_up_left.jpg
112.719	0.490	1	learning	LS2	h117_p6_k_up_left.jpg
117.406	1.162	1	learning	LS2	h18_p7_k_down_right.jpg
126.579	0.624	1	learning	LS3	h109_p51_k_up_left.jpg
131.232	0.786	1	learning	LS3	h117_p6_k_up_left.jpg
135.885	1.296	1	learning	LS3	h33_p11_k_down_right.jpg
140.555	0.557	1	learning	LS3	h109_p51_k_up_left.jpg
145.208	0.756	1	learning	LS3	h18_p7_k_down_right.jpg
149.861	1.363	1	learning	LS3	h46_p18_k_down_left.jpg
154.531	0.525	1	learning	LS3	h117_p6_k_up_left.jpg
159.184	0.020	1	learning	LS3	h33_p11_k_down_right.jpg
163.854	1.447	1	learning	LS3	h46_p18_k_down_left.jpg
168.524	0.559	1	learning	LS3	h18_p7_k_down_right.jpg
177.697	1.297	1	learning	LS4	h33_p11_k_down_right.jpg
182.367	0.959	1	learning	LS4	h46_p18_k_down_left.jpg
187.053	0.154	1	learning	LS4	h33_p11_k_down_right.jpg
191.723	1.532	1	learning	LS4	h18_p7_k_down_right.jpg
196.376	0.760	1	learning	LS4	h117_p6_k_up_left.jpg
201.030	0.322	1	learning	LS4	h109_p51_k_up_left.jpg
205.699	1.616	1	learning	LS4	h46_p18_k_down_left.jpg
210.353	0.777	1	learning	LS4	h109_p51_k_up_left.jpg
215.023	1.230	1	learning	LS4	h18_p7_k_down_right.jpg
219.676	1.549	1	learning	LS4	h117_p6_k_up_left.jpg
246.928	0.485	0	learning	LS1	h22_p21_k_down_left.jpg
251.614	1.296	0	learning	LS1	h29_p3_k_down_left.jpg
256.284	0.341	1	learning	LS1	h111_p47_k_up_left.jpg
260.954	0.186	1	learning	LS1	h22_p21_k_down_left.jpg
265.624	1.080	1	learning	LS1	h98_p19_k_up_right.jpg
270.277	0.442	0	learning	LS1	h29_p3_k_down_left.jpg
274.963	1.902	1	learning	LS1	h89_p39_k_up_left.jpg
279.617	1.030	1	learning	LS1	h111_p47_k_up_left.jpg
284.286	0.308	0	learning	LS1	h98_p19_k_up_right.jpg
288.940	0.120	1	learning	LS1	h89_p39_k_up_left.jpg
298.113	0.959	1	learning	LS2	h111_p47_k_up_left.jpg
302.783	0.388	1	learning	LS2	h98_p19_k_up_right.jpg
307.436	1.749	1	learning	LS2	h111_p47_k_up_left.jpg
312.089	1.194	1	learning	LS2	h89_p39_k_up_left.jpg
316.759	0.338	1	learning	LS2	h29_p3_k_down_left.jpg
321.428	1.016	1	learning	LS2	h89_p39_k_up_left.jpg
326.098	1.077	1	learning	LS2	h29_p3_k_down_left.jpg
330.752	0.489	1	learning	LS2	h22_p21_k_down_left.jpg
335.405	0.954	1	learning	LS2	h98_p19_k_up_right.jpg
340.075	0.811	1	learning	LS2	h22_p21_k_down_left.jpg
349.281	0.785	1	learning	LS3	h111_p47_k_up_left.jpg
353.934	1.145	1	learning	LS3	h29_p3_k_down_left.jpg
358.604	0.573	1	learning	LS3	h98_p19_k_up_right.jpg
363.274	0.019	1	learning	LS3	h89_p39_k_up_left.jpg
367.960	1.079	1	learning	LS3	h98_p19_k_up_right.jpg
372.613	0.458	1	learning	LS3	h89_p39_k_up_left.jpg
377.267	0.849	1	learning	LS3	h111_p47_k_up_left.jpg
381.920	1.430	1	learning	LS3	h22_p21_k_down_left.jpg
386.573	0.841	1	learning	LS3	h29_p3_k_down_left.jpg
391.226	0.003	1	learning	LS3	h22_p21_k_down_left.jpg
400.399	0.492	1	learning	LS4	h98_p19_k_up_right.jpg
405.069	0.087	1	learning	LS4	h29_p3_k_down_left.jpg
409.722	1.647	1	learning	LS4	h111_p47_k_up_left.jpg
414.375	0.925	1	learning	LS4	h98_p19_k_up_right.jpg
419.029	1.003	1	learning	LS4	h89_p39_k_up_left.jpg
423.698	1.030	1	learning	LS4	h22_p21_k_down_left.jpg
428.368	0.742	1	learning	LS4	h111_p47_k_up_left.jpg
433.022	0.087	1	learning	LS4	h29_p3_k_down_left.jpg
437.675	1.147	1	learning	LS4	h89_p39_k_up_left.jpg
442.344	0.943	1	learning	LS4	h22_p21_k_down_left.jpg
469.596	1.377	0	learning	LS1	h82_p21_k_up_right.jpg
474.283	0.789	1	learning	LS1	h120_p12_k_up_right.jpg
478.969	1.037	1	learning	LS1	h28_p46_k_down_right.jpg
483.623	0.744	1	learning	LS1	h107_p42_k_up_right.jpg
488.293	0.522	1	learning	LS1	h28_p46_k_down_right.jpg
492.962	1.212	1	learning	LS1	h42_p5_k_down_left.jpg
497.616	0.945	0	learning	LS1	h120_p12_k_up_right.jpg
502.286	0.590	1	learning	LS1	h42_p5_k_down_left.jpg
506.955	1.102	0	learning	LS1	h107_p42_k_up_right.jpg
511.625	1.262	1	learning	LS1	h82_p21_k_up_right.jpg
520.815	0.219	1	learning	LS2	h120_p12_k_up_right.jpg
525.485	0.912	0	learning	LS2	h107_p42_k_up_right.jpg
530.171	0.908	1	learning	LS2	h82_p21_k_up_right.jpg
534.841	0.053	1	learning	LS2	h28_p46_k_down_right.jpg
539.528	1.580	1	learning	LS2	h82_p21_k_up_right.jpg
544.181	0.592	1	learning	LS2	h42_p5_k_down_left.jpg
548.851	0.237	1	learning	LS2	h120_p12_k_up_right.jpg
553.520	1.748	1	learning	LS2	h28_p46_k_down_right.jpg
558.190	0.976	1	learning	LS2	h107_p42_k_up_right.jpg
562.860	1.331	0	learning	LS2	h42_p5_k_down_left.jpg
572.033	1.060	1	learning	LS3	h120_p12_k_up_right.jpg
576.686	0.221	1	learning	LS3	h107_p42_k_up_right.jpg
581.356	0.651	1	learning	LS3	h82_p21_k_up_right.jpg
586.009	0.994	1	learning	LS3	h42_p5_k_down_left.jpg
590.663	0.539	0	learning	LS3	h120_p12_k_up_right.jpg
595.332	0.892	1	learning	LS3	h28_p46_k_down_right.jpg
599.986	1.111	1	learning	LS3	h107_p42_k_up_right.jpg
604.655	0.372	1	learning	LS3	h42_p5_k_down_left.jpg
609.342	0.797	1	learning	LS3	h28_p46_k_down_right.jpg
614.029	1.128	1	learning	LS3	h82_p21_k_up_right.jpg
623.201	0.819	1	learning	LS4	h120_p12_k_up_right.jpg
627.855	1.362	1	learning	LS4	h107_p42_k_up_right.jpg
632.524	0.574	1	learning	LS4	h28_p46_k_down_right.jpg
637.178	1.013	1	learning	LS4	h120_p12_k_up_right.jpg
641.847	1.246	1	learning	LS4	h107_p42_k_up_right.jpg
646.501	0.691	1	learning	LS4	h82_p21_k_up_right.jpg
651.154	1.174	1	learning	LS4	h42_p5_k_down_left.jpg
655.807	1.414	1	learning	LS4	h28_p46_k_down_right.jpg
660.460	0.709	1	learning	LS4	h82_p21_k_up_right.jpg
665.113	0.873	1	learning	LS4	h42_p5_k_down_left.jpg
692.282	1.673	1	control	LS1	h89_p17_i_up_left.jpg
696.868	1.228	1	control	LS1	h18_p7_k_down_right.jpg
701.472	2.495	1	control	LS1	h94_p31_i_up_left.jpg
706.075	1.890	1	control	LS1	h89_p39_k_up_left.jpg
710.661	1.301	1	control	LS1	h18_p47_i_down_right.jpg
715.264	0.808	1	control	LS1	h85_p16_i_up_left.jpg
719.851	2.107	1	control	LS1	h22_p21_k_down_left.jpg
724.454	1.502	1	control	LS1	h85_p11_k_up_left.jpg
729.057	0.897	1	control	LS1	h94_p2_k_up_left.jpg
733.644	2.324	1	control	LS1	h22_p33_i_down_right.jpg
742.750	1.214	1	control	LS2	h89_p39_k_up_left.jpg
747.353	0.753	1	control	LS2	h94_p2_k_up_left.jpg
751.956	2.003	0	control	LS2	h85_p43_i_up_right.jpg
756.543	1.415	1	control	LS2	h89_p2_i_up_left.jpg
761.146	0.970	1	control	LS2	h22_p48_i_down_left.jpg
765.749	2.205	1	control	LS2	h18_p7_k_down_right.jpg
770.335	1.632	1	control	LS2	h18_p49_i_down_right.jpg
774.922	1.044	1	control	LS2	h85_p11_k_up_left.jpg
779.525	2.438	1	control	LS2	h94_p33_i_up_left.jpg
784.128	1.833	1	control	LS2	h22_p21_k_down_left.jpg
793.234	0.723	1	control	LS3	h89_p17_i_up_left.jpg
797.821	2.134	1	control	LS3	h18_p47_i_down_right.jpg
802.407	1.546	1	control	LS3	h18_p7_k_down_right.jpg
806.994	0.974	1	control	LS3	h94_p2_k_up_left.jpg
811.580	2.385	1	control	LS3	h89_p39_k_up_left.jpg
816.183	1.780	1	control	LS3	h22_p21_k_down_left.jpg
820.770	1.192	1	control	LS3	h94_p31_i_up_left.jpg
825.356	0.635	1	control	LS3	h22_p33_i_down_right.jpg
829.959	1.998	1	control	LS3	h85_p11_k_up_left.jpg
834.546	1.410	1	control	LS3	h85_p16_i_up_left.jpg
843.652	2.315	1	control	LS4	h85_p11_k_up_left.jpg
848.239	1.727	1	control	LS4	h89_p2_i_up_left.jpg
852.825	1.139	1	control	LS4	h89_p39_k_up_left.jpg
857.428	0.534	1	control	LS4	h85_p43_i_up_right.jpg
862.015	1.945	1	control	LS4	h94_p33_i_up_left.jpg
866.618	1.340	1	control	LS4	h22_p48_i_down_left.jpg
871.204	0.751	1	control	LS4	h18_p7_k_down_right.jpg
875.791	2.178	1	control	LS4	h18_p49_i_down_right.jpg
880.377	1.590	1	control	LS4	h94_p2_k_up_left.jpg
884.980	0.985	1	control	LS4	h22_p21_k_down_left.jpg
912.199	0.586	1	learning	LS1	h94_p2_k_up_left.jpg
916.885	0.347	1	learning	LS1	h25_p14_k_down_left.jpg
921.589	0.841	0	learning	LS1	h83_p29_k_up_right.jpg
926.242	0.203	0	learning	LS1	h108_p27_k_up_left.jpg
930.895	1.101	1	learning	LS1	h83_p29_k_up_right.jpg
935.582	1.325	1	learning	LS1	h25_p14_k_down_left.jpg
940.235	0.704	1	learning	LS1	h94_p2_k_up_left.jpg
944.921	1.085	0	learning	LS1	h108_p27_k_up_left.jpg
949.591	0.708	0	learning	LS1	h11_p43_k_down_left.jpg
954.261	0.637	1	learning	LS1	h11_p43_k_down_left.jpg
963.451	1.276	1	learning	LS2	h25_p14_k_down_left.jpg
968.120	1.038	1	learning	LS2	h11_p43_k_down_left.jpg
972.774	0.033	1	learning	LS2	h94_p2_k_up_left.jpg
977.443	0.877	0	learning	LS2	h94_p2_k_up_left.jpg
982.097	0.621	1	learning	LS2	h108_p27_k_up_left.jpg
986.783	0.133	1	learning	LS2	h83_p29_k_up_right.jpg
991.436	1.124	1	learning	LS2	h108_p27_k_up_left.jpg
996.123	0.806	0	learning	LS2	h25_p14_k_down_left.jpg
1000.776	0.284	0	learning	LS2	h83_p29_k_up_right.jpg
1005.446	1.278	1	learning	LS2	h11_p43_k_down_left.jpg
1014.619	0.416	1	learning	LS3	h83_p29_k_up_right.jpg
1019.306	1.034	1	learning	LS3	h25_p14_k_down_left.jpg
1023.959	1.089	1	learning	LS3	h11_p43_k_down_left.jpg
1028.612	1.434	1	learning	LS3	h94_p2_k_up_left.jpg
1033.265	0.859	1	learning	LS3	h25_p14_k_down_left.jpg
1037.918	1.240	1	learning	LS3	h94_p2_k_up_left.jpg
1042.588	0.484	1	learning	LS3	h11_p43_k_down_left.jpg
1047.258	0.971	1	learning	LS3	h108_p27_k_up_left.jpg
1051.928	0.923	1	learning	LS3	h83_p29_k_up_right.jpg
1056.598	0.635	1	learning	LS3	h108_p27_k_up_left.jpg
1065.771	1.190	1	learning	LS4	h11_p43_k_down_left.jpg
1070.424	0.369	1	learning	LS4	h83_p29_k_up_right.jpg
1075.077	n/a	n/a	learning	LS4	n/a
1079.747	1.125	1	learning	LS4	h11_p43_k_down_left.jpg
1084.417	0.603	1	learning	LS4	h25_p14_k_down_left.jpg
1089.103	1.220	1	learning	LS4	h94_p2_k_up_left.jpg
1093.773	1.158	1	learning	LS4	h94_p2_k_up_left.jpg
1098.426	0.587	1	learning	LS4	h108_p27_k_up_left.jpg
1103.096	0.048	1	learning	LS4	h108_p27_k_up_left.jpg
1107.766	1.226	1	learning	LS4	h25_p14_k_down_left.jpg
1134.935	1.461	1	control	LS1	h32_p31_k_down_right.jpg
1139.538	2.423	1	control	LS1	h32_p10_i_down_right.jpg
1144.124	1.835	1	control	LS1	h111_p16_i_up_left.jpg
1148.727	1.230	1	control	LS1	h35_p31_i_down_right.jpg
1153.314	0.834	0	control	LS1	h108_p27_k_up_left.jpg
1157.917	2.052	1	control	LS1	h25_p12_i_down_left.jpg
1162.520	1.543	1	control	LS1	h111_p47_k_up_left.jpg
1167.123	0.842	1	control	LS1	h35_p50_k_down_right.jpg
1171.726	2.236	1	control	LS1	h108_p13_i_up_right.jpg
1176.313	1.648	1	control	LS1	h25_p14_k_down_left.jpg
1185.419	1.658	1	control	LS2	h108_p27_k_up_left.jpg
1190.005	1.965	1	control	LS2	h108_p15_i_up_right.jpg
1194.592	1.377	1	control	LS2	h32_p31_k_down_right.jpg
1199.195	0.772	1	control	LS2	h32_p13_i_down_left.jpg
1203.798	2.166	1	control	LS2	h111_p37_i_up_right.jpg
1208.401	1.561	1	control	LS2	h35_p43_i_down_left.jpg
1212.988	0.972	1	control	LS2	h111_p47_k_up_left.jpg
1217.574	2.383	1	control	LS2	h25_p31_i_down_right.jpg
1222.178	1.778	1	control	LS2	h25_p14_k_down_left.jpg
1226.781	1.189	1	control	LS2	h35_p50_k_down_right.jpg
1235.887	2.079	1	control	LS3	h32_p10_i_down_right.jpg
1240.490	1.474	1	control	LS3	h108_p27_k_up_left.jpg
1245.076	0.949	1	control	LS3	h25_p14_k_down_left.jpg
1249.663	2.296	1	control	LS3	h111_p16_i_up_left.jpg
1254.266	1.692	1	control	LS3	h35_p50_k_down_right.jpg
1258.869	1.087	1	control	LS3	h25_p12_i_down_left.jpg
1263.456	2.514	1	control	LS3	h111_p47_k_up_left.jpg
1268.059	1.908	1	control	LS3	h108_p13_i_up_right.jpg
1272.645	1.320	1	control	LS3	h35_p31_i_down_right.jpg
1277.248	0.715	1	control	LS3	h32_p31_k_down_right.jpg
1286.355	1.604	1	control	LS4	h108_p27_k_up_left.jpg
1290.941	1.016	1	control	LS4	h111_p47_k_up_left.jpg
1295.528	2.443	1	control	LS4	h111_p37_i_up_right.jpg
1300.114	1.855	1	control	LS4	h35_p43_i_down_left.jpg
1304.700	1.266	1	control	LS4	h32_p13_i_down_left.jpg
1309.304	0.661	1	control	LS4	h32_p31_k_down_right.jpg
1313.907	2.055	1	control	LS4	h35_p50_k_down_right.jpg
1318.510	1.451	1	control	LS4	h108_p15_i_up_right.jpg
1323.096	0.862	1	control	LS4	h25_p31_i_down_right.jpg
1327.700	2.256	1	control	LS4	h25_p14_k_down_left.jpg
1354.918	1.125	0	learning	LS1	h35_p50_k_down_right.jpg
1359.588	1.085	1	learning	LS1	h12_p4_k_down_left.jpg
1364.275	0.713	1	learning	LS1	h116_p28_k_up_right.jpg
1368.944	1.716	1	learning	LS1	h48_p41_k_down_right.jpg
1373.614	0.918	0	learning	LS1	h87_p9_k_up_left.jpg
1378.267	0.914	1	learning	LS1	h48_p41_k_down_right.jpg
1382.937	1.078	1	learning	LS1	h87_p9_k_up_left.jpg
1387.607	1.386	1	learning	LS1	h116_p28_k_up_right.jpg
1392.294	0.831	1	learning	LS1	h12_p4_k_down_left.jpg
1396.947	0.093	1	learning	LS1	h35_p50_k_down_right.jpg
1406.137	0.698	1	learning	LS2	h87_p9_k_up_left.jpg
1410.806	0.310	1	learning	LS2	h116_p28_k_up_right.jpg
1415.460	1.620	0	learning	LS2	h48_p41_k_down_right.jpg
1420.129	0.949	1	learning	LS2	h116_p28_k_up_right.jpg
1424.799	0.127	1	learning	LS2	h35_p50_k_down_right.jpg
1429.453	1.336	1	learning	LS2	h87_p9_k_up_left.jpg
1434.122	0.982	1	learning	LS2	h12_p4_k_down_left.jpg
1438.792	0.461	1	learning	LS2	h48_p41_k_down_right.jpg
1443.445	0.765	1	learning	LS2	h35_p50_k_down_right.jpg
1448.132	1.049	1	learning	LS2	h12_p4_k_down_left.jpg
1457.322	0.883	1	learning	LS3	h87_p9_k_up_left.jpg
1461.991	1.000	1	learning	LS3	h35_p50_k_down_right.jpg
1466.645	0.528	1	learning	LS3	h116_p28_k_up_right.jpg
1471.314	0.771	0	learning	LS3	h48_p41_k_down_right.jpg
1475.968	1.150	1	learning	LS3	h12_p4_k_down_left.jpg
1480.621	0.529	1	learning	LS3	h116_p28_k_up_right.jpg
1485.291	0.933	1	learning	LS3	h48_p41_k_down_right.jpg
1489.944	1.084	1	learning	LS3	h12_p4_k_down_left.jpg
1494.614	0.462	1	learning	LS3	h87_p9_k_up_left.jpg
1499.267	1.222	1	learning	LS3	h35_p50_k_down_right.jpg
1508.440	0.562	1	learning	LS4	h116_p28_k_up_right.jpg
1513.110	0.909	1	learning	LS4	h12_p4_k_down_left.jpg
1517.763	1.518	1	learning	LS4	h35_p50_k_down_right.jpg
1522.416	0.480	1	learning	LS4	h116_p28_k_up_right.jpg
1527.086	0.942	1	learning	LS4	h87_p9_k_up_left.jpg
1531.739	1.202	1	learning	LS4	h48_p41_k_down_right.jpg
1536.409	0.813	1	learning	LS4	h12_p4_k_down_left.jpg
1541.079	0.125	1	learning	LS4	h48_p41_k_down_right.jpg
1545.749	1.269	1	learning	LS4	h35_p50_k_down_right.jpg
1550.418	0.547	1	learning	LS4	h87_p9_k_up_left.jpg
1577.637	1.565	0	learning	LS1	h85_p11_k_up_left.jpg
1582.307	0.693	1	learning	LS1	h36_p12_k_down_left.jpg
1586.977	1.008	1	learning	LS1	h32_p31_k_down_right.jpg
1591.647	1.032	1	learning	LS1	h36_p12_k_down_left.jpg
1596.316	0.577	1	learning	LS1	h53_p33_k_down_right.jpg
1600.970	1.472	1	learning	LS1	h32_p31_k_down_right.jpg
1605.639	1.566	1	learning	LS1	h53_p33_k_down_right.jpg
1610.326	1.695	0	learning	LS1	h114_p35_k_up_right.jpg
1614.996	0.037	1	learning	LS1	h85_p11_k_up_left.jpg
1619.666	1.448	1	learning	LS1	h114_p35_k_up_right.jpg
1628.855	1.172	1	learning	LS2	h53_p33_k_down_right.jpg
1633.509	1.866	1	learning	LS2	h32_p31_k_down_right.jpg
1638.178	0.910	1	learning	LS2	h85_p11_k_up_left.jpg
1642.848	1.173	1	learning	LS2	h114_p35_k_up_right.jpg
1647.502	1.583	1	learning	LS2	h53_p33_k_down_right.jpg
1652.155	0.845	1	learning	LS2	h36_p12_k_down_left.jpg
1656.824	0.223	1	learning	LS2	h114_p35_k_up_right.jpg
1661.494	1.584	1	learning	LS2	h32_p31_k_down_right.jpg
1666.148	0.979	1	learning	LS2	h85_p11_k_up_left.jpg
1670.801	1.224	0	learning	LS2	h36_p12_k_down_left.jpg
1679.974	1.046	1	learning	LS3	h114_p35_k_up_right.jpg
1684.643	0.174	1	learning	LS3	h36_p12_k_down_left.jpg
1689.297	0.689	1	learning	LS3	h85_p11_k_up_left.jpg
1693.967	1.230	1	learning	LS3	h53_p33_k_down_right.jpg
1698.636	0.525	1	learning	LS3	h114_p35_k_up_right.jpg
1703.290	0.738	1	learning	LS3	h53_p33_k_down_right.jpg
1707.943	1.147	1	learning	LS3	h36_p12_k_down_left.jpg
1712.596	0.542	1	learning	LS3	h32_p31_k_down_right.jpg
1717.266	0.787	1	learning	LS3	h85_p11_k_up_left.jpg
1721.919	0.781	1	learning	LS3	h32_p31_k_down_right.jpg
1731.092	0.970	1	learning	LS4	h85_p11_k_up_left.jpg
1735.778	1.415	1	learning	LS4	h32_p31_k_down_right.jpg
1740.432	0.861	1	learning	LS4	h114_p35_k_up_right.jpg
1745.085	0.271	1	learning	LS4	h85_p11_k_up_left.jpg
1749.738	1.565	1	learning	LS4	h53_p33_k_down_right.jpg
1754.391	0.911	1	learning	LS4	h36_p12_k_down_left.jpg
1759.061	0.139	1	learning	LS4	h114_p35_k_up_right.jpg
1763.714	1.200	1	learning	LS4	h36_p12_k_down_left.jpg
1768.401	0.711	1	learning	LS4	h53_p33_k_down_right.jpg
1773.071	0.106	1	learning	LS4	h32_p31_k_down_right.jpg
