onset	duration	response_time_ms	trial_type	learning_stage	stimulus	response_port
0.0	2.998	2998.1	navigation	Trial1	navigation/STIM_000.jpg	100
5.715	3.958	3957.7	navigation	Trial1	navigation/STIM_000.jpg	99
12.842	3.034	3034.0	navigation	Trial1	navigation/STIM_000.jpg	100
18.243	3.82	3819.6	navigation	Trial1	navigation/STIM_000.jpg	100
23.891	3.481	3480.9	navigation	Trial1	navigation/STIM_000.jpg	100
29.183	3.648	3647.9	navigation	Trial1	navigation/STIM_000.jpg	99
35.67	4.279	4278.8	navigation	Trial1	navigation/STIM_001.jpg	100
41.842	4.523	4523.1	navigation	Trial1	navigation/STIM_001.jpg	99
49.824	4.996	4996.1	navigation	Trial1	navigation/STIM_001.jpg	100
57.191	3.36	3360.4	navigation	Trial1	navigation/STIM_001.jpg	100
63.003	1.811	1810.7	navigation	Trial1	navigation/STIM_001.jpg	100
67.43	3.029	3028.6	navigation	Trial1	navigation/STIM_001.jpg	100
72.857	3.437	3436.7	navigation	Trial1	navigation/STIM_002.jpg	100
79.8	3.901	3900.8	navigation	Trial1	navigation/STIM_002.jpg	100
85.381	2.935	2934.9	navigation	Trial1	navigation/STIM_002.jpg	99
90.636	2.858	2857.6	navigation	Trial1	navigation/STIM_002.jpg	100
96.677	2.861	2861.3	navigation	Trial1	navigation/STIM_002.jpg	100
102.477	1.948	1947.8	navigation	Trial1	navigation/STIM_002.jpg	99
106.236	5.444	5443.6	navigation	Trial1	navigation/STIM_003.jpg	99
113.519	4.57	4569.7	navigation	Trial1	navigation/STIM_003.jpg	99
121.017	4.701	4700.7	navigation	Trial1	navigation/STIM_003.jpg	100
128.117	4.565	4565.1	navigation	Trial1	navigation/STIM_003.jpg	99
134.981	2.282	2282.3	navigation	Trial1	navigation/STIM_003.jpg	99
140.775	2.517	2517.2	navigation	Trial1	navigation/STIM_003.jpg	99
145.786	3.481	3481.0	navigation	Trial1	navigation/STIM_004.jpg	99
152.757	2.636	2635.9	navigation	Trial1	navigation/STIM_004.jpg	99
158.136	2.642	2641.9	navigation	Trial1	navigation/STIM_004.jpg	100
164.595	2.331	2331.4	navigation	Trial1	navigation/STIM_004.jpg	99
170.142	2.34	2340.2	navigation	Trial1	navigation/STIM_004.jpg	99
174.672	1.942	1941.6	navigation	Trial1	navigation/STIM_004.jpg	100
178.701	4.404	4403.7	navigation	Trial1	navigation/STIM_005.jpg	100
186.392	3.232	3231.9	navigation	Trial1	navigation/STIM_005.jpg	99
191.742	4.346	4345.5	navigation	Trial1	navigation/STIM_005.jpg	100
199.156	3.091	3091.2	navigation	Trial1	navigation/STIM_005.jpg	100
203.963	4.408	4408.0	navigation	Trial1	navigation/STIM_005.jpg	99
210.096	3.185	3184.7	navigation	Trial1	navigation/STIM_005.jpg	99
216.763	4.927	4926.7	navigation	Trial1	navigation/STIM_006.jpg	99
225.048	4.764	4763.5	navigation	Trial1	navigation/STIM_006.jpg	100
233.123	2.928	2928.4	navigation	Trial1	navigation/STIM_006.jpg	100
238.454	4.525	4524.8	navigation	Trial1	navigation/STIM_006.jpg	100
246.057	2.584	2584.0	navigation	Trial1	navigation/STIM_006.jpg	100
251.32	3.94	3939.5	navigation	Trial1	navigation/STIM_006.jpg	99
258.206	4.934	4934.3	navigation	Trial1	navigation/STIM_007.jpg	99
264.96	4.807	4807.0	navigation	Trial1	navigation/STIM_007.jpg	100
272.276	3.408	3408.1	navigation	Trial1	navigation/STIM_007.jpg	100
278.606	3.706	3706.3	navigation	Trial1	navigation/STIM_007.jpg	99
284.489	2.748	2747.7	navigation	Trial1	navigation/STIM_007.jpg	100
290.509	3.223	3222.9	navigation	Trial1	navigation/STIM_007.jpg	99
296.014	4.674	4674.3	navigation	Trial1	navigation/STIM_008.jpg	99
302.512	4.284	4283.6	navigation	Trial1	navigation/STIM_008.jpg	99
308.633	2.265	2265.4	navigation	Trial1	navigation/STIM_008.jpg	99
314.195	2.224	2223.7	navigation	Trial1	navigation/STIM_008.jpg	100
319.593	2.55	2549.5	navigation	Trial1	navigation/STIM_008.jpg	100
324.122	2.478	2478.4	navigation	Trial1	navigation/STIM_008.jpg	100
330.189	4.298	4298.2	navigation	Trial1	navigation/STIM_009.jpg	100
337.336	4.188	4187.9	navigation	Trial1	navigation/STIM_009.jpg	99
343.925	4.475	4475.4	navigation	Trial1	navigation/STIM_009.jpg	99
350.868	4.648	4647.9	navigation	Trial1	navigation/STIM_009.jpg	100
358.529	4.255	4254.9	navigation	Trial1	navigation/STIM_009.jpg	99
365.013	2.674	2674.3	navigation	Trial1	navigation/STIM_009.jpg	99
370.664	2.719	2718.7	navigation	Trial1	navigation/STIM_010.jpg	99
375.553	5.164	5164.1	navigation	Trial1	navigation/STIM_010.jpg	100
383.238	4.9	4900.1	navigation	Trial1	navigation/STIM_010.jpg	99
390.139	2.343	2342.7	navigation	Trial1	navigation/STIM_010.jpg	100
394.89	2.142	2142.4	navigation	Trial1	navigation/STIM_010.jpg	99
400.308	3.549	3548.6	navigation	Trial1	navigation/STIM_010.jpg	100
407.323	2.418	2417.7	navigation	Trial1	navigation/STIM_011.jpg	100
412.348	3.453	3453.4	navigation	Trial1	navigation/STIM_011.jpg	100
419.11	4.116	4116.1	navigation	Trial1	navigation/STIM_011.jpg	99
425.037	2.559	2558.8	navigation	Trial1	navigation/STIM_011.jpg	99
429.552	2.321	2321.1	navigation	Trial1	navigation/STIM_011.jpg	100
435.624	3.69	3689.7	navigation	Trial1	navigation/STIM_011.jpg	100
442.806	1.3	1300.2	pointing	Trial1	pointing/STIM_000.jpg	99
446.591	1.655	1655.0	pointing	Trial1	pointing/STIM_000.jpg	100
451.09	1.012	1012.2	pointing	Trial1	pointing/STIM_000.jpg	99
454.744	1.586	1585.8	pointing	Trial1	pointing/STIM_000.jpg	99
459.435	1.02	1019.6	pointing	Trial1	pointing/STIM_000.jpg	100
463.674	1.343	1342.7	pointing	Trial1	pointing/STIM_000.jpg	99
467.878	1.344	1344.3	pointing	Trial1	pointing/STIM_001.jpg	99
472.138	1.151	1150.7	pointing	Trial1	pointing/STIM_001.jpg	99
476.81	0.921	920.8	pointing	Trial1	pointing/STIM_001.jpg	99
480.877	1.639	1638.6	pointing	Trial1	pointing/STIM_001.jpg	99
486.224	1.34	1339.8	pointing	Trial1	pointing/STIM_001.jpg	99
490.34	1.15	1149.6	pointing	Trial1	pointing/STIM_001.jpg	100
493.368	1.413	1413.4	pointing	Trial1	pointing/STIM_002.jpg	100
497.595	1.463	1462.9	pointing	Trial1	pointing/STIM_002.jpg	99
502.097	1.084	1084.4	pointing	Trial1	pointing/STIM_002.jpg	99
505.814	1.133	1132.8	pointing	Trial1	pointing/STIM_002.jpg	100
509.836	1.566	1565.9	pointing	Trial1	pointing/STIM_002.jpg	100
514.03	1.095	1095.0	pointing	Trial1	pointing/STIM_002.jpg	100
517.332	1.006	1006.2	pointing	Trial1	pointing/STIM_003.jpg	100
521.564	1.442	1441.6	pointing	Trial1	pointing/STIM_003.jpg	99
526.806	1.101	1101.3	pointing	Trial1	pointing/STIM_003.jpg	99
530.595	1.002	1001.5	pointing	Trial1	pointing/STIM_003.jpg	99
534.222	1.033	1032.9	pointing	Trial1	pointing/STIM_003.jpg	99
537.357	1.517	1517.1	pointing	Trial1	pointing/STIM_003.jpg	100
540.817	1.072	1072.5	pointing	Trial1	pointing/STIM_004.jpg	99
545.433	1.059	1059.0	pointing	Trial1	pointing/STIM_004.jpg	100
548.895	1.264	1263.8	pointing	Trial1	pointing/STIM_004.jpg	100
552.272	1.127	1127.3	pointing	Trial1	pointing/STIM_004.jpg	100
556.812	1.077	1077.1	pointing	Trial1	pointing/STIM_004.jpg	99
560.657	1.305	1305.4	pointing	Trial1	pointing/STIM_004.jpg	100
565.554	1.086	1085.6	pointing	Trial1	pointing/STIM_005.jpg	99
568.679	1.361	1361.3	pointing	Trial1	pointing/STIM_005.jpg	99
572.842	0.981	980.9	pointing	Trial1	pointing/STIM_005.jpg	100
577.685	1.322	1321.7	pointing	Trial1	pointing/STIM_005.jpg	100
582.618	1.619	1618.6	pointing	Trial1	pointing/STIM_005.jpg	100
586.872	1.045	1044.6	pointing	Trial1	pointing/STIM_005.jpg	99
591.737	1.504	1503.8	pointing	Trial1	pointing/STIM_006.jpg	99
596.026	1.516	1515.5	pointing	Trial1	pointing/STIM_006.jpg	100
599.936	1.59	1589.9	pointing	Trial1	pointing/STIM_006.jpg	99
604.417	1.48	1479.6	pointing	Trial1	pointing/STIM_006.jpg	100
609.727	1.578	1578.0	pointing	Trial1	pointing/STIM_006.jpg	99
614.717	0.978	978.3	pointing	Trial1	pointing/STIM_006.jpg	99
618.826	1.226	1226.1	pointing	Trial1	pointing/STIM_007.jpg	100
622.852	1.03	1030.5	pointing	Trial1	pointing/STIM_007.jpg	99
626.22	0.937	937.0	pointing	Trial1	pointing/STIM_007.jpg	100
630.357	1.342	1341.9	pointing	Trial1	pointing/STIM_007.jpg	100
633.739	1.665	1665.4	pointing	Trial1	pointing/STIM_007.jpg	100
637.836	1.449	1448.7	pointing	Trial1	pointing/STIM_007.jpg	99
641.586	1.512	1511.8	pointing	Trial1	pointing/STIM_008.jpg	99
646.737	1.201	1201.1	pointing	Trial1	pointing/STIM_008.jpg	99
650.248	1.019	1019.1	pointing	Trial1	pointing/STIM_008.jpg	99
653.332	1.373	1373.1	pointing	Trial1	pointing/STIM_008.jpg	100
658.154	1.29	1289.5	pointing	Trial1	pointing/STIM_008.jpg	100
661.54	1.392	1391.5	pointing	Trial1	pointing/STIM_008.jpg	99
666.064	0.879	878.9	pointing	Trial1	pointing/STIM_009.jpg	100
670.237	1.487	1486.6	pointing	Trial1	pointing/STIM_009.jpg	99
675.225	0.919	918.9	pointing	Trial1	pointing/STIM_009.jpg	100
679.401	1.305	1304.8	pointing	Trial1	pointing/STIM_009.jpg	100
682.64	1.313	1313.4	pointing	Trial1	pointing/STIM_009.jpg	100
686.075	0.996	996.1	pointing	Trial1	pointing/STIM_009.jpg	100
689.927	0.888	887.6	pointing	Trial1	pointing/STIM_010.jpg	99
693.367	1.302	1301.8	pointing	Trial1	pointing/STIM_010.jpg	100
696.68	0.914	913.9	pointing	Trial1	pointing/STIM_010.jpg	99
699.696	0.973	973.1	pointing	Trial1	pointing/STIM_010.jpg	100
703.159	1.297	1297.3	pointing	Trial1	pointing/STIM_010.jpg	100
706.798	1.624	1624.0	pointing	Trial1	pointing/STIM_010.jpg	99
710.491	1.379	1378.6	pointing	Trial1	pointing/STIM_011.jpg	100
715.373	0.937	937.4	pointing	Trial1	pointing/STIM_011.jpg	99
720.138	1.603	1602.6	pointing	Trial1	pointing/STIM_011.jpg	99
724.161	1.337	1336.7	pointing	Trial1	pointing/STIM_011.jpg	100
727.751	1.434	1434.1	pointing	Trial1	pointing/STIM_011.jpg	99
732.437	1.49	1490.5	pointing	Trial1	pointing/STIM_011.jpg	99
737.556	2.191	2191.3	navigation	Trial2	navigation/STIM_000.jpg	99
741.964	4.45	4450.1	navigation	Trial2	navigation/STIM_000.jpg	100
749.837	3.622	3621.7	navigation	Trial2	navigation/STIM_000.jpg	100
755.106	3.845	3844.7	navigation	Trial2	navigation/STIM_000.jpg	99
761.003	3.046	3046.5	navigation	Trial2	navigation/STIM_000.jpg	99
767.265	3.861	3861.2	navigation	Trial2	navigation/STIM_000.jpg	100
773.922	4.127	4126.6	navigation	Trial2	navigation/STIM_001.jpg	100
781.057	2.029	2028.7	navigation	Trial2	navigation/STIM_001.jpg	100
786.471	3.264	3264.3	navigation	Trial2	navigation/STIM_001.jpg	99
792.299	2.43	2429.9	navigation	Trial2	navigation/STIM_001.jpg	100
797.831	1.975	1975.0	navigation	Trial2	navigation/STIM_001.jpg	100
803.049	1.617	1616.6	navigation	Trial2	navigation/STIM_001.jpg	99
807.72	3.824	3824.0	navigation	Trial2	navigation/STIM_002.jpg	100
813.509	3.718	3717.9	navigation	Trial2	navigation/STIM_002.jpg	100
819.94	2.61	2610.0	navigation	Trial2	navigation/STIM_002.jpg	100
825.866	3.582	3582.0	navigation	Trial2	navigation/STIM_002.jpg	100
831.129	3.053	3052.8	navigation	Trial2	navigation/STIM_002.jpg	99
836.078	2.087	2086.7	navigation	Trial2	navigation/STIM_002.jpg	100
840.952	4.254	4254.5	navigation	Trial2	navigation/STIM_003.jpg	100
848.657	2.641	2640.6	navigation	Trial2	navigation/STIM_003.jpg	100
853.693	3.224	3224.4	navigation	Trial2	navigation/STIM_003.jpg	100
858.732	1.669	1669.1	navigation	Trial2	navigation/STIM_003.jpg	100
862.301	2.657	2657.0	navigation	Trial2	navigation/STIM_003.jpg	99
867.393	3.145	3145.4	navigation	Trial2	navigation/STIM_003.jpg	100
873.593	3.957	3956.8	navigation	Trial2	navigation/STIM_004.jpg	99
879.704	2.443	2442.7	navigation	Trial2	navigation/STIM_004.jpg	99
885.707	2.377	2377.4	navigation	Trial2	navigation/STIM_004.jpg	99
890.808	3.725	3724.6	navigation	Trial2	navigation/STIM_004.jpg	100
897.925	2.769	2768.9	navigation	Trial2	navigation/STIM_004.jpg	99
902.701	2.83	2829.7	navigation	Trial2	navigation/STIM_004.jpg	100
907.518	3.21	3209.9	navigation	Trial2	navigation/STIM_005.jpg	99
913.699	3.063	3063.1	navigation	Trial2	navigation/STIM_005.jpg	99
919.382	2.375	2375.3	navigation	Trial2	navigation/STIM_005.jpg	100
924.3	3.172	3171.8	navigation	Trial2	navigation/STIM_005.jpg	99
930.708	2.295	2295.2	navigation	Trial2	navigation/STIM_005.jpg	100
935.088	1.819	1818.8	navigation	Trial2	navigation/STIM_005.jpg	100
939.34	3.482	3482.3	navigation	Trial2	navigation/STIM_006.jpg	100
946.075	4.237	4236.8	navigation	Trial2	navigation/STIM_006.jpg	99
952.995	3.33	3329.6	navigation	Trial2	navigation/STIM_006.jpg	100
959.577	3.243	3242.9	navigation	Trial2	navigation/STIM_006.jpg	100
964.978	2.428	2428.4	navigation	Trial2	navigation/STIM_006.jpg	99
969.863	3.477	3477.1	navigation	Trial2	navigation/STIM_006.jpg	99
976.571	2.738	2738.5	navigation	Trial2	navigation/STIM_007.jpg	99
982.058	3.958	3957.8	navigation	Trial2	navigation/STIM_007.jpg	99
989.606	3.129	3128.9	navigation	Trial2	navigation/STIM_007.jpg	100
995.706	3.839	3838.9	navigation	Trial2	navigation/STIM_007.jpg	99
1001.419	3.029	3029.1	navigation	Trial2	navigation/STIM_007.jpg	100
1006.297	3.248	3248.3	navigation	Trial2	navigation/STIM_007.jpg	99
1012.954	4.48	4479.5	navigation	Trial2	navigation/STIM_008.jpg	99
1019.962	3.57	3570.2	navigation	Trial2	navigation/STIM_008.jpg	100
1027.037	2.308	2307.8	navigation	Trial2	navigation/STIM_008.jpg	100
1031.511	3.522	3521.6	navigation	Trial2	navigation/STIM_008.jpg	100
1037.499	3.736	3735.7	navigation	Trial2	navigation/STIM_008.jpg	100
1044.504	3.67	3670.0	navigation	Trial2	navigation/STIM_008.jpg	99
1051.302	3.817	3817.4	navigation	Trial2	navigation/STIM_009.jpg	99
1057.103	1.837	1836.8	navigation	Trial2	navigation/STIM_009.jpg	99
1061.26	4.125	4124.6	navigation	Trial2	navigation/STIM_009.jpg	99
1067.669	2.869	2868.9	navigation	Trial2	navigation/STIM_009.jpg	100
1072.372	3.784	3784.5	navigation	Trial2	navigation/STIM_009.jpg	99
1078.028	2.283	2282.9	navigation	Trial2	navigation/STIM_009.jpg	100
1082.862	3.589	3588.7	navigation	Trial2	navigation/STIM_010.jpg	99
1088.304	4.433	4433.3	navigation	Trial2	navigation/STIM_010.jpg	99
1095.054	3.042	3042.0	navigation	Trial2	navigation/STIM_010.jpg	99
1101.025	3.205	3205.0	navigation	Trial2	navigation/STIM_010.jpg	99
1107.907	1.596	1595.7	navigation	Trial2	navigation/STIM_010.jpg	100
1112.621	2.465	2464.7	navigation	Trial2	navigation/STIM_010.jpg	100
1118.154	3.008	3007.6	navigation	Trial2	navigation/STIM_011.jpg	99
1124.416	2.788	2788.4	navigation	Trial2	navigation/STIM_011.jpg	100
1129.82	1.981	1980.9	navigation	Trial2	navigation/STIM_011.jpg	100
1134.22	2.304	2304.3	navigation	Trial2	navigation/STIM_011.jpg	100
1138.483	2.556	2555.9	navigation	Trial2	navigation/STIM_011.jpg	100
1143.11	1.679	1678.6	navigation	Trial2	navigation/STIM_011.jpg	99
1148.124	0.956	955.9	pointing	Trial2	pointing/STIM_000.jpg	99
1151.058	1.49	1490.4	pointing	Trial2	pointing/STIM_000.jpg	99
1155.904	1.001	1000.8	pointing	Trial2	pointing/STIM_000.jpg	100
1159.287	1.487	1487.3	pointing	Trial2	pointing/STIM_000.jpg	100
1164.385	1.006	1006.4	pointing	Trial2	pointing/STIM_000.jpg	100
1168.33	1.28	1280.0	pointing	Trial2	pointing/STIM_000.jpg	100
1172.158	1.579	1579.3	pointing	Trial2	pointing/STIM_001.jpg	100
1177.091	1.188	1188.3	pointing	Trial2	pointing/STIM_001.jpg	100
1182.046	0.955	955.0	pointing	Trial2	pointing/STIM_001.jpg	100
1185.497	1.086	1086.3	pointing	Trial2	pointing/STIM_001.jpg	99
1189.761	1.536	1535.8	pointing	Trial2	pointing/STIM_001.jpg	100
1194.958	1.48	1480.5	pointing	Trial2	pointing/STIM_001.jpg	99
1198.737	1.128	1127.5	pointing	Trial2	pointing/STIM_002.jpg	100
1201.952	1.269	1268.9	pointing	Trial2	pointing/STIM_002.jpg	99
1206.869	1.137	1136.6	pointing	Trial2	pointing/STIM_002.jpg	99
1211.797	1.089	1089.3	pointing	Trial2	pointing/STIM_002.jpg	99
1215.184	1.059	1058.8	pointing	Trial2	pointing/STIM_002.jpg	99
1218.898	1.094	1094.3	pointing	Trial2	pointing/STIM_002.jpg	100
1222.599	1.489	1488.8	pointing	Trial2	pointing/STIM_003.jpg	99
1227.71	1.369	1369.1	pointing	Trial2	pointing/STIM_003.jpg	100
1232.013	0.968	968.0	pointing	Trial2	pointing/STIM_003.jpg	99
1235.431	0.99	990.3	pointing	Trial2	pointing/STIM_003.jpg	99
1240.162	0.901	900.8	pointing	Trial2	pointing/STIM_003.jpg	100
1244.555	1.433	1433.1	pointing	Trial2	pointing/STIM_003.jpg	100
1249.524	1.304	1303.5	pointing	Trial2	pointing/STIM_004.jpg	99
1253.49	1.444	1444.0	pointing	Trial2	pointing/STIM_004.jpg	100
1257.889	1.634	1634.1	pointing	Trial2	pointing/STIM_004.jpg	99
1262.524	0.879	879.4	pointing	Trial2	pointing/STIM_004.jpg	100
1265.526	1.068	1067.7	pointing	Trial2	pointing/STIM_004.jpg	100
1269.458	1.067	1066.8	pointing	Trial2	pointing/STIM_004.jpg	99
1273.292	0.953	953.4	pointing	Trial2	pointing/STIM_005.jpg	100
1277.62	1.042	1041.8	pointing	Trial2	pointing/STIM_005.jpg	100
1282.521	1.447	1446.9	pointing	Trial2	pointing/STIM_005.jpg	99
1286.373	1.094	1094.1	pointing	Trial2	pointing/STIM_005.jpg	100
1291.068	1.065	1064.7	pointing	Trial2	pointing/STIM_005.jpg	99
1293.993	1.173	1172.8	pointing	Trial2	pointing/STIM_005.jpg	99
1297.496	1.675	1675.2	pointing	Trial2	pointing/STIM_006.jpg	99
1302.277	1.224	1223.6	pointing	Trial2	pointing/STIM_006.jpg	99
1306.249	1.168	1167.8	pointing	Trial2	pointing/STIM_006.jpg	100
1309.925	0.938	938.1	pointing	Trial2	pointing/STIM_006.jpg	100
1314.626	1.094	1094.2	pointing	Trial2	pointing/STIM_006.jpg	99
1318.464	1.553	1552.6	pointing	Trial2	pointing/STIM_006.jpg	100
1322.626	0.95	950.3	pointing	Trial2	pointing/STIM_007.jpg	100
1327.316	1.333	1333.2	pointing	Trial2	pointing/STIM_007.jpg	99
1330.878	1.533	1532.9	pointing	Trial2	pointing/STIM_007.jpg	100
1336.055	1.302	1301.7	pointing	Trial2	pointing/STIM_007.jpg	100
1340.859	1.324	1324.4	pointing	Trial2	pointing/STIM_007.jpg	99
1344.203	1.0	1000.5	pointing	Trial2	pointing/STIM_007.jpg	100
1347.37	1.682	1681.5	pointing	Trial2	pointing/STIM_008.jpg	99
1351.048	1.485	1484.6	pointing	Trial2	pointing/STIM_008.jpg	99
1355.579	1.237	1237.1	pointing	Trial2	pointing/STIM_008.jpg	100
1360.43	1.031	1031.0	pointing	Trial2	pointing/STIM_008.jpg	100
1364.694	1.098	1098.5	pointing	Trial2	pointing/STIM_008.jpg	99
1369.154	1.318	1317.5	pointing	Trial2	pointing/STIM_008.jpg	99
1373.134	1.569	1568.6	pointing	Trial2	pointing/STIM_009.jpg	100
1378.268	1.522	1522.1	pointing	Trial2	pointing/STIM_009.jpg	100
1382.716	1.153	1152.8	pointing	Trial2	pointing/STIM_009.jpg	99
1385.901	1.027	1026.6	pointing	Trial2	pointing/STIM_009.jpg	99
1390.165	0.809	809.4	pointing	Trial2	pointing/STIM_009.jpg	99
1393.48	1.206	1205.6	pointing	Trial2	pointing/STIM_009.jpg	99
1397.578	0.864	864.4	pointing	Trial2	pointing/STIM_010.jpg	100
1401.707	1.319	1319.3	pointing	Trial2	pointing/STIM_010.jpg	99
1406.18	1.412	1412.3	pointing	Trial2	pointing/STIM_010.jpg	99
1410.552	1.655	1655.1	pointing	Trial2	pointing/STIM_010.jpg	100
1415.303	1.569	1568.9	pointing	Trial2	pointing/STIM_010.jpg	100
1420.608	1.105	1104.7	pointing	Trial2	pointing/STIM_010.jpg	99
1424.945	0.952	952.0	pointing	Trial2	pointing/STIM_011.jpg	99
1429.525	1.283	1283.0	pointing	Trial2	pointing/STIM_011.jpg	100
1433.273	1.325	1325.3	pointing	Trial2	pointing/STIM_011.jpg	100
1437.022	1.348	1347.9	pointing	Trial2	pointing/STIM_011.jpg	99
1440.707	1.333	1332.8	pointing	Trial2	pointing/STIM_011.jpg	99
1444.7	0.894	894.1	pointing	Trial2	pointing/STIM_011.jpg	100
1448.691	3.735	3735.1	navigation	Trial3	navigation/STIM_000.jpg	99
1455.836	2.095	2094.7	navigation	Trial3	navigation/STIM_000.jpg	99
1460.58	3.7	3699.6	navigation	Trial3	navigation/STIM_000.jpg	99
1466.804	2.566	2565.5	navigation	Trial3	navigation/STIM_000.jpg	99
1471.876	1.661	1660.8	navigation	Trial3	navigation/STIM_000.jpg	100
1476.114	3.45	3450.3	navigation	Trial3	navigation/STIM_000.jpg	99
1482.357	1.866	1865.8	navigation	Trial3	navigation/STIM_001.jpg	99
1487.566	2.797	2797.4	navigation	Trial3	navigation/STIM_001.jpg	100
1493.962	3.336	3335.5	navigation	Trial3	navigation/STIM_001.jpg	100
1499.398	1.812	1812.5	navigation	Trial3	navigation/STIM_001.jpg	100
1503.598	2.566	2565.8	navigation	Trial3	navigation/STIM_001.jpg	100
1509.555	2.342	2342.0	navigation	Trial3	navigation/STIM_001.jpg	100
1514.72	1.659	1658.8	navigation	Trial3	navigation/STIM_002.jpg	99
1519.151	1.593	1593.0	navigation	Trial3	navigation/STIM_002.jpg	100
1522.986	1.738	1738.5	navigation	Trial3	navigation/STIM_002.jpg	100
1528.309	3.65	3649.5	navigation	Trial3	navigation/STIM_002.jpg	100
1534.102	3.338	3337.6	navigation	Trial3	navigation/STIM_002.jpg	100
1539.502	3.075	3075.2	navigation	Trial3	navigation/STIM_002.jpg	99
1545.785	2.837	2837.3	navigation	Trial3	navigation/STIM_003.jpg	100
1551.651	3.559	3559.3	navigation	Trial3	navigation/STIM_003.jpg	100
1557.098	3.865	3864.6	navigation	Trial3	navigation/STIM_003.jpg	99
1564.373	2.778	2777.8	navigation	Trial3	navigation/STIM_003.jpg	99
1569.535	3.222	3222.5	navigation	Trial3	navigation/STIM_003.jpg	99
1574.753	2.015	2015.2	navigation	Trial3	navigation/STIM_003.jpg	99
1580.019	3.574	3573.8	navigation	Trial3	navigation/STIM_004.jpg	99
1586.468	3.321	3321.0	navigation	Trial3	navigation/STIM_004.jpg	99
1593.262	2.155	2154.8	navigation	Trial3	navigation/STIM_004.jpg	99
1598.264	3.344	3343.8	navigation	Trial3	navigation/STIM_004.jpg	100
1603.763	2.7	2700.0	navigation	Trial3	navigation/STIM_004.jpg	100
1609.756	3.646	3646.3	navigation	Trial3	navigation/STIM_004.jpg	99
1616.567	3.828	3827.5	navigation	Trial3	navigation/STIM_005.jpg	99
1623.706	1.98	1980.4	navigation	Trial3	navigation/STIM_005.jpg	100
1627.65	2.276	2275.5	navigation	Trial3	navigation/STIM_005.jpg	99
1631.909	2.287	2286.7	navigation	Trial3	navigation/STIM_005.jpg	99
1637.593	3.372	3372.3	navigation	Trial3	navigation/STIM_005.jpg	99
1643.926	2.662	2662.5	navigation	Trial3	navigation/STIM_005.jpg	100
1648.609	3.039	3039.4	navigation	Trial3	navigation/STIM_006.jpg	100
1653.864	1.587	1587.4	navigation	Trial3	navigation/STIM_006.jpg	100
1658.678	2.788	2788.2	navigation	Trial3	navigation/STIM_006.jpg	99
1663.826	2.325	2324.8	navigation	Trial3	navigation/STIM_006.jpg	100
1668.81	3.616	3616.2	navigation	Trial3	navigation/STIM_006.jpg	100
1674.164	2.362	2361.9	navigation	Trial3	navigation/STIM_006.jpg	99
1678.524	2.08	2080.4	navigation	Trial3	navigation/STIM_007.jpg	100
1682.758	1.664	1664.4	navigation	Trial3	navigation/STIM_007.jpg	100
1686.617	3.69	3689.5	navigation	Trial3	navigation/STIM_007.jpg	100
1692.814	2.939	2938.6	navigation	Trial3	navigation/STIM_007.jpg	100
1698.406	1.972	1972.1	navigation	Trial3	navigation/STIM_007.jpg	100
1703.652	3.494	3494.2	navigation	Trial3	navigation/STIM_007.jpg	99
1710.563	3.748	3747.7	navigation	Trial3	navigation/STIM_008.jpg	100
1716.443	2.858	2858.5	navigation	Trial3	navigation/STIM_008.jpg	100
1722.964	3.188	3187.9	navigation	Trial3	navigation/STIM_008.jpg	99
1729.74	2.952	2951.9	navigation	Trial3	navigation/STIM_008.jpg	99
1735.474	1.635	1635.0	navigation	Trial3	navigation/STIM_008.jpg	100
1739.554	2.994	2993.7	navigation	Trial3	navigation/STIM_008.jpg	100
1744.275	3.797	3797.0	navigation	Trial3	navigation/STIM_009.jpg	100
1751.229	3.48	3480.0	navigation	Trial3	navigation/STIM_009.jpg	99
1756.545	1.576	1576.4	navigation	Trial3	navigation/STIM_009.jpg	99
1761.308	2.955	2954.7	navigation	Trial3	navigation/STIM_009.jpg	100
1767.864	3.738	3738.4	navigation	Trial3	navigation/STIM_009.jpg	100
1775.208	2.258	2257.7	navigation	Trial3	navigation/STIM_009.jpg	99
1781.15	2.836	2836.4	navigation	Trial3	navigation/STIM_010.jpg	99
1786.693	3.088	3088.4	navigation	Trial3	navigation/STIM_010.jpg	99
1793.064	2.677	2676.8	navigation	Trial3	navigation/STIM_010.jpg	99
1798.908	3.414	3413.5	navigation	Trial3	navigation/STIM_010.jpg	100
1805.198	3.401	3401.0	navigation	Trial3	navigation/STIM_010.jpg	100
1811.571	2.889	2889.1	navigation	Trial3	navigation/STIM_010.jpg	99
1816.99	2.748	2747.7	navigation	Trial3	navigation/STIM_011.jpg	99
1823.201	2.749	2749.4	navigation	Trial3	navigation/STIM_011.jpg	100
1827.789	2.702	2702.2	navigation	Trial3	navigation/STIM_011.jpg	99
1833.823	1.969	1968.6	navigation	Trial3	navigation/STIM_011.jpg	99
1838.803	3.813	3813.0	navigation	Trial3	navigation/STIM_011.jpg	100
1845.79	2.417	2416.9	navigation	Trial3	navigation/STIM_011.jpg	99
1850.468	1.465	1465.1	pointing	Trial3	pointing/STIM_000.jpg	100
1855.546	1.054	1053.7	pointing	Trial3	pointing/STIM_000.jpg	100
1859.712	1.142	1141.8	pointing	Trial3	pointing/STIM_000.jpg	99
1863.197	1.347	1347.2	pointing	Trial3	pointing/STIM_000.jpg	100
1868.182	1.433	1433.3	pointing	Trial3	pointing/STIM_000.jpg	100
1873.249	1.541	1541.3	pointing	Trial3	pointing/STIM_000.jpg	100
1877.318	1.486	1485.5	pointing	Trial3	pointing/STIM_001.jpg	100
1880.891	1.437	1437.4	pointing	Trial3	pointing/STIM_001.jpg	99
1884.587	1.365	1364.6	pointing	Trial3	pointing/STIM_001.jpg	99
1888.332	1.162	1162.1	pointing	Trial3	pointing/STIM_001.jpg	100
1893.305	1.682	1682.5	pointing	Trial3	pointing/STIM_001.jpg	99
1897.052	1.326	1326.4	pointing	Trial3	pointing/STIM_001.jpg	100
1900.591	0.949	948.6	pointing	Trial3	pointing/STIM_002.jpg	99
1905.042	1.108	1108.1	pointing	Trial3	pointing/STIM_002.jpg	99
1908.244	1.223	1223.3	pointing	Trial3	pointing/STIM_002.jpg	100
1913.167	1.39	1389.7	pointing	Trial3	pointing/STIM_002.jpg	99
1918.277	1.547	1547.0	pointing	Trial3	pointing/STIM_002.jpg	99
1922.393	1.403	1403.0	pointing	Trial3	pointing/STIM_002.jpg	100
1927.109	1.385	1384.8	pointing	Trial3	pointing/STIM_003.jpg	99
1932.014	0.985	985.0	pointing	Trial3	pointing/STIM_003.jpg	100
1936.713	1.236	1236.4	pointing	Trial3	pointing/STIM_003.jpg	99
1941.28	1.131	1131.4	pointing	Trial3	pointing/STIM_003.jpg	100
1944.716	1.334	1333.7	pointing	Trial3	pointing/STIM_003.jpg	100
1949.019	1.485	1484.7	pointing	Trial3	pointing/STIM_003.jpg	99
1952.651	0.894	894.5	pointing	Trial3	pointing/STIM_004.jpg	100
1956.62	1.31	1310.3	pointing	Trial3	pointing/STIM_004.jpg	99
1960.346	1.685	1684.9	pointing	Trial3	pointing/STIM_004.jpg	99
1965.789	1.224	1224.3	pointing	Trial3	pointing/STIM_004.jpg	99
1970.512	1.469	1469.3	pointing	Trial3	pointing/STIM_004.jpg	99
1975.398	1.492	1491.9	pointing	Trial3	pointing/STIM_004.jpg	100
1980.55	1.413	1412.9	pointing	Trial3	pointing/STIM_005.jpg	99
1983.808	1.316	1316.3	pointing	Trial3	pointing/STIM_005.jpg	100
1988.274	1.109	1109.2	pointing	Trial3	pointing/STIM_005.jpg	99
1992.593	0.908	907.7	pointing	Trial3	pointing/STIM_005.jpg	100
1996.412	1.24	1239.6	pointing	Trial3	pointing/STIM_005.jpg	99
2000.229	1.294	1294.5	pointing	Trial3	pointing/STIM_005.jpg	99
2004.27	1.569	1568.9	pointing	Trial3	pointing/STIM_006.jpg	99
2007.946	1.577	1577.0	pointing	Trial3	pointing/STIM_006.jpg	100
2012.144	0.93	930.2	pointing	Trial3	pointing/STIM_006.jpg	100
2015.174	1.33	1330.1	pointing	Trial3	pointing/STIM_006.jpg	100
2018.646	1.696	1696.2	pointing	Trial3	pointing/STIM_006.jpg	99
2022.237	1.208	1207.5	pointing	Trial3	pointing/STIM_006.jpg	99
2027.261	1.617	1616.7	pointing	Trial3	pointing/STIM_007.jpg	99
2032.471	1.172	1172.1	pointing	Trial3	pointing/STIM_007.jpg	99
2035.671	1.306	1306.5	pointing	Trial3	pointing/STIM_007.jpg	100
2039.214	1.268	1267.5	pointing	Trial3	pointing/STIM_007.jpg	100
2043.297	1.551	1551.2	pointing	Trial3	pointing/STIM_007.jpg	100
2048.608	1.384	1384.3	pointing	Trial3	pointing/STIM_007.jpg	99
2053.583	1.697	1697.1	pointing	Trial3	pointing/STIM_008.jpg	100
2057.38	1.068	1067.8	pointing	Trial3	pointing/STIM_008.jpg	100
2060.574	1.471	1470.9	pointing	Trial3	pointing/STIM_008.jpg	99
2065.833	1.159	1158.9	pointing	Trial3	pointing/STIM_008.jpg	100
2070.79	1.086	1086.1	pointing	Trial3	pointing/STIM_008.jpg	99
2075.574	1.516	1515.7	pointing	Trial3	pointing/STIM_008.jpg	100
2080.004	1.079	1079.0	pointing	Trial3	pointing/STIM_009.jpg	100
2083.239	1.314	1313.7	pointing	Trial3	pointing/STIM_009.jpg	99
2087.814	1.141	1140.6	pointing	Trial3	pointing/STIM_009.jpg	100
2092.061	1.312	1311.7	pointing	Trial3	pointing/STIM_009.jpg	99
2096.9	0.988	988.5	pointing	Trial3	pointing/STIM_009.jpg	99
2100.818	1.365	1365.3	pointing	Trial3	pointing/STIM_009.jpg	100
2105.532	1.232	1232.2	pointing	Trial3	pointing/STIM_010.jpg	99
2109.302	1.049	1048.9	pointing	Trial3	pointing/STIM_010.jpg	100
2113.179	1.435	1435.4	pointing	Trial3	pointing/STIM_010.jpg	99
2117.424	1.095	1095.0	pointing	Trial3	pointing/STIM_010.jpg	100
2121.276	0.939	938.9	pointing	Trial3	pointing/STIM_010.jpg	99
2126.008	1.397	1397.3	pointing	Trial3	pointing/STIM_010.jpg	100
2130.547	1.359	1359.2	pointing	Trial3	pointing/STIM_011.jpg	99
2134.544	1.381	1380.6	pointing	Trial3	pointing/STIM_011.jpg	99
2138.846	1.094	1094.5	pointing	Trial3	pointing/STIM_011.jpg	100
2142.191	1.469	1468.6	pointing	Trial3	pointing/STIM_011.jpg	99
2147.105	0.904	904.5	pointing	Trial3	pointing/STIM_011.jpg	100
2151.428	1.516	1515.5	pointing	Trial3	pointing/STIM_011.jpg	100
