onset	duration	accuracy_binary	trial_type	learning_stage	stimulus
0.0	1.135	1	2back	Block1	2back/STIM_000.jpg
3.746	1.031	0	2back	Block1	2back/STIM_000.jpg
7.266	0.763	1	2back	Block1	2back/STIM_000.jpg
10.747	1.007	0	2back	Block1	2back/STIM_001.jpg
15.543	0.77	1	2back	Block1	2back/STIM_001.jpg
18.825	1.155	0	2back	Block1	2back/STIM_001.jpg
23.675	0.701	1	2back	Block1	2back/STIM_002.jpg
28.078	1.033	1	2back	Block1	2back/STIM_002.jpg
32.104	0.999	1	2back	Block1	2back/STIM_002.jpg
36.661	0.931	1	2back	Block1	2back/STIM_003.jpg
40.885	1.04	0	2back	Block1	2back/STIM_003.jpg
45.424	0.388	1	2back	Block1	2back/STIM_003.jpg
49.487	0.997	1	2back	Block1	2back/STIM_004.jpg
54.365	0.577	0	2back	Block1	2back/STIM_004.jpg
58.848	0.967	1	2back	Block1	2back/STIM_004.jpg
62.971	0.794	1	2back	Block1	2back/STIM_005.jpg
67.122	1.038	1	2back	Block1	2back/STIM_005.jpg
71.799	0.948	1	2back	Block1	2back/STIM_005.jpg
76.253	1.069	1	2back	Block1	2back/STIM_006.jpg
80.09	0.786	1	2back	Block1	2back/STIM_006.jpg
84.4	0.806	1	2back	Block1	2back/STIM_006.jpg
87.839	1.202	1	2back	Block1	2back/STIM_007.jpg
92.487	0.745	0	2back	Block1	2back/STIM_007.jpg
95.575	0.758	1	2back	Block1	2back/STIM_007.jpg
100.281	0.94	1	2back	Block1	2back/STIM_008.jpg
105.187	0.922	1	2back	Block1	2back/STIM_008.jpg
109.874	0.86	1	2back	Block1	2back/STIM_008.jpg
113.638	1.158	1	2back	Block1	2back/STIM_009.jpg
118.913	1.048	1	2back	Block1	2back/STIM_009.jpg
123.325	0.79	0	2back	Block1	2back/STIM_009.jpg
127.391	0.478	0	2back	Block1	2back/STIM_010.jpg
130.349	0.814	1	2back	Block1	2back/STIM_010.jpg
133.657	0.533	1	2back	Block1	2back/STIM_010.jpg
138.207	0.729	1	2back	Block1	2back/STIM_011.jpg
141.908	1.029	1	2back	Block1	2back/STIM_011.jpg
145.93	0.846	0	2back	Block1	2back/STIM_011.jpg
149.982	1.144	1	2back	Block1	2back/STIM_012.jpg
155.255	1.138	1	2back	Block1	2back/STIM_012.jpg
158.751	0.723	1	2back	Block1	2back/STIM_012.jpg
162.728	0.576	1	2back	Block1	2back/STIM_013.jpg
166.14	0.955	1	2back	Block1	2back/STIM_013.jpg
170.211	0.937	0	2back	Block1	2back/STIM_013.jpg
173.644	1.105	1	2back	Block1	2back/STIM_014.jpg
178.786	0.38	1	2back	Block1	2back/STIM_014.jpg
182.532	0.674	1	2back	Block1	2back/STIM_014.jpg
185.324	0.988	1	2back	Block1	2back/STIM_015.jpg
190.468	0.589	1	2back	Block1	2back/STIM_015.jpg
193.64	0.51	1	2back	Block1	2back/STIM_015.jpg
197.605	0.833	0	2back	Block1	2back/STIM_016.jpg
201.237	0.961	1	2back	Block1	2back/STIM_016.jpg
206.352	0.937	1	2back	Block1	2back/STIM_016.jpg
211.17	0.873	1	2back	Block1	2back/STIM_017.jpg
215.587	0.865	1	2back	Block1	2back/STIM_017.jpg
219.788	0.643	1	2back	Block1	2back/STIM_017.jpg
222.52	1.03	1	2back	Block1	2back/STIM_018.jpg
227.177	0.723	1	2back	Block1	2back/STIM_018.jpg
231.021	0.528	1	2back	Block1	2back/STIM_018.jpg
233.77	0.724	1	2back	Block1	2back/STIM_019.jpg
237.983	0.94	0	2back	Block1	2back/STIM_019.jpg
242.966	0.762	1	2back	Block1	2back/STIM_019.jpg
247.356	0.576	1	2back	Block1	2back/STIM_020.jpg
250.205	0.586	1	2back	Block1	2back/STIM_020.jpg
252.928	0.817	0	2back	Block1	2back/STIM_020.jpg
256.528	0.997	1	2back	Block1	2back/STIM_021.jpg
261.494	1.179	1	2back	Block1	2back/STIM_021.jpg
266.39	0.628	1	2back	Block1	2back/STIM_021.jpg
270.243	0.906	1	2back	Block1	2back/STIM_022.jpg
274.952	1.015	1	2back	Block1	2back/STIM_022.jpg
279.823	1.04	1	2back	Block1	2back/STIM_022.jpg
284.72	0.86	1	2back	Block1	2back/STIM_023.jpg
289.371	0.558	1	2back	Block1	2back/STIM_023.jpg
292.223	0.955	0	2back	Block1	2back/STIM_023.jpg
296.197	0.654	1	2back	Block1	2back/STIM_024.jpg
299.744	0.606	1	2back	Block1	2back/STIM_024.jpg
303.311	0.697	1	2back	Block1	2back/STIM_024.jpg
306.581	0.742	1	2back	Block1	2back/STIM_025.jpg
310.926	0.612	1	2back	Block1	2back/STIM_025.jpg
314.413	0.997	1	2back	Block1	2back/STIM_025.jpg
318.223	1.141	1	2back	Block1	2back/STIM_026.jpg
322.794	0.957	1	2back	Block1	2back/STIM_026.jpg
326.732	0.529	0	2back	Block1	2back/STIM_026.jpg
330.959	1.022	0	2back	Block1	2back/STIM_027.jpg
334.481	0.791	1	2back	Block1	2back/STIM_027.jpg
338.47	0.8	1	2back	Block1	2back/STIM_027.jpg
342.611	0.964	1	2back	Block1	2back/STIM_028.jpg
346.217	0.529	0	2back	Block1	2back/STIM_028.jpg
349.274	0.575	1	2back	Block1	2back/STIM_028.jpg
352.806	1.156	1	2back	Block1	2back/STIM_029.jpg
358.017	0.559	1	2back	Block1	2back/STIM_029.jpg
361.171	1.074	0	2back	Block1	2back/STIM_029.jpg
365.314	0.987	1	2back	Block1	2back/STIM_030.jpg
368.927	0.8	1	2back	Block1	2back/STIM_030.jpg
372.139	1.075	1	2back	Block1	2back/STIM_030.jpg
376.644	0.866	0	2back	Block1	2back/STIM_031.jpg
381.067	1.011	1	2back	Block1	2back/STIM_031.jpg
385.338	0.9	1	2back	Block1	2back/STIM_031.jpg
389.701	0.577	1	2back	Block1	2back/STIM_032.jpg
392.932	1.042	1	2back	Block1	2back/STIM_032.jpg
397.837	0.662	0	2back	Block1	2back/STIM_032.jpg
401.833	0.827	1	2back	Block1	2back/STIM_033.jpg
406.088	0.959	1	2back	Block1	2back/STIM_033.jpg
409.613	0.881	0	2back	Block1	2back/STIM_033.jpg
413.515	0.727	1	2back	Block1	2back/STIM_034.jpg
418.425	0.52	1	2back	Block1	2back/STIM_034.jpg
421.952	0.489	1	2back	Block1	2back/STIM_034.jpg
426.184	0.896	1	2back	Block1	2back/STIM_035.jpg
429.6	0.483	1	2back	Block1	2back/STIM_035.jpg
432.505	0.673	1	2back	Block1	2back/STIM_035.jpg
435.566	0.461	1	2back	Block1	2back/STIM_036.jpg
439.91	1.063	1	2back	Block1	2back/STIM_036.jpg
443.749	0.752	1	2back	Block1	2back/STIM_036.jpg
448.55	1.104	1	2back	Block1	2back/STIM_037.jpg
453.782	1.011	1	2back	Block1	2back/STIM_037.jpg
458.155	0.618	1	2back	Block1	2back/STIM_037.jpg
460.895	1.08	1	2back	Block1	2back/STIM_038.jpg
465.994	0.834	1	2back	Block1	2back/STIM_038.jpg
470.077	0.738	1	2back	Block1	2back/STIM_038.jpg
474.24	0.742	0	2back	Block1	2back/STIM_039.jpg
477.731	0.571	1	2back	Block1	2back/STIM_039.jpg
481.859	0.496	1	2back	Block1	2back/STIM_039.jpg
484.78	0.576	0	0back	Block1	0back/STIM_000.jpg
489.183	0.52	1	0back	Block1	0back/STIM_000.jpg
493.452	0.313	1	0back	Block1	0back/STIM_000.jpg
496.71	0.56	1	0back	Block1	0back/STIM_001.jpg
499.897	0.337	1	0back	Block1	0back/STIM_001.jpg
503.707	0.53	1	0back	Block1	0back/STIM_001.jpg
507.409	0.468	1	0back	Block1	0back/STIM_002.jpg
510.785	0.661	1	0back	Block1	0back/STIM_002.jpg
514.265	0.409	1	0back	Block1	0back/STIM_002.jpg
516.896	0.698	1	0back	Block1	0back/STIM_003.jpg
521.341	0.621	1	0back	Block1	0back/STIM_003.jpg
525.489	0.628	0	0back	Block1	0back/STIM_003.jpg
529.492	0.471	1	0back	Block1	0back/STIM_004.jpg
532.558	0.701	1	0back	Block1	0back/STIM_004.jpg
537.157	0.508	1	0back	Block1	0back/STIM_004.jpg
540.11	0.53	1	0back	Block1	0back/STIM_005.jpg
543.217	0.7	0	0back	Block1	0back/STIM_005.jpg
547.579	0.615	1	0back	Block1	0back/STIM_005.jpg
550.785	0.775	1	0back	Block1	0back/STIM_006.jpg
554.877	0.478	1	0back	Block1	0back/STIM_006.jpg
559.164	0.488	1	0back	Block1	0back/STIM_006.jpg
562.67	0.67	1	0back	Block1	0back/STIM_007.jpg
566.491	0.361	1	0back	Block1	0back/STIM_007.jpg
569.885	0.572	1	0back	Block1	0back/STIM_007.jpg
573.908	0.599	1	0back	Block1	0back/STIM_008.jpg
576.879	0.547	1	0back	Block1	0back/STIM_008.jpg
580.976	0.624	1	0back	Block1	0back/STIM_008.jpg
584.813	0.449	1	0back	Block1	0back/STIM_009.jpg
588.308	0.567	1	0back	Block1	0back/STIM_009.jpg
592.059	0.415	1	0back	Block1	0back/STIM_009.jpg
594.919	0.405	1	0back	Block1	0back/STIM_010.jpg
597.568	0.699	1	0back	Block1	0back/STIM_010.jpg
601.391	0.483	1	0back	Block1	0back/STIM_010.jpg
605.112	0.453	1	0back	Block1	0back/STIM_011.jpg
608.583	0.766	1	0back	Block1	0back/STIM_011.jpg
612.581	0.439	0	0back	Block1	0back/STIM_011.jpg
615.372	0.626	1	0back	Block1	0back/STIM_012.jpg
619.844	0.471	1	0back	Block1	0back/STIM_012.jpg
622.62	0.494	0	0back	Block1	0back/STIM_012.jpg
626.155	0.501	1	0back	Block1	0back/STIM_013.jpg
629.799	0.575	1	0back	Block1	0back/STIM_013.jpg
633.46	0.639	1	0back	Block1	0back/STIM_013.jpg
637.632	0.25	1	0back	Block1	0back/STIM_014.jpg
640.789	0.583	1	0back	Block1	0back/STIM_014.jpg
644.444	0.667	1	0back	Block1	0back/STIM_014.jpg
647.57	0.56	1	0back	Block1	0back/STIM_015.jpg
650.288	0.537	1	0back	Block1	0back/STIM_015.jpg
653.494	0.534	1	0back	Block1	0back/STIM_015.jpg
657.967	0.534	1	0back	Block1	0back/STIM_016.jpg
661.857	0.373	1	0back	Block1	0back/STIM_016.jpg
664.51	0.453	1	0back	Block1	0back/STIM_016.jpg
667.52	0.586	1	0back	Block1	0back/STIM_017.jpg
670.298	0.475	1	0back	Block1	0back/STIM_017.jpg
673.86	0.535	1	0back	Block1	0back/STIM_017.jpg
677.209	0.519	1	0back	Block1	0back/STIM_018.jpg
680.824	0.496	1	0back	Block1	0back/STIM_018.jpg
683.344	0.622	1	0back	Block1	0back/STIM_018.jpg
686.898	0.611	0	0back	Block1	0back/STIM_019.jpg
690.15	0.386	1	0back	Block1	0back/STIM_019.jpg
693.371	0.532	0	0back	Block1	0back/STIM_019.jpg
695.866	0.936	1	2back	Block2	2back/STIM_000.jpg
699.925	0.797	1	2back	Block2	2back/STIM_000.jpg
704.751	0.729	1	2back	Block2	2back/STIM_000.jpg
708.763	0.512	0	2back	Block2	2back/STIM_001.jpg
712.217	0.676	1	2back	Block2	2back/STIM_001.jpg
715.48	0.576	1	2back	Block2	2back/STIM_001.jpg
719.59	1.097	1	2back	Block2	2back/STIM_002.jpg
723.379	1.001	1	2back	Block2	2back/STIM_002.jpg
727.16	0.74	1	2back	Block2	2back/STIM_002.jpg
732.014	0.466	1	2back	Block2	2back/STIM_003.jpg
735.965	1.012	1	2back	Block2	2back/STIM_003.jpg
740.241	0.826	1	2back	Block2	2back/STIM_003.jpg
743.689	0.619	1	2back	Block2	2back/STIM_004.jpg
748.392	0.463	1	2back	Block2	2back/STIM_004.jpg
752.875	0.684	1	2back	Block2	2back/STIM_004.jpg
756.259	0.556	1	2back	Block2	2back/STIM_005.jpg
760.516	0.419	1	2back	Block2	2back/STIM_005.jpg
763.397	0.882	1	2back	Block2	2back/STIM_005.jpg
767.521	0.693	1	2back	Block2	2back/STIM_006.jpg
771.795	0.584	0	2back	Block2	2back/STIM_006.jpg
775.83	0.509	1	2back	Block2	2back/STIM_006.jpg
779.935	0.787	1	2back	Block2	2back/STIM_007.jpg
783.782	0.532	1	2back	Block2	2back/STIM_007.jpg
787.157	0.529	1	2back	Block2	2back/STIM_007.jpg
790.029	0.549	1	2back	Block2	2back/STIM_008.jpg
793.491	0.829	1	2back	Block2	2back/STIM_008.jpg
797.722	0.786	1	2back	Block2	2back/STIM_008.jpg
801.783	0.79	0	2back	Block2	2back/STIM_009.jpg
804.912	0.555	1	2back	Block2	2back/STIM_009.jpg
808.455	0.479	1	2back	Block2	2back/STIM_009.jpg
811.977	0.501	1	2back	Block2	2back/STIM_010.jpg
814.756	0.662	0	2back	Block2	2back/STIM_010.jpg
818.788	0.776	0	2back	Block2	2back/STIM_010.jpg
822.563	0.939	1	2back	Block2	2back/STIM_011.jpg
826.461	0.473	1	2back	Block2	2back/STIM_011.jpg
829.623	0.427	1	2back	Block2	2back/STIM_011.jpg
833.426	0.906	1	2back	Block2	2back/STIM_012.jpg
837.687	0.893	1	2back	Block2	2back/STIM_012.jpg
841.335	0.574	1	2back	Block2	2back/STIM_012.jpg
844.29	0.611	1	2back	Block2	2back/STIM_013.jpg
848.284	0.552	1	2back	Block2	2back/STIM_013.jpg
852.173	0.757	1	2back	Block2	2back/STIM_013.jpg
855.576	0.573	1	2back	Block2	2back/STIM_014.jpg
859.697	0.868	1	2back	Block2	2back/STIM_014.jpg
862.874	0.796	1	2back	Block2	2back/STIM_014.jpg
866.932	0.572	0	2back	Block2	2back/STIM_015.jpg
870.483	0.703	1	2back	Block2	2back/STIM_015.jpg
874.534	0.703	1	2back	Block2	2back/STIM_015.jpg
879.185	0.43	1	2back	Block2	2back/STIM_016.jpg
882.725	0.569	1	2back	Block2	2back/STIM_016.jpg
886.932	0.654	0	2back	Block2	2back/STIM_016.jpg
890.717	0.637	1	2back	Block2	2back/STIM_017.jpg
894.48	0.928	1	2back	Block2	2back/STIM_017.jpg
897.829	0.489	1	2back	Block2	2back/STIM_017.jpg
901.523	0.97	1	2back	Block2	2back/STIM_018.jpg
906.166	0.771	1	2back	Block2	2back/STIM_018.jpg
909.3	0.525	1	2back	Block2	2back/STIM_018.jpg
913.147	0.816	1	2back	Block2	2back/STIM_019.jpg
916.329	0.43	1	2back	Block2	2back/STIM_019.jpg
920.42	0.895	1	2back	Block2	2back/STIM_019.jpg
924.708	0.38	0	2back	Block2	2back/STIM_020.jpg
927.942	0.694	0	2back	Block2	2back/STIM_020.jpg
931.221	0.781	1	2back	Block2	2back/STIM_020.jpg
935.636	1.049	1	2back	Block2	2back/STIM_021.jpg
939.579	0.576	1	2back	Block2	2back/STIM_021.jpg
942.508	0.888	1	2back	Block2	2back/STIM_021.jpg
946.281	0.801	1	2back	Block2	2back/STIM_022.jpg
950.799	0.855	1	2back	Block2	2back/STIM_022.jpg
954.528	0.621	1	2back	Block2	2back/STIM_022.jpg
957.861	0.939	1	2back	Block2	2back/STIM_023.jpg
962.471	0.553	1	2back	Block2	2back/STIM_023.jpg
966.421	0.486	0	2back	Block2	2back/STIM_023.jpg
970.814	0.881	1	2back	Block2	2back/STIM_024.jpg
973.99	0.8	1	2back	Block2	2back/STIM_024.jpg
978.801	0.425	0	2back	Block2	2back/STIM_024.jpg
982.743	0.848	1	2back	Block2	2back/STIM_025.jpg
987.745	0.768	1	2back	Block2	2back/STIM_025.jpg
990.898	0.787	1	2back	Block2	2back/STIM_025.jpg
994.706	0.571	1	2back	Block2	2back/STIM_026.jpg
997.751	0.608	1	2back	Block2	2back/STIM_026.jpg
1002.092	0.452	1	2back	Block2	2back/STIM_026.jpg
1005.221	0.942	1	2back	Block2	2back/STIM_027.jpg
1008.533	0.726	1	2back	Block2	2back/STIM_027.jpg
1012.325	0.441	1	2back	Block2	2back/STIM_027.jpg
1014.908	1.051	1	2back	Block2	2back/STIM_028.jpg
1018.461	0.757	1	2back	Block2	2back/STIM_028.jpg
1021.534	0.69	1	2back	Block2	2back/STIM_028.jpg
1025.272	0.755	1	2back	Block2	2back/STIM_029.jpg
1028.158	0.467	1	2back	Block2	2back/STIM_029.jpg
1032.628	0.398	1	2back	Block2	2back/STIM_029.jpg
1035.924	0.65	0	2back	Block2	2back/STIM_030.jpg
1040.238	0.496	1	2back	Block2	2back/STIM_030.jpg
1043.292	0.399	1	2back	Block2	2back/STIM_030.jpg
1046.049	0.993	1	2back	Block2	2back/STIM_031.jpg
1050.216	0.479	0	2back	Block2	2back/STIM_031.jpg
1053.099	0.742	1	2back	Block2	2back/STIM_031.jpg
1057.354	0.468	0	2back	Block2	2back/STIM_032.jpg
1061.728	0.86	1	2back	Block2	2back/STIM_032.jpg
1065.72	0.779	1	2back	Block2	2back/STIM_032.jpg
1068.749	0.794	1	2back	Block2	2back/STIM_033.jpg
1073.155	0.52	1	2back	Block2	2back/STIM_033.jpg
1077.565	0.739	1	2back	Block2	2back/STIM_033.jpg
1082.412	0.66	1	2back	Block2	2back/STIM_034.jpg
1086.883	0.421	1	2back	Block2	2back/STIM_034.jpg
1089.722	0.852	1	2back	Block2	2back/STIM_034.jpg
1094.171	0.577	1	2back	Block2	2back/STIM_035.jpg
1097.586	0.68	0	2back	Block2	2back/STIM_035.jpg
1100.463	0.743	1	2back	Block2	2back/STIM_035.jpg
1105.033	0.933	1	2back	Block2	2back/STIM_036.jpg
1109.156	0.564	1	2back	Block2	2back/STIM_036.jpg
1111.954	0.685	1	2back	Block2	2back/STIM_036.jpg
1115.645	0.735	1	2back	Block2	2back/STIM_037.jpg
1119.05	0.536	1	2back	Block2	2back/STIM_037.jpg
1122.708	0.501	1	2back	Block2	2back/STIM_037.jpg
1126.014	1.004	1	2back	Block2	2back/STIM_038.jpg
1129.643	0.865	1	2back	Block2	2back/STIM_038.jpg
1133.416	0.438	1	2back	Block2	2back/STIM_038.jpg
1136.738	0.68	1	2back	Block2	2back/STIM_039.jpg
1139.755	0.923	1	2back	Block2	2back/STIM_039.jpg
1144.096	0.862	0	2back	Block2	2back/STIM_039.jpg
1148.445	0.503	1	0back	Block2	0back/STIM_000.jpg
1151.688	0.392	1	0back	Block2	0back/STIM_000.jpg
1155.381	0.649	1	0back	Block2	0back/STIM_000.jpg
1159.473	0.464	1	0back	Block2	0back/STIM_001.jpg
1162.222	0.536	1	0back	Block2	0back/STIM_001.jpg
1165.555	0.457	1	0back	Block2	0back/STIM_001.jpg
1169.607	0.653	1	0back	Block2	0back/STIM_002.jpg
1174.02	0.553	1	0back	Block2	0back/STIM_002.jpg
1178.443	0.591	1	0back	Block2	0back/STIM_002.jpg
1182.457	0.381	1	0back	Block2	0back/STIM_003.jpg
1186.341	0.754	1	0back	Block2	0back/STIM_003.jpg
1190.931	0.479	1	0back	Block2	0back/STIM_003.jpg
1193.565	0.566	0	0back	Block2	0back/STIM_004.jpg
1197.556	0.47	1	0back	Block2	0back/STIM_004.jpg
1200.413	0.488	1	0back	Block2	0back/STIM_004.jpg
1204.777	0.387	1	0back	Block2	0back/STIM_005.jpg
1208.977	0.568	1	0back	Block2	0back/STIM_005.jpg
1212.503	0.334	1	0back	Block2	0back/STIM_005.jpg
1216.46	0.501	1	0back	Block2	0back/STIM_006.jpg
1219.907	0.363	1	0back	Block2	0back/STIM_006.jpg
1223.915	0.426	1	0back	Block2	0back/STIM_006.jpg
1227.235	0.466	1	0back	Block2	0back/STIM_007.jpg
1229.893	0.653	1	0back	Block2	0back/STIM_007.jpg
1233.62	0.565	1	0back	Block2	0back/STIM_007.jpg
1236.786	0.584	1	0back	Block2	0back/STIM_008.jpg
1240.887	0.392	1	0back	Block2	0back/STIM_008.jpg
1243.676	0.657	1	0back	Block2	0back/STIM_008.jpg
1248.107	0.686	0	0back	Block2	0back/STIM_009.jpg
1251.476	0.604	1	0back	Block2	0back/STIM_009.jpg
1254.449	0.42	1	0back	Block2	0back/STIM_009.jpg
1258.777	0.485	1	0back	Block2	0back/STIM_010.jpg
1263.136	0.237	1	0back	Block2	0back/STIM_010.jpg
1266.239	0.574	1	0back	Block2	0back/STIM_010.jpg
1270.351	0.583	1	0back	Block2	0back/STIM_011.jpg
1274.826	0.712	1	0back	Block2	0back/STIM_011.jpg
1278.967	0.613	1	0back	Block2	0back/STIM_011.jpg
1283.192	0.441	1	0back	Block2	0back/STIM_012.jpg
1287.13	0.469	1	0back	Block2	0back/STIM_012.jpg
1290.035	0.739	1	0back	Block2	0back/STIM_012.jpg
1294.704	0.571	1	0back	Block2	0back/STIM_013.jpg
1297.629	0.41	1	0back	Block2	0back/STIM_013.jpg
1301.741	0.325	1	0back	Block2	0back/STIM_013.jpg
1304.409	0.302	1	0back	Block2	0back/STIM_014.jpg
1307.931	0.468	1	0back	Block2	0back/STIM_014.jpg
1311.75	0.37	1	0back	Block2	0back/STIM_014.jpg
1315.054	0.462	1	0back	Block2	0back/STIM_015.jpg
1318.042	0.474	1	0back	Block2	0back/STIM_015.jpg
1321.749	0.445	1	0back	Block2	0back/STIM_015.jpg
1325.117	0.496	0	0back	Block2	0back/STIM_016.jpg
1328.069	0.427	1	0back	Block2	0back/STIM_016.jpg
1332.541	0.592	1	0back	Block2	0back/STIM_016.jpg
1336.199	0.216	1	0back	Block2	0back/STIM_017.jpg
1339.894	0.381	1	0back	Block2	0back/STIM_017.jpg
1343.186	0.686	1	0back	Block2	0back/STIM_017.jpg
1347.001	0.558	1	0back	Block2	0back/STIM_018.jpg
1350.38	0.414	1	0back	Block2	0back/STIM_018.jpg
1354.372	0.739	1	0back	Block2	0back/STIM_018.jpg
1358.642	0.58	1	0back	Block2	0back/STIM_019.jpg
1362.332	0.489	1	0back	Block2	0back/STIM_019.jpg
1365.0	0.526	1	0back	Block2	0back/STIM_019.jpg
1368.168	0.7	1	2back	Block3	2back/STIM_000.jpg
1372.744	0.522	1	2back	Block3	2back/STIM_000.jpg
1375.358	0.56	1	2back	Block3	2back/STIM_000.jpg
1378.344	0.753	1	2back	Block3	2back/STIM_001.jpg
1381.299	0.53	1	2back	Block3	2back/STIM_001.jpg
1385.669	0.492	1	2back	Block3	2back/STIM_001.jpg
1389.697	0.841	1	2back	Block3	2back/STIM_002.jpg
1393.92	0.539	0	2back	Block3	2back/STIM_002.jpg
1397.303	0.717	1	2back	Block3	2back/STIM_002.jpg
1400.708	0.421	0	2back	Block3	2back/STIM_003.jpg
1404.509	0.605	0	2back	Block3	2back/STIM_003.jpg
1407.704	0.484	1	2back	Block3	2back/STIM_003.jpg
1411.641	0.513	1	2back	Block3	2back/STIM_004.jpg
1414.303	0.494	1	2back	Block3	2back/STIM_004.jpg
1417.996	0.872	1	2back	Block3	2back/STIM_004.jpg
1421.291	0.545	1	2back	Block3	2back/STIM_005.jpg
1424.559	0.441	1	2back	Block3	2back/STIM_005.jpg
1427.123	0.767	1	2back	Block3	2back/STIM_005.jpg
1430.259	0.399	1	2back	Block3	2back/STIM_006.jpg
1434.657	0.651	1	2back	Block3	2back/STIM_006.jpg
1437.943	0.738	1	2back	Block3	2back/STIM_006.jpg
1441.756	0.608	1	2back	Block3	2back/STIM_007.jpg
1444.721	0.529	1	2back	Block3	2back/STIM_007.jpg
1448.332	0.657	1	2back	Block3	2back/STIM_007.jpg
1452.515	0.441	1	2back	Block3	2back/STIM_008.jpg
1455.407	0.704	1	2back	Block3	2back/STIM_008.jpg
1458.444	0.458	1	2back	Block3	2back/STIM_008.jpg
1461.868	0.722	1	2back	Block3	2back/STIM_009.jpg
1465.069	0.758	1	2back	Block3	2back/STIM_009.jpg
1468.715	0.662	1	2back	Block3	2back/STIM_009.jpg
1471.782	0.363	1	2back	Block3	2back/STIM_010.jpg
1476.163	0.487	1	2back	Block3	2back/STIM_010.jpg
1479.0	0.561	1	2back	Block3	2back/STIM_010.jpg
1481.81	0.525	1	2back	Block3	2back/STIM_011.jpg
1484.613	0.791	1	2back	Block3	2back/STIM_011.jpg
1488.322	0.392	1	2back	Block3	2back/STIM_011.jpg
1492.724	0.739	1	2back	Block3	2back/STIM_012.jpg
1496.525	0.589	1	2back	Block3	2back/STIM_012.jpg
1500.611	0.465	1	2back	Block3	2back/STIM_012.jpg
1505.016	0.446	1	2back	Block3	2back/STIM_013.jpg
1508.544	0.603	1	2back	Block3	2back/STIM_013.jpg
1511.693	0.368	1	2back	Block3	2back/STIM_013.jpg
1514.771	0.772	1	2back	Block3	2back/STIM_014.jpg
1518.187	0.581	1	2back	Block3	2back/STIM_014.jpg
1521.868	0.322	1	2back	Block3	2back/STIM_014.jpg
1524.67	0.422	1	2back	Block3	2back/STIM_015.jpg
1528.71	0.781	1	2back	Block3	2back/STIM_015.jpg
1532.032	0.456	0	2back	Block3	2back/STIM_015.jpg
1535.583	0.827	1	2back	Block3	2back/STIM_016.jpg
1540.07	0.717	1	2back	Block3	2back/STIM_016.jpg
1543.765	0.506	1	2back	Block3	2back/STIM_016.jpg
1547.874	0.534	0	2back	Block3	2back/STIM_017.jpg
1550.93	0.552	1	2back	Block3	2back/STIM_017.jpg
1555.263	0.718	1	2back	Block3	2back/STIM_017.jpg
1559.044	0.443	1	2back	Block3	2back/STIM_018.jpg
1562.564	0.59	1	2back	Block3	2back/STIM_018.jpg
1565.744	0.856	1	2back	Block3	2back/STIM_018.jpg
1568.978	0.696	1	2back	Block3	2back/STIM_019.jpg
1572.472	0.836	1	2back	Block3	2back/STIM_019.jpg
1576.944	0.396	1	2back	Block3	2back/STIM_019.jpg
1580.665	0.636	1	2back	Block3	2back/STIM_020.jpg
1583.624	0.765	1	2back	Block3	2back/STIM_020.jpg
1588.294	0.376	1	2back	Block3	2back/STIM_020.jpg
1590.77	0.794	1	2back	Block3	2back/STIM_021.jpg
1594.597	0.36	1	2back	Block3	2back/STIM_021.jpg
1598.463	0.735	1	2back	Block3	2back/STIM_021.jpg
1603.275	0.614	1	2back	Block3	2back/STIM_022.jpg
1607.373	0.373	1	2back	Block3	2back/STIM_022.jpg
1611.383	0.442	1	2back	Block3	2back/STIM_022.jpg
1614.101	0.671	1	2back	Block3	2back/STIM_023.jpg
1617.218	0.738	1	2back	Block3	2back/STIM_023.jpg
1620.323	0.716	1	2back	Block3	2back/STIM_023.jpg
1623.9	0.434	1	2back	Block3	2back/STIM_024.jpg
1627.373	0.477	1	2back	Block3	2back/STIM_024.jpg
1630.716	0.726	1	2back	Block3	2back/STIM_024.jpg
1634.201	0.478	0	2back	Block3	2back/STIM_025.jpg
1638.055	0.678	1	2back	Block3	2back/STIM_025.jpg
1641.512	0.494	1	2back	Block3	2back/STIM_025.jpg
1645.846	0.455	1	2back	Block3	2back/STIM_026.jpg
1650.032	0.438	1	2back	Block3	2back/STIM_026.jpg
1652.857	0.692	1	2back	Block3	2back/STIM_026.jpg
1657.373	0.546	1	2back	Block3	2back/STIM_027.jpg
1661.524	0.888	1	2back	Block3	2back/STIM_027.jpg
1665.076	0.697	1	2back	Block3	2back/STIM_027.jpg
1669.551	0.83	1	2back	Block3	2back/STIM_028.jpg
1673.465	0.593	1	2back	Block3	2back/STIM_028.jpg
1677.721	0.612	1	2back	Block3	2back/STIM_028.jpg
1681.64	0.82	1	2back	Block3	2back/STIM_029.jpg
1685.188	0.461	1	2back	Block3	2back/STIM_029.jpg
1689.636	0.573	1	2back	Block3	2back/STIM_029.jpg
1693.962	0.574	1	2back	Block3	2back/STIM_030.jpg
1698.217	0.514	1	2back	Block3	2back/STIM_030.jpg
1701.438	0.653	1	2back	Block3	2back/STIM_030.jpg
1705.454	0.434	1	2back	Block3	2back/STIM_031.jpg
1708.781	0.61	1	2back	Block3	2back/STIM_031.jpg
1712.702	0.592	1	2back	Block3	2back/STIM_031.jpg
1716.763	0.475	1	2back	Block3	2back/STIM_032.jpg
1719.801	0.442	1	2back	Block3	2back/STIM_032.jpg
1723.899	0.676	1	2back	Block3	2back/STIM_032.jpg
1728.296	0.567	1	2back	Block3	2back/STIM_033.jpg
1732.027	0.639	1	2back	Block3	2back/STIM_033.jpg
1735.669	0.396	1	2back	Block3	2back/STIM_033.jpg
1739.943	0.73	1	2back	Block3	2back/STIM_034.jpg
1744.0	0.538	1	2back	Block3	2back/STIM_034.jpg
1747.939	0.529	1	2back	Block3	2back/STIM_034.jpg
1751.457	0.829	1	2back	Block3	2back/STIM_035.jpg
1755.35	0.745	1	2back	Block3	2back/STIM_035.jpg
1759.028	0.406	1	2back	Block3	2back/STIM_035.jpg
1761.695	0.772	1	2back	Block3	2back/STIM_036.jpg
1765.917	0.722	1	2back	Block3	2back/STIM_036.jpg
1769.608	0.533	1	2back	Block3	2back/STIM_036.jpg
1774.089	0.612	1	2back	Block3	2back/STIM_037.jpg
1778.431	0.789	1	2back	Block3	2back/STIM_037.jpg
1781.731	0.604	1	2back	Block3	2back/STIM_037.jpg
1786.077	0.552	1	2back	Block3	2back/STIM_038.jpg
1789.129	0.868	1	2back	Block3	2back/STIM_038.jpg
1793.5	0.663	1	2back	Block3	2back/STIM_038.jpg
1797.627	0.689	1	2back	Block3	2back/STIM_039.jpg
1801.334	0.446	1	2back	Block3	2back/STIM_039.jpg
1805.544	0.814	1	2back	Block3	2back/STIM_039.jpg
1809.21	0.554	1	0back	Block3	0back/STIM_000.jpg
1813.623	0.53	1	0back	Block3	0back/STIM_000.jpg
1817.042	0.732	0	0back	Block3	0back/STIM_000.jpg
1820.206	0.447	1	0back	Block3	0back/STIM_001.jpg
1823.669	0.658	1	0back	Block3	0back/STIM_001.jpg
1826.801	0.605	1	0back	Block3	0back/STIM_001.jpg
1830.644	0.581	1	0back	Block3	0back/STIM_002.jpg
1833.435	0.519	1	0back	Block3	0back/STIM_002.jpg
1837.583	0.458	1	0back	Block3	0back/STIM_002.jpg
1842.082	0.54	1	0back	Block3	0back/STIM_003.jpg
1846.319	0.647	1	0back	Block3	0back/STIM_003.jpg
1849.124	0.546	1	0back	Block3	0back/STIM_003.jpg
1853.351	0.533	1	0back	Block3	0back/STIM_004.jpg
1856.672	0.702	1	0back	Block3	0back/STIM_004.jpg
1860.791	0.437	1	0back	Block3	0back/STIM_004.jpg
1864.882	0.506	1	0back	Block3	0back/STIM_005.jpg
1868.487	0.681	1	0back	Block3	0back/STIM_005.jpg
1872.176	0.48	1	0back	Block3	0back/STIM_005.jpg
1875.893	0.39	1	0back	Block3	0back/STIM_006.jpg
1878.941	0.554	1	0back	Block3	0back/STIM_006.jpg
1882.911	0.476	1	0back	Block3	0back/STIM_006.jpg
1887.271	0.609	1	0back	Block3	0back/STIM_007.jpg
1892.026	0.348	1	0back	Block3	0back/STIM_007.jpg
1896.064	0.497	1	0back	Block3	0back/STIM_007.jpg
1898.928	0.537	1	0back	Block3	0back/STIM_008.jpg
1902.824	0.692	1	0back	Block3	0back/STIM_008.jpg
1906.642	0.585	1	0back	Block3	0back/STIM_008.jpg
1910.788	0.667	1	0back	Block3	0back/STIM_009.jpg
1915.329	0.384	1	0back	Block3	0back/STIM_009.jpg
1918.204	0.728	1	0back	Block3	0back/STIM_009.jpg
1922.058	0.675	1	0back	Block3	0back/STIM_010.jpg
1926.763	0.572	1	0back	Block3	0back/STIM_010.jpg
1930.739	0.68	0	0back	Block3	0back/STIM_010.jpg
1934.854	0.676	1	0back	Block3	0back/STIM_011.jpg
1938.525	0.658	1	0back	Block3	0back/STIM_011.jpg
1942.733	0.483	0	0back	Block3	0back/STIM_011.jpg
1945.488	0.684	1	0back	Block3	0back/STIM_012.jpg
1950.247	0.46	1	0back	Block3	0back/STIM_012.jpg
1952.994	0.523	1	0back	Block3	0back/STIM_012.jpg
1956.647	0.406	1	0back	Block3	0back/STIM_013.jpg
1960.329	0.377	1	0back	Block3	0back/STIM_013.jpg
1963.947	0.501	1	0back	Block3	0back/STIM_013.jpg
1967.878	0.516	1	0back	Block3	0back/STIM_014.jpg
1972.271	0.502	1	0back	Block3	0back/STIM_014.jpg
1975.542	0.614	1	0back	Block3	0back/STIM_014.jpg
1979.679	0.551	1	0back	Block3	0back/STIM_015.jpg
1983.163	0.47	1	0back	Block3	0back/STIM_015.jpg
1987.023	0.519	1	0back	Block3	0back/STIM_015.jpg
1990.158	0.502	1	0back	Block3	0back/STIM_016.jpg
1993.495	0.598	1	0back	Block3	0back/STIM_016.jpg
1998.151	0.528	1	0back	Block3	0back/STIM_016.jpg
2001.424	0.39	1	0back	Block3	0back/STIM_017.jpg
2004.069	0.639	1	0back	Block3	0back/STIM_017.jpg
2007.401	0.574	1	0back	Block3	0back/STIM_017.jpg
2011.821	0.303	1	0back	Block3	0back/STIM_018.jpg
2015.481	0.533	1	0back	Block3	0back/STIM_018.jpg
2019.002	0.785	1	0back	Block3	0back/STIM_018.jpg
2023.17	0.436	1	0back	Block3	0back/STIM_019.jpg
2027.656	0.602	1	0back	Block3	0back/STIM_019.jpg
2030.361	0.478	1	0back	Block3	0back/STIM_019.jpg
2033.006	0.345	1	2back	Block4	2back/STIM_000.jpg
2035.891	0.643	1	2back	Block4	2back/STIM_000.jpg
2038.692	0.825	1	2back	Block4	2back/STIM_000.jpg
2042.256	0.809	1	2back	Block4	2back/STIM_001.jpg
2046.172	0.438	1	2back	Block4	2back/STIM_001.jpg
2049.778	0.772	1	2back	Block4	2back/STIM_001.jpg
2053.406	0.52	1	2back	Block4	2back/STIM_002.jpg
2057.485	0.459	1	2back	Block4	2back/STIM_002.jpg
2060.275	0.449	1	2back	Block4	2back/STIM_002.jpg
2063.978	0.518	1	2back	Block4	2back/STIM_003.jpg
2067.976	0.382	1	2back	Block4	2back/STIM_003.jpg
2072.298	0.659	1	2back	Block4	2back/STIM_003.jpg
2075.848	0.419	1	2back	Block4	2back/STIM_004.jpg
2080.217	0.46	1	2back	Block4	2back/STIM_004.jpg
2082.963	0.612	1	2back	Block4	2back/STIM_004.jpg
2087.035	0.701	1	2back	Block4	2back/STIM_005.jpg
2090.158	0.624	1	2back	Block4	2back/STIM_005.jpg
2093.071	0.734	1	2back	Block4	2back/STIM_005.jpg
2097.26	0.548	1	2back	Block4	2back/STIM_006.jpg
2100.419	0.765	1	2back	Block4	2back/STIM_006.jpg
2104.583	0.517	1	2back	Block4	2back/STIM_006.jpg
2107.656	0.519	1	2back	Block4	2back/STIM_007.jpg
2110.668	0.517	1	2back	Block4	2back/STIM_007.jpg
2113.66	0.813	1	2back	Block4	2back/STIM_007.jpg
2116.896	0.75	1	2back	Block4	2back/STIM_008.jpg
2121.322	0.568	1	2back	Block4	2back/STIM_008.jpg
2125.223	0.43	1	2back	Block4	2back/STIM_008.jpg
2128.238	0.516	1	2back	Block4	2back/STIM_009.jpg
2130.951	0.827	1	2back	Block4	2back/STIM_009.jpg
2134.919	0.68	1	2back	Block4	2back/STIM_009.jpg
2139.119	0.605	1	2back	Block4	2back/STIM_010.jpg
2142.317	0.566	1	2back	Block4	2back/STIM_010.jpg
2146.059	0.619	1	2back	Block4	2back/STIM_010.jpg
2150.437	0.524	1	2back	Block4	2back/STIM_011.jpg
2154.641	0.42	1	2back	Block4	2back/STIM_011.jpg
2157.79	0.354	1	2back	Block4	2back/STIM_011.jpg
2160.506	0.625	1	2back	Block4	2back/STIM_012.jpg
2163.707	0.759	1	2back	Block4	2back/STIM_012.jpg
2166.886	0.329	1	2back	Block4	2back/STIM_012.jpg
2170.006	0.832	1	2back	Block4	2back/STIM_013.jpg
2174.472	0.793	1	2back	Block4	2back/STIM_013.jpg
2178.386	0.486	1	2back	Block4	2back/STIM_013.jpg
2181.115	0.531	1	2back	Block4	2back/STIM_014.jpg
2185.505	0.461	1	2back	Block4	2back/STIM_014.jpg
2188.943	0.859	1	2back	Block4	2back/STIM_014.jpg
2193.683	0.691	1	2back	Block4	2back/STIM_015.jpg
2197.512	0.727	1	2back	Block4	2back/STIM_015.jpg
2201.697	0.584	1	2back	Block4	2back/STIM_015.jpg
2205.048	0.599	1	2back	Block4	2back/STIM_016.jpg
2208.846	0.634	1	2back	Block4	2back/STIM_016.jpg
2212.998	0.791	1	2back	Block4	2back/STIM_016.jpg
2217.553	0.399	1	2back	Block4	2back/STIM_017.jpg
2220.197	0.706	1	2back	Block4	2back/STIM_017.jpg
2224.376	0.49	1	2back	Block4	2back/STIM_017.jpg
2227.134	0.519	1	2back	Block4	2back/STIM_018.jpg
2230.127	0.406	1	2back	Block4	2back/STIM_018.jpg
2233.284	0.47	1	2back	Block4	2back/STIM_018.jpg
2237.038	0.777	1	2back	Block4	2back/STIM_019.jpg
2241.207	0.387	1	2back	Block4	2back/STIM_019.jpg
2244.724	0.427	1	2back	Block4	2back/STIM_019.jpg
2247.795	0.62	1	2back	Block4	2back/STIM_020.jpg
2251.895	0.585	1	2back	Block4	2back/STIM_020.jpg
2256.22	0.749	1	2back	Block4	2back/STIM_020.jpg
2259.363	0.619	1	2back	Block4	2back/STIM_021.jpg
2262.692	0.669	1	2back	Block4	2back/STIM_021.jpg
2266.881	0.382	1	2back	Block4	2back/STIM_021.jpg
2269.741	0.799	1	2back	Block4	2back/STIM_022.jpg
2273.353	0.819	1	2back	Block4	2back/STIM_022.jpg
2276.904	0.447	1	2back	Block4	2back/STIM_022.jpg
2280.776	0.654	1	2back	Block4	2back/STIM_023.jpg
2284.863	0.802	1	2back	Block4	2back/STIM_023.jpg
2289.183	0.511	1	2back	Block4	2back/STIM_023.jpg
2292.903	0.802	1	2back	Block4	2back/STIM_024.jpg
2297.479	0.56	1	2back	Block4	2back/STIM_024.jpg
2300.694	0.677	1	2back	Block4	2back/STIM_024.jpg
2305.244	0.754	1	2back	Block4	2back/STIM_025.jpg
2309.828	0.44	1	2back	Block4	2back/STIM_025.jpg
2312.561	0.795	1	2back	Block4	2back/STIM_025.jpg
2315.718	0.782	1	2back	Block4	2back/STIM_026.jpg
2319.755	0.523	1	2back	Block4	2back/STIM_026.jpg
2323.496	0.542	1	2back	Block4	2back/STIM_026.jpg
2327.424	0.782	1	2back	Block4	2back/STIM_027.jpg
2330.256	0.636	1	2back	Block4	2back/STIM_027.jpg
2333.272	0.758	1	2back	Block4	2back/STIM_027.jpg
2337.097	0.496	1	2back	Block4	2back/STIM_028.jpg
2341.264	0.756	1	2back	Block4	2back/STIM_028.jpg
2344.152	0.599	1	2back	Block4	2back/STIM_028.jpg
2347.717	0.653	1	2back	Block4	2back/STIM_029.jpg
2351.893	0.551	1	2back	Block4	2back/STIM_029.jpg
2354.49	0.698	1	2back	Block4	2back/STIM_029.jpg
2358.252	0.793	1	2back	Block4	2back/STIM_030.jpg
2362.097	0.736	1	2back	Block4	2back/STIM_030.jpg
2366.553	0.461	1	2back	Block4	2back/STIM_030.jpg
2370.761	0.589	1	2back	Block4	2back/STIM_031.jpg
2374.177	0.578	1	2back	Block4	2back/STIM_031.jpg
2377.589	0.398	1	2back	Block4	2back/STIM_031.jpg
2380.632	0.791	1	2back	Block4	2back/STIM_032.jpg
2383.634	0.444	1	2back	Block4	2back/STIM_032.jpg
2387.618	0.336	1	2back	Block4	2back/STIM_032.jpg
2391.09	0.653	1	2back	Block4	2back/STIM_033.jpg
2395.484	0.558	1	2back	Block4	2back/STIM_033.jpg
2399.673	0.647	1	2back	Block4	2back/STIM_033.jpg
2404.356	0.894	1	2back	Block4	2back/STIM_034.jpg
2408.912	0.576	1	2back	Block4	2back/STIM_034.jpg
2412.42	0.839	1	2back	Block4	2back/STIM_034.jpg
2415.927	0.762	1	2back	Block4	2back/STIM_035.jpg
2419.359	0.551	1	2back	Block4	2back/STIM_035.jpg
2422.599	0.849	1	2back	Block4	2back/STIM_035.jpg
2426.417	0.614	1	2back	Block4	2back/STIM_036.jpg
2429.523	0.598	1	2back	Block4	2back/STIM_036.jpg
2433.798	0.694	1	2back	Block4	2back/STIM_036.jpg
2437.806	0.672	1	2back	Block4	2back/STIM_037.jpg
2441.439	0.475	1	2back	Block4	2back/STIM_037.jpg
2444.873	0.524	1	2back	Block4	2back/STIM_037.jpg
2447.674	0.397	1	2back	Block4	2back/STIM_038.jpg
2451.914	0.573	1	2back	Block4	2back/STIM_038.jpg
2455.431	0.439	1	2back	Block4	2back/STIM_038.jpg
2459.436	0.452	1	2back	Block4	2back/STIM_039.jpg
2463.812	0.434	1	2back	Block4	2back/STIM_039.jpg
2466.609	0.722	1	2back	Block4	2back/STIM_039.jpg
2470.202	0.541	1	0back	Block4	0back/STIM_000.jpg
2474.882	0.312	1	0back	Block4	0back/STIM_000.jpg
2478.36	0.398	1	0back	Block4	0back/STIM_000.jpg
2482.02	0.466	1	0back	Block4	0back/STIM_001.jpg
2486.235	0.617	1	0back	Block4	0back/STIM_001.jpg
2490.809	0.49	1	0back	Block4	0back/STIM_001.jpg
2493.595	0.574	0	0back	Block4	0back/STIM_002.jpg
2497.765	0.292	1	0back	Block4	0back/STIM_002.jpg
2501.165	0.646	1	0back	Block4	0back/STIM_002.jpg
2505.728	0.468	1	0back	Block4	0back/STIM_003.jpg
2508.61	0.621	1	0back	Block4	0back/STIM_003.jpg
2512.661	0.534	1	0back	Block4	0back/STIM_003.jpg
2515.367	0.587	0	0back	Block4	0back/STIM_004.jpg
2518.754	0.442	1	0back	Block4	0back/STIM_004.jpg
2523.048	0.497	1	0back	Block4	0back/STIM_004.jpg
2527.389	0.654	1	0back	Block4	0back/STIM_005.jpg
2531.838	0.38	1	0back	Block4	0back/STIM_005.jpg
2535.311	0.575	1	0back	Block4	0back/STIM_005.jpg
2539.749	0.474	1	0back	Block4	0back/STIM_006.jpg
2542.471	0.579	1	0back	Block4	0back/STIM_006.jpg
2545.852	0.568	1	0back	Block4	0back/STIM_006.jpg
2550.291	0.534	1	0back	Block4	0back/STIM_007.jpg
2553.128	0.431	1	0back	Block4	0back/STIM_007.jpg
2555.836	0.57	1	0back	Block4	0back/STIM_007.jpg
2559.94	0.584	1	0back	Block4	0back/STIM_008.jpg
2563.392	0.432	1	0back	Block4	0back/STIM_008.jpg
2567.072	0.5	1	0back	Block4	0back/STIM_008.jpg
2571.026	0.571	1	0back	Block4	0back/STIM_009.jpg
2574.47	0.367	1	0back	Block4	0back/STIM_009.jpg
2577.856	0.372	1	0back	Block4	0back/STIM_009.jpg
2580.415	0.71	0	0back	Block4	0back/STIM_010.jpg
2584.592	0.703	1	0back	Block4	0back/STIM_010.jpg
2587.473	0.619	1	0back	Block4	0back/STIM_010.jpg
2590.772	0.482	1	0back	Block4	0back/STIM_011.jpg
2595.113	0.757	1	0back	Block4	0back/STIM_011.jpg
2598.701	0.639	1	0back	Block4	0back/STIM_011.jpg
2601.973	0.563	1	0back	Block4	0back/STIM_012.jpg
2605.735	0.585	1	0back	Block4	0back/STIM_012.jpg
2608.835	0.625	1	0back	Block4	0back/STIM_012.jpg
2612.183	0.378	1	0back	Block4	0back/STIM_013.jpg
2614.894	0.644	1	0back	Block4	0back/STIM_013.jpg
2618.417	0.413	1	0back	Block4	0back/STIM_013.jpg
2622.036	0.628	1	0back	Block4	0back/STIM_014.jpg
2626.359	0.351	1	0back	Block4	0back/STIM_014.jpg
2630.652	0.385	1	0back	Block4	0back/STIM_014.jpg
2634.372	0.529	1	0back	Block4	0back/STIM_015.jpg
2637.615	0.488	1	0back	Block4	0back/STIM_015.jpg
2641.526	0.373	1	0back	Block4	0back/STIM_015.jpg
2645.097	0.334	1	0back	Block4	0back/STIM_016.jpg
2647.712	0.661	1	0back	Block4	0back/STIM_016.jpg
2650.843	0.436	1	0back	Block4	0back/STIM_016.jpg
2654.183	0.549	1	0back	Block4	0back/STIM_017.jpg
2657.674	0.586	1	0back	Block4	0back/STIM_017.jpg
2662.269	0.45	1	0back	Block4	0back/STIM_017.jpg
2665.458	0.69	1	0back	Block4	0back/STIM_018.jpg
2668.763	0.563	1	0back	Block4	0back/STIM_018.jpg
2672.276	0.442	1	0back	Block4	0back/STIM_018.jpg
2675.537	0.547	0	0back	Block4	0back/STIM_019.jpg
2678.615	0.54	1	0back	Block4	0back/STIM_019.jpg
2683.15	0.652	1	0back	Block4	0back/STIM_019.jpg
