onset	duration	response_time_ms	trial_type	learning_stage	stimulus	response_port
0.0	0.863	863.2	2back	Block1	2back/STIM_000.jpg	100
3.905	1.212	1212.1	2back	Block1	2back/STIM_000.jpg	99
8.785	0.894	894.3	2back	Block1	2back/STIM_000.jpg	99
12.553	0.978	978.2	2back	Block1	2back/STIM_001.jpg	99
15.764	0.881	880.8	2back	Block1	2back/STIM_001.jpg	100
20.215	0.535	534.8	2back	Block1	2back/STIM_001.jpg	99
24.748	1.268	1268.5	2back	Block1	2back/STIM_002.jpg	100
29.655	1.233	1233.3	2back	Block1	2back/STIM_002.jpg	99
34.323	0.748	747.8	2back	Block1	2back/STIM_002.jpg	99
37.616	1.153	1152.7	2back	Block1	2back/STIM_003.jpg	100
41.348	1.099	1099.0	2back	Block1	2back/STIM_003.jpg	99
45.673	0.725	724.7	2back	Block1	2back/STIM_003.jpg	100
49.437	1.168	1168.0	2back	Block1	2back/STIM_004.jpg	100
53.348	1.038	1037.5	2back	Block1	2back/STIM_004.jpg	99
56.725	0.692	692.3	2back	Block1	2back/STIM_004.jpg	100
60.932	0.705	705.3	2back	Block1	2back/STIM_005.jpg	99
64.123	1.163	1163.2	2back	Block1	2back/STIM_005.jpg	99
68.728	0.76	759.6	2back	Block1	2back/STIM_005.jpg	99
71.635	0.667	666.9	2back	Block1	2back/STIM_006.jpg	100
76.122	1.244	1243.6	2back	Block1	2back/STIM_006.jpg	100
80.573	1.149	1148.9	2back	Block1	2back/STIM_006.jpg	99
84.754	0.919	918.7	2back	Block1	2back/STIM_007.jpg	100
89.304	1.074	1074.0	2back	Block1	2back/STIM_007.jpg	99
92.954	0.904	904.2	2back	Block1	2back/STIM_007.jpg	99
96.19	1.288	1288.2	2back	Block1	2back/STIM_008.jpg	99
100.235	0.987	987.0	2back	Block1	2back/STIM_008.jpg	99
103.909	0.751	750.9	2back	Block1	2back/STIM_008.jpg	100
107.691	1.283	1283.1	2back	Block1	2back/STIM_009.jpg	100
111.513	0.594	594.2	2back	Block1	2back/STIM_009.jpg	99
114.179	0.948	948.2	2back	Block1	2back/STIM_009.jpg	99
118.963	0.842	841.6	2back	Block1	2back/STIM_010.jpg	100
122.496	0.628	627.8	2back	Block1	2back/STIM_010.jpg	99
125.436	0.805	804.7	2back	Block1	2back/STIM_010.jpg	100
129.393	1.086	1085.6	2back	Block1	2back/STIM_011.jpg	99
134.175	0.594	593.8	2back	Block1	2back/STIM_011.jpg	99
137.236	0.842	841.6	2back	Block1	2back/STIM_011.jpg	100
140.71	0.825	824.9	2back	Block1	2back/STIM_012.jpg	99
144.784	0.932	931.5	2back	Block1	2back/STIM_012.jpg	100
148.988	0.879	878.7	2back	Block1	2back/STIM_012.jpg	99
152.337	0.67	670.4	2back	Block1	2back/STIM_013.jpg	99
155.793	1.039	1038.9	2back	Block1	2back/STIM_013.jpg	99
159.915	1.18	1180.0	2back	Block1	2back/STIM_013.jpg	100
164.326	0.947	947.2	2back	Block1	2back/STIM_014.jpg	100
168.204	1.105	1104.9	2back	Block1	2back/STIM_014.jpg	99
172.694	0.982	982.0	2back	Block1	2back/STIM_014.jpg	99
175.715	1.275	1275.0	2back	Block1	2back/STIM_015.jpg	100
179.553	1.002	1001.7	2back	Block1	2back/STIM_015.jpg	99
183.778	0.677	676.6	2back	Block1	2back/STIM_015.jpg	100
188.106	0.996	995.6	2back	Block1	2back/STIM_016.jpg	99
192.363	0.704	704.5	2back	Block1	2back/STIM_016.jpg	100
195.95	0.972	972.2	2back	Block1	2back/STIM_016.jpg	100
199.21	0.912	911.6	2back	Block1	2back/STIM_017.jpg	99
204.082	0.891	891.4	2back	Block1	2back/STIM_017.jpg	100
207.375	1.002	1001.8	2back	Block1	2back/STIM_017.jpg	99
210.665	1.015	1015.0	2back	Block1	2back/STIM_018.jpg	100
214.049	0.756	756.1	2back	Block1	2back/STIM_018.jpg	99
216.86	0.589	588.8	2back	Block1	2back/STIM_018.jpg	100
220.103	0.996	995.9	2back	Block1	2back/STIM_019.jpg	100
224.996	1.047	1046.7	2back	Block1	2back/STIM_019.jpg	100
228.518	1.186	1185.5	2back	Block1	2back/STIM_019.jpg	99
232.938	1.114	1113.6	2back	Block1	2back/STIM_020.jpg	99
236.871	0.8	799.6	2back	Block1	2back/STIM_020.jpg	100
240.704	0.749	749.1	2back	Block1	2back/STIM_020.jpg	99
245.238	0.938	938.5	2back	Block1	2back/STIM_021.jpg	99
249.505	0.976	975.8	2back	Block1	2back/STIM_021.jpg	99
252.5	0.82	819.6	2back	Block1	2back/STIM_021.jpg	99
255.965	0.958	958.5	2back	Block1	2back/STIM_022.jpg	100
259.187	0.554	553.6	2back	Block1	2back/STIM_022.jpg	99
262.558	0.634	634.2	2back	Block1	2back/STIM_022.jpg	99
265.362	0.579	579.1	2back	Block1	2back/STIM_023.jpg	100
268.239	0.785	784.8	2back	Block1	2back/STIM_023.jpg	100
271.925	1.126	1126.4	2back	Block1	2back/STIM_023.jpg	100
275.864	0.874	874.1	2back	Block1	2back/STIM_024.jpg	100
280.567	0.937	936.7	2back	Block1	2back/STIM_024.jpg	99
283.886	0.939	938.7	2back	Block1	2back/STIM_024.jpg	100
287.914	1.22	1220.5	2back	Block1	2back/STIM_025.jpg	99
292.06	0.784	784.3	2back	Block1	2back/STIM_025.jpg	99
295.187	0.938	937.7	2back	Block1	2back/STIM_025.jpg	99
299.286	1.184	1184.5	2back	Block1	2back/STIM_026.jpg	99
304.261	1.128	1127.7	2back	Block1	2back/STIM_026.jpg	99
308.877	1.099	1099.1	2back	Block1	2back/STIM_026.jpg	100
313.128	0.753	753.0	2back	Block1	2back/STIM_027.jpg	100
317.1	1.219	1219.0	2back	Block1	2back/STIM_027.jpg	99
320.907	0.592	591.8	2back	Block1	2back/STIM_027.jpg	99
325.426	1.134	1133.5	2back	Block1	2back/STIM_028.jpg	99
329.245	0.909	908.8	2back	Block1	2back/STIM_028.jpg	99
332.309	0.654	654.4	2back	Block1	2back/STIM_028.jpg	99
334.974	0.676	676.1	2back	Block1	2back/STIM_029.jpg	100
339.008	0.762	761.8	2back	Block1	2back/STIM_029.jpg	99
343.547	1.083	1082.6	2back	Block1	2back/STIM_029.jpg	99
347.749	0.853	852.7	2back	Block1	2back/STIM_030.jpg	99
351.04	1.015	1015.1	2back	Block1	2back/STIM_030.jpg	100
355.802	1.186	1186.5	2back	Block1	2back/STIM_030.jpg	99
360.458	1.235	1235.1	2back	Block1	2back/STIM_031.jpg	100
365.186	0.77	770.4	2back	Block1	2back/STIM_031.jpg	100
369.28	1.14	1139.7	2back	Block1	2back/STIM_031.jpg	99
374.395	0.618	618.4	2back	Block1	2back/STIM_032.jpg	99
379.006	1.114	1114.5	2back	Block1	2back/STIM_032.jpg	99
382.863	1.092	1092.3	2back	Block1	2back/STIM_032.jpg	99
387.173	0.956	956.4	2back	Block1	2back/STIM_033.jpg	99
391.59	1.231	1230.6	2back	Block1	2back/STIM_033.jpg	99
396.186	1.04	1040.5	2back	Block1	2back/STIM_033.jpg	99
399.862	1.27	1270.1	2back	Block1	2back/STIM_034.jpg	100
403.591	0.602	602.1	2back	Block1	2back/STIM_034.jpg	99
407.539	1.116	1115.9	2back	Block1	2back/STIM_034.jpg	100
410.719	0.924	924.5	2back	Block1	2back/STIM_035.jpg	100
415.409	1.064	1064.3	2back	Block1	2back/STIM_035.jpg	99
419.479	0.644	644.2	2back	Block1	2back/STIM_035.jpg	99
423.879	1.029	1029.2	2back	Block1	2back/STIM_036.jpg	100
428.483	0.592	592.5	2back	Block1	2back/STIM_036.jpg	100
432.656	0.797	796.6	2back	Block1	2back/STIM_036.jpg	100
436.589	0.993	993.1	2back	Block1	2back/STIM_037.jpg	100
441.417	1.226	1226.0	2back	Block1	2back/STIM_037.jpg	99
444.674	0.708	707.6	2back	Block1	2back/STIM_037.jpg	100
448.963	1.318	1318.3	2back	Block1	2back/STIM_038.jpg	99
453.282	1.08	1080.1	2back	Block1	2back/STIM_038.jpg	100
457.464	0.553	553.2	2back	Block1	2back/STIM_038.jpg	99
461.73	1.02	1019.7	2back	Block1	2back/STIM_039.jpg	99
466.191	0.86	859.7	2back	Block1	2back/STIM_039.jpg	99
470.909	1.12	1120.4	2back	Block1	2back/STIM_039.jpg	100
474.421	0.6	599.8	0back	Block1	0back/STIM_000.jpg	99
478.752	0.548	547.9	0back	Block1	0back/STIM_000.jpg	100
482.438	0.474	473.9	0back	Block1	0back/STIM_000.jpg	100
486.195	0.433	433.0	0back	Block1	0back/STIM_001.jpg	99
489.883	0.714	714.4	0back	Block1	0back/STIM_001.jpg	100
493.64	0.557	556.8	0back	Block1	0back/STIM_001.jpg	100
496.524	0.68	680.0	0back	Block1	0back/STIM_002.jpg	99
500.826	0.498	498.3	0back	Block1	0back/STIM_002.jpg	99
503.325	0.646	646.5	0back	Block1	0back/STIM_002.jpg	99
506.846	0.461	461.2	0back	Block1	0back/STIM_003.jpg	100
509.736	0.417	417.3	0back	Block1	0back/STIM_003.jpg	99
512.344	0.587	587.4	0back	Block1	0back/STIM_003.jpg	100
515.203	0.483	482.6	0back	Block1	0back/STIM_004.jpg	99
518.127	0.492	492.4	0back	Block1	0back/STIM_004.jpg	99
522.491	0.51	510.2	0back	Block1	0back/STIM_004.jpg	100
526.917	0.638	638.5	0back	Block1	0back/STIM_005.jpg	99
530.033	0.592	592.2	0back	Block1	0back/STIM_005.jpg	100
533.09	0.573	572.7	0back	Block1	0back/STIM_005.jpg	99
536.757	0.539	539.2	0back	Block1	0back/STIM_006.jpg	100
540.882	0.535	535.4	0back	Block1	0back/STIM_006.jpg	99
544.951	0.694	694.2	0back	Block1	0back/STIM_006.jpg	100
547.732	0.616	616.2	0back	Block1	0back/STIM_007.jpg	100
551.258	0.543	543.1	0back	Block1	0back/STIM_007.jpg	100
554.357	0.736	736.1	0back	Block1	0back/STIM_007.jpg	100
558.001	0.437	437.1	0back	Block1	0back/STIM_008.jpg	99
561.042	0.653	652.8	0back	Block1	0back/STIM_008.jpg	99
564.866	0.726	726.5	0back	Block1	0back/STIM_008.jpg	99
569.491	0.723	722.8	0back	Block1	0back/STIM_009.jpg	100
574.081	0.709	708.9	0back	Block1	0back/STIM_009.jpg	99
577.458	0.755	755.3	0back	Block1	0back/STIM_009.jpg	100
580.995	0.5	500.5	0back	Block1	0back/STIM_010.jpg	99
585.261	0.747	747.4	0back	Block1	0back/STIM_010.jpg	100
588.436	0.572	571.7	0back	Block1	0back/STIM_010.jpg	100
592.485	0.742	742.0	0back	Block1	0back/STIM_011.jpg	99
595.229	0.676	676.0	0back	Block1	0back/STIM_011.jpg	99
598.441	0.501	501.5	0back	Block1	0back/STIM_011.jpg	100
602.738	0.714	714.3	0back	Block1	0back/STIM_012.jpg	99
606.237	0.453	452.8	0back	Block1	0back/STIM_012.jpg	99
609.792	0.447	446.7	0back	Block1	0back/STIM_012.jpg	100
613.327	0.577	577.3	0back	Block1	0back/STIM_013.jpg	100
617.232	0.532	532.1	0back	Block1	0back/STIM_013.jpg	100
621.52	0.456	455.5	0back	Block1	0back/STIM_013.jpg	99
624.087	0.606	605.8	0back	Block1	0back/STIM_014.jpg	99
628.243	0.497	497.3	0back	Block1	0back/STIM_014.jpg	100
631.897	0.47	470.5	0back	Block1	0back/STIM_014.jpg	100
634.988	0.55	549.7	0back	Block1	0back/STIM_015.jpg	99
638.341	0.489	488.8	0back	Block1	0back/STIM_015.jpg	100
641.444	0.44	439.8	0back	Block1	0back/STIM_015.jpg	100
644.359	0.708	707.5	0back	Block1	0back/STIM_016.jpg	99
647.116	0.435	435.2	0back	Block1	0back/STIM_016.jpg	99
650.35	0.656	656.2	0back	Block1	0back/STIM_016.jpg	100
654.448	0.459	458.8	0back	Block1	0back/STIM_017.jpg	100
657.64	0.74	740.3	0back	Block1	0back/STIM_017.jpg	100
662.02	0.699	699.1	0back	Block1	0back/STIM_017.jpg	100
664.888	0.57	569.5	0back	Block1	0back/STIM_018.jpg	100
668.282	0.667	666.6	0back	Block1	0back/STIM_018.jpg	100
672.071	0.68	680.2	0back	Block1	0back/STIM_018.jpg	99
676.664	0.52	520.1	0back	Block1	0back/STIM_019.jpg	99
680.849	0.675	674.6	0back	Block1	0back/STIM_019.jpg	100
683.989	0.654	654.3	0back	Block1	0back/STIM_019.jpg	99
687.699	1.123	1123.0	2back	Block2	2back/STIM_000.jpg	99
692.422	1.037	1037.1	2back	Block2	2back/STIM_000.jpg	99
696.117	0.538	537.8	2back	Block2	2back/STIM_000.jpg	99
700.6	0.573	573.1	2back	Block2	2back/STIM_001.jpg	100
704.779	0.799	799.2	2back	Block2	2back/STIM_001.jpg	99
708.303	0.906	906.3	2back	Block2	2back/STIM_001.jpg	99
712.425	0.857	857.4	2back	Block2	2back/STIM_002.jpg	99
715.837	0.819	818.6	2back	Block2	2back/STIM_002.jpg	99
720.046	0.629	628.9	2back	Block2	2back/STIM_002.jpg	99
723.833	1.003	1002.6	2back	Block2	2back/STIM_003.jpg	99
726.963	0.809	809.2	2back	Block2	2back/STIM_003.jpg	100
731.421	0.981	980.6	2back	Block2	2back/STIM_003.jpg	99
734.849	0.933	932.8	2back	Block2	2back/STIM_004.jpg	100
738.965	0.773	773.3	2back	Block2	2back/STIM_004.jpg	100
742.292	0.616	615.5	2back	Block2	2back/STIM_004.jpg	100
746.474	0.484	483.5	2back	Block2	2back/STIM_005.jpg	100
749.906	0.507	507.5	2back	Block2	2back/STIM_005.jpg	100
753.882	0.97	969.8	2back	Block2	2back/STIM_005.jpg	99
756.968	0.775	775.4	2back	Block2	2back/STIM_006.jpg	99
759.759	0.785	784.7	2back	Block2	2back/STIM_006.jpg	100
763.08	0.543	542.9	2back	Block2	2back/STIM_006.jpg	100
767.154	0.85	850.1	2back	Block2	2back/STIM_007.jpg	99
771.231	1.04	1039.6	2back	Block2	2back/STIM_007.jpg	100
775.618	0.529	528.7	2back	Block2	2back/STIM_007.jpg	99
778.522	0.515	514.8	2back	Block2	2back/STIM_008.jpg	99
781.514	0.844	843.8	2back	Block2	2back/STIM_008.jpg	99
784.846	0.509	508.8	2back	Block2	2back/STIM_008.jpg	100
788.138	0.653	652.8	2back	Block2	2back/STIM_009.jpg	99
790.81	0.642	641.8	2back	Block2	2back/STIM_009.jpg	100
794.978	0.662	662.4	2back	Block2	2back/STIM_009.jpg	100
798.413	0.927	926.9	2back	Block2	2back/STIM_010.jpg	100
801.906	0.464	463.9	2back	Block2	2back/STIM_010.jpg	100
806.229	0.976	976.3	2back	Block2	2back/STIM_010.jpg	100
810.052	0.937	937.4	2back	Block2	2back/STIM_011.jpg	99
814.588	0.714	713.9	2back	Block2	2back/STIM_011.jpg	100
818.33	0.839	839.4	2back	Block2	2back/STIM_011.jpg	99
822.019	0.888	888.5	2back	Block2	2back/STIM_012.jpg	99
826.198	0.641	641.2	2back	Block2	2back/STIM_012.jpg	100
829.698	0.482	482.2	2back	Block2	2back/STIM_012.jpg	99
833.786	0.709	709.0	2back	Block2	2back/STIM_013.jpg	100
837.728	1.055	1054.9	2back	Block2	2back/STIM_013.jpg	99
841.283	0.511	511.4	2back	Block2	2back/STIM_013.jpg	99
844.837	0.906	905.9	2back	Block2	2back/STIM_014.jpg	100
848.878	0.628	628.2	2back	Block2	2back/STIM_014.jpg	99
852.622	0.801	801.1	2back	Block2	2back/STIM_014.jpg	100
856.843	0.709	708.6	2back	Block2	2back/STIM_015.jpg	99
860.519	0.96	959.6	2back	Block2	2back/STIM_015.jpg	99
864.642	0.648	647.7	2back	Block2	2back/STIM_015.jpg	99
868.511	0.952	951.8	2back	Block2	2back/STIM_016.jpg	100
873.285	0.507	506.8	2back	Block2	2back/STIM_016.jpg	99
876.983	0.637	637.0	2back	Block2	2back/STIM_016.jpg	99
881.216	0.74	739.5	2back	Block2	2back/STIM_017.jpg	100
885.919	0.652	651.7	2back	Block2	2back/STIM_017.jpg	100
889.175	0.917	917.3	2back	Block2	2back/STIM_017.jpg	100
892.15	0.493	493.0	2back	Block2	2back/STIM_018.jpg	100
896.496	1.053	1053.3	2back	Block2	2back/STIM_018.jpg	99
899.559	0.813	813.0	2back	Block2	2back/STIM_018.jpg	100
903.303	1.029	1029.1	2back	Block2	2back/STIM_019.jpg	100
907.263	0.478	477.6	2back	Block2	2back/STIM_019.jpg	100
911.7	0.478	478.5	2back	Block2	2back/STIM_019.jpg	99
915.748	0.622	621.7	2back	Block2	2back/STIM_020.jpg	100
918.51	0.94	939.9	2back	Block2	2back/STIM_020.jpg	100
921.805	0.502	502.2	2back	Block2	2back/STIM_020.jpg	100
925.381	0.667	667.2	2back	Block2	2back/STIM_021.jpg	100
929.335	0.769	769.2	2back	Block2	2back/STIM_021.jpg	100
933.691	0.723	722.6	2back	Block2	2back/STIM_021.jpg	100
936.911	0.701	700.7	2back	Block2	2back/STIM_022.jpg	100
940.058	0.715	715.4	2back	Block2	2back/STIM_022.jpg	99
944.405	0.51	509.6	2back	Block2	2back/STIM_022.jpg	99
947.79	1.027	1027.1	2back	Block2	2back/STIM_023.jpg	99
951.603	0.611	611.0	2back	Block2	2back/STIM_023.jpg	99
954.543	0.614	614.5	2back	Block2	2back/STIM_023.jpg	100
958.899	0.946	945.6	2back	Block2	2back/STIM_024.jpg	99
963.481	0.6	599.6	2back	Block2	2back/STIM_024.jpg	100
967.84	0.7	700.5	2back	Block2	2back/STIM_024.jpg	100
972.177	1.074	1074.4	2back	Block2	2back/STIM_025.jpg	100
977.228	0.484	483.6	2back	Block2	2back/STIM_025.jpg	100
979.882	0.567	567.4	2back	Block2	2back/STIM_025.jpg	99
984.055	0.614	614.2	2back	Block2	2back/STIM_026.jpg	100
987.128	0.603	603.0	2back	Block2	2back/STIM_026.jpg	100
989.907	0.793	792.7	2back	Block2	2back/STIM_026.jpg	100
993.902	1.047	1046.8	2back	Block2	2back/STIM_027.jpg	99
998.632	0.806	806.4	2back	Block2	2back/STIM_027.jpg	100
1001.613	0.636	636.5	2back	Block2	2back/STIM_027.jpg	100
1006.06	0.862	861.6	2back	Block2	2back/STIM_028.jpg	99
1009.237	0.661	660.8	2back	Block2	2back/STIM_028.jpg	100
1012.296	0.718	718.3	2back	Block2	2back/STIM_028.jpg	100
1015.056	0.505	504.9	2back	Block2	2back/STIM_029.jpg	100
1018.294	0.464	464.4	2back	Block2	2back/STIM_029.jpg	99
1021.756	0.935	935.1	2back	Block2	2back/STIM_029.jpg	99
1024.983	0.73	730.2	2back	Block2	2back/STIM_030.jpg	99
1028.574	0.488	487.8	2back	Block2	2back/STIM_030.jpg	100
1031.34	0.662	661.6	2back	Block2	2back/STIM_030.jpg	100
1035.034	0.511	511.0	2back	Block2	2back/STIM_031.jpg	100
1038.445	0.666	666.1	2back	Block2	2back/STIM_031.jpg	99
1042.85	0.741	741.1	2back	Block2	2back/STIM_031.jpg	99
1046.426	0.928	928.5	2back	Block2	2back/STIM_032.jpg	100
1050.26	0.672	672.5	2back	Block2	2back/STIM_032.jpg	99
1054.051	0.93	929.5	2back	Block2	2back/STIM_032.jpg	99
1057.342	0.516	515.7	2back	Block2	2back/STIM_033.jpg	100
1060.296	1.019	1018.9	2back	Block2	2back/STIM_033.jpg	100
1064.802	0.558	558.3	2back	Block2	2back/STIM_033.jpg	100
1068.507	0.575	575.3	2back	Block2	2back/STIM_034.jpg	100
1072.879	0.625	624.6	2back	Block2	2back/STIM_034.jpg	99
1076.311	0.968	967.5	2back	Block2	2back/STIM_034.jpg	99
1079.816	0.489	489.2	2back	Block2	2back/STIM_035.jpg	99
1083.76	0.912	912.2	2back	Block2	2back/STIM_035.jpg	99
1087.565	0.607	606.9	2back	Block2	2back/STIM_035.jpg	100
1090.325	0.762	761.7	2back	Block2	2back/STIM_036.jpg	99
1094.966	0.589	589.4	2back	Block2	2back/STIM_036.jpg	100
1098.953	0.456	455.7	2back	Block2	2back/STIM_036.jpg	100
1103.083	0.936	935.8	2back	Block2	2back/STIM_037.jpg	100
1106.146	0.758	757.9	2back	Block2	2back/STIM_037.jpg	100
1110.006	0.428	428.5	2back	Block2	2back/STIM_037.jpg	100
1112.622	1.071	1071.3	2back	Block2	2back/STIM_038.jpg	99
1116.302	0.98	979.9	2back	Block2	2back/STIM_038.jpg	99
1120.034	0.552	552.0	2back	Block2	2back/STIM_038.jpg	99
1122.694	0.832	832.0	2back	Block2	2back/STIM_039.jpg	99
1127.472	0.609	608.6	2back	Block2	2back/STIM_039.jpg	99
1131.867	0.474	473.8	2back	Block2	2back/STIM_039.jpg	99
1134.384	0.444	443.7	0back	Block2	0back/STIM_000.jpg	99
1138.201	0.664	664.5	0back	Block2	0back/STIM_000.jpg	100
1142.104	0.713	713.3	0back	Block2	0back/STIM_000.jpg	99
1144.85	0.411	411.3	0back	Block2	0back/STIM_001.jpg	100
1147.937	0.41	409.7	0back	Block2	0back/STIM_001.jpg	100
1151.452	0.684	684.1	0back	Block2	0back/STIM_001.jpg	99
1154.843	0.499	498.9	0back	Block2	0back/STIM_002.jpg	100
1157.983	0.685	685.3	0back	Block2	0back/STIM_002.jpg	99
1161.754	0.388	387.7	0back	Block2	0back/STIM_002.jpg	99
1165.657	0.744	744.1	0back	Block2	0back/STIM_003.jpg	99
1168.888	0.62	620.5	0back	Block2	0back/STIM_003.jpg	100
1172.366	0.52	519.7	0back	Block2	0back/STIM_003.jpg	99
1175.618	0.55	550.1	0back	Block2	0back/STIM_004.jpg	100
1179.301	0.69	689.5	0back	Block2	0back/STIM_004.jpg	100
1182.87	0.617	616.7	0back	Block2	0back/STIM_004.jpg	99
1186.048	0.701	701.3	0back	Block2	0back/STIM_005.jpg	100
1190.483	0.437	437.0	0back	Block2	0back/STIM_005.jpg	100
1194.104	0.567	567.1	0back	Block2	0back/STIM_005.jpg	100
1198.667	0.649	648.7	0back	Block2	0back/STIM_006.jpg	100
1203.072	0.67	670.1	0back	Block2	0back/STIM_006.jpg	99
1205.863	0.48	479.9	0back	Block2	0back/STIM_006.jpg	99
1209.797	0.543	543.2	0back	Block2	0back/STIM_007.jpg	99
1212.557	0.718	718.2	0back	Block2	0back/STIM_007.jpg	99
1216.194	0.412	411.6	0back	Block2	0back/STIM_007.jpg	100
1220.488	0.681	680.7	0back	Block2	0back/STIM_008.jpg	99
1224.264	0.495	495.1	0back	Block2	0back/STIM_008.jpg	100
1228.227	0.392	391.6	0back	Block2	0back/STIM_008.jpg	99
1231.277	0.46	460.5	0back	Block2	0back/STIM_009.jpg	100
1233.794	0.514	514.3	0back	Block2	0back/STIM_009.jpg	99
1237.764	0.49	489.5	0back	Block2	0back/STIM_009.jpg	100
1240.535	0.443	443.4	0back	Block2	0back/STIM_010.jpg	99
1243.382	0.462	462.2	0back	Block2	0back/STIM_010.jpg	99
1246.258	0.717	716.6	0back	Block2	0back/STIM_010.jpg	99
1250.606	0.703	702.6	0back	Block2	0back/STIM_011.jpg	99
1253.408	0.66	660.5	0back	Block2	0back/STIM_011.jpg	100
1257.579	0.396	395.8	0back	Block2	0back/STIM_011.jpg	99
1260.724	0.714	713.8	0back	Block2	0back/STIM_012.jpg	100
1265.244	0.732	732.3	0back	Block2	0back/STIM_012.jpg	100
1269.085	0.706	705.5	0back	Block2	0back/STIM_012.jpg	100
1272.57	0.512	512.0	0back	Block2	0back/STIM_013.jpg	100
1276.861	0.406	405.6	0back	Block2	0back/STIM_013.jpg	99
1280.228	0.675	675.1	0back	Block2	0back/STIM_013.jpg	100
1284.44	0.503	503.3	0back	Block2	0back/STIM_014.jpg	100
1287.517	0.401	401.2	0back	Block2	0back/STIM_014.jpg	100
1290.335	0.636	635.9	0back	Block2	0back/STIM_014.jpg	100
1293.215	0.6	600.0	0back	Block2	0back/STIM_015.jpg	100
1296.544	0.713	712.6	0back	Block2	0back/STIM_015.jpg	100
1300.245	0.416	416.4	0back	Block2	0back/STIM_015.jpg	99
1303.105	0.6	599.5	0back	Block2	0back/STIM_016.jpg	100
1306.986	0.594	594.4	0back	Block2	0back/STIM_016.jpg	100
1310.128	0.686	686.4	0back	Block2	0back/STIM_016.jpg	100
1313.459	0.633	633.3	0back	Block2	0back/STIM_017.jpg	99
1318.024	0.567	566.8	0back	Block2	0back/STIM_017.jpg	100
1321.123	0.551	551.2	0back	Block2	0back/STIM_017.jpg	99
1325.231	0.524	524.3	0back	Block2	0back/STIM_018.jpg	99
1328.008	0.478	478.5	0back	Block2	0back/STIM_018.jpg	99
1330.945	0.427	426.8	0back	Block2	0back/STIM_018.jpg	100
1334.479	0.383	383.0	0back	Block2	0back/STIM_019.jpg	100
1337.988	0.649	649.3	0back	Block2	0back/STIM_019.jpg	100
1340.685	0.502	502.2	0back	Block2	0back/STIM_019.jpg	99
1343.859	0.53	530.2	2back	Block3	2back/STIM_000.jpg	100
1347.769	0.904	904.3	2back	Block3	2back/STIM_000.jpg	99
1351.653	0.629	628.7	2back	Block3	2back/STIM_000.jpg	99
1354.533	0.669	669.2	2back	Block3	2back/STIM_001.jpg	100
1358.564	0.899	899.0	2back	Block3	2back/STIM_001.jpg	99
1362.875	0.597	597.1	2back	Block3	2back/STIM_001.jpg	100
1366.576	0.544	543.7	2back	Block3	2back/STIM_002.jpg	100
1370.574	0.557	557.4	2back	Block3	2back/STIM_002.jpg	100
1374.879	0.641	640.8	2back	Block3	2back/STIM_002.jpg	100
1378.021	0.66	659.7	2back	Block3	2back/STIM_003.jpg	99
1382.343	0.883	883.2	2back	Block3	2back/STIM_003.jpg	99
1385.705	0.732	731.6	2back	Block3	2back/STIM_003.jpg	100
1390.079	0.648	647.6	2back	Block3	2back/STIM_004.jpg	99
1393.36	0.71	710.2	2back	Block3	2back/STIM_004.jpg	99
1396.519	0.872	871.9	2back	Block3	2back/STIM_004.jpg	99
1399.522	0.61	609.6	2back	Block3	2back/STIM_005.jpg	100
1402.594	0.882	881.8	2back	Block3	2back/STIM_005.jpg	99
1407.131	0.662	662.0	2back	Block3	2back/STIM_005.jpg	99
1411.063	0.591	591.0	2back	Block3	2back/STIM_006.jpg	99
1414.792	0.746	745.7	2back	Block3	2back/STIM_006.jpg	99
1418.438	0.712	712.4	2back	Block3	2back/STIM_006.jpg	100
1421.445	0.407	407.4	2back	Block3	2back/STIM_007.jpg	99
1425.51	0.471	471.2	2back	Block3	2back/STIM_007.jpg	99
1429.813	0.515	515.4	2back	Block3	2back/STIM_007.jpg	99
1433.485	0.545	544.7	2back	Block3	2back/STIM_008.jpg	99
1436.033	0.64	639.8	2back	Block3	2back/STIM_008.jpg	100
1438.877	0.456	456.3	2back	Block3	2back/STIM_008.jpg	100
1441.948	0.611	611.4	2back	Block3	2back/STIM_009.jpg	99
1445.659	0.423	423.1	2back	Block3	2back/STIM_009.jpg	100
1449.432	0.692	691.5	2back	Block3	2back/STIM_009.jpg	100
1452.361	0.505	504.7	2back	Block3	2back/STIM_010.jpg	100
1456.046	0.733	733.2	2back	Block3	2back/STIM_010.jpg	100
1460.042	0.899	898.6	2back	Block3	2back/STIM_010.jpg	99
1463.595	0.662	661.8	2back	Block3	2back/STIM_011.jpg	99
1466.743	0.919	918.8	2back	Block3	2back/STIM_011.jpg	99
1470.885	0.731	730.9	2back	Block3	2back/STIM_011.jpg	99
1475.596	0.634	634.2	2back	Block3	2back/STIM_012.jpg	99
1479.027	0.462	462.2	2back	Block3	2back/STIM_012.jpg	99
1481.802	0.572	572.2	2back	Block3	2back/STIM_012.jpg	99
1486.036	0.87	869.7	2back	Block3	2back/STIM_013.jpg	99
1490.68	0.912	911.7	2back	Block3	2back/STIM_013.jpg	100
1495.226	0.547	547.0	2back	Block3	2back/STIM_013.jpg	100
1498.402	0.676	675.5	2back	Block3	2back/STIM_014.jpg	99
1501.794	0.645	644.9	2back	Block3	2back/STIM_014.jpg	100
1506.136	0.876	875.7	2back	Block3	2back/STIM_014.jpg	100
1510.248	0.689	689.0	2back	Block3	2back/STIM_015.jpg	99
1513.578	0.627	627.4	2back	Block3	2back/STIM_015.jpg	100
1516.853	0.567	566.7	2back	Block3	2back/STIM_015.jpg	100
1521.024	0.818	818.3	2back	Block3	2back/STIM_016.jpg	100
1524.389	0.663	662.8	2back	Block3	2back/STIM_016.jpg	99
1527.797	0.62	620.1	2back	Block3	2back/STIM_016.jpg	100
1531.809	0.537	536.9	2back	Block3	2back/STIM_017.jpg	99
1535.001	0.752	751.8	2back	Block3	2back/STIM_017.jpg	99
1537.972	0.586	585.5	2back	Block3	2back/STIM_017.jpg	100
1541.676	0.626	626.4	2back	Block3	2back/STIM_018.jpg	100
1544.958	0.473	472.9	2back	Block3	2back/STIM_018.jpg	100
1547.731	0.824	823.9	2back	Block3	2back/STIM_018.jpg	99
1552.127	0.811	810.8	2back	Block3	2back/STIM_019.jpg	99
1555.304	0.612	611.8	2back	Block3	2back/STIM_019.jpg	99
1559.482	0.449	449.3	2back	Block3	2back/STIM_019.jpg	99
1561.966	0.436	435.7	2back	Block3	2back/STIM_020.jpg	99
1564.908	0.404	404.2	2back	Block3	2back/STIM_020.jpg	100
1567.504	0.695	695.0	2back	Block3	2back/STIM_020.jpg	99
1572.008	0.812	812.2	2back	Block3	2back/STIM_021.jpg	99
1576.686	0.525	524.6	2back	Block3	2back/STIM_021.jpg	99
1579.349	0.908	907.9	2back	Block3	2back/STIM_021.jpg	100
1582.686	0.734	733.7	2back	Block3	2back/STIM_022.jpg	100
1586.548	0.503	503.2	2back	Block3	2back/STIM_022.jpg	100
1590.663	0.541	540.7	2back	Block3	2back/STIM_022.jpg	100
1593.761	0.529	529.2	2back	Block3	2back/STIM_023.jpg	99
1596.791	0.478	478.2	2back	Block3	2back/STIM_023.jpg	99
1599.272	0.646	645.7	2back	Block3	2back/STIM_023.jpg	100
1602.698	0.556	556.4	2back	Block3	2back/STIM_024.jpg	100
1605.934	0.512	512.0	2back	Block3	2back/STIM_024.jpg	100
1610.221	0.609	609.3	2back	Block3	2back/STIM_024.jpg	100
1614.467	0.526	525.7	2back	Block3	2back/STIM_025.jpg	99
1617.377	0.775	775.0	2back	Block3	2back/STIM_025.jpg	100
1621.075	0.535	535.3	2back	Block3	2back/STIM_025.jpg	99
1623.935	0.68	679.9	2back	Block3	2back/STIM_026.jpg	99
1628.498	0.898	897.6	2back	Block3	2back/STIM_026.jpg	100
1632.269	0.427	427.3	2back	Block3	2back/STIM_026.jpg	99
1634.939	0.601	601.3	2back	Block3	2back/STIM_027.jpg	100
1638.564	0.751	751.2	2back	Block3	2back/STIM_027.jpg	100
1642.935	0.511	511.0	2back	Block3	2back/STIM_027.jpg	100
1647.312	0.585	584.8	2back	Block3	2back/STIM_028.jpg	99
1651.817	0.766	765.6	2back	Block3	2back/STIM_028.jpg	100
1654.928	0.409	409.0	2back	Block3	2back/STIM_028.jpg	99
1658.525	0.864	863.6	2back	Block3	2back/STIM_029.jpg	99
1661.893	0.556	556.2	2back	Block3	2back/STIM_029.jpg	99
1664.516	0.88	879.6	2back	Block3	2back/STIM_029.jpg	100
1668.552	0.598	598.4	2back	Block3	2back/STIM_030.jpg	100
1672.337	0.84	840.5	2back	Block3	2back/STIM_030.jpg	100
1675.372	0.919	918.9	2back	Block3	2back/STIM_030.jpg	100
1678.841	0.442	441.9	2back	Block3	2back/STIM_031.jpg	100
1682.761	0.918	917.8	2back	Block3	2back/STIM_031.jpg	100
1685.819	0.727	726.7	2back	Block3	2back/STIM_031.jpg	99
1689.643	0.573	572.9	2back	Block3	2back/STIM_032.jpg	100
1692.825	0.739	738.8	2back	Block3	2back/STIM_032.jpg	100
1697.497	0.681	681.4	2back	Block3	2back/STIM_032.jpg	100
1700.623	0.548	547.8	2back	Block3	2back/STIM_033.jpg	100
1703.339	0.69	689.7	2back	Block3	2back/STIM_033.jpg	100
1707.227	0.679	678.8	2back	Block3	2back/STIM_033.jpg	99
1710.368	0.818	818.4	2back	Block3	2back/STIM_034.jpg	99
1713.798	0.831	830.8	2back	Block3	2back/STIM_034.jpg	99
1717.161	0.432	431.8	2back	Block3	2back/STIM_034.jpg	99
1721.389	0.82	819.5	2back	Block3	2back/STIM_035.jpg	100
1724.234	0.855	854.9	2back	Block3	2back/STIM_035.jpg	100
1727.846	0.875	875.4	2back	Block3	2back/STIM_035.jpg	99
1732.276	0.565	564.8	2back	Block3	2back/STIM_036.jpg	99
1735.044	0.632	632.3	2back	Block3	2back/STIM_036.jpg	100
1738.411	0.829	829.2	2back	Block3	2back/STIM_036.jpg	100
1741.491	0.537	536.6	2back	Block3	2back/STIM_037.jpg	99
1744.037	0.468	467.9	2back	Block3	2back/STIM_037.jpg	99
1747.916	0.543	542.7	2back	Block3	2back/STIM_037.jpg	99
1750.878	0.465	465.4	2back	Block3	2back/STIM_038.jpg	99
1753.992	0.624	623.7	2back	Block3	2back/STIM_038.jpg	99
1757.183	0.549	549.3	2back	Block3	2back/STIM_038.jpg	100
1761.169	0.896	896.2	2back	Block3	2back/STIM_039.jpg	100
1764.419	0.519	519.4	2back	Block3	2back/STIM_039.jpg	100
1767.839	0.606	605.7	2back	Block3	2back/STIM_039.jpg	100
1772.17	0.665	665.1	0back	Block3	0back/STIM_000.jpg	100
1776.813	0.6	600.1	0back	Block3	0back/STIM_000.jpg	99
1780.536	0.531	531.0	0back	Block3	0back/STIM_000.jpg	100
1783.361	0.585	584.7	0back	Block3	0back/STIM_001.jpg	99
1787.552	0.461	461.1	0back	Block3	0back/STIM_001.jpg	99
1790.135	0.536	536.4	0back	Block3	0back/STIM_001.jpg	99
1792.871	0.43	430.2	0back	Block3	0back/STIM_002.jpg	100
1796.923	0.498	498.1	0back	Block3	0back/STIM_002.jpg	100
1800.319	0.655	655.1	0back	Block3	0back/STIM_002.jpg	99
1804.619	0.674	673.5	0back	Block3	0back/STIM_003.jpg	100
1808.24	0.649	648.7	0back	Block3	0back/STIM_003.jpg	99
1811.711	0.59	590.0	0back	Block3	0back/STIM_003.jpg	99
1814.893	0.629	629.2	0back	Block3	0back/STIM_004.jpg	100
1818.278	0.729	729.0	0back	Block3	0back/STIM_004.jpg	99
1821.411	0.69	689.7	0back	Block3	0back/STIM_004.jpg	100
1824.294	0.599	599.1	0back	Block3	0back/STIM_005.jpg	99
1828.405	0.572	571.6	0back	Block3	0back/STIM_005.jpg	100
1831.806	0.543	542.7	0back	Block3	0back/STIM_005.jpg	99
1835.688	0.421	420.7	0back	Block3	0back/STIM_006.jpg	99
1839.637	0.482	481.5	0back	Block3	0back/STIM_006.jpg	100
1843.943	0.605	605.0	0back	Block3	0back/STIM_006.jpg	99
1847.444	0.727	727.3	0back	Block3	0back/STIM_007.jpg	99
1851.401	0.427	427.2	0back	Block3	0back/STIM_007.jpg	99
1855.201	0.746	746.1	0back	Block3	0back/STIM_007.jpg	99
1858.714	0.536	535.7	0back	Block3	0back/STIM_008.jpg	100
1861.764	0.599	599.4	0back	Block3	0back/STIM_008.jpg	100
1865.065	0.451	450.7	0back	Block3	0back/STIM_008.jpg	99
1867.786	0.704	703.7	0back	Block3	0back/STIM_009.jpg	100
1870.685	0.439	439.4	0back	Block3	0back/STIM_009.jpg	100
1873.872	0.581	580.8	0back	Block3	0back/STIM_009.jpg	99
1877.445	0.456	455.7	0back	Block3	0back/STIM_010.jpg	100
1880.296	0.586	585.5	0back	Block3	0back/STIM_010.jpg	100
1883.297	0.593	592.9	0back	Block3	0back/STIM_010.jpg	99
1887.62	0.714	714.0	0back	Block3	0back/STIM_011.jpg	100
1892.296	0.694	694.2	0back	Block3	0back/STIM_011.jpg	100
1896.86	0.561	560.7	0back	Block3	0back/STIM_011.jpg	99
1899.921	0.428	428.5	0back	Block3	0back/STIM_012.jpg	99
1903.408	0.42	419.5	0back	Block3	0back/STIM_012.jpg	100
1907.462	0.456	456.2	0back	Block3	0back/STIM_012.jpg	100
1910.681	0.452	451.7	0back	Block3	0back/STIM_013.jpg	100
1915.064	0.503	503.1	0back	Block3	0back/STIM_013.jpg	99
1918.289	0.564	563.8	0back	Block3	0back/STIM_013.jpg	100
1922.263	0.491	490.7	0back	Block3	0back/STIM_014.jpg	99
1926.311	0.387	386.6	0back	Block3	0back/STIM_014.jpg	99
1929.845	0.555	554.9	0back	Block3	0back/STIM_014.jpg	100
1934.049	0.42	419.7	0back	Block3	0back/STIM_015.jpg	100
1936.804	0.651	650.9	0back	Block3	0back/STIM_015.jpg	100
1941.278	0.439	438.9	0back	Block3	0back/STIM_015.jpg	100
1944.816	0.594	594.3	0back	Block3	0back/STIM_016.jpg	100
1947.808	0.694	693.5	0back	Block3	0back/STIM_016.jpg	99
1952.373	0.487	487.1	0back	Block3	0back/STIM_016.jpg	99
1956.442	0.754	754.4	0back	Block3	0back/STIM_017.jpg	100
1961.066	0.415	414.8	0back	Block3	0back/STIM_017.jpg	99
1964.258	0.449	449.4	0back	Block3	0back/STIM_017.jpg	100
1966.992	0.634	633.8	0back	Block3	0back/STIM_018.jpg	99
1971.264	0.591	590.8	0back	Block3	0back/STIM_018.jpg	99
1974.658	0.632	631.5	0back	Block3	0back/STIM_018.jpg	99
1978.044	0.714	713.7	0back	Block3	0back/STIM_019.jpg	99
1981.15	0.431	431.2	0back	Block3	0back/STIM_019.jpg	99
1985.564	0.706	705.8	0back	Block3	0back/STIM_019.jpg	100
1989.917	0.753	752.6	2back	Block4	2back/STIM_000.jpg	100
1994.377	0.845	844.7	2back	Block4	2back/STIM_000.jpg	99
1998.811	0.702	702.2	2back	Block4	2back/STIM_000.jpg	99
2003.049	0.762	761.6	2back	Block4	2back/STIM_001.jpg	99
2007.033	0.92	920.4	2back	Block4	2back/STIM_001.jpg	99
2011.282	0.866	866.2	2back	Block4	2back/STIM_001.jpg	100
2014.902	0.748	748.5	2back	Block4	2back/STIM_002.jpg	100
2018.518	0.772	772.2	2back	Block4	2back/STIM_002.jpg	100
2021.372	0.651	650.8	2back	Block4	2back/STIM_002.jpg	100
2024.542	0.41	409.6	2back	Block4	2back/STIM_003.jpg	99
2028.664	0.404	404.2	2back	Block4	2back/STIM_003.jpg	100
2032.491	0.862	861.6	2back	Block4	2back/STIM_003.jpg	100
2035.897	0.873	872.8	2back	Block4	2back/STIM_004.jpg	99
2039.548	0.412	412.2	2back	Block4	2back/STIM_004.jpg	100
2043.291	0.531	530.8	2back	Block4	2back/STIM_004.jpg	100
2046.045	0.462	461.5	2back	Block4	2back/STIM_005.jpg	100
2048.962	0.674	673.7	2back	Block4	2back/STIM_005.jpg	100
2052.767	0.447	446.6	2back	Block4	2back/STIM_005.jpg	100
2057.076	0.72	720.4	2back	Block4	2back/STIM_006.jpg	100
2060.493	0.49	489.5	2back	Block4	2back/STIM_006.jpg	99
2063.769	0.751	750.7	2back	Block4	2back/STIM_006.jpg	100
2067.724	0.786	786.4	2back	Block4	2back/STIM_007.jpg	100
2072.108	0.706	706.2	2back	Block4	2back/STIM_007.jpg	100
2075.501	0.578	578.0	2back	Block4	2back/STIM_007.jpg	99
2079.133	0.761	760.9	2back	Block4	2back/STIM_008.jpg	99
2082.732	0.636	635.8	2back	Block4	2back/STIM_008.jpg	99
2085.741	0.762	761.5	2back	Block4	2back/STIM_008.jpg	99
2089.619	0.652	651.8	2back	Block4	2back/STIM_009.jpg	100
2093.69	0.692	692.2	2back	Block4	2back/STIM_009.jpg	100
2097.669	0.674	674.0	2back	Block4	2back/STIM_009.jpg	99
2100.631	0.606	606.3	2back	Block4	2back/STIM_010.jpg	100
2104.96	0.488	487.7	2back	Block4	2back/STIM_010.jpg	99
2108.026	0.922	922.0	2back	Block4	2back/STIM_010.jpg	100
2112.145	0.509	509.5	2back	Block4	2back/STIM_011.jpg	100
2115.821	0.696	695.6	2back	Block4	2back/STIM_011.jpg	100
2120.315	0.675	674.8	2back	Block4	2back/STIM_011.jpg	100
2124.702	0.841	840.7	2back	Block4	2back/STIM_012.jpg	100
2129.076	0.687	686.7	2back	Block4	2back/STIM_012.jpg	99
2133.487	0.784	783.7	2back	Block4	2back/STIM_012.jpg	100
2136.849	0.637	637.4	2back	Block4	2back/STIM_013.jpg	100
2140.004	0.857	857.3	2back	Block4	2back/STIM_013.jpg	100
2143.08	0.789	789.4	2back	Block4	2back/STIM_013.jpg	100
2147.716	0.475	475.0	2back	Block4	2back/STIM_014.jpg	99
2150.202	0.72	719.6	2back	Block4	2back/STIM_014.jpg	100
2153.945	0.887	887.4	2back	Block4	2back/STIM_014.jpg	100
2157.399	0.874	873.5	2back	Block4	2back/STIM_015.jpg	99
2161.285	0.509	509.2	2back	Block4	2back/STIM_015.jpg	99
2165.662	0.598	598.4	2back	Block4	2back/STIM_015.jpg	100
2170.073	0.597	597.1	2back	Block4	2back/STIM_016.jpg	99
2172.955	0.467	466.7	2back	Block4	2back/STIM_016.jpg	99
2175.96	0.889	888.6	2back	Block4	2back/STIM_016.jpg	99
2180.632	0.529	528.7	2back	Block4	2back/STIM_017.jpg	99
2183.877	0.478	477.6	2back	Block4	2back/STIM_017.jpg	99
2187.582	0.809	809.0	2back	Block4	2back/STIM_017.jpg	100
2190.457	0.646	645.8	2back	Block4	2back/STIM_018.jpg	99
2193.443	0.912	912.3	2back	Block4	2back/STIM_018.jpg	100
2197.59	0.646	646.4	2back	Block4	2back/STIM_018.jpg	100
2202.114	0.591	591.1	2back	Block4	2back/STIM_019.jpg	99
2204.956	0.86	860.0	2back	Block4	2back/STIM_019.jpg	99
2209.266	0.874	874.3	2back	Block4	2back/STIM_019.jpg	100
2213.239	0.528	527.8	2back	Block4	2back/STIM_020.jpg	99
2216.796	0.72	720.3	2back	Block4	2back/STIM_020.jpg	100
2219.633	0.471	471.0	2back	Block4	2back/STIM_020.jpg	100
2224.024	0.43	430.3	2back	Block4	2back/STIM_021.jpg	100
2228.331	0.504	503.7	2back	Block4	2back/STIM_021.jpg	100
2232.719	0.578	578.0	2back	Block4	2back/STIM_021.jpg	100
2235.561	0.808	808.0	2back	Block4	2back/STIM_022.jpg	100
2240.295	0.683	682.7	2back	Block4	2back/STIM_022.jpg	100
2243.727	0.884	883.9	2back	Block4	2back/STIM_022.jpg	99
2248.364	0.919	919.2	2back	Block4	2back/STIM_023.jpg	99
2251.855	0.67	669.9	2back	Block4	2back/STIM_023.jpg	100
2256.104	0.451	451.3	2back	Block4	2back/STIM_023.jpg	100
2258.755	0.752	752.1	2back	Block4	2back/STIM_024.jpg	100
2262.364	0.466	466.4	2back	Block4	2back/STIM_024.jpg	100
2266.733	0.462	462.2	2back	Block4	2back/STIM_024.jpg	100
2270.565	0.511	510.7	2back	Block4	2back/STIM_025.jpg	99
2274.148	0.915	914.6	2back	Block4	2back/STIM_025.jpg	99
2278.52	0.769	769.3	2back	Block4	2back/STIM_025.jpg	99
2282.548	0.476	476.3	2back	Block4	2back/STIM_026.jpg	100
2285.881	0.912	912.3	2back	Block4	2back/STIM_026.jpg	99
2290.247	0.434	433.6	2back	Block4	2back/STIM_026.jpg	100
2293.493	0.432	431.5	2back	Block4	2back/STIM_027.jpg	100
2296.835	0.8	800.4	2back	Block4	2back/STIM_027.jpg	99
2301.501	0.771	770.8	2back	Block4	2back/STIM_027.jpg	99
2304.718	0.461	460.9	2back	Block4	2back/STIM_028.jpg	100
2307.725	0.885	885.3	2back	Block4	2back/STIM_028.jpg	99
2312.159	0.414	414.4	2back	Block4	2back/STIM_028.jpg	99
2314.677	0.652	652.2	2back	Block4	2back/STIM_029.jpg	99
2319.285	0.786	785.5	2back	Block4	2back/STIM_029.jpg	99
2323.093	0.805	805.3	2back	Block4	2back/STIM_029.jpg	99
2326.884	0.695	695.3	2back	Block4	2back/STIM_030.jpg	100
2329.938	0.76	759.7	2back	Block4	2back/STIM_030.jpg	99
2334.602	0.588	588.3	2back	Block4	2back/STIM_030.jpg	100
2338.232	0.443	442.6	2back	Block4	2back/STIM_031.jpg	99
2340.965	0.707	706.6	2back	Block4	2back/STIM_031.jpg	100
2344.489	0.526	525.8	2back	Block4	2back/STIM_031.jpg	99
2348.578	0.633	632.9	2back	Block4	2back/STIM_032.jpg	99
2353.098	0.736	735.5	2back	Block4	2back/STIM_032.jpg	100
2356.537	0.923	922.9	2back	Block4	2back/STIM_032.jpg	100
2359.544	0.69	689.5	2back	Block4	2back/STIM_033.jpg	100
2362.745	0.534	534.3	2back	Block4	2back/STIM_033.jpg	99
2366.427	0.438	438.4	2back	Block4	2back/STIM_033.jpg	99
2370.059	0.683	683.1	2back	Block4	2back/STIM_034.jpg	100
2373.358	0.462	462.3	2back	Block4	2back/STIM_034.jpg	99
2376.715	0.63	629.6	2back	Block4	2back/STIM_034.jpg	100
2380.931	0.526	525.5	2back	Block4	2back/STIM_035.jpg	99
2385.365	0.4	400.5	2back	Block4	2back/STIM_035.jpg	99
2389.338	0.494	493.6	2back	Block4	2back/STIM_035.jpg	100
2393.557	0.837	837.3	2back	Block4	2back/STIM_036.jpg	100
2398.195	0.512	511.7	2back	Block4	2back/STIM_036.jpg	99
2402.542	0.462	461.7	2back	Block4	2back/STIM_036.jpg	100
2405.601	0.525	525.3	2back	Block4	2back/STIM_037.jpg	100
2409.716	0.694	694.1	2back	Block4	2back/STIM_037.jpg	100
2414.034	0.783	783.3	2back	Block4	2back/STIM_037.jpg	100
2418.703	0.47	470.5	2back	Block4	2back/STIM_038.jpg	99
2421.224	0.845	844.7	2back	Block4	2back/STIM_038.jpg	99
2425.304	0.577	577.4	2back	Block4	2back/STIM_038.jpg	100
2428.517	0.854	854.5	2back	Block4	2back/STIM_039.jpg	99
2431.86	0.497	496.8	2back	Block4	2back/STIM_039.jpg	99
2435.361	0.759	759.1	2back	Block4	2back/STIM_039.jpg	100
2439.194	0.474	473.8	0back	Block4	0back/STIM_000.jpg	100
2442.046	0.422	422.1	0back	Block4	0back/STIM_000.jpg	99
2446.217	0.665	665.3	0back	Block4	0back/STIM_000.jpg	99
2450.856	0.397	397.4	0back	Block4	0back/STIM_001.jpg	100
2453.596	0.456	456.1	0back	Block4	0back/STIM_001.jpg	100
2456.918	0.393	392.8	0back	Block4	0back/STIM_001.jpg	99
2459.714	0.4	400.3	0back	Block4	0back/STIM_002.jpg	99
2464.098	0.401	401.3	0back	Block4	0back/STIM_002.jpg	100
2468.389	0.646	645.5	0back	Block4	0back/STIM_002.jpg	100
2472.988	0.381	381.0	0back	Block4	0back/STIM_003.jpg	99
2476.038	0.416	416.0	0back	Block4	0back/STIM_003.jpg	100
2478.595	0.465	465.3	0back	Block4	0back/STIM_003.jpg	99
2482.612	0.679	679.0	0back	Block4	0back/STIM_004.jpg	100
2486.965	0.612	611.7	0back	Block4	0back/STIM_004.jpg	99
2490.095	0.576	576.2	0back	Block4	0back/STIM_004.jpg	99
2492.963	0.741	740.9	0back	Block4	0back/STIM_005.jpg	100
2496.829	0.633	632.9	0back	Block4	0back/STIM_005.jpg	100
2500.114	0.451	450.9	0back	Block4	0back/STIM_005.jpg	99
2503.77	0.43	429.7	0back	Block4	0back/STIM_006.jpg	99
2508.034	0.446	446.4	0back	Block4	0back/STIM_006.jpg	99
2511.236	0.463	462.8	0back	Block4	0back/STIM_006.jpg	99
2514.674	0.709	709.0	0back	Block4	0back/STIM_007.jpg	100
2518.672	0.741	740.6	0back	Block4	0back/STIM_007.jpg	100
2523.222	0.538	538.0	0back	Block4	0back/STIM_007.jpg	100
2526.374	0.382	381.9	0back	Block4	0back/STIM_008.jpg	100
2529.914	0.488	488.1	0back	Block4	0back/STIM_008.jpg	100
2533.831	0.528	527.5	0back	Block4	0back/STIM_008.jpg	100
2538.319	0.57	569.7	0back	Block4	0back/STIM_009.jpg	99
2541.647	0.429	429.0	0back	Block4	0back/STIM_009.jpg	99
2544.989	0.654	654.4	0back	Block4	0back/STIM_009.jpg	100
2548.282	0.505	504.7	0back	Block4	0back/STIM_010.jpg	100
2551.687	0.708	707.5	0back	Block4	0back/STIM_010.jpg	100
2556.032	0.73	730.3	0back	Block4	0back/STIM_010.jpg	99
2559.605	0.56	560.0	0back	Block4	0back/STIM_011.jpg	100
2563.182	0.58	580.1	0back	Block4	0back/STIM_011.jpg	99
2567.18	0.383	383.3	0back	Block4	0back/STIM_011.jpg	99
2570.923	0.561	561.4	0back	Block4	0back/STIM_012.jpg	99
2575.324	0.651	650.9	0back	Block4	0back/STIM_012.jpg	99
2578.437	0.44	439.6	0back	Block4	0back/STIM_012.jpg	100
2582.776	0.589	589.0	0back	Block4	0back/STIM_013.jpg	100
2585.625	0.613	613.1	0back	Block4	0back/STIM_013.jpg	100
2589.775	0.521	520.9	0back	Block4	0back/STIM_013.jpg	99
2593.426	0.754	753.8	0back	Block4	0back/STIM_014.jpg	100
2597.767	0.453	452.7	0back	Block4	0back/STIM_014.jpg	99
2601.893	0.568	567.8	0back	Block4	0back/STIM_014.jpg	99
2605.656	0.406	405.9	0back	Block4	0back/STIM_015.jpg	99
2608.804	0.662	662.3	0back	Block4	0back/STIM_015.jpg	99
2613.108	0.386	386.3	0back	Block4	0back/STIM_015.jpg	100
2617.128	0.436	436.2	0back	Block4	0back/STIM_016.jpg	99
2621.441	0.658	658.2	0back	Block4	0back/STIM_016.jpg	99
2624.422	0.71	709.7	0back	Block4	0back/STIM_016.jpg	100
2627.629	0.402	401.6	0back	Block4	0back/STIM_017.jpg	99
2630.424	0.753	752.8	0back	Block4	0back/STIM_017.jpg	100
2633.961	0.75	750.5	0back	Block4	0back/STIM_017.jpg	100
2638.432	0.585	585.0	0back	Block4	0back/STIM_018.jpg	99
2642.466	0.424	424.1	0back	Block4	0back/STIM_018.jpg	99
2646.459	0.553	553.0	0back	Block4	0back/STIM_018.jpg	100
2650.611	0.526	525.9	0back	Block4	0back/STIM_019.jpg	100
2653.377	0.48	480.4	0back	Block4	0back/STIM_019.jpg	100
2657.051	0.606	606.3	0back	Block4	0back/STIM_019.jpg	100
