onset	duration	response_time_ms	trial_type	learning_stage	stimulus	response_port
0.0	1.326	1326.4	incongruent	Block1	incongruent/STIM_000.jpg	100
4.059	1.198	1198.3	incongruent	Block1	incongruent/STIM_000.jpg	100
7.719	1.05	1050.2	incongruent	Block1	incongruent/STIM_000.jpg	100
12.347	1.304	1304.3	incongruent	Block1	incongruent/STIM_000.jpg	99
16.515	0.857	856.7	incongruent	Block1	incongruent/STIM_000.jpg	99
20.614	1.44	1439.9	incongruent	Block1	incongruent/STIM_001.jpg	99
24.873	1.229	1229.4	incongruent	Block1	incongruent/STIM_001.jpg	99
29.587	1.102	1101.5	incongruent	Block1	incongruent/STIM_001.jpg	100
32.957	1.291	1290.7	incongruent	Block1	incongruent/STIM_001.jpg	100
37.901	0.984	983.8	incongruent	Block1	incongruent/STIM_001.jpg	99
42.527	1.01	1010.2	incongruent	Block1	incongruent/STIM_002.jpg	100
46.436	1.391	1391.0	incongruent	Block1	incongruent/STIM_002.jpg	100
50.181	0.694	694.3	incongruent	Block1	incongruent/STIM_002.jpg	99
53.441	0.925	924.8	incongruent	Block1	incongruent/STIM_002.jpg	99
58.169	1.027	1027.2	incongruent	Block1	incongruent/STIM_002.jpg	100
62.654	1.516	1516.2	incongruent	Block1	incongruent/STIM_003.jpg	100
67.532	1.426	1426.0	incongruent	Block1	incongruent/STIM_003.jpg	100
72.784	0.709	708.7	incongruent	Block1	incongruent/STIM_003.jpg	99
76.454	1.225	1225.2	incongruent	Block1	incongruent/STIM_003.jpg	100
80.677	0.892	891.7	incongruent	Block1	incongruent/STIM_003.jpg	99
84.094	1.425	1425.0	incongruent	Block1	incongruent/STIM_004.jpg	100
88.016	0.754	754.0	incongruent	Block1	incongruent/STIM_004.jpg	99
91.211	0.962	962.4	incongruent	Block1	incongruent/STIM_004.jpg	100
95.434	0.771	770.6	incongruent	Block1	incongruent/STIM_004.jpg	100
99.762	0.931	930.9	incongruent	Block1	incongruent/STIM_004.jpg	100
103.469	1.155	1155.3	incongruent	Block1	incongruent/STIM_005.jpg	99
108.568	0.714	713.7	incongruent	Block1	incongruent/STIM_005.jpg	99
113.223	0.778	777.5	incongruent	Block1	incongruent/STIM_005.jpg	99
117.24	0.658	657.7	incongruent	Block1	incongruent/STIM_005.jpg	100
121.192	0.583	582.7	incongruent	Block1	incongruent/STIM_005.jpg	100
123.938	0.95	950.2	incongruent	Block1	incongruent/STIM_006.jpg	100
126.926	1.13	1130.2	incongruent	Block1	incongruent/STIM_006.jpg	100
130.644	0.819	819.0	incongruent	Block1	incongruent/STIM_006.jpg	100
133.741	0.881	881.4	incongruent	Block1	incongruent/STIM_006.jpg	99
137.119	0.831	831.3	incongruent	Block1	incongruent/STIM_006.jpg	100
140.074	1.531	1531.0	incongruent	Block1	incongruent/STIM_007.jpg	99
145.467	1.331	1330.7	incongruent	Block1	incongruent/STIM_007.jpg	99
150.753	1.193	1192.6	incongruent	Block1	incongruent/STIM_007.jpg	99
155.427	1.197	1197.3	incongruent	Block1	incongruent/STIM_007.jpg	100
159.421	0.992	991.7	incongruent	Block1	incongruent/STIM_007.jpg	99
163.872	1.275	1275.4	incongruent	Block1	incongruent/STIM_008.jpg	99
167.65	1.244	1243.5	incongruent	Block1	incongruent/STIM_008.jpg	99
172.824	1.0	999.9	incongruent	Block1	incongruent/STIM_008.jpg	100
177.073	1.01	1009.6	incongruent	Block1	incongruent/STIM_008.jpg	100
181.244	0.745	745.2	incongruent	Block1	incongruent/STIM_008.jpg	100
185.788	1.089	1089.2	incongruent	Block1	incongruent/STIM_009.jpg	100
188.931	1.06	1060.4	incongruent	Block1	incongruent/STIM_009.jpg	99
192.918	1.277	1276.7	incongruent	Block1	incongruent/STIM_009.jpg	100
197.412	1.275	1275.4	incongruent	Block1	incongruent/STIM_009.jpg	100
201.714	0.775	775.1	incongruent	Block1	incongruent/STIM_009.jpg	100
205.641	0.75	749.6	incongruent	Block1	incongruent/STIM_010.jpg	99
210.006	1.269	1268.6	incongruent	Block1	incongruent/STIM_010.jpg	100
213.998	0.864	863.9	incongruent	Block1	incongruent/STIM_010.jpg	100
218.738	0.665	665.0	incongruent	Block1	incongruent/STIM_010.jpg	100
223.131	0.687	687.0	incongruent	Block1	incongruent/STIM_010.jpg	99
226.14	1.158	1157.9	incongruent	Block1	incongruent/STIM_011.jpg	100
231.039	1.173	1173.3	incongruent	Block1	incongruent/STIM_011.jpg	99
235.879	0.898	898.1	incongruent	Block1	incongruent/STIM_011.jpg	99
239.761	1.021	1021.1	incongruent	Block1	incongruent/STIM_011.jpg	100
244.235	0.789	789.0	incongruent	Block1	incongruent/STIM_011.jpg	99
248.009	0.924	923.8	incongruent	Block1	incongruent/STIM_012.jpg	99
251.06	1.11	1110.2	incongruent	Block1	incongruent/STIM_012.jpg	99
256.106	1.096	1095.9	incongruent	Block1	incongruent/STIM_012.jpg	100
259.318	1.3	1300.0	incongruent	Block1	incongruent/STIM_012.jpg	99
263.171	0.583	582.6	incongruent	Block1	incongruent/STIM_012.jpg	99
267.395	1.074	1074.2	incongruent	Block1	incongruent/STIM_013.jpg	99
271.855	0.821	821.3	incongruent	Block1	incongruent/STIM_013.jpg	100
275.532	1.199	1198.7	incongruent	Block1	incongruent/STIM_013.jpg	99
280.339	1.247	1246.8	incongruent	Block1	incongruent/STIM_013.jpg	99
284.58	0.789	789.3	incongruent	Block1	incongruent/STIM_013.jpg	99
288.701	1.282	1281.6	incongruent	Block1	incongruent/STIM_014.jpg	99
293.688	0.754	753.5	incongruent	Block1	incongruent/STIM_014.jpg	99
296.713	0.908	908.4	incongruent	Block1	incongruent/STIM_014.jpg	99
301.3	0.872	872.0	incongruent	Block1	incongruent/STIM_014.jpg	99
304.607	0.927	926.7	incongruent	Block1	incongruent/STIM_014.jpg	99
307.711	0.932	931.9	incongruent	Block1	incongruent/STIM_015.jpg	99
311.439	1.083	1082.8	incongruent	Block1	incongruent/STIM_015.jpg	100
316.01	1.086	1085.6	incongruent	Block1	incongruent/STIM_015.jpg	100
320.247	1.15	1150.4	incongruent	Block1	incongruent/STIM_015.jpg	99
324.95	0.679	678.7	incongruent	Block1	incongruent/STIM_015.jpg	99
328.178	1.543	1543.3	incongruent	Block1	incongruent/STIM_016.jpg	100
331.86	0.865	865.1	incongruent	Block1	incongruent/STIM_016.jpg	100
335.765	0.731	731.4	incongruent	Block1	incongruent/STIM_016.jpg	99
339.792	1.277	1276.7	incongruent	Block1	incongruent/STIM_016.jpg	99
344.694	1.06	1060.1	incongruent	Block1	incongruent/STIM_016.jpg	100
348.517	1.378	1377.8	incongruent	Block1	incongruent/STIM_017.jpg	100
353.697	0.797	797.3	incongruent	Block1	incongruent/STIM_017.jpg	100
357.454	1.391	1390.6	incongruent	Block1	incongruent/STIM_017.jpg	100
362.147	0.937	937.2	incongruent	Block1	incongruent/STIM_017.jpg	100
365.566	1.22	1220.3	incongruent	Block1	incongruent/STIM_017.jpg	100
370.694	1.015	1014.9	incongruent	Block1	incongruent/STIM_018.jpg	100
375.04	1.005	1005.0	incongruent	Block1	incongruent/STIM_018.jpg	99
378.188	1.211	1211.3	incongruent	Block1	incongruent/STIM_018.jpg	99
382.784	1.163	1163.4	incongruent	Block1	incongruent/STIM_018.jpg	100
386.021	1.102	1101.7	incongruent	Block1	incongruent/STIM_018.jpg	99
389.595	1.549	1549.1	incongruent	Block1	incongruent/STIM_019.jpg	100
394.959	0.78	779.9	incongruent	Block1	incongruent/STIM_019.jpg	99
398.252	0.862	862.5	incongruent	Block1	incongruent/STIM_019.jpg	100
402.484	1.178	1177.9	incongruent	Block1	incongruent/STIM_019.jpg	99
406.739	0.791	790.9	incongruent	Block1	incongruent/STIM_019.jpg	100
411.372	1.431	1430.6	incongruent	Block1	incongruent/STIM_020.jpg	99
416.231	1.169	1168.8	incongruent	Block1	incongruent/STIM_020.jpg	100
420.794	1.113	1112.7	incongruent	Block1	incongruent/STIM_020.jpg	99
425.236	1.271	1271.0	incongruent	Block1	incongruent/STIM_020.jpg	99
429.659	0.951	951.1	incongruent	Block1	incongruent/STIM_020.jpg	100
434.101	1.439	1439.4	incongruent	Block1	incongruent/STIM_021.jpg	99
437.77	1.014	1013.9	incongruent	Block1	incongruent/STIM_021.jpg	99
441.505	1.188	1188.4	incongruent	Block1	incongruent/STIM_021.jpg	99
444.887	1.229	1229.2	incongruent	Block1	incongruent/STIM_021.jpg	99
449.265	0.924	924.0	incongruent	Block1	incongruent/STIM_021.jpg	100
453.433	0.869	868.6	incongruent	Block1	incongruent/STIM_022.jpg	100
457.942	1.11	1110.4	incongruent	Block1	incongruent/STIM_022.jpg	99
462.566	1.176	1175.7	incongruent	Block1	incongruent/STIM_022.jpg	100
465.8	0.942	942.5	incongruent	Block1	incongruent/STIM_022.jpg	100
469.126	1.135	1135.1	incongruent	Block1	incongruent/STIM_022.jpg	100
472.839	1.169	1168.7	incongruent	Block1	incongruent/STIM_023.jpg	99
476.163	1.469	1469.0	incongruent	Block1	incongruent/STIM_023.jpg	100
480.188	0.843	842.6	incongruent	Block1	incongruent/STIM_023.jpg	99
484.053	1.034	1033.9	incongruent	Block1	incongruent/STIM_023.jpg	100
488.062	0.621	621.4	incongruent	Block1	incongruent/STIM_023.jpg	99
490.863	1.179	1178.7	incongruent	Block1	incongruent/STIM_024.jpg	99
494.256	1.417	1417.3	incongruent	Block1	incongruent/STIM_024.jpg	100
498.148	0.922	922.5	incongruent	Block1	incongruent/STIM_024.jpg	99
502.017	1.194	1194.5	incongruent	Block1	incongruent/STIM_024.jpg	100
506.007	1.088	1088.4	incongruent	Block1	incongruent/STIM_024.jpg	99
509.402	1.155	1155.3	incongruent	Block1	incongruent/STIM_025.jpg	100
512.946	1.103	1102.6	incongruent	Block1	incongruent/STIM_025.jpg	100
518.041	0.655	654.6	incongruent	Block1	incongruent/STIM_025.jpg	99
521.422	0.71	709.8	incongruent	Block1	incongruent/STIM_025.jpg	99
524.813	0.702	702.2	incongruent	Block1	incongruent/STIM_025.jpg	100
528.757	0.975	975.4	incongruent	Block1	incongruent/STIM_026.jpg	100
533.523	1.35	1349.8	incongruent	Block1	incongruent/STIM_026.jpg	99
537.243	0.677	677.1	incongruent	Block1	incongruent/STIM_026.jpg	100
541.2	1.048	1048.3	incongruent	Block1	incongruent/STIM_026.jpg	99
545.255	1.145	1145.2	incongruent	Block1	incongruent/STIM_026.jpg	99
549.265	1.466	1466.3	incongruent	Block1	incongruent/STIM_027.jpg	99
553.152	0.877	877.0	incongruent	Block1	incongruent/STIM_027.jpg	99
557.86	0.852	852.3	incongruent	Block1	incongruent/STIM_027.jpg	99
561.415	0.855	854.6	incongruent	Block1	incongruent/STIM_027.jpg	100
565.141	0.679	679.2	incongruent	Block1	incongruent/STIM_027.jpg	99
569.5	1.261	1260.7	incongruent	Block1	incongruent/STIM_028.jpg	99
573.552	0.709	708.7	incongruent	Block1	incongruent/STIM_028.jpg	100
577.174	1.212	1211.5	incongruent	Block1	incongruent/STIM_028.jpg	100
580.412	0.801	800.9	incongruent	Block1	incongruent/STIM_028.jpg	100
583.888	1.108	1108.2	incongruent	Block1	incongruent/STIM_028.jpg	99
588.924	0.808	808.0	incongruent	Block1	incongruent/STIM_029.jpg	99
593.479	1.043	1043.1	incongruent	Block1	incongruent/STIM_029.jpg	99
597.319	0.896	896.0	incongruent	Block1	incongruent/STIM_029.jpg	100
600.392	0.733	733.4	incongruent	Block1	incongruent/STIM_029.jpg	99
603.786	0.739	739.3	incongruent	Block1	incongruent/STIM_029.jpg	100
607.847	0.887	887.3	congruent	Block1	congruent/STIM_000.jpg	100
611.554	0.544	543.7	congruent	Block1	congruent/STIM_000.jpg	99
614.683	0.685	685.0	congruent	Block1	congruent/STIM_000.jpg	99
619.344	0.86	860.3	congruent	Block1	congruent/STIM_000.jpg	99
623.632	0.576	576.3	congruent	Block1	congruent/STIM_000.jpg	99
626.945	0.611	610.9	congruent	Block1	congruent/STIM_001.jpg	100
629.97	0.699	698.9	congruent	Block1	congruent/STIM_001.jpg	100
634.543	0.58	580.3	congruent	Block1	congruent/STIM_001.jpg	99
637.854	0.732	732.5	congruent	Block1	congruent/STIM_001.jpg	100
640.935	0.61	610.2	congruent	Block1	congruent/STIM_001.jpg	100
643.919	0.717	717.3	congruent	Block1	congruent/STIM_002.jpg	100
648.093	0.557	557.0	congruent	Block1	congruent/STIM_002.jpg	100
651.341	0.788	788.4	congruent	Block1	congruent/STIM_002.jpg	99
654.958	0.753	752.8	congruent	Block1	congruent/STIM_002.jpg	100
658.743	0.801	800.8	congruent	Block1	congruent/STIM_002.jpg	99
663.516	0.75	750.3	congruent	Block1	congruent/STIM_003.jpg	99
667.187	0.668	667.7	congruent	Block1	congruent/STIM_003.jpg	99
670.179	0.793	793.3	congruent	Block1	congruent/STIM_003.jpg	99
674.534	0.589	589.3	congruent	Block1	congruent/STIM_003.jpg	100
678.198	0.761	761.1	congruent	Block1	congruent/STIM_003.jpg	100
681.666	0.774	774.4	congruent	Block1	congruent/STIM_004.jpg	100
686.07	0.823	822.8	congruent	Block1	congruent/STIM_004.jpg	100
689.924	0.853	853.4	congruent	Block1	congruent/STIM_004.jpg	100
694.642	0.671	671.4	congruent	Block1	congruent/STIM_004.jpg	100
698.37	0.758	757.5	congruent	Block1	congruent/STIM_004.jpg	99
701.638	0.712	711.7	congruent	Block1	congruent/STIM_005.jpg	100
705.312	0.76	759.5	congruent	Block1	congruent/STIM_005.jpg	99
708.886	0.569	568.6	congruent	Block1	congruent/STIM_005.jpg	100
712.251	0.892	892.0	congruent	Block1	congruent/STIM_005.jpg	100
715.748	0.92	920.5	congruent	Block1	congruent/STIM_005.jpg	100
719.382	0.659	658.6	congruent	Block1	congruent/STIM_006.jpg	100
723.615	0.752	752.4	congruent	Block1	congruent/STIM_006.jpg	99
728.245	0.824	823.6	congruent	Block1	congruent/STIM_006.jpg	99
731.815	0.667	667.0	congruent	Block1	congruent/STIM_006.jpg	99
735.979	0.678	678.5	congruent	Block1	congruent/STIM_006.jpg	99
739.354	0.642	642.1	congruent	Block1	congruent/STIM_007.jpg	100
743.806	0.601	600.9	congruent	Block1	congruent/STIM_007.jpg	100
747.545	0.914	914.2	congruent	Block1	congruent/STIM_007.jpg	100
750.76	0.881	880.8	congruent	Block1	congruent/STIM_007.jpg	100
753.691	0.606	606.3	congruent	Block1	congruent/STIM_007.jpg	100
757.645	0.631	630.6	congruent	Block1	congruent/STIM_008.jpg	99
761.611	0.678	678.0	congruent	Block1	congruent/STIM_008.jpg	100
764.968	0.843	842.9	congruent	Block1	congruent/STIM_008.jpg	99
768.903	0.627	627.1	congruent	Block1	congruent/STIM_008.jpg	100
773.488	0.758	757.9	congruent	Block1	congruent/STIM_008.jpg	99
777.835	0.57	570.4	congruent	Block1	congruent/STIM_009.jpg	99
780.685	0.572	571.7	congruent	Block1	congruent/STIM_009.jpg	100
784.243	0.726	726.2	congruent	Block1	congruent/STIM_009.jpg	99
787.732	0.752	752.0	congruent	Block1	congruent/STIM_009.jpg	100
790.662	0.542	541.8	congruent	Block1	congruent/STIM_009.jpg	99
794.298	0.861	861.2	congruent	Block1	congruent/STIM_010.jpg	100
797.634	0.655	655.0	congruent	Block1	congruent/STIM_010.jpg	99
802.15	0.646	646.2	congruent	Block1	congruent/STIM_010.jpg	100
806.495	0.854	854.5	congruent	Block1	congruent/STIM_010.jpg	99
810.029	0.557	557.1	congruent	Block1	congruent/STIM_010.jpg	100
814.262	0.536	536.5	congruent	Block1	congruent/STIM_011.jpg	99
818.643	0.718	717.6	congruent	Block1	congruent/STIM_011.jpg	100
822.591	0.65	650.5	congruent	Block1	congruent/STIM_011.jpg	99
825.847	0.526	525.6	congruent	Block1	congruent/STIM_011.jpg	99
829.102	0.918	918.4	congruent	Block1	congruent/STIM_011.jpg	99
833.917	0.813	813.1	congruent	Block1	congruent/STIM_012.jpg	100
836.996	0.622	622.2	congruent	Block1	congruent/STIM_012.jpg	99
840.526	0.529	529.4	congruent	Block1	congruent/STIM_012.jpg	99
843.323	0.883	882.9	congruent	Block1	congruent/STIM_012.jpg	99
847.371	0.866	865.7	congruent	Block1	congruent/STIM_012.jpg	99
851.809	0.64	639.7	congruent	Block1	congruent/STIM_013.jpg	99
854.75	0.534	534.4	congruent	Block1	congruent/STIM_013.jpg	100
858.132	0.904	903.5	congruent	Block1	congruent/STIM_013.jpg	100
862.255	0.928	927.8	congruent	Block1	congruent/STIM_013.jpg	100
867.103	0.6	600.1	congruent	Block1	congruent/STIM_013.jpg	99
870.541	0.661	661.4	congruent	Block1	congruent/STIM_014.jpg	100
874.791	0.818	818.5	congruent	Block1	congruent/STIM_014.jpg	99
878.863	0.745	745.4	congruent	Block1	congruent/STIM_014.jpg	100
882.518	0.84	840.5	congruent	Block1	congruent/STIM_014.jpg	100
885.412	0.542	541.7	congruent	Block1	congruent/STIM_014.jpg	99
888.245	0.629	628.6	congruent	Block1	congruent/STIM_015.jpg	100
890.905	0.658	658.1	congruent	Block1	congruent/STIM_015.jpg	100
894.545	0.689	689.4	congruent	Block1	congruent/STIM_015.jpg	100
898.116	0.687	687.2	congruent	Block1	congruent/STIM_015.jpg	100
902.487	0.782	781.7	congruent	Block1	congruent/STIM_015.jpg	100
905.632	0.63	629.6	congruent	Block1	congruent/STIM_016.jpg	99
909.902	0.715	714.7	congruent	Block1	congruent/STIM_016.jpg	100
914.235	0.772	772.1	congruent	Block1	congruent/STIM_016.jpg	100
918.953	0.705	704.6	congruent	Block1	congruent/STIM_016.jpg	100
923.31	0.575	575.2	congruent	Block1	congruent/STIM_016.jpg	100
926.54	0.903	902.7	congruent	Block1	congruent/STIM_017.jpg	99
930.955	0.537	536.9	congruent	Block1	congruent/STIM_017.jpg	99
934.13	0.536	535.5	congruent	Block1	congruent/STIM_017.jpg	99
937.194	0.589	588.6	congruent	Block1	congruent/STIM_017.jpg	100
940.776	0.565	564.9	congruent	Block1	congruent/STIM_017.jpg	100
945.16	0.923	922.6	congruent	Block1	congruent/STIM_018.jpg	99
949.517	0.653	653.0	congruent	Block1	congruent/STIM_018.jpg	99
953.812	0.918	918.3	congruent	Block1	congruent/STIM_018.jpg	99
957.757	0.894	894.0	congruent	Block1	congruent/STIM_018.jpg	99
961.129	0.584	583.5	congruent	Block1	congruent/STIM_018.jpg	99
965.478	0.573	573.1	congruent	Block1	congruent/STIM_019.jpg	99
968.1	0.784	783.5	congruent	Block1	congruent/STIM_019.jpg	99
972.421	0.738	737.7	congruent	Block1	congruent/STIM_019.jpg	100
977.138	0.732	732.5	congruent	Block1	congruent/STIM_019.jpg	99
979.935	0.781	781.0	congruent	Block1	congruent/STIM_019.jpg	99
984.119	0.869	868.8	congruent	Block1	congruent/STIM_020.jpg	100
988.287	0.82	820.1	congruent	Block1	congruent/STIM_020.jpg	100
992.4	0.544	544.2	congruent	Block1	congruent/STIM_020.jpg	100
996.499	0.566	565.8	congruent	Block1	congruent/STIM_020.jpg	100
1000.59	0.658	657.7	congruent	Block1	congruent/STIM_020.jpg	99
1003.558	0.795	795.0	congruent	Block1	congruent/STIM_021.jpg	100
1007.521	0.885	885.1	congruent	Block1	congruent/STIM_021.jpg	100
1011.499	0.62	619.8	congruent	Block1	congruent/STIM_021.jpg	100
1014.425	0.676	676.3	congruent	Block1	congruent/STIM_021.jpg	99
1018.362	0.529	528.6	congruent	Block1	congruent/STIM_021.jpg	100
1021.235	0.688	688.3	congruent	Block1	congruent/STIM_022.jpg	100
1025.252	0.681	681.2	congruent	Block1	congruent/STIM_022.jpg	99
1029.283	0.535	535.2	congruent	Block1	congruent/STIM_022.jpg	99
1033.775	0.586	586.4	congruent	Block1	congruent/STIM_022.jpg	100
1037.216	0.706	706.4	congruent	Block1	congruent/STIM_022.jpg	99
1040.375	0.873	873.1	congruent	Block1	congruent/STIM_023.jpg	100
1043.39	0.641	641.0	congruent	Block1	congruent/STIM_023.jpg	99
1047.301	0.897	896.8	congruent	Block1	congruent/STIM_023.jpg	100
1051.829	0.906	906.1	congruent	Block1	congruent/STIM_023.jpg	100
1056.315	0.721	720.8	congruent	Block1	congruent/STIM_023.jpg	99
1059.834	0.877	877.2	congruent	Block1	congruent/STIM_024.jpg	99
1063.123	0.578	577.9	congruent	Block1	congruent/STIM_024.jpg	100
1066.596	0.594	594.3	congruent	Block1	congruent/STIM_024.jpg	100
1069.831	0.783	783.4	congruent	Block1	congruent/STIM_024.jpg	99
1073.877	0.875	875.4	congruent	Block1	congruent/STIM_024.jpg	100
1077.757	0.525	524.8	congruent	Block1	congruent/STIM_025.jpg	100
1080.508	0.784	784.0	congruent	Block1	congruent/STIM_025.jpg	99
1083.691	0.84	839.6	congruent	Block1	congruent/STIM_025.jpg	100
1087.178	0.695	695.1	congruent	Block1	congruent/STIM_025.jpg	100
1091.158	0.71	709.5	congruent	Block1	congruent/STIM_025.jpg	99
1094.38	0.844	843.5	congruent	Block1	congruent/STIM_026.jpg	99
1099.059	0.565	565.1	congruent	Block1	congruent/STIM_026.jpg	99
1103.208	0.727	727.1	congruent	Block1	congruent/STIM_026.jpg	100
1106.081	0.929	928.6	congruent	Block1	congruent/STIM_026.jpg	99
1111.0	0.852	852.3	congruent	Block1	congruent/STIM_026.jpg	100
1114.35	0.668	667.9	congruent	Block1	congruent/STIM_027.jpg	99
1118.84	0.558	558.4	congruent	Block1	congruent/STIM_027.jpg	100
1123.256	0.643	643.4	congruent	Block1	congruent/STIM_027.jpg	100
1126.255	0.713	713.2	congruent	Block1	congruent/STIM_027.jpg	99
1130.35	0.802	802.1	congruent	Block1	congruent/STIM_027.jpg	100
1134.367	0.703	703.2	congruent	Block1	congruent/STIM_028.jpg	100
1137.156	0.773	772.8	congruent	Block1	congruent/STIM_028.jpg	100
1141.541	0.601	601.3	congruent	Block1	congruent/STIM_028.jpg	100
1145.82	0.591	590.6	congruent	Block1	congruent/STIM_028.jpg	100
1148.888	0.789	789.1	congruent	Block1	congruent/STIM_028.jpg	100
1153.27	0.559	558.8	congruent	Block1	congruent/STIM_029.jpg	99
1156.637	0.54	540.5	congruent	Block1	congruent/STIM_029.jpg	100
1160.817	0.886	886.4	congruent	Block1	congruent/STIM_029.jpg	99
1164.699	0.921	920.8	congruent	Block1	congruent/STIM_029.jpg	99
1169.25	0.782	782.5	congruent	Block1	congruent/STIM_029.jpg	99
1173.335	0.848	848.2	incongruent	Block2	incongruent/STIM_000.jpg	100
1176.898	0.699	699.0	incongruent	Block2	incongruent/STIM_000.jpg	100
1181.109	0.735	734.7	incongruent	Block2	incongruent/STIM_000.jpg	99
1185.602	0.927	927.1	incongruent	Block2	incongruent/STIM_000.jpg	100
1189.353	0.7	699.6	incongruent	Block2	incongruent/STIM_000.jpg	99
1193.255	1.235	1235.0	incongruent	Block2	incongruent/STIM_001.jpg	100
1197.378	0.693	693.3	incongruent	Block2	incongruent/STIM_001.jpg	100
1201.243	0.8	799.7	incongruent	Block2	incongruent/STIM_001.jpg	100
1205.013	1.041	1041.0	incongruent	Block2	incongruent/STIM_001.jpg	99
1209.897	0.703	702.7	incongruent	Block2	incongruent/STIM_001.jpg	99
1214.382	0.864	864.3	incongruent	Block2	incongruent/STIM_002.jpg	99
1218.809	1.033	1032.9	incongruent	Block2	incongruent/STIM_002.jpg	99
1223.101	0.574	573.6	incongruent	Block2	incongruent/STIM_002.jpg	100
1227.391	0.621	620.7	incongruent	Block2	incongruent/STIM_002.jpg	99
1230.309	0.896	895.6	incongruent	Block2	incongruent/STIM_002.jpg	99
1234.501	0.751	751.3	incongruent	Block2	incongruent/STIM_003.jpg	100
1237.625	0.88	879.9	incongruent	Block2	incongruent/STIM_003.jpg	99
1241.378	1.054	1053.5	incongruent	Block2	incongruent/STIM_003.jpg	99
1246.406	0.787	787.3	incongruent	Block2	incongruent/STIM_003.jpg	100
1249.746	0.618	618.1	incongruent	Block2	incongruent/STIM_003.jpg	100
1252.588	0.948	948.2	incongruent	Block2	incongruent/STIM_004.jpg	100
1256.947	1.012	1011.6	incongruent	Block2	incongruent/STIM_004.jpg	99
1260.401	1.023	1022.6	incongruent	Block2	incongruent/STIM_004.jpg	99
1264.585	0.835	835.4	incongruent	Block2	incongruent/STIM_004.jpg	99
1267.948	0.934	934.3	incongruent	Block2	incongruent/STIM_004.jpg	100
1271.629	0.74	740.4	incongruent	Block2	incongruent/STIM_005.jpg	100
1275.659	0.996	996.5	incongruent	Block2	incongruent/STIM_005.jpg	99
1280.475	1.088	1088.1	incongruent	Block2	incongruent/STIM_005.jpg	100
1284.152	0.991	991.2	incongruent	Block2	incongruent/STIM_005.jpg	100
1287.795	0.821	821.1	incongruent	Block2	incongruent/STIM_005.jpg	100
1291.429	0.955	954.8	incongruent	Block2	incongruent/STIM_006.jpg	100
1294.952	0.811	811.0	incongruent	Block2	incongruent/STIM_006.jpg	99
1297.901	0.852	851.8	incongruent	Block2	incongruent/STIM_006.jpg	100
1300.861	0.804	803.8	incongruent	Block2	incongruent/STIM_006.jpg	100
1305.644	0.909	909.2	incongruent	Block2	incongruent/STIM_006.jpg	99
1309.876	1.318	1318.1	incongruent	Block2	incongruent/STIM_007.jpg	99
1313.354	0.937	936.8	incongruent	Block2	incongruent/STIM_007.jpg	99
1317.446	0.934	933.5	incongruent	Block2	incongruent/STIM_007.jpg	100
1321.492	0.829	829.3	incongruent	Block2	incongruent/STIM_007.jpg	100
1325.574	1.02	1020.0	incongruent	Block2	incongruent/STIM_007.jpg	100
1328.889	0.884	884.4	incongruent	Block2	incongruent/STIM_008.jpg	100
1332.305	0.75	750.0	incongruent	Block2	incongruent/STIM_008.jpg	99
1335.451	0.891	891.3	incongruent	Block2	incongruent/STIM_008.jpg	100
1340.241	0.778	777.8	incongruent	Block2	incongruent/STIM_008.jpg	100
1343.87	0.721	720.6	incongruent	Block2	incongruent/STIM_008.jpg	99
1346.995	1.254	1254.4	incongruent	Block2	incongruent/STIM_009.jpg	99
1351.082	0.791	791.1	incongruent	Block2	incongruent/STIM_009.jpg	99
1354.503	0.546	546.2	incongruent	Block2	incongruent/STIM_009.jpg	100
1357.887	0.747	747.0	incongruent	Block2	incongruent/STIM_009.jpg	100
1361.264	0.923	923.2	incongruent	Block2	incongruent/STIM_009.jpg	99
1365.781	1.112	1112.3	incongruent	Block2	incongruent/STIM_010.jpg	100
1369.47	1.234	1234.1	incongruent	Block2	incongruent/STIM_010.jpg	100
1373.735	0.924	923.7	incongruent	Block2	incongruent/STIM_010.jpg	100
1377.322	0.918	918.1	incongruent	Block2	incongruent/STIM_010.jpg	100
1381.105	0.692	691.6	incongruent	Block2	incongruent/STIM_010.jpg	100
1385.505	0.694	694.0	incongruent	Block2	incongruent/STIM_011.jpg	99
1388.948	0.891	890.6	incongruent	Block2	incongruent/STIM_011.jpg	99
1393.562	0.591	590.7	incongruent	Block2	incongruent/STIM_011.jpg	100
1396.374	0.922	922.4	incongruent	Block2	incongruent/STIM_011.jpg	100
1401.009	0.754	754.0	incongruent	Block2	incongruent/STIM_011.jpg	100
1403.881	0.894	893.6	incongruent	Block2	incongruent/STIM_012.jpg	99
1407.151	1.205	1205.4	incongruent	Block2	incongruent/STIM_012.jpg	100
1410.87	0.589	588.6	incongruent	Block2	incongruent/STIM_012.jpg	100
1414.861	0.555	554.6	incongruent	Block2	incongruent/STIM_012.jpg	99
1417.97	0.653	652.9	incongruent	Block2	incongruent/STIM_012.jpg	100
1422.024	0.947	946.7	incongruent	Block2	incongruent/STIM_013.jpg	100
1425.015	0.94	939.5	incongruent	Block2	incongruent/STIM_013.jpg	100
1428.089	0.728	728.1	incongruent	Block2	incongruent/STIM_013.jpg	100
1432.255	0.802	801.5	incongruent	Block2	incongruent/STIM_013.jpg	100
1435.751	0.783	782.8	incongruent	Block2	incongruent/STIM_013.jpg	100
1438.953	1.271	1270.7	incongruent	Block2	incongruent/STIM_014.jpg	99
1443.467	0.808	807.8	incongruent	Block2	incongruent/STIM_014.jpg	99
1446.871	0.794	794.0	incongruent	Block2	incongruent/STIM_014.jpg	99
1450.377	1.046	1046.3	incongruent	Block2	incongruent/STIM_014.jpg	100
1454.742	0.645	644.9	incongruent	Block2	incongruent/STIM_014.jpg	100
1458.177	1.188	1188.1	incongruent	Block2	incongruent/STIM_015.jpg	100
1463.275	1.171	1171.0	incongruent	Block2	incongruent/STIM_015.jpg	99
1467.645	0.879	878.8	incongruent	Block2	incongruent/STIM_015.jpg	100
1471.522	1.079	1078.8	incongruent	Block2	incongruent/STIM_015.jpg	99
1475.373	0.845	845.0	incongruent	Block2	incongruent/STIM_015.jpg	100
1478.258	0.64	639.7	incongruent	Block2	incongruent/STIM_016.jpg	100
1482.476	0.935	935.0	incongruent	Block2	incongruent/STIM_016.jpg	100
1485.793	1.135	1135.0	incongruent	Block2	incongruent/STIM_016.jpg	100
1490.338	0.752	752.5	incongruent	Block2	incongruent/STIM_016.jpg	100
1494.688	0.778	778.0	incongruent	Block2	incongruent/STIM_016.jpg	100
1497.975	1.136	1136.0	incongruent	Block2	incongruent/STIM_017.jpg	100
1502.749	0.684	683.5	incongruent	Block2	incongruent/STIM_017.jpg	99
1507.314	0.782	781.5	incongruent	Block2	incongruent/STIM_017.jpg	100
1511.889	0.738	737.8	incongruent	Block2	incongruent/STIM_017.jpg	100
1516.059	0.821	821.0	incongruent	Block2	incongruent/STIM_017.jpg	99
1519.419	0.941	941.2	incongruent	Block2	incongruent/STIM_018.jpg	99
1522.567	0.955	955.1	incongruent	Block2	incongruent/STIM_018.jpg	99
1526.177	1.127	1127.4	incongruent	Block2	incongruent/STIM_018.jpg	99
1529.83	0.899	899.3	incongruent	Block2	incongruent/STIM_018.jpg	99
1534.416	0.552	551.9	incongruent	Block2	incongruent/STIM_018.jpg	100
1537.004	1.24	1239.7	incongruent	Block2	incongruent/STIM_019.jpg	100
1541.536	0.957	956.7	incongruent	Block2	incongruent/STIM_019.jpg	100
1546.02	0.855	855.1	incongruent	Block2	incongruent/STIM_019.jpg	100
1550.821	0.58	580.1	incongruent	Block2	incongruent/STIM_019.jpg	100
1554.773	0.711	711.0	incongruent	Block2	incongruent/STIM_019.jpg	99
1557.512	0.724	723.9	incongruent	Block2	incongruent/STIM_020.jpg	100
1560.33	0.612	611.6	incongruent	Block2	incongruent/STIM_020.jpg	99
1564.87	0.995	995.1	incongruent	Block2	incongruent/STIM_020.jpg	99
1568.889	0.901	901.1	incongruent	Block2	incongruent/STIM_020.jpg	100
1572.51	0.589	588.7	incongruent	Block2	incongruent/STIM_020.jpg	100
1576.191	1.302	1302.4	incongruent	Block2	incongruent/STIM_021.jpg	100
1581.036	0.834	833.6	incongruent	Block2	incongruent/STIM_021.jpg	99
1585.737	1.132	1131.9	incongruent	Block2	incongruent/STIM_021.jpg	100
1588.966	1.07	1069.6	incongruent	Block2	incongruent/STIM_021.jpg	100
1592.522	0.807	807.3	incongruent	Block2	incongruent/STIM_021.jpg	99
1596.868	0.778	778.2	incongruent	Block2	incongruent/STIM_022.jpg	99
1600.074	1.169	1168.7	incongruent	Block2	incongruent/STIM_022.jpg	100
1604.286	0.777	776.7	incongruent	Block2	incongruent/STIM_022.jpg	100
1608.021	0.884	884.3	incongruent	Block2	incongruent/STIM_022.jpg	99
1611.817	0.836	836.3	incongruent	Block2	incongruent/STIM_022.jpg	100
1616.017	1.014	1013.5	incongruent	Block2	incongruent/STIM_023.jpg	100
1619.61	1.014	1013.6	incongruent	Block2	incongruent/STIM_023.jpg	100
1623.409	1.054	1053.9	incongruent	Block2	incongruent/STIM_023.jpg	99
1627.629	1.036	1035.5	incongruent	Block2	incongruent/STIM_023.jpg	99
1631.998	0.64	639.8	incongruent	Block2	incongruent/STIM_023.jpg	100
1636.297	0.814	813.9	incongruent	Block2	incongruent/STIM_024.jpg	99
1639.542	1.052	1051.5	incongruent	Block2	incongruent/STIM_024.jpg	99
1644.069	0.689	688.6	incongruent	Block2	incongruent/STIM_024.jpg	99
1648.104	0.559	559.3	incongruent	Block2	incongruent/STIM_024.jpg	100
1652.251	0.565	565.3	incongruent	Block2	incongruent/STIM_024.jpg	99
1655.413	0.62	620.0	incongruent	Block2	incongruent/STIM_025.jpg	100
1659.59	0.913	912.6	incongruent	Block2	incongruent/STIM_025.jpg	100
1662.786	0.81	810.5	incongruent	Block2	incongruent/STIM_025.jpg	100
1666.746	0.71	710.4	incongruent	Block2	incongruent/STIM_025.jpg	99
1670.84	0.665	665.4	incongruent	Block2	incongruent/STIM_025.jpg	100
1675.126	1.064	1063.5	incongruent	Block2	incongruent/STIM_026.jpg	100
1679.126	0.761	761.0	incongruent	Block2	incongruent/STIM_026.jpg	100
1682.629	0.771	770.9	incongruent	Block2	incongruent/STIM_026.jpg	99
1685.694	0.703	703.3	incongruent	Block2	incongruent/STIM_026.jpg	100
1689.799	0.916	915.9	incongruent	Block2	incongruent/STIM_026.jpg	99
1693.455	1.094	1094.0	incongruent	Block2	incongruent/STIM_027.jpg	100
1696.595	0.893	893.2	incongruent	Block2	incongruent/STIM_027.jpg	100
1700.806	1.119	1119.2	incongruent	Block2	incongruent/STIM_027.jpg	100
1704.868	0.961	961.2	incongruent	Block2	incongruent/STIM_027.jpg	99
1709.734	0.636	636.2	incongruent	Block2	incongruent/STIM_027.jpg	99
1713.359	0.79	790.3	incongruent	Block2	incongruent/STIM_028.jpg	99
1717.242	0.652	652.1	incongruent	Block2	incongruent/STIM_028.jpg	99
1720.762	0.864	863.7	incongruent	Block2	incongruent/STIM_028.jpg	99
1724.021	0.706	705.7	incongruent	Block2	incongruent/STIM_028.jpg	99
1727.361	0.651	651.1	incongruent	Block2	incongruent/STIM_028.jpg	99
1731.761	1.298	1297.7	incongruent	Block2	incongruent/STIM_029.jpg	100
1735.793	1.178	1178.3	incongruent	Block2	incongruent/STIM_029.jpg	100
1740.763	0.787	787.2	incongruent	Block2	incongruent/STIM_029.jpg	100
1744.056	1.033	1033.0	incongruent	Block2	incongruent/STIM_029.jpg	99
1747.209	0.631	631.3	incongruent	Block2	incongruent/STIM_029.jpg	99
1751.57	0.793	793.3	congruent	Block2	congruent/STIM_000.jpg	99
1755.664	0.8	800.1	congruent	Block2	congruent/STIM_000.jpg	99
1760.31	0.595	594.6	congruent	Block2	congruent/STIM_000.jpg	99
1764.666	0.772	771.7	congruent	Block2	congruent/STIM_000.jpg	99
1769.407	0.76	760.4	congruent	Block2	congruent/STIM_000.jpg	99
1774.14	0.829	828.6	congruent	Block2	congruent/STIM_001.jpg	100
1778.594	0.787	786.6	congruent	Block2	congruent/STIM_001.jpg	100
1781.668	0.621	620.6	congruent	Block2	congruent/STIM_001.jpg	100
1784.397	0.87	870.0	congruent	Block2	congruent/STIM_001.jpg	99
1787.493	0.897	896.8	congruent	Block2	congruent/STIM_001.jpg	100
1791.429	0.797	797.0	congruent	Block2	congruent/STIM_002.jpg	99
1795.533	0.835	835.4	congruent	Block2	congruent/STIM_002.jpg	99
1800.319	0.873	873.0	congruent	Block2	congruent/STIM_002.jpg	99
1803.36	0.927	927.2	congruent	Block2	congruent/STIM_002.jpg	100
1806.788	0.687	687.0	congruent	Block2	congruent/STIM_002.jpg	99
1811.451	0.638	637.9	congruent	Block2	congruent/STIM_003.jpg	99
1814.324	0.929	929.0	congruent	Block2	congruent/STIM_003.jpg	100
1817.307	0.903	902.6	congruent	Block2	congruent/STIM_003.jpg	99
1821.288	0.802	802.1	congruent	Block2	congruent/STIM_003.jpg	100
1825.812	0.6	599.5	congruent	Block2	congruent/STIM_003.jpg	99
1829.475	0.701	700.9	congruent	Block2	congruent/STIM_004.jpg	100
1833.709	0.871	871.2	congruent	Block2	congruent/STIM_004.jpg	99
1837.449	0.526	526.3	congruent	Block2	congruent/STIM_004.jpg	100
1840.299	0.595	594.8	congruent	Block2	congruent/STIM_004.jpg	99
1844.035	0.535	535.1	congruent	Block2	congruent/STIM_004.jpg	99
1848.314	0.76	759.7	congruent	Block2	congruent/STIM_005.jpg	100
1851.679	0.645	645.2	congruent	Block2	congruent/STIM_005.jpg	100
1854.514	0.569	569.3	congruent	Block2	congruent/STIM_005.jpg	100
1857.793	0.903	902.6	congruent	Block2	congruent/STIM_005.jpg	100
1861.601	0.695	694.6	congruent	Block2	congruent/STIM_005.jpg	100
1864.361	0.613	612.9	congruent	Block2	congruent/STIM_006.jpg	99
1868.869	0.585	584.9	congruent	Block2	congruent/STIM_006.jpg	99
1872.218	0.821	821.3	congruent	Block2	congruent/STIM_006.jpg	100
1876.364	0.826	826.0	congruent	Block2	congruent/STIM_006.jpg	100
1879.887	0.611	610.6	congruent	Block2	congruent/STIM_006.jpg	99
1882.842	0.853	853.2	congruent	Block2	congruent/STIM_007.jpg	100
1887.187	0.902	901.9	congruent	Block2	congruent/STIM_007.jpg	99
1890.92	0.633	633.2	congruent	Block2	congruent/STIM_007.jpg	100
1895.551	0.564	563.5	congruent	Block2	congruent/STIM_007.jpg	100
1898.434	0.594	594.5	congruent	Block2	congruent/STIM_007.jpg	99
1903.016	0.63	629.6	congruent	Block2	congruent/STIM_008.jpg	100
1906.266	0.541	541.4	congruent	Block2	congruent/STIM_008.jpg	100
1910.486	0.533	532.8	congruent	Block2	congruent/STIM_008.jpg	100
1913.034	0.725	724.7	congruent	Block2	congruent/STIM_008.jpg	99
1916.993	0.899	899.4	congruent	Block2	congruent/STIM_008.jpg	100
1920.55	0.552	551.9	congruent	Block2	congruent/STIM_009.jpg	100
1923.701	0.911	910.9	congruent	Block2	congruent/STIM_009.jpg	100
1928.308	0.892	891.5	congruent	Block2	congruent/STIM_009.jpg	100
1932.035	0.767	767.0	congruent	Block2	congruent/STIM_009.jpg	99
1934.863	0.852	851.6	congruent	Block2	congruent/STIM_009.jpg	100
1938.15	0.927	927.2	congruent	Block2	congruent/STIM_010.jpg	100
1941.794	0.634	633.8	congruent	Block2	congruent/STIM_010.jpg	100
1944.709	0.844	843.9	congruent	Block2	congruent/STIM_010.jpg	100
1948.524	0.586	585.5	congruent	Block2	congruent/STIM_010.jpg	99
1951.183	0.72	719.9	congruent	Block2	congruent/STIM_010.jpg	99
1954.779	0.722	721.7	congruent	Block2	congruent/STIM_011.jpg	99
1959.261	0.846	846.4	congruent	Block2	congruent/STIM_011.jpg	99
1962.299	0.627	626.6	congruent	Block2	congruent/STIM_011.jpg	99
1966.656	0.802	801.6	congruent	Block2	congruent/STIM_011.jpg	99
1970.109	0.604	604.3	congruent	Block2	congruent/STIM_011.jpg	100
1973.989	0.606	605.5	congruent	Block2	congruent/STIM_012.jpg	99
1977.02	0.672	672.5	congruent	Block2	congruent/STIM_012.jpg	100
1981.356	0.614	613.5	congruent	Block2	congruent/STIM_012.jpg	100
1985.528	0.594	594.4	congruent	Block2	congruent/STIM_012.jpg	100
1988.474	0.81	810.1	congruent	Block2	congruent/STIM_012.jpg	100
1992.587	0.8	799.5	congruent	Block2	congruent/STIM_013.jpg	100
1995.816	0.663	662.6	congruent	Block2	congruent/STIM_013.jpg	100
2000.235	0.786	786.5	congruent	Block2	congruent/STIM_013.jpg	99
2003.628	0.906	906.4	congruent	Block2	congruent/STIM_013.jpg	100
2006.903	0.669	669.3	congruent	Block2	congruent/STIM_013.jpg	99
2011.416	0.674	674.3	congruent	Block2	congruent/STIM_014.jpg	99
2014.25	0.89	890.4	congruent	Block2	congruent/STIM_014.jpg	99
2017.24	0.791	790.9	congruent	Block2	congruent/STIM_014.jpg	100
2020.432	0.87	870.3	congruent	Block2	congruent/STIM_014.jpg	100
2024.192	0.638	638.4	congruent	Block2	congruent/STIM_014.jpg	100
2028.561	0.926	926.3	congruent	Block2	congruent/STIM_015.jpg	100
2033.348	0.922	922.1	congruent	Block2	congruent/STIM_015.jpg	100
2036.397	0.555	554.6	congruent	Block2	congruent/STIM_015.jpg	100
2039.625	0.878	877.9	congruent	Block2	congruent/STIM_015.jpg	99
2043.257	0.626	625.8	congruent	Block2	congruent/STIM_015.jpg	100
2046.335	0.521	520.6	congruent	Block2	congruent/STIM_016.jpg	99
2048.978	0.526	525.9	congruent	Block2	congruent/STIM_016.jpg	100
2052.822	0.669	669.0	congruent	Block2	congruent/STIM_016.jpg	99
2056.033	0.733	733.1	congruent	Block2	congruent/STIM_016.jpg	100
2059.725	0.742	742.4	congruent	Block2	congruent/STIM_016.jpg	99
2062.752	0.54	539.5	congruent	Block2	congruent/STIM_017.jpg	99
2065.955	0.917	916.7	congruent	Block2	congruent/STIM_017.jpg	100
2070.017	0.622	621.9	congruent	Block2	congruent/STIM_017.jpg	100
2073.066	0.743	742.8	congruent	Block2	congruent/STIM_017.jpg	100
2075.964	0.517	517.3	congruent	Block2	congruent/STIM_017.jpg	100
2079.11	0.531	531.2	congruent	Block2	congruent/STIM_018.jpg	99
2081.671	0.586	585.7	congruent	Block2	congruent/STIM_018.jpg	100
2084.799	0.739	739.3	congruent	Block2	congruent/STIM_018.jpg	100
2088.712	0.81	810.5	congruent	Block2	congruent/STIM_018.jpg	99
2093.368	0.693	692.8	congruent	Block2	congruent/STIM_018.jpg	99
2096.742	0.902	902.5	congruent	Block2	congruent/STIM_019.jpg	99
2100.967	0.923	922.8	congruent	Block2	congruent/STIM_019.jpg	99
2105.06	0.634	634.5	congruent	Block2	congruent/STIM_019.jpg	99
2109.626	0.646	646.3	congruent	Block2	congruent/STIM_019.jpg	100
2112.516	0.61	610.1	congruent	Block2	congruent/STIM_019.jpg	99
2116.192	0.616	615.9	congruent	Block2	congruent/STIM_020.jpg	99
2120.129	0.81	809.6	congruent	Block2	congruent/STIM_020.jpg	100
2124.67	0.522	522.4	congruent	Block2	congruent/STIM_020.jpg	100
2127.674	0.824	823.8	congruent	Block2	congruent/STIM_020.jpg	100
2131.205	0.552	552.5	congruent	Block2	congruent/STIM_020.jpg	99
2133.773	0.888	888.4	congruent	Block2	congruent/STIM_021.jpg	100
2137.734	0.771	770.7	congruent	Block2	congruent/STIM_021.jpg	99
2140.625	0.797	797.4	congruent	Block2	congruent/STIM_021.jpg	100
2143.649	0.633	632.7	congruent	Block2	congruent/STIM_021.jpg	99
2147.809	0.757	757.0	congruent	Block2	congruent/STIM_021.jpg	100
2151.097	0.851	851.4	congruent	Block2	congruent/STIM_022.jpg	99
2154.544	0.814	814.3	congruent	Block2	congruent/STIM_022.jpg	99
2158.688	0.748	748.1	congruent	Block2	congruent/STIM_022.jpg	99
2162.94	0.521	521.0	congruent	Block2	congruent/STIM_022.jpg	100
2166.213	0.569	568.7	congruent	Block2	congruent/STIM_022.jpg	100
2169.102	0.79	789.6	congruent	Block2	congruent/STIM_023.jpg	99
2172.045	0.555	555.0	congruent	Block2	congruent/STIM_023.jpg	100
2176.088	0.841	841.0	congruent	Block2	congruent/STIM_023.jpg	99
2180.759	0.853	852.9	congruent	Block2	congruent/STIM_023.jpg	99
2184.245	0.778	777.5	congruent	Block2	congruent/STIM_023.jpg	100
2187.287	0.693	692.9	congruent	Block2	congruent/STIM_024.jpg	99
2190.572	0.728	728.5	congruent	Block2	congruent/STIM_024.jpg	100
2194.39	0.9	900.0	congruent	Block2	congruent/STIM_024.jpg	99
2199.214	0.747	746.6	congruent	Block2	congruent/STIM_024.jpg	99
2203.185	0.606	605.8	congruent	Block2	congruent/STIM_024.jpg	100
2207.323	0.745	744.9	congruent	Block2	congruent/STIM_025.jpg	99
2211.607	0.757	757.3	congruent	Block2	congruent/STIM_025.jpg	99
2214.684	0.722	721.6	congruent	Block2	congruent/STIM_025.jpg	99
2218.843	0.803	802.6	congruent	Block2	congruent/STIM_025.jpg	99
2222.502	0.566	565.5	congruent	Block2	congruent/STIM_025.jpg	100
2225.1	0.803	802.8	congruent	Block2	congruent/STIM_026.jpg	99
2228.166	0.79	790.1	congruent	Block2	congruent/STIM_026.jpg	99
2231.538	0.702	702.2	congruent	Block2	congruent/STIM_026.jpg	100
2235.718	0.863	863.0	congruent	Block2	congruent/STIM_026.jpg	100
2238.583	0.891	890.6	congruent	Block2	congruent/STIM_026.jpg	99
2242.39	0.877	877.0	congruent	Block2	congruent/STIM_027.jpg	99
2245.328	0.84	839.7	congruent	Block2	congruent/STIM_027.jpg	100
2249.971	0.877	877.0	congruent	Block2	congruent/STIM_027.jpg	99
2254.824	0.809	808.8	congruent	Block2	congruent/STIM_027.jpg	100
2259.327	0.629	628.6	congruent	Block2	congruent/STIM_027.jpg	99
2263.781	0.802	801.7	congruent	Block2	congruent/STIM_028.jpg	99
2267.103	0.738	738.3	congruent	Block2	congruent/STIM_028.jpg	99
2270.586	0.872	872.1	congruent	Block2	congruent/STIM_028.jpg	99
2274.602	0.899	898.7	congruent	Block2	congruent/STIM_028.jpg	99
2278.24	0.532	532.4	congruent	Block2	congruent/STIM_028.jpg	100
2281.792	0.596	596.0	congruent	Block2	congruent/STIM_029.jpg	99
2285.323	0.908	908.3	congruent	Block2	congruent/STIM_029.jpg	99
2288.871	0.713	712.6	congruent	Block2	congruent/STIM_029.jpg	100
2291.837	0.761	761.2	congruent	Block2	congruent/STIM_029.jpg	99
2294.606	0.718	717.6	congruent	Block2	congruent/STIM_029.jpg	99
2298.956	0.766	765.5	incongruent	Block3	incongruent/STIM_000.jpg	99
2301.862	0.816	816.2	incongruent	Block3	incongruent/STIM_000.jpg	100
2305.7	0.569	569.2	incongruent	Block3	incongruent/STIM_000.jpg	100
2309.492	0.871	870.6	incongruent	Block3	incongruent/STIM_000.jpg	100
2313.677	0.535	535.3	incongruent	Block3	incongruent/STIM_000.jpg	99
2317.374	0.586	585.7	incongruent	Block3	incongruent/STIM_001.jpg	100
2320.847	1.077	1076.6	incongruent	Block3	incongruent/STIM_001.jpg	99
2325.863	1.048	1047.7	incongruent	Block3	incongruent/STIM_001.jpg	100
2330.039	0.589	588.8	incongruent	Block3	incongruent/STIM_001.jpg	100
2334.13	0.542	541.8	incongruent	Block3	incongruent/STIM_001.jpg	99
2337.948	0.899	899.2	incongruent	Block3	incongruent/STIM_002.jpg	100
2342.794	0.889	888.9	incongruent	Block3	incongruent/STIM_002.jpg	100
2346.043	0.869	869.0	incongruent	Block3	incongruent/STIM_002.jpg	99
2350.608	1.024	1023.5	incongruent	Block3	incongruent/STIM_002.jpg	99
2354.283	0.895	894.9	incongruent	Block3	incongruent/STIM_002.jpg	99
2358.937	0.639	638.7	incongruent	Block3	incongruent/STIM_003.jpg	99
2362.266	0.871	870.8	incongruent	Block3	incongruent/STIM_003.jpg	99
2365.808	1.074	1073.6	incongruent	Block3	incongruent/STIM_003.jpg	99
2369.337	0.569	568.8	incongruent	Block3	incongruent/STIM_003.jpg	99
2373.168	1.032	1032.3	incongruent	Block3	incongruent/STIM_003.jpg	99
2377.903	0.702	702.5	incongruent	Block3	incongruent/STIM_004.jpg	99
2381.134	0.875	875.3	incongruent	Block3	incongruent/STIM_004.jpg	99
2385.846	0.914	914.1	incongruent	Block3	incongruent/STIM_004.jpg	100
2389.389	0.946	945.6	incongruent	Block3	incongruent/STIM_004.jpg	99
2393.872	0.66	660.5	incongruent	Block3	incongruent/STIM_004.jpg	99
2396.593	0.834	834.5	incongruent	Block3	incongruent/STIM_005.jpg	99
2399.857	1.053	1052.8	incongruent	Block3	incongruent/STIM_005.jpg	100
2404.622	0.752	752.3	incongruent	Block3	incongruent/STIM_005.jpg	100
2409.067	0.68	680.1	incongruent	Block3	incongruent/STIM_005.jpg	99
2412.095	0.827	826.7	incongruent	Block3	incongruent/STIM_005.jpg	99
2415.682	0.921	920.9	incongruent	Block3	incongruent/STIM_006.jpg	99
2419.049	1.078	1078.4	incongruent	Block3	incongruent/STIM_006.jpg	100
2422.847	0.716	716.5	incongruent	Block3	incongruent/STIM_006.jpg	99
2427.465	0.805	804.6	incongruent	Block3	incongruent/STIM_006.jpg	100
2430.786	0.943	943.0	incongruent	Block3	incongruent/STIM_006.jpg	100
2434.952	0.616	616.3	incongruent	Block3	incongruent/STIM_007.jpg	100
2437.962	0.778	777.9	incongruent	Block3	incongruent/STIM_007.jpg	100
2441.513	0.762	762.2	incongruent	Block3	incongruent/STIM_007.jpg	99
2444.968	0.804	804.5	incongruent	Block3	incongruent/STIM_007.jpg	100
2448.598	0.976	975.5	incongruent	Block3	incongruent/STIM_007.jpg	100
2453.005	0.893	892.7	incongruent	Block3	incongruent/STIM_008.jpg	100
2457.643	1.024	1023.9	incongruent	Block3	incongruent/STIM_008.jpg	100
2460.677	0.852	852.2	incongruent	Block3	incongruent/STIM_008.jpg	99
2465.214	0.656	656.1	incongruent	Block3	incongruent/STIM_008.jpg	99
2469.465	0.84	840.2	incongruent	Block3	incongruent/STIM_008.jpg	99
2473.767	0.755	755.4	incongruent	Block3	incongruent/STIM_009.jpg	99
2476.558	0.978	978.0	incongruent	Block3	incongruent/STIM_009.jpg	99
2479.595	0.766	765.5	incongruent	Block3	incongruent/STIM_009.jpg	99
2483.823	0.684	684.3	incongruent	Block3	incongruent/STIM_009.jpg	99
2487.822	0.931	931.0	incongruent	Block3	incongruent/STIM_009.jpg	100
2492.233	0.606	605.7	incongruent	Block3	incongruent/STIM_010.jpg	99
2496.458	0.952	952.4	incongruent	Block3	incongruent/STIM_010.jpg	100
2499.79	0.897	896.6	incongruent	Block3	incongruent/STIM_010.jpg	100
2504.082	0.556	556.4	incongruent	Block3	incongruent/STIM_010.jpg	100
2507.351	0.871	870.7	incongruent	Block3	incongruent/STIM_010.jpg	99
2511.577	0.632	632.2	incongruent	Block3	incongruent/STIM_011.jpg	100
2515.002	0.881	880.6	incongruent	Block3	incongruent/STIM_011.jpg	99
2518.628	0.595	594.6	incongruent	Block3	incongruent/STIM_011.jpg	99
2522.343	0.827	827.1	incongruent	Block3	incongruent/STIM_011.jpg	99
2525.518	0.843	842.8	incongruent	Block3	incongruent/STIM_011.jpg	100
2528.848	0.706	705.7	incongruent	Block3	incongruent/STIM_012.jpg	100
2531.928	0.71	710.3	incongruent	Block3	incongruent/STIM_012.jpg	100
2534.924	0.676	675.5	incongruent	Block3	incongruent/STIM_012.jpg	99
2539.376	0.955	954.8	incongruent	Block3	incongruent/STIM_012.jpg	99
2542.96	0.548	548.0	incongruent	Block3	incongruent/STIM_012.jpg	100
2546.584	0.762	762.4	incongruent	Block3	incongruent/STIM_013.jpg	100
2551.276	0.85	850.1	incongruent	Block3	incongruent/STIM_013.jpg	99
2555.839	1.013	1013.4	incongruent	Block3	incongruent/STIM_013.jpg	100
2559.312	0.622	622.2	incongruent	Block3	incongruent/STIM_013.jpg	99
2563.0	0.599	599.0	incongruent	Block3	incongruent/STIM_013.jpg	99
2567.352	1.046	1046.3	incongruent	Block3	incongruent/STIM_014.jpg	100
2570.627	0.769	768.7	incongruent	Block3	incongruent/STIM_014.jpg	100
2574.667	0.88	880.1	incongruent	Block3	incongruent/STIM_014.jpg	99
2578.011	0.768	768.4	incongruent	Block3	incongruent/STIM_014.jpg	100
2580.953	1.077	1076.6	incongruent	Block3	incongruent/STIM_014.jpg	100
2585.907	0.621	620.8	incongruent	Block3	incongruent/STIM_015.jpg	99
2588.577	0.995	994.6	incongruent	Block3	incongruent/STIM_015.jpg	100
2592.774	0.772	771.8	incongruent	Block3	incongruent/STIM_015.jpg	100
2595.609	0.647	647.4	incongruent	Block3	incongruent/STIM_015.jpg	100
2599.91	0.775	774.9	incongruent	Block3	incongruent/STIM_015.jpg	100
2603.499	0.781	780.9	incongruent	Block3	incongruent/STIM_016.jpg	99
2606.829	0.983	982.7	incongruent	Block3	incongruent/STIM_016.jpg	100
2610.47	0.574	574.0	incongruent	Block3	incongruent/STIM_016.jpg	100
2614.537	1.056	1056.2	incongruent	Block3	incongruent/STIM_016.jpg	100
2617.735	0.59	590.3	incongruent	Block3	incongruent/STIM_016.jpg	99
2620.963	0.748	748.0	incongruent	Block3	incongruent/STIM_017.jpg	100
2624.026	0.851	851.4	incongruent	Block3	incongruent/STIM_017.jpg	100
2626.918	0.838	837.8	incongruent	Block3	incongruent/STIM_017.jpg	99
2630.844	0.916	916.4	incongruent	Block3	incongruent/STIM_017.jpg	99
2635.345	1.065	1065.3	incongruent	Block3	incongruent/STIM_017.jpg	99
2640.395	0.725	725.0	incongruent	Block3	incongruent/STIM_018.jpg	99
2643.822	0.892	892.2	incongruent	Block3	incongruent/STIM_018.jpg	99
2646.962	0.64	640.3	incongruent	Block3	incongruent/STIM_018.jpg	99
2651.493	0.984	984.4	incongruent	Block3	incongruent/STIM_018.jpg	99
2655.976	0.926	925.5	incongruent	Block3	incongruent/STIM_018.jpg	100
2659.223	0.566	565.6	incongruent	Block3	incongruent/STIM_019.jpg	100
2661.819	0.906	906.1	incongruent	Block3	incongruent/STIM_019.jpg	100
2665.659	0.516	516.2	incongruent	Block3	incongruent/STIM_019.jpg	100
2669.024	0.68	680.5	incongruent	Block3	incongruent/STIM_019.jpg	100
2673.458	0.993	993.0	incongruent	Block3	incongruent/STIM_019.jpg	99
2677.053	0.795	795.1	incongruent	Block3	incongruent/STIM_020.jpg	99
2680.708	0.623	623.1	incongruent	Block3	incongruent/STIM_020.jpg	100
2684.294	0.852	852.4	incongruent	Block3	incongruent/STIM_020.jpg	100
2688.034	0.608	608.1	incongruent	Block3	incongruent/STIM_020.jpg	99
2692.507	0.57	569.7	incongruent	Block3	incongruent/STIM_020.jpg	100
2695.521	1.002	1002.1	incongruent	Block3	incongruent/STIM_021.jpg	100
2698.71	0.648	648.5	incongruent	Block3	incongruent/STIM_021.jpg	99
2702.012	0.562	561.8	incongruent	Block3	incongruent/STIM_021.jpg	99
2705.355	0.888	888.3	incongruent	Block3	incongruent/STIM_021.jpg	100
2708.419	0.731	731.4	incongruent	Block3	incongruent/STIM_021.jpg	99
2712.837	0.735	734.7	incongruent	Block3	incongruent/STIM_022.jpg	99
2717.426	0.892	892.3	incongruent	Block3	incongruent/STIM_022.jpg	99
2721.738	0.582	582.0	incongruent	Block3	incongruent/STIM_022.jpg	99
2725.891	0.682	681.8	incongruent	Block3	incongruent/STIM_022.jpg	99
2729.825	1.003	1002.7	incongruent	Block3	incongruent/STIM_022.jpg	99
2734.369	0.8	800.0	incongruent	Block3	incongruent/STIM_023.jpg	99
2738.012	0.752	751.7	incongruent	Block3	incongruent/STIM_023.jpg	100
2740.851	0.848	848.2	incongruent	Block3	incongruent/STIM_023.jpg	100
2744.051	0.546	546.4	incongruent	Block3	incongruent/STIM_023.jpg	99
2748.325	0.618	617.8	incongruent	Block3	incongruent/STIM_023.jpg	99
2751.884	0.863	863.2	incongruent	Block3	incongruent/STIM_024.jpg	99
2756.244	0.985	985.0	incongruent	Block3	incongruent/STIM_024.jpg	99
2760.055	0.555	555.2	incongruent	Block3	incongruent/STIM_024.jpg	99
2763.984	0.587	587.0	incongruent	Block3	incongruent/STIM_024.jpg	100
2766.926	0.687	686.8	incongruent	Block3	incongruent/STIM_024.jpg	100
2771.219	0.53	529.8	incongruent	Block3	incongruent/STIM_025.jpg	99
2774.198	1.0	999.8	incongruent	Block3	incongruent/STIM_025.jpg	99
2777.694	1.056	1056.1	incongruent	Block3	incongruent/STIM_025.jpg	99
2782.449	0.84	839.6	incongruent	Block3	incongruent/STIM_025.jpg	100
2786.434	0.898	898.1	incongruent	Block3	incongruent/STIM_025.jpg	99
2790.991	0.522	522.2	incongruent	Block3	incongruent/STIM_026.jpg	100
2793.818	0.675	675.4	incongruent	Block3	incongruent/STIM_026.jpg	99
2797.779	0.792	791.8	incongruent	Block3	incongruent/STIM_026.jpg	99
2801.571	0.872	871.8	incongruent	Block3	incongruent/STIM_026.jpg	99
2804.584	1.077	1077.1	incongruent	Block3	incongruent/STIM_026.jpg	99
2808.977	1.082	1082.3	incongruent	Block3	incongruent/STIM_027.jpg	99
2812.519	0.844	843.8	incongruent	Block3	incongruent/STIM_027.jpg	100
2816.92	0.774	773.5	incongruent	Block3	incongruent/STIM_027.jpg	100
2820.31	0.712	711.5	incongruent	Block3	incongruent/STIM_027.jpg	99
2824.181	1.033	1033.1	incongruent	Block3	incongruent/STIM_027.jpg	99
2828.902	0.563	562.7	incongruent	Block3	incongruent/STIM_028.jpg	99
2833.4	0.571	571.2	incongruent	Block3	incongruent/STIM_028.jpg	100
2836.239	0.664	664.3	incongruent	Block3	incongruent/STIM_028.jpg	100
2839.682	1.037	1036.6	incongruent	Block3	incongruent/STIM_028.jpg	99
2843.725	0.873	872.7	incongruent	Block3	incongruent/STIM_028.jpg	99
2846.605	0.89	890.5	incongruent	Block3	incongruent/STIM_029.jpg	99
2850.22	0.962	962.2	incongruent	Block3	incongruent/STIM_029.jpg	99
2853.638	0.888	888.5	incongruent	Block3	incongruent/STIM_029.jpg	99
2857.503	0.869	869.2	incongruent	Block3	incongruent/STIM_029.jpg	99
2860.463	0.869	869.0	incongruent	Block3	incongruent/STIM_029.jpg	99
2864.504	0.866	865.7	congruent	Block3	congruent/STIM_000.jpg	99
2869.225	0.542	542.3	congruent	Block3	congruent/STIM_000.jpg	100
2872.76	0.551	551.0	congruent	Block3	congruent/STIM_000.jpg	100
2877.157	0.753	752.7	congruent	Block3	congruent/STIM_000.jpg	99
2881.109	0.711	710.6	congruent	Block3	congruent/STIM_000.jpg	100
2885.12	0.646	645.9	congruent	Block3	congruent/STIM_001.jpg	99
2889.682	0.882	881.8	congruent	Block3	congruent/STIM_001.jpg	100
2894.257	0.716	715.6	congruent	Block3	congruent/STIM_001.jpg	100
2898.342	0.695	695.4	congruent	Block3	congruent/STIM_001.jpg	99
2901.572	0.612	611.6	congruent	Block3	congruent/STIM_001.jpg	100
2905.695	0.852	851.6	congruent	Block3	congruent/STIM_002.jpg	99
2909.838	0.905	904.8	congruent	Block3	congruent/STIM_002.jpg	100
2914.579	0.525	524.8	congruent	Block3	congruent/STIM_002.jpg	100
2918.027	0.832	832.0	congruent	Block3	congruent/STIM_002.jpg	100
2921.479	0.682	682.4	congruent	Block3	congruent/STIM_002.jpg	99
2924.726	0.691	690.8	congruent	Block3	congruent/STIM_003.jpg	100
2928.803	0.921	921.2	congruent	Block3	congruent/STIM_003.jpg	100
2932.064	0.634	634.4	congruent	Block3	congruent/STIM_003.jpg	100
2935.156	0.71	710.4	congruent	Block3	congruent/STIM_003.jpg	99
2938.296	0.743	743.2	congruent	Block3	congruent/STIM_003.jpg	99
2942.738	0.542	542.2	congruent	Block3	congruent/STIM_004.jpg	99
2946.344	0.821	821.2	congruent	Block3	congruent/STIM_004.jpg	99
2950.795	0.713	713.4	congruent	Block3	congruent/STIM_004.jpg	100
2953.632	0.575	575.4	congruent	Block3	congruent/STIM_004.jpg	100
2956.831	0.529	528.8	congruent	Block3	congruent/STIM_004.jpg	99
2960.472	0.633	632.8	congruent	Block3	congruent/STIM_005.jpg	100
2965.103	0.871	871.0	congruent	Block3	congruent/STIM_005.jpg	100
2968.831	0.754	754.0	congruent	Block3	congruent/STIM_005.jpg	100
2971.62	0.866	866.5	congruent	Block3	congruent/STIM_005.jpg	100
2976.479	0.57	570.4	congruent	Block3	congruent/STIM_005.jpg	100
2980.183	0.681	681.3	congruent	Block3	congruent/STIM_006.jpg	100
2984.309	0.802	802.0	congruent	Block3	congruent/STIM_006.jpg	99
2988.721	0.599	598.9	congruent	Block3	congruent/STIM_006.jpg	100
2992.975	0.56	560.2	congruent	Block3	congruent/STIM_006.jpg	99
2996.981	0.711	710.7	congruent	Block3	congruent/STIM_006.jpg	100
3000.039	0.587	587.1	congruent	Block3	congruent/STIM_007.jpg	99
3003.83	0.842	842.5	congruent	Block3	congruent/STIM_007.jpg	100
3007.431	0.927	927.4	congruent	Block3	congruent/STIM_007.jpg	100
3010.874	0.561	561.3	congruent	Block3	congruent/STIM_007.jpg	100
3014.506	0.906	905.8	congruent	Block3	congruent/STIM_007.jpg	99
3017.928	0.765	765.2	congruent	Block3	congruent/STIM_008.jpg	100
3021.21	0.524	524.3	congruent	Block3	congruent/STIM_008.jpg	99
3024.794	0.625	624.8	congruent	Block3	congruent/STIM_008.jpg	100
3028.011	0.581	581.4	congruent	Block3	congruent/STIM_008.jpg	99
3031.651	0.898	898.2	congruent	Block3	congruent/STIM_008.jpg	100
3035.472	0.886	885.8	congruent	Block3	congruent/STIM_009.jpg	100
3038.652	0.75	750.0	congruent	Block3	congruent/STIM_009.jpg	99
3042.092	0.62	619.8	congruent	Block3	congruent/STIM_009.jpg	99
3046.321	0.553	552.7	congruent	Block3	congruent/STIM_009.jpg	99
3049.681	0.524	524.5	congruent	Block3	congruent/STIM_009.jpg	100
3052.634	0.922	921.9	congruent	Block3	congruent/STIM_010.jpg	99
3056.96	0.722	722.1	congruent	Block3	congruent/STIM_010.jpg	99
3060.564	0.877	877.2	congruent	Block3	congruent/STIM_010.jpg	100
3063.819	0.783	782.7	congruent	Block3	congruent/STIM_010.jpg	99
3067.331	0.912	912.1	congruent	Block3	congruent/STIM_010.jpg	99
3070.817	0.878	877.5	congruent	Block3	congruent/STIM_011.jpg	99
3073.872	0.681	680.8	congruent	Block3	congruent/STIM_011.jpg	99
3078.546	0.87	869.5	congruent	Block3	congruent/STIM_011.jpg	100
3082.441	0.584	584.5	congruent	Block3	congruent/STIM_011.jpg	100
3086.661	0.827	826.9	congruent	Block3	congruent/STIM_011.jpg	100
3091.106	0.634	633.6	congruent	Block3	congruent/STIM_012.jpg	100
3095.527	0.705	705.3	congruent	Block3	congruent/STIM_012.jpg	99
3098.282	0.778	777.9	congruent	Block3	congruent/STIM_012.jpg	99
3102.701	0.748	748.2	congruent	Block3	congruent/STIM_012.jpg	99
3106.501	0.624	624.0	congruent	Block3	congruent/STIM_012.jpg	99
3110.541	0.812	812.5	congruent	Block3	congruent/STIM_013.jpg	99
3114.288	0.757	757.0	congruent	Block3	congruent/STIM_013.jpg	99
3118.548	0.902	902.0	congruent	Block3	congruent/STIM_013.jpg	100
3122.266	0.852	852.0	congruent	Block3	congruent/STIM_013.jpg	100
3126.971	0.664	664.4	congruent	Block3	congruent/STIM_013.jpg	99
3131.253	0.693	693.1	congruent	Block3	congruent/STIM_014.jpg	99
3133.998	0.92	919.9	congruent	Block3	congruent/STIM_014.jpg	100
3138.849	0.703	702.8	congruent	Block3	congruent/STIM_014.jpg	99
3142.037	0.6	599.5	congruent	Block3	congruent/STIM_014.jpg	99
3145.659	0.636	635.6	congruent	Block3	congruent/STIM_014.jpg	100
3150.136	0.599	599.3	congruent	Block3	congruent/STIM_015.jpg	100
3153.983	0.75	750.4	congruent	Block3	congruent/STIM_015.jpg	99
3157.59	0.616	616.1	congruent	Block3	congruent/STIM_015.jpg	99
3161.121	0.589	589.0	congruent	Block3	congruent/STIM_015.jpg	100
3165.427	0.522	521.5	congruent	Block3	congruent/STIM_015.jpg	99
3168.912	0.63	629.7	congruent	Block3	congruent/STIM_016.jpg	99
3172.166	0.595	595.1	congruent	Block3	congruent/STIM_016.jpg	100
3175.598	0.704	703.9	congruent	Block3	congruent/STIM_016.jpg	100
3179.019	0.646	646.2	congruent	Block3	congruent/STIM_016.jpg	99
3182.291	0.84	839.8	congruent	Block3	congruent/STIM_016.jpg	100
3185.304	0.823	822.7	congruent	Block3	congruent/STIM_017.jpg	100
3188.82	0.799	798.7	congruent	Block3	congruent/STIM_017.jpg	100
3192.878	0.606	605.5	congruent	Block3	congruent/STIM_017.jpg	100
3196.307	0.837	836.7	congruent	Block3	congruent/STIM_017.jpg	99
3201.121	0.769	769.2	congruent	Block3	congruent/STIM_017.jpg	99
3204.11	0.898	898.3	congruent	Block3	congruent/STIM_018.jpg	99
3207.604	0.58	579.7	congruent	Block3	congruent/STIM_018.jpg	99
3212.121	0.885	885.3	congruent	Block3	congruent/STIM_018.jpg	100
3216.013	0.565	565.4	congruent	Block3	congruent/STIM_018.jpg	100
3220.5	0.757	756.8	congruent	Block3	congruent/STIM_018.jpg	100
3224.384	0.698	698.2	congruent	Block3	congruent/STIM_019.jpg	99
3228.576	0.524	524.1	congruent	Block3	congruent/STIM_019.jpg	99
3231.521	0.819	818.9	congruent	Block3	congruent/STIM_019.jpg	100
3235.691	0.898	898.0	congruent	Block3	congruent/STIM_019.jpg	99
3239.254	0.622	622.3	congruent	Block3	congruent/STIM_019.jpg	100
3243.2	0.715	714.8	congruent	Block3	congruent/STIM_020.jpg	100
3246.473	0.725	724.7	congruent	Block3	congruent/STIM_020.jpg	100
3249.28	0.792	791.8	congruent	Block3	congruent/STIM_020.jpg	99
3252.298	0.604	604.2	congruent	Block3	congruent/STIM_020.jpg	100
3256.31	0.721	721.2	congruent	Block3	congruent/STIM_020.jpg	99
3259.274	0.602	601.5	congruent	Block3	congruent/STIM_021.jpg	100
3263.287	0.712	711.7	congruent	Block3	congruent/STIM_021.jpg	100
3267.96	0.754	754.5	congruent	Block3	congruent/STIM_021.jpg	100
3270.725	0.666	665.8	congruent	Block3	congruent/STIM_021.jpg	99
3273.43	0.715	714.9	congruent	Block3	congruent/STIM_021.jpg	100
3277.477	0.703	703.3	congruent	Block3	congruent/STIM_022.jpg	100
3282.025	0.566	565.7	congruent	Block3	congruent/STIM_022.jpg	99
3285.242	0.8	800.4	congruent	Block3	congruent/STIM_022.jpg	99
3288.968	0.625	624.7	congruent	Block3	congruent/STIM_022.jpg	100
3293.56	0.769	768.6	congruent	Block3	congruent/STIM_022.jpg	99
3296.577	0.773	772.9	congruent	Block3	congruent/STIM_023.jpg	100
3299.762	0.655	654.6	congruent	Block3	congruent/STIM_023.jpg	99
3303.575	0.785	785.1	congruent	Block3	congruent/STIM_023.jpg	99
3307.98	0.88	880.3	congruent	Block3	congruent/STIM_023.jpg	100
3311.332	0.518	518.5	congruent	Block3	congruent/STIM_023.jpg	99
3315.016	0.816	815.6	congruent	Block3	congruent/STIM_024.jpg	99
3319.126	0.858	858.1	congruent	Block3	congruent/STIM_024.jpg	99
3323.634	0.731	731.0	congruent	Block3	congruent/STIM_024.jpg	100
3327.142	0.909	909.0	congruent	Block3	congruent/STIM_024.jpg	99
3331.904	0.852	852.4	congruent	Block3	congruent/STIM_024.jpg	100
3335.383	0.748	747.7	congruent	Block3	congruent/STIM_025.jpg	99
3339.018	0.536	536.0	congruent	Block3	congruent/STIM_025.jpg	99
3342.621	0.541	541.3	congruent	Block3	congruent/STIM_025.jpg	99
3345.707	0.559	559.2	congruent	Block3	congruent/STIM_025.jpg	99
3349.333	0.819	818.7	congruent	Block3	congruent/STIM_025.jpg	100
3352.479	0.63	630.1	congruent	Block3	congruent/STIM_026.jpg	100
3356.041	0.706	706.4	congruent	Block3	congruent/STIM_026.jpg	99
3359.883	0.584	584.5	congruent	Block3	congruent/STIM_026.jpg	100
3362.614	0.526	526.1	congruent	Block3	congruent/STIM_026.jpg	100
3365.811	0.705	704.7	congruent	Block3	congruent/STIM_026.jpg	99
3370.463	0.865	865.3	congruent	Block3	congruent/STIM_027.jpg	99
3375.043	0.915	915.3	congruent	Block3	congruent/STIM_027.jpg	100
3379.721	0.641	641.1	congruent	Block3	congruent/STIM_027.jpg	99
3382.826	0.552	552.2	congruent	Block3	congruent/STIM_027.jpg	99
3385.954	0.791	790.6	congruent	Block3	congruent/STIM_027.jpg	99
3390.123	0.546	546.0	congruent	Block3	congruent/STIM_028.jpg	99
3393.382	0.85	850.1	congruent	Block3	congruent/STIM_028.jpg	100
3396.561	0.809	808.8	congruent	Block3	congruent/STIM_028.jpg	99
3399.789	0.688	688.3	congruent	Block3	congruent/STIM_028.jpg	100
3403.782	0.674	673.6	congruent	Block3	congruent/STIM_028.jpg	99
3406.881	0.696	696.3	congruent	Block3	congruent/STIM_029.jpg	100
3410.477	0.629	629.4	congruent	Block3	congruent/STIM_029.jpg	100
3413.624	0.865	865.3	congruent	Block3	congruent/STIM_029.jpg	99
3418.117	0.713	713.3	congruent	Block3	congruent/STIM_029.jpg	99
3421.291	0.522	521.8	congruent	Block3	congruent/STIM_029.jpg	100
