onset	duration	accuracy	trial_type	learning_stage	stimulus
0.0	1.326	incorrect	incongruent	Block1	incongruent/STIM_000.jpg
4.059	1.198	correct	incongruent	Block1	incongruent/STIM_000.jpg
7.719	1.05	correct	incongruent	Block1	incongruent/STIM_000.jpg
12.347	1.304	correct	incongruent	Block1	incongruent/STIM_000.jpg
16.515	0.857	correct	incongruent	Block1	incongruent/STIM_000.jpg
20.614	1.44	correct	incongruent	Block1	incongruent/STIM_001.jpg
24.873	1.229	correct	incongruent	Block1	incongruent/STIM_001.jpg
29.587	1.102	correct	incongruent	Block1	incongruent/STIM_001.jpg
32.957	1.291	correct	incongruent	Block1	incongruent/STIM_001.jpg
37.901	0.984	correct	incongruent	Block1	incongruent/STIM_001.jpg
42.527	1.01	correct	incongruent	Block1	incongruent/STIM_002.jpg
46.436	1.391	correct	incongruent	Block1	incongruent/STIM_002.jpg
50.181	0.694	correct	incongruent	Block1	incongruent/STIM_002.jpg
53.441	0.925	incorrect	incongruent	Block1	incongruent/STIM_002.jpg
58.169	1.027	correct	incongruent	Block1	incongruent/STIM_002.jpg
62.654	1.516	incorrect	incongruent	Block1	incongruent/STIM_003.jpg
67.532	1.426	correct	incongruent	Block1	incongruent/STIM_003.jpg
72.784	0.709	correct	incongruent	Block1	incongruent/STIM_003.jpg
76.454	1.225	correct	incongruent	Block1	incongruent/STIM_003.jpg
80.677	0.892	correct	incongruent	Block1	incongruent/STIM_003.jpg
84.094	1.425	incorrect	incongruent	Block1	incongruent/STIM_004.jpg
88.016	0.754	correct	incongruent	Block1	incongruent/STIM_004.jpg
91.211	0.962	correct	incongruent	Block1	incongruent/STIM_004.jpg
95.434	0.771	correct	incongruent	Block1	incongruent/STIM_004.jpg
99.762	0.931	correct	incongruent	Block1	incongruent/STIM_004.jpg
103.469	1.155	correct	incongruent	Block1	incongruent/STIM_005.jpg
108.568	0.714	incorrect	incongruent	Block1	incongruent/STIM_005.jpg
113.223	0.778	incorrect	incongruent	Block1	incongruent/STIM_005.jpg
117.24	0.658	incorrect	incongruent	Block1	incongruent/STIM_005.jpg
121.192	0.583	correct	incongruent	Block1	incongruent/STIM_005.jpg
123.938	0.95	correct	incongruent	Block1	incongruent/STIM_006.jpg
126.926	1.13	incorrect	incongruent	Block1	incongruent/STIM_006.jpg
130.644	0.819	correct	incongruent	Block1	incongruent/STIM_006.jpg
133.741	0.881	correct	incongruent	Block1	incongruent/STIM_006.jpg
137.119	0.831	correct	incongruent	Block1	incongruent/STIM_006.jpg
140.074	1.531	correct	incongruent	Block1	incongruent/STIM_007.jpg
145.467	1.331	correct	incongruent	Block1	incongruent/STIM_007.jpg
150.753	1.193	correct	incongruent	Block1	incongruent/STIM_007.jpg
155.427	1.197	correct	incongruent	Block1	incongruent/STIM_007.jpg
159.421	0.992	correct	incongruent	Block1	incongruent/STIM_007.jpg
163.872	1.275	correct	incongruent	Block1	incongruent/STIM_008.jpg
167.65	1.244	incorrect	incongruent	Block1	incongruent/STIM_008.jpg
172.824	1.0	correct	incongruent	Block1	incongruent/STIM_008.jpg
177.073	1.01	correct	incongruent	Block1	incongruent/STIM_008.jpg
181.244	0.745	correct	incongruent	Block1	incongruent/STIM_008.jpg
185.788	1.089	incorrect	incongruent	Block1	incongruent/STIM_009.jpg
188.931	1.06	incorrect	incongruent	Block1	incongruent/STIM_009.jpg
192.918	1.277	correct	incongruent	Block1	incongruent/STIM_009.jpg
197.412	1.275	correct	incongruent	Block1	incongruent/STIM_009.jpg
201.714	0.775	correct	incongruent	Block1	incongruent/STIM_009.jpg
205.641	0.75	incorrect	incongruent	Block1	incongruent/STIM_010.jpg
210.006	1.269	correct	incongruent	Block1	incongruent/STIM_010.jpg
213.998	0.864	correct	incongruent	Block1	incongruent/STIM_010.jpg
218.738	0.665	correct	incongruent	Block1	incongruent/STIM_010.jpg
223.131	0.687	correct	incongruent	Block1	incongruent/STIM_010.jpg
226.14	1.158	correct	incongruent	Block1	incongruent/STIM_011.jpg
231.039	1.173	incorrect	incongruent	Block1	incongruent/STIM_011.jpg
235.879	0.898	correct	incongruent	Block1	incongruent/STIM_011.jpg
239.761	1.021	correct	incongruent	Block1	incongruent/STIM_011.jpg
244.235	0.789	incorrect	incongruent	Block1	incongruent/STIM_011.jpg
248.009	0.924	correct	incongruent	Block1	incongruent/STIM_012.jpg
251.06	1.11	correct	incongruent	Block1	incongruent/STIM_012.jpg
256.106	1.096	correct	incongruent	Block1	incongruent/STIM_012.jpg
259.318	1.3	correct	incongruent	Block1	incongruent/STIM_012.jpg
263.171	0.583	correct	incongruent	Block1	incongruent/STIM_012.jpg
267.395	1.074	correct	incongruent	Block1	incongruent/STIM_013.jpg
271.855	0.821	correct	incongruent	Block1	incongruent/STIM_013.jpg
275.532	1.199	correct	incongruent	Block1	incongruent/STIM_013.jpg
280.339	1.247	correct	incongruent	Block1	incongruent/STIM_013.jpg
284.58	0.789	correct	incongruent	Block1	incongruent/STIM_013.jpg
288.701	1.282	correct	incongruent	Block1	incongruent/STIM_014.jpg
293.688	0.754	correct	incongruent	Block1	incongruent/STIM_014.jpg
296.713	0.908	incorrect	incongruent	Block1	incongruent/STIM_014.jpg
301.3	0.872	correct	incongruent	Block1	incongruent/STIM_014.jpg
304.607	0.927	correct	incongruent	Block1	incongruent/STIM_014.jpg
307.711	0.932	correct	incongruent	Block1	incongruent/STIM_015.jpg
311.439	1.083	correct	incongruent	Block1	incongruent/STIM_015.jpg
316.01	1.086	correct	incongruent	Block1	incongruent/STIM_015.jpg
320.247	1.15	correct	incongruent	Block1	incongruent/STIM_015.jpg
324.95	0.679	correct	incongruent	Block1	incongruent/STIM_015.jpg
328.178	1.543	correct	incongruent	Block1	incongruent/STIM_016.jpg
331.86	0.865	correct	incongruent	Block1	incongruent/STIM_016.jpg
335.765	0.731	correct	incongruent	Block1	incongruent/STIM_016.jpg
339.792	1.277	correct	incongruent	Block1	incongruent/STIM_016.jpg
344.694	1.06	correct	incongruent	Block1	incongruent/STIM_016.jpg
348.517	1.378	incorrect	incongruent	Block1	incongruent/STIM_017.jpg
353.697	0.797	correct	incongruent	Block1	incongruent/STIM_017.jpg
357.454	1.391	correct	incongruent	Block1	incongruent/STIM_017.jpg
362.147	0.937	correct	incongruent	Block1	incongruent/STIM_017.jpg
365.566	1.22	correct	incongruent	Block1	incongruent/STIM_017.jpg
370.694	1.015	correct	incongruent	Block1	incongruent/STIM_018.jpg
375.04	1.005	correct	incongruent	Block1	incongruent/STIM_018.jpg
378.188	1.211	correct	incongruent	Block1	incongruent/STIM_018.jpg
382.784	1.163	correct	incongruent	Block1	incongruent/STIM_018.jpg
386.021	1.102	correct	incongruent	Block1	incongruent/STIM_018.jpg
389.595	1.549	correct	incongruent	Block1	incongruent/STIM_019.jpg
394.959	0.78	correct	incongruent	Block1	incongruent/STIM_019.jpg
398.252	0.862	correct	incongruent	Block1	incongruent/STIM_019.jpg
402.484	1.178	correct	incongruent	Block1	incongruent/STIM_019.jpg
406.739	0.791	correct	incongruent	Block1	incongruent/STIM_019.jpg
411.372	1.431	correct	incongruent	Block1	incongruent/STIM_020.jpg
416.231	1.169	correct	incongruent	Block1	incongruent/STIM_020.jpg
420.794	1.113	correct	incongruent	Block1	incongruent/STIM_020.jpg
425.236	1.271	correct	incongruent	Block1	incongruent/STIM_020.jpg
429.659	0.951	correct	incongruent	Block1	incongruent/STIM_020.jpg
434.101	1.439	correct	incongruent	Block1	incongruent/STIM_021.jpg
437.77	1.014	correct	incongruent	Block1	incongruent/STIM_021.jpg
441.505	1.188	correct	incongruent	Block1	incongruent/STIM_021.jpg
444.887	1.229	correct	incongruent	Block1	incongruent/STIM_021.jpg
449.265	0.924	correct	incongruent	Block1	incongruent/STIM_021.jpg
453.433	0.869	correct	incongruent	Block1	incongruent/STIM_022.jpg
457.942	1.11	correct	incongruent	Block1	incongruent/STIM_022.jpg
462.566	1.176	correct	incongruent	Block1	incongruent/STIM_022.jpg
465.8	0.942	correct	incongruent	Block1	incongruent/STIM_022.jpg
469.126	1.135	correct	incongruent	Block1	incongruent/STIM_022.jpg
472.839	1.169	correct	incongruent	Block1	incongruent/STIM_023.jpg
476.163	1.469	correct	incongruent	Block1	incongruent/STIM_023.jpg
480.188	0.843	correct	incongruent	Block1	incongruent/STIM_023.jpg
484.053	1.034	correct	incongruent	Block1	incongruent/STIM_023.jpg
488.062	0.621	correct	incongruent	Block1	incongruent/STIM_023.jpg
490.863	1.179	correct	incongruent	Block1	incongruent/STIM_024.jpg
494.256	1.417	incorrect	incongruent	Block1	incongruent/STIM_024.jpg
498.148	0.922	correct	incongruent	Block1	incongruent/STIM_024.jpg
502.017	1.194	correct	incongruent	Block1	incongruent/STIM_024.jpg
506.007	1.088	correct	incongruent	Block1	incongruent/STIM_024.jpg
509.402	1.155	correct	incongruent	Block1	incongruent/STIM_025.jpg
512.946	1.103	correct	incongruent	Block1	incongruent/STIM_025.jpg
518.041	0.655	incorrect	incongruent	Block1	incongruent/STIM_025.jpg
521.422	0.71	correct	incongruent	Block1	incongruent/STIM_025.jpg
524.813	0.702	correct	incongruent	Block1	incongruent/STIM_025.jpg
528.757	0.975	correct	incongruent	Block1	incongruent/STIM_026.jpg
533.523	1.35	correct	incongruent	Block1	incongruent/STIM_026.jpg
537.243	0.677	correct	incongruent	Block1	incongruent/STIM_026.jpg
541.2	1.048	correct	incongruent	Block1	incongruent/STIM_026.jpg
545.255	1.145	correct	incongruent	Block1	incongruent/STIM_026.jpg
549.265	1.466	incorrect	incongruent	Block1	incongruent/STIM_027.jpg
553.152	0.877	correct	incongruent	Block1	incongruent/STIM_027.jpg
557.86	0.852	correct	incongruent	Block1	incongruent/STIM_027.jpg
561.415	0.855	correct	incongruent	Block1	incongruent/STIM_027.jpg
565.141	0.679	incorrect	incongruent	Block1	incongruent/STIM_027.jpg
569.5	1.261	correct	incongruent	Block1	incongruent/STIM_028.jpg
573.552	0.709	correct	incongruent	Block1	incongruent/STIM_028.jpg
577.174	1.212	correct	incongruent	Block1	incongruent/STIM_028.jpg
580.412	0.801	correct	incongruent	Block1	incongruent/STIM_028.jpg
583.888	1.108	correct	incongruent	Block1	incongruent/STIM_028.jpg
588.924	0.808	correct	incongruent	Block1	incongruent/STIM_029.jpg
593.479	1.043	correct	incongruent	Block1	incongruent/STIM_029.jpg
597.319	0.896	correct	incongruent	Block1	incongruent/STIM_029.jpg
600.392	0.733	correct	incongruent	Block1	incongruent/STIM_029.jpg
603.786	0.739	correct	incongruent	Block1	incongruent/STIM_029.jpg
607.847	0.887	incorrect	congruent	Block1	congruent/STIM_000.jpg
611.554	0.544	correct	congruent	Block1	congruent/STIM_000.jpg
614.683	0.685	correct	congruent	Block1	congruent/STIM_000.jpg
619.344	0.86	correct	congruent	Block1	congruent/STIM_000.jpg
623.632	0.576	correct	congruent	Block1	congruent/STIM_000.jpg
626.945	0.611	correct	congruent	Block1	congruent/STIM_001.jpg
629.97	0.699	correct	congruent	Block1	congruent/STIM_001.jpg
634.543	0.58	correct	congruent	Block1	congruent/STIM_001.jpg
637.854	0.732	correct	congruent	Block1	congruent/STIM_001.jpg
640.935	0.61	correct	congruent	Block1	congruent/STIM_001.jpg
643.919	0.717	correct	congruent	Block1	congruent/STIM_002.jpg
648.093	0.557	correct	congruent	Block1	congruent/STIM_002.jpg
651.341	0.788	correct	congruent	Block1	congruent/STIM_002.jpg
654.958	0.753	correct	congruent	Block1	congruent/STIM_002.jpg
658.743	0.801	correct	congruent	Block1	congruent/STIM_002.jpg
663.516	0.75	correct	congruent	Block1	congruent/STIM_003.jpg
667.187	0.668	correct	congruent	Block1	congruent/STIM_003.jpg
670.179	0.793	incorrect	congruent	Block1	congruent/STIM_003.jpg
674.534	0.589	correct	congruent	Block1	congruent/STIM_003.jpg
678.198	0.761	correct	congruent	Block1	congruent/STIM_003.jpg
681.666	0.774	correct	congruent	Block1	congruent/STIM_004.jpg
686.07	0.823	correct	congruent	Block1	congruent/STIM_004.jpg
689.924	0.853	correct	congruent	Block1	congruent/STIM_004.jpg
694.642	0.671	correct	congruent	Block1	congruent/STIM_004.jpg
698.37	0.758	correct	congruent	Block1	congruent/STIM_004.jpg
701.638	0.712	correct	congruent	Block1	congruent/STIM_005.jpg
705.312	0.76	correct	congruent	Block1	congruent/STIM_005.jpg
708.886	0.569	correct	congruent	Block1	congruent/STIM_005.jpg
712.251	0.892	correct	congruent	Block1	congruent/STIM_005.jpg
715.748	0.92	correct	congruent	Block1	congruent/STIM_005.jpg
719.382	0.659	correct	congruent	Block1	congruent/STIM_006.jpg
723.615	0.752	correct	congruent	Block1	congruent/STIM_006.jpg
728.245	0.824	correct	congruent	Block1	congruent/STIM_006.jpg
731.815	0.667	correct	congruent	Block1	congruent/STIM_006.jpg
735.979	0.678	correct	congruent	Block1	congruent/STIM_006.jpg
739.354	0.642	correct	congruent	Block1	congruent/STIM_007.jpg
743.806	0.601	correct	congruent	Block1	congruent/STIM_007.jpg
747.545	0.914	incorrect	congruent	Block1	congruent/STIM_007.jpg
750.76	0.881	correct	congruent	Block1	congruent/STIM_007.jpg
753.691	0.606	correct	congruent	Block1	congruent/STIM_007.jpg
757.645	0.631	correct	congruent	Block1	congruent/STIM_008.jpg
761.611	0.678	correct	congruent	Block1	congruent/STIM_008.jpg
764.968	0.843	incorrect	congruent	Block1	congruent/STIM_008.jpg
768.903	0.627	correct	congruent	Block1	congruent/STIM_008.jpg
773.488	0.758	correct	congruent	Block1	congruent/STIM_008.jpg
777.835	0.57	correct	congruent	Block1	congruent/STIM_009.jpg
780.685	0.572	correct	congruent	Block1	congruent/STIM_009.jpg
784.243	0.726	correct	congruent	Block1	congruent/STIM_009.jpg
787.732	0.752	correct	congruent	Block1	congruent/STIM_009.jpg
790.662	0.542	correct	congruent	Block1	congruent/STIM_009.jpg
794.298	0.861	correct	congruent	Block1	congruent/STIM_010.jpg
797.634	0.655	correct	congruent	Block1	congruent/STIM_010.jpg
802.15	0.646	correct	congruent	Block1	congruent/STIM_010.jpg
806.495	0.854	correct	congruent	Block1	congruent/STIM_010.jpg
810.029	0.557	correct	congruent	Block1	congruent/STIM_010.jpg
814.262	0.536	correct	congruent	Block1	congruent/STIM_011.jpg
818.643	0.718	correct	congruent	Block1	congruent/STIM_011.jpg
822.591	0.65	correct	congruent	Block1	congruent/STIM_011.jpg
825.847	0.526	correct	congruent	Block1	congruent/STIM_011.jpg
829.102	0.918	correct	congruent	Block1	congruent/STIM_011.jpg
833.917	0.813	correct	congruent	Block1	congruent/STIM_012.jpg
836.996	0.622	correct	congruent	Block1	congruent/STIM_012.jpg
840.526	0.529	correct	congruent	Block1	congruent/STIM_012.jpg
843.323	0.883	correct	congruent	Block1	congruent/STIM_012.jpg
847.371	0.866	correct	congruent	Block1	congruent/STIM_012.jpg
851.809	0.64	correct	congruent	Block1	congruent/STIM_013.jpg
854.75	0.534	correct	congruent	Block1	congruent/STIM_013.jpg
858.132	0.904	correct	congruent	Block1	congruent/STIM_013.jpg
862.255	0.928	correct	congruent	Block1	congruent/STIM_013.jpg
867.103	0.6	correct	congruent	Block1	congruent/STIM_013.jpg
870.541	0.661	correct	congruent	Block1	congruent/STIM_014.jpg
874.791	0.818	correct	congruent	Block1	congruent/STIM_014.jpg
878.863	0.745	correct	congruent	Block1	congruent/STIM_014.jpg
882.518	0.84	correct	congruent	Block1	congruent/STIM_014.jpg
885.412	0.542	correct	congruent	Block1	congruent/STIM_014.jpg
888.245	0.629	correct	congruent	Block1	congruent/STIM_015.jpg
890.905	0.658	correct	congruent	Block1	congruent/STIM_015.jpg
894.545	0.689	correct	congruent	Block1	congruent/STIM_015.jpg
898.116	0.687	correct	congruent	Block1	congruent/STIM_015.jpg
902.487	0.782	correct	congruent	Block1	congruent/STIM_015.jpg
905.632	0.63	correct	congruent	Block1	congruent/STIM_016.jpg
909.902	0.715	correct	congruent	Block1	congruent/STIM_016.jpg
914.235	0.772	correct	congruent	Block1	congruent/STIM_016.jpg
918.953	0.705	correct	congruent	Block1	congruent/STIM_016.jpg
923.31	0.575	correct	congruent	Block1	congruent/STIM_016.jpg
926.54	0.903	incorrect	congruent	Block1	congruent/STIM_017.jpg
930.955	0.537	correct	congruent	Block1	congruent/STIM_017.jpg
934.13	0.536	correct	congruent	Block1	congruent/STIM_017.jpg
937.194	0.589	correct	congruent	Block1	congruent/STIM_017.jpg
940.776	0.565	correct	congruent	Block1	congruent/STIM_017.jpg
945.16	0.923	correct	congruent	Block1	congruent/STIM_018.jpg
949.517	0.653	incorrect	congruent	Block1	congruent/STIM_018.jpg
953.812	0.918	correct	congruent	Block1	congruent/STIM_018.jpg
957.757	0.894	correct	congruent	Block1	congruent/STIM_018.jpg
961.129	0.584	correct	congruent	Block1	congruent/STIM_018.jpg
965.478	0.573	correct	congruent	Block1	congruent/STIM_019.jpg
968.1	0.784	correct	congruent	Block1	congruent/STIM_019.jpg
972.421	0.738	correct	congruent	Block1	congruent/STIM_019.jpg
977.138	0.732	correct	congruent	Block1	congruent/STIM_019.jpg
979.935	0.781	correct	congruent	Block1	congruent/STIM_019.jpg
984.119	0.869	incorrect	congruent	Block1	congruent/STIM_020.jpg
988.287	0.82	correct	congruent	Block1	congruent/STIM_020.jpg
992.4	0.544	incorrect	congruent	Block1	congruent/STIM_020.jpg
996.499	0.566	correct	congruent	Block1	congruent/STIM_020.jpg
1000.59	0.658	correct	congruent	Block1	congruent/STIM_020.jpg
1003.558	0.795	correct	congruent	Block1	congruent/STIM_021.jpg
1007.521	0.885	correct	congruent	Block1	congruent/STIM_021.jpg
1011.499	0.62	correct	congruent	Block1	congruent/STIM_021.jpg
1014.425	0.676	correct	congruent	Block1	congruent/STIM_021.jpg
1018.362	0.529	correct	congruent	Block1	congruent/STIM_021.jpg
1021.235	0.688	correct	congruent	Block1	congruent/STIM_022.jpg
1025.252	0.681	incorrect	congruent	Block1	congruent/STIM_022.jpg
1029.283	0.535	incorrect	congruent	Block1	congruent/STIM_022.jpg
1033.775	0.586	correct	congruent	Block1	congruent/STIM_022.jpg
1037.216	0.706	correct	congruent	Block1	congruent/STIM_022.jpg
1040.375	0.873	correct	congruent	Block1	congruent/STIM_023.jpg
1043.39	0.641	correct	congruent	Block1	congruent/STIM_023.jpg
1047.301	0.897	correct	congruent	Block1	congruent/STIM_023.jpg
1051.829	0.906	correct	congruent	Block1	congruent/STIM_023.jpg
1056.315	0.721	incorrect	congruent	Block1	congruent/STIM_023.jpg
1059.834	0.877	correct	congruent	Block1	congruent/STIM_024.jpg
1063.123	0.578	correct	congruent	Block1	congruent/STIM_024.jpg
1066.596	0.594	correct	congruent	Block1	congruent/STIM_024.jpg
1069.831	0.783	correct	congruent	Block1	congruent/STIM_024.jpg
1073.877	0.875	correct	congruent	Block1	congruent/STIM_024.jpg
1077.757	0.525	correct	congruent	Block1	congruent/STIM_025.jpg
1080.508	0.784	correct	congruent	Block1	congruent/STIM_025.jpg
1083.691	0.84	correct	congruent	Block1	congruent/STIM_025.jpg
1087.178	0.695	correct	congruent	Block1	congruent/STIM_025.jpg
1091.158	0.71	correct	congruent	Block1	congruent/STIM_025.jpg
1094.38	0.844	incorrect	congruent	Block1	congruent/STIM_026.jpg
1099.059	0.565	correct	congruent	Block1	congruent/STIM_026.jpg
1103.208	0.727	correct	congruent	Block1	congruent/STIM_026.jpg
1106.081	0.929	correct	congruent	Block1	congruent/STIM_026.jpg
1111.0	0.852	correct	congruent	Block1	congruent/STIM_026.jpg
1114.35	0.668	correct	congruent	Block1	congruent/STIM_027.jpg
1118.84	0.558	correct	congruent	Block1	congruent/STIM_027.jpg
1123.256	0.643	correct	congruent	Block1	congruent/STIM_027.jpg
1126.255	0.713	correct	congruent	Block1	congruent/STIM_027.jpg
1130.35	0.802	correct	congruent	Block1	congruent/STIM_027.jpg
1134.367	0.703	correct	congruent	Block1	congruent/STIM_028.jpg
1137.156	0.773	correct	congruent	Block1	congruent/STIM_028.jpg
1141.541	0.601	correct	congruent	Block1	congruent/STIM_028.jpg
1145.82	0.591	correct	congruent	Block1	congruent/STIM_028.jpg
1148.888	0.789	incorrect	congruent	Block1	congruent/STIM_028.jpg
1153.27	0.559	correct	congruent	Block1	congruent/STIM_029.jpg
1156.637	0.54	correct	congruent	Block1	congruent/STIM_029.jpg
1160.817	0.886	correct	congruent	Block1	congruent/STIM_029.jpg
1164.699	0.921	correct	congruent	Block1	congruent/STIM_029.jpg
1169.25	0.782	correct	congruent	Block1	congruent/STIM_029.jpg
1173.335	0.848	correct	incongruent	Block2	incongruent/STIM_000.jpg
1176.898	0.699	correct	incongruent	Block2	incongruent/STIM_000.jpg
1181.109	0.735	correct	incongruent	Block2	incongruent/STIM_000.jpg
1185.602	0.927	correct	incongruent	Block2	incongruent/STIM_000.jpg
1189.353	0.7	correct	incongruent	Block2	incongruent/STIM_000.jpg
1193.255	1.235	correct	incongruent	Block2	incongruent/STIM_001.jpg
1197.378	0.693	correct	incongruent	Block2	incongruent/STIM_001.jpg
1201.243	0.8	correct	incongruent	Block2	incongruent/STIM_001.jpg
1205.013	1.041	correct	incongruent	Block2	incongruent/STIM_001.jpg
1209.897	0.703	correct	incongruent	Block2	incongruent/STIM_001.jpg
1214.382	0.864	correct	incongruent	Block2	incongruent/STIM_002.jpg
1218.809	1.033	correct	incongruent	Block2	incongruent/STIM_002.jpg
1223.101	0.574	correct	incongruent	Block2	incongruent/STIM_002.jpg
1227.391	0.621	correct	incongruent	Block2	incongruent/STIM_002.jpg
1230.309	0.896	incorrect	incongruent	Block2	incongruent/STIM_002.jpg
1234.501	0.751	correct	incongruent	Block2	incongruent/STIM_003.jpg
1237.625	0.88	correct	incongruent	Block2	incongruent/STIM_003.jpg
1241.378	1.054	correct	incongruent	Block2	incongruent/STIM_003.jpg
1246.406	0.787	correct	incongruent	Block2	incongruent/STIM_003.jpg
1249.746	0.618	correct	incongruent	Block2	incongruent/STIM_003.jpg
1252.588	0.948	correct	incongruent	Block2	incongruent/STIM_004.jpg
1256.947	1.012	correct	incongruent	Block2	incongruent/STIM_004.jpg
1260.401	1.023	correct	incongruent	Block2	incongruent/STIM_004.jpg
1264.585	0.835	incorrect	incongruent	Block2	incongruent/STIM_004.jpg
1267.948	0.934	correct	incongruent	Block2	incongruent/STIM_004.jpg
1271.629	0.74	correct	incongruent	Block2	incongruent/STIM_005.jpg
1275.659	0.996	correct	incongruent	Block2	incongruent/STIM_005.jpg
1280.475	1.088	correct	incongruent	Block2	incongruent/STIM_005.jpg
1284.152	0.991	correct	incongruent	Block2	incongruent/STIM_005.jpg
1287.795	0.821	correct	incongruent	Block2	incongruent/STIM_005.jpg
1291.429	0.955	correct	incongruent	Block2	incongruent/STIM_006.jpg
1294.952	0.811	correct	incongruent	Block2	incongruent/STIM_006.jpg
1297.901	0.852	correct	incongruent	Block2	incongruent/STIM_006.jpg
1300.861	0.804	correct	incongruent	Block2	incongruent/STIM_006.jpg
1305.644	0.909	correct	incongruent	Block2	incongruent/STIM_006.jpg
1309.876	1.318	incorrect	incongruent	Block2	incongruent/STIM_007.jpg
1313.354	0.937	correct	incongruent	Block2	incongruent/STIM_007.jpg
1317.446	0.934	correct	incongruent	Block2	incongruent/STIM_007.jpg
1321.492	0.829	correct	incongruent	Block2	incongruent/STIM_007.jpg
1325.574	1.02	correct	incongruent	Block2	incongruent/STIM_007.jpg
1328.889	0.884	incorrect	incongruent	Block2	incongruent/STIM_008.jpg
1332.305	0.75	correct	incongruent	Block2	incongruent/STIM_008.jpg
1335.451	0.891	correct	incongruent	Block2	incongruent/STIM_008.jpg
1340.241	0.778	correct	incongruent	Block2	incongruent/STIM_008.jpg
1343.87	0.721	correct	incongruent	Block2	incongruent/STIM_008.jpg
1346.995	1.254	correct	incongruent	Block2	incongruent/STIM_009.jpg
1351.082	0.791	correct	incongruent	Block2	incongruent/STIM_009.jpg
1354.503	0.546	correct	incongruent	Block2	incongruent/STIM_009.jpg
1357.887	0.747	correct	incongruent	Block2	incongruent/STIM_009.jpg
1361.264	0.923	correct	incongruent	Block2	incongruent/STIM_009.jpg
1365.781	1.112	correct	incongruent	Block2	incongruent/STIM_010.jpg
1369.47	1.234	correct	incongruent	Block2	incongruent/STIM_010.jpg
1373.735	0.924	correct	incongruent	Block2	incongruent/STIM_010.jpg
1377.322	0.918	correct	incongruent	Block2	incongruent/STIM_010.jpg
1381.105	0.692	correct	incongruent	Block2	incongruent/STIM_010.jpg
1385.505	0.694	incorrect	incongruent	Block2	incongruent/STIM_011.jpg
1388.948	0.891	correct	incongruent	Block2	incongruent/STIM_011.jpg
1393.562	0.591	correct	incongruent	Block2	incongruent/STIM_011.jpg
1396.374	0.922	correct	incongruent	Block2	incongruent/STIM_011.jpg
1401.009	0.754	correct	incongruent	Block2	incongruent/STIM_011.jpg
1403.881	0.894	correct	incongruent	Block2	incongruent/STIM_012.jpg
1407.151	1.205	correct	incongruent	Block2	incongruent/STIM_012.jpg
1410.87	0.589	correct	incongruent	Block2	incongruent/STIM_012.jpg
1414.861	0.555	correct	incongruent	Block2	incongruent/STIM_012.jpg
1417.97	0.653	correct	incongruent	Block2	incongruent/STIM_012.jpg
1422.024	0.947	correct	incongruent	Block2	incongruent/STIM_013.jpg
1425.015	0.94	correct	incongruent	Block2	incongruent/STIM_013.jpg
1428.089	0.728	incorrect	incongruent	Block2	incongruent/STIM_013.jpg
1432.255	0.802	correct	incongruent	Block2	incongruent/STIM_013.jpg
1435.751	0.783	correct	incongruent	Block2	incongruent/STIM_013.jpg
1438.953	1.271	correct	incongruent	Block2	incongruent/STIM_014.jpg
1443.467	0.808	correct	incongruent	Block2	incongruent/STIM_014.jpg
1446.871	0.794	correct	incongruent	Block2	incongruent/STIM_014.jpg
1450.377	1.046	correct	incongruent	Block2	incongruent/STIM_014.jpg
1454.742	0.645	incorrect	incongruent	Block2	incongruent/STIM_014.jpg
1458.177	1.188	correct	incongruent	Block2	incongruent/STIM_015.jpg
1463.275	1.171	correct	incongruent	Block2	incongruent/STIM_015.jpg
1467.645	0.879	correct	incongruent	Block2	incongruent/STIM_015.jpg
1471.522	1.079	correct	incongruent	Block2	incongruent/STIM_015.jpg
1475.373	0.845	correct	incongruent	Block2	incongruent/STIM_015.jpg
1478.258	0.64	correct	incongruent	Block2	incongruent/STIM_016.jpg
1482.476	0.935	correct	incongruent	Block2	incongruent/STIM_016.jpg
1485.793	1.135	correct	incongruent	Block2	incongruent/STIM_016.jpg
1490.338	0.752	correct	incongruent	Block2	incongruent/STIM_016.jpg
1494.688	0.778	incorrect	incongruent	Block2	incongruent/STIM_016.jpg
1497.975	1.136	correct	incongruent	Block2	incongruent/STIM_017.jpg
1502.749	0.684	correct	incongruent	Block2	incongruent/STIM_017.jpg
1507.314	0.782	correct	incongruent	Block2	incongruent/STIM_017.jpg
1511.889	0.738	correct	incongruent	Block2	incongruent/STIM_017.jpg
1516.059	0.821	correct	incongruent	Block2	incongruent/STIM_017.jpg
1519.419	0.941	correct	incongruent	Block2	incongruent/STIM_018.jpg
1522.567	0.955	correct	incongruent	Block2	incongruent/STIM_018.jpg
1526.177	1.127	correct	incongruent	Block2	incongruent/STIM_018.jpg
1529.83	0.899	correct	incongruent	Block2	incongruent/STIM_018.jpg
1534.416	0.552	correct	incongruent	Block2	incongruent/STIM_018.jpg
1537.004	1.24	incorrect	incongruent	Block2	incongruent/STIM_019.jpg
1541.536	0.957	correct	incongruent	Block2	incongruent/STIM_019.jpg
1546.02	0.855	correct	incongruent	Block2	incongruent/STIM_019.jpg
1550.821	0.58	correct	incongruent	Block2	incongruent/STIM_019.jpg
1554.773	0.711	correct	incongruent	Block2	incongruent/STIM_019.jpg
1557.512	0.724	correct	incongruent	Block2	incongruent/STIM_020.jpg
1560.33	0.612	correct	incongruent	Block2	incongruent/STIM_020.jpg
1564.87	0.995	correct	incongruent	Block2	incongruent/STIM_020.jpg
1568.889	0.901	correct	incongruent	Block2	incongruent/STIM_020.jpg
1572.51	0.589	correct	incongruent	Block2	incongruent/STIM_020.jpg
1576.191	1.302	correct	incongruent	Block2	incongruent/STIM_021.jpg
1581.036	0.834	correct	incongruent	Block2	incongruent/STIM_021.jpg
1585.737	1.132	correct	incongruent	Block2	incongruent/STIM_021.jpg
1588.966	1.07	correct	incongruent	Block2	incongruent/STIM_021.jpg
1592.522	0.807	correct	incongruent	Block2	incongruent/STIM_021.jpg
1596.868	0.778	correct	incongruent	Block2	incongruent/STIM_022.jpg
1600.074	1.169	correct	incongruent	Block2	incongruent/STIM_022.jpg
1604.286	0.777	correct	incongruent	Block2	incongruent/STIM_022.jpg
1608.021	0.884	correct	incongruent	Block2	incongruent/STIM_022.jpg
1611.817	0.836	correct	incongruent	Block2	incongruent/STIM_022.jpg
1616.017	1.014	correct	incongruent	Block2	incongruent/STIM_023.jpg
1619.61	1.014	correct	incongruent	Block2	incongruent/STIM_023.jpg
1623.409	1.054	correct	incongruent	Block2	incongruent/STIM_023.jpg
1627.629	1.036	correct	incongruent	Block2	incongruent/STIM_023.jpg
1631.998	0.64	correct	incongruent	Block2	incongruent/STIM_023.jpg
1636.297	0.814	correct	incongruent	Block2	incongruent/STIM_024.jpg
1639.542	1.052	correct	incongruent	Block2	incongruent/STIM_024.jpg
1644.069	0.689	correct	incongruent	Block2	incongruent/STIM_024.jpg
1648.104	0.559	correct	incongruent	Block2	incongruent/STIM_024.jpg
1652.251	0.565	correct	incongruent	Block2	incongruent/STIM_024.jpg
1655.413	0.62	correct	incongruent	Block2	incongruent/STIM_025.jpg
1659.59	0.913	correct	incongruent	Block2	incongruent/STIM_025.jpg
1662.786	0.81	correct	incongruent	Block2	incongruent/STIM_025.jpg
1666.746	0.71	correct	incongruent	Block2	incongruent/STIM_025.jpg
1670.84	0.665	correct	incongruent	Block2	incongruent/STIM_025.jpg
1675.126	1.064	correct	incongruent	Block2	incongruent/STIM_026.jpg
1679.126	0.761	correct	incongruent	Block2	incongruent/STIM_026.jpg
1682.629	0.771	correct	incongruent	Block2	incongruent/STIM_026.jpg
1685.694	0.703	correct	incongruent	Block2	incongruent/STIM_026.jpg
1689.799	0.916	correct	incongruent	Block2	incongruent/STIM_026.jpg
1693.455	1.094	correct	incongruent	Block2	incongruent/STIM_027.jpg
1696.595	0.893	correct	incongruent	Block2	incongruent/STIM_027.jpg
1700.806	1.119	correct	incongruent	Block2	incongruent/STIM_027.jpg
1704.868	0.961	correct	incongruent	Block2	incongruent/STIM_027.jpg
1709.734	0.636	correct	incongruent	Block2	incongruent/STIM_027.jpg
1713.359	0.79	correct	incongruent	Block2	incongruent/STIM_028.jpg
1717.242	0.652	correct	incongruent	Block2	incongruent/STIM_028.jpg
1720.762	0.864	correct	incongruent	Block2	incongruent/STIM_028.jpg
1724.021	0.706	correct	incongruent	Block2	incongruent/STIM_028.jpg
1727.361	0.651	incorrect	incongruent	Block2	incongruent/STIM_028.jpg
1731.761	1.298	correct	incongruent	Block2	incongruent/STIM_029.jpg
1735.793	1.178	correct	incongruent	Block2	incongruent/STIM_029.jpg
1740.763	0.787	correct	incongruent	Block2	incongruent/STIM_029.jpg
1744.056	1.033	correct	incongruent	Block2	incongruent/STIM_029.jpg
1747.209	0.631	correct	incongruent	Block2	incongruent/STIM_029.jpg
1751.57	0.793	correct	congruent	Block2	congruent/STIM_000.jpg
1755.664	0.8	correct	congruent	Block2	congruent/STIM_000.jpg
1760.31	0.595	correct	congruent	Block2	congruent/STIM_000.jpg
1764.666	0.772	incorrect	congruent	Block2	congruent/STIM_000.jpg
1769.407	0.76	correct	congruent	Block2	congruent/STIM_000.jpg
1774.14	0.829	incorrect	congruent	Block2	congruent/STIM_001.jpg
1778.594	0.787	correct	congruent	Block2	congruent/STIM_001.jpg
1781.668	0.621	correct	congruent	Block2	congruent/STIM_001.jpg
1784.397	0.87	incorrect	congruent	Block2	congruent/STIM_001.jpg
1787.493	0.897	correct	congruent	Block2	congruent/STIM_001.jpg
1791.429	0.797	correct	congruent	Block2	congruent/STIM_002.jpg
1795.533	0.835	correct	congruent	Block2	congruent/STIM_002.jpg
1800.319	0.873	incorrect	congruent	Block2	congruent/STIM_002.jpg
1803.36	0.927	correct	congruent	Block2	congruent/STIM_002.jpg
1806.788	0.687	correct	congruent	Block2	congruent/STIM_002.jpg
1811.451	0.638	correct	congruent	Block2	congruent/STIM_003.jpg
1814.324	0.929	correct	congruent	Block2	congruent/STIM_003.jpg
1817.307	0.903	correct	congruent	Block2	congruent/STIM_003.jpg
1821.288	0.802	correct	congruent	Block2	congruent/STIM_003.jpg
1825.812	0.6	correct	congruent	Block2	congruent/STIM_003.jpg
1829.475	0.701	incorrect	congruent	Block2	congruent/STIM_004.jpg
1833.709	0.871	correct	congruent	Block2	congruent/STIM_004.jpg
1837.449	0.526	correct	congruent	Block2	congruent/STIM_004.jpg
1840.299	0.595	incorrect	congruent	Block2	congruent/STIM_004.jpg
1844.035	0.535	correct	congruent	Block2	congruent/STIM_004.jpg
1848.314	0.76	correct	congruent	Block2	congruent/STIM_005.jpg
1851.679	0.645	correct	congruent	Block2	congruent/STIM_005.jpg
1854.514	0.569	incorrect	congruent	Block2	congruent/STIM_005.jpg
1857.793	0.903	correct	congruent	Block2	congruent/STIM_005.jpg
1861.601	0.695	correct	congruent	Block2	congruent/STIM_005.jpg
1864.361	0.613	correct	congruent	Block2	congruent/STIM_006.jpg
1868.869	0.585	correct	congruent	Block2	congruent/STIM_006.jpg
1872.218	0.821	correct	congruent	Block2	congruent/STIM_006.jpg
1876.364	0.826	correct	congruent	Block2	congruent/STIM_006.jpg
1879.887	0.611	incorrect	congruent	Block2	congruent/STIM_006.jpg
1882.842	0.853	correct	congruent	Block2	congruent/STIM_007.jpg
1887.187	0.902	correct	congruent	Block2	congruent/STIM_007.jpg
1890.92	0.633	correct	congruent	Block2	congruent/STIM_007.jpg
1895.551	0.564	correct	congruent	Block2	congruent/STIM_007.jpg
1898.434	0.594	correct	congruent	Block2	congruent/STIM_007.jpg
1903.016	0.63	correct	congruent	Block2	congruent/STIM_008.jpg
1906.266	0.541	correct	congruent	Block2	congruent/STIM_008.jpg
1910.486	0.533	correct	congruent	Block2	congruent/STIM_008.jpg
1913.034	0.725	correct	congruent	Block2	congruent/STIM_008.jpg
1916.993	0.899	correct	congruent	Block2	congruent/STIM_008.jpg
1920.55	0.552	correct	congruent	Block2	congruent/STIM_009.jpg
1923.701	0.911	incorrect	congruent	Block2	congruent/STIM_009.jpg
1928.308	0.892	correct	congruent	Block2	congruent/STIM_009.jpg
1932.035	0.767	correct	congruent	Block2	congruent/STIM_009.jpg
1934.863	0.852	correct	congruent	Block2	congruent/STIM_009.jpg
1938.15	0.927	correct	congruent	Block2	congruent/STIM_010.jpg
1941.794	0.634	correct	congruent	Block2	congruent/STIM_010.jpg
1944.709	0.844	correct	congruent	Block2	congruent/STIM_010.jpg
1948.524	0.586	correct	congruent	Block2	congruent/STIM_010.jpg
1951.183	0.72	correct	congruent	Block2	congruent/STIM_010.jpg
1954.779	0.722	incorrect	congruent	Block2	congruent/STIM_011.jpg
1959.261	0.846	correct	congruent	Block2	congruent/STIM_011.jpg
1962.299	0.627	correct	congruent	Block2	congruent/STIM_011.jpg
1966.656	0.802	correct	congruent	Block2	congruent/STIM_011.jpg
1970.109	0.604	correct	congruent	Block2	congruent/STIM_011.jpg
1973.989	0.606	correct	congruent	Block2	congruent/STIM_012.jpg
1977.02	0.672	correct	congruent	Block2	congruent/STIM_012.jpg
1981.356	0.614	correct	congruent	Block2	congruent/STIM_012.jpg
1985.528	0.594	correct	congruent	Block2	congruent/STIM_012.jpg
1988.474	0.81	correct	congruent	Block2	congruent/STIM_012.jpg
1992.587	0.8	correct	congruent	Block2	congruent/STIM_013.jpg
1995.816	0.663	incorrect	congruent	Block2	congruent/STIM_013.jpg
2000.235	0.786	correct	congruent	Block2	congruent/STIM_013.jpg
2003.628	0.906	correct	congruent	Block2	congruent/STIM_013.jpg
2006.903	0.669	correct	congruent	Block2	congruent/STIM_013.jpg
2011.416	0.674	correct	congruent	Block2	congruent/STIM_014.jpg
2014.25	0.89	correct	congruent	Block2	congruent/STIM_014.jpg
2017.24	0.791	correct	congruent	Block2	congruent/STIM_014.jpg
2020.432	0.87	incorrect	congruent	Block2	congruent/STIM_014.jpg
2024.192	0.638	correct	congruent	Block2	congruent/STIM_014.jpg
2028.561	0.926	correct	congruent	Block2	congruent/STIM_015.jpg
2033.348	0.922	correct	congruent	Block2	congruent/STIM_015.jpg
2036.397	0.555	correct	congruent	Block2	congruent/STIM_015.jpg
2039.625	0.878	correct	congruent	Block2	congruent/STIM_015.jpg
2043.257	0.626	correct	congruent	Block2	congruent/STIM_015.jpg
2046.335	0.521	correct	congruent	Block2	congruent/STIM_016.jpg
2048.978	0.526	correct	congruent	Block2	congruent/STIM_016.jpg
2052.822	0.669	correct	congruent	Block2	congruent/STIM_016.jpg
2056.033	0.733	correct	congruent	Block2	congruent/STIM_016.jpg
2059.725	0.742	correct	congruent	Block2	congruent/STIM_016.jpg
2062.752	0.54	correct	congruent	Block2	congruent/STIM_017.jpg
2065.955	0.917	correct	congruent	Block2	congruent/STIM_017.jpg
2070.017	0.622	correct	congruent	Block2	congruent/STIM_017.jpg
2073.066	0.743	correct	congruent	Block2	congruent/STIM_017.jpg
2075.964	0.517	correct	congruent	Block2	congruent/STIM_017.jpg
2079.11	0.531	correct	congruent	Block2	congruent/STIM_018.jpg
2081.671	0.586	correct	congruent	Block2	congruent/STIM_018.jpg
2084.799	0.739	incorrect	congruent	Block2	congruent/STIM_018.jpg
2088.712	0.81	correct	congruent	Block2	congruent/STIM_018.jpg
2093.368	0.693	correct	congruent	Block2	congruent/STIM_018.jpg
2096.742	0.902	correct	congruent	Block2	congruent/STIM_019.jpg
2100.967	0.923	correct	congruent	Block2	congruent/STIM_019.jpg
2105.06	0.634	correct	congruent	Block2	congruent/STIM_019.jpg
2109.626	0.646	correct	congruent	Block2	congruent/STIM_019.jpg
2112.516	0.61	correct	congruent	Block2	congruent/STIM_019.jpg
2116.192	0.616	correct	congruent	Block2	congruent/STIM_020.jpg
2120.129	0.81	correct	congruent	Block2	congruent/STIM_020.jpg
2124.67	0.522	correct	congruent	Block2	congruent/STIM_020.jpg
2127.674	0.824	correct	congruent	Block2	congruent/STIM_020.jpg
2131.205	0.552	correct	congruent	Block2	congruent/STIM_020.jpg
2133.773	0.888	correct	congruent	Block2	congruent/STIM_021.jpg
2137.734	0.771	correct	congruent	Block2	congruent/STIM_021.jpg
2140.625	0.797	correct	congruent	Block2	congruent/STIM_021.jpg
2143.649	0.633	correct	congruent	Block2	congruent/STIM_021.jpg
2147.809	0.757	correct	congruent	Block2	congruent/STIM_021.jpg
2151.097	0.851	correct	congruent	Block2	congruent/STIM_022.jpg
2154.544	0.814	incorrect	congruent	Block2	congruent/STIM_022.jpg
2158.688	0.748	incorrect	congruent	Block2	congruent/STIM_022.jpg
2162.94	0.521	correct	congruent	Block2	congruent/STIM_022.jpg
2166.213	0.569	correct	congruent	Block2	congruent/STIM_022.jpg
2169.102	0.79	correct	congruent	Block2	congruent/STIM_023.jpg
2172.045	0.555	correct	congruent	Block2	congruent/STIM_023.jpg
2176.088	0.841	correct	congruent	Block2	congruent/STIM_023.jpg
2180.759	0.853	correct	congruent	Block2	congruent/STIM_023.jpg
2184.245	0.778	correct	congruent	Block2	congruent/STIM_023.jpg
2187.287	0.693	correct	congruent	Block2	congruent/STIM_024.jpg
2190.572	0.728	correct	congruent	Block2	congruent/STIM_024.jpg
2194.39	0.9	correct	congruent	Block2	congruent/STIM_024.jpg
2199.214	0.747	correct	congruent	Block2	congruent/STIM_024.jpg
2203.185	0.606	correct	congruent	Block2	congruent/STIM_024.jpg
2207.323	0.745	correct	congruent	Block2	congruent/STIM_025.jpg
2211.607	0.757	correct	congruent	Block2	congruent/STIM_025.jpg
2214.684	0.722	correct	congruent	Block2	congruent/STIM_025.jpg
2218.843	0.803	correct	congruent	Block2	congruent/STIM_025.jpg
2222.502	0.566	correct	congruent	Block2	congruent/STIM_025.jpg
2225.1	0.803	correct	congruent	Block2	congruent/STIM_026.jpg
2228.166	0.79	correct	congruent	Block2	congruent/STIM_026.jpg
2231.538	0.702	correct	congruent	Block2	congruent/STIM_026.jpg
2235.718	0.863	correct	congruent	Block2	congruent/STIM_026.jpg
2238.583	0.891	correct	congruent	Block2	congruent/STIM_026.jpg
2242.39	0.877	correct	congruent	Block2	congruent/STIM_027.jpg
2245.328	0.84	correct	congruent	Block2	congruent/STIM_027.jpg
2249.971	0.877	incorrect	congruent	Block2	congruent/STIM_027.jpg
2254.824	0.809	correct	congruent	Block2	congruent/STIM_027.jpg
2259.327	0.629	correct	congruent	Block2	congruent/STIM_027.jpg
2263.781	0.802	correct	congruent	Block2	congruent/STIM_028.jpg
2267.103	0.738	correct	congruent	Block2	congruent/STIM_028.jpg
2270.586	0.872	correct	congruent	Block2	congruent/STIM_028.jpg
2274.602	0.899	incorrect	congruent	Block2	congruent/STIM_028.jpg
2278.24	0.532	correct	congruent	Block2	congruent/STIM_028.jpg
2281.792	0.596	correct	congruent	Block2	congruent/STIM_029.jpg
2285.323	0.908	correct	congruent	Block2	congruent/STIM_029.jpg
2288.871	0.713	correct	congruent	Block2	congruent/STIM_029.jpg
2291.837	0.761	correct	congruent	Block2	congruent/STIM_029.jpg
2294.606	0.718	correct	congruent	Block2	congruent/STIM_029.jpg
2298.956	0.766	correct	incongruent	Block3	incongruent/STIM_000.jpg
2301.862	0.816	correct	incongruent	Block3	incongruent/STIM_000.jpg
2305.7	0.569	correct	incongruent	Block3	incongruent/STIM_000.jpg
2309.492	0.871	correct	incongruent	Block3	incongruent/STIM_000.jpg
2313.677	0.535	correct	incongruent	Block3	incongruent/STIM_000.jpg
2317.374	0.586	correct	incongruent	Block3	incongruent/STIM_001.jpg
2320.847	1.077	correct	incongruent	Block3	incongruent/STIM_001.jpg
2325.863	1.048	correct	incongruent	Block3	incongruent/STIM_001.jpg
2330.039	0.589	correct	incongruent	Block3	incongruent/STIM_001.jpg
2334.13	0.542	correct	incongruent	Block3	incongruent/STIM_001.jpg
2337.948	0.899	correct	incongruent	Block3	incongruent/STIM_002.jpg
2342.794	0.889	correct	incongruent	Block3	incongruent/STIM_002.jpg
2346.043	0.869	correct	incongruent	Block3	incongruent/STIM_002.jpg
2350.608	1.024	correct	incongruent	Block3	incongruent/STIM_002.jpg
2354.283	0.895	correct	incongruent	Block3	incongruent/STIM_002.jpg
2358.937	0.639	correct	incongruent	Block3	incongruent/STIM_003.jpg
2362.266	0.871	correct	incongruent	Block3	incongruent/STIM_003.jpg
2365.808	1.074	correct	incongruent	Block3	incongruent/STIM_003.jpg
2369.337	0.569	correct	incongruent	Block3	incongruent/STIM_003.jpg
2373.168	1.032	correct	incongruent	Block3	incongruent/STIM_003.jpg
2377.903	0.702	correct	incongruent	Block3	incongruent/STIM_004.jpg
2381.134	0.875	correct	incongruent	Block3	incongruent/STIM_004.jpg
2385.846	0.914	correct	incongruent	Block3	incongruent/STIM_004.jpg
2389.389	0.946	correct	incongruent	Block3	incongruent/STIM_004.jpg
2393.872	0.66	correct	incongruent	Block3	incongruent/STIM_004.jpg
2396.593	0.834	correct	incongruent	Block3	incongruent/STIM_005.jpg
2399.857	1.053	correct	incongruent	Block3	incongruent/STIM_005.jpg
2404.622	0.752	correct	incongruent	Block3	incongruent/STIM_005.jpg
2409.067	0.68	correct	incongruent	Block3	incongruent/STIM_005.jpg
2412.095	0.827	correct	incongruent	Block3	incongruent/STIM_005.jpg
2415.682	0.921	correct	incongruent	Block3	incongruent/STIM_006.jpg
2419.049	1.078	correct	incongruent	Block3	incongruent/STIM_006.jpg
2422.847	0.716	correct	incongruent	Block3	incongruent/STIM_006.jpg
2427.465	0.805	correct	incongruent	Block3	incongruent/STIM_006.jpg
2430.786	0.943	correct	incongruent	Block3	incongruent/STIM_006.jpg
2434.952	0.616	correct	incongruent	Block3	incongruent/STIM_007.jpg
2437.962	0.778	correct	incongruent	Block3	incongruent/STIM_007.jpg
2441.513	0.762	correct	incongruent	Block3	incongruent/STIM_007.jpg
2444.968	0.804	correct	incongruent	Block3	incongruent/STIM_007.jpg
2448.598	0.976	correct	incongruent	Block3	incongruent/STIM_007.jpg
2453.005	0.893	incorrect	incongruent	Block3	incongruent/STIM_008.jpg
2457.643	1.024	correct	incongruent	Block3	incongruent/STIM_008.jpg
2460.677	0.852	correct	incongruent	Block3	incongruent/STIM_008.jpg
2465.214	0.656	correct	incongruent	Block3	incongruent/STIM_008.jpg
2469.465	0.84	correct	incongruent	Block3	incongruent/STIM_008.jpg
2473.767	0.755	correct	incongruent	Block3	incongruent/STIM_009.jpg
2476.558	0.978	correct	incongruent	Block3	incongruent/STIM_009.jpg
2479.595	0.766	correct	incongruent	Block3	incongruent/STIM_009.jpg
2483.823	0.684	correct	incongruent	Block3	incongruent/STIM_009.jpg
2487.822	0.931	correct	incongruent	Block3	incongruent/STIM_009.jpg
2492.233	0.606	correct	incongruent	Block3	incongruent/STIM_010.jpg
2496.458	0.952	correct	incongruent	Block3	incongruent/STIM_010.jpg
2499.79	0.897	correct	incongruent	Block3	incongruent/STIM_010.jpg
2504.082	0.556	correct	incongruent	Block3	incongruent/STIM_010.jpg
2507.351	0.871	correct	incongruent	Block3	incongruent/STIM_010.jpg
2511.577	0.632	correct	incongruent	Block3	incongruent/STIM_011.jpg
2515.002	0.881	correct	incongruent	Block3	incongruent/STIM_011.jpg
2518.628	0.595	correct	incongruent	Block3	incongruent/STIM_011.jpg
2522.343	0.827	correct	incongruent	Block3	incongruent/STIM_011.jpg
2525.518	0.843	correct	incongruent	Block3	incongruent/STIM_011.jpg
2528.848	0.706	correct	incongruent	Block3	incongruent/STIM_012.jpg
2531.928	0.71	correct	incongruent	Block3	incongruent/STIM_012.jpg
2534.924	0.676	correct	incongruent	Block3	incongruent/STIM_012.jpg
2539.376	0.955	incorrect	incongruent	Block3	incongruent/STIM_012.jpg
2542.96	0.548	correct	incongruent	Block3	incongruent/STIM_012.jpg
2546.584	0.762	correct	incongruent	Block3	incongruent/STIM_013.jpg
2551.276	0.85	correct	incongruent	Block3	incongruent/STIM_013.jpg
2555.839	1.013	correct	incongruent	Block3	incongruent/STIM_013.jpg
2559.312	0.622	correct	incongruent	Block3	incongruent/STIM_013.jpg
2563.0	0.599	correct	incongruent	Block3	incongruent/STIM_013.jpg
2567.352	1.046	correct	incongruent	Block3	incongruent/STIM_014.jpg
2570.627	0.769	correct	incongruent	Block3	incongruent/STIM_014.jpg
2574.667	0.88	correct	incongruent	Block3	incongruent/STIM_014.jpg
2578.011	0.768	correct	incongruent	Block3	incongruent/STIM_014.jpg
2580.953	1.077	correct	incongruent	Block3	incongruent/STIM_014.jpg
2585.907	0.621	correct	incongruent	Block3	incongruent/STIM_015.jpg
2588.577	0.995	correct	incongruent	Block3	incongruent/STIM_015.jpg
2592.774	0.772	correct	incongruent	Block3	incongruent/STIM_015.jpg
2595.609	0.647	correct	incongruent	Block3	incongruent/STIM_015.jpg
2599.91	0.775	correct	incongruent	Block3	incongruent/STIM_015.jpg
2603.499	0.781	correct	incongruent	Block3	incongruent/STIM_016.jpg
2606.829	0.983	correct	incongruent	Block3	incongruent/STIM_016.jpg
2610.47	0.574	correct	incongruent	Block3	incongruent/STIM_016.jpg
2614.537	1.056	correct	incongruent	Block3	incongruent/STIM_016.jpg
2617.735	0.59	correct	incongruent	Block3	incongruent/STIM_016.jpg
2620.963	0.748	correct	incongruent	Block3	incongruent/STIM_017.jpg
2624.026	0.851	correct	incongruent	Block3	incongruent/STIM_017.jpg
2626.918	0.838	correct	incongruent	Block3	incongruent/STIM_017.jpg
2630.844	0.916	correct	incongruent	Block3	incongruent/STIM_017.jpg
2635.345	1.065	correct	incongruent	Block3	incongruent/STIM_017.jpg
2640.395	0.725	correct	incongruent	Block3	incongruent/STIM_018.jpg
2643.822	0.892	correct	incongruent	Block3	incongruent/STIM_018.jpg
2646.962	0.64	correct	incongruent	Block3	incongruent/STIM_018.jpg
2651.493	0.984	correct	incongruent	Block3	incongruent/STIM_018.jpg
2655.976	0.926	correct	incongruent	Block3	incongruent/STIM_018.jpg
2659.223	0.566	correct	incongruent	Block3	incongruent/STIM_019.jpg
2661.819	0.906	correct	incongruent	Block3	incongruent/STIM_019.jpg
2665.659	0.516	correct	incongruent	Block3	incongruent/STIM_019.jpg
2669.024	0.68	correct	incongruent	Block3	incongruent/STIM_019.jpg
2673.458	0.993	correct	incongruent	Block3	incongruent/STIM_019.jpg
2677.053	0.795	correct	incongruent	Block3	incongruent/STIM_020.jpg
2680.708	0.623	correct	incongruent	Block3	incongruent/STIM_020.jpg
2684.294	0.852	correct	incongruent	Block3	incongruent/STIM_020.jpg
2688.034	0.608	correct	incongruent	Block3	incongruent/STIM_020.jpg
2692.507	0.57	correct	incongruent	Block3	incongruent/STIM_020.jpg
2695.521	1.002	correct	incongruent	Block3	incongruent/STIM_021.jpg
2698.71	0.648	correct	incongruent	Block3	incongruent/STIM_021.jpg
2702.012	0.562	correct	incongruent	Block3	incongruent/STIM_021.jpg
2705.355	0.888	correct	incongruent	Block3	incongruent/STIM_021.jpg
2708.419	0.731	correct	incongruent	Block3	incongruent/STIM_021.jpg
2712.837	0.735	correct	incongruent	Block3	incongruent/STIM_022.jpg
2717.426	0.892	correct	incongruent	Block3	incongruent/STIM_022.jpg
2721.738	0.582	correct	incongruent	Block3	incongruent/STIM_022.jpg
2725.891	0.682	correct	incongruent	Block3	incongruent/STIM_022.jpg
2729.825	1.003	correct	incongruent	Block3	incongruent/STIM_022.jpg
2734.369	0.8	correct	incongruent	Block3	incongruent/STIM_023.jpg
2738.012	0.752	correct	incongruent	Block3	incongruent/STIM_023.jpg
2740.851	0.848	correct	incongruent	Block3	incongruent/STIM_023.jpg
2744.051	0.546	correct	incongruent	Block3	incongruent/STIM_023.jpg
2748.325	0.618	correct	incongruent	Block3	incongruent/STIM_023.jpg
2751.884	0.863	correct	incongruent	Block3	incongruent/STIM_024.jpg
2756.244	0.985	correct	incongruent	Block3	incongruent/STIM_024.jpg
2760.055	0.555	correct	incongruent	Block3	incongruent/STIM_024.jpg
2763.984	0.587	correct	incongruent	Block3	incongruent/STIM_024.jpg
2766.926	0.687	correct	incongruent	Block3	incongruent/STIM_024.jpg
2771.219	0.53	correct	incongruent	Block3	incongruent/STIM_025.jpg
2774.198	1.0	correct	incongruent	Block3	incongruent/STIM_025.jpg
2777.694	1.056	correct	incongruent	Block3	incongruent/STIM_025.jpg
2782.449	0.84	correct	incongruent	Block3	incongruent/STIM_025.jpg
2786.434	0.898	correct	incongruent	Block3	incongruent/STIM_025.jpg
2790.991	0.522	correct	incongruent	Block3	incongruent/STIM_026.jpg
2793.818	0.675	correct	incongruent	Block3	incongruent/STIM_026.jpg
2797.779	0.792	correct	incongruent	Block3	incongruent/STIM_026.jpg
2801.571	0.872	correct	incongruent	Block3	incongruent/STIM_026.jpg
2804.584	1.077	correct	incongruent	Block3	incongruent/STIM_026.jpg
2808.977	1.082	correct	incongruent	Block3	incongruent/STIM_027.jpg
2812.519	0.844	correct	incongruent	Block3	incongruent/STIM_027.jpg
2816.92	0.774	correct	incongruent	Block3	incongruent/STIM_027.jpg
2820.31	0.712	correct	incongruent	Block3	incongruent/STIM_027.jpg
2824.181	1.033	correct	incongruent	Block3	incongruent/STIM_027.jpg
2828.902	0.563	correct	incongruent	Block3	incongruent/STIM_028.jpg
2833.4	0.571	correct	incongruent	Block3	incongruent/STIM_028.jpg
2836.239	0.664	correct	incongruent	Block3	incongruent/STIM_028.jpg
2839.682	1.037	correct	incongruent	Block3	incongruent/STIM_028.jpg
2843.725	0.873	correct	incongruent	Block3	incongruent/STIM_028.jpg
2846.605	0.89	correct	incongruent	Block3	incongruent/STIM_029.jpg
2850.22	0.962	correct	incongruent	Block3	incongruent/STIM_029.jpg
2853.638	0.888	correct	incongruent	Block3	incongruent/STIM_029.jpg
2857.503	0.869	correct	incongruent	Block3	incongruent/STIM_029.jpg
2860.463	0.869	correct	incongruent	Block3	incongruent/STIM_029.jpg
2864.504	0.866	correct	congruent	Block3	congruent/STIM_000.jpg
2869.225	0.542	correct	congruent	Block3	congruent/STIM_000.jpg
2872.76	0.551	correct	congruent	Block3	congruent/STIM_000.jpg
2877.157	0.753	correct	congruent	Block3	congruent/STIM_000.jpg
2881.109	0.711	correct	congruent	Block3	congruent/STIM_000.jpg
2885.12	0.646	incorrect	congruent	Block3	congruent/STIM_001.jpg
2889.682	0.882	correct	congruent	Block3	congruent/STIM_001.jpg
2894.257	0.716	correct	congruent	Block3	congruent/STIM_001.jpg
2898.342	0.695	correct	congruent	Block3	congruent/STIM_001.jpg
2901.572	0.612	correct	congruent	Block3	congruent/STIM_001.jpg
2905.695	0.852	correct	congruent	Block3	congruent/STIM_002.jpg
2909.838	0.905	correct	congruent	Block3	congruent/STIM_002.jpg
2914.579	0.525	correct	congruent	Block3	congruent/STIM_002.jpg
2918.027	0.832	correct	congruent	Block3	congruent/STIM_002.jpg
2921.479	0.682	correct	congruent	Block3	congruent/STIM_002.jpg
2924.726	0.691	correct	congruent	Block3	congruent/STIM_003.jpg
2928.803	0.921	correct	congruent	Block3	congruent/STIM_003.jpg
2932.064	0.634	correct	congruent	Block3	congruent/STIM_003.jpg
2935.156	0.71	correct	congruent	Block3	congruent/STIM_003.jpg
2938.296	0.743	correct	congruent	Block3	congruent/STIM_003.jpg
2942.738	0.542	correct	congruent	Block3	congruent/STIM_004.jpg
2946.344	0.821	correct	congruent	Block3	congruent/STIM_004.jpg
2950.795	0.713	correct	congruent	Block3	congruent/STIM_004.jpg
2953.632	0.575	correct	congruent	Block3	congruent/STIM_004.jpg
2956.831	0.529	correct	congruent	Block3	congruent/STIM_004.jpg
2960.472	0.633	correct	congruent	Block3	congruent/STIM_005.jpg
2965.103	0.871	correct	congruent	Block3	congruent/STIM_005.jpg
2968.831	0.754	correct	congruent	Block3	congruent/STIM_005.jpg
2971.62	0.866	correct	congruent	Block3	congruent/STIM_005.jpg
2976.479	0.57	correct	congruent	Block3	congruent/STIM_005.jpg
2980.183	0.681	correct	congruent	Block3	congruent/STIM_006.jpg
2984.309	0.802	correct	congruent	Block3	congruent/STIM_006.jpg
2988.721	0.599	correct	congruent	Block3	congruent/STIM_006.jpg
2992.975	0.56	correct	congruent	Block3	congruent/STIM_006.jpg
2996.981	0.711	correct	congruent	Block3	congruent/STIM_006.jpg
3000.039	0.587	correct	congruent	Block3	congruent/STIM_007.jpg
3003.83	0.842	correct	congruent	Block3	congruent/STIM_007.jpg
3007.431	0.927	correct	congruent	Block3	congruent/STIM_007.jpg
3010.874	0.561	correct	congruent	Block3	congruent/STIM_007.jpg
3014.506	0.906	correct	congruent	Block3	congruent/STIM_007.jpg
3017.928	0.765	correct	congruent	Block3	congruent/STIM_008.jpg
3021.21	0.524	correct	congruent	Block3	congruent/STIM_008.jpg
3024.794	0.625	correct	congruent	Block3	congruent/STIM_008.jpg
3028.011	0.581	correct	congruent	Block3	congruent/STIM_008.jpg
3031.651	0.898	correct	congruent	Block3	congruent/STIM_008.jpg
3035.472	0.886	correct	congruent	Block3	congruent/STIM_009.jpg
3038.652	0.75	correct	congruent	Block3	congruent/STIM_009.jpg
3042.092	0.62	correct	congruent	Block3	congruent/STIM_009.jpg
3046.321	0.553	correct	congruent	Block3	congruent/STIM_009.jpg
3049.681	0.524	correct	congruent	Block3	congruent/STIM_009.jpg
3052.634	0.922	correct	congruent	Block3	congruent/STIM_010.jpg
3056.96	0.722	correct	congruent	Block3	congruent/STIM_010.jpg
3060.564	0.877	correct	congruent	Block3	congruent/STIM_010.jpg
3063.819	0.783	correct	congruent	Block3	congruent/STIM_010.jpg
3067.331	0.912	correct	congruent	Block3	congruent/STIM_010.jpg
3070.817	0.878	correct	congruent	Block3	congruent/STIM_011.jpg
3073.872	0.681	correct	congruent	Block3	congruent/STIM_011.jpg
3078.546	0.87	correct	congruent	Block3	congruent/STIM_011.jpg
3082.441	0.584	correct	congruent	Block3	congruent/STIM_011.jpg
3086.661	0.827	correct	congruent	Block3	congruent/STIM_011.jpg
3091.106	0.634	correct	congruent	Block3	congruent/STIM_012.jpg
3095.527	0.705	correct	congruent	Block3	congruent/STIM_012.jpg
3098.282	0.778	correct	congruent	Block3	congruent/STIM_012.jpg
3102.701	0.748	correct	congruent	Block3	congruent/STIM_012.jpg
3106.501	0.624	correct	congruent	Block3	congruent/STIM_012.jpg
3110.541	0.812	correct	congruent	Block3	congruent/STIM_013.jpg
3114.288	0.757	correct	congruent	Block3	congruent/STIM_013.jpg
3118.548	0.902	correct	congruent	Block3	congruent/STIM_013.jpg
3122.266	0.852	correct	congruent	Block3	congruent/STIM_013.jpg
3126.971	0.664	correct	congruent	Block3	congruent/STIM_013.jpg
3131.253	0.693	incorrect	congruent	Block3	congruent/STIM_014.jpg
3133.998	0.92	correct	congruent	Block3	congruent/STIM_014.jpg
3138.849	0.703	correct	congruent	Block3	congruent/STIM_014.jpg
3142.037	0.6	correct	congruent	Block3	congruent/STIM_014.jpg
3145.659	0.636	correct	congruent	Block3	congruent/STIM_014.jpg
3150.136	0.599	correct	congruent	Block3	congruent/STIM_015.jpg
3153.983	0.75	correct	congruent	Block3	congruent/STIM_015.jpg
3157.59	0.616	correct	congruent	Block3	congruent/STIM_015.jpg
3161.121	0.589	correct	congruent	Block3	congruent/STIM_015.jpg
3165.427	0.522	correct	congruent	Block3	congruent/STIM_015.jpg
3168.912	0.63	correct	congruent	Block3	congruent/STIM_016.jpg
3172.166	0.595	correct	congruent	Block3	congruent/STIM_016.jpg
3175.598	0.704	correct	congruent	Block3	congruent/STIM_016.jpg
3179.019	0.646	correct	congruent	Block3	congruent/STIM_016.jpg
3182.291	0.84	incorrect	congruent	Block3	congruent/STIM_016.jpg
3185.304	0.823	correct	congruent	Block3	congruent/STIM_017.jpg
3188.82	0.799	correct	congruent	Block3	congruent/STIM_017.jpg
3192.878	0.606	correct	congruent	Block3	congruent/STIM_017.jpg
3196.307	0.837	incorrect	congruent	Block3	congruent/STIM_017.jpg
3201.121	0.769	correct	congruent	Block3	congruent/STIM_017.jpg
3204.11	0.898	correct	congruent	Block3	congruent/STIM_018.jpg
3207.604	0.58	correct	congruent	Block3	congruent/STIM_018.jpg
3212.121	0.885	correct	congruent	Block3	congruent/STIM_018.jpg
3216.013	0.565	correct	congruent	Block3	congruent/STIM_018.jpg
3220.5	0.757	correct	congruent	Block3	congruent/STIM_018.jpg
3224.384	0.698	correct	congruent	Block3	congruent/STIM_019.jpg
3228.576	0.524	incorrect	congruent	Block3	congruent/STIM_019.jpg
3231.521	0.819	correct	congruent	Block3	congruent/STIM_019.jpg
3235.691	0.898	correct	congruent	Block3	congruent/STIM_019.jpg
3239.254	0.622	correct	congruent	Block3	congruent/STIM_019.jpg
3243.2	0.715	correct	congruent	Block3	congruent/STIM_020.jpg
3246.473	0.725	correct	congruent	Block3	congruent/STIM_020.jpg
3249.28	0.792	correct	congruent	Block3	congruent/STIM_020.jpg
3252.298	0.604	correct	congruent	Block3	congruent/STIM_020.jpg
3256.31	0.721	correct	congruent	Block3	congruent/STIM_020.jpg
3259.274	0.602	correct	congruent	Block3	congruent/STIM_021.jpg
3263.287	0.712	correct	congruent	Block3	congruent/STIM_021.jpg
3267.96	0.754	correct	congruent	Block3	congruent/STIM_021.jpg
3270.725	0.666	correct	congruent	Block3	congruent/STIM_021.jpg
3273.43	0.715	correct	congruent	Block3	congruent/STIM_021.jpg
3277.477	0.703	correct	congruent	Block3	congruent/STIM_022.jpg
3282.025	0.566	correct	congruent	Block3	congruent/STIM_022.jpg
3285.242	0.8	correct	congruent	Block3	congruent/STIM_022.jpg
3288.968	0.625	correct	congruent	Block3	congruent/STIM_022.jpg
3293.56	0.769	correct	congruent	Block3	congruent/STIM_022.jpg
3296.577	0.773	correct	congruent	Block3	congruent/STIM_023.jpg
3299.762	0.655	correct	congruent	Block3	congruent/STIM_023.jpg
3303.575	0.785	correct	congruent	Block3	congruent/STIM_023.jpg
3307.98	0.88	correct	congruent	Block3	congruent/STIM_023.jpg
3311.332	0.518	correct	congruent	Block3	congruent/STIM_023.jpg
3315.016	0.816	correct	congruent	Block3	congruent/STIM_024.jpg
3319.126	0.858	correct	congruent	Block3	congruent/STIM_024.jpg
3323.634	0.731	correct	congruent	Block3	congruent/STIM_024.jpg
3327.142	0.909	correct	congruent	Block3	congruent/STIM_024.jpg
3331.904	0.852	correct	congruent	Block3	congruent/STIM_024.jpg
3335.383	0.748	correct	congruent	Block3	congruent/STIM_025.jpg
3339.018	0.536	correct	congruent	Block3	congruent/STIM_025.jpg
3342.621	0.541	correct	congruent	Block3	congruent/STIM_025.jpg
3345.707	0.559	correct	congruent	Block3	congruent/STIM_025.jpg
3349.333	0.819	correct	congruent	Block3	congruent/STIM_025.jpg
3352.479	0.63	correct	congruent	Block3	congruent/STIM_026.jpg
3356.041	0.706	correct	congruent	Block3	congruent/STIM_026.jpg
3359.883	0.584	correct	congruent	Block3	congruent/STIM_026.jpg
3362.614	0.526	correct	congruent	Block3	congruent/STIM_026.jpg
3365.811	0.705	correct	congruent	Block3	congruent/STIM_026.jpg
3370.463	0.865	correct	congruent	Block3	congruent/STIM_027.jpg
3375.043	0.915	correct	congruent	Block3	congruent/STIM_027.jpg
3379.721	0.641	correct	congruent	Block3	congruent/STIM_027.jpg
3382.826	0.552	incorrect	congruent	Block3	congruent/STIM_027.jpg
3385.954	0.791	correct	congruent	Block3	congruent/STIM_027.jpg
3390.123	0.546	correct	congruent	Block3	congruent/STIM_028.jpg
3393.382	0.85	correct	congruent	Block3	congruent/STIM_028.jpg
3396.561	0.809	correct	congruent	Block3	congruent/STIM_028.jpg
3399.789	0.688	correct	congruent	Block3	congruent/STIM_028.jpg
3403.782	0.674	correct	congruent	Block3	congruent/STIM_028.jpg
3406.881	0.696	correct	congruent	Block3	congruent/STIM_029.jpg
3410.477	0.629	correct	congruent	Block3	congruent/STIM_029.jpg
3413.624	0.865	correct	congruent	Block3	congruent/STIM_029.jpg
3418.117	0.713	correct	congruent	Block3	congruent/STIM_029.jpg
3421.291	0.522	correct	congruent	Block3	congruent/STIM_029.jpg
