onset	duration	response_time_ms	trial_type	learning_stage	stimulus	response_port
0.0	0.58	580.4	2back	Block1	2back/STIM_000.jpg	100
3.972	0.706	706.5	2back	Block1	2back/STIM_000.jpg	99
8.099	1.209	1208.7	2back	Block1	2back/STIM_000.jpg	99
12.555	0.721	721.2	2back	Block1	2back/STIM_001.jpg	100
16.954	0.924	924.5	2back	Block1	2back/STIM_001.jpg	100
21.728	1.094	1093.6	2back	Block1	2back/STIM_001.jpg	100
25.134	1.342	1342.4	2back	Block1	2back/STIM_002.jpg	99
30.201	0.998	998.5	2back	Block1	2back/STIM_002.jpg	99
33.944	0.922	922.0	2back	Block1	2back/STIM_002.jpg	100
37.643	1.303	1303.4	2back	Block1	2back/STIM_003.jpg	99
41.006	0.598	598.1	2back	Block1	2back/STIM_003.jpg	100
45.185	0.869	868.6	2back	Block1	2back/STIM_003.jpg	100
48.932	1.136	1136.2	2back	Block1	2back/STIM_004.jpg	99
53.4	1.167	1167.2	2back	Block1	2back/STIM_004.jpg	100
57.592	0.856	855.8	2back	Block1	2back/STIM_004.jpg	99
61.503	0.922	922.5	2back	Block1	2back/STIM_005.jpg	100
64.483	0.959	959.2	2back	Block1	2back/STIM_005.jpg	100
67.533	0.529	529.1	2back	Block1	2back/STIM_005.jpg	100
70.965	0.816	816.2	2back	Block1	2back/STIM_006.jpg	100
75.092	0.992	991.5	2back	Block1	2back/STIM_006.jpg	99
78.963	0.876	875.9	2back	Block1	2back/STIM_006.jpg	100
83.126	0.592	591.6	2back	Block1	2back/STIM_007.jpg	100
86.312	1.042	1041.5	2back	Block1	2back/STIM_007.jpg	100
90.746	1.098	1097.5	2back	Block1	2back/STIM_007.jpg	99
95.824	0.719	718.7	2back	Block1	2back/STIM_008.jpg	99
99.362	0.652	652.3	2back	Block1	2back/STIM_008.jpg	100
103.823	0.576	576.4	2back	Block1	2back/STIM_008.jpg	99
107.341	0.74	740.4	2back	Block1	2back/STIM_009.jpg	99
110.29	0.99	990.4	2back	Block1	2back/STIM_009.jpg	99
114.574	1.097	1096.6	2back	Block1	2back/STIM_009.jpg	99
118.361	0.995	994.6	2back	Block1	2back/STIM_010.jpg	100
123.087	1.002	1002.1	2back	Block1	2back/STIM_010.jpg	99
127.629	1.188	1188.4	2back	Block1	2back/STIM_010.jpg	99
131.771	1.232	1231.6	2back	Block1	2back/STIM_011.jpg	99
136.113	0.864	864.0	2back	Block1	2back/STIM_011.jpg	99
140.322	1.18	1180.0	2back	Block1	2back/STIM_011.jpg	100
144.606	0.95	949.8	2back	Block1	2back/STIM_012.jpg	99
147.816	0.742	742.3	2back	Block1	2back/STIM_012.jpg	99
151.595	0.624	624.2	2back	Block1	2back/STIM_012.jpg	100
154.585	1.053	1053.4	2back	Block1	2back/STIM_013.jpg	100
157.74	0.563	562.7	2back	Block1	2back/STIM_013.jpg	100
161.942	1.123	1122.6	2back	Block1	2back/STIM_013.jpg	100
165.602	0.788	787.6	2back	Block1	2back/STIM_014.jpg	100
170.127	0.945	945.4	2back	Block1	2back/STIM_014.jpg	100
173.375	1.068	1067.7	2back	Block1	2back/STIM_014.jpg	99
176.573	0.89	890.2	2back	Block1	2back/STIM_015.jpg	100
180.674	1.264	1264.1	2back	Block1	2back/STIM_015.jpg	100
185.272	1.134	1134.1	2back	Block1	2back/STIM_015.jpg	100
189.995	1.228	1227.6	2back	Block1	2back/STIM_016.jpg	99
195.038	1.271	1271.4	2back	Block1	2back/STIM_016.jpg	100
200.15	0.739	738.9	2back	Block1	2back/STIM_016.jpg	99
204.557	1.209	1208.7	2back	Block1	2back/STIM_017.jpg	100
209.508	1.258	1258.3	2back	Block1	2back/STIM_017.jpg	100
213.732	0.655	654.8	2back	Block1	2back/STIM_017.jpg	100
216.859	1.144	1144.0	2back	Block1	2back/STIM_018.jpg	100
220.452	0.614	613.9	2back	Block1	2back/STIM_018.jpg	100
224.915	1.098	1097.9	2back	Block1	2back/STIM_018.jpg	99
228.49	1.01	1009.5	2back	Block1	2back/STIM_019.jpg	99
231.996	0.917	916.8	2back	Block1	2back/STIM_019.jpg	99
236.732	0.773	773.3	2back	Block1	2back/STIM_019.jpg	99
240.202	0.665	665.1	2back	Block1	2back/STIM_020.jpg	100
244.567	1.252	1251.5	2back	Block1	2back/STIM_020.jpg	100
248.784	0.603	602.7	2back	Block1	2back/STIM_020.jpg	99
252.672	1.07	1070.4	2back	Block1	2back/STIM_021.jpg	100
257.482	0.888	887.6	2back	Block1	2back/STIM_021.jpg	100
260.634	0.546	546.0	2back	Block1	2back/STIM_021.jpg	100
264.747	0.665	665.3	2back	Block1	2back/STIM_022.jpg	100
268.001	1.234	1233.6	2back	Block1	2back/STIM_022.jpg	99
272.559	1.015	1015.4	2back	Block1	2back/STIM_022.jpg	99
277.272	0.939	938.7	2back	Block1	2back/STIM_023.jpg	100
281.76	1.075	1075.0	2back	Block1	2back/STIM_023.jpg	99
286.329	0.997	996.8	2back	Block1	2back/STIM_023.jpg	99
290.832	1.204	1203.8	2back	Block1	2back/STIM_024.jpg	99
294.479	1.045	1044.9	2back	Block1	2back/STIM_024.jpg	100
297.726	0.745	745.1	2back	Block1	2back/STIM_024.jpg	100
301.243	1.139	1139.1	2back	Block1	2back/STIM_025.jpg	100
306.335	1.2	1200.0	2back	Block1	2back/STIM_025.jpg	100
311.422	0.798	798.3	2back	Block1	2back/STIM_025.jpg	99
316.123	0.72	720.5	2back	Block1	2back/STIM_026.jpg	99
319.579	1.253	1253.1	2back	Block1	2back/STIM_026.jpg	100
324.205	0.614	613.9	2back	Block1	2back/STIM_026.jpg	99
327.409	0.854	853.8	2back	Block1	2back/STIM_027.jpg	100
331.267	1.189	1188.6	2back	Block1	2back/STIM_027.jpg	99
335.357	0.531	531.1	2back	Block1	2back/STIM_027.jpg	99
339.148	1.138	1138.3	2back	Block1	2back/STIM_028.jpg	100
343.353	0.947	947.3	2back	Block1	2back/STIM_028.jpg	99
346.906	0.76	760.4	2back	Block1	2back/STIM_028.jpg	99
350.262	0.925	925.4	2back	Block1	2back/STIM_029.jpg	100
354.159	0.797	797.3	2back	Block1	2back/STIM_029.jpg	100
357.343	1.191	1190.6	2back	Block1	2back/STIM_029.jpg	99
361.029	1.155	1155.1	2back	Block1	2back/STIM_030.jpg	100
365.813	1.204	1204.0	2back	Block1	2back/STIM_030.jpg	99
370.241	0.61	610.5	2back	Block1	2back/STIM_030.jpg	99
374.246	1.017	1017.3	2back	Block1	2back/STIM_031.jpg	99
378.654	0.761	761.2	2back	Block1	2back/STIM_031.jpg	100
381.457	1.122	1121.6	2back	Block1	2back/STIM_031.jpg	99
385.272	0.598	598.2	2back	Block1	2back/STIM_032.jpg	100
388.01	1.179	1178.9	2back	Block1	2back/STIM_032.jpg	100
392.668	1.055	1054.8	2back	Block1	2back/STIM_032.jpg	100
396.88	1.054	1054.1	2back	Block1	2back/STIM_033.jpg	99
401.785	0.87	870.5	2back	Block1	2back/STIM_033.jpg	100
406.428	0.892	892.0	2back	Block1	2back/STIM_033.jpg	100
409.895	0.847	846.6	2back	Block1	2back/STIM_034.jpg	99
413.166	0.711	711.3	2back	Block1	2back/STIM_034.jpg	100
417.415	1.122	1121.6	2back	Block1	2back/STIM_034.jpg	100
421.075	1.313	1313.2	2back	Block1	2back/STIM_035.jpg	100
425.425	1.083	1082.6	2back	Block1	2back/STIM_035.jpg	100
430.478	0.616	615.9	2back	Block1	2back/STIM_035.jpg	100
433.946	1.192	1191.8	2back	Block1	2back/STIM_036.jpg	99
437.36	1.201	1201.3	2back	Block1	2back/STIM_036.jpg	100
442.105	0.951	951.3	2back	Block1	2back/STIM_036.jpg	99
445.405	1.136	1136.5	2back	Block1	2back/STIM_037.jpg	100
448.905	0.966	966.3	2back	Block1	2back/STIM_037.jpg	100
452.045	1.185	1185.2	2back	Block1	2back/STIM_037.jpg	100
456.339	0.61	610.2	2back	Block1	2back/STIM_038.jpg	99
459.103	0.549	549.0	2back	Block1	2back/STIM_038.jpg	100
462.294	0.659	658.9	2back	Block1	2back/STIM_038.jpg	99
465.355	1.245	1244.6	2back	Block1	2back/STIM_039.jpg	99
470.04	0.816	816.0	2back	Block1	2back/STIM_039.jpg	100
472.948	0.756	755.9	2back	Block1	2back/STIM_039.jpg	100
475.75	0.48	480.0	0back	Block1	0back/STIM_000.jpg	99
479.443	0.538	537.5	0back	Block1	0back/STIM_000.jpg	100
482.886	0.705	704.8	0back	Block1	0back/STIM_000.jpg	99
486.691	0.74	740.0	0back	Block1	0back/STIM_001.jpg	100
490.889	0.629	629.4	0back	Block1	0back/STIM_001.jpg	99
495.243	0.583	583.4	0back	Block1	0back/STIM_001.jpg	100
498.712	0.518	518.1	0back	Block1	0back/STIM_002.jpg	99
501.326	0.63	630.0	0back	Block1	0back/STIM_002.jpg	99
504.525	0.491	491.4	0back	Block1	0back/STIM_002.jpg	100
507.823	0.473	473.0	0back	Block1	0back/STIM_003.jpg	100
511.074	0.642	642.0	0back	Block1	0back/STIM_003.jpg	99
514.818	0.526	525.8	0back	Block1	0back/STIM_003.jpg	100
517.663	0.472	472.3	0back	Block1	0back/STIM_004.jpg	99
522.125	0.576	575.8	0back	Block1	0back/STIM_004.jpg	99
525.089	0.43	430.3	0back	Block1	0back/STIM_004.jpg	100
528.47	0.566	566.3	0back	Block1	0back/STIM_005.jpg	100
532.942	0.746	745.7	0back	Block1	0back/STIM_005.jpg	99
537.339	0.412	411.5	0back	Block1	0back/STIM_005.jpg	100
540.657	0.527	527.2	0back	Block1	0back/STIM_006.jpg	100
544.59	0.592	592.1	0back	Block1	0back/STIM_006.jpg	100
547.778	0.764	764.0	0back	Block1	0back/STIM_006.jpg	99
551.916	0.756	755.5	0back	Block1	0back/STIM_007.jpg	100
554.876	0.762	761.9	0back	Block1	0back/STIM_007.jpg	100
557.866	0.681	680.9	0back	Block1	0back/STIM_007.jpg	100
561.191	0.683	682.9	0back	Block1	0back/STIM_008.jpg	99
565.385	0.653	653.3	0back	Block1	0back/STIM_008.jpg	99
568.162	0.553	553.3	0back	Block1	0back/STIM_008.jpg	100
571.407	0.616	616.4	0back	Block1	0back/STIM_009.jpg	100
575.968	0.509	508.9	0back	Block1	0back/STIM_009.jpg	99
580.167	0.403	403.1	0back	Block1	0back/STIM_009.jpg	100
584.382	0.555	555.3	0back	Block1	0back/STIM_010.jpg	99
588.032	0.532	531.9	0back	Block1	0back/STIM_010.jpg	100
590.971	0.584	584.4	0back	Block1	0back/STIM_010.jpg	99
595.22	0.529	529.4	0back	Block1	0back/STIM_011.jpg	99
599.636	0.548	547.5	0back	Block1	0back/STIM_011.jpg	100
602.759	0.52	520.1	0back	Block1	0back/STIM_011.jpg	100
605.301	0.692	692.0	0back	Block1	0back/STIM_012.jpg	100
609.624	0.41	410.3	0back	Block1	0back/STIM_012.jpg	99
612.526	0.538	537.8	0back	Block1	0back/STIM_012.jpg	99
615.535	0.754	754.5	0back	Block1	0back/STIM_013.jpg	100
618.596	0.663	663.4	0back	Block1	0back/STIM_013.jpg	99
623.015	0.561	561.4	0back	Block1	0back/STIM_013.jpg	100
626.189	0.612	612.5	0back	Block1	0back/STIM_014.jpg	99
629.989	0.468	467.5	0back	Block1	0back/STIM_014.jpg	100
634.461	0.461	461.0	0back	Block1	0back/STIM_014.jpg	100
637.788	0.543	542.7	0back	Block1	0back/STIM_015.jpg	100
642.249	0.414	413.6	0back	Block1	0back/STIM_015.jpg	100
646.627	0.558	558.1	0back	Block1	0back/STIM_015.jpg	100
650.698	0.413	413.2	0back	Block1	0back/STIM_016.jpg	99
654.221	0.75	749.6	0back	Block1	0back/STIM_016.jpg	100
658.284	0.417	417.3	0back	Block1	0back/STIM_016.jpg	100
661.692	0.717	717.0	0back	Block1	0back/STIM_017.jpg	99
665.491	0.546	546.4	0back	Block1	0back/STIM_017.jpg	99
668.205	0.397	397.1	0back	Block1	0back/STIM_017.jpg	99
671.676	0.39	389.6	0back	Block1	0back/STIM_018.jpg	100
674.331	0.739	739.1	0back	Block1	0back/STIM_018.jpg	100
677.976	0.712	711.5	0back	Block1	0back/STIM_018.jpg	100
681.755	0.397	397.1	0back	Block1	0back/STIM_019.jpg	100
686.088	0.619	618.9	0back	Block1	0back/STIM_019.jpg	100
689.576	0.412	412.5	0back	Block1	0back/STIM_019.jpg	100
693.453	0.713	713.3	2back	Block2	2back/STIM_000.jpg	100
696.541	0.504	504.1	2back	Block2	2back/STIM_000.jpg	100
699.15	0.879	879.2	2back	Block2	2back/STIM_000.jpg	100
702.597	0.822	822.5	2back	Block2	2back/STIM_001.jpg	100
706.562	0.468	468.0	2back	Block2	2back/STIM_001.jpg	99
710.29	0.776	776.4	2back	Block2	2back/STIM_001.jpg	99
713.182	1.04	1039.7	2back	Block2	2back/STIM_002.jpg	100
718.212	0.595	595.2	2back	Block2	2back/STIM_002.jpg	100
722.081	0.764	764.5	2back	Block2	2back/STIM_002.jpg	99
725.843	0.806	806.1	2back	Block2	2back/STIM_003.jpg	100
729.96	0.963	962.9	2back	Block2	2back/STIM_003.jpg	100
734.401	1.0	999.6	2back	Block2	2back/STIM_003.jpg	99
738.259	0.75	750.3	2back	Block2	2back/STIM_004.jpg	99
741.411	0.678	678.1	2back	Block2	2back/STIM_004.jpg	99
745.225	0.561	560.6	2back	Block2	2back/STIM_004.jpg	99
748.308	0.978	977.8	2back	Block2	2back/STIM_005.jpg	100
752.554	0.684	684.3	2back	Block2	2back/STIM_005.jpg	99
755.901	0.916	916.4	2back	Block2	2back/STIM_005.jpg	100
758.861	0.999	998.7	2back	Block2	2back/STIM_006.jpg	99
763.849	0.85	849.5	2back	Block2	2back/STIM_006.jpg	100
767.069	0.729	728.6	2back	Block2	2back/STIM_006.jpg	99
771.406	0.736	736.4	2back	Block2	2back/STIM_007.jpg	100
776.142	0.78	780.5	2back	Block2	2back/STIM_007.jpg	100
779.056	0.498	498.1	2back	Block2	2back/STIM_007.jpg	100
783.003	0.756	756.4	2back	Block2	2back/STIM_008.jpg	100
787.723	0.929	929.1	2back	Block2	2back/STIM_008.jpg	100
791.967	0.526	526.3	2back	Block2	2back/STIM_008.jpg	99
795.782	0.946	945.7	2back	Block2	2back/STIM_009.jpg	100
800.714	0.778	777.9	2back	Block2	2back/STIM_009.jpg	99
803.61	0.858	858.4	2back	Block2	2back/STIM_009.jpg	100
807.795	0.851	850.6	2back	Block2	2back/STIM_010.jpg	99
812.512	1.009	1009.0	2back	Block2	2back/STIM_010.jpg	100
816.591	0.531	530.7	2back	Block2	2back/STIM_010.jpg	99
821.018	1.044	1044.5	2back	Block2	2back/STIM_011.jpg	100
825.285	0.497	496.8	2back	Block2	2back/STIM_011.jpg	99
828.117	0.655	655.2	2back	Block2	2back/STIM_011.jpg	100
831.2	0.493	492.9	2back	Block2	2back/STIM_012.jpg	100
835.335	0.827	826.8	2back	Block2	2back/STIM_012.jpg	100
839.321	0.802	801.9	2back	Block2	2back/STIM_012.jpg	100
843.191	0.781	781.2	2back	Block2	2back/STIM_013.jpg	99
846.49	0.945	944.6	2back	Block2	2back/STIM_013.jpg	100
850.474	0.838	837.6	2back	Block2	2back/STIM_013.jpg	99
854.847	0.853	852.6	2back	Block2	2back/STIM_014.jpg	100
859.148	1.072	1071.8	2back	Block2	2back/STIM_014.jpg	100
863.974	0.799	799.2	2back	Block2	2back/STIM_014.jpg	99
867.028	0.53	530.2	2back	Block2	2back/STIM_015.jpg	99
870.043	0.719	719.0	2back	Block2	2back/STIM_015.jpg	99
874.505	0.799	798.7	2back	Block2	2back/STIM_015.jpg	100
879.325	0.652	651.7	2back	Block2	2back/STIM_016.jpg	99
882.04	0.786	785.9	2back	Block2	2back/STIM_016.jpg	100
885.812	0.53	529.5	2back	Block2	2back/STIM_016.jpg	100
890.3	0.835	834.6	2back	Block2	2back/STIM_017.jpg	99
893.348	0.893	892.8	2back	Block2	2back/STIM_017.jpg	100
897.745	0.813	813.4	2back	Block2	2back/STIM_017.jpg	100
902.229	0.502	502.0	2back	Block2	2back/STIM_018.jpg	99
905.249	0.522	521.5	2back	Block2	2back/STIM_018.jpg	100
908.048	0.75	749.6	2back	Block2	2back/STIM_018.jpg	100
911.929	0.567	566.9	2back	Block2	2back/STIM_019.jpg	99
915.26	0.74	740.2	2back	Block2	2back/STIM_019.jpg	99
919.956	0.836	835.5	2back	Block2	2back/STIM_019.jpg	100
922.941	0.654	653.6	2back	Block2	2back/STIM_020.jpg	99
927.47	0.474	474.3	2back	Block2	2back/STIM_020.jpg	99
930.431	0.927	927.1	2back	Block2	2back/STIM_020.jpg	100
934.379	1.097	1096.6	2back	Block2	2back/STIM_021.jpg	99
939.011	0.999	999.2	2back	Block2	2back/STIM_021.jpg	99
942.74	0.854	854.0	2back	Block2	2back/STIM_021.jpg	100
947.232	0.502	502.0	2back	Block2	2back/STIM_022.jpg	100
950.79	1.06	1060.2	2back	Block2	2back/STIM_022.jpg	100
954.398	0.567	566.7	2back	Block2	2back/STIM_022.jpg	99
957.645	0.861	861.3	2back	Block2	2back/STIM_023.jpg	99
961.484	0.592	591.7	2back	Block2	2back/STIM_023.jpg	100
965.952	0.958	958.2	2back	Block2	2back/STIM_023.jpg	99
969.589	0.957	957.3	2back	Block2	2back/STIM_024.jpg	99
972.988	0.745	745.0	2back	Block2	2back/STIM_024.jpg	100
975.902	0.67	670.4	2back	Block2	2back/STIM_024.jpg	99
980.166	1.092	1092.4	2back	Block2	2back/STIM_025.jpg	100
985.115	0.941	940.7	2back	Block2	2back/STIM_025.jpg	99
989.961	0.448	447.9	2back	Block2	2back/STIM_025.jpg	100
993.815	0.552	551.5	2back	Block2	2back/STIM_026.jpg	100
996.768	0.574	573.6	2back	Block2	2back/STIM_026.jpg	99
999.533	0.97	969.8	2back	Block2	2back/STIM_026.jpg	100
1003.471	0.741	740.6	2back	Block2	2back/STIM_027.jpg	100
1006.991	0.998	998.2	2back	Block2	2back/STIM_027.jpg	100
1011.556	0.831	831.0	2back	Block2	2back/STIM_027.jpg	99
1015.379	1.031	1030.9	2back	Block2	2back/STIM_028.jpg	99
1020.071	0.954	954.3	2back	Block2	2back/STIM_028.jpg	100
1024.956	0.753	753.1	2back	Block2	2back/STIM_028.jpg	99
1029.497	1.001	1001.3	2back	Block2	2back/STIM_029.jpg	99
1033.104	0.708	707.9	2back	Block2	2back/STIM_029.jpg	100
1037.071	0.582	582.0	2back	Block2	2back/STIM_029.jpg	99
1040.061	0.934	933.7	2back	Block2	2back/STIM_030.jpg	99
1044.589	0.76	759.6	2back	Block2	2back/STIM_030.jpg	100
1048.942	0.737	736.8	2back	Block2	2back/STIM_030.jpg	99
1052.475	0.865	865.4	2back	Block2	2back/STIM_031.jpg	100
1056.94	0.842	842.4	2back	Block2	2back/STIM_031.jpg	99
1060.377	0.623	623.0	2back	Block2	2back/STIM_031.jpg	99
1064.262	0.546	545.9	2back	Block2	2back/STIM_032.jpg	99
1068.269	0.922	921.6	2back	Block2	2back/STIM_032.jpg	99
1071.888	0.993	993.2	2back	Block2	2back/STIM_032.jpg	99
1075.703	0.809	808.7	2back	Block2	2back/STIM_033.jpg	99
1080.08	0.548	548.0	2back	Block2	2back/STIM_033.jpg	99
1082.916	0.863	863.0	2back	Block2	2back/STIM_033.jpg	99
1087.321	0.83	829.9	2back	Block2	2back/STIM_034.jpg	100
1092.058	0.77	770.3	2back	Block2	2back/STIM_034.jpg	100
1095.036	0.852	852.2	2back	Block2	2back/STIM_034.jpg	99
1098.293	1.028	1028.3	2back	Block2	2back/STIM_035.jpg	99
1101.777	0.702	702.4	2back	Block2	2back/STIM_035.jpg	99
1106.285	0.695	694.8	2back	Block2	2back/STIM_035.jpg	100
1110.724	0.852	852.0	2back	Block2	2back/STIM_036.jpg	99
1114.585	0.468	467.7	2back	Block2	2back/STIM_036.jpg	99
1118.675	0.617	616.8	2back	Block2	2back/STIM_036.jpg	99
1122.36	0.814	814.0	2back	Block2	2back/STIM_037.jpg	100
1126.008	0.663	662.6	2back	Block2	2back/STIM_037.jpg	100
1129.209	0.887	887.4	2back	Block2	2back/STIM_037.jpg	100
1134.053	0.792	791.5	2back	Block2	2back/STIM_038.jpg	100
1138.49	0.935	935.2	2back	Block2	2back/STIM_038.jpg	99
1143.198	0.882	881.8	2back	Block2	2back/STIM_038.jpg	100
1147.739	1.092	1092.3	2back	Block2	2back/STIM_039.jpg	100
1151.451	1.073	1073.4	2back	Block2	2back/STIM_039.jpg	100
1154.877	0.824	824.1	2back	Block2	2back/STIM_039.jpg	99
1159.356	0.669	668.9	0back	Block2	0back/STIM_000.jpg	99
1163.782	0.565	564.8	0back	Block2	0back/STIM_000.jpg	100
1167.135	0.416	416.4	0back	Block2	0back/STIM_000.jpg	99
1169.578	0.46	459.6	0back	Block2	0back/STIM_001.jpg	100
1172.519	0.475	474.8	0back	Block2	0back/STIM_001.jpg	100
1175.811	0.588	587.7	0back	Block2	0back/STIM_001.jpg	99
1180.084	0.511	510.9	0back	Block2	0back/STIM_002.jpg	100
1184.052	0.707	706.8	0back	Block2	0back/STIM_002.jpg	100
1187.654	0.615	615.0	0back	Block2	0back/STIM_002.jpg	100
1191.351	0.412	412.0	0back	Block2	0back/STIM_003.jpg	99
1195.75	0.44	440.2	0back	Block2	0back/STIM_003.jpg	99
1200.096	0.655	655.4	0back	Block2	0back/STIM_003.jpg	100
1204.188	0.461	461.0	0back	Block2	0back/STIM_004.jpg	99
1207.366	0.458	457.5	0back	Block2	0back/STIM_004.jpg	100
1210.547	0.518	517.9	0back	Block2	0back/STIM_004.jpg	100
1214.605	0.644	644.5	0back	Block2	0back/STIM_005.jpg	100
1218.371	0.538	538.2	0back	Block2	0back/STIM_005.jpg	99
1222.421	0.728	727.8	0back	Block2	0back/STIM_005.jpg	99
1227.153	0.535	535.3	0back	Block2	0back/STIM_006.jpg	99
1230.732	0.749	749.2	0back	Block2	0back/STIM_006.jpg	99
1235.063	0.472	472.1	0back	Block2	0back/STIM_006.jpg	99
1238.611	0.463	462.6	0back	Block2	0back/STIM_007.jpg	100
1242.553	0.749	748.6	0back	Block2	0back/STIM_007.jpg	99
1245.686	0.535	534.9	0back	Block2	0back/STIM_007.jpg	100
1249.082	0.575	574.8	0back	Block2	0back/STIM_008.jpg	100
1251.81	0.557	557.2	0back	Block2	0back/STIM_008.jpg	99
1254.572	0.401	401.4	0back	Block2	0back/STIM_008.jpg	100
1258.328	0.393	392.6	0back	Block2	0back/STIM_009.jpg	100
1261.276	0.521	521.4	0back	Block2	0back/STIM_009.jpg	100
1265.402	0.7	699.7	0back	Block2	0back/STIM_009.jpg	100
1269.281	0.394	393.9	0back	Block2	0back/STIM_010.jpg	99
1273.635	0.506	506.5	0back	Block2	0back/STIM_010.jpg	100
1276.811	0.54	539.8	0back	Block2	0back/STIM_010.jpg	99
1279.866	0.565	565.3	0back	Block2	0back/STIM_011.jpg	100
1283.228	0.607	607.3	0back	Block2	0back/STIM_011.jpg	100
1286.831	0.699	699.2	0back	Block2	0back/STIM_011.jpg	100
1291.55	0.582	581.6	0back	Block2	0back/STIM_012.jpg	100
1295.611	0.68	680.5	0back	Block2	0back/STIM_012.jpg	99
1298.506	0.562	562.1	0back	Block2	0back/STIM_012.jpg	99
1301.143	0.578	578.4	0back	Block2	0back/STIM_013.jpg	99
1305.198	0.584	583.8	0back	Block2	0back/STIM_013.jpg	100
1308.726	0.712	711.9	0back	Block2	0back/STIM_013.jpg	99
1313.316	0.61	610.3	0back	Block2	0back/STIM_014.jpg	99
1316.705	0.701	700.7	0back	Block2	0back/STIM_014.jpg	100
1320.311	0.633	632.7	0back	Block2	0back/STIM_014.jpg	100
1324.364	0.402	402.2	0back	Block2	0back/STIM_015.jpg	100
1328.083	0.7	700.5	0back	Block2	0back/STIM_015.jpg	99
1332.052	0.503	502.9	0back	Block2	0back/STIM_015.jpg	100
1335.36	0.506	506.5	0back	Block2	0back/STIM_016.jpg	99
1338.903	0.52	519.8	0back	Block2	0back/STIM_016.jpg	100
1343.2	0.428	428.1	0back	Block2	0back/STIM_016.jpg	100
1345.894	0.482	481.7	0back	Block2	0back/STIM_017.jpg	100
1350.345	0.697	696.9	0back	Block2	0back/STIM_017.jpg	99
1355.068	0.604	603.5	0back	Block2	0back/STIM_017.jpg	100
1359.591	0.605	604.6	0back	Block2	0back/STIM_018.jpg	100
1362.958	0.541	541.3	0back	Block2	0back/STIM_018.jpg	99
1366.408	0.672	671.8	0back	Block2	0back/STIM_018.jpg	100
1369.508	0.424	423.5	0back	Block2	0back/STIM_019.jpg	99
1373.318	0.581	581.0	0back	Block2	0back/STIM_019.jpg	99
1377.466	0.704	704.2	0back	Block2	0back/STIM_019.jpg	100
1382.103	0.926	926.5	2back	Block3	2back/STIM_000.jpg	99
1385.538	0.703	703.3	2back	Block3	2back/STIM_000.jpg	99
1390.056	0.833	833.3	2back	Block3	2back/STIM_000.jpg	99
1393.495	0.536	536.2	2back	Block3	2back/STIM_001.jpg	99
1397.064	0.702	701.6	2back	Block3	2back/STIM_001.jpg	100
1401.191	0.613	613.0	2back	Block3	2back/STIM_001.jpg	99
1405.203	0.716	716.2	2back	Block3	2back/STIM_002.jpg	100
1409.295	0.912	911.5	2back	Block3	2back/STIM_002.jpg	99
1412.43	0.538	537.5	2back	Block3	2back/STIM_002.jpg	99
1416.086	0.542	542.1	2back	Block3	2back/STIM_003.jpg	99
1419.86	0.602	601.9	2back	Block3	2back/STIM_003.jpg	100
1422.795	0.85	850.3	2back	Block3	2back/STIM_003.jpg	99
1425.942	0.878	878.4	2back	Block3	2back/STIM_004.jpg	100
1428.987	0.778	778.4	2back	Block3	2back/STIM_004.jpg	100
1433.383	0.832	832.3	2back	Block3	2back/STIM_004.jpg	99
1436.829	0.555	555.4	2back	Block3	2back/STIM_005.jpg	100
1441.153	0.733	733.1	2back	Block3	2back/STIM_005.jpg	100
1444.367	0.422	422.4	2back	Block3	2back/STIM_005.jpg	100
1448.713	0.746	745.8	2back	Block3	2back/STIM_006.jpg	99
1451.527	0.601	600.6	2back	Block3	2back/STIM_006.jpg	99
1455.184	0.727	727.1	2back	Block3	2back/STIM_006.jpg	99
1459.891	0.411	411.3	2back	Block3	2back/STIM_007.jpg	100
1464.191	0.92	919.7	2back	Block3	2back/STIM_007.jpg	99
1467.386	0.733	733.2	2back	Block3	2back/STIM_007.jpg	99
1471.29	0.618	618.5	2back	Block3	2back/STIM_008.jpg	99
1474.963	0.64	639.9	2back	Block3	2back/STIM_008.jpg	100
1478.722	0.61	609.8	2back	Block3	2back/STIM_008.jpg	100
1482.902	0.803	803.3	2back	Block3	2back/STIM_009.jpg	100
1487.34	0.701	701.0	2back	Block3	2back/STIM_009.jpg	100
1490.386	0.722	721.6	2back	Block3	2back/STIM_009.jpg	99
1493.27	0.591	590.6	2back	Block3	2back/STIM_010.jpg	100
1496.61	0.67	670.5	2back	Block3	2back/STIM_010.jpg	100
1501.232	0.692	691.7	2back	Block3	2back/STIM_010.jpg	99
1505.113	0.493	492.6	2back	Block3	2back/STIM_011.jpg	100
1509.346	0.74	740.3	2back	Block3	2back/STIM_011.jpg	99
1513.874	0.619	618.8	2back	Block3	2back/STIM_011.jpg	100
1518.046	0.537	537.3	2back	Block3	2back/STIM_012.jpg	99
1520.821	0.626	626.2	2back	Block3	2back/STIM_012.jpg	100
1524.114	0.583	583.2	2back	Block3	2back/STIM_012.jpg	100
1528.395	0.864	864.2	2back	Block3	2back/STIM_013.jpg	100
1532.113	0.523	523.3	2back	Block3	2back/STIM_013.jpg	100
1535.13	0.578	578.1	2back	Block3	2back/STIM_013.jpg	99
1538.815	0.882	881.6	2back	Block3	2back/STIM_014.jpg	99
1542.571	0.722	721.5	2back	Block3	2back/STIM_014.jpg	99
1546.432	0.704	703.8	2back	Block3	2back/STIM_014.jpg	100
1550.934	0.467	466.9	2back	Block3	2back/STIM_015.jpg	99
1553.597	0.869	868.7	2back	Block3	2back/STIM_015.jpg	99
1556.92	0.529	528.7	2back	Block3	2back/STIM_015.jpg	100
1559.816	0.9	900.0	2back	Block3	2back/STIM_016.jpg	100
1563.6	0.737	737.4	2back	Block3	2back/STIM_016.jpg	100
1566.567	0.443	443.2	2back	Block3	2back/STIM_016.jpg	99
1570.801	0.512	511.8	2back	Block3	2back/STIM_017.jpg	99
1574.161	0.858	857.5	2back	Block3	2back/STIM_017.jpg	99
1578.281	0.61	609.7	2back	Block3	2back/STIM_017.jpg	99
1582.272	0.888	887.6	2back	Block3	2back/STIM_018.jpg	100
1586.383	0.438	438.1	2back	Block3	2back/STIM_018.jpg	100
1590.665	0.833	833.1	2back	Block3	2back/STIM_018.jpg	99
1594.972	0.599	598.9	2back	Block3	2back/STIM_019.jpg	100
1599.103	0.615	615.3	2back	Block3	2back/STIM_019.jpg	100
1602.708	0.616	615.7	2back	Block3	2back/STIM_019.jpg	100
1606.001	0.645	644.8	2back	Block3	2back/STIM_020.jpg	99
1610.085	0.678	678.4	2back	Block3	2back/STIM_020.jpg	99
1612.839	0.884	883.6	2back	Block3	2back/STIM_020.jpg	99
1616.961	0.781	780.8	2back	Block3	2back/STIM_021.jpg	100
1621.013	0.728	727.7	2back	Block3	2back/STIM_021.jpg	100
1623.989	0.492	492.3	2back	Block3	2back/STIM_021.jpg	99
1626.816	0.602	601.7	2back	Block3	2back/STIM_022.jpg	100
1629.972	0.694	694.2	2back	Block3	2back/STIM_022.jpg	100
1633.075	0.767	767.2	2back	Block3	2back/STIM_022.jpg	100
1637.052	0.739	739.3	2back	Block3	2back/STIM_023.jpg	100
1640.998	0.578	577.6	2back	Block3	2back/STIM_023.jpg	100
1645.143	0.644	643.6	2back	Block3	2back/STIM_023.jpg	99
1648.486	0.765	764.6	2back	Block3	2back/STIM_024.jpg	99
1652.226	0.865	865.0	2back	Block3	2back/STIM_024.jpg	99
1656.331	0.696	696.3	2back	Block3	2back/STIM_024.jpg	100
1661.028	0.871	871.0	2back	Block3	2back/STIM_025.jpg	99
1664.122	0.544	544.5	2back	Block3	2back/STIM_025.jpg	99
1667.759	0.826	825.8	2back	Block3	2back/STIM_025.jpg	100
1672.063	0.633	633.0	2back	Block3	2back/STIM_026.jpg	99
1675.992	0.647	647.3	2back	Block3	2back/STIM_026.jpg	99
1680.078	0.831	831.4	2back	Block3	2back/STIM_026.jpg	100
1683.138	0.903	902.9	2back	Block3	2back/STIM_027.jpg	99
1687.044	0.465	464.7	2back	Block3	2back/STIM_027.jpg	100
1690.738	0.462	462.3	2back	Block3	2back/STIM_027.jpg	99
1694.773	0.859	859.0	2back	Block3	2back/STIM_028.jpg	100
1697.867	0.495	495.1	2back	Block3	2back/STIM_028.jpg	99
1700.41	0.408	407.7	2back	Block3	2back/STIM_028.jpg	100
1704.538	0.484	484.0	2back	Block3	2back/STIM_029.jpg	99
1708.547	0.851	851.2	2back	Block3	2back/STIM_029.jpg	100
1713.009	0.53	530.2	2back	Block3	2back/STIM_029.jpg	99
1716.021	0.785	784.7	2back	Block3	2back/STIM_030.jpg	99
1720.487	0.437	437.2	2back	Block3	2back/STIM_030.jpg	99
1722.995	0.78	780.3	2back	Block3	2back/STIM_030.jpg	99
1726.86	0.902	902.5	2back	Block3	2back/STIM_031.jpg	100
1731.755	0.516	515.9	2back	Block3	2back/STIM_031.jpg	100
1734.401	0.462	461.8	2back	Block3	2back/STIM_031.jpg	99
1737.731	0.853	853.2	2back	Block3	2back/STIM_032.jpg	100
1740.834	0.591	591.2	2back	Block3	2back/STIM_032.jpg	100
1744.425	0.565	565.0	2back	Block3	2back/STIM_032.jpg	99
1748.415	0.645	644.6	2back	Block3	2back/STIM_033.jpg	99
1751.99	0.497	497.1	2back	Block3	2back/STIM_033.jpg	99
1755.581	0.675	674.7	2back	Block3	2back/STIM_033.jpg	100
1760.118	0.868	867.7	2back	Block3	2back/STIM_034.jpg	99
1763.253	0.457	457.3	2back	Block3	2back/STIM_034.jpg	99
1767.576	0.941	941.3	2back	Block3	2back/STIM_034.jpg	99
1770.664	0.937	937.4	2back	Block3	2back/STIM_035.jpg	100
1773.817	0.918	918.5	2back	Block3	2back/STIM_035.jpg	100
1777.964	0.432	432.5	2back	Block3	2back/STIM_035.jpg	99
1781.935	0.49	490.0	2back	Block3	2back/STIM_036.jpg	100
1785.985	0.52	519.9	2back	Block3	2back/STIM_036.jpg	100
1790.002	0.94	940.0	2back	Block3	2back/STIM_036.jpg	100
1793.502	0.489	489.0	2back	Block3	2back/STIM_037.jpg	99
1797.157	0.631	630.8	2back	Block3	2back/STIM_037.jpg	99
1799.927	0.695	694.9	2back	Block3	2back/STIM_037.jpg	99
1803.916	0.825	825.3	2back	Block3	2back/STIM_038.jpg	99
1807.042	0.811	810.8	2back	Block3	2back/STIM_038.jpg	100
1810.823	0.594	593.8	2back	Block3	2back/STIM_038.jpg	99
1814.881	0.446	445.5	2back	Block3	2back/STIM_039.jpg	100
1819.003	0.507	507.5	2back	Block3	2back/STIM_039.jpg	100
1821.584	0.897	897.3	2back	Block3	2back/STIM_039.jpg	99
1825.525	0.501	501.4	0back	Block3	0back/STIM_000.jpg	99
1828.849	0.49	489.7	0back	Block3	0back/STIM_000.jpg	99
1833.168	0.717	717.2	0back	Block3	0back/STIM_000.jpg	99
1837.505	0.568	568.5	0back	Block3	0back/STIM_001.jpg	100
1841.136	0.632	632.0	0back	Block3	0back/STIM_001.jpg	100
1845.627	0.446	446.1	0back	Block3	0back/STIM_001.jpg	99
1849.977	0.548	548.5	0back	Block3	0back/STIM_002.jpg	99
1853.913	0.71	710.1	0back	Block3	0back/STIM_002.jpg	100
1857.718	0.405	404.6	0back	Block3	0back/STIM_002.jpg	99
1860.162	0.503	502.6	0back	Block3	0back/STIM_003.jpg	100
1862.957	0.643	642.7	0back	Block3	0back/STIM_003.jpg	99
1866.101	0.622	621.9	0back	Block3	0back/STIM_003.jpg	100
1869.426	0.643	642.7	0back	Block3	0back/STIM_004.jpg	100
1873.208	0.431	431.1	0back	Block3	0back/STIM_004.jpg	100
1876.174	0.753	753.4	0back	Block3	0back/STIM_004.jpg	100
1879.319	0.46	459.7	0back	Block3	0back/STIM_005.jpg	100
1882.423	0.536	536.4	0back	Block3	0back/STIM_005.jpg	99
1885.75	0.555	554.9	0back	Block3	0back/STIM_005.jpg	100
1888.542	0.519	519.2	0back	Block3	0back/STIM_006.jpg	99
1891.588	0.764	763.5	0back	Block3	0back/STIM_006.jpg	99
1895.655	0.561	561.4	0back	Block3	0back/STIM_006.jpg	99
1900.155	0.461	461.2	0back	Block3	0back/STIM_007.jpg	99
1903.969	0.578	578.2	0back	Block3	0back/STIM_007.jpg	100
1907.94	0.404	404.0	0back	Block3	0back/STIM_007.jpg	100
1910.964	0.616	615.7	0back	Block3	0back/STIM_008.jpg	100
1914.96	0.706	706.1	0back	Block3	0back/STIM_008.jpg	99
1918.397	0.427	427.3	0back	Block3	0back/STIM_008.jpg	99
1922.599	0.403	402.9	0back	Block3	0back/STIM_009.jpg	100
1925.063	0.741	741.3	0back	Block3	0back/STIM_009.jpg	100
1928.502	0.575	574.7	0back	Block3	0back/STIM_009.jpg	99
1931.517	0.516	516.4	0back	Block3	0back/STIM_010.jpg	99
1935.205	0.669	669.0	0back	Block3	0back/STIM_010.jpg	99
1939.743	0.456	455.9	0back	Block3	0back/STIM_010.jpg	100
1942.585	0.445	445.1	0back	Block3	0back/STIM_011.jpg	99
1945.359	0.547	547.4	0back	Block3	0back/STIM_011.jpg	100
1948.051	0.446	445.9	0back	Block3	0back/STIM_011.jpg	100
1951.911	0.631	630.6	0back	Block3	0back/STIM_012.jpg	100
1955.263	0.48	480.2	0back	Block3	0back/STIM_012.jpg	100
1958.46	0.616	615.7	0back	Block3	0back/STIM_012.jpg	100
1961.443	0.419	419.1	0back	Block3	0back/STIM_013.jpg	99
1965.166	0.642	641.7	0back	Block3	0back/STIM_013.jpg	100
1969.135	0.558	557.5	0back	Block3	0back/STIM_013.jpg	100
1971.969	0.73	730.4	0back	Block3	0back/STIM_014.jpg	100
1976.019	0.669	668.6	0back	Block3	0back/STIM_014.jpg	99
1979.533	0.522	522.0	0back	Block3	0back/STIM_014.jpg	99
1984.058	0.764	763.9	0back	Block3	0back/STIM_015.jpg	99
1987.2	0.506	506.5	0back	Block3	0back/STIM_015.jpg	100
1989.798	0.515	515.3	0back	Block3	0back/STIM_015.jpg	100
1993.99	0.666	665.5	0back	Block3	0back/STIM_016.jpg	100
1996.722	0.761	760.8	0back	Block3	0back/STIM_016.jpg	99
2000.964	0.415	414.9	0back	Block3	0back/STIM_016.jpg	100
2004.511	0.766	766.1	0back	Block3	0back/STIM_017.jpg	99
2007.855	0.402	401.9	0back	Block3	0back/STIM_017.jpg	99
2010.736	0.499	499.2	0back	Block3	0back/STIM_017.jpg	100
2014.619	0.42	419.9	0back	Block3	0back/STIM_018.jpg	100
2019.017	0.46	459.7	0back	Block3	0back/STIM_018.jpg	99
2021.885	0.718	718.4	0back	Block3	0back/STIM_018.jpg	100
2024.952	0.52	520.5	0back	Block3	0back/STIM_019.jpg	100
2029.408	0.767	767.4	0back	Block3	0back/STIM_019.jpg	99
2033.746	0.615	615.0	0back	Block3	0back/STIM_019.jpg	100
2036.555	0.476	475.8	2back	Block4	2back/STIM_000.jpg	100
2039.963	0.824	823.5	2back	Block4	2back/STIM_000.jpg	99
2044.199	0.53	530.1	2back	Block4	2back/STIM_000.jpg	99
2047.305	0.745	745.0	2back	Block4	2back/STIM_001.jpg	99
2050.509	0.505	504.9	2back	Block4	2back/STIM_001.jpg	100
2053.077	0.476	475.6	2back	Block4	2back/STIM_001.jpg	99
2055.708	0.556	556.3	2back	Block4	2back/STIM_002.jpg	100
2058.943	0.454	454.4	2back	Block4	2back/STIM_002.jpg	100
2063.231	0.489	488.6	2back	Block4	2back/STIM_002.jpg	99
2067.302	0.926	925.9	2back	Block4	2back/STIM_003.jpg	99
2070.625	0.515	514.8	2back	Block4	2back/STIM_003.jpg	100
2073.618	0.791	790.7	2back	Block4	2back/STIM_003.jpg	100
2077.008	0.818	817.5	2back	Block4	2back/STIM_004.jpg	99
2080.549	0.727	726.9	2back	Block4	2back/STIM_004.jpg	99
2083.477	0.933	933.4	2back	Block4	2back/STIM_004.jpg	100
2087.031	0.528	528.1	2back	Block4	2back/STIM_005.jpg	100
2089.95	0.714	713.5	2back	Block4	2back/STIM_005.jpg	100
2092.911	0.589	589.1	2back	Block4	2back/STIM_005.jpg	99
2096.048	0.833	833.4	2back	Block4	2back/STIM_006.jpg	100
2100.25	0.549	549.1	2back	Block4	2back/STIM_006.jpg	100
2103.855	0.799	799.4	2back	Block4	2back/STIM_006.jpg	100
2107.947	0.929	929.0	2back	Block4	2back/STIM_007.jpg	100
2111.534	0.567	567.0	2back	Block4	2back/STIM_007.jpg	100
2115.493	0.612	612.5	2back	Block4	2back/STIM_007.jpg	99
2118.611	0.548	548.5	2back	Block4	2back/STIM_008.jpg	100
2122.097	0.571	570.6	2back	Block4	2back/STIM_008.jpg	99
2124.89	0.825	824.7	2back	Block4	2back/STIM_008.jpg	100
2129.443	0.609	609.0	2back	Block4	2back/STIM_009.jpg	100
2134.034	0.577	577.2	2back	Block4	2back/STIM_009.jpg	99
2137.204	0.576	575.7	2back	Block4	2back/STIM_009.jpg	99
2140.21	0.533	533.4	2back	Block4	2back/STIM_010.jpg	100
2144.074	0.855	854.7	2back	Block4	2back/STIM_010.jpg	100
2148.191	0.889	889.3	2back	Block4	2back/STIM_010.jpg	100
2151.329	0.727	726.6	2back	Block4	2back/STIM_011.jpg	99
2155.432	0.619	618.9	2back	Block4	2back/STIM_011.jpg	100
2159.98	0.446	446.0	2back	Block4	2back/STIM_011.jpg	100
2163.217	0.658	658.1	2back	Block4	2back/STIM_012.jpg	99
2167.407	0.613	612.7	2back	Block4	2back/STIM_012.jpg	100
2171.408	0.514	514.1	2back	Block4	2back/STIM_012.jpg	99
2175.295	0.636	635.5	2back	Block4	2back/STIM_013.jpg	100
2179.673	0.492	491.6	2back	Block4	2back/STIM_013.jpg	100
2182.803	0.86	859.6	2back	Block4	2back/STIM_013.jpg	100
2187.411	0.782	781.5	2back	Block4	2back/STIM_014.jpg	99
2190.495	0.91	909.7	2back	Block4	2back/STIM_014.jpg	100
2194.819	0.437	436.7	2back	Block4	2back/STIM_014.jpg	99
2198.322	0.555	555.2	2back	Block4	2back/STIM_015.jpg	100
2202.254	0.931	930.9	2back	Block4	2back/STIM_015.jpg	99
2207.091	0.934	934.0	2back	Block4	2back/STIM_015.jpg	99
2212.003	0.47	469.8	2back	Block4	2back/STIM_016.jpg	100
2215.987	0.868	868.0	2back	Block4	2back/STIM_016.jpg	100
2219.394	0.685	685.4	2back	Block4	2back/STIM_016.jpg	100
2223.401	0.614	614.1	2back	Block4	2back/STIM_017.jpg	99
2227.191	0.58	579.8	2back	Block4	2back/STIM_017.jpg	99
2231.569	0.785	785.4	2back	Block4	2back/STIM_017.jpg	99
2235.359	0.426	425.6	2back	Block4	2back/STIM_018.jpg	100
2238.938	0.94	939.9	2back	Block4	2back/STIM_018.jpg	99
2242.975	0.824	824.5	2back	Block4	2back/STIM_018.jpg	100
2247.349	0.831	831.3	2back	Block4	2back/STIM_019.jpg	99
2251.594	0.555	555.1	2back	Block4	2back/STIM_019.jpg	99
2255.031	0.425	425.3	2back	Block4	2back/STIM_019.jpg	99
2257.958	0.472	471.6	2back	Block4	2back/STIM_020.jpg	99
2261.321	0.562	561.8	2back	Block4	2back/STIM_020.jpg	100
2265.013	0.937	937.2	2back	Block4	2back/STIM_020.jpg	100
2269.902	0.755	755.4	2back	Block4	2back/STIM_021.jpg	100
2274.507	0.639	638.9	2back	Block4	2back/STIM_021.jpg	99
2279.06	0.732	731.5	2back	Block4	2back/STIM_021.jpg	99
2282.717	0.879	878.6	2back	Block4	2back/STIM_022.jpg	99
2286.968	0.927	926.6	2back	Block4	2back/STIM_022.jpg	99
2290.277	0.849	849.1	2back	Block4	2back/STIM_022.jpg	99
2293.508	0.59	589.9	2back	Block4	2back/STIM_023.jpg	99
2296.652	0.924	924.4	2back	Block4	2back/STIM_023.jpg	100
2301.11	0.543	542.8	2back	Block4	2back/STIM_023.jpg	100
2304.965	0.54	539.6	2back	Block4	2back/STIM_024.jpg	100
2308.656	0.734	733.8	2back	Block4	2back/STIM_024.jpg	99
2312.577	0.497	496.8	2back	Block4	2back/STIM_024.jpg	99
2315.666	0.909	908.7	2back	Block4	2back/STIM_025.jpg	100
2320.34	0.733	733.0	2back	Block4	2back/STIM_025.jpg	99
2325.095	0.688	688.2	2back	Block4	2back/STIM_025.jpg	100
2327.996	0.814	814.4	2back	Block4	2back/STIM_026.jpg	99
2331.713	0.798	797.6	2back	Block4	2back/STIM_026.jpg	99
2334.925	0.696	695.7	2back	Block4	2back/STIM_026.jpg	100
2338.229	0.872	872.0	2back	Block4	2back/STIM_027.jpg	99
2341.435	0.627	626.6	2back	Block4	2back/STIM_027.jpg	99
2344.21	0.474	473.8	2back	Block4	2back/STIM_027.jpg	99
2346.858	0.435	434.8	2back	Block4	2back/STIM_028.jpg	100
2349.617	0.61	609.8	2back	Block4	2back/STIM_028.jpg	100
2353.558	0.824	824.3	2back	Block4	2back/STIM_028.jpg	99
2356.616	0.918	917.5	2back	Block4	2back/STIM_029.jpg	100
2360.201	0.523	523.1	2back	Block4	2back/STIM_029.jpg	100
2364.446	0.522	522.0	2back	Block4	2back/STIM_029.jpg	99
2368.765	0.835	835.3	2back	Block4	2back/STIM_030.jpg	99
2373.484	0.556	555.8	2back	Block4	2back/STIM_030.jpg	100
2377.897	0.893	893.4	2back	Block4	2back/STIM_030.jpg	99
2381.291	0.679	679.3	2back	Block4	2back/STIM_031.jpg	100
2385.982	0.584	583.6	2back	Block4	2back/STIM_031.jpg	100
2390.395	0.854	854.2	2back	Block4	2back/STIM_031.jpg	99
2393.359	0.697	697.1	2back	Block4	2back/STIM_032.jpg	99
2397.587	0.788	788.4	2back	Block4	2back/STIM_032.jpg	99
2400.51	0.477	476.9	2back	Block4	2back/STIM_032.jpg	99
2403.286	0.404	404.2	2back	Block4	2back/STIM_033.jpg	99
2405.83	0.894	894.0	2back	Block4	2back/STIM_033.jpg	99
2409.921	0.592	591.7	2back	Block4	2back/STIM_033.jpg	99
2413.254	0.51	509.7	2back	Block4	2back/STIM_034.jpg	99
2416.386	0.885	885.2	2back	Block4	2back/STIM_034.jpg	100
2420.594	0.712	712.5	2back	Block4	2back/STIM_034.jpg	100
2424.971	0.904	903.8	2back	Block4	2back/STIM_035.jpg	99
2427.958	0.725	724.9	2back	Block4	2back/STIM_035.jpg	99
2430.891	0.41	410.1	2back	Block4	2back/STIM_035.jpg	99
2434.64	0.482	481.5	2back	Block4	2back/STIM_036.jpg	100
2438.137	0.439	439.3	2back	Block4	2back/STIM_036.jpg	99
2442.523	0.808	807.6	2back	Block4	2back/STIM_036.jpg	100
2447.297	0.723	722.9	2back	Block4	2back/STIM_037.jpg	99
2451.073	0.494	494.2	2back	Block4	2back/STIM_037.jpg	99
2455.114	0.682	682.0	2back	Block4	2back/STIM_037.jpg	99
2458.22	0.689	688.8	2back	Block4	2back/STIM_038.jpg	100
2462.863	0.775	775.0	2back	Block4	2back/STIM_038.jpg	99
2466.418	0.651	650.9	2back	Block4	2back/STIM_038.jpg	99
2469.615	0.9	899.9	2back	Block4	2back/STIM_039.jpg	100
2474.412	0.731	730.7	2back	Block4	2back/STIM_039.jpg	100
2478.028	0.455	455.3	2back	Block4	2back/STIM_039.jpg	99
2480.763	0.625	624.6	0back	Block4	0back/STIM_000.jpg	99
2485.356	0.517	516.7	0back	Block4	0back/STIM_000.jpg	99
2489.297	0.394	393.8	0back	Block4	0back/STIM_000.jpg	100
2492.291	0.634	633.5	0back	Block4	0back/STIM_001.jpg	100
2496.233	0.677	677.1	0back	Block4	0back/STIM_001.jpg	99
2499.546	0.47	469.8	0back	Block4	0back/STIM_001.jpg	99
2503.894	0.385	384.7	0back	Block4	0back/STIM_002.jpg	100
2507.076	0.646	646.0	0back	Block4	0back/STIM_002.jpg	100
2509.887	0.606	606.4	0back	Block4	0back/STIM_002.jpg	99
2512.828	0.698	697.9	0back	Block4	0back/STIM_003.jpg	99
2517.166	0.476	476.0	0back	Block4	0back/STIM_003.jpg	99
2521.224	0.401	401.0	0back	Block4	0back/STIM_003.jpg	100
2525.399	0.734	734.1	0back	Block4	0back/STIM_004.jpg	99
2528.188	0.622	622.1	0back	Block4	0back/STIM_004.jpg	99
2531.11	0.437	436.8	0back	Block4	0back/STIM_004.jpg	100
2535.194	0.749	748.8	0back	Block4	0back/STIM_005.jpg	99
2539.228	0.707	706.6	0back	Block4	0back/STIM_005.jpg	100
2542.356	0.668	667.8	0back	Block4	0back/STIM_005.jpg	100
2546.582	0.718	717.9	0back	Block4	0back/STIM_006.jpg	100
2550.919	0.414	414.3	0back	Block4	0back/STIM_006.jpg	99
2554.502	0.477	476.9	0back	Block4	0back/STIM_006.jpg	100
2558.775	0.435	435.1	0back	Block4	0back/STIM_007.jpg	99
2561.936	0.738	737.5	0back	Block4	0back/STIM_007.jpg	99
2565.985	0.509	509.4	0back	Block4	0back/STIM_007.jpg	99
2568.653	0.585	585.4	0back	Block4	0back/STIM_008.jpg	99
2572.05	0.446	446.4	0back	Block4	0back/STIM_008.jpg	99
2575.646	0.475	475.1	0back	Block4	0back/STIM_008.jpg	100
2579.089	0.652	651.9	0back	Block4	0back/STIM_009.jpg	100
2581.942	0.516	516.2	0back	Block4	0back/STIM_009.jpg	100
2586.186	0.385	385.1	0back	Block4	0back/STIM_009.jpg	100
2589.986	0.729	728.9	0back	Block4	0back/STIM_010.jpg	100
2593.156	0.695	695.0	0back	Block4	0back/STIM_010.jpg	100
2597.452	0.58	580.3	0back	Block4	0back/STIM_010.jpg	100
2601.896	0.745	744.7	0back	Block4	0back/STIM_011.jpg	100
2605.023	0.421	421.0	0back	Block4	0back/STIM_011.jpg	100
2609.214	0.741	740.8	0back	Block4	0back/STIM_011.jpg	99
2612.668	0.428	428.5	0back	Block4	0back/STIM_012.jpg	100
2615.839	0.659	659.3	0back	Block4	0back/STIM_012.jpg	100
2618.843	0.514	514.1	0back	Block4	0back/STIM_012.jpg	100
2621.432	0.735	735.2	0back	Block4	0back/STIM_013.jpg	100
2626.029	0.407	407.4	0back	Block4	0back/STIM_013.jpg	100
2628.983	0.534	534.5	0back	Block4	0back/STIM_013.jpg	99
2632.233	0.464	464.2	0back	Block4	0back/STIM_014.jpg	100
2636.548	0.4	399.6	0back	Block4	0back/STIM_014.jpg	99
2640.281	0.72	719.8	0back	Block4	0back/STIM_014.jpg	100
2643.906	0.679	678.7	0back	Block4	0back/STIM_015.jpg	99
2648.532	0.74	739.6	0back	Block4	0back/STIM_015.jpg	99
2652.458	0.599	599.2	0back	Block4	0back/STIM_015.jpg	100
2656.938	0.678	678.4	0back	Block4	0back/STIM_016.jpg	100
2659.768	0.513	513.4	0back	Block4	0back/STIM_016.jpg	99
2664.101	0.466	466.4	0back	Block4	0back/STIM_016.jpg	100
2667.31	0.517	516.7	0back	Block4	0back/STIM_017.jpg	99
2670.055	0.559	559.2	0back	Block4	0back/STIM_017.jpg	99
2674.066	0.451	450.9	0back	Block4	0back/STIM_017.jpg	100
2676.626	0.431	430.7	0back	Block4	0back/STIM_018.jpg	100
2679.928	0.559	559.3	0back	Block4	0back/STIM_018.jpg	100
2684.176	0.482	481.7	0back	Block4	0back/STIM_018.jpg	100
2687.106	0.754	753.9	0back	Block4	0back/STIM_019.jpg	99
2691.715	0.667	666.7	0back	Block4	0back/STIM_019.jpg	100
2696.282	0.727	727.3	0back	Block4	0back/STIM_019.jpg	100
