onset	duration	response_time_ms	trial_type	learning_stage	stimulus	response_port
0.0	1.219	1218.9	2back	Block1	2back/STIM_000.jpg	100
4.122	0.778	777.8	2back	Block1	2back/STIM_000.jpg	99
8.113	0.727	726.9	2back	Block1	2back/STIM_000.jpg	99
11.261	0.831	831.3	2back	Block1	2back/STIM_001.jpg	100
14.238	0.711	711.2	2back	Block1	2back/STIM_001.jpg	100
18.738	0.783	782.6	2back	Block1	2back/STIM_001.jpg	100
21.788	0.704	704.2	2back	Block1	2back/STIM_002.jpg	99
25.349	0.794	794.1	2back	Block1	2back/STIM_002.jpg	99
29.644	0.972	971.5	2back	Block1	2back/STIM_002.jpg	100
34.497	0.842	841.6	2back	Block1	2back/STIM_003.jpg	99
37.817	1.056	1056.2	2back	Block1	2back/STIM_003.jpg	100
40.984	0.85	850.0	2back	Block1	2back/STIM_003.jpg	100
44.201	0.86	860.4	2back	Block1	2back/STIM_004.jpg	99
48.808	0.993	992.7	2back	Block1	2back/STIM_004.jpg	100
53.268	1.072	1072.2	2back	Block1	2back/STIM_004.jpg	99
56.795	0.671	671.4	2back	Block1	2back/STIM_005.jpg	100
60.433	0.942	942.2	2back	Block1	2back/STIM_005.jpg	100
64.01	0.654	653.5	2back	Block1	2back/STIM_005.jpg	100
68.239	0.673	672.9	2back	Block1	2back/STIM_006.jpg	100
72.667	0.755	755.3	2back	Block1	2back/STIM_006.jpg	99
77.354	0.765	764.7	2back	Block1	2back/STIM_006.jpg	100
80.317	0.569	568.8	2back	Block1	2back/STIM_007.jpg	100
83.802	1.157	1156.7	2back	Block1	2back/STIM_007.jpg	100
88.518	0.785	784.8	2back	Block1	2back/STIM_007.jpg	99
93.077	1.123	1122.9	2back	Block1	2back/STIM_008.jpg	99
97.09	0.647	647.0	2back	Block1	2back/STIM_008.jpg	100
101.678	1.021	1020.7	2back	Block1	2back/STIM_008.jpg	99
106.006	0.876	875.5	2back	Block1	2back/STIM_009.jpg	99
110.039	0.602	601.8	2back	Block1	2back/STIM_009.jpg	99
114.225	0.526	525.7	2back	Block1	2back/STIM_009.jpg	99
118.513	0.795	795.0	2back	Block1	2back/STIM_010.jpg	100
123.254	0.588	588.3	2back	Block1	2back/STIM_010.jpg	99
126.052	0.827	827.0	2back	Block1	2back/STIM_010.jpg	99
130.522	0.882	882.2	2back	Block1	2back/STIM_011.jpg	99
133.861	0.617	617.1	2back	Block1	2back/STIM_011.jpg	99
138.068	0.93	929.9	2back	Block1	2back/STIM_011.jpg	100
141.462	0.652	651.7	2back	Block1	2back/STIM_012.jpg	99
144.757	0.844	843.6	2back	Block1	2back/STIM_012.jpg	99
148.235	0.985	985.4	2back	Block1	2back/STIM_012.jpg	100
153.076	0.662	661.9	2back	Block1	2back/STIM_013.jpg	100
155.788	0.709	709.1	2back	Block1	2back/STIM_013.jpg	100
159.842	0.649	649.4	2back	Block1	2back/STIM_013.jpg	100
164.465	0.978	977.8	2back	Block1	2back/STIM_014.jpg	100
168.998	0.865	865.3	2back	Block1	2back/STIM_014.jpg	100
172.96	0.72	720.5	2back	Block1	2back/STIM_014.jpg	99
176.494	0.931	931.0	2back	Block1	2back/STIM_015.jpg	100
180.207	0.857	857.3	2back	Block1	2back/STIM_015.jpg	100
183.464	1.097	1097.1	2back	Block1	2back/STIM_015.jpg	100
187.048	1.161	1160.8	2back	Block1	2back/STIM_016.jpg	99
190.746	0.685	685.2	2back	Block1	2back/STIM_016.jpg	100
195.384	0.509	509.2	2back	Block1	2back/STIM_016.jpg	99
199.176	0.892	891.9	2back	Block1	2back/STIM_017.jpg	100
202.082	0.953	953.3	2back	Block1	2back/STIM_017.jpg	100
205.63	0.638	637.8	2back	Block1	2back/STIM_017.jpg	100
209.217	0.708	708.0	2back	Block1	2back/STIM_018.jpg	100
212.337	0.972	972.1	2back	Block1	2back/STIM_018.jpg	100
215.707	0.719	718.6	2back	Block1	2back/STIM_018.jpg	99
219.97	0.763	763.1	2back	Block1	2back/STIM_019.jpg	99
223.548	0.591	590.6	2back	Block1	2back/STIM_019.jpg	99
226.565	0.674	673.8	2back	Block1	2back/STIM_019.jpg	99
229.851	0.967	966.6	2back	Block1	2back/STIM_020.jpg	100
233.157	0.988	988.1	2back	Block1	2back/STIM_020.jpg	100
236.845	0.997	997.1	2back	Block1	2back/STIM_020.jpg	99
240.543	0.857	857.1	2back	Block1	2back/STIM_021.jpg	100
243.903	0.781	780.6	2back	Block1	2back/STIM_021.jpg	100
247.303	0.698	698.3	2back	Block1	2back/STIM_021.jpg	100
251.858	0.687	686.7	2back	Block1	2back/STIM_022.jpg	100
255.385	0.619	619.2	2back	Block1	2back/STIM_022.jpg	99
258.14	0.678	678.4	2back	Block1	2back/STIM_022.jpg	99
260.87	0.846	845.9	2back	Block1	2back/STIM_023.jpg	100
265.705	0.659	659.0	2back	Block1	2back/STIM_023.jpg	99
269.401	0.977	976.6	2back	Block1	2back/STIM_023.jpg	99
272.814	0.719	719.3	2back	Block1	2back/STIM_024.jpg	99
275.647	0.677	676.8	2back	Block1	2back/STIM_024.jpg	100
279.142	1.063	1063.1	2back	Block1	2back/STIM_024.jpg	100
283.504	0.638	638.2	2back	Block1	2back/STIM_025.jpg	100
287.474	0.636	636.5	2back	Block1	2back/STIM_025.jpg	100
292.02	0.739	738.7	2back	Block1	2back/STIM_025.jpg	99
296.137	0.746	745.6	2back	Block1	2back/STIM_026.jpg	99
300.177	0.648	647.6	2back	Block1	2back/STIM_026.jpg	100
303.2	0.966	966.4	2back	Block1	2back/STIM_026.jpg	99
308.147	0.539	538.9	2back	Block1	2back/STIM_027.jpg	100
311.449	1.142	1142.0	2back	Block1	2back/STIM_027.jpg	99
316.207	0.575	575.1	2back	Block1	2back/STIM_027.jpg	99
320.45	0.89	890.0	2back	Block1	2back/STIM_028.jpg	100
325.042	0.847	847.4	2back	Block1	2back/STIM_028.jpg	99
328.422	0.799	799.4	2back	Block1	2back/STIM_028.jpg	99
331.67	0.752	751.6	2back	Block1	2back/STIM_029.jpg	100
335.269	0.505	505.3	2back	Block1	2back/STIM_029.jpg	100
338.337	0.626	625.7	2back	Block1	2back/STIM_029.jpg	99
341.726	0.997	997.3	2back	Block1	2back/STIM_030.jpg	100
345.738	0.881	880.6	2back	Block1	2back/STIM_030.jpg	99
348.911	0.603	603.0	2back	Block1	2back/STIM_030.jpg	99
351.992	1.065	1064.8	2back	Block1	2back/STIM_031.jpg	99
356.753	1.055	1055.1	2back	Block1	2back/STIM_031.jpg	100
360.686	0.581	581.0	2back	Block1	2back/STIM_031.jpg	99
364.958	0.709	708.6	2back	Block1	2back/STIM_032.jpg	100
369.374	0.699	699.3	2back	Block1	2back/STIM_032.jpg	100
373.699	0.744	744.1	2back	Block1	2back/STIM_032.jpg	100
377.163	0.949	948.8	2back	Block1	2back/STIM_033.jpg	99
381.33	1.074	1074.3	2back	Block1	2back/STIM_033.jpg	100
384.968	1.06	1060.2	2back	Block1	2back/STIM_033.jpg	100
389.904	0.739	739.0	2back	Block1	2back/STIM_034.jpg	99
394.133	0.844	844.0	2back	Block1	2back/STIM_034.jpg	100
397.787	0.474	474.0	2back	Block1	2back/STIM_034.jpg	100
401.511	1.027	1027.1	2back	Block1	2back/STIM_035.jpg	100
406.286	1.074	1073.8	2back	Block1	2back/STIM_035.jpg	100
410.034	0.852	852.0	2back	Block1	2back/STIM_035.jpg	100
414.485	0.527	527.0	2back	Block1	2back/STIM_036.jpg	99
417.267	0.539	539.0	2back	Block1	2back/STIM_036.jpg	100
420.562	0.904	903.6	2back	Block1	2back/STIM_036.jpg	99
424.987	1.171	1171.4	2back	Block1	2back/STIM_037.jpg	100
429.344	0.616	616.5	2back	Block1	2back/STIM_037.jpg	100
432.271	0.551	551.0	2back	Block1	2back/STIM_037.jpg	100
435.889	0.835	834.8	2back	Block1	2back/STIM_038.jpg	99
439.302	1.023	1022.9	2back	Block1	2back/STIM_038.jpg	100
443.415	0.974	974.2	2back	Block1	2back/STIM_038.jpg	99
447.144	0.854	854.3	2back	Block1	2back/STIM_039.jpg	99
451.735	0.755	754.9	2back	Block1	2back/STIM_039.jpg	100
455.224	0.49	489.9	2back	Block1	2back/STIM_039.jpg	100
459.658	0.367	367.0	0back	Block1	0back/STIM_000.jpg	99
462.879	0.677	677.2	0back	Block1	0back/STIM_000.jpg	100
466.92	0.626	626.4	0back	Block1	0back/STIM_000.jpg	99
470.335	0.545	545.0	0back	Block1	0back/STIM_001.jpg	100
474.085	0.435	434.6	0back	Block1	0back/STIM_001.jpg	99
478.098	0.388	388.0	0back	Block1	0back/STIM_001.jpg	100
481.93	0.614	614.4	0back	Block1	0back/STIM_002.jpg	99
484.883	0.459	458.6	0back	Block1	0back/STIM_002.jpg	99
489.004	0.633	633.4	0back	Block1	0back/STIM_002.jpg	100
493.022	0.605	604.8	0back	Block1	0back/STIM_003.jpg	100
496.69	0.443	443.1	0back	Block1	0back/STIM_003.jpg	99
499.759	0.541	541.2	0back	Block1	0back/STIM_003.jpg	100
503.537	0.628	627.7	0back	Block1	0back/STIM_004.jpg	99
507.089	0.598	597.9	0back	Block1	0back/STIM_004.jpg	99
509.778	0.52	519.9	0back	Block1	0back/STIM_004.jpg	100
512.621	0.472	472.1	0back	Block1	0back/STIM_005.jpg	100
515.747	0.593	593.2	0back	Block1	0back/STIM_005.jpg	99
519.92	0.493	493.1	0back	Block1	0back/STIM_005.jpg	100
522.684	0.36	360.5	0back	Block1	0back/STIM_006.jpg	100
526.056	0.444	443.9	0back	Block1	0back/STIM_006.jpg	100
529.446	0.62	619.9	0back	Block1	0back/STIM_006.jpg	99
532.213	0.555	554.9	0back	Block1	0back/STIM_007.jpg	100
535.765	0.638	638.0	0back	Block1	0back/STIM_007.jpg	100
540.39	0.645	645.3	0back	Block1	0back/STIM_007.jpg	100
543.333	0.653	652.7	0back	Block1	0back/STIM_008.jpg	99
546.566	0.363	363.4	0back	Block1	0back/STIM_008.jpg	99
549.802	0.426	425.5	0back	Block1	0back/STIM_008.jpg	100
553.702	0.36	360.2	0back	Block1	0back/STIM_009.jpg	100
557.728	0.671	671.0	0back	Block1	0back/STIM_009.jpg	99
561.921	0.561	560.6	0back	Block1	0back/STIM_009.jpg	100
564.963	0.419	419.1	0back	Block1	0back/STIM_010.jpg	99
568.586	0.513	513.1	0back	Block1	0back/STIM_010.jpg	100
572.163	0.503	503.5	0back	Block1	0back/STIM_010.jpg	99
575.516	0.493	493.0	0back	Block1	0back/STIM_011.jpg	99
578.947	0.57	569.6	0back	Block1	0back/STIM_011.jpg	100
583.279	0.466	465.6	0back	Block1	0back/STIM_011.jpg	100
586.362	0.615	614.6	0back	Block1	0back/STIM_012.jpg	100
589.568	0.404	404.4	0back	Block1	0back/STIM_012.jpg	99
593.867	0.67	669.7	0back	Block1	0back/STIM_012.jpg	99
597.559	0.532	532.3	0back	Block1	0back/STIM_013.jpg	100
600.11	0.395	395.4	0back	Block1	0back/STIM_013.jpg	99
604.023	0.533	532.7	0back	Block1	0back/STIM_013.jpg	100
607.802	0.623	622.6	0back	Block1	0back/STIM_014.jpg	99
611.708	0.654	653.7	0back	Block1	0back/STIM_014.jpg	100
615.569	0.414	413.5	0back	Block1	0back/STIM_014.jpg	100
619.059	0.502	502.2	0back	Block1	0back/STIM_015.jpg	100
622.523	0.645	645.1	0back	Block1	0back/STIM_015.jpg	100
625.199	0.662	662.5	0back	Block1	0back/STIM_015.jpg	100
628.894	0.628	627.5	0back	Block1	0back/STIM_016.jpg	99
632.137	0.617	616.9	0back	Block1	0back/STIM_016.jpg	100
634.779	0.586	585.6	0back	Block1	0back/STIM_016.jpg	100
638.89	0.587	586.8	0back	Block1	0back/STIM_017.jpg	99
642.168	0.437	437.3	0back	Block1	0back/STIM_017.jpg	99
646.419	0.526	526.4	0back	Block1	0back/STIM_017.jpg	99
650.773	0.397	396.7	0back	Block1	0back/STIM_018.jpg	100
654.369	0.504	504.0	0back	Block1	0back/STIM_018.jpg	100
657.035	0.38	380.4	0back	Block1	0back/STIM_018.jpg	100
661.01	0.631	630.9	0back	Block1	0back/STIM_019.jpg	100
664.479	0.524	524.3	0back	Block1	0back/STIM_019.jpg	100
668.429	0.493	492.7	0back	Block1	0back/STIM_019.jpg	100
672.857	0.527	527.2	2back	Block2	2back/STIM_000.jpg	100
676.927	0.77	770.2	2back	Block2	2back/STIM_000.jpg	100
680.086	0.906	906.3	2back	Block2	2back/STIM_000.jpg	100
683.389	0.89	890.3	2back	Block2	2back/STIM_001.jpg	100
688.04	0.475	474.6	2back	Block2	2back/STIM_001.jpg	99
691.541	0.452	451.6	2back	Block2	2back/STIM_001.jpg	99
695.719	0.85	849.9	2back	Block2	2back/STIM_002.jpg	100
699.093	0.956	956.2	2back	Block2	2back/STIM_002.jpg	100
702.302	0.537	536.7	2back	Block2	2back/STIM_002.jpg	99
705.498	0.911	911.4	2back	Block2	2back/STIM_003.jpg	100
709.582	0.478	477.8	2back	Block2	2back/STIM_003.jpg	100
712.756	0.515	514.8	2back	Block2	2back/STIM_003.jpg	99
716.14	0.886	885.5	2back	Block2	2back/STIM_004.jpg	99
720.814	0.689	688.9	2back	Block2	2back/STIM_004.jpg	99
723.786	0.522	522.2	2back	Block2	2back/STIM_004.jpg	99
726.952	0.802	802.5	2back	Block2	2back/STIM_005.jpg	100
729.866	0.743	743.1	2back	Block2	2back/STIM_005.jpg	99
733.902	0.758	758.0	2back	Block2	2back/STIM_005.jpg	100
737.688	0.66	659.7	2back	Block2	2back/STIM_006.jpg	99
741.336	0.625	625.1	2back	Block2	2back/STIM_006.jpg	100
744.455	0.677	676.6	2back	Block2	2back/STIM_006.jpg	99
748.07	0.824	824.3	2back	Block2	2back/STIM_007.jpg	100
752.734	0.624	623.9	2back	Block2	2back/STIM_007.jpg	100
756.72	0.514	514.1	2back	Block2	2back/STIM_007.jpg	100
760.882	0.829	828.6	2back	Block2	2back/STIM_008.jpg	100
763.973	0.883	883.0	2back	Block2	2back/STIM_008.jpg	100
768.627	0.655	655.0	2back	Block2	2back/STIM_008.jpg	99
772.517	0.704	704.3	2back	Block2	2back/STIM_009.jpg	100
775.299	0.485	485.0	2back	Block2	2back/STIM_009.jpg	99
778.903	0.858	857.6	2back	Block2	2back/STIM_009.jpg	100
781.858	0.635	635.1	2back	Block2	2back/STIM_010.jpg	99
785.744	0.822	821.9	2back	Block2	2back/STIM_010.jpg	100
789.207	0.672	671.5	2back	Block2	2back/STIM_010.jpg	99
791.914	0.457	457.2	2back	Block2	2back/STIM_011.jpg	100
796.127	0.524	523.6	2back	Block2	2back/STIM_011.jpg	99
800.407	0.461	461.3	2back	Block2	2back/STIM_011.jpg	100
802.997	0.518	518.4	2back	Block2	2back/STIM_012.jpg	100
806.458	0.746	746.5	2back	Block2	2back/STIM_012.jpg	100
810.618	0.866	866.4	2back	Block2	2back/STIM_012.jpg	100
813.864	0.932	931.9	2back	Block2	2back/STIM_013.jpg	99
816.839	0.426	426.1	2back	Block2	2back/STIM_013.jpg	100
819.423	0.862	861.8	2back	Block2	2back/STIM_013.jpg	99
823.903	1.018	1017.9	2back	Block2	2back/STIM_014.jpg	100
828.605	0.546	546.1	2back	Block2	2back/STIM_014.jpg	100
831.525	0.396	395.8	2back	Block2	2back/STIM_014.jpg	99
835.0	0.814	814.5	2back	Block2	2back/STIM_015.jpg	99
839.609	0.462	461.6	2back	Block2	2back/STIM_015.jpg	99
843.047	0.874	874.0	2back	Block2	2back/STIM_015.jpg	100
846.129	0.983	982.8	2back	Block2	2back/STIM_016.jpg	99
850.571	0.489	489.4	2back	Block2	2back/STIM_016.jpg	100
853.685	0.445	444.7	2back	Block2	2back/STIM_016.jpg	100
857.502	0.647	647.4	2back	Block2	2back/STIM_017.jpg	99
860.755	0.583	582.9	2back	Block2	2back/STIM_017.jpg	100
864.152	0.843	843.4	2back	Block2	2back/STIM_017.jpg	100
868.171	0.688	688.3	2back	Block2	2back/STIM_018.jpg	99
871.794	0.623	623.0	2back	Block2	2back/STIM_018.jpg	100
875.468	0.697	697.2	2back	Block2	2back/STIM_018.jpg	100
878.318	0.78	780.0	2back	Block2	2back/STIM_019.jpg	99
881.445	0.784	784.4	2back	Block2	2back/STIM_019.jpg	99
885.242	0.812	811.6	2back	Block2	2back/STIM_019.jpg	100
888.909	0.701	701.2	2back	Block2	2back/STIM_020.jpg	99
892.366	0.494	493.6	2back	Block2	2back/STIM_020.jpg	99
896.747	0.484	484.1	2back	Block2	2back/STIM_020.jpg	100
901.201	0.509	508.8	2back	Block2	2back/STIM_021.jpg	99
904.887	0.687	686.7	2back	Block2	2back/STIM_021.jpg	99
907.693	0.494	494.2	2back	Block2	2back/STIM_021.jpg	100
911.041	0.542	541.9	2back	Block2	2back/STIM_022.jpg	100
915.175	0.752	752.0	2back	Block2	2back/STIM_022.jpg	100
919.667	0.769	769.2	2back	Block2	2back/STIM_022.jpg	99
922.723	1.007	1007.0	2back	Block2	2back/STIM_023.jpg	99
927.141	0.735	735.3	2back	Block2	2back/STIM_023.jpg	100
931.07	0.762	761.6	2back	Block2	2back/STIM_023.jpg	99
934.014	0.521	520.9	2back	Block2	2back/STIM_024.jpg	99
936.878	0.458	457.7	2back	Block2	2back/STIM_024.jpg	100
940.945	0.677	677.4	2back	Block2	2back/STIM_024.jpg	99
944.385	0.727	726.8	2back	Block2	2back/STIM_025.jpg	100
948.979	0.824	823.5	2back	Block2	2back/STIM_025.jpg	99
952.777	0.627	626.9	2back	Block2	2back/STIM_025.jpg	100
957.087	0.695	694.8	2back	Block2	2back/STIM_026.jpg	100
961.552	0.748	748.0	2back	Block2	2back/STIM_026.jpg	99
966.003	0.878	877.6	2back	Block2	2back/STIM_026.jpg	100
970.281	0.765	764.9	2back	Block2	2back/STIM_027.jpg	100
973.445	0.901	901.4	2back	Block2	2back/STIM_027.jpg	100
977.476	0.61	609.5	2back	Block2	2back/STIM_027.jpg	99
980.216	0.561	561.1	2back	Block2	2back/STIM_028.jpg	99
984.649	0.78	780.0	2back	Block2	2back/STIM_028.jpg	100
987.921	0.825	824.7	2back	Block2	2back/STIM_028.jpg	99
992.704	1.037	1036.6	2back	Block2	2back/STIM_029.jpg	99
995.816	0.796	796.5	2back	Block2	2back/STIM_029.jpg	100
999.991	0.67	669.9	2back	Block2	2back/STIM_029.jpg	99
1002.97	0.49	490.3	2back	Block2	2back/STIM_030.jpg	99
1007.124	0.831	831.3	2back	Block2	2back/STIM_030.jpg	100
1009.969	0.397	397.0	2back	Block2	2back/STIM_030.jpg	99
1012.592	0.5	499.9	2back	Block2	2back/STIM_031.jpg	100
1016.334	0.662	662.5	2back	Block2	2back/STIM_031.jpg	99
1019.673	0.881	881.0	2back	Block2	2back/STIM_031.jpg	99
1022.849	1.004	1004.5	2back	Block2	2back/STIM_032.jpg	99
1026.629	0.593	592.7	2back	Block2	2back/STIM_032.jpg	99
1031.15	0.522	521.8	2back	Block2	2back/STIM_032.jpg	99
1035.045	0.558	558.4	2back	Block2	2back/STIM_033.jpg	99
1038.204	0.472	471.7	2back	Block2	2back/STIM_033.jpg	99
1040.762	0.845	845.0	2back	Block2	2back/STIM_033.jpg	99
1045.005	0.532	531.5	2back	Block2	2back/STIM_034.jpg	100
1049.236	0.919	918.7	2back	Block2	2back/STIM_034.jpg	100
1053.135	0.823	823.4	2back	Block2	2back/STIM_034.jpg	99
1057.522	0.852	851.5	2back	Block2	2back/STIM_035.jpg	99
1061.042	0.574	574.4	2back	Block2	2back/STIM_035.jpg	99
1064.116	0.801	801.0	2back	Block2	2back/STIM_035.jpg	100
1067.234	1.012	1011.7	2back	Block2	2back/STIM_036.jpg	99
1072.213	0.941	941.4	2back	Block2	2back/STIM_036.jpg	99
1075.902	0.832	832.3	2back	Block2	2back/STIM_036.jpg	99
1079.725	0.745	745.1	2back	Block2	2back/STIM_037.jpg	100
1082.994	0.69	690.5	2back	Block2	2back/STIM_037.jpg	100
1087.357	0.728	728.2	2back	Block2	2back/STIM_037.jpg	100
1090.97	0.822	821.8	2back	Block2	2back/STIM_038.jpg	100
1095.351	0.489	488.8	2back	Block2	2back/STIM_038.jpg	99
1099.479	0.589	588.8	2back	Block2	2back/STIM_038.jpg	100
1102.262	0.896	896.1	2back	Block2	2back/STIM_039.jpg	100
1105.55	0.921	920.8	2back	Block2	2back/STIM_039.jpg	100
1109.745	0.672	672.5	2back	Block2	2back/STIM_039.jpg	99
1112.743	0.43	430.1	0back	Block2	0back/STIM_000.jpg	99
1116.942	0.382	381.6	0back	Block2	0back/STIM_000.jpg	100
1120.136	0.493	493.0	0back	Block2	0back/STIM_000.jpg	99
1124.372	0.679	678.9	0back	Block2	0back/STIM_001.jpg	100
1128.598	0.487	486.8	0back	Block2	0back/STIM_001.jpg	100
1132.312	0.525	525.4	0back	Block2	0back/STIM_001.jpg	99
1136.672	0.545	544.7	0back	Block2	0back/STIM_002.jpg	100
1139.628	0.498	497.6	0back	Block2	0back/STIM_002.jpg	100
1143.236	0.548	547.5	0back	Block2	0back/STIM_002.jpg	100
1147.345	0.676	675.7	0back	Block2	0back/STIM_003.jpg	99
1150.031	0.387	386.7	0back	Block2	0back/STIM_003.jpg	99
1154.127	0.484	484.5	0back	Block2	0back/STIM_003.jpg	100
1157.532	0.358	357.5	0back	Block2	0back/STIM_004.jpg	99
1160.168	0.652	652.5	0back	Block2	0back/STIM_004.jpg	100
1164.422	0.371	371.2	0back	Block2	0back/STIM_004.jpg	100
1167.887	0.484	483.5	0back	Block2	0back/STIM_005.jpg	100
1172.26	0.373	372.8	0back	Block2	0back/STIM_005.jpg	99
1175.885	0.618	617.7	0back	Block2	0back/STIM_005.jpg	99
1179.985	0.63	630.0	0back	Block2	0back/STIM_006.jpg	99
1182.632	0.579	579.1	0back	Block2	0back/STIM_006.jpg	99
1185.911	0.672	671.7	0back	Block2	0back/STIM_006.jpg	99
1189.997	0.453	452.7	0back	Block2	0back/STIM_007.jpg	100
1193.044	0.525	524.6	0back	Block2	0back/STIM_007.jpg	99
1195.633	0.501	501.5	0back	Block2	0back/STIM_007.jpg	100
1199.262	0.498	498.1	0back	Block2	0back/STIM_008.jpg	100
1203.58	0.615	614.7	0back	Block2	0back/STIM_008.jpg	99
1206.835	0.526	526.4	0back	Block2	0back/STIM_008.jpg	100
1210.34	0.415	415.0	0back	Block2	0back/STIM_009.jpg	100
1214.564	0.359	358.9	0back	Block2	0back/STIM_009.jpg	100
1217.404	0.556	555.9	0back	Block2	0back/STIM_009.jpg	100
1220.828	0.583	583.1	0back	Block2	0back/STIM_010.jpg	99
1223.509	0.642	641.6	0back	Block2	0back/STIM_010.jpg	100
1226.252	0.555	554.6	0back	Block2	0back/STIM_010.jpg	99
1229.495	0.537	536.9	0back	Block2	0back/STIM_011.jpg	100
1233.295	0.486	485.5	0back	Block2	0back/STIM_011.jpg	100
1236.512	0.487	486.7	0back	Block2	0back/STIM_011.jpg	100
1239.992	0.663	662.8	0back	Block2	0back/STIM_012.jpg	100
1244.448	0.581	581.0	0back	Block2	0back/STIM_012.jpg	99
1247.597	0.679	679.3	0back	Block2	0back/STIM_012.jpg	99
1251.681	0.394	393.8	0back	Block2	0back/STIM_013.jpg	99
1254.711	0.564	563.8	0back	Block2	0back/STIM_013.jpg	100
1259.034	0.363	362.9	0back	Block2	0back/STIM_013.jpg	99
1261.803	0.475	475.1	0back	Block2	0back/STIM_014.jpg	99
1265.199	0.649	649.4	0back	Block2	0back/STIM_014.jpg	100
1269.63	0.547	547.3	0back	Block2	0back/STIM_014.jpg	100
1273.697	0.67	669.8	0back	Block2	0back/STIM_015.jpg	100
1277.215	0.496	496.2	0back	Block2	0back/STIM_015.jpg	99
1281.657	0.531	531.1	0back	Block2	0back/STIM_015.jpg	100
1285.74	0.697	696.9	0back	Block2	0back/STIM_016.jpg	99
1288.603	0.353	352.8	0back	Block2	0back/STIM_016.jpg	100
1291.458	0.667	666.9	0back	Block2	0back/STIM_016.jpg	100
1295.914	0.622	621.5	0back	Block2	0back/STIM_017.jpg	100
1299.92	0.526	526.3	0back	Block2	0back/STIM_017.jpg	99
1302.601	0.423	423.2	0back	Block2	0back/STIM_017.jpg	100
1305.435	0.416	416.2	0back	Block2	0back/STIM_018.jpg	100
1308.455	0.631	631.4	0back	Block2	0back/STIM_018.jpg	99
1312.479	0.576	575.8	0back	Block2	0back/STIM_018.jpg	100
1316.807	0.43	430.3	0back	Block2	0back/STIM_019.jpg	99
1319.867	0.476	475.9	0back	Block2	0back/STIM_019.jpg	99
1323.988	0.656	655.9	0back	Block2	0back/STIM_019.jpg	100
1327.514	0.619	619.1	2back	Block3	2back/STIM_000.jpg	99
1330.413	0.815	815.1	2back	Block3	2back/STIM_000.jpg	99
1335.171	0.394	394.5	2back	Block3	2back/STIM_000.jpg	99
1338.39	0.676	675.9	2back	Block3	2back/STIM_001.jpg	99
1342.709	0.692	691.6	2back	Block3	2back/STIM_001.jpg	100
1347.21	0.453	452.6	2back	Block3	2back/STIM_001.jpg	99
1350.993	0.541	540.8	2back	Block3	2back/STIM_002.jpg	100
1353.746	0.65	650.3	2back	Block3	2back/STIM_002.jpg	99
1357.227	0.582	582.4	2back	Block3	2back/STIM_002.jpg	99
1360.501	0.6	600.1	2back	Block3	2back/STIM_003.jpg	99
1364.911	0.511	511.3	2back	Block3	2back/STIM_003.jpg	100
1367.81	0.736	735.8	2back	Block3	2back/STIM_003.jpg	99
1370.896	0.675	674.9	2back	Block3	2back/STIM_004.jpg	100
1375.38	0.672	672.0	2back	Block3	2back/STIM_004.jpg	100
1378.579	0.445	444.7	2back	Block3	2back/STIM_004.jpg	99
1381.758	0.77	769.5	2back	Block3	2back/STIM_005.jpg	100
1384.633	0.528	527.8	2back	Block3	2back/STIM_005.jpg	100
1387.575	0.841	840.8	2back	Block3	2back/STIM_005.jpg	100
1391.476	0.635	635.4	2back	Block3	2back/STIM_006.jpg	99
1394.939	0.745	744.8	2back	Block3	2back/STIM_006.jpg	99
1398.584	0.578	578.2	2back	Block3	2back/STIM_006.jpg	99
1401.948	0.727	726.8	2back	Block3	2back/STIM_007.jpg	100
1404.744	0.568	567.9	2back	Block3	2back/STIM_007.jpg	99
1407.448	0.776	776.3	2back	Block3	2back/STIM_007.jpg	99
1411.896	0.535	535.2	2back	Block3	2back/STIM_008.jpg	99
1414.635	0.461	461.3	2back	Block3	2back/STIM_008.jpg	100
1418.287	0.58	579.5	2back	Block3	2back/STIM_008.jpg	100
1421.835	0.624	623.9	2back	Block3	2back/STIM_009.jpg	100
1426.427	0.701	700.7	2back	Block3	2back/STIM_009.jpg	100
1429.889	0.614	613.6	2back	Block3	2back/STIM_009.jpg	99
1433.554	0.815	815.1	2back	Block3	2back/STIM_010.jpg	100
1437.036	0.622	621.9	2back	Block3	2back/STIM_010.jpg	100
1440.065	0.818	818.5	2back	Block3	2back/STIM_010.jpg	99
1443.781	0.657	656.9	2back	Block3	2back/STIM_011.jpg	100
1446.95	0.398	397.6	2back	Block3	2back/STIM_011.jpg	99
1450.606	0.555	554.9	2back	Block3	2back/STIM_011.jpg	100
1454.354	0.8	800.4	2back	Block3	2back/STIM_012.jpg	99
1457.196	0.792	792.3	2back	Block3	2back/STIM_012.jpg	100
1461.934	0.77	770.2	2back	Block3	2back/STIM_012.jpg	100
1465.221	0.692	691.8	2back	Block3	2back/STIM_013.jpg	100
1468.844	0.7	699.9	2back	Block3	2back/STIM_013.jpg	100
1473.205	0.655	655.0	2back	Block3	2back/STIM_013.jpg	99
1477.231	0.777	776.9	2back	Block3	2back/STIM_014.jpg	99
1480.012	0.475	475.3	2back	Block3	2back/STIM_014.jpg	99
1484.071	0.624	623.9	2back	Block3	2back/STIM_014.jpg	100
1487.347	0.602	601.9	2back	Block3	2back/STIM_015.jpg	99
1490.832	0.423	423.1	2back	Block3	2back/STIM_015.jpg	99
1495.193	0.842	841.9	2back	Block3	2back/STIM_015.jpg	100
1499.027	0.775	774.8	2back	Block3	2back/STIM_016.jpg	100
1503.475	0.557	557.2	2back	Block3	2back/STIM_016.jpg	100
1506.261	0.563	563.2	2back	Block3	2back/STIM_016.jpg	99
1510.189	0.721	721.3	2back	Block3	2back/STIM_017.jpg	99
1513.269	0.574	574.4	2back	Block3	2back/STIM_017.jpg	99
1516.585	0.384	384.0	2back	Block3	2back/STIM_017.jpg	99
1519.969	0.812	812.4	2back	Block3	2back/STIM_018.jpg	100
1523.087	0.649	649.1	2back	Block3	2back/STIM_018.jpg	100
1526.862	0.674	673.5	2back	Block3	2back/STIM_018.jpg	99
1531.16	0.626	625.7	2back	Block3	2back/STIM_019.jpg	100
1535.526	0.481	480.9	2back	Block3	2back/STIM_019.jpg	100
1538.801	0.391	391.1	2back	Block3	2back/STIM_019.jpg	100
1541.235	0.541	541.4	2back	Block3	2back/STIM_020.jpg	99
1544.916	0.813	812.6	2back	Block3	2back/STIM_020.jpg	99
1548.205	0.815	815.0	2back	Block3	2back/STIM_020.jpg	99
1551.881	0.58	579.8	2back	Block3	2back/STIM_021.jpg	100
1555.275	0.603	603.0	2back	Block3	2back/STIM_021.jpg	100
1558.201	0.525	525.0	2back	Block3	2back/STIM_021.jpg	99
1561.954	0.742	741.8	2back	Block3	2back/STIM_022.jpg	100
1565.206	0.803	803.2	2back	Block3	2back/STIM_022.jpg	100
1569.666	0.483	482.9	2back	Block3	2back/STIM_022.jpg	100
1573.121	0.503	502.8	2back	Block3	2back/STIM_023.jpg	100
1577.198	0.514	514.1	2back	Block3	2back/STIM_023.jpg	100
1580.232	0.735	735.4	2back	Block3	2back/STIM_023.jpg	99
1583.391	0.681	680.6	2back	Block3	2back/STIM_024.jpg	99
1586.958	0.799	798.6	2back	Block3	2back/STIM_024.jpg	99
1591.223	0.553	552.8	2back	Block3	2back/STIM_024.jpg	100
1595.268	0.408	408.1	2back	Block3	2back/STIM_025.jpg	99
1598.896	0.636	636.1	2back	Block3	2back/STIM_025.jpg	99
1601.893	0.799	798.8	2back	Block3	2back/STIM_025.jpg	100
1605.651	0.429	428.6	2back	Block3	2back/STIM_026.jpg	99
1609.496	0.791	791.4	2back	Block3	2back/STIM_026.jpg	99
1613.925	0.558	558.3	2back	Block3	2back/STIM_026.jpg	100
1618.245	0.518	518.0	2back	Block3	2back/STIM_027.jpg	99
1622.529	0.486	485.7	2back	Block3	2back/STIM_027.jpg	100
1626.541	0.663	662.8	2back	Block3	2back/STIM_027.jpg	99
1629.473	0.699	699.4	2back	Block3	2back/STIM_028.jpg	100
1633.99	0.599	598.9	2back	Block3	2back/STIM_028.jpg	99
1637.657	0.572	572.5	2back	Block3	2back/STIM_028.jpg	100
1641.619	0.538	538.0	2back	Block3	2back/STIM_029.jpg	99
1645.414	0.573	572.6	2back	Block3	2back/STIM_029.jpg	100
1649.541	0.828	828.5	2back	Block3	2back/STIM_029.jpg	99
1652.437	0.553	552.9	2back	Block3	2back/STIM_030.jpg	99
1655.433	0.848	847.6	2back	Block3	2back/STIM_030.jpg	99
1659.263	0.547	547.0	2back	Block3	2back/STIM_030.jpg	99
1663.393	0.45	449.6	2back	Block3	2back/STIM_031.jpg	100
1667.531	0.41	410.5	2back	Block3	2back/STIM_031.jpg	100
1671.13	0.802	802.1	2back	Block3	2back/STIM_031.jpg	99
1674.9	0.778	778.5	2back	Block3	2back/STIM_032.jpg	100
1679.035	0.395	395.1	2back	Block3	2back/STIM_032.jpg	100
1683.15	0.665	665.3	2back	Block3	2back/STIM_032.jpg	99
1686.709	0.623	623.1	2back	Block3	2back/STIM_033.jpg	99
1690.278	0.724	724.4	2back	Block3	2back/STIM_033.jpg	99
1693.794	0.715	715.0	2back	Block3	2back/STIM_033.jpg	100
1698.237	0.7	699.6	2back	Block3	2back/STIM_034.jpg	99
1702.805	0.425	425.0	2back	Block3	2back/STIM_034.jpg	99
1705.872	0.812	811.5	2back	Block3	2back/STIM_034.jpg	99
1708.937	0.771	771.4	2back	Block3	2back/STIM_035.jpg	100
1712.307	0.377	377.4	2back	Block3	2back/STIM_035.jpg	100
1715.219	0.757	756.7	2back	Block3	2back/STIM_035.jpg	99
1719.246	0.519	519.2	2back	Block3	2back/STIM_036.jpg	100
1723.004	0.472	471.7	2back	Block3	2back/STIM_036.jpg	100
1726.774	0.562	562.5	2back	Block3	2back/STIM_036.jpg	100
1731.177	0.472	471.9	2back	Block3	2back/STIM_037.jpg	99
1734.249	0.578	578.4	2back	Block3	2back/STIM_037.jpg	99
1738.707	0.787	787.2	2back	Block3	2back/STIM_037.jpg	99
1743.222	0.798	798.4	2back	Block3	2back/STIM_038.jpg	99
1747.19	0.735	735.0	2back	Block3	2back/STIM_038.jpg	100
1751.356	0.842	841.9	2back	Block3	2back/STIM_038.jpg	99
1755.973	0.665	665.2	2back	Block3	2back/STIM_039.jpg	100
1759.283	0.544	544.0	2back	Block3	2back/STIM_039.jpg	100
1762.534	0.397	397.1	2back	Block3	2back/STIM_039.jpg	99
1766.903	0.625	625.1	0back	Block3	0back/STIM_000.jpg	99
1770.386	0.577	576.8	0back	Block3	0back/STIM_000.jpg	99
1774.485	0.693	692.8	0back	Block3	0back/STIM_000.jpg	99
1777.425	0.69	690.5	0back	Block3	0back/STIM_001.jpg	100
1780.229	0.396	396.4	0back	Block3	0back/STIM_001.jpg	100
1783.679	0.601	600.6	0back	Block3	0back/STIM_001.jpg	99
1788.242	0.472	472.5	0back	Block3	0back/STIM_002.jpg	99
1790.766	0.597	596.7	0back	Block3	0back/STIM_002.jpg	100
1794.065	0.632	632.3	0back	Block3	0back/STIM_002.jpg	99
1797.707	0.351	351.4	0back	Block3	0back/STIM_003.jpg	100
1801.833	0.432	432.0	0back	Block3	0back/STIM_003.jpg	99
1805.05	0.585	584.6	0back	Block3	0back/STIM_003.jpg	100
1807.988	0.686	686.2	0back	Block3	0back/STIM_004.jpg	100
1811.494	0.694	694.2	0back	Block3	0back/STIM_004.jpg	100
1815.894	0.63	629.5	0back	Block3	0back/STIM_004.jpg	100
1820.288	0.652	652.2	0back	Block3	0back/STIM_005.jpg	100
1824.585	0.589	589.0	0back	Block3	0back/STIM_005.jpg	99
1828.484	0.577	576.8	0back	Block3	0back/STIM_005.jpg	100
1832.96	0.371	371.3	0back	Block3	0back/STIM_006.jpg	99
1836.282	0.467	466.6	0back	Block3	0back/STIM_006.jpg	99
1839.832	0.363	362.9	0back	Block3	0back/STIM_006.jpg	99
1842.537	0.522	522.0	0back	Block3	0back/STIM_007.jpg	99
1845.547	0.399	398.6	0back	Block3	0back/STIM_007.jpg	100
1848.465	0.448	447.6	0back	Block3	0back/STIM_007.jpg	100
1852.63	0.492	492.4	0back	Block3	0back/STIM_008.jpg	100
1856.295	0.558	558.0	0back	Block3	0back/STIM_008.jpg	99
1859.678	0.63	629.8	0back	Block3	0back/STIM_008.jpg	99
1863.54	0.635	634.6	0back	Block3	0back/STIM_009.jpg	100
1867.981	0.465	465.0	0back	Block3	0back/STIM_009.jpg	100
1871.555	0.657	656.6	0back	Block3	0back/STIM_009.jpg	99
1875.309	0.355	354.6	0back	Block3	0back/STIM_010.jpg	99
1879.513	0.419	419.2	0back	Block3	0back/STIM_010.jpg	99
1883.204	0.564	563.8	0back	Block3	0back/STIM_010.jpg	100
1887.612	0.413	412.6	0back	Block3	0back/STIM_011.jpg	99
1891.009	0.626	625.5	0back	Block3	0back/STIM_011.jpg	100
1895.167	0.523	522.6	0back	Block3	0back/STIM_011.jpg	100
1899.096	0.449	449.3	0back	Block3	0back/STIM_012.jpg	100
1903.207	0.399	399.4	0back	Block3	0back/STIM_012.jpg	100
1906.282	0.369	368.7	0back	Block3	0back/STIM_012.jpg	100
1908.973	0.366	365.6	0back	Block3	0back/STIM_013.jpg	99
1913.168	0.393	392.6	0back	Block3	0back/STIM_013.jpg	100
1916.157	0.551	550.9	0back	Block3	0back/STIM_013.jpg	100
1920.355	0.452	452.2	0back	Block3	0back/STIM_014.jpg	100
1924.358	0.426	426.0	0back	Block3	0back/STIM_014.jpg	99
1926.795	0.687	686.8	0back	Block3	0back/STIM_014.jpg	99
1929.739	0.525	525.1	0back	Block3	0back/STIM_015.jpg	99
1933.985	0.426	425.7	0back	Block3	0back/STIM_015.jpg	100
1937.641	0.576	575.8	0back	Block3	0back/STIM_015.jpg	100
1941.876	0.677	677.3	0back	Block3	0back/STIM_016.jpg	100
1944.565	0.626	626.1	0back	Block3	0back/STIM_016.jpg	99
1947.362	0.446	446.4	0back	Block3	0back/STIM_016.jpg	100
1950.257	0.61	609.8	0back	Block3	0back/STIM_017.jpg	99
1953.501	0.588	588.1	0back	Block3	0back/STIM_017.jpg	99
1956.238	0.536	535.9	0back	Block3	0back/STIM_017.jpg	100
1959.138	0.635	634.7	0back	Block3	0back/STIM_018.jpg	100
1962.899	0.7	699.6	0back	Block3	0back/STIM_018.jpg	99
1967.025	0.46	460.1	0back	Block3	0back/STIM_018.jpg	100
1970.511	0.629	628.6	0back	Block3	0back/STIM_019.jpg	100
1974.08	0.664	664.0	0back	Block3	0back/STIM_019.jpg	99
1978.657	0.636	636.0	0back	Block3	0back/STIM_019.jpg	100
1982.191	0.472	471.6	2back	Block4	2back/STIM_000.jpg	100
1986.55	0.565	565.0	2back	Block4	2back/STIM_000.jpg	99
1990.413	0.4	400.4	2back	Block4	2back/STIM_000.jpg	99
1994.755	0.461	460.7	2back	Block4	2back/STIM_001.jpg	99
1998.673	0.758	758.3	2back	Block4	2back/STIM_001.jpg	100
2003.143	0.748	748.2	2back	Block4	2back/STIM_001.jpg	99
2006.95	0.823	823.1	2back	Block4	2back/STIM_002.jpg	100
2009.923	0.621	621.0	2back	Block4	2back/STIM_002.jpg	100
2013.088	0.749	748.9	2back	Block4	2back/STIM_002.jpg	99
2017.268	0.822	821.8	2back	Block4	2back/STIM_003.jpg	99
2021.928	0.508	508.2	2back	Block4	2back/STIM_003.jpg	100
2024.589	0.521	520.8	2back	Block4	2back/STIM_003.jpg	100
2027.181	0.766	765.9	2back	Block4	2back/STIM_004.jpg	99
2031.437	0.797	797.0	2back	Block4	2back/STIM_004.jpg	99
2035.486	0.766	765.7	2back	Block4	2back/STIM_004.jpg	100
2040.108	0.6	600.0	2back	Block4	2back/STIM_005.jpg	100
2043.886	0.728	728.4	2back	Block4	2back/STIM_005.jpg	100
2046.842	0.75	749.5	2back	Block4	2back/STIM_005.jpg	99
2051.253	0.838	838.5	2back	Block4	2back/STIM_006.jpg	100
2054.602	0.43	430.1	2back	Block4	2back/STIM_006.jpg	100
2057.633	0.763	763.4	2back	Block4	2back/STIM_006.jpg	100
2060.519	0.84	840.4	2back	Block4	2back/STIM_007.jpg	100
2064.271	0.708	708.2	2back	Block4	2back/STIM_007.jpg	100
2068.078	0.799	799.4	2back	Block4	2back/STIM_007.jpg	99
2072.387	0.519	519.3	2back	Block4	2back/STIM_008.jpg	100
2076.727	0.666	665.6	2back	Block4	2back/STIM_008.jpg	99
2079.486	0.801	801.0	2back	Block4	2back/STIM_008.jpg	100
2083.386	0.714	714.0	2back	Block4	2back/STIM_009.jpg	100
2086.469	0.371	370.6	2back	Block4	2back/STIM_009.jpg	99
2089.454	0.85	850.0	2back	Block4	2back/STIM_009.jpg	99
2094.133	0.583	583.3	2back	Block4	2back/STIM_010.jpg	100
2097.014	0.671	671.2	2back	Block4	2back/STIM_010.jpg	100
2100.033	0.616	616.4	2back	Block4	2back/STIM_010.jpg	100
2102.905	0.456	455.5	2back	Block4	2back/STIM_011.jpg	99
2106.171	0.81	809.6	2back	Block4	2back/STIM_011.jpg	100
2109.743	0.508	508.3	2back	Block4	2back/STIM_011.jpg	100
2114.133	0.416	416.4	2back	Block4	2back/STIM_012.jpg	99
2117.651	0.606	605.8	2back	Block4	2back/STIM_012.jpg	100
2121.426	0.482	481.6	2back	Block4	2back/STIM_012.jpg	99
2125.725	0.654	654.3	2back	Block4	2back/STIM_013.jpg	100
2129.526	0.473	473.4	2back	Block4	2back/STIM_013.jpg	100
2133.901	0.842	842.0	2back	Block4	2back/STIM_013.jpg	100
2137.802	0.514	513.6	2back	Block4	2back/STIM_014.jpg	99
2141.252	0.392	391.5	2back	Block4	2back/STIM_014.jpg	100
2143.787	0.46	459.9	2back	Block4	2back/STIM_014.jpg	99
2147.822	0.582	582.0	2back	Block4	2back/STIM_015.jpg	100
2151.347	0.682	682.3	2back	Block4	2back/STIM_015.jpg	99
2156.01	0.795	794.9	2back	Block4	2back/STIM_015.jpg	99
2160.543	0.699	699.3	2back	Block4	2back/STIM_016.jpg	100
2163.682	0.586	585.8	2back	Block4	2back/STIM_016.jpg	100
2168.171	0.485	485.2	2back	Block4	2back/STIM_016.jpg	100
2172.292	0.705	704.6	2back	Block4	2back/STIM_017.jpg	99
2175.065	0.715	714.7	2back	Block4	2back/STIM_017.jpg	99
2178.076	0.804	803.6	2back	Block4	2back/STIM_017.jpg	99
2182.683	0.571	571.2	2back	Block4	2back/STIM_018.jpg	100
2186.791	0.407	406.6	2back	Block4	2back/STIM_018.jpg	99
2189.3	0.642	642.3	2back	Block4	2back/STIM_018.jpg	100
2191.943	0.605	604.6	2back	Block4	2back/STIM_019.jpg	99
2195.888	0.599	599.1	2back	Block4	2back/STIM_019.jpg	99
2200.459	0.639	638.7	2back	Block4	2back/STIM_019.jpg	99
2204.337	0.742	742.0	2back	Block4	2back/STIM_020.jpg	99
2207.738	0.421	420.8	2back	Block4	2back/STIM_020.jpg	100
2210.952	0.457	456.8	2back	Block4	2back/STIM_020.jpg	100
2215.281	0.534	533.8	2back	Block4	2back/STIM_021.jpg	100
2218.854	0.821	821.3	2back	Block4	2back/STIM_021.jpg	99
2222.175	0.846	845.9	2back	Block4	2back/STIM_021.jpg	99
2225.553	0.482	481.7	2back	Block4	2back/STIM_022.jpg	99
2228.527	0.659	659.1	2back	Block4	2back/STIM_022.jpg	99
2231.769	0.766	765.7	2back	Block4	2back/STIM_022.jpg	99
2235.697	0.45	449.6	2back	Block4	2back/STIM_023.jpg	99
2240.039	0.497	496.7	2back	Block4	2back/STIM_023.jpg	100
2244.325	0.6	600.5	2back	Block4	2back/STIM_023.jpg	100
2248.716	0.757	756.9	2back	Block4	2back/STIM_024.jpg	100
2252.345	0.627	627.1	2back	Block4	2back/STIM_024.jpg	99
2256.545	0.557	557.4	2back	Block4	2back/STIM_024.jpg	99
2260.535	0.496	495.7	2back	Block4	2back/STIM_025.jpg	100
2263.077	0.533	532.7	2back	Block4	2back/STIM_025.jpg	99
2266.247	0.596	595.7	2back	Block4	2back/STIM_025.jpg	100
2269.951	0.462	461.9	2back	Block4	2back/STIM_026.jpg	99
2273.94	0.558	557.8	2back	Block4	2back/STIM_026.jpg	99
2277.459	0.435	434.7	2back	Block4	2back/STIM_026.jpg	100
2281.509	0.614	613.5	2back	Block4	2back/STIM_027.jpg	99
2285.487	0.664	664.3	2back	Block4	2back/STIM_027.jpg	99
2289.304	0.779	778.7	2back	Block4	2back/STIM_027.jpg	99
2292.879	0.55	550.2	2back	Block4	2back/STIM_028.jpg	100
2296.644	0.686	686.2	2back	Block4	2back/STIM_028.jpg	100
2300.938	0.378	378.3	2back	Block4	2back/STIM_028.jpg	99
2303.73	0.687	686.6	2back	Block4	2back/STIM_029.jpg	100
2306.904	0.433	433.4	2back	Block4	2back/STIM_029.jpg	100
2310.599	0.759	759.3	2back	Block4	2back/STIM_029.jpg	99
2315.125	0.396	396.4	2back	Block4	2back/STIM_030.jpg	99
2319.315	0.769	768.8	2back	Block4	2back/STIM_030.jpg	100
2322.35	0.373	373.4	2back	Block4	2back/STIM_030.jpg	99
2326.411	0.444	444.0	2back	Block4	2back/STIM_031.jpg	100
2330.75	0.644	643.6	2back	Block4	2back/STIM_031.jpg	100
2334.381	0.7	700.5	2back	Block4	2back/STIM_031.jpg	99
2338.067	0.62	620.0	2back	Block4	2back/STIM_032.jpg	99
2340.961	0.497	497.1	2back	Block4	2back/STIM_032.jpg	99
2343.801	0.507	507.2	2back	Block4	2back/STIM_032.jpg	99
2347.064	0.454	454.1	2back	Block4	2back/STIM_033.jpg	99
2350.882	0.837	836.9	2back	Block4	2back/STIM_033.jpg	99
2354.227	0.621	621.4	2back	Block4	2back/STIM_033.jpg	99
2358.305	0.461	461.2	2back	Block4	2back/STIM_034.jpg	99
2361.394	0.816	815.8	2back	Block4	2back/STIM_034.jpg	100
2365.096	0.588	587.9	2back	Block4	2back/STIM_034.jpg	100
2369.167	0.37	370.2	2back	Block4	2back/STIM_035.jpg	99
2372.811	0.444	443.9	2back	Block4	2back/STIM_035.jpg	99
2375.321	0.654	654.4	2back	Block4	2back/STIM_035.jpg	99
2378.197	0.608	607.8	2back	Block4	2back/STIM_036.jpg	100
2381.343	0.581	580.6	2back	Block4	2back/STIM_036.jpg	99
2384.506	0.823	822.9	2back	Block4	2back/STIM_036.jpg	100
2388.397	0.448	447.6	2back	Block4	2back/STIM_037.jpg	99
2390.981	0.427	427.1	2back	Block4	2back/STIM_037.jpg	99
2394.952	0.61	610.4	2back	Block4	2back/STIM_037.jpg	99
2397.669	0.8	800.1	2back	Block4	2back/STIM_038.jpg	100
2401.811	0.413	413.0	2back	Block4	2back/STIM_038.jpg	99
2404.79	0.477	477.3	2back	Block4	2back/STIM_038.jpg	99
2409.122	0.719	719.4	2back	Block4	2back/STIM_039.jpg	100
2412.57	0.707	707.4	2back	Block4	2back/STIM_039.jpg	100
2416.767	0.441	441.3	2back	Block4	2back/STIM_039.jpg	99
2420.923	0.404	404.3	0back	Block4	0back/STIM_000.jpg	99
2424.54	0.377	377.3	0back	Block4	0back/STIM_000.jpg	99
2427.243	0.474	474.1	0back	Block4	0back/STIM_000.jpg	100
2430.752	0.375	374.7	0back	Block4	0back/STIM_001.jpg	100
2433.735	0.69	690.1	0back	Block4	0back/STIM_001.jpg	99
2437.881	0.666	665.7	0back	Block4	0back/STIM_001.jpg	99
2440.862	0.578	577.8	0back	Block4	0back/STIM_002.jpg	100
2444.256	0.544	543.8	0back	Block4	0back/STIM_002.jpg	100
2448.403	0.411	410.7	0back	Block4	0back/STIM_002.jpg	99
2452.122	0.611	610.9	0back	Block4	0back/STIM_003.jpg	99
2456.173	0.42	419.9	0back	Block4	0back/STIM_003.jpg	99
2460.312	0.415	415.1	0back	Block4	0back/STIM_003.jpg	100
2462.834	0.419	419.2	0back	Block4	0back/STIM_004.jpg	99
2465.938	0.699	699.0	0back	Block4	0back/STIM_004.jpg	99
2469.366	0.35	350.4	0back	Block4	0back/STIM_004.jpg	100
2472.787	0.526	526.5	0back	Block4	0back/STIM_005.jpg	99
2477.205	0.503	503.2	0back	Block4	0back/STIM_005.jpg	100
2480.484	0.633	632.7	0back	Block4	0back/STIM_005.jpg	100
2483.896	0.56	559.9	0back	Block4	0back/STIM_006.jpg	100
2487.201	0.572	572.4	0back	Block4	0back/STIM_006.jpg	99
2491.088	0.564	563.6	0back	Block4	0back/STIM_006.jpg	100
2494.01	0.648	648.2	0back	Block4	0back/STIM_007.jpg	99
2497.871	0.464	464.5	0back	Block4	0back/STIM_007.jpg	99
2501.313	0.354	354.4	0back	Block4	0back/STIM_007.jpg	99
2504.846	0.413	412.8	0back	Block4	0back/STIM_008.jpg	99
2507.654	0.449	448.6	0back	Block4	0back/STIM_008.jpg	99
2510.859	0.382	382.1	0back	Block4	0back/STIM_008.jpg	100
2514.664	0.476	475.9	0back	Block4	0back/STIM_009.jpg	100
2518.426	0.572	571.8	0back	Block4	0back/STIM_009.jpg	100
2522.878	0.5	499.6	0back	Block4	0back/STIM_009.jpg	100
2527.282	0.686	685.7	0back	Block4	0back/STIM_010.jpg	100
2531.664	0.442	442.0	0back	Block4	0back/STIM_010.jpg	100
2534.664	0.49	490.1	0back	Block4	0back/STIM_010.jpg	100
2538.784	0.643	643.1	0back	Block4	0back/STIM_011.jpg	100
2543.376	0.397	397.0	0back	Block4	0back/STIM_011.jpg	100
2547.221	0.686	686.4	0back	Block4	0back/STIM_011.jpg	99
2550.103	0.574	574.4	0back	Block4	0back/STIM_012.jpg	100
2553.261	0.414	413.8	0back	Block4	0back/STIM_012.jpg	100
2556.725	0.655	654.8	0back	Block4	0back/STIM_012.jpg	100
2560.785	0.47	470.1	0back	Block4	0back/STIM_013.jpg	100
2564.436	0.52	520.5	0back	Block4	0back/STIM_013.jpg	100
2567.126	0.386	385.5	0back	Block4	0back/STIM_013.jpg	99
2571.416	0.441	441.0	0back	Block4	0back/STIM_014.jpg	100
2574.479	0.387	387.1	0back	Block4	0back/STIM_014.jpg	99
2578.159	0.679	678.6	0back	Block4	0back/STIM_014.jpg	100
2581.262	0.542	542.2	0back	Block4	0back/STIM_015.jpg	99
2584.636	0.392	391.6	0back	Block4	0back/STIM_015.jpg	99
2588.587	0.371	371.1	0back	Block4	0back/STIM_015.jpg	100
2591.901	0.498	497.6	0back	Block4	0back/STIM_016.jpg	100
2596.264	0.533	533.3	0back	Block4	0back/STIM_016.jpg	99
2599.959	0.414	413.5	0back	Block4	0back/STIM_016.jpg	100
2602.506	0.557	556.8	0back	Block4	0back/STIM_017.jpg	99
2606.157	0.519	519.2	0back	Block4	0back/STIM_017.jpg	99
2609.003	0.552	552.0	0back	Block4	0back/STIM_017.jpg	100
2613.447	0.493	493.1	0back	Block4	0back/STIM_018.jpg	100
2616.805	0.605	605.0	0back	Block4	0back/STIM_018.jpg	100
2620.379	0.557	556.7	0back	Block4	0back/STIM_018.jpg	100
2623.896	0.466	465.6	0back	Block4	0back/STIM_019.jpg	99
2627.184	0.588	587.8	0back	Block4	0back/STIM_019.jpg	100
2629.822	0.554	554.4	0back	Block4	0back/STIM_019.jpg	100
