onset	duration	accuracy	trial_type	learning_stage	stimulus
0.0	1.219	incorrect	2back	Block1	2back/STIM_000.jpg
4.122	0.778	correct	2back	Block1	2back/STIM_000.jpg
8.113	0.727	correct	2back	Block1	2back/STIM_000.jpg
11.261	0.831	correct	2back	Block1	2back/STIM_001.jpg
14.238	0.711	correct	2back	Block1	2back/STIM_001.jpg
18.738	0.783	incorrect	2back	Block1	2back/STIM_001.jpg
21.788	0.704	incorrect	2back	Block1	2back/STIM_002.jpg
25.349	0.794	correct	2back	Block1	2back/STIM_002.jpg
29.644	0.972	correct	2back	Block1	2back/STIM_002.jpg
34.497	0.842	incorrect	2back	Block1	2back/STIM_003.jpg
37.817	1.056	correct	2back	Block1	2back/STIM_003.jpg
40.984	0.85	incorrect	2back	Block1	2back/STIM_003.jpg
44.201	0.86	incorrect	2back	Block1	2back/STIM_004.jpg
48.808	0.993	incorrect	2back	Block1	2back/STIM_004.jpg
53.268	1.072	correct	2back	Block1	2back/STIM_004.jpg
56.795	0.671	incorrect	2back	Block1	2back/STIM_005.jpg
60.433	0.942	incorrect	2back	Block1	2back/STIM_005.jpg
64.01	0.654	correct	2back	Block1	2back/STIM_005.jpg
68.239	0.673	correct	2back	Block1	2back/STIM_006.jpg
72.667	0.755	incorrect	2back	Block1	2back/STIM_006.jpg
77.354	0.765	correct	2back	Block1	2back/STIM_006.jpg
80.317	0.569	incorrect	2back	Block1	2back/STIM_007.jpg
83.802	1.157	correct	2back	Block1	2back/STIM_007.jpg
88.518	0.785	correct	2back	Block1	2back/STIM_007.jpg
93.077	1.123	correct	2back	Block1	2back/STIM_008.jpg
97.09	0.647	correct	2back	Block1	2back/STIM_008.jpg
101.678	1.021	incorrect	2back	Block1	2back/STIM_008.jpg
106.006	0.876	correct	2back	Block1	2back/STIM_009.jpg
110.039	0.602	incorrect	2back	Block1	2back/STIM_009.jpg
114.225	0.526	correct	2back	Block1	2back/STIM_009.jpg
118.513	0.795	incorrect	2back	Block1	2back/STIM_010.jpg
123.254	0.588	incorrect	2back	Block1	2back/STIM_010.jpg
126.052	0.827	correct	2back	Block1	2back/STIM_010.jpg
130.522	0.882	correct	2back	Block1	2back/STIM_011.jpg
133.861	0.617	incorrect	2back	Block1	2back/STIM_011.jpg
138.068	0.93	correct	2back	Block1	2back/STIM_011.jpg
141.462	0.652	incorrect	2back	Block1	2back/STIM_012.jpg
144.757	0.844	correct	2back	Block1	2back/STIM_012.jpg
148.235	0.985	incorrect	2back	Block1	2back/STIM_012.jpg
153.076	0.662	correct	2back	Block1	2back/STIM_013.jpg
155.788	0.709	correct	2back	Block1	2back/STIM_013.jpg
159.842	0.649	incorrect	2back	Block1	2back/STIM_013.jpg
164.465	0.978	incorrect	2back	Block1	2back/STIM_014.jpg
168.998	0.865	incorrect	2back	Block1	2back/STIM_014.jpg
172.96	0.72	correct	2back	Block1	2back/STIM_014.jpg
176.494	0.931	incorrect	2back	Block1	2back/STIM_015.jpg
180.207	0.857	correct	2back	Block1	2back/STIM_015.jpg
183.464	1.097	correct	2back	Block1	2back/STIM_015.jpg
187.048	1.161	correct	2back	Block1	2back/STIM_016.jpg
190.746	0.685	incorrect	2back	Block1	2back/STIM_016.jpg
195.384	0.509	correct	2back	Block1	2back/STIM_016.jpg
199.176	0.892	incorrect	2back	Block1	2back/STIM_017.jpg
202.082	0.953	correct	2back	Block1	2back/STIM_017.jpg
205.63	0.638	incorrect	2back	Block1	2back/STIM_017.jpg
209.217	0.708	incorrect	2back	Block1	2back/STIM_018.jpg
212.337	0.972	incorrect	2back	Block1	2back/STIM_018.jpg
215.707	0.719	correct	2back	Block1	2back/STIM_018.jpg
219.97	0.763	correct	2back	Block1	2back/STIM_019.jpg
223.548	0.591	correct	2back	Block1	2back/STIM_019.jpg
226.565	0.674	correct	2back	Block1	2back/STIM_019.jpg
229.851	0.967	incorrect	2back	Block1	2back/STIM_020.jpg
233.157	0.988	incorrect	2back	Block1	2back/STIM_020.jpg
236.845	0.997	incorrect	2back	Block1	2back/STIM_020.jpg
240.543	0.857	incorrect	2back	Block1	2back/STIM_021.jpg
243.903	0.781	incorrect	2back	Block1	2back/STIM_021.jpg
247.303	0.698	incorrect	2back	Block1	2back/STIM_021.jpg
251.858	0.687	correct	2back	Block1	2back/STIM_022.jpg
255.385	0.619	correct	2back	Block1	2back/STIM_022.jpg
258.14	0.678	correct	2back	Block1	2back/STIM_022.jpg
260.87	0.846	incorrect	2back	Block1	2back/STIM_023.jpg
265.705	0.659	correct	2back	Block1	2back/STIM_023.jpg
269.401	0.977	incorrect	2back	Block1	2back/STIM_023.jpg
272.814	0.719	correct	2back	Block1	2back/STIM_024.jpg
275.647	0.677	correct	2back	Block1	2back/STIM_024.jpg
279.142	1.063	incorrect	2back	Block1	2back/STIM_024.jpg
283.504	0.638	correct	2back	Block1	2back/STIM_025.jpg
287.474	0.636	correct	2back	Block1	2back/STIM_025.jpg
292.02	0.739	correct	2back	Block1	2back/STIM_025.jpg
296.137	0.746	incorrect	2back	Block1	2back/STIM_026.jpg
300.177	0.648	correct	2back	Block1	2back/STIM_026.jpg
303.2	0.966	incorrect	2back	Block1	2back/STIM_026.jpg
308.147	0.539	correct	2back	Block1	2back/STIM_027.jpg
311.449	1.142	correct	2back	Block1	2back/STIM_027.jpg
316.207	0.575	incorrect	2back	Block1	2back/STIM_027.jpg
320.45	0.89	correct	2back	Block1	2back/STIM_028.jpg
325.042	0.847	correct	2back	Block1	2back/STIM_028.jpg
328.422	0.799	correct	2back	Block1	2back/STIM_028.jpg
331.67	0.752	correct	2back	Block1	2back/STIM_029.jpg
335.269	0.505	incorrect	2back	Block1	2back/STIM_029.jpg
338.337	0.626	correct	2back	Block1	2back/STIM_029.jpg
341.726	0.997	incorrect	2back	Block1	2back/STIM_030.jpg
345.738	0.881	correct	2back	Block1	2back/STIM_030.jpg
348.911	0.603	correct	2back	Block1	2back/STIM_030.jpg
351.992	1.065	incorrect	2back	Block1	2back/STIM_031.jpg
356.753	1.055	incorrect	2back	Block1	2back/STIM_031.jpg
360.686	0.581	correct	2back	Block1	2back/STIM_031.jpg
364.958	0.709	correct	2back	Block1	2back/STIM_032.jpg
369.374	0.699	correct	2back	Block1	2back/STIM_032.jpg
373.699	0.744	correct	2back	Block1	2back/STIM_032.jpg
377.163	0.949	incorrect	2back	Block1	2back/STIM_033.jpg
381.33	1.074	correct	2back	Block1	2back/STIM_033.jpg
384.968	1.06	correct	2back	Block1	2back/STIM_033.jpg
389.904	0.739	incorrect	2back	Block1	2back/STIM_034.jpg
394.133	0.844	incorrect	2back	Block1	2back/STIM_034.jpg
397.787	0.474	incorrect	2back	Block1	2back/STIM_034.jpg
401.511	1.027	correct	2back	Block1	2back/STIM_035.jpg
406.286	1.074	incorrect	2back	Block1	2back/STIM_035.jpg
410.034	0.852	correct	2back	Block1	2back/STIM_035.jpg
414.485	0.527	correct	2back	Block1	2back/STIM_036.jpg
417.267	0.539	correct	2back	Block1	2back/STIM_036.jpg
420.562	0.904	incorrect	2back	Block1	2back/STIM_036.jpg
424.987	1.171	correct	2back	Block1	2back/STIM_037.jpg
429.344	0.616	incorrect	2back	Block1	2back/STIM_037.jpg
432.271	0.551	correct	2back	Block1	2back/STIM_037.jpg
435.889	0.835	correct	2back	Block1	2back/STIM_038.jpg
439.302	1.023	correct	2back	Block1	2back/STIM_038.jpg
443.415	0.974	correct	2back	Block1	2back/STIM_038.jpg
447.144	0.854	correct	2back	Block1	2back/STIM_039.jpg
451.735	0.755	correct	2back	Block1	2back/STIM_039.jpg
455.224	0.49	correct	2back	Block1	2back/STIM_039.jpg
459.658	0.367	incorrect	0back	Block1	0back/STIM_000.jpg
462.879	0.677	correct	0back	Block1	0back/STIM_000.jpg
466.92	0.626	correct	0back	Block1	0back/STIM_000.jpg
470.335	0.545	correct	0back	Block1	0back/STIM_001.jpg
474.085	0.435	correct	0back	Block1	0back/STIM_001.jpg
478.098	0.388	incorrect	0back	Block1	0back/STIM_001.jpg
481.93	0.614	incorrect	0back	Block1	0back/STIM_002.jpg
484.883	0.459	correct	0back	Block1	0back/STIM_002.jpg
489.004	0.633	incorrect	0back	Block1	0back/STIM_002.jpg
493.022	0.605	incorrect	0back	Block1	0back/STIM_003.jpg
496.69	0.443	correct	0back	Block1	0back/STIM_003.jpg
499.759	0.541	correct	0back	Block1	0back/STIM_003.jpg
503.537	0.628	correct	0back	Block1	0back/STIM_004.jpg
507.089	0.598	correct	0back	Block1	0back/STIM_004.jpg
509.778	0.52	correct	0back	Block1	0back/STIM_004.jpg
512.621	0.472	incorrect	0back	Block1	0back/STIM_005.jpg
515.747	0.593	correct	0back	Block1	0back/STIM_005.jpg
519.92	0.493	correct	0back	Block1	0back/STIM_005.jpg
522.684	0.36	correct	0back	Block1	0back/STIM_006.jpg
526.056	0.444	correct	0back	Block1	0back/STIM_006.jpg
529.446	0.62	correct	0back	Block1	0back/STIM_006.jpg
532.213	0.555	correct	0back	Block1	0back/STIM_007.jpg
535.765	0.638	correct	0back	Block1	0back/STIM_007.jpg
540.39	0.645	correct	0back	Block1	0back/STIM_007.jpg
543.333	0.653	correct	0back	Block1	0back/STIM_008.jpg
546.566	0.363	correct	0back	Block1	0back/STIM_008.jpg
549.802	0.426	correct	0back	Block1	0back/STIM_008.jpg
553.702	0.36	correct	0back	Block1	0back/STIM_009.jpg
557.728	0.671	correct	0back	Block1	0back/STIM_009.jpg
561.921	0.561	incorrect	0back	Block1	0back/STIM_009.jpg
564.963	0.419	correct	0back	Block1	0back/STIM_010.jpg
568.586	0.513	correct	0back	Block1	0back/STIM_010.jpg
572.163	0.503	incorrect	0back	Block1	0back/STIM_010.jpg
575.516	0.493	correct	0back	Block1	0back/STIM_011.jpg
578.947	0.57	correct	0back	Block1	0back/STIM_011.jpg
583.279	0.466	correct	0back	Block1	0back/STIM_011.jpg
586.362	0.615	correct	0back	Block1	0back/STIM_012.jpg
589.568	0.404	correct	0back	Block1	0back/STIM_012.jpg
593.867	0.67	correct	0back	Block1	0back/STIM_012.jpg
597.559	0.532	correct	0back	Block1	0back/STIM_013.jpg
600.11	0.395	incorrect	0back	Block1	0back/STIM_013.jpg
604.023	0.533	correct	0back	Block1	0back/STIM_013.jpg
607.802	0.623	incorrect	0back	Block1	0back/STIM_014.jpg
611.708	0.654	correct	0back	Block1	0back/STIM_014.jpg
615.569	0.414	correct	0back	Block1	0back/STIM_014.jpg
619.059	0.502	correct	0back	Block1	0back/STIM_015.jpg
622.523	0.645	correct	0back	Block1	0back/STIM_015.jpg
625.199	0.662	correct	0back	Block1	0back/STIM_015.jpg
628.894	0.628	incorrect	0back	Block1	0back/STIM_016.jpg
632.137	0.617	correct	0back	Block1	0back/STIM_016.jpg
634.779	0.586	correct	0back	Block1	0back/STIM_016.jpg
638.89	0.587	correct	0back	Block1	0back/STIM_017.jpg
642.168	0.437	correct	0back	Block1	0back/STIM_017.jpg
646.419	0.526	correct	0back	Block1	0back/STIM_017.jpg
650.773	0.397	incorrect	0back	Block1	0back/STIM_018.jpg
654.369	0.504	correct	0back	Block1	0back/STIM_018.jpg
657.035	0.38	correct	0back	Block1	0back/STIM_018.jpg
661.01	0.631	correct	0back	Block1	0back/STIM_019.jpg
664.479	0.524	correct	0back	Block1	0back/STIM_019.jpg
668.429	0.493	correct	0back	Block1	0back/STIM_019.jpg
672.857	0.527	incorrect	2back	Block2	2back/STIM_000.jpg
676.927	0.77	correct	2back	Block2	2back/STIM_000.jpg
680.086	0.906	incorrect	2back	Block2	2back/STIM_000.jpg
683.389	0.89	incorrect	2back	Block2	2back/STIM_001.jpg
688.04	0.475	correct	2back	Block2	2back/STIM_001.jpg
691.541	0.452	correct	2back	Block2	2back/STIM_001.jpg
695.719	0.85	incorrect	2back	Block2	2back/STIM_002.jpg
699.093	0.956	incorrect	2back	Block2	2back/STIM_002.jpg
702.302	0.537	correct	2back	Block2	2back/STIM_002.jpg
705.498	0.911	incorrect	2back	Block2	2back/STIM_003.jpg
709.582	0.478	correct	2back	Block2	2back/STIM_003.jpg
712.756	0.515	incorrect	2back	Block2	2back/STIM_003.jpg
716.14	0.886	correct	2back	Block2	2back/STIM_004.jpg
720.814	0.689	correct	2back	Block2	2back/STIM_004.jpg
723.786	0.522	incorrect	2back	Block2	2back/STIM_004.jpg
726.952	0.802	correct	2back	Block2	2back/STIM_005.jpg
729.866	0.743	correct	2back	Block2	2back/STIM_005.jpg
733.902	0.758	incorrect	2back	Block2	2back/STIM_005.jpg
737.688	0.66	incorrect	2back	Block2	2back/STIM_006.jpg
741.336	0.625	incorrect	2back	Block2	2back/STIM_006.jpg
744.455	0.677	correct	2back	Block2	2back/STIM_006.jpg
748.07	0.824	incorrect	2back	Block2	2back/STIM_007.jpg
752.734	0.624	correct	2back	Block2	2back/STIM_007.jpg
756.72	0.514	incorrect	2back	Block2	2back/STIM_007.jpg
760.882	0.829	correct	2back	Block2	2back/STIM_008.jpg
763.973	0.883	correct	2back	Block2	2back/STIM_008.jpg
768.627	0.655	incorrect	2back	Block2	2back/STIM_008.jpg
772.517	0.704	incorrect	2back	Block2	2back/STIM_009.jpg
775.299	0.485	incorrect	2back	Block2	2back/STIM_009.jpg
778.903	0.858	correct	2back	Block2	2back/STIM_009.jpg
781.858	0.635	correct	2back	Block2	2back/STIM_010.jpg
785.744	0.822	correct	2back	Block2	2back/STIM_010.jpg
789.207	0.672	incorrect	2back	Block2	2back/STIM_010.jpg
791.914	0.457	incorrect	2back	Block2	2back/STIM_011.jpg
796.127	0.524	incorrect	2back	Block2	2back/STIM_011.jpg
800.407	0.461	incorrect	2back	Block2	2back/STIM_011.jpg
802.997	0.518	incorrect	2back	Block2	2back/STIM_012.jpg
806.458	0.746	incorrect	2back	Block2	2back/STIM_012.jpg
810.618	0.866	correct	2back	Block2	2back/STIM_012.jpg
813.864	0.932	incorrect	2back	Block2	2back/STIM_013.jpg
816.839	0.426	incorrect	2back	Block2	2back/STIM_013.jpg
819.423	0.862	correct	2back	Block2	2back/STIM_013.jpg
823.903	1.018	correct	2back	Block2	2back/STIM_014.jpg
828.605	0.546	incorrect	2back	Block2	2back/STIM_014.jpg
831.525	0.396	correct	2back	Block2	2back/STIM_014.jpg
835.0	0.814	correct	2back	Block2	2back/STIM_015.jpg
839.609	0.462	incorrect	2back	Block2	2back/STIM_015.jpg
843.047	0.874	correct	2back	Block2	2back/STIM_015.jpg
846.129	0.983	correct	2back	Block2	2back/STIM_016.jpg
850.571	0.489	correct	2back	Block2	2back/STIM_016.jpg
853.685	0.445	incorrect	2back	Block2	2back/STIM_016.jpg
857.502	0.647	correct	2back	Block2	2back/STIM_017.jpg
860.755	0.583	incorrect	2back	Block2	2back/STIM_017.jpg
864.152	0.843	incorrect	2back	Block2	2back/STIM_017.jpg
868.171	0.688	correct	2back	Block2	2back/STIM_018.jpg
871.794	0.623	incorrect	2back	Block2	2back/STIM_018.jpg
875.468	0.697	correct	2back	Block2	2back/STIM_018.jpg
878.318	0.78	correct	2back	Block2	2back/STIM_019.jpg
881.445	0.784	correct	2back	Block2	2back/STIM_019.jpg
885.242	0.812	incorrect	2back	Block2	2back/STIM_019.jpg
888.909	0.701	correct	2back	Block2	2back/STIM_020.jpg
892.366	0.494	correct	2back	Block2	2back/STIM_020.jpg
896.747	0.484	incorrect	2back	Block2	2back/STIM_020.jpg
901.201	0.509	correct	2back	Block2	2back/STIM_021.jpg
904.887	0.687	correct	2back	Block2	2back/STIM_021.jpg
907.693	0.494	incorrect	2back	Block2	2back/STIM_021.jpg
911.041	0.542	correct	2back	Block2	2back/STIM_022.jpg
915.175	0.752	correct	2back	Block2	2back/STIM_022.jpg
919.667	0.769	correct	2back	Block2	2back/STIM_022.jpg
922.723	1.007	incorrect	2back	Block2	2back/STIM_023.jpg
927.141	0.735	incorrect	2back	Block2	2back/STIM_023.jpg
931.07	0.762	incorrect	2back	Block2	2back/STIM_023.jpg
934.014	0.521	correct	2back	Block2	2back/STIM_024.jpg
936.878	0.458	correct	2back	Block2	2back/STIM_024.jpg
940.945	0.677	correct	2back	Block2	2back/STIM_024.jpg
944.385	0.727	incorrect	2back	Block2	2back/STIM_025.jpg
948.979	0.824	correct	2back	Block2	2back/STIM_025.jpg
952.777	0.627	correct	2back	Block2	2back/STIM_025.jpg
957.087	0.695	correct	2back	Block2	2back/STIM_026.jpg
961.552	0.748	incorrect	2back	Block2	2back/STIM_026.jpg
966.003	0.878	correct	2back	Block2	2back/STIM_026.jpg
970.281	0.765	correct	2back	Block2	2back/STIM_027.jpg
973.445	0.901	correct	2back	Block2	2back/STIM_027.jpg
977.476	0.61	incorrect	2back	Block2	2back/STIM_027.jpg
980.216	0.561	correct	2back	Block2	2back/STIM_028.jpg
984.649	0.78	correct	2back	Block2	2back/STIM_028.jpg
987.921	0.825	correct	2back	Block2	2back/STIM_028.jpg
992.704	1.037	correct	2back	Block2	2back/STIM_029.jpg
995.816	0.796	correct	2back	Block2	2back/STIM_029.jpg
999.991	0.67	correct	2back	Block2	2back/STIM_029.jpg
1002.97	0.49	correct	2back	Block2	2back/STIM_030.jpg
1007.124	0.831	incorrect	2back	Block2	2back/STIM_030.jpg
1009.969	0.397	incorrect	2back	Block2	2back/STIM_030.jpg
1012.592	0.5	incorrect	2back	Block2	2back/STIM_031.jpg
1016.334	0.662	correct	2back	Block2	2back/STIM_031.jpg
1019.673	0.881	correct	2back	Block2	2back/STIM_031.jpg
1022.849	1.004	incorrect	2back	Block2	2back/STIM_032.jpg
1026.629	0.593	correct	2back	Block2	2back/STIM_032.jpg
1031.15	0.522	correct	2back	Block2	2back/STIM_032.jpg
1035.045	0.558	correct	2back	Block2	2back/STIM_033.jpg
1038.204	0.472	incorrect	2back	Block2	2back/STIM_033.jpg
1040.762	0.845	incorrect	2back	Block2	2back/STIM_033.jpg
1045.005	0.532	correct	2back	Block2	2back/STIM_034.jpg
1049.236	0.919	correct	2back	Block2	2back/STIM_034.jpg
1053.135	0.823	correct	2back	Block2	2back/STIM_034.jpg
1057.522	0.852	correct	2back	Block2	2back/STIM_035.jpg
1061.042	0.574	incorrect	2back	Block2	2back/STIM_035.jpg
1064.116	0.801	incorrect	2back	Block2	2back/STIM_035.jpg
1067.234	1.012	correct	2back	Block2	2back/STIM_036.jpg
1072.213	0.941	correct	2back	Block2	2back/STIM_036.jpg
1075.902	0.832	correct	2back	Block2	2back/STIM_036.jpg
1079.725	0.745	correct	2back	Block2	2back/STIM_037.jpg
1082.994	0.69	incorrect	2back	Block2	2back/STIM_037.jpg
1087.357	0.728	correct	2back	Block2	2back/STIM_037.jpg
1090.97	0.822	correct	2back	Block2	2back/STIM_038.jpg
1095.351	0.489	correct	2back	Block2	2back/STIM_038.jpg
1099.479	0.589	incorrect	2back	Block2	2back/STIM_038.jpg
1102.262	0.896	incorrect	2back	Block2	2back/STIM_039.jpg
1105.55	0.921	incorrect	2back	Block2	2back/STIM_039.jpg
1109.745	0.672	correct	2back	Block2	2back/STIM_039.jpg
1112.743	0.43	correct	0back	Block2	0back/STIM_000.jpg
1116.942	0.382	correct	0back	Block2	0back/STIM_000.jpg
1120.136	0.493	incorrect	0back	Block2	0back/STIM_000.jpg
1124.372	0.679	correct	0back	Block2	0back/STIM_001.jpg
1128.598	0.487	correct	0back	Block2	0back/STIM_001.jpg
1132.312	0.525	correct	0back	Block2	0back/STIM_001.jpg
1136.672	0.545	correct	0back	Block2	0back/STIM_002.jpg
1139.628	0.498	correct	0back	Block2	0back/STIM_002.jpg
1143.236	0.548	correct	0back	Block2	0back/STIM_002.jpg
1147.345	0.676	incorrect	0back	Block2	0back/STIM_003.jpg
1150.031	0.387	correct	0back	Block2	0back/STIM_003.jpg
1154.127	0.484	correct	0back	Block2	0back/STIM_003.jpg
1157.532	0.358	incorrect	0back	Block2	0back/STIM_004.jpg
1160.168	0.652	correct	0back	Block2	0back/STIM_004.jpg
1164.422	0.371	correct	0back	Block2	0back/STIM_004.jpg
1167.887	0.484	correct	0back	Block2	0back/STIM_005.jpg
1172.26	0.373	correct	0back	Block2	0back/STIM_005.jpg
1175.885	0.618	correct	0back	Block2	0back/STIM_005.jpg
1179.985	0.63	incorrect	0back	Block2	0back/STIM_006.jpg
1182.632	0.579	correct	0back	Block2	0back/STIM_006.jpg
1185.911	0.672	correct	0back	Block2	0back/STIM_006.jpg
1189.997	0.453	incorrect	0back	Block2	0back/STIM_007.jpg
1193.044	0.525	correct	0back	Block2	0back/STIM_007.jpg
1195.633	0.501	incorrect	0back	Block2	0back/STIM_007.jpg
1199.262	0.498	incorrect	0back	Block2	0back/STIM_008.jpg
1203.58	0.615	incorrect	0back	Block2	0back/STIM_008.jpg
1206.835	0.526	correct	0back	Block2	0back/STIM_008.jpg
1210.34	0.415	correct	0back	Block2	0back/STIM_009.jpg
1214.564	0.359	incorrect	0back	Block2	0back/STIM_009.jpg
1217.404	0.556	correct	0back	Block2	0back/STIM_009.jpg
1220.828	0.583	correct	0back	Block2	0back/STIM_010.jpg
1223.509	0.642	correct	0back	Block2	0back/STIM_010.jpg
1226.252	0.555	correct	0back	Block2	0back/STIM_010.jpg
1229.495	0.537	correct	0back	Block2	0back/STIM_011.jpg
1233.295	0.486	incorrect	0back	Block2	0back/STIM_011.jpg
1236.512	0.487	correct	0back	Block2	0back/STIM_011.jpg
1239.992	0.663	correct	0back	Block2	0back/STIM_012.jpg
1244.448	0.581	incorrect	0back	Block2	0back/STIM_012.jpg
1247.597	0.679	correct	0back	Block2	0back/STIM_012.jpg
1251.681	0.394	correct	0back	Block2	0back/STIM_013.jpg
1254.711	0.564	correct	0back	Block2	0back/STIM_013.jpg
1259.034	0.363	correct	0back	Block2	0back/STIM_013.jpg
1261.803	0.475	correct	0back	Block2	0back/STIM_014.jpg
1265.199	0.649	correct	0back	Block2	0back/STIM_014.jpg
1269.63	0.547	correct	0back	Block2	0back/STIM_014.jpg
1273.697	0.67	correct	0back	Block2	0back/STIM_015.jpg
1277.215	0.496	correct	0back	Block2	0back/STIM_015.jpg
1281.657	0.531	incorrect	0back	Block2	0back/STIM_015.jpg
1285.74	0.697	correct	0back	Block2	0back/STIM_016.jpg
1288.603	0.353	correct	0back	Block2	0back/STIM_016.jpg
1291.458	0.667	correct	0back	Block2	0back/STIM_016.jpg
1295.914	0.622	correct	0back	Block2	0back/STIM_017.jpg
1299.92	0.526	correct	0back	Block2	0back/STIM_017.jpg
1302.601	0.423	incorrect	0back	Block2	0back/STIM_017.jpg
1305.435	0.416	correct	0back	Block2	0back/STIM_018.jpg
1308.455	0.631	correct	0back	Block2	0back/STIM_018.jpg
1312.479	0.576	correct	0back	Block2	0back/STIM_018.jpg
1316.807	0.43	correct	0back	Block2	0back/STIM_019.jpg
1319.867	0.476	incorrect	0back	Block2	0back/STIM_019.jpg
1323.988	0.656	incorrect	0back	Block2	0back/STIM_019.jpg
1327.514	0.619	correct	2back	Block3	2back/STIM_000.jpg
1330.413	0.815	incorrect	2back	Block3	2back/STIM_000.jpg
1335.171	0.394	correct	2back	Block3	2back/STIM_000.jpg
1338.39	0.676	incorrect	2back	Block3	2back/STIM_001.jpg
1342.709	0.692	correct	2back	Block3	2back/STIM_001.jpg
1347.21	0.453	correct	2back	Block3	2back/STIM_001.jpg
1350.993	0.541	incorrect	2back	Block3	2back/STIM_002.jpg
1353.746	0.65	correct	2back	Block3	2back/STIM_002.jpg
1357.227	0.582	correct	2back	Block3	2back/STIM_002.jpg
1360.501	0.6	correct	2back	Block3	2back/STIM_003.jpg
1364.911	0.511	correct	2back	Block3	2back/STIM_003.jpg
1367.81	0.736	incorrect	2back	Block3	2back/STIM_003.jpg
1370.896	0.675	correct	2back	Block3	2back/STIM_004.jpg
1375.38	0.672	correct	2back	Block3	2back/STIM_004.jpg
1378.579	0.445	correct	2back	Block3	2back/STIM_004.jpg
1381.758	0.77	correct	2back	Block3	2back/STIM_005.jpg
1384.633	0.528	correct	2back	Block3	2back/STIM_005.jpg
1387.575	0.841	incorrect	2back	Block3	2back/STIM_005.jpg
1391.476	0.635	incorrect	2back	Block3	2back/STIM_006.jpg
1394.939	0.745	incorrect	2back	Block3	2back/STIM_006.jpg
1398.584	0.578	correct	2back	Block3	2back/STIM_006.jpg
1401.948	0.727	correct	2back	Block3	2back/STIM_007.jpg
1404.744	0.568	correct	2back	Block3	2back/STIM_007.jpg
1407.448	0.776	correct	2back	Block3	2back/STIM_007.jpg
1411.896	0.535	correct	2back	Block3	2back/STIM_008.jpg
1414.635	0.461	correct	2back	Block3	2back/STIM_008.jpg
1418.287	0.58	correct	2back	Block3	2back/STIM_008.jpg
1421.835	0.624	correct	2back	Block3	2back/STIM_009.jpg
1426.427	0.701	correct	2back	Block3	2back/STIM_009.jpg
1429.889	0.614	incorrect	2back	Block3	2back/STIM_009.jpg
1433.554	0.815	correct	2back	Block3	2back/STIM_010.jpg
1437.036	0.622	incorrect	2back	Block3	2back/STIM_010.jpg
1440.065	0.818	correct	2back	Block3	2back/STIM_010.jpg
1443.781	0.657	incorrect	2back	Block3	2back/STIM_011.jpg
1446.95	0.398	incorrect	2back	Block3	2back/STIM_011.jpg
1450.606	0.555	incorrect	2back	Block3	2back/STIM_011.jpg
1454.354	0.8	incorrect	2back	Block3	2back/STIM_012.jpg
1457.196	0.792	correct	2back	Block3	2back/STIM_012.jpg
1461.934	0.77	correct	2back	Block3	2back/STIM_012.jpg
1465.221	0.692	correct	2back	Block3	2back/STIM_013.jpg
1468.844	0.7	correct	2back	Block3	2back/STIM_013.jpg
1473.205	0.655	correct	2back	Block3	2back/STIM_013.jpg
1477.231	0.777	incorrect	2back	Block3	2back/STIM_014.jpg
1480.012	0.475	correct	2back	Block3	2back/STIM_014.jpg
1484.071	0.624	incorrect	2back	Block3	2back/STIM_014.jpg
1487.347	0.602	correct	2back	Block3	2back/STIM_015.jpg
1490.832	0.423	incorrect	2back	Block3	2back/STIM_015.jpg
1495.193	0.842	correct	2back	Block3	2back/STIM_015.jpg
1499.027	0.775	correct	2back	Block3	2back/STIM_016.jpg
1503.475	0.557	correct	2back	Block3	2back/STIM_016.jpg
1506.261	0.563	incorrect	2back	Block3	2back/STIM_016.jpg
1510.189	0.721	incorrect	2back	Block3	2back/STIM_017.jpg
1513.269	0.574	correct	2back	Block3	2back/STIM_017.jpg
1516.585	0.384	correct	2back	Block3	2back/STIM_017.jpg
1519.969	0.812	incorrect	2back	Block3	2back/STIM_018.jpg
1523.087	0.649	correct	2back	Block3	2back/STIM_018.jpg
1526.862	0.674	correct	2back	Block3	2back/STIM_018.jpg
1531.16	0.626	correct	2back	Block3	2back/STIM_019.jpg
1535.526	0.481	incorrect	2back	Block3	2back/STIM_019.jpg
1538.801	0.391	correct	2back	Block3	2back/STIM_019.jpg
1541.235	0.541	incorrect	2back	Block3	2back/STIM_020.jpg
1544.916	0.813	incorrect	2back	Block3	2back/STIM_020.jpg
1548.205	0.815	correct	2back	Block3	2back/STIM_020.jpg
1551.881	0.58	incorrect	2back	Block3	2back/STIM_021.jpg
1555.275	0.603	correct	2back	Block3	2back/STIM_021.jpg
1558.201	0.525	correct	2back	Block3	2back/STIM_021.jpg
1561.954	0.742	correct	2back	Block3	2back/STIM_022.jpg
1565.206	0.803	incorrect	2back	Block3	2back/STIM_022.jpg
1569.666	0.483	correct	2back	Block3	2back/STIM_022.jpg
1573.121	0.503	correct	2back	Block3	2back/STIM_023.jpg
1577.198	0.514	correct	2back	Block3	2back/STIM_023.jpg
1580.232	0.735	correct	2back	Block3	2back/STIM_023.jpg
1583.391	0.681	incorrect	2back	Block3	2back/STIM_024.jpg
1586.958	0.799	correct	2back	Block3	2back/STIM_024.jpg
1591.223	0.553	correct	2back	Block3	2back/STIM_024.jpg
1595.268	0.408	correct	2back	Block3	2back/STIM_025.jpg
1598.896	0.636	correct	2back	Block3	2back/STIM_025.jpg
1601.893	0.799	correct	2back	Block3	2back/STIM_025.jpg
1605.651	0.429	correct	2back	Block3	2back/STIM_026.jpg
1609.496	0.791	correct	2back	Block3	2back/STIM_026.jpg
1613.925	0.558	correct	2back	Block3	2back/STIM_026.jpg
1618.245	0.518	correct	2back	Block3	2back/STIM_027.jpg
1622.529	0.486	incorrect	2back	Block3	2back/STIM_027.jpg
1626.541	0.663	correct	2back	Block3	2back/STIM_027.jpg
1629.473	0.699	correct	2back	Block3	2back/STIM_028.jpg
1633.99	0.599	correct	2back	Block3	2back/STIM_028.jpg
1637.657	0.572	correct	2back	Block3	2back/STIM_028.jpg
1641.619	0.538	correct	2back	Block3	2back/STIM_029.jpg
1645.414	0.573	incorrect	2back	Block3	2back/STIM_029.jpg
1649.541	0.828	correct	2back	Block3	2back/STIM_029.jpg
1652.437	0.553	incorrect	2back	Block3	2back/STIM_030.jpg
1655.433	0.848	incorrect	2back	Block3	2back/STIM_030.jpg
1659.263	0.547	correct	2back	Block3	2back/STIM_030.jpg
1663.393	0.45	correct	2back	Block3	2back/STIM_031.jpg
1667.531	0.41	correct	2back	Block3	2back/STIM_031.jpg
1671.13	0.802	correct	2back	Block3	2back/STIM_031.jpg
1674.9	0.778	correct	2back	Block3	2back/STIM_032.jpg
1679.035	0.395	correct	2back	Block3	2back/STIM_032.jpg
1683.15	0.665	correct	2back	Block3	2back/STIM_032.jpg
1686.709	0.623	correct	2back	Block3	2back/STIM_033.jpg
1690.278	0.724	correct	2back	Block3	2back/STIM_033.jpg
1693.794	0.715	correct	2back	Block3	2back/STIM_033.jpg
1698.237	0.7	correct	2back	Block3	2back/STIM_034.jpg
1702.805	0.425	correct	2back	Block3	2back/STIM_034.jpg
1705.872	0.812	correct	2back	Block3	2back/STIM_034.jpg
1708.937	0.771	correct	2back	Block3	2back/STIM_035.jpg
1712.307	0.377	correct	2back	Block3	2back/STIM_035.jpg
1715.219	0.757	correct	2back	Block3	2back/STIM_035.jpg
1719.246	0.519	correct	2back	Block3	2back/STIM_036.jpg
1723.004	0.472	correct	2back	Block3	2back/STIM_036.jpg
1726.774	0.562	correct	2back	Block3	2back/STIM_036.jpg
1731.177	0.472	correct	2back	Block3	2back/STIM_037.jpg
1734.249	0.578	correct	2back	Block3	2back/STIM_037.jpg
1738.707	0.787	correct	2back	Block3	2back/STIM_037.jpg
1743.222	0.798	correct	2back	Block3	2back/STIM_038.jpg
1747.19	0.735	correct	2back	Block3	2back/STIM_038.jpg
1751.356	0.842	correct	2back	Block3	2back/STIM_038.jpg
1755.973	0.665	correct	2back	Block3	2back/STIM_039.jpg
1759.283	0.544	correct	2back	Block3	2back/STIM_039.jpg
1762.534	0.397	correct	2back	Block3	2back/STIM_039.jpg
1766.903	0.625	correct	0back	Block3	0back/STIM_000.jpg
1770.386	0.577	incorrect	0back	Block3	0back/STIM_000.jpg
1774.485	0.693	incorrect	0back	Block3	0back/STIM_000.jpg
1777.425	0.69	correct	0back	Block3	0back/STIM_001.jpg
1780.229	0.396	correct	0back	Block3	0back/STIM_001.jpg
1783.679	0.601	correct	0back	Block3	0back/STIM_001.jpg
1788.242	0.472	correct	0back	Block3	0back/STIM_002.jpg
1790.766	0.597	correct	0back	Block3	0back/STIM_002.jpg
1794.065	0.632	correct	0back	Block3	0back/STIM_002.jpg
1797.707	0.351	incorrect	0back	Block3	0back/STIM_003.jpg
1801.833	0.432	incorrect	0back	Block3	0back/STIM_003.jpg
1805.05	0.585	correct	0back	Block3	0back/STIM_003.jpg
1807.988	0.686	correct	0back	Block3	0back/STIM_004.jpg
1811.494	0.694	incorrect	0back	Block3	0back/STIM_004.jpg
1815.894	0.63	correct	0back	Block3	0back/STIM_004.jpg
1820.288	0.652	correct	0back	Block3	0back/STIM_005.jpg
1824.585	0.589	incorrect	0back	Block3	0back/STIM_005.jpg
1828.484	0.577	correct	0back	Block3	0back/STIM_005.jpg
1832.96	0.371	correct	0back	Block3	0back/STIM_006.jpg
1836.282	0.467	incorrect	0back	Block3	0back/STIM_006.jpg
1839.832	0.363	correct	0back	Block3	0back/STIM_006.jpg
1842.537	0.522	incorrect	0back	Block3	0back/STIM_007.jpg
1845.547	0.399	correct	0back	Block3	0back/STIM_007.jpg
1848.465	0.448	correct	0back	Block3	0back/STIM_007.jpg
1852.63	0.492	correct	0back	Block3	0back/STIM_008.jpg
1856.295	0.558	incorrect	0back	Block3	0back/STIM_008.jpg
1859.678	0.63	correct	0back	Block3	0back/STIM_008.jpg
1863.54	0.635	correct	0back	Block3	0back/STIM_009.jpg
1867.981	0.465	correct	0back	Block3	0back/STIM_009.jpg
1871.555	0.657	correct	0back	Block3	0back/STIM_009.jpg
1875.309	0.355	correct	0back	Block3	0back/STIM_010.jpg
1879.513	0.419	incorrect	0back	Block3	0back/STIM_010.jpg
1883.204	0.564	correct	0back	Block3	0back/STIM_010.jpg
1887.612	0.413	correct	0back	Block3	0back/STIM_011.jpg
1891.009	0.626	incorrect	0back	Block3	0back/STIM_011.jpg
1895.167	0.523	correct	0back	Block3	0back/STIM_011.jpg
1899.096	0.449	correct	0back	Block3	0back/STIM_012.jpg
1903.207	0.399	correct	0back	Block3	0back/STIM_012.jpg
1906.282	0.369	correct	0back	Block3	0back/STIM_012.jpg
1908.973	0.366	correct	0back	Block3	0back/STIM_013.jpg
1913.168	0.393	correct	0back	Block3	0back/STIM_013.jpg
1916.157	0.551	correct	0back	Block3	0back/STIM_013.jpg
1920.355	0.452	correct	0back	Block3	0back/STIM_014.jpg
1924.358	0.426	correct	0back	Block3	0back/STIM_014.jpg
1926.795	0.687	correct	0back	Block3	0back/STIM_014.jpg
1929.739	0.525	correct	0back	Block3	0back/STIM_015.jpg
1933.985	0.426	correct	0back	Block3	0back/STIM_015.jpg
1937.641	0.576	correct	0back	Block3	0back/STIM_015.jpg
1941.876	0.677	correct	0back	Block3	0back/STIM_016.jpg
1944.565	0.626	incorrect	0back	Block3	0back/STIM_016.jpg
1947.362	0.446	correct	0back	Block3	0back/STIM_016.jpg
1950.257	0.61	correct	0back	Block3	0back/STIM_017.jpg
1953.501	0.588	incorrect	0back	Block3	0back/STIM_017.jpg
1956.238	0.536	correct	0back	Block3	0back/STIM_017.jpg
1959.138	0.635	correct	0back	Block3	0back/STIM_018.jpg
1962.899	0.7	correct	0back	Block3	0back/STIM_018.jpg
1967.025	0.46	incorrect	0back	Block3	0back/STIM_018.jpg
1970.511	0.629	correct	0back	Block3	0back/STIM_019.jpg
1974.08	0.664	correct	0back	Block3	0back/STIM_019.jpg
1978.657	0.636	incorrect	0back	Block3	0back/STIM_019.jpg
1982.191	0.472	correct	2back	Block4	2back/STIM_000.jpg
1986.55	0.565	correct	2back	Block4	2back/STIM_000.jpg
1990.413	0.4	correct	2back	Block4	2back/STIM_000.jpg
1994.755	0.461	incorrect	2back	Block4	2back/STIM_001.jpg
1998.673	0.758	correct	2back	Block4	2back/STIM_001.jpg
2003.143	0.748	correct	2back	Block4	2back/STIM_001.jpg
2006.95	0.823	correct	2back	Block4	2back/STIM_002.jpg
2009.923	0.621	incorrect	2back	Block4	2back/STIM_002.jpg
2013.088	0.749	correct	2back	Block4	2back/STIM_002.jpg
2017.268	0.822	correct	2back	Block4	2back/STIM_003.jpg
2021.928	0.508	correct	2back	Block4	2back/STIM_003.jpg
2024.589	0.521	correct	2back	Block4	2back/STIM_003.jpg
2027.181	0.766	correct	2back	Block4	2back/STIM_004.jpg
2031.437	0.797	correct	2back	Block4	2back/STIM_004.jpg
2035.486	0.766	incorrect	2back	Block4	2back/STIM_004.jpg
2040.108	0.6	correct	2back	Block4	2back/STIM_005.jpg
2043.886	0.728	correct	2back	Block4	2back/STIM_005.jpg
2046.842	0.75	correct	2back	Block4	2back/STIM_005.jpg
2051.253	0.838	correct	2back	Block4	2back/STIM_006.jpg
2054.602	0.43	correct	2back	Block4	2back/STIM_006.jpg
2057.633	0.763	correct	2back	Block4	2back/STIM_006.jpg
2060.519	0.84	correct	2back	Block4	2back/STIM_007.jpg
2064.271	0.708	correct	2back	Block4	2back/STIM_007.jpg
2068.078	0.799	correct	2back	Block4	2back/STIM_007.jpg
2072.387	0.519	correct	2back	Block4	2back/STIM_008.jpg
2076.727	0.666	correct	2back	Block4	2back/STIM_008.jpg
2079.486	0.801	incorrect	2back	Block4	2back/STIM_008.jpg
2083.386	0.714	correct	2back	Block4	2back/STIM_009.jpg
2086.469	0.371	correct	2back	Block4	2back/STIM_009.jpg
2089.454	0.85	correct	2back	Block4	2back/STIM_009.jpg
2094.133	0.583	correct	2back	Block4	2back/STIM_010.jpg
2097.014	0.671	correct	2back	Block4	2back/STIM_010.jpg
2100.033	0.616	correct	2back	Block4	2back/STIM_010.jpg
2102.905	0.456	correct	2back	Block4	2back/STIM_011.jpg
2106.171	0.81	correct	2back	Block4	2back/STIM_011.jpg
2109.743	0.508	correct	2back	Block4	2back/STIM_011.jpg
2114.133	0.416	correct	2back	Block4	2back/STIM_012.jpg
2117.651	0.606	correct	2back	Block4	2back/STIM_012.jpg
2121.426	0.482	correct	2back	Block4	2back/STIM_012.jpg
2125.725	0.654	correct	2back	Block4	2back/STIM_013.jpg
2129.526	0.473	correct	2back	Block4	2back/STIM_013.jpg
2133.901	0.842	incorrect	2back	Block4	2back/STIM_013.jpg
2137.802	0.514	correct	2back	Block4	2back/STIM_014.jpg
2141.252	0.392	correct	2back	Block4	2back/STIM_014.jpg
2143.787	0.46	correct	2back	Block4	2back/STIM_014.jpg
2147.822	0.582	correct	2back	Block4	2back/STIM_015.jpg
2151.347	0.682	correct	2back	Block4	2back/STIM_015.jpg
2156.01	0.795	correct	2back	Block4	2back/STIM_015.jpg
2160.543	0.699	incorrect	2back	Block4	2back/STIM_016.jpg
2163.682	0.586	incorrect	2back	Block4	2back/STIM_016.jpg
2168.171	0.485	correct	2back	Block4	2back/STIM_016.jpg
2172.292	0.705	correct	2back	Block4	2back/STIM_017.jpg
2175.065	0.715	correct	2back	Block4	2back/STIM_017.jpg
2178.076	0.804	correct	2back	Block4	2back/STIM_017.jpg
2182.683	0.571	correct	2back	Block4	2back/STIM_018.jpg
2186.791	0.407	correct	2back	Block4	2back/STIM_018.jpg
2189.3	0.642	correct	2back	Block4	2back/STIM_018.jpg
2191.943	0.605	correct	2back	Block4	2back/STIM_019.jpg
2195.888	0.599	correct	2back	Block4	2back/STIM_019.jpg
2200.459	0.639	incorrect	2back	Block4	2back/STIM_019.jpg
2204.337	0.742	incorrect	2back	Block4	2back/STIM_020.jpg
2207.738	0.421	correct	2back	Block4	2back/STIM_020.jpg
2210.952	0.457	correct	2back	Block4	2back/STIM_020.jpg
2215.281	0.534	correct	2back	Block4	2back/STIM_021.jpg
2218.854	0.821	correct	2back	Block4	2back/STIM_021.jpg
2222.175	0.846	correct	2back	Block4	2back/STIM_021.jpg
2225.553	0.482	correct	2back	Block4	2back/STIM_022.jpg
2228.527	0.659	correct	2back	Block4	2back/STIM_022.jpg
2231.769	0.766	correct	2back	Block4	2back/STIM_022.jpg
2235.697	0.45	incorrect	2back	Block4	2back/STIM_023.jpg
2240.039	0.497	incorrect	2back	Block4	2back/STIM_023.jpg
2244.325	0.6	correct	2back	Block4	2back/STIM_023.jpg
2248.716	0.757	correct	2back	Block4	2back/STIM_024.jpg
2252.345	0.627	correct	2back	Block4	2back/STIM_024.jpg
2256.545	0.557	correct	2back	Block4	2back/STIM_024.jpg
2260.535	0.496	correct	2back	Block4	2back/STIM_025.jpg
2263.077	0.533	correct	2back	Block4	2back/STIM_025.jpg
2266.247	0.596	correct	2back	Block4	2back/STIM_025.jpg
2269.951	0.462	incorrect	2back	Block4	2back/STIM_026.jpg
2273.94	0.558	correct	2back	Block4	2back/STIM_026.jpg
2277.459	0.435	correct	2back	Block4	2back/STIM_026.jpg
2281.509	0.614	correct	2back	Block4	2back/STIM_027.jpg
2285.487	0.664	incorrect	2back	Block4	2back/STIM_027.jpg
2289.304	0.779	correct	2back	Block4	2back/STIM_027.jpg
2292.879	0.55	correct	2back	Block4	2back/STIM_028.jpg
2296.644	0.686	correct	2back	Block4	2back/STIM_028.jpg
2300.938	0.378	correct	2back	Block4	2back/STIM_028.jpg
2303.73	0.687	correct	2back	Block4	2back/STIM_029.jpg
2306.904	0.433	correct	2back	Block4	2back/STIM_029.jpg
2310.599	0.759	incorrect	2back	Block4	2back/STIM_029.jpg
2315.125	0.396	correct	2back	Block4	2back/STIM_030.jpg
2319.315	0.769	incorrect	2back	Block4	2back/STIM_030.jpg
2322.35	0.373	correct	2back	Block4	2back/STIM_030.jpg
2326.411	0.444	correct	2back	Block4	2back/STIM_031.jpg
2330.75	0.644	correct	2back	Block4	2back/STIM_031.jpg
2334.381	0.7	correct	2back	Block4	2back/STIM_031.jpg
2338.067	0.62	correct	2back	Block4	2back/STIM_032.jpg
2340.961	0.497	incorrect	2back	Block4	2back/STIM_032.jpg
2343.801	0.507	incorrect	2back	Block4	2back/STIM_032.jpg
2347.064	0.454	incorrect	2back	Block4	2back/STIM_033.jpg
2350.882	0.837	correct	2back	Block4	2back/STIM_033.jpg
2354.227	0.621	incorrect	2back	Block4	2back/STIM_033.jpg
2358.305	0.461	correct	2back	Block4	2back/STIM_034.jpg
2361.394	0.816	correct	2back	Block4	2back/STIM_034.jpg
2365.096	0.588	incorrect	2back	Block4	2back/STIM_034.jpg
2369.167	0.37	correct	2back	Block4	2back/STIM_035.jpg
2372.811	0.444	correct	2back	Block4	2back/STIM_035.jpg
2375.321	0.654	correct	2back	Block4	2back/STIM_035.jpg
2378.197	0.608	correct	2back	Block4	2back/STIM_036.jpg
2381.343	0.581	correct	2back	Block4	2back/STIM_036.jpg
2384.506	0.823	correct	2back	Block4	2back/STIM_036.jpg
2388.397	0.448	correct	2back	Block4	2back/STIM_037.jpg
2390.981	0.427	incorrect	2back	Block4	2back/STIM_037.jpg
2394.952	0.61	correct	2back	Block4	2back/STIM_037.jpg
2397.669	0.8	correct	2back	Block4	2back/STIM_038.jpg
2401.811	0.413	correct	2back	Block4	2back/STIM_038.jpg
2404.79	0.477	incorrect	2back	Block4	2back/STIM_038.jpg
2409.122	0.719	correct	2back	Block4	2back/STIM_039.jpg
2412.57	0.707	correct	2back	Block4	2back/STIM_039.jpg
2416.767	0.441	correct	2back	Block4	2back/STIM_039.jpg
2420.923	0.404	correct	0back	Block4	0back/STIM_000.jpg
2424.54	0.377	incorrect	0back	Block4	0back/STIM_000.jpg
2427.243	0.474	incorrect	0back	Block4	0back/STIM_000.jpg
2430.752	0.375	correct	0back	Block4	0back/STIM_001.jpg
2433.735	0.69	correct	0back	Block4	0back/STIM_001.jpg
2437.881	0.666	correct	0back	Block4	0back/STIM_001.jpg
2440.862	0.578	correct	0back	Block4	0back/STIM_002.jpg
2444.256	0.544	correct	0back	Block4	0back/STIM_002.jpg
2448.403	0.411	correct	0back	Block4	0back/STIM_002.jpg
2452.122	0.611	correct	0back	Block4	0back/STIM_003.jpg
2456.173	0.42	correct	0back	Block4	0back/STIM_003.jpg
2460.312	0.415	correct	0back	Block4	0back/STIM_003.jpg
2462.834	0.419	correct	0back	Block4	0back/STIM_004.jpg
2465.938	0.699	correct	0back	Block4	0back/STIM_004.jpg
2469.366	0.35	correct	0back	Block4	0back/STIM_004.jpg
2472.787	0.526	correct	0back	Block4	0back/STIM_005.jpg
2477.205	0.503	incorrect	0back	Block4	0back/STIM_005.jpg
2480.484	0.633	correct	0back	Block4	0back/STIM_005.jpg
2483.896	0.56	correct	0back	Block4	0back/STIM_006.jpg
2487.201	0.572	correct	0back	Block4	0back/STIM_006.jpg
2491.088	0.564	incorrect	0back	Block4	0back/STIM_006.jpg
2494.01	0.648	correct	0back	Block4	0back/STIM_007.jpg
2497.871	0.464	correct	0back	Block4	0back/STIM_007.jpg
2501.313	0.354	correct	0back	Block4	0back/STIM_007.jpg
2504.846	0.413	incorrect	0back	Block4	0back/STIM_008.jpg
2507.654	0.449	correct	0back	Block4	0back/STIM_008.jpg
2510.859	0.382	correct	0back	Block4	0back/STIM_008.jpg
2514.664	0.476	correct	0back	Block4	0back/STIM_009.jpg
2518.426	0.572	incorrect	0back	Block4	0back/STIM_009.jpg
2522.878	0.5	incorrect	0back	Block4	0back/STIM_009.jpg
2527.282	0.686	incorrect	0back	Block4	0back/STIM_010.jpg
2531.664	0.442	correct	0back	Block4	0back/STIM_010.jpg
2534.664	0.49	incorrect	0back	Block4	0back/STIM_010.jpg
2538.784	0.643	correct	0back	Block4	0back/STIM_011.jpg
2543.376	0.397	correct	0back	Block4	0back/STIM_011.jpg
2547.221	0.686	correct	0back	Block4	0back/STIM_011.jpg
2550.103	0.574	incorrect	0back	Block4	0back/STIM_012.jpg
2553.261	0.414	correct	0back	Block4	0back/STIM_012.jpg
2556.725	0.655	correct	0back	Block4	0back/STIM_012.jpg
2560.785	0.47	incorrect	0back	Block4	0back/STIM_013.jpg
2564.436	0.52	correct	0back	Block4	0back/STIM_013.jpg
2567.126	0.386	correct	0back	Block4	0back/STIM_013.jpg
2571.416	0.441	correct	0back	Block4	0back/STIM_014.jpg
2574.479	0.387	incorrect	0back	Block4	0back/STIM_014.jpg
2578.159	0.679	correct	0back	Block4	0back/STIM_014.jpg
2581.262	0.542	correct	0back	Block4	0back/STIM_015.jpg
2584.636	0.392	correct	0back	Block4	0back/STIM_015.jpg
2588.587	0.371	correct	0back	Block4	0back/STIM_015.jpg
2591.901	0.498	incorrect	0back	Block4	0back/STIM_016.jpg
2596.264	0.533	correct	0back	Block4	0back/STIM_016.jpg
2599.959	0.414	incorrect	0back	Block4	0back/STIM_016.jpg
2602.506	0.557	incorrect	0back	Block4	0back/STIM_017.jpg
2606.157	0.519	correct	0back	Block4	0back/STIM_017.jpg
2609.003	0.552	correct	0back	Block4	0back/STIM_017.jpg
2613.447	0.493	correct	0back	Block4	0back/STIM_018.jpg
2616.805	0.605	correct	0back	Block4	0back/STIM_018.jpg
2620.379	0.557	incorrect	0back	Block4	0back/STIM_018.jpg
2623.896	0.466	incorrect	0back	Block4	0back/STIM_019.jpg
2627.184	0.588	correct	0back	Block4	0back/STIM_019.jpg
2629.822	0.554	correct	0back	Block4	0back/STIM_019.jpg
