onset	duration	accuracy_binary	trial_type	learning_stage	stimulus
0.0	0.58	0	2back	Block1	2back/STIM_000.jpg
3.972	0.706	1	2back	Block1	2back/STIM_000.jpg
8.099	1.209	1	2back	Block1	2back/STIM_000.jpg
12.555	0.721	1	2back	Block1	2back/STIM_001.jpg
16.954	0.924	1	2back	Block1	2back/STIM_001.jpg
21.728	1.094	1	2back	Block1	2back/STIM_001.jpg
25.134	1.342	1	2back	Block1	2back/STIM_002.jpg
30.201	0.998	1	2back	Block1	2back/STIM_002.jpg
33.944	0.922	1	2back	Block1	2back/STIM_002.jpg
37.643	1.303	0	2back	Block1	2back/STIM_003.jpg
41.006	0.598	1	2back	Block1	2back/STIM_003.jpg
45.185	0.869	1	2back	Block1	2back/STIM_003.jpg
48.932	1.136	1	2back	Block1	2back/STIM_004.jpg
53.4	1.167	1	2back	Block1	2back/STIM_004.jpg
57.592	0.856	1	2back	Block1	2back/STIM_004.jpg
61.503	0.922	1	2back	Block1	2back/STIM_005.jpg
64.483	0.959	1	2back	Block1	2back/STIM_005.jpg
67.533	0.529	1	2back	Block1	2back/STIM_005.jpg
70.965	0.816	1	2back	Block1	2back/STIM_006.jpg
75.092	0.992	0	2back	Block1	2back/STIM_006.jpg
78.963	0.876	1	2back	Block1	2back/STIM_006.jpg
83.126	0.592	1	2back	Block1	2back/STIM_007.jpg
86.312	1.042	1	2back	Block1	2back/STIM_007.jpg
90.746	1.098	1	2back	Block1	2back/STIM_007.jpg
95.824	0.719	1	2back	Block1	2back/STIM_008.jpg
99.362	0.652	1	2back	Block1	2back/STIM_008.jpg
103.823	0.576	1	2back	Block1	2back/STIM_008.jpg
107.341	0.74	1	2back	Block1	2back/STIM_009.jpg
110.29	0.99	1	2back	Block1	2back/STIM_009.jpg
114.574	1.097	1	2back	Block1	2back/STIM_009.jpg
118.361	0.995	0	2back	Block1	2back/STIM_010.jpg
123.087	1.002	1	2back	Block1	2back/STIM_010.jpg
127.629	1.188	1	2back	Block1	2back/STIM_010.jpg
131.771	1.232	1	2back	Block1	2back/STIM_011.jpg
136.113	0.864	0	2back	Block1	2back/STIM_011.jpg
140.322	1.18	1	2back	Block1	2back/STIM_011.jpg
144.606	0.95	0	2back	Block1	2back/STIM_012.jpg
147.816	0.742	1	2back	Block1	2back/STIM_012.jpg
151.595	0.624	1	2back	Block1	2back/STIM_012.jpg
154.585	1.053	1	2back	Block1	2back/STIM_013.jpg
157.74	0.563	1	2back	Block1	2back/STIM_013.jpg
161.942	1.123	1	2back	Block1	2back/STIM_013.jpg
165.602	0.788	1	2back	Block1	2back/STIM_014.jpg
170.127	0.945	0	2back	Block1	2back/STIM_014.jpg
173.375	1.068	1	2back	Block1	2back/STIM_014.jpg
176.573	0.89	0	2back	Block1	2back/STIM_015.jpg
180.674	1.264	1	2back	Block1	2back/STIM_015.jpg
185.272	1.134	1	2back	Block1	2back/STIM_015.jpg
189.995	1.228	1	2back	Block1	2back/STIM_016.jpg
195.038	1.271	1	2back	Block1	2back/STIM_016.jpg
200.15	0.739	1	2back	Block1	2back/STIM_016.jpg
204.557	1.209	1	2back	Block1	2back/STIM_017.jpg
209.508	1.258	1	2back	Block1	2back/STIM_017.jpg
213.732	0.655	1	2back	Block1	2back/STIM_017.jpg
216.859	1.144	1	2back	Block1	2back/STIM_018.jpg
220.452	0.614	0	2back	Block1	2back/STIM_018.jpg
224.915	1.098	1	2back	Block1	2back/STIM_018.jpg
228.49	1.01	1	2back	Block1	2back/STIM_019.jpg
231.996	0.917	1	2back	Block1	2back/STIM_019.jpg
236.732	0.773	1	2back	Block1	2back/STIM_019.jpg
240.202	0.665	0	2back	Block1	2back/STIM_020.jpg
244.567	1.252	1	2back	Block1	2back/STIM_020.jpg
248.784	0.603	1	2back	Block1	2back/STIM_020.jpg
252.672	1.07	1	2back	Block1	2back/STIM_021.jpg
257.482	0.888	1	2back	Block1	2back/STIM_021.jpg
260.634	0.546	1	2back	Block1	2back/STIM_021.jpg
264.747	0.665	1	2back	Block1	2back/STIM_022.jpg
268.001	1.234	1	2back	Block1	2back/STIM_022.jpg
272.559	1.015	1	2back	Block1	2back/STIM_022.jpg
277.272	0.939	1	2back	Block1	2back/STIM_023.jpg
281.76	1.075	1	2back	Block1	2back/STIM_023.jpg
286.329	0.997	0	2back	Block1	2back/STIM_023.jpg
290.832	1.204	1	2back	Block1	2back/STIM_024.jpg
294.479	1.045	1	2back	Block1	2back/STIM_024.jpg
297.726	0.745	1	2back	Block1	2back/STIM_024.jpg
301.243	1.139	1	2back	Block1	2back/STIM_025.jpg
306.335	1.2	1	2back	Block1	2back/STIM_025.jpg
311.422	0.798	1	2back	Block1	2back/STIM_025.jpg
316.123	0.72	1	2back	Block1	2back/STIM_026.jpg
319.579	1.253	1	2back	Block1	2back/STIM_026.jpg
324.205	0.614	1	2back	Block1	2back/STIM_026.jpg
327.409	0.854	1	2back	Block1	2back/STIM_027.jpg
331.267	1.189	1	2back	Block1	2back/STIM_027.jpg
335.357	0.531	0	2back	Block1	2back/STIM_027.jpg
339.148	1.138	1	2back	Block1	2back/STIM_028.jpg
343.353	0.947	1	2back	Block1	2back/STIM_028.jpg
346.906	0.76	1	2back	Block1	2back/STIM_028.jpg
350.262	0.925	1	2back	Block1	2back/STIM_029.jpg
354.159	0.797	1	2back	Block1	2back/STIM_029.jpg
357.343	1.191	1	2back	Block1	2back/STIM_029.jpg
361.029	1.155	0	2back	Block1	2back/STIM_030.jpg
365.813	1.204	1	2back	Block1	2back/STIM_030.jpg
370.241	0.61	1	2back	Block1	2back/STIM_030.jpg
374.246	1.017	1	2back	Block1	2back/STIM_031.jpg
378.654	0.761	0	2back	Block1	2back/STIM_031.jpg
381.457	1.122	1	2back	Block1	2back/STIM_031.jpg
385.272	0.598	1	2back	Block1	2back/STIM_032.jpg
388.01	1.179	1	2back	Block1	2back/STIM_032.jpg
392.668	1.055	1	2back	Block1	2back/STIM_032.jpg
396.88	1.054	0	2back	Block1	2back/STIM_033.jpg
401.785	0.87	1	2back	Block1	2back/STIM_033.jpg
406.428	0.892	1	2back	Block1	2back/STIM_033.jpg
409.895	0.847	1	2back	Block1	2back/STIM_034.jpg
413.166	0.711	0	2back	Block1	2back/STIM_034.jpg
417.415	1.122	1	2back	Block1	2back/STIM_034.jpg
421.075	1.313	1	2back	Block1	2back/STIM_035.jpg
425.425	1.083	1	2back	Block1	2back/STIM_035.jpg
430.478	0.616	1	2back	Block1	2back/STIM_035.jpg
433.946	1.192	1	2back	Block1	2back/STIM_036.jpg
437.36	1.201	1	2back	Block1	2back/STIM_036.jpg
442.105	0.951	1	2back	Block1	2back/STIM_036.jpg
445.405	1.136	1	2back	Block1	2back/STIM_037.jpg
448.905	0.966	1	2back	Block1	2back/STIM_037.jpg
452.045	1.185	1	2back	Block1	2back/STIM_037.jpg
456.339	0.61	1	2back	Block1	2back/STIM_038.jpg
459.103	0.549	1	2back	Block1	2back/STIM_038.jpg
462.294	0.659	1	2back	Block1	2back/STIM_038.jpg
465.355	1.245	1	2back	Block1	2back/STIM_039.jpg
470.04	0.816	1	2back	Block1	2back/STIM_039.jpg
472.948	0.756	1	2back	Block1	2back/STIM_039.jpg
475.75	0.48	1	0back	Block1	0back/STIM_000.jpg
479.443	0.538	1	0back	Block1	0back/STIM_000.jpg
482.886	0.705	1	0back	Block1	0back/STIM_000.jpg
486.691	0.74	1	0back	Block1	0back/STIM_001.jpg
490.889	0.629	1	0back	Block1	0back/STIM_001.jpg
495.243	0.583	0	0back	Block1	0back/STIM_001.jpg
498.712	0.518	0	0back	Block1	0back/STIM_002.jpg
501.326	0.63	1	0back	Block1	0back/STIM_002.jpg
504.525	0.491	0	0back	Block1	0back/STIM_002.jpg
507.823	0.473	1	0back	Block1	0back/STIM_003.jpg
511.074	0.642	1	0back	Block1	0back/STIM_003.jpg
514.818	0.526	1	0back	Block1	0back/STIM_003.jpg
517.663	0.472	1	0back	Block1	0back/STIM_004.jpg
522.125	0.576	1	0back	Block1	0back/STIM_004.jpg
525.089	0.43	1	0back	Block1	0back/STIM_004.jpg
528.47	0.566	1	0back	Block1	0back/STIM_005.jpg
532.942	0.746	1	0back	Block1	0back/STIM_005.jpg
537.339	0.412	1	0back	Block1	0back/STIM_005.jpg
540.657	0.527	1	0back	Block1	0back/STIM_006.jpg
544.59	0.592	1	0back	Block1	0back/STIM_006.jpg
547.778	0.764	1	0back	Block1	0back/STIM_006.jpg
551.916	0.756	1	0back	Block1	0back/STIM_007.jpg
554.876	0.762	1	0back	Block1	0back/STIM_007.jpg
557.866	0.681	1	0back	Block1	0back/STIM_007.jpg
561.191	0.683	1	0back	Block1	0back/STIM_008.jpg
565.385	0.653	1	0back	Block1	0back/STIM_008.jpg
568.162	0.553	1	0back	Block1	0back/STIM_008.jpg
571.407	0.616	1	0back	Block1	0back/STIM_009.jpg
575.968	0.509	1	0back	Block1	0back/STIM_009.jpg
580.167	0.403	1	0back	Block1	0back/STIM_009.jpg
584.382	0.555	1	0back	Block1	0back/STIM_010.jpg
588.032	0.532	1	0back	Block1	0back/STIM_010.jpg
590.971	0.584	1	0back	Block1	0back/STIM_010.jpg
595.22	0.529	1	0back	Block1	0back/STIM_011.jpg
599.636	0.548	1	0back	Block1	0back/STIM_011.jpg
602.759	0.52	1	0back	Block1	0back/STIM_011.jpg
605.301	0.692	1	0back	Block1	0back/STIM_012.jpg
609.624	0.41	1	0back	Block1	0back/STIM_012.jpg
612.526	0.538	1	0back	Block1	0back/STIM_012.jpg
615.535	0.754	1	0back	Block1	0back/STIM_013.jpg
618.596	0.663	0	0back	Block1	0back/STIM_013.jpg
623.015	0.561	1	0back	Block1	0back/STIM_013.jpg
626.189	0.612	1	0back	Block1	0back/STIM_014.jpg
629.989	0.468	1	0back	Block1	0back/STIM_014.jpg
634.461	0.461	1	0back	Block1	0back/STIM_014.jpg
637.788	0.543	1	0back	Block1	0back/STIM_015.jpg
642.249	0.414	1	0back	Block1	0back/STIM_015.jpg
646.627	0.558	1	0back	Block1	0back/STIM_015.jpg
650.698	0.413	1	0back	Block1	0back/STIM_016.jpg
654.221	0.75	1	0back	Block1	0back/STIM_016.jpg
658.284	0.417	1	0back	Block1	0back/STIM_016.jpg
661.692	0.717	1	0back	Block1	0back/STIM_017.jpg
665.491	0.546	1	0back	Block1	0back/STIM_017.jpg
668.205	0.397	1	0back	Block1	0back/STIM_017.jpg
671.676	0.39	1	0back	Block1	0back/STIM_018.jpg
674.331	0.739	1	0back	Block1	0back/STIM_018.jpg
677.976	0.712	1	0back	Block1	0back/STIM_018.jpg
681.755	0.397	1	0back	Block1	0back/STIM_019.jpg
686.088	0.619	1	0back	Block1	0back/STIM_019.jpg
689.576	0.412	1	0back	Block1	0back/STIM_019.jpg
693.453	0.713	1	2back	Block2	2back/STIM_000.jpg
696.541	0.504	1	2back	Block2	2back/STIM_000.jpg
699.15	0.879	1	2back	Block2	2back/STIM_000.jpg
702.597	0.822	1	2back	Block2	2back/STIM_001.jpg
706.562	0.468	1	2back	Block2	2back/STIM_001.jpg
710.29	0.776	1	2back	Block2	2back/STIM_001.jpg
713.182	1.04	0	2back	Block2	2back/STIM_002.jpg
718.212	0.595	1	2back	Block2	2back/STIM_002.jpg
722.081	0.764	1	2back	Block2	2back/STIM_002.jpg
725.843	0.806	1	2back	Block2	2back/STIM_003.jpg
729.96	0.963	1	2back	Block2	2back/STIM_003.jpg
734.401	1.0	1	2back	Block2	2back/STIM_003.jpg
738.259	0.75	1	2back	Block2	2back/STIM_004.jpg
741.411	0.678	1	2back	Block2	2back/STIM_004.jpg
745.225	0.561	1	2back	Block2	2back/STIM_004.jpg
748.308	0.978	1	2back	Block2	2back/STIM_005.jpg
752.554	0.684	1	2back	Block2	2back/STIM_005.jpg
755.901	0.916	1	2back	Block2	2back/STIM_005.jpg
758.861	0.999	0	2back	Block2	2back/STIM_006.jpg
763.849	0.85	0	2back	Block2	2back/STIM_006.jpg
767.069	0.729	1	2back	Block2	2back/STIM_006.jpg
771.406	0.736	0	2back	Block2	2back/STIM_007.jpg
776.142	0.78	1	2back	Block2	2back/STIM_007.jpg
779.056	0.498	1	2back	Block2	2back/STIM_007.jpg
783.003	0.756	1	2back	Block2	2back/STIM_008.jpg
787.723	0.929	1	2back	Block2	2back/STIM_008.jpg
791.967	0.526	0	2back	Block2	2back/STIM_008.jpg
795.782	0.946	1	2back	Block2	2back/STIM_009.jpg
800.714	0.778	1	2back	Block2	2back/STIM_009.jpg
803.61	0.858	1	2back	Block2	2back/STIM_009.jpg
807.795	0.851	1	2back	Block2	2back/STIM_010.jpg
812.512	1.009	1	2back	Block2	2back/STIM_010.jpg
816.591	0.531	1	2back	Block2	2back/STIM_010.jpg
821.018	1.044	1	2back	Block2	2back/STIM_011.jpg
825.285	0.497	0	2back	Block2	2back/STIM_011.jpg
828.117	0.655	0	2back	Block2	2back/STIM_011.jpg
831.2	0.493	1	2back	Block2	2back/STIM_012.jpg
835.335	0.827	1	2back	Block2	2back/STIM_012.jpg
839.321	0.802	1	2back	Block2	2back/STIM_012.jpg
843.191	0.781	1	2back	Block2	2back/STIM_013.jpg
846.49	0.945	0	2back	Block2	2back/STIM_013.jpg
850.474	0.838	1	2back	Block2	2back/STIM_013.jpg
854.847	0.853	1	2back	Block2	2back/STIM_014.jpg
859.148	1.072	1	2back	Block2	2back/STIM_014.jpg
863.974	0.799	1	2back	Block2	2back/STIM_014.jpg
867.028	0.53	1	2back	Block2	2back/STIM_015.jpg
870.043	0.719	1	2back	Block2	2back/STIM_015.jpg
874.505	0.799	1	2back	Block2	2back/STIM_015.jpg
879.325	0.652	1	2back	Block2	2back/STIM_016.jpg
882.04	0.786	1	2back	Block2	2back/STIM_016.jpg
885.812	0.53	1	2back	Block2	2back/STIM_016.jpg
890.3	0.835	1	2back	Block2	2back/STIM_017.jpg
893.348	0.893	1	2back	Block2	2back/STIM_017.jpg
897.745	0.813	1	2back	Block2	2back/STIM_017.jpg
902.229	0.502	1	2back	Block2	2back/STIM_018.jpg
905.249	0.522	1	2back	Block2	2back/STIM_018.jpg
908.048	0.75	1	2back	Block2	2back/STIM_018.jpg
911.929	0.567	1	2back	Block2	2back/STIM_019.jpg
915.26	0.74	1	2back	Block2	2back/STIM_019.jpg
919.956	0.836	1	2back	Block2	2back/STIM_019.jpg
922.941	0.654	1	2back	Block2	2back/STIM_020.jpg
927.47	0.474	1	2back	Block2	2back/STIM_020.jpg
930.431	0.927	0	2back	Block2	2back/STIM_020.jpg
934.379	1.097	1	2back	Block2	2back/STIM_021.jpg
939.011	0.999	1	2back	Block2	2back/STIM_021.jpg
942.74	0.854	1	2back	Block2	2back/STIM_021.jpg
947.232	0.502	1	2back	Block2	2back/STIM_022.jpg
950.79	1.06	1	2back	Block2	2back/STIM_022.jpg
954.398	0.567	1	2back	Block2	2back/STIM_022.jpg
957.645	0.861	1	2back	Block2	2back/STIM_023.jpg
961.484	0.592	1	2back	Block2	2back/STIM_023.jpg
965.952	0.958	1	2back	Block2	2back/STIM_023.jpg
969.589	0.957	1	2back	Block2	2back/STIM_024.jpg
972.988	0.745	1	2back	Block2	2back/STIM_024.jpg
975.902	0.67	1	2back	Block2	2back/STIM_024.jpg
980.166	1.092	1	2back	Block2	2back/STIM_025.jpg
985.115	0.941	1	2back	Block2	2back/STIM_025.jpg
989.961	0.448	1	2back	Block2	2back/STIM_025.jpg
993.815	0.552	1	2back	Block2	2back/STIM_026.jpg
996.768	0.574	0	2back	Block2	2back/STIM_026.jpg
999.533	0.97	1	2back	Block2	2back/STIM_026.jpg
1003.471	0.741	1	2back	Block2	2back/STIM_027.jpg
1006.991	0.998	1	2back	Block2	2back/STIM_027.jpg
1011.556	0.831	0	2back	Block2	2back/STIM_027.jpg
1015.379	1.031	1	2back	Block2	2back/STIM_028.jpg
1020.071	0.954	1	2back	Block2	2back/STIM_028.jpg
1024.956	0.753	1	2back	Block2	2back/STIM_028.jpg
1029.497	1.001	1	2back	Block2	2back/STIM_029.jpg
1033.104	0.708	1	2back	Block2	2back/STIM_029.jpg
1037.071	0.582	1	2back	Block2	2back/STIM_029.jpg
1040.061	0.934	1	2back	Block2	2back/STIM_030.jpg
1044.589	0.76	1	2back	Block2	2back/STIM_030.jpg
1048.942	0.737	1	2back	Block2	2back/STIM_030.jpg
1052.475	0.865	1	2back	Block2	2back/STIM_031.jpg
1056.94	0.842	1	2back	Block2	2back/STIM_031.jpg
1060.377	0.623	1	2back	Block2	2back/STIM_031.jpg
1064.262	0.546	1	2back	Block2	2back/STIM_032.jpg
1068.269	0.922	1	2back	Block2	2back/STIM_032.jpg
1071.888	0.993	1	2back	Block2	2back/STIM_032.jpg
1075.703	0.809	1	2back	Block2	2back/STIM_033.jpg
1080.08	0.548	0	2back	Block2	2back/STIM_033.jpg
1082.916	0.863	0	2back	Block2	2back/STIM_033.jpg
1087.321	0.83	1	2back	Block2	2back/STIM_034.jpg
1092.058	0.77	1	2back	Block2	2back/STIM_034.jpg
1095.036	0.852	1	2back	Block2	2back/STIM_034.jpg
1098.293	1.028	1	2back	Block2	2back/STIM_035.jpg
1101.777	0.702	0	2back	Block2	2back/STIM_035.jpg
1106.285	0.695	1	2back	Block2	2back/STIM_035.jpg
1110.724	0.852	1	2back	Block2	2back/STIM_036.jpg
1114.585	0.468	1	2back	Block2	2back/STIM_036.jpg
1118.675	0.617	1	2back	Block2	2back/STIM_036.jpg
1122.36	0.814	1	2back	Block2	2back/STIM_037.jpg
1126.008	0.663	1	2back	Block2	2back/STIM_037.jpg
1129.209	0.887	1	2back	Block2	2back/STIM_037.jpg
1134.053	0.792	1	2back	Block2	2back/STIM_038.jpg
1138.49	0.935	1	2back	Block2	2back/STIM_038.jpg
1143.198	0.882	1	2back	Block2	2back/STIM_038.jpg
1147.739	1.092	1	2back	Block2	2back/STIM_039.jpg
1151.451	1.073	1	2back	Block2	2back/STIM_039.jpg
1154.877	0.824	1	2back	Block2	2back/STIM_039.jpg
1159.356	0.669	1	0back	Block2	0back/STIM_000.jpg
1163.782	0.565	1	0back	Block2	0back/STIM_000.jpg
1167.135	0.416	0	0back	Block2	0back/STIM_000.jpg
1169.578	0.46	1	0back	Block2	0back/STIM_001.jpg
1172.519	0.475	1	0back	Block2	0back/STIM_001.jpg
1175.811	0.588	1	0back	Block2	0back/STIM_001.jpg
1180.084	0.511	1	0back	Block2	0back/STIM_002.jpg
1184.052	0.707	1	0back	Block2	0back/STIM_002.jpg
1187.654	0.615	1	0back	Block2	0back/STIM_002.jpg
1191.351	0.412	1	0back	Block2	0back/STIM_003.jpg
1195.75	0.44	1	0back	Block2	0back/STIM_003.jpg
1200.096	0.655	1	0back	Block2	0back/STIM_003.jpg
1204.188	0.461	1	0back	Block2	0back/STIM_004.jpg
1207.366	0.458	1	0back	Block2	0back/STIM_004.jpg
1210.547	0.518	1	0back	Block2	0back/STIM_004.jpg
1214.605	0.644	1	0back	Block2	0back/STIM_005.jpg
1218.371	0.538	1	0back	Block2	0back/STIM_005.jpg
1222.421	0.728	1	0back	Block2	0back/STIM_005.jpg
1227.153	0.535	1	0back	Block2	0back/STIM_006.jpg
1230.732	0.749	1	0back	Block2	0back/STIM_006.jpg
1235.063	0.472	1	0back	Block2	0back/STIM_006.jpg
1238.611	0.463	1	0back	Block2	0back/STIM_007.jpg
1242.553	0.749	1	0back	Block2	0back/STIM_007.jpg
1245.686	0.535	1	0back	Block2	0back/STIM_007.jpg
1249.082	0.575	1	0back	Block2	0back/STIM_008.jpg
1251.81	0.557	1	0back	Block2	0back/STIM_008.jpg
1254.572	0.401	1	0back	Block2	0back/STIM_008.jpg
1258.328	0.393	1	0back	Block2	0back/STIM_009.jpg
1261.276	0.521	1	0back	Block2	0back/STIM_009.jpg
1265.402	0.7	1	0back	Block2	0back/STIM_009.jpg
1269.281	0.394	1	0back	Block2	0back/STIM_010.jpg
1273.635	0.506	1	0back	Block2	0back/STIM_010.jpg
1276.811	0.54	1	0back	Block2	0back/STIM_010.jpg
1279.866	0.565	1	0back	Block2	0back/STIM_011.jpg
1283.228	0.607	1	0back	Block2	0back/STIM_011.jpg
1286.831	0.699	1	0back	Block2	0back/STIM_011.jpg
1291.55	0.582	1	0back	Block2	0back/STIM_012.jpg
1295.611	0.68	0	0back	Block2	0back/STIM_012.jpg
1298.506	0.562	1	0back	Block2	0back/STIM_012.jpg
1301.143	0.578	1	0back	Block2	0back/STIM_013.jpg
1305.198	0.584	1	0back	Block2	0back/STIM_013.jpg
1308.726	0.712	1	0back	Block2	0back/STIM_013.jpg
1313.316	0.61	1	0back	Block2	0back/STIM_014.jpg
1316.705	0.701	1	0back	Block2	0back/STIM_014.jpg
1320.311	0.633	1	0back	Block2	0back/STIM_014.jpg
1324.364	0.402	1	0back	Block2	0back/STIM_015.jpg
1328.083	0.7	1	0back	Block2	0back/STIM_015.jpg
1332.052	0.503	1	0back	Block2	0back/STIM_015.jpg
1335.36	0.506	1	0back	Block2	0back/STIM_016.jpg
1338.903	0.52	1	0back	Block2	0back/STIM_016.jpg
1343.2	0.428	1	0back	Block2	0back/STIM_016.jpg
1345.894	0.482	1	0back	Block2	0back/STIM_017.jpg
1350.345	0.697	1	0back	Block2	0back/STIM_017.jpg
1355.068	0.604	0	0back	Block2	0back/STIM_017.jpg
1359.591	0.605	1	0back	Block2	0back/STIM_018.jpg
1362.958	0.541	1	0back	Block2	0back/STIM_018.jpg
1366.408	0.672	1	0back	Block2	0back/STIM_018.jpg
1369.508	0.424	1	0back	Block2	0back/STIM_019.jpg
1373.318	0.581	1	0back	Block2	0back/STIM_019.jpg
1377.466	0.704	1	0back	Block2	0back/STIM_019.jpg
1382.103	0.926	1	2back	Block3	2back/STIM_000.jpg
1385.538	0.703	1	2back	Block3	2back/STIM_000.jpg
1390.056	0.833	1	2back	Block3	2back/STIM_000.jpg
1393.495	0.536	0	2back	Block3	2back/STIM_001.jpg
1397.064	0.702	1	2back	Block3	2back/STIM_001.jpg
1401.191	0.613	1	2back	Block3	2back/STIM_001.jpg
1405.203	0.716	1	2back	Block3	2back/STIM_002.jpg
1409.295	0.912	1	2back	Block3	2back/STIM_002.jpg
1412.43	0.538	1	2back	Block3	2back/STIM_002.jpg
1416.086	0.542	1	2back	Block3	2back/STIM_003.jpg
1419.86	0.602	1	2back	Block3	2back/STIM_003.jpg
1422.795	0.85	0	2back	Block3	2back/STIM_003.jpg
1425.942	0.878	1	2back	Block3	2back/STIM_004.jpg
1428.987	0.778	1	2back	Block3	2back/STIM_004.jpg
1433.383	0.832	1	2back	Block3	2back/STIM_004.jpg
1436.829	0.555	1	2back	Block3	2back/STIM_005.jpg
1441.153	0.733	1	2back	Block3	2back/STIM_005.jpg
1444.367	0.422	1	2back	Block3	2back/STIM_005.jpg
1448.713	0.746	0	2back	Block3	2back/STIM_006.jpg
1451.527	0.601	1	2back	Block3	2back/STIM_006.jpg
1455.184	0.727	1	2back	Block3	2back/STIM_006.jpg
1459.891	0.411	1	2back	Block3	2back/STIM_007.jpg
1464.191	0.92	1	2back	Block3	2back/STIM_007.jpg
1467.386	0.733	1	2back	Block3	2back/STIM_007.jpg
1471.29	0.618	1	2back	Block3	2back/STIM_008.jpg
1474.963	0.64	1	2back	Block3	2back/STIM_008.jpg
1478.722	0.61	1	2back	Block3	2back/STIM_008.jpg
1482.902	0.803	1	2back	Block3	2back/STIM_009.jpg
1487.34	0.701	1	2back	Block3	2back/STIM_009.jpg
1490.386	0.722	1	2back	Block3	2back/STIM_009.jpg
1493.27	0.591	1	2back	Block3	2back/STIM_010.jpg
1496.61	0.67	1	2back	Block3	2back/STIM_010.jpg
1501.232	0.692	1	2back	Block3	2back/STIM_010.jpg
1505.113	0.493	1	2back	Block3	2back/STIM_011.jpg
1509.346	0.74	1	2back	Block3	2back/STIM_011.jpg
1513.874	0.619	1	2back	Block3	2back/STIM_011.jpg
1518.046	0.537	1	2back	Block3	2back/STIM_012.jpg
1520.821	0.626	1	2back	Block3	2back/STIM_012.jpg
1524.114	0.583	1	2back	Block3	2back/STIM_012.jpg
1528.395	0.864	1	2back	Block3	2back/STIM_013.jpg
1532.113	0.523	1	2back	Block3	2back/STIM_013.jpg
1535.13	0.578	1	2back	Block3	2back/STIM_013.jpg
1538.815	0.882	1	2back	Block3	2back/STIM_014.jpg
1542.571	0.722	1	2back	Block3	2back/STIM_014.jpg
1546.432	0.704	1	2back	Block3	2back/STIM_014.jpg
1550.934	0.467	1	2back	Block3	2back/STIM_015.jpg
1553.597	0.869	1	2back	Block3	2back/STIM_015.jpg
1556.92	0.529	1	2back	Block3	2back/STIM_015.jpg
1559.816	0.9	1	2back	Block3	2back/STIM_016.jpg
1563.6	0.737	1	2back	Block3	2back/STIM_016.jpg
1566.567	0.443	1	2back	Block3	2back/STIM_016.jpg
1570.801	0.512	0	2back	Block3	2back/STIM_017.jpg
1574.161	0.858	1	2back	Block3	2back/STIM_017.jpg
1578.281	0.61	1	2back	Block3	2back/STIM_017.jpg
1582.272	0.888	1	2back	Block3	2back/STIM_018.jpg
1586.383	0.438	1	2back	Block3	2back/STIM_018.jpg
1590.665	0.833	1	2back	Block3	2back/STIM_018.jpg
1594.972	0.599	1	2back	Block3	2back/STIM_019.jpg
1599.103	0.615	1	2back	Block3	2back/STIM_019.jpg
1602.708	0.616	1	2back	Block3	2back/STIM_019.jpg
1606.001	0.645	1	2back	Block3	2back/STIM_020.jpg
1610.085	0.678	1	2back	Block3	2back/STIM_020.jpg
1612.839	0.884	1	2back	Block3	2back/STIM_020.jpg
1616.961	0.781	1	2back	Block3	2back/STIM_021.jpg
1621.013	0.728	1	2back	Block3	2back/STIM_021.jpg
1623.989	0.492	1	2back	Block3	2back/STIM_021.jpg
1626.816	0.602	1	2back	Block3	2back/STIM_022.jpg
1629.972	0.694	0	2back	Block3	2back/STIM_022.jpg
1633.075	0.767	1	2back	Block3	2back/STIM_022.jpg
1637.052	0.739	1	2back	Block3	2back/STIM_023.jpg
1640.998	0.578	1	2back	Block3	2back/STIM_023.jpg
1645.143	0.644	1	2back	Block3	2back/STIM_023.jpg
1648.486	0.765	1	2back	Block3	2back/STIM_024.jpg
1652.226	0.865	1	2back	Block3	2back/STIM_024.jpg
1656.331	0.696	1	2back	Block3	2back/STIM_024.jpg
1661.028	0.871	1	2back	Block3	2back/STIM_025.jpg
1664.122	0.544	1	2back	Block3	2back/STIM_025.jpg
1667.759	0.826	1	2back	Block3	2back/STIM_025.jpg
1672.063	0.633	1	2back	Block3	2back/STIM_026.jpg
1675.992	0.647	1	2back	Block3	2back/STIM_026.jpg
1680.078	0.831	1	2back	Block3	2back/STIM_026.jpg
1683.138	0.903	1	2back	Block3	2back/STIM_027.jpg
1687.044	0.465	1	2back	Block3	2back/STIM_027.jpg
1690.738	0.462	1	2back	Block3	2back/STIM_027.jpg
1694.773	0.859	1	2back	Block3	2back/STIM_028.jpg
1697.867	0.495	1	2back	Block3	2back/STIM_028.jpg
1700.41	0.408	1	2back	Block3	2back/STIM_028.jpg
1704.538	0.484	1	2back	Block3	2back/STIM_029.jpg
1708.547	0.851	0	2back	Block3	2back/STIM_029.jpg
1713.009	0.53	1	2back	Block3	2back/STIM_029.jpg
1716.021	0.785	1	2back	Block3	2back/STIM_030.jpg
1720.487	0.437	1	2back	Block3	2back/STIM_030.jpg
1722.995	0.78	1	2back	Block3	2back/STIM_030.jpg
1726.86	0.902	1	2back	Block3	2back/STIM_031.jpg
1731.755	0.516	1	2back	Block3	2back/STIM_031.jpg
1734.401	0.462	1	2back	Block3	2back/STIM_031.jpg
1737.731	0.853	1	2back	Block3	2back/STIM_032.jpg
1740.834	0.591	1	2back	Block3	2back/STIM_032.jpg
1744.425	0.565	1	2back	Block3	2back/STIM_032.jpg
1748.415	0.645	1	2back	Block3	2back/STIM_033.jpg
1751.99	0.497	1	2back	Block3	2back/STIM_033.jpg
1755.581	0.675	1	2back	Block3	2back/STIM_033.jpg
1760.118	0.868	1	2back	Block3	2back/STIM_034.jpg
1763.253	0.457	1	2back	Block3	2back/STIM_034.jpg
1767.576	0.941	1	2back	Block3	2back/STIM_034.jpg
1770.664	0.937	1	2back	Block3	2back/STIM_035.jpg
1773.817	0.918	1	2back	Block3	2back/STIM_035.jpg
1777.964	0.432	1	2back	Block3	2back/STIM_035.jpg
1781.935	0.49	1	2back	Block3	2back/STIM_036.jpg
1785.985	0.52	1	2back	Block3	2back/STIM_036.jpg
1790.002	0.94	1	2back	Block3	2back/STIM_036.jpg
1793.502	0.489	1	2back	Block3	2back/STIM_037.jpg
1797.157	0.631	1	2back	Block3	2back/STIM_037.jpg
1799.927	0.695	1	2back	Block3	2back/STIM_037.jpg
1803.916	0.825	1	2back	Block3	2back/STIM_038.jpg
1807.042	0.811	1	2back	Block3	2back/STIM_038.jpg
1810.823	0.594	1	2back	Block3	2back/STIM_038.jpg
1814.881	0.446	1	2back	Block3	2back/STIM_039.jpg
1819.003	0.507	1	2back	Block3	2back/STIM_039.jpg
1821.584	0.897	1	2back	Block3	2back/STIM_039.jpg
1825.525	0.501	1	0back	Block3	0back/STIM_000.jpg
1828.849	0.49	1	0back	Block3	0back/STIM_000.jpg
1833.168	0.717	1	0back	Block3	0back/STIM_000.jpg
1837.505	0.568	1	0back	Block3	0back/STIM_001.jpg
1841.136	0.632	1	0back	Block3	0back/STIM_001.jpg
1845.627	0.446	1	0back	Block3	0back/STIM_001.jpg
1849.977	0.548	1	0back	Block3	0back/STIM_002.jpg
1853.913	0.71	1	0back	Block3	0back/STIM_002.jpg
1857.718	0.405	1	0back	Block3	0back/STIM_002.jpg
1860.162	0.503	1	0back	Block3	0back/STIM_003.jpg
1862.957	0.643	0	0back	Block3	0back/STIM_003.jpg
1866.101	0.622	1	0back	Block3	0back/STIM_003.jpg
1869.426	0.643	1	0back	Block3	0back/STIM_004.jpg
1873.208	0.431	1	0back	Block3	0back/STIM_004.jpg
1876.174	0.753	1	0back	Block3	0back/STIM_004.jpg
1879.319	0.46	1	0back	Block3	0back/STIM_005.jpg
1882.423	0.536	1	0back	Block3	0back/STIM_005.jpg
1885.75	0.555	1	0back	Block3	0back/STIM_005.jpg
1888.542	0.519	1	0back	Block3	0back/STIM_006.jpg
1891.588	0.764	1	0back	Block3	0back/STIM_006.jpg
1895.655	0.561	1	0back	Block3	0back/STIM_006.jpg
1900.155	0.461	1	0back	Block3	0back/STIM_007.jpg
1903.969	0.578	1	0back	Block3	0back/STIM_007.jpg
1907.94	0.404	1	0back	Block3	0back/STIM_007.jpg
1910.964	0.616	1	0back	Block3	0back/STIM_008.jpg
1914.96	0.706	1	0back	Block3	0back/STIM_008.jpg
1918.397	0.427	1	0back	Block3	0back/STIM_008.jpg
1922.599	0.403	1	0back	Block3	0back/STIM_009.jpg
1925.063	0.741	1	0back	Block3	0back/STIM_009.jpg
1928.502	0.575	1	0back	Block3	0back/STIM_009.jpg
1931.517	0.516	1	0back	Block3	0back/STIM_010.jpg
1935.205	0.669	1	0back	Block3	0back/STIM_010.jpg
1939.743	0.456	1	0back	Block3	0back/STIM_010.jpg
1942.585	0.445	1	0back	Block3	0back/STIM_011.jpg
1945.359	0.547	1	0back	Block3	0back/STIM_011.jpg
1948.051	0.446	1	0back	Block3	0back/STIM_011.jpg
1951.911	0.631	1	0back	Block3	0back/STIM_012.jpg
1955.263	0.48	1	0back	Block3	0back/STIM_012.jpg
1958.46	0.616	1	0back	Block3	0back/STIM_012.jpg
1961.443	0.419	1	0back	Block3	0back/STIM_013.jpg
1965.166	0.642	1	0back	Block3	0back/STIM_013.jpg
1969.135	0.558	1	0back	Block3	0back/STIM_013.jpg
1971.969	0.73	1	0back	Block3	0back/STIM_014.jpg
1976.019	0.669	1	0back	Block3	0back/STIM_014.jpg
1979.533	0.522	1	0back	Block3	0back/STIM_014.jpg
1984.058	0.764	1	0back	Block3	0back/STIM_015.jpg
1987.2	0.506	1	0back	Block3	0back/STIM_015.jpg
1989.798	0.515	1	0back	Block3	0back/STIM_015.jpg
1993.99	0.666	1	0back	Block3	0back/STIM_016.jpg
1996.722	0.761	1	0back	Block3	0back/STIM_016.jpg
2000.964	0.415	1	0back	Block3	0back/STIM_016.jpg
2004.511	0.766	1	0back	Block3	0back/STIM_017.jpg
2007.855	0.402	1	0back	Block3	0back/STIM_017.jpg
2010.736	0.499	1	0back	Block3	0back/STIM_017.jpg
2014.619	0.42	1	0back	Block3	0back/STIM_018.jpg
2019.017	0.46	1	0back	Block3	0back/STIM_018.jpg
2021.885	0.718	1	0back	Block3	0back/STIM_018.jpg
2024.952	0.52	1	0back	Block3	0back/STIM_019.jpg
2029.408	0.767	1	0back	Block3	0back/STIM_019.jpg
2033.746	0.615	1	0back	Block3	0back/STIM_019.jpg
2036.555	0.476	1	2back	Block4	2back/STIM_000.jpg
2039.963	0.824	1	2back	Block4	2back/STIM_000.jpg
2044.199	0.53	1	2back	Block4	2back/STIM_000.jpg
2047.305	0.745	1	2back	Block4	2back/STIM_001.jpg
2050.509	0.505	1	2back	Block4	2back/STIM_001.jpg
2053.077	0.476	1	2back	Block4	2back/STIM_001.jpg
2055.708	0.556	1	2back	Block4	2back/STIM_002.jpg
2058.943	0.454	1	2back	Block4	2back/STIM_002.jpg
2063.231	0.489	1	2back	Block4	2back/STIM_002.jpg
2067.302	0.926	1	2back	Block4	2back/STIM_003.jpg
2070.625	0.515	1	2back	Block4	2back/STIM_003.jpg
2073.618	0.791	1	2back	Block4	2back/STIM_003.jpg
2077.008	0.818	1	2back	Block4	2back/STIM_004.jpg
2080.549	0.727	1	2back	Block4	2back/STIM_004.jpg
2083.477	0.933	1	2back	Block4	2back/STIM_004.jpg
2087.031	0.528	1	2back	Block4	2back/STIM_005.jpg
2089.95	0.714	1	2back	Block4	2back/STIM_005.jpg
2092.911	0.589	1	2back	Block4	2back/STIM_005.jpg
2096.048	0.833	1	2back	Block4	2back/STIM_006.jpg
2100.25	0.549	1	2back	Block4	2back/STIM_006.jpg
2103.855	0.799	1	2back	Block4	2back/STIM_006.jpg
2107.947	0.929	1	2back	Block4	2back/STIM_007.jpg
2111.534	0.567	1	2back	Block4	2back/STIM_007.jpg
2115.493	0.612	1	2back	Block4	2back/STIM_007.jpg
2118.611	0.548	1	2back	Block4	2back/STIM_008.jpg
2122.097	0.571	1	2back	Block4	2back/STIM_008.jpg
2124.89	0.825	1	2back	Block4	2back/STIM_008.jpg
2129.443	0.609	1	2back	Block4	2back/STIM_009.jpg
2134.034	0.577	1	2back	Block4	2back/STIM_009.jpg
2137.204	0.576	1	2back	Block4	2back/STIM_009.jpg
2140.21	0.533	1	2back	Block4	2back/STIM_010.jpg
2144.074	0.855	1	2back	Block4	2back/STIM_010.jpg
2148.191	0.889	1	2back	Block4	2back/STIM_010.jpg
2151.329	0.727	1	2back	Block4	2back/STIM_011.jpg
2155.432	0.619	1	2back	Block4	2back/STIM_011.jpg
2159.98	0.446	1	2back	Block4	2back/STIM_011.jpg
2163.217	0.658	1	2back	Block4	2back/STIM_012.jpg
2167.407	0.613	1	2back	Block4	2back/STIM_012.jpg
2171.408	0.514	1	2back	Block4	2back/STIM_012.jpg
2175.295	0.636	1	2back	Block4	2back/STIM_013.jpg
2179.673	0.492	1	2back	Block4	2back/STIM_013.jpg
2182.803	0.86	1	2back	Block4	2back/STIM_013.jpg
2187.411	0.782	1	2back	Block4	2back/STIM_014.jpg
2190.495	0.91	1	2back	Block4	2back/STIM_014.jpg
2194.819	0.437	1	2back	Block4	2back/STIM_014.jpg
2198.322	0.555	1	2back	Block4	2back/STIM_015.jpg
2202.254	0.931	1	2back	Block4	2back/STIM_015.jpg
2207.091	0.934	1	2back	Block4	2back/STIM_015.jpg
2212.003	0.47	1	2back	Block4	2back/STIM_016.jpg
2215.987	0.868	1	2back	Block4	2back/STIM_016.jpg
2219.394	0.685	1	2back	Block4	2back/STIM_016.jpg
2223.401	0.614	1	2back	Block4	2back/STIM_017.jpg
2227.191	0.58	1	2back	Block4	2back/STIM_017.jpg
2231.569	0.785	1	2back	Block4	2back/STIM_017.jpg
2235.359	0.426	1	2back	Block4	2back/STIM_018.jpg
2238.938	0.94	1	2back	Block4	2back/STIM_018.jpg
2242.975	0.824	1	2back	Block4	2back/STIM_018.jpg
2247.349	0.831	1	2back	Block4	2back/STIM_019.jpg
2251.594	0.555	1	2back	Block4	2back/STIM_019.jpg
2255.031	0.425	1	2back	Block4	2back/STIM_019.jpg
2257.958	0.472	0	2back	Block4	2back/STIM_020.jpg
2261.321	0.562	1	2back	Block4	2back/STIM_020.jpg
2265.013	0.937	1	2back	Block4	2back/STIM_020.jpg
2269.902	0.755	1	2back	Block4	2back/STIM_021.jpg
2274.507	0.639	1	2back	Block4	2back/STIM_021.jpg
2279.06	0.732	1	2back	Block4	2back/STIM_021.jpg
2282.717	0.879	1	2back	Block4	2back/STIM_022.jpg
2286.968	0.927	1	2back	Block4	2back/STIM_022.jpg
2290.277	0.849	1	2back	Block4	2back/STIM_022.jpg
2293.508	0.59	1	2back	Block4	2back/STIM_023.jpg
2296.652	0.924	1	2back	Block4	2back/STIM_023.jpg
2301.11	0.543	1	2back	Block4	2back/STIM_023.jpg
2304.965	0.54	1	2back	Block4	2back/STIM_024.jpg
2308.656	0.734	1	2back	Block4	2back/STIM_024.jpg
2312.577	0.497	1	2back	Block4	2back/STIM_024.jpg
2315.666	0.909	1	2back	Block4	2back/STIM_025.jpg
2320.34	0.733	1	2back	Block4	2back/STIM_025.jpg
2325.095	0.688	1	2back	Block4	2back/STIM_025.jpg
2327.996	0.814	1	2back	Block4	2back/STIM_026.jpg
2331.713	0.798	1	2back	Block4	2back/STIM_026.jpg
2334.925	0.696	1	2back	Block4	2back/STIM_026.jpg
2338.229	0.872	1	2back	Block4	2back/STIM_027.jpg
2341.435	0.627	0	2back	Block4	2back/STIM_027.jpg
2344.21	0.474	1	2back	Block4	2back/STIM_027.jpg
2346.858	0.435	1	2back	Block4	2back/STIM_028.jpg
2349.617	0.61	1	2back	Block4	2back/STIM_028.jpg
2353.558	0.824	1	2back	Block4	2back/STIM_028.jpg
2356.616	0.918	1	2back	Block4	2back/STIM_029.jpg
2360.201	0.523	1	2back	Block4	2back/STIM_029.jpg
2364.446	0.522	1	2back	Block4	2back/STIM_029.jpg
2368.765	0.835	1	2back	Block4	2back/STIM_030.jpg
2373.484	0.556	1	2back	Block4	2back/STIM_030.jpg
2377.897	0.893	1	2back	Block4	2back/STIM_030.jpg
2381.291	0.679	1	2back	Block4	2back/STIM_031.jpg
2385.982	0.584	1	2back	Block4	2back/STIM_031.jpg
2390.395	0.854	1	2back	Block4	2back/STIM_031.jpg
2393.359	0.697	1	2back	Block4	2back/STIM_032.jpg
2397.587	0.788	1	2back	Block4	2back/STIM_032.jpg
2400.51	0.477	1	2back	Block4	2back/STIM_032.jpg
2403.286	0.404	1	2back	Block4	2back/STIM_033.jpg
2405.83	0.894	1	2back	Block4	2back/STIM_033.jpg
2409.921	0.592	1	2back	Block4	2back/STIM_033.jpg
2413.254	0.51	1	2back	Block4	2back/STIM_034.jpg
2416.386	0.885	1	2back	Block4	2back/STIM_034.jpg
2420.594	0.712	1	2back	Block4	2back/STIM_034.jpg
2424.971	0.904	1	2back	Block4	2back/STIM_035.jpg
2427.958	0.725	1	2back	Block4	2back/STIM_035.jpg
2430.891	0.41	1	2back	Block4	2back/STIM_035.jpg
2434.64	0.482	1	2back	Block4	2back/STIM_036.jpg
2438.137	0.439	1	2back	Block4	2back/STIM_036.jpg
2442.523	0.808	1	2back	Block4	2back/STIM_036.jpg
2447.297	0.723	1	2back	Block4	2back/STIM_037.jpg
2451.073	0.494	1	2back	Block4	2back/STIM_037.jpg
2455.114	0.682	1	2back	Block4	2back/STIM_037.jpg
2458.22	0.689	1	2back	Block4	2back/STIM_038.jpg
2462.863	0.775	1	2back	Block4	2back/STIM_038.jpg
2466.418	0.651	1	2back	Block4	2back/STIM_038.jpg
2469.615	0.9	1	2back	Block4	2back/STIM_039.jpg
2474.412	0.731	1	2back	Block4	2back/STIM_039.jpg
2478.028	0.455	1	2back	Block4	2back/STIM_039.jpg
2480.763	0.625	1	0back	Block4	0back/STIM_000.jpg
2485.356	0.517	1	0back	Block4	0back/STIM_000.jpg
2489.297	0.394	1	0back	Block4	0back/STIM_000.jpg
2492.291	0.634	1	0back	Block4	0back/STIM_001.jpg
2496.233	0.677	1	0back	Block4	0back/STIM_001.jpg
2499.546	0.47	1	0back	Block4	0back/STIM_001.jpg
2503.894	0.385	1	0back	Block4	0back/STIM_002.jpg
2507.076	0.646	1	0back	Block4	0back/STIM_002.jpg
2509.887	0.606	1	0back	Block4	0back/STIM_002.jpg
2512.828	0.698	1	0back	Block4	0back/STIM_003.jpg
2517.166	0.476	1	0back	Block4	0back/STIM_003.jpg
2521.224	0.401	1	0back	Block4	0back/STIM_003.jpg
2525.399	0.734	1	0back	Block4	0back/STIM_004.jpg
2528.188	0.622	1	0back	Block4	0back/STIM_004.jpg
2531.11	0.437	1	0back	Block4	0back/STIM_004.jpg
2535.194	0.749	1	0back	Block4	0back/STIM_005.jpg
2539.228	0.707	1	0back	Block4	0back/STIM_005.jpg
2542.356	0.668	1	0back	Block4	0back/STIM_005.jpg
2546.582	0.718	1	0back	Block4	0back/STIM_006.jpg
2550.919	0.414	1	0back	Block4	0back/STIM_006.jpg
2554.502	0.477	1	0back	Block4	0back/STIM_006.jpg
2558.775	0.435	1	0back	Block4	0back/STIM_007.jpg
2561.936	0.738	1	0back	Block4	0back/STIM_007.jpg
2565.985	0.509	1	0back	Block4	0back/STIM_007.jpg
2568.653	0.585	1	0back	Block4	0back/STIM_008.jpg
2572.05	0.446	1	0back	Block4	0back/STIM_008.jpg
2575.646	0.475	1	0back	Block4	0back/STIM_008.jpg
2579.089	0.652	1	0back	Block4	0back/STIM_009.jpg
2581.942	0.516	1	0back	Block4	0back/STIM_009.jpg
2586.186	0.385	1	0back	Block4	0back/STIM_009.jpg
2589.986	0.729	1	0back	Block4	0back/STIM_010.jpg
2593.156	0.695	1	0back	Block4	0back/STIM_010.jpg
2597.452	0.58	1	0back	Block4	0back/STIM_010.jpg
2601.896	0.745	1	0back	Block4	0back/STIM_011.jpg
2605.023	0.421	1	0back	Block4	0back/STIM_011.jpg
2609.214	0.741	1	0back	Block4	0back/STIM_011.jpg
2612.668	0.428	1	0back	Block4	0back/STIM_012.jpg
2615.839	0.659	1	0back	Block4	0back/STIM_012.jpg
2618.843	0.514	1	0back	Block4	0back/STIM_012.jpg
2621.432	0.735	1	0back	Block4	0back/STIM_013.jpg
2626.029	0.407	1	0back	Block4	0back/STIM_013.jpg
2628.983	0.534	1	0back	Block4	0back/STIM_013.jpg
2632.233	0.464	1	0back	Block4	0back/STIM_014.jpg
2636.548	0.4	1	0back	Block4	0back/STIM_014.jpg
2640.281	0.72	1	0back	Block4	0back/STIM_014.jpg
2643.906	0.679	1	0back	Block4	0back/STIM_015.jpg
2648.532	0.74	1	0back	Block4	0back/STIM_015.jpg
2652.458	0.599	1	0back	Block4	0back/STIM_015.jpg
2656.938	0.678	1	0back	Block4	0back/STIM_016.jpg
2659.768	0.513	1	0back	Block4	0back/STIM_016.jpg
2664.101	0.466	0	0back	Block4	0back/STIM_016.jpg
2667.31	0.517	1	0back	Block4	0back/STIM_017.jpg
2670.055	0.559	1	0back	Block4	0back/STIM_017.jpg
2674.066	0.451	1	0back	Block4	0back/STIM_017.jpg
2676.626	0.431	1	0back	Block4	0back/STIM_018.jpg
2679.928	0.559	1	0back	Block4	0back/STIM_018.jpg
2684.176	0.482	1	0back	Block4	0back/STIM_018.jpg
2687.106	0.754	1	0back	Block4	0back/STIM_019.jpg
2691.715	0.667	1	0back	Block4	0back/STIM_019.jpg
2696.282	0.727	1	0back	Block4	0back/STIM_019.jpg
