onset	duration	accuracy	trial_type	learning_stage	stimulus
0.0	0.857	incorrect	study	Phase1	study/STIM_000.jpg
4.3	1.752	correct	study	Phase1	study/STIM_000.jpg
9.733	1.541	correct	study	Phase1	study/STIM_000.jpg
15.024	1.539	incorrect	study	Phase1	study/STIM_001.jpg
20.441	0.992	correct	study	Phase1	study/STIM_001.jpg
24.365	1.371	incorrect	study	Phase1	study/STIM_001.jpg
28.202	1.232	incorrect	study	Phase1	study/STIM_002.jpg
31.685	1.65	incorrect	study	Phase1	study/STIM_002.jpg
36.22	0.862	correct	study	Phase1	study/STIM_002.jpg
39.671	1.686	correct	study	Phase1	study/STIM_003.jpg
44.26	1.412	correct	study	Phase1	study/STIM_003.jpg
47.852	0.879	incorrect	study	Phase1	study/STIM_003.jpg
51.542	1.65	correct	study	Phase1	study/STIM_004.jpg
55.82	1.03	incorrect	study	Phase1	study/STIM_004.jpg
60.379	1.578	correct	study	Phase1	study/STIM_004.jpg
64.839	1.135	correct	study	Phase1	study/STIM_005.jpg
69.804	1.688	correct	study	Phase1	study/STIM_005.jpg
74.148	1.52	correct	study	Phase1	study/STIM_005.jpg
78.813	1.306	correct	study	Phase1	study/STIM_006.jpg
82.497	0.954	correct	study	Phase1	study/STIM_006.jpg
86.012	0.934	correct	study	Phase1	study/STIM_006.jpg
89.097	1.22	correct	study	Phase1	study/STIM_007.jpg
94.206	1.164	incorrect	study	Phase1	study/STIM_007.jpg
98.096	1.555	correct	study	Phase1	study/STIM_007.jpg
102.234	1.837	correct	study	Phase1	study/STIM_008.jpg
108.012	1.657	correct	study	Phase1	study/STIM_008.jpg
112.866	0.986	incorrect	study	Phase1	study/STIM_008.jpg
116.546	1.374	incorrect	study	Phase1	study/STIM_009.jpg
120.512	1.349	correct	study	Phase1	study/STIM_009.jpg
124.548	1.223	correct	study	Phase1	study/STIM_009.jpg
128.69	1.396	correct	study	Phase1	study/STIM_010.jpg
133.769	1.347	correct	study	Phase1	study/STIM_010.jpg
137.823	1.012	correct	study	Phase1	study/STIM_010.jpg
141.186	1.816	correct	study	Phase1	study/STIM_011.jpg
146.399	1.391	correct	study	Phase1	study/STIM_011.jpg
151.208	1.529	correct	study	Phase1	study/STIM_011.jpg
155.57	1.392	correct	study	Phase1	study/STIM_012.jpg
159.5	1.004	incorrect	study	Phase1	study/STIM_012.jpg
164.461	1.029	correct	study	Phase1	study/STIM_012.jpg
168.39	1.112	correct	study	Phase1	study/STIM_013.jpg
172.429	1.387	correct	study	Phase1	study/STIM_013.jpg
176.464	1.488	correct	study	Phase1	study/STIM_013.jpg
180.965	0.977	correct	study	Phase1	study/STIM_014.jpg
185.417	1.584	correct	study	Phase1	study/STIM_014.jpg
189.992	0.796	correct	study	Phase1	study/STIM_014.jpg
193.483	1.831	correct	study	Phase1	study/STIM_015.jpg
198.55	1.337	correct	study	Phase1	study/STIM_015.jpg
201.923	1.539	correct	study	Phase1	study/STIM_015.jpg
206.761	1.719	incorrect	study	Phase1	study/STIM_016.jpg
211.259	1.245	correct	study	Phase1	study/STIM_016.jpg
215.833	1.588	correct	study	Phase1	study/STIM_016.jpg
220.055	1.273	correct	study	Phase1	study/STIM_017.jpg
225.097	1.331	correct	study	Phase1	study/STIM_017.jpg
229.071	0.805	correct	study	Phase1	study/STIM_017.jpg
232.311	1.539	correct	study	Phase1	study/STIM_018.jpg
236.612	1.62	correct	study	Phase1	study/STIM_018.jpg
240.393	1.289	correct	study	Phase1	study/STIM_018.jpg
245.503	1.562	correct	study	Phase1	study/STIM_019.jpg
249.555	1.159	correct	study	Phase1	study/STIM_019.jpg
254.336	1.409	correct	study	Phase1	study/STIM_019.jpg
257.78	1.154	incorrect	study	Phase1	study/STIM_020.jpg
261.037	1.6	incorrect	study	Phase1	study/STIM_020.jpg
265.352	1.709	correct	study	Phase1	study/STIM_020.jpg
269.344	1.592	correct	study	Phase1	study/STIM_021.jpg
273.494	1.634	correct	study	Phase1	study/STIM_021.jpg
278.514	0.889	incorrect	study	Phase1	study/STIM_021.jpg
282.445	1.63	correct	study	Phase1	study/STIM_022.jpg
287.781	0.999	correct	study	Phase1	study/STIM_022.jpg
291.036	1.229	incorrect	study	Phase1	study/STIM_022.jpg
294.32	0.93	correct	study	Phase1	study/STIM_023.jpg
297.823	1.164	correct	study	Phase1	study/STIM_023.jpg
301.428	0.955	correct	study	Phase1	study/STIM_023.jpg
304.501	1.835	correct	study	Phase1	study/STIM_024.jpg
309.232	1.024	incorrect	study	Phase1	study/STIM_024.jpg
312.457	1.152	correct	study	Phase1	study/STIM_024.jpg
317.021	1.15	correct	study	Phase1	study/STIM_025.jpg
320.197	1.345	correct	study	Phase1	study/STIM_025.jpg
325.393	1.251	correct	study	Phase1	study/STIM_025.jpg
329.326	0.904	correct	study	Phase1	study/STIM_026.jpg
332.475	1.292	correct	study	Phase1	study/STIM_026.jpg
337.29	1.233	correct	study	Phase1	study/STIM_026.jpg
342.406	1.891	correct	study	Phase1	study/STIM_027.jpg
347.832	1.257	incorrect	study	Phase1	study/STIM_027.jpg
352.825	0.91	correct	study	Phase1	study/STIM_027.jpg
356.921	0.926	incorrect	study	Phase1	study/STIM_028.jpg
360.475	1.479	correct	study	Phase1	study/STIM_028.jpg
365.393	1.622	correct	study	Phase1	study/STIM_028.jpg
370.0	1.458	correct	study	Phase1	study/STIM_029.jpg
373.692	1.479	correct	study	Phase1	study/STIM_029.jpg
377.306	1.221	correct	study	Phase1	study/STIM_029.jpg
382.443	1.164	incorrect	test	Phase1	test/STIM_000.jpg
386.036	0.755	correct	test	Phase1	test/STIM_000.jpg
389.237	1.17	correct	test	Phase1	test/STIM_000.jpg
393.086	1.219	correct	test	Phase1	test/STIM_001.jpg
396.996	0.796	correct	test	Phase1	test/STIM_001.jpg
401.314	1.245	correct	test	Phase1	test/STIM_001.jpg
405.408	0.692	correct	test	Phase1	test/STIM_002.jpg
408.542	0.868	correct	test	Phase1	test/STIM_002.jpg
412.254	1.163	correct	test	Phase1	test/STIM_002.jpg
415.909	0.749	correct	test	Phase1	test/STIM_003.jpg
420.423	1.139	incorrect	test	Phase1	test/STIM_003.jpg
425.203	0.818	incorrect	test	Phase1	test/STIM_003.jpg
429.156	1.232	correct	test	Phase1	test/STIM_004.jpg
432.808	0.996	correct	test	Phase1	test/STIM_004.jpg
437.299	1.073	correct	test	Phase1	test/STIM_004.jpg
442.117	1.189	incorrect	test	Phase1	test/STIM_005.jpg
446.147	0.882	incorrect	test	Phase1	test/STIM_005.jpg
450.466	0.994	correct	test	Phase1	test/STIM_005.jpg
454.28	1.242	correct	test	Phase1	test/STIM_006.jpg
457.792	1.207	correct	test	Phase1	test/STIM_006.jpg
462.366	1.182	correct	test	Phase1	test/STIM_006.jpg
467.185	1.024	correct	test	Phase1	test/STIM_007.jpg
471.348	1.021	correct	test	Phase1	test/STIM_007.jpg
476.193	0.823	correct	test	Phase1	test/STIM_007.jpg
479.502	0.71	correct	test	Phase1	test/STIM_008.jpg
482.471	1.154	correct	test	Phase1	test/STIM_008.jpg
487.3	1.22	correct	test	Phase1	test/STIM_008.jpg
491.455	0.662	correct	test	Phase1	test/STIM_009.jpg
495.517	0.815	correct	test	Phase1	test/STIM_009.jpg
498.438	0.667	incorrect	test	Phase1	test/STIM_009.jpg
501.665	0.99	incorrect	test	Phase1	test/STIM_010.jpg
506.649	1.389	correct	test	Phase1	test/STIM_010.jpg
511.174	1.334	correct	test	Phase1	test/STIM_010.jpg
514.844	1.234	correct	test	Phase1	test/STIM_011.jpg
518.939	1.04	correct	test	Phase1	test/STIM_011.jpg
522.279	0.698	correct	test	Phase1	test/STIM_011.jpg
526.63	1.032	correct	test	Phase1	test/STIM_012.jpg
531.101	0.998	correct	test	Phase1	test/STIM_012.jpg
535.062	1.352	correct	test	Phase1	test/STIM_012.jpg
539.345	0.81	correct	test	Phase1	test/STIM_013.jpg
543.432	0.944	correct	test	Phase1	test/STIM_013.jpg
547.879	0.878	correct	test	Phase1	test/STIM_013.jpg
551.896	1.164	incorrect	test	Phase1	test/STIM_014.jpg
556.322	0.702	correct	test	Phase1	test/STIM_014.jpg
559.412	0.934	correct	test	Phase1	test/STIM_014.jpg
563.72	1.196	correct	test	Phase1	test/STIM_015.jpg
567.107	0.93	correct	test	Phase1	test/STIM_015.jpg
570.834	1.125	correct	test	Phase1	test/STIM_015.jpg
574.964	1.303	correct	test	Phase1	test/STIM_016.jpg
579.717	1.276	correct	test	Phase1	test/STIM_016.jpg
584.512	0.685	correct	test	Phase1	test/STIM_016.jpg
587.861	0.788	correct	test	Phase1	test/STIM_017.jpg
591.016	1.371	correct	test	Phase1	test/STIM_017.jpg
596.352	1.245	correct	test	Phase1	test/STIM_017.jpg
600.333	1.014	correct	test	Phase1	test/STIM_018.jpg
604.618	1.231	correct	test	Phase1	test/STIM_018.jpg
608.442	1.021	correct	test	Phase1	test/STIM_018.jpg
612.905	0.979	incorrect	test	Phase1	test/STIM_019.jpg
617.731	0.735	correct	test	Phase1	test/STIM_019.jpg
622.405	1.11	correct	test	Phase1	test/STIM_019.jpg
625.552	1.367	correct	test	Phase1	test/STIM_020.jpg
630.739	0.929	correct	test	Phase1	test/STIM_020.jpg
634.504	0.912	incorrect	test	Phase1	test/STIM_020.jpg
638.815	1.27	correct	test	Phase1	test/STIM_021.jpg
643.921	1.195	incorrect	test	Phase1	test/STIM_021.jpg
648.649	0.655	correct	test	Phase1	test/STIM_021.jpg
651.968	1.089	correct	test	Phase1	test/STIM_022.jpg
656.331	1.144	correct	test	Phase1	test/STIM_022.jpg
660.223	1.05	correct	test	Phase1	test/STIM_022.jpg
664.208	0.753	correct	test	Phase1	test/STIM_023.jpg
667.61	1.284	correct	test	Phase1	test/STIM_023.jpg
671.467	1.009	correct	test	Phase1	test/STIM_023.jpg
674.884	1.227	incorrect	test	Phase1	test/STIM_024.jpg
678.523	0.665	correct	test	Phase1	test/STIM_024.jpg
682.673	0.904	correct	test	Phase1	test/STIM_024.jpg
686.37	1.359	correct	test	Phase1	test/STIM_025.jpg
690.248	1.067	correct	test	Phase1	test/STIM_025.jpg
693.359	1.059	correct	test	Phase1	test/STIM_025.jpg
696.849	1.331	correct	test	Phase1	test/STIM_026.jpg
701.213	1.362	incorrect	test	Phase1	test/STIM_026.jpg
706.055	1.253	correct	test	Phase1	test/STIM_026.jpg
709.322	1.033	correct	test	Phase1	test/STIM_027.jpg
713.48	1.194	correct	test	Phase1	test/STIM_027.jpg
717.935	0.719	correct	test	Phase1	test/STIM_027.jpg
722.356	0.678	incorrect	test	Phase1	test/STIM_028.jpg
726.91	0.984	correct	test	Phase1	test/STIM_028.jpg
730.337	0.844	incorrect	test	Phase1	test/STIM_028.jpg
734.457	1.36	incorrect	test	Phase1	test/STIM_029.jpg
738.009	0.916	correct	test	Phase1	test/STIM_029.jpg
741.433	1.019	correct	test	Phase1	test/STIM_029.jpg
745.031	1.606	correct	study	Phase2	study/STIM_000.jpg
749.16	0.92	correct	study	Phase2	study/STIM_000.jpg
753.853	1.185	correct	study	Phase2	study/STIM_000.jpg
758.567	1.578	correct	study	Phase2	study/STIM_001.jpg
763.869	1.41	correct	study	Phase2	study/STIM_001.jpg
767.862	1.094	correct	study	Phase2	study/STIM_001.jpg
771.247	1.592	correct	study	Phase2	study/STIM_002.jpg
775.784	0.792	correct	study	Phase2	study/STIM_002.jpg
780.061	0.84	correct	study	Phase2	study/STIM_002.jpg
783.259	1.049	correct	study	Phase2	study/STIM_003.jpg
786.782	0.709	incorrect	study	Phase2	study/STIM_003.jpg
790.65	0.905	correct	study	Phase2	study/STIM_003.jpg
793.631	1.036	correct	study	Phase2	study/STIM_004.jpg
797.126	1.011	correct	study	Phase2	study/STIM_004.jpg
800.324	0.722	correct	study	Phase2	study/STIM_004.jpg
803.854	0.887	correct	study	Phase2	study/STIM_005.jpg
808.181	0.728	correct	study	Phase2	study/STIM_005.jpg
811.63	1.291	correct	study	Phase2	study/STIM_005.jpg
816.3	1.076	correct	study	Phase2	study/STIM_006.jpg
820.656	0.968	correct	study	Phase2	study/STIM_006.jpg
825.593	0.893	correct	study	Phase2	study/STIM_006.jpg
829.488	1.148	correct	study	Phase2	study/STIM_007.jpg
833.22	1.47	correct	study	Phase2	study/STIM_007.jpg
837.571	1.244	correct	study	Phase2	study/STIM_007.jpg
841.349	0.887	correct	study	Phase2	study/STIM_008.jpg
845.859	1.536	correct	study	Phase2	study/STIM_008.jpg
850.476	1.203	correct	study	Phase2	study/STIM_008.jpg
855.1	0.851	incorrect	study	Phase2	study/STIM_009.jpg
858.137	1.009	correct	study	Phase2	study/STIM_009.jpg
862.894	0.708	correct	study	Phase2	study/STIM_009.jpg
867.518	1.183	correct	study	Phase2	study/STIM_010.jpg
871.284	1.22	correct	study	Phase2	study/STIM_010.jpg
876.439	1.096	correct	study	Phase2	study/STIM_010.jpg
880.533	1.597	correct	study	Phase2	study/STIM_011.jpg
885.454	1.42	correct	study	Phase2	study/STIM_011.jpg
888.93	0.868	correct	study	Phase2	study/STIM_011.jpg
891.811	1.523	incorrect	study	Phase2	study/STIM_012.jpg
896.028	0.769	correct	study	Phase2	study/STIM_012.jpg
900.45	1.1	correct	study	Phase2	study/STIM_012.jpg
905.103	1.323	correct	study	Phase2	study/STIM_013.jpg
909.867	1.171	correct	study	Phase2	study/STIM_013.jpg
914.125	1.408	correct	study	Phase2	study/STIM_013.jpg
918.68	1.492	correct	study	Phase2	study/STIM_014.jpg
922.804	1.114	incorrect	study	Phase2	study/STIM_014.jpg
926.359	1.188	correct	study	Phase2	study/STIM_014.jpg
930.701	1.202	correct	study	Phase2	study/STIM_015.jpg
935.722	1.329	correct	study	Phase2	study/STIM_015.jpg
940.369	0.911	correct	study	Phase2	study/STIM_015.jpg
943.688	0.799	correct	study	Phase2	study/STIM_016.jpg
947.731	1.009	correct	study	Phase2	study/STIM_016.jpg
950.911	1.258	incorrect	study	Phase2	study/STIM_016.jpg
955.438	1.12	correct	study	Phase2	study/STIM_017.jpg
959.604	1.352	incorrect	study	Phase2	study/STIM_017.jpg
963.691	0.755	correct	study	Phase2	study/STIM_017.jpg
968.103	1.236	correct	study	Phase2	study/STIM_018.jpg
972.662	0.71	correct	study	Phase2	study/STIM_018.jpg
977.214	1.12	correct	study	Phase2	study/STIM_018.jpg
980.503	0.934	correct	study	Phase2	study/STIM_019.jpg
984.983	1.098	correct	study	Phase2	study/STIM_019.jpg
988.397	1.291	correct	study	Phase2	study/STIM_019.jpg
992.363	0.947	incorrect	study	Phase2	study/STIM_020.jpg
995.654	1.106	correct	study	Phase2	study/STIM_020.jpg
999.796	1.224	correct	study	Phase2	study/STIM_020.jpg
1003.258	0.802	correct	study	Phase2	study/STIM_021.jpg
1007.152	0.769	correct	study	Phase2	study/STIM_021.jpg
1011.033	1.241	correct	study	Phase2	study/STIM_021.jpg
1015.077	1.46	correct	study	Phase2	study/STIM_022.jpg
1019.3	0.695	correct	study	Phase2	study/STIM_022.jpg
1023.698	0.664	correct	study	Phase2	study/STIM_022.jpg
1028.052	1.175	correct	study	Phase2	study/STIM_023.jpg
1033.221	0.739	correct	study	Phase2	study/STIM_023.jpg
1037.731	0.879	correct	study	Phase2	study/STIM_023.jpg
1041.276	1.464	correct	study	Phase2	study/STIM_024.jpg
1045.678	1.131	correct	study	Phase2	study/STIM_024.jpg
1049.04	1.216	correct	study	Phase2	study/STIM_024.jpg
1053.7	1.556	correct	study	Phase2	study/STIM_025.jpg
1058.812	1.452	correct	study	Phase2	study/STIM_025.jpg
1063.727	1.245	correct	study	Phase2	study/STIM_025.jpg
1068.791	0.735	correct	study	Phase2	study/STIM_026.jpg
1071.568	1.131	correct	study	Phase2	study/STIM_026.jpg
1075.946	1.255	correct	study	Phase2	study/STIM_026.jpg
1080.646	0.819	correct	study	Phase2	study/STIM_027.jpg
1085.097	1.243	correct	study	Phase2	study/STIM_027.jpg
1088.794	0.902	correct	study	Phase2	study/STIM_027.jpg
1093.389	0.876	correct	study	Phase2	study/STIM_028.jpg
1097.247	1.063	correct	study	Phase2	study/STIM_028.jpg
1101.596	1.416	correct	study	Phase2	study/STIM_028.jpg
1106.762	1.366	correct	study	Phase2	study/STIM_029.jpg
1111.009	1.121	correct	study	Phase2	study/STIM_029.jpg
1115.975	1.003	correct	study	Phase2	study/STIM_029.jpg
1119.653	1.074	incorrect	test	Phase2	test/STIM_000.jpg
1124.548	0.954	correct	test	Phase2	test/STIM_000.jpg
1127.722	0.782	correct	test	Phase2	test/STIM_000.jpg
1132.24	0.906	correct	test	Phase2	test/STIM_001.jpg
1135.997	1.279	correct	test	Phase2	test/STIM_001.jpg
1140.22	0.85	correct	test	Phase2	test/STIM_001.jpg
1143.912	0.892	correct	test	Phase2	test/STIM_002.jpg
1148.298	0.909	correct	test	Phase2	test/STIM_002.jpg
1153.155	1.328	correct	test	Phase2	test/STIM_002.jpg
1157.308	0.875	correct	test	Phase2	test/STIM_003.jpg
1161.447	1.055	correct	test	Phase2	test/STIM_003.jpg
1165.653	0.744	correct	test	Phase2	test/STIM_003.jpg
1169.118	1.027	correct	test	Phase2	test/STIM_004.jpg
1172.19	1.297	correct	test	Phase2	test/STIM_004.jpg
1176.651	1.302	correct	test	Phase2	test/STIM_004.jpg
1180.777	0.924	incorrect	test	Phase2	test/STIM_005.jpg
1184.547	1.0	correct	test	Phase2	test/STIM_005.jpg
1188.524	0.711	correct	test	Phase2	test/STIM_005.jpg
1192.535	0.683	correct	test	Phase2	test/STIM_006.jpg
1195.942	0.81	correct	test	Phase2	test/STIM_006.jpg
1199.947	0.702	correct	test	Phase2	test/STIM_006.jpg
1203.904	1.376	incorrect	test	Phase2	test/STIM_007.jpg
1208.106	1.35	correct	test	Phase2	test/STIM_007.jpg
1211.937	1.318	correct	test	Phase2	test/STIM_007.jpg
1215.363	1.145	correct	test	Phase2	test/STIM_008.jpg
1219.056	0.928	correct	test	Phase2	test/STIM_008.jpg
1223.25	1.138	incorrect	test	Phase2	test/STIM_008.jpg
1227.744	1.134	correct	test	Phase2	test/STIM_009.jpg
1231.988	1.1	correct	test	Phase2	test/STIM_009.jpg
1236.891	0.887	correct	test	Phase2	test/STIM_009.jpg
1241.122	1.094	incorrect	test	Phase2	test/STIM_010.jpg
1244.678	0.937	correct	test	Phase2	test/STIM_010.jpg
1249.338	0.951	correct	test	Phase2	test/STIM_010.jpg
1252.603	0.948	incorrect	test	Phase2	test/STIM_011.jpg
1257.45	0.774	incorrect	test	Phase2	test/STIM_011.jpg
1260.389	1.33	correct	test	Phase2	test/STIM_011.jpg
1265.644	0.673	correct	test	Phase2	test/STIM_012.jpg
1269.077	1.106	correct	test	Phase2	test/STIM_012.jpg
1273.607	0.765	correct	test	Phase2	test/STIM_012.jpg
1277.167	1.021	incorrect	test	Phase2	test/STIM_013.jpg
1280.308	1.332	correct	test	Phase2	test/STIM_013.jpg
1284.526	1.051	correct	test	Phase2	test/STIM_013.jpg
1288.572	0.96	correct	test	Phase2	test/STIM_014.jpg
1293.163	0.777	correct	test	Phase2	test/STIM_014.jpg
1296.983	1.155	correct	test	Phase2	test/STIM_014.jpg
1301.23	0.865	correct	test	Phase2	test/STIM_015.jpg
1305.033	1.265	incorrect	test	Phase2	test/STIM_015.jpg
1309.952	1.177	correct	test	Phase2	test/STIM_015.jpg
1314.754	1.005	incorrect	test	Phase2	test/STIM_016.jpg
1319.289	0.912	incorrect	test	Phase2	test/STIM_016.jpg
1323.918	0.938	correct	test	Phase2	test/STIM_016.jpg
1328.149	1.307	incorrect	test	Phase2	test/STIM_017.jpg
1332.565	0.707	correct	test	Phase2	test/STIM_017.jpg
1336.49	0.798	correct	test	Phase2	test/STIM_017.jpg
1339.461	0.92	correct	test	Phase2	test/STIM_018.jpg
1344.205	0.668	correct	test	Phase2	test/STIM_018.jpg
1348.597	0.829	correct	test	Phase2	test/STIM_018.jpg
1351.68	0.944	correct	test	Phase2	test/STIM_019.jpg
1356.06	0.819	correct	test	Phase2	test/STIM_019.jpg
1360.877	1.288	correct	test	Phase2	test/STIM_019.jpg
1366.044	1.382	correct	test	Phase2	test/STIM_020.jpg
1369.974	1.326	correct	test	Phase2	test/STIM_020.jpg
1373.469	1.342	correct	test	Phase2	test/STIM_020.jpg
1377.455	0.898	correct	test	Phase2	test/STIM_021.jpg
1381.385	1.075	correct	test	Phase2	test/STIM_021.jpg
1385.285	1.193	incorrect	test	Phase2	test/STIM_021.jpg
1390.371	1.176	incorrect	test	Phase2	test/STIM_022.jpg
1394.391	1.364	correct	test	Phase2	test/STIM_022.jpg
1397.907	1.243	correct	test	Phase2	test/STIM_022.jpg
1401.692	1.086	correct	test	Phase2	test/STIM_023.jpg
1405.833	1.087	correct	test	Phase2	test/STIM_023.jpg
1410.894	1.375	correct	test	Phase2	test/STIM_023.jpg
1414.906	1.06	correct	test	Phase2	test/STIM_024.jpg
1418.589	1.114	correct	test	Phase2	test/STIM_024.jpg
1423.51	0.819	correct	test	Phase2	test/STIM_024.jpg
1427.23	0.738	correct	test	Phase2	test/STIM_025.jpg
1430.083	0.88	correct	test	Phase2	test/STIM_025.jpg
1434.814	0.717	correct	test	Phase2	test/STIM_025.jpg
1439.344	0.991	correct	test	Phase2	test/STIM_026.jpg
1443.526	0.817	correct	test	Phase2	test/STIM_026.jpg
1447.476	0.908	correct	test	Phase2	test/STIM_026.jpg
1451.567	1.262	correct	test	Phase2	test/STIM_027.jpg
1455.298	1.065	correct	test	Phase2	test/STIM_027.jpg
1459.99	1.149	correct	test	Phase2	test/STIM_027.jpg
1464.402	0.801	correct	test	Phase2	test/STIM_028.jpg
1468.191	0.929	correct	test	Phase2	test/STIM_028.jpg
1472.778	0.698	correct	test	Phase2	test/STIM_028.jpg
1475.937	0.802	correct	test	Phase2	test/STIM_029.jpg
1479.629	1.244	correct	test	Phase2	test/STIM_029.jpg
1484.619	1.264	correct	test	Phase2	test/STIM_029.jpg
1489.292	1.32	correct	study	Phase3	study/STIM_000.jpg
1493.6	1.139	correct	study	Phase3	study/STIM_000.jpg
1498.662	0.629	correct	study	Phase3	study/STIM_000.jpg
1502.718	0.92	incorrect	study	Phase3	study/STIM_001.jpg
1506.465	1.258	correct	study	Phase3	study/STIM_001.jpg
1510.393	1.101	correct	study	Phase3	study/STIM_001.jpg
1514.614	0.891	correct	study	Phase3	study/STIM_002.jpg
1518.747	0.912	incorrect	study	Phase3	study/STIM_002.jpg
1522.127	0.785	correct	study	Phase3	study/STIM_002.jpg
1525.871	0.68	correct	study	Phase3	study/STIM_003.jpg
1529.001	0.963	correct	study	Phase3	study/STIM_003.jpg
1532.251	0.923	correct	study	Phase3	study/STIM_003.jpg
1535.249	1.244	correct	study	Phase3	study/STIM_004.jpg
1540.056	0.734	correct	study	Phase3	study/STIM_004.jpg
1543.678	1.091	correct	study	Phase3	study/STIM_004.jpg
1547.871	0.716	correct	study	Phase3	study/STIM_005.jpg
1552.235	0.98	correct	study	Phase3	study/STIM_005.jpg
1556.041	1.163	correct	study	Phase3	study/STIM_005.jpg
1560.365	1.32	correct	study	Phase3	study/STIM_006.jpg
1563.773	1.072	correct	study	Phase3	study/STIM_006.jpg
1567.228	0.635	correct	study	Phase3	study/STIM_006.jpg
1571.572	1.148	correct	study	Phase3	study/STIM_007.jpg
1576.515	1.096	correct	study	Phase3	study/STIM_007.jpg
1579.747	1.145	correct	study	Phase3	study/STIM_007.jpg
1583.498	0.814	correct	study	Phase3	study/STIM_008.jpg
1587.797	0.707	correct	study	Phase3	study/STIM_008.jpg
1590.536	1.068	correct	study	Phase3	study/STIM_008.jpg
1594.866	0.666	incorrect	study	Phase3	study/STIM_009.jpg
1597.752	1.082	correct	study	Phase3	study/STIM_009.jpg
1602.068	0.699	correct	study	Phase3	study/STIM_009.jpg
1605.6	0.693	correct	study	Phase3	study/STIM_010.jpg
1608.952	1.265	correct	study	Phase3	study/STIM_010.jpg
1613.799	0.911	correct	study	Phase3	study/STIM_010.jpg
1618.458	1.345	incorrect	study	Phase3	study/STIM_011.jpg
1623.395	0.65	incorrect	study	Phase3	study/STIM_011.jpg
1627.338	0.933	correct	study	Phase3	study/STIM_011.jpg
1632.204	1.211	correct	study	Phase3	study/STIM_012.jpg
1636.614	0.635	correct	study	Phase3	study/STIM_012.jpg
1640.466	1.133	correct	study	Phase3	study/STIM_012.jpg
1644.165	1.273	correct	study	Phase3	study/STIM_013.jpg
1647.594	0.883	correct	study	Phase3	study/STIM_013.jpg
1651.181	0.685	correct	study	Phase3	study/STIM_013.jpg
1654.13	1.283	correct	study	Phase3	study/STIM_014.jpg
1658.363	0.649	incorrect	study	Phase3	study/STIM_014.jpg
1662.197	1.263	correct	study	Phase3	study/STIM_014.jpg
1666.844	1.019	correct	study	Phase3	study/STIM_015.jpg
1670.107	1.118	correct	study	Phase3	study/STIM_015.jpg
1675.224	1.267	correct	study	Phase3	study/STIM_015.jpg
1679.775	0.717	correct	study	Phase3	study/STIM_016.jpg
1683.41	0.988	correct	study	Phase3	study/STIM_016.jpg
1686.411	0.968	correct	study	Phase3	study/STIM_016.jpg
1689.698	0.65	correct	study	Phase3	study/STIM_017.jpg
1693.442	0.845	correct	study	Phase3	study/STIM_017.jpg
1696.89	0.985	correct	study	Phase3	study/STIM_017.jpg
1699.897	0.917	correct	study	Phase3	study/STIM_018.jpg
1704.343	0.934	correct	study	Phase3	study/STIM_018.jpg
1708.486	0.884	correct	study	Phase3	study/STIM_018.jpg
1713.19	1.0	correct	study	Phase3	study/STIM_019.jpg
1717.532	1.199	correct	study	Phase3	study/STIM_019.jpg
1721.93	0.987	correct	study	Phase3	study/STIM_019.jpg
1726.333	1.026	correct	study	Phase3	study/STIM_020.jpg
1729.696	0.613	correct	study	Phase3	study/STIM_020.jpg
1734.18	1.188	correct	study	Phase3	study/STIM_020.jpg
1737.669	0.866	correct	study	Phase3	study/STIM_021.jpg
1741.206	1.194	correct	study	Phase3	study/STIM_021.jpg
1745.659	1.294	correct	study	Phase3	study/STIM_021.jpg
1750.377	0.747	correct	study	Phase3	study/STIM_022.jpg
1753.578	0.877	correct	study	Phase3	study/STIM_022.jpg
1756.873	1.076	correct	study	Phase3	study/STIM_022.jpg
1761.197	1.315	correct	study	Phase3	study/STIM_023.jpg
1765.104	0.641	correct	study	Phase3	study/STIM_023.jpg
1768.915	0.728	correct	study	Phase3	study/STIM_023.jpg
1771.728	0.739	correct	study	Phase3	study/STIM_024.jpg
1775.271	0.842	correct	study	Phase3	study/STIM_024.jpg
1779.846	1.106	correct	study	Phase3	study/STIM_024.jpg
1784.269	1.119	correct	study	Phase3	study/STIM_025.jpg
1788.002	0.684	correct	study	Phase3	study/STIM_025.jpg
1790.928	0.944	correct	study	Phase3	study/STIM_025.jpg
1794.536	0.95	correct	study	Phase3	study/STIM_026.jpg
1798.848	0.727	correct	study	Phase3	study/STIM_026.jpg
1802.576	0.751	correct	study	Phase3	study/STIM_026.jpg
1805.709	0.873	correct	study	Phase3	study/STIM_027.jpg
1809.899	0.956	correct	study	Phase3	study/STIM_027.jpg
1813.419	1.33	correct	study	Phase3	study/STIM_027.jpg
1817.982	0.972	correct	study	Phase3	study/STIM_028.jpg
1822.843	0.664	correct	study	Phase3	study/STIM_028.jpg
1827.129	1.158	correct	study	Phase3	study/STIM_028.jpg
1831.767	0.932	correct	study	Phase3	study/STIM_029.jpg
1836.524	0.925	correct	study	Phase3	study/STIM_029.jpg
1840.42	0.807	correct	study	Phase3	study/STIM_029.jpg
1843.751	1.272	correct	test	Phase3	test/STIM_000.jpg
1848.724	1.198	correct	test	Phase3	test/STIM_000.jpg
1852.294	1.065	correct	test	Phase3	test/STIM_000.jpg
1857.038	1.212	correct	test	Phase3	test/STIM_001.jpg
1861.306	0.768	correct	test	Phase3	test/STIM_001.jpg
1865.23	0.878	correct	test	Phase3	test/STIM_001.jpg
1868.854	0.726	correct	test	Phase3	test/STIM_002.jpg
1872.976	0.83	correct	test	Phase3	test/STIM_002.jpg
1876.613	1.15	correct	test	Phase3	test/STIM_002.jpg
1880.075	1.299	correct	test	Phase3	test/STIM_003.jpg
1883.709	1.138	correct	test	Phase3	test/STIM_003.jpg
1888.445	1.21	correct	test	Phase3	test/STIM_003.jpg
1892.037	1.051	correct	test	Phase3	test/STIM_004.jpg
1896.975	0.992	incorrect	test	Phase3	test/STIM_004.jpg
1900.348	0.682	correct	test	Phase3	test/STIM_004.jpg
1904.178	0.773	incorrect	test	Phase3	test/STIM_005.jpg
1908.144	1.288	correct	test	Phase3	test/STIM_005.jpg
1912.624	1.034	correct	test	Phase3	test/STIM_005.jpg
1917.251	1.086	incorrect	test	Phase3	test/STIM_006.jpg
1920.836	1.191	correct	test	Phase3	test/STIM_006.jpg
1924.285	1.118	correct	test	Phase3	test/STIM_006.jpg
1929.104	0.641	correct	test	Phase3	test/STIM_007.jpg
1931.819	0.763	correct	test	Phase3	test/STIM_007.jpg
1934.861	1.107	correct	test	Phase3	test/STIM_007.jpg
1938.037	0.661	correct	test	Phase3	test/STIM_008.jpg
1942.045	0.746	correct	test	Phase3	test/STIM_008.jpg
1946.761	0.811	incorrect	test	Phase3	test/STIM_008.jpg
1950.055	0.939	correct	test	Phase3	test/STIM_009.jpg
1953.051	0.871	correct	test	Phase3	test/STIM_009.jpg
1957.173	0.662	correct	test	Phase3	test/STIM_009.jpg
1960.524	0.661	correct	test	Phase3	test/STIM_010.jpg
1965.048	0.847	correct	test	Phase3	test/STIM_010.jpg
1968.491	0.721	incorrect	test	Phase3	test/STIM_010.jpg
1972.154	0.863	correct	test	Phase3	test/STIM_011.jpg
1976.915	0.693	correct	test	Phase3	test/STIM_011.jpg
1979.61	0.642	correct	test	Phase3	test/STIM_011.jpg
1983.212	0.677	correct	test	Phase3	test/STIM_012.jpg
1985.947	1.012	correct	test	Phase3	test/STIM_012.jpg
1989.434	1.074	correct	test	Phase3	test/STIM_012.jpg
1992.937	1.253	correct	test	Phase3	test/STIM_013.jpg
1997.818	0.803	correct	test	Phase3	test/STIM_013.jpg
2000.827	1.012	correct	test	Phase3	test/STIM_013.jpg
2003.851	0.989	incorrect	test	Phase3	test/STIM_014.jpg
2008.514	1.01	correct	test	Phase3	test/STIM_014.jpg
2013.167	0.679	correct	test	Phase3	test/STIM_014.jpg
2015.896	0.678	incorrect	test	Phase3	test/STIM_015.jpg
2019.53	0.978	correct	test	Phase3	test/STIM_015.jpg
2023.033	0.824	correct	test	Phase3	test/STIM_015.jpg
2027.139	1.163	correct	test	Phase3	test/STIM_016.jpg
2031.878	0.954	incorrect	test	Phase3	test/STIM_016.jpg
2035.123	0.815	correct	test	Phase3	test/STIM_016.jpg
2039.892	1.168	correct	test	Phase3	test/STIM_017.jpg
2043.346	0.975	correct	test	Phase3	test/STIM_017.jpg
2046.653	1.203	incorrect	test	Phase3	test/STIM_017.jpg
2051.405	1.058	incorrect	test	Phase3	test/STIM_018.jpg
2054.96	1.18	correct	test	Phase3	test/STIM_018.jpg
2059.883	0.663	correct	test	Phase3	test/STIM_018.jpg
2064.525	1.08	correct	test	Phase3	test/STIM_019.jpg
2069.36	0.839	correct	test	Phase3	test/STIM_019.jpg
2073.06	0.716	incorrect	test	Phase3	test/STIM_019.jpg
2076.703	1.099	correct	test	Phase3	test/STIM_020.jpg
2081.213	1.271	correct	test	Phase3	test/STIM_020.jpg
2085.122	1.085	incorrect	test	Phase3	test/STIM_020.jpg
2089.343	0.839	correct	test	Phase3	test/STIM_021.jpg
2093.078	0.652	correct	test	Phase3	test/STIM_021.jpg
2096.753	1.203	correct	test	Phase3	test/STIM_021.jpg
2101.069	1.334	correct	test	Phase3	test/STIM_022.jpg
2105.095	0.932	incorrect	test	Phase3	test/STIM_022.jpg
2109.227	0.936	correct	test	Phase3	test/STIM_022.jpg
2113.132	0.759	correct	test	Phase3	test/STIM_023.jpg
2116.37	1.062	correct	test	Phase3	test/STIM_023.jpg
2121.269	1.335	correct	test	Phase3	test/STIM_023.jpg
2124.847	1.217	correct	test	Phase3	test/STIM_024.jpg
2129.465	1.326	correct	test	Phase3	test/STIM_024.jpg
2134.513	0.809	correct	test	Phase3	test/STIM_024.jpg
2137.776	0.81	correct	test	Phase3	test/STIM_025.jpg
2141.696	1.239	correct	test	Phase3	test/STIM_025.jpg
2146.229	0.783	correct	test	Phase3	test/STIM_025.jpg
2149.138	0.791	incorrect	test	Phase3	test/STIM_026.jpg
2153.745	1.218	correct	test	Phase3	test/STIM_026.jpg
2158.611	1.364	correct	test	Phase3	test/STIM_026.jpg
2162.349	0.789	incorrect	test	Phase3	test/STIM_027.jpg
2165.242	1.006	correct	test	Phase3	test/STIM_027.jpg
2169.309	1.367	incorrect	test	Phase3	test/STIM_027.jpg
2172.703	0.993	correct	test	Phase3	test/STIM_028.jpg
2175.887	0.808	correct	test	Phase3	test/STIM_028.jpg
2179.283	1.214	correct	test	Phase3	test/STIM_028.jpg
2184.089	1.054	correct	test	Phase3	test/STIM_029.jpg
2187.915	0.89	correct	test	Phase3	test/STIM_029.jpg
2192.055	1.223	correct	test	Phase3	test/STIM_029.jpg
