onset	duration	accuracy_binary	trial_type	learning_stage	stimulus
0.0	1.123	1	2back	Block1	2back/STIM_000.jpg
4.837	1.237	0	2back	Block1	2back/STIM_000.jpg
8.112	0.725	1	2back	Block1	2back/STIM_000.jpg
12.396	0.645	1	2back	Block1	2back/STIM_001.jpg
16.306	0.821	1	2back	Block1	2back/STIM_001.jpg
19.205	0.667	1	2back	Block1	2back/STIM_001.jpg
22.577	0.879	0	2back	Block1	2back/STIM_002.jpg
26.218	1.263	1	2back	Block1	2back/STIM_002.jpg
29.965	0.87	1	2back	Block1	2back/STIM_002.jpg
34.088	1.212	1	2back	Block1	2back/STIM_003.jpg
38.003	1.182	1	2back	Block1	2back/STIM_003.jpg
41.843	0.704	1	2back	Block1	2back/STIM_003.jpg
45.945	0.88	1	2back	Block1	2back/STIM_004.jpg
50.394	1.069	1	2back	Block1	2back/STIM_004.jpg
53.934	0.696	1	2back	Block1	2back/STIM_004.jpg
56.525	0.915	1	2back	Block1	2back/STIM_005.jpg
61.332	0.749	1	2back	Block1	2back/STIM_005.jpg
65.686	0.834	1	2back	Block1	2back/STIM_005.jpg
70.244	1.056	1	2back	Block1	2back/STIM_006.jpg
73.966	0.798	1	2back	Block1	2back/STIM_006.jpg
78.014	1.177	1	2back	Block1	2back/STIM_006.jpg
82.048	1.066	1	2back	Block1	2back/STIM_007.jpg
86.169	1.105	0	2back	Block1	2back/STIM_007.jpg
90.207	1.091	1	2back	Block1	2back/STIM_007.jpg
94.085	1.141	1	2back	Block1	2back/STIM_008.jpg
99.16	1.078	1	2back	Block1	2back/STIM_008.jpg
104.024	0.73	1	2back	Block1	2back/STIM_008.jpg
108.513	0.798	1	2back	Block1	2back/STIM_009.jpg
111.982	0.606	1	2back	Block1	2back/STIM_009.jpg
114.85	0.759	1	2back	Block1	2back/STIM_009.jpg
119.348	1.334	0	2back	Block1	2back/STIM_010.jpg
123.708	1.192	1	2back	Block1	2back/STIM_010.jpg
126.931	0.682	1	2back	Block1	2back/STIM_010.jpg
130.484	1.127	1	2back	Block1	2back/STIM_011.jpg
133.695	1.278	1	2back	Block1	2back/STIM_011.jpg
137.807	1.133	1	2back	Block1	2back/STIM_011.jpg
142.061	1.254	1	2back	Block1	2back/STIM_012.jpg
146.752	1.175	1	2back	Block1	2back/STIM_012.jpg
150.473	0.806	1	2back	Block1	2back/STIM_012.jpg
154.973	0.926	1	2back	Block1	2back/STIM_013.jpg
158.635	0.644	1	2back	Block1	2back/STIM_013.jpg
162.75	0.869	1	2back	Block1	2back/STIM_013.jpg
166.109	1.142	1	2back	Block1	2back/STIM_014.jpg
170.64	1.156	1	2back	Block1	2back/STIM_014.jpg
175.477	1.122	1	2back	Block1	2back/STIM_014.jpg
179.835	1.099	0	2back	Block1	2back/STIM_015.jpg
184.429	0.924	1	2back	Block1	2back/STIM_015.jpg
188.61	1.177	1	2back	Block1	2back/STIM_015.jpg
192.315	1.204	0	2back	Block1	2back/STIM_016.jpg
197.312	1.165	1	2back	Block1	2back/STIM_016.jpg
201.344	0.778	1	2back	Block1	2back/STIM_016.jpg
204.867	1.345	1	2back	Block1	2back/STIM_017.jpg
209.297	1.058	1	2back	Block1	2back/STIM_017.jpg
212.415	0.885	1	2back	Block1	2back/STIM_017.jpg
217.225	1.217	0	2back	Block1	2back/STIM_018.jpg
222.124	0.816	1	2back	Block1	2back/STIM_018.jpg
226.987	0.578	1	2back	Block1	2back/STIM_018.jpg
229.64	1.044	1	2back	Block1	2back/STIM_019.jpg
233.464	0.79	1	2back	Block1	2back/STIM_019.jpg
236.651	0.673	0	2back	Block1	2back/STIM_019.jpg
240.534	1.316	1	2back	Block1	2back/STIM_020.jpg
245.266	0.713	1	2back	Block1	2back/STIM_020.jpg
248.428	1.034	1	2back	Block1	2back/STIM_020.jpg
252.728	1.034	1	2back	Block1	2back/STIM_021.jpg
257.819	1.214	1	2back	Block1	2back/STIM_021.jpg
261.229	0.612	0	2back	Block1	2back/STIM_021.jpg
264.917	0.898	1	2back	Block1	2back/STIM_022.jpg
267.924	0.963	0	2back	Block1	2back/STIM_022.jpg
271.681	0.606	0	2back	Block1	2back/STIM_022.jpg
275.226	0.978	1	2back	Block1	2back/STIM_023.jpg
279.291	1.141	1	2back	Block1	2back/STIM_023.jpg
283.302	0.893	1	2back	Block1	2back/STIM_023.jpg
286.254	0.829	1	2back	Block1	2back/STIM_024.jpg
290.224	0.904	1	2back	Block1	2back/STIM_024.jpg
294.598	0.85	1	2back	Block1	2back/STIM_024.jpg
297.88	1.069	0	2back	Block1	2back/STIM_025.jpg
301.199	0.882	1	2back	Block1	2back/STIM_025.jpg
305.52	0.612	1	2back	Block1	2back/STIM_025.jpg
309.036	0.915	0	2back	Block1	2back/STIM_026.jpg
312.784	0.677	1	2back	Block1	2back/STIM_026.jpg
316.746	0.602	1	2back	Block1	2back/STIM_026.jpg
321.108	1.067	1	2back	Block1	2back/STIM_027.jpg
325.014	0.866	1	2back	Block1	2back/STIM_027.jpg
329.313	1.24	1	2back	Block1	2back/STIM_027.jpg
334.019	1.076	0	2back	Block1	2back/STIM_028.jpg
339.038	1.108	1	2back	Block1	2back/STIM_028.jpg
344.018	0.741	1	2back	Block1	2back/STIM_028.jpg
348.688	1.317	1	2back	Block1	2back/STIM_029.jpg
353.294	0.651	0	2back	Block1	2back/STIM_029.jpg
357.579	0.638	0	2back	Block1	2back/STIM_029.jpg
361.704	1.327	1	2back	Block1	2back/STIM_030.jpg
366.017	1.168	1	2back	Block1	2back/STIM_030.jpg
369.377	1.001	1	2back	Block1	2back/STIM_030.jpg
372.919	0.689	1	2back	Block1	2back/STIM_031.jpg
376.154	1.269	1	2back	Block1	2back/STIM_031.jpg
379.763	1.022	1	2back	Block1	2back/STIM_031.jpg
382.891	1.326	1	2back	Block1	2back/STIM_032.jpg
387.874	0.598	0	2back	Block1	2back/STIM_032.jpg
391.647	0.673	1	2back	Block1	2back/STIM_032.jpg
395.184	1.238	1	2back	Block1	2back/STIM_033.jpg
398.542	0.868	1	2back	Block1	2back/STIM_033.jpg
402.213	0.467	1	2back	Block1	2back/STIM_033.jpg
405.948	1.125	1	2back	Block1	2back/STIM_034.jpg
410.708	1.082	1	2back	Block1	2back/STIM_034.jpg
413.983	0.602	0	2back	Block1	2back/STIM_034.jpg
417.748	1.22	1	2back	Block1	2back/STIM_035.jpg
422.723	1.254	1	2back	Block1	2back/STIM_035.jpg
426.894	1.014	1	2back	Block1	2back/STIM_035.jpg
431.245	0.762	1	2back	Block1	2back/STIM_036.jpg
435.503	0.781	1	2back	Block1	2back/STIM_036.jpg
438.516	0.61	1	2back	Block1	2back/STIM_036.jpg
443.037	1.068	1	2back	Block1	2back/STIM_037.jpg
446.813	1.126	1	2back	Block1	2back/STIM_037.jpg
450.77	0.763	1	2back	Block1	2back/STIM_037.jpg
454.699	0.54	0	2back	Block1	2back/STIM_038.jpg
458.172	0.711	1	2back	Block1	2back/STIM_038.jpg
462.42	1.152	1	2back	Block1	2back/STIM_038.jpg
467.043	0.828	1	2back	Block1	2back/STIM_039.jpg
471.175	1.24	1	2back	Block1	2back/STIM_039.jpg
475.217	0.873	1	2back	Block1	2back/STIM_039.jpg
478.219	0.702	1	0back	Block1	0back/STIM_000.jpg
482.428	0.572	0	0back	Block1	0back/STIM_000.jpg
485.181	0.732	1	0back	Block1	0back/STIM_000.jpg
487.966	0.435	1	0back	Block1	0back/STIM_001.jpg
490.512	0.751	1	0back	Block1	0back/STIM_001.jpg
493.456	0.586	1	0back	Block1	0back/STIM_001.jpg
497.97	0.465	1	0back	Block1	0back/STIM_002.jpg
501.536	0.653	1	0back	Block1	0back/STIM_002.jpg
504.993	0.626	1	0back	Block1	0back/STIM_002.jpg
509.108	0.722	1	0back	Block1	0back/STIM_003.jpg
512.683	0.465	1	0back	Block1	0back/STIM_003.jpg
516.622	0.538	1	0back	Block1	0back/STIM_003.jpg
520.345	0.731	0	0back	Block1	0back/STIM_004.jpg
524.778	0.422	1	0back	Block1	0back/STIM_004.jpg
529.136	0.614	1	0back	Block1	0back/STIM_004.jpg
532.961	0.553	1	0back	Block1	0back/STIM_005.jpg
535.633	0.731	1	0back	Block1	0back/STIM_005.jpg
539.696	0.546	1	0back	Block1	0back/STIM_005.jpg
543.971	0.669	1	0back	Block1	0back/STIM_006.jpg
546.737	0.51	1	0back	Block1	0back/STIM_006.jpg
551.144	0.649	1	0back	Block1	0back/STIM_006.jpg
554.65	0.608	1	0back	Block1	0back/STIM_007.jpg
557.372	0.703	1	0back	Block1	0back/STIM_007.jpg
561.502	0.572	1	0back	Block1	0back/STIM_007.jpg
565.17	0.516	1	0back	Block1	0back/STIM_008.jpg
569.577	0.587	1	0back	Block1	0back/STIM_008.jpg
572.834	0.529	1	0back	Block1	0back/STIM_008.jpg
577.032	0.528	1	0back	Block1	0back/STIM_009.jpg
580.378	0.732	1	0back	Block1	0back/STIM_009.jpg
584.365	0.65	1	0back	Block1	0back/STIM_009.jpg
587.999	0.327	1	0back	Block1	0back/STIM_010.jpg
591.661	0.426	1	0back	Block1	0back/STIM_010.jpg
595.881	0.401	1	0back	Block1	0back/STIM_010.jpg
598.53	0.706	1	0back	Block1	0back/STIM_011.jpg
601.444	0.486	1	0back	Block1	0back/STIM_011.jpg
604.011	0.682	1	0back	Block1	0back/STIM_011.jpg
607.185	0.696	1	0back	Block1	0back/STIM_012.jpg
611.238	0.566	1	0back	Block1	0back/STIM_012.jpg
615.789	0.746	1	0back	Block1	0back/STIM_012.jpg
620.5	0.58	0	0back	Block1	0back/STIM_013.jpg
624.847	0.645	1	0back	Block1	0back/STIM_013.jpg
629.114	0.782	1	0back	Block1	0back/STIM_013.jpg
632.917	0.501	1	0back	Block1	0back/STIM_014.jpg
637.119	0.415	1	0back	Block1	0back/STIM_014.jpg
640.594	0.657	1	0back	Block1	0back/STIM_014.jpg
643.424	0.573	1	0back	Block1	0back/STIM_015.jpg
647.929	0.74	1	0back	Block1	0back/STIM_015.jpg
651.968	0.694	1	0back	Block1	0back/STIM_015.jpg
654.76	0.816	1	0back	Block1	0back/STIM_016.jpg
658.459	0.548	1	0back	Block1	0back/STIM_016.jpg
662.455	0.642	1	0back	Block1	0back/STIM_016.jpg
665.301	0.69	1	0back	Block1	0back/STIM_017.jpg
669.438	0.616	1	0back	Block1	0back/STIM_017.jpg
672.676	0.61	1	0back	Block1	0back/STIM_017.jpg
675.882	0.812	1	0back	Block1	0back/STIM_018.jpg
678.754	0.739	1	0back	Block1	0back/STIM_018.jpg
682.264	0.422	1	0back	Block1	0back/STIM_018.jpg
685.104	0.501	1	0back	Block1	0back/STIM_019.jpg
689.479	0.576	1	0back	Block1	0back/STIM_019.jpg
692.609	0.51	1	0back	Block1	0back/STIM_019.jpg
695.307	1.028	1	2back	Block2	2back/STIM_000.jpg
699.711	0.756	1	2back	Block2	2back/STIM_000.jpg
702.689	0.747	1	2back	Block2	2back/STIM_000.jpg
705.897	1.092	1	2back	Block2	2back/STIM_001.jpg
708.985	0.856	1	2back	Block2	2back/STIM_001.jpg
712.912	0.554	1	2back	Block2	2back/STIM_001.jpg
716.273	0.727	0	2back	Block2	2back/STIM_002.jpg
720.477	0.716	1	2back	Block2	2back/STIM_002.jpg
723.961	0.616	1	2back	Block2	2back/STIM_002.jpg
727.344	0.989	1	2back	Block2	2back/STIM_003.jpg
732.276	0.838	1	2back	Block2	2back/STIM_003.jpg
736.218	0.536	1	2back	Block2	2back/STIM_003.jpg
739.82	0.948	1	2back	Block2	2back/STIM_004.jpg
743.294	0.735	1	2back	Block2	2back/STIM_004.jpg
747.168	0.488	0	2back	Block2	2back/STIM_004.jpg
749.861	0.961	1	2back	Block2	2back/STIM_005.jpg
754.567	0.626	1	2back	Block2	2back/STIM_005.jpg
758.407	0.94	1	2back	Block2	2back/STIM_005.jpg
761.976	1.222	1	2back	Block2	2back/STIM_006.jpg
766.478	0.555	1	2back	Block2	2back/STIM_006.jpg
770.704	0.805	1	2back	Block2	2back/STIM_006.jpg
773.695	0.558	1	2back	Block2	2back/STIM_007.jpg
777.106	0.476	1	2back	Block2	2back/STIM_007.jpg
780.104	0.689	1	2back	Block2	2back/STIM_007.jpg
784.199	1.018	1	2back	Block2	2back/STIM_008.jpg
788.403	0.683	1	2back	Block2	2back/STIM_008.jpg
791.52	0.475	1	2back	Block2	2back/STIM_008.jpg
795.524	1.022	1	2back	Block2	2back/STIM_009.jpg
798.639	0.863	1	2back	Block2	2back/STIM_009.jpg
803.141	0.88	0	2back	Block2	2back/STIM_009.jpg
808.09	0.511	1	2back	Block2	2back/STIM_010.jpg
810.672	0.619	1	2back	Block2	2back/STIM_010.jpg
813.292	0.59	1	2back	Block2	2back/STIM_010.jpg
817.186	0.786	1	2back	Block2	2back/STIM_011.jpg
820.897	0.62	0	2back	Block2	2back/STIM_011.jpg
825.112	1.015	1	2back	Block2	2back/STIM_011.jpg
829.807	0.528	1	2back	Block2	2back/STIM_012.jpg
833.973	0.804	1	2back	Block2	2back/STIM_012.jpg
838.813	0.878	1	2back	Block2	2back/STIM_012.jpg
841.841	0.569	0	2back	Block2	2back/STIM_013.jpg
846.263	1.015	1	2back	Block2	2back/STIM_013.jpg
850.748	0.812	1	2back	Block2	2back/STIM_013.jpg
854.329	0.839	1	2back	Block2	2back/STIM_014.jpg
858.144	1.04	0	2back	Block2	2back/STIM_014.jpg
861.541	0.564	1	2back	Block2	2back/STIM_014.jpg
864.338	0.97	1	2back	Block2	2back/STIM_015.jpg
867.764	0.786	1	2back	Block2	2back/STIM_015.jpg
871.724	0.951	1	2back	Block2	2back/STIM_015.jpg
876.534	0.705	1	2back	Block2	2back/STIM_016.jpg
880.267	0.676	1	2back	Block2	2back/STIM_016.jpg
884.42	0.699	1	2back	Block2	2back/STIM_016.jpg
887.566	0.672	0	2back	Block2	2back/STIM_017.jpg
892.142	0.504	1	2back	Block2	2back/STIM_017.jpg
895.235	0.992	1	2back	Block2	2back/STIM_017.jpg
899.032	0.737	1	2back	Block2	2back/STIM_018.jpg
902.777	0.692	1	2back	Block2	2back/STIM_018.jpg
906.109	0.688	1	2back	Block2	2back/STIM_018.jpg
909.292	0.642	1	2back	Block2	2back/STIM_019.jpg
912.423	0.577	1	2back	Block2	2back/STIM_019.jpg
916.106	0.64	1	2back	Block2	2back/STIM_019.jpg
920.567	1.01	1	2back	Block2	2back/STIM_020.jpg
924.499	0.946	1	2back	Block2	2back/STIM_020.jpg
929.163	0.886	1	2back	Block2	2back/STIM_020.jpg
933.127	0.789	1	2back	Block2	2back/STIM_021.jpg
936.398	1.005	1	2back	Block2	2back/STIM_021.jpg
940.159	0.617	1	2back	Block2	2back/STIM_021.jpg
943.941	1.038	1	2back	Block2	2back/STIM_022.jpg
947.261	0.578	1	2back	Block2	2back/STIM_022.jpg
950.176	0.877	1	2back	Block2	2back/STIM_022.jpg
954.727	0.568	1	2back	Block2	2back/STIM_023.jpg
959.1	1.07	1	2back	Block2	2back/STIM_023.jpg
962.952	0.682	1	2back	Block2	2back/STIM_023.jpg
967.466	0.666	1	2back	Block2	2back/STIM_024.jpg
970.586	0.956	1	2back	Block2	2back/STIM_024.jpg
974.202	0.903	1	2back	Block2	2back/STIM_024.jpg
977.289	1.145	1	2back	Block2	2back/STIM_025.jpg
982.097	0.8	1	2back	Block2	2back/STIM_025.jpg
984.999	0.574	1	2back	Block2	2back/STIM_025.jpg
987.809	1.208	0	2back	Block2	2back/STIM_026.jpg
991.0	1.031	0	2back	Block2	2back/STIM_026.jpg
994.126	0.968	1	2back	Block2	2back/STIM_026.jpg
997.729	0.822	1	2back	Block2	2back/STIM_027.jpg
1001.296	0.547	1	2back	Block2	2back/STIM_027.jpg
1005.209	0.892	1	2back	Block2	2back/STIM_027.jpg
1008.381	0.884	1	2back	Block2	2back/STIM_028.jpg
1011.524	0.925	1	2back	Block2	2back/STIM_028.jpg
1016.253	0.76	1	2back	Block2	2back/STIM_028.jpg
1020.488	0.821	1	2back	Block2	2back/STIM_029.jpg
1023.486	0.8	1	2back	Block2	2back/STIM_029.jpg
1027.697	0.508	1	2back	Block2	2back/STIM_029.jpg
1031.712	0.855	1	2back	Block2	2back/STIM_030.jpg
1035.593	0.505	1	2back	Block2	2back/STIM_030.jpg
1038.56	0.717	1	2back	Block2	2back/STIM_030.jpg
1042.771	1.004	1	2back	Block2	2back/STIM_031.jpg
1047.721	0.816	1	2back	Block2	2back/STIM_031.jpg
1051.927	0.831	1	2back	Block2	2back/STIM_031.jpg
1055.982	0.773	0	2back	Block2	2back/STIM_032.jpg
1060.004	0.837	0	2back	Block2	2back/STIM_032.jpg
1064.02	0.689	1	2back	Block2	2back/STIM_032.jpg
1068.331	1.078	1	2back	Block2	2back/STIM_033.jpg
1072.081	0.976	0	2back	Block2	2back/STIM_033.jpg
1075.981	0.869	1	2back	Block2	2back/STIM_033.jpg
1080.245	0.461	1	2back	Block2	2back/STIM_034.jpg
1083.355	0.86	1	2back	Block2	2back/STIM_034.jpg
1086.431	0.746	1	2back	Block2	2back/STIM_034.jpg
1090.285	1.11	1	2back	Block2	2back/STIM_035.jpg
1094.233	0.975	1	2back	Block2	2back/STIM_035.jpg
1097.294	0.65	1	2back	Block2	2back/STIM_035.jpg
1100.01	1.034	1	2back	Block2	2back/STIM_036.jpg
1104.778	0.584	1	2back	Block2	2back/STIM_036.jpg
1108.709	0.458	1	2back	Block2	2back/STIM_036.jpg
1112.933	0.743	0	2back	Block2	2back/STIM_037.jpg
1116.287	1.123	1	2back	Block2	2back/STIM_037.jpg
1120.246	0.626	1	2back	Block2	2back/STIM_037.jpg
1123.251	1.098	1	2back	Block2	2back/STIM_038.jpg
1127.445	0.437	0	2back	Block2	2back/STIM_038.jpg
1130.766	0.777	1	2back	Block2	2back/STIM_038.jpg
1134.845	0.944	1	2back	Block2	2back/STIM_039.jpg
1137.903	0.68	1	2back	Block2	2back/STIM_039.jpg
1142.24	0.569	1	2back	Block2	2back/STIM_039.jpg
1145.899	0.538	1	0back	Block2	0back/STIM_000.jpg
1148.387	0.566	1	0back	Block2	0back/STIM_000.jpg
1152.069	0.346	1	0back	Block2	0back/STIM_000.jpg
1155.69	0.598	1	0back	Block2	0back/STIM_001.jpg
1159.074	0.479	1	0back	Block2	0back/STIM_001.jpg
1162.421	0.526	1	0back	Block2	0back/STIM_001.jpg
1165.567	0.47	1	0back	Block2	0back/STIM_002.jpg
1168.59	0.775	1	0back	Block2	0back/STIM_002.jpg
1171.979	0.529	1	0back	Block2	0back/STIM_002.jpg
1175.025	0.51	1	0back	Block2	0back/STIM_003.jpg
1179.268	0.776	1	0back	Block2	0back/STIM_003.jpg
1182.746	0.67	1	0back	Block2	0back/STIM_003.jpg
1187.088	0.399	1	0back	Block2	0back/STIM_004.jpg
1190.092	0.518	1	0back	Block2	0back/STIM_004.jpg
1193.413	0.528	1	0back	Block2	0back/STIM_004.jpg
1197.577	0.374	1	0back	Block2	0back/STIM_005.jpg
1201.223	0.689	1	0back	Block2	0back/STIM_005.jpg
1205.858	0.577	1	0back	Block2	0back/STIM_005.jpg
1208.922	0.78	1	0back	Block2	0back/STIM_006.jpg
1212.033	0.731	1	0back	Block2	0back/STIM_006.jpg
1216.715	0.475	1	0back	Block2	0back/STIM_006.jpg
1220.702	0.648	1	0back	Block2	0back/STIM_007.jpg
1224.218	0.398	1	0back	Block2	0back/STIM_007.jpg
1228.406	0.639	1	0back	Block2	0back/STIM_007.jpg
1232.26	0.805	1	0back	Block2	0back/STIM_008.jpg
1235.831	0.513	1	0back	Block2	0back/STIM_008.jpg
1239.695	0.607	1	0back	Block2	0back/STIM_008.jpg
1242.631	0.754	1	0back	Block2	0back/STIM_009.jpg
1245.592	0.445	1	0back	Block2	0back/STIM_009.jpg
1249.603	0.43	1	0back	Block2	0back/STIM_009.jpg
1253.414	0.652	1	0back	Block2	0back/STIM_010.jpg
1257.646	0.424	1	0back	Block2	0back/STIM_010.jpg
1261.582	0.4	1	0back	Block2	0back/STIM_010.jpg
1265.572	0.595	1	0back	Block2	0back/STIM_011.jpg
1269.602	0.409	1	0back	Block2	0back/STIM_011.jpg
1273.62	0.53	1	0back	Block2	0back/STIM_011.jpg
1276.569	0.738	1	0back	Block2	0back/STIM_012.jpg
1280.934	0.59	1	0back	Block2	0back/STIM_012.jpg
1284.954	0.746	1	0back	Block2	0back/STIM_012.jpg
1288.246	0.731	1	0back	Block2	0back/STIM_013.jpg
1291.841	0.642	1	0back	Block2	0back/STIM_013.jpg
1296.382	0.688	1	0back	Block2	0back/STIM_013.jpg
1299.683	0.61	1	0back	Block2	0back/STIM_014.jpg
1302.911	0.584	1	0back	Block2	0back/STIM_014.jpg
1306.34	0.561	1	0back	Block2	0back/STIM_014.jpg
1309.372	0.751	1	0back	Block2	0back/STIM_015.jpg
1313.23	0.512	1	0back	Block2	0back/STIM_015.jpg
1316.363	0.656	1	0back	Block2	0back/STIM_015.jpg
1320.404	0.572	0	0back	Block2	0back/STIM_016.jpg
1323.733	0.652	1	0back	Block2	0back/STIM_016.jpg
1327.233	0.696	1	0back	Block2	0back/STIM_016.jpg
1330.364	0.696	1	0back	Block2	0back/STIM_017.jpg
1333.961	0.36	0	0back	Block2	0back/STIM_017.jpg
1337.815	0.402	1	0back	Block2	0back/STIM_017.jpg
1341.557	0.352	1	0back	Block2	0back/STIM_018.jpg
1344.477	0.459	1	0back	Block2	0back/STIM_018.jpg
1348.8	0.791	1	0back	Block2	0back/STIM_018.jpg
1352.054	0.554	1	0back	Block2	0back/STIM_019.jpg
1356.499	0.616	1	0back	Block2	0back/STIM_019.jpg
1360.784	0.554	1	0back	Block2	0back/STIM_019.jpg
1364.991	0.363	1	2back	Block3	2back/STIM_000.jpg
1368.537	0.77	1	2back	Block3	2back/STIM_000.jpg
1372.353	0.93	1	2back	Block3	2back/STIM_000.jpg
1375.57	0.792	1	2back	Block3	2back/STIM_001.jpg
1379.925	0.405	1	2back	Block3	2back/STIM_001.jpg
1384.159	0.444	1	2back	Block3	2back/STIM_001.jpg
1387.735	0.743	1	2back	Block3	2back/STIM_002.jpg
1391.641	0.816	1	2back	Block3	2back/STIM_002.jpg
1394.682	0.559	1	2back	Block3	2back/STIM_002.jpg
1398.004	0.433	1	2back	Block3	2back/STIM_003.jpg
1400.453	0.783	1	2back	Block3	2back/STIM_003.jpg
1405.292	0.917	1	2back	Block3	2back/STIM_003.jpg
1408.179	0.695	1	2back	Block3	2back/STIM_004.jpg
1411.221	0.954	1	2back	Block3	2back/STIM_004.jpg
1414.316	0.676	1	2back	Block3	2back/STIM_004.jpg
1418.086	0.498	1	2back	Block3	2back/STIM_005.jpg
1422.605	0.928	1	2back	Block3	2back/STIM_005.jpg
1426.295	0.854	1	2back	Block3	2back/STIM_005.jpg
1430.324	0.678	1	2back	Block3	2back/STIM_006.jpg
1434.338	0.746	1	2back	Block3	2back/STIM_006.jpg
1438.017	0.499	1	2back	Block3	2back/STIM_006.jpg
1440.9	0.759	1	2back	Block3	2back/STIM_007.jpg
1444.934	0.672	1	2back	Block3	2back/STIM_007.jpg
1447.927	0.632	1	2back	Block3	2back/STIM_007.jpg
1450.538	0.926	1	2back	Block3	2back/STIM_008.jpg
1455.27	0.57	1	2back	Block3	2back/STIM_008.jpg
1458.722	0.649	1	2back	Block3	2back/STIM_008.jpg
1462.901	0.809	1	2back	Block3	2back/STIM_009.jpg
1467.24	1.012	1	2back	Block3	2back/STIM_009.jpg
1472.03	0.931	1	2back	Block3	2back/STIM_009.jpg
1475.061	0.755	1	2back	Block3	2back/STIM_010.jpg
1479.607	0.643	1	2back	Block3	2back/STIM_010.jpg
1482.792	0.936	1	2back	Block3	2back/STIM_010.jpg
1486.732	0.728	1	2back	Block3	2back/STIM_011.jpg
1491.41	0.824	1	2back	Block3	2back/STIM_011.jpg
1495.675	0.428	1	2back	Block3	2back/STIM_011.jpg
1498.346	0.985	1	2back	Block3	2back/STIM_012.jpg
1502.627	0.532	1	2back	Block3	2back/STIM_012.jpg
1506.122	0.937	1	2back	Block3	2back/STIM_012.jpg
1510.831	0.418	0	2back	Block3	2back/STIM_013.jpg
1514.83	0.74	1	2back	Block3	2back/STIM_013.jpg
1519.063	0.517	1	2back	Block3	2back/STIM_013.jpg
1523.17	0.662	1	2back	Block3	2back/STIM_014.jpg
1526.335	0.706	1	2back	Block3	2back/STIM_014.jpg
1530.425	0.864	0	2back	Block3	2back/STIM_014.jpg
1534.29	0.907	1	2back	Block3	2back/STIM_015.jpg
1537.721	0.636	1	2back	Block3	2back/STIM_015.jpg
1540.793	0.467	1	2back	Block3	2back/STIM_015.jpg
1544.033	0.63	1	2back	Block3	2back/STIM_016.jpg
1548.339	0.792	1	2back	Block3	2back/STIM_016.jpg
1552.295	0.655	1	2back	Block3	2back/STIM_016.jpg
1556.099	0.586	1	2back	Block3	2back/STIM_017.jpg
1559.161	0.872	1	2back	Block3	2back/STIM_017.jpg
1562.765	0.92	1	2back	Block3	2back/STIM_017.jpg
1567.096	0.69	1	2back	Block3	2back/STIM_018.jpg
1571.169	0.8	1	2back	Block3	2back/STIM_018.jpg
1574.436	0.543	1	2back	Block3	2back/STIM_018.jpg
1578.47	0.483	1	2back	Block3	2back/STIM_019.jpg
1581.48	0.592	1	2back	Block3	2back/STIM_019.jpg
1584.867	0.652	1	2back	Block3	2back/STIM_019.jpg
1589.115	0.75	1	2back	Block3	2back/STIM_020.jpg
1592.453	0.596	1	2back	Block3	2back/STIM_020.jpg
1596.39	0.833	1	2back	Block3	2back/STIM_020.jpg
1600.293	0.567	1	2back	Block3	2back/STIM_021.jpg
1603.662	0.554	1	2back	Block3	2back/STIM_021.jpg
1607.309	0.559	1	2back	Block3	2back/STIM_021.jpg
1611.268	0.774	1	2back	Block3	2back/STIM_022.jpg
1615.109	0.498	1	2back	Block3	2back/STIM_022.jpg
1617.784	0.666	1	2back	Block3	2back/STIM_022.jpg
1620.78	0.906	1	2back	Block3	2back/STIM_023.jpg
1623.842	0.581	1	2back	Block3	2back/STIM_023.jpg
1627.342	0.762	1	2back	Block3	2back/STIM_023.jpg
1631.179	0.517	1	2back	Block3	2back/STIM_024.jpg
1633.978	0.614	1	2back	Block3	2back/STIM_024.jpg
1637.085	0.507	1	2back	Block3	2back/STIM_024.jpg
1641.287	0.664	1	2back	Block3	2back/STIM_025.jpg
1643.963	0.416	1	2back	Block3	2back/STIM_025.jpg
1648.331	0.707	1	2back	Block3	2back/STIM_025.jpg
1652.033	0.46	1	2back	Block3	2back/STIM_026.jpg
1654.996	0.532	1	2back	Block3	2back/STIM_026.jpg
1659.415	0.64	1	2back	Block3	2back/STIM_026.jpg
1662.409	0.528	1	2back	Block3	2back/STIM_027.jpg
1665.182	0.577	1	2back	Block3	2back/STIM_027.jpg
1669.143	0.413	1	2back	Block3	2back/STIM_027.jpg
1673.147	0.52	1	2back	Block3	2back/STIM_028.jpg
1677.606	0.851	1	2back	Block3	2back/STIM_028.jpg
1682.393	0.831	1	2back	Block3	2back/STIM_028.jpg
1686.343	0.587	1	2back	Block3	2back/STIM_029.jpg
1690.743	0.461	1	2back	Block3	2back/STIM_029.jpg
1694.469	0.654	1	2back	Block3	2back/STIM_029.jpg
1698.376	0.506	0	2back	Block3	2back/STIM_030.jpg
1702.651	0.526	1	2back	Block3	2back/STIM_030.jpg
1706.862	0.449	1	2back	Block3	2back/STIM_030.jpg
1709.542	0.832	1	2back	Block3	2back/STIM_031.jpg
1713.764	0.686	1	2back	Block3	2back/STIM_031.jpg
1717.349	0.849	1	2back	Block3	2back/STIM_031.jpg
1722.121	0.814	1	2back	Block3	2back/STIM_032.jpg
1725.287	0.688	1	2back	Block3	2back/STIM_032.jpg
1728.948	0.795	1	2back	Block3	2back/STIM_032.jpg
1732.141	0.775	1	2back	Block3	2back/STIM_033.jpg
1736.634	0.667	1	2back	Block3	2back/STIM_033.jpg
1739.722	0.705	1	2back	Block3	2back/STIM_033.jpg
1742.702	0.563	1	2back	Block3	2back/STIM_034.jpg
1745.776	0.844	1	2back	Block3	2back/STIM_034.jpg
1749.734	0.478	0	2back	Block3	2back/STIM_034.jpg
1753.377	0.843	1	2back	Block3	2back/STIM_035.jpg
1756.9	0.714	1	2back	Block3	2back/STIM_035.jpg
1760.651	0.469	1	2back	Block3	2back/STIM_035.jpg
1764.509	0.682	1	2back	Block3	2back/STIM_036.jpg
1768.951	0.498	1	2back	Block3	2back/STIM_036.jpg
1773.399	0.829	1	2back	Block3	2back/STIM_036.jpg
1777.69	0.47	0	2back	Block3	2back/STIM_037.jpg
1781.039	0.568	1	2back	Block3	2back/STIM_037.jpg
1784.14	0.568	1	2back	Block3	2back/STIM_037.jpg
1788.336	0.347	1	2back	Block3	2back/STIM_038.jpg
1791.911	0.963	1	2back	Block3	2back/STIM_038.jpg
1796.488	0.672	1	2back	Block3	2back/STIM_038.jpg
1800.695	0.532	1	2back	Block3	2back/STIM_039.jpg
1803.233	0.406	0	2back	Block3	2back/STIM_039.jpg
1807.264	0.601	1	2back	Block3	2back/STIM_039.jpg
1811.528	0.59	1	0back	Block3	0back/STIM_000.jpg
1814.704	0.652	1	0back	Block3	0back/STIM_000.jpg
1819.003	0.735	1	0back	Block3	0back/STIM_000.jpg
1822.828	0.624	1	0back	Block3	0back/STIM_001.jpg
1825.64	0.702	0	0back	Block3	0back/STIM_001.jpg
1829.578	0.42	1	0back	Block3	0back/STIM_001.jpg
1832.487	0.635	1	0back	Block3	0back/STIM_002.jpg
1835.366	0.797	1	0back	Block3	0back/STIM_002.jpg
1838.536	0.468	1	0back	Block3	0back/STIM_002.jpg
1841.241	0.521	1	0back	Block3	0back/STIM_003.jpg
1844.351	0.668	1	0back	Block3	0back/STIM_003.jpg
1847.838	0.5	1	0back	Block3	0back/STIM_003.jpg
1850.905	0.554	1	0back	Block3	0back/STIM_004.jpg
1853.8	0.441	1	0back	Block3	0back/STIM_004.jpg
1857.37	0.505	1	0back	Block3	0back/STIM_004.jpg
1860.267	0.522	1	0back	Block3	0back/STIM_005.jpg
1864.013	0.612	1	0back	Block3	0back/STIM_005.jpg
1868.607	0.691	1	0back	Block3	0back/STIM_005.jpg
1873.014	0.558	1	0back	Block3	0back/STIM_006.jpg
1875.772	0.312	1	0back	Block3	0back/STIM_006.jpg
1880.008	0.496	1	0back	Block3	0back/STIM_006.jpg
1883.312	0.698	1	0back	Block3	0back/STIM_007.jpg
1887.431	0.663	1	0back	Block3	0back/STIM_007.jpg
1891.681	0.638	1	0back	Block3	0back/STIM_007.jpg
1895.546	0.7	1	0back	Block3	0back/STIM_008.jpg
1900.132	0.452	1	0back	Block3	0back/STIM_008.jpg
1903.692	0.717	1	0back	Block3	0back/STIM_008.jpg
1908.158	0.628	1	0back	Block3	0back/STIM_009.jpg
1911.339	0.502	0	0back	Block3	0back/STIM_009.jpg
1915.052	0.694	1	0back	Block3	0back/STIM_009.jpg
1918.925	0.692	1	0back	Block3	0back/STIM_010.jpg
1921.703	0.368	1	0back	Block3	0back/STIM_010.jpg
1926.028	0.456	1	0back	Block3	0back/STIM_010.jpg
1928.923	0.388	1	0back	Block3	0back/STIM_011.jpg
1932.153	0.409	1	0back	Block3	0back/STIM_011.jpg
1935.813	0.717	1	0back	Block3	0back/STIM_011.jpg
1938.521	0.628	1	0back	Block3	0back/STIM_012.jpg
1941.452	0.619	1	0back	Block3	0back/STIM_012.jpg
1944.716	0.357	1	0back	Block3	0back/STIM_012.jpg
1947.386	0.443	1	0back	Block3	0back/STIM_013.jpg
1950.391	0.595	1	0back	Block3	0back/STIM_013.jpg
1953.184	0.726	1	0back	Block3	0back/STIM_013.jpg
1956.543	0.574	1	0back	Block3	0back/STIM_014.jpg
1959.417	0.567	1	0back	Block3	0back/STIM_014.jpg
1963.104	0.56	1	0back	Block3	0back/STIM_014.jpg
1966.922	0.47	1	0back	Block3	0back/STIM_015.jpg
1969.407	0.51	1	0back	Block3	0back/STIM_015.jpg
1972.297	0.433	1	0back	Block3	0back/STIM_015.jpg
1975.134	0.512	0	0back	Block3	0back/STIM_016.jpg
1978.53	0.788	1	0back	Block3	0back/STIM_016.jpg
1982.698	0.669	1	0back	Block3	0back/STIM_016.jpg
1985.883	0.57	1	0back	Block3	0back/STIM_017.jpg
1988.953	0.389	1	0back	Block3	0back/STIM_017.jpg
1993.247	0.608	1	0back	Block3	0back/STIM_017.jpg
1996.426	0.642	1	0back	Block3	0back/STIM_018.jpg
1999.788	0.381	1	0back	Block3	0back/STIM_018.jpg
2003.019	0.556	1	0back	Block3	0back/STIM_018.jpg
2006.511	0.509	1	0back	Block3	0back/STIM_019.jpg
2010.028	0.537	1	0back	Block3	0back/STIM_019.jpg
2013.885	0.629	1	0back	Block3	0back/STIM_019.jpg
2018.345	0.509	1	2back	Block4	2back/STIM_000.jpg
2022.35	0.784	1	2back	Block4	2back/STIM_000.jpg
2026.782	0.886	1	2back	Block4	2back/STIM_000.jpg
2030.667	0.936	1	2back	Block4	2back/STIM_001.jpg
2034.169	0.634	1	2back	Block4	2back/STIM_001.jpg
2037.123	0.877	1	2back	Block4	2back/STIM_001.jpg
2040.623	0.819	1	2back	Block4	2back/STIM_002.jpg
2045.255	0.893	1	2back	Block4	2back/STIM_002.jpg
2049.884	0.481	1	2back	Block4	2back/STIM_002.jpg
2054.067	0.685	1	2back	Block4	2back/STIM_003.jpg
2057.868	0.877	1	2back	Block4	2back/STIM_003.jpg
2062.695	0.596	1	2back	Block4	2back/STIM_003.jpg
2067.239	0.733	1	2back	Block4	2back/STIM_004.jpg
2071.921	0.726	1	2back	Block4	2back/STIM_004.jpg
2075.094	0.634	1	2back	Block4	2back/STIM_004.jpg
2077.923	0.363	1	2back	Block4	2back/STIM_005.jpg
2081.137	0.59	1	2back	Block4	2back/STIM_005.jpg
2084.074	0.39	1	2back	Block4	2back/STIM_005.jpg
2087.962	0.688	0	2back	Block4	2back/STIM_006.jpg
2092.31	0.709	1	2back	Block4	2back/STIM_006.jpg
2095.967	0.801	1	2back	Block4	2back/STIM_006.jpg
2100.046	0.435	1	2back	Block4	2back/STIM_007.jpg
2102.581	0.691	0	2back	Block4	2back/STIM_007.jpg
2106.278	0.934	1	2back	Block4	2back/STIM_007.jpg
2109.764	0.801	1	2back	Block4	2back/STIM_008.jpg
2114.148	0.499	1	2back	Block4	2back/STIM_008.jpg
2117.625	0.881	1	2back	Block4	2back/STIM_008.jpg
2121.885	0.886	1	2back	Block4	2back/STIM_009.jpg
2124.804	0.449	1	2back	Block4	2back/STIM_009.jpg
2129.177	0.813	1	2back	Block4	2back/STIM_009.jpg
2132.517	0.424	1	2back	Block4	2back/STIM_010.jpg
2136.225	0.696	1	2back	Block4	2back/STIM_010.jpg
2140.37	0.75	1	2back	Block4	2back/STIM_010.jpg
2143.734	0.446	1	2back	Block4	2back/STIM_011.jpg
2146.286	0.551	1	2back	Block4	2back/STIM_011.jpg
2149.624	0.474	1	2back	Block4	2back/STIM_011.jpg
2153.952	0.55	1	2back	Block4	2back/STIM_012.jpg
2157.215	0.967	1	2back	Block4	2back/STIM_012.jpg
2161.982	0.645	1	2back	Block4	2back/STIM_012.jpg
2165.999	0.44	1	2back	Block4	2back/STIM_013.jpg
2168.616	0.552	1	2back	Block4	2back/STIM_013.jpg
2171.301	0.386	1	2back	Block4	2back/STIM_013.jpg
2174.745	0.499	1	2back	Block4	2back/STIM_014.jpg
2178.832	0.837	1	2back	Block4	2back/STIM_014.jpg
2182.301	0.707	1	2back	Block4	2back/STIM_014.jpg
2185.191	0.793	1	2back	Block4	2back/STIM_015.jpg
2190.034	0.451	1	2back	Block4	2back/STIM_015.jpg
2192.991	0.549	1	2back	Block4	2back/STIM_015.jpg
2196.279	0.627	1	2back	Block4	2back/STIM_016.jpg
2199.594	0.916	1	2back	Block4	2back/STIM_016.jpg
2203.055	0.859	1	2back	Block4	2back/STIM_016.jpg
2207.201	0.463	1	2back	Block4	2back/STIM_017.jpg
2211.026	0.836	1	2back	Block4	2back/STIM_017.jpg
2214.691	0.95	1	2back	Block4	2back/STIM_017.jpg
2218.565	0.742	0	2back	Block4	2back/STIM_018.jpg
2221.772	0.741	1	2back	Block4	2back/STIM_018.jpg
2225.141	0.416	1	2back	Block4	2back/STIM_018.jpg
2228.724	0.75	1	2back	Block4	2back/STIM_019.jpg
2232.299	0.713	1	2back	Block4	2back/STIM_019.jpg
2236.049	0.677	1	2back	Block4	2back/STIM_019.jpg
2238.986	0.816	1	2back	Block4	2back/STIM_020.jpg
2243.278	0.698	1	2back	Block4	2back/STIM_020.jpg
2247.391	0.738	1	2back	Block4	2back/STIM_020.jpg
2250.2	0.745	1	2back	Block4	2back/STIM_021.jpg
2252.95	0.919	1	2back	Block4	2back/STIM_021.jpg
2256.925	0.631	1	2back	Block4	2back/STIM_021.jpg
2261.44	0.689	1	2back	Block4	2back/STIM_022.jpg
2265.783	0.856	1	2back	Block4	2back/STIM_022.jpg
2269.271	0.867	1	2back	Block4	2back/STIM_022.jpg
2273.879	0.573	1	2back	Block4	2back/STIM_023.jpg
2277.365	0.452	1	2back	Block4	2back/STIM_023.jpg
2281.272	0.524	1	2back	Block4	2back/STIM_023.jpg
2285.735	0.874	1	2back	Block4	2back/STIM_024.jpg
2290.249	0.456	1	2back	Block4	2back/STIM_024.jpg
2293.295	0.7	1	2back	Block4	2back/STIM_024.jpg
2296.796	0.855	1	2back	Block4	2back/STIM_025.jpg
2300.79	0.624	1	2back	Block4	2back/STIM_025.jpg
2304.882	0.629	1	2back	Block4	2back/STIM_025.jpg
2307.53	0.714	1	2back	Block4	2back/STIM_026.jpg
2310.402	0.435	1	2back	Block4	2back/STIM_026.jpg
2312.952	0.89	1	2back	Block4	2back/STIM_026.jpg
2317.061	0.691	1	2back	Block4	2back/STIM_027.jpg
2319.886	0.927	1	2back	Block4	2back/STIM_027.jpg
2324.094	0.836	1	2back	Block4	2back/STIM_027.jpg
2327.055	0.678	1	2back	Block4	2back/STIM_028.jpg
2330.727	0.507	1	2back	Block4	2back/STIM_028.jpg
2333.331	0.586	1	2back	Block4	2back/STIM_028.jpg
2337.843	0.971	1	2back	Block4	2back/STIM_029.jpg
2342.612	0.623	1	2back	Block4	2back/STIM_029.jpg
2345.369	0.766	1	2back	Block4	2back/STIM_029.jpg
2349.708	0.991	1	2back	Block4	2back/STIM_030.jpg
2354.613	0.648	1	2back	Block4	2back/STIM_030.jpg
2358.72	0.805	1	2back	Block4	2back/STIM_030.jpg
2362.548	0.642	1	2back	Block4	2back/STIM_031.jpg
2365.466	0.577	1	2back	Block4	2back/STIM_031.jpg
2368.119	0.91	1	2back	Block4	2back/STIM_031.jpg
2371.99	0.945	1	2back	Block4	2back/STIM_032.jpg
2375.965	0.646	1	2back	Block4	2back/STIM_032.jpg
2380.232	0.571	1	2back	Block4	2back/STIM_032.jpg
2384.075	0.635	1	2back	Block4	2back/STIM_033.jpg
2387.378	0.946	1	2back	Block4	2back/STIM_033.jpg
2391.982	0.823	1	2back	Block4	2back/STIM_033.jpg
2395.159	0.408	1	2back	Block4	2back/STIM_034.jpg
2398.757	0.805	1	2back	Block4	2back/STIM_034.jpg
2402.5	0.868	1	2back	Block4	2back/STIM_034.jpg
2407.312	0.45	1	2back	Block4	2back/STIM_035.jpg
2411.391	0.392	1	2back	Block4	2back/STIM_035.jpg
2413.9	0.731	1	2back	Block4	2back/STIM_035.jpg
2417.557	0.778	1	2back	Block4	2back/STIM_036.jpg
2420.89	0.516	1	2back	Block4	2back/STIM_036.jpg
2424.25	0.448	1	2back	Block4	2back/STIM_036.jpg
2427.551	0.517	1	2back	Block4	2back/STIM_037.jpg
2430.153	0.562	1	2back	Block4	2back/STIM_037.jpg
2433.471	0.805	1	2back	Block4	2back/STIM_037.jpg
2437.074	0.663	1	2back	Block4	2back/STIM_038.jpg
2441.075	0.787	1	2back	Block4	2back/STIM_038.jpg
2444.297	0.611	1	2back	Block4	2back/STIM_038.jpg
2447.36	0.815	1	2back	Block4	2back/STIM_039.jpg
2450.479	0.937	1	2back	Block4	2back/STIM_039.jpg
2454.927	0.744	1	2back	Block4	2back/STIM_039.jpg
2458.404	0.428	1	0back	Block4	0back/STIM_000.jpg
2460.886	0.582	1	0back	Block4	0back/STIM_000.jpg
2463.628	0.572	1	0back	Block4	0back/STIM_000.jpg
2466.858	0.706	1	0back	Block4	0back/STIM_001.jpg
2470.596	0.599	1	0back	Block4	0back/STIM_001.jpg
2473.797	0.673	1	0back	Block4	0back/STIM_001.jpg
2476.879	0.518	1	0back	Block4	0back/STIM_002.jpg
2480.702	0.321	1	0back	Block4	0back/STIM_002.jpg
2483.971	0.401	1	0back	Block4	0back/STIM_002.jpg
2487.753	0.747	1	0back	Block4	0back/STIM_003.jpg
2492.031	0.548	1	0back	Block4	0back/STIM_003.jpg
2495.441	0.753	1	0back	Block4	0back/STIM_003.jpg
2499.705	0.571	1	0back	Block4	0back/STIM_004.jpg
2502.985	0.388	1	0back	Block4	0back/STIM_004.jpg
2505.636	0.667	1	0back	Block4	0back/STIM_004.jpg
2508.771	0.778	1	0back	Block4	0back/STIM_005.jpg
2511.914	0.655	1	0back	Block4	0back/STIM_005.jpg
2515.581	0.536	1	0back	Block4	0back/STIM_005.jpg
2520.086	0.514	1	0back	Block4	0back/STIM_006.jpg
2523.247	0.808	1	0back	Block4	0back/STIM_006.jpg
2527.463	0.398	1	0back	Block4	0back/STIM_006.jpg
2529.897	0.428	1	0back	Block4	0back/STIM_007.jpg
2533.318	0.819	1	0back	Block4	0back/STIM_007.jpg
2536.875	0.562	1	0back	Block4	0back/STIM_007.jpg
2540.818	0.714	1	0back	Block4	0back/STIM_008.jpg
2544.388	0.383	1	0back	Block4	0back/STIM_008.jpg
2546.859	0.688	1	0back	Block4	0back/STIM_008.jpg
2549.669	0.624	1	0back	Block4	0back/STIM_009.jpg
2553.955	0.526	1	0back	Block4	0back/STIM_009.jpg
2556.662	0.797	1	0back	Block4	0back/STIM_009.jpg
2560.607	0.757	1	0back	Block4	0back/STIM_010.jpg
2564.304	0.443	1	0back	Block4	0back/STIM_010.jpg
2568.334	0.543	1	0back	Block4	0back/STIM_010.jpg
2572.59	0.381	0	0back	Block4	0back/STIM_011.jpg
2576.609	0.363	1	0back	Block4	0back/STIM_011.jpg
2579.574	0.334	1	0back	Block4	0back/STIM_011.jpg
2582.355	0.623	1	0back	Block4	0back/STIM_012.jpg
2585.099	0.508	1	0back	Block4	0back/STIM_012.jpg
2588.886	0.463	1	0back	Block4	0back/STIM_012.jpg
2592.567	0.519	1	0back	Block4	0back/STIM_013.jpg
2595.89	0.559	1	0back	Block4	0back/STIM_013.jpg
2598.645	0.626	1	0back	Block4	0back/STIM_013.jpg
2602.889	0.814	1	0back	Block4	0back/STIM_014.jpg
2606.843	0.733	1	0back	Block4	0back/STIM_014.jpg
2611.364	0.389	1	0back	Block4	0back/STIM_014.jpg
2615.749	0.644	1	0back	Block4	0back/STIM_015.jpg
2618.59	0.474	1	0back	Block4	0back/STIM_015.jpg
2622.218	0.475	1	0back	Block4	0back/STIM_015.jpg
2626.278	0.458	1	0back	Block4	0back/STIM_016.jpg
2629.251	0.399	1	0back	Block4	0back/STIM_016.jpg
2632.313	0.393	1	0back	Block4	0back/STIM_016.jpg
2634.821	0.534	1	0back	Block4	0back/STIM_017.jpg
2637.757	0.609	1	0back	Block4	0back/STIM_017.jpg
2640.797	0.604	0	0back	Block4	0back/STIM_017.jpg
2644.659	0.707	1	0back	Block4	0back/STIM_018.jpg
2648.337	0.672	1	0back	Block4	0back/STIM_018.jpg
2652.832	0.69	1	0back	Block4	0back/STIM_018.jpg
2657.026	0.632	1	0back	Block4	0back/STIM_019.jpg
2660.389	0.412	1	0back	Block4	0back/STIM_019.jpg
2663.1	0.607	1	0back	Block4	0back/STIM_019.jpg
