onset	duration	accuracy	trial_type	learning_stage	stimulus
0.0	1.247	correct	2back	Block1	2back/STIM_000.jpg
4.384	1.401	correct	2back	Block1	2back/STIM_000.jpg
8.615	1.14	correct	2back	Block1	2back/STIM_000.jpg
12.403	1.284	correct	2back	Block1	2back/STIM_001.jpg
17.135	1.319	correct	2back	Block1	2back/STIM_001.jpg
20.57	0.837	correct	2back	Block1	2back/STIM_001.jpg
23.683	0.8	correct	2back	Block1	2back/STIM_002.jpg
27.496	1.226	correct	2back	Block1	2back/STIM_002.jpg
31.578	0.672	correct	2back	Block1	2back/STIM_002.jpg
36.217	0.842	correct	2back	Block1	2back/STIM_003.jpg
40.976	1.033	correct	2back	Block1	2back/STIM_003.jpg
45.214	1.052	correct	2back	Block1	2back/STIM_003.jpg
49.434	1.049	correct	2back	Block1	2back/STIM_004.jpg
54.149	0.873	correct	2back	Block1	2back/STIM_004.jpg
58.9	1.256	correct	2back	Block1	2back/STIM_004.jpg
62.193	0.682	correct	2back	Block1	2back/STIM_005.jpg
65.58	1.224	correct	2back	Block1	2back/STIM_005.jpg
69.344	0.786	correct	2back	Block1	2back/STIM_005.jpg
72.939	0.704	correct	2back	Block1	2back/STIM_006.jpg
77.565	0.958	correct	2back	Block1	2back/STIM_006.jpg
81.862	0.897	correct	2back	Block1	2back/STIM_006.jpg
86.602	0.764	correct	2back	Block1	2back/STIM_007.jpg
91.122	1.302	correct	2back	Block1	2back/STIM_007.jpg
94.654	1.215	correct	2back	Block1	2back/STIM_007.jpg
98.026	1.257	correct	2back	Block1	2back/STIM_008.jpg
101.89	1.046	correct	2back	Block1	2back/STIM_008.jpg
106.305	0.805	correct	2back	Block1	2back/STIM_008.jpg
111.071	0.92	correct	2back	Block1	2back/STIM_009.jpg
115.02	1.085	correct	2back	Block1	2back/STIM_009.jpg
119.723	1.089	correct	2back	Block1	2back/STIM_009.jpg
123.719	0.751	correct	2back	Block1	2back/STIM_010.jpg
126.493	0.815	correct	2back	Block1	2back/STIM_010.jpg
129.376	0.966	correct	2back	Block1	2back/STIM_010.jpg
132.493	0.898	correct	2back	Block1	2back/STIM_011.jpg
135.761	0.878	correct	2back	Block1	2back/STIM_011.jpg
138.922	0.924	correct	2back	Block1	2back/STIM_011.jpg
142.319	0.908	correct	2back	Block1	2back/STIM_012.jpg
146.176	1.235	correct	2back	Block1	2back/STIM_012.jpg
150.477	1.238	correct	2back	Block1	2back/STIM_012.jpg
154.345	1.276	correct	2back	Block1	2back/STIM_013.jpg
159.398	0.92	correct	2back	Block1	2back/STIM_013.jpg
163.239	0.713	correct	2back	Block1	2back/STIM_013.jpg
166.382	0.755	correct	2back	Block1	2back/STIM_014.jpg
169.72	1.234	correct	2back	Block1	2back/STIM_014.jpg
173.875	0.861	correct	2back	Block1	2back/STIM_014.jpg
176.963	0.679	incorrect	2back	Block1	2back/STIM_015.jpg
180.595	1.424	correct	2back	Block1	2back/STIM_015.jpg
184.66	1.22	correct	2back	Block1	2back/STIM_015.jpg
189.68	1.303	incorrect	2back	Block1	2back/STIM_016.jpg
194.629	1.31	correct	2back	Block1	2back/STIM_016.jpg
198.399	1.146	correct	2back	Block1	2back/STIM_016.jpg
202.395	1.333	correct	2back	Block1	2back/STIM_017.jpg
207.365	1.394	correct	2back	Block1	2back/STIM_017.jpg
211.349	0.884	correct	2back	Block1	2back/STIM_017.jpg
214.47	1.358	incorrect	2back	Block1	2back/STIM_018.jpg
218.076	1.241	correct	2back	Block1	2back/STIM_018.jpg
222.988	0.838	correct	2back	Block1	2back/STIM_018.jpg
227.738	1.39	correct	2back	Block1	2back/STIM_019.jpg
231.91	0.681	correct	2back	Block1	2back/STIM_019.jpg
235.421	0.796	correct	2back	Block1	2back/STIM_019.jpg
238.404	0.977	correct	2back	Block1	2back/STIM_020.jpg
243.295	1.039	correct	2back	Block1	2back/STIM_020.jpg
247.611	0.769	correct	2back	Block1	2back/STIM_020.jpg
250.944	1.305	correct	2back	Block1	2back/STIM_021.jpg
254.727	1.253	correct	2back	Block1	2back/STIM_021.jpg
259.577	1.268	incorrect	2back	Block1	2back/STIM_021.jpg
263.963	1.445	correct	2back	Block1	2back/STIM_022.jpg
268.796	1.036	correct	2back	Block1	2back/STIM_022.jpg
273.094	0.72	correct	2back	Block1	2back/STIM_022.jpg
276.873	1.319	correct	2back	Block1	2back/STIM_023.jpg
281.572	0.728	correct	2back	Block1	2back/STIM_023.jpg
285.53	1.015	correct	2back	Block1	2back/STIM_023.jpg
290.346	0.776	correct	2back	Block1	2back/STIM_024.jpg
293.637	0.732	correct	2back	Block1	2back/STIM_024.jpg
297.052	1.014	correct	2back	Block1	2back/STIM_024.jpg
302.002	1.253	correct	2back	Block1	2back/STIM_025.jpg
306.032	1.152	correct	2back	Block1	2back/STIM_025.jpg
310.454	0.68	correct	2back	Block1	2back/STIM_025.jpg
314.0	1.25	correct	2back	Block1	2back/STIM_026.jpg
317.87	1.056	correct	2back	Block1	2back/STIM_026.jpg
322.151	0.797	correct	2back	Block1	2back/STIM_026.jpg
325.668	0.857	correct	2back	Block1	2back/STIM_027.jpg
328.55	1.079	correct	2back	Block1	2back/STIM_027.jpg
332.306	1.289	correct	2back	Block1	2back/STIM_027.jpg
337.262	0.9	incorrect	2back	Block1	2back/STIM_028.jpg
340.841	1.272	correct	2back	Block1	2back/STIM_028.jpg
345.13	0.822	correct	2back	Block1	2back/STIM_028.jpg
348.568	1.069	correct	2back	Block1	2back/STIM_029.jpg
352.491	0.988	correct	2back	Block1	2back/STIM_029.jpg
356.613	0.882	incorrect	2back	Block1	2back/STIM_029.jpg
359.916	0.65	correct	2back	Block1	2back/STIM_030.jpg
364.206	1.23	correct	2back	Block1	2back/STIM_030.jpg
368.015	1.231	correct	2back	Block1	2back/STIM_030.jpg
372.444	0.983	incorrect	2back	Block1	2back/STIM_031.jpg
375.452	0.881	correct	2back	Block1	2back/STIM_031.jpg
378.472	1.324	correct	2back	Block1	2back/STIM_031.jpg
381.813	0.821	correct	2back	Block1	2back/STIM_032.jpg
384.781	1.071	correct	2back	Block1	2back/STIM_032.jpg
389.243	0.937	correct	2back	Block1	2back/STIM_032.jpg
392.359	0.664	correct	2back	Block1	2back/STIM_033.jpg
395.875	0.677	correct	2back	Block1	2back/STIM_033.jpg
399.207	0.875	correct	2back	Block1	2back/STIM_033.jpg
403.641	1.156	correct	2back	Block1	2back/STIM_034.jpg
407.686	1.191	correct	2back	Block1	2back/STIM_034.jpg
412.143	1.223	incorrect	2back	Block1	2back/STIM_034.jpg
416.622	0.875	correct	2back	Block1	2back/STIM_035.jpg
420.073	1.333	correct	2back	Block1	2back/STIM_035.jpg
425.091	0.707	correct	2back	Block1	2back/STIM_035.jpg
428.055	0.788	correct	2back	Block1	2back/STIM_036.jpg
432.61	0.877	correct	2back	Block1	2back/STIM_036.jpg
436.117	0.599	correct	2back	Block1	2back/STIM_036.jpg
439.211	0.839	correct	2back	Block1	2back/STIM_037.jpg
443.515	0.782	correct	2back	Block1	2back/STIM_037.jpg
447.038	1.199	correct	2back	Block1	2back/STIM_037.jpg
451.169	1.028	incorrect	2back	Block1	2back/STIM_038.jpg
455.804	1.312	correct	2back	Block1	2back/STIM_038.jpg
460.261	0.926	correct	2back	Block1	2back/STIM_038.jpg
465.162	1.065	correct	2back	Block1	2back/STIM_039.jpg
469.18	0.943	correct	2back	Block1	2back/STIM_039.jpg
472.952	0.798	correct	2back	Block1	2back/STIM_039.jpg
477.176	0.782	correct	0back	Block1	0back/STIM_000.jpg
481.279	0.598	correct	0back	Block1	0back/STIM_000.jpg
484.503	0.818	correct	0back	Block1	0back/STIM_000.jpg
488.412	0.749	correct	0back	Block1	0back/STIM_001.jpg
491.697	0.639	correct	0back	Block1	0back/STIM_001.jpg
495.339	0.678	correct	0back	Block1	0back/STIM_001.jpg
498.983	0.563	correct	0back	Block1	0back/STIM_002.jpg
501.756	0.708	correct	0back	Block1	0back/STIM_002.jpg
506.001	0.685	correct	0back	Block1	0back/STIM_002.jpg
509.32	0.527	correct	0back	Block1	0back/STIM_003.jpg
512.997	0.544	correct	0back	Block1	0back/STIM_003.jpg
517.2	0.699	correct	0back	Block1	0back/STIM_003.jpg
520.614	0.698	correct	0back	Block1	0back/STIM_004.jpg
524.795	0.708	correct	0back	Block1	0back/STIM_004.jpg
528.966	0.62	correct	0back	Block1	0back/STIM_004.jpg
532.049	0.763	correct	0back	Block1	0back/STIM_005.jpg
536.463	0.67	correct	0back	Block1	0back/STIM_005.jpg
539.914	0.439	correct	0back	Block1	0back/STIM_005.jpg
544.101	0.693	correct	0back	Block1	0back/STIM_006.jpg
547.821	0.508	correct	0back	Block1	0back/STIM_006.jpg
551.497	0.85	correct	0back	Block1	0back/STIM_006.jpg
554.718	0.464	correct	0back	Block1	0back/STIM_007.jpg
558.828	0.62	correct	0back	Block1	0back/STIM_007.jpg
563.439	0.533	correct	0back	Block1	0back/STIM_007.jpg
567.22	0.587	correct	0back	Block1	0back/STIM_008.jpg
569.969	0.491	correct	0back	Block1	0back/STIM_008.jpg
573.957	0.849	correct	0back	Block1	0back/STIM_008.jpg
578.24	0.72	correct	0back	Block1	0back/STIM_009.jpg
581.595	0.546	correct	0back	Block1	0back/STIM_009.jpg
586.007	0.648	correct	0back	Block1	0back/STIM_009.jpg
589.014	0.501	correct	0back	Block1	0back/STIM_010.jpg
592.12	0.49	correct	0back	Block1	0back/STIM_010.jpg
594.637	0.57	correct	0back	Block1	0back/STIM_010.jpg
599.007	0.609	correct	0back	Block1	0back/STIM_011.jpg
602.543	0.465	correct	0back	Block1	0back/STIM_011.jpg
606.814	0.669	correct	0back	Block1	0back/STIM_011.jpg
610.509	0.741	correct	0back	Block1	0back/STIM_012.jpg
613.619	0.546	correct	0back	Block1	0back/STIM_012.jpg
617.18	0.56	correct	0back	Block1	0back/STIM_012.jpg
620.952	0.716	incorrect	0back	Block1	0back/STIM_013.jpg
623.755	0.467	correct	0back	Block1	0back/STIM_013.jpg
627.957	0.496	correct	0back	Block1	0back/STIM_013.jpg
631.117	0.789	correct	0back	Block1	0back/STIM_014.jpg
635.345	0.451	incorrect	0back	Block1	0back/STIM_014.jpg
639.518	0.437	correct	0back	Block1	0back/STIM_014.jpg
643.101	0.464	correct	0back	Block1	0back/STIM_015.jpg
647.042	0.494	correct	0back	Block1	0back/STIM_015.jpg
650.426	0.799	correct	0back	Block1	0back/STIM_015.jpg
653.358	0.645	correct	0back	Block1	0back/STIM_016.jpg
656.369	0.508	correct	0back	Block1	0back/STIM_016.jpg
659.09	0.588	correct	0back	Block1	0back/STIM_016.jpg
662.071	0.667	correct	0back	Block1	0back/STIM_017.jpg
665.336	0.855	correct	0back	Block1	0back/STIM_017.jpg
669.977	0.629	correct	0back	Block1	0back/STIM_017.jpg
672.758	0.817	correct	0back	Block1	0back/STIM_018.jpg
675.928	0.511	correct	0back	Block1	0back/STIM_018.jpg
680.217	0.795	correct	0back	Block1	0back/STIM_018.jpg
684.378	0.853	correct	0back	Block1	0back/STIM_019.jpg
688.057	0.764	correct	0back	Block1	0back/STIM_019.jpg
692.054	0.777	correct	0back	Block1	0back/STIM_019.jpg
696.612	0.756	correct	2back	Block2	2back/STIM_000.jpg
699.409	1.144	correct	2back	Block2	2back/STIM_000.jpg
703.806	1.096	correct	2back	Block2	2back/STIM_000.jpg
708.266	0.634	correct	2back	Block2	2back/STIM_001.jpg
712.701	0.698	correct	2back	Block2	2back/STIM_001.jpg
716.087	0.722	correct	2back	Block2	2back/STIM_001.jpg
720.756	1.115	incorrect	2back	Block2	2back/STIM_002.jpg
724.329	0.521	correct	2back	Block2	2back/STIM_002.jpg
726.93	0.904	correct	2back	Block2	2back/STIM_002.jpg
731.217	1.163	correct	2back	Block2	2back/STIM_003.jpg
734.771	0.977	correct	2back	Block2	2back/STIM_003.jpg
738.594	0.699	correct	2back	Block2	2back/STIM_003.jpg
743.223	0.784	correct	2back	Block2	2back/STIM_004.jpg
747.958	0.595	correct	2back	Block2	2back/STIM_004.jpg
751.084	0.783	correct	2back	Block2	2back/STIM_004.jpg
755.644	1.131	correct	2back	Block2	2back/STIM_005.jpg
759.605	1.017	incorrect	2back	Block2	2back/STIM_005.jpg
762.709	0.488	correct	2back	Block2	2back/STIM_005.jpg
765.721	0.887	correct	2back	Block2	2back/STIM_006.jpg
770.102	1.053	correct	2back	Block2	2back/STIM_006.jpg
774.727	1.023	correct	2back	Block2	2back/STIM_006.jpg
778.918	0.723	correct	2back	Block2	2back/STIM_007.jpg
782.7	0.78	correct	2back	Block2	2back/STIM_007.jpg
786.783	0.734	correct	2back	Block2	2back/STIM_007.jpg
790.98	1.239	correct	2back	Block2	2back/STIM_008.jpg
794.958	0.516	correct	2back	Block2	2back/STIM_008.jpg
798.779	1.013	correct	2back	Block2	2back/STIM_008.jpg
803.41	1.211	correct	2back	Block2	2back/STIM_009.jpg
807.638	1.144	correct	2back	Block2	2back/STIM_009.jpg
811.87	0.928	incorrect	2back	Block2	2back/STIM_009.jpg
815.565	0.637	correct	2back	Block2	2back/STIM_010.jpg
818.852	0.638	correct	2back	Block2	2back/STIM_010.jpg
821.976	1.119	correct	2back	Block2	2back/STIM_010.jpg
825.284	0.964	correct	2back	Block2	2back/STIM_011.jpg
829.65	0.7	incorrect	2back	Block2	2back/STIM_011.jpg
834.026	0.557	correct	2back	Block2	2back/STIM_011.jpg
838.469	0.937	correct	2back	Block2	2back/STIM_012.jpg
842.235	0.756	correct	2back	Block2	2back/STIM_012.jpg
845.451	0.712	correct	2back	Block2	2back/STIM_012.jpg
848.4	0.997	incorrect	2back	Block2	2back/STIM_013.jpg
851.797	1.019	correct	2back	Block2	2back/STIM_013.jpg
856.73	0.961	correct	2back	Block2	2back/STIM_013.jpg
860.042	1.245	correct	2back	Block2	2back/STIM_014.jpg
863.805	0.671	correct	2back	Block2	2back/STIM_014.jpg
866.643	0.578	correct	2back	Block2	2back/STIM_014.jpg
870.62	0.972	correct	2back	Block2	2back/STIM_015.jpg
874.594	0.701	correct	2back	Block2	2back/STIM_015.jpg
878.608	0.854	correct	2back	Block2	2back/STIM_015.jpg
883.216	1.274	correct	2back	Block2	2back/STIM_016.jpg
886.501	0.899	correct	2back	Block2	2back/STIM_016.jpg
889.422	0.634	correct	2back	Block2	2back/STIM_016.jpg
893.981	0.852	correct	2back	Block2	2back/STIM_017.jpg
898.673	0.94	correct	2back	Block2	2back/STIM_017.jpg
903.446	0.884	correct	2back	Block2	2back/STIM_017.jpg
907.789	0.956	correct	2back	Block2	2back/STIM_018.jpg
911.351	0.724	correct	2back	Block2	2back/STIM_018.jpg
915.163	0.61	correct	2back	Block2	2back/STIM_018.jpg
919.1	0.759	correct	2back	Block2	2back/STIM_019.jpg
922.663	1.069	correct	2back	Block2	2back/STIM_019.jpg
925.845	0.949	correct	2back	Block2	2back/STIM_019.jpg
929.311	0.569	correct	2back	Block2	2back/STIM_020.jpg
932.764	0.949	correct	2back	Block2	2back/STIM_020.jpg
937.394	0.695	correct	2back	Block2	2back/STIM_020.jpg
940.243	0.606	correct	2back	Block2	2back/STIM_021.jpg
944.205	1.068	correct	2back	Block2	2back/STIM_021.jpg
948.525	0.93	correct	2back	Block2	2back/STIM_021.jpg
952.953	0.714	correct	2back	Block2	2back/STIM_022.jpg
956.672	0.566	correct	2back	Block2	2back/STIM_022.jpg
961.036	0.697	correct	2back	Block2	2back/STIM_022.jpg
963.934	1.068	correct	2back	Block2	2back/STIM_023.jpg
967.403	0.93	correct	2back	Block2	2back/STIM_023.jpg
971.464	0.813	correct	2back	Block2	2back/STIM_023.jpg
976.251	0.898	correct	2back	Block2	2back/STIM_024.jpg
980.029	0.839	correct	2back	Block2	2back/STIM_024.jpg
983.641	1.055	correct	2back	Block2	2back/STIM_024.jpg
988.548	1.196	correct	2back	Block2	2back/STIM_025.jpg
993.534	1.077	correct	2back	Block2	2back/STIM_025.jpg
997.179	1.086	correct	2back	Block2	2back/STIM_025.jpg
1002.264	1.184	correct	2back	Block2	2back/STIM_026.jpg
1006.896	1.042	incorrect	2back	Block2	2back/STIM_026.jpg
1010.427	0.716	correct	2back	Block2	2back/STIM_026.jpg
1014.478	0.888	correct	2back	Block2	2back/STIM_027.jpg
1017.435	0.675	correct	2back	Block2	2back/STIM_027.jpg
1021.979	0.577	correct	2back	Block2	2back/STIM_027.jpg
1024.675	1.109	correct	2back	Block2	2back/STIM_028.jpg
1028.526	1.044	correct	2back	Block2	2back/STIM_028.jpg
1033.223	0.613	correct	2back	Block2	2back/STIM_028.jpg
1037.631	0.619	correct	2back	Block2	2back/STIM_029.jpg
1041.655	0.758	correct	2back	Block2	2back/STIM_029.jpg
1044.75	0.965	correct	2back	Block2	2back/STIM_029.jpg
1049.49	1.036	correct	2back	Block2	2back/STIM_030.jpg
1053.263	0.927	correct	2back	Block2	2back/STIM_030.jpg
1056.634	0.623	correct	2back	Block2	2back/STIM_030.jpg
1060.563	0.68	correct	2back	Block2	2back/STIM_031.jpg
1064.568	0.722	correct	2back	Block2	2back/STIM_031.jpg
1068.784	0.58	correct	2back	Block2	2back/STIM_031.jpg
1072.606	0.838	incorrect	2back	Block2	2back/STIM_032.jpg
1076.736	0.617	correct	2back	Block2	2back/STIM_032.jpg
1079.816	0.806	correct	2back	Block2	2back/STIM_032.jpg
1083.019	0.644	correct	2back	Block2	2back/STIM_033.jpg
1086.483	0.808	correct	2back	Block2	2back/STIM_033.jpg
1090.732	0.553	correct	2back	Block2	2back/STIM_033.jpg
1094.249	0.717	correct	2back	Block2	2back/STIM_034.jpg
1097.713	0.969	correct	2back	Block2	2back/STIM_034.jpg
1101.692	0.854	correct	2back	Block2	2back/STIM_034.jpg
1106.051	0.81	correct	2back	Block2	2back/STIM_035.jpg
1109.676	0.842	correct	2back	Block2	2back/STIM_035.jpg
1114.037	0.516	correct	2back	Block2	2back/STIM_035.jpg
1117.507	0.894	correct	2back	Block2	2back/STIM_036.jpg
1121.65	0.682	correct	2back	Block2	2back/STIM_036.jpg
1124.465	0.97	correct	2back	Block2	2back/STIM_036.jpg
1128.375	0.797	correct	2back	Block2	2back/STIM_037.jpg
1131.572	0.948	correct	2back	Block2	2back/STIM_037.jpg
1136.03	0.895	correct	2back	Block2	2back/STIM_037.jpg
1140.174	0.804	correct	2back	Block2	2back/STIM_038.jpg
1142.996	0.842	incorrect	2back	Block2	2back/STIM_038.jpg
1145.871	0.652	correct	2back	Block2	2back/STIM_038.jpg
1149.918	1.111	correct	2back	Block2	2back/STIM_039.jpg
1153.904	1.158	correct	2back	Block2	2back/STIM_039.jpg
1158.119	0.926	correct	2back	Block2	2back/STIM_039.jpg
1162.551	0.776	correct	0back	Block2	0back/STIM_000.jpg
1166.452	0.51	correct	0back	Block2	0back/STIM_000.jpg
1170.497	0.618	correct	0back	Block2	0back/STIM_000.jpg
1174.171	0.773	correct	0back	Block2	0back/STIM_001.jpg
1178.584	0.589	correct	0back	Block2	0back/STIM_001.jpg
1182.242	0.431	correct	0back	Block2	0back/STIM_001.jpg
1185.303	0.761	correct	0back	Block2	0back/STIM_002.jpg
1189.086	0.604	correct	0back	Block2	0back/STIM_002.jpg
1192.151	0.486	correct	0back	Block2	0back/STIM_002.jpg
1195.417	0.523	correct	0back	Block2	0back/STIM_003.jpg
1199.749	0.473	correct	0back	Block2	0back/STIM_003.jpg
1203.216	0.733	correct	0back	Block2	0back/STIM_003.jpg
1206.238	0.619	correct	0back	Block2	0back/STIM_004.jpg
1210.164	0.819	correct	0back	Block2	0back/STIM_004.jpg
1213.587	0.827	correct	0back	Block2	0back/STIM_004.jpg
1216.721	0.517	correct	0back	Block2	0back/STIM_005.jpg
1220.46	0.504	correct	0back	Block2	0back/STIM_005.jpg
1224.409	0.473	correct	0back	Block2	0back/STIM_005.jpg
1227.758	0.651	correct	0back	Block2	0back/STIM_006.jpg
1232.195	0.511	correct	0back	Block2	0back/STIM_006.jpg
1235.138	0.722	correct	0back	Block2	0back/STIM_006.jpg
1238.649	0.675	correct	0back	Block2	0back/STIM_007.jpg
1242.784	0.608	correct	0back	Block2	0back/STIM_007.jpg
1246.834	0.585	correct	0back	Block2	0back/STIM_007.jpg
1251.059	0.615	correct	0back	Block2	0back/STIM_008.jpg
1255.584	0.559	correct	0back	Block2	0back/STIM_008.jpg
1258.476	0.717	correct	0back	Block2	0back/STIM_008.jpg
1261.803	0.672	correct	0back	Block2	0back/STIM_009.jpg
1265.868	0.645	correct	0back	Block2	0back/STIM_009.jpg
1268.976	0.687	correct	0back	Block2	0back/STIM_009.jpg
1273.141	0.697	correct	0back	Block2	0back/STIM_010.jpg
1276.331	0.568	correct	0back	Block2	0back/STIM_010.jpg
1279.985	0.627	correct	0back	Block2	0back/STIM_010.jpg
1283.841	0.706	correct	0back	Block2	0back/STIM_011.jpg
1286.66	0.429	correct	0back	Block2	0back/STIM_011.jpg
1289.624	0.722	correct	0back	Block2	0back/STIM_011.jpg
1292.491	0.744	correct	0back	Block2	0back/STIM_012.jpg
1296.655	0.528	correct	0back	Block2	0back/STIM_012.jpg
1299.417	0.548	correct	0back	Block2	0back/STIM_012.jpg
1302.242	0.538	correct	0back	Block2	0back/STIM_013.jpg
1305.506	0.656	correct	0back	Block2	0back/STIM_013.jpg
1308.425	0.518	correct	0back	Block2	0back/STIM_013.jpg
1311.197	0.502	correct	0back	Block2	0back/STIM_014.jpg
1314.863	0.821	correct	0back	Block2	0back/STIM_014.jpg
1319.203	0.64	correct	0back	Block2	0back/STIM_014.jpg
1322.577	0.757	correct	0back	Block2	0back/STIM_015.jpg
1325.667	0.762	correct	0back	Block2	0back/STIM_015.jpg
1329.647	0.54	correct	0back	Block2	0back/STIM_015.jpg
1333.43	0.444	incorrect	0back	Block2	0back/STIM_016.jpg
1337.399	0.779	correct	0back	Block2	0back/STIM_016.jpg
1340.952	0.598	correct	0back	Block2	0back/STIM_016.jpg
1344.146	0.626	correct	0back	Block2	0back/STIM_017.jpg
1347.2	0.539	correct	0back	Block2	0back/STIM_017.jpg
1351.378	0.568	correct	0back	Block2	0back/STIM_017.jpg
1354.177	0.706	correct	0back	Block2	0back/STIM_018.jpg
1357.479	0.456	correct	0back	Block2	0back/STIM_018.jpg
1361.671	0.541	correct	0back	Block2	0back/STIM_018.jpg
1364.279	0.636	correct	0back	Block2	0back/STIM_019.jpg
1367.186	0.457	correct	0back	Block2	0back/STIM_019.jpg
1369.979	0.519	correct	0back	Block2	0back/STIM_019.jpg
1374.056	0.785	correct	2back	Block3	2back/STIM_000.jpg
1378.731	0.546	correct	2back	Block3	2back/STIM_000.jpg
1381.545	0.918	correct	2back	Block3	2back/STIM_000.jpg
1384.502	0.994	correct	2back	Block3	2back/STIM_001.jpg
1388.215	0.482	correct	2back	Block3	2back/STIM_001.jpg
1391.693	0.841	correct	2back	Block3	2back/STIM_001.jpg
1396.366	0.561	correct	2back	Block3	2back/STIM_002.jpg
1399.241	0.722	correct	2back	Block3	2back/STIM_002.jpg
1403.757	0.599	correct	2back	Block3	2back/STIM_002.jpg
1407.664	0.991	correct	2back	Block3	2back/STIM_003.jpg
1411.795	0.609	correct	2back	Block3	2back/STIM_003.jpg
1415.659	0.968	correct	2back	Block3	2back/STIM_003.jpg
1419.419	0.727	correct	2back	Block3	2back/STIM_004.jpg
1422.761	1.038	correct	2back	Block3	2back/STIM_004.jpg
1425.916	0.469	correct	2back	Block3	2back/STIM_004.jpg
1429.087	0.662	correct	2back	Block3	2back/STIM_005.jpg
1433.099	0.854	correct	2back	Block3	2back/STIM_005.jpg
1436.793	0.853	correct	2back	Block3	2back/STIM_005.jpg
1441.535	0.842	correct	2back	Block3	2back/STIM_006.jpg
1445.183	0.501	correct	2back	Block3	2back/STIM_006.jpg
1449.428	0.632	correct	2back	Block3	2back/STIM_006.jpg
1453.785	0.556	correct	2back	Block3	2back/STIM_007.jpg
1457.476	0.568	correct	2back	Block3	2back/STIM_007.jpg
1460.244	0.485	correct	2back	Block3	2back/STIM_007.jpg
1463.691	0.9	correct	2back	Block3	2back/STIM_008.jpg
1467.098	0.68	correct	2back	Block3	2back/STIM_008.jpg
1470.324	0.732	correct	2back	Block3	2back/STIM_008.jpg
1473.798	0.837	correct	2back	Block3	2back/STIM_009.jpg
1477.374	0.573	correct	2back	Block3	2back/STIM_009.jpg
1481.54	0.467	correct	2back	Block3	2back/STIM_009.jpg
1485.893	0.471	correct	2back	Block3	2back/STIM_010.jpg
1489.804	0.86	correct	2back	Block3	2back/STIM_010.jpg
1493.083	0.869	correct	2back	Block3	2back/STIM_010.jpg
1496.918	1.037	correct	2back	Block3	2back/STIM_011.jpg
1500.418	0.943	correct	2back	Block3	2back/STIM_011.jpg
1505.214	0.771	correct	2back	Block3	2back/STIM_011.jpg
1509.102	0.474	correct	2back	Block3	2back/STIM_012.jpg
1512.43	0.579	correct	2back	Block3	2back/STIM_012.jpg
1515.134	0.838	correct	2back	Block3	2back/STIM_012.jpg
1519.396	0.507	correct	2back	Block3	2back/STIM_013.jpg
1522.701	0.883	correct	2back	Block3	2back/STIM_013.jpg
1526.618	0.976	correct	2back	Block3	2back/STIM_013.jpg
1530.155	0.953	correct	2back	Block3	2back/STIM_014.jpg
1535.035	1.039	correct	2back	Block3	2back/STIM_014.jpg
1539.807	0.68	correct	2back	Block3	2back/STIM_014.jpg
1543.266	1.038	correct	2back	Block3	2back/STIM_015.jpg
1546.54	0.997	correct	2back	Block3	2back/STIM_015.jpg
1550.99	0.649	correct	2back	Block3	2back/STIM_015.jpg
1553.776	0.844	correct	2back	Block3	2back/STIM_016.jpg
1556.757	0.77	correct	2back	Block3	2back/STIM_016.jpg
1559.726	0.983	correct	2back	Block3	2back/STIM_016.jpg
1564.259	0.461	correct	2back	Block3	2back/STIM_017.jpg
1567.828	0.973	correct	2back	Block3	2back/STIM_017.jpg
1571.867	0.708	correct	2back	Block3	2back/STIM_017.jpg
1574.709	0.603	correct	2back	Block3	2back/STIM_018.jpg
1579.256	0.528	correct	2back	Block3	2back/STIM_018.jpg
1582.801	0.506	correct	2back	Block3	2back/STIM_018.jpg
1586.54	0.626	correct	2back	Block3	2back/STIM_019.jpg
1590.07	0.762	correct	2back	Block3	2back/STIM_019.jpg
1593.178	0.607	correct	2back	Block3	2back/STIM_019.jpg
1596.952	0.867	correct	2back	Block3	2back/STIM_020.jpg
1600.366	0.471	correct	2back	Block3	2back/STIM_020.jpg
1603.031	1.049	correct	2back	Block3	2back/STIM_020.jpg
1606.992	0.88	correct	2back	Block3	2back/STIM_021.jpg
1610.165	0.504	correct	2back	Block3	2back/STIM_021.jpg
1614.355	0.927	correct	2back	Block3	2back/STIM_021.jpg
1618.614	0.678	correct	2back	Block3	2back/STIM_022.jpg
1622.623	0.818	correct	2back	Block3	2back/STIM_022.jpg
1627.148	0.824	correct	2back	Block3	2back/STIM_022.jpg
1631.263	0.767	correct	2back	Block3	2back/STIM_023.jpg
1635.485	0.973	correct	2back	Block3	2back/STIM_023.jpg
1639.661	0.541	correct	2back	Block3	2back/STIM_023.jpg
1643.733	0.755	correct	2back	Block3	2back/STIM_024.jpg
1647.18	0.517	correct	2back	Block3	2back/STIM_024.jpg
1651.329	0.576	correct	2back	Block3	2back/STIM_024.jpg
1655.675	0.989	correct	2back	Block3	2back/STIM_025.jpg
1660.084	0.742	correct	2back	Block3	2back/STIM_025.jpg
1663.204	1.008	correct	2back	Block3	2back/STIM_025.jpg
1667.777	0.915	correct	2back	Block3	2back/STIM_026.jpg
1672.255	0.486	correct	2back	Block3	2back/STIM_026.jpg
1676.502	0.806	correct	2back	Block3	2back/STIM_026.jpg
1679.504	0.746	correct	2back	Block3	2back/STIM_027.jpg
1683.458	0.931	correct	2back	Block3	2back/STIM_027.jpg
1687.994	0.844	correct	2back	Block3	2back/STIM_027.jpg
1691.064	0.753	correct	2back	Block3	2back/STIM_028.jpg
1693.984	0.822	correct	2back	Block3	2back/STIM_028.jpg
1697.036	0.768	correct	2back	Block3	2back/STIM_028.jpg
1700.362	0.997	correct	2back	Block3	2back/STIM_029.jpg
1703.652	0.525	correct	2back	Block3	2back/STIM_029.jpg
1707.132	0.828	correct	2back	Block3	2back/STIM_029.jpg
1711.788	0.513	correct	2back	Block3	2back/STIM_030.jpg
1714.477	0.957	correct	2back	Block3	2back/STIM_030.jpg
1718.614	0.609	correct	2back	Block3	2back/STIM_030.jpg
1721.271	0.809	correct	2back	Block3	2back/STIM_031.jpg
1725.652	0.822	correct	2back	Block3	2back/STIM_031.jpg
1730.422	0.952	correct	2back	Block3	2back/STIM_031.jpg
1735.177	0.61	correct	2back	Block3	2back/STIM_032.jpg
1739.349	0.885	correct	2back	Block3	2back/STIM_032.jpg
1742.663	0.616	correct	2back	Block3	2back/STIM_032.jpg
1745.795	0.456	correct	2back	Block3	2back/STIM_033.jpg
1749.193	0.845	correct	2back	Block3	2back/STIM_033.jpg
1753.169	0.578	correct	2back	Block3	2back/STIM_033.jpg
1757.358	1.006	correct	2back	Block3	2back/STIM_034.jpg
1761.616	0.775	correct	2back	Block3	2back/STIM_034.jpg
1765.727	0.599	incorrect	2back	Block3	2back/STIM_034.jpg
1769.409	0.912	correct	2back	Block3	2back/STIM_035.jpg
1773.669	0.652	correct	2back	Block3	2back/STIM_035.jpg
1777.705	0.757	correct	2back	Block3	2back/STIM_035.jpg
1782.179	0.675	correct	2back	Block3	2back/STIM_036.jpg
1784.906	1.0	correct	2back	Block3	2back/STIM_036.jpg
1789.704	1.038	correct	2back	Block3	2back/STIM_036.jpg
1793.691	0.564	incorrect	2back	Block3	2back/STIM_037.jpg
1797.938	0.947	correct	2back	Block3	2back/STIM_037.jpg
1802.78	0.78	correct	2back	Block3	2back/STIM_037.jpg
1806.114	0.559	correct	2back	Block3	2back/STIM_038.jpg
1809.387	0.956	correct	2back	Block3	2back/STIM_038.jpg
1813.447	0.498	correct	2back	Block3	2back/STIM_038.jpg
1816.71	0.614	correct	2back	Block3	2back/STIM_039.jpg
1820.17	0.628	incorrect	2back	Block3	2back/STIM_039.jpg
1823.085	0.753	correct	2back	Block3	2back/STIM_039.jpg
1827.587	0.624	correct	0back	Block3	0back/STIM_000.jpg
1832.131	0.606	correct	0back	Block3	0back/STIM_000.jpg
1835.102	0.435	correct	0back	Block3	0back/STIM_000.jpg
1839.37	0.8	correct	0back	Block3	0back/STIM_001.jpg
1843.35	0.472	correct	0back	Block3	0back/STIM_001.jpg
1847.204	0.732	correct	0back	Block3	0back/STIM_001.jpg
1851.703	0.685	correct	0back	Block3	0back/STIM_002.jpg
1855.262	0.699	correct	0back	Block3	0back/STIM_002.jpg
1859.554	0.582	correct	0back	Block3	0back/STIM_002.jpg
1862.984	0.555	correct	0back	Block3	0back/STIM_003.jpg
1865.607	0.48	correct	0back	Block3	0back/STIM_003.jpg
1869.97	0.846	correct	0back	Block3	0back/STIM_003.jpg
1874.171	0.854	correct	0back	Block3	0back/STIM_004.jpg
1878.502	0.603	correct	0back	Block3	0back/STIM_004.jpg
1881.332	0.824	correct	0back	Block3	0back/STIM_004.jpg
1885.171	0.712	correct	0back	Block3	0back/STIM_005.jpg
1888.963	0.767	correct	0back	Block3	0back/STIM_005.jpg
1892.637	0.662	correct	0back	Block3	0back/STIM_005.jpg
1895.379	0.515	correct	0back	Block3	0back/STIM_006.jpg
1899.298	0.643	correct	0back	Block3	0back/STIM_006.jpg
1903.107	0.668	correct	0back	Block3	0back/STIM_006.jpg
1906.448	0.459	correct	0back	Block3	0back/STIM_007.jpg
1909.561	0.507	correct	0back	Block3	0back/STIM_007.jpg
1913.127	0.621	correct	0back	Block3	0back/STIM_007.jpg
1916.821	0.682	correct	0back	Block3	0back/STIM_008.jpg
1920.064	0.551	correct	0back	Block3	0back/STIM_008.jpg
1923.678	0.584	correct	0back	Block3	0back/STIM_008.jpg
1926.307	0.589	correct	0back	Block3	0back/STIM_009.jpg
1929.927	0.713	incorrect	0back	Block3	0back/STIM_009.jpg
1932.668	0.456	correct	0back	Block3	0back/STIM_009.jpg
1936.83	0.749	correct	0back	Block3	0back/STIM_010.jpg
1940.758	0.648	correct	0back	Block3	0back/STIM_010.jpg
1945.222	0.712	correct	0back	Block3	0back/STIM_010.jpg
1948.464	0.531	correct	0back	Block3	0back/STIM_011.jpg
1951.931	0.675	correct	0back	Block3	0back/STIM_011.jpg
1955.824	0.451	correct	0back	Block3	0back/STIM_011.jpg
1959.353	0.708	correct	0back	Block3	0back/STIM_012.jpg
1962.714	0.795	correct	0back	Block3	0back/STIM_012.jpg
1966.439	0.688	correct	0back	Block3	0back/STIM_012.jpg
1970.928	0.815	correct	0back	Block3	0back/STIM_013.jpg
1973.84	0.473	correct	0back	Block3	0back/STIM_013.jpg
1978.204	0.539	correct	0back	Block3	0back/STIM_013.jpg
1981.177	0.794	correct	0back	Block3	0back/STIM_014.jpg
1985.859	0.823	correct	0back	Block3	0back/STIM_014.jpg
1988.809	0.702	correct	0back	Block3	0back/STIM_014.jpg
1991.874	0.566	correct	0back	Block3	0back/STIM_015.jpg
1995.555	0.46	correct	0back	Block3	0back/STIM_015.jpg
1999.626	0.431	correct	0back	Block3	0back/STIM_015.jpg
2002.303	0.738	correct	0back	Block3	0back/STIM_016.jpg
2005.258	0.458	correct	0back	Block3	0back/STIM_016.jpg
2009.714	0.775	correct	0back	Block3	0back/STIM_016.jpg
2012.608	0.828	correct	0back	Block3	0back/STIM_017.jpg
2015.662	0.829	correct	0back	Block3	0back/STIM_017.jpg
2018.835	0.458	correct	0back	Block3	0back/STIM_017.jpg
2021.57	0.818	correct	0back	Block3	0back/STIM_018.jpg
2025.179	0.769	correct	0back	Block3	0back/STIM_018.jpg
2029.45	0.795	correct	0back	Block3	0back/STIM_018.jpg
2032.994	0.781	correct	0back	Block3	0back/STIM_019.jpg
2037.318	0.769	correct	0back	Block3	0back/STIM_019.jpg
2040.115	0.724	correct	0back	Block3	0back/STIM_019.jpg
2043.469	0.951	correct	2back	Block4	2back/STIM_000.jpg
2047.697	0.663	correct	2back	Block4	2back/STIM_000.jpg
2052.305	0.627	correct	2back	Block4	2back/STIM_000.jpg
2056.695	0.69	correct	2back	Block4	2back/STIM_001.jpg
2060.315	0.509	correct	2back	Block4	2back/STIM_001.jpg
2064.158	0.709	correct	2back	Block4	2back/STIM_001.jpg
2068.202	0.548	correct	2back	Block4	2back/STIM_002.jpg
2072.745	1.021	correct	2back	Block4	2back/STIM_002.jpg
2077.28	0.689	correct	2back	Block4	2back/STIM_002.jpg
2080.084	0.844	correct	2back	Block4	2back/STIM_003.jpg
2084.666	0.926	correct	2back	Block4	2back/STIM_003.jpg
2089.227	0.752	correct	2back	Block4	2back/STIM_003.jpg
2093.191	0.881	correct	2back	Block4	2back/STIM_004.jpg
2096.253	1.022	correct	2back	Block4	2back/STIM_004.jpg
2099.671	0.666	correct	2back	Block4	2back/STIM_004.jpg
2102.625	0.898	correct	2back	Block4	2back/STIM_005.jpg
2106.448	1.007	correct	2back	Block4	2back/STIM_005.jpg
2110.06	0.621	correct	2back	Block4	2back/STIM_005.jpg
2114.392	0.541	correct	2back	Block4	2back/STIM_006.jpg
2118.272	0.831	correct	2back	Block4	2back/STIM_006.jpg
2121.828	0.634	correct	2back	Block4	2back/STIM_006.jpg
2124.89	0.582	correct	2back	Block4	2back/STIM_007.jpg
2128.05	0.623	incorrect	2back	Block4	2back/STIM_007.jpg
2131.812	0.465	correct	2back	Block4	2back/STIM_007.jpg
2136.125	0.634	correct	2back	Block4	2back/STIM_008.jpg
2139.389	0.514	correct	2back	Block4	2back/STIM_008.jpg
2142.434	0.78	correct	2back	Block4	2back/STIM_008.jpg
2146.577	1.037	correct	2back	Block4	2back/STIM_009.jpg
2151.239	0.991	correct	2back	Block4	2back/STIM_009.jpg
2156.176	0.911	correct	2back	Block4	2back/STIM_009.jpg
2159.892	0.813	correct	2back	Block4	2back/STIM_010.jpg
2163.566	0.898	correct	2back	Block4	2back/STIM_010.jpg
2167.137	0.9	correct	2back	Block4	2back/STIM_010.jpg
2171.085	0.942	correct	2back	Block4	2back/STIM_011.jpg
2175.892	0.502	correct	2back	Block4	2back/STIM_011.jpg
2180.161	0.706	correct	2back	Block4	2back/STIM_011.jpg
2183.215	0.852	correct	2back	Block4	2back/STIM_012.jpg
2186.709	0.481	correct	2back	Block4	2back/STIM_012.jpg
2189.301	0.513	correct	2back	Block4	2back/STIM_012.jpg
2193.761	0.899	correct	2back	Block4	2back/STIM_013.jpg
2197.29	0.703	correct	2back	Block4	2back/STIM_013.jpg
2200.683	0.874	correct	2back	Block4	2back/STIM_013.jpg
2204.702	0.815	correct	2back	Block4	2back/STIM_014.jpg
2209.446	0.625	correct	2back	Block4	2back/STIM_014.jpg
2212.816	0.809	correct	2back	Block4	2back/STIM_014.jpg
2217.293	1.041	correct	2back	Block4	2back/STIM_015.jpg
2220.531	0.865	correct	2back	Block4	2back/STIM_015.jpg
2223.859	0.932	correct	2back	Block4	2back/STIM_015.jpg
2228.066	0.744	correct	2back	Block4	2back/STIM_016.jpg
2231.28	0.685	correct	2back	Block4	2back/STIM_016.jpg
2235.673	0.785	correct	2back	Block4	2back/STIM_016.jpg
2238.86	0.851	correct	2back	Block4	2back/STIM_017.jpg
2241.851	0.679	correct	2back	Block4	2back/STIM_017.jpg
2246.502	0.48	correct	2back	Block4	2back/STIM_017.jpg
2249.148	0.805	correct	2back	Block4	2back/STIM_018.jpg
2253.721	0.953	correct	2back	Block4	2back/STIM_018.jpg
2256.773	0.643	correct	2back	Block4	2back/STIM_018.jpg
2260.499	0.532	correct	2back	Block4	2back/STIM_019.jpg
2264.138	0.795	correct	2back	Block4	2back/STIM_019.jpg
2268.592	0.917	correct	2back	Block4	2back/STIM_019.jpg
2272.021	0.457	correct	2back	Block4	2back/STIM_020.jpg
2275.242	0.722	correct	2back	Block4	2back/STIM_020.jpg
2279.023	0.778	correct	2back	Block4	2back/STIM_020.jpg
2283.304	0.777	correct	2back	Block4	2back/STIM_021.jpg
2286.65	0.606	correct	2back	Block4	2back/STIM_021.jpg
2290.385	0.887	correct	2back	Block4	2back/STIM_021.jpg
2294.227	0.981	correct	2back	Block4	2back/STIM_022.jpg
2299.007	0.572	correct	2back	Block4	2back/STIM_022.jpg
2302.837	0.472	correct	2back	Block4	2back/STIM_022.jpg
2305.895	0.911	correct	2back	Block4	2back/STIM_023.jpg
2310.615	0.567	correct	2back	Block4	2back/STIM_023.jpg
2314.223	0.87	correct	2back	Block4	2back/STIM_023.jpg
2317.599	0.836	correct	2back	Block4	2back/STIM_024.jpg
2321.71	0.901	correct	2back	Block4	2back/STIM_024.jpg
2324.793	0.715	correct	2back	Block4	2back/STIM_024.jpg
2327.551	0.888	correct	2back	Block4	2back/STIM_025.jpg
2331.019	0.46	correct	2back	Block4	2back/STIM_025.jpg
2333.78	0.714	correct	2back	Block4	2back/STIM_025.jpg
2338.367	0.522	correct	2back	Block4	2back/STIM_026.jpg
2341.317	0.996	correct	2back	Block4	2back/STIM_026.jpg
2346.123	0.598	correct	2back	Block4	2back/STIM_026.jpg
2349.307	0.604	correct	2back	Block4	2back/STIM_027.jpg
2353.238	0.919	correct	2back	Block4	2back/STIM_027.jpg
2357.251	0.809	correct	2back	Block4	2back/STIM_027.jpg
2360.772	0.569	correct	2back	Block4	2back/STIM_028.jpg
2364.283	0.599	correct	2back	Block4	2back/STIM_028.jpg
2368.187	0.561	correct	2back	Block4	2back/STIM_028.jpg
2372.644	0.542	correct	2back	Block4	2back/STIM_029.jpg
2376.302	1.021	correct	2back	Block4	2back/STIM_029.jpg
2381.313	0.962	correct	2back	Block4	2back/STIM_029.jpg
2385.414	0.628	correct	2back	Block4	2back/STIM_030.jpg
2388.147	0.935	correct	2back	Block4	2back/STIM_030.jpg
2392.488	1.026	correct	2back	Block4	2back/STIM_030.jpg
2396.458	0.54	correct	2back	Block4	2back/STIM_031.jpg
2400.901	0.788	correct	2back	Block4	2back/STIM_031.jpg
2404.099	0.985	correct	2back	Block4	2back/STIM_031.jpg
2407.836	0.598	correct	2back	Block4	2back/STIM_032.jpg
2412.227	0.829	correct	2back	Block4	2back/STIM_032.jpg
2415.928	1.042	correct	2back	Block4	2back/STIM_032.jpg
2420.517	1.021	correct	2back	Block4	2back/STIM_033.jpg
2425.261	0.855	correct	2back	Block4	2back/STIM_033.jpg
2429.153	0.612	correct	2back	Block4	2back/STIM_033.jpg
2432.734	0.823	correct	2back	Block4	2back/STIM_034.jpg
2437.089	0.76	correct	2back	Block4	2back/STIM_034.jpg
2440.361	0.514	correct	2back	Block4	2back/STIM_034.jpg
2444.093	0.538	correct	2back	Block4	2back/STIM_035.jpg
2447.334	0.898	correct	2back	Block4	2back/STIM_035.jpg
2451.36	0.665	correct	2back	Block4	2back/STIM_035.jpg
2455.294	0.613	correct	2back	Block4	2back/STIM_036.jpg
2459.415	0.86	correct	2back	Block4	2back/STIM_036.jpg
2463.295	1.026	correct	2back	Block4	2back/STIM_036.jpg
2466.621	0.797	correct	2back	Block4	2back/STIM_037.jpg
2469.801	0.749	correct	2back	Block4	2back/STIM_037.jpg
2472.762	0.912	correct	2back	Block4	2back/STIM_037.jpg
2475.723	0.69	correct	2back	Block4	2back/STIM_038.jpg
2480.279	0.568	correct	2back	Block4	2back/STIM_038.jpg
2484.431	0.958	correct	2back	Block4	2back/STIM_038.jpg
2487.979	0.775	correct	2back	Block4	2back/STIM_039.jpg
2491.864	0.885	correct	2back	Block4	2back/STIM_039.jpg
2495.865	0.734	correct	2back	Block4	2back/STIM_039.jpg
2500.484	0.833	correct	0back	Block4	0back/STIM_000.jpg
2504.202	0.454	correct	0back	Block4	0back/STIM_000.jpg
2507.955	0.539	correct	0back	Block4	0back/STIM_000.jpg
2512.438	0.58	correct	0back	Block4	0back/STIM_001.jpg
2515.857	0.694	correct	0back	Block4	0back/STIM_001.jpg
2520.054	0.71	correct	0back	Block4	0back/STIM_001.jpg
2524.735	0.654	correct	0back	Block4	0back/STIM_002.jpg
2528.23	0.808	correct	0back	Block4	0back/STIM_002.jpg
2532.113	0.563	correct	0back	Block4	0back/STIM_002.jpg
2536.54	0.517	correct	0back	Block4	0back/STIM_003.jpg
2540.792	0.679	correct	0back	Block4	0back/STIM_003.jpg
2545.344	0.647	correct	0back	Block4	0back/STIM_003.jpg
2549.804	0.799	correct	0back	Block4	0back/STIM_004.jpg
2554.512	0.487	correct	0back	Block4	0back/STIM_004.jpg
2557.946	0.775	correct	0back	Block4	0back/STIM_004.jpg
2562.46	0.78	correct	0back	Block4	0back/STIM_005.jpg
2566.414	0.712	correct	0back	Block4	0back/STIM_005.jpg
2570.116	0.774	correct	0back	Block4	0back/STIM_005.jpg
2573.084	0.429	correct	0back	Block4	0back/STIM_006.jpg
2576.942	0.82	correct	0back	Block4	0back/STIM_006.jpg
2581.717	0.701	correct	0back	Block4	0back/STIM_006.jpg
2585.018	0.462	correct	0back	Block4	0back/STIM_007.jpg
2588.678	0.757	correct	0back	Block4	0back/STIM_007.jpg
2593.145	0.704	correct	0back	Block4	0back/STIM_007.jpg
2597.311	0.692	correct	0back	Block4	0back/STIM_008.jpg
2600.396	0.827	correct	0back	Block4	0back/STIM_008.jpg
2605.048	0.53	correct	0back	Block4	0back/STIM_008.jpg
2608.346	0.646	correct	0back	Block4	0back/STIM_009.jpg
2612.205	0.441	correct	0back	Block4	0back/STIM_009.jpg
2616.183	0.752	correct	0back	Block4	0back/STIM_009.jpg
2620.245	0.552	correct	0back	Block4	0back/STIM_010.jpg
2623.813	0.59	correct	0back	Block4	0back/STIM_010.jpg
2628.11	0.642	correct	0back	Block4	0back/STIM_010.jpg
2632.482	0.64	correct	0back	Block4	0back/STIM_011.jpg
2636.288	0.673	correct	0back	Block4	0back/STIM_011.jpg
2639.744	0.63	correct	0back	Block4	0back/STIM_011.jpg
2642.614	0.769	correct	0back	Block4	0back/STIM_012.jpg
2645.72	0.496	correct	0back	Block4	0back/STIM_012.jpg
2648.4	0.55	correct	0back	Block4	0back/STIM_012.jpg
2652.527	0.759	correct	0back	Block4	0back/STIM_013.jpg
2656.614	0.492	correct	0back	Block4	0back/STIM_013.jpg
2660.35	0.849	correct	0back	Block4	0back/STIM_013.jpg
2663.205	0.569	correct	0back	Block4	0back/STIM_014.jpg
2666.113	0.569	correct	0back	Block4	0back/STIM_014.jpg
2669.989	0.816	correct	0back	Block4	0back/STIM_014.jpg
2673.743	0.481	correct	0back	Block4	0back/STIM_015.jpg
2676.522	0.701	correct	0back	Block4	0back/STIM_015.jpg
2679.504	0.642	correct	0back	Block4	0back/STIM_015.jpg
2683.875	0.429	correct	0back	Block4	0back/STIM_016.jpg
2686.716	0.637	correct	0back	Block4	0back/STIM_016.jpg
2690.62	0.51	correct	0back	Block4	0back/STIM_016.jpg
2693.889	0.817	correct	0back	Block4	0back/STIM_017.jpg
2698.509	0.538	correct	0back	Block4	0back/STIM_017.jpg
2701.981	0.588	incorrect	0back	Block4	0back/STIM_017.jpg
2705.1	0.447	correct	0back	Block4	0back/STIM_018.jpg
2708.711	0.776	correct	0back	Block4	0back/STIM_018.jpg
2711.842	0.739	correct	0back	Block4	0back/STIM_018.jpg
2715.527	0.81	correct	0back	Block4	0back/STIM_019.jpg
2719.191	0.7	correct	0back	Block4	0back/STIM_019.jpg
2722.873	0.759	correct	0back	Block4	0back/STIM_019.jpg
