onset	duration	response_time_ms	trial_type	learning_stage	stimulus	response_port
0.0	1.247	1246.7	2back	Block1	2back/STIM_000.jpg	100
4.384	1.401	1400.9	2back	Block1	2back/STIM_000.jpg	99
8.615	1.14	1139.9	2back	Block1	2back/STIM_000.jpg	99
12.403	1.284	1283.6	2back	Block1	2back/STIM_001.jpg	99
17.135	1.319	1319.1	2back	Block1	2back/STIM_001.jpg	100
20.57	0.837	836.9	2back	Block1	2back/STIM_001.jpg	100
23.683	0.8	799.9	2back	Block1	2back/STIM_002.jpg	100
27.496	1.226	1226.5	2back	Block1	2back/STIM_002.jpg	99
31.578	0.672	672.3	2back	Block1	2back/STIM_002.jpg	99
36.217	0.842	842.5	2back	Block1	2back/STIM_003.jpg	99
40.976	1.033	1033.3	2back	Block1	2back/STIM_003.jpg	99
45.214	1.052	1051.6	2back	Block1	2back/STIM_003.jpg	99
49.434	1.049	1049.3	2back	Block1	2back/STIM_004.jpg	100
54.149	0.873	872.6	2back	Block1	2back/STIM_004.jpg	99
58.9	1.256	1255.6	2back	Block1	2back/STIM_004.jpg	99
62.193	0.682	682.2	2back	Block1	2back/STIM_005.jpg	100
65.58	1.224	1223.6	2back	Block1	2back/STIM_005.jpg	100
69.344	0.786	786.0	2back	Block1	2back/STIM_005.jpg	100
72.939	0.704	704.4	2back	Block1	2back/STIM_006.jpg	99
77.565	0.958	957.8	2back	Block1	2back/STIM_006.jpg	99
81.862	0.897	897.1	2back	Block1	2back/STIM_006.jpg	100
86.602	0.764	763.8	2back	Block1	2back/STIM_007.jpg	99
91.122	1.302	1301.6	2back	Block1	2back/STIM_007.jpg	100
94.654	1.215	1215.0	2back	Block1	2back/STIM_007.jpg	100
98.026	1.257	1257.1	2back	Block1	2back/STIM_008.jpg	100
101.89	1.046	1046.2	2back	Block1	2back/STIM_008.jpg	99
106.305	0.805	804.6	2back	Block1	2back/STIM_008.jpg	99
111.071	0.92	920.1	2back	Block1	2back/STIM_009.jpg	100
115.02	1.085	1085.1	2back	Block1	2back/STIM_009.jpg	99
119.723	1.089	1088.6	2back	Block1	2back/STIM_009.jpg	99
123.719	0.751	750.9	2back	Block1	2back/STIM_010.jpg	100
126.493	0.815	815.3	2back	Block1	2back/STIM_010.jpg	100
129.376	0.966	965.6	2back	Block1	2back/STIM_010.jpg	99
132.493	0.898	897.9	2back	Block1	2back/STIM_011.jpg	99
135.761	0.878	877.8	2back	Block1	2back/STIM_011.jpg	99
138.922	0.924	924.5	2back	Block1	2back/STIM_011.jpg	100
142.319	0.908	907.9	2back	Block1	2back/STIM_012.jpg	99
146.176	1.235	1234.7	2back	Block1	2back/STIM_012.jpg	99
150.477	1.238	1238.0	2back	Block1	2back/STIM_012.jpg	99
154.345	1.276	1276.4	2back	Block1	2back/STIM_013.jpg	99
159.398	0.92	920.1	2back	Block1	2back/STIM_013.jpg	100
163.239	0.713	713.0	2back	Block1	2back/STIM_013.jpg	99
166.382	0.755	755.2	2back	Block1	2back/STIM_014.jpg	100
169.72	1.234	1233.7	2back	Block1	2back/STIM_014.jpg	99
173.875	0.861	860.9	2back	Block1	2back/STIM_014.jpg	99
176.963	0.679	679.2	2back	Block1	2back/STIM_015.jpg	100
180.595	1.424	1423.7	2back	Block1	2back/STIM_015.jpg	99
184.66	1.22	1220.2	2back	Block1	2back/STIM_015.jpg	99
189.68	1.303	1303.4	2back	Block1	2back/STIM_016.jpg	99
194.629	1.31	1309.7	2back	Block1	2back/STIM_016.jpg	100
198.399	1.146	1146.4	2back	Block1	2back/STIM_016.jpg	100
202.395	1.333	1333.1	2back	Block1	2back/STIM_017.jpg	100
207.365	1.394	1393.8	2back	Block1	2back/STIM_017.jpg	100
211.349	0.884	884.2	2back	Block1	2back/STIM_017.jpg	99
214.47	1.358	1357.9	2back	Block1	2back/STIM_018.jpg	100
218.076	1.241	1241.1	2back	Block1	2back/STIM_018.jpg	99
222.988	0.838	837.6	2back	Block1	2back/STIM_018.jpg	99
227.738	1.39	1389.7	2back	Block1	2back/STIM_019.jpg	99
231.91	0.681	681.4	2back	Block1	2back/STIM_019.jpg	100
235.421	0.796	796.4	2back	Block1	2back/STIM_019.jpg	100
238.404	0.977	976.7	2back	Block1	2back/STIM_020.jpg	99
243.295	1.039	1038.8	2back	Block1	2back/STIM_020.jpg	100
247.611	0.769	769.2	2back	Block1	2back/STIM_020.jpg	99
250.944	1.305	1305.2	2back	Block1	2back/STIM_021.jpg	99
254.727	1.253	1252.8	2back	Block1	2back/STIM_021.jpg	99
259.577	1.268	1267.5	2back	Block1	2back/STIM_021.jpg	100
263.963	1.445	1445.3	2back	Block1	2back/STIM_022.jpg	100
268.796	1.036	1036.2	2back	Block1	2back/STIM_022.jpg	100
273.094	0.72	720.3	2back	Block1	2back/STIM_022.jpg	99
276.873	1.319	1319.0	2back	Block1	2back/STIM_023.jpg	99
281.572	0.728	728.1	2back	Block1	2back/STIM_023.jpg	99
285.53	1.015	1015.4	2back	Block1	2back/STIM_023.jpg	100
290.346	0.776	776.5	2back	Block1	2back/STIM_024.jpg	99
293.637	0.732	731.6	2back	Block1	2back/STIM_024.jpg	100
297.052	1.014	1014.0	2back	Block1	2back/STIM_024.jpg	99
302.002	1.253	1252.9	2back	Block1	2back/STIM_025.jpg	100
306.032	1.152	1151.7	2back	Block1	2back/STIM_025.jpg	100
310.454	0.68	679.6	2back	Block1	2back/STIM_025.jpg	100
314.0	1.25	1250.3	2back	Block1	2back/STIM_026.jpg	100
317.87	1.056	1055.7	2back	Block1	2back/STIM_026.jpg	99
322.151	0.797	797.4	2back	Block1	2back/STIM_026.jpg	99
325.668	0.857	856.6	2back	Block1	2back/STIM_027.jpg	99
328.55	1.079	1079.4	2back	Block1	2back/STIM_027.jpg	99
332.306	1.289	1289.3	2back	Block1	2back/STIM_027.jpg	100
337.262	0.9	899.5	2back	Block1	2back/STIM_028.jpg	99
340.841	1.272	1271.6	2back	Block1	2back/STIM_028.jpg	99
345.13	0.822	821.6	2back	Block1	2back/STIM_028.jpg	100
348.568	1.069	1068.9	2back	Block1	2back/STIM_029.jpg	99
352.491	0.988	987.6	2back	Block1	2back/STIM_029.jpg	100
356.613	0.882	882.3	2back	Block1	2back/STIM_029.jpg	99
359.916	0.65	649.9	2back	Block1	2back/STIM_030.jpg	100
364.206	1.23	1229.9	2back	Block1	2back/STIM_030.jpg	100
368.015	1.231	1231.2	2back	Block1	2back/STIM_030.jpg	99
372.444	0.983	982.7	2back	Block1	2back/STIM_031.jpg	100
375.452	0.881	880.7	2back	Block1	2back/STIM_031.jpg	100
378.472	1.324	1323.9	2back	Block1	2back/STIM_031.jpg	99
381.813	0.821	821.3	2back	Block1	2back/STIM_032.jpg	99
384.781	1.071	1071.0	2back	Block1	2back/STIM_032.jpg	99
389.243	0.937	937.1	2back	Block1	2back/STIM_032.jpg	100
392.359	0.664	663.9	2back	Block1	2back/STIM_033.jpg	99
395.875	0.677	677.4	2back	Block1	2back/STIM_033.jpg	99
399.207	0.875	875.0	2back	Block1	2back/STIM_033.jpg	99
403.641	1.156	1155.7	2back	Block1	2back/STIM_034.jpg	100
407.686	1.191	1190.9	2back	Block1	2back/STIM_034.jpg	99
412.143	1.223	1223.2	2back	Block1	2back/STIM_034.jpg	99
416.622	0.875	874.6	2back	Block1	2back/STIM_035.jpg	99
420.073	1.333	1333.0	2back	Block1	2back/STIM_035.jpg	100
425.091	0.707	707.3	2back	Block1	2back/STIM_035.jpg	100
428.055	0.788	787.7	2back	Block1	2back/STIM_036.jpg	99
432.61	0.877	876.7	2back	Block1	2back/STIM_036.jpg	100
436.117	0.599	599.0	2back	Block1	2back/STIM_036.jpg	99
439.211	0.839	838.9	2back	Block1	2back/STIM_037.jpg	99
443.515	0.782	782.2	2back	Block1	2back/STIM_037.jpg	100
447.038	1.199	1198.9	2back	Block1	2back/STIM_037.jpg	100
451.169	1.028	1028.0	2back	Block1	2back/STIM_038.jpg	99
455.804	1.312	1311.7	2back	Block1	2back/STIM_038.jpg	99
460.261	0.926	926.5	2back	Block1	2back/STIM_038.jpg	100
465.162	1.065	1064.7	2back	Block1	2back/STIM_039.jpg	100
469.18	0.943	943.2	2back	Block1	2back/STIM_039.jpg	100
472.952	0.798	798.4	2back	Block1	2back/STIM_039.jpg	100
477.176	0.782	781.6	0back	Block1	0back/STIM_000.jpg	99
481.279	0.598	597.7	0back	Block1	0back/STIM_000.jpg	99
484.503	0.818	817.9	0back	Block1	0back/STIM_000.jpg	99
488.412	0.749	749.2	0back	Block1	0back/STIM_001.jpg	100
491.697	0.639	639.2	0back	Block1	0back/STIM_001.jpg	100
495.339	0.678	678.2	0back	Block1	0back/STIM_001.jpg	100
498.983	0.563	563.4	0back	Block1	0back/STIM_002.jpg	99
501.756	0.708	707.5	0back	Block1	0back/STIM_002.jpg	99
506.001	0.685	684.8	0back	Block1	0back/STIM_002.jpg	99
509.32	0.527	527.0	0back	Block1	0back/STIM_003.jpg	99
512.997	0.544	544.0	0back	Block1	0back/STIM_003.jpg	100
517.2	0.699	698.6	0back	Block1	0back/STIM_003.jpg	100
520.614	0.698	698.1	0back	Block1	0back/STIM_004.jpg	100
524.795	0.708	707.5	0back	Block1	0back/STIM_004.jpg	99
528.966	0.62	619.8	0back	Block1	0back/STIM_004.jpg	99
532.049	0.763	762.9	0back	Block1	0back/STIM_005.jpg	99
536.463	0.67	670.0	0back	Block1	0back/STIM_005.jpg	100
539.914	0.439	438.8	0back	Block1	0back/STIM_005.jpg	99
544.101	0.693	693.0	0back	Block1	0back/STIM_006.jpg	99
547.821	0.508	508.4	0back	Block1	0back/STIM_006.jpg	99
551.497	0.85	849.9	0back	Block1	0back/STIM_006.jpg	100
554.718	0.464	463.8	0back	Block1	0back/STIM_007.jpg	99
558.828	0.62	620.2	0back	Block1	0back/STIM_007.jpg	99
563.439	0.533	533.1	0back	Block1	0back/STIM_007.jpg	100
567.22	0.587	586.9	0back	Block1	0back/STIM_008.jpg	99
569.969	0.491	491.3	0back	Block1	0back/STIM_008.jpg	100
573.957	0.849	849.2	0back	Block1	0back/STIM_008.jpg	100
578.24	0.72	720.3	0back	Block1	0back/STIM_009.jpg	100
581.595	0.546	545.5	0back	Block1	0back/STIM_009.jpg	99
586.007	0.648	648.3	0back	Block1	0back/STIM_009.jpg	99
589.014	0.501	500.7	0back	Block1	0back/STIM_010.jpg	99
592.12	0.49	490.2	0back	Block1	0back/STIM_010.jpg	99
594.637	0.57	569.7	0back	Block1	0back/STIM_010.jpg	99
599.007	0.609	609.4	0back	Block1	0back/STIM_011.jpg	99
602.543	0.465	465.3	0back	Block1	0back/STIM_011.jpg	99
606.814	0.669	668.6	0back	Block1	0back/STIM_011.jpg	99
610.509	0.741	740.9	0back	Block1	0back/STIM_012.jpg	100
613.619	0.546	545.6	0back	Block1	0back/STIM_012.jpg	99
617.18	0.56	560.3	0back	Block1	0back/STIM_012.jpg	99
620.952	0.716	715.9	0back	Block1	0back/STIM_013.jpg	99
623.755	0.467	467.2	0back	Block1	0back/STIM_013.jpg	100
627.957	0.496	496.2	0back	Block1	0back/STIM_013.jpg	99
631.117	0.789	788.6	0back	Block1	0back/STIM_014.jpg	99
635.345	0.451	451.2	0back	Block1	0back/STIM_014.jpg	99
639.518	0.437	436.8	0back	Block1	0back/STIM_014.jpg	100
643.101	0.464	464.3	0back	Block1	0back/STIM_015.jpg	99
647.042	0.494	493.9	0back	Block1	0back/STIM_015.jpg	100
650.426	0.799	798.8	0back	Block1	0back/STIM_015.jpg	100
653.358	0.645	644.8	0back	Block1	0back/STIM_016.jpg	99
656.369	0.508	507.8	0back	Block1	0back/STIM_016.jpg	99
659.09	0.588	588.4	0back	Block1	0back/STIM_016.jpg	100
662.071	0.667	667.1	0back	Block1	0back/STIM_017.jpg	99
665.336	0.855	854.9	0back	Block1	0back/STIM_017.jpg	99
669.977	0.629	628.6	0back	Block1	0back/STIM_017.jpg	100
672.758	0.817	816.8	0back	Block1	0back/STIM_018.jpg	99
675.928	0.511	510.6	0back	Block1	0back/STIM_018.jpg	99
680.217	0.795	794.8	0back	Block1	0back/STIM_018.jpg	100
684.378	0.853	853.0	0back	Block1	0back/STIM_019.jpg	100
688.057	0.764	763.7	0back	Block1	0back/STIM_019.jpg	100
692.054	0.777	776.9	0back	Block1	0back/STIM_019.jpg	99
696.612	0.756	756.0	2back	Block2	2back/STIM_000.jpg	100
699.409	1.144	1143.9	2back	Block2	2back/STIM_000.jpg	100
703.806	1.096	1095.7	2back	Block2	2back/STIM_000.jpg	100
708.266	0.634	634.3	2back	Block2	2back/STIM_001.jpg	100
712.701	0.698	697.7	2back	Block2	2back/STIM_001.jpg	99
716.087	0.722	722.1	2back	Block2	2back/STIM_001.jpg	100
720.756	1.115	1114.9	2back	Block2	2back/STIM_002.jpg	100
724.329	0.521	521.2	2back	Block2	2back/STIM_002.jpg	99
726.93	0.904	903.7	2back	Block2	2back/STIM_002.jpg	100
731.217	1.163	1163.4	2back	Block2	2back/STIM_003.jpg	100
734.771	0.977	977.2	2back	Block2	2back/STIM_003.jpg	99
738.594	0.699	698.6	2back	Block2	2back/STIM_003.jpg	99
743.223	0.784	784.4	2back	Block2	2back/STIM_004.jpg	99
747.958	0.595	595.1	2back	Block2	2back/STIM_004.jpg	100
751.084	0.783	783.3	2back	Block2	2back/STIM_004.jpg	99
755.644	1.131	1131.0	2back	Block2	2back/STIM_005.jpg	100
759.605	1.017	1017.3	2back	Block2	2back/STIM_005.jpg	99
762.709	0.488	488.1	2back	Block2	2back/STIM_005.jpg	100
765.721	0.887	887.1	2back	Block2	2back/STIM_006.jpg	100
770.102	1.053	1052.7	2back	Block2	2back/STIM_006.jpg	99
774.727	1.023	1023.1	2back	Block2	2back/STIM_006.jpg	99
778.918	0.723	723.0	2back	Block2	2back/STIM_007.jpg	99
782.7	0.78	779.5	2back	Block2	2back/STIM_007.jpg	100
786.783	0.734	733.7	2back	Block2	2back/STIM_007.jpg	100
790.98	1.239	1238.6	2back	Block2	2back/STIM_008.jpg	100
794.958	0.516	515.5	2back	Block2	2back/STIM_008.jpg	99
798.779	1.013	1013.0	2back	Block2	2back/STIM_008.jpg	100
803.41	1.211	1210.8	2back	Block2	2back/STIM_009.jpg	100
807.638	1.144	1144.1	2back	Block2	2back/STIM_009.jpg	99
811.87	0.928	928.1	2back	Block2	2back/STIM_009.jpg	99
815.565	0.637	637.0	2back	Block2	2back/STIM_010.jpg	100
818.852	0.638	638.2	2back	Block2	2back/STIM_010.jpg	100
821.976	1.119	1118.6	2back	Block2	2back/STIM_010.jpg	99
825.284	0.964	963.9	2back	Block2	2back/STIM_011.jpg	99
829.65	0.7	699.9	2back	Block2	2back/STIM_011.jpg	99
834.026	0.557	556.7	2back	Block2	2back/STIM_011.jpg	100
838.469	0.937	937.1	2back	Block2	2back/STIM_012.jpg	100
842.235	0.756	755.5	2back	Block2	2back/STIM_012.jpg	99
845.451	0.712	712.5	2back	Block2	2back/STIM_012.jpg	100
848.4	0.997	996.7	2back	Block2	2back/STIM_013.jpg	100
851.797	1.019	1019.0	2back	Block2	2back/STIM_013.jpg	100
856.73	0.961	961.3	2back	Block2	2back/STIM_013.jpg	100
860.042	1.245	1245.1	2back	Block2	2back/STIM_014.jpg	100
863.805	0.671	671.2	2back	Block2	2back/STIM_014.jpg	100
866.643	0.578	577.9	2back	Block2	2back/STIM_014.jpg	100
870.62	0.972	971.5	2back	Block2	2back/STIM_015.jpg	100
874.594	0.701	701.3	2back	Block2	2back/STIM_015.jpg	99
878.608	0.854	854.5	2back	Block2	2back/STIM_015.jpg	100
883.216	1.274	1273.9	2back	Block2	2back/STIM_016.jpg	100
886.501	0.899	898.8	2back	Block2	2back/STIM_016.jpg	100
889.422	0.634	633.6	2back	Block2	2back/STIM_016.jpg	99
893.981	0.852	851.5	2back	Block2	2back/STIM_017.jpg	100
898.673	0.94	939.8	2back	Block2	2back/STIM_017.jpg	99
903.446	0.884	883.6	2back	Block2	2back/STIM_017.jpg	100
907.789	0.956	956.4	2back	Block2	2back/STIM_018.jpg	100
911.351	0.724	724.1	2back	Block2	2back/STIM_018.jpg	100
915.163	0.61	610.2	2back	Block2	2back/STIM_018.jpg	99
919.1	0.759	759.4	2back	Block2	2back/STIM_019.jpg	100
922.663	1.069	1069.2	2back	Block2	2back/STIM_019.jpg	100
925.845	0.949	948.6	2back	Block2	2back/STIM_019.jpg	100
929.311	0.569	569.1	2back	Block2	2back/STIM_020.jpg	99
932.764	0.949	949.3	2back	Block2	2back/STIM_020.jpg	99
937.394	0.695	694.7	2back	Block2	2back/STIM_020.jpg	100
940.243	0.606	606.0	2back	Block2	2back/STIM_021.jpg	99
944.205	1.068	1067.6	2back	Block2	2back/STIM_021.jpg	100
948.525	0.93	929.8	2back	Block2	2back/STIM_021.jpg	100
952.953	0.714	713.8	2back	Block2	2back/STIM_022.jpg	100
956.672	0.566	565.7	2back	Block2	2back/STIM_022.jpg	99
961.036	0.697	696.6	2back	Block2	2back/STIM_022.jpg	100
963.934	1.068	1067.6	2back	Block2	2back/STIM_023.jpg	100
967.403	0.93	929.9	2back	Block2	2back/STIM_023.jpg	100
971.464	0.813	812.8	2back	Block2	2back/STIM_023.jpg	100
976.251	0.898	897.5	2back	Block2	2back/STIM_024.jpg	100
980.029	0.839	838.9	2back	Block2	2back/STIM_024.jpg	100
983.641	1.055	1055.4	2back	Block2	2back/STIM_024.jpg	99
988.548	1.196	1195.7	2back	Block2	2back/STIM_025.jpg	100
993.534	1.077	1077.4	2back	Block2	2back/STIM_025.jpg	100
997.179	1.086	1086.1	2back	Block2	2back/STIM_025.jpg	100
1002.264	1.184	1184.3	2back	Block2	2back/STIM_026.jpg	100
1006.896	1.042	1042.0	2back	Block2	2back/STIM_026.jpg	99
1010.427	0.716	715.7	2back	Block2	2back/STIM_026.jpg	99
1014.478	0.888	887.6	2back	Block2	2back/STIM_027.jpg	99
1017.435	0.675	675.2	2back	Block2	2back/STIM_027.jpg	100
1021.979	0.577	577.4	2back	Block2	2back/STIM_027.jpg	99
1024.675	1.109	1109.4	2back	Block2	2back/STIM_028.jpg	99
1028.526	1.044	1043.5	2back	Block2	2back/STIM_028.jpg	100
1033.223	0.613	613.0	2back	Block2	2back/STIM_028.jpg	100
1037.631	0.619	619.0	2back	Block2	2back/STIM_029.jpg	99
1041.655	0.758	758.5	2back	Block2	2back/STIM_029.jpg	100
1044.75	0.965	964.7	2back	Block2	2back/STIM_029.jpg	99
1049.49	1.036	1035.8	2back	Block2	2back/STIM_030.jpg	100
1053.263	0.927	926.6	2back	Block2	2back/STIM_030.jpg	100
1056.634	0.623	623.2	2back	Block2	2back/STIM_030.jpg	99
1060.563	0.68	680.3	2back	Block2	2back/STIM_031.jpg	100
1064.568	0.722	722.0	2back	Block2	2back/STIM_031.jpg	100
1068.784	0.58	579.8	2back	Block2	2back/STIM_031.jpg	100
1072.606	0.838	837.6	2back	Block2	2back/STIM_032.jpg	99
1076.736	0.617	616.7	2back	Block2	2back/STIM_032.jpg	100
1079.816	0.806	806.3	2back	Block2	2back/STIM_032.jpg	99
1083.019	0.644	643.9	2back	Block2	2back/STIM_033.jpg	100
1086.483	0.808	807.7	2back	Block2	2back/STIM_033.jpg	99
1090.732	0.553	552.9	2back	Block2	2back/STIM_033.jpg	99
1094.249	0.717	716.9	2back	Block2	2back/STIM_034.jpg	99
1097.713	0.969	968.6	2back	Block2	2back/STIM_034.jpg	99
1101.692	0.854	853.6	2back	Block2	2back/STIM_034.jpg	100
1106.051	0.81	809.9	2back	Block2	2back/STIM_035.jpg	99
1109.676	0.842	842.1	2back	Block2	2back/STIM_035.jpg	99
1114.037	0.516	516.3	2back	Block2	2back/STIM_035.jpg	100
1117.507	0.894	894.4	2back	Block2	2back/STIM_036.jpg	100
1121.65	0.682	681.5	2back	Block2	2back/STIM_036.jpg	99
1124.465	0.97	969.8	2back	Block2	2back/STIM_036.jpg	99
1128.375	0.797	796.9	2back	Block2	2back/STIM_037.jpg	99
1131.572	0.948	948.2	2back	Block2	2back/STIM_037.jpg	99
1136.03	0.895	895.4	2back	Block2	2back/STIM_037.jpg	99
1140.174	0.804	804.3	2back	Block2	2back/STIM_038.jpg	99
1142.996	0.842	841.7	2back	Block2	2back/STIM_038.jpg	100
1145.871	0.652	651.8	2back	Block2	2back/STIM_038.jpg	100
1149.918	1.111	1110.8	2back	Block2	2back/STIM_039.jpg	100
1153.904	1.158	1157.6	2back	Block2	2back/STIM_039.jpg	100
1158.119	0.926	926.1	2back	Block2	2back/STIM_039.jpg	100
1162.551	0.776	776.2	0back	Block2	0back/STIM_000.jpg	99
1166.452	0.51	509.7	0back	Block2	0back/STIM_000.jpg	99
1170.497	0.618	617.7	0back	Block2	0back/STIM_000.jpg	99
1174.171	0.773	772.9	0back	Block2	0back/STIM_001.jpg	100
1178.584	0.589	589.3	0back	Block2	0back/STIM_001.jpg	100
1182.242	0.431	430.9	0back	Block2	0back/STIM_001.jpg	100
1185.303	0.761	760.8	0back	Block2	0back/STIM_002.jpg	99
1189.086	0.604	604.5	0back	Block2	0back/STIM_002.jpg	99
1192.151	0.486	486.4	0back	Block2	0back/STIM_002.jpg	99
1195.417	0.523	522.7	0back	Block2	0back/STIM_003.jpg	99
1199.749	0.473	472.9	0back	Block2	0back/STIM_003.jpg	100
1203.216	0.733	733.0	0back	Block2	0back/STIM_003.jpg	99
1206.238	0.619	618.9	0back	Block2	0back/STIM_004.jpg	100
1210.164	0.819	819.1	0back	Block2	0back/STIM_004.jpg	99
1213.587	0.827	827.4	0back	Block2	0back/STIM_004.jpg	99
1216.721	0.517	517.2	0back	Block2	0back/STIM_005.jpg	99
1220.46	0.504	504.3	0back	Block2	0back/STIM_005.jpg	100
1224.409	0.473	472.7	0back	Block2	0back/STIM_005.jpg	100
1227.758	0.651	650.8	0back	Block2	0back/STIM_006.jpg	99
1232.195	0.511	511.5	0back	Block2	0back/STIM_006.jpg	99
1235.138	0.722	721.8	0back	Block2	0back/STIM_006.jpg	99
1238.649	0.675	675.0	0back	Block2	0back/STIM_007.jpg	100
1242.784	0.608	608.4	0back	Block2	0back/STIM_007.jpg	99
1246.834	0.585	585.4	0back	Block2	0back/STIM_007.jpg	100
1251.059	0.615	615.4	0back	Block2	0back/STIM_008.jpg	99
1255.584	0.559	558.6	0back	Block2	0back/STIM_008.jpg	100
1258.476	0.717	716.8	0back	Block2	0back/STIM_008.jpg	100
1261.803	0.672	671.7	0back	Block2	0back/STIM_009.jpg	100
1265.868	0.645	644.8	0back	Block2	0back/STIM_009.jpg	100
1268.976	0.687	687.2	0back	Block2	0back/STIM_009.jpg	99
1273.141	0.697	696.6	0back	Block2	0back/STIM_010.jpg	99
1276.331	0.568	567.7	0back	Block2	0back/STIM_010.jpg	100
1279.985	0.627	627.0	0back	Block2	0back/STIM_010.jpg	100
1283.841	0.706	706.3	0back	Block2	0back/STIM_011.jpg	99
1286.66	0.429	428.9	0back	Block2	0back/STIM_011.jpg	99
1289.624	0.722	722.5	0back	Block2	0back/STIM_011.jpg	100
1292.491	0.744	744.1	0back	Block2	0back/STIM_012.jpg	99
1296.655	0.528	527.8	0back	Block2	0back/STIM_012.jpg	100
1299.417	0.548	548.2	0back	Block2	0back/STIM_012.jpg	100
1302.242	0.538	538.0	0back	Block2	0back/STIM_013.jpg	99
1305.506	0.656	656.4	0back	Block2	0back/STIM_013.jpg	100
1308.425	0.518	517.8	0back	Block2	0back/STIM_013.jpg	100
1311.197	0.502	501.6	0back	Block2	0back/STIM_014.jpg	99
1314.863	0.821	821.4	0back	Block2	0back/STIM_014.jpg	100
1319.203	0.64	639.9	0back	Block2	0back/STIM_014.jpg	100
1322.577	0.757	756.9	0back	Block2	0back/STIM_015.jpg	100
1325.667	0.762	761.6	0back	Block2	0back/STIM_015.jpg	100
1329.647	0.54	539.8	0back	Block2	0back/STIM_015.jpg	99
1333.43	0.444	444.2	0back	Block2	0back/STIM_016.jpg	99
1337.399	0.779	779.2	0back	Block2	0back/STIM_016.jpg	99
1340.952	0.598	598.2	0back	Block2	0back/STIM_016.jpg	100
1344.146	0.626	626.1	0back	Block2	0back/STIM_017.jpg	99
1347.2	0.539	538.7	0back	Block2	0back/STIM_017.jpg	99
1351.378	0.568	568.2	0back	Block2	0back/STIM_017.jpg	100
1354.177	0.706	706.4	0back	Block2	0back/STIM_018.jpg	100
1357.479	0.456	455.8	0back	Block2	0back/STIM_018.jpg	100
1361.671	0.541	540.9	0back	Block2	0back/STIM_018.jpg	100
1364.279	0.636	636.5	0back	Block2	0back/STIM_019.jpg	99
1367.186	0.457	456.6	0back	Block2	0back/STIM_019.jpg	100
1369.979	0.519	518.8	0back	Block2	0back/STIM_019.jpg	100
1374.056	0.785	784.6	2back	Block3	2back/STIM_000.jpg	99
1378.731	0.546	545.8	2back	Block3	2back/STIM_000.jpg	100
1381.545	0.918	917.5	2back	Block3	2back/STIM_000.jpg	99
1384.502	0.994	993.9	2back	Block3	2back/STIM_001.jpg	100
1388.215	0.482	481.6	2back	Block3	2back/STIM_001.jpg	100
1391.693	0.841	841.0	2back	Block3	2back/STIM_001.jpg	99
1396.366	0.561	561.4	2back	Block3	2back/STIM_002.jpg	99
1399.241	0.722	722.4	2back	Block3	2back/STIM_002.jpg	100
1403.757	0.599	599.2	2back	Block3	2back/STIM_002.jpg	99
1407.664	0.991	991.2	2back	Block3	2back/STIM_003.jpg	99
1411.795	0.609	609.0	2back	Block3	2back/STIM_003.jpg	100
1415.659	0.968	968.0	2back	Block3	2back/STIM_003.jpg	99
1419.419	0.727	727.3	2back	Block3	2back/STIM_004.jpg	99
1422.761	1.038	1038.4	2back	Block3	2back/STIM_004.jpg	100
1425.916	0.469	468.7	2back	Block3	2back/STIM_004.jpg	100
1429.087	0.662	662.1	2back	Block3	2back/STIM_005.jpg	99
1433.099	0.854	853.9	2back	Block3	2back/STIM_005.jpg	100
1436.793	0.853	853.0	2back	Block3	2back/STIM_005.jpg	100
1441.535	0.842	842.3	2back	Block3	2back/STIM_006.jpg	100
1445.183	0.501	501.0	2back	Block3	2back/STIM_006.jpg	99
1449.428	0.632	632.1	2back	Block3	2back/STIM_006.jpg	100
1453.785	0.556	556.3	2back	Block3	2back/STIM_007.jpg	99
1457.476	0.568	568.2	2back	Block3	2back/STIM_007.jpg	99
1460.244	0.485	485.4	2back	Block3	2back/STIM_007.jpg	100
1463.691	0.9	900.2	2back	Block3	2back/STIM_008.jpg	99
1467.098	0.68	680.0	2back	Block3	2back/STIM_008.jpg	99
1470.324	0.732	731.7	2back	Block3	2back/STIM_008.jpg	99
1473.798	0.837	837.1	2back	Block3	2back/STIM_009.jpg	99
1477.374	0.573	572.9	2back	Block3	2back/STIM_009.jpg	99
1481.54	0.467	466.6	2back	Block3	2back/STIM_009.jpg	99
1485.893	0.471	470.9	2back	Block3	2back/STIM_010.jpg	100
1489.804	0.86	859.7	2back	Block3	2back/STIM_010.jpg	100
1493.083	0.869	868.9	2back	Block3	2back/STIM_010.jpg	99
1496.918	1.037	1036.9	2back	Block3	2back/STIM_011.jpg	99
1500.418	0.943	942.7	2back	Block3	2back/STIM_011.jpg	100
1505.214	0.771	770.7	2back	Block3	2back/STIM_011.jpg	99
1509.102	0.474	474.4	2back	Block3	2back/STIM_012.jpg	99
1512.43	0.579	579.3	2back	Block3	2back/STIM_012.jpg	99
1515.134	0.838	838.1	2back	Block3	2back/STIM_012.jpg	100
1519.396	0.507	506.9	2back	Block3	2back/STIM_013.jpg	99
1522.701	0.883	883.4	2back	Block3	2back/STIM_013.jpg	99
1526.618	0.976	976.1	2back	Block3	2back/STIM_013.jpg	100
1530.155	0.953	953.4	2back	Block3	2back/STIM_014.jpg	100
1535.035	1.039	1039.2	2back	Block3	2back/STIM_014.jpg	99
1539.807	0.68	679.8	2back	Block3	2back/STIM_014.jpg	100
1543.266	1.038	1038.1	2back	Block3	2back/STIM_015.jpg	100
1546.54	0.997	997.4	2back	Block3	2back/STIM_015.jpg	100
1550.99	0.649	649.0	2back	Block3	2back/STIM_015.jpg	99
1553.776	0.844	843.5	2back	Block3	2back/STIM_016.jpg	100
1556.757	0.77	770.4	2back	Block3	2back/STIM_016.jpg	99
1559.726	0.983	983.3	2back	Block3	2back/STIM_016.jpg	99
1564.259	0.461	461.2	2back	Block3	2back/STIM_017.jpg	99
1567.828	0.973	972.6	2back	Block3	2back/STIM_017.jpg	100
1571.867	0.708	707.7	2back	Block3	2back/STIM_017.jpg	100
1574.709	0.603	602.7	2back	Block3	2back/STIM_018.jpg	100
1579.256	0.528	527.9	2back	Block3	2back/STIM_018.jpg	100
1582.801	0.506	506.2	2back	Block3	2back/STIM_018.jpg	99
1586.54	0.626	626.3	2back	Block3	2back/STIM_019.jpg	99
1590.07	0.762	762.3	2back	Block3	2back/STIM_019.jpg	100
1593.178	0.607	607.3	2back	Block3	2back/STIM_019.jpg	100
1596.952	0.867	867.3	2back	Block3	2back/STIM_020.jpg	100
1600.366	0.471	471.2	2back	Block3	2back/STIM_020.jpg	99
1603.031	1.049	1048.8	2back	Block3	2back/STIM_020.jpg	99
1606.992	0.88	879.7	2back	Block3	2back/STIM_021.jpg	100
1610.165	0.504	504.4	2back	Block3	2back/STIM_021.jpg	100
1614.355	0.927	926.9	2back	Block3	2back/STIM_021.jpg	99
1618.614	0.678	677.8	2back	Block3	2back/STIM_022.jpg	99
1622.623	0.818	817.8	2back	Block3	2back/STIM_022.jpg	100
1627.148	0.824	823.8	2back	Block3	2back/STIM_022.jpg	100
1631.263	0.767	767.2	2back	Block3	2back/STIM_023.jpg	99
1635.485	0.973	972.6	2back	Block3	2back/STIM_023.jpg	100
1639.661	0.541	541.4	2back	Block3	2back/STIM_023.jpg	100
1643.733	0.755	755.3	2back	Block3	2back/STIM_024.jpg	99
1647.18	0.517	517.4	2back	Block3	2back/STIM_024.jpg	99
1651.329	0.576	575.8	2back	Block3	2back/STIM_024.jpg	99
1655.675	0.989	989.1	2back	Block3	2back/STIM_025.jpg	99
1660.084	0.742	741.8	2back	Block3	2back/STIM_025.jpg	99
1663.204	1.008	1008.2	2back	Block3	2back/STIM_025.jpg	99
1667.777	0.915	915.3	2back	Block3	2back/STIM_026.jpg	100
1672.255	0.486	485.9	2back	Block3	2back/STIM_026.jpg	99
1676.502	0.806	805.8	2back	Block3	2back/STIM_026.jpg	99
1679.504	0.746	746.1	2back	Block3	2back/STIM_027.jpg	100
1683.458	0.931	930.6	2back	Block3	2back/STIM_027.jpg	99
1687.994	0.844	843.5	2back	Block3	2back/STIM_027.jpg	99
1691.064	0.753	752.6	2back	Block3	2back/STIM_028.jpg	99
1693.984	0.822	821.8	2back	Block3	2back/STIM_028.jpg	100
1697.036	0.768	767.9	2back	Block3	2back/STIM_028.jpg	99
1700.362	0.997	996.7	2back	Block3	2back/STIM_029.jpg	99
1703.652	0.525	525.3	2back	Block3	2back/STIM_029.jpg	99
1707.132	0.828	827.5	2back	Block3	2back/STIM_029.jpg	100
1711.788	0.513	512.8	2back	Block3	2back/STIM_030.jpg	99
1714.477	0.957	957.0	2back	Block3	2back/STIM_030.jpg	99
1718.614	0.609	608.9	2back	Block3	2back/STIM_030.jpg	100
1721.271	0.809	808.6	2back	Block3	2back/STIM_031.jpg	99
1725.652	0.822	822.5	2back	Block3	2back/STIM_031.jpg	100
1730.422	0.952	951.9	2back	Block3	2back/STIM_031.jpg	99
1735.177	0.61	610.4	2back	Block3	2back/STIM_032.jpg	99
1739.349	0.885	885.3	2back	Block3	2back/STIM_032.jpg	100
1742.663	0.616	616.1	2back	Block3	2back/STIM_032.jpg	100
1745.795	0.456	455.8	2back	Block3	2back/STIM_033.jpg	100
1749.193	0.845	844.8	2back	Block3	2back/STIM_033.jpg	100
1753.169	0.578	577.8	2back	Block3	2back/STIM_033.jpg	100
1757.358	1.006	1005.8	2back	Block3	2back/STIM_034.jpg	99
1761.616	0.775	774.8	2back	Block3	2back/STIM_034.jpg	99
1765.727	0.599	598.6	2back	Block3	2back/STIM_034.jpg	100
1769.409	0.912	912.5	2back	Block3	2back/STIM_035.jpg	99
1773.669	0.652	652.1	2back	Block3	2back/STIM_035.jpg	100
1777.705	0.757	757.3	2back	Block3	2back/STIM_035.jpg	100
1782.179	0.675	674.6	2back	Block3	2back/STIM_036.jpg	100
1784.906	1.0	1000.2	2back	Block3	2back/STIM_036.jpg	99
1789.704	1.038	1038.2	2back	Block3	2back/STIM_036.jpg	100
1793.691	0.564	563.9	2back	Block3	2back/STIM_037.jpg	99
1797.938	0.947	947.0	2back	Block3	2back/STIM_037.jpg	100
1802.78	0.78	779.7	2back	Block3	2back/STIM_037.jpg	100
1806.114	0.559	559.2	2back	Block3	2back/STIM_038.jpg	99
1809.387	0.956	956.4	2back	Block3	2back/STIM_038.jpg	100
1813.447	0.498	498.5	2back	Block3	2back/STIM_038.jpg	100
1816.71	0.614	614.1	2back	Block3	2back/STIM_039.jpg	100
1820.17	0.628	628.4	2back	Block3	2back/STIM_039.jpg	100
1823.085	0.753	753.2	2back	Block3	2back/STIM_039.jpg	100
1827.587	0.624	623.7	0back	Block3	0back/STIM_000.jpg	99
1832.131	0.606	606.5	0back	Block3	0back/STIM_000.jpg	99
1835.102	0.435	434.8	0back	Block3	0back/STIM_000.jpg	100
1839.37	0.8	800.0	0back	Block3	0back/STIM_001.jpg	100
1843.35	0.472	471.5	0back	Block3	0back/STIM_001.jpg	100
1847.204	0.732	732.1	0back	Block3	0back/STIM_001.jpg	100
1851.703	0.685	685.1	0back	Block3	0back/STIM_002.jpg	99
1855.262	0.699	698.6	0back	Block3	0back/STIM_002.jpg	100
1859.554	0.582	582.1	0back	Block3	0back/STIM_002.jpg	99
1862.984	0.555	555.3	0back	Block3	0back/STIM_003.jpg	100
1865.607	0.48	479.7	0back	Block3	0back/STIM_003.jpg	99
1869.97	0.846	845.5	0back	Block3	0back/STIM_003.jpg	99
1874.171	0.854	854.5	0back	Block3	0back/STIM_004.jpg	100
1878.502	0.603	603.3	0back	Block3	0back/STIM_004.jpg	99
1881.332	0.824	824.5	0back	Block3	0back/STIM_004.jpg	99
1885.171	0.712	712.5	0back	Block3	0back/STIM_005.jpg	99
1888.963	0.767	766.6	0back	Block3	0back/STIM_005.jpg	99
1892.637	0.662	662.5	0back	Block3	0back/STIM_005.jpg	99
1895.379	0.515	515.1	0back	Block3	0back/STIM_006.jpg	100
1899.298	0.643	643.4	0back	Block3	0back/STIM_006.jpg	100
1903.107	0.668	667.9	0back	Block3	0back/STIM_006.jpg	100
1906.448	0.459	459.2	0back	Block3	0back/STIM_007.jpg	99
1909.561	0.507	507.4	0back	Block3	0back/STIM_007.jpg	100
1913.127	0.621	621.0	0back	Block3	0back/STIM_007.jpg	99
1916.821	0.682	682.2	0back	Block3	0back/STIM_008.jpg	99
1920.064	0.551	550.8	0back	Block3	0back/STIM_008.jpg	99
1923.678	0.584	584.3	0back	Block3	0back/STIM_008.jpg	99
1926.307	0.589	588.6	0back	Block3	0back/STIM_009.jpg	100
1929.927	0.713	712.7	0back	Block3	0back/STIM_009.jpg	100
1932.668	0.456	456.5	0back	Block3	0back/STIM_009.jpg	99
1936.83	0.749	749.3	0back	Block3	0back/STIM_010.jpg	99
1940.758	0.648	647.9	0back	Block3	0back/STIM_010.jpg	100
1945.222	0.712	711.7	0back	Block3	0back/STIM_010.jpg	99
1948.464	0.531	531.1	0back	Block3	0back/STIM_011.jpg	100
1951.931	0.675	674.6	0back	Block3	0back/STIM_011.jpg	99
1955.824	0.451	451.1	0back	Block3	0back/STIM_011.jpg	100
1959.353	0.708	708.1	0back	Block3	0back/STIM_012.jpg	100
1962.714	0.795	795.1	0back	Block3	0back/STIM_012.jpg	100
1966.439	0.688	688.1	0back	Block3	0back/STIM_012.jpg	100
1970.928	0.815	814.7	0back	Block3	0back/STIM_013.jpg	99
1973.84	0.473	472.6	0back	Block3	0back/STIM_013.jpg	100
1978.204	0.539	539.1	0back	Block3	0back/STIM_013.jpg	99
1981.177	0.794	793.8	0back	Block3	0back/STIM_014.jpg	99
1985.859	0.823	823.0	0back	Block3	0back/STIM_014.jpg	99
1988.809	0.702	702.5	0back	Block3	0back/STIM_014.jpg	100
1991.874	0.566	565.9	0back	Block3	0back/STIM_015.jpg	99
1995.555	0.46	459.9	0back	Block3	0back/STIM_015.jpg	100
1999.626	0.431	431.1	0back	Block3	0back/STIM_015.jpg	99
2002.303	0.738	738.4	0back	Block3	0back/STIM_016.jpg	99
2005.258	0.458	458.2	0back	Block3	0back/STIM_016.jpg	99
2009.714	0.775	774.6	0back	Block3	0back/STIM_016.jpg	99
2012.608	0.828	828.1	0back	Block3	0back/STIM_017.jpg	99
2015.662	0.829	829.4	0back	Block3	0back/STIM_017.jpg	100
2018.835	0.458	457.6	0back	Block3	0back/STIM_017.jpg	99
2021.57	0.818	818.2	0back	Block3	0back/STIM_018.jpg	99
2025.179	0.769	769.3	0back	Block3	0back/STIM_018.jpg	99
2029.45	0.795	795.3	0back	Block3	0back/STIM_018.jpg	100
2032.994	0.781	781.3	0back	Block3	0back/STIM_019.jpg	99
2037.318	0.769	769.4	0back	Block3	0back/STIM_019.jpg	100
2040.115	0.724	723.8	0back	Block3	0back/STIM_019.jpg	99
2043.469	0.951	951.4	2back	Block4	2back/STIM_000.jpg	99
2047.697	0.663	663.4	2back	Block4	2back/STIM_000.jpg	99
2052.305	0.627	627.1	2back	Block4	2back/STIM_000.jpg	100
2056.695	0.69	690.1	2back	Block4	2back/STIM_001.jpg	99
2060.315	0.509	509.4	2back	Block4	2back/STIM_001.jpg	99
2064.158	0.709	709.2	2back	Block4	2back/STIM_001.jpg	100
2068.202	0.548	548.0	2back	Block4	2back/STIM_002.jpg	100
2072.745	1.021	1020.7	2back	Block4	2back/STIM_002.jpg	100
2077.28	0.689	689.4	2back	Block4	2back/STIM_002.jpg	100
2080.084	0.844	843.6	2back	Block4	2back/STIM_003.jpg	100
2084.666	0.926	926.2	2back	Block4	2back/STIM_003.jpg	99
2089.227	0.752	752.3	2back	Block4	2back/STIM_003.jpg	100
2093.191	0.881	881.3	2back	Block4	2back/STIM_004.jpg	99
2096.253	1.022	1022.0	2back	Block4	2back/STIM_004.jpg	100
2099.671	0.666	666.3	2back	Block4	2back/STIM_004.jpg	100
2102.625	0.898	897.5	2back	Block4	2back/STIM_005.jpg	99
2106.448	1.007	1007.1	2back	Block4	2back/STIM_005.jpg	99
2110.06	0.621	621.0	2back	Block4	2back/STIM_005.jpg	100
2114.392	0.541	540.7	2back	Block4	2back/STIM_006.jpg	99
2118.272	0.831	830.8	2back	Block4	2back/STIM_006.jpg	100
2121.828	0.634	634.3	2back	Block4	2back/STIM_006.jpg	100
2124.89	0.582	582.4	2back	Block4	2back/STIM_007.jpg	99
2128.05	0.623	623.1	2back	Block4	2back/STIM_007.jpg	100
2131.812	0.465	464.7	2back	Block4	2back/STIM_007.jpg	100
2136.125	0.634	634.0	2back	Block4	2back/STIM_008.jpg	99
2139.389	0.514	514.4	2back	Block4	2back/STIM_008.jpg	99
2142.434	0.78	779.9	2back	Block4	2back/STIM_008.jpg	100
2146.577	1.037	1037.2	2back	Block4	2back/STIM_009.jpg	99
2151.239	0.991	991.4	2back	Block4	2back/STIM_009.jpg	99
2156.176	0.911	910.9	2back	Block4	2back/STIM_009.jpg	100
2159.892	0.813	812.9	2back	Block4	2back/STIM_010.jpg	99
2163.566	0.898	897.9	2back	Block4	2back/STIM_010.jpg	100
2167.137	0.9	899.6	2back	Block4	2back/STIM_010.jpg	99
2171.085	0.942	942.4	2back	Block4	2back/STIM_011.jpg	99
2175.892	0.502	502.5	2back	Block4	2back/STIM_011.jpg	100
2180.161	0.706	706.5	2back	Block4	2back/STIM_011.jpg	99
2183.215	0.852	851.5	2back	Block4	2back/STIM_012.jpg	99
2186.709	0.481	480.9	2back	Block4	2back/STIM_012.jpg	100
2189.301	0.513	512.8	2back	Block4	2back/STIM_012.jpg	100
2193.761	0.899	898.6	2back	Block4	2back/STIM_013.jpg	100
2197.29	0.703	703.2	2back	Block4	2back/STIM_013.jpg	100
2200.683	0.874	873.9	2back	Block4	2back/STIM_013.jpg	99
2204.702	0.815	815.3	2back	Block4	2back/STIM_014.jpg	99
2209.446	0.625	625.2	2back	Block4	2back/STIM_014.jpg	100
2212.816	0.809	809.2	2back	Block4	2back/STIM_014.jpg	100
2217.293	1.041	1041.4	2back	Block4	2back/STIM_015.jpg	99
2220.531	0.865	864.6	2back	Block4	2back/STIM_015.jpg	99
2223.859	0.932	932.2	2back	Block4	2back/STIM_015.jpg	99
2228.066	0.744	744.1	2back	Block4	2back/STIM_016.jpg	100
2231.28	0.685	684.9	2back	Block4	2back/STIM_016.jpg	100
2235.673	0.785	785.2	2back	Block4	2back/STIM_016.jpg	99
2238.86	0.851	850.9	2back	Block4	2back/STIM_017.jpg	99
2241.851	0.679	678.7	2back	Block4	2back/STIM_017.jpg	99
2246.502	0.48	479.8	2back	Block4	2back/STIM_017.jpg	100
2249.148	0.805	805.0	2back	Block4	2back/STIM_018.jpg	100
2253.721	0.953	952.7	2back	Block4	2back/STIM_018.jpg	100
2256.773	0.643	643.2	2back	Block4	2back/STIM_018.jpg	99
2260.499	0.532	531.6	2back	Block4	2back/STIM_019.jpg	100
2264.138	0.795	794.7	2back	Block4	2back/STIM_019.jpg	99
2268.592	0.917	917.1	2back	Block4	2back/STIM_019.jpg	99
2272.021	0.457	456.7	2back	Block4	2back/STIM_020.jpg	99
2275.242	0.722	722.3	2back	Block4	2back/STIM_020.jpg	99
2279.023	0.778	777.6	2back	Block4	2back/STIM_020.jpg	100
2283.304	0.777	776.9	2back	Block4	2back/STIM_021.jpg	100
2286.65	0.606	606.1	2back	Block4	2back/STIM_021.jpg	100
2290.385	0.887	887.4	2back	Block4	2back/STIM_021.jpg	99
2294.227	0.981	981.3	2back	Block4	2back/STIM_022.jpg	100
2299.007	0.572	572.4	2back	Block4	2back/STIM_022.jpg	99
2302.837	0.472	471.8	2back	Block4	2back/STIM_022.jpg	99
2305.895	0.911	910.7	2back	Block4	2back/STIM_023.jpg	99
2310.615	0.567	566.8	2back	Block4	2back/STIM_023.jpg	99
2314.223	0.87	869.7	2back	Block4	2back/STIM_023.jpg	99
2317.599	0.836	835.5	2back	Block4	2back/STIM_024.jpg	99
2321.71	0.901	900.8	2back	Block4	2back/STIM_024.jpg	100
2324.793	0.715	714.7	2back	Block4	2back/STIM_024.jpg	99
2327.551	0.888	887.9	2back	Block4	2back/STIM_025.jpg	100
2331.019	0.46	460.0	2back	Block4	2back/STIM_025.jpg	99
2333.78	0.714	713.7	2back	Block4	2back/STIM_025.jpg	100
2338.367	0.522	521.8	2back	Block4	2back/STIM_026.jpg	100
2341.317	0.996	995.6	2back	Block4	2back/STIM_026.jpg	99
2346.123	0.598	597.9	2back	Block4	2back/STIM_026.jpg	99
2349.307	0.604	604.4	2back	Block4	2back/STIM_027.jpg	99
2353.238	0.919	919.3	2back	Block4	2back/STIM_027.jpg	100
2357.251	0.809	809.3	2back	Block4	2back/STIM_027.jpg	100
2360.772	0.569	568.9	2back	Block4	2back/STIM_028.jpg	100
2364.283	0.599	599.4	2back	Block4	2back/STIM_028.jpg	100
2368.187	0.561	561.4	2back	Block4	2back/STIM_028.jpg	100
2372.644	0.542	542.5	2back	Block4	2back/STIM_029.jpg	100
2376.302	1.021	1020.6	2back	Block4	2back/STIM_029.jpg	99
2381.313	0.962	962.5	2back	Block4	2back/STIM_029.jpg	99
2385.414	0.628	628.2	2back	Block4	2back/STIM_030.jpg	100
2388.147	0.935	935.0	2back	Block4	2back/STIM_030.jpg	99
2392.488	1.026	1025.6	2back	Block4	2back/STIM_030.jpg	99
2396.458	0.54	539.6	2back	Block4	2back/STIM_031.jpg	100
2400.901	0.788	787.6	2back	Block4	2back/STIM_031.jpg	99
2404.099	0.985	985.3	2back	Block4	2back/STIM_031.jpg	100
2407.836	0.598	598.3	2back	Block4	2back/STIM_032.jpg	100
2412.227	0.829	829.4	2back	Block4	2back/STIM_032.jpg	100
2415.928	1.042	1042.5	2back	Block4	2back/STIM_032.jpg	100
2420.517	1.021	1020.7	2back	Block4	2back/STIM_033.jpg	99
2425.261	0.855	854.9	2back	Block4	2back/STIM_033.jpg	100
2429.153	0.612	612.5	2back	Block4	2back/STIM_033.jpg	100
2432.734	0.823	822.6	2back	Block4	2back/STIM_034.jpg	100
2437.089	0.76	760.4	2back	Block4	2back/STIM_034.jpg	100
2440.361	0.514	513.7	2back	Block4	2back/STIM_034.jpg	100
2444.093	0.538	537.9	2back	Block4	2back/STIM_035.jpg	99
2447.334	0.898	897.5	2back	Block4	2back/STIM_035.jpg	99
2451.36	0.665	664.7	2back	Block4	2back/STIM_035.jpg	99
2455.294	0.613	613.3	2back	Block4	2back/STIM_036.jpg	100
2459.415	0.86	860.5	2back	Block4	2back/STIM_036.jpg	100
2463.295	1.026	1025.8	2back	Block4	2back/STIM_036.jpg	100
2466.621	0.797	796.7	2back	Block4	2back/STIM_037.jpg	100
2469.801	0.749	748.6	2back	Block4	2back/STIM_037.jpg	100
2472.762	0.912	912.0	2back	Block4	2back/STIM_037.jpg	100
2475.723	0.69	689.8	2back	Block4	2back/STIM_038.jpg	99
2480.279	0.568	568.2	2back	Block4	2back/STIM_038.jpg	100
2484.431	0.958	957.7	2back	Block4	2back/STIM_038.jpg	99
2487.979	0.775	774.8	2back	Block4	2back/STIM_039.jpg	99
2491.864	0.885	884.7	2back	Block4	2back/STIM_039.jpg	99
2495.865	0.734	733.8	2back	Block4	2back/STIM_039.jpg	99
2500.484	0.833	832.6	0back	Block4	0back/STIM_000.jpg	99
2504.202	0.454	453.9	0back	Block4	0back/STIM_000.jpg	100
2507.955	0.539	539.0	0back	Block4	0back/STIM_000.jpg	100
2512.438	0.58	579.9	0back	Block4	0back/STIM_001.jpg	100
2515.857	0.694	693.9	0back	Block4	0back/STIM_001.jpg	99
2520.054	0.71	709.6	0back	Block4	0back/STIM_001.jpg	100
2524.735	0.654	654.3	0back	Block4	0back/STIM_002.jpg	99
2528.23	0.808	807.6	0back	Block4	0back/STIM_002.jpg	99
2532.113	0.563	562.9	0back	Block4	0back/STIM_002.jpg	100
2536.54	0.517	517.2	0back	Block4	0back/STIM_003.jpg	99
2540.792	0.679	679.0	0back	Block4	0back/STIM_003.jpg	100
2545.344	0.647	647.2	0back	Block4	0back/STIM_003.jpg	99
2549.804	0.799	799.0	0back	Block4	0back/STIM_004.jpg	99
2554.512	0.487	487.3	0back	Block4	0back/STIM_004.jpg	100
2557.946	0.775	775.4	0back	Block4	0back/STIM_004.jpg	99
2562.46	0.78	780.4	0back	Block4	0back/STIM_005.jpg	100
2566.414	0.712	711.9	0back	Block4	0back/STIM_005.jpg	100
2570.116	0.774	773.6	0back	Block4	0back/STIM_005.jpg	99
2573.084	0.429	429.4	0back	Block4	0back/STIM_006.jpg	100
2576.942	0.82	819.8	0back	Block4	0back/STIM_006.jpg	100
2581.717	0.701	701.2	0back	Block4	0back/STIM_006.jpg	100
2585.018	0.462	462.4	0back	Block4	0back/STIM_007.jpg	99
2588.678	0.757	756.9	0back	Block4	0back/STIM_007.jpg	99
2593.145	0.704	704.4	0back	Block4	0back/STIM_007.jpg	99
2597.311	0.692	691.5	0back	Block4	0back/STIM_008.jpg	99
2600.396	0.827	827.2	0back	Block4	0back/STIM_008.jpg	99
2605.048	0.53	529.9	0back	Block4	0back/STIM_008.jpg	100
2608.346	0.646	645.5	0back	Block4	0back/STIM_009.jpg	100
2612.205	0.441	440.7	0back	Block4	0back/STIM_009.jpg	100
2616.183	0.752	752.1	0back	Block4	0back/STIM_009.jpg	99
2620.245	0.552	551.8	0back	Block4	0back/STIM_010.jpg	100
2623.813	0.59	590.1	0back	Block4	0back/STIM_010.jpg	100
2628.11	0.642	642.3	0back	Block4	0back/STIM_010.jpg	99
2632.482	0.64	640.1	0back	Block4	0back/STIM_011.jpg	99
2636.288	0.673	672.8	0back	Block4	0back/STIM_011.jpg	100
2639.744	0.63	630.4	0back	Block4	0back/STIM_011.jpg	100
2642.614	0.769	768.7	0back	Block4	0back/STIM_012.jpg	100
2645.72	0.496	495.9	0back	Block4	0back/STIM_012.jpg	100
2648.4	0.55	550.3	0back	Block4	0back/STIM_012.jpg	99
2652.527	0.759	759.2	0back	Block4	0back/STIM_013.jpg	100
2656.614	0.492	491.6	0back	Block4	0back/STIM_013.jpg	99
2660.35	0.849	848.9	0back	Block4	0back/STIM_013.jpg	99
2663.205	0.569	569.2	0back	Block4	0back/STIM_014.jpg	100
2666.113	0.569	569.1	0back	Block4	0back/STIM_014.jpg	99
2669.989	0.816	816.2	0back	Block4	0back/STIM_014.jpg	99
2673.743	0.481	480.7	0back	Block4	0back/STIM_015.jpg	100
2676.522	0.701	701.0	0back	Block4	0back/STIM_015.jpg	100
2679.504	0.642	641.5	0back	Block4	0back/STIM_015.jpg	99
2683.875	0.429	429.2	0back	Block4	0back/STIM_016.jpg	100
2686.716	0.637	636.7	0back	Block4	0back/STIM_016.jpg	100
2690.62	0.51	509.6	0back	Block4	0back/STIM_016.jpg	99
2693.889	0.817	817.0	0back	Block4	0back/STIM_017.jpg	100
2698.509	0.538	538.1	0back	Block4	0back/STIM_017.jpg	99
2701.981	0.588	587.7	0back	Block4	0back/STIM_017.jpg	99
2705.1	0.447	447.4	0back	Block4	0back/STIM_018.jpg	99
2708.711	0.776	775.7	0back	Block4	0back/STIM_018.jpg	99
2711.842	0.739	739.4	0back	Block4	0back/STIM_018.jpg	100
2715.527	0.81	810.0	0back	Block4	0back/STIM_019.jpg	99
2719.191	0.7	699.9	0back	Block4	0back/STIM_019.jpg	99
2722.873	0.759	759.4	0back	Block4	0back/STIM_019.jpg	100
