onset	duration	accuracy_binary	trial_type	learning_stage	stimulus
0.0	2.499	0	generate	Run1	generate/STIM_000.jpg
4.804	1.523	1	generate	Run1	generate/STIM_000.jpg
9.729	2.552	1	generate	Run1	generate/STIM_000.jpg
15.776	2.044	1	generate	Run1	generate/STIM_000.jpg
21.228	0.942	1	generate	Run1	generate/STIM_000.jpg
26.119	2.494	1	generate	Run1	generate/STIM_001.jpg
31.516	2.235	1	generate	Run1	generate/STIM_001.jpg
37.213	2.148	1	generate	Run1	generate/STIM_001.jpg
41.524	1.82	1	generate	Run1	generate/STIM_001.jpg
45.823	1.096	1	generate	Run1	generate/STIM_001.jpg
50.015	2.398	1	generate	Run1	generate/STIM_002.jpg
54.53	1.208	1	generate	Run1	generate/STIM_002.jpg
58.848	1.371	1	generate	Run1	generate/STIM_002.jpg
63.916	1.541	1	generate	Run1	generate/STIM_002.jpg
67.748	2.264	1	generate	Run1	generate/STIM_002.jpg
72.206	1.2	1	generate	Run1	generate/STIM_003.jpg
76.152	2.726	1	generate	Run1	generate/STIM_003.jpg
80.937	1.294	1	generate	Run1	generate/STIM_003.jpg
85.758	2.074	1	generate	Run1	generate/STIM_003.jpg
90.022	1.214	1	generate	Run1	generate/STIM_003.jpg
94.054	2.418	1	generate	Run1	generate/STIM_004.jpg
99.776	1.682	1	generate	Run1	generate/STIM_004.jpg
103.898	2.42	1	generate	Run1	generate/STIM_004.jpg
108.741	2.419	1	generate	Run1	generate/STIM_004.jpg
114.48	2.132	1	generate	Run1	generate/STIM_004.jpg
119.561	2.462	1	generate	Run1	generate/STIM_005.jpg
125.352	2.343	1	generate	Run1	generate/STIM_005.jpg
130.307	1.78	1	generate	Run1	generate/STIM_005.jpg
135.557	1.599	1	generate	Run1	generate/STIM_005.jpg
139.229	1.124	1	generate	Run1	generate/STIM_005.jpg
142.975	2.265	1	generate	Run1	generate/STIM_006.jpg
149.107	1.809	1	generate	Run1	generate/STIM_006.jpg
153.787	1.152	1	generate	Run1	generate/STIM_006.jpg
158.935	1.048	1	generate	Run1	generate/STIM_006.jpg
163.659	2.227	1	generate	Run1	generate/STIM_006.jpg
168.96	1.587	1	generate	Run1	generate/STIM_007.jpg
173.925	2.716	1	generate	Run1	generate/STIM_007.jpg
179.992	1.466	0	generate	Run1	generate/STIM_007.jpg
185.264	2.014	1	generate	Run1	generate/STIM_007.jpg
190.064	0.964	1	generate	Run1	generate/STIM_007.jpg
194.486	2.445	1	generate	Run1	generate/STIM_008.jpg
200.84	2.212	0	generate	Run1	generate/STIM_008.jpg
206.121	1.35	1	generate	Run1	generate/STIM_008.jpg
211.427	1.048	1	generate	Run1	generate/STIM_008.jpg
215.867	2.115	1	generate	Run1	generate/STIM_008.jpg
220.315	2.736	1	generate	Run1	generate/STIM_009.jpg
226.357	2.098	1	generate	Run1	generate/STIM_009.jpg
232.331	2.463	1	generate	Run1	generate/STIM_009.jpg
238.07	1.274	1	generate	Run1	generate/STIM_009.jpg
243.115	1.102	1	generate	Run1	generate/STIM_009.jpg
246.455	1.958	1	generate	Run1	generate/STIM_010.jpg
250.578	1.261	1	generate	Run1	generate/STIM_010.jpg
255.247	2.406	1	generate	Run1	generate/STIM_010.jpg
261.346	1.468	1	generate	Run1	generate/STIM_010.jpg
265.874	1.889	1	generate	Run1	generate/STIM_010.jpg
270.081	2.23	1	generate	Run1	generate/STIM_011.jpg
275.482	2.277	0	generate	Run1	generate/STIM_011.jpg
280.704	2.125	1	generate	Run1	generate/STIM_011.jpg
285.248	2.337	1	generate	Run1	generate/STIM_011.jpg
291.274	1.553	1	generate	Run1	generate/STIM_011.jpg
296.725	1.661	1	generate	Run1	generate/STIM_012.jpg
302.373	2.476	1	generate	Run1	generate/STIM_012.jpg
308.532	1.474	1	generate	Run1	generate/STIM_012.jpg
312.502	1.156	1	generate	Run1	generate/STIM_012.jpg
316.083	1.699	1	generate	Run1	generate/STIM_012.jpg
320.537	2.341	1	generate	Run1	generate/STIM_013.jpg
325.605	2.144	1	generate	Run1	generate/STIM_013.jpg
330.612	1.166	1	generate	Run1	generate/STIM_013.jpg
335.436	1.643	1	generate	Run1	generate/STIM_013.jpg
340.462	1.54	1	generate	Run1	generate/STIM_013.jpg
345.358	2.556	1	generate	Run1	generate/STIM_014.jpg
350.5	2.72	1	generate	Run1	generate/STIM_014.jpg
355.325	2.486	1	generate	Run1	generate/STIM_014.jpg
361.382	1.494	1	generate	Run1	generate/STIM_014.jpg
364.99	1.79	1	generate	Run1	generate/STIM_014.jpg
369.963	2.627	1	generate	Run1	generate/STIM_015.jpg
375.371	1.888	1	generate	Run1	generate/STIM_015.jpg
380.105	1.081	1	generate	Run1	generate/STIM_015.jpg
383.78	2.102	0	generate	Run1	generate/STIM_015.jpg
388.363	1.223	1	generate	Run1	generate/STIM_015.jpg
391.644	2.716	1	generate	Run1	generate/STIM_016.jpg
397.101	2.251	1	generate	Run1	generate/STIM_016.jpg
401.686	1.677	1	generate	Run1	generate/STIM_016.jpg
406.523	1.923	1	generate	Run1	generate/STIM_016.jpg
411.129	1.257	1	generate	Run1	generate/STIM_016.jpg
415.356	2.379	1	generate	Run1	generate/STIM_017.jpg
420.492	1.188	1	generate	Run1	generate/STIM_017.jpg
424.524	2.279	1	generate	Run1	generate/STIM_017.jpg
428.824	1.942	1	generate	Run1	generate/STIM_017.jpg
434.163	1.756	1	generate	Run1	generate/STIM_017.jpg
438.189	1.84	1	generate	Run1	generate/STIM_018.jpg
443.731	2.126	1	generate	Run1	generate/STIM_018.jpg
449.738	2.108	1	generate	Run1	generate/STIM_018.jpg
455.039	1.171	1	generate	Run1	generate/STIM_018.jpg
460.049	1.614	1	generate	Run1	generate/STIM_018.jpg
464.347	2.204	1	generate	Run1	generate/STIM_019.jpg
470.341	2.013	1	generate	Run1	generate/STIM_019.jpg
474.437	2.03	0	generate	Run1	generate/STIM_019.jpg
479.9	1.29	1	generate	Run1	generate/STIM_019.jpg
483.368	2.031	1	generate	Run1	generate/STIM_019.jpg
488.5	1.326	1	generate	Run1	generate/STIM_020.jpg
492.272	2.293	1	generate	Run1	generate/STIM_020.jpg
497.185	1.077	1	generate	Run1	generate/STIM_020.jpg
502.155	1.904	1	generate	Run1	generate/STIM_020.jpg
507.492	1.893	1	generate	Run1	generate/STIM_020.jpg
513.237	1.557	1	generate	Run1	generate/STIM_021.jpg
517.692	1.208	1	generate	Run1	generate/STIM_021.jpg
522.316	1.48	0	generate	Run1	generate/STIM_021.jpg
527.014	1.82	1	generate	Run1	generate/STIM_021.jpg
532.166	2.19	0	generate	Run1	generate/STIM_021.jpg
537.857	2.848	1	generate	Run1	generate/STIM_022.jpg
542.998	1.709	1	generate	Run1	generate/STIM_022.jpg
547.401	2.48	1	generate	Run1	generate/STIM_022.jpg
553.013	1.273	1	generate	Run1	generate/STIM_022.jpg
557.667	1.534	1	generate	Run1	generate/STIM_022.jpg
561.525	1.272	1	generate	Run1	generate/STIM_023.jpg
565.172	2.586	1	generate	Run1	generate/STIM_023.jpg
570.9	1.557	1	generate	Run1	generate/STIM_023.jpg
575.544	1.436	0	generate	Run1	generate/STIM_023.jpg
579.092	2.148	1	generate	Run1	generate/STIM_023.jpg
584.295	2.259	1	generate	Run1	generate/STIM_024.jpg
590.415	1.399	1	generate	Run1	generate/STIM_024.jpg
593.996	2.274	0	generate	Run1	generate/STIM_024.jpg
598.786	1.501	1	generate	Run1	generate/STIM_024.jpg
602.705	1.364	0	generate	Run1	generate/STIM_024.jpg
606.885	0.769	1	repeat	Run1	repeat/STIM_000.jpg
610.858	0.818	1	repeat	Run1	repeat/STIM_000.jpg
615.52	0.875	1	repeat	Run1	repeat/STIM_000.jpg
618.977	0.743	1	repeat	Run1	repeat/STIM_000.jpg
623.429	0.947	1	repeat	Run1	repeat/STIM_000.jpg
626.936	0.744	1	repeat	Run1	repeat/STIM_001.jpg
630.466	0.573	1	repeat	Run1	repeat/STIM_001.jpg
634.915	0.681	1	repeat	Run1	repeat/STIM_001.jpg
638.612	0.514	1	repeat	Run1	repeat/STIM_001.jpg
642.487	0.606	1	repeat	Run1	repeat/STIM_001.jpg
646.066	0.829	1	repeat	Run1	repeat/STIM_002.jpg
649.161	0.883	1	repeat	Run1	repeat/STIM_002.jpg
653.046	0.817	1	repeat	Run1	repeat/STIM_002.jpg
657.579	0.482	1	repeat	Run1	repeat/STIM_002.jpg
661.77	0.957	1	repeat	Run1	repeat/STIM_002.jpg
665.348	0.638	1	repeat	Run1	repeat/STIM_003.jpg
669.076	0.816	1	repeat	Run1	repeat/STIM_003.jpg
672.621	0.701	1	repeat	Run1	repeat/STIM_003.jpg
675.436	0.703	1	repeat	Run1	repeat/STIM_003.jpg
678.844	0.853	1	repeat	Run1	repeat/STIM_003.jpg
683.629	0.613	1	repeat	Run1	repeat/STIM_004.jpg
687.207	0.517	1	repeat	Run1	repeat/STIM_004.jpg
689.919	0.544	1	repeat	Run1	repeat/STIM_004.jpg
693.916	0.511	1	repeat	Run1	repeat/STIM_004.jpg
697.728	0.904	1	repeat	Run1	repeat/STIM_004.jpg
701.269	0.825	1	repeat	Run1	repeat/STIM_005.jpg
704.939	0.666	1	repeat	Run1	repeat/STIM_005.jpg
708.916	0.542	1	repeat	Run1	repeat/STIM_005.jpg
713.416	0.504	1	repeat	Run1	repeat/STIM_005.jpg
717.912	0.821	1	repeat	Run1	repeat/STIM_005.jpg
721.687	0.708	1	repeat	Run1	repeat/STIM_006.jpg
725.801	0.485	1	repeat	Run1	repeat/STIM_006.jpg
729.789	0.757	1	repeat	Run1	repeat/STIM_006.jpg
732.909	0.678	1	repeat	Run1	repeat/STIM_006.jpg
736.67	0.832	1	repeat	Run1	repeat/STIM_006.jpg
740.809	0.576	1	repeat	Run1	repeat/STIM_007.jpg
743.71	0.666	1	repeat	Run1	repeat/STIM_007.jpg
746.947	0.637	1	repeat	Run1	repeat/STIM_007.jpg
751.097	0.896	1	repeat	Run1	repeat/STIM_007.jpg
754.151	0.634	1	repeat	Run1	repeat/STIM_007.jpg
758.486	0.699	1	repeat	Run1	repeat/STIM_008.jpg
762.825	0.864	1	repeat	Run1	repeat/STIM_008.jpg
766.307	0.78	1	repeat	Run1	repeat/STIM_008.jpg
770.997	0.787	1	repeat	Run1	repeat/STIM_008.jpg
775.199	0.932	1	repeat	Run1	repeat/STIM_008.jpg
778.945	0.732	1	repeat	Run1	repeat/STIM_009.jpg
783.329	0.917	1	repeat	Run1	repeat/STIM_009.jpg
788.037	0.788	1	repeat	Run1	repeat/STIM_009.jpg
791.694	0.726	1	repeat	Run1	repeat/STIM_009.jpg
796.228	0.836	1	repeat	Run1	repeat/STIM_009.jpg
799.177	0.51	1	repeat	Run1	repeat/STIM_010.jpg
803.448	0.506	1	repeat	Run1	repeat/STIM_010.jpg
807.375	0.829	1	repeat	Run1	repeat/STIM_010.jpg
810.507	0.521	1	repeat	Run1	repeat/STIM_010.jpg
814.792	0.696	1	repeat	Run1	repeat/STIM_010.jpg
818.33	0.927	1	repeat	Run1	repeat/STIM_011.jpg
822.122	0.88	1	repeat	Run1	repeat/STIM_011.jpg
826.713	0.884	1	repeat	Run1	repeat/STIM_011.jpg
829.67	0.542	1	repeat	Run1	repeat/STIM_011.jpg
833.31	0.62	1	repeat	Run1	repeat/STIM_011.jpg
836.362	0.874	0	repeat	Run1	repeat/STIM_012.jpg
839.663	0.744	1	repeat	Run1	repeat/STIM_012.jpg
844.296	0.766	1	repeat	Run1	repeat/STIM_012.jpg
847.66	0.918	1	repeat	Run1	repeat/STIM_012.jpg
852.058	0.628	1	repeat	Run1	repeat/STIM_012.jpg
854.795	0.576	1	repeat	Run1	repeat/STIM_013.jpg
857.627	0.563	1	repeat	Run1	repeat/STIM_013.jpg
860.586	0.892	1	repeat	Run1	repeat/STIM_013.jpg
865.29	0.803	1	repeat	Run1	repeat/STIM_013.jpg
868.124	0.814	1	repeat	Run1	repeat/STIM_013.jpg
871.901	0.909	0	repeat	Run1	repeat/STIM_014.jpg
876.046	0.952	1	repeat	Run1	repeat/STIM_014.jpg
879.013	0.934	1	repeat	Run1	repeat/STIM_014.jpg
883.87	0.856	1	repeat	Run1	repeat/STIM_014.jpg
887.016	0.622	1	repeat	Run1	repeat/STIM_014.jpg
890.426	1.21	0	generate	Run2	generate/STIM_000.jpg
894.283	1.139	1	generate	Run2	generate/STIM_000.jpg
898.808	1.433	1	generate	Run2	generate/STIM_000.jpg
902.647	1.037	1	generate	Run2	generate/STIM_000.jpg
907.537	1.431	1	generate	Run2	generate/STIM_000.jpg
911.273	1.286	1	generate	Run2	generate/STIM_001.jpg
914.574	2.213	1	generate	Run2	generate/STIM_001.jpg
919.363	1.372	1	generate	Run2	generate/STIM_001.jpg
924.277	1.974	1	generate	Run2	generate/STIM_001.jpg
929.197	1.414	1	generate	Run2	generate/STIM_001.jpg
932.834	1.194	1	generate	Run2	generate/STIM_002.jpg
937.758	2.284	1	generate	Run2	generate/STIM_002.jpg
942.06	1.624	1	generate	Run2	generate/STIM_002.jpg
947.057	1.642	1	generate	Run2	generate/STIM_002.jpg
952.269	0.977	1	generate	Run2	generate/STIM_002.jpg
955.633	1.07	0	generate	Run2	generate/STIM_003.jpg
959.432	1.103	1	generate	Run2	generate/STIM_003.jpg
963.8	1.434	1	generate	Run2	generate/STIM_003.jpg
968.487	1.135	0	generate	Run2	generate/STIM_003.jpg
972.238	1.407	1	generate	Run2	generate/STIM_003.jpg
976.243	1.843	1	generate	Run2	generate/STIM_004.jpg
982.085	2.137	1	generate	Run2	generate/STIM_004.jpg
987.231	1.105	1	generate	Run2	generate/STIM_004.jpg
991.011	1.659	1	generate	Run2	generate/STIM_004.jpg
995.772	1.881	1	generate	Run2	generate/STIM_004.jpg
1000.42	2.381	1	generate	Run2	generate/STIM_005.jpg
1005.855	1.288	1	generate	Run2	generate/STIM_005.jpg
1010.257	1.039	1	generate	Run2	generate/STIM_005.jpg
1013.852	1.418	1	generate	Run2	generate/STIM_005.jpg
1018.436	0.986	1	generate	Run2	generate/STIM_005.jpg
1022.668	1.709	1	generate	Run2	generate/STIM_006.jpg
1027.334	1.867	1	generate	Run2	generate/STIM_006.jpg
1031.876	1.612	1	generate	Run2	generate/STIM_006.jpg
1037.408	1.294	1	generate	Run2	generate/STIM_006.jpg
1041.034	0.925	1	generate	Run2	generate/STIM_006.jpg
1044.343	2.173	1	generate	Run2	generate/STIM_007.jpg
1049.811	1.146	1	generate	Run2	generate/STIM_007.jpg
1053.085	2.067	1	generate	Run2	generate/STIM_007.jpg
1057.25	1.306	1	generate	Run2	generate/STIM_007.jpg
1062.424	1.567	1	generate	Run2	generate/STIM_007.jpg
1066.701	1.739	1	generate	Run2	generate/STIM_008.jpg
1072.077	1.295	1	generate	Run2	generate/STIM_008.jpg
1076.067	1.926	1	generate	Run2	generate/STIM_008.jpg
1081.604	1.633	1	generate	Run2	generate/STIM_008.jpg
1085.601	1.454	1	generate	Run2	generate/STIM_008.jpg
1089.079	2.294	1	generate	Run2	generate/STIM_009.jpg
1094.88	1.46	1	generate	Run2	generate/STIM_009.jpg
1098.632	1.773	1	generate	Run2	generate/STIM_009.jpg
1104.033	0.818	1	generate	Run2	generate/STIM_009.jpg
1108.191	1.285	1	generate	Run2	generate/STIM_009.jpg
1113.281	1.721	1	generate	Run2	generate/STIM_010.jpg
1118.157	1.257	1	generate	Run2	generate/STIM_010.jpg
1122.23	1.618	1	generate	Run2	generate/STIM_010.jpg
1127.164	1.367	1	generate	Run2	generate/STIM_010.jpg
1130.555	1.743	1	generate	Run2	generate/STIM_010.jpg
1135.361	1.016	1	generate	Run2	generate/STIM_011.jpg
1139.8	2.143	1	generate	Run2	generate/STIM_011.jpg
1145.897	1.0	1	generate	Run2	generate/STIM_011.jpg
1148.927	1.124	0	generate	Run2	generate/STIM_011.jpg
1153.771	1.284	1	generate	Run2	generate/STIM_011.jpg
1157.084	1.806	1	generate	Run2	generate/STIM_012.jpg
1162.117	2.183	1	generate	Run2	generate/STIM_012.jpg
1167.838	1.43	1	generate	Run2	generate/STIM_012.jpg
1172.462	1.889	1	generate	Run2	generate/STIM_012.jpg
1178.112	1.35	1	generate	Run2	generate/STIM_012.jpg
1182.954	1.502	1	generate	Run2	generate/STIM_013.jpg
1186.883	1.067	1	generate	Run2	generate/STIM_013.jpg
1191.174	1.961	1	generate	Run2	generate/STIM_013.jpg
1196.033	1.573	1	generate	Run2	generate/STIM_013.jpg
1200.326	1.542	1	generate	Run2	generate/STIM_013.jpg
1205.424	1.269	1	generate	Run2	generate/STIM_014.jpg
1210.415	1.802	1	generate	Run2	generate/STIM_014.jpg
1214.479	2.081	1	generate	Run2	generate/STIM_014.jpg
1220.438	1.482	1	generate	Run2	generate/STIM_014.jpg
1224.514	1.189	1	generate	Run2	generate/STIM_014.jpg
1228.437	1.699	1	generate	Run2	generate/STIM_015.jpg
1233.788	1.354	1	generate	Run2	generate/STIM_015.jpg
1237.531	2.072	1	generate	Run2	generate/STIM_015.jpg
1243.588	1.412	1	generate	Run2	generate/STIM_015.jpg
1247.271	1.329	1	generate	Run2	generate/STIM_015.jpg
1250.844	1.45	1	generate	Run2	generate/STIM_016.jpg
1254.686	1.339	1	generate	Run2	generate/STIM_016.jpg
1258.86	0.934	1	generate	Run2	generate/STIM_016.jpg
1261.876	1.624	1	generate	Run2	generate/STIM_016.jpg
1267.238	1.05	1	generate	Run2	generate/STIM_016.jpg
1270.799	1.529	1	generate	Run2	generate/STIM_017.jpg
1276.117	1.549	1	generate	Run2	generate/STIM_017.jpg
1280.418	1.998	1	generate	Run2	generate/STIM_017.jpg
1284.434	0.821	1	generate	Run2	generate/STIM_017.jpg
1288.895	1.285	1	generate	Run2	generate/STIM_017.jpg
1292.89	1.08	1	generate	Run2	generate/STIM_018.jpg
1296.842	1.318	0	generate	Run2	generate/STIM_018.jpg
1301.905	1.788	0	generate	Run2	generate/STIM_018.jpg
1306.768	1.386	1	generate	Run2	generate/STIM_018.jpg
1311.493	1.082	1	generate	Run2	generate/STIM_018.jpg
1315.616	1.396	1	generate	Run2	generate/STIM_019.jpg
1320.643	1.901	1	generate	Run2	generate/STIM_019.jpg
1325.183	0.997	1	generate	Run2	generate/STIM_019.jpg
1328.745	1.578	1	generate	Run2	generate/STIM_019.jpg
1333.488	1.407	1	generate	Run2	generate/STIM_019.jpg
1337.044	1.679	1	generate	Run2	generate/STIM_020.jpg
1341.479	1.768	1	generate	Run2	generate/STIM_020.jpg
1346.617	1.802	1	generate	Run2	generate/STIM_020.jpg
1352.096	1.041	1	generate	Run2	generate/STIM_020.jpg
1356.185	1.374	1	generate	Run2	generate/STIM_020.jpg
1361.366	1.47	1	generate	Run2	generate/STIM_021.jpg
1366.632	0.992	1	generate	Run2	generate/STIM_021.jpg
1371.126	1.644	1	generate	Run2	generate/STIM_021.jpg
1376.637	1.867	0	generate	Run2	generate/STIM_021.jpg
1382.292	1.815	1	generate	Run2	generate/STIM_021.jpg
1386.377	1.009	1	generate	Run2	generate/STIM_022.jpg
1391.035	1.853	1	generate	Run2	generate/STIM_022.jpg
1396.35	1.611	1	generate	Run2	generate/STIM_022.jpg
1401.183	1.086	1	generate	Run2	generate/STIM_022.jpg
1405.964	1.248	1	generate	Run2	generate/STIM_022.jpg
1409.985	1.223	1	generate	Run2	generate/STIM_023.jpg
1414.002	1.412	1	generate	Run2	generate/STIM_023.jpg
1418.287	0.934	1	generate	Run2	generate/STIM_023.jpg
1423.121	1.876	1	generate	Run2	generate/STIM_023.jpg
1428.236	1.785	1	generate	Run2	generate/STIM_023.jpg
1432.086	1.187	1	generate	Run2	generate/STIM_024.jpg
1435.499	0.944	1	generate	Run2	generate/STIM_024.jpg
1439.071	1.076	1	generate	Run2	generate/STIM_024.jpg
1442.212	1.08	1	generate	Run2	generate/STIM_024.jpg
1446.755	1.336	1	generate	Run2	generate/STIM_024.jpg
1450.409	0.692	1	repeat	Run2	repeat/STIM_000.jpg
1453.718	0.829	1	repeat	Run2	repeat/STIM_000.jpg
1457.846	0.793	1	repeat	Run2	repeat/STIM_000.jpg
1462.595	0.536	1	repeat	Run2	repeat/STIM_000.jpg
1467.014	0.54	1	repeat	Run2	repeat/STIM_000.jpg
1471.037	0.903	1	repeat	Run2	repeat/STIM_001.jpg
1474.511	0.646	1	repeat	Run2	repeat/STIM_001.jpg
1478.672	0.682	1	repeat	Run2	repeat/STIM_001.jpg
1482.419	0.805	1	repeat	Run2	repeat/STIM_001.jpg
1485.574	0.817	1	repeat	Run2	repeat/STIM_001.jpg
1488.678	0.847	1	repeat	Run2	repeat/STIM_002.jpg
1493.279	0.932	1	repeat	Run2	repeat/STIM_002.jpg
1496.463	0.768	1	repeat	Run2	repeat/STIM_002.jpg
1500.147	0.764	1	repeat	Run2	repeat/STIM_002.jpg
1503.057	0.745	1	repeat	Run2	repeat/STIM_002.jpg
1506.788	0.656	1	repeat	Run2	repeat/STIM_003.jpg
1510.5	0.941	1	repeat	Run2	repeat/STIM_003.jpg
1514.335	0.744	1	repeat	Run2	repeat/STIM_003.jpg
1518.523	0.654	1	repeat	Run2	repeat/STIM_003.jpg
1522.938	0.696	1	repeat	Run2	repeat/STIM_003.jpg
1526.048	0.748	1	repeat	Run2	repeat/STIM_004.jpg
1529.248	0.63	1	repeat	Run2	repeat/STIM_004.jpg
1532.595	0.768	1	repeat	Run2	repeat/STIM_004.jpg
1536.071	0.563	1	repeat	Run2	repeat/STIM_004.jpg
1539.058	0.883	1	repeat	Run2	repeat/STIM_004.jpg
1543.333	0.662	1	repeat	Run2	repeat/STIM_005.jpg
1547.297	0.901	1	repeat	Run2	repeat/STIM_005.jpg
1551.699	0.954	1	repeat	Run2	repeat/STIM_005.jpg
1555.472	0.585	1	repeat	Run2	repeat/STIM_005.jpg
1559.961	0.662	1	repeat	Run2	repeat/STIM_005.jpg
1563.16	0.734	1	repeat	Run2	repeat/STIM_006.jpg
1567.004	0.876	1	repeat	Run2	repeat/STIM_006.jpg
1570.59	0.799	0	repeat	Run2	repeat/STIM_006.jpg
1573.805	0.544	1	repeat	Run2	repeat/STIM_006.jpg
1577.422	0.642	1	repeat	Run2	repeat/STIM_006.jpg
1582.021	0.797	1	repeat	Run2	repeat/STIM_007.jpg
1585.051	0.941	1	repeat	Run2	repeat/STIM_007.jpg
1589.37	0.738	1	repeat	Run2	repeat/STIM_007.jpg
1592.445	0.925	1	repeat	Run2	repeat/STIM_007.jpg
1596.862	0.855	1	repeat	Run2	repeat/STIM_007.jpg
1601.053	0.723	1	repeat	Run2	repeat/STIM_008.jpg
1605.176	0.674	1	repeat	Run2	repeat/STIM_008.jpg
1608.912	0.84	1	repeat	Run2	repeat/STIM_008.jpg
1612.122	0.814	1	repeat	Run2	repeat/STIM_008.jpg
1615.464	0.538	1	repeat	Run2	repeat/STIM_008.jpg
1618.071	0.691	1	repeat	Run2	repeat/STIM_009.jpg
1621.381	0.652	1	repeat	Run2	repeat/STIM_009.jpg
1625.433	0.655	1	repeat	Run2	repeat/STIM_009.jpg
1628.593	0.855	1	repeat	Run2	repeat/STIM_009.jpg
1632.436	0.916	1	repeat	Run2	repeat/STIM_009.jpg
1636.767	0.558	1	repeat	Run2	repeat/STIM_010.jpg
1640.154	0.928	1	repeat	Run2	repeat/STIM_010.jpg
1644.787	0.878	1	repeat	Run2	repeat/STIM_010.jpg
1649.425	0.69	1	repeat	Run2	repeat/STIM_010.jpg
1652.448	0.515	1	repeat	Run2	repeat/STIM_010.jpg
1656.634	0.816	0	repeat	Run2	repeat/STIM_011.jpg
1659.711	0.594	1	repeat	Run2	repeat/STIM_011.jpg
1664.272	0.831	1	repeat	Run2	repeat/STIM_011.jpg
1668.856	0.785	1	repeat	Run2	repeat/STIM_011.jpg
1673.094	0.856	1	repeat	Run2	repeat/STIM_011.jpg
1677.74	0.852	1	repeat	Run2	repeat/STIM_012.jpg
1680.749	0.648	0	repeat	Run2	repeat/STIM_012.jpg
1685.362	0.63	1	repeat	Run2	repeat/STIM_012.jpg
1689.701	0.55	1	repeat	Run2	repeat/STIM_012.jpg
1692.405	0.792	1	repeat	Run2	repeat/STIM_012.jpg
1696.153	0.535	1	repeat	Run2	repeat/STIM_013.jpg
1700.132	0.556	1	repeat	Run2	repeat/STIM_013.jpg
1703.01	0.884	1	repeat	Run2	repeat/STIM_013.jpg
1706.16	0.799	1	repeat	Run2	repeat/STIM_013.jpg
1710.659	0.774	1	repeat	Run2	repeat/STIM_013.jpg
1714.657	0.74	1	repeat	Run2	repeat/STIM_014.jpg
1718.434	0.786	1	repeat	Run2	repeat/STIM_014.jpg
1721.906	0.929	1	repeat	Run2	repeat/STIM_014.jpg
1726.764	0.836	1	repeat	Run2	repeat/STIM_014.jpg
1731.37	0.7	1	repeat	Run2	repeat/STIM_014.jpg
1734.797	1.604	1	generate	Run3	generate/STIM_000.jpg
1738.767	1.724	1	generate	Run3	generate/STIM_000.jpg
1743.095	1.77	1	generate	Run3	generate/STIM_000.jpg
1748.422	1.604	1	generate	Run3	generate/STIM_000.jpg
1753.236	0.889	1	generate	Run3	generate/STIM_000.jpg
1757.642	1.617	1	generate	Run3	generate/STIM_001.jpg
1762.881	1.02	1	generate	Run3	generate/STIM_001.jpg
1766.603	0.847	1	generate	Run3	generate/STIM_001.jpg
1770.978	1.046	1	generate	Run3	generate/STIM_001.jpg
1775.87	1.75	1	generate	Run3	generate/STIM_001.jpg
1781.376	1.437	1	generate	Run3	generate/STIM_002.jpg
1785.325	1.42	0	generate	Run3	generate/STIM_002.jpg
1788.988	1.69	1	generate	Run3	generate/STIM_002.jpg
1792.933	1.404	1	generate	Run3	generate/STIM_002.jpg
1796.651	1.509	1	generate	Run3	generate/STIM_002.jpg
1801.17	0.911	1	generate	Run3	generate/STIM_003.jpg
1805.243	1.655	1	generate	Run3	generate/STIM_003.jpg
1809.034	1.01	1	generate	Run3	generate/STIM_003.jpg
1813.114	1.549	1	generate	Run3	generate/STIM_003.jpg
1817.173	1.581	1	generate	Run3	generate/STIM_003.jpg
1821.225	1.572	1	generate	Run3	generate/STIM_004.jpg
1825.7	1.558	1	generate	Run3	generate/STIM_004.jpg
1831.252	1.41	1	generate	Run3	generate/STIM_004.jpg
1834.743	1.728	1	generate	Run3	generate/STIM_004.jpg
1839.457	1.989	1	generate	Run3	generate/STIM_004.jpg
1843.521	1.086	1	generate	Run3	generate/STIM_005.jpg
1847.058	0.865	1	generate	Run3	generate/STIM_005.jpg
1850.432	0.937	1	generate	Run3	generate/STIM_005.jpg
1853.534	0.928	1	generate	Run3	generate/STIM_005.jpg
1858.145	1.327	1	generate	Run3	generate/STIM_005.jpg
1862.657	1.178	1	generate	Run3	generate/STIM_006.jpg
1867.14	1.969	1	generate	Run3	generate/STIM_006.jpg
1871.71	1.253	1	generate	Run3	generate/STIM_006.jpg
1876.488	1.979	1	generate	Run3	generate/STIM_006.jpg
1882.166	1.227	1	generate	Run3	generate/STIM_006.jpg
1887.27	1.02	1	generate	Run3	generate/STIM_007.jpg
1890.86	0.958	1	generate	Run3	generate/STIM_007.jpg
1895.689	0.958	1	generate	Run3	generate/STIM_007.jpg
1899.012	1.897	1	generate	Run3	generate/STIM_007.jpg
1903.429	1.657	1	generate	Run3	generate/STIM_007.jpg
1908.213	1.616	1	generate	Run3	generate/STIM_008.jpg
1913.033	1.938	1	generate	Run3	generate/STIM_008.jpg
1918.223	1.267	1	generate	Run3	generate/STIM_008.jpg
1922.154	1.982	1	generate	Run3	generate/STIM_008.jpg
1928.08	1.225	1	generate	Run3	generate/STIM_008.jpg
1932.648	1.258	1	generate	Run3	generate/STIM_009.jpg
1936.947	0.991	1	generate	Run3	generate/STIM_009.jpg
1941.586	1.161	1	generate	Run3	generate/STIM_009.jpg
1946.028	1.122	1	generate	Run3	generate/STIM_009.jpg
1949.248	1.859	1	generate	Run3	generate/STIM_009.jpg
1954.534	1.219	1	generate	Run3	generate/STIM_010.jpg
1958.792	0.905	1	generate	Run3	generate/STIM_010.jpg
1963.228	1.983	1	generate	Run3	generate/STIM_010.jpg
1967.411	1.608	1	generate	Run3	generate/STIM_010.jpg
1971.802	1.467	1	generate	Run3	generate/STIM_010.jpg
1975.432	1.92	1	generate	Run3	generate/STIM_011.jpg
1979.558	1.309	1	generate	Run3	generate/STIM_011.jpg
1984.417	1.951	1	generate	Run3	generate/STIM_011.jpg
1989.016	1.953	1	generate	Run3	generate/STIM_011.jpg
1993.631	1.85	1	generate	Run3	generate/STIM_011.jpg
1997.634	1.875	1	generate	Run3	generate/STIM_012.jpg
2001.977	1.306	1	generate	Run3	generate/STIM_012.jpg
2006.791	1.185	1	generate	Run3	generate/STIM_012.jpg
2010.394	0.817	1	generate	Run3	generate/STIM_012.jpg
2014.938	1.918	1	generate	Run3	generate/STIM_012.jpg
2018.921	0.852	1	generate	Run3	generate/STIM_013.jpg
2023.532	1.728	1	generate	Run3	generate/STIM_013.jpg
2027.355	1.163	1	generate	Run3	generate/STIM_013.jpg
2030.802	0.879	0	generate	Run3	generate/STIM_013.jpg
2033.978	1.086	1	generate	Run3	generate/STIM_013.jpg
2037.415	1.981	1	generate	Run3	generate/STIM_014.jpg
2041.734	1.001	1	generate	Run3	generate/STIM_014.jpg
2046.437	0.849	1	generate	Run3	generate/STIM_014.jpg
2049.632	1.694	1	generate	Run3	generate/STIM_014.jpg
2053.465	2.011	1	generate	Run3	generate/STIM_014.jpg
2057.647	1.349	1	generate	Run3	generate/STIM_015.jpg
2061.05	1.486	1	generate	Run3	generate/STIM_015.jpg
2065.367	1.8	1	generate	Run3	generate/STIM_015.jpg
2069.447	1.248	1	generate	Run3	generate/STIM_015.jpg
2074.54	1.748	1	generate	Run3	generate/STIM_015.jpg
2079.501	1.464	1	generate	Run3	generate/STIM_016.jpg
2083.899	1.33	1	generate	Run3	generate/STIM_016.jpg
2087.273	1.617	1	generate	Run3	generate/STIM_016.jpg
2092.046	1.227	1	generate	Run3	generate/STIM_016.jpg
2096.146	1.54	1	generate	Run3	generate/STIM_016.jpg
2101.036	1.766	1	generate	Run3	generate/STIM_017.jpg
2105.645	1.303	1	generate	Run3	generate/STIM_017.jpg
2109.686	1.483	1	generate	Run3	generate/STIM_017.jpg
2113.528	1.449	1	generate	Run3	generate/STIM_017.jpg
2117.448	1.091	1	generate	Run3	generate/STIM_017.jpg
2121.98	1.513	1	generate	Run3	generate/STIM_018.jpg
2127.244	1.267	1	generate	Run3	generate/STIM_018.jpg
2131.845	1.477	1	generate	Run3	generate/STIM_018.jpg
2136.447	1.442	1	generate	Run3	generate/STIM_018.jpg
2141.095	0.957	1	generate	Run3	generate/STIM_018.jpg
2145.689	1.58	1	generate	Run3	generate/STIM_019.jpg
2149.81	0.938	1	generate	Run3	generate/STIM_019.jpg
2153.498	1.689	1	generate	Run3	generate/STIM_019.jpg
2158.341	1.896	1	generate	Run3	generate/STIM_019.jpg
2162.501	1.386	1	generate	Run3	generate/STIM_019.jpg
2167.522	1.176	1	generate	Run3	generate/STIM_020.jpg
2170.742	1.765	1	generate	Run3	generate/STIM_020.jpg
2175.531	0.828	1	generate	Run3	generate/STIM_020.jpg
2179.479	1.285	1	generate	Run3	generate/STIM_020.jpg
2184.375	1.129	1	generate	Run3	generate/STIM_020.jpg
2188.838	1.704	1	generate	Run3	generate/STIM_021.jpg
2193.013	1.056	0	generate	Run3	generate/STIM_021.jpg
2197.442	1.811	1	generate	Run3	generate/STIM_021.jpg
2202.225	1.772	1	generate	Run3	generate/STIM_021.jpg
2206.913	1.257	0	generate	Run3	generate/STIM_021.jpg
2210.503	0.843	1	generate	Run3	generate/STIM_022.jpg
2214.706	0.9	1	generate	Run3	generate/STIM_022.jpg
2219.217	0.951	1	generate	Run3	generate/STIM_022.jpg
2222.974	0.866	1	generate	Run3	generate/STIM_022.jpg
2226.627	1.498	1	generate	Run3	generate/STIM_022.jpg
2231.01	0.836	1	generate	Run3	generate/STIM_023.jpg
2234.032	1.815	1	generate	Run3	generate/STIM_023.jpg
2239.404	1.987	1	generate	Run3	generate/STIM_023.jpg
2244.471	1.985	1	generate	Run3	generate/STIM_023.jpg
2250.155	1.188	1	generate	Run3	generate/STIM_023.jpg
2255.131	1.969	1	generate	Run3	generate/STIM_024.jpg
2260.705	1.223	1	generate	Run3	generate/STIM_024.jpg
2264.486	1.07	1	generate	Run3	generate/STIM_024.jpg
2269.416	1.966	1	generate	Run3	generate/STIM_024.jpg
2274.263	1.245	1	generate	Run3	generate/STIM_024.jpg
2278.314	0.776	1	repeat	Run3	repeat/STIM_000.jpg
2282.018	0.806	1	repeat	Run3	repeat/STIM_000.jpg
2285.083	0.592	1	repeat	Run3	repeat/STIM_000.jpg
2289.373	0.773	1	repeat	Run3	repeat/STIM_000.jpg
2293.154	0.912	1	repeat	Run3	repeat/STIM_000.jpg
2296.488	0.891	1	repeat	Run3	repeat/STIM_001.jpg
2299.648	0.938	1	repeat	Run3	repeat/STIM_001.jpg
2304.476	0.838	1	repeat	Run3	repeat/STIM_001.jpg
2307.446	0.831	1	repeat	Run3	repeat/STIM_001.jpg
2311.216	0.657	1	repeat	Run3	repeat/STIM_001.jpg
2314.921	0.606	1	repeat	Run3	repeat/STIM_002.jpg
2317.543	0.826	1	repeat	Run3	repeat/STIM_002.jpg
2321.833	0.504	1	repeat	Run3	repeat/STIM_002.jpg
2325.605	0.925	1	repeat	Run3	repeat/STIM_002.jpg
2329.225	0.892	1	repeat	Run3	repeat/STIM_002.jpg
2332.88	0.61	1	repeat	Run3	repeat/STIM_003.jpg
2337.449	0.667	1	repeat	Run3	repeat/STIM_003.jpg
2342.077	0.561	1	repeat	Run3	repeat/STIM_003.jpg
2345.147	0.816	1	repeat	Run3	repeat/STIM_003.jpg
2348.109	0.558	1	repeat	Run3	repeat/STIM_003.jpg
2351.163	0.608	1	repeat	Run3	repeat/STIM_004.jpg
2354.741	0.808	0	repeat	Run3	repeat/STIM_004.jpg
2358.29	0.843	1	repeat	Run3	repeat/STIM_004.jpg
2361.368	0.911	1	repeat	Run3	repeat/STIM_004.jpg
2365.556	0.842	0	repeat	Run3	repeat/STIM_004.jpg
2369.331	0.862	1	repeat	Run3	repeat/STIM_005.jpg
2374.068	0.808	1	repeat	Run3	repeat/STIM_005.jpg
2377.224	0.916	1	repeat	Run3	repeat/STIM_005.jpg
2380.386	0.882	1	repeat	Run3	repeat/STIM_005.jpg
2384.046	0.875	1	repeat	Run3	repeat/STIM_005.jpg
2387.112	0.521	1	repeat	Run3	repeat/STIM_006.jpg
2391.238	0.672	1	repeat	Run3	repeat/STIM_006.jpg
2395.141	0.874	1	repeat	Run3	repeat/STIM_006.jpg
2398.096	0.8	1	repeat	Run3	repeat/STIM_006.jpg
2402.514	0.929	1	repeat	Run3	repeat/STIM_006.jpg
2407.152	0.866	1	repeat	Run3	repeat/STIM_007.jpg
2410.23	0.769	1	repeat	Run3	repeat/STIM_007.jpg
2414.809	0.731	1	repeat	Run3	repeat/STIM_007.jpg
2418.768	0.815	1	repeat	Run3	repeat/STIM_007.jpg
2422.606	0.563	1	repeat	Run3	repeat/STIM_007.jpg
2426.767	0.761	1	repeat	Run3	repeat/STIM_008.jpg
2430.886	0.643	1	repeat	Run3	repeat/STIM_008.jpg
2435.31	0.837	1	repeat	Run3	repeat/STIM_008.jpg
2439.639	0.754	1	repeat	Run3	repeat/STIM_008.jpg
2442.831	0.872	1	repeat	Run3	repeat/STIM_008.jpg
2445.992	0.688	1	repeat	Run3	repeat/STIM_009.jpg
2449.785	0.902	1	repeat	Run3	repeat/STIM_009.jpg
2454.107	0.653	1	repeat	Run3	repeat/STIM_009.jpg
2457.088	0.906	1	repeat	Run3	repeat/STIM_009.jpg
2460.41	0.539	1	repeat	Run3	repeat/STIM_009.jpg
2464.063	0.83	1	repeat	Run3	repeat/STIM_010.jpg
2467.67	0.831	1	repeat	Run3	repeat/STIM_010.jpg
2470.8	0.728	1	repeat	Run3	repeat/STIM_010.jpg
2475.137	0.698	1	repeat	Run3	repeat/STIM_010.jpg
2478.048	0.537	1	repeat	Run3	repeat/STIM_010.jpg
2481.023	0.632	1	repeat	Run3	repeat/STIM_011.jpg
2484.001	0.617	1	repeat	Run3	repeat/STIM_011.jpg
2487.384	0.832	1	repeat	Run3	repeat/STIM_011.jpg
2490.403	0.932	1	repeat	Run3	repeat/STIM_011.jpg
2494.141	0.692	1	repeat	Run3	repeat/STIM_011.jpg
2497.416	0.851	1	repeat	Run3	repeat/STIM_012.jpg
2501.392	0.891	1	repeat	Run3	repeat/STIM_012.jpg
2505.372	0.865	1	repeat	Run3	repeat/STIM_012.jpg
2508.297	0.744	1	repeat	Run3	repeat/STIM_012.jpg
2511.406	0.787	1	repeat	Run3	repeat/STIM_012.jpg
2516.164	0.859	1	repeat	Run3	repeat/STIM_013.jpg
2519.073	0.724	1	repeat	Run3	repeat/STIM_013.jpg
2522.018	0.531	1	repeat	Run3	repeat/STIM_013.jpg
2525.721	0.77	1	repeat	Run3	repeat/STIM_013.jpg
2530.441	0.665	1	repeat	Run3	repeat/STIM_013.jpg
2534.62	0.698	1	repeat	Run3	repeat/STIM_014.jpg
2537.697	0.632	1	repeat	Run3	repeat/STIM_014.jpg
2541.995	0.947	1	repeat	Run3	repeat/STIM_014.jpg
2546.784	0.678	1	repeat	Run3	repeat/STIM_014.jpg
2549.595	0.892	1	repeat	Run3	repeat/STIM_014.jpg
2553.987	0.901	1	generate	Run4	generate/STIM_000.jpg
2558.005	1.4	1	generate	Run4	generate/STIM_000.jpg
2562.357	1.927	1	generate	Run4	generate/STIM_000.jpg
2567.203	1.93	1	generate	Run4	generate/STIM_000.jpg
2572.7	1.478	1	generate	Run4	generate/STIM_000.jpg
2576.685	1.02	1	generate	Run4	generate/STIM_001.jpg
2580.83	1.504	1	generate	Run4	generate/STIM_001.jpg
2586.182	1.854	1	generate	Run4	generate/STIM_001.jpg
2591.89	1.116	1	generate	Run4	generate/STIM_001.jpg
2596.65	1.951	1	generate	Run4	generate/STIM_001.jpg
2602.594	1.889	1	generate	Run4	generate/STIM_002.jpg
2607.425	0.812	1	generate	Run4	generate/STIM_002.jpg
2611.266	1.57	1	generate	Run4	generate/STIM_002.jpg
2615.668	1.532	1	generate	Run4	generate/STIM_002.jpg
2619.904	1.512	1	generate	Run4	generate/STIM_002.jpg
2624.567	1.067	1	generate	Run4	generate/STIM_003.jpg
2628.742	1.032	1	generate	Run4	generate/STIM_003.jpg
2633.441	1.237	1	generate	Run4	generate/STIM_003.jpg
2637.458	1.88	1	generate	Run4	generate/STIM_003.jpg
2641.964	1.029	1	generate	Run4	generate/STIM_003.jpg
2645.156	0.998	1	generate	Run4	generate/STIM_004.jpg
2649.689	2.008	1	generate	Run4	generate/STIM_004.jpg
2654.508	0.97	1	generate	Run4	generate/STIM_004.jpg
2658.728	1.688	1	generate	Run4	generate/STIM_004.jpg
2663.522	1.135	1	generate	Run4	generate/STIM_004.jpg
2667.583	1.56	1	generate	Run4	generate/STIM_005.jpg
2672.131	1.285	1	generate	Run4	generate/STIM_005.jpg
2676.0	1.695	1	generate	Run4	generate/STIM_005.jpg
2681.483	0.902	1	generate	Run4	generate/STIM_005.jpg
2684.552	1.768	1	generate	Run4	generate/STIM_005.jpg
2689.101	0.9	1	generate	Run4	generate/STIM_006.jpg
2693.903	1.054	1	generate	Run4	generate/STIM_006.jpg
2697.14	1.735	1	generate	Run4	generate/STIM_006.jpg
2702.175	1.816	1	generate	Run4	generate/STIM_006.jpg
2707.914	0.811	1	generate	Run4	generate/STIM_006.jpg
2712.094	1.644	1	generate	Run4	generate/STIM_007.jpg
2716.709	1.897	1	generate	Run4	generate/STIM_007.jpg
2721.618	1.595	1	generate	Run4	generate/STIM_007.jpg
2726.723	1.886	1	generate	Run4	generate/STIM_007.jpg
2730.736	1.083	1	generate	Run4	generate/STIM_007.jpg
2735.473	1.987	1	generate	Run4	generate/STIM_008.jpg
2740.843	1.676	1	generate	Run4	generate/STIM_008.jpg
2745.208	1.574	1	generate	Run4	generate/STIM_008.jpg
2750.769	1.502	1	generate	Run4	generate/STIM_008.jpg
2755.102	1.834	1	generate	Run4	generate/STIM_008.jpg
2759.359	0.91	1	generate	Run4	generate/STIM_009.jpg
2763.723	1.074	1	generate	Run4	generate/STIM_009.jpg
2766.952	1.218	1	generate	Run4	generate/STIM_009.jpg
2770.268	1.482	1	generate	Run4	generate/STIM_009.jpg
2775.171	1.862	1	generate	Run4	generate/STIM_009.jpg
2779.905	1.148	1	generate	Run4	generate/STIM_010.jpg
2783.676	1.226	1	generate	Run4	generate/STIM_010.jpg
2788.832	1.817	1	generate	Run4	generate/STIM_010.jpg
2794.317	1.62	1	generate	Run4	generate/STIM_010.jpg
2799.632	1.754	1	generate	Run4	generate/STIM_010.jpg
2804.606	1.428	1	generate	Run4	generate/STIM_011.jpg
2809.461	1.09	1	generate	Run4	generate/STIM_011.jpg
2812.967	1.779	1	generate	Run4	generate/STIM_011.jpg
2817.766	1.288	1	generate	Run4	generate/STIM_011.jpg
2821.685	1.193	1	generate	Run4	generate/STIM_011.jpg
2825.712	1.214	1	generate	Run4	generate/STIM_012.jpg
2830.729	1.563	1	generate	Run4	generate/STIM_012.jpg
2835.991	1.091	1	generate	Run4	generate/STIM_012.jpg
2839.283	1.499	1	generate	Run4	generate/STIM_012.jpg
2844.112	1.353	1	generate	Run4	generate/STIM_012.jpg
2848.233	1.429	1	generate	Run4	generate/STIM_013.jpg
2852.351	1.724	1	generate	Run4	generate/STIM_013.jpg
2856.086	1.074	1	generate	Run4	generate/STIM_013.jpg
2860.257	0.881	1	generate	Run4	generate/STIM_013.jpg
2863.499	1.484	1	generate	Run4	generate/STIM_013.jpg
2868.882	1.621	1	generate	Run4	generate/STIM_014.jpg
2873.974	0.909	1	generate	Run4	generate/STIM_014.jpg
2877.095	1.944	1	generate	Run4	generate/STIM_014.jpg
2882.544	0.814	1	generate	Run4	generate/STIM_014.jpg
2887.069	1.414	1	generate	Run4	generate/STIM_014.jpg
2890.906	1.691	1	generate	Run4	generate/STIM_015.jpg
2895.044	0.929	1	generate	Run4	generate/STIM_015.jpg
2899.415	1.073	1	generate	Run4	generate/STIM_015.jpg
2904.198	1.51	1	generate	Run4	generate/STIM_015.jpg
2908.676	1.81	1	generate	Run4	generate/STIM_015.jpg
2913.071	0.885	1	generate	Run4	generate/STIM_016.jpg
2916.408	1.519	1	generate	Run4	generate/STIM_016.jpg
2921.075	1.474	1	generate	Run4	generate/STIM_016.jpg
2925.627	0.895	1	generate	Run4	generate/STIM_016.jpg
2928.968	1.804	1	generate	Run4	generate/STIM_016.jpg
2934.018	1.763	1	generate	Run4	generate/STIM_017.jpg
2939.524	0.927	1	generate	Run4	generate/STIM_017.jpg
2943.876	1.47	1	generate	Run4	generate/STIM_017.jpg
2947.795	1.874	1	generate	Run4	generate/STIM_017.jpg
2953.457	0.968	1	generate	Run4	generate/STIM_017.jpg
2957.234	1.957	1	generate	Run4	generate/STIM_018.jpg
2962.899	1.205	1	generate	Run4	generate/STIM_018.jpg
2967.912	1.359	1	generate	Run4	generate/STIM_018.jpg
2972.262	1.565	1	generate	Run4	generate/STIM_018.jpg
2977.64	1.236	1	generate	Run4	generate/STIM_018.jpg
2981.754	1.824	1	generate	Run4	generate/STIM_019.jpg
2987.061	1.601	1	generate	Run4	generate/STIM_019.jpg
2991.151	1.548	1	generate	Run4	generate/STIM_019.jpg
2996.034	1.551	1	generate	Run4	generate/STIM_019.jpg
3001.171	1.602	1	generate	Run4	generate/STIM_019.jpg
3005.321	1.836	1	generate	Run4	generate/STIM_020.jpg
3009.919	1.079	1	generate	Run4	generate/STIM_020.jpg
3013.901	1.081	1	generate	Run4	generate/STIM_020.jpg
3018.191	1.795	1	generate	Run4	generate/STIM_020.jpg
3022.704	1.594	1	generate	Run4	generate/STIM_020.jpg
3026.52	1.088	1	generate	Run4	generate/STIM_021.jpg
3030.804	1.148	1	generate	Run4	generate/STIM_021.jpg
3034.782	1.676	1	generate	Run4	generate/STIM_021.jpg
3039.096	1.172	1	generate	Run4	generate/STIM_021.jpg
3042.484	1.049	1	generate	Run4	generate/STIM_021.jpg
3045.592	1.223	1	generate	Run4	generate/STIM_022.jpg
3048.913	1.623	1	generate	Run4	generate/STIM_022.jpg
3053.154	1.438	1	generate	Run4	generate/STIM_022.jpg
3056.748	1.227	1	generate	Run4	generate/STIM_022.jpg
3060.455	1.05	1	generate	Run4	generate/STIM_022.jpg
3064.805	0.916	1	generate	Run4	generate/STIM_023.jpg
3068.01	0.832	1	generate	Run4	generate/STIM_023.jpg
3071.517	1.259	1	generate	Run4	generate/STIM_023.jpg
3075.737	1.468	1	generate	Run4	generate/STIM_023.jpg
3079.603	0.812	1	generate	Run4	generate/STIM_023.jpg
3084.036	0.997	1	generate	Run4	generate/STIM_024.jpg
3089.019	0.95	1	generate	Run4	generate/STIM_024.jpg
3092.104	0.973	1	generate	Run4	generate/STIM_024.jpg
3096.37	1.218	1	generate	Run4	generate/STIM_024.jpg
3100.894	1.113	1	generate	Run4	generate/STIM_024.jpg
3105.034	0.705	1	repeat	Run4	repeat/STIM_000.jpg
3108.443	0.955	1	repeat	Run4	repeat/STIM_000.jpg
3112.134	0.615	1	repeat	Run4	repeat/STIM_000.jpg
3116.153	0.799	1	repeat	Run4	repeat/STIM_000.jpg
3120.898	0.763	1	repeat	Run4	repeat/STIM_000.jpg
3124.94	0.782	1	repeat	Run4	repeat/STIM_001.jpg
3129.005	0.524	1	repeat	Run4	repeat/STIM_001.jpg
3132.84	0.54	1	repeat	Run4	repeat/STIM_001.jpg
3135.418	0.74	1	repeat	Run4	repeat/STIM_001.jpg
3138.809	0.877	1	repeat	Run4	repeat/STIM_001.jpg
3143.326	0.511	1	repeat	Run4	repeat/STIM_002.jpg
3146.507	0.496	1	repeat	Run4	repeat/STIM_002.jpg
3150.83	0.613	1	repeat	Run4	repeat/STIM_002.jpg
3155.152	0.908	1	repeat	Run4	repeat/STIM_002.jpg
3158.838	0.53	1	repeat	Run4	repeat/STIM_002.jpg
3161.633	0.638	1	repeat	Run4	repeat/STIM_003.jpg
3164.96	0.738	1	repeat	Run4	repeat/STIM_003.jpg
3168.826	0.53	1	repeat	Run4	repeat/STIM_003.jpg
3173.285	0.789	1	repeat	Run4	repeat/STIM_003.jpg
3176.804	0.498	1	repeat	Run4	repeat/STIM_003.jpg
3180.086	0.703	1	repeat	Run4	repeat/STIM_004.jpg
3183.48	0.8	1	repeat	Run4	repeat/STIM_004.jpg
3187.605	0.729	1	repeat	Run4	repeat/STIM_004.jpg
3190.513	0.79	1	repeat	Run4	repeat/STIM_004.jpg
3194.459	0.916	1	repeat	Run4	repeat/STIM_004.jpg
3198.489	0.592	1	repeat	Run4	repeat/STIM_005.jpg
3202.682	0.752	1	repeat	Run4	repeat/STIM_005.jpg
3207.341	0.933	1	repeat	Run4	repeat/STIM_005.jpg
3211.498	0.707	1	repeat	Run4	repeat/STIM_005.jpg
3215.961	0.738	1	repeat	Run4	repeat/STIM_005.jpg
3219.801	0.652	1	repeat	Run4	repeat/STIM_006.jpg
3223.795	0.8	1	repeat	Run4	repeat/STIM_006.jpg
3227.557	0.952	1	repeat	Run4	repeat/STIM_006.jpg
3231.847	0.823	1	repeat	Run4	repeat/STIM_006.jpg
3236.287	0.853	1	repeat	Run4	repeat/STIM_006.jpg
3239.523	0.772	1	repeat	Run4	repeat/STIM_007.jpg
3243.037	0.795	1	repeat	Run4	repeat/STIM_007.jpg
3247.563	0.928	1	repeat	Run4	repeat/STIM_007.jpg
3251.816	0.573	1	repeat	Run4	repeat/STIM_007.jpg
3255.797	0.825	1	repeat	Run4	repeat/STIM_007.jpg
3258.796	0.676	1	repeat	Run4	repeat/STIM_008.jpg
3261.812	0.693	1	repeat	Run4	repeat/STIM_008.jpg
3264.96	0.944	1	repeat	Run4	repeat/STIM_008.jpg
3268.478	0.937	1	repeat	Run4	repeat/STIM_008.jpg
3271.778	0.854	1	repeat	Run4	repeat/STIM_008.jpg
3276.174	0.852	1	repeat	Run4	repeat/STIM_009.jpg
3279.397	0.691	1	repeat	Run4	repeat/STIM_009.jpg
3284.086	0.92	1	repeat	Run4	repeat/STIM_009.jpg
3287.008	0.85	1	repeat	Run4	repeat/STIM_009.jpg
3290.164	0.889	1	repeat	Run4	repeat/STIM_009.jpg
3294.347	0.942	1	repeat	Run4	repeat/STIM_010.jpg
3298.99	0.697	1	repeat	Run4	repeat/STIM_010.jpg
3303.313	0.846	1	repeat	Run4	repeat/STIM_010.jpg
3307.917	0.636	1	repeat	Run4	repeat/STIM_010.jpg
3311.676	0.517	1	repeat	Run4	repeat/STIM_010.jpg
3315.215	0.856	1	repeat	Run4	repeat/STIM_011.jpg
3319.847	0.862	1	repeat	Run4	repeat/STIM_011.jpg
3323.977	0.698	1	repeat	Run4	repeat/STIM_011.jpg
3327.875	0.868	1	repeat	Run4	repeat/STIM_011.jpg
3331.375	0.845	1	repeat	Run4	repeat/STIM_011.jpg
3335.334	0.484	1	repeat	Run4	repeat/STIM_012.jpg
3337.877	0.566	1	repeat	Run4	repeat/STIM_012.jpg
3340.793	0.613	1	repeat	Run4	repeat/STIM_012.jpg
3344.712	0.888	1	repeat	Run4	repeat/STIM_012.jpg
3349.319	0.721	1	repeat	Run4	repeat/STIM_012.jpg
3353.095	0.62	1	repeat	Run4	repeat/STIM_013.jpg
3356.647	0.894	1	repeat	Run4	repeat/STIM_013.jpg
3360.933	0.578	1	repeat	Run4	repeat/STIM_013.jpg
3365.311	0.697	1	repeat	Run4	repeat/STIM_013.jpg
3369.081	0.878	1	repeat	Run4	repeat/STIM_013.jpg
3373.305	0.95	1	repeat	Run4	repeat/STIM_014.jpg
3376.349	0.764	1	repeat	Run4	repeat/STIM_014.jpg
3380.823	0.646	1	repeat	Run4	repeat/STIM_014.jpg
3384.737	0.755	1	repeat	Run4	repeat/STIM_014.jpg
3387.792	0.809	1	repeat	Run4	repeat/STIM_014.jpg
