onset	duration	response_time_ms	trial_type	learning_stage	stimulus	response_port
0.0	2.165	2165.3	generate	Run1	generate/STIM_000.jpg	99
6.055	2.116	2116.1	generate	Run1	generate/STIM_000.jpg	99
10.388	1.783	1783.2	generate	Run1	generate/STIM_000.jpg	100
15.383	1.942	1941.7	generate	Run1	generate/STIM_000.jpg	99
19.822	1.629	1629.0	generate	Run1	generate/STIM_000.jpg	100
24.253	1.84	1840.2	generate	Run1	generate/STIM_001.jpg	100
28.812	1.772	1771.7	generate	Run1	generate/STIM_001.jpg	99
33.349	2.566	2566.3	generate	Run1	generate/STIM_001.jpg	100
38.093	1.212	1212.1	generate	Run1	generate/STIM_001.jpg	100
42.624	1.561	1561.1	generate	Run1	generate/STIM_001.jpg	99
47.141	1.706	1706.0	generate	Run1	generate/STIM_002.jpg	99
51.986	2.774	2774.1	generate	Run1	generate/STIM_002.jpg	100
57.844	1.87	1870.2	generate	Run1	generate/STIM_002.jpg	100
62.87	1.434	1433.9	generate	Run1	generate/STIM_002.jpg	99
68.196	1.211	1211.3	generate	Run1	generate/STIM_002.jpg	99
72.518	1.556	1556.4	generate	Run1	generate/STIM_003.jpg	100
76.542	1.422	1421.7	generate	Run1	generate/STIM_003.jpg	99
80.339	2.409	2409.3	generate	Run1	generate/STIM_003.jpg	100
85.726	2.072	2071.9	generate	Run1	generate/STIM_003.jpg	99
90.961	1.881	1881.1	generate	Run1	generate/STIM_003.jpg	100
96.18	2.018	2018.4	generate	Run1	generate/STIM_004.jpg	99
101.11	2.084	2084.4	generate	Run1	generate/STIM_004.jpg	99
105.911	2.052	2052.2	generate	Run1	generate/STIM_004.jpg	99
111.235	1.183	1183.1	generate	Run1	generate/STIM_004.jpg	99
114.94	1.551	1551.2	generate	Run1	generate/STIM_004.jpg	100
118.965	2.9	2899.6	generate	Run1	generate/STIM_005.jpg	99
124.027	2.736	2735.7	generate	Run1	generate/STIM_005.jpg	99
130.131	1.51	1510.5	generate	Run1	generate/STIM_005.jpg	100
135.45	1.806	1806.1	generate	Run1	generate/STIM_005.jpg	99
140.033	2.089	2088.6	generate	Run1	generate/STIM_005.jpg	99
144.756	2.718	2718.1	generate	Run1	generate/STIM_006.jpg	100
149.761	1.618	1617.6	generate	Run1	generate/STIM_006.jpg	100
153.937	1.511	1510.8	generate	Run1	generate/STIM_006.jpg	99
158.511	2.48	2480.0	generate	Run1	generate/STIM_006.jpg	99
163.071	1.056	1056.2	generate	Run1	generate/STIM_006.jpg	99
166.738	1.511	1510.9	generate	Run1	generate/STIM_007.jpg	100
171.691	1.71	1710.4	generate	Run1	generate/STIM_007.jpg	99
177.359	2.421	2420.6	generate	Run1	generate/STIM_007.jpg	100
183.446	1.881	1881.1	generate	Run1	generate/STIM_007.jpg	99
187.512	1.224	1223.7	generate	Run1	generate/STIM_007.jpg	100
191.817	2.279	2279.2	generate	Run1	generate/STIM_008.jpg	99
197.402	2.762	2761.7	generate	Run1	generate/STIM_008.jpg	100
203.75	2.637	2636.7	generate	Run1	generate/STIM_008.jpg	100
209.636	1.009	1009.4	generate	Run1	generate/STIM_008.jpg	100
214.02	2.149	2149.0	generate	Run1	generate/STIM_008.jpg	100
218.849	1.657	1657.4	generate	Run1	generate/STIM_009.jpg	99
222.76	2.382	2381.8	generate	Run1	generate/STIM_009.jpg	99
228.333	2.512	2512.2	generate	Run1	generate/STIM_009.jpg	100
233.201	2.409	2408.8	generate	Run1	generate/STIM_009.jpg	99
239.293	1.5	1499.9	generate	Run1	generate/STIM_009.jpg	100
244.538	2.041	2040.7	generate	Run1	generate/STIM_010.jpg	99
249.826	1.59	1590.3	generate	Run1	generate/STIM_010.jpg	99
253.886	1.88	1880.2	generate	Run1	generate/STIM_010.jpg	100
259.393	2.205	2204.9	generate	Run1	generate/STIM_010.jpg	100
265.617	2.241	2241.4	generate	Run1	generate/STIM_010.jpg	99
270.341	2.844	2843.8	generate	Run1	generate/STIM_011.jpg	99
275.558	1.982	1981.7	generate	Run1	generate/STIM_011.jpg	99
279.783	1.462	1461.6	generate	Run1	generate/STIM_011.jpg	100
283.995	2.304	2303.7	generate	Run1	generate/STIM_011.jpg	100
289.0	1.535	1535.0	generate	Run1	generate/STIM_011.jpg	100
293.435	2.683	2683.4	generate	Run1	generate/STIM_012.jpg	100
299.304	1.973	1973.3	generate	Run1	generate/STIM_012.jpg	99
305.051	1.464	1463.6	generate	Run1	generate/STIM_012.jpg	99
309.439	1.686	1685.9	generate	Run1	generate/STIM_012.jpg	99
314.979	1.888	1887.5	generate	Run1	generate/STIM_012.jpg	100
320.521	1.181	1181.1	generate	Run1	generate/STIM_013.jpg	99
324.249	1.724	1724.1	generate	Run1	generate/STIM_013.jpg	99
328.438	1.354	1353.9	generate	Run1	generate/STIM_013.jpg	100
332.173	2.069	2069.0	generate	Run1	generate/STIM_013.jpg	100
337.015	1.579	1579.0	generate	Run1	generate/STIM_013.jpg	100
342.468	1.814	1814.0	generate	Run1	generate/STIM_014.jpg	100
348.172	1.176	1175.9	generate	Run1	generate/STIM_014.jpg	100
352.239	1.994	1994.4	generate	Run1	generate/STIM_014.jpg	99
356.532	1.078	1078.4	generate	Run1	generate/STIM_014.jpg	100
360.955	2.21	2209.8	generate	Run1	generate/STIM_014.jpg	100
366.491	2.043	2043.4	generate	Run1	generate/STIM_015.jpg	100
370.943	1.865	1864.7	generate	Run1	generate/STIM_015.jpg	100
376.232	1.108	1107.9	generate	Run1	generate/STIM_015.jpg	99
380.416	2.374	2373.5	generate	Run1	generate/STIM_015.jpg	99
385.775	2.283	2283.2	generate	Run1	generate/STIM_015.jpg	99
390.483	1.303	1302.6	generate	Run1	generate/STIM_016.jpg	99
393.908	1.296	1296.2	generate	Run1	generate/STIM_016.jpg	99
398.417	1.882	1881.8	generate	Run1	generate/STIM_016.jpg	99
402.637	1.274	1273.7	generate	Run1	generate/STIM_016.jpg	100
407.054	1.787	1787.4	generate	Run1	generate/STIM_016.jpg	100
412.631	2.448	2448.1	generate	Run1	generate/STIM_017.jpg	100
417.61	2.258	2257.5	generate	Run1	generate/STIM_017.jpg	100
423.081	2.246	2246.0	generate	Run1	generate/STIM_017.jpg	99
427.986	2.158	2158.1	generate	Run1	generate/STIM_017.jpg	100
434.135	1.772	1772.2	generate	Run1	generate/STIM_017.jpg	100
438.692	2.056	2056.1	generate	Run1	generate/STIM_018.jpg	99
444.228	2.352	2352.3	generate	Run1	generate/STIM_018.jpg	100
448.772	2.096	2096.0	generate	Run1	generate/STIM_018.jpg	99
454.742	1.387	1386.7	generate	Run1	generate/STIM_018.jpg	99
458.277	1.542	1542.5	generate	Run1	generate/STIM_018.jpg	100
463.08	1.284	1283.8	generate	Run1	generate/STIM_019.jpg	99
467.757	1.782	1781.5	generate	Run1	generate/STIM_019.jpg	99
471.877	2.592	2592.1	generate	Run1	generate/STIM_019.jpg	99
477.692	1.35	1350.5	generate	Run1	generate/STIM_019.jpg	99
482.932	1.177	1176.8	generate	Run1	generate/STIM_019.jpg	99
487.436	2.276	2275.9	generate	Run1	generate/STIM_020.jpg	99
492.118	2.444	2443.5	generate	Run1	generate/STIM_020.jpg	100
496.661	2.2	2200.0	generate	Run1	generate/STIM_020.jpg	99
502.717	1.825	1825.3	generate	Run1	generate/STIM_020.jpg	99
507.13	1.128	1127.8	generate	Run1	generate/STIM_020.jpg	99
510.549	2.677	2676.9	generate	Run1	generate/STIM_021.jpg	99
515.506	1.223	1223.4	generate	Run1	generate/STIM_021.jpg	99
519.996	1.485	1484.8	generate	Run1	generate/STIM_021.jpg	99
524.447	1.283	1283.2	generate	Run1	generate/STIM_021.jpg	100
528.17	1.881	1881.4	generate	Run1	generate/STIM_021.jpg	100
532.645	2.687	2687.2	generate	Run1	generate/STIM_022.jpg	99
538.446	2.177	2176.7	generate	Run1	generate/STIM_022.jpg	99
544.31	1.468	1467.5	generate	Run1	generate/STIM_022.jpg	100
549.196	1.66	1660.3	generate	Run1	generate/STIM_022.jpg	99
553.776	1.216	1215.6	generate	Run1	generate/STIM_022.jpg	100
557.766	2.576	2575.7	generate	Run1	generate/STIM_023.jpg	99
562.672	1.371	1371.2	generate	Run1	generate/STIM_023.jpg	100
566.263	2.391	2390.7	generate	Run1	generate/STIM_023.jpg	100
571.901	1.404	1404.3	generate	Run1	generate/STIM_023.jpg	100
575.395	0.987	986.6	generate	Run1	generate/STIM_023.jpg	100
579.491	1.914	1913.9	generate	Run1	generate/STIM_024.jpg	99
584.232	2.649	2649.2	generate	Run1	generate/STIM_024.jpg	99
589.117	2.513	2513.0	generate	Run1	generate/STIM_024.jpg	100
595.101	1.84	1839.6	generate	Run1	generate/STIM_024.jpg	99
599.972	0.992	991.6	generate	Run1	generate/STIM_024.jpg	100
604.366	0.847	846.6	repeat	Run1	repeat/STIM_000.jpg	99
608.555	0.846	845.7	repeat	Run1	repeat/STIM_000.jpg	100
612.647	0.689	688.9	repeat	Run1	repeat/STIM_000.jpg	100
616.389	0.739	739.3	repeat	Run1	repeat/STIM_000.jpg	100
620.599	0.93	929.8	repeat	Run1	repeat/STIM_000.jpg	100
624.967	0.938	937.6	repeat	Run1	repeat/STIM_001.jpg	100
628.612	0.504	504.4	repeat	Run1	repeat/STIM_001.jpg	100
631.517	0.692	692.5	repeat	Run1	repeat/STIM_001.jpg	99
635.521	0.622	622.5	repeat	Run1	repeat/STIM_001.jpg	100
638.201	0.633	632.7	repeat	Run1	repeat/STIM_001.jpg	100
642.513	0.958	958.2	repeat	Run1	repeat/STIM_002.jpg	100
646.284	0.627	627.0	repeat	Run1	repeat/STIM_002.jpg	99
650.067	0.628	628.0	repeat	Run1	repeat/STIM_002.jpg	99
652.729	0.614	613.5	repeat	Run1	repeat/STIM_002.jpg	100
656.768	0.787	787.4	repeat	Run1	repeat/STIM_002.jpg	99
661.016	0.774	773.8	repeat	Run1	repeat/STIM_003.jpg	100
665.26	0.661	661.3	repeat	Run1	repeat/STIM_003.jpg	99
669.091	0.749	748.8	repeat	Run1	repeat/STIM_003.jpg	99
672.382	0.689	688.8	repeat	Run1	repeat/STIM_003.jpg	99
676.674	0.506	506.3	repeat	Run1	repeat/STIM_003.jpg	100
680.543	0.7	699.5	repeat	Run1	repeat/STIM_004.jpg	100
684.871	0.758	758.3	repeat	Run1	repeat/STIM_004.jpg	99
688.686	0.535	534.9	repeat	Run1	repeat/STIM_004.jpg	100
692.393	0.928	928.3	repeat	Run1	repeat/STIM_004.jpg	100
696.264	0.563	563.4	repeat	Run1	repeat/STIM_004.jpg	99
699.737	0.896	896.0	repeat	Run1	repeat/STIM_005.jpg	99
704.396	0.962	961.5	repeat	Run1	repeat/STIM_005.jpg	99
708.014	0.911	911.4	repeat	Run1	repeat/STIM_005.jpg	99
711.511	0.963	963.2	repeat	Run1	repeat/STIM_005.jpg	99
715.54	0.562	562.0	repeat	Run1	repeat/STIM_005.jpg	100
718.578	0.771	771.4	repeat	Run1	repeat/STIM_006.jpg	100
722.768	0.636	636.2	repeat	Run1	repeat/STIM_006.jpg	100
726.851	0.672	672.1	repeat	Run1	repeat/STIM_006.jpg	100
731.21	0.884	884.1	repeat	Run1	repeat/STIM_006.jpg	100
735.615	0.795	794.9	repeat	Run1	repeat/STIM_006.jpg	99
739.35	0.84	840.5	repeat	Run1	repeat/STIM_007.jpg	99
743.736	0.765	764.8	repeat	Run1	repeat/STIM_007.jpg	99
747.264	0.942	942.0	repeat	Run1	repeat/STIM_007.jpg	99
750.45	0.946	946.2	repeat	Run1	repeat/STIM_007.jpg	100
755.095	0.642	642.0	repeat	Run1	repeat/STIM_007.jpg	99
758.234	0.694	694.1	repeat	Run1	repeat/STIM_008.jpg	100
762.916	0.591	591.0	repeat	Run1	repeat/STIM_008.jpg	100
767.113	0.699	699.1	repeat	Run1	repeat/STIM_008.jpg	99
770.873	0.554	553.5	repeat	Run1	repeat/STIM_008.jpg	99
773.991	0.652	652.2	repeat	Run1	repeat/STIM_008.jpg	100
777.779	0.906	905.6	repeat	Run1	repeat/STIM_009.jpg	100
781.35	0.803	803.3	repeat	Run1	repeat/STIM_009.jpg	100
784.979	0.694	694.1	repeat	Run1	repeat/STIM_009.jpg	99
789.361	0.635	635.3	repeat	Run1	repeat/STIM_009.jpg	100
793.563	0.609	608.8	repeat	Run1	repeat/STIM_009.jpg	100
796.199	0.735	734.7	repeat	Run1	repeat/STIM_010.jpg	100
799.661	0.732	731.7	repeat	Run1	repeat/STIM_010.jpg	100
803.055	0.847	847.0	repeat	Run1	repeat/STIM_010.jpg	99
807.599	0.709	709.3	repeat	Run1	repeat/STIM_010.jpg	99
811.781	0.924	924.3	repeat	Run1	repeat/STIM_010.jpg	99
816.547	0.627	627.0	repeat	Run1	repeat/STIM_011.jpg	99
820.231	0.584	584.3	repeat	Run1	repeat/STIM_011.jpg	99
824.108	0.699	698.6	repeat	Run1	repeat/STIM_011.jpg	99
827.224	0.58	580.4	repeat	Run1	repeat/STIM_011.jpg	99
830.433	0.9	899.9	repeat	Run1	repeat/STIM_011.jpg	100
834.107	0.511	510.9	repeat	Run1	repeat/STIM_012.jpg	100
836.803	0.983	983.4	repeat	Run1	repeat/STIM_012.jpg	100
840.078	0.861	861.0	repeat	Run1	repeat/STIM_012.jpg	99
843.66	0.75	750.4	repeat	Run1	repeat/STIM_012.jpg	99
847.068	0.793	793.0	repeat	Run1	repeat/STIM_012.jpg	99
850.527	0.895	895.0	repeat	Run1	repeat/STIM_013.jpg	100
854.86	0.951	951.2	repeat	Run1	repeat/STIM_013.jpg	100
858.382	0.796	796.3	repeat	Run1	repeat/STIM_013.jpg	100
861.542	0.675	675.4	repeat	Run1	repeat/STIM_013.jpg	99
865.761	0.77	770.3	repeat	Run1	repeat/STIM_013.jpg	99
869.727	0.75	749.6	repeat	Run1	repeat/STIM_014.jpg	99
873.166	0.848	848.2	repeat	Run1	repeat/STIM_014.jpg	100
877.187	0.582	581.6	repeat	Run1	repeat/STIM_014.jpg	100
881.343	0.648	648.2	repeat	Run1	repeat/STIM_014.jpg	100
885.572	0.659	659.4	repeat	Run1	repeat/STIM_014.jpg	100
888.916	2.196	2196.1	generate	Run2	generate/STIM_000.jpg	100
894.506	1.675	1675.0	generate	Run2	generate/STIM_000.jpg	99
898.57	1.592	1592.0	generate	Run2	generate/STIM_000.jpg	100
902.826	1.327	1326.7	generate	Run2	generate/STIM_000.jpg	99
907.073	0.901	900.7	generate	Run2	generate/STIM_000.jpg	100
911.801	1.75	1749.6	generate	Run2	generate/STIM_001.jpg	99
917.53	1.948	1948.0	generate	Run2	generate/STIM_001.jpg	99
922.143	2.14	2139.9	generate	Run2	generate/STIM_001.jpg	99
927.271	1.446	1446.4	generate	Run2	generate/STIM_001.jpg	100
932.071	1.925	1925.3	generate	Run2	generate/STIM_001.jpg	100
936.963	1.549	1549.1	generate	Run2	generate/STIM_002.jpg	100
941.117	1.655	1655.0	generate	Run2	generate/STIM_002.jpg	99
946.72	1.152	1152.3	generate	Run2	generate/STIM_002.jpg	100
950.823	1.275	1275.4	generate	Run2	generate/STIM_002.jpg	99
955.776	1.138	1138.2	generate	Run2	generate/STIM_002.jpg	99
959.086	1.905	1904.8	generate	Run2	generate/STIM_003.jpg	100
964.554	2.205	2204.9	generate	Run2	generate/STIM_003.jpg	99
969.754	1.364	1364.2	generate	Run2	generate/STIM_003.jpg	100
973.29	0.94	939.7	generate	Run2	generate/STIM_003.jpg	99
976.834	1.293	1292.6	generate	Run2	generate/STIM_003.jpg	100
981.767	1.432	1431.5	generate	Run2	generate/STIM_004.jpg	99
986.726	1.457	1457.2	generate	Run2	generate/STIM_004.jpg	100
990.739	1.658	1658.0	generate	Run2	generate/STIM_004.jpg	100
996.102	1.866	1866.3	generate	Run2	generate/STIM_004.jpg	99
1000.856	1.834	1833.5	generate	Run2	generate/STIM_004.jpg	100
1006.063	1.085	1084.6	generate	Run2	generate/STIM_005.jpg	99
1010.943	2.119	2119.0	generate	Run2	generate/STIM_005.jpg	99
1015.433	1.522	1522.4	generate	Run2	generate/STIM_005.jpg	100
1019.674	1.94	1940.4	generate	Run2	generate/STIM_005.jpg	99
1025.554	1.507	1507.3	generate	Run2	generate/STIM_005.jpg	99
1030.998	2.344	2344.5	generate	Run2	generate/STIM_006.jpg	99
1036.66	2.203	2203.3	generate	Run2	generate/STIM_006.jpg	100
1041.72	2.011	2011.4	generate	Run2	generate/STIM_006.jpg	100
1046.368	1.603	1603.0	generate	Run2	generate/STIM_006.jpg	99
1050.366	1.322	1322.3	generate	Run2	generate/STIM_006.jpg	100
1055.351	1.148	1148.1	generate	Run2	generate/STIM_007.jpg	99
1059.18	2.336	2336.1	generate	Run2	generate/STIM_007.jpg	99
1065.203	1.505	1504.6	generate	Run2	generate/STIM_007.jpg	100
1068.772	1.594	1593.9	generate	Run2	generate/STIM_007.jpg	99
1072.8	1.669	1668.8	generate	Run2	generate/STIM_007.jpg	99
1077.87	1.022	1022.5	generate	Run2	generate/STIM_008.jpg	100
1082.096	1.76	1760.5	generate	Run2	generate/STIM_008.jpg	99
1085.976	1.981	1980.8	generate	Run2	generate/STIM_008.jpg	100
1091.837	1.679	1679.2	generate	Run2	generate/STIM_008.jpg	100
1096.5	1.785	1785.1	generate	Run2	generate/STIM_008.jpg	99
1102.017	1.749	1748.8	generate	Run2	generate/STIM_009.jpg	99
1106.158	1.115	1114.6	generate	Run2	generate/STIM_009.jpg	100
1109.848	0.972	972.1	generate	Run2	generate/STIM_009.jpg	99
1113.257	1.851	1851.1	generate	Run2	generate/STIM_009.jpg	100
1119.125	1.411	1410.7	generate	Run2	generate/STIM_009.jpg	100
1122.705	1.409	1408.6	generate	Run2	generate/STIM_010.jpg	99
1128.049	1.604	1604.3	generate	Run2	generate/STIM_010.jpg	100
1133.013	1.186	1186.3	generate	Run2	generate/STIM_010.jpg	99
1136.418	1.081	1081.3	generate	Run2	generate/STIM_010.jpg	100
1141.221	0.829	829.0	generate	Run2	generate/STIM_010.jpg	100
1145.145	2.081	2080.8	generate	Run2	generate/STIM_011.jpg	100
1151.245	1.61	1609.7	generate	Run2	generate/STIM_011.jpg	100
1155.788	1.314	1314.3	generate	Run2	generate/STIM_011.jpg	100
1160.743	1.405	1404.7	generate	Run2	generate/STIM_011.jpg	99
1164.269	1.225	1225.3	generate	Run2	generate/STIM_011.jpg	100
1168.475	2.252	2251.7	generate	Run2	generate/STIM_012.jpg	99
1173.546	1.368	1368.2	generate	Run2	generate/STIM_012.jpg	99
1178.762	1.058	1057.5	generate	Run2	generate/STIM_012.jpg	100
1181.876	1.354	1353.6	generate	Run2	generate/STIM_012.jpg	99
1186.209	1.193	1192.8	generate	Run2	generate/STIM_012.jpg	99
1190.578	2.3	2300.0	generate	Run2	generate/STIM_013.jpg	99
1195.031	1.227	1227.1	generate	Run2	generate/STIM_013.jpg	99
1198.592	1.531	1530.9	generate	Run2	generate/STIM_013.jpg	99
1202.46	0.925	924.9	generate	Run2	generate/STIM_013.jpg	99
1206.569	1.524	1524.4	generate	Run2	generate/STIM_013.jpg	100
1211.432	2.339	2339.0	generate	Run2	generate/STIM_014.jpg	99
1217.129	1.13	1129.8	generate	Run2	generate/STIM_014.jpg	100
1220.847	1.233	1232.9	generate	Run2	generate/STIM_014.jpg	99
1224.74	1.634	1633.5	generate	Run2	generate/STIM_014.jpg	99
1229.181	1.852	1851.5	generate	Run2	generate/STIM_014.jpg	99
1233.091	1.388	1388.4	generate	Run2	generate/STIM_015.jpg	100
1236.918	1.573	1573.2	generate	Run2	generate/STIM_015.jpg	99
1241.316	1.359	1359.4	generate	Run2	generate/STIM_015.jpg	99
1245.259	0.92	919.7	generate	Run2	generate/STIM_015.jpg	99
1249.832	1.315	1315.4	generate	Run2	generate/STIM_015.jpg	99
1254.066	2.486	2485.6	generate	Run2	generate/STIM_016.jpg	100
1260.554	1.291	1290.8	generate	Run2	generate/STIM_016.jpg	100
1265.124	1.716	1716.2	generate	Run2	generate/STIM_016.jpg	100
1270.719	1.676	1675.7	generate	Run2	generate/STIM_016.jpg	100
1275.339	1.376	1375.8	generate	Run2	generate/STIM_016.jpg	99
1278.964	1.404	1403.8	generate	Run2	generate/STIM_017.jpg	99
1283.906	1.647	1647.1	generate	Run2	generate/STIM_017.jpg	99
1288.75	2.124	2124.0	generate	Run2	generate/STIM_017.jpg	99
1293.728	1.349	1349.2	generate	Run2	generate/STIM_017.jpg	99
1298.234	0.969	969.0	generate	Run2	generate/STIM_017.jpg	99
1301.541	1.414	1414.4	generate	Run2	generate/STIM_018.jpg	99
1306.658	2.337	2337.2	generate	Run2	generate/STIM_018.jpg	100
1312.041	1.853	1853.4	generate	Run2	generate/STIM_018.jpg	100
1316.701	1.832	1831.5	generate	Run2	generate/STIM_018.jpg	99
1321.847	1.844	1843.9	generate	Run2	generate/STIM_018.jpg	100
1327.228	1.21	1209.6	generate	Run2	generate/STIM_019.jpg	99
1331.458	1.746	1745.5	generate	Run2	generate/STIM_019.jpg	99
1335.445	1.367	1366.8	generate	Run2	generate/STIM_019.jpg	100
1340.1	1.061	1061.2	generate	Run2	generate/STIM_019.jpg	99
1343.927	1.578	1577.8	generate	Run2	generate/STIM_019.jpg	99
1348.875	1.356	1356.0	generate	Run2	generate/STIM_020.jpg	99
1353.449	1.854	1853.9	generate	Run2	generate/STIM_020.jpg	100
1358.203	1.125	1125.0	generate	Run2	generate/STIM_020.jpg	99
1363.317	0.886	886.2	generate	Run2	generate/STIM_020.jpg	99
1367.445	2.027	2027.3	generate	Run2	generate/STIM_020.jpg	100
1373.44	2.103	2102.6	generate	Run2	generate/STIM_021.jpg	100
1377.632	2.162	2162.2	generate	Run2	generate/STIM_021.jpg	100
1383.465	0.922	921.9	generate	Run2	generate/STIM_021.jpg	100
1387.046	1.914	1914.1	generate	Run2	generate/STIM_021.jpg	99
1392.424	1.171	1171.1	generate	Run2	generate/STIM_021.jpg	100
1396.161	1.815	1815.2	generate	Run2	generate/STIM_022.jpg	100
1400.34	2.057	2056.8	generate	Run2	generate/STIM_022.jpg	100
1405.863	0.986	985.9	generate	Run2	generate/STIM_022.jpg	99
1410.034	1.996	1996.3	generate	Run2	generate/STIM_022.jpg	99
1415.094	1.095	1094.8	generate	Run2	generate/STIM_022.jpg	99
1418.367	1.937	1936.6	generate	Run2	generate/STIM_023.jpg	99
1423.769	1.333	1333.0	generate	Run2	generate/STIM_023.jpg	100
1427.54	1.591	1590.7	generate	Run2	generate/STIM_023.jpg	99
1431.804	1.269	1269.3	generate	Run2	generate/STIM_023.jpg	99
1436.944	0.858	857.5	generate	Run2	generate/STIM_023.jpg	99
1441.236	1.23	1230.5	generate	Run2	generate/STIM_024.jpg	100
1444.683	1.963	1963.1	generate	Run2	generate/STIM_024.jpg	99
1448.922	1.869	1868.7	generate	Run2	generate/STIM_024.jpg	100
1453.666	1.354	1354.0	generate	Run2	generate/STIM_024.jpg	100
1458.67	1.848	1848.4	generate	Run2	generate/STIM_024.jpg	99
1464.406	0.76	760.5	repeat	Run2	repeat/STIM_000.jpg	100
1468.672	0.679	679.0	repeat	Run2	repeat/STIM_000.jpg	99
1473.162	0.981	980.8	repeat	Run2	repeat/STIM_000.jpg	99
1477.373	0.822	822.2	repeat	Run2	repeat/STIM_000.jpg	99
1481.36	0.697	697.3	repeat	Run2	repeat/STIM_000.jpg	100
1485.127	0.886	886.2	repeat	Run2	repeat/STIM_001.jpg	99
1489.004	0.744	744.5	repeat	Run2	repeat/STIM_001.jpg	99
1492.896	0.602	601.5	repeat	Run2	repeat/STIM_001.jpg	99
1496.186	0.59	590.4	repeat	Run2	repeat/STIM_001.jpg	99
1500.765	0.821	820.9	repeat	Run2	repeat/STIM_001.jpg	100
1504.467	0.603	602.9	repeat	Run2	repeat/STIM_002.jpg	100
1508.448	0.557	556.8	repeat	Run2	repeat/STIM_002.jpg	100
1512.094	0.76	760.0	repeat	Run2	repeat/STIM_002.jpg	100
1516.575	0.62	620.1	repeat	Run2	repeat/STIM_002.jpg	100
1520.752	0.515	515.2	repeat	Run2	repeat/STIM_002.jpg	99
1524.156	0.896	895.6	repeat	Run2	repeat/STIM_003.jpg	100
1528.426	0.885	885.0	repeat	Run2	repeat/STIM_003.jpg	99
1531.771	0.895	894.9	repeat	Run2	repeat/STIM_003.jpg	100
1536.099	0.777	777.0	repeat	Run2	repeat/STIM_003.jpg	100
1539.199	0.669	668.8	repeat	Run2	repeat/STIM_003.jpg	100
1543.422	0.707	706.8	repeat	Run2	repeat/STIM_004.jpg	99
1547.011	0.942	942.1	repeat	Run2	repeat/STIM_004.jpg	99
1551.196	0.784	784.2	repeat	Run2	repeat/STIM_004.jpg	99
1554.807	0.548	548.3	repeat	Run2	repeat/STIM_004.jpg	99
1558.68	0.872	872.2	repeat	Run2	repeat/STIM_004.jpg	100
1563.076	0.755	754.6	repeat	Run2	repeat/STIM_005.jpg	100
1566.682	0.897	897.1	repeat	Run2	repeat/STIM_005.jpg	100
1570.244	0.65	650.5	repeat	Run2	repeat/STIM_005.jpg	100
1573.651	0.727	727.0	repeat	Run2	repeat/STIM_005.jpg	100
1576.947	0.625	624.8	repeat	Run2	repeat/STIM_005.jpg	99
1579.99	0.535	535.2	repeat	Run2	repeat/STIM_006.jpg	99
1582.587	0.724	724.2	repeat	Run2	repeat/STIM_006.jpg	99
1586.001	0.534	534.0	repeat	Run2	repeat/STIM_006.jpg	99
1590.228	0.933	933.1	repeat	Run2	repeat/STIM_006.jpg	100
1594.619	0.563	563.0	repeat	Run2	repeat/STIM_006.jpg	99
1597.783	0.564	564.5	repeat	Run2	repeat/STIM_007.jpg	99
1601.62	0.898	898.4	repeat	Run2	repeat/STIM_007.jpg	99
1605.705	0.942	942.5	repeat	Run2	repeat/STIM_007.jpg	100
1609.031	0.913	912.6	repeat	Run2	repeat/STIM_007.jpg	100
1612.491	0.786	786.2	repeat	Run2	repeat/STIM_007.jpg	100
1615.992	0.561	560.7	repeat	Run2	repeat/STIM_008.jpg	100
1620.503	0.584	583.9	repeat	Run2	repeat/STIM_008.jpg	100
1623.319	0.831	831.3	repeat	Run2	repeat/STIM_008.jpg	99
1627.393	0.925	924.8	repeat	Run2	repeat/STIM_008.jpg	99
1631.149	0.938	938.2	repeat	Run2	repeat/STIM_008.jpg	100
1635.081	0.526	525.9	repeat	Run2	repeat/STIM_009.jpg	99
1638.216	0.622	621.6	repeat	Run2	repeat/STIM_009.jpg	99
1641.492	0.856	856.2	repeat	Run2	repeat/STIM_009.jpg	99
1646.361	0.617	617.4	repeat	Run2	repeat/STIM_009.jpg	100
1650.17	0.962	961.8	repeat	Run2	repeat/STIM_009.jpg	99
1655.01	0.625	625.4	repeat	Run2	repeat/STIM_010.jpg	100
1657.731	0.74	739.9	repeat	Run2	repeat/STIM_010.jpg	99
1661.659	0.608	608.3	repeat	Run2	repeat/STIM_010.jpg	100
1666.101	0.576	576.5	repeat	Run2	repeat/STIM_010.jpg	100
1669.741	0.589	588.6	repeat	Run2	repeat/STIM_010.jpg	100
1673.419	0.857	856.8	repeat	Run2	repeat/STIM_011.jpg	100
1677.932	0.848	848.4	repeat	Run2	repeat/STIM_011.jpg	99
1682.752	0.568	568.4	repeat	Run2	repeat/STIM_011.jpg	100
1685.332	0.81	810.4	repeat	Run2	repeat/STIM_011.jpg	100
1689.839	0.828	827.8	repeat	Run2	repeat/STIM_011.jpg	100
1693.148	0.976	976.5	repeat	Run2	repeat/STIM_012.jpg	100
1697.908	0.904	903.6	repeat	Run2	repeat/STIM_012.jpg	99
1701.331	0.578	578.2	repeat	Run2	repeat/STIM_012.jpg	99
1705.334	0.944	943.8	repeat	Run2	repeat/STIM_012.jpg	99
1708.381	0.839	838.7	repeat	Run2	repeat/STIM_012.jpg	99
1712.759	0.774	774.2	repeat	Run2	repeat/STIM_013.jpg	100
1716.567	0.592	591.8	repeat	Run2	repeat/STIM_013.jpg	100
1719.759	0.686	686.5	repeat	Run2	repeat/STIM_013.jpg	99
1724.166	0.881	881.1	repeat	Run2	repeat/STIM_013.jpg	100
1728.481	0.864	864.5	repeat	Run2	repeat/STIM_013.jpg	99
1732.902	0.942	942.1	repeat	Run2	repeat/STIM_014.jpg	99
1737.698	0.766	765.5	repeat	Run2	repeat/STIM_014.jpg	100
1740.934	0.517	517.0	repeat	Run2	repeat/STIM_014.jpg	99
1745.368	0.913	913.3	repeat	Run2	repeat/STIM_014.jpg	100
1748.315	0.802	802.2	repeat	Run2	repeat/STIM_014.jpg	99
1751.744	1.813	1813.3	generate	Run3	generate/STIM_000.jpg	100
1755.671	0.865	865.4	generate	Run3	generate/STIM_000.jpg	99
1760.255	0.974	973.6	generate	Run3	generate/STIM_000.jpg	100
1764.779	1.172	1172.2	generate	Run3	generate/STIM_000.jpg	99
1768.682	1.358	1358.1	generate	Run3	generate/STIM_000.jpg	100
1773.954	1.974	1973.6	generate	Run3	generate/STIM_001.jpg	99
1778.78	1.917	1917.0	generate	Run3	generate/STIM_001.jpg	100
1784.469	1.652	1651.8	generate	Run3	generate/STIM_001.jpg	99
1789.99	1.416	1415.8	generate	Run3	generate/STIM_001.jpg	100
1793.932	0.962	961.6	generate	Run3	generate/STIM_001.jpg	100
1798.71	1.806	1805.8	generate	Run3	generate/STIM_002.jpg	99
1802.915	0.847	847.1	generate	Run3	generate/STIM_002.jpg	100
1806.107	0.843	843.1	generate	Run3	generate/STIM_002.jpg	100
1810.146	1.464	1464.5	generate	Run3	generate/STIM_002.jpg	100
1815.274	1.38	1380.5	generate	Run3	generate/STIM_002.jpg	100
1819.98	1.952	1951.6	generate	Run3	generate/STIM_003.jpg	99
1825.311	1.702	1701.6	generate	Run3	generate/STIM_003.jpg	99
1830.592	1.785	1784.6	generate	Run3	generate/STIM_003.jpg	100
1835.147	0.95	950.1	generate	Run3	generate/STIM_003.jpg	99
1839.42	1.757	1757.1	generate	Run3	generate/STIM_003.jpg	100
1843.656	1.822	1821.6	generate	Run3	generate/STIM_004.jpg	99
1848.743	1.262	1262.3	generate	Run3	generate/STIM_004.jpg	99
1852.959	1.273	1273.3	generate	Run3	generate/STIM_004.jpg	99
1857.651	0.873	872.6	generate	Run3	generate/STIM_004.jpg	99
1862.024	1.162	1161.6	generate	Run3	generate/STIM_004.jpg	100
1865.4	1.534	1533.7	generate	Run3	generate/STIM_005.jpg	100
1869.404	1.691	1691.0	generate	Run3	generate/STIM_005.jpg	99
1874.219	0.856	856.0	generate	Run3	generate/STIM_005.jpg	99
1877.134	0.843	843.0	generate	Run3	generate/STIM_005.jpg	99
1880.63	1.704	1703.7	generate	Run3	generate/STIM_005.jpg	100
1886.298	1.642	1641.7	generate	Run3	generate/STIM_006.jpg	99
1890.473	1.591	1591.4	generate	Run3	generate/STIM_006.jpg	100
1895.139	1.909	1909.2	generate	Run3	generate/STIM_006.jpg	100
1899.996	1.083	1083.0	generate	Run3	generate/STIM_006.jpg	100
1904.408	1.504	1503.9	generate	Run3	generate/STIM_006.jpg	100
1908.978	1.891	1891.0	generate	Run3	generate/STIM_007.jpg	99
1913.727	1.385	1384.7	generate	Run3	generate/STIM_007.jpg	99
1918.385	1.268	1268.5	generate	Run3	generate/STIM_007.jpg	100
1923.641	1.163	1162.7	generate	Run3	generate/STIM_007.jpg	99
1928.668	1.101	1101.1	generate	Run3	generate/STIM_007.jpg	99
1933.523	2.016	2015.7	generate	Run3	generate/STIM_008.jpg	100
1938.741	2.023	2023.0	generate	Run3	generate/STIM_008.jpg	99
1944.443	0.962	962.3	generate	Run3	generate/STIM_008.jpg	99
1947.745	2.03	2030.1	generate	Run3	generate/STIM_008.jpg	100
1953.067	1.534	1533.7	generate	Run3	generate/STIM_008.jpg	99
1957.74	1.936	1935.7	generate	Run3	generate/STIM_009.jpg	100
1962.287	1.68	1680.1	generate	Run3	generate/STIM_009.jpg	99
1966.652	1.694	1693.8	generate	Run3	generate/STIM_009.jpg	100
1971.359	1.04	1039.8	generate	Run3	generate/STIM_009.jpg	100
1976.024	1.519	1519.2	generate	Run3	generate/STIM_009.jpg	99
1981.343	1.851	1851.0	generate	Run3	generate/STIM_010.jpg	100
1986.177	1.252	1252.2	generate	Run3	generate/STIM_010.jpg	100
1991.163	1.603	1603.1	generate	Run3	generate/STIM_010.jpg	100
1995.368	1.446	1445.7	generate	Run3	generate/STIM_010.jpg	99
2000.643	1.789	1789.3	generate	Run3	generate/STIM_010.jpg	99
2006.161	1.012	1011.6	generate	Run3	generate/STIM_011.jpg	99
2010.946	1.258	1257.7	generate	Run3	generate/STIM_011.jpg	99
2015.234	0.884	884.3	generate	Run3	generate/STIM_011.jpg	99
2019.158	1.936	1935.9	generate	Run3	generate/STIM_011.jpg	100
2023.802	1.476	1476.5	generate	Run3	generate/STIM_011.jpg	99
2028.6	1.694	1693.9	generate	Run3	generate/STIM_012.jpg	99
2032.536	0.878	877.9	generate	Run3	generate/STIM_012.jpg	99
2035.438	1.88	1880.1	generate	Run3	generate/STIM_012.jpg	99
2040.095	1.076	1076.2	generate	Run3	generate/STIM_012.jpg	99
2043.565	1.246	1246.3	generate	Run3	generate/STIM_012.jpg	99
2047.476	0.899	899.2	generate	Run3	generate/STIM_013.jpg	99
2052.152	1.642	1642.0	generate	Run3	generate/STIM_013.jpg	100
2057.548	0.95	950.2	generate	Run3	generate/STIM_013.jpg	99
2060.725	1.894	1894.1	generate	Run3	generate/STIM_013.jpg	99
2066.05	1.227	1227.4	generate	Run3	generate/STIM_013.jpg	100
2070.054	1.82	1820.5	generate	Run3	generate/STIM_014.jpg	99
2074.025	1.655	1654.9	generate	Run3	generate/STIM_014.jpg	100
2079.149	1.847	1847.4	generate	Run3	generate/STIM_014.jpg	99
2083.106	1.252	1252.0	generate	Run3	generate/STIM_014.jpg	100
2087.491	1.021	1021.4	generate	Run3	generate/STIM_014.jpg	99
2092.467	1.883	1882.6	generate	Run3	generate/STIM_015.jpg	100
2096.847	2.027	2027.4	generate	Run3	generate/STIM_015.jpg	99
2102.618	0.848	847.5	generate	Run3	generate/STIM_015.jpg	100
2106.778	1.226	1226.5	generate	Run3	generate/STIM_015.jpg	99
2111.991	1.333	1332.7	generate	Run3	generate/STIM_015.jpg	100
2117.195	1.005	1005.4	generate	Run3	generate/STIM_016.jpg	100
2120.406	2.033	2032.5	generate	Run3	generate/STIM_016.jpg	99
2126.012	1.378	1378.5	generate	Run3	generate/STIM_016.jpg	99
2131.17	1.247	1246.8	generate	Run3	generate/STIM_016.jpg	100
2135.051	0.863	862.8	generate	Run3	generate/STIM_016.jpg	99
2139.127	0.923	923.4	generate	Run3	generate/STIM_017.jpg	100
2142.95	1.884	1884.3	generate	Run3	generate/STIM_017.jpg	100
2147.988	1.006	1006.1	generate	Run3	generate/STIM_017.jpg	99
2152.754	0.966	966.0	generate	Run3	generate/STIM_017.jpg	99
2157.689	1.022	1022.4	generate	Run3	generate/STIM_017.jpg	100
2161.051	1.664	1663.8	generate	Run3	generate/STIM_018.jpg	100
2165.302	1.727	1726.7	generate	Run3	generate/STIM_018.jpg	100
2170.139	0.895	895.2	generate	Run3	generate/STIM_018.jpg	100
2174.334	1.857	1856.9	generate	Run3	generate/STIM_018.jpg	99
2178.617	1.024	1024.0	generate	Run3	generate/STIM_018.jpg	99
2183.62	1.591	1591.3	generate	Run3	generate/STIM_019.jpg	100
2188.377	1.872	1871.6	generate	Run3	generate/STIM_019.jpg	99
2193.373	1.91	1910.5	generate	Run3	generate/STIM_019.jpg	99
2197.921	2.029	2029.4	generate	Run3	generate/STIM_019.jpg	100
2202.414	1.792	1791.6	generate	Run3	generate/STIM_019.jpg	99
2206.445	1.81	1810.5	generate	Run3	generate/STIM_020.jpg	100
2212.27	1.709	1709.2	generate	Run3	generate/STIM_020.jpg	99
2216.29	0.99	990.0	generate	Run3	generate/STIM_020.jpg	100
2221.169	1.368	1368.2	generate	Run3	generate/STIM_020.jpg	99
2224.863	1.416	1416.4	generate	Run3	generate/STIM_020.jpg	99
2228.699	1.71	1709.8	generate	Run3	generate/STIM_021.jpg	99
2232.535	1.533	1533.0	generate	Run3	generate/STIM_021.jpg	100
2236.142	1.004	1004.4	generate	Run3	generate/STIM_021.jpg	100
2240.109	0.865	865.2	generate	Run3	generate/STIM_021.jpg	100
2243.616	0.831	831.1	generate	Run3	generate/STIM_021.jpg	100
2247.742	1.996	1995.5	generate	Run3	generate/STIM_022.jpg	99
2252.186	1.124	1123.7	generate	Run3	generate/STIM_022.jpg	99
2256.156	1.685	1685.4	generate	Run3	generate/STIM_022.jpg	100
2260.485	1.668	1668.2	generate	Run3	generate/STIM_022.jpg	100
2264.928	1.243	1243.1	generate	Run3	generate/STIM_022.jpg	100
2269.168	1.439	1439.2	generate	Run3	generate/STIM_023.jpg	100
2273.928	1.386	1385.9	generate	Run3	generate/STIM_023.jpg	100
2277.915	0.86	860.4	generate	Run3	generate/STIM_023.jpg	100
2281.651	1.954	1953.7	generate	Run3	generate/STIM_023.jpg	99
2285.96	1.223	1223.4	generate	Run3	generate/STIM_023.jpg	99
2290.827	1.718	1718.5	generate	Run3	generate/STIM_024.jpg	99
2295.047	1.279	1279.4	generate	Run3	generate/STIM_024.jpg	99
2298.992	1.858	1858.1	generate	Run3	generate/STIM_024.jpg	100
2304.81	1.454	1453.6	generate	Run3	generate/STIM_024.jpg	99
2310.184	1.547	1547.2	generate	Run3	generate/STIM_024.jpg	100
2315.601	0.587	586.8	repeat	Run3	repeat/STIM_000.jpg	100
2320.077	0.635	634.7	repeat	Run3	repeat/STIM_000.jpg	99
2324.065	0.622	622.3	repeat	Run3	repeat/STIM_000.jpg	100
2328.507	0.634	633.8	repeat	Run3	repeat/STIM_000.jpg	99
2332.703	0.655	654.9	repeat	Run3	repeat/STIM_000.jpg	99
2337.074	0.627	627.0	repeat	Run3	repeat/STIM_001.jpg	100
2340.642	0.632	631.7	repeat	Run3	repeat/STIM_001.jpg	99
2345.116	0.835	834.8	repeat	Run3	repeat/STIM_001.jpg	100
2349.933	0.533	532.9	repeat	Run3	repeat/STIM_001.jpg	100
2353.016	0.543	542.7	repeat	Run3	repeat/STIM_001.jpg	99
2356.962	0.74	739.5	repeat	Run3	repeat/STIM_002.jpg	100
2359.879	0.666	665.7	repeat	Run3	repeat/STIM_002.jpg	100
2363.864	0.503	502.7	repeat	Run3	repeat/STIM_002.jpg	99
2367.337	0.726	725.8	repeat	Run3	repeat/STIM_002.jpg	99
2370.368	0.943	942.8	repeat	Run3	repeat/STIM_002.jpg	100
2374.912	0.629	628.6	repeat	Run3	repeat/STIM_003.jpg	100
2379.236	0.527	527.1	repeat	Run3	repeat/STIM_003.jpg	100
2383.23	0.902	902.5	repeat	Run3	repeat/STIM_003.jpg	100
2387.095	0.886	885.8	repeat	Run3	repeat/STIM_003.jpg	100
2390.951	0.567	567.1	repeat	Run3	repeat/STIM_003.jpg	100
2395.253	0.582	582.0	repeat	Run3	repeat/STIM_004.jpg	99
2398.816	0.956	955.6	repeat	Run3	repeat/STIM_004.jpg	99
2402.799	0.857	857.1	repeat	Run3	repeat/STIM_004.jpg	100
2406.085	0.95	949.9	repeat	Run3	repeat/STIM_004.jpg	99
2410.069	0.692	692.1	repeat	Run3	repeat/STIM_004.jpg	99
2412.855	0.783	782.7	repeat	Run3	repeat/STIM_005.jpg	99
2416.834	0.978	977.5	repeat	Run3	repeat/STIM_005.jpg	99
2421.421	0.821	820.6	repeat	Run3	repeat/STIM_005.jpg	99
2424.317	0.681	680.9	repeat	Run3	repeat/STIM_005.jpg	99
2428.836	0.526	525.9	repeat	Run3	repeat/STIM_005.jpg	100
2431.507	0.905	905.0	repeat	Run3	repeat/STIM_006.jpg	99
2436.044	0.67	669.5	repeat	Run3	repeat/STIM_006.jpg	100
2439.838	0.961	961.1	repeat	Run3	repeat/STIM_006.jpg	100
2443.938	0.639	639.2	repeat	Run3	repeat/STIM_006.jpg	99
2447.976	0.709	709.4	repeat	Run3	repeat/STIM_006.jpg	100
2451.759	0.638	638.5	repeat	Run3	repeat/STIM_007.jpg	99
2455.156	0.575	575.4	repeat	Run3	repeat/STIM_007.jpg	100
2458.785	0.753	753.2	repeat	Run3	repeat/STIM_007.jpg	99
2463.085	0.976	976.1	repeat	Run3	repeat/STIM_007.jpg	100
2467.117	0.68	679.8	repeat	Run3	repeat/STIM_007.jpg	99
2470.466	0.616	615.7	repeat	Run3	repeat/STIM_008.jpg	99
2474.889	0.899	899.2	repeat	Run3	repeat/STIM_008.jpg	100
2477.915	0.638	637.5	repeat	Run3	repeat/STIM_008.jpg	100
2480.585	0.713	712.6	repeat	Run3	repeat/STIM_008.jpg	100
2484.448	0.519	518.6	repeat	Run3	repeat/STIM_008.jpg	99
2488.767	0.754	753.5	repeat	Run3	repeat/STIM_009.jpg	100
2491.749	0.962	961.6	repeat	Run3	repeat/STIM_009.jpg	99
2496.169	0.566	565.7	repeat	Run3	repeat/STIM_009.jpg	100
2499.11	0.862	861.9	repeat	Run3	repeat/STIM_009.jpg	100
2503.916	0.714	714.5	repeat	Run3	repeat/STIM_009.jpg	100
2508.602	0.791	791.1	repeat	Run3	repeat/STIM_010.jpg	99
2512.326	0.789	788.9	repeat	Run3	repeat/STIM_010.jpg	99
2515.868	0.623	623.1	repeat	Run3	repeat/STIM_010.jpg	100
2520.218	0.492	492.1	repeat	Run3	repeat/STIM_010.jpg	100
2524.692	0.591	591.2	repeat	Run3	repeat/STIM_010.jpg	99
2528.455	0.556	556.3	repeat	Run3	repeat/STIM_011.jpg	99
2531.411	0.631	630.6	repeat	Run3	repeat/STIM_011.jpg	100
2535.054	0.676	675.5	repeat	Run3	repeat/STIM_011.jpg	99
2538.097	0.598	598.3	repeat	Run3	repeat/STIM_011.jpg	99
2542.388	0.905	905.1	repeat	Run3	repeat/STIM_011.jpg	99
2547.07	0.922	922.3	repeat	Run3	repeat/STIM_012.jpg	99
2551.887	0.496	495.7	repeat	Run3	repeat/STIM_012.jpg	100
2555.686	0.86	859.9	repeat	Run3	repeat/STIM_012.jpg	100
2559.248	0.816	815.7	repeat	Run3	repeat/STIM_012.jpg	99
2563.284	0.968	967.5	repeat	Run3	repeat/STIM_012.jpg	100
2566.73	0.971	971.4	repeat	Run3	repeat/STIM_013.jpg	99
2570.298	0.934	934.3	repeat	Run3	repeat/STIM_013.jpg	100
2574.839	0.746	745.5	repeat	Run3	repeat/STIM_013.jpg	99
2578.82	0.828	827.9	repeat	Run3	repeat/STIM_013.jpg	99
2583.416	0.684	684.3	repeat	Run3	repeat/STIM_013.jpg	99
2586.258	0.651	651.0	repeat	Run3	repeat/STIM_014.jpg	99
2589.57	0.738	738.4	repeat	Run3	repeat/STIM_014.jpg	100
2592.639	0.695	695.1	repeat	Run3	repeat/STIM_014.jpg	100
2595.445	0.759	758.8	repeat	Run3	repeat/STIM_014.jpg	100
2598.364	0.503	503.3	repeat	Run3	repeat/STIM_014.jpg	99
2601.148	1.87	1869.7	generate	Run4	generate/STIM_000.jpg	99
2606.047	1.246	1246.5	generate	Run4	generate/STIM_000.jpg	99
2610.105	1.057	1057.1	generate	Run4	generate/STIM_000.jpg	99
2613.404	1.959	1959.3	generate	Run4	generate/STIM_000.jpg	99
2617.952	0.83	830.3	generate	Run4	generate/STIM_000.jpg	100
2621.348	1.806	1806.0	generate	Run4	generate/STIM_001.jpg	100
2625.847	1.761	1761.0	generate	Run4	generate/STIM_001.jpg	100
2630.325	1.987	1986.8	generate	Run4	generate/STIM_001.jpg	100
2635.317	1.347	1347.4	generate	Run4	generate/STIM_001.jpg	99
2639.087	1.822	1822.0	generate	Run4	generate/STIM_001.jpg	100
2644.729	1.022	1021.5	generate	Run4	generate/STIM_002.jpg	99
2648.131	1.766	1765.9	generate	Run4	generate/STIM_002.jpg	99
2653.382	1.782	1782.3	generate	Run4	generate/STIM_002.jpg	100
2657.384	1.208	1207.5	generate	Run4	generate/STIM_002.jpg	99
2662.279	1.417	1417.3	generate	Run4	generate/STIM_002.jpg	100
2665.852	1.144	1143.8	generate	Run4	generate/STIM_003.jpg	100
2669.135	0.916	916.5	generate	Run4	generate/STIM_003.jpg	100
2672.301	1.221	1221.4	generate	Run4	generate/STIM_003.jpg	100
2676.8	1.066	1065.6	generate	Run4	generate/STIM_003.jpg	100
2681.801	1.011	1011.0	generate	Run4	generate/STIM_003.jpg	99
2686.187	0.854	854.4	generate	Run4	generate/STIM_004.jpg	100
2690.679	0.986	986.4	generate	Run4	generate/STIM_004.jpg	99
2694.175	1.142	1141.8	generate	Run4	generate/STIM_004.jpg	99
2698.661	0.907	907.1	generate	Run4	generate/STIM_004.jpg	99
2703.083	0.903	902.8	generate	Run4	generate/STIM_004.jpg	99
2707.7	1.215	1215.3	generate	Run4	generate/STIM_005.jpg	100
2711.848	1.656	1655.8	generate	Run4	generate/STIM_005.jpg	100
2716.663	0.937	936.8	generate	Run4	generate/STIM_005.jpg	100
2721.144	2.01	2010.0	generate	Run4	generate/STIM_005.jpg	99
2726.172	1.98	1979.5	generate	Run4	generate/STIM_005.jpg	100
2730.524	1.474	1473.9	generate	Run4	generate/STIM_006.jpg	100
2735.171	1.642	1642.2	generate	Run4	generate/STIM_006.jpg	100
2740.555	1.365	1364.6	generate	Run4	generate/STIM_006.jpg	100
2744.958	0.968	968.3	generate	Run4	generate/STIM_006.jpg	99
2748.269	1.799	1799.0	generate	Run4	generate/STIM_006.jpg	99
2752.696	1.182	1181.8	generate	Run4	generate/STIM_007.jpg	100
2755.943	1.136	1135.8	generate	Run4	generate/STIM_007.jpg	99
2760.126	1.167	1166.8	generate	Run4	generate/STIM_007.jpg	100
2764.021	1.816	1816.0	generate	Run4	generate/STIM_007.jpg	100
2769.472	1.125	1125.1	generate	Run4	generate/STIM_007.jpg	100
2773.481	1.411	1410.8	generate	Run4	generate/STIM_008.jpg	99
2778.365	1.149	1149.3	generate	Run4	generate/STIM_008.jpg	99
2783.273	0.983	983.1	generate	Run4	generate/STIM_008.jpg	100
2786.545	1.318	1318.4	generate	Run4	generate/STIM_008.jpg	100
2791.602	2.02	2020.3	generate	Run4	generate/STIM_008.jpg	100
2796.303	0.978	977.6	generate	Run4	generate/STIM_009.jpg	99
2799.993	1.02	1019.8	generate	Run4	generate/STIM_009.jpg	99
2804.467	1.218	1218.3	generate	Run4	generate/STIM_009.jpg	99
2809.409	0.998	997.7	generate	Run4	generate/STIM_009.jpg	99
2813.941	1.119	1118.8	generate	Run4	generate/STIM_009.jpg	100
2818.738	1.318	1317.7	generate	Run4	generate/STIM_010.jpg	99
2823.377	1.404	1404.4	generate	Run4	generate/STIM_010.jpg	99
2827.052	2.047	2046.6	generate	Run4	generate/STIM_010.jpg	100
2832.834	0.88	879.5	generate	Run4	generate/STIM_010.jpg	99
2836.45	1.155	1155.0	generate	Run4	generate/STIM_010.jpg	100
2841.595	2.037	2036.8	generate	Run4	generate/STIM_011.jpg	100
2845.757	1.881	1880.8	generate	Run4	generate/STIM_011.jpg	99
2850.903	1.423	1422.7	generate	Run4	generate/STIM_011.jpg	100
2856.282	1.135	1134.6	generate	Run4	generate/STIM_011.jpg	100
2859.904	1.787	1787.3	generate	Run4	generate/STIM_011.jpg	99
2864.633	1.186	1186.0	generate	Run4	generate/STIM_012.jpg	100
2868.559	1.971	1970.7	generate	Run4	generate/STIM_012.jpg	99
2872.937	2.045	2045.0	generate	Run4	generate/STIM_012.jpg	99
2878.804	2.014	2014.4	generate	Run4	generate/STIM_012.jpg	100
2882.904	0.995	994.7	generate	Run4	generate/STIM_012.jpg	100
2886.23	1.062	1062.5	generate	Run4	generate/STIM_013.jpg	100
2890.049	1.697	1696.6	generate	Run4	generate/STIM_013.jpg	99
2894.358	1.93	1930.5	generate	Run4	generate/STIM_013.jpg	99
2898.399	1.152	1152.0	generate	Run4	generate/STIM_013.jpg	100
2903.266	2.024	2024.3	generate	Run4	generate/STIM_013.jpg	99
2908.635	1.936	1936.0	generate	Run4	generate/STIM_014.jpg	100
2913.463	1.622	1621.7	generate	Run4	generate/STIM_014.jpg	99
2919.078	1.138	1138.5	generate	Run4	generate/STIM_014.jpg	100
2923.441	1.021	1021.2	generate	Run4	generate/STIM_014.jpg	100
2926.548	1.029	1029.1	generate	Run4	generate/STIM_014.jpg	99
2930.986	2.021	2021.1	generate	Run4	generate/STIM_015.jpg	99
2936.517	1.432	1431.9	generate	Run4	generate/STIM_015.jpg	100
2940.453	1.268	1268.1	generate	Run4	generate/STIM_015.jpg	99
2943.807	1.189	1189.3	generate	Run4	generate/STIM_015.jpg	99
2948.78	0.855	855.2	generate	Run4	generate/STIM_015.jpg	100
2952.141	1.039	1039.4	generate	Run4	generate/STIM_016.jpg	99
2956.373	1.853	1853.4	generate	Run4	generate/STIM_016.jpg	100
2961.538	1.583	1582.7	generate	Run4	generate/STIM_016.jpg	100
2965.654	1.829	1828.7	generate	Run4	generate/STIM_016.jpg	99
2971.143	0.831	831.0	generate	Run4	generate/STIM_016.jpg	99
2974.874	1.358	1358.0	generate	Run4	generate/STIM_017.jpg	99
2978.52	1.73	1730.2	generate	Run4	generate/STIM_017.jpg	99
2983.973	1.883	1883.2	generate	Run4	generate/STIM_017.jpg	100
2988.266	2.062	2061.9	generate	Run4	generate/STIM_017.jpg	99
2992.74	1.435	1434.7	generate	Run4	generate/STIM_017.jpg	100
2997.51	1.597	1597.0	generate	Run4	generate/STIM_018.jpg	100
3002.61	1.177	1176.7	generate	Run4	generate/STIM_018.jpg	100
3006.654	1.136	1136.2	generate	Run4	generate/STIM_018.jpg	99
3010.842	1.291	1291.4	generate	Run4	generate/STIM_018.jpg	100
3015.757	1.936	1936.4	generate	Run4	generate/STIM_018.jpg	99
3020.057	1.6	1600.2	generate	Run4	generate/STIM_019.jpg	99
3025.229	0.852	851.8	generate	Run4	generate/STIM_019.jpg	100
3029.446	1.058	1058.3	generate	Run4	generate/STIM_019.jpg	99
3034.485	1.947	1946.6	generate	Run4	generate/STIM_019.jpg	99
3040.197	1.096	1096.0	generate	Run4	generate/STIM_019.jpg	99
3043.494	1.447	1446.7	generate	Run4	generate/STIM_020.jpg	99
3047.029	1.491	1491.0	generate	Run4	generate/STIM_020.jpg	100
3051.773	1.808	1808.4	generate	Run4	generate/STIM_020.jpg	99
3056.376	0.989	989.4	generate	Run4	generate/STIM_020.jpg	99
3061.242	0.962	962.0	generate	Run4	generate/STIM_020.jpg	100
3065.852	1.015	1014.6	generate	Run4	generate/STIM_021.jpg	99
3069.268	1.846	1846.3	generate	Run4	generate/STIM_021.jpg	99
3074.953	1.298	1297.7	generate	Run4	generate/STIM_021.jpg	100
3078.411	1.865	1864.7	generate	Run4	generate/STIM_021.jpg	99
3082.405	1.507	1506.9	generate	Run4	generate/STIM_021.jpg	99
3086.034	1.921	1921.1	generate	Run4	generate/STIM_022.jpg	99
3090.191	1.553	1553.0	generate	Run4	generate/STIM_022.jpg	99
3095.516	1.575	1574.8	generate	Run4	generate/STIM_022.jpg	100
3100.928	1.323	1322.9	generate	Run4	generate/STIM_022.jpg	100
3105.494	1.572	1572.1	generate	Run4	generate/STIM_022.jpg	99
3109.507	2.054	2054.1	generate	Run4	generate/STIM_023.jpg	99
3114.242	1.274	1274.4	generate	Run4	generate/STIM_023.jpg	99
3118.235	1.932	1932.5	generate	Run4	generate/STIM_023.jpg	99
3123.927	0.956	956.5	generate	Run4	generate/STIM_023.jpg	99
3126.927	1.48	1480.5	generate	Run4	generate/STIM_023.jpg	100
3131.578	1.066	1065.7	generate	Run4	generate/STIM_024.jpg	100
3135.257	1.392	1392.3	generate	Run4	generate/STIM_024.jpg	99
3138.788	1.145	1144.6	generate	Run4	generate/STIM_024.jpg	99
3143.639	1.5	1500.1	generate	Run4	generate/STIM_024.jpg	99
3148.797	1.445	1445.4	generate	Run4	generate/STIM_024.jpg	100
3153.392	0.935	935.1	repeat	Run4	repeat/STIM_000.jpg	99
3156.83	0.494	494.2	repeat	Run4	repeat/STIM_000.jpg	99
3160.439	0.589	588.6	repeat	Run4	repeat/STIM_000.jpg	100
3164.174	0.759	759.0	repeat	Run4	repeat/STIM_000.jpg	100
3168.851	0.911	911.0	repeat	Run4	repeat/STIM_000.jpg	100
3172.405	0.517	516.9	repeat	Run4	repeat/STIM_001.jpg	99
3175.454	0.821	821.2	repeat	Run4	repeat/STIM_001.jpg	99
3179.518	0.519	519.1	repeat	Run4	repeat/STIM_001.jpg	100
3182.325	0.911	910.9	repeat	Run4	repeat/STIM_001.jpg	99
3185.826	0.84	840.2	repeat	Run4	repeat/STIM_001.jpg	100
3188.939	0.597	597.3	repeat	Run4	repeat/STIM_002.jpg	99
3192.623	0.761	760.6	repeat	Run4	repeat/STIM_002.jpg	99
3196.252	0.715	715.0	repeat	Run4	repeat/STIM_002.jpg	100
3199.886	0.528	528.2	repeat	Run4	repeat/STIM_002.jpg	99
3203.092	0.708	707.5	repeat	Run4	repeat/STIM_002.jpg	100
3206.25	0.76	760.0	repeat	Run4	repeat/STIM_003.jpg	100
3210.177	0.663	662.9	repeat	Run4	repeat/STIM_003.jpg	100
3213.789	0.77	769.9	repeat	Run4	repeat/STIM_003.jpg	100
3218.157	0.636	636.5	repeat	Run4	repeat/STIM_003.jpg	99
3220.906	0.674	674.1	repeat	Run4	repeat/STIM_003.jpg	100
3225.104	0.858	858.3	repeat	Run4	repeat/STIM_004.jpg	100
3228.644	0.968	967.8	repeat	Run4	repeat/STIM_004.jpg	99
3232.05	0.704	704.3	repeat	Run4	repeat/STIM_004.jpg	99
3234.781	0.766	766.0	repeat	Run4	repeat/STIM_004.jpg	100
3239.237	0.5	499.8	repeat	Run4	repeat/STIM_004.jpg	99
3242.347	0.528	528.2	repeat	Run4	repeat/STIM_005.jpg	99
3245.579	0.713	713.0	repeat	Run4	repeat/STIM_005.jpg	100
3248.945	0.742	741.8	repeat	Run4	repeat/STIM_005.jpg	100
3253.256	0.923	923.1	repeat	Run4	repeat/STIM_005.jpg	100
3257.04	0.744	744.2	repeat	Run4	repeat/STIM_005.jpg	100
3260.615	0.654	654.1	repeat	Run4	repeat/STIM_006.jpg	100
3264.006	0.525	525.3	repeat	Run4	repeat/STIM_006.jpg	100
3267.828	0.87	870.5	repeat	Run4	repeat/STIM_006.jpg	100
3271.455	0.834	834.1	repeat	Run4	repeat/STIM_006.jpg	99
3275.035	0.769	769.4	repeat	Run4	repeat/STIM_006.jpg	99
3278.919	0.899	898.6	repeat	Run4	repeat/STIM_007.jpg	99
3283.147	0.821	820.9	repeat	Run4	repeat/STIM_007.jpg	99
3285.994	0.797	796.8	repeat	Run4	repeat/STIM_007.jpg	100
3289.743	0.932	931.9	repeat	Run4	repeat/STIM_007.jpg	99
3292.999	0.836	836.1	repeat	Run4	repeat/STIM_007.jpg	99
3296.096	0.777	776.8	repeat	Run4	repeat/STIM_008.jpg	100
3300.016	0.772	772.2	repeat	Run4	repeat/STIM_008.jpg	99
3304.481	0.66	659.6	repeat	Run4	repeat/STIM_008.jpg	100
3307.508	0.742	742.2	repeat	Run4	repeat/STIM_008.jpg	99
3310.818	0.664	663.8	repeat	Run4	repeat/STIM_008.jpg	99
3314.3	0.722	721.9	repeat	Run4	repeat/STIM_009.jpg	100
3317.035	0.616	616.3	repeat	Run4	repeat/STIM_009.jpg	100
3320.692	0.809	809.0	repeat	Run4	repeat/STIM_009.jpg	100
3324.94	0.798	797.5	repeat	Run4	repeat/STIM_009.jpg	100
3328.989	0.78	780.4	repeat	Run4	repeat/STIM_009.jpg	100
3332.419	0.746	746.2	repeat	Run4	repeat/STIM_010.jpg	99
3336.685	0.902	902.1	repeat	Run4	repeat/STIM_010.jpg	100
3341.161	0.851	850.8	repeat	Run4	repeat/STIM_010.jpg	100
3344.778	0.757	756.8	repeat	Run4	repeat/STIM_010.jpg	99
3349.448	0.912	911.8	repeat	Run4	repeat/STIM_010.jpg	99
3352.41	0.63	629.7	repeat	Run4	repeat/STIM_011.jpg	100
3355.075	0.983	982.9	repeat	Run4	repeat/STIM_011.jpg	99
3358.138	0.747	747.4	repeat	Run4	repeat/STIM_011.jpg	100
3361.894	0.789	789.4	repeat	Run4	repeat/STIM_011.jpg	99
3365.276	0.768	767.5	repeat	Run4	repeat/STIM_011.jpg	100
3368.22	0.883	883.2	repeat	Run4	repeat/STIM_012.jpg	100
3372.889	0.766	766.0	repeat	Run4	repeat/STIM_012.jpg	99
3376.132	0.683	683.2	repeat	Run4	repeat/STIM_012.jpg	99
3379.214	0.834	834.5	repeat	Run4	repeat/STIM_012.jpg	99
3382.172	0.773	773.2	repeat	Run4	repeat/STIM_012.jpg	100
3386.679	0.743	742.6	repeat	Run4	repeat/STIM_013.jpg	100
3391.417	0.912	912.4	repeat	Run4	repeat/STIM_013.jpg	99
3396.15	0.638	638.2	repeat	Run4	repeat/STIM_013.jpg	99
3399.415	0.548	548.4	repeat	Run4	repeat/STIM_013.jpg	99
3402.837	0.651	651.1	repeat	Run4	repeat/STIM_013.jpg	100
3405.785	0.77	770.0	repeat	Run4	repeat/STIM_014.jpg	99
3409.575	0.974	973.6	repeat	Run4	repeat/STIM_014.jpg	100
3413.428	0.726	725.9	repeat	Run4	repeat/STIM_014.jpg	100
3416.961	0.634	634.2	repeat	Run4	repeat/STIM_014.jpg	99
3420.84	0.799	798.9	repeat	Run4	repeat/STIM_014.jpg	100
