onset	duration	accuracy	trial_type	learning_stage	stimulus
0.0	2.165	incorrect	generate	Run1	generate/STIM_000.jpg
6.055	2.116	correct	generate	Run1	generate/STIM_000.jpg
10.388	1.783	correct	generate	Run1	generate/STIM_000.jpg
15.383	1.942	correct	generate	Run1	generate/STIM_000.jpg
19.822	1.629	correct	generate	Run1	generate/STIM_000.jpg
24.253	1.84	correct	generate	Run1	generate/STIM_001.jpg
28.812	1.772	incorrect	generate	Run1	generate/STIM_001.jpg
33.349	2.566	correct	generate	Run1	generate/STIM_001.jpg
38.093	1.212	correct	generate	Run1	generate/STIM_001.jpg
42.624	1.561	correct	generate	Run1	generate/STIM_001.jpg
47.141	1.706	correct	generate	Run1	generate/STIM_002.jpg
51.986	2.774	correct	generate	Run1	generate/STIM_002.jpg
57.844	1.87	correct	generate	Run1	generate/STIM_002.jpg
62.87	1.434	incorrect	generate	Run1	generate/STIM_002.jpg
68.196	1.211	correct	generate	Run1	generate/STIM_002.jpg
72.518	1.556	correct	generate	Run1	generate/STIM_003.jpg
76.542	1.422	correct	generate	Run1	generate/STIM_003.jpg
80.339	2.409	correct	generate	Run1	generate/STIM_003.jpg
85.726	2.072	correct	generate	Run1	generate/STIM_003.jpg
90.961	1.881	correct	generate	Run1	generate/STIM_003.jpg
96.18	2.018	correct	generate	Run1	generate/STIM_004.jpg
101.11	2.084	incorrect	generate	Run1	generate/STIM_004.jpg
105.911	2.052	correct	generate	Run1	generate/STIM_004.jpg
111.235	1.183	correct	generate	Run1	generate/STIM_004.jpg
114.94	1.551	correct	generate	Run1	generate/STIM_004.jpg
118.965	2.9	correct	generate	Run1	generate/STIM_005.jpg
124.027	2.736	correct	generate	Run1	generate/STIM_005.jpg
130.131	1.51	correct	generate	Run1	generate/STIM_005.jpg
135.45	1.806	incorrect	generate	Run1	generate/STIM_005.jpg
140.033	2.089	correct	generate	Run1	generate/STIM_005.jpg
144.756	2.718	correct	generate	Run1	generate/STIM_006.jpg
149.761	1.618	correct	generate	Run1	generate/STIM_006.jpg
153.937	1.511	correct	generate	Run1	generate/STIM_006.jpg
158.511	2.48	correct	generate	Run1	generate/STIM_006.jpg
163.071	1.056	correct	generate	Run1	generate/STIM_006.jpg
166.738	1.511	correct	generate	Run1	generate/STIM_007.jpg
171.691	1.71	incorrect	generate	Run1	generate/STIM_007.jpg
177.359	2.421	incorrect	generate	Run1	generate/STIM_007.jpg
183.446	1.881	correct	generate	Run1	generate/STIM_007.jpg
187.512	1.224	correct	generate	Run1	generate/STIM_007.jpg
191.817	2.279	incorrect	generate	Run1	generate/STIM_008.jpg
197.402	2.762	incorrect	generate	Run1	generate/STIM_008.jpg
203.75	2.637	correct	generate	Run1	generate/STIM_008.jpg
209.636	1.009	correct	generate	Run1	generate/STIM_008.jpg
214.02	2.149	correct	generate	Run1	generate/STIM_008.jpg
218.849	1.657	correct	generate	Run1	generate/STIM_009.jpg
222.76	2.382	correct	generate	Run1	generate/STIM_009.jpg
228.333	2.512	correct	generate	Run1	generate/STIM_009.jpg
233.201	2.409	correct	generate	Run1	generate/STIM_009.jpg
239.293	1.5	correct	generate	Run1	generate/STIM_009.jpg
244.538	2.041	correct	generate	Run1	generate/STIM_010.jpg
249.826	1.59	correct	generate	Run1	generate/STIM_010.jpg
253.886	1.88	incorrect	generate	Run1	generate/STIM_010.jpg
259.393	2.205	correct	generate	Run1	generate/STIM_010.jpg
265.617	2.241	correct	generate	Run1	generate/STIM_010.jpg
270.341	2.844	incorrect	generate	Run1	generate/STIM_011.jpg
275.558	1.982	incorrect	generate	Run1	generate/STIM_011.jpg
279.783	1.462	correct	generate	Run1	generate/STIM_011.jpg
283.995	2.304	correct	generate	Run1	generate/STIM_011.jpg
289.0	1.535	correct	generate	Run1	generate/STIM_011.jpg
293.435	2.683	correct	generate	Run1	generate/STIM_012.jpg
299.304	1.973	correct	generate	Run1	generate/STIM_012.jpg
305.051	1.464	correct	generate	Run1	generate/STIM_012.jpg
309.439	1.686	incorrect	generate	Run1	generate/STIM_012.jpg
314.979	1.888	correct	generate	Run1	generate/STIM_012.jpg
320.521	1.181	correct	generate	Run1	generate/STIM_013.jpg
324.249	1.724	correct	generate	Run1	generate/STIM_013.jpg
328.438	1.354	correct	generate	Run1	generate/STIM_013.jpg
332.173	2.069	correct	generate	Run1	generate/STIM_013.jpg
337.015	1.579	incorrect	generate	Run1	generate/STIM_013.jpg
342.468	1.814	correct	generate	Run1	generate/STIM_014.jpg
348.172	1.176	correct	generate	Run1	generate/STIM_014.jpg
352.239	1.994	correct	generate	Run1	generate/STIM_014.jpg
356.532	1.078	correct	generate	Run1	generate/STIM_014.jpg
360.955	2.21	correct	generate	Run1	generate/STIM_014.jpg
366.491	2.043	incorrect	generate	Run1	generate/STIM_015.jpg
370.943	1.865	correct	generate	Run1	generate/STIM_015.jpg
376.232	1.108	correct	generate	Run1	generate/STIM_015.jpg
380.416	2.374	incorrect	generate	Run1	generate/STIM_015.jpg
385.775	2.283	incorrect	generate	Run1	generate/STIM_015.jpg
390.483	1.303	correct	generate	Run1	generate/STIM_016.jpg
393.908	1.296	incorrect	generate	Run1	generate/STIM_016.jpg
398.417	1.882	correct	generate	Run1	generate/STIM_016.jpg
402.637	1.274	correct	generate	Run1	generate/STIM_016.jpg
407.054	1.787	correct	generate	Run1	generate/STIM_016.jpg
412.631	2.448	correct	generate	Run1	generate/STIM_017.jpg
417.61	2.258	correct	generate	Run1	generate/STIM_017.jpg
423.081	2.246	correct	generate	Run1	generate/STIM_017.jpg
427.986	2.158	correct	generate	Run1	generate/STIM_017.jpg
434.135	1.772	correct	generate	Run1	generate/STIM_017.jpg
438.692	2.056	correct	generate	Run1	generate/STIM_018.jpg
444.228	2.352	incorrect	generate	Run1	generate/STIM_018.jpg
448.772	2.096	correct	generate	Run1	generate/STIM_018.jpg
454.742	1.387	correct	generate	Run1	generate/STIM_018.jpg
458.277	1.542	correct	generate	Run1	generate/STIM_018.jpg
463.08	1.284	correct	generate	Run1	generate/STIM_019.jpg
467.757	1.782	correct	generate	Run1	generate/STIM_019.jpg
471.877	2.592	incorrect	generate	Run1	generate/STIM_019.jpg
477.692	1.35	correct	generate	Run1	generate/STIM_019.jpg
482.932	1.177	correct	generate	Run1	generate/STIM_019.jpg
487.436	2.276	correct	generate	Run1	generate/STIM_020.jpg
492.118	2.444	correct	generate	Run1	generate/STIM_020.jpg
496.661	2.2	correct	generate	Run1	generate/STIM_020.jpg
502.717	1.825	correct	generate	Run1	generate/STIM_020.jpg
507.13	1.128	correct	generate	Run1	generate/STIM_020.jpg
510.549	2.677	correct	generate	Run1	generate/STIM_021.jpg
515.506	1.223	correct	generate	Run1	generate/STIM_021.jpg
519.996	1.485	incorrect	generate	Run1	generate/STIM_021.jpg
524.447	1.283	correct	generate	Run1	generate/STIM_021.jpg
528.17	1.881	incorrect	generate	Run1	generate/STIM_021.jpg
532.645	2.687	correct	generate	Run1	generate/STIM_022.jpg
538.446	2.177	correct	generate	Run1	generate/STIM_022.jpg
544.31	1.468	correct	generate	Run1	generate/STIM_022.jpg
549.196	1.66	correct	generate	Run1	generate/STIM_022.jpg
553.776	1.216	correct	generate	Run1	generate/STIM_022.jpg
557.766	2.576	correct	generate	Run1	generate/STIM_023.jpg
562.672	1.371	correct	generate	Run1	generate/STIM_023.jpg
566.263	2.391	correct	generate	Run1	generate/STIM_023.jpg
571.901	1.404	incorrect	generate	Run1	generate/STIM_023.jpg
575.395	0.987	correct	generate	Run1	generate/STIM_023.jpg
579.491	1.914	incorrect	generate	Run1	generate/STIM_024.jpg
584.232	2.649	correct	generate	Run1	generate/STIM_024.jpg
589.117	2.513	incorrect	generate	Run1	generate/STIM_024.jpg
595.101	1.84	correct	generate	Run1	generate/STIM_024.jpg
599.972	0.992	incorrect	generate	Run1	generate/STIM_024.jpg
604.366	0.847	correct	repeat	Run1	repeat/STIM_000.jpg
608.555	0.846	correct	repeat	Run1	repeat/STIM_000.jpg
612.647	0.689	correct	repeat	Run1	repeat/STIM_000.jpg
616.389	0.739	correct	repeat	Run1	repeat/STIM_000.jpg
620.599	0.93	correct	repeat	Run1	repeat/STIM_000.jpg
624.967	0.938	correct	repeat	Run1	repeat/STIM_001.jpg
628.612	0.504	correct	repeat	Run1	repeat/STIM_001.jpg
631.517	0.692	correct	repeat	Run1	repeat/STIM_001.jpg
635.521	0.622	correct	repeat	Run1	repeat/STIM_001.jpg
638.201	0.633	correct	repeat	Run1	repeat/STIM_001.jpg
642.513	0.958	correct	repeat	Run1	repeat/STIM_002.jpg
646.284	0.627	correct	repeat	Run1	repeat/STIM_002.jpg
650.067	0.628	correct	repeat	Run1	repeat/STIM_002.jpg
652.729	0.614	correct	repeat	Run1	repeat/STIM_002.jpg
656.768	0.787	correct	repeat	Run1	repeat/STIM_002.jpg
661.016	0.774	correct	repeat	Run1	repeat/STIM_003.jpg
665.26	0.661	correct	repeat	Run1	repeat/STIM_003.jpg
669.091	0.749	correct	repeat	Run1	repeat/STIM_003.jpg
672.382	0.689	correct	repeat	Run1	repeat/STIM_003.jpg
676.674	0.506	correct	repeat	Run1	repeat/STIM_003.jpg
680.543	0.7	correct	repeat	Run1	repeat/STIM_004.jpg
684.871	0.758	correct	repeat	Run1	repeat/STIM_004.jpg
688.686	0.535	correct	repeat	Run1	repeat/STIM_004.jpg
692.393	0.928	incorrect	repeat	Run1	repeat/STIM_004.jpg
696.264	0.563	correct	repeat	Run1	repeat/STIM_004.jpg
699.737	0.896	correct	repeat	Run1	repeat/STIM_005.jpg
704.396	0.962	correct	repeat	Run1	repeat/STIM_005.jpg
708.014	0.911	correct	repeat	Run1	repeat/STIM_005.jpg
711.511	0.963	correct	repeat	Run1	repeat/STIM_005.jpg
715.54	0.562	correct	repeat	Run1	repeat/STIM_005.jpg
718.578	0.771	correct	repeat	Run1	repeat/STIM_006.jpg
722.768	0.636	correct	repeat	Run1	repeat/STIM_006.jpg
726.851	0.672	correct	repeat	Run1	repeat/STIM_006.jpg
731.21	0.884	correct	repeat	Run1	repeat/STIM_006.jpg
735.615	0.795	correct	repeat	Run1	repeat/STIM_006.jpg
739.35	0.84	correct	repeat	Run1	repeat/STIM_007.jpg
743.736	0.765	correct	repeat	Run1	repeat/STIM_007.jpg
747.264	0.942	correct	repeat	Run1	repeat/STIM_007.jpg
750.45	0.946	correct	repeat	Run1	repeat/STIM_007.jpg
755.095	0.642	correct	repeat	Run1	repeat/STIM_007.jpg
758.234	0.694	correct	repeat	Run1	repeat/STIM_008.jpg
762.916	0.591	correct	repeat	Run1	repeat/STIM_008.jpg
767.113	0.699	correct	repeat	Run1	repeat/STIM_008.jpg
770.873	0.554	correct	repeat	Run1	repeat/STIM_008.jpg
773.991	0.652	correct	repeat	Run1	repeat/STIM_008.jpg
777.779	0.906	correct	repeat	Run1	repeat/STIM_009.jpg
781.35	0.803	correct	repeat	Run1	repeat/STIM_009.jpg
784.979	0.694	correct	repeat	Run1	repeat/STIM_009.jpg
789.361	0.635	correct	repeat	Run1	repeat/STIM_009.jpg
793.563	0.609	correct	repeat	Run1	repeat/STIM_009.jpg
796.199	0.735	correct	repeat	Run1	repeat/STIM_010.jpg
799.661	0.732	correct	repeat	Run1	repeat/STIM_010.jpg
803.055	0.847	correct	repeat	Run1	repeat/STIM_010.jpg
807.599	0.709	correct	repeat	Run1	repeat/STIM_010.jpg
811.781	0.924	correct	repeat	Run1	repeat/STIM_010.jpg
816.547	0.627	correct	repeat	Run1	repeat/STIM_011.jpg
820.231	0.584	correct	repeat	Run1	repeat/STIM_011.jpg
824.108	0.699	correct	repeat	Run1	repeat/STIM_011.jpg
827.224	0.58	correct	repeat	Run1	repeat/STIM_011.jpg
830.433	0.9	correct	repeat	Run1	repeat/STIM_011.jpg
834.107	0.511	incorrect	repeat	Run1	repeat/STIM_012.jpg
836.803	0.983	correct	repeat	Run1	repeat/STIM_012.jpg
840.078	0.861	correct	repeat	Run1	repeat/STIM_012.jpg
843.66	0.75	correct	repeat	Run1	repeat/STIM_012.jpg
847.068	0.793	correct	repeat	Run1	repeat/STIM_012.jpg
850.527	0.895	correct	repeat	Run1	repeat/STIM_013.jpg
854.86	0.951	correct	repeat	Run1	repeat/STIM_013.jpg
858.382	0.796	correct	repeat	Run1	repeat/STIM_013.jpg
861.542	0.675	correct	repeat	Run1	repeat/STIM_013.jpg
865.761	0.77	correct	repeat	Run1	repeat/STIM_013.jpg
869.727	0.75	incorrect	repeat	Run1	repeat/STIM_014.jpg
873.166	0.848	correct	repeat	Run1	repeat/STIM_014.jpg
877.187	0.582	incorrect	repeat	Run1	repeat/STIM_014.jpg
881.343	0.648	correct	repeat	Run1	repeat/STIM_014.jpg
885.572	0.659	correct	repeat	Run1	repeat/STIM_014.jpg
888.916	2.196	incorrect	generate	Run2	generate/STIM_000.jpg
894.506	1.675	correct	generate	Run2	generate/STIM_000.jpg
898.57	1.592	correct	generate	Run2	generate/STIM_000.jpg
902.826	1.327	correct	generate	Run2	generate/STIM_000.jpg
907.073	0.901	correct	generate	Run2	generate/STIM_000.jpg
911.801	1.75	correct	generate	Run2	generate/STIM_001.jpg
917.53	1.948	correct	generate	Run2	generate/STIM_001.jpg
922.143	2.14	correct	generate	Run2	generate/STIM_001.jpg
927.271	1.446	incorrect	generate	Run2	generate/STIM_001.jpg
932.071	1.925	correct	generate	Run2	generate/STIM_001.jpg
936.963	1.549	correct	generate	Run2	generate/STIM_002.jpg
941.117	1.655	correct	generate	Run2	generate/STIM_002.jpg
946.72	1.152	correct	generate	Run2	generate/STIM_002.jpg
950.823	1.275	correct	generate	Run2	generate/STIM_002.jpg
955.776	1.138	correct	generate	Run2	generate/STIM_002.jpg
959.086	1.905	incorrect	generate	Run2	generate/STIM_003.jpg
964.554	2.205	correct	generate	Run2	generate/STIM_003.jpg
969.754	1.364	correct	generate	Run2	generate/STIM_003.jpg
973.29	0.94	incorrect	generate	Run2	generate/STIM_003.jpg
976.834	1.293	correct	generate	Run2	generate/STIM_003.jpg
981.767	1.432	correct	generate	Run2	generate/STIM_004.jpg
986.726	1.457	incorrect	generate	Run2	generate/STIM_004.jpg
990.739	1.658	correct	generate	Run2	generate/STIM_004.jpg
996.102	1.866	correct	generate	Run2	generate/STIM_004.jpg
1000.856	1.834	correct	generate	Run2	generate/STIM_004.jpg
1006.063	1.085	correct	generate	Run2	generate/STIM_005.jpg
1010.943	2.119	correct	generate	Run2	generate/STIM_005.jpg
1015.433	1.522	correct	generate	Run2	generate/STIM_005.jpg
1019.674	1.94	correct	generate	Run2	generate/STIM_005.jpg
1025.554	1.507	correct	generate	Run2	generate/STIM_005.jpg
1030.998	2.344	correct	generate	Run2	generate/STIM_006.jpg
1036.66	2.203	incorrect	generate	Run2	generate/STIM_006.jpg
1041.72	2.011	correct	generate	Run2	generate/STIM_006.jpg
1046.368	1.603	correct	generate	Run2	generate/STIM_006.jpg
1050.366	1.322	correct	generate	Run2	generate/STIM_006.jpg
1055.351	1.148	correct	generate	Run2	generate/STIM_007.jpg
1059.18	2.336	correct	generate	Run2	generate/STIM_007.jpg
1065.203	1.505	correct	generate	Run2	generate/STIM_007.jpg
1068.772	1.594	correct	generate	Run2	generate/STIM_007.jpg
1072.8	1.669	incorrect	generate	Run2	generate/STIM_007.jpg
1077.87	1.022	correct	generate	Run2	generate/STIM_008.jpg
1082.096	1.76	correct	generate	Run2	generate/STIM_008.jpg
1085.976	1.981	correct	generate	Run2	generate/STIM_008.jpg
1091.837	1.679	correct	generate	Run2	generate/STIM_008.jpg
1096.5	1.785	correct	generate	Run2	generate/STIM_008.jpg
1102.017	1.749	correct	generate	Run2	generate/STIM_009.jpg
1106.158	1.115	incorrect	generate	Run2	generate/STIM_009.jpg
1109.848	0.972	correct	generate	Run2	generate/STIM_009.jpg
1113.257	1.851	correct	generate	Run2	generate/STIM_009.jpg
1119.125	1.411	correct	generate	Run2	generate/STIM_009.jpg
1122.705	1.409	incorrect	generate	Run2	generate/STIM_010.jpg
1128.049	1.604	incorrect	generate	Run2	generate/STIM_010.jpg
1133.013	1.186	incorrect	generate	Run2	generate/STIM_010.jpg
1136.418	1.081	correct	generate	Run2	generate/STIM_010.jpg
1141.221	0.829	correct	generate	Run2	generate/STIM_010.jpg
1145.145	2.081	correct	generate	Run2	generate/STIM_011.jpg
1151.245	1.61	correct	generate	Run2	generate/STIM_011.jpg
1155.788	1.314	correct	generate	Run2	generate/STIM_011.jpg
1160.743	1.405	incorrect	generate	Run2	generate/STIM_011.jpg
1164.269	1.225	correct	generate	Run2	generate/STIM_011.jpg
1168.475	2.252	correct	generate	Run2	generate/STIM_012.jpg
1173.546	1.368	correct	generate	Run2	generate/STIM_012.jpg
1178.762	1.058	correct	generate	Run2	generate/STIM_012.jpg
1181.876	1.354	correct	generate	Run2	generate/STIM_012.jpg
1186.209	1.193	correct	generate	Run2	generate/STIM_012.jpg
1190.578	2.3	correct	generate	Run2	generate/STIM_013.jpg
1195.031	1.227	correct	generate	Run2	generate/STIM_013.jpg
1198.592	1.531	correct	generate	Run2	generate/STIM_013.jpg
1202.46	0.925	correct	generate	Run2	generate/STIM_013.jpg
1206.569	1.524	incorrect	generate	Run2	generate/STIM_013.jpg
1211.432	2.339	correct	generate	Run2	generate/STIM_014.jpg
1217.129	1.13	correct	generate	Run2	generate/STIM_014.jpg
1220.847	1.233	correct	generate	Run2	generate/STIM_014.jpg
1224.74	1.634	correct	generate	Run2	generate/STIM_014.jpg
1229.181	1.852	correct	generate	Run2	generate/STIM_014.jpg
1233.091	1.388	incorrect	generate	Run2	generate/STIM_015.jpg
1236.918	1.573	correct	generate	Run2	generate/STIM_015.jpg
1241.316	1.359	correct	generate	Run2	generate/STIM_015.jpg
1245.259	0.92	correct	generate	Run2	generate/STIM_015.jpg
1249.832	1.315	correct	generate	Run2	generate/STIM_015.jpg
1254.066	2.486	correct	generate	Run2	generate/STIM_016.jpg
1260.554	1.291	correct	generate	Run2	generate/STIM_016.jpg
1265.124	1.716	correct	generate	Run2	generate/STIM_016.jpg
1270.719	1.676	correct	generate	Run2	generate/STIM_016.jpg
1275.339	1.376	correct	generate	Run2	generate/STIM_016.jpg
1278.964	1.404	incorrect	generate	Run2	generate/STIM_017.jpg
1283.906	1.647	incorrect	generate	Run2	generate/STIM_017.jpg
1288.75	2.124	correct	generate	Run2	generate/STIM_017.jpg
1293.728	1.349	correct	generate	Run2	generate/STIM_017.jpg
1298.234	0.969	correct	generate	Run2	generate/STIM_017.jpg
1301.541	1.414	incorrect	generate	Run2	generate/STIM_018.jpg
1306.658	2.337	incorrect	generate	Run2	generate/STIM_018.jpg
1312.041	1.853	incorrect	generate	Run2	generate/STIM_018.jpg
1316.701	1.832	correct	generate	Run2	generate/STIM_018.jpg
1321.847	1.844	correct	generate	Run2	generate/STIM_018.jpg
1327.228	1.21	correct	generate	Run2	generate/STIM_019.jpg
1331.458	1.746	correct	generate	Run2	generate/STIM_019.jpg
1335.445	1.367	incorrect	generate	Run2	generate/STIM_019.jpg
1340.1	1.061	correct	generate	Run2	generate/STIM_019.jpg
1343.927	1.578	correct	generate	Run2	generate/STIM_019.jpg
1348.875	1.356	correct	generate	Run2	generate/STIM_020.jpg
1353.449	1.854	correct	generate	Run2	generate/STIM_020.jpg
1358.203	1.125	correct	generate	Run2	generate/STIM_020.jpg
1363.317	0.886	incorrect	generate	Run2	generate/STIM_020.jpg
1367.445	2.027	correct	generate	Run2	generate/STIM_020.jpg
1373.44	2.103	correct	generate	Run2	generate/STIM_021.jpg
1377.632	2.162	correct	generate	Run2	generate/STIM_021.jpg
1383.465	0.922	incorrect	generate	Run2	generate/STIM_021.jpg
1387.046	1.914	incorrect	generate	Run2	generate/STIM_021.jpg
1392.424	1.171	correct	generate	Run2	generate/STIM_021.jpg
1396.161	1.815	correct	generate	Run2	generate/STIM_022.jpg
1400.34	2.057	correct	generate	Run2	generate/STIM_022.jpg
1405.863	0.986	correct	generate	Run2	generate/STIM_022.jpg
1410.034	1.996	correct	generate	Run2	generate/STIM_022.jpg
1415.094	1.095	correct	generate	Run2	generate/STIM_022.jpg
1418.367	1.937	incorrect	generate	Run2	generate/STIM_023.jpg
1423.769	1.333	correct	generate	Run2	generate/STIM_023.jpg
1427.54	1.591	correct	generate	Run2	generate/STIM_023.jpg
1431.804	1.269	correct	generate	Run2	generate/STIM_023.jpg
1436.944	0.858	correct	generate	Run2	generate/STIM_023.jpg
1441.236	1.23	correct	generate	Run2	generate/STIM_024.jpg
1444.683	1.963	correct	generate	Run2	generate/STIM_024.jpg
1448.922	1.869	correct	generate	Run2	generate/STIM_024.jpg
1453.666	1.354	correct	generate	Run2	generate/STIM_024.jpg
1458.67	1.848	correct	generate	Run2	generate/STIM_024.jpg
1464.406	0.76	correct	repeat	Run2	repeat/STIM_000.jpg
1468.672	0.679	correct	repeat	Run2	repeat/STIM_000.jpg
1473.162	0.981	correct	repeat	Run2	repeat/STIM_000.jpg
1477.373	0.822	correct	repeat	Run2	repeat/STIM_000.jpg
1481.36	0.697	correct	repeat	Run2	repeat/STIM_000.jpg
1485.127	0.886	correct	repeat	Run2	repeat/STIM_001.jpg
1489.004	0.744	correct	repeat	Run2	repeat/STIM_001.jpg
1492.896	0.602	incorrect	repeat	Run2	repeat/STIM_001.jpg
1496.186	0.59	correct	repeat	Run2	repeat/STIM_001.jpg
1500.765	0.821	correct	repeat	Run2	repeat/STIM_001.jpg
1504.467	0.603	correct	repeat	Run2	repeat/STIM_002.jpg
1508.448	0.557	correct	repeat	Run2	repeat/STIM_002.jpg
1512.094	0.76	incorrect	repeat	Run2	repeat/STIM_002.jpg
1516.575	0.62	correct	repeat	Run2	repeat/STIM_002.jpg
1520.752	0.515	correct	repeat	Run2	repeat/STIM_002.jpg
1524.156	0.896	correct	repeat	Run2	repeat/STIM_003.jpg
1528.426	0.885	correct	repeat	Run2	repeat/STIM_003.jpg
1531.771	0.895	correct	repeat	Run2	repeat/STIM_003.jpg
1536.099	0.777	correct	repeat	Run2	repeat/STIM_003.jpg
1539.199	0.669	correct	repeat	Run2	repeat/STIM_003.jpg
1543.422	0.707	correct	repeat	Run2	repeat/STIM_004.jpg
1547.011	0.942	correct	repeat	Run2	repeat/STIM_004.jpg
1551.196	0.784	correct	repeat	Run2	repeat/STIM_004.jpg
1554.807	0.548	correct	repeat	Run2	repeat/STIM_004.jpg
1558.68	0.872	correct	repeat	Run2	repeat/STIM_004.jpg
1563.076	0.755	correct	repeat	Run2	repeat/STIM_005.jpg
1566.682	0.897	correct	repeat	Run2	repeat/STIM_005.jpg
1570.244	0.65	correct	repeat	Run2	repeat/STIM_005.jpg
1573.651	0.727	correct	repeat	Run2	repeat/STIM_005.jpg
1576.947	0.625	correct	repeat	Run2	repeat/STIM_005.jpg
1579.99	0.535	correct	repeat	Run2	repeat/STIM_006.jpg
1582.587	0.724	correct	repeat	Run2	repeat/STIM_006.jpg
1586.001	0.534	incorrect	repeat	Run2	repeat/STIM_006.jpg
1590.228	0.933	correct	repeat	Run2	repeat/STIM_006.jpg
1594.619	0.563	correct	repeat	Run2	repeat/STIM_006.jpg
1597.783	0.564	correct	repeat	Run2	repeat/STIM_007.jpg
1601.62	0.898	correct	repeat	Run2	repeat/STIM_007.jpg
1605.705	0.942	correct	repeat	Run2	repeat/STIM_007.jpg
1609.031	0.913	correct	repeat	Run2	repeat/STIM_007.jpg
1612.491	0.786	correct	repeat	Run2	repeat/STIM_007.jpg
1615.992	0.561	correct	repeat	Run2	repeat/STIM_008.jpg
1620.503	0.584	correct	repeat	Run2	repeat/STIM_008.jpg
1623.319	0.831	correct	repeat	Run2	repeat/STIM_008.jpg
1627.393	0.925	correct	repeat	Run2	repeat/STIM_008.jpg
1631.149	0.938	correct	repeat	Run2	repeat/STIM_008.jpg
1635.081	0.526	correct	repeat	Run2	repeat/STIM_009.jpg
1638.216	0.622	correct	repeat	Run2	repeat/STIM_009.jpg
1641.492	0.856	correct	repeat	Run2	repeat/STIM_009.jpg
1646.361	0.617	incorrect	repeat	Run2	repeat/STIM_009.jpg
1650.17	0.962	correct	repeat	Run2	repeat/STIM_009.jpg
1655.01	0.625	correct	repeat	Run2	repeat/STIM_010.jpg
1657.731	0.74	correct	repeat	Run2	repeat/STIM_010.jpg
1661.659	0.608	correct	repeat	Run2	repeat/STIM_010.jpg
1666.101	0.576	correct	repeat	Run2	repeat/STIM_010.jpg
1669.741	0.589	correct	repeat	Run2	repeat/STIM_010.jpg
1673.419	0.857	incorrect	repeat	Run2	repeat/STIM_011.jpg
1677.932	0.848	correct	repeat	Run2	repeat/STIM_011.jpg
1682.752	0.568	correct	repeat	Run2	repeat/STIM_011.jpg
1685.332	0.81	correct	repeat	Run2	repeat/STIM_011.jpg
1689.839	0.828	correct	repeat	Run2	repeat/STIM_011.jpg
1693.148	0.976	correct	repeat	Run2	repeat/STIM_012.jpg
1697.908	0.904	incorrect	repeat	Run2	repeat/STIM_012.jpg
1701.331	0.578	correct	repeat	Run2	repeat/STIM_012.jpg
1705.334	0.944	correct	repeat	Run2	repeat/STIM_012.jpg
1708.381	0.839	correct	repeat	Run2	repeat/STIM_012.jpg
1712.759	0.774	correct	repeat	Run2	repeat/STIM_013.jpg
1716.567	0.592	correct	repeat	Run2	repeat/STIM_013.jpg
1719.759	0.686	correct	repeat	Run2	repeat/STIM_013.jpg
1724.166	0.881	correct	repeat	Run2	repeat/STIM_013.jpg
1728.481	0.864	correct	repeat	Run2	repeat/STIM_013.jpg
1732.902	0.942	correct	repeat	Run2	repeat/STIM_014.jpg
1737.698	0.766	correct	repeat	Run2	repeat/STIM_014.jpg
1740.934	0.517	correct	repeat	Run2	repeat/STIM_014.jpg
1745.368	0.913	correct	repeat	Run2	repeat/STIM_014.jpg
1748.315	0.802	correct	repeat	Run2	repeat/STIM_014.jpg
1751.744	1.813	correct	generate	Run3	generate/STIM_000.jpg
1755.671	0.865	correct	generate	Run3	generate/STIM_000.jpg
1760.255	0.974	correct	generate	Run3	generate/STIM_000.jpg
1764.779	1.172	correct	generate	Run3	generate/STIM_000.jpg
1768.682	1.358	correct	generate	Run3	generate/STIM_000.jpg
1773.954	1.974	correct	generate	Run3	generate/STIM_001.jpg
1778.78	1.917	correct	generate	Run3	generate/STIM_001.jpg
1784.469	1.652	correct	generate	Run3	generate/STIM_001.jpg
1789.99	1.416	correct	generate	Run3	generate/STIM_001.jpg
1793.932	0.962	correct	generate	Run3	generate/STIM_001.jpg
1798.71	1.806	correct	generate	Run3	generate/STIM_002.jpg
1802.915	0.847	incorrect	generate	Run3	generate/STIM_002.jpg
1806.107	0.843	correct	generate	Run3	generate/STIM_002.jpg
1810.146	1.464	correct	generate	Run3	generate/STIM_002.jpg
1815.274	1.38	correct	generate	Run3	generate/STIM_002.jpg
1819.98	1.952	correct	generate	Run3	generate/STIM_003.jpg
1825.311	1.702	correct	generate	Run3	generate/STIM_003.jpg
1830.592	1.785	correct	generate	Run3	generate/STIM_003.jpg
1835.147	0.95	correct	generate	Run3	generate/STIM_003.jpg
1839.42	1.757	correct	generate	Run3	generate/STIM_003.jpg
1843.656	1.822	incorrect	generate	Run3	generate/STIM_004.jpg
1848.743	1.262	correct	generate	Run3	generate/STIM_004.jpg
1852.959	1.273	correct	generate	Run3	generate/STIM_004.jpg
1857.651	0.873	correct	generate	Run3	generate/STIM_004.jpg
1862.024	1.162	correct	generate	Run3	generate/STIM_004.jpg
1865.4	1.534	correct	generate	Run3	generate/STIM_005.jpg
1869.404	1.691	correct	generate	Run3	generate/STIM_005.jpg
1874.219	0.856	correct	generate	Run3	generate/STIM_005.jpg
1877.134	0.843	correct	generate	Run3	generate/STIM_005.jpg
1880.63	1.704	correct	generate	Run3	generate/STIM_005.jpg
1886.298	1.642	correct	generate	Run3	generate/STIM_006.jpg
1890.473	1.591	correct	generate	Run3	generate/STIM_006.jpg
1895.139	1.909	correct	generate	Run3	generate/STIM_006.jpg
1899.996	1.083	correct	generate	Run3	generate/STIM_006.jpg
1904.408	1.504	correct	generate	Run3	generate/STIM_006.jpg
1908.978	1.891	incorrect	generate	Run3	generate/STIM_007.jpg
1913.727	1.385	correct	generate	Run3	generate/STIM_007.jpg
1918.385	1.268	correct	generate	Run3	generate/STIM_007.jpg
1923.641	1.163	correct	generate	Run3	generate/STIM_007.jpg
1928.668	1.101	correct	generate	Run3	generate/STIM_007.jpg
1933.523	2.016	correct	generate	Run3	generate/STIM_008.jpg
1938.741	2.023	incorrect	generate	Run3	generate/STIM_008.jpg
1944.443	0.962	correct	generate	Run3	generate/STIM_008.jpg
1947.745	2.03	correct	generate	Run3	generate/STIM_008.jpg
1953.067	1.534	correct	generate	Run3	generate/STIM_008.jpg
1957.74	1.936	correct	generate	Run3	generate/STIM_009.jpg
1962.287	1.68	correct	generate	Run3	generate/STIM_009.jpg
1966.652	1.694	correct	generate	Run3	generate/STIM_009.jpg
1971.359	1.04	correct	generate	Run3	generate/STIM_009.jpg
1976.024	1.519	correct	generate	Run3	generate/STIM_009.jpg
1981.343	1.851	correct	generate	Run3	generate/STIM_010.jpg
1986.177	1.252	correct	generate	Run3	generate/STIM_010.jpg
1991.163	1.603	correct	generate	Run3	generate/STIM_010.jpg
1995.368	1.446	correct	generate	Run3	generate/STIM_010.jpg
2000.643	1.789	correct	generate	Run3	generate/STIM_010.jpg
2006.161	1.012	correct	generate	Run3	generate/STIM_011.jpg
2010.946	1.258	incorrect	generate	Run3	generate/STIM_011.jpg
2015.234	0.884	correct	generate	Run3	generate/STIM_011.jpg
2019.158	1.936	correct	generate	Run3	generate/STIM_011.jpg
2023.802	1.476	correct	generate	Run3	generate/STIM_011.jpg
2028.6	1.694	correct	generate	Run3	generate/STIM_012.jpg
2032.536	0.878	correct	generate	Run3	generate/STIM_012.jpg
2035.438	1.88	correct	generate	Run3	generate/STIM_012.jpg
2040.095	1.076	correct	generate	Run3	generate/STIM_012.jpg
2043.565	1.246	correct	generate	Run3	generate/STIM_012.jpg
2047.476	0.899	correct	generate	Run3	generate/STIM_013.jpg
2052.152	1.642	correct	generate	Run3	generate/STIM_013.jpg
2057.548	0.95	correct	generate	Run3	generate/STIM_013.jpg
2060.725	1.894	incorrect	generate	Run3	generate/STIM_013.jpg
2066.05	1.227	correct	generate	Run3	generate/STIM_013.jpg
2070.054	1.82	correct	generate	Run3	generate/STIM_014.jpg
2074.025	1.655	correct	generate	Run3	generate/STIM_014.jpg
2079.149	1.847	correct	generate	Run3	generate/STIM_014.jpg
2083.106	1.252	correct	generate	Run3	generate/STIM_014.jpg
2087.491	1.021	correct	generate	Run3	generate/STIM_014.jpg
2092.467	1.883	correct	generate	Run3	generate/STIM_015.jpg
2096.847	2.027	correct	generate	Run3	generate/STIM_015.jpg
2102.618	0.848	correct	generate	Run3	generate/STIM_015.jpg
2106.778	1.226	correct	generate	Run3	generate/STIM_015.jpg
2111.991	1.333	correct	generate	Run3	generate/STIM_015.jpg
2117.195	1.005	correct	generate	Run3	generate/STIM_016.jpg
2120.406	2.033	correct	generate	Run3	generate/STIM_016.jpg
2126.012	1.378	correct	generate	Run3	generate/STIM_016.jpg
2131.17	1.247	correct	generate	Run3	generate/STIM_016.jpg
2135.051	0.863	correct	generate	Run3	generate/STIM_016.jpg
2139.127	0.923	correct	generate	Run3	generate/STIM_017.jpg
2142.95	1.884	correct	generate	Run3	generate/STIM_017.jpg
2147.988	1.006	correct	generate	Run3	generate/STIM_017.jpg
2152.754	0.966	correct	generate	Run3	generate/STIM_017.jpg
2157.689	1.022	correct	generate	Run3	generate/STIM_017.jpg
2161.051	1.664	correct	generate	Run3	generate/STIM_018.jpg
2165.302	1.727	correct	generate	Run3	generate/STIM_018.jpg
2170.139	0.895	correct	generate	Run3	generate/STIM_018.jpg
2174.334	1.857	correct	generate	Run3	generate/STIM_018.jpg
2178.617	1.024	correct	generate	Run3	generate/STIM_018.jpg
2183.62	1.591	correct	generate	Run3	generate/STIM_019.jpg
2188.377	1.872	correct	generate	Run3	generate/STIM_019.jpg
2193.373	1.91	correct	generate	Run3	generate/STIM_019.jpg
2197.921	2.029	correct	generate	Run3	generate/STIM_019.jpg
2202.414	1.792	correct	generate	Run3	generate/STIM_019.jpg
2206.445	1.81	correct	generate	Run3	generate/STIM_020.jpg
2212.27	1.709	correct	generate	Run3	generate/STIM_020.jpg
2216.29	0.99	correct	generate	Run3	generate/STIM_020.jpg
2221.169	1.368	correct	generate	Run3	generate/STIM_020.jpg
2224.863	1.416	correct	generate	Run3	generate/STIM_020.jpg
2228.699	1.71	correct	generate	Run3	generate/STIM_021.jpg
2232.535	1.533	incorrect	generate	Run3	generate/STIM_021.jpg
2236.142	1.004	correct	generate	Run3	generate/STIM_021.jpg
2240.109	0.865	correct	generate	Run3	generate/STIM_021.jpg
2243.616	0.831	incorrect	generate	Run3	generate/STIM_021.jpg
2247.742	1.996	incorrect	generate	Run3	generate/STIM_022.jpg
2252.186	1.124	correct	generate	Run3	generate/STIM_022.jpg
2256.156	1.685	correct	generate	Run3	generate/STIM_022.jpg
2260.485	1.668	incorrect	generate	Run3	generate/STIM_022.jpg
2264.928	1.243	correct	generate	Run3	generate/STIM_022.jpg
2269.168	1.439	correct	generate	Run3	generate/STIM_023.jpg
2273.928	1.386	correct	generate	Run3	generate/STIM_023.jpg
2277.915	0.86	correct	generate	Run3	generate/STIM_023.jpg
2281.651	1.954	correct	generate	Run3	generate/STIM_023.jpg
2285.96	1.223	correct	generate	Run3	generate/STIM_023.jpg
2290.827	1.718	incorrect	generate	Run3	generate/STIM_024.jpg
2295.047	1.279	incorrect	generate	Run3	generate/STIM_024.jpg
2298.992	1.858	correct	generate	Run3	generate/STIM_024.jpg
2304.81	1.454	correct	generate	Run3	generate/STIM_024.jpg
2310.184	1.547	correct	generate	Run3	generate/STIM_024.jpg
2315.601	0.587	correct	repeat	Run3	repeat/STIM_000.jpg
2320.077	0.635	correct	repeat	Run3	repeat/STIM_000.jpg
2324.065	0.622	correct	repeat	Run3	repeat/STIM_000.jpg
2328.507	0.634	correct	repeat	Run3	repeat/STIM_000.jpg
2332.703	0.655	correct	repeat	Run3	repeat/STIM_000.jpg
2337.074	0.627	correct	repeat	Run3	repeat/STIM_001.jpg
2340.642	0.632	correct	repeat	Run3	repeat/STIM_001.jpg
2345.116	0.835	correct	repeat	Run3	repeat/STIM_001.jpg
2349.933	0.533	correct	repeat	Run3	repeat/STIM_001.jpg
2353.016	0.543	correct	repeat	Run3	repeat/STIM_001.jpg
2356.962	0.74	correct	repeat	Run3	repeat/STIM_002.jpg
2359.879	0.666	correct	repeat	Run3	repeat/STIM_002.jpg
2363.864	0.503	correct	repeat	Run3	repeat/STIM_002.jpg
2367.337	0.726	correct	repeat	Run3	repeat/STIM_002.jpg
2370.368	0.943	correct	repeat	Run3	repeat/STIM_002.jpg
2374.912	0.629	correct	repeat	Run3	repeat/STIM_003.jpg
2379.236	0.527	correct	repeat	Run3	repeat/STIM_003.jpg
2383.23	0.902	correct	repeat	Run3	repeat/STIM_003.jpg
2387.095	0.886	correct	repeat	Run3	repeat/STIM_003.jpg
2390.951	0.567	correct	repeat	Run3	repeat/STIM_003.jpg
2395.253	0.582	correct	repeat	Run3	repeat/STIM_004.jpg
2398.816	0.956	incorrect	repeat	Run3	repeat/STIM_004.jpg
2402.799	0.857	correct	repeat	Run3	repeat/STIM_004.jpg
2406.085	0.95	correct	repeat	Run3	repeat/STIM_004.jpg
2410.069	0.692	incorrect	repeat	Run3	repeat/STIM_004.jpg
2412.855	0.783	correct	repeat	Run3	repeat/STIM_005.jpg
2416.834	0.978	correct	repeat	Run3	repeat/STIM_005.jpg
2421.421	0.821	correct	repeat	Run3	repeat/STIM_005.jpg
2424.317	0.681	correct	repeat	Run3	repeat/STIM_005.jpg
2428.836	0.526	correct	repeat	Run3	repeat/STIM_005.jpg
2431.507	0.905	correct	repeat	Run3	repeat/STIM_006.jpg
2436.044	0.67	correct	repeat	Run3	repeat/STIM_006.jpg
2439.838	0.961	correct	repeat	Run3	repeat/STIM_006.jpg
2443.938	0.639	correct	repeat	Run3	repeat/STIM_006.jpg
2447.976	0.709	correct	repeat	Run3	repeat/STIM_006.jpg
2451.759	0.638	correct	repeat	Run3	repeat/STIM_007.jpg
2455.156	0.575	correct	repeat	Run3	repeat/STIM_007.jpg
2458.785	0.753	correct	repeat	Run3	repeat/STIM_007.jpg
2463.085	0.976	correct	repeat	Run3	repeat/STIM_007.jpg
2467.117	0.68	correct	repeat	Run3	repeat/STIM_007.jpg
2470.466	0.616	correct	repeat	Run3	repeat/STIM_008.jpg
2474.889	0.899	correct	repeat	Run3	repeat/STIM_008.jpg
2477.915	0.638	correct	repeat	Run3	repeat/STIM_008.jpg
2480.585	0.713	correct	repeat	Run3	repeat/STIM_008.jpg
2484.448	0.519	correct	repeat	Run3	repeat/STIM_008.jpg
2488.767	0.754	correct	repeat	Run3	repeat/STIM_009.jpg
2491.749	0.962	correct	repeat	Run3	repeat/STIM_009.jpg
2496.169	0.566	correct	repeat	Run3	repeat/STIM_009.jpg
2499.11	0.862	correct	repeat	Run3	repeat/STIM_009.jpg
2503.916	0.714	correct	repeat	Run3	repeat/STIM_009.jpg
2508.602	0.791	correct	repeat	Run3	repeat/STIM_010.jpg
2512.326	0.789	correct	repeat	Run3	repeat/STIM_010.jpg
2515.868	0.623	correct	repeat	Run3	repeat/STIM_010.jpg
2520.218	0.492	correct	repeat	Run3	repeat/STIM_010.jpg
2524.692	0.591	correct	repeat	Run3	repeat/STIM_010.jpg
2528.455	0.556	correct	repeat	Run3	repeat/STIM_011.jpg
2531.411	0.631	correct	repeat	Run3	repeat/STIM_011.jpg
2535.054	0.676	correct	repeat	Run3	repeat/STIM_011.jpg
2538.097	0.598	correct	repeat	Run3	repeat/STIM_011.jpg
2542.388	0.905	correct	repeat	Run3	repeat/STIM_011.jpg
2547.07	0.922	correct	repeat	Run3	repeat/STIM_012.jpg
2551.887	0.496	correct	repeat	Run3	repeat/STIM_012.jpg
2555.686	0.86	correct	repeat	Run3	repeat/STIM_012.jpg
2559.248	0.816	correct	repeat	Run3	repeat/STIM_012.jpg
2563.284	0.968	correct	repeat	Run3	repeat/STIM_012.jpg
2566.73	0.971	correct	repeat	Run3	repeat/STIM_013.jpg
2570.298	0.934	correct	repeat	Run3	repeat/STIM_013.jpg
2574.839	0.746	correct	repeat	Run3	repeat/STIM_013.jpg
2578.82	0.828	correct	repeat	Run3	repeat/STIM_013.jpg
2583.416	0.684	correct	repeat	Run3	repeat/STIM_013.jpg
2586.258	0.651	correct	repeat	Run3	repeat/STIM_014.jpg
2589.57	0.738	correct	repeat	Run3	repeat/STIM_014.jpg
2592.639	0.695	correct	repeat	Run3	repeat/STIM_014.jpg
2595.445	0.759	correct	repeat	Run3	repeat/STIM_014.jpg
2598.364	0.503	correct	repeat	Run3	repeat/STIM_014.jpg
2601.148	1.87	correct	generate	Run4	generate/STIM_000.jpg
2606.047	1.246	correct	generate	Run4	generate/STIM_000.jpg
2610.105	1.057	correct	generate	Run4	generate/STIM_000.jpg
2613.404	1.959	correct	generate	Run4	generate/STIM_000.jpg
2617.952	0.83	correct	generate	Run4	generate/STIM_000.jpg
2621.348	1.806	correct	generate	Run4	generate/STIM_001.jpg
2625.847	1.761	correct	generate	Run4	generate/STIM_001.jpg
2630.325	1.987	incorrect	generate	Run4	generate/STIM_001.jpg
2635.317	1.347	correct	generate	Run4	generate/STIM_001.jpg
2639.087	1.822	correct	generate	Run4	generate/STIM_001.jpg
2644.729	1.022	incorrect	generate	Run4	generate/STIM_002.jpg
2648.131	1.766	correct	generate	Run4	generate/STIM_002.jpg
2653.382	1.782	correct	generate	Run4	generate/STIM_002.jpg
2657.384	1.208	correct	generate	Run4	generate/STIM_002.jpg
2662.279	1.417	correct	generate	Run4	generate/STIM_002.jpg
2665.852	1.144	correct	generate	Run4	generate/STIM_003.jpg
2669.135	0.916	correct	generate	Run4	generate/STIM_003.jpg
2672.301	1.221	correct	generate	Run4	generate/STIM_003.jpg
2676.8	1.066	correct	generate	Run4	generate/STIM_003.jpg
2681.801	1.011	correct	generate	Run4	generate/STIM_003.jpg
2686.187	0.854	correct	generate	Run4	generate/STIM_004.jpg
2690.679	0.986	correct	generate	Run4	generate/STIM_004.jpg
2694.175	1.142	correct	generate	Run4	generate/STIM_004.jpg
2698.661	0.907	correct	generate	Run4	generate/STIM_004.jpg
2703.083	0.903	correct	generate	Run4	generate/STIM_004.jpg
2707.7	1.215	correct	generate	Run4	generate/STIM_005.jpg
2711.848	1.656	correct	generate	Run4	generate/STIM_005.jpg
2716.663	0.937	correct	generate	Run4	generate/STIM_005.jpg
2721.144	2.01	correct	generate	Run4	generate/STIM_005.jpg
2726.172	1.98	correct	generate	Run4	generate/STIM_005.jpg
2730.524	1.474	correct	generate	Run4	generate/STIM_006.jpg
2735.171	1.642	correct	generate	Run4	generate/STIM_006.jpg
2740.555	1.365	correct	generate	Run4	generate/STIM_006.jpg
2744.958	0.968	correct	generate	Run4	generate/STIM_006.jpg
2748.269	1.799	correct	generate	Run4	generate/STIM_006.jpg
2752.696	1.182	correct	generate	Run4	generate/STIM_007.jpg
2755.943	1.136	correct	generate	Run4	generate/STIM_007.jpg
2760.126	1.167	correct	generate	Run4	generate/STIM_007.jpg
2764.021	1.816	correct	generate	Run4	generate/STIM_007.jpg
2769.472	1.125	correct	generate	Run4	generate/STIM_007.jpg
2773.481	1.411	correct	generate	Run4	generate/STIM_008.jpg
2778.365	1.149	correct	generate	Run4	generate/STIM_008.jpg
2783.273	0.983	correct	generate	Run4	generate/STIM_008.jpg
2786.545	1.318	correct	generate	Run4	generate/STIM_008.jpg
2791.602	2.02	correct	generate	Run4	generate/STIM_008.jpg
2796.303	0.978	correct	generate	Run4	generate/STIM_009.jpg
2799.993	1.02	correct	generate	Run4	generate/STIM_009.jpg
2804.467	1.218	correct	generate	Run4	generate/STIM_009.jpg
2809.409	0.998	correct	generate	Run4	generate/STIM_009.jpg
2813.941	1.119	correct	generate	Run4	generate/STIM_009.jpg
2818.738	1.318	correct	generate	Run4	generate/STIM_010.jpg
2823.377	1.404	correct	generate	Run4	generate/STIM_010.jpg
2827.052	2.047	correct	generate	Run4	generate/STIM_010.jpg
2832.834	0.88	correct	generate	Run4	generate/STIM_010.jpg
2836.45	1.155	correct	generate	Run4	generate/STIM_010.jpg
2841.595	2.037	correct	generate	Run4	generate/STIM_011.jpg
2845.757	1.881	correct	generate	Run4	generate/STIM_011.jpg
2850.903	1.423	correct	generate	Run4	generate/STIM_011.jpg
2856.282	1.135	correct	generate	Run4	generate/STIM_011.jpg
2859.904	1.787	correct	generate	Run4	generate/STIM_011.jpg
2864.633	1.186	correct	generate	Run4	generate/STIM_012.jpg
2868.559	1.971	correct	generate	Run4	generate/STIM_012.jpg
2872.937	2.045	correct	generate	Run4	generate/STIM_012.jpg
2878.804	2.014	correct	generate	Run4	generate/STIM_012.jpg
2882.904	0.995	correct	generate	Run4	generate/STIM_012.jpg
2886.23	1.062	correct	generate	Run4	generate/STIM_013.jpg
2890.049	1.697	correct	generate	Run4	generate/STIM_013.jpg
2894.358	1.93	correct	generate	Run4	generate/STIM_013.jpg
2898.399	1.152	correct	generate	Run4	generate/STIM_013.jpg
2903.266	2.024	correct	generate	Run4	generate/STIM_013.jpg
2908.635	1.936	correct	generate	Run4	generate/STIM_014.jpg
2913.463	1.622	correct	generate	Run4	generate/STIM_014.jpg
2919.078	1.138	correct	generate	Run4	generate/STIM_014.jpg
2923.441	1.021	correct	generate	Run4	generate/STIM_014.jpg
2926.548	1.029	correct	generate	Run4	generate/STIM_014.jpg
2930.986	2.021	correct	generate	Run4	generate/STIM_015.jpg
2936.517	1.432	correct	generate	Run4	generate/STIM_015.jpg
2940.453	1.268	correct	generate	Run4	generate/STIM_015.jpg
2943.807	1.189	correct	generate	Run4	generate/STIM_015.jpg
2948.78	0.855	correct	generate	Run4	generate/STIM_015.jpg
2952.141	1.039	correct	generate	Run4	generate/STIM_016.jpg
2956.373	1.853	correct	generate	Run4	generate/STIM_016.jpg
2961.538	1.583	correct	generate	Run4	generate/STIM_016.jpg
2965.654	1.829	correct	generate	Run4	generate/STIM_016.jpg
2971.143	0.831	correct	generate	Run4	generate/STIM_016.jpg
2974.874	1.358	correct	generate	Run4	generate/STIM_017.jpg
2978.52	1.73	correct	generate	Run4	generate/STIM_017.jpg
2983.973	1.883	correct	generate	Run4	generate/STIM_017.jpg
2988.266	2.062	correct	generate	Run4	generate/STIM_017.jpg
2992.74	1.435	correct	generate	Run4	generate/STIM_017.jpg
2997.51	1.597	correct	generate	Run4	generate/STIM_018.jpg
3002.61	1.177	correct	generate	Run4	generate/STIM_018.jpg
3006.654	1.136	correct	generate	Run4	generate/STIM_018.jpg
3010.842	1.291	correct	generate	Run4	generate/STIM_018.jpg
3015.757	1.936	correct	generate	Run4	generate/STIM_018.jpg
3020.057	1.6	correct	generate	Run4	generate/STIM_019.jpg
3025.229	0.852	correct	generate	Run4	generate/STIM_019.jpg
3029.446	1.058	correct	generate	Run4	generate/STIM_019.jpg
3034.485	1.947	correct	generate	Run4	generate/STIM_019.jpg
3040.197	1.096	correct	generate	Run4	generate/STIM_019.jpg
3043.494	1.447	correct	generate	Run4	generate/STIM_020.jpg
3047.029	1.491	correct	generate	Run4	generate/STIM_020.jpg
3051.773	1.808	correct	generate	Run4	generate/STIM_020.jpg
3056.376	0.989	correct	generate	Run4	generate/STIM_020.jpg
3061.242	0.962	correct	generate	Run4	generate/STIM_020.jpg
3065.852	1.015	correct	generate	Run4	generate/STIM_021.jpg
3069.268	1.846	correct	generate	Run4	generate/STIM_021.jpg
3074.953	1.298	correct	generate	Run4	generate/STIM_021.jpg
3078.411	1.865	correct	generate	Run4	generate/STIM_021.jpg
3082.405	1.507	correct	generate	Run4	generate/STIM_021.jpg
3086.034	1.921	correct	generate	Run4	generate/STIM_022.jpg
3090.191	1.553	correct	generate	Run4	generate/STIM_022.jpg
3095.516	1.575	correct	generate	Run4	generate/STIM_022.jpg
3100.928	1.323	correct	generate	Run4	generate/STIM_022.jpg
3105.494	1.572	correct	generate	Run4	generate/STIM_022.jpg
3109.507	2.054	correct	generate	Run4	generate/STIM_023.jpg
3114.242	1.274	correct	generate	Run4	generate/STIM_023.jpg
3118.235	1.932	correct	generate	Run4	generate/STIM_023.jpg
3123.927	0.956	correct	generate	Run4	generate/STIM_023.jpg
3126.927	1.48	correct	generate	Run4	generate/STIM_023.jpg
3131.578	1.066	correct	generate	Run4	generate/STIM_024.jpg
3135.257	1.392	correct	generate	Run4	generate/STIM_024.jpg
3138.788	1.145	correct	generate	Run4	generate/STIM_024.jpg
3143.639	1.5	correct	generate	Run4	generate/STIM_024.jpg
3148.797	1.445	correct	generate	Run4	generate/STIM_024.jpg
3153.392	0.935	correct	repeat	Run4	repeat/STIM_000.jpg
3156.83	0.494	correct	repeat	Run4	repeat/STIM_000.jpg
3160.439	0.589	correct	repeat	Run4	repeat/STIM_000.jpg
3164.174	0.759	correct	repeat	Run4	repeat/STIM_000.jpg
3168.851	0.911	correct	repeat	Run4	repeat/STIM_000.jpg
3172.405	0.517	correct	repeat	Run4	repeat/STIM_001.jpg
3175.454	0.821	correct	repeat	Run4	repeat/STIM_001.jpg
3179.518	0.519	correct	repeat	Run4	repeat/STIM_001.jpg
3182.325	0.911	correct	repeat	Run4	repeat/STIM_001.jpg
3185.826	0.84	correct	repeat	Run4	repeat/STIM_001.jpg
3188.939	0.597	correct	repeat	Run4	repeat/STIM_002.jpg
3192.623	0.761	correct	repeat	Run4	repeat/STIM_002.jpg
3196.252	0.715	correct	repeat	Run4	repeat/STIM_002.jpg
3199.886	0.528	correct	repeat	Run4	repeat/STIM_002.jpg
3203.092	0.708	correct	repeat	Run4	repeat/STIM_002.jpg
3206.25	0.76	correct	repeat	Run4	repeat/STIM_003.jpg
3210.177	0.663	correct	repeat	Run4	repeat/STIM_003.jpg
3213.789	0.77	correct	repeat	Run4	repeat/STIM_003.jpg
3218.157	0.636	correct	repeat	Run4	repeat/STIM_003.jpg
3220.906	0.674	correct	repeat	Run4	repeat/STIM_003.jpg
3225.104	0.858	correct	repeat	Run4	repeat/STIM_004.jpg
3228.644	0.968	correct	repeat	Run4	repeat/STIM_004.jpg
3232.05	0.704	correct	repeat	Run4	repeat/STIM_004.jpg
3234.781	0.766	correct	repeat	Run4	repeat/STIM_004.jpg
3239.237	0.5	correct	repeat	Run4	repeat/STIM_004.jpg
3242.347	0.528	correct	repeat	Run4	repeat/STIM_005.jpg
3245.579	0.713	correct	repeat	Run4	repeat/STIM_005.jpg
3248.945	0.742	correct	repeat	Run4	repeat/STIM_005.jpg
3253.256	0.923	correct	repeat	Run4	repeat/STIM_005.jpg
3257.04	0.744	correct	repeat	Run4	repeat/STIM_005.jpg
3260.615	0.654	correct	repeat	Run4	repeat/STIM_006.jpg
3264.006	0.525	correct	repeat	Run4	repeat/STIM_006.jpg
3267.828	0.87	correct	repeat	Run4	repeat/STIM_006.jpg
3271.455	0.834	correct	repeat	Run4	repeat/STIM_006.jpg
3275.035	0.769	correct	repeat	Run4	repeat/STIM_006.jpg
3278.919	0.899	correct	repeat	Run4	repeat/STIM_007.jpg
3283.147	0.821	correct	repeat	Run4	repeat/STIM_007.jpg
3285.994	0.797	correct	repeat	Run4	repeat/STIM_007.jpg
3289.743	0.932	incorrect	repeat	Run4	repeat/STIM_007.jpg
3292.999	0.836	correct	repeat	Run4	repeat/STIM_007.jpg
3296.096	0.777	correct	repeat	Run4	repeat/STIM_008.jpg
3300.016	0.772	correct	repeat	Run4	repeat/STIM_008.jpg
3304.481	0.66	correct	repeat	Run4	repeat/STIM_008.jpg
3307.508	0.742	correct	repeat	Run4	repeat/STIM_008.jpg
3310.818	0.664	correct	repeat	Run4	repeat/STIM_008.jpg
3314.3	0.722	correct	repeat	Run4	repeat/STIM_009.jpg
3317.035	0.616	correct	repeat	Run4	repeat/STIM_009.jpg
3320.692	0.809	correct	repeat	Run4	repeat/STIM_009.jpg
3324.94	0.798	correct	repeat	Run4	repeat/STIM_009.jpg
3328.989	0.78	correct	repeat	Run4	repeat/STIM_009.jpg
3332.419	0.746	correct	repeat	Run4	repeat/STIM_010.jpg
3336.685	0.902	correct	repeat	Run4	repeat/STIM_010.jpg
3341.161	0.851	incorrect	repeat	Run4	repeat/STIM_010.jpg
3344.778	0.757	correct	repeat	Run4	repeat/STIM_010.jpg
3349.448	0.912	correct	repeat	Run4	repeat/STIM_010.jpg
3352.41	0.63	correct	repeat	Run4	repeat/STIM_011.jpg
3355.075	0.983	correct	repeat	Run4	repeat/STIM_011.jpg
3358.138	0.747	correct	repeat	Run4	repeat/STIM_011.jpg
3361.894	0.789	correct	repeat	Run4	repeat/STIM_011.jpg
3365.276	0.768	correct	repeat	Run4	repeat/STIM_011.jpg
3368.22	0.883	correct	repeat	Run4	repeat/STIM_012.jpg
3372.889	0.766	correct	repeat	Run4	repeat/STIM_012.jpg
3376.132	0.683	correct	repeat	Run4	repeat/STIM_012.jpg
3379.214	0.834	correct	repeat	Run4	repeat/STIM_012.jpg
3382.172	0.773	correct	repeat	Run4	repeat/STIM_012.jpg
3386.679	0.743	correct	repeat	Run4	repeat/STIM_013.jpg
3391.417	0.912	correct	repeat	Run4	repeat/STIM_013.jpg
3396.15	0.638	correct	repeat	Run4	repeat/STIM_013.jpg
3399.415	0.548	correct	repeat	Run4	repeat/STIM_013.jpg
3402.837	0.651	correct	repeat	Run4	repeat/STIM_013.jpg
3405.785	0.77	correct	repeat	Run4	repeat/STIM_014.jpg
3409.575	0.974	correct	repeat	Run4	repeat/STIM_014.jpg
3413.428	0.726	correct	repeat	Run4	repeat/STIM_014.jpg
3416.961	0.634	correct	repeat	Run4	repeat/STIM_014.jpg
3420.84	0.799	correct	repeat	Run4	repeat/STIM_014.jpg
