onset	duration	response_time_ms	trial_type	learning_stage	stimulus	response_port
0.0	2.499	2499.2	generate	Run1	generate/STIM_000.jpg	99
4.804	1.523	1523.3	generate	Run1	generate/STIM_000.jpg	99
9.729	2.552	2552.3	generate	Run1	generate/STIM_000.jpg	100
15.776	2.044	2043.9	generate	Run1	generate/STIM_000.jpg	99
21.228	0.942	942.3	generate	Run1	generate/STIM_000.jpg	100
26.119	2.494	2494.1	generate	Run1	generate/STIM_001.jpg	100
31.516	2.235	2234.7	generate	Run1	generate/STIM_001.jpg	99
37.213	2.148	2148.4	generate	Run1	generate/STIM_001.jpg	100
41.524	1.82	1820.4	generate	Run1	generate/STIM_001.jpg	100
45.823	1.096	1095.7	generate	Run1	generate/STIM_001.jpg	99
50.015	2.398	2398.0	generate	Run1	generate/STIM_002.jpg	99
54.53	1.208	1208.4	generate	Run1	generate/STIM_002.jpg	100
58.848	1.371	1370.7	generate	Run1	generate/STIM_002.jpg	100
63.916	1.541	1540.7	generate	Run1	generate/STIM_002.jpg	99
67.748	2.264	2263.8	generate	Run1	generate/STIM_002.jpg	99
72.206	1.2	1200.0	generate	Run1	generate/STIM_003.jpg	100
76.152	2.726	2725.6	generate	Run1	generate/STIM_003.jpg	99
80.937	1.294	1294.1	generate	Run1	generate/STIM_003.jpg	100
85.758	2.074	2073.9	generate	Run1	generate/STIM_003.jpg	99
90.022	1.214	1214.5	generate	Run1	generate/STIM_003.jpg	100
94.054	2.418	2418.3	generate	Run1	generate/STIM_004.jpg	99
99.776	1.682	1682.2	generate	Run1	generate/STIM_004.jpg	99
103.898	2.42	2419.7	generate	Run1	generate/STIM_004.jpg	99
108.741	2.419	2419.3	generate	Run1	generate/STIM_004.jpg	99
114.48	2.132	2132.0	generate	Run1	generate/STIM_004.jpg	100
119.561	2.462	2462.0	generate	Run1	generate/STIM_005.jpg	99
125.352	2.343	2343.2	generate	Run1	generate/STIM_005.jpg	99
130.307	1.78	1779.9	generate	Run1	generate/STIM_005.jpg	100
135.557	1.599	1599.4	generate	Run1	generate/STIM_005.jpg	99
139.229	1.124	1123.9	generate	Run1	generate/STIM_005.jpg	99
142.975	2.265	2264.8	generate	Run1	generate/STIM_006.jpg	100
149.107	1.809	1809.0	generate	Run1	generate/STIM_006.jpg	100
153.787	1.152	1151.7	generate	Run1	generate/STIM_006.jpg	99
158.935	1.048	1048.3	generate	Run1	generate/STIM_006.jpg	99
163.659	2.227	2226.7	generate	Run1	generate/STIM_006.jpg	99
168.96	1.587	1587.1	generate	Run1	generate/STIM_007.jpg	100
173.925	2.716	2716.3	generate	Run1	generate/STIM_007.jpg	99
179.992	1.466	1466.5	generate	Run1	generate/STIM_007.jpg	100
185.264	2.014	2013.6	generate	Run1	generate/STIM_007.jpg	99
190.064	0.964	964.3	generate	Run1	generate/STIM_007.jpg	100
194.486	2.445	2445.2	generate	Run1	generate/STIM_008.jpg	99
200.84	2.212	2211.6	generate	Run1	generate/STIM_008.jpg	100
206.121	1.35	1350.1	generate	Run1	generate/STIM_008.jpg	100
211.427	1.048	1048.1	generate	Run1	generate/STIM_008.jpg	100
215.867	2.115	2115.0	generate	Run1	generate/STIM_008.jpg	100
220.315	2.736	2736.4	generate	Run1	generate/STIM_009.jpg	99
226.357	2.098	2097.7	generate	Run1	generate/STIM_009.jpg	99
232.331	2.463	2463.1	generate	Run1	generate/STIM_009.jpg	100
238.07	1.274	1273.7	generate	Run1	generate/STIM_009.jpg	99
243.115	1.102	1102.2	generate	Run1	generate/STIM_009.jpg	100
246.455	1.958	1958.1	generate	Run1	generate/STIM_010.jpg	99
250.578	1.261	1260.8	generate	Run1	generate/STIM_010.jpg	99
255.247	2.406	2406.4	generate	Run1	generate/STIM_010.jpg	100
261.346	1.468	1467.9	generate	Run1	generate/STIM_010.jpg	100
265.874	1.889	1889.4	generate	Run1	generate/STIM_010.jpg	99
270.081	2.23	2230.0	generate	Run1	generate/STIM_011.jpg	99
275.482	2.277	2276.7	generate	Run1	generate/STIM_011.jpg	99
280.704	2.125	2124.9	generate	Run1	generate/STIM_011.jpg	100
285.248	2.337	2337.1	generate	Run1	generate/STIM_011.jpg	100
291.274	1.553	1553.0	generate	Run1	generate/STIM_011.jpg	100
296.725	1.661	1661.3	generate	Run1	generate/STIM_012.jpg	100
302.373	2.476	2476.3	generate	Run1	generate/STIM_012.jpg	99
308.532	1.474	1473.8	generate	Run1	generate/STIM_012.jpg	99
312.502	1.156	1156.3	generate	Run1	generate/STIM_012.jpg	99
316.083	1.699	1699.4	generate	Run1	generate/STIM_012.jpg	100
320.537	2.341	2340.6	generate	Run1	generate/STIM_013.jpg	99
325.605	2.144	2144.1	generate	Run1	generate/STIM_013.jpg	99
330.612	1.166	1165.8	generate	Run1	generate/STIM_013.jpg	100
335.436	1.643	1643.1	generate	Run1	generate/STIM_013.jpg	100
340.462	1.54	1539.9	generate	Run1	generate/STIM_013.jpg	100
345.358	2.556	2556.3	generate	Run1	generate/STIM_014.jpg	100
350.5	2.72	2719.6	generate	Run1	generate/STIM_014.jpg	100
355.325	2.486	2486.5	generate	Run1	generate/STIM_014.jpg	99
361.382	1.494	1494.2	generate	Run1	generate/STIM_014.jpg	100
364.99	1.79	1790.5	generate	Run1	generate/STIM_014.jpg	100
369.963	2.627	2626.6	generate	Run1	generate/STIM_015.jpg	100
375.371	1.888	1888.3	generate	Run1	generate/STIM_015.jpg	100
380.105	1.081	1080.7	generate	Run1	generate/STIM_015.jpg	99
383.78	2.102	2101.6	generate	Run1	generate/STIM_015.jpg	99
388.363	1.223	1222.9	generate	Run1	generate/STIM_015.jpg	99
391.644	2.716	2715.7	generate	Run1	generate/STIM_016.jpg	99
397.101	2.251	2251.1	generate	Run1	generate/STIM_016.jpg	99
401.686	1.677	1677.4	generate	Run1	generate/STIM_016.jpg	99
406.523	1.923	1922.6	generate	Run1	generate/STIM_016.jpg	100
411.129	1.257	1257.4	generate	Run1	generate/STIM_016.jpg	100
415.356	2.379	2378.6	generate	Run1	generate/STIM_017.jpg	100
420.492	1.188	1188.1	generate	Run1	generate/STIM_017.jpg	100
424.524	2.279	2278.6	generate	Run1	generate/STIM_017.jpg	99
428.824	1.942	1941.6	generate	Run1	generate/STIM_017.jpg	100
434.163	1.756	1755.5	generate	Run1	generate/STIM_017.jpg	100
438.189	1.84	1840.1	generate	Run1	generate/STIM_018.jpg	99
443.731	2.126	2126.1	generate	Run1	generate/STIM_018.jpg	100
449.738	2.108	2107.8	generate	Run1	generate/STIM_018.jpg	99
455.039	1.171	1171.0	generate	Run1	generate/STIM_018.jpg	99
460.049	1.614	1614.2	generate	Run1	generate/STIM_018.jpg	100
464.347	2.204	2203.5	generate	Run1	generate/STIM_019.jpg	99
470.341	2.013	2012.8	generate	Run1	generate/STIM_019.jpg	99
474.437	2.03	2030.0	generate	Run1	generate/STIM_019.jpg	99
479.9	1.29	1290.1	generate	Run1	generate/STIM_019.jpg	99
483.368	2.031	2030.6	generate	Run1	generate/STIM_019.jpg	99
488.5	1.326	1326.2	generate	Run1	generate/STIM_020.jpg	99
492.272	2.293	2292.9	generate	Run1	generate/STIM_020.jpg	100
497.185	1.077	1076.7	generate	Run1	generate/STIM_020.jpg	99
502.155	1.904	1903.8	generate	Run1	generate/STIM_020.jpg	99
507.492	1.893	1893.0	generate	Run1	generate/STIM_020.jpg	99
513.237	1.557	1557.3	generate	Run1	generate/STIM_021.jpg	99
517.692	1.208	1208.0	generate	Run1	generate/STIM_021.jpg	99
522.316	1.48	1479.9	generate	Run1	generate/STIM_021.jpg	99
527.014	1.82	1819.9	generate	Run1	generate/STIM_021.jpg	100
532.166	2.19	2189.8	generate	Run1	generate/STIM_021.jpg	100
537.857	2.848	2848.4	generate	Run1	generate/STIM_022.jpg	99
542.998	1.709	1709.4	generate	Run1	generate/STIM_022.jpg	99
547.401	2.48	2480.4	generate	Run1	generate/STIM_022.jpg	100
553.013	1.273	1272.9	generate	Run1	generate/STIM_022.jpg	99
557.667	1.534	1533.7	generate	Run1	generate/STIM_022.jpg	100
561.525	1.272	1271.6	generate	Run1	generate/STIM_023.jpg	99
565.172	2.586	2586.0	generate	Run1	generate/STIM_023.jpg	100
570.9	1.557	1557.2	generate	Run1	generate/STIM_023.jpg	100
575.544	1.436	1435.6	generate	Run1	generate/STIM_023.jpg	100
579.092	2.148	2147.8	generate	Run1	generate/STIM_023.jpg	100
584.295	2.259	2258.7	generate	Run1	generate/STIM_024.jpg	99
590.415	1.399	1398.7	generate	Run1	generate/STIM_024.jpg	99
593.996	2.274	2273.6	generate	Run1	generate/STIM_024.jpg	100
598.786	1.501	1500.9	generate	Run1	generate/STIM_024.jpg	99
602.705	1.364	1363.5	generate	Run1	generate/STIM_024.jpg	100
606.885	0.769	769.4	repeat	Run1	repeat/STIM_000.jpg	99
610.858	0.818	817.7	repeat	Run1	repeat/STIM_000.jpg	100
615.52	0.875	875.1	repeat	Run1	repeat/STIM_000.jpg	100
618.977	0.743	743.0	repeat	Run1	repeat/STIM_000.jpg	100
623.429	0.947	946.6	repeat	Run1	repeat/STIM_000.jpg	100
626.936	0.744	744.3	repeat	Run1	repeat/STIM_001.jpg	100
630.466	0.573	573.3	repeat	Run1	repeat/STIM_001.jpg	100
634.915	0.681	681.2	repeat	Run1	repeat/STIM_001.jpg	99
638.612	0.514	514.3	repeat	Run1	repeat/STIM_001.jpg	100
642.487	0.606	606.3	repeat	Run1	repeat/STIM_001.jpg	100
646.066	0.829	829.0	repeat	Run1	repeat/STIM_002.jpg	100
649.161	0.883	883.3	repeat	Run1	repeat/STIM_002.jpg	99
653.046	0.817	817.2	repeat	Run1	repeat/STIM_002.jpg	99
657.579	0.482	481.8	repeat	Run1	repeat/STIM_002.jpg	100
661.77	0.957	956.6	repeat	Run1	repeat/STIM_002.jpg	99
665.348	0.638	638.1	repeat	Run1	repeat/STIM_003.jpg	100
669.076	0.816	816.3	repeat	Run1	repeat/STIM_003.jpg	99
672.621	0.701	701.4	repeat	Run1	repeat/STIM_003.jpg	99
675.436	0.703	702.7	repeat	Run1	repeat/STIM_003.jpg	99
678.844	0.853	853.2	repeat	Run1	repeat/STIM_003.jpg	100
683.629	0.613	613.4	repeat	Run1	repeat/STIM_004.jpg	100
687.207	0.517	516.9	repeat	Run1	repeat/STIM_004.jpg	99
689.919	0.544	544.4	repeat	Run1	repeat/STIM_004.jpg	100
693.916	0.511	510.7	repeat	Run1	repeat/STIM_004.jpg	100
697.728	0.904	904.1	repeat	Run1	repeat/STIM_004.jpg	99
701.269	0.825	824.6	repeat	Run1	repeat/STIM_005.jpg	99
704.939	0.666	666.2	repeat	Run1	repeat/STIM_005.jpg	99
708.916	0.542	541.5	repeat	Run1	repeat/STIM_005.jpg	99
713.416	0.504	504.1	repeat	Run1	repeat/STIM_005.jpg	99
717.912	0.821	821.2	repeat	Run1	repeat/STIM_005.jpg	100
721.687	0.708	707.6	repeat	Run1	repeat/STIM_006.jpg	100
725.801	0.485	484.6	repeat	Run1	repeat/STIM_006.jpg	100
729.789	0.757	756.7	repeat	Run1	repeat/STIM_006.jpg	100
732.909	0.678	677.6	repeat	Run1	repeat/STIM_006.jpg	100
736.67	0.832	832.4	repeat	Run1	repeat/STIM_006.jpg	99
740.809	0.576	575.9	repeat	Run1	repeat/STIM_007.jpg	99
743.71	0.666	665.5	repeat	Run1	repeat/STIM_007.jpg	99
746.947	0.637	637.3	repeat	Run1	repeat/STIM_007.jpg	99
751.097	0.896	896.5	repeat	Run1	repeat/STIM_007.jpg	100
754.151	0.634	634.1	repeat	Run1	repeat/STIM_007.jpg	99
758.486	0.699	699.0	repeat	Run1	repeat/STIM_008.jpg	100
762.825	0.864	863.5	repeat	Run1	repeat/STIM_008.jpg	100
766.307	0.78	779.8	repeat	Run1	repeat/STIM_008.jpg	99
770.997	0.787	787.4	repeat	Run1	repeat/STIM_008.jpg	99
775.199	0.932	932.4	repeat	Run1	repeat/STIM_008.jpg	100
778.945	0.732	731.6	repeat	Run1	repeat/STIM_009.jpg	100
783.329	0.917	916.6	repeat	Run1	repeat/STIM_009.jpg	100
788.037	0.788	787.9	repeat	Run1	repeat/STIM_009.jpg	99
791.694	0.726	725.6	repeat	Run1	repeat/STIM_009.jpg	100
796.228	0.836	836.1	repeat	Run1	repeat/STIM_009.jpg	100
799.177	0.51	509.9	repeat	Run1	repeat/STIM_010.jpg	100
803.448	0.506	505.6	repeat	Run1	repeat/STIM_010.jpg	100
807.375	0.829	829.1	repeat	Run1	repeat/STIM_010.jpg	99
810.507	0.521	521.1	repeat	Run1	repeat/STIM_010.jpg	99
814.792	0.696	696.5	repeat	Run1	repeat/STIM_010.jpg	99
818.33	0.927	927.2	repeat	Run1	repeat/STIM_011.jpg	99
822.122	0.88	880.5	repeat	Run1	repeat/STIM_011.jpg	99
826.713	0.884	883.9	repeat	Run1	repeat/STIM_011.jpg	99
829.67	0.542	542.2	repeat	Run1	repeat/STIM_011.jpg	99
833.31	0.62	620.5	repeat	Run1	repeat/STIM_011.jpg	100
836.362	0.874	873.8	repeat	Run1	repeat/STIM_012.jpg	100
839.663	0.744	744.3	repeat	Run1	repeat/STIM_012.jpg	100
844.296	0.766	766.4	repeat	Run1	repeat/STIM_012.jpg	99
847.66	0.918	917.9	repeat	Run1	repeat/STIM_012.jpg	99
852.058	0.628	628.4	repeat	Run1	repeat/STIM_012.jpg	99
854.795	0.576	576.2	repeat	Run1	repeat/STIM_013.jpg	100
857.627	0.563	563.3	repeat	Run1	repeat/STIM_013.jpg	100
860.586	0.892	891.7	repeat	Run1	repeat/STIM_013.jpg	100
865.29	0.803	802.7	repeat	Run1	repeat/STIM_013.jpg	99
868.124	0.814	813.7	repeat	Run1	repeat/STIM_013.jpg	99
871.901	0.909	908.8	repeat	Run1	repeat/STIM_014.jpg	99
876.046	0.952	951.5	repeat	Run1	repeat/STIM_014.jpg	100
879.013	0.934	934.1	repeat	Run1	repeat/STIM_014.jpg	100
883.87	0.856	855.6	repeat	Run1	repeat/STIM_014.jpg	100
887.016	0.622	621.6	repeat	Run1	repeat/STIM_014.jpg	100
890.426	1.21	1209.8	generate	Run2	generate/STIM_000.jpg	100
894.283	1.139	1138.6	generate	Run2	generate/STIM_000.jpg	99
898.808	1.433	1433.3	generate	Run2	generate/STIM_000.jpg	100
902.647	1.037	1036.7	generate	Run2	generate/STIM_000.jpg	99
907.537	1.431	1431.3	generate	Run2	generate/STIM_000.jpg	100
911.273	1.286	1285.7	generate	Run2	generate/STIM_001.jpg	99
914.574	2.213	2213.1	generate	Run2	generate/STIM_001.jpg	99
919.363	1.372	1371.7	generate	Run2	generate/STIM_001.jpg	99
924.277	1.974	1974.3	generate	Run2	generate/STIM_001.jpg	100
929.197	1.414	1414.0	generate	Run2	generate/STIM_001.jpg	100
932.834	1.194	1194.2	generate	Run2	generate/STIM_002.jpg	100
937.758	2.284	2283.6	generate	Run2	generate/STIM_002.jpg	99
942.06	1.624	1624.1	generate	Run2	generate/STIM_002.jpg	100
947.057	1.642	1641.7	generate	Run2	generate/STIM_002.jpg	99
952.269	0.977	976.7	generate	Run2	generate/STIM_002.jpg	99
955.633	1.07	1070.3	generate	Run2	generate/STIM_003.jpg	100
959.432	1.103	1103.1	generate	Run2	generate/STIM_003.jpg	99
963.8	1.434	1433.5	generate	Run2	generate/STIM_003.jpg	100
968.487	1.135	1135.1	generate	Run2	generate/STIM_003.jpg	99
972.238	1.407	1407.0	generate	Run2	generate/STIM_003.jpg	100
976.243	1.843	1843.4	generate	Run2	generate/STIM_004.jpg	99
982.085	2.137	2137.2	generate	Run2	generate/STIM_004.jpg	100
987.231	1.105	1105.3	generate	Run2	generate/STIM_004.jpg	100
991.011	1.659	1659.1	generate	Run2	generate/STIM_004.jpg	99
995.772	1.881	1881.4	generate	Run2	generate/STIM_004.jpg	100
1000.42	2.381	2381.0	generate	Run2	generate/STIM_005.jpg	99
1005.855	1.288	1287.9	generate	Run2	generate/STIM_005.jpg	99
1010.257	1.039	1038.8	generate	Run2	generate/STIM_005.jpg	100
1013.852	1.418	1418.4	generate	Run2	generate/STIM_005.jpg	99
1018.436	0.986	985.9	generate	Run2	generate/STIM_005.jpg	99
1022.668	1.709	1709.4	generate	Run2	generate/STIM_006.jpg	99
1027.334	1.867	1866.6	generate	Run2	generate/STIM_006.jpg	100
1031.876	1.612	1612.1	generate	Run2	generate/STIM_006.jpg	100
1037.408	1.294	1294.1	generate	Run2	generate/STIM_006.jpg	99
1041.034	0.925	924.6	generate	Run2	generate/STIM_006.jpg	100
1044.343	2.173	2172.9	generate	Run2	generate/STIM_007.jpg	99
1049.811	1.146	1146.5	generate	Run2	generate/STIM_007.jpg	99
1053.085	2.067	2066.6	generate	Run2	generate/STIM_007.jpg	100
1057.25	1.306	1306.2	generate	Run2	generate/STIM_007.jpg	99
1062.424	1.567	1567.0	generate	Run2	generate/STIM_007.jpg	99
1066.701	1.739	1739.0	generate	Run2	generate/STIM_008.jpg	100
1072.077	1.295	1294.7	generate	Run2	generate/STIM_008.jpg	99
1076.067	1.926	1926.1	generate	Run2	generate/STIM_008.jpg	100
1081.604	1.633	1633.4	generate	Run2	generate/STIM_008.jpg	100
1085.601	1.454	1454.2	generate	Run2	generate/STIM_008.jpg	99
1089.079	2.294	2294.3	generate	Run2	generate/STIM_009.jpg	99
1094.88	1.46	1459.8	generate	Run2	generate/STIM_009.jpg	100
1098.632	1.773	1772.9	generate	Run2	generate/STIM_009.jpg	99
1104.033	0.818	818.5	generate	Run2	generate/STIM_009.jpg	100
1108.191	1.285	1284.8	generate	Run2	generate/STIM_009.jpg	100
1113.281	1.721	1720.9	generate	Run2	generate/STIM_010.jpg	99
1118.157	1.257	1256.8	generate	Run2	generate/STIM_010.jpg	100
1122.23	1.618	1618.3	generate	Run2	generate/STIM_010.jpg	99
1127.164	1.367	1366.8	generate	Run2	generate/STIM_010.jpg	100
1130.555	1.743	1742.7	generate	Run2	generate/STIM_010.jpg	100
1135.361	1.016	1016.0	generate	Run2	generate/STIM_011.jpg	100
1139.8	2.143	2143.0	generate	Run2	generate/STIM_011.jpg	100
1145.897	1.0	999.8	generate	Run2	generate/STIM_011.jpg	100
1148.927	1.124	1124.5	generate	Run2	generate/STIM_011.jpg	99
1153.771	1.284	1283.6	generate	Run2	generate/STIM_011.jpg	100
1157.084	1.806	1806.4	generate	Run2	generate/STIM_012.jpg	99
1162.117	2.183	2183.1	generate	Run2	generate/STIM_012.jpg	99
1167.838	1.43	1429.8	generate	Run2	generate/STIM_012.jpg	100
1172.462	1.889	1889.2	generate	Run2	generate/STIM_012.jpg	99
1178.112	1.35	1350.3	generate	Run2	generate/STIM_012.jpg	99
1182.954	1.502	1501.9	generate	Run2	generate/STIM_013.jpg	99
1186.883	1.067	1067.2	generate	Run2	generate/STIM_013.jpg	99
1191.174	1.961	1960.7	generate	Run2	generate/STIM_013.jpg	99
1196.033	1.573	1572.7	generate	Run2	generate/STIM_013.jpg	99
1200.326	1.542	1541.9	generate	Run2	generate/STIM_013.jpg	100
1205.424	1.269	1268.6	generate	Run2	generate/STIM_014.jpg	99
1210.415	1.802	1801.6	generate	Run2	generate/STIM_014.jpg	100
1214.479	2.081	2080.6	generate	Run2	generate/STIM_014.jpg	99
1220.438	1.482	1482.5	generate	Run2	generate/STIM_014.jpg	99
1224.514	1.189	1189.2	generate	Run2	generate/STIM_014.jpg	99
1228.437	1.699	1698.7	generate	Run2	generate/STIM_015.jpg	100
1233.788	1.354	1354.3	generate	Run2	generate/STIM_015.jpg	99
1237.531	2.072	2071.9	generate	Run2	generate/STIM_015.jpg	99
1243.588	1.412	1411.8	generate	Run2	generate/STIM_015.jpg	99
1247.271	1.329	1328.7	generate	Run2	generate/STIM_015.jpg	99
1250.844	1.45	1449.6	generate	Run2	generate/STIM_016.jpg	100
1254.686	1.339	1338.8	generate	Run2	generate/STIM_016.jpg	100
1258.86	0.934	934.1	generate	Run2	generate/STIM_016.jpg	100
1261.876	1.624	1624.3	generate	Run2	generate/STIM_016.jpg	100
1267.238	1.05	1050.3	generate	Run2	generate/STIM_016.jpg	99
1270.799	1.529	1528.6	generate	Run2	generate/STIM_017.jpg	99
1276.117	1.549	1549.2	generate	Run2	generate/STIM_017.jpg	99
1280.418	1.998	1998.5	generate	Run2	generate/STIM_017.jpg	99
1284.434	0.821	820.7	generate	Run2	generate/STIM_017.jpg	99
1288.895	1.285	1285.4	generate	Run2	generate/STIM_017.jpg	99
1292.89	1.08	1079.8	generate	Run2	generate/STIM_018.jpg	99
1296.842	1.318	1318.2	generate	Run2	generate/STIM_018.jpg	100
1301.905	1.788	1787.9	generate	Run2	generate/STIM_018.jpg	100
1306.768	1.386	1386.2	generate	Run2	generate/STIM_018.jpg	99
1311.493	1.082	1081.9	generate	Run2	generate/STIM_018.jpg	100
1315.616	1.396	1396.0	generate	Run2	generate/STIM_019.jpg	99
1320.643	1.901	1901.3	generate	Run2	generate/STIM_019.jpg	99
1325.183	0.997	996.8	generate	Run2	generate/STIM_019.jpg	100
1328.745	1.578	1578.3	generate	Run2	generate/STIM_019.jpg	99
1333.488	1.407	1406.8	generate	Run2	generate/STIM_019.jpg	99
1337.044	1.679	1679.1	generate	Run2	generate/STIM_020.jpg	99
1341.479	1.768	1768.1	generate	Run2	generate/STIM_020.jpg	100
1346.617	1.802	1801.9	generate	Run2	generate/STIM_020.jpg	99
1352.096	1.041	1040.8	generate	Run2	generate/STIM_020.jpg	99
1356.185	1.374	1374.3	generate	Run2	generate/STIM_020.jpg	100
1361.366	1.47	1469.5	generate	Run2	generate/STIM_021.jpg	100
1366.632	0.992	992.5	generate	Run2	generate/STIM_021.jpg	100
1371.126	1.644	1644.0	generate	Run2	generate/STIM_021.jpg	100
1376.637	1.867	1867.0	generate	Run2	generate/STIM_021.jpg	99
1382.292	1.815	1815.3	generate	Run2	generate/STIM_021.jpg	100
1386.377	1.009	1008.9	generate	Run2	generate/STIM_022.jpg	100
1391.035	1.853	1853.3	generate	Run2	generate/STIM_022.jpg	100
1396.35	1.611	1611.1	generate	Run2	generate/STIM_022.jpg	99
1401.183	1.086	1086.1	generate	Run2	generate/STIM_022.jpg	99
1405.964	1.248	1248.1	generate	Run2	generate/STIM_022.jpg	99
1409.985	1.223	1222.7	generate	Run2	generate/STIM_023.jpg	99
1414.002	1.412	1412.3	generate	Run2	generate/STIM_023.jpg	100
1418.287	0.934	933.7	generate	Run2	generate/STIM_023.jpg	99
1423.121	1.876	1875.7	generate	Run2	generate/STIM_023.jpg	99
1428.236	1.785	1785.0	generate	Run2	generate/STIM_023.jpg	99
1432.086	1.187	1187.2	generate	Run2	generate/STIM_024.jpg	100
1435.499	0.944	943.8	generate	Run2	generate/STIM_024.jpg	99
1439.071	1.076	1075.8	generate	Run2	generate/STIM_024.jpg	100
1442.212	1.08	1079.6	generate	Run2	generate/STIM_024.jpg	100
1446.755	1.336	1335.9	generate	Run2	generate/STIM_024.jpg	99
1450.409	0.692	692.0	repeat	Run2	repeat/STIM_000.jpg	100
1453.718	0.829	829.3	repeat	Run2	repeat/STIM_000.jpg	99
1457.846	0.793	792.8	repeat	Run2	repeat/STIM_000.jpg	99
1462.595	0.536	535.7	repeat	Run2	repeat/STIM_000.jpg	99
1467.014	0.54	539.8	repeat	Run2	repeat/STIM_000.jpg	100
1471.037	0.903	903.1	repeat	Run2	repeat/STIM_001.jpg	99
1474.511	0.646	646.2	repeat	Run2	repeat/STIM_001.jpg	99
1478.672	0.682	681.7	repeat	Run2	repeat/STIM_001.jpg	99
1482.419	0.805	805.2	repeat	Run2	repeat/STIM_001.jpg	99
1485.574	0.817	817.1	repeat	Run2	repeat/STIM_001.jpg	100
1488.678	0.847	846.6	repeat	Run2	repeat/STIM_002.jpg	100
1493.279	0.932	931.6	repeat	Run2	repeat/STIM_002.jpg	100
1496.463	0.768	768.2	repeat	Run2	repeat/STIM_002.jpg	100
1500.147	0.764	763.7	repeat	Run2	repeat/STIM_002.jpg	100
1503.057	0.745	745.3	repeat	Run2	repeat/STIM_002.jpg	99
1506.788	0.656	656.2	repeat	Run2	repeat/STIM_003.jpg	100
1510.5	0.941	941.3	repeat	Run2	repeat/STIM_003.jpg	99
1514.335	0.744	744.2	repeat	Run2	repeat/STIM_003.jpg	100
1518.523	0.654	653.5	repeat	Run2	repeat/STIM_003.jpg	100
1522.938	0.696	695.7	repeat	Run2	repeat/STIM_003.jpg	100
1526.048	0.748	748.4	repeat	Run2	repeat/STIM_004.jpg	99
1529.248	0.63	629.8	repeat	Run2	repeat/STIM_004.jpg	99
1532.595	0.768	768.0	repeat	Run2	repeat/STIM_004.jpg	99
1536.071	0.563	562.9	repeat	Run2	repeat/STIM_004.jpg	99
1539.058	0.883	882.7	repeat	Run2	repeat/STIM_004.jpg	100
1543.333	0.662	662.5	repeat	Run2	repeat/STIM_005.jpg	100
1547.297	0.901	900.7	repeat	Run2	repeat/STIM_005.jpg	100
1551.699	0.954	953.5	repeat	Run2	repeat/STIM_005.jpg	100
1555.472	0.585	585.0	repeat	Run2	repeat/STIM_005.jpg	100
1559.961	0.662	661.7	repeat	Run2	repeat/STIM_005.jpg	99
1563.16	0.734	733.8	repeat	Run2	repeat/STIM_006.jpg	99
1567.004	0.876	876.2	repeat	Run2	repeat/STIM_006.jpg	99
1570.59	0.799	798.7	repeat	Run2	repeat/STIM_006.jpg	99
1573.805	0.544	544.0	repeat	Run2	repeat/STIM_006.jpg	100
1577.422	0.642	642.1	repeat	Run2	repeat/STIM_006.jpg	99
1582.021	0.797	796.6	repeat	Run2	repeat/STIM_007.jpg	99
1585.051	0.941	940.8	repeat	Run2	repeat/STIM_007.jpg	99
1589.37	0.738	737.6	repeat	Run2	repeat/STIM_007.jpg	100
1592.445	0.925	925.4	repeat	Run2	repeat/STIM_007.jpg	100
1596.862	0.855	855.1	repeat	Run2	repeat/STIM_007.jpg	100
1601.053	0.723	722.7	repeat	Run2	repeat/STIM_008.jpg	100
1605.176	0.674	674.2	repeat	Run2	repeat/STIM_008.jpg	100
1608.912	0.84	840.4	repeat	Run2	repeat/STIM_008.jpg	99
1612.122	0.814	814.5	repeat	Run2	repeat/STIM_008.jpg	99
1615.464	0.538	538.0	repeat	Run2	repeat/STIM_008.jpg	100
1618.071	0.691	691.0	repeat	Run2	repeat/STIM_009.jpg	99
1621.381	0.652	651.7	repeat	Run2	repeat/STIM_009.jpg	99
1625.433	0.655	655.0	repeat	Run2	repeat/STIM_009.jpg	99
1628.593	0.855	855.4	repeat	Run2	repeat/STIM_009.jpg	100
1632.436	0.916	915.7	repeat	Run2	repeat/STIM_009.jpg	99
1636.767	0.558	558.3	repeat	Run2	repeat/STIM_010.jpg	100
1640.154	0.928	927.8	repeat	Run2	repeat/STIM_010.jpg	99
1644.787	0.878	878.0	repeat	Run2	repeat/STIM_010.jpg	100
1649.425	0.69	690.1	repeat	Run2	repeat/STIM_010.jpg	100
1652.448	0.515	514.8	repeat	Run2	repeat/STIM_010.jpg	100
1656.634	0.816	815.9	repeat	Run2	repeat/STIM_011.jpg	100
1659.711	0.594	593.5	repeat	Run2	repeat/STIM_011.jpg	99
1664.272	0.831	831.0	repeat	Run2	repeat/STIM_011.jpg	100
1668.856	0.785	785.2	repeat	Run2	repeat/STIM_011.jpg	100
1673.094	0.856	856.2	repeat	Run2	repeat/STIM_011.jpg	100
1677.74	0.852	851.5	repeat	Run2	repeat/STIM_012.jpg	100
1680.749	0.648	647.8	repeat	Run2	repeat/STIM_012.jpg	99
1685.362	0.63	630.5	repeat	Run2	repeat/STIM_012.jpg	99
1689.701	0.55	549.9	repeat	Run2	repeat/STIM_012.jpg	99
1692.405	0.792	791.6	repeat	Run2	repeat/STIM_012.jpg	99
1696.153	0.535	534.7	repeat	Run2	repeat/STIM_013.jpg	100
1700.132	0.556	556.0	repeat	Run2	repeat/STIM_013.jpg	100
1703.01	0.884	883.6	repeat	Run2	repeat/STIM_013.jpg	99
1706.16	0.799	798.9	repeat	Run2	repeat/STIM_013.jpg	100
1710.659	0.774	774.3	repeat	Run2	repeat/STIM_013.jpg	99
1714.657	0.74	739.8	repeat	Run2	repeat/STIM_014.jpg	99
1718.434	0.786	786.5	repeat	Run2	repeat/STIM_014.jpg	100
1721.906	0.929	929.4	repeat	Run2	repeat/STIM_014.jpg	99
1726.764	0.836	836.0	repeat	Run2	repeat/STIM_014.jpg	100
1731.37	0.7	700.5	repeat	Run2	repeat/STIM_014.jpg	99
1734.797	1.604	1604.4	generate	Run3	generate/STIM_000.jpg	100
1738.767	1.724	1723.9	generate	Run3	generate/STIM_000.jpg	99
1743.095	1.77	1770.2	generate	Run3	generate/STIM_000.jpg	100
1748.422	1.604	1603.9	generate	Run3	generate/STIM_000.jpg	99
1753.236	0.889	889.1	generate	Run3	generate/STIM_000.jpg	100
1757.642	1.617	1616.8	generate	Run3	generate/STIM_001.jpg	99
1762.881	1.02	1020.5	generate	Run3	generate/STIM_001.jpg	100
1766.603	0.847	846.9	generate	Run3	generate/STIM_001.jpg	99
1770.978	1.046	1046.5	generate	Run3	generate/STIM_001.jpg	100
1775.87	1.75	1749.9	generate	Run3	generate/STIM_001.jpg	100
1781.376	1.437	1437.4	generate	Run3	generate/STIM_002.jpg	99
1785.325	1.42	1419.8	generate	Run3	generate/STIM_002.jpg	100
1788.988	1.69	1690.0	generate	Run3	generate/STIM_002.jpg	100
1792.933	1.404	1403.5	generate	Run3	generate/STIM_002.jpg	100
1796.651	1.509	1509.4	generate	Run3	generate/STIM_002.jpg	100
1801.17	0.911	910.6	generate	Run3	generate/STIM_003.jpg	99
1805.243	1.655	1654.6	generate	Run3	generate/STIM_003.jpg	99
1809.034	1.01	1010.4	generate	Run3	generate/STIM_003.jpg	100
1813.114	1.549	1549.0	generate	Run3	generate/STIM_003.jpg	99
1817.173	1.581	1580.8	generate	Run3	generate/STIM_003.jpg	100
1821.225	1.572	1572.0	generate	Run3	generate/STIM_004.jpg	99
1825.7	1.558	1558.4	generate	Run3	generate/STIM_004.jpg	99
1831.252	1.41	1410.2	generate	Run3	generate/STIM_004.jpg	99
1834.743	1.728	1727.7	generate	Run3	generate/STIM_004.jpg	99
1839.457	1.989	1989.2	generate	Run3	generate/STIM_004.jpg	100
1843.521	1.086	1085.8	generate	Run3	generate/STIM_005.jpg	100
1847.058	0.865	865.1	generate	Run3	generate/STIM_005.jpg	99
1850.432	0.937	937.2	generate	Run3	generate/STIM_005.jpg	99
1853.534	0.928	928.3	generate	Run3	generate/STIM_005.jpg	99
1858.145	1.327	1326.6	generate	Run3	generate/STIM_005.jpg	100
1862.657	1.178	1178.1	generate	Run3	generate/STIM_006.jpg	99
1867.14	1.969	1969.4	generate	Run3	generate/STIM_006.jpg	100
1871.71	1.253	1252.7	generate	Run3	generate/STIM_006.jpg	100
1876.488	1.979	1979.4	generate	Run3	generate/STIM_006.jpg	100
1882.166	1.227	1227.4	generate	Run3	generate/STIM_006.jpg	100
1887.27	1.02	1019.9	generate	Run3	generate/STIM_007.jpg	99
1890.86	0.958	957.7	generate	Run3	generate/STIM_007.jpg	99
1895.689	0.958	958.4	generate	Run3	generate/STIM_007.jpg	100
1899.012	1.897	1897.2	generate	Run3	generate/STIM_007.jpg	99
1903.429	1.657	1657.0	generate	Run3	generate/STIM_007.jpg	99
1908.213	1.616	1615.5	generate	Run3	generate/STIM_008.jpg	100
1913.033	1.938	1937.7	generate	Run3	generate/STIM_008.jpg	99
1918.223	1.267	1267.2	generate	Run3	generate/STIM_008.jpg	99
1922.154	1.982	1981.6	generate	Run3	generate/STIM_008.jpg	100
1928.08	1.225	1224.6	generate	Run3	generate/STIM_008.jpg	99
1932.648	1.258	1258.1	generate	Run3	generate/STIM_009.jpg	100
1936.947	0.991	991.4	generate	Run3	generate/STIM_009.jpg	99
1941.586	1.161	1160.8	generate	Run3	generate/STIM_009.jpg	100
1946.028	1.122	1122.0	generate	Run3	generate/STIM_009.jpg	100
1949.248	1.859	1858.9	generate	Run3	generate/STIM_009.jpg	99
1954.534	1.219	1219.0	generate	Run3	generate/STIM_010.jpg	100
1958.792	0.905	905.1	generate	Run3	generate/STIM_010.jpg	100
1963.228	1.983	1982.8	generate	Run3	generate/STIM_010.jpg	100
1967.411	1.608	1607.9	generate	Run3	generate/STIM_010.jpg	99
1971.802	1.467	1467.1	generate	Run3	generate/STIM_010.jpg	99
1975.432	1.92	1920.3	generate	Run3	generate/STIM_011.jpg	99
1979.558	1.309	1309.3	generate	Run3	generate/STIM_011.jpg	99
1984.417	1.951	1951.2	generate	Run3	generate/STIM_011.jpg	99
1989.016	1.953	1953.1	generate	Run3	generate/STIM_011.jpg	100
1993.631	1.85	1849.7	generate	Run3	generate/STIM_011.jpg	99
1997.634	1.875	1875.4	generate	Run3	generate/STIM_012.jpg	99
2001.977	1.306	1305.9	generate	Run3	generate/STIM_012.jpg	99
2006.791	1.185	1184.7	generate	Run3	generate/STIM_012.jpg	99
2010.394	0.817	817.4	generate	Run3	generate/STIM_012.jpg	99
2014.938	1.918	1918.4	generate	Run3	generate/STIM_012.jpg	99
2018.921	0.852	852.2	generate	Run3	generate/STIM_013.jpg	99
2023.532	1.728	1728.3	generate	Run3	generate/STIM_013.jpg	100
2027.355	1.163	1163.4	generate	Run3	generate/STIM_013.jpg	99
2030.802	0.879	879.4	generate	Run3	generate/STIM_013.jpg	99
2033.978	1.086	1086.2	generate	Run3	generate/STIM_013.jpg	100
2037.415	1.981	1981.4	generate	Run3	generate/STIM_014.jpg	99
2041.734	1.001	1001.1	generate	Run3	generate/STIM_014.jpg	100
2046.437	0.849	848.8	generate	Run3	generate/STIM_014.jpg	99
2049.632	1.694	1694.5	generate	Run3	generate/STIM_014.jpg	100
2053.465	2.011	2011.2	generate	Run3	generate/STIM_014.jpg	99
2057.647	1.349	1348.8	generate	Run3	generate/STIM_015.jpg	100
2061.05	1.486	1485.9	generate	Run3	generate/STIM_015.jpg	99
2065.367	1.8	1799.7	generate	Run3	generate/STIM_015.jpg	100
2069.447	1.248	1247.5	generate	Run3	generate/STIM_015.jpg	99
2074.54	1.748	1747.8	generate	Run3	generate/STIM_015.jpg	100
2079.501	1.464	1463.7	generate	Run3	generate/STIM_016.jpg	100
2083.899	1.33	1329.9	generate	Run3	generate/STIM_016.jpg	99
2087.273	1.617	1616.7	generate	Run3	generate/STIM_016.jpg	99
2092.046	1.227	1226.9	generate	Run3	generate/STIM_016.jpg	100
2096.146	1.54	1539.9	generate	Run3	generate/STIM_016.jpg	99
2101.036	1.766	1765.6	generate	Run3	generate/STIM_017.jpg	100
2105.645	1.303	1303.2	generate	Run3	generate/STIM_017.jpg	100
2109.686	1.483	1482.6	generate	Run3	generate/STIM_017.jpg	99
2113.528	1.449	1449.3	generate	Run3	generate/STIM_017.jpg	99
2117.448	1.091	1090.7	generate	Run3	generate/STIM_017.jpg	100
2121.98	1.513	1513.0	generate	Run3	generate/STIM_018.jpg	100
2127.244	1.267	1266.9	generate	Run3	generate/STIM_018.jpg	100
2131.845	1.477	1476.7	generate	Run3	generate/STIM_018.jpg	100
2136.447	1.442	1441.9	generate	Run3	generate/STIM_018.jpg	99
2141.095	0.957	956.9	generate	Run3	generate/STIM_018.jpg	99
2145.689	1.58	1579.9	generate	Run3	generate/STIM_019.jpg	100
2149.81	0.938	938.4	generate	Run3	generate/STIM_019.jpg	99
2153.498	1.689	1688.8	generate	Run3	generate/STIM_019.jpg	99
2158.341	1.896	1896.0	generate	Run3	generate/STIM_019.jpg	100
2162.501	1.386	1385.5	generate	Run3	generate/STIM_019.jpg	99
2167.522	1.176	1175.9	generate	Run3	generate/STIM_020.jpg	100
2170.742	1.765	1764.9	generate	Run3	generate/STIM_020.jpg	99
2175.531	0.828	828.3	generate	Run3	generate/STIM_020.jpg	100
2179.479	1.285	1285.1	generate	Run3	generate/STIM_020.jpg	99
2184.375	1.129	1128.6	generate	Run3	generate/STIM_020.jpg	99
2188.838	1.704	1703.5	generate	Run3	generate/STIM_021.jpg	99
2193.013	1.056	1055.8	generate	Run3	generate/STIM_021.jpg	100
2197.442	1.811	1810.7	generate	Run3	generate/STIM_021.jpg	100
2202.225	1.772	1771.8	generate	Run3	generate/STIM_021.jpg	100
2206.913	1.257	1256.9	generate	Run3	generate/STIM_021.jpg	100
2210.503	0.843	843.2	generate	Run3	generate/STIM_022.jpg	99
2214.706	0.9	900.3	generate	Run3	generate/STIM_022.jpg	99
2219.217	0.951	951.0	generate	Run3	generate/STIM_022.jpg	100
2222.974	0.866	865.7	generate	Run3	generate/STIM_022.jpg	100
2226.627	1.498	1497.5	generate	Run3	generate/STIM_022.jpg	100
2231.01	0.836	835.8	generate	Run3	generate/STIM_023.jpg	100
2234.032	1.815	1814.8	generate	Run3	generate/STIM_023.jpg	100
2239.404	1.987	1986.6	generate	Run3	generate/STIM_023.jpg	100
2244.471	1.985	1985.0	generate	Run3	generate/STIM_023.jpg	99
2250.155	1.188	1188.1	generate	Run3	generate/STIM_023.jpg	99
2255.131	1.969	1969.4	generate	Run3	generate/STIM_024.jpg	99
2260.705	1.223	1223.2	generate	Run3	generate/STIM_024.jpg	99
2264.486	1.07	1070.1	generate	Run3	generate/STIM_024.jpg	100
2269.416	1.966	1966.1	generate	Run3	generate/STIM_024.jpg	99
2274.263	1.245	1245.0	generate	Run3	generate/STIM_024.jpg	100
2278.314	0.776	775.9	repeat	Run3	repeat/STIM_000.jpg	100
2282.018	0.806	805.8	repeat	Run3	repeat/STIM_000.jpg	99
2285.083	0.592	592.1	repeat	Run3	repeat/STIM_000.jpg	100
2289.373	0.773	773.3	repeat	Run3	repeat/STIM_000.jpg	99
2293.154	0.912	911.8	repeat	Run3	repeat/STIM_000.jpg	99
2296.488	0.891	890.9	repeat	Run3	repeat/STIM_001.jpg	100
2299.648	0.938	938.0	repeat	Run3	repeat/STIM_001.jpg	99
2304.476	0.838	837.9	repeat	Run3	repeat/STIM_001.jpg	100
2307.446	0.831	831.4	repeat	Run3	repeat/STIM_001.jpg	100
2311.216	0.657	657.3	repeat	Run3	repeat/STIM_001.jpg	99
2314.921	0.606	605.5	repeat	Run3	repeat/STIM_002.jpg	100
2317.543	0.826	825.6	repeat	Run3	repeat/STIM_002.jpg	100
2321.833	0.504	504.2	repeat	Run3	repeat/STIM_002.jpg	99
2325.605	0.925	924.7	repeat	Run3	repeat/STIM_002.jpg	99
2329.225	0.892	892.3	repeat	Run3	repeat/STIM_002.jpg	100
2332.88	0.61	610.4	repeat	Run3	repeat/STIM_003.jpg	100
2337.449	0.667	666.9	repeat	Run3	repeat/STIM_003.jpg	100
2342.077	0.561	561.3	repeat	Run3	repeat/STIM_003.jpg	100
2345.147	0.816	815.6	repeat	Run3	repeat/STIM_003.jpg	100
2348.109	0.558	558.0	repeat	Run3	repeat/STIM_003.jpg	100
2351.163	0.608	608.4	repeat	Run3	repeat/STIM_004.jpg	99
2354.741	0.808	807.6	repeat	Run3	repeat/STIM_004.jpg	99
2358.29	0.843	843.1	repeat	Run3	repeat/STIM_004.jpg	100
2361.368	0.911	911.4	repeat	Run3	repeat/STIM_004.jpg	99
2365.556	0.842	842.5	repeat	Run3	repeat/STIM_004.jpg	99
2369.331	0.862	861.8	repeat	Run3	repeat/STIM_005.jpg	99
2374.068	0.808	807.5	repeat	Run3	repeat/STIM_005.jpg	99
2377.224	0.916	915.5	repeat	Run3	repeat/STIM_005.jpg	99
2380.386	0.882	882.3	repeat	Run3	repeat/STIM_005.jpg	99
2384.046	0.875	875.2	repeat	Run3	repeat/STIM_005.jpg	100
2387.112	0.521	520.7	repeat	Run3	repeat/STIM_006.jpg	99
2391.238	0.672	672.5	repeat	Run3	repeat/STIM_006.jpg	100
2395.141	0.874	874.4	repeat	Run3	repeat/STIM_006.jpg	100
2398.096	0.8	799.7	repeat	Run3	repeat/STIM_006.jpg	99
2402.514	0.929	929.2	repeat	Run3	repeat/STIM_006.jpg	100
2407.152	0.866	866.2	repeat	Run3	repeat/STIM_007.jpg	99
2410.23	0.769	768.6	repeat	Run3	repeat/STIM_007.jpg	100
2414.809	0.731	730.6	repeat	Run3	repeat/STIM_007.jpg	99
2418.768	0.815	815.0	repeat	Run3	repeat/STIM_007.jpg	100
2422.606	0.563	563.4	repeat	Run3	repeat/STIM_007.jpg	99
2426.767	0.761	760.9	repeat	Run3	repeat/STIM_008.jpg	99
2430.886	0.643	643.0	repeat	Run3	repeat/STIM_008.jpg	100
2435.31	0.837	837.2	repeat	Run3	repeat/STIM_008.jpg	100
2439.639	0.754	754.1	repeat	Run3	repeat/STIM_008.jpg	100
2442.831	0.872	872.4	repeat	Run3	repeat/STIM_008.jpg	99
2445.992	0.688	687.8	repeat	Run3	repeat/STIM_009.jpg	100
2449.785	0.902	901.8	repeat	Run3	repeat/STIM_009.jpg	99
2454.107	0.653	653.3	repeat	Run3	repeat/STIM_009.jpg	100
2457.088	0.906	906.0	repeat	Run3	repeat/STIM_009.jpg	100
2460.41	0.539	538.8	repeat	Run3	repeat/STIM_009.jpg	100
2464.063	0.83	830.0	repeat	Run3	repeat/STIM_010.jpg	99
2467.67	0.831	831.1	repeat	Run3	repeat/STIM_010.jpg	99
2470.8	0.728	728.5	repeat	Run3	repeat/STIM_010.jpg	100
2475.137	0.698	698.3	repeat	Run3	repeat/STIM_010.jpg	100
2478.048	0.537	537.4	repeat	Run3	repeat/STIM_010.jpg	99
2481.023	0.632	631.9	repeat	Run3	repeat/STIM_011.jpg	99
2484.001	0.617	616.7	repeat	Run3	repeat/STIM_011.jpg	100
2487.384	0.832	831.6	repeat	Run3	repeat/STIM_011.jpg	99
2490.403	0.932	931.7	repeat	Run3	repeat/STIM_011.jpg	99
2494.141	0.692	691.5	repeat	Run3	repeat/STIM_011.jpg	99
2497.416	0.851	850.7	repeat	Run3	repeat/STIM_012.jpg	99
2501.392	0.891	890.8	repeat	Run3	repeat/STIM_012.jpg	100
2505.372	0.865	865.1	repeat	Run3	repeat/STIM_012.jpg	100
2508.297	0.744	743.8	repeat	Run3	repeat/STIM_012.jpg	99
2511.406	0.787	786.6	repeat	Run3	repeat/STIM_012.jpg	100
2516.164	0.859	858.6	repeat	Run3	repeat/STIM_013.jpg	99
2519.073	0.724	724.4	repeat	Run3	repeat/STIM_013.jpg	100
2522.018	0.531	531.2	repeat	Run3	repeat/STIM_013.jpg	99
2525.721	0.77	769.6	repeat	Run3	repeat/STIM_013.jpg	99
2530.441	0.665	664.9	repeat	Run3	repeat/STIM_013.jpg	99
2534.62	0.698	698.3	repeat	Run3	repeat/STIM_014.jpg	99
2537.697	0.632	632.0	repeat	Run3	repeat/STIM_014.jpg	100
2541.995	0.947	947.2	repeat	Run3	repeat/STIM_014.jpg	100
2546.784	0.678	678.1	repeat	Run3	repeat/STIM_014.jpg	100
2549.595	0.892	892.5	repeat	Run3	repeat/STIM_014.jpg	99
2553.987	0.901	900.6	generate	Run4	generate/STIM_000.jpg	99
2558.005	1.4	1399.5	generate	Run4	generate/STIM_000.jpg	99
2562.357	1.927	1927.1	generate	Run4	generate/STIM_000.jpg	99
2567.203	1.93	1929.6	generate	Run4	generate/STIM_000.jpg	99
2572.7	1.478	1477.5	generate	Run4	generate/STIM_000.jpg	100
2576.685	1.02	1020.1	generate	Run4	generate/STIM_001.jpg	100
2580.83	1.504	1503.8	generate	Run4	generate/STIM_001.jpg	100
2586.182	1.854	1854.1	generate	Run4	generate/STIM_001.jpg	100
2591.89	1.116	1116.0	generate	Run4	generate/STIM_001.jpg	99
2596.65	1.951	1950.8	generate	Run4	generate/STIM_001.jpg	100
2602.594	1.889	1888.7	generate	Run4	generate/STIM_002.jpg	99
2607.425	0.812	812.0	generate	Run4	generate/STIM_002.jpg	99
2611.266	1.57	1570.0	generate	Run4	generate/STIM_002.jpg	100
2615.668	1.532	1531.9	generate	Run4	generate/STIM_002.jpg	99
2619.904	1.512	1511.7	generate	Run4	generate/STIM_002.jpg	100
2624.567	1.067	1066.7	generate	Run4	generate/STIM_003.jpg	100
2628.742	1.032	1032.0	generate	Run4	generate/STIM_003.jpg	100
2633.441	1.237	1237.2	generate	Run4	generate/STIM_003.jpg	100
2637.458	1.88	1880.1	generate	Run4	generate/STIM_003.jpg	100
2641.964	1.029	1028.9	generate	Run4	generate/STIM_003.jpg	99
2645.156	0.998	997.8	generate	Run4	generate/STIM_004.jpg	100
2649.689	2.008	2008.2	generate	Run4	generate/STIM_004.jpg	99
2654.508	0.97	970.4	generate	Run4	generate/STIM_004.jpg	99
2658.728	1.688	1688.1	generate	Run4	generate/STIM_004.jpg	99
2663.522	1.135	1135.0	generate	Run4	generate/STIM_004.jpg	99
2667.583	1.56	1560.0	generate	Run4	generate/STIM_005.jpg	100
2672.131	1.285	1285.4	generate	Run4	generate/STIM_005.jpg	100
2676.0	1.695	1695.4	generate	Run4	generate/STIM_005.jpg	100
2681.483	0.902	902.0	generate	Run4	generate/STIM_005.jpg	99
2684.552	1.768	1768.2	generate	Run4	generate/STIM_005.jpg	100
2689.101	0.9	900.0	generate	Run4	generate/STIM_006.jpg	100
2693.903	1.054	1053.7	generate	Run4	generate/STIM_006.jpg	100
2697.14	1.735	1734.8	generate	Run4	generate/STIM_006.jpg	100
2702.175	1.816	1816.2	generate	Run4	generate/STIM_006.jpg	99
2707.914	0.811	811.4	generate	Run4	generate/STIM_006.jpg	99
2712.094	1.644	1644.2	generate	Run4	generate/STIM_007.jpg	100
2716.709	1.897	1897.3	generate	Run4	generate/STIM_007.jpg	99
2721.618	1.595	1595.2	generate	Run4	generate/STIM_007.jpg	100
2726.723	1.886	1886.4	generate	Run4	generate/STIM_007.jpg	100
2730.736	1.083	1082.6	generate	Run4	generate/STIM_007.jpg	100
2735.473	1.987	1986.6	generate	Run4	generate/STIM_008.jpg	99
2740.843	1.676	1676.2	generate	Run4	generate/STIM_008.jpg	99
2745.208	1.574	1574.0	generate	Run4	generate/STIM_008.jpg	100
2750.769	1.502	1501.7	generate	Run4	generate/STIM_008.jpg	100
2755.102	1.834	1833.6	generate	Run4	generate/STIM_008.jpg	100
2759.359	0.91	910.2	generate	Run4	generate/STIM_009.jpg	99
2763.723	1.074	1073.9	generate	Run4	generate/STIM_009.jpg	99
2766.952	1.218	1217.7	generate	Run4	generate/STIM_009.jpg	99
2770.268	1.482	1482.2	generate	Run4	generate/STIM_009.jpg	99
2775.171	1.862	1862.5	generate	Run4	generate/STIM_009.jpg	100
2779.905	1.148	1147.9	generate	Run4	generate/STIM_010.jpg	99
2783.676	1.226	1226.3	generate	Run4	generate/STIM_010.jpg	99
2788.832	1.817	1816.6	generate	Run4	generate/STIM_010.jpg	100
2794.317	1.62	1620.4	generate	Run4	generate/STIM_010.jpg	99
2799.632	1.754	1754.2	generate	Run4	generate/STIM_010.jpg	100
2804.606	1.428	1427.6	generate	Run4	generate/STIM_011.jpg	100
2809.461	1.09	1090.2	generate	Run4	generate/STIM_011.jpg	99
2812.967	1.779	1779.2	generate	Run4	generate/STIM_011.jpg	100
2817.766	1.288	1288.5	generate	Run4	generate/STIM_011.jpg	100
2821.685	1.193	1193.2	generate	Run4	generate/STIM_011.jpg	99
2825.712	1.214	1214.4	generate	Run4	generate/STIM_012.jpg	100
2830.729	1.563	1563.3	generate	Run4	generate/STIM_012.jpg	99
2835.991	1.091	1090.8	generate	Run4	generate/STIM_012.jpg	99
2839.283	1.499	1499.1	generate	Run4	generate/STIM_012.jpg	100
2844.112	1.353	1352.6	generate	Run4	generate/STIM_012.jpg	100
2848.233	1.429	1428.9	generate	Run4	generate/STIM_013.jpg	100
2852.351	1.724	1723.6	generate	Run4	generate/STIM_013.jpg	99
2856.086	1.074	1073.5	generate	Run4	generate/STIM_013.jpg	99
2860.257	0.881	880.9	generate	Run4	generate/STIM_013.jpg	100
2863.499	1.484	1483.5	generate	Run4	generate/STIM_013.jpg	99
2868.882	1.621	1620.6	generate	Run4	generate/STIM_014.jpg	100
2873.974	0.909	908.8	generate	Run4	generate/STIM_014.jpg	99
2877.095	1.944	1943.6	generate	Run4	generate/STIM_014.jpg	100
2882.544	0.814	813.7	generate	Run4	generate/STIM_014.jpg	100
2887.069	1.414	1413.6	generate	Run4	generate/STIM_014.jpg	99
2890.906	1.691	1690.8	generate	Run4	generate/STIM_015.jpg	99
2895.044	0.929	929.2	generate	Run4	generate/STIM_015.jpg	100
2899.415	1.073	1072.8	generate	Run4	generate/STIM_015.jpg	99
2904.198	1.51	1509.8	generate	Run4	generate/STIM_015.jpg	99
2908.676	1.81	1809.7	generate	Run4	generate/STIM_015.jpg	100
2913.071	0.885	884.7	generate	Run4	generate/STIM_016.jpg	99
2916.408	1.519	1519.0	generate	Run4	generate/STIM_016.jpg	100
2921.075	1.474	1474.2	generate	Run4	generate/STIM_016.jpg	100
2925.627	0.895	894.9	generate	Run4	generate/STIM_016.jpg	99
2928.968	1.804	1804.2	generate	Run4	generate/STIM_016.jpg	99
2934.018	1.763	1762.8	generate	Run4	generate/STIM_017.jpg	99
2939.524	0.927	926.6	generate	Run4	generate/STIM_017.jpg	99
2943.876	1.47	1470.2	generate	Run4	generate/STIM_017.jpg	100
2947.795	1.874	1873.7	generate	Run4	generate/STIM_017.jpg	99
2953.457	0.968	968.2	generate	Run4	generate/STIM_017.jpg	100
2957.234	1.957	1957.1	generate	Run4	generate/STIM_018.jpg	100
2962.899	1.205	1205.1	generate	Run4	generate/STIM_018.jpg	100
2967.912	1.359	1358.9	generate	Run4	generate/STIM_018.jpg	99
2972.262	1.565	1565.2	generate	Run4	generate/STIM_018.jpg	100
2977.64	1.236	1235.7	generate	Run4	generate/STIM_018.jpg	99
2981.754	1.824	1823.9	generate	Run4	generate/STIM_019.jpg	99
2987.061	1.601	1600.7	generate	Run4	generate/STIM_019.jpg	100
2991.151	1.548	1548.2	generate	Run4	generate/STIM_019.jpg	99
2996.034	1.551	1551.3	generate	Run4	generate/STIM_019.jpg	99
3001.171	1.602	1601.7	generate	Run4	generate/STIM_019.jpg	99
3005.321	1.836	1835.7	generate	Run4	generate/STIM_020.jpg	99
3009.919	1.079	1079.1	generate	Run4	generate/STIM_020.jpg	100
3013.901	1.081	1081.4	generate	Run4	generate/STIM_020.jpg	99
3018.191	1.795	1794.7	generate	Run4	generate/STIM_020.jpg	99
3022.704	1.594	1594.5	generate	Run4	generate/STIM_020.jpg	100
3026.52	1.088	1088.3	generate	Run4	generate/STIM_021.jpg	99
3030.804	1.148	1148.1	generate	Run4	generate/STIM_021.jpg	99
3034.782	1.676	1675.9	generate	Run4	generate/STIM_021.jpg	100
3039.096	1.172	1172.3	generate	Run4	generate/STIM_021.jpg	99
3042.484	1.049	1048.6	generate	Run4	generate/STIM_021.jpg	99
3045.592	1.223	1223.0	generate	Run4	generate/STIM_022.jpg	99
3048.913	1.623	1622.7	generate	Run4	generate/STIM_022.jpg	99
3053.154	1.438	1437.8	generate	Run4	generate/STIM_022.jpg	100
3056.748	1.227	1227.2	generate	Run4	generate/STIM_022.jpg	100
3060.455	1.05	1050.2	generate	Run4	generate/STIM_022.jpg	99
3064.805	0.916	915.7	generate	Run4	generate/STIM_023.jpg	99
3068.01	0.832	831.9	generate	Run4	generate/STIM_023.jpg	99
3071.517	1.259	1259.0	generate	Run4	generate/STIM_023.jpg	99
3075.737	1.468	1467.9	generate	Run4	generate/STIM_023.jpg	99
3079.603	0.812	812.1	generate	Run4	generate/STIM_023.jpg	100
3084.036	0.997	997.3	generate	Run4	generate/STIM_024.jpg	100
3089.019	0.95	950.5	generate	Run4	generate/STIM_024.jpg	99
3092.104	0.973	973.3	generate	Run4	generate/STIM_024.jpg	99
3096.37	1.218	1218.5	generate	Run4	generate/STIM_024.jpg	99
3100.894	1.113	1112.9	generate	Run4	generate/STIM_024.jpg	100
3105.034	0.705	705.4	repeat	Run4	repeat/STIM_000.jpg	99
3108.443	0.955	954.6	repeat	Run4	repeat/STIM_000.jpg	99
3112.134	0.615	615.4	repeat	Run4	repeat/STIM_000.jpg	100
3116.153	0.799	798.9	repeat	Run4	repeat/STIM_000.jpg	100
3120.898	0.763	762.6	repeat	Run4	repeat/STIM_000.jpg	100
3124.94	0.782	782.0	repeat	Run4	repeat/STIM_001.jpg	99
3129.005	0.524	523.8	repeat	Run4	repeat/STIM_001.jpg	99
3132.84	0.54	540.5	repeat	Run4	repeat/STIM_001.jpg	100
3135.418	0.74	740.4	repeat	Run4	repeat/STIM_001.jpg	99
3138.809	0.877	876.8	repeat	Run4	repeat/STIM_001.jpg	100
3143.326	0.511	511.5	repeat	Run4	repeat/STIM_002.jpg	99
3146.507	0.496	496.4	repeat	Run4	repeat/STIM_002.jpg	99
3150.83	0.613	613.3	repeat	Run4	repeat/STIM_002.jpg	100
3155.152	0.908	908.4	repeat	Run4	repeat/STIM_002.jpg	99
3158.838	0.53	530.0	repeat	Run4	repeat/STIM_002.jpg	100
3161.633	0.638	637.7	repeat	Run4	repeat/STIM_003.jpg	100
3164.96	0.738	738.0	repeat	Run4	repeat/STIM_003.jpg	100
3168.826	0.53	530.0	repeat	Run4	repeat/STIM_003.jpg	100
3173.285	0.789	789.4	repeat	Run4	repeat/STIM_003.jpg	99
3176.804	0.498	498.4	repeat	Run4	repeat/STIM_003.jpg	100
3180.086	0.703	703.1	repeat	Run4	repeat/STIM_004.jpg	100
3183.48	0.8	800.2	repeat	Run4	repeat/STIM_004.jpg	99
3187.605	0.729	729.4	repeat	Run4	repeat/STIM_004.jpg	99
3190.513	0.79	789.9	repeat	Run4	repeat/STIM_004.jpg	100
3194.459	0.916	916.4	repeat	Run4	repeat/STIM_004.jpg	99
3198.489	0.592	592.3	repeat	Run4	repeat/STIM_005.jpg	99
3202.682	0.752	752.2	repeat	Run4	repeat/STIM_005.jpg	100
3207.341	0.933	932.8	repeat	Run4	repeat/STIM_005.jpg	100
3211.498	0.707	706.7	repeat	Run4	repeat/STIM_005.jpg	100
3215.961	0.738	738.3	repeat	Run4	repeat/STIM_005.jpg	100
3219.801	0.652	652.1	repeat	Run4	repeat/STIM_006.jpg	100
3223.795	0.8	800.0	repeat	Run4	repeat/STIM_006.jpg	100
3227.557	0.952	952.5	repeat	Run4	repeat/STIM_006.jpg	100
3231.847	0.823	822.9	repeat	Run4	repeat/STIM_006.jpg	99
3236.287	0.853	852.6	repeat	Run4	repeat/STIM_006.jpg	99
3239.523	0.772	771.9	repeat	Run4	repeat/STIM_007.jpg	99
3243.037	0.795	795.1	repeat	Run4	repeat/STIM_007.jpg	99
3247.563	0.928	928.3	repeat	Run4	repeat/STIM_007.jpg	100
3251.816	0.573	572.7	repeat	Run4	repeat/STIM_007.jpg	99
3255.797	0.825	824.9	repeat	Run4	repeat/STIM_007.jpg	99
3258.796	0.676	675.6	repeat	Run4	repeat/STIM_008.jpg	100
3261.812	0.693	693.4	repeat	Run4	repeat/STIM_008.jpg	99
3264.96	0.944	944.0	repeat	Run4	repeat/STIM_008.jpg	100
3268.478	0.937	936.7	repeat	Run4	repeat/STIM_008.jpg	99
3271.778	0.854	854.3	repeat	Run4	repeat/STIM_008.jpg	99
3276.174	0.852	852.4	repeat	Run4	repeat/STIM_009.jpg	100
3279.397	0.691	691.4	repeat	Run4	repeat/STIM_009.jpg	100
3284.086	0.92	919.7	repeat	Run4	repeat/STIM_009.jpg	100
3287.008	0.85	850.1	repeat	Run4	repeat/STIM_009.jpg	100
3290.164	0.889	889.0	repeat	Run4	repeat/STIM_009.jpg	100
3294.347	0.942	942.2	repeat	Run4	repeat/STIM_010.jpg	99
3298.99	0.697	697.2	repeat	Run4	repeat/STIM_010.jpg	100
3303.313	0.846	846.3	repeat	Run4	repeat/STIM_010.jpg	100
3307.917	0.636	636.2	repeat	Run4	repeat/STIM_010.jpg	99
3311.676	0.517	516.6	repeat	Run4	repeat/STIM_010.jpg	99
3315.215	0.856	856.3	repeat	Run4	repeat/STIM_011.jpg	100
3319.847	0.862	862.2	repeat	Run4	repeat/STIM_011.jpg	99
3323.977	0.698	697.8	repeat	Run4	repeat/STIM_011.jpg	100
3327.875	0.868	868.3	repeat	Run4	repeat/STIM_011.jpg	99
3331.375	0.845	844.7	repeat	Run4	repeat/STIM_011.jpg	100
3335.334	0.484	484.0	repeat	Run4	repeat/STIM_012.jpg	100
3337.877	0.566	566.1	repeat	Run4	repeat/STIM_012.jpg	99
3340.793	0.613	613.4	repeat	Run4	repeat/STIM_012.jpg	99
3344.712	0.888	887.7	repeat	Run4	repeat/STIM_012.jpg	99
3349.319	0.721	720.8	repeat	Run4	repeat/STIM_012.jpg	100
3353.095	0.62	620.1	repeat	Run4	repeat/STIM_013.jpg	100
3356.647	0.894	894.5	repeat	Run4	repeat/STIM_013.jpg	99
3360.933	0.578	578.3	repeat	Run4	repeat/STIM_013.jpg	99
3365.311	0.697	696.9	repeat	Run4	repeat/STIM_013.jpg	99
3369.081	0.878	878.0	repeat	Run4	repeat/STIM_013.jpg	100
3373.305	0.95	950.0	repeat	Run4	repeat/STIM_014.jpg	99
3376.349	0.764	764.5	repeat	Run4	repeat/STIM_014.jpg	100
3380.823	0.646	646.1	repeat	Run4	repeat/STIM_014.jpg	100
3384.737	0.755	755.4	repeat	Run4	repeat/STIM_014.jpg	99
3387.792	0.809	809.4	repeat	Run4	repeat/STIM_014.jpg	100
