onset	duration	accuracy_binary	trial_type	learning_stage	stimulus
0.0	2.165	0	generate	Run1	generate/STIM_000.jpg
6.055	2.116	1	generate	Run1	generate/STIM_000.jpg
10.388	1.783	1	generate	Run1	generate/STIM_000.jpg
15.383	1.942	1	generate	Run1	generate/STIM_000.jpg
19.822	1.629	1	generate	Run1	generate/STIM_000.jpg
24.253	1.84	1	generate	Run1	generate/STIM_001.jpg
28.812	1.772	0	generate	Run1	generate/STIM_001.jpg
33.349	2.566	1	generate	Run1	generate/STIM_001.jpg
38.093	1.212	1	generate	Run1	generate/STIM_001.jpg
42.624	1.561	1	generate	Run1	generate/STIM_001.jpg
47.141	1.706	1	generate	Run1	generate/STIM_002.jpg
51.986	2.774	1	generate	Run1	generate/STIM_002.jpg
57.844	1.87	1	generate	Run1	generate/STIM_002.jpg
62.87	1.434	0	generate	Run1	generate/STIM_002.jpg
68.196	1.211	1	generate	Run1	generate/STIM_002.jpg
72.518	1.556	1	generate	Run1	generate/STIM_003.jpg
76.542	1.422	1	generate	Run1	generate/STIM_003.jpg
80.339	2.409	1	generate	Run1	generate/STIM_003.jpg
85.726	2.072	1	generate	Run1	generate/STIM_003.jpg
90.961	1.881	1	generate	Run1	generate/STIM_003.jpg
96.18	2.018	1	generate	Run1	generate/STIM_004.jpg
101.11	2.084	0	generate	Run1	generate/STIM_004.jpg
105.911	2.052	1	generate	Run1	generate/STIM_004.jpg
111.235	1.183	1	generate	Run1	generate/STIM_004.jpg
114.94	1.551	1	generate	Run1	generate/STIM_004.jpg
118.965	2.9	1	generate	Run1	generate/STIM_005.jpg
124.027	2.736	1	generate	Run1	generate/STIM_005.jpg
130.131	1.51	1	generate	Run1	generate/STIM_005.jpg
135.45	1.806	0	generate	Run1	generate/STIM_005.jpg
140.033	2.089	1	generate	Run1	generate/STIM_005.jpg
144.756	2.718	1	generate	Run1	generate/STIM_006.jpg
149.761	1.618	1	generate	Run1	generate/STIM_006.jpg
153.937	1.511	1	generate	Run1	generate/STIM_006.jpg
158.511	2.48	1	generate	Run1	generate/STIM_006.jpg
163.071	1.056	1	generate	Run1	generate/STIM_006.jpg
166.738	1.511	1	generate	Run1	generate/STIM_007.jpg
171.691	1.71	0	generate	Run1	generate/STIM_007.jpg
177.359	2.421	0	generate	Run1	generate/STIM_007.jpg
183.446	1.881	1	generate	Run1	generate/STIM_007.jpg
187.512	1.224	1	generate	Run1	generate/STIM_007.jpg
191.817	2.279	0	generate	Run1	generate/STIM_008.jpg
197.402	2.762	0	generate	Run1	generate/STIM_008.jpg
203.75	2.637	1	generate	Run1	generate/STIM_008.jpg
209.636	1.009	1	generate	Run1	generate/STIM_008.jpg
214.02	2.149	1	generate	Run1	generate/STIM_008.jpg
218.849	1.657	1	generate	Run1	generate/STIM_009.jpg
222.76	2.382	1	generate	Run1	generate/STIM_009.jpg
228.333	2.512	1	generate	Run1	generate/STIM_009.jpg
233.201	2.409	1	generate	Run1	generate/STIM_009.jpg
239.293	1.5	1	generate	Run1	generate/STIM_009.jpg
244.538	2.041	1	generate	Run1	generate/STIM_010.jpg
249.826	1.59	1	generate	Run1	generate/STIM_010.jpg
253.886	1.88	0	generate	Run1	generate/STIM_010.jpg
259.393	2.205	1	generate	Run1	generate/STIM_010.jpg
265.617	2.241	1	generate	Run1	generate/STIM_010.jpg
270.341	2.844	0	generate	Run1	generate/STIM_011.jpg
275.558	1.982	0	generate	Run1	generate/STIM_011.jpg
279.783	1.462	1	generate	Run1	generate/STIM_011.jpg
283.995	2.304	1	generate	Run1	generate/STIM_011.jpg
289.0	1.535	1	generate	Run1	generate/STIM_011.jpg
293.435	2.683	1	generate	Run1	generate/STIM_012.jpg
299.304	1.973	1	generate	Run1	generate/STIM_012.jpg
305.051	1.464	1	generate	Run1	generate/STIM_012.jpg
309.439	1.686	0	generate	Run1	generate/STIM_012.jpg
314.979	1.888	1	generate	Run1	generate/STIM_012.jpg
320.521	1.181	1	generate	Run1	generate/STIM_013.jpg
324.249	1.724	1	generate	Run1	generate/STIM_013.jpg
328.438	1.354	1	generate	Run1	generate/STIM_013.jpg
332.173	2.069	1	generate	Run1	generate/STIM_013.jpg
337.015	1.579	0	generate	Run1	generate/STIM_013.jpg
342.468	1.814	1	generate	Run1	generate/STIM_014.jpg
348.172	1.176	1	generate	Run1	generate/STIM_014.jpg
352.239	1.994	1	generate	Run1	generate/STIM_014.jpg
356.532	1.078	1	generate	Run1	generate/STIM_014.jpg
360.955	2.21	1	generate	Run1	generate/STIM_014.jpg
366.491	2.043	0	generate	Run1	generate/STIM_015.jpg
370.943	1.865	1	generate	Run1	generate/STIM_015.jpg
376.232	1.108	1	generate	Run1	generate/STIM_015.jpg
380.416	2.374	0	generate	Run1	generate/STIM_015.jpg
385.775	2.283	0	generate	Run1	generate/STIM_015.jpg
390.483	1.303	1	generate	Run1	generate/STIM_016.jpg
393.908	1.296	0	generate	Run1	generate/STIM_016.jpg
398.417	1.882	1	generate	Run1	generate/STIM_016.jpg
402.637	1.274	1	generate	Run1	generate/STIM_016.jpg
407.054	1.787	1	generate	Run1	generate/STIM_016.jpg
412.631	2.448	1	generate	Run1	generate/STIM_017.jpg
417.61	2.258	1	generate	Run1	generate/STIM_017.jpg
423.081	2.246	1	generate	Run1	generate/STIM_017.jpg
427.986	2.158	1	generate	Run1	generate/STIM_017.jpg
434.135	1.772	1	generate	Run1	generate/STIM_017.jpg
438.692	2.056	1	generate	Run1	generate/STIM_018.jpg
444.228	2.352	0	generate	Run1	generate/STIM_018.jpg
448.772	2.096	1	generate	Run1	generate/STIM_018.jpg
454.742	1.387	1	generate	Run1	generate/STIM_018.jpg
458.277	1.542	1	generate	Run1	generate/STIM_018.jpg
463.08	1.284	1	generate	Run1	generate/STIM_019.jpg
467.757	1.782	1	generate	Run1	generate/STIM_019.jpg
471.877	2.592	0	generate	Run1	generate/STIM_019.jpg
477.692	1.35	1	generate	Run1	generate/STIM_019.jpg
482.932	1.177	1	generate	Run1	generate/STIM_019.jpg
487.436	2.276	1	generate	Run1	generate/STIM_020.jpg
492.118	2.444	1	generate	Run1	generate/STIM_020.jpg
496.661	2.2	1	generate	Run1	generate/STIM_020.jpg
502.717	1.825	1	generate	Run1	generate/STIM_020.jpg
507.13	1.128	1	generate	Run1	generate/STIM_020.jpg
510.549	2.677	1	generate	Run1	generate/STIM_021.jpg
515.506	1.223	1	generate	Run1	generate/STIM_021.jpg
519.996	1.485	0	generate	Run1	generate/STIM_021.jpg
524.447	1.283	1	generate	Run1	generate/STIM_021.jpg
528.17	1.881	0	generate	Run1	generate/STIM_021.jpg
532.645	2.687	1	generate	Run1	generate/STIM_022.jpg
538.446	2.177	1	generate	Run1	generate/STIM_022.jpg
544.31	1.468	1	generate	Run1	generate/STIM_022.jpg
549.196	1.66	1	generate	Run1	generate/STIM_022.jpg
553.776	1.216	1	generate	Run1	generate/STIM_022.jpg
557.766	2.576	1	generate	Run1	generate/STIM_023.jpg
562.672	1.371	1	generate	Run1	generate/STIM_023.jpg
566.263	2.391	1	generate	Run1	generate/STIM_023.jpg
571.901	1.404	0	generate	Run1	generate/STIM_023.jpg
575.395	0.987	1	generate	Run1	generate/STIM_023.jpg
579.491	1.914	0	generate	Run1	generate/STIM_024.jpg
584.232	2.649	1	generate	Run1	generate/STIM_024.jpg
589.117	2.513	0	generate	Run1	generate/STIM_024.jpg
595.101	1.84	1	generate	Run1	generate/STIM_024.jpg
599.972	0.992	0	generate	Run1	generate/STIM_024.jpg
604.366	0.847	1	repeat	Run1	repeat/STIM_000.jpg
608.555	0.846	1	repeat	Run1	repeat/STIM_000.jpg
612.647	0.689	1	repeat	Run1	repeat/STIM_000.jpg
616.389	0.739	1	repeat	Run1	repeat/STIM_000.jpg
620.599	0.93	1	repeat	Run1	repeat/STIM_000.jpg
624.967	0.938	1	repeat	Run1	repeat/STIM_001.jpg
628.612	0.504	1	repeat	Run1	repeat/STIM_001.jpg
631.517	0.692	1	repeat	Run1	repeat/STIM_001.jpg
635.521	0.622	1	repeat	Run1	repeat/STIM_001.jpg
638.201	0.633	1	repeat	Run1	repeat/STIM_001.jpg
642.513	0.958	1	repeat	Run1	repeat/STIM_002.jpg
646.284	0.627	1	repeat	Run1	repeat/STIM_002.jpg
650.067	0.628	1	repeat	Run1	repeat/STIM_002.jpg
652.729	0.614	1	repeat	Run1	repeat/STIM_002.jpg
656.768	0.787	1	repeat	Run1	repeat/STIM_002.jpg
661.016	0.774	1	repeat	Run1	repeat/STIM_003.jpg
665.26	0.661	1	repeat	Run1	repeat/STIM_003.jpg
669.091	0.749	1	repeat	Run1	repeat/STIM_003.jpg
672.382	0.689	1	repeat	Run1	repeat/STIM_003.jpg
676.674	0.506	1	repeat	Run1	repeat/STIM_003.jpg
680.543	0.7	1	repeat	Run1	repeat/STIM_004.jpg
684.871	0.758	1	repeat	Run1	repeat/STIM_004.jpg
688.686	0.535	1	repeat	Run1	repeat/STIM_004.jpg
692.393	0.928	0	repeat	Run1	repeat/STIM_004.jpg
696.264	0.563	1	repeat	Run1	repeat/STIM_004.jpg
699.737	0.896	1	repeat	Run1	repeat/STIM_005.jpg
704.396	0.962	1	repeat	Run1	repeat/STIM_005.jpg
708.014	0.911	1	repeat	Run1	repeat/STIM_005.jpg
711.511	0.963	1	repeat	Run1	repeat/STIM_005.jpg
715.54	0.562	1	repeat	Run1	repeat/STIM_005.jpg
718.578	0.771	1	repeat	Run1	repeat/STIM_006.jpg
722.768	0.636	1	repeat	Run1	repeat/STIM_006.jpg
726.851	0.672	1	repeat	Run1	repeat/STIM_006.jpg
731.21	0.884	1	repeat	Run1	repeat/STIM_006.jpg
735.615	0.795	1	repeat	Run1	repeat/STIM_006.jpg
739.35	0.84	1	repeat	Run1	repeat/STIM_007.jpg
743.736	0.765	1	repeat	Run1	repeat/STIM_007.jpg
747.264	0.942	1	repeat	Run1	repeat/STIM_007.jpg
750.45	0.946	1	repeat	Run1	repeat/STIM_007.jpg
755.095	0.642	1	repeat	Run1	repeat/STIM_007.jpg
758.234	0.694	1	repeat	Run1	repeat/STIM_008.jpg
762.916	0.591	1	repeat	Run1	repeat/STIM_008.jpg
767.113	0.699	1	repeat	Run1	repeat/STIM_008.jpg
770.873	0.554	1	repeat	Run1	repeat/STIM_008.jpg
773.991	0.652	1	repeat	Run1	repeat/STIM_008.jpg
777.779	0.906	1	repeat	Run1	repeat/STIM_009.jpg
781.35	0.803	1	repeat	Run1	repeat/STIM_009.jpg
784.979	0.694	1	repeat	Run1	repeat/STIM_009.jpg
789.361	0.635	1	repeat	Run1	repeat/STIM_009.jpg
793.563	0.609	1	repeat	Run1	repeat/STIM_009.jpg
796.199	0.735	1	repeat	Run1	repeat/STIM_010.jpg
799.661	0.732	1	repeat	Run1	repeat/STIM_010.jpg
803.055	0.847	1	repeat	Run1	repeat/STIM_010.jpg
807.599	0.709	1	repeat	Run1	repeat/STIM_010.jpg
811.781	0.924	1	repeat	Run1	repeat/STIM_010.jpg
816.547	0.627	1	repeat	Run1	repeat/STIM_011.jpg
820.231	0.584	1	repeat	Run1	repeat/STIM_011.jpg
824.108	0.699	1	repeat	Run1	repeat/STIM_011.jpg
827.224	0.58	1	repeat	Run1	repeat/STIM_011.jpg
830.433	0.9	1	repeat	Run1	repeat/STIM_011.jpg
834.107	0.511	0	repeat	Run1	repeat/STIM_012.jpg
836.803	0.983	1	repeat	Run1	repeat/STIM_012.jpg
840.078	0.861	1	repeat	Run1	repeat/STIM_012.jpg
843.66	0.75	1	repeat	Run1	repeat/STIM_012.jpg
847.068	0.793	1	repeat	Run1	repeat/STIM_012.jpg
850.527	0.895	1	repeat	Run1	repeat/STIM_013.jpg
854.86	0.951	1	repeat	Run1	repeat/STIM_013.jpg
858.382	0.796	1	repeat	Run1	repeat/STIM_013.jpg
861.542	0.675	1	repeat	Run1	repeat/STIM_013.jpg
865.761	0.77	1	repeat	Run1	repeat/STIM_013.jpg
869.727	0.75	0	repeat	Run1	repeat/STIM_014.jpg
873.166	0.848	1	repeat	Run1	repeat/STIM_014.jpg
877.187	0.582	0	repeat	Run1	repeat/STIM_014.jpg
881.343	0.648	1	repeat	Run1	repeat/STIM_014.jpg
885.572	0.659	1	repeat	Run1	repeat/STIM_014.jpg
888.916	2.196	0	generate	Run2	generate/STIM_000.jpg
894.506	1.675	1	generate	Run2	generate/STIM_000.jpg
898.57	1.592	1	generate	Run2	generate/STIM_000.jpg
902.826	1.327	1	generate	Run2	generate/STIM_000.jpg
907.073	0.901	1	generate	Run2	generate/STIM_000.jpg
911.801	1.75	1	generate	Run2	generate/STIM_001.jpg
917.53	1.948	1	generate	Run2	generate/STIM_001.jpg
922.143	2.14	1	generate	Run2	generate/STIM_001.jpg
927.271	1.446	0	generate	Run2	generate/STIM_001.jpg
932.071	1.925	1	generate	Run2	generate/STIM_001.jpg
936.963	1.549	1	generate	Run2	generate/STIM_002.jpg
941.117	1.655	1	generate	Run2	generate/STIM_002.jpg
946.72	1.152	1	generate	Run2	generate/STIM_002.jpg
950.823	1.275	1	generate	Run2	generate/STIM_002.jpg
955.776	1.138	1	generate	Run2	generate/STIM_002.jpg
959.086	1.905	0	generate	Run2	generate/STIM_003.jpg
964.554	2.205	1	generate	Run2	generate/STIM_003.jpg
969.754	1.364	1	generate	Run2	generate/STIM_003.jpg
973.29	0.94	0	generate	Run2	generate/STIM_003.jpg
976.834	1.293	1	generate	Run2	generate/STIM_003.jpg
981.767	1.432	1	generate	Run2	generate/STIM_004.jpg
986.726	1.457	0	generate	Run2	generate/STIM_004.jpg
990.739	1.658	1	generate	Run2	generate/STIM_004.jpg
996.102	1.866	1	generate	Run2	generate/STIM_004.jpg
1000.856	1.834	1	generate	Run2	generate/STIM_004.jpg
1006.063	1.085	1	generate	Run2	generate/STIM_005.jpg
1010.943	2.119	1	generate	Run2	generate/STIM_005.jpg
1015.433	1.522	1	generate	Run2	generate/STIM_005.jpg
1019.674	1.94	1	generate	Run2	generate/STIM_005.jpg
1025.554	1.507	1	generate	Run2	generate/STIM_005.jpg
1030.998	2.344	1	generate	Run2	generate/STIM_006.jpg
1036.66	2.203	0	generate	Run2	generate/STIM_006.jpg
1041.72	2.011	1	generate	Run2	generate/STIM_006.jpg
1046.368	1.603	1	generate	Run2	generate/STIM_006.jpg
1050.366	1.322	1	generate	Run2	generate/STIM_006.jpg
1055.351	1.148	1	generate	Run2	generate/STIM_007.jpg
1059.18	2.336	1	generate	Run2	generate/STIM_007.jpg
1065.203	1.505	1	generate	Run2	generate/STIM_007.jpg
1068.772	1.594	1	generate	Run2	generate/STIM_007.jpg
1072.8	1.669	0	generate	Run2	generate/STIM_007.jpg
1077.87	1.022	1	generate	Run2	generate/STIM_008.jpg
1082.096	1.76	1	generate	Run2	generate/STIM_008.jpg
1085.976	1.981	1	generate	Run2	generate/STIM_008.jpg
1091.837	1.679	1	generate	Run2	generate/STIM_008.jpg
1096.5	1.785	1	generate	Run2	generate/STIM_008.jpg
1102.017	1.749	1	generate	Run2	generate/STIM_009.jpg
1106.158	1.115	0	generate	Run2	generate/STIM_009.jpg
1109.848	0.972	1	generate	Run2	generate/STIM_009.jpg
1113.257	1.851	1	generate	Run2	generate/STIM_009.jpg
1119.125	1.411	1	generate	Run2	generate/STIM_009.jpg
1122.705	1.409	0	generate	Run2	generate/STIM_010.jpg
1128.049	1.604	0	generate	Run2	generate/STIM_010.jpg
1133.013	1.186	0	generate	Run2	generate/STIM_010.jpg
1136.418	1.081	1	generate	Run2	generate/STIM_010.jpg
1141.221	0.829	1	generate	Run2	generate/STIM_010.jpg
1145.145	2.081	1	generate	Run2	generate/STIM_011.jpg
1151.245	1.61	1	generate	Run2	generate/STIM_011.jpg
1155.788	1.314	1	generate	Run2	generate/STIM_011.jpg
1160.743	1.405	0	generate	Run2	generate/STIM_011.jpg
1164.269	1.225	1	generate	Run2	generate/STIM_011.jpg
1168.475	2.252	1	generate	Run2	generate/STIM_012.jpg
1173.546	1.368	1	generate	Run2	generate/STIM_012.jpg
1178.762	1.058	1	generate	Run2	generate/STIM_012.jpg
1181.876	1.354	1	generate	Run2	generate/STIM_012.jpg
1186.209	1.193	1	generate	Run2	generate/STIM_012.jpg
1190.578	2.3	1	generate	Run2	generate/STIM_013.jpg
1195.031	1.227	1	generate	Run2	generate/STIM_013.jpg
1198.592	1.531	1	generate	Run2	generate/STIM_013.jpg
1202.46	0.925	1	generate	Run2	generate/STIM_013.jpg
1206.569	1.524	0	generate	Run2	generate/STIM_013.jpg
1211.432	2.339	1	generate	Run2	generate/STIM_014.jpg
1217.129	1.13	1	generate	Run2	generate/STIM_014.jpg
1220.847	1.233	1	generate	Run2	generate/STIM_014.jpg
1224.74	1.634	1	generate	Run2	generate/STIM_014.jpg
1229.181	1.852	1	generate	Run2	generate/STIM_014.jpg
1233.091	1.388	0	generate	Run2	generate/STIM_015.jpg
1236.918	1.573	1	generate	Run2	generate/STIM_015.jpg
1241.316	1.359	1	generate	Run2	generate/STIM_015.jpg
1245.259	0.92	1	generate	Run2	generate/STIM_015.jpg
1249.832	1.315	1	generate	Run2	generate/STIM_015.jpg
1254.066	2.486	1	generate	Run2	generate/STIM_016.jpg
1260.554	1.291	1	generate	Run2	generate/STIM_016.jpg
1265.124	1.716	1	generate	Run2	generate/STIM_016.jpg
1270.719	1.676	1	generate	Run2	generate/STIM_016.jpg
1275.339	1.376	1	generate	Run2	generate/STIM_016.jpg
1278.964	1.404	0	generate	Run2	generate/STIM_017.jpg
1283.906	1.647	0	generate	Run2	generate/STIM_017.jpg
1288.75	2.124	1	generate	Run2	generate/STIM_017.jpg
1293.728	1.349	1	generate	Run2	generate/STIM_017.jpg
1298.234	0.969	1	generate	Run2	generate/STIM_017.jpg
1301.541	1.414	0	generate	Run2	generate/STIM_018.jpg
1306.658	2.337	0	generate	Run2	generate/STIM_018.jpg
1312.041	1.853	0	generate	Run2	generate/STIM_018.jpg
1316.701	1.832	1	generate	Run2	generate/STIM_018.jpg
1321.847	1.844	1	generate	Run2	generate/STIM_018.jpg
1327.228	1.21	1	generate	Run2	generate/STIM_019.jpg
1331.458	1.746	1	generate	Run2	generate/STIM_019.jpg
1335.445	1.367	0	generate	Run2	generate/STIM_019.jpg
1340.1	1.061	1	generate	Run2	generate/STIM_019.jpg
1343.927	1.578	1	generate	Run2	generate/STIM_019.jpg
1348.875	1.356	1	generate	Run2	generate/STIM_020.jpg
1353.449	1.854	1	generate	Run2	generate/STIM_020.jpg
1358.203	1.125	1	generate	Run2	generate/STIM_020.jpg
1363.317	0.886	0	generate	Run2	generate/STIM_020.jpg
1367.445	2.027	1	generate	Run2	generate/STIM_020.jpg
1373.44	2.103	1	generate	Run2	generate/STIM_021.jpg
1377.632	2.162	1	generate	Run2	generate/STIM_021.jpg
1383.465	0.922	0	generate	Run2	generate/STIM_021.jpg
1387.046	1.914	0	generate	Run2	generate/STIM_021.jpg
1392.424	1.171	1	generate	Run2	generate/STIM_021.jpg
1396.161	1.815	1	generate	Run2	generate/STIM_022.jpg
1400.34	2.057	1	generate	Run2	generate/STIM_022.jpg
1405.863	0.986	1	generate	Run2	generate/STIM_022.jpg
1410.034	1.996	1	generate	Run2	generate/STIM_022.jpg
1415.094	1.095	1	generate	Run2	generate/STIM_022.jpg
1418.367	1.937	0	generate	Run2	generate/STIM_023.jpg
1423.769	1.333	1	generate	Run2	generate/STIM_023.jpg
1427.54	1.591	1	generate	Run2	generate/STIM_023.jpg
1431.804	1.269	1	generate	Run2	generate/STIM_023.jpg
1436.944	0.858	1	generate	Run2	generate/STIM_023.jpg
1441.236	1.23	1	generate	Run2	generate/STIM_024.jpg
1444.683	1.963	1	generate	Run2	generate/STIM_024.jpg
1448.922	1.869	1	generate	Run2	generate/STIM_024.jpg
1453.666	1.354	1	generate	Run2	generate/STIM_024.jpg
1458.67	1.848	1	generate	Run2	generate/STIM_024.jpg
1464.406	0.76	1	repeat	Run2	repeat/STIM_000.jpg
1468.672	0.679	1	repeat	Run2	repeat/STIM_000.jpg
1473.162	0.981	1	repeat	Run2	repeat/STIM_000.jpg
1477.373	0.822	1	repeat	Run2	repeat/STIM_000.jpg
1481.36	0.697	1	repeat	Run2	repeat/STIM_000.jpg
1485.127	0.886	1	repeat	Run2	repeat/STIM_001.jpg
1489.004	0.744	1	repeat	Run2	repeat/STIM_001.jpg
1492.896	0.602	0	repeat	Run2	repeat/STIM_001.jpg
1496.186	0.59	1	repeat	Run2	repeat/STIM_001.jpg
1500.765	0.821	1	repeat	Run2	repeat/STIM_001.jpg
1504.467	0.603	1	repeat	Run2	repeat/STIM_002.jpg
1508.448	0.557	1	repeat	Run2	repeat/STIM_002.jpg
1512.094	0.76	0	repeat	Run2	repeat/STIM_002.jpg
1516.575	0.62	1	repeat	Run2	repeat/STIM_002.jpg
1520.752	0.515	1	repeat	Run2	repeat/STIM_002.jpg
1524.156	0.896	1	repeat	Run2	repeat/STIM_003.jpg
1528.426	0.885	1	repeat	Run2	repeat/STIM_003.jpg
1531.771	0.895	1	repeat	Run2	repeat/STIM_003.jpg
1536.099	0.777	1	repeat	Run2	repeat/STIM_003.jpg
1539.199	0.669	1	repeat	Run2	repeat/STIM_003.jpg
1543.422	0.707	1	repeat	Run2	repeat/STIM_004.jpg
1547.011	0.942	1	repeat	Run2	repeat/STIM_004.jpg
1551.196	0.784	1	repeat	Run2	repeat/STIM_004.jpg
1554.807	0.548	1	repeat	Run2	repeat/STIM_004.jpg
1558.68	0.872	1	repeat	Run2	repeat/STIM_004.jpg
1563.076	0.755	1	repeat	Run2	repeat/STIM_005.jpg
1566.682	0.897	1	repeat	Run2	repeat/STIM_005.jpg
1570.244	0.65	1	repeat	Run2	repeat/STIM_005.jpg
1573.651	0.727	1	repeat	Run2	repeat/STIM_005.jpg
1576.947	0.625	1	repeat	Run2	repeat/STIM_005.jpg
1579.99	0.535	1	repeat	Run2	repeat/STIM_006.jpg
1582.587	0.724	1	repeat	Run2	repeat/STIM_006.jpg
1586.001	0.534	0	repeat	Run2	repeat/STIM_006.jpg
1590.228	0.933	1	repeat	Run2	repeat/STIM_006.jpg
1594.619	0.563	1	repeat	Run2	repeat/STIM_006.jpg
1597.783	0.564	1	repeat	Run2	repeat/STIM_007.jpg
1601.62	0.898	1	repeat	Run2	repeat/STIM_007.jpg
1605.705	0.942	1	repeat	Run2	repeat/STIM_007.jpg
1609.031	0.913	1	repeat	Run2	repeat/STIM_007.jpg
1612.491	0.786	1	repeat	Run2	repeat/STIM_007.jpg
1615.992	0.561	1	repeat	Run2	repeat/STIM_008.jpg
1620.503	0.584	1	repeat	Run2	repeat/STIM_008.jpg
1623.319	0.831	1	repeat	Run2	repeat/STIM_008.jpg
1627.393	0.925	1	repeat	Run2	repeat/STIM_008.jpg
1631.149	0.938	1	repeat	Run2	repeat/STIM_008.jpg
1635.081	0.526	1	repeat	Run2	repeat/STIM_009.jpg
1638.216	0.622	1	repeat	Run2	repeat/STIM_009.jpg
1641.492	0.856	1	repeat	Run2	repeat/STIM_009.jpg
1646.361	0.617	0	repeat	Run2	repeat/STIM_009.jpg
1650.17	0.962	1	repeat	Run2	repeat/STIM_009.jpg
1655.01	0.625	1	repeat	Run2	repeat/STIM_010.jpg
1657.731	0.74	1	repeat	Run2	repeat/STIM_010.jpg
1661.659	0.608	1	repeat	Run2	repeat/STIM_010.jpg
1666.101	0.576	1	repeat	Run2	repeat/STIM_010.jpg
1669.741	0.589	1	repeat	Run2	repeat/STIM_010.jpg
1673.419	0.857	0	repeat	Run2	repeat/STIM_011.jpg
1677.932	0.848	1	repeat	Run2	repeat/STIM_011.jpg
1682.752	0.568	1	repeat	Run2	repeat/STIM_011.jpg
1685.332	0.81	1	repeat	Run2	repeat/STIM_011.jpg
1689.839	0.828	1	repeat	Run2	repeat/STIM_011.jpg
1693.148	0.976	1	repeat	Run2	repeat/STIM_012.jpg
1697.908	0.904	0	repeat	Run2	repeat/STIM_012.jpg
1701.331	0.578	1	repeat	Run2	repeat/STIM_012.jpg
1705.334	0.944	1	repeat	Run2	repeat/STIM_012.jpg
1708.381	0.839	1	repeat	Run2	repeat/STIM_012.jpg
1712.759	0.774	1	repeat	Run2	repeat/STIM_013.jpg
1716.567	0.592	1	repeat	Run2	repeat/STIM_013.jpg
1719.759	0.686	1	repeat	Run2	repeat/STIM_013.jpg
1724.166	0.881	1	repeat	Run2	repeat/STIM_013.jpg
1728.481	0.864	1	repeat	Run2	repeat/STIM_013.jpg
1732.902	0.942	1	repeat	Run2	repeat/STIM_014.jpg
1737.698	0.766	1	repeat	Run2	repeat/STIM_014.jpg
1740.934	0.517	1	repeat	Run2	repeat/STIM_014.jpg
1745.368	0.913	1	repeat	Run2	repeat/STIM_014.jpg
1748.315	0.802	1	repeat	Run2	repeat/STIM_014.jpg
1751.744	1.813	1	generate	Run3	generate/STIM_000.jpg
1755.671	0.865	1	generate	Run3	generate/STIM_000.jpg
1760.255	0.974	1	generate	Run3	generate/STIM_000.jpg
1764.779	1.172	1	generate	Run3	generate/STIM_000.jpg
1768.682	1.358	1	generate	Run3	generate/STIM_000.jpg
1773.954	1.974	1	generate	Run3	generate/STIM_001.jpg
1778.78	1.917	1	generate	Run3	generate/STIM_001.jpg
1784.469	1.652	1	generate	Run3	generate/STIM_001.jpg
1789.99	1.416	1	generate	Run3	generate/STIM_001.jpg
1793.932	0.962	1	generate	Run3	generate/STIM_001.jpg
1798.71	1.806	1	generate	Run3	generate/STIM_002.jpg
1802.915	0.847	0	generate	Run3	generate/STIM_002.jpg
1806.107	0.843	1	generate	Run3	generate/STIM_002.jpg
1810.146	1.464	1	generate	Run3	generate/STIM_002.jpg
1815.274	1.38	1	generate	Run3	generate/STIM_002.jpg
1819.98	1.952	1	generate	Run3	generate/STIM_003.jpg
1825.311	1.702	1	generate	Run3	generate/STIM_003.jpg
1830.592	1.785	1	generate	Run3	generate/STIM_003.jpg
1835.147	0.95	1	generate	Run3	generate/STIM_003.jpg
1839.42	1.757	1	generate	Run3	generate/STIM_003.jpg
1843.656	1.822	0	generate	Run3	generate/STIM_004.jpg
1848.743	1.262	1	generate	Run3	generate/STIM_004.jpg
1852.959	1.273	1	generate	Run3	generate/STIM_004.jpg
1857.651	0.873	1	generate	Run3	generate/STIM_004.jpg
1862.024	1.162	1	generate	Run3	generate/STIM_004.jpg
1865.4	1.534	1	generate	Run3	generate/STIM_005.jpg
1869.404	1.691	1	generate	Run3	generate/STIM_005.jpg
1874.219	0.856	1	generate	Run3	generate/STIM_005.jpg
1877.134	0.843	1	generate	Run3	generate/STIM_005.jpg
1880.63	1.704	1	generate	Run3	generate/STIM_005.jpg
1886.298	1.642	1	generate	Run3	generate/STIM_006.jpg
1890.473	1.591	1	generate	Run3	generate/STIM_006.jpg
1895.139	1.909	1	generate	Run3	generate/STIM_006.jpg
1899.996	1.083	1	generate	Run3	generate/STIM_006.jpg
1904.408	1.504	1	generate	Run3	generate/STIM_006.jpg
1908.978	1.891	0	generate	Run3	generate/STIM_007.jpg
1913.727	1.385	1	generate	Run3	generate/STIM_007.jpg
1918.385	1.268	1	generate	Run3	generate/STIM_007.jpg
1923.641	1.163	1	generate	Run3	generate/STIM_007.jpg
1928.668	1.101	1	generate	Run3	generate/STIM_007.jpg
1933.523	2.016	1	generate	Run3	generate/STIM_008.jpg
1938.741	2.023	0	generate	Run3	generate/STIM_008.jpg
1944.443	0.962	1	generate	Run3	generate/STIM_008.jpg
1947.745	2.03	1	generate	Run3	generate/STIM_008.jpg
1953.067	1.534	1	generate	Run3	generate/STIM_008.jpg
1957.74	1.936	1	generate	Run3	generate/STIM_009.jpg
1962.287	1.68	1	generate	Run3	generate/STIM_009.jpg
1966.652	1.694	1	generate	Run3	generate/STIM_009.jpg
1971.359	1.04	1	generate	Run3	generate/STIM_009.jpg
1976.024	1.519	1	generate	Run3	generate/STIM_009.jpg
1981.343	1.851	1	generate	Run3	generate/STIM_010.jpg
1986.177	1.252	1	generate	Run3	generate/STIM_010.jpg
1991.163	1.603	1	generate	Run3	generate/STIM_010.jpg
1995.368	1.446	1	generate	Run3	generate/STIM_010.jpg
2000.643	1.789	1	generate	Run3	generate/STIM_010.jpg
2006.161	1.012	1	generate	Run3	generate/STIM_011.jpg
2010.946	1.258	0	generate	Run3	generate/STIM_011.jpg
2015.234	0.884	1	generate	Run3	generate/STIM_011.jpg
2019.158	1.936	1	generate	Run3	generate/STIM_011.jpg
2023.802	1.476	1	generate	Run3	generate/STIM_011.jpg
2028.6	1.694	1	generate	Run3	generate/STIM_012.jpg
2032.536	0.878	1	generate	Run3	generate/STIM_012.jpg
2035.438	1.88	1	generate	Run3	generate/STIM_012.jpg
2040.095	1.076	1	generate	Run3	generate/STIM_012.jpg
2043.565	1.246	1	generate	Run3	generate/STIM_012.jpg
2047.476	0.899	1	generate	Run3	generate/STIM_013.jpg
2052.152	1.642	1	generate	Run3	generate/STIM_013.jpg
2057.548	0.95	1	generate	Run3	generate/STIM_013.jpg
2060.725	1.894	0	generate	Run3	generate/STIM_013.jpg
2066.05	1.227	1	generate	Run3	generate/STIM_013.jpg
2070.054	1.82	1	generate	Run3	generate/STIM_014.jpg
2074.025	1.655	1	generate	Run3	generate/STIM_014.jpg
2079.149	1.847	1	generate	Run3	generate/STIM_014.jpg
2083.106	1.252	1	generate	Run3	generate/STIM_014.jpg
2087.491	1.021	1	generate	Run3	generate/STIM_014.jpg
2092.467	1.883	1	generate	Run3	generate/STIM_015.jpg
2096.847	2.027	1	generate	Run3	generate/STIM_015.jpg
2102.618	0.848	1	generate	Run3	generate/STIM_015.jpg
2106.778	1.226	1	generate	Run3	generate/STIM_015.jpg
2111.991	1.333	1	generate	Run3	generate/STIM_015.jpg
2117.195	1.005	1	generate	Run3	generate/STIM_016.jpg
2120.406	2.033	1	generate	Run3	generate/STIM_016.jpg
2126.012	1.378	1	generate	Run3	generate/STIM_016.jpg
2131.17	1.247	1	generate	Run3	generate/STIM_016.jpg
2135.051	0.863	1	generate	Run3	generate/STIM_016.jpg
2139.127	0.923	1	generate	Run3	generate/STIM_017.jpg
2142.95	1.884	1	generate	Run3	generate/STIM_017.jpg
2147.988	1.006	1	generate	Run3	generate/STIM_017.jpg
2152.754	0.966	1	generate	Run3	generate/STIM_017.jpg
2157.689	1.022	1	generate	Run3	generate/STIM_017.jpg
2161.051	1.664	1	generate	Run3	generate/STIM_018.jpg
2165.302	1.727	1	generate	Run3	generate/STIM_018.jpg
2170.139	0.895	1	generate	Run3	generate/STIM_018.jpg
2174.334	1.857	1	generate	Run3	generate/STIM_018.jpg
2178.617	1.024	1	generate	Run3	generate/STIM_018.jpg
2183.62	1.591	1	generate	Run3	generate/STIM_019.jpg
2188.377	1.872	1	generate	Run3	generate/STIM_019.jpg
2193.373	1.91	1	generate	Run3	generate/STIM_019.jpg
2197.921	2.029	1	generate	Run3	generate/STIM_019.jpg
2202.414	1.792	1	generate	Run3	generate/STIM_019.jpg
2206.445	1.81	1	generate	Run3	generate/STIM_020.jpg
2212.27	1.709	1	generate	Run3	generate/STIM_020.jpg
2216.29	0.99	1	generate	Run3	generate/STIM_020.jpg
2221.169	1.368	1	generate	Run3	generate/STIM_020.jpg
2224.863	1.416	1	generate	Run3	generate/STIM_020.jpg
2228.699	1.71	1	generate	Run3	generate/STIM_021.jpg
2232.535	1.533	0	generate	Run3	generate/STIM_021.jpg
2236.142	1.004	1	generate	Run3	generate/STIM_021.jpg
2240.109	0.865	1	generate	Run3	generate/STIM_021.jpg
2243.616	0.831	0	generate	Run3	generate/STIM_021.jpg
2247.742	1.996	0	generate	Run3	generate/STIM_022.jpg
2252.186	1.124	1	generate	Run3	generate/STIM_022.jpg
2256.156	1.685	1	generate	Run3	generate/STIM_022.jpg
2260.485	1.668	0	generate	Run3	generate/STIM_022.jpg
2264.928	1.243	1	generate	Run3	generate/STIM_022.jpg
2269.168	1.439	1	generate	Run3	generate/STIM_023.jpg
2273.928	1.386	1	generate	Run3	generate/STIM_023.jpg
2277.915	0.86	1	generate	Run3	generate/STIM_023.jpg
2281.651	1.954	1	generate	Run3	generate/STIM_023.jpg
2285.96	1.223	1	generate	Run3	generate/STIM_023.jpg
2290.827	1.718	0	generate	Run3	generate/STIM_024.jpg
2295.047	1.279	0	generate	Run3	generate/STIM_024.jpg
2298.992	1.858	1	generate	Run3	generate/STIM_024.jpg
2304.81	1.454	1	generate	Run3	generate/STIM_024.jpg
2310.184	1.547	1	generate	Run3	generate/STIM_024.jpg
2315.601	0.587	1	repeat	Run3	repeat/STIM_000.jpg
2320.077	0.635	1	repeat	Run3	repeat/STIM_000.jpg
2324.065	0.622	1	repeat	Run3	repeat/STIM_000.jpg
2328.507	0.634	1	repeat	Run3	repeat/STIM_000.jpg
2332.703	0.655	1	repeat	Run3	repeat/STIM_000.jpg
2337.074	0.627	1	repeat	Run3	repeat/STIM_001.jpg
2340.642	0.632	1	repeat	Run3	repeat/STIM_001.jpg
2345.116	0.835	1	repeat	Run3	repeat/STIM_001.jpg
2349.933	0.533	1	repeat	Run3	repeat/STIM_001.jpg
2353.016	0.543	1	repeat	Run3	repeat/STIM_001.jpg
2356.962	0.74	1	repeat	Run3	repeat/STIM_002.jpg
2359.879	0.666	1	repeat	Run3	repeat/STIM_002.jpg
2363.864	0.503	1	repeat	Run3	repeat/STIM_002.jpg
2367.337	0.726	1	repeat	Run3	repeat/STIM_002.jpg
2370.368	0.943	1	repeat	Run3	repeat/STIM_002.jpg
2374.912	0.629	1	repeat	Run3	repeat/STIM_003.jpg
2379.236	0.527	1	repeat	Run3	repeat/STIM_003.jpg
2383.23	0.902	1	repeat	Run3	repeat/STIM_003.jpg
2387.095	0.886	1	repeat	Run3	repeat/STIM_003.jpg
2390.951	0.567	1	repeat	Run3	repeat/STIM_003.jpg
2395.253	0.582	1	repeat	Run3	repeat/STIM_004.jpg
2398.816	0.956	0	repeat	Run3	repeat/STIM_004.jpg
2402.799	0.857	1	repeat	Run3	repeat/STIM_004.jpg
2406.085	0.95	1	repeat	Run3	repeat/STIM_004.jpg
2410.069	0.692	0	repeat	Run3	repeat/STIM_004.jpg
2412.855	0.783	1	repeat	Run3	repeat/STIM_005.jpg
2416.834	0.978	1	repeat	Run3	repeat/STIM_005.jpg
2421.421	0.821	1	repeat	Run3	repeat/STIM_005.jpg
2424.317	0.681	1	repeat	Run3	repeat/STIM_005.jpg
2428.836	0.526	1	repeat	Run3	repeat/STIM_005.jpg
2431.507	0.905	1	repeat	Run3	repeat/STIM_006.jpg
2436.044	0.67	1	repeat	Run3	repeat/STIM_006.jpg
2439.838	0.961	1	repeat	Run3	repeat/STIM_006.jpg
2443.938	0.639	1	repeat	Run3	repeat/STIM_006.jpg
2447.976	0.709	1	repeat	Run3	repeat/STIM_006.jpg
2451.759	0.638	1	repeat	Run3	repeat/STIM_007.jpg
2455.156	0.575	1	repeat	Run3	repeat/STIM_007.jpg
2458.785	0.753	1	repeat	Run3	repeat/STIM_007.jpg
2463.085	0.976	1	repeat	Run3	repeat/STIM_007.jpg
2467.117	0.68	1	repeat	Run3	repeat/STIM_007.jpg
2470.466	0.616	1	repeat	Run3	repeat/STIM_008.jpg
2474.889	0.899	1	repeat	Run3	repeat/STIM_008.jpg
2477.915	0.638	1	repeat	Run3	repeat/STIM_008.jpg
2480.585	0.713	1	repeat	Run3	repeat/STIM_008.jpg
2484.448	0.519	1	repeat	Run3	repeat/STIM_008.jpg
2488.767	0.754	1	repeat	Run3	repeat/STIM_009.jpg
2491.749	0.962	1	repeat	Run3	repeat/STIM_009.jpg
2496.169	0.566	1	repeat	Run3	repeat/STIM_009.jpg
2499.11	0.862	1	repeat	Run3	repeat/STIM_009.jpg
2503.916	0.714	1	repeat	Run3	repeat/STIM_009.jpg
2508.602	0.791	1	repeat	Run3	repeat/STIM_010.jpg
2512.326	0.789	1	repeat	Run3	repeat/STIM_010.jpg
2515.868	0.623	1	repeat	Run3	repeat/STIM_010.jpg
2520.218	0.492	1	repeat	Run3	repeat/STIM_010.jpg
2524.692	0.591	1	repeat	Run3	repeat/STIM_010.jpg
2528.455	0.556	1	repeat	Run3	repeat/STIM_011.jpg
2531.411	0.631	1	repeat	Run3	repeat/STIM_011.jpg
2535.054	0.676	1	repeat	Run3	repeat/STIM_011.jpg
2538.097	0.598	1	repeat	Run3	repeat/STIM_011.jpg
2542.388	0.905	1	repeat	Run3	repeat/STIM_011.jpg
2547.07	0.922	1	repeat	Run3	repeat/STIM_012.jpg
2551.887	0.496	1	repeat	Run3	repeat/STIM_012.jpg
2555.686	0.86	1	repeat	Run3	repeat/STIM_012.jpg
2559.248	0.816	1	repeat	Run3	repeat/STIM_012.jpg
2563.284	0.968	1	repeat	Run3	repeat/STIM_012.jpg
2566.73	0.971	1	repeat	Run3	repeat/STIM_013.jpg
2570.298	0.934	1	repeat	Run3	repeat/STIM_013.jpg
2574.839	0.746	1	repeat	Run3	repeat/STIM_013.jpg
2578.82	0.828	1	repeat	Run3	repeat/STIM_013.jpg
2583.416	0.684	1	repeat	Run3	repeat/STIM_013.jpg
2586.258	0.651	1	repeat	Run3	repeat/STIM_014.jpg
2589.57	0.738	1	repeat	Run3	repeat/STIM_014.jpg
2592.639	0.695	1	repeat	Run3	repeat/STIM_014.jpg
2595.445	0.759	1	repeat	Run3	repeat/STIM_014.jpg
2598.364	0.503	1	repeat	Run3	repeat/STIM_014.jpg
2601.148	1.87	1	generate	Run4	generate/STIM_000.jpg
2606.047	1.246	1	generate	Run4	generate/STIM_000.jpg
2610.105	1.057	1	generate	Run4	generate/STIM_000.jpg
2613.404	1.959	1	generate	Run4	generate/STIM_000.jpg
2617.952	0.83	1	generate	Run4	generate/STIM_000.jpg
2621.348	1.806	1	generate	Run4	generate/STIM_001.jpg
2625.847	1.761	1	generate	Run4	generate/STIM_001.jpg
2630.325	1.987	0	generate	Run4	generate/STIM_001.jpg
2635.317	1.347	1	generate	Run4	generate/STIM_001.jpg
2639.087	1.822	1	generate	Run4	generate/STIM_001.jpg
2644.729	1.022	0	generate	Run4	generate/STIM_002.jpg
2648.131	1.766	1	generate	Run4	generate/STIM_002.jpg
2653.382	1.782	1	generate	Run4	generate/STIM_002.jpg
2657.384	1.208	1	generate	Run4	generate/STIM_002.jpg
2662.279	1.417	1	generate	Run4	generate/STIM_002.jpg
2665.852	1.144	1	generate	Run4	generate/STIM_003.jpg
2669.135	0.916	1	generate	Run4	generate/STIM_003.jpg
2672.301	1.221	1	generate	Run4	generate/STIM_003.jpg
2676.8	1.066	1	generate	Run4	generate/STIM_003.jpg
2681.801	1.011	1	generate	Run4	generate/STIM_003.jpg
2686.187	0.854	1	generate	Run4	generate/STIM_004.jpg
2690.679	0.986	1	generate	Run4	generate/STIM_004.jpg
2694.175	1.142	1	generate	Run4	generate/STIM_004.jpg
2698.661	0.907	1	generate	Run4	generate/STIM_004.jpg
2703.083	0.903	1	generate	Run4	generate/STIM_004.jpg
2707.7	1.215	1	generate	Run4	generate/STIM_005.jpg
2711.848	1.656	1	generate	Run4	generate/STIM_005.jpg
2716.663	0.937	1	generate	Run4	generate/STIM_005.jpg
2721.144	2.01	1	generate	Run4	generate/STIM_005.jpg
2726.172	1.98	1	generate	Run4	generate/STIM_005.jpg
2730.524	1.474	1	generate	Run4	generate/STIM_006.jpg
2735.171	1.642	1	generate	Run4	generate/STIM_006.jpg
2740.555	1.365	1	generate	Run4	generate/STIM_006.jpg
2744.958	0.968	1	generate	Run4	generate/STIM_006.jpg
2748.269	1.799	1	generate	Run4	generate/STIM_006.jpg
2752.696	1.182	1	generate	Run4	generate/STIM_007.jpg
2755.943	1.136	1	generate	Run4	generate/STIM_007.jpg
2760.126	1.167	1	generate	Run4	generate/STIM_007.jpg
2764.021	1.816	1	generate	Run4	generate/STIM_007.jpg
2769.472	1.125	1	generate	Run4	generate/STIM_007.jpg
2773.481	1.411	1	generate	Run4	generate/STIM_008.jpg
2778.365	1.149	1	generate	Run4	generate/STIM_008.jpg
2783.273	0.983	1	generate	Run4	generate/STIM_008.jpg
2786.545	1.318	1	generate	Run4	generate/STIM_008.jpg
2791.602	2.02	1	generate	Run4	generate/STIM_008.jpg
2796.303	0.978	1	generate	Run4	generate/STIM_009.jpg
2799.993	1.02	1	generate	Run4	generate/STIM_009.jpg
2804.467	1.218	1	generate	Run4	generate/STIM_009.jpg
2809.409	0.998	1	generate	Run4	generate/STIM_009.jpg
2813.941	1.119	1	generate	Run4	generate/STIM_009.jpg
2818.738	1.318	1	generate	Run4	generate/STIM_010.jpg
2823.377	1.404	1	generate	Run4	generate/STIM_010.jpg
2827.052	2.047	1	generate	Run4	generate/STIM_010.jpg
2832.834	0.88	1	generate	Run4	generate/STIM_010.jpg
2836.45	1.155	1	generate	Run4	generate/STIM_010.jpg
2841.595	2.037	1	generate	Run4	generate/STIM_011.jpg
2845.757	1.881	1	generate	Run4	generate/STIM_011.jpg
2850.903	1.423	1	generate	Run4	generate/STIM_011.jpg
2856.282	1.135	1	generate	Run4	generate/STIM_011.jpg
2859.904	1.787	1	generate	Run4	generate/STIM_011.jpg
2864.633	1.186	1	generate	Run4	generate/STIM_012.jpg
2868.559	1.971	1	generate	Run4	generate/STIM_012.jpg
2872.937	2.045	1	generate	Run4	generate/STIM_012.jpg
2878.804	2.014	1	generate	Run4	generate/STIM_012.jpg
2882.904	0.995	1	generate	Run4	generate/STIM_012.jpg
2886.23	1.062	1	generate	Run4	generate/STIM_013.jpg
2890.049	1.697	1	generate	Run4	generate/STIM_013.jpg
2894.358	1.93	1	generate	Run4	generate/STIM_013.jpg
2898.399	1.152	1	generate	Run4	generate/STIM_013.jpg
2903.266	2.024	1	generate	Run4	generate/STIM_013.jpg
2908.635	1.936	1	generate	Run4	generate/STIM_014.jpg
2913.463	1.622	1	generate	Run4	generate/STIM_014.jpg
2919.078	1.138	1	generate	Run4	generate/STIM_014.jpg
2923.441	1.021	1	generate	Run4	generate/STIM_014.jpg
2926.548	1.029	1	generate	Run4	generate/STIM_014.jpg
2930.986	2.021	1	generate	Run4	generate/STIM_015.jpg
2936.517	1.432	1	generate	Run4	generate/STIM_015.jpg
2940.453	1.268	1	generate	Run4	generate/STIM_015.jpg
2943.807	1.189	1	generate	Run4	generate/STIM_015.jpg
2948.78	0.855	1	generate	Run4	generate/STIM_015.jpg
2952.141	1.039	1	generate	Run4	generate/STIM_016.jpg
2956.373	1.853	1	generate	Run4	generate/STIM_016.jpg
2961.538	1.583	1	generate	Run4	generate/STIM_016.jpg
2965.654	1.829	1	generate	Run4	generate/STIM_016.jpg
2971.143	0.831	1	generate	Run4	generate/STIM_016.jpg
2974.874	1.358	1	generate	Run4	generate/STIM_017.jpg
2978.52	1.73	1	generate	Run4	generate/STIM_017.jpg
2983.973	1.883	1	generate	Run4	generate/STIM_017.jpg
2988.266	2.062	1	generate	Run4	generate/STIM_017.jpg
2992.74	1.435	1	generate	Run4	generate/STIM_017.jpg
2997.51	1.597	1	generate	Run4	generate/STIM_018.jpg
3002.61	1.177	1	generate	Run4	generate/STIM_018.jpg
3006.654	1.136	1	generate	Run4	generate/STIM_018.jpg
3010.842	1.291	1	generate	Run4	generate/STIM_018.jpg
3015.757	1.936	1	generate	Run4	generate/STIM_018.jpg
3020.057	1.6	1	generate	Run4	generate/STIM_019.jpg
3025.229	0.852	1	generate	Run4	generate/STIM_019.jpg
3029.446	1.058	1	generate	Run4	generate/STIM_019.jpg
3034.485	1.947	1	generate	Run4	generate/STIM_019.jpg
3040.197	1.096	1	generate	Run4	generate/STIM_019.jpg
3043.494	1.447	1	generate	Run4	generate/STIM_020.jpg
3047.029	1.491	1	generate	Run4	generate/STIM_020.jpg
3051.773	1.808	1	generate	Run4	generate/STIM_020.jpg
3056.376	0.989	1	generate	Run4	generate/STIM_020.jpg
3061.242	0.962	1	generate	Run4	generate/STIM_020.jpg
3065.852	1.015	1	generate	Run4	generate/STIM_021.jpg
3069.268	1.846	1	generate	Run4	generate/STIM_021.jpg
3074.953	1.298	1	generate	Run4	generate/STIM_021.jpg
3078.411	1.865	1	generate	Run4	generate/STIM_021.jpg
3082.405	1.507	1	generate	Run4	generate/STIM_021.jpg
3086.034	1.921	1	generate	Run4	generate/STIM_022.jpg
3090.191	1.553	1	generate	Run4	generate/STIM_022.jpg
3095.516	1.575	1	generate	Run4	generate/STIM_022.jpg
3100.928	1.323	1	generate	Run4	generate/STIM_022.jpg
3105.494	1.572	1	generate	Run4	generate/STIM_022.jpg
3109.507	2.054	1	generate	Run4	generate/STIM_023.jpg
3114.242	1.274	1	generate	Run4	generate/STIM_023.jpg
3118.235	1.932	1	generate	Run4	generate/STIM_023.jpg
3123.927	0.956	1	generate	Run4	generate/STIM_023.jpg
3126.927	1.48	1	generate	Run4	generate/STIM_023.jpg
3131.578	1.066	1	generate	Run4	generate/STIM_024.jpg
3135.257	1.392	1	generate	Run4	generate/STIM_024.jpg
3138.788	1.145	1	generate	Run4	generate/STIM_024.jpg
3143.639	1.5	1	generate	Run4	generate/STIM_024.jpg
3148.797	1.445	1	generate	Run4	generate/STIM_024.jpg
3153.392	0.935	1	repeat	Run4	repeat/STIM_000.jpg
3156.83	0.494	1	repeat	Run4	repeat/STIM_000.jpg
3160.439	0.589	1	repeat	Run4	repeat/STIM_000.jpg
3164.174	0.759	1	repeat	Run4	repeat/STIM_000.jpg
3168.851	0.911	1	repeat	Run4	repeat/STIM_000.jpg
3172.405	0.517	1	repeat	Run4	repeat/STIM_001.jpg
3175.454	0.821	1	repeat	Run4	repeat/STIM_001.jpg
3179.518	0.519	1	repeat	Run4	repeat/STIM_001.jpg
3182.325	0.911	1	repeat	Run4	repeat/STIM_001.jpg
3185.826	0.84	1	repeat	Run4	repeat/STIM_001.jpg
3188.939	0.597	1	repeat	Run4	repeat/STIM_002.jpg
3192.623	0.761	1	repeat	Run4	repeat/STIM_002.jpg
3196.252	0.715	1	repeat	Run4	repeat/STIM_002.jpg
3199.886	0.528	1	repeat	Run4	repeat/STIM_002.jpg
3203.092	0.708	1	repeat	Run4	repeat/STIM_002.jpg
3206.25	0.76	1	repeat	Run4	repeat/STIM_003.jpg
3210.177	0.663	1	repeat	Run4	repeat/STIM_003.jpg
3213.789	0.77	1	repeat	Run4	repeat/STIM_003.jpg
3218.157	0.636	1	repeat	Run4	repeat/STIM_003.jpg
3220.906	0.674	1	repeat	Run4	repeat/STIM_003.jpg
3225.104	0.858	1	repeat	Run4	repeat/STIM_004.jpg
3228.644	0.968	1	repeat	Run4	repeat/STIM_004.jpg
3232.05	0.704	1	repeat	Run4	repeat/STIM_004.jpg
3234.781	0.766	1	repeat	Run4	repeat/STIM_004.jpg
3239.237	0.5	1	repeat	Run4	repeat/STIM_004.jpg
3242.347	0.528	1	repeat	Run4	repeat/STIM_005.jpg
3245.579	0.713	1	repeat	Run4	repeat/STIM_005.jpg
3248.945	0.742	1	repeat	Run4	repeat/STIM_005.jpg
3253.256	0.923	1	repeat	Run4	repeat/STIM_005.jpg
3257.04	0.744	1	repeat	Run4	repeat/STIM_005.jpg
3260.615	0.654	1	repeat	Run4	repeat/STIM_006.jpg
3264.006	0.525	1	repeat	Run4	repeat/STIM_006.jpg
3267.828	0.87	1	repeat	Run4	repeat/STIM_006.jpg
3271.455	0.834	1	repeat	Run4	repeat/STIM_006.jpg
3275.035	0.769	1	repeat	Run4	repeat/STIM_006.jpg
3278.919	0.899	1	repeat	Run4	repeat/STIM_007.jpg
3283.147	0.821	1	repeat	Run4	repeat/STIM_007.jpg
3285.994	0.797	1	repeat	Run4	repeat/STIM_007.jpg
3289.743	0.932	0	repeat	Run4	repeat/STIM_007.jpg
3292.999	0.836	1	repeat	Run4	repeat/STIM_007.jpg
3296.096	0.777	1	repeat	Run4	repeat/STIM_008.jpg
3300.016	0.772	1	repeat	Run4	repeat/STIM_008.jpg
3304.481	0.66	1	repeat	Run4	repeat/STIM_008.jpg
3307.508	0.742	1	repeat	Run4	repeat/STIM_008.jpg
3310.818	0.664	1	repeat	Run4	repeat/STIM_008.jpg
3314.3	0.722	1	repeat	Run4	repeat/STIM_009.jpg
3317.035	0.616	1	repeat	Run4	repeat/STIM_009.jpg
3320.692	0.809	1	repeat	Run4	repeat/STIM_009.jpg
3324.94	0.798	1	repeat	Run4	repeat/STIM_009.jpg
3328.989	0.78	1	repeat	Run4	repeat/STIM_009.jpg
3332.419	0.746	1	repeat	Run4	repeat/STIM_010.jpg
3336.685	0.902	1	repeat	Run4	repeat/STIM_010.jpg
3341.161	0.851	0	repeat	Run4	repeat/STIM_010.jpg
3344.778	0.757	1	repeat	Run4	repeat/STIM_010.jpg
3349.448	0.912	1	repeat	Run4	repeat/STIM_010.jpg
3352.41	0.63	1	repeat	Run4	repeat/STIM_011.jpg
3355.075	0.983	1	repeat	Run4	repeat/STIM_011.jpg
3358.138	0.747	1	repeat	Run4	repeat/STIM_011.jpg
3361.894	0.789	1	repeat	Run4	repeat/STIM_011.jpg
3365.276	0.768	1	repeat	Run4	repeat/STIM_011.jpg
3368.22	0.883	1	repeat	Run4	repeat/STIM_012.jpg
3372.889	0.766	1	repeat	Run4	repeat/STIM_012.jpg
3376.132	0.683	1	repeat	Run4	repeat/STIM_012.jpg
3379.214	0.834	1	repeat	Run4	repeat/STIM_012.jpg
3382.172	0.773	1	repeat	Run4	repeat/STIM_012.jpg
3386.679	0.743	1	repeat	Run4	repeat/STIM_013.jpg
3391.417	0.912	1	repeat	Run4	repeat/STIM_013.jpg
3396.15	0.638	1	repeat	Run4	repeat/STIM_013.jpg
3399.415	0.548	1	repeat	Run4	repeat/STIM_013.jpg
3402.837	0.651	1	repeat	Run4	repeat/STIM_013.jpg
3405.785	0.77	1	repeat	Run4	repeat/STIM_014.jpg
3409.575	0.974	1	repeat	Run4	repeat/STIM_014.jpg
3413.428	0.726	1	repeat	Run4	repeat/STIM_014.jpg
3416.961	0.634	1	repeat	Run4	repeat/STIM_014.jpg
3420.84	0.799	1	repeat	Run4	repeat/STIM_014.jpg
