onset	duration	accuracy	trial_type	learning_stage	stimulus
0.0	0.569	incorrect	2back	Block1	2back/STIM_000.jpg
3.698	0.69	correct	2back	Block1	2back/STIM_000.jpg
6.732	0.528	correct	2back	Block1	2back/STIM_000.jpg
11.129	0.578	correct	2back	Block1	2back/STIM_001.jpg
15.274	0.559	correct	2back	Block1	2back/STIM_001.jpg
18.855	0.889	correct	2back	Block1	2back/STIM_001.jpg
21.873	0.708	correct	2back	Block1	2back/STIM_002.jpg
25.334	0.708	correct	2back	Block1	2back/STIM_002.jpg
29.484	0.82	correct	2back	Block1	2back/STIM_002.jpg
32.853	0.812	correct	2back	Block1	2back/STIM_003.jpg
36.966	1.165	incorrect	2back	Block1	2back/STIM_003.jpg
41.889	0.814	correct	2back	Block1	2back/STIM_003.jpg
45.344	0.903	correct	2back	Block1	2back/STIM_004.jpg
49.015	0.854	correct	2back	Block1	2back/STIM_004.jpg
52.701	0.702	incorrect	2back	Block1	2back/STIM_004.jpg
55.833	0.802	correct	2back	Block1	2back/STIM_005.jpg
60.463	0.715	correct	2back	Block1	2back/STIM_005.jpg
63.756	0.871	correct	2back	Block1	2back/STIM_005.jpg
67.106	0.633	incorrect	2back	Block1	2back/STIM_006.jpg
70.104	0.674	correct	2back	Block1	2back/STIM_006.jpg
73.737	0.998	correct	2back	Block1	2back/STIM_006.jpg
78.499	1.166	correct	2back	Block1	2back/STIM_007.jpg
82.688	0.677	correct	2back	Block1	2back/STIM_007.jpg
86.261	0.708	correct	2back	Block1	2back/STIM_007.jpg
90.649	0.743	incorrect	2back	Block1	2back/STIM_008.jpg
94.078	0.855	correct	2back	Block1	2back/STIM_008.jpg
99.022	1.021	correct	2back	Block1	2back/STIM_008.jpg
103.728	0.609	correct	2back	Block1	2back/STIM_009.jpg
107.384	0.798	correct	2back	Block1	2back/STIM_009.jpg
112.258	0.632	correct	2back	Block1	2back/STIM_009.jpg
116.296	1.155	correct	2back	Block1	2back/STIM_010.jpg
119.744	0.714	correct	2back	Block1	2back/STIM_010.jpg
124.412	0.71	correct	2back	Block1	2back/STIM_010.jpg
128.704	0.868	correct	2back	Block1	2back/STIM_011.jpg
132.74	0.933	correct	2back	Block1	2back/STIM_011.jpg
136.463	0.627	correct	2back	Block1	2back/STIM_011.jpg
140.295	0.624	correct	2back	Block1	2back/STIM_012.jpg
144.329	0.922	correct	2back	Block1	2back/STIM_012.jpg
148.098	0.839	correct	2back	Block1	2back/STIM_012.jpg
151.089	0.592	correct	2back	Block1	2back/STIM_013.jpg
155.657	0.967	correct	2back	Block1	2back/STIM_013.jpg
159.016	1.017	incorrect	2back	Block1	2back/STIM_013.jpg
162.538	1.233	correct	2back	Block1	2back/STIM_014.jpg
165.938	0.641	correct	2back	Block1	2back/STIM_014.jpg
170.382	1.001	correct	2back	Block1	2back/STIM_014.jpg
174.218	0.643	correct	2back	Block1	2back/STIM_015.jpg
178.766	0.762	correct	2back	Block1	2back/STIM_015.jpg
181.955	0.754	correct	2back	Block1	2back/STIM_015.jpg
185.32	0.538	correct	2back	Block1	2back/STIM_016.jpg
189.26	0.812	incorrect	2back	Block1	2back/STIM_016.jpg
193.797	1.052	incorrect	2back	Block1	2back/STIM_016.jpg
198.212	1.054	correct	2back	Block1	2back/STIM_017.jpg
202.624	1.091	correct	2back	Block1	2back/STIM_017.jpg
206.154	0.96	correct	2back	Block1	2back/STIM_017.jpg
210.598	0.952	correct	2back	Block1	2back/STIM_018.jpg
214.533	0.899	correct	2back	Block1	2back/STIM_018.jpg
218.287	1.06	correct	2back	Block1	2back/STIM_018.jpg
223.195	0.77	correct	2back	Block1	2back/STIM_019.jpg
227.386	0.727	correct	2back	Block1	2back/STIM_019.jpg
231.478	0.645	correct	2back	Block1	2back/STIM_019.jpg
234.691	0.627	correct	2back	Block1	2back/STIM_020.jpg
237.78	0.976	incorrect	2back	Block1	2back/STIM_020.jpg
242.154	0.656	correct	2back	Block1	2back/STIM_020.jpg
245.955	1.046	correct	2back	Block1	2back/STIM_021.jpg
250.347	1.042	correct	2back	Block1	2back/STIM_021.jpg
254.282	0.577	correct	2back	Block1	2back/STIM_021.jpg
257.884	1.205	correct	2back	Block1	2back/STIM_022.jpg
262.801	1.087	correct	2back	Block1	2back/STIM_022.jpg
266.173	0.908	correct	2back	Block1	2back/STIM_022.jpg
270.212	1.052	incorrect	2back	Block1	2back/STIM_023.jpg
273.993	0.807	correct	2back	Block1	2back/STIM_023.jpg
277.175	0.503	incorrect	2back	Block1	2back/STIM_023.jpg
281.339	0.703	correct	2back	Block1	2back/STIM_024.jpg
284.916	0.643	correct	2back	Block1	2back/STIM_024.jpg
288.616	0.931	incorrect	2back	Block1	2back/STIM_024.jpg
292.878	0.952	incorrect	2back	Block1	2back/STIM_025.jpg
296.612	0.924	incorrect	2back	Block1	2back/STIM_025.jpg
301.504	0.879	correct	2back	Block1	2back/STIM_025.jpg
305.116	0.695	correct	2back	Block1	2back/STIM_026.jpg
308.83	0.761	correct	2back	Block1	2back/STIM_026.jpg
312.044	0.551	correct	2back	Block1	2back/STIM_026.jpg
315.428	0.789	correct	2back	Block1	2back/STIM_027.jpg
318.552	1.011	incorrect	2back	Block1	2back/STIM_027.jpg
321.82	0.801	correct	2back	Block1	2back/STIM_027.jpg
325.099	1.221	correct	2back	Block1	2back/STIM_028.jpg
328.602	0.796	correct	2back	Block1	2back/STIM_028.jpg
331.871	0.685	correct	2back	Block1	2back/STIM_028.jpg
335.667	0.986	correct	2back	Block1	2back/STIM_029.jpg
339.797	0.546	correct	2back	Block1	2back/STIM_029.jpg
343.822	0.593	correct	2back	Block1	2back/STIM_029.jpg
347.857	0.8	correct	2back	Block1	2back/STIM_030.jpg
351.804	0.995	correct	2back	Block1	2back/STIM_030.jpg
356.735	0.994	correct	2back	Block1	2back/STIM_030.jpg
360.406	1.197	correct	2back	Block1	2back/STIM_031.jpg
365.002	1.0	correct	2back	Block1	2back/STIM_031.jpg
368.349	0.607	correct	2back	Block1	2back/STIM_031.jpg
371.257	1.087	correct	2back	Block1	2back/STIM_032.jpg
374.894	0.81	correct	2back	Block1	2back/STIM_032.jpg
379.434	0.635	correct	2back	Block1	2back/STIM_032.jpg
383.819	1.027	correct	2back	Block1	2back/STIM_033.jpg
387.532	1.125	incorrect	2back	Block1	2back/STIM_033.jpg
391.959	0.966	correct	2back	Block1	2back/STIM_033.jpg
395.059	1.228	incorrect	2back	Block1	2back/STIM_034.jpg
400.09	0.792	correct	2back	Block1	2back/STIM_034.jpg
403.323	0.788	correct	2back	Block1	2back/STIM_034.jpg
407.323	0.624	correct	2back	Block1	2back/STIM_035.jpg
411.514	0.558	correct	2back	Block1	2back/STIM_035.jpg
415.411	0.915	correct	2back	Block1	2back/STIM_035.jpg
420.388	0.95	correct	2back	Block1	2back/STIM_036.jpg
424.104	0.867	correct	2back	Block1	2back/STIM_036.jpg
428.429	0.585	correct	2back	Block1	2back/STIM_036.jpg
432.033	0.877	correct	2back	Block1	2back/STIM_037.jpg
436.914	0.976	correct	2back	Block1	2back/STIM_037.jpg
441.267	1.107	correct	2back	Block1	2back/STIM_037.jpg
445.683	0.998	incorrect	2back	Block1	2back/STIM_038.jpg
449.702	0.992	correct	2back	Block1	2back/STIM_038.jpg
454.82	0.902	correct	2back	Block1	2back/STIM_038.jpg
458.409	0.624	correct	2back	Block1	2back/STIM_039.jpg
461.924	1.096	incorrect	2back	Block1	2back/STIM_039.jpg
466.726	1.092	correct	2back	Block1	2back/STIM_039.jpg
470.54	0.416	correct	0back	Block1	0back/STIM_000.jpg
473.164	0.62	correct	0back	Block1	0back/STIM_000.jpg
477.425	0.506	correct	0back	Block1	0back/STIM_000.jpg
480.302	0.436	correct	0back	Block1	0back/STIM_001.jpg
484.075	0.593	correct	0back	Block1	0back/STIM_001.jpg
487.822	0.478	correct	0back	Block1	0back/STIM_001.jpg
490.553	0.614	correct	0back	Block1	0back/STIM_002.jpg
494.598	0.479	correct	0back	Block1	0back/STIM_002.jpg
498.198	0.547	incorrect	0back	Block1	0back/STIM_002.jpg
501.621	0.502	correct	0back	Block1	0back/STIM_003.jpg
505.741	0.654	correct	0back	Block1	0back/STIM_003.jpg
510.463	0.393	correct	0back	Block1	0back/STIM_003.jpg
514.005	0.67	correct	0back	Block1	0back/STIM_004.jpg
516.791	0.545	correct	0back	Block1	0back/STIM_004.jpg
521.031	0.676	correct	0back	Block1	0back/STIM_004.jpg
525.695	0.551	correct	0back	Block1	0back/STIM_005.jpg
528.7	0.464	correct	0back	Block1	0back/STIM_005.jpg
531.473	0.529	correct	0back	Block1	0back/STIM_005.jpg
534.256	0.619	correct	0back	Block1	0back/STIM_006.jpg
538.02	0.422	correct	0back	Block1	0back/STIM_006.jpg
542.273	0.433	correct	0back	Block1	0back/STIM_006.jpg
546.007	0.443	correct	0back	Block1	0back/STIM_007.jpg
549.152	0.494	correct	0back	Block1	0back/STIM_007.jpg
552.378	0.411	correct	0back	Block1	0back/STIM_007.jpg
556.824	0.371	correct	0back	Block1	0back/STIM_008.jpg
560.265	0.638	correct	0back	Block1	0back/STIM_008.jpg
563.651	0.364	correct	0back	Block1	0back/STIM_008.jpg
566.591	0.593	correct	0back	Block1	0back/STIM_009.jpg
570.151	0.574	correct	0back	Block1	0back/STIM_009.jpg
574.315	0.55	correct	0back	Block1	0back/STIM_009.jpg
578.351	0.401	correct	0back	Block1	0back/STIM_010.jpg
581.885	0.593	correct	0back	Block1	0back/STIM_010.jpg
586.063	0.627	correct	0back	Block1	0back/STIM_010.jpg
590.758	0.465	correct	0back	Block1	0back/STIM_011.jpg
594.06	0.666	correct	0back	Block1	0back/STIM_011.jpg
598.655	0.478	correct	0back	Block1	0back/STIM_011.jpg
601.504	0.424	correct	0back	Block1	0back/STIM_012.jpg
604.877	0.568	correct	0back	Block1	0back/STIM_012.jpg
608.098	0.384	correct	0back	Block1	0back/STIM_012.jpg
611.561	0.485	correct	0back	Block1	0back/STIM_013.jpg
614.505	0.63	correct	0back	Block1	0back/STIM_013.jpg
618.147	0.48	correct	0back	Block1	0back/STIM_013.jpg
621.311	0.424	correct	0back	Block1	0back/STIM_014.jpg
624.308	0.703	correct	0back	Block1	0back/STIM_014.jpg
628.424	0.551	correct	0back	Block1	0back/STIM_014.jpg
631.576	0.683	correct	0back	Block1	0back/STIM_015.jpg
635.326	0.537	correct	0back	Block1	0back/STIM_015.jpg
638.235	0.62	correct	0back	Block1	0back/STIM_015.jpg
642.595	0.582	correct	0back	Block1	0back/STIM_016.jpg
645.344	0.664	correct	0back	Block1	0back/STIM_016.jpg
648.71	0.371	correct	0back	Block1	0back/STIM_016.jpg
652.96	0.464	correct	0back	Block1	0back/STIM_017.jpg
656.479	0.566	correct	0back	Block1	0back/STIM_017.jpg
659.254	0.554	correct	0back	Block1	0back/STIM_017.jpg
662.857	0.481	correct	0back	Block1	0back/STIM_018.jpg
667.143	0.568	correct	0back	Block1	0back/STIM_018.jpg
670.526	0.48	correct	0back	Block1	0back/STIM_018.jpg
674.857	0.547	correct	0back	Block1	0back/STIM_019.jpg
678.499	0.604	correct	0back	Block1	0back/STIM_019.jpg
681.732	0.568	correct	0back	Block1	0back/STIM_019.jpg
685.439	1.022	correct	2back	Block2	2back/STIM_000.jpg
690.272	0.575	correct	2back	Block2	2back/STIM_000.jpg
694.551	0.522	correct	2back	Block2	2back/STIM_000.jpg
698.338	0.842	correct	2back	Block2	2back/STIM_001.jpg
701.344	0.525	correct	2back	Block2	2back/STIM_001.jpg
705.035	0.456	correct	2back	Block2	2back/STIM_001.jpg
709.411	0.895	correct	2back	Block2	2back/STIM_002.jpg
713.784	0.838	incorrect	2back	Block2	2back/STIM_002.jpg
717.805	0.398	incorrect	2back	Block2	2back/STIM_002.jpg
720.585	0.791	correct	2back	Block2	2back/STIM_003.jpg
723.619	0.439	correct	2back	Block2	2back/STIM_003.jpg
726.968	0.634	correct	2back	Block2	2back/STIM_003.jpg
731.654	0.751	correct	2back	Block2	2back/STIM_004.jpg
736.232	0.769	correct	2back	Block2	2back/STIM_004.jpg
739.207	0.811	incorrect	2back	Block2	2back/STIM_004.jpg
743.715	0.624	correct	2back	Block2	2back/STIM_005.jpg
746.448	0.982	correct	2back	Block2	2back/STIM_005.jpg
751.088	0.654	correct	2back	Block2	2back/STIM_005.jpg
755.792	0.895	correct	2back	Block2	2back/STIM_006.jpg
759.988	0.963	correct	2back	Block2	2back/STIM_006.jpg
763.976	0.437	correct	2back	Block2	2back/STIM_006.jpg
766.764	1.012	correct	2back	Block2	2back/STIM_007.jpg
770.415	0.804	correct	2back	Block2	2back/STIM_007.jpg
773.613	0.859	correct	2back	Block2	2back/STIM_007.jpg
776.848	0.753	correct	2back	Block2	2back/STIM_008.jpg
781.236	0.802	correct	2back	Block2	2back/STIM_008.jpg
785.47	0.419	correct	2back	Block2	2back/STIM_008.jpg
788.729	0.826	incorrect	2back	Block2	2back/STIM_009.jpg
792.782	0.855	correct	2back	Block2	2back/STIM_009.jpg
796.98	0.893	correct	2back	Block2	2back/STIM_009.jpg
800.571	0.993	correct	2back	Block2	2back/STIM_010.jpg
804.889	0.435	correct	2back	Block2	2back/STIM_010.jpg
808.824	0.41	correct	2back	Block2	2back/STIM_010.jpg
811.86	0.693	correct	2back	Block2	2back/STIM_011.jpg
816.031	0.936	correct	2back	Block2	2back/STIM_011.jpg
820.621	0.498	incorrect	2back	Block2	2back/STIM_011.jpg
824.834	0.939	incorrect	2back	Block2	2back/STIM_012.jpg
827.974	0.662	correct	2back	Block2	2back/STIM_012.jpg
832.336	0.868	correct	2back	Block2	2back/STIM_012.jpg
836.378	0.89	correct	2back	Block2	2back/STIM_013.jpg
840.965	0.747	correct	2back	Block2	2back/STIM_013.jpg
845.041	0.503	correct	2back	Block2	2back/STIM_013.jpg
847.623	0.727	correct	2back	Block2	2back/STIM_014.jpg
852.077	0.449	correct	2back	Block2	2back/STIM_014.jpg
855.851	0.58	correct	2back	Block2	2back/STIM_014.jpg
859.191	0.594	correct	2back	Block2	2back/STIM_015.jpg
862.821	0.955	correct	2back	Block2	2back/STIM_015.jpg
866.38	0.624	correct	2back	Block2	2back/STIM_015.jpg
870.698	0.962	incorrect	2back	Block2	2back/STIM_016.jpg
874.511	0.532	correct	2back	Block2	2back/STIM_016.jpg
878.195	0.572	correct	2back	Block2	2back/STIM_016.jpg
882.07	0.602	correct	2back	Block2	2back/STIM_017.jpg
886.321	0.731	correct	2back	Block2	2back/STIM_017.jpg
890.883	0.879	correct	2back	Block2	2back/STIM_017.jpg
895.432	1.033	correct	2back	Block2	2back/STIM_018.jpg
900.555	0.552	correct	2back	Block2	2back/STIM_018.jpg
904.848	0.906	correct	2back	Block2	2back/STIM_018.jpg
909.223	0.993	correct	2back	Block2	2back/STIM_019.jpg
913.607	0.965	correct	2back	Block2	2back/STIM_019.jpg
917.118	0.495	correct	2back	Block2	2back/STIM_019.jpg
919.886	0.638	correct	2back	Block2	2back/STIM_020.jpg
923.394	0.766	correct	2back	Block2	2back/STIM_020.jpg
928.02	0.538	correct	2back	Block2	2back/STIM_020.jpg
931.537	0.487	correct	2back	Block2	2back/STIM_021.jpg
934.671	0.547	correct	2back	Block2	2back/STIM_021.jpg
938.598	0.651	correct	2back	Block2	2back/STIM_021.jpg
941.952	0.812	correct	2back	Block2	2back/STIM_022.jpg
946.723	0.482	correct	2back	Block2	2back/STIM_022.jpg
950.724	0.656	correct	2back	Block2	2back/STIM_022.jpg
954.302	0.601	correct	2back	Block2	2back/STIM_023.jpg
957.817	0.812	correct	2back	Block2	2back/STIM_023.jpg
962.403	0.625	correct	2back	Block2	2back/STIM_023.jpg
966.589	0.821	correct	2back	Block2	2back/STIM_024.jpg
969.794	0.972	correct	2back	Block2	2back/STIM_024.jpg
974.602	0.466	correct	2back	Block2	2back/STIM_024.jpg
978.361	0.951	correct	2back	Block2	2back/STIM_025.jpg
982.457	0.632	correct	2back	Block2	2back/STIM_025.jpg
985.903	0.83	correct	2back	Block2	2back/STIM_025.jpg
990.145	0.548	correct	2back	Block2	2back/STIM_026.jpg
994.645	0.478	correct	2back	Block2	2back/STIM_026.jpg
997.675	0.45	correct	2back	Block2	2back/STIM_026.jpg
1001.345	0.631	correct	2back	Block2	2back/STIM_027.jpg
1004.834	0.974	correct	2back	Block2	2back/STIM_027.jpg
1008.314	0.552	correct	2back	Block2	2back/STIM_027.jpg
1012.089	0.716	correct	2back	Block2	2back/STIM_028.jpg
1015.633	0.541	correct	2back	Block2	2back/STIM_028.jpg
1018.265	0.855	correct	2back	Block2	2back/STIM_028.jpg
1021.378	0.98	correct	2back	Block2	2back/STIM_029.jpg
1025.687	0.487	correct	2back	Block2	2back/STIM_029.jpg
1030.156	0.621	incorrect	2back	Block2	2back/STIM_029.jpg
1034.134	0.475	correct	2back	Block2	2back/STIM_030.jpg
1037.025	0.922	correct	2back	Block2	2back/STIM_030.jpg
1041.142	0.503	correct	2back	Block2	2back/STIM_030.jpg
1044.22	1.007	correct	2back	Block2	2back/STIM_031.jpg
1047.913	0.888	correct	2back	Block2	2back/STIM_031.jpg
1052.553	0.896	incorrect	2back	Block2	2back/STIM_031.jpg
1057.22	0.936	correct	2back	Block2	2back/STIM_032.jpg
1060.773	0.682	correct	2back	Block2	2back/STIM_032.jpg
1065.318	0.66	correct	2back	Block2	2back/STIM_032.jpg
1068.762	0.96	correct	2back	Block2	2back/STIM_033.jpg
1073.8	0.659	correct	2back	Block2	2back/STIM_033.jpg
1078.166	0.531	correct	2back	Block2	2back/STIM_033.jpg
1081.337	0.972	correct	2back	Block2	2back/STIM_034.jpg
1086.329	0.629	correct	2back	Block2	2back/STIM_034.jpg
1090.126	0.493	correct	2back	Block2	2back/STIM_034.jpg
1092.876	1.046	correct	2back	Block2	2back/STIM_035.jpg
1096.439	0.806	correct	2back	Block2	2back/STIM_035.jpg
1100.661	0.418	correct	2back	Block2	2back/STIM_035.jpg
1104.415	0.655	correct	2back	Block2	2back/STIM_036.jpg
1108.151	0.733	correct	2back	Block2	2back/STIM_036.jpg
1112.761	0.5	correct	2back	Block2	2back/STIM_036.jpg
1115.83	0.884	correct	2back	Block2	2back/STIM_037.jpg
1119.115	0.799	correct	2back	Block2	2back/STIM_037.jpg
1122.829	0.739	correct	2back	Block2	2back/STIM_037.jpg
1126.218	0.513	correct	2back	Block2	2back/STIM_038.jpg
1129.265	0.76	incorrect	2back	Block2	2back/STIM_038.jpg
1132.589	0.472	correct	2back	Block2	2back/STIM_038.jpg
1135.971	0.737	correct	2back	Block2	2back/STIM_039.jpg
1139.824	0.974	correct	2back	Block2	2back/STIM_039.jpg
1143.687	0.772	correct	2back	Block2	2back/STIM_039.jpg
1147.328	0.549	correct	0back	Block2	0back/STIM_000.jpg
1149.968	0.633	correct	0back	Block2	0back/STIM_000.jpg
1154.146	0.516	correct	0back	Block2	0back/STIM_000.jpg
1158.188	0.613	correct	0back	Block2	0back/STIM_001.jpg
1161.455	0.513	correct	0back	Block2	0back/STIM_001.jpg
1166.02	0.67	correct	0back	Block2	0back/STIM_001.jpg
1169.392	0.384	correct	0back	Block2	0back/STIM_002.jpg
1172.194	0.416	correct	0back	Block2	0back/STIM_002.jpg
1176.344	0.548	correct	0back	Block2	0back/STIM_002.jpg
1180.375	0.686	correct	0back	Block2	0back/STIM_003.jpg
1184.311	0.69	correct	0back	Block2	0back/STIM_003.jpg
1188.665	0.682	correct	0back	Block2	0back/STIM_003.jpg
1193.431	0.468	correct	0back	Block2	0back/STIM_004.jpg
1197.585	0.435	correct	0back	Block2	0back/STIM_004.jpg
1201.714	0.474	correct	0back	Block2	0back/STIM_004.jpg
1205.892	0.425	correct	0back	Block2	0back/STIM_005.jpg
1210.254	0.608	correct	0back	Block2	0back/STIM_005.jpg
1214.769	0.357	correct	0back	Block2	0back/STIM_005.jpg
1218.817	0.391	correct	0back	Block2	0back/STIM_006.jpg
1222.38	0.564	correct	0back	Block2	0back/STIM_006.jpg
1226.558	0.596	correct	0back	Block2	0back/STIM_006.jpg
1229.807	0.643	correct	0back	Block2	0back/STIM_007.jpg
1233.978	0.485	correct	0back	Block2	0back/STIM_007.jpg
1236.578	0.556	correct	0back	Block2	0back/STIM_007.jpg
1240.165	0.407	correct	0back	Block2	0back/STIM_008.jpg
1244.087	0.568	correct	0back	Block2	0back/STIM_008.jpg
1246.894	0.373	correct	0back	Block2	0back/STIM_008.jpg
1251.155	0.644	incorrect	0back	Block2	0back/STIM_009.jpg
1254.171	0.474	correct	0back	Block2	0back/STIM_009.jpg
1257.224	0.48	correct	0back	Block2	0back/STIM_009.jpg
1260.846	0.648	correct	0back	Block2	0back/STIM_010.jpg
1264.129	0.559	incorrect	0back	Block2	0back/STIM_010.jpg
1267.447	0.487	correct	0back	Block2	0back/STIM_010.jpg
1271.028	0.658	correct	0back	Block2	0back/STIM_011.jpg
1274.707	0.662	correct	0back	Block2	0back/STIM_011.jpg
1278.733	0.492	correct	0back	Block2	0back/STIM_011.jpg
1282.483	0.507	correct	0back	Block2	0back/STIM_012.jpg
1286.306	0.492	correct	0back	Block2	0back/STIM_012.jpg
1289.761	0.665	incorrect	0back	Block2	0back/STIM_012.jpg
1294.44	0.637	correct	0back	Block2	0back/STIM_013.jpg
1298.58	0.366	correct	0back	Block2	0back/STIM_013.jpg
1301.911	0.66	correct	0back	Block2	0back/STIM_013.jpg
1305.219	0.692	correct	0back	Block2	0back/STIM_014.jpg
1308.829	0.691	correct	0back	Block2	0back/STIM_014.jpg
1312.233	0.488	incorrect	0back	Block2	0back/STIM_014.jpg
1315.82	0.466	correct	0back	Block2	0back/STIM_015.jpg
1319.283	0.367	correct	0back	Block2	0back/STIM_015.jpg
1323.164	0.632	incorrect	0back	Block2	0back/STIM_015.jpg
1326.619	0.449	correct	0back	Block2	0back/STIM_016.jpg
1329.95	0.566	correct	0back	Block2	0back/STIM_016.jpg
1332.741	0.53	correct	0back	Block2	0back/STIM_016.jpg
1335.792	0.657	correct	0back	Block2	0back/STIM_017.jpg
1339.993	0.606	correct	0back	Block2	0back/STIM_017.jpg
1343.976	0.383	correct	0back	Block2	0back/STIM_017.jpg
1347.411	0.648	correct	0back	Block2	0back/STIM_018.jpg
1350.293	0.516	correct	0back	Block2	0back/STIM_018.jpg
1354.727	0.367	correct	0back	Block2	0back/STIM_018.jpg
1358.143	0.665	correct	0back	Block2	0back/STIM_019.jpg
1362.564	0.506	correct	0back	Block2	0back/STIM_019.jpg
1366.551	0.632	correct	0back	Block2	0back/STIM_019.jpg
1371.067	0.682	correct	2back	Block3	2back/STIM_000.jpg
1374.372	0.779	correct	2back	Block3	2back/STIM_000.jpg
1379.004	0.446	correct	2back	Block3	2back/STIM_000.jpg
1382.142	0.629	correct	2back	Block3	2back/STIM_001.jpg
1386.47	0.429	correct	2back	Block3	2back/STIM_001.jpg
1390.254	0.641	correct	2back	Block3	2back/STIM_001.jpg
1394.791	0.795	correct	2back	Block3	2back/STIM_002.jpg
1398.143	0.536	correct	2back	Block3	2back/STIM_002.jpg
1401.196	0.53	correct	2back	Block3	2back/STIM_002.jpg
1404.873	0.848	incorrect	2back	Block3	2back/STIM_003.jpg
1407.913	0.65	correct	2back	Block3	2back/STIM_003.jpg
1411.322	0.549	correct	2back	Block3	2back/STIM_003.jpg
1414.832	0.642	correct	2back	Block3	2back/STIM_004.jpg
1419.028	0.799	correct	2back	Block3	2back/STIM_004.jpg
1423.454	0.728	correct	2back	Block3	2back/STIM_004.jpg
1427.604	0.654	incorrect	2back	Block3	2back/STIM_005.jpg
1431.59	0.592	correct	2back	Block3	2back/STIM_005.jpg
1435.895	0.781	correct	2back	Block3	2back/STIM_005.jpg
1439.213	0.61	correct	2back	Block3	2back/STIM_006.jpg
1442.918	0.694	incorrect	2back	Block3	2back/STIM_006.jpg
1445.724	0.788	correct	2back	Block3	2back/STIM_006.jpg
1450.412	0.779	correct	2back	Block3	2back/STIM_007.jpg
1454.345	0.677	correct	2back	Block3	2back/STIM_007.jpg
1458.612	0.435	correct	2back	Block3	2back/STIM_007.jpg
1462.316	0.785	correct	2back	Block3	2back/STIM_008.jpg
1466.432	0.74	correct	2back	Block3	2back/STIM_008.jpg
1469.696	0.718	correct	2back	Block3	2back/STIM_008.jpg
1473.305	0.438	correct	2back	Block3	2back/STIM_009.jpg
1477.175	0.841	correct	2back	Block3	2back/STIM_009.jpg
1480.75	0.435	correct	2back	Block3	2back/STIM_009.jpg
1484.723	0.699	correct	2back	Block3	2back/STIM_010.jpg
1489.365	0.417	correct	2back	Block3	2back/STIM_010.jpg
1493.545	0.651	correct	2back	Block3	2back/STIM_010.jpg
1496.344	0.433	correct	2back	Block3	2back/STIM_011.jpg
1499.298	0.412	correct	2back	Block3	2back/STIM_011.jpg
1501.967	0.774	correct	2back	Block3	2back/STIM_011.jpg
1505.323	0.86	correct	2back	Block3	2back/STIM_012.jpg
1509.248	0.374	incorrect	2back	Block3	2back/STIM_012.jpg
1513.251	0.753	incorrect	2back	Block3	2back/STIM_012.jpg
1518.041	0.557	correct	2back	Block3	2back/STIM_013.jpg
1520.853	0.846	correct	2back	Block3	2back/STIM_013.jpg
1525.325	0.49	correct	2back	Block3	2back/STIM_013.jpg
1528.428	0.848	correct	2back	Block3	2back/STIM_014.jpg
1533.332	0.626	correct	2back	Block3	2back/STIM_014.jpg
1536.893	0.588	correct	2back	Block3	2back/STIM_014.jpg
1539.751	0.688	correct	2back	Block3	2back/STIM_015.jpg
1544.091	0.747	correct	2back	Block3	2back/STIM_015.jpg
1548.765	0.619	correct	2back	Block3	2back/STIM_015.jpg
1551.698	0.696	correct	2back	Block3	2back/STIM_016.jpg
1554.513	0.7	correct	2back	Block3	2back/STIM_016.jpg
1557.886	0.476	correct	2back	Block3	2back/STIM_016.jpg
1562.288	0.448	correct	2back	Block3	2back/STIM_017.jpg
1565.582	0.661	correct	2back	Block3	2back/STIM_017.jpg
1569.83	0.804	correct	2back	Block3	2back/STIM_017.jpg
1572.993	0.478	correct	2back	Block3	2back/STIM_018.jpg
1576.232	0.625	correct	2back	Block3	2back/STIM_018.jpg
1580.035	0.453	correct	2back	Block3	2back/STIM_018.jpg
1582.606	0.749	correct	2back	Block3	2back/STIM_019.jpg
1587.055	0.826	correct	2back	Block3	2back/STIM_019.jpg
1591.626	0.455	correct	2back	Block3	2back/STIM_019.jpg
1595.666	0.746	correct	2back	Block3	2back/STIM_020.jpg
1600.249	0.495	correct	2back	Block3	2back/STIM_020.jpg
1604.585	0.513	correct	2back	Block3	2back/STIM_020.jpg
1608.336	0.491	incorrect	2back	Block3	2back/STIM_021.jpg
1612.083	0.384	correct	2back	Block3	2back/STIM_021.jpg
1614.711	0.451	correct	2back	Block3	2back/STIM_021.jpg
1618.517	0.426	correct	2back	Block3	2back/STIM_022.jpg
1621.468	0.479	correct	2back	Block3	2back/STIM_022.jpg
1624.704	0.842	correct	2back	Block3	2back/STIM_022.jpg
1629.146	0.852	correct	2back	Block3	2back/STIM_023.jpg
1632.135	0.407	correct	2back	Block3	2back/STIM_023.jpg
1635.38	0.528	correct	2back	Block3	2back/STIM_023.jpg
1638.221	0.522	correct	2back	Block3	2back/STIM_024.jpg
1642.81	0.445	correct	2back	Block3	2back/STIM_024.jpg
1645.715	0.725	correct	2back	Block3	2back/STIM_024.jpg
1649.699	0.509	correct	2back	Block3	2back/STIM_025.jpg
1654.199	0.598	correct	2back	Block3	2back/STIM_025.jpg
1657.334	0.403	correct	2back	Block3	2back/STIM_025.jpg
1660.245	0.419	correct	2back	Block3	2back/STIM_026.jpg
1664.621	0.824	correct	2back	Block3	2back/STIM_026.jpg
1669.146	0.644	correct	2back	Block3	2back/STIM_026.jpg
1673.38	0.575	correct	2back	Block3	2back/STIM_027.jpg
1677.98	0.522	correct	2back	Block3	2back/STIM_027.jpg
1682.459	0.708	correct	2back	Block3	2back/STIM_027.jpg
1686.12	0.461	correct	2back	Block3	2back/STIM_028.jpg
1690.026	0.725	correct	2back	Block3	2back/STIM_028.jpg
1693.1	0.486	correct	2back	Block3	2back/STIM_028.jpg
1697.07	0.533	correct	2back	Block3	2back/STIM_029.jpg
1701.608	0.707	correct	2back	Block3	2back/STIM_029.jpg
1706.202	0.676	correct	2back	Block3	2back/STIM_029.jpg
1710.78	0.495	correct	2back	Block3	2back/STIM_030.jpg
1713.988	0.642	correct	2back	Block3	2back/STIM_030.jpg
1718.146	0.8	correct	2back	Block3	2back/STIM_030.jpg
1722.971	0.824	correct	2back	Block3	2back/STIM_031.jpg
1727.259	0.665	correct	2back	Block3	2back/STIM_031.jpg
1730.173	0.409	correct	2back	Block3	2back/STIM_031.jpg
1734.32	0.565	correct	2back	Block3	2back/STIM_032.jpg
1737.546	0.611	correct	2back	Block3	2back/STIM_032.jpg
1741.226	0.725	correct	2back	Block3	2back/STIM_032.jpg
1745.597	0.603	correct	2back	Block3	2back/STIM_033.jpg
1749.266	0.411	correct	2back	Block3	2back/STIM_033.jpg
1752.859	0.62	correct	2back	Block3	2back/STIM_033.jpg
1756.5	0.754	correct	2back	Block3	2back/STIM_034.jpg
1759.502	0.848	correct	2back	Block3	2back/STIM_034.jpg
1763.844	0.677	correct	2back	Block3	2back/STIM_034.jpg
1767.785	0.55	correct	2back	Block3	2back/STIM_035.jpg
1772.21	0.641	correct	2back	Block3	2back/STIM_035.jpg
1775.73	0.471	correct	2back	Block3	2back/STIM_035.jpg
1778.486	0.372	correct	2back	Block3	2back/STIM_036.jpg
1781.307	0.465	correct	2back	Block3	2back/STIM_036.jpg
1785.799	0.59	correct	2back	Block3	2back/STIM_036.jpg
1790.316	0.397	correct	2back	Block3	2back/STIM_037.jpg
1793.184	0.667	correct	2back	Block3	2back/STIM_037.jpg
1796.621	0.706	correct	2back	Block3	2back/STIM_037.jpg
1801.277	0.736	correct	2back	Block3	2back/STIM_038.jpg
1806.045	0.727	correct	2back	Block3	2back/STIM_038.jpg
1810.632	0.812	correct	2back	Block3	2back/STIM_038.jpg
1813.982	0.534	correct	2back	Block3	2back/STIM_039.jpg
1817.137	0.402	correct	2back	Block3	2back/STIM_039.jpg
1820.559	0.662	correct	2back	Block3	2back/STIM_039.jpg
1824.084	0.466	correct	0back	Block3	0back/STIM_000.jpg
1827.119	0.555	correct	0back	Block3	0back/STIM_000.jpg
1831.298	0.564	correct	0back	Block3	0back/STIM_000.jpg
1835.115	0.49	correct	0back	Block3	0back/STIM_001.jpg
1839.617	0.579	correct	0back	Block3	0back/STIM_001.jpg
1843.876	0.477	correct	0back	Block3	0back/STIM_001.jpg
1847.72	0.384	incorrect	0back	Block3	0back/STIM_002.jpg
1850.834	0.437	correct	0back	Block3	0back/STIM_002.jpg
1854.064	0.607	correct	0back	Block3	0back/STIM_002.jpg
1858.469	0.641	correct	0back	Block3	0back/STIM_003.jpg
1861.646	0.383	incorrect	0back	Block3	0back/STIM_003.jpg
1865.902	0.38	correct	0back	Block3	0back/STIM_003.jpg
1869.03	0.37	correct	0back	Block3	0back/STIM_004.jpg
1873.337	0.692	correct	0back	Block3	0back/STIM_004.jpg
1877.91	0.375	correct	0back	Block3	0back/STIM_004.jpg
1880.905	0.702	correct	0back	Block3	0back/STIM_005.jpg
1884.632	0.393	correct	0back	Block3	0back/STIM_005.jpg
1887.197	0.489	correct	0back	Block3	0back/STIM_005.jpg
1890.649	0.611	correct	0back	Block3	0back/STIM_006.jpg
1894.111	0.454	correct	0back	Block3	0back/STIM_006.jpg
1897.908	0.634	correct	0back	Block3	0back/STIM_006.jpg
1901.477	0.5	correct	0back	Block3	0back/STIM_007.jpg
1905.688	0.616	correct	0back	Block3	0back/STIM_007.jpg
1909.862	0.376	correct	0back	Block3	0back/STIM_007.jpg
1913.804	0.46	correct	0back	Block3	0back/STIM_008.jpg
1916.88	0.517	correct	0back	Block3	0back/STIM_008.jpg
1920.47	0.365	correct	0back	Block3	0back/STIM_008.jpg
1923.449	0.691	correct	0back	Block3	0back/STIM_009.jpg
1927.377	0.582	correct	0back	Block3	0back/STIM_009.jpg
1931.316	0.418	correct	0back	Block3	0back/STIM_009.jpg
1935.016	0.389	correct	0back	Block3	0back/STIM_010.jpg
1937.843	0.64	correct	0back	Block3	0back/STIM_010.jpg
1941.116	0.444	correct	0back	Block3	0back/STIM_010.jpg
1944.953	0.547	correct	0back	Block3	0back/STIM_011.jpg
1948.148	0.545	correct	0back	Block3	0back/STIM_011.jpg
1952.38	0.414	correct	0back	Block3	0back/STIM_011.jpg
1955.02	0.508	correct	0back	Block3	0back/STIM_012.jpg
1959.345	0.637	correct	0back	Block3	0back/STIM_012.jpg
1962.31	0.704	correct	0back	Block3	0back/STIM_012.jpg
1965.818	0.447	correct	0back	Block3	0back/STIM_013.jpg
1970.259	0.605	correct	0back	Block3	0back/STIM_013.jpg
1973.594	0.521	incorrect	0back	Block3	0back/STIM_013.jpg
1977.594	0.44	correct	0back	Block3	0back/STIM_014.jpg
1981.287	0.524	incorrect	0back	Block3	0back/STIM_014.jpg
1984.459	0.37	correct	0back	Block3	0back/STIM_014.jpg
1987.411	0.609	correct	0back	Block3	0back/STIM_015.jpg
1991.505	0.438	correct	0back	Block3	0back/STIM_015.jpg
1994.431	0.599	correct	0back	Block3	0back/STIM_015.jpg
1998.531	0.705	correct	0back	Block3	0back/STIM_016.jpg
2002.599	0.68	correct	0back	Block3	0back/STIM_016.jpg
2007.19	0.504	correct	0back	Block3	0back/STIM_016.jpg
2010.958	0.503	correct	0back	Block3	0back/STIM_017.jpg
2014.917	0.571	incorrect	0back	Block3	0back/STIM_017.jpg
2019.017	0.664	correct	0back	Block3	0back/STIM_017.jpg
2023.345	0.461	correct	0back	Block3	0back/STIM_018.jpg
2027.449	0.697	incorrect	0back	Block3	0back/STIM_018.jpg
2031.05	0.591	correct	0back	Block3	0back/STIM_018.jpg
2034.711	0.501	correct	0back	Block3	0back/STIM_019.jpg
2038.067	0.654	correct	0back	Block3	0back/STIM_019.jpg
2042.519	0.615	correct	0back	Block3	0back/STIM_019.jpg
2046.398	0.418	correct	2back	Block4	2back/STIM_000.jpg
2050.8	0.776	correct	2back	Block4	2back/STIM_000.jpg
2054.554	0.461	correct	2back	Block4	2back/STIM_000.jpg
2057.967	0.825	correct	2back	Block4	2back/STIM_001.jpg
2061.992	0.763	correct	2back	Block4	2back/STIM_001.jpg
2065.737	0.632	correct	2back	Block4	2back/STIM_001.jpg
2069.679	0.824	correct	2back	Block4	2back/STIM_002.jpg
2074.034	0.744	correct	2back	Block4	2back/STIM_002.jpg
2078.58	0.716	correct	2back	Block4	2back/STIM_002.jpg
2082.787	0.831	correct	2back	Block4	2back/STIM_003.jpg
2085.981	0.721	correct	2back	Block4	2back/STIM_003.jpg
2089.108	0.853	correct	2back	Block4	2back/STIM_003.jpg
2093.293	0.819	correct	2back	Block4	2back/STIM_004.jpg
2098.027	0.625	correct	2back	Block4	2back/STIM_004.jpg
2102.012	0.551	correct	2back	Block4	2back/STIM_004.jpg
2105.937	0.399	correct	2back	Block4	2back/STIM_005.jpg
2108.95	0.454	correct	2back	Block4	2back/STIM_005.jpg
2111.966	0.46	correct	2back	Block4	2back/STIM_005.jpg
2114.591	0.435	correct	2back	Block4	2back/STIM_006.jpg
2118.116	0.855	correct	2back	Block4	2back/STIM_006.jpg
2122.331	0.566	correct	2back	Block4	2back/STIM_006.jpg
2125.662	0.453	correct	2back	Block4	2back/STIM_007.jpg
2129.559	0.538	correct	2back	Block4	2back/STIM_007.jpg
2133.432	0.519	correct	2back	Block4	2back/STIM_007.jpg
2137.134	0.602	correct	2back	Block4	2back/STIM_008.jpg
2141.567	0.792	correct	2back	Block4	2back/STIM_008.jpg
2145.406	0.731	correct	2back	Block4	2back/STIM_008.jpg
2148.514	0.404	correct	2back	Block4	2back/STIM_009.jpg
2152.012	0.691	correct	2back	Block4	2back/STIM_009.jpg
2156.402	0.489	correct	2back	Block4	2back/STIM_009.jpg
2160.243	0.774	correct	2back	Block4	2back/STIM_010.jpg
2163.871	0.664	correct	2back	Block4	2back/STIM_010.jpg
2167.849	0.431	correct	2back	Block4	2back/STIM_010.jpg
2170.65	0.599	correct	2back	Block4	2back/STIM_011.jpg
2175.097	0.614	correct	2back	Block4	2back/STIM_011.jpg
2178.124	0.697	correct	2back	Block4	2back/STIM_011.jpg
2182.493	0.791	correct	2back	Block4	2back/STIM_012.jpg
2186.326	0.425	correct	2back	Block4	2back/STIM_012.jpg
2190.622	0.47	correct	2back	Block4	2back/STIM_012.jpg
2193.409	0.637	correct	2back	Block4	2back/STIM_013.jpg
2197.678	0.612	correct	2back	Block4	2back/STIM_013.jpg
2202.16	0.854	correct	2back	Block4	2back/STIM_013.jpg
2206.558	0.537	correct	2back	Block4	2back/STIM_014.jpg
2210.469	0.399	correct	2back	Block4	2back/STIM_014.jpg
2214.282	0.466	correct	2back	Block4	2back/STIM_014.jpg
2217.135	0.639	correct	2back	Block4	2back/STIM_015.jpg
2220.651	0.767	correct	2back	Block4	2back/STIM_015.jpg
2225.167	0.742	correct	2back	Block4	2back/STIM_015.jpg
2229.996	0.741	correct	2back	Block4	2back/STIM_016.jpg
2234.208	0.807	correct	2back	Block4	2back/STIM_016.jpg
2238.567	0.494	correct	2back	Block4	2back/STIM_016.jpg
2242.898	0.466	correct	2back	Block4	2back/STIM_017.jpg
2246.914	0.655	correct	2back	Block4	2back/STIM_017.jpg
2250.24	0.806	correct	2back	Block4	2back/STIM_017.jpg
2254.623	0.861	correct	2back	Block4	2back/STIM_018.jpg
2259.206	0.612	correct	2back	Block4	2back/STIM_018.jpg
2262.781	0.753	correct	2back	Block4	2back/STIM_018.jpg
2265.954	0.748	correct	2back	Block4	2back/STIM_019.jpg
2269.689	0.767	correct	2back	Block4	2back/STIM_019.jpg
2273.554	0.684	correct	2back	Block4	2back/STIM_019.jpg
2277.488	0.836	correct	2back	Block4	2back/STIM_020.jpg
2281.143	0.821	correct	2back	Block4	2back/STIM_020.jpg
2284.93	0.745	correct	2back	Block4	2back/STIM_020.jpg
2288.368	0.673	correct	2back	Block4	2back/STIM_021.jpg
2292.251	0.631	correct	2back	Block4	2back/STIM_021.jpg
2296.817	0.86	correct	2back	Block4	2back/STIM_021.jpg
2300.878	0.484	correct	2back	Block4	2back/STIM_022.jpg
2304.853	0.424	correct	2back	Block4	2back/STIM_022.jpg
2307.611	0.634	correct	2back	Block4	2back/STIM_022.jpg
2311.624	0.747	correct	2back	Block4	2back/STIM_023.jpg
2314.881	0.511	correct	2back	Block4	2back/STIM_023.jpg
2318.7	0.451	correct	2back	Block4	2back/STIM_023.jpg
2322.587	0.852	correct	2back	Block4	2back/STIM_024.jpg
2327.301	0.479	correct	2back	Block4	2back/STIM_024.jpg
2330.444	0.411	correct	2back	Block4	2back/STIM_024.jpg
2334.22	0.486	correct	2back	Block4	2back/STIM_025.jpg
2338.383	0.753	correct	2back	Block4	2back/STIM_025.jpg
2342.962	0.761	correct	2back	Block4	2back/STIM_025.jpg
2346.886	0.628	correct	2back	Block4	2back/STIM_026.jpg
2349.709	0.578	correct	2back	Block4	2back/STIM_026.jpg
2353.061	0.705	correct	2back	Block4	2back/STIM_026.jpg
2355.901	0.521	correct	2back	Block4	2back/STIM_027.jpg
2360.107	0.439	correct	2back	Block4	2back/STIM_027.jpg
2364.173	0.554	correct	2back	Block4	2back/STIM_027.jpg
2367.549	0.651	correct	2back	Block4	2back/STIM_028.jpg
2370.353	0.59	correct	2back	Block4	2back/STIM_028.jpg
2373.591	0.809	correct	2back	Block4	2back/STIM_028.jpg
2378.265	0.681	correct	2back	Block4	2back/STIM_029.jpg
2382.495	0.475	correct	2back	Block4	2back/STIM_029.jpg
2385.514	0.761	correct	2back	Block4	2back/STIM_029.jpg
2389.443	0.543	correct	2back	Block4	2back/STIM_030.jpg
2393.508	0.457	correct	2back	Block4	2back/STIM_030.jpg
2397.262	0.773	correct	2back	Block4	2back/STIM_030.jpg
2400.344	0.416	correct	2back	Block4	2back/STIM_031.jpg
2403.844	0.491	correct	2back	Block4	2back/STIM_031.jpg
2408.205	0.617	correct	2back	Block4	2back/STIM_031.jpg
2411.127	0.389	correct	2back	Block4	2back/STIM_032.jpg
2415.526	0.544	correct	2back	Block4	2back/STIM_032.jpg
2419.549	0.473	correct	2back	Block4	2back/STIM_032.jpg
2423.671	0.398	correct	2back	Block4	2back/STIM_033.jpg
2427.33	0.53	correct	2back	Block4	2back/STIM_033.jpg
2430.307	0.419	correct	2back	Block4	2back/STIM_033.jpg
2433.284	0.47	correct	2back	Block4	2back/STIM_034.jpg
2435.93	0.428	correct	2back	Block4	2back/STIM_034.jpg
2439.83	0.731	correct	2back	Block4	2back/STIM_034.jpg
2443.007	0.577	correct	2back	Block4	2back/STIM_035.jpg
2447.337	0.604	correct	2back	Block4	2back/STIM_035.jpg
2450.926	0.852	correct	2back	Block4	2back/STIM_035.jpg
2454.529	0.772	correct	2back	Block4	2back/STIM_036.jpg
2458.668	0.85	correct	2back	Block4	2back/STIM_036.jpg
2462.718	0.536	correct	2back	Block4	2back/STIM_036.jpg
2467.165	0.608	correct	2back	Block4	2back/STIM_037.jpg
2470.465	0.434	correct	2back	Block4	2back/STIM_037.jpg
2473.788	0.807	correct	2back	Block4	2back/STIM_037.jpg
2477.348	0.83	correct	2back	Block4	2back/STIM_038.jpg
2481.847	0.394	correct	2back	Block4	2back/STIM_038.jpg
2484.849	0.547	correct	2back	Block4	2back/STIM_038.jpg
2487.851	0.452	correct	2back	Block4	2back/STIM_039.jpg
2491.221	0.426	correct	2back	Block4	2back/STIM_039.jpg
2495.111	0.524	correct	2back	Block4	2back/STIM_039.jpg
2498.74	0.478	correct	0back	Block4	0back/STIM_000.jpg
2502.479	0.55	correct	0back	Block4	0back/STIM_000.jpg
2506.817	0.377	correct	0back	Block4	0back/STIM_000.jpg
2510.924	0.513	correct	0back	Block4	0back/STIM_001.jpg
2514.018	0.697	correct	0back	Block4	0back/STIM_001.jpg
2517.245	0.479	correct	0back	Block4	0back/STIM_001.jpg
2520.243	0.403	correct	0back	Block4	0back/STIM_002.jpg
2524.608	0.481	correct	0back	Block4	0back/STIM_002.jpg
2528.667	0.655	correct	0back	Block4	0back/STIM_002.jpg
2531.707	0.367	correct	0back	Block4	0back/STIM_003.jpg
2534.844	0.533	correct	0back	Block4	0back/STIM_003.jpg
2537.545	0.634	correct	0back	Block4	0back/STIM_003.jpg
2540.419	0.662	correct	0back	Block4	0back/STIM_004.jpg
2543.625	0.448	correct	0back	Block4	0back/STIM_004.jpg
2546.387	0.472	incorrect	0back	Block4	0back/STIM_004.jpg
2549.78	0.39	correct	0back	Block4	0back/STIM_005.jpg
2553.269	0.629	correct	0back	Block4	0back/STIM_005.jpg
2557.677	0.538	correct	0back	Block4	0back/STIM_005.jpg
2560.429	0.382	correct	0back	Block4	0back/STIM_006.jpg
2564.404	0.588	correct	0back	Block4	0back/STIM_006.jpg
2568.588	0.384	correct	0back	Block4	0back/STIM_006.jpg
2572.077	0.689	correct	0back	Block4	0back/STIM_007.jpg
2575.333	0.363	correct	0back	Block4	0back/STIM_007.jpg
2578.756	0.436	correct	0back	Block4	0back/STIM_007.jpg
2582.087	0.384	incorrect	0back	Block4	0back/STIM_008.jpg
2586.038	0.666	correct	0back	Block4	0back/STIM_008.jpg
2590.66	0.619	correct	0back	Block4	0back/STIM_008.jpg
2594.197	0.497	correct	0back	Block4	0back/STIM_009.jpg
2596.981	0.555	incorrect	0back	Block4	0back/STIM_009.jpg
2600.068	0.485	correct	0back	Block4	0back/STIM_009.jpg
2604.154	0.4	correct	0back	Block4	0back/STIM_010.jpg
2608.392	0.52	correct	0back	Block4	0back/STIM_010.jpg
2611.92	0.439	correct	0back	Block4	0back/STIM_010.jpg
2615.105	0.498	correct	0back	Block4	0back/STIM_011.jpg
2619.27	0.526	correct	0back	Block4	0back/STIM_011.jpg
2622.107	0.511	correct	0back	Block4	0back/STIM_011.jpg
2626.128	0.61	correct	0back	Block4	0back/STIM_012.jpg
2629.839	0.552	correct	0back	Block4	0back/STIM_012.jpg
2633.09	0.66	correct	0back	Block4	0back/STIM_012.jpg
2636.168	0.599	correct	0back	Block4	0back/STIM_013.jpg
2640.723	0.467	correct	0back	Block4	0back/STIM_013.jpg
2644.735	0.555	incorrect	0back	Block4	0back/STIM_013.jpg
2648.479	0.645	correct	0back	Block4	0back/STIM_014.jpg
2652.005	0.555	incorrect	0back	Block4	0back/STIM_014.jpg
2655.121	0.519	correct	0back	Block4	0back/STIM_014.jpg
2658.353	0.606	correct	0back	Block4	0back/STIM_015.jpg
2662.904	0.434	correct	0back	Block4	0back/STIM_015.jpg
2667.28	0.391	correct	0back	Block4	0back/STIM_015.jpg
2670.521	0.541	correct	0back	Block4	0back/STIM_016.jpg
2673.309	0.604	correct	0back	Block4	0back/STIM_016.jpg
2677.773	0.62	correct	0back	Block4	0back/STIM_016.jpg
2681.155	0.468	correct	0back	Block4	0back/STIM_017.jpg
2684.759	0.658	correct	0back	Block4	0back/STIM_017.jpg
2688.1	0.667	correct	0back	Block4	0back/STIM_017.jpg
2692.581	0.676	correct	0back	Block4	0back/STIM_018.jpg
2695.657	0.55	correct	0back	Block4	0back/STIM_018.jpg
2698.615	0.363	correct	0back	Block4	0back/STIM_018.jpg
2701.279	0.447	correct	0back	Block4	0back/STIM_019.jpg
2704.102	0.426	correct	0back	Block4	0back/STIM_019.jpg
2708.377	0.435	correct	0back	Block4	0back/STIM_019.jpg
