onset	duration	response_time_ms	trial_type	learning_stage	stimulus	response_port
0.0	0.612	612.5	2back	Block1	2back/STIM_000.jpg	99
4.309	0.85	850.2	2back	Block1	2back/STIM_000.jpg	100
7.512	0.735	735.3	2back	Block1	2back/STIM_000.jpg	100
11.3	0.651	651.3	2back	Block1	2back/STIM_001.jpg	99
15.138	0.935	934.7	2back	Block1	2back/STIM_001.jpg	100
18.866	0.867	867.0	2back	Block1	2back/STIM_001.jpg	99
23.466	0.924	924.5	2back	Block1	2back/STIM_002.jpg	99
27.03	1.061	1061.3	2back	Block1	2back/STIM_002.jpg	99
31.363	0.997	997.2	2back	Block1	2back/STIM_002.jpg	100
35.386	1.192	1191.8	2back	Block1	2back/STIM_003.jpg	99
40.44	0.888	888.2	2back	Block1	2back/STIM_003.jpg	100
44.313	0.887	887.0	2back	Block1	2back/STIM_003.jpg	100
48.915	0.657	656.7	2back	Block1	2back/STIM_004.jpg	99
52.13	1.095	1094.8	2back	Block1	2back/STIM_004.jpg	100
56.802	1.073	1073.3	2back	Block1	2back/STIM_004.jpg	99
60.611	1.134	1134.4	2back	Block1	2back/STIM_005.jpg	99
63.9	1.258	1257.6	2back	Block1	2back/STIM_005.jpg	99
68.77	1.043	1043.3	2back	Block1	2back/STIM_005.jpg	100
73.349	1.164	1164.1	2back	Block1	2back/STIM_006.jpg	99
77.629	0.999	999.1	2back	Block1	2back/STIM_006.jpg	99
80.996	0.976	976.3	2back	Block1	2back/STIM_006.jpg	100
84.187	0.724	723.6	2back	Block1	2back/STIM_007.jpg	99
88.812	0.949	948.7	2back	Block1	2back/STIM_007.jpg	99
93.08	0.997	997.3	2back	Block1	2back/STIM_007.jpg	100
97.213	1.154	1154.0	2back	Block1	2back/STIM_008.jpg	100
100.662	0.962	962.4	2back	Block1	2back/STIM_008.jpg	99
103.96	1.144	1143.5	2back	Block1	2back/STIM_008.jpg	100
107.949	0.936	935.7	2back	Block1	2back/STIM_009.jpg	99
112.193	1.129	1129.1	2back	Block1	2back/STIM_009.jpg	99
116.977	1.152	1152.4	2back	Block1	2back/STIM_009.jpg	99
120.96	1.292	1292.5	2back	Block1	2back/STIM_010.jpg	100
126.074	1.246	1245.6	2back	Block1	2back/STIM_010.jpg	100
129.923	0.99	990.1	2back	Block1	2back/STIM_010.jpg	100
133.919	0.965	965.3	2back	Block1	2back/STIM_011.jpg	99
138.715	0.764	763.7	2back	Block1	2back/STIM_011.jpg	99
142.861	0.911	910.6	2back	Block1	2back/STIM_011.jpg	99
146.685	0.695	694.7	2back	Block1	2back/STIM_012.jpg	99
149.87	1.142	1142.2	2back	Block1	2back/STIM_012.jpg	99
154.239	0.715	714.9	2back	Block1	2back/STIM_012.jpg	100
158.518	0.626	626.4	2back	Block1	2back/STIM_013.jpg	99
162.595	1.191	1190.8	2back	Block1	2back/STIM_013.jpg	100
167.246	0.854	854.3	2back	Block1	2back/STIM_013.jpg	100
171.673	0.954	953.8	2back	Block1	2back/STIM_014.jpg	99
175.631	0.872	871.5	2back	Block1	2back/STIM_014.jpg	99
179.257	1.032	1031.6	2back	Block1	2back/STIM_014.jpg	100
183.408	1.297	1297.3	2back	Block1	2back/STIM_015.jpg	100
188.372	0.73	730.4	2back	Block1	2back/STIM_015.jpg	99
192.959	0.644	643.7	2back	Block1	2back/STIM_015.jpg	100
195.718	1.282	1282.0	2back	Block1	2back/STIM_016.jpg	99
200.495	0.622	622.2	2back	Block1	2back/STIM_016.jpg	100
203.244	0.787	787.4	2back	Block1	2back/STIM_016.jpg	100
207.356	0.729	729.0	2back	Block1	2back/STIM_017.jpg	100
211.356	1.055	1055.4	2back	Block1	2back/STIM_017.jpg	99
214.422	0.583	582.8	2back	Block1	2back/STIM_017.jpg	100
218.732	0.755	754.7	2back	Block1	2back/STIM_018.jpg	99
223.078	1.142	1141.5	2back	Block1	2back/STIM_018.jpg	99
228.12	0.993	992.6	2back	Block1	2back/STIM_018.jpg	100
231.945	0.588	588.0	2back	Block1	2back/STIM_019.jpg	99
235.769	0.543	543.2	2back	Block1	2back/STIM_019.jpg	99
239.726	1.041	1040.7	2back	Block1	2back/STIM_019.jpg	100
244.733	0.768	767.7	2back	Block1	2back/STIM_020.jpg	99
248.118	0.741	740.8	2back	Block1	2back/STIM_020.jpg	99
252.468	0.67	669.6	2back	Block1	2back/STIM_020.jpg	99
255.769	0.626	626.4	2back	Block1	2back/STIM_021.jpg	100
259.725	0.67	670.3	2back	Block1	2back/STIM_021.jpg	99
262.615	0.567	567.0	2back	Block1	2back/STIM_021.jpg	99
266.969	0.809	809.3	2back	Block1	2back/STIM_022.jpg	100
270.964	0.642	642.1	2back	Block1	2back/STIM_022.jpg	99
275.019	1.05	1050.5	2back	Block1	2back/STIM_022.jpg	99
278.853	0.908	907.9	2back	Block1	2back/STIM_023.jpg	100
282.495	1.194	1193.7	2back	Block1	2back/STIM_023.jpg	100
286.346	0.91	909.7	2back	Block1	2back/STIM_023.jpg	99
290.122	0.923	922.9	2back	Block1	2back/STIM_024.jpg	100
293.843	0.839	839.2	2back	Block1	2back/STIM_024.jpg	99
297.13	0.992	992.2	2back	Block1	2back/STIM_024.jpg	99
300.52	1.082	1081.7	2back	Block1	2back/STIM_025.jpg	99
304.521	0.831	830.7	2back	Block1	2back/STIM_025.jpg	99
308.7	0.941	940.9	2back	Block1	2back/STIM_025.jpg	100
312.52	0.813	812.9	2back	Block1	2back/STIM_026.jpg	99
315.72	1.246	1245.7	2back	Block1	2back/STIM_026.jpg	99
319.793	0.846	846.2	2back	Block1	2back/STIM_026.jpg	99
324.533	0.855	854.7	2back	Block1	2back/STIM_027.jpg	100
328.145	1.223	1222.8	2back	Block1	2back/STIM_027.jpg	100
331.68	0.836	835.7	2back	Block1	2back/STIM_027.jpg	100
335.922	0.891	890.6	2back	Block1	2back/STIM_028.jpg	100
340.808	0.86	859.6	2back	Block1	2back/STIM_028.jpg	99
343.689	0.83	829.8	2back	Block1	2back/STIM_028.jpg	100
347.119	1.24	1240.0	2back	Block1	2back/STIM_029.jpg	100
351.64	1.101	1100.8	2back	Block1	2back/STIM_029.jpg	100
355.92	1.045	1045.0	2back	Block1	2back/STIM_029.jpg	100
360.92	1.084	1083.7	2back	Block1	2back/STIM_030.jpg	100
365.856	0.88	879.5	2back	Block1	2back/STIM_030.jpg	99
368.833	0.842	842.2	2back	Block1	2back/STIM_030.jpg	100
372.513	0.926	926.0	2back	Block1	2back/STIM_031.jpg	100
375.95	0.967	967.0	2back	Block1	2back/STIM_031.jpg	99
380.44	0.802	801.8	2back	Block1	2back/STIM_031.jpg	99
384.816	0.574	573.5	2back	Block1	2back/STIM_032.jpg	99
388.319	0.553	553.2	2back	Block1	2back/STIM_032.jpg	100
391.037	1.038	1038.3	2back	Block1	2back/STIM_032.jpg	100
394.438	1.206	1206.1	2back	Block1	2back/STIM_033.jpg	99
399.455	0.804	804.0	2back	Block1	2back/STIM_033.jpg	100
403.398	0.949	948.8	2back	Block1	2back/STIM_033.jpg	99
407.045	0.992	992.4	2back	Block1	2back/STIM_034.jpg	100
410.534	0.556	555.8	2back	Block1	2back/STIM_034.jpg	99
413.376	0.881	881.0	2back	Block1	2back/STIM_034.jpg	99
417.672	1.084	1084.5	2back	Block1	2back/STIM_035.jpg	100
421.776	0.883	883.3	2back	Block1	2back/STIM_035.jpg	99
425.13	0.864	864.0	2back	Block1	2back/STIM_035.jpg	100
429.916	1.031	1031.2	2back	Block1	2back/STIM_036.jpg	100
433.041	1.214	1214.1	2back	Block1	2back/STIM_036.jpg	99
437.792	0.676	676.4	2back	Block1	2back/STIM_036.jpg	99
442.291	0.822	822.0	2back	Block1	2back/STIM_037.jpg	99
445.228	1.224	1223.5	2back	Block1	2back/STIM_037.jpg	99
448.711	0.764	764.4	2back	Block1	2back/STIM_037.jpg	100
451.966	0.982	981.5	2back	Block1	2back/STIM_038.jpg	100
455.706	0.58	580.4	2back	Block1	2back/STIM_038.jpg	99
459.276	1.01	1009.6	2back	Block1	2back/STIM_038.jpg	99
463.199	0.807	806.7	2back	Block1	2back/STIM_039.jpg	99
466.006	1.202	1201.7	2back	Block1	2back/STIM_039.jpg	100
470.831	0.847	846.7	2back	Block1	2back/STIM_039.jpg	99
474.697	0.5	499.7	0back	Block1	0back/STIM_000.jpg	99
478.905	0.462	462.0	0back	Block1	0back/STIM_000.jpg	100
482.98	0.698	697.9	0back	Block1	0back/STIM_000.jpg	99
486.642	0.56	559.6	0back	Block1	0back/STIM_001.jpg	100
490.544	0.555	555.4	0back	Block1	0back/STIM_001.jpg	100
494.141	0.652	651.5	0back	Block1	0back/STIM_001.jpg	99
496.975	0.4	399.6	0back	Block1	0back/STIM_002.jpg	99
500.237	0.671	671.3	0back	Block1	0back/STIM_002.jpg	100
504.329	0.413	413.4	0back	Block1	0back/STIM_002.jpg	99
508.342	0.595	594.6	0back	Block1	0back/STIM_003.jpg	99
511.328	0.6	599.9	0back	Block1	0back/STIM_003.jpg	100
515.773	0.442	441.9	0back	Block1	0back/STIM_003.jpg	99
520.071	0.474	473.7	0back	Block1	0back/STIM_004.jpg	99
523.789	0.602	601.7	0back	Block1	0back/STIM_004.jpg	99
527.631	0.76	759.9	0back	Block1	0back/STIM_004.jpg	100
531.404	0.382	382.2	0back	Block1	0back/STIM_005.jpg	100
534.662	0.638	638.4	0back	Block1	0back/STIM_005.jpg	99
538.744	0.63	629.5	0back	Block1	0back/STIM_005.jpg	100
542.602	0.524	523.9	0back	Block1	0back/STIM_006.jpg	99
547.106	0.496	495.9	0back	Block1	0back/STIM_006.jpg	99
550.843	0.675	675.0	0back	Block1	0back/STIM_006.jpg	99
554.706	0.526	526.2	0back	Block1	0back/STIM_007.jpg	100
557.514	0.511	510.9	0back	Block1	0back/STIM_007.jpg	100
560.211	0.542	542.2	0back	Block1	0back/STIM_007.jpg	100
562.757	0.599	599.3	0back	Block1	0back/STIM_008.jpg	100
566.022	0.669	669.0	0back	Block1	0back/STIM_008.jpg	99
569.583	0.466	466.4	0back	Block1	0back/STIM_008.jpg	99
572.741	0.481	481.2	0back	Block1	0back/STIM_009.jpg	99
576.247	0.549	548.9	0back	Block1	0back/STIM_009.jpg	100
580.611	0.685	684.8	0back	Block1	0back/STIM_009.jpg	100
584.582	0.712	711.5	0back	Block1	0back/STIM_010.jpg	100
588.272	0.466	466.1	0back	Block1	0back/STIM_010.jpg	99
592.188	0.622	622.0	0back	Block1	0back/STIM_010.jpg	100
594.865	0.541	540.7	0back	Block1	0back/STIM_011.jpg	100
597.86	0.652	651.6	0back	Block1	0back/STIM_011.jpg	100
601.344	0.669	668.6	0back	Block1	0back/STIM_011.jpg	99
605.794	0.654	653.5	0back	Block1	0back/STIM_012.jpg	99
608.923	0.532	532.5	0back	Block1	0back/STIM_012.jpg	100
612.743	0.679	679.1	0back	Block1	0back/STIM_012.jpg	100
617.059	0.595	594.9	0back	Block1	0back/STIM_013.jpg	99
621.376	0.699	698.9	0back	Block1	0back/STIM_013.jpg	100
625.689	0.504	504.1	0back	Block1	0back/STIM_013.jpg	99
629.28	0.712	712.4	0back	Block1	0back/STIM_014.jpg	99
632.789	0.707	706.9	0back	Block1	0back/STIM_014.jpg	100
636.89	0.761	761.2	0back	Block1	0back/STIM_014.jpg	99
640.539	0.692	692.0	0back	Block1	0back/STIM_015.jpg	99
644.238	0.496	495.7	0back	Block1	0back/STIM_015.jpg	99
647.638	0.695	694.6	0back	Block1	0back/STIM_015.jpg	100
651.044	0.428	427.5	0back	Block1	0back/STIM_016.jpg	100
655.294	0.673	673.0	0back	Block1	0back/STIM_016.jpg	100
659.236	0.688	688.5	0back	Block1	0back/STIM_016.jpg	99
661.926	0.499	499.1	0back	Block1	0back/STIM_017.jpg	99
665.956	0.392	392.5	0back	Block1	0back/STIM_017.jpg	99
669.226	0.47	470.5	0back	Block1	0back/STIM_017.jpg	100
673.137	0.67	669.9	0back	Block1	0back/STIM_018.jpg	100
677.291	0.479	479.4	0back	Block1	0back/STIM_018.jpg	99
680.506	0.552	552.4	0back	Block1	0back/STIM_018.jpg	100
684.431	0.467	467.1	0back	Block1	0back/STIM_019.jpg	100
687.392	0.637	637.1	0back	Block1	0back/STIM_019.jpg	100
690.421	0.466	465.5	0back	Block1	0back/STIM_019.jpg	100
693.001	0.738	738.3	2back	Block2	2back/STIM_000.jpg	100
696.425	0.873	872.6	2back	Block2	2back/STIM_000.jpg	100
699.45	0.954	953.9	2back	Block2	2back/STIM_000.jpg	99
702.817	0.881	881.2	2back	Block2	2back/STIM_001.jpg	99
707.497	0.868	868.4	2back	Block2	2back/STIM_001.jpg	99
711.347	0.734	734.1	2back	Block2	2back/STIM_001.jpg	100
715.697	0.721	720.8	2back	Block2	2back/STIM_002.jpg	100
718.758	0.848	848.3	2back	Block2	2back/STIM_002.jpg	99
723.385	0.694	694.0	2back	Block2	2back/STIM_002.jpg	100
727.554	0.555	555.2	2back	Block2	2back/STIM_003.jpg	100
731.261	0.675	674.7	2back	Block2	2back/STIM_003.jpg	99
734.885	0.761	760.6	2back	Block2	2back/STIM_003.jpg	100
739.107	0.709	709.4	2back	Block2	2back/STIM_004.jpg	99
742.651	0.95	950.4	2back	Block2	2back/STIM_004.jpg	99
746.607	0.902	902.2	2back	Block2	2back/STIM_004.jpg	100
749.54	1.044	1044.3	2back	Block2	2back/STIM_005.jpg	100
753.891	0.894	894.0	2back	Block2	2back/STIM_005.jpg	99
757.265	0.714	713.7	2back	Block2	2back/STIM_005.jpg	99
761.384	0.707	707.2	2back	Block2	2back/STIM_006.jpg	100
765.462	0.856	856.0	2back	Block2	2back/STIM_006.jpg	99
770.078	0.921	920.9	2back	Block2	2back/STIM_006.jpg	99
774.244	1.048	1047.6	2back	Block2	2back/STIM_007.jpg	99
778.076	0.903	902.8	2back	Block2	2back/STIM_007.jpg	99
781.066	0.666	665.7	2back	Block2	2back/STIM_007.jpg	100
783.912	0.814	814.1	2back	Block2	2back/STIM_008.jpg	99
788.499	0.846	845.5	2back	Block2	2back/STIM_008.jpg	100
791.819	0.743	742.7	2back	Block2	2back/STIM_008.jpg	99
794.834	0.876	875.7	2back	Block2	2back/STIM_009.jpg	99
799.709	0.97	970.5	2back	Block2	2back/STIM_009.jpg	99
803.388	0.695	695.4	2back	Block2	2back/STIM_009.jpg	100
807.171	0.801	801.3	2back	Block2	2back/STIM_010.jpg	100
811.378	0.903	903.4	2back	Block2	2back/STIM_010.jpg	99
815.249	0.465	465.4	2back	Block2	2back/STIM_010.jpg	100
818.004	1.017	1016.6	2back	Block2	2back/STIM_011.jpg	100
822.9	0.87	870.2	2back	Block2	2back/STIM_011.jpg	100
827.373	0.98	980.5	2back	Block2	2back/STIM_011.jpg	99
831.535	0.967	966.7	2back	Block2	2back/STIM_012.jpg	99
835.493	0.846	845.8	2back	Block2	2back/STIM_012.jpg	99
839.967	0.746	746.3	2back	Block2	2back/STIM_012.jpg	99
844.161	0.697	696.8	2back	Block2	2back/STIM_013.jpg	100
847.881	0.8	799.6	2back	Block2	2back/STIM_013.jpg	99
851.598	0.73	730.3	2back	Block2	2back/STIM_013.jpg	99
855.229	0.506	506.3	2back	Block2	2back/STIM_014.jpg	100
859.09	0.691	690.6	2back	Block2	2back/STIM_014.jpg	100
861.948	0.536	535.5	2back	Block2	2back/STIM_014.jpg	100
864.673	0.815	815.1	2back	Block2	2back/STIM_015.jpg	99
869.438	0.587	587.0	2back	Block2	2back/STIM_015.jpg	99
872.759	0.908	907.7	2back	Block2	2back/STIM_015.jpg	100
876.907	0.933	932.7	2back	Block2	2back/STIM_016.jpg	99
880.529	0.533	532.7	2back	Block2	2back/STIM_016.jpg	99
883.751	0.617	616.6	2back	Block2	2back/STIM_016.jpg	100
887.822	0.936	935.9	2back	Block2	2back/STIM_017.jpg	100
891.396	0.663	662.8	2back	Block2	2back/STIM_017.jpg	100
895.115	0.896	896.4	2back	Block2	2back/STIM_017.jpg	100
899.33	0.619	619.3	2back	Block2	2back/STIM_018.jpg	99
902.754	0.574	573.5	2back	Block2	2back/STIM_018.jpg	99
905.669	0.998	997.5	2back	Block2	2back/STIM_018.jpg	100
909.332	1.036	1036.0	2back	Block2	2back/STIM_019.jpg	99
914.043	1.027	1027.4	2back	Block2	2back/STIM_019.jpg	100
918.662	0.54	539.9	2back	Block2	2back/STIM_019.jpg	100
922.149	0.647	646.7	2back	Block2	2back/STIM_020.jpg	99
926.26	0.782	782.0	2back	Block2	2back/STIM_020.jpg	99
930.419	0.688	688.1	2back	Block2	2back/STIM_020.jpg	100
934.583	0.521	521.1	2back	Block2	2back/STIM_021.jpg	100
937.388	0.763	762.6	2back	Block2	2back/STIM_021.jpg	100
941.752	0.889	889.0	2back	Block2	2back/STIM_021.jpg	100
946.264	0.762	762.5	2back	Block2	2back/STIM_022.jpg	100
950.994	1.066	1066.2	2back	Block2	2back/STIM_022.jpg	99
954.832	0.92	920.2	2back	Block2	2back/STIM_022.jpg	100
958.026	0.807	807.2	2back	Block2	2back/STIM_023.jpg	100
961.063	0.724	723.5	2back	Block2	2back/STIM_023.jpg	99
965.275	0.777	776.8	2back	Block2	2back/STIM_023.jpg	99
969.607	0.765	765.1	2back	Block2	2back/STIM_024.jpg	100
972.938	0.999	998.6	2back	Block2	2back/STIM_024.jpg	100
976.638	0.507	507.4	2back	Block2	2back/STIM_024.jpg	99
981.041	0.717	716.8	2back	Block2	2back/STIM_025.jpg	99
984.901	0.963	963.1	2back	Block2	2back/STIM_025.jpg	99
987.944	0.745	744.8	2back	Block2	2back/STIM_025.jpg	99
991.757	0.834	834.5	2back	Block2	2back/STIM_026.jpg	99
995.395	0.747	746.6	2back	Block2	2back/STIM_026.jpg	99
998.276	0.654	654.4	2back	Block2	2back/STIM_026.jpg	100
1001.13	0.767	766.7	2back	Block2	2back/STIM_027.jpg	99
1005.588	0.47	470.0	2back	Block2	2back/STIM_027.jpg	99
1008.388	0.5	500.1	2back	Block2	2back/STIM_027.jpg	99
1011.532	0.782	782.0	2back	Block2	2back/STIM_028.jpg	100
1016.083	0.727	726.7	2back	Block2	2back/STIM_028.jpg	99
1020.592	0.869	868.8	2back	Block2	2back/STIM_028.jpg	99
1023.513	0.696	696.3	2back	Block2	2back/STIM_029.jpg	100
1026.216	0.83	829.5	2back	Block2	2back/STIM_029.jpg	99
1030.66	0.993	993.0	2back	Block2	2back/STIM_029.jpg	99
1035.574	0.836	835.9	2back	Block2	2back/STIM_030.jpg	99
1039.159	0.784	784.4	2back	Block2	2back/STIM_030.jpg	99
1042.368	0.832	831.5	2back	Block2	2back/STIM_030.jpg	100
1047.165	0.607	607.1	2back	Block2	2back/STIM_031.jpg	100
1050.061	0.793	792.6	2back	Block2	2back/STIM_031.jpg	99
1053.442	0.697	697.0	2back	Block2	2back/STIM_031.jpg	99
1056.551	0.506	505.6	2back	Block2	2back/STIM_032.jpg	100
1059.714	0.732	731.7	2back	Block2	2back/STIM_032.jpg	100
1063.042	0.777	776.7	2back	Block2	2back/STIM_032.jpg	99
1066.336	0.486	486.4	2back	Block2	2back/STIM_033.jpg	99
1070.392	1.039	1038.6	2back	Block2	2back/STIM_033.jpg	100
1073.813	0.956	956.3	2back	Block2	2back/STIM_033.jpg	99
1077.115	0.895	895.3	2back	Block2	2back/STIM_034.jpg	100
1080.073	0.752	752.4	2back	Block2	2back/STIM_034.jpg	100
1084.722	0.681	681.3	2back	Block2	2back/STIM_034.jpg	100
1088.081	0.839	838.9	2back	Block2	2back/STIM_035.jpg	100
1092.704	1.056	1055.5	2back	Block2	2back/STIM_035.jpg	99
1095.823	0.899	898.9	2back	Block2	2back/STIM_035.jpg	100
1100.354	0.75	750.2	2back	Block2	2back/STIM_036.jpg	100
1103.739	0.875	875.2	2back	Block2	2back/STIM_036.jpg	99
1108.485	0.753	752.7	2back	Block2	2back/STIM_036.jpg	99
1111.999	0.736	736.2	2back	Block2	2back/STIM_037.jpg	99
1116.444	0.855	855.3	2back	Block2	2back/STIM_037.jpg	100
1120.084	0.943	943.2	2back	Block2	2back/STIM_037.jpg	100
1124.725	0.826	825.8	2back	Block2	2back/STIM_038.jpg	100
1128.076	0.911	910.8	2back	Block2	2back/STIM_038.jpg	100
1132.007	0.797	796.8	2back	Block2	2back/STIM_038.jpg	99
1136.175	0.7	699.7	2back	Block2	2back/STIM_039.jpg	100
1138.981	0.675	675.2	2back	Block2	2back/STIM_039.jpg	99
1143.129	0.497	497.1	2back	Block2	2back/STIM_039.jpg	100
1146.141	0.528	528.2	0back	Block2	0back/STIM_000.jpg	100
1149.052	0.553	552.6	0back	Block2	0back/STIM_000.jpg	100
1151.669	0.561	560.9	0back	Block2	0back/STIM_000.jpg	100
1155.65	0.657	656.9	0back	Block2	0back/STIM_001.jpg	100
1158.499	0.663	663.1	0back	Block2	0back/STIM_001.jpg	100
1162.811	0.509	509.4	0back	Block2	0back/STIM_001.jpg	100
1165.503	0.381	381.0	0back	Block2	0back/STIM_002.jpg	99
1168.185	0.44	440.3	0back	Block2	0back/STIM_002.jpg	99
1171.267	0.505	505.1	0back	Block2	0back/STIM_002.jpg	100
1174.896	0.486	486.3	0back	Block2	0back/STIM_003.jpg	99
1178.694	0.665	664.6	0back	Block2	0back/STIM_003.jpg	100
1182.198	0.544	544.3	0back	Block2	0back/STIM_003.jpg	100
1185.42	0.429	428.6	0back	Block2	0back/STIM_004.jpg	99
1188.169	0.701	701.2	0back	Block2	0back/STIM_004.jpg	100
1192.507	0.525	525.3	0back	Block2	0back/STIM_004.jpg	99
1196.155	0.727	726.8	0back	Block2	0back/STIM_005.jpg	100
1199.294	0.544	544.2	0back	Block2	0back/STIM_005.jpg	99
1202.253	0.407	406.8	0back	Block2	0back/STIM_005.jpg	100
1205.829	0.628	628.5	0back	Block2	0back/STIM_006.jpg	99
1210.395	0.431	430.7	0back	Block2	0back/STIM_006.jpg	100
1212.9	0.75	750.3	0back	Block2	0back/STIM_006.jpg	100
1217.507	0.44	439.7	0back	Block2	0back/STIM_007.jpg	99
1221.866	0.421	420.6	0back	Block2	0back/STIM_007.jpg	100
1225.158	0.473	472.7	0back	Block2	0back/STIM_007.jpg	99
1229.615	0.56	559.5	0back	Block2	0back/STIM_008.jpg	100
1232.448	0.751	751.3	0back	Block2	0back/STIM_008.jpg	100
1235.846	0.543	542.7	0back	Block2	0back/STIM_008.jpg	100
1239.806	0.552	552.0	0back	Block2	0back/STIM_009.jpg	100
1244.048	0.647	646.9	0back	Block2	0back/STIM_009.jpg	100
1248.565	0.508	507.9	0back	Block2	0back/STIM_009.jpg	100
1252.005	0.712	711.6	0back	Block2	0back/STIM_010.jpg	99
1256.239	0.405	405.3	0back	Block2	0back/STIM_010.jpg	100
1260.01	0.624	623.8	0back	Block2	0back/STIM_010.jpg	99
1263.288	0.507	506.9	0back	Block2	0back/STIM_011.jpg	99
1267.222	0.672	672.5	0back	Block2	0back/STIM_011.jpg	99
1270.423	0.464	464.1	0back	Block2	0back/STIM_011.jpg	100
1274.238	0.524	524.3	0back	Block2	0back/STIM_012.jpg	100
1277.911	0.386	386.5	0back	Block2	0back/STIM_012.jpg	99
1281.656	0.62	620.1	0back	Block2	0back/STIM_012.jpg	99
1284.525	0.387	387.1	0back	Block2	0back/STIM_013.jpg	99
1288.47	0.604	603.8	0back	Block2	0back/STIM_013.jpg	99
1292.57	0.619	619.1	0back	Block2	0back/STIM_013.jpg	99
1297.019	0.405	404.8	0back	Block2	0back/STIM_014.jpg	100
1300.211	0.485	485.1	0back	Block2	0back/STIM_014.jpg	100
1303.042	0.564	563.9	0back	Block2	0back/STIM_014.jpg	99
1306.133	0.411	411.3	0back	Block2	0back/STIM_015.jpg	100
1308.564	0.63	630.1	0back	Block2	0back/STIM_015.jpg	99
1312.558	0.606	605.9	0back	Block2	0back/STIM_015.jpg	100
1317.112	0.68	679.9	0back	Block2	0back/STIM_016.jpg	99
1321.412	0.626	625.6	0back	Block2	0back/STIM_016.jpg	100
1325.486	0.659	659.2	0back	Block2	0back/STIM_016.jpg	100
1328.846	0.702	702.3	0back	Block2	0back/STIM_017.jpg	100
1333.497	0.714	714.1	0back	Block2	0back/STIM_017.jpg	99
1336.98	0.488	487.9	0back	Block2	0back/STIM_017.jpg	100
1340.017	0.623	623.3	0back	Block2	0back/STIM_018.jpg	99
1344.373	0.725	725.4	0back	Block2	0back/STIM_018.jpg	100
1348.967	0.442	441.9	0back	Block2	0back/STIM_018.jpg	100
1352.333	0.656	655.7	0back	Block2	0back/STIM_019.jpg	99
1355.871	0.498	497.7	0back	Block2	0back/STIM_019.jpg	99
1359.692	0.386	385.7	0back	Block2	0back/STIM_019.jpg	100
1362.608	0.744	743.8	2back	Block3	2back/STIM_000.jpg	99
1366.23	0.898	898.0	2back	Block3	2back/STIM_000.jpg	99
1370.612	0.88	879.6	2back	Block3	2back/STIM_000.jpg	99
1374.637	0.926	926.2	2back	Block3	2back/STIM_001.jpg	99
1377.99	0.836	836.5	2back	Block3	2back/STIM_001.jpg	99
1380.979	0.425	424.9	2back	Block3	2back/STIM_001.jpg	99
1383.426	0.454	454.2	2back	Block3	2back/STIM_002.jpg	100
1386.35	0.797	796.9	2back	Block3	2back/STIM_002.jpg	99
1390.268	0.747	747.4	2back	Block3	2back/STIM_002.jpg	100
1393.099	0.773	773.3	2back	Block3	2back/STIM_003.jpg	99
1397.806	0.634	633.5	2back	Block3	2back/STIM_003.jpg	99
1400.671	0.849	849.3	2back	Block3	2back/STIM_003.jpg	100
1404.324	0.483	483.0	2back	Block3	2back/STIM_004.jpg	100
1408.77	0.73	730.5	2back	Block3	2back/STIM_004.jpg	100
1412.88	0.861	861.0	2back	Block3	2back/STIM_004.jpg	100
1416.519	0.48	480.2	2back	Block3	2back/STIM_005.jpg	100
1420.389	0.857	857.4	2back	Block3	2back/STIM_005.jpg	100
1424.679	0.421	420.6	2back	Block3	2back/STIM_005.jpg	100
1427.87	0.512	512.5	2back	Block3	2back/STIM_006.jpg	99
1430.569	0.707	706.9	2back	Block3	2back/STIM_006.jpg	100
1433.917	0.453	453.0	2back	Block3	2back/STIM_006.jpg	100
1438.01	0.87	870.1	2back	Block3	2back/STIM_007.jpg	99
1441.843	0.908	907.5	2back	Block3	2back/STIM_007.jpg	99
1445.259	0.819	819.1	2back	Block3	2back/STIM_007.jpg	100
1449.934	0.657	656.7	2back	Block3	2back/STIM_008.jpg	100
1453.204	0.574	574.5	2back	Block3	2back/STIM_008.jpg	100
1457.774	0.606	605.6	2back	Block3	2back/STIM_008.jpg	100
1461.187	0.568	567.8	2back	Block3	2back/STIM_009.jpg	100
1464.623	0.521	521.1	2back	Block3	2back/STIM_009.jpg	100
1468.482	0.842	842.3	2back	Block3	2back/STIM_009.jpg	100
1472.861	0.485	485.2	2back	Block3	2back/STIM_010.jpg	100
1476.41	0.676	676.1	2back	Block3	2back/STIM_010.jpg	100
1480.774	0.685	685.2	2back	Block3	2back/STIM_010.jpg	99
1483.64	0.804	804.4	2back	Block3	2back/STIM_011.jpg	100
1487.514	0.66	660.4	2back	Block3	2back/STIM_011.jpg	100
1491.883	0.58	580.4	2back	Block3	2back/STIM_011.jpg	99
1496.067	0.67	670.4	2back	Block3	2back/STIM_012.jpg	100
1499.352	0.772	772.1	2back	Block3	2back/STIM_012.jpg	100
1503.892	0.69	690.5	2back	Block3	2back/STIM_012.jpg	99
1507.735	0.453	453.2	2back	Block3	2back/STIM_013.jpg	100
1512.171	0.596	596.3	2back	Block3	2back/STIM_013.jpg	100
1515.952	0.522	521.6	2back	Block3	2back/STIM_013.jpg	100
1519.654	0.485	484.8	2back	Block3	2back/STIM_014.jpg	99
1524.129	0.767	767.2	2back	Block3	2back/STIM_014.jpg	100
1528.204	0.478	477.6	2back	Block3	2back/STIM_014.jpg	100
1532.15	0.73	730.5	2back	Block3	2back/STIM_015.jpg	100
1536.009	0.763	763.2	2back	Block3	2back/STIM_015.jpg	100
1540.763	0.541	541.4	2back	Block3	2back/STIM_015.jpg	100
1544.319	0.529	529.4	2back	Block3	2back/STIM_016.jpg	100
1548.414	0.841	840.8	2back	Block3	2back/STIM_016.jpg	99
1553.131	0.81	809.9	2back	Block3	2back/STIM_016.jpg	100
1557.792	0.479	479.2	2back	Block3	2back/STIM_017.jpg	100
1560.628	0.468	468.2	2back	Block3	2back/STIM_017.jpg	100
1564.738	0.603	602.6	2back	Block3	2back/STIM_017.jpg	100
1568.94	0.929	929.2	2back	Block3	2back/STIM_018.jpg	100
1572.633	0.683	683.4	2back	Block3	2back/STIM_018.jpg	99
1576.933	0.427	427.2	2back	Block3	2back/STIM_018.jpg	100
1580.437	0.823	823.0	2back	Block3	2back/STIM_019.jpg	100
1584.15	0.837	836.9	2back	Block3	2back/STIM_019.jpg	99
1588.368	0.925	925.0	2back	Block3	2back/STIM_019.jpg	99
1591.753	0.505	505.2	2back	Block3	2back/STIM_020.jpg	99
1595.235	0.454	453.5	2back	Block3	2back/STIM_020.jpg	100
1597.952	0.454	453.8	2back	Block3	2back/STIM_020.jpg	100
1601.673	0.55	550.1	2back	Block3	2back/STIM_021.jpg	100
1605.34	0.597	597.0	2back	Block3	2back/STIM_021.jpg	100
1609.533	0.757	757.3	2back	Block3	2back/STIM_021.jpg	99
1614.285	0.611	610.8	2back	Block3	2back/STIM_022.jpg	99
1617.925	0.794	794.5	2back	Block3	2back/STIM_022.jpg	99
1621.023	0.481	481.3	2back	Block3	2back/STIM_022.jpg	99
1624.799	0.418	417.6	2back	Block3	2back/STIM_023.jpg	99
1629.123	0.52	520.1	2back	Block3	2back/STIM_023.jpg	100
1633.559	0.887	886.8	2back	Block3	2back/STIM_023.jpg	100
1637.003	0.671	671.0	2back	Block3	2back/STIM_024.jpg	100
1640.547	0.526	526.4	2back	Block3	2back/STIM_024.jpg	99
1643.94	0.455	455.2	2back	Block3	2back/STIM_024.jpg	99
1647.346	0.714	714.0	2back	Block3	2back/STIM_025.jpg	100
1650.09	0.713	712.9	2back	Block3	2back/STIM_025.jpg	99
1654.047	0.681	681.3	2back	Block3	2back/STIM_025.jpg	99
1657.957	0.453	452.7	2back	Block3	2back/STIM_026.jpg	99
1661.397	0.723	722.7	2back	Block3	2back/STIM_026.jpg	100
1665.522	0.764	763.7	2back	Block3	2back/STIM_026.jpg	99
1669.224	0.5	499.9	2back	Block3	2back/STIM_027.jpg	99
1673.642	0.496	495.6	2back	Block3	2back/STIM_027.jpg	100
1677.282	0.545	545.2	2back	Block3	2back/STIM_027.jpg	99
1681.226	0.76	759.7	2back	Block3	2back/STIM_028.jpg	100
1684.197	0.906	906.2	2back	Block3	2back/STIM_028.jpg	100
1689.038	0.838	837.5	2back	Block3	2back/STIM_028.jpg	99
1692.94	0.82	820.3	2back	Block3	2back/STIM_029.jpg	99
1697.36	0.499	499.0	2back	Block3	2back/STIM_029.jpg	100
1699.935	0.463	463.4	2back	Block3	2back/STIM_029.jpg	100
1702.563	0.406	405.7	2back	Block3	2back/STIM_030.jpg	99
1706.855	0.47	470.3	2back	Block3	2back/STIM_030.jpg	99
1710.674	0.598	597.9	2back	Block3	2back/STIM_030.jpg	100
1715.096	0.46	459.5	2back	Block3	2back/STIM_031.jpg	99
1719.466	0.649	649.0	2back	Block3	2back/STIM_031.jpg	99
1723.429	0.506	506.1	2back	Block3	2back/STIM_031.jpg	100
1727.617	0.747	747.0	2back	Block3	2back/STIM_032.jpg	99
1730.786	0.516	515.7	2back	Block3	2back/STIM_032.jpg	99
1733.788	0.572	572.3	2back	Block3	2back/STIM_032.jpg	99
1738.293	0.642	641.5	2back	Block3	2back/STIM_033.jpg	99
1742.291	0.868	868.0	2back	Block3	2back/STIM_033.jpg	100
1747.043	0.502	502.5	2back	Block3	2back/STIM_033.jpg	100
1750.482	0.715	715.4	2back	Block3	2back/STIM_034.jpg	99
1754.986	0.823	822.9	2back	Block3	2back/STIM_034.jpg	99
1759.361	0.831	831.1	2back	Block3	2back/STIM_034.jpg	100
1763.887	0.716	715.6	2back	Block3	2back/STIM_035.jpg	100
1767.277	0.909	909.2	2back	Block3	2back/STIM_035.jpg	100
1771.323	0.674	673.8	2back	Block3	2back/STIM_035.jpg	99
1775.473	0.769	769.3	2back	Block3	2back/STIM_036.jpg	100
1779.116	0.752	751.6	2back	Block3	2back/STIM_036.jpg	100
1781.899	0.831	830.8	2back	Block3	2back/STIM_036.jpg	100
1786.415	0.43	430.0	2back	Block3	2back/STIM_037.jpg	99
1789.502	0.473	473.4	2back	Block3	2back/STIM_037.jpg	99
1792.408	0.715	715.2	2back	Block3	2back/STIM_037.jpg	99
1795.951	0.587	586.9	2back	Block3	2back/STIM_038.jpg	99
1799.989	0.658	657.7	2back	Block3	2back/STIM_038.jpg	100
1803.796	0.789	789.3	2back	Block3	2back/STIM_038.jpg	99
1808.0	0.718	718.3	2back	Block3	2back/STIM_039.jpg	99
1811.812	0.486	486.3	2back	Block3	2back/STIM_039.jpg	99
1816.054	0.654	653.7	2back	Block3	2back/STIM_039.jpg	99
1820.067	0.542	542.0	0back	Block3	0back/STIM_000.jpg	99
1824.223	0.66	660.1	0back	Block3	0back/STIM_000.jpg	99
1828.805	0.679	679.2	0back	Block3	0back/STIM_000.jpg	100
1832.725	0.702	701.7	0back	Block3	0back/STIM_001.jpg	100
1836.45	0.755	755.2	0back	Block3	0back/STIM_001.jpg	100
1839.763	0.486	485.5	0back	Block3	0back/STIM_001.jpg	100
1843.245	0.732	732.1	0back	Block3	0back/STIM_002.jpg	100
1846.611	0.501	501.4	0back	Block3	0back/STIM_002.jpg	99
1850.244	0.467	466.9	0back	Block3	0back/STIM_002.jpg	99
1853.361	0.573	572.8	0back	Block3	0back/STIM_003.jpg	100
1856.343	0.708	708.2	0back	Block3	0back/STIM_003.jpg	100
1860.081	0.429	429.0	0back	Block3	0back/STIM_003.jpg	99
1864.41	0.681	680.8	0back	Block3	0back/STIM_004.jpg	99
1867.238	0.616	616.3	0back	Block3	0back/STIM_004.jpg	99
1871.811	0.714	714.0	0back	Block3	0back/STIM_004.jpg	100
1876.001	0.391	391.0	0back	Block3	0back/STIM_005.jpg	100
1880.378	0.755	755.3	0back	Block3	0back/STIM_005.jpg	99
1884.893	0.55	549.8	0back	Block3	0back/STIM_005.jpg	99
1889.16	0.571	571.2	0back	Block3	0back/STIM_006.jpg	100
1891.902	0.389	389.1	0back	Block3	0back/STIM_006.jpg	99
1896.102	0.631	631.0	0back	Block3	0back/STIM_006.jpg	99
1900.633	0.54	539.7	0back	Block3	0back/STIM_007.jpg	100
1904.309	0.443	442.9	0back	Block3	0back/STIM_007.jpg	100
1908.61	0.752	751.7	0back	Block3	0back/STIM_007.jpg	99
1912.936	0.438	437.8	0back	Block3	0back/STIM_008.jpg	100
1916.542	0.734	734.4	0back	Block3	0back/STIM_008.jpg	100
1920.097	0.507	506.7	0back	Block3	0back/STIM_008.jpg	100
1923.806	0.666	665.8	0back	Block3	0back/STIM_009.jpg	100
1927.385	0.509	509.4	0back	Block3	0back/STIM_009.jpg	100
1931.244	0.699	698.9	0back	Block3	0back/STIM_009.jpg	99
1934.334	0.516	515.8	0back	Block3	0back/STIM_010.jpg	99
1937.139	0.658	658.4	0back	Block3	0back/STIM_010.jpg	99
1941.235	0.442	441.8	0back	Block3	0back/STIM_010.jpg	100
1945.058	0.442	442.0	0back	Block3	0back/STIM_011.jpg	99
1948.639	0.491	491.3	0back	Block3	0back/STIM_011.jpg	99
1951.604	0.485	485.0	0back	Block3	0back/STIM_011.jpg	99
1954.106	0.59	590.4	0back	Block3	0back/STIM_012.jpg	99
1958.674	0.704	704.3	0back	Block3	0back/STIM_012.jpg	100
1962.267	0.547	546.7	0back	Block3	0back/STIM_012.jpg	99
1966.694	0.412	412.2	0back	Block3	0back/STIM_013.jpg	100
1970.145	0.741	741.4	0back	Block3	0back/STIM_013.jpg	99
1973.753	0.662	661.9	0back	Block3	0back/STIM_013.jpg	100
1977.127	0.525	525.1	0back	Block3	0back/STIM_014.jpg	100
1979.982	0.504	504.5	0back	Block3	0back/STIM_014.jpg	100
1983.261	0.531	530.8	0back	Block3	0back/STIM_014.jpg	100
1986.878	0.761	760.6	0back	Block3	0back/STIM_015.jpg	99
1990.191	0.453	453.3	0back	Block3	0back/STIM_015.jpg	99
1993.768	0.654	653.5	0back	Block3	0back/STIM_015.jpg	100
1996.668	0.405	404.9	0back	Block3	0back/STIM_016.jpg	99
2000.226	0.495	495.4	0back	Block3	0back/STIM_016.jpg	100
2003.485	0.56	560.2	0back	Block3	0back/STIM_016.jpg	99
2006.385	0.736	736.2	0back	Block3	0back/STIM_017.jpg	100
2009.518	0.69	689.7	0back	Block3	0back/STIM_017.jpg	100
2013.937	0.641	640.9	0back	Block3	0back/STIM_017.jpg	100
2017.95	0.405	405.3	0back	Block3	0back/STIM_018.jpg	100
2021.283	0.562	561.8	0back	Block3	0back/STIM_018.jpg	99
2024.922	0.611	610.8	0back	Block3	0back/STIM_018.jpg	99
2029.46	0.732	732.2	0back	Block3	0back/STIM_019.jpg	100
2032.878	0.725	725.3	0back	Block3	0back/STIM_019.jpg	100
2036.435	0.537	536.7	0back	Block3	0back/STIM_019.jpg	100
2039.154	0.529	529.4	2back	Block4	2back/STIM_000.jpg	100
2042.931	0.491	491.1	2back	Block4	2back/STIM_000.jpg	100
2046.712	0.858	857.6	2back	Block4	2back/STIM_000.jpg	99
2051.017	0.888	888.2	2back	Block4	2back/STIM_001.jpg	99
2054.214	0.654	654.5	2back	Block4	2back/STIM_001.jpg	100
2058.676	0.435	435.1	2back	Block4	2back/STIM_001.jpg	100
2062.921	0.911	911.1	2back	Block4	2back/STIM_002.jpg	99
2066.003	0.604	603.9	2back	Block4	2back/STIM_002.jpg	100
2069.503	0.74	739.5	2back	Block4	2back/STIM_002.jpg	99
2073.428	0.695	695.4	2back	Block4	2back/STIM_003.jpg	99
2076.906	0.73	730.1	2back	Block4	2back/STIM_003.jpg	100
2080.755	0.752	751.6	2back	Block4	2back/STIM_003.jpg	100
2084.794	0.675	674.8	2back	Block4	2back/STIM_004.jpg	100
2089.469	0.485	484.7	2back	Block4	2back/STIM_004.jpg	99
2092.903	0.797	797.2	2back	Block4	2back/STIM_004.jpg	100
2096.554	0.891	890.9	2back	Block4	2back/STIM_005.jpg	100
2100.146	0.762	762.2	2back	Block4	2back/STIM_005.jpg	99
2103.252	0.606	606.0	2back	Block4	2back/STIM_005.jpg	99
2106.277	0.63	629.9	2back	Block4	2back/STIM_006.jpg	100
2109.316	0.606	606.4	2back	Block4	2back/STIM_006.jpg	100
2112.063	0.65	650.0	2back	Block4	2back/STIM_006.jpg	100
2115.063	0.75	750.5	2back	Block4	2back/STIM_007.jpg	100
2118.048	0.846	845.9	2back	Block4	2back/STIM_007.jpg	99
2122.79	0.579	579.3	2back	Block4	2back/STIM_007.jpg	100
2126.244	0.686	685.8	2back	Block4	2back/STIM_008.jpg	100
2130.046	0.506	505.8	2back	Block4	2back/STIM_008.jpg	99
2133.831	0.678	677.9	2back	Block4	2back/STIM_008.jpg	100
2136.55	0.68	679.9	2back	Block4	2back/STIM_009.jpg	100
2140.836	0.698	698.4	2back	Block4	2back/STIM_009.jpg	99
2144.913	0.928	927.9	2back	Block4	2back/STIM_009.jpg	100
2148.757	0.756	756.4	2back	Block4	2back/STIM_010.jpg	100
2153.289	0.916	915.8	2back	Block4	2back/STIM_010.jpg	99
2156.875	0.437	437.0	2back	Block4	2back/STIM_010.jpg	99
2161.229	0.555	554.9	2back	Block4	2back/STIM_011.jpg	99
2165.268	0.753	752.7	2back	Block4	2back/STIM_011.jpg	100
2169.85	0.422	421.7	2back	Block4	2back/STIM_011.jpg	99
2172.946	0.728	728.5	2back	Block4	2back/STIM_012.jpg	99
2177.07	0.46	459.7	2back	Block4	2back/STIM_012.jpg	99
2181.241	0.609	609.3	2back	Block4	2back/STIM_012.jpg	99
2184.881	0.597	596.9	2back	Block4	2back/STIM_013.jpg	100
2188.614	0.755	755.1	2back	Block4	2back/STIM_013.jpg	100
2192.379	0.442	442.5	2back	Block4	2back/STIM_013.jpg	100
2194.869	0.73	729.5	2back	Block4	2back/STIM_014.jpg	100
2198.743	0.901	900.9	2back	Block4	2back/STIM_014.jpg	99
2202.902	0.415	415.2	2back	Block4	2back/STIM_014.jpg	99
2207.051	0.748	748.2	2back	Block4	2back/STIM_015.jpg	99
2210.315	0.752	751.8	2back	Block4	2back/STIM_015.jpg	99
2213.605	0.932	931.6	2back	Block4	2back/STIM_015.jpg	99
2217.039	0.66	660.2	2back	Block4	2back/STIM_016.jpg	100
2221.26	0.467	466.7	2back	Block4	2back/STIM_016.jpg	99
2224.878	0.566	565.5	2back	Block4	2back/STIM_016.jpg	99
2228.243	0.712	711.8	2back	Block4	2back/STIM_017.jpg	100
2231.157	0.506	505.9	2back	Block4	2back/STIM_017.jpg	99
2233.852	0.719	719.2	2back	Block4	2back/STIM_017.jpg	99
2237.403	0.77	769.7	2back	Block4	2back/STIM_018.jpg	100
2241.329	0.824	824.0	2back	Block4	2back/STIM_018.jpg	100
2245.432	0.819	818.8	2back	Block4	2back/STIM_018.jpg	100
2250.141	0.785	785.3	2back	Block4	2back/STIM_019.jpg	100
2254.605	0.802	802.5	2back	Block4	2back/STIM_019.jpg	100
2258.671	0.841	841.2	2back	Block4	2back/STIM_019.jpg	99
2262.177	0.833	832.9	2back	Block4	2back/STIM_020.jpg	99
2266.207	0.576	576.2	2back	Block4	2back/STIM_020.jpg	99
2268.976	0.875	874.7	2back	Block4	2back/STIM_020.jpg	99
2272.901	0.567	566.7	2back	Block4	2back/STIM_021.jpg	99
2275.957	0.571	570.8	2back	Block4	2back/STIM_021.jpg	99
2280.043	0.531	530.8	2back	Block4	2back/STIM_021.jpg	100
2283.735	0.74	740.4	2back	Block4	2back/STIM_022.jpg	99
2288.355	0.932	932.3	2back	Block4	2back/STIM_022.jpg	100
2291.436	0.424	424.2	2back	Block4	2back/STIM_022.jpg	99
2295.243	0.869	868.7	2back	Block4	2back/STIM_023.jpg	100
2299.501	0.567	566.9	2back	Block4	2back/STIM_023.jpg	99
2303.11	0.564	563.9	2back	Block4	2back/STIM_023.jpg	99
2306.964	0.84	840.1	2back	Block4	2back/STIM_024.jpg	100
2311.316	0.839	838.9	2back	Block4	2back/STIM_024.jpg	99
2315.145	0.785	784.6	2back	Block4	2back/STIM_024.jpg	100
2317.989	0.608	607.6	2back	Block4	2back/STIM_025.jpg	100
2322.514	0.459	458.7	2back	Block4	2back/STIM_025.jpg	99
2325.79	0.574	573.5	2back	Block4	2back/STIM_025.jpg	99
2329.786	0.457	456.7	2back	Block4	2back/STIM_026.jpg	100
2334.146	0.858	857.5	2back	Block4	2back/STIM_026.jpg	99
2337.032	0.445	444.6	2back	Block4	2back/STIM_026.jpg	100
2340.416	0.49	490.1	2back	Block4	2back/STIM_027.jpg	99
2342.93	0.646	645.7	2back	Block4	2back/STIM_027.jpg	99
2345.925	0.921	921.3	2back	Block4	2back/STIM_027.jpg	99
2349.271	0.74	739.9	2back	Block4	2back/STIM_028.jpg	100
2353.752	0.897	896.9	2back	Block4	2back/STIM_028.jpg	99
2357.321	0.928	928.0	2back	Block4	2back/STIM_028.jpg	99
2361.419	0.911	911.2	2back	Block4	2back/STIM_029.jpg	100
2365.696	0.459	458.7	2back	Block4	2back/STIM_029.jpg	99
2369.862	0.81	810.3	2back	Block4	2back/STIM_029.jpg	99
2372.746	0.486	485.8	2back	Block4	2back/STIM_030.jpg	99
2375.939	0.672	672.2	2back	Block4	2back/STIM_030.jpg	99
2378.838	0.481	481.4	2back	Block4	2back/STIM_030.jpg	99
2382.542	0.928	928.2	2back	Block4	2back/STIM_031.jpg	100
2386.569	0.928	927.5	2back	Block4	2back/STIM_031.jpg	100
2391.379	0.813	813.2	2back	Block4	2back/STIM_031.jpg	100
2394.469	0.58	580.3	2back	Block4	2back/STIM_032.jpg	100
2397.658	0.554	554.3	2back	Block4	2back/STIM_032.jpg	100
2400.376	0.92	920.4	2back	Block4	2back/STIM_032.jpg	100
2405.29	0.592	592.2	2back	Block4	2back/STIM_033.jpg	99
2407.904	0.694	694.3	2back	Block4	2back/STIM_033.jpg	99
2412.436	0.782	782.3	2back	Block4	2back/STIM_033.jpg	100
2415.43	0.752	751.6	2back	Block4	2back/STIM_034.jpg	99
2419.969	0.455	454.8	2back	Block4	2back/STIM_034.jpg	99
2422.979	0.717	717.1	2back	Block4	2back/STIM_034.jpg	100
2427.019	0.772	772.5	2back	Block4	2back/STIM_035.jpg	100
2429.98	0.862	862.3	2back	Block4	2back/STIM_035.jpg	100
2433.372	0.41	410.4	2back	Block4	2back/STIM_035.jpg	99
2436.999	0.777	777.0	2back	Block4	2back/STIM_036.jpg	99
2440.684	0.897	897.1	2back	Block4	2back/STIM_036.jpg	100
2444.75	0.767	767.0	2back	Block4	2back/STIM_036.jpg	99
2448.75	0.406	405.5	2back	Block4	2back/STIM_037.jpg	100
2452.491	0.741	740.8	2back	Block4	2back/STIM_037.jpg	99
2456.364	0.49	490.0	2back	Block4	2back/STIM_037.jpg	100
2459.781	0.436	435.9	2back	Block4	2back/STIM_038.jpg	100
2463.346	0.727	726.8	2back	Block4	2back/STIM_038.jpg	100
2467.515	0.422	422.1	2back	Block4	2back/STIM_038.jpg	99
2470.451	0.743	743.1	2back	Block4	2back/STIM_039.jpg	99
2473.758	0.778	778.3	2back	Block4	2back/STIM_039.jpg	99
2477.905	0.849	849.1	2back	Block4	2back/STIM_039.jpg	99
2482.256	0.629	629.2	0back	Block4	0back/STIM_000.jpg	100
2485.536	0.634	634.3	0back	Block4	0back/STIM_000.jpg	99
2488.423	0.72	720.3	0back	Block4	0back/STIM_000.jpg	100
2491.746	0.696	695.5	0back	Block4	0back/STIM_001.jpg	99
2495.148	0.387	386.9	0back	Block4	0back/STIM_001.jpg	100
2498.469	0.722	722.2	0back	Block4	0back/STIM_001.jpg	99
2502.395	0.46	459.9	0back	Block4	0back/STIM_002.jpg	100
2504.89	0.575	575.1	0back	Block4	0back/STIM_002.jpg	100
2508.651	0.554	553.9	0back	Block4	0back/STIM_002.jpg	100
2511.365	0.711	711.4	0back	Block4	0back/STIM_003.jpg	99
2515.325	0.563	562.9	0back	Block4	0back/STIM_003.jpg	100
2518.277	0.496	496.2	0back	Block4	0back/STIM_003.jpg	99
2520.935	0.566	566.5	0back	Block4	0back/STIM_004.jpg	100
2525.274	0.706	705.9	0back	Block4	0back/STIM_004.jpg	99
2529.58	0.709	708.6	0back	Block4	0back/STIM_004.jpg	99
2532.99	0.568	568.4	0back	Block4	0back/STIM_005.jpg	99
2537.541	0.614	614.1	0back	Block4	0back/STIM_005.jpg	99
2541.623	0.46	460.0	0back	Block4	0back/STIM_005.jpg	99
2544.21	0.651	650.6	0back	Block4	0back/STIM_006.jpg	99
2548.241	0.554	553.6	0back	Block4	0back/STIM_006.jpg	100
2550.945	0.732	732.2	0back	Block4	0back/STIM_006.jpg	100
2555.465	0.711	711.1	0back	Block4	0back/STIM_007.jpg	99
2558.944	0.431	430.9	0back	Block4	0back/STIM_007.jpg	100
2562.724	0.559	559.3	0back	Block4	0back/STIM_007.jpg	99
2565.718	0.494	493.8	0back	Block4	0back/STIM_008.jpg	100
2568.84	0.469	469.2	0back	Block4	0back/STIM_008.jpg	99
2572.729	0.403	403.4	0back	Block4	0back/STIM_008.jpg	100
2575.971	0.652	652.1	0back	Block4	0back/STIM_009.jpg	99
2580.243	0.611	611.1	0back	Block4	0back/STIM_009.jpg	99
2583.053	0.736	736.0	0back	Block4	0back/STIM_009.jpg	99
2586.628	0.563	562.9	0back	Block4	0back/STIM_010.jpg	100
2590.389	0.431	431.4	0back	Block4	0back/STIM_010.jpg	99
2593.765	0.747	746.7	0back	Block4	0back/STIM_010.jpg	100
2597.158	0.551	551.2	0back	Block4	0back/STIM_011.jpg	100
2599.877	0.611	611.4	0back	Block4	0back/STIM_011.jpg	99
2603.138	0.556	556.2	0back	Block4	0back/STIM_011.jpg	100
2607.345	0.471	471.4	0back	Block4	0back/STIM_012.jpg	100
2610.428	0.617	617.4	0back	Block4	0back/STIM_012.jpg	100
2613.936	0.457	457.1	0back	Block4	0back/STIM_012.jpg	100
2617.052	0.7	700.2	0back	Block4	0back/STIM_013.jpg	100
2620.801	0.544	544.2	0back	Block4	0back/STIM_013.jpg	99
2623.531	0.402	401.6	0back	Block4	0back/STIM_013.jpg	100
2626.263	0.428	428.3	0back	Block4	0back/STIM_014.jpg	99
2630.193	0.405	405.2	0back	Block4	0back/STIM_014.jpg	99
2634.038	0.568	567.8	0back	Block4	0back/STIM_014.jpg	100
2637.431	0.427	427.2	0back	Block4	0back/STIM_015.jpg	99
2640.602	0.414	413.7	0back	Block4	0back/STIM_015.jpg	100
2643.802	0.408	407.5	0back	Block4	0back/STIM_015.jpg	100
2647.585	0.608	607.8	0back	Block4	0back/STIM_016.jpg	99
2651.395	0.661	660.6	0back	Block4	0back/STIM_016.jpg	100
2654.063	0.706	705.6	0back	Block4	0back/STIM_016.jpg	99
2657.253	0.687	687.0	0back	Block4	0back/STIM_017.jpg	99
2661.46	0.493	492.8	0back	Block4	0back/STIM_017.jpg	99
2665.32	0.498	498.1	0back	Block4	0back/STIM_017.jpg	100
2669.204	0.384	384.3	0back	Block4	0back/STIM_018.jpg	100
2671.909	0.584	584.3	0back	Block4	0back/STIM_018.jpg	100
2674.567	0.45	450.4	0back	Block4	0back/STIM_018.jpg	99
2678.812	0.649	649.0	0back	Block4	0back/STIM_019.jpg	99
2682.49	0.45	449.9	0back	Block4	0back/STIM_019.jpg	100
2686.231	0.421	420.6	0back	Block4	0back/STIM_019.jpg	100
