onset	duration	response_time_ms	trial_type	learning_stage	stimulus	response_port
0.0	0.872	871.8	study	Phase1	study/STIM_000.jpg	100
4.572	0.835	834.9	study	Phase1	study/STIM_000.jpg	100
8.974	0.815	815.1	study	Phase1	study/STIM_000.jpg	99
12.758	1.576	1575.6	study	Phase1	study/STIM_001.jpg	100
17.98	1.616	1615.5	study	Phase1	study/STIM_001.jpg	100
21.737	1.044	1044.0	study	Phase1	study/STIM_001.jpg	100
26.383	1.392	1391.5	study	Phase1	study/STIM_002.jpg	99
31.29	1.652	1651.7	study	Phase1	study/STIM_002.jpg	99
36.139	1.386	1386.2	study	Phase1	study/STIM_002.jpg	99
41.319	0.914	914.4	study	Phase1	study/STIM_003.jpg	99
44.288	1.656	1655.6	study	Phase1	study/STIM_003.jpg	99
49.599	1.302	1301.5	study	Phase1	study/STIM_003.jpg	100
53.055	0.876	876.3	study	Phase1	study/STIM_004.jpg	100
57.779	1.537	1537.4	study	Phase1	study/STIM_004.jpg	99
62.031	1.294	1294.1	study	Phase1	study/STIM_004.jpg	100
66.851	1.758	1757.9	study	Phase1	study/STIM_005.jpg	100
72.563	1.035	1035.3	study	Phase1	study/STIM_005.jpg	100
76.888	1.522	1521.6	study	Phase1	study/STIM_005.jpg	100
81.795	1.8	1800.5	study	Phase1	study/STIM_006.jpg	100
86.7	1.492	1492.4	study	Phase1	study/STIM_006.jpg	99
91.618	0.902	901.9	study	Phase1	study/STIM_006.jpg	99
94.881	1.312	1312.1	study	Phase1	study/STIM_007.jpg	100
98.828	1.313	1312.8	study	Phase1	study/STIM_007.jpg	99
103.613	0.851	850.6	study	Phase1	study/STIM_007.jpg	100
106.707	0.973	972.8	study	Phase1	study/STIM_008.jpg	99
110.331	1.085	1084.6	study	Phase1	study/STIM_008.jpg	100
114.591	1.228	1227.5	study	Phase1	study/STIM_008.jpg	100
119.119	1.623	1623.2	study	Phase1	study/STIM_009.jpg	100
123.202	1.582	1581.6	study	Phase1	study/STIM_009.jpg	99
127.437	1.058	1057.5	study	Phase1	study/STIM_009.jpg	100
131.319	1.593	1592.8	study	Phase1	study/STIM_010.jpg	100
135.859	1.711	1710.8	study	Phase1	study/STIM_010.jpg	99
139.747	1.378	1377.8	study	Phase1	study/STIM_010.jpg	100
144.037	1.305	1305.2	study	Phase1	study/STIM_011.jpg	99
148.489	1.404	1403.8	study	Phase1	study/STIM_011.jpg	99
153.208	1.563	1562.8	study	Phase1	study/STIM_011.jpg	99
156.794	1.368	1367.7	study	Phase1	study/STIM_012.jpg	99
161.977	1.235	1235.3	study	Phase1	study/STIM_012.jpg	100
166.164	1.293	1293.3	study	Phase1	study/STIM_012.jpg	100
169.908	1.433	1433.1	study	Phase1	study/STIM_013.jpg	100
173.556	1.747	1747.3	study	Phase1	study/STIM_013.jpg	100
178.752	1.489	1489.3	study	Phase1	study/STIM_013.jpg	100
182.477	1.23	1230.0	study	Phase1	study/STIM_014.jpg	99
187.353	1.036	1036.0	study	Phase1	study/STIM_014.jpg	100
192.029	1.328	1327.5	study	Phase1	study/STIM_014.jpg	99
196.955	1.703	1703.3	study	Phase1	study/STIM_015.jpg	99
202.332	1.422	1422.1	study	Phase1	study/STIM_015.jpg	100
207.75	1.674	1674.1	study	Phase1	study/STIM_015.jpg	99
212.941	1.186	1186.1	study	Phase1	study/STIM_016.jpg	100
217.945	0.835	834.9	study	Phase1	study/STIM_016.jpg	100
222.467	1.431	1430.6	study	Phase1	study/STIM_016.jpg	99
226.447	1.655	1655.3	study	Phase1	study/STIM_017.jpg	99
232.073	1.699	1698.6	study	Phase1	study/STIM_017.jpg	100
236.034	1.69	1690.2	study	Phase1	study/STIM_017.jpg	99
239.912	1.178	1178.1	study	Phase1	study/STIM_018.jpg	99
243.235	1.409	1409.3	study	Phase1	study/STIM_018.jpg	100
248.049	1.558	1558.4	study	Phase1	study/STIM_018.jpg	100
253.57	1.682	1682.2	study	Phase1	study/STIM_019.jpg	100
257.393	0.846	846.0	study	Phase1	study/STIM_019.jpg	100
260.745	1.135	1134.7	study	Phase1	study/STIM_019.jpg	99
265.113	1.67	1669.6	study	Phase1	study/STIM_020.jpg	99
269.19	1.569	1568.7	study	Phase1	study/STIM_020.jpg	100
273.77	1.275	1274.9	study	Phase1	study/STIM_020.jpg	99
278.466	1.614	1614.5	study	Phase1	study/STIM_021.jpg	100
282.974	0.818	818.2	study	Phase1	study/STIM_021.jpg	99
287.306	1.103	1103.0	study	Phase1	study/STIM_021.jpg	99
290.75	1.508	1508.1	study	Phase1	study/STIM_022.jpg	100
295.457	1.432	1431.8	study	Phase1	study/STIM_022.jpg	99
300.724	1.389	1388.7	study	Phase1	study/STIM_022.jpg	99
304.344	1.709	1708.6	study	Phase1	study/STIM_023.jpg	99
308.489	1.001	1001.3	study	Phase1	study/STIM_023.jpg	99
312.502	0.864	864.1	study	Phase1	study/STIM_023.jpg	100
315.767	1.596	1596.2	study	Phase1	study/STIM_024.jpg	99
320.12	0.838	837.8	study	Phase1	study/STIM_024.jpg	100
323.149	1.01	1009.7	study	Phase1	study/STIM_024.jpg	99
327.249	0.981	980.9	study	Phase1	study/STIM_025.jpg	99
332.054	1.211	1210.9	study	Phase1	study/STIM_025.jpg	100
337.103	1.125	1124.9	study	Phase1	study/STIM_025.jpg	99
341.804	1.023	1023.3	study	Phase1	study/STIM_026.jpg	100
345.033	1.293	1292.7	study	Phase1	study/STIM_026.jpg	100
349.875	1.33	1330.3	study	Phase1	study/STIM_026.jpg	99
353.697	1.471	1470.6	study	Phase1	study/STIM_027.jpg	100
357.789	1.733	1732.7	study	Phase1	study/STIM_027.jpg	100
362.239	1.114	1113.6	study	Phase1	study/STIM_027.jpg	100
365.967	1.476	1475.9	study	Phase1	study/STIM_028.jpg	100
370.994	1.774	1773.8	study	Phase1	study/STIM_028.jpg	99
375.005	1.514	1514.0	study	Phase1	study/STIM_028.jpg	100
380.032	1.234	1233.8	study	Phase1	study/STIM_029.jpg	99
384.134	1.782	1782.3	study	Phase1	study/STIM_029.jpg	99
389.754	1.257	1257.4	study	Phase1	study/STIM_029.jpg	99
393.188	1.232	1231.6	test	Phase1	test/STIM_000.jpg	99
397.788	1.092	1091.7	test	Phase1	test/STIM_000.jpg	100
402.632	0.907	907.1	test	Phase1	test/STIM_000.jpg	100
405.696	0.826	826.3	test	Phase1	test/STIM_001.jpg	100
409.585	0.848	848.3	test	Phase1	test/STIM_001.jpg	100
413.25	1.304	1304.2	test	Phase1	test/STIM_001.jpg	100
417.792	0.692	691.5	test	Phase1	test/STIM_002.jpg	100
421.6	1.168	1167.6	test	Phase1	test/STIM_002.jpg	99
426.76	0.927	927.0	test	Phase1	test/STIM_002.jpg	99
431.342	1.053	1052.8	test	Phase1	test/STIM_003.jpg	99
436.358	0.901	901.1	test	Phase1	test/STIM_003.jpg	100
440.264	1.15	1150.2	test	Phase1	test/STIM_003.jpg	100
444.614	0.906	906.2	test	Phase1	test/STIM_004.jpg	99
448.737	1.08	1079.5	test	Phase1	test/STIM_004.jpg	99
453.054	1.078	1078.0	test	Phase1	test/STIM_004.jpg	99
457.593	1.057	1057.1	test	Phase1	test/STIM_005.jpg	99
461.59	1.268	1268.2	test	Phase1	test/STIM_005.jpg	99
465.141	1.322	1322.5	test	Phase1	test/STIM_005.jpg	99
469.157	0.777	776.8	test	Phase1	test/STIM_006.jpg	99
473.05	1.044	1044.3	test	Phase1	test/STIM_006.jpg	100
477.272	0.875	875.3	test	Phase1	test/STIM_006.jpg	99
481.302	1.16	1159.6	test	Phase1	test/STIM_007.jpg	99
485.184	1.193	1193.2	test	Phase1	test/STIM_007.jpg	100
489.829	0.985	985.4	test	Phase1	test/STIM_007.jpg	99
494.295	0.811	811.1	test	Phase1	test/STIM_008.jpg	99
497.844	0.818	818.5	test	Phase1	test/STIM_008.jpg	99
500.798	0.958	958.1	test	Phase1	test/STIM_008.jpg	100
504.452	1.126	1126.1	test	Phase1	test/STIM_009.jpg	100
507.724	1.222	1221.7	test	Phase1	test/STIM_009.jpg	100
511.959	1.277	1276.8	test	Phase1	test/STIM_009.jpg	99
516.035	0.626	626.4	test	Phase1	test/STIM_010.jpg	100
520.654	1.116	1115.7	test	Phase1	test/STIM_010.jpg	100
524.848	1.034	1034.5	test	Phase1	test/STIM_010.jpg	99
529.577	1.244	1244.0	test	Phase1	test/STIM_011.jpg	100
534.609	0.899	898.7	test	Phase1	test/STIM_011.jpg	99
538.434	1.144	1144.4	test	Phase1	test/STIM_011.jpg	99
542.375	0.687	686.6	test	Phase1	test/STIM_012.jpg	100
545.669	0.674	673.5	test	Phase1	test/STIM_012.jpg	99
550.135	1.248	1247.6	test	Phase1	test/STIM_012.jpg	99
553.941	0.99	990.2	test	Phase1	test/STIM_013.jpg	100
558.674	1.136	1135.8	test	Phase1	test/STIM_013.jpg	100
561.852	1.159	1158.8	test	Phase1	test/STIM_013.jpg	100
565.389	1.327	1327.0	test	Phase1	test/STIM_014.jpg	99
570.401	0.925	925.2	test	Phase1	test/STIM_014.jpg	100
574.633	0.992	991.6	test	Phase1	test/STIM_014.jpg	100
578.449	1.303	1302.9	test	Phase1	test/STIM_015.jpg	100
583.34	0.845	845.1	test	Phase1	test/STIM_015.jpg	100
587.062	0.949	949.3	test	Phase1	test/STIM_015.jpg	100
590.054	0.693	692.7	test	Phase1	test/STIM_016.jpg	99
592.989	0.905	905.1	test	Phase1	test/STIM_016.jpg	100
597.859	1.006	1006.2	test	Phase1	test/STIM_016.jpg	100
602.507	1.001	1000.7	test	Phase1	test/STIM_017.jpg	100
606.681	0.74	739.6	test	Phase1	test/STIM_017.jpg	99
610.693	1.31	1309.6	test	Phase1	test/STIM_017.jpg	100
614.582	1.227	1227.3	test	Phase1	test/STIM_018.jpg	99
618.043	1.285	1284.6	test	Phase1	test/STIM_018.jpg	99
621.504	1.34	1339.6	test	Phase1	test/STIM_018.jpg	100
626.335	1.173	1173.0	test	Phase1	test/STIM_019.jpg	100
629.709	0.742	742.5	test	Phase1	test/STIM_019.jpg	100
634.365	0.906	905.8	test	Phase1	test/STIM_019.jpg	100
638.885	1.019	1019.2	test	Phase1	test/STIM_020.jpg	100
643.348	1.133	1133.4	test	Phase1	test/STIM_020.jpg	100
647.433	0.659	658.7	test	Phase1	test/STIM_020.jpg	100
650.949	0.754	754.4	test	Phase1	test/STIM_021.jpg	100
654.241	0.998	998.5	test	Phase1	test/STIM_021.jpg	99
658.219	0.889	888.7	test	Phase1	test/STIM_021.jpg	100
662.213	1.234	1234.0	test	Phase1	test/STIM_022.jpg	99
667.106	0.693	692.8	test	Phase1	test/STIM_022.jpg	100
670.164	1.034	1034.5	test	Phase1	test/STIM_022.jpg	99
675.126	0.823	822.7	test	Phase1	test/STIM_023.jpg	99
678.455	0.854	854.2	test	Phase1	test/STIM_023.jpg	100
682.539	1.033	1032.8	test	Phase1	test/STIM_023.jpg	99
686.625	1.191	1190.9	test	Phase1	test/STIM_024.jpg	99
691.123	0.694	694.2	test	Phase1	test/STIM_024.jpg	99
694.344	1.188	1188.0	test	Phase1	test/STIM_024.jpg	99
698.75	0.725	725.4	test	Phase1	test/STIM_025.jpg	99
701.548	0.997	997.2	test	Phase1	test/STIM_025.jpg	99
705.235	1.315	1315.2	test	Phase1	test/STIM_025.jpg	99
709.158	1.22	1219.6	test	Phase1	test/STIM_026.jpg	100
713.977	1.256	1256.2	test	Phase1	test/STIM_026.jpg	99
718.592	0.952	951.8	test	Phase1	test/STIM_026.jpg	100
722.713	0.773	772.8	test	Phase1	test/STIM_027.jpg	99
727.454	1.004	1004.3	test	Phase1	test/STIM_027.jpg	100
731.93	0.746	745.7	test	Phase1	test/STIM_027.jpg	100
735.615	1.123	1122.9	test	Phase1	test/STIM_028.jpg	100
739.125	0.978	978.2	test	Phase1	test/STIM_028.jpg	100
743.928	0.942	942.0	test	Phase1	test/STIM_028.jpg	100
748.442	1.027	1026.9	test	Phase1	test/STIM_029.jpg	99
751.692	0.822	822.1	test	Phase1	test/STIM_029.jpg	99
755.417	0.763	763.1	test	Phase1	test/STIM_029.jpg	100
758.923	0.919	918.6	study	Phase2	study/STIM_000.jpg	100
762.243	1.255	1255.3	study	Phase2	study/STIM_000.jpg	100
765.628	0.635	634.8	study	Phase2	study/STIM_000.jpg	100
770.078	0.919	919.2	study	Phase2	study/STIM_001.jpg	100
773.48	1.264	1264.1	study	Phase2	study/STIM_001.jpg	100
777.161	0.667	667.0	study	Phase2	study/STIM_001.jpg	99
780.81	1.068	1068.4	study	Phase2	study/STIM_002.jpg	99
784.111	1.135	1134.7	study	Phase2	study/STIM_002.jpg	100
789.099	1.32	1320.5	study	Phase2	study/STIM_002.jpg	99
792.647	1.34	1339.7	study	Phase2	study/STIM_003.jpg	100
796.588	1.084	1084.2	study	Phase2	study/STIM_003.jpg	100
799.945	0.955	955.4	study	Phase2	study/STIM_003.jpg	99
804.175	1.377	1377.0	study	Phase2	study/STIM_004.jpg	99
807.88	1.181	1180.8	study	Phase2	study/STIM_004.jpg	100
812.61	1.013	1013.2	study	Phase2	study/STIM_004.jpg	99
817.372	1.478	1478.4	study	Phase2	study/STIM_005.jpg	100
821.999	1.232	1232.5	study	Phase2	study/STIM_005.jpg	99
827.033	1.008	1007.8	study	Phase2	study/STIM_005.jpg	100
831.727	1.092	1092.1	study	Phase2	study/STIM_006.jpg	99
836.593	0.677	677.0	study	Phase2	study/STIM_006.jpg	99
841.182	0.669	669.4	study	Phase2	study/STIM_006.jpg	100
845.479	1.139	1138.9	study	Phase2	study/STIM_007.jpg	99
850.337	0.838	837.8	study	Phase2	study/STIM_007.jpg	99
854.667	0.906	906.1	study	Phase2	study/STIM_007.jpg	100
858.798	1.568	1568.3	study	Phase2	study/STIM_008.jpg	100
863.796	1.228	1228.4	study	Phase2	study/STIM_008.jpg	100
868.099	1.231	1230.7	study	Phase2	study/STIM_008.jpg	99
872.487	0.828	827.9	study	Phase2	study/STIM_009.jpg	99
876.815	1.036	1036.2	study	Phase2	study/STIM_009.jpg	99
881.784	1.373	1372.8	study	Phase2	study/STIM_009.jpg	99
885.564	1.283	1282.7	study	Phase2	study/STIM_010.jpg	99
889.037	0.756	755.5	study	Phase2	study/STIM_010.jpg	99
893.791	0.89	890.4	study	Phase2	study/STIM_010.jpg	99
897.384	0.901	901.0	study	Phase2	study/STIM_011.jpg	100
901.305	1.448	1448.2	study	Phase2	study/STIM_011.jpg	100
906.251	0.639	638.9	study	Phase2	study/STIM_011.jpg	99
909.716	1.464	1464.3	study	Phase2	study/STIM_012.jpg	99
914.468	0.708	708.3	study	Phase2	study/STIM_012.jpg	100
917.836	0.759	759.1	study	Phase2	study/STIM_012.jpg	99
922.323	1.076	1075.8	study	Phase2	study/STIM_013.jpg	100
926.472	1.148	1148.3	study	Phase2	study/STIM_013.jpg	100
930.954	1.09	1089.8	study	Phase2	study/STIM_013.jpg	100
935.118	1.565	1565.1	study	Phase2	study/STIM_014.jpg	100
938.749	0.756	756.2	study	Phase2	study/STIM_014.jpg	99
943.348	0.682	681.6	study	Phase2	study/STIM_014.jpg	99
946.223	0.868	868.3	study	Phase2	study/STIM_015.jpg	100
949.835	1.004	1004.5	study	Phase2	study/STIM_015.jpg	99
954.414	1.083	1082.6	study	Phase2	study/STIM_015.jpg	100
959.11	1.373	1373.0	study	Phase2	study/STIM_016.jpg	99
963.628	1.019	1018.8	study	Phase2	study/STIM_016.jpg	99
968.543	1.307	1306.8	study	Phase2	study/STIM_016.jpg	99
972.494	0.765	764.8	study	Phase2	study/STIM_017.jpg	99
976.576	1.326	1326.2	study	Phase2	study/STIM_017.jpg	99
980.12	1.293	1292.6	study	Phase2	study/STIM_017.jpg	100
984.014	1.106	1105.6	study	Phase2	study/STIM_018.jpg	100
988.087	0.982	982.3	study	Phase2	study/STIM_018.jpg	100
991.768	0.931	931.2	study	Phase2	study/STIM_018.jpg	99
994.718	1.403	1403.3	study	Phase2	study/STIM_019.jpg	99
999.295	0.886	886.1	study	Phase2	study/STIM_019.jpg	99
1004.03	0.77	769.6	study	Phase2	study/STIM_019.jpg	99
1007.068	1.1	1099.9	study	Phase2	study/STIM_020.jpg	99
1010.953	0.737	736.6	study	Phase2	study/STIM_020.jpg	100
1015.036	0.718	718.4	study	Phase2	study/STIM_020.jpg	99
1018.194	0.976	976.1	study	Phase2	study/STIM_021.jpg	100
1022.841	1.084	1084.1	study	Phase2	study/STIM_021.jpg	99
1026.776	0.933	933.2	study	Phase2	study/STIM_021.jpg	100
1030.681	1.051	1050.6	study	Phase2	study/STIM_022.jpg	100
1034.692	1.496	1495.7	study	Phase2	study/STIM_022.jpg	100
1039.9	1.009	1008.9	study	Phase2	study/STIM_022.jpg	99
1042.976	0.964	963.8	study	Phase2	study/STIM_023.jpg	100
1046.615	1.274	1273.5	study	Phase2	study/STIM_023.jpg	100
1051.004	1.4	1400.4	study	Phase2	study/STIM_023.jpg	100
1055.803	1.138	1138.1	study	Phase2	study/STIM_024.jpg	100
1059.769	1.098	1098.1	study	Phase2	study/STIM_024.jpg	99
1063.194	0.916	915.6	study	Phase2	study/STIM_024.jpg	100
1066.128	1.439	1438.6	study	Phase2	study/STIM_025.jpg	100
1071.119	1.495	1495.0	study	Phase2	study/STIM_025.jpg	100
1075.682	0.729	729.4	study	Phase2	study/STIM_025.jpg	99
1079.218	1.075	1075.4	study	Phase2	study/STIM_026.jpg	99
1083.094	0.91	910.0	study	Phase2	study/STIM_026.jpg	100
1086.9	1.005	1005.4	study	Phase2	study/STIM_026.jpg	100
1091.007	1.512	1511.7	study	Phase2	study/STIM_027.jpg	100
1094.962	0.725	725.0	study	Phase2	study/STIM_027.jpg	100
1097.791	1.004	1004.4	study	Phase2	study/STIM_027.jpg	99
1101.869	1.292	1291.9	study	Phase2	study/STIM_028.jpg	99
1105.43	1.128	1128.5	study	Phase2	study/STIM_028.jpg	99
1109.73	0.728	727.9	study	Phase2	study/STIM_028.jpg	99
1113.868	1.218	1217.6	study	Phase2	study/STIM_029.jpg	99
1117.981	0.81	809.6	study	Phase2	study/STIM_029.jpg	100
1122.328	0.902	901.7	study	Phase2	study/STIM_029.jpg	100
1126.894	0.786	786.3	test	Phase2	test/STIM_000.jpg	99
1129.918	0.733	733.0	test	Phase2	test/STIM_000.jpg	100
1134.291	1.156	1155.9	test	Phase2	test/STIM_000.jpg	100
1137.823	1.34	1340.4	test	Phase2	test/STIM_001.jpg	100
1141.378	0.889	889.1	test	Phase2	test/STIM_001.jpg	99
1145.772	1.11	1109.6	test	Phase2	test/STIM_001.jpg	100
1150.08	0.68	679.6	test	Phase2	test/STIM_002.jpg	99
1154.302	0.979	979.4	test	Phase2	test/STIM_002.jpg	100
1158.681	1.159	1159.3	test	Phase2	test/STIM_002.jpg	100
1162.53	1.127	1126.7	test	Phase2	test/STIM_003.jpg	100
1166.43	0.931	930.8	test	Phase2	test/STIM_003.jpg	100
1170.582	0.848	847.5	test	Phase2	test/STIM_003.jpg	99
1173.923	1.017	1017.3	test	Phase2	test/STIM_004.jpg	99
1178.688	1.282	1281.9	test	Phase2	test/STIM_004.jpg	99
1183.699	0.817	817.4	test	Phase2	test/STIM_004.jpg	99
1186.957	0.726	726.4	test	Phase2	test/STIM_005.jpg	100
1190.154	1.04	1039.5	test	Phase2	test/STIM_005.jpg	99
1193.524	0.85	850.4	test	Phase2	test/STIM_005.jpg	100
1196.884	1.155	1154.8	test	Phase2	test/STIM_006.jpg	99
1201.15	0.646	646.5	test	Phase2	test/STIM_006.jpg	100
1205.056	1.126	1126.3	test	Phase2	test/STIM_006.jpg	99
1209.256	0.708	708.2	test	Phase2	test/STIM_007.jpg	99
1213.462	1.344	1344.2	test	Phase2	test/STIM_007.jpg	99
1218.082	1.345	1344.7	test	Phase2	test/STIM_007.jpg	100
1223.036	1.058	1058.4	test	Phase2	test/STIM_008.jpg	100
1227.447	1.257	1257.1	test	Phase2	test/STIM_008.jpg	100
1232.458	1.322	1321.8	test	Phase2	test/STIM_008.jpg	99
1237.456	0.819	818.8	test	Phase2	test/STIM_009.jpg	100
1241.045	0.853	853.3	test	Phase2	test/STIM_009.jpg	99
1244.181	0.934	933.8	test	Phase2	test/STIM_009.jpg	99
1247.217	0.812	812.3	test	Phase2	test/STIM_010.jpg	99
1251.19	0.944	944.5	test	Phase2	test/STIM_010.jpg	100
1255.411	1.147	1147.2	test	Phase2	test/STIM_010.jpg	99
1258.586	1.031	1031.3	test	Phase2	test/STIM_011.jpg	100
1263.115	0.993	993.2	test	Phase2	test/STIM_011.jpg	100
1266.159	1.199	1198.9	test	Phase2	test/STIM_011.jpg	99
1271.333	0.679	679.0	test	Phase2	test/STIM_012.jpg	99
1274.506	1.285	1285.1	test	Phase2	test/STIM_012.jpg	100
1278.253	0.705	704.7	test	Phase2	test/STIM_012.jpg	99
1282.842	0.834	833.6	test	Phase2	test/STIM_013.jpg	100
1287.34	1.166	1166.5	test	Phase2	test/STIM_013.jpg	99
1292.287	0.791	791.4	test	Phase2	test/STIM_013.jpg	100
1295.976	1.177	1177.0	test	Phase2	test/STIM_014.jpg	99
1300.829	0.955	955.1	test	Phase2	test/STIM_014.jpg	99
1305.519	0.672	672.2	test	Phase2	test/STIM_014.jpg	99
1309.725	1.267	1266.9	test	Phase2	test/STIM_015.jpg	99
1313.923	1.132	1132.3	test	Phase2	test/STIM_015.jpg	99
1318.317	0.801	800.8	test	Phase2	test/STIM_015.jpg	100
1321.935	0.751	751.0	test	Phase2	test/STIM_016.jpg	99
1325.74	0.805	805.4	test	Phase2	test/STIM_016.jpg	99
1328.735	1.087	1087.0	test	Phase2	test/STIM_016.jpg	99
1331.855	1.117	1116.8	test	Phase2	test/STIM_017.jpg	100
1335.067	0.937	937.3	test	Phase2	test/STIM_017.jpg	100
1339.409	1.134	1133.7	test	Phase2	test/STIM_017.jpg	100
1343.857	1.252	1251.8	test	Phase2	test/STIM_018.jpg	99
1347.408	0.968	968.1	test	Phase2	test/STIM_018.jpg	100
1351.389	0.76	760.1	test	Phase2	test/STIM_018.jpg	99
1354.597	1.232	1231.6	test	Phase2	test/STIM_019.jpg	100
1359.049	0.768	767.6	test	Phase2	test/STIM_019.jpg	99
1363.176	0.728	727.7	test	Phase2	test/STIM_019.jpg	100
1367.818	0.996	996.2	test	Phase2	test/STIM_020.jpg	100
1372.795	1.115	1115.1	test	Phase2	test/STIM_020.jpg	100
1377.127	1.016	1015.8	test	Phase2	test/STIM_020.jpg	99
1380.42	0.978	978.2	test	Phase2	test/STIM_021.jpg	99
1385.18	0.855	855.1	test	Phase2	test/STIM_021.jpg	99
1389.313	0.715	715.3	test	Phase2	test/STIM_021.jpg	99
1393.043	0.675	675.0	test	Phase2	test/STIM_022.jpg	99
1396.905	0.942	942.1	test	Phase2	test/STIM_022.jpg	99
1401.177	1.061	1061.3	test	Phase2	test/STIM_022.jpg	99
1405.266	0.978	977.9	test	Phase2	test/STIM_023.jpg	100
1410.042	0.757	757.0	test	Phase2	test/STIM_023.jpg	100
1413.329	1.16	1160.1	test	Phase2	test/STIM_023.jpg	100
1416.739	1.354	1353.6	test	Phase2	test/STIM_024.jpg	99
1420.781	1.016	1016.2	test	Phase2	test/STIM_024.jpg	99
1425.644	0.641	640.6	test	Phase2	test/STIM_024.jpg	100
1430.225	0.92	920.1	test	Phase2	test/STIM_025.jpg	99
1433.698	0.987	987.1	test	Phase2	test/STIM_025.jpg	99
1438.179	0.753	753.0	test	Phase2	test/STIM_025.jpg	99
1441.78	1.349	1349.3	test	Phase2	test/STIM_026.jpg	99
1446.11	0.807	807.3	test	Phase2	test/STIM_026.jpg	100
1449.259	0.87	869.8	test	Phase2	test/STIM_026.jpg	99
1452.47	1.164	1163.6	test	Phase2	test/STIM_027.jpg	100
1456.689	0.893	893.4	test	Phase2	test/STIM_027.jpg	100
1460.963	1.223	1222.9	test	Phase2	test/STIM_027.jpg	100
1464.87	0.722	721.5	test	Phase2	test/STIM_028.jpg	99
1467.958	0.885	885.3	test	Phase2	test/STIM_028.jpg	100
1472.563	1.053	1053.4	test	Phase2	test/STIM_028.jpg	100
1477.158	1.356	1355.9	test	Phase2	test/STIM_029.jpg	100
1480.775	1.346	1345.9	test	Phase2	test/STIM_029.jpg	99
1485.393	0.916	916.2	test	Phase2	test/STIM_029.jpg	100
1488.94	1.278	1277.7	study	Phase3	study/STIM_000.jpg	100
1492.502	1.045	1044.7	study	Phase3	study/STIM_000.jpg	99
1497.442	1.183	1183.3	study	Phase3	study/STIM_000.jpg	99
1502.176	0.601	600.7	study	Phase3	study/STIM_001.jpg	99
1505.923	0.792	792.2	study	Phase3	study/STIM_001.jpg	99
1510.092	1.035	1034.8	study	Phase3	study/STIM_001.jpg	99
1513.749	0.744	743.7	study	Phase3	study/STIM_002.jpg	99
1517.807	1.012	1012.5	study	Phase3	study/STIM_002.jpg	100
1521.514	0.739	739.2	study	Phase3	study/STIM_002.jpg	100
1524.859	1.295	1295.0	study	Phase3	study/STIM_003.jpg	99
1529.317	0.6	600.0	study	Phase3	study/STIM_003.jpg	99
1533.428	0.96	959.9	study	Phase3	study/STIM_003.jpg	99
1536.715	0.912	911.8	study	Phase3	study/STIM_004.jpg	99
1540.811	1.04	1039.5	study	Phase3	study/STIM_004.jpg	99
1543.889	0.846	846.3	study	Phase3	study/STIM_004.jpg	100
1548.674	1.001	1001.1	study	Phase3	study/STIM_005.jpg	99
1552.523	0.74	740.4	study	Phase3	study/STIM_005.jpg	99
1556.03	0.837	837.0	study	Phase3	study/STIM_005.jpg	100
1559.562	0.899	899.2	study	Phase3	study/STIM_006.jpg	100
1563.873	0.594	594.2	study	Phase3	study/STIM_006.jpg	100
1566.845	0.89	889.7	study	Phase3	study/STIM_006.jpg	99
1571.539	0.894	894.3	study	Phase3	study/STIM_007.jpg	100
1576.277	0.734	733.6	study	Phase3	study/STIM_007.jpg	100
1580.951	1.185	1184.7	study	Phase3	study/STIM_007.jpg	100
1586.073	0.602	601.6	study	Phase3	study/STIM_008.jpg	100
1589.963	1.048	1047.8	study	Phase3	study/STIM_008.jpg	99
1593.618	0.938	938.1	study	Phase3	study/STIM_008.jpg	99
1598.067	0.895	895.2	study	Phase3	study/STIM_009.jpg	99
1601.927	0.972	972.3	study	Phase3	study/STIM_009.jpg	100
1605.645	0.794	794.4	study	Phase3	study/STIM_009.jpg	100
1608.753	0.951	950.6	study	Phase3	study/STIM_010.jpg	99
1612.465	0.922	922.0	study	Phase3	study/STIM_010.jpg	100
1616.366	1.122	1121.8	study	Phase3	study/STIM_010.jpg	99
1621.194	0.902	902.0	study	Phase3	study/STIM_011.jpg	99
1625.456	0.882	882.2	study	Phase3	study/STIM_011.jpg	99
1628.398	0.775	775.2	study	Phase3	study/STIM_011.jpg	99
1632.759	0.683	683.0	study	Phase3	study/STIM_012.jpg	100
1636.664	1.294	1293.7	study	Phase3	study/STIM_012.jpg	99
1641.697	0.978	977.6	study	Phase3	study/STIM_012.jpg	99
1645.397	1.217	1217.0	study	Phase3	study/STIM_013.jpg	100
1649.929	1.174	1173.6	study	Phase3	study/STIM_013.jpg	99
1655.028	1.176	1175.7	study	Phase3	study/STIM_013.jpg	99
1659.157	0.763	763.4	study	Phase3	study/STIM_014.jpg	99
1662.627	1.077	1076.6	study	Phase3	study/STIM_014.jpg	100
1667.208	1.238	1238.4	study	Phase3	study/STIM_014.jpg	100
1670.945	1.155	1155.0	study	Phase3	study/STIM_015.jpg	99
1675.972	0.72	719.8	study	Phase3	study/STIM_015.jpg	100
1680.555	0.633	633.2	study	Phase3	study/STIM_015.jpg	99
1683.986	0.788	788.3	study	Phase3	study/STIM_016.jpg	100
1687.492	0.85	849.6	study	Phase3	study/STIM_016.jpg	100
1691.405	1.273	1272.7	study	Phase3	study/STIM_016.jpg	99
1695.494	0.974	973.8	study	Phase3	study/STIM_017.jpg	99
1700.137	1.26	1260.2	study	Phase3	study/STIM_017.jpg	99
1704.662	0.764	764.1	study	Phase3	study/STIM_017.jpg	99
1707.542	1.005	1005.4	study	Phase3	study/STIM_018.jpg	100
1712.049	1.21	1210.3	study	Phase3	study/STIM_018.jpg	100
1715.614	0.67	670.4	study	Phase3	study/STIM_018.jpg	99
1718.819	0.728	728.5	study	Phase3	study/STIM_019.jpg	99
1722.75	0.687	687.2	study	Phase3	study/STIM_019.jpg	99
1725.625	1.16	1160.5	study	Phase3	study/STIM_019.jpg	99
1729.98	1.108	1108.5	study	Phase3	study/STIM_020.jpg	99
1733.462	0.813	813.2	study	Phase3	study/STIM_020.jpg	100
1737.925	1.308	1308.2	study	Phase3	study/STIM_020.jpg	99
1742.218	1.006	1005.6	study	Phase3	study/STIM_021.jpg	100
1745.67	0.689	688.6	study	Phase3	study/STIM_021.jpg	100
1748.712	0.624	623.9	study	Phase3	study/STIM_021.jpg	99
1752.107	0.75	750.0	study	Phase3	study/STIM_022.jpg	99
1755.351	1.231	1231.3	study	Phase3	study/STIM_022.jpg	100
1759.226	0.873	873.2	study	Phase3	study/STIM_022.jpg	100
1762.861	1.044	1044.4	study	Phase3	study/STIM_023.jpg	100
1766.625	0.686	685.6	study	Phase3	study/STIM_023.jpg	99
1771.036	0.99	990.2	study	Phase3	study/STIM_023.jpg	100
1774.915	0.891	891.3	study	Phase3	study/STIM_024.jpg	99
1777.92	1.296	1295.8	study	Phase3	study/STIM_024.jpg	100
1782.856	1.163	1163.3	study	Phase3	study/STIM_024.jpg	99
1786.276	0.645	645.1	study	Phase3	study/STIM_025.jpg	100
1790.399	1.082	1082.4	study	Phase3	study/STIM_025.jpg	100
1793.719	0.896	896.4	study	Phase3	study/STIM_025.jpg	99
1797.101	1.006	1006.0	study	Phase3	study/STIM_026.jpg	100
1801.658	0.742	742.4	study	Phase3	study/STIM_026.jpg	99
1804.548	0.948	947.9	study	Phase3	study/STIM_026.jpg	99
1808.277	1.232	1231.5	study	Phase3	study/STIM_027.jpg	99
1812.053	0.806	806.5	study	Phase3	study/STIM_027.jpg	99
1816.336	0.615	614.6	study	Phase3	study/STIM_027.jpg	100
1819.792	0.868	867.8	study	Phase3	study/STIM_028.jpg	100
1824.075	1.315	1314.6	study	Phase3	study/STIM_028.jpg	99
1828.803	0.762	761.7	study	Phase3	study/STIM_028.jpg	100
1833.118	0.936	936.1	study	Phase3	study/STIM_029.jpg	99
1836.896	1.13	1129.9	study	Phase3	study/STIM_029.jpg	100
1841.045	0.862	862.0	study	Phase3	study/STIM_029.jpg	100
1845.695	1.154	1154.0	test	Phase3	test/STIM_000.jpg	100
1850.219	0.852	851.6	test	Phase3	test/STIM_000.jpg	100
1854.266	0.868	868.2	test	Phase3	test/STIM_000.jpg	99
1858.49	0.886	885.6	test	Phase3	test/STIM_001.jpg	99
1863.188	0.659	659.2	test	Phase3	test/STIM_001.jpg	100
1866.952	0.646	646.3	test	Phase3	test/STIM_001.jpg	100
1870.408	1.105	1104.7	test	Phase3	test/STIM_002.jpg	99
1873.813	0.757	757.3	test	Phase3	test/STIM_002.jpg	99
1877.065	1.241	1241.2	test	Phase3	test/STIM_002.jpg	99
1881.883	0.868	868.0	test	Phase3	test/STIM_003.jpg	100
1885.657	1.299	1298.6	test	Phase3	test/STIM_003.jpg	99
1890.385	0.856	856.3	test	Phase3	test/STIM_003.jpg	100
1893.683	0.734	734.1	test	Phase3	test/STIM_004.jpg	100
1897.533	0.76	759.9	test	Phase3	test/STIM_004.jpg	100
1901.332	0.834	833.9	test	Phase3	test/STIM_004.jpg	99
1904.195	0.919	918.9	test	Phase3	test/STIM_005.jpg	99
1908.067	1.04	1040.3	test	Phase3	test/STIM_005.jpg	99
1913.103	0.932	932.2	test	Phase3	test/STIM_005.jpg	100
1917.991	0.835	835.0	test	Phase3	test/STIM_006.jpg	100
1922.564	1.279	1279.0	test	Phase3	test/STIM_006.jpg	100
1927.139	1.13	1130.5	test	Phase3	test/STIM_006.jpg	99
1931.464	0.889	888.7	test	Phase3	test/STIM_007.jpg	100
1936.134	1.259	1258.7	test	Phase3	test/STIM_007.jpg	99
1939.704	1.185	1184.6	test	Phase3	test/STIM_007.jpg	100
1944.485	0.862	862.4	test	Phase3	test/STIM_008.jpg	100
1948.803	0.966	966.2	test	Phase3	test/STIM_008.jpg	100
1953.489	0.894	894.2	test	Phase3	test/STIM_008.jpg	100
1957.179	1.088	1088.5	test	Phase3	test/STIM_009.jpg	100
1961.857	1.272	1271.6	test	Phase3	test/STIM_009.jpg	100
1966.361	1.312	1312.2	test	Phase3	test/STIM_009.jpg	100
1970.793	0.953	953.4	test	Phase3	test/STIM_010.jpg	99
1973.927	0.919	918.9	test	Phase3	test/STIM_010.jpg	100
1977.555	1.263	1262.9	test	Phase3	test/STIM_010.jpg	99
1981.806	0.776	775.9	test	Phase3	test/STIM_011.jpg	99
1984.735	1.247	1246.9	test	Phase3	test/STIM_011.jpg	100
1989.538	0.896	896.5	test	Phase3	test/STIM_011.jpg	100
1992.494	0.769	769.0	test	Phase3	test/STIM_012.jpg	100
1996.719	1.029	1028.8	test	Phase3	test/STIM_012.jpg	100
2001.269	1.075	1075.1	test	Phase3	test/STIM_012.jpg	100
2005.275	1.252	1251.9	test	Phase3	test/STIM_013.jpg	100
2009.399	0.795	795.2	test	Phase3	test/STIM_013.jpg	99
2012.256	0.812	812.1	test	Phase3	test/STIM_013.jpg	99
2015.687	1.002	1002.0	test	Phase3	test/STIM_014.jpg	100
2020.407	0.708	707.9	test	Phase3	test/STIM_014.jpg	100
2024.041	0.947	947.0	test	Phase3	test/STIM_014.jpg	99
2028.402	1.106	1106.3	test	Phase3	test/STIM_015.jpg	100
2032.407	0.953	952.7	test	Phase3	test/STIM_015.jpg	99
2035.365	1.251	1250.9	test	Phase3	test/STIM_015.jpg	100
2040.429	0.779	779.2	test	Phase3	test/STIM_016.jpg	100
2045.07	0.905	905.3	test	Phase3	test/STIM_016.jpg	100
2049.133	0.941	940.9	test	Phase3	test/STIM_016.jpg	100
2052.414	0.854	853.9	test	Phase3	test/STIM_017.jpg	100
2055.637	1.199	1199.4	test	Phase3	test/STIM_017.jpg	100
2060.463	0.677	677.1	test	Phase3	test/STIM_017.jpg	99
2063.602	1.228	1228.5	test	Phase3	test/STIM_018.jpg	100
2068.106	1.225	1225.2	test	Phase3	test/STIM_018.jpg	100
2071.365	0.858	857.6	test	Phase3	test/STIM_018.jpg	100
2075.821	0.634	633.5	test	Phase3	test/STIM_019.jpg	99
2078.854	0.796	796.2	test	Phase3	test/STIM_019.jpg	99
2081.822	1.109	1109.3	test	Phase3	test/STIM_019.jpg	99
2086.204	0.962	961.5	test	Phase3	test/STIM_020.jpg	100
2089.703	1.347	1346.8	test	Phase3	test/STIM_020.jpg	100
2094.982	1.101	1101.2	test	Phase3	test/STIM_020.jpg	99
2098.684	0.742	742.1	test	Phase3	test/STIM_021.jpg	100
2102.084	0.809	809.3	test	Phase3	test/STIM_021.jpg	100
2106.566	1.24	1239.6	test	Phase3	test/STIM_021.jpg	99
2111.018	0.933	933.3	test	Phase3	test/STIM_022.jpg	100
2115.527	0.984	984.4	test	Phase3	test/STIM_022.jpg	99
2120.297	1.35	1350.2	test	Phase3	test/STIM_022.jpg	99
2124.144	1.073	1073.0	test	Phase3	test/STIM_023.jpg	99
2128.617	0.772	772.4	test	Phase3	test/STIM_023.jpg	99
2133.328	1.07	1070.0	test	Phase3	test/STIM_023.jpg	99
2137.185	0.888	887.9	test	Phase3	test/STIM_024.jpg	99
2140.192	1.342	1342.1	test	Phase3	test/STIM_024.jpg	100
2144.625	0.922	921.8	test	Phase3	test/STIM_024.jpg	99
2149.04	1.284	1284.1	test	Phase3	test/STIM_025.jpg	99
2154.285	1.209	1208.8	test	Phase3	test/STIM_025.jpg	100
2158.499	0.876	875.5	test	Phase3	test/STIM_025.jpg	99
2161.995	0.804	803.9	test	Phase3	test/STIM_026.jpg	100
2165.831	1.028	1028.2	test	Phase3	test/STIM_026.jpg	99
2170.683	0.661	660.9	test	Phase3	test/STIM_026.jpg	100
2174.957	0.913	912.7	test	Phase3	test/STIM_027.jpg	99
2179.436	0.956	955.8	test	Phase3	test/STIM_027.jpg	99
2184.0	0.748	748.2	test	Phase3	test/STIM_027.jpg	99
2188.133	0.877	876.8	test	Phase3	test/STIM_028.jpg	99
2192.495	1.171	1171.2	test	Phase3	test/STIM_028.jpg	100
2196.49	0.91	910.1	test	Phase3	test/STIM_028.jpg	100
2199.551	0.66	659.8	test	Phase3	test/STIM_029.jpg	99
2202.466	1.074	1074.1	test	Phase3	test/STIM_029.jpg	99
2206.812	1.135	1135.4	test	Phase3	test/STIM_029.jpg	100
