onset	duration	response_time_ms	trial_type	learning_stage	stimulus	response_port
0.0	2.203	2203.4	navigation	Trial1	navigation/STIM_000.jpg	100
6.126	3.086	3085.7	navigation	Trial1	navigation/STIM_000.jpg	100
13.097	3.564	3564.5	navigation	Trial1	navigation/STIM_000.jpg	100
20.23	1.622	1622.1	navigation	Trial1	navigation/STIM_000.jpg	99
25.917	2.53	2530.5	navigation	Trial1	navigation/STIM_000.jpg	99
31.761	3.052	3051.8	navigation	Trial1	navigation/STIM_000.jpg	100
39.136	4.188	4188.1	navigation	Trial1	navigation/STIM_001.jpg	99
46.404	2.915	2915.2	navigation	Trial1	navigation/STIM_001.jpg	100
53.8	2.902	2901.8	navigation	Trial1	navigation/STIM_001.jpg	100
61.074	1.81	1809.7	navigation	Trial1	navigation/STIM_001.jpg	99
65.215	2.955	2955.1	navigation	Trial1	navigation/STIM_001.jpg	100
72.334	1.757	1757.2	navigation	Trial1	navigation/STIM_001.jpg	100
77.869	1.933	1933.4	navigation	Trial1	navigation/STIM_002.jpg	99
82.99	2.294	2294.0	navigation	Trial1	navigation/STIM_002.jpg	100
88.532	1.81	1810.1	navigation	Trial1	navigation/STIM_002.jpg	99
92.745	3.551	3550.7	navigation	Trial1	navigation/STIM_002.jpg	99
99.489	2.648	2647.6	navigation	Trial1	navigation/STIM_002.jpg	100
105.449	1.323	1323.2	navigation	Trial1	navigation/STIM_002.jpg	100
108.998	3.967	3966.9	navigation	Trial1	navigation/STIM_003.jpg	99
115.907	2.224	2223.6	navigation	Trial1	navigation/STIM_003.jpg	99
121.385	2.227	2227.1	navigation	Trial1	navigation/STIM_003.jpg	99
126.148	2.521	2520.9	navigation	Trial1	navigation/STIM_003.jpg	100
132.513	1.405	1404.8	navigation	Trial1	navigation/STIM_003.jpg	100
136.403	1.69	1689.7	navigation	Trial1	navigation/STIM_003.jpg	99
140.953	2.294	2294.1	navigation	Trial1	navigation/STIM_004.jpg	99
147.192	3.96	3959.7	navigation	Trial1	navigation/STIM_004.jpg	99
154.554	2.448	2447.5	navigation	Trial1	navigation/STIM_004.jpg	99
160.257	2.253	2253.0	navigation	Trial1	navigation/STIM_004.jpg	100
166.241	3.328	3328.1	navigation	Trial1	navigation/STIM_004.jpg	99
173.516	2.304	2304.3	navigation	Trial1	navigation/STIM_004.jpg	99
179.445	3.552	3551.9	navigation	Trial1	navigation/STIM_005.jpg	99
186.221	2.375	2374.9	navigation	Trial1	navigation/STIM_005.jpg	99
192.106	1.593	1593.1	navigation	Trial1	navigation/STIM_005.jpg	100
197.395	1.584	1583.7	navigation	Trial1	navigation/STIM_005.jpg	99
202.945	2.001	2000.5	navigation	Trial1	navigation/STIM_005.jpg	99
208.207	2.876	2876.3	navigation	Trial1	navigation/STIM_005.jpg	100
214.827	1.758	1758.1	navigation	Trial1	navigation/STIM_006.jpg	100
220.449	3.999	3999.0	navigation	Trial1	navigation/STIM_006.jpg	100
228.355	2.909	2909.4	navigation	Trial1	navigation/STIM_006.jpg	99
234.682	2.27	2269.9	navigation	Trial1	navigation/STIM_006.jpg	99
239.442	2.414	2414.5	navigation	Trial1	navigation/STIM_006.jpg	99
245.869	2.775	2774.7	navigation	Trial1	navigation/STIM_006.jpg	100
251.321	3.309	3309.1	navigation	Trial1	navigation/STIM_007.jpg	99
258.513	2.644	2644.1	navigation	Trial1	navigation/STIM_007.jpg	100
265.533	2.126	2126.2	navigation	Trial1	navigation/STIM_007.jpg	99
271.951	2.204	2203.5	navigation	Trial1	navigation/STIM_007.jpg	100
278.323	2.703	2703.0	navigation	Trial1	navigation/STIM_007.jpg	99
283.959	2.903	2903.1	navigation	Trial1	navigation/STIM_007.jpg	99
289.576	2.553	2553.0	navigation	Trial1	navigation/STIM_008.jpg	99
296.206	3.787	3787.3	navigation	Trial1	navigation/STIM_008.jpg	100
303.989	1.956	1955.5	navigation	Trial1	navigation/STIM_008.jpg	100
310.234	1.79	1790.4	navigation	Trial1	navigation/STIM_008.jpg	100
314.332	2.919	2918.8	navigation	Trial1	navigation/STIM_008.jpg	99
321.301	2.279	2279.3	navigation	Trial1	navigation/STIM_008.jpg	100
326.25	1.72	1720.2	navigation	Trial1	navigation/STIM_009.jpg	99
331.295	1.812	1812.5	navigation	Trial1	navigation/STIM_009.jpg	99
337.001	3.25	3250.5	navigation	Trial1	navigation/STIM_009.jpg	100
343.802	2.267	2267.0	navigation	Trial1	navigation/STIM_009.jpg	99
348.833	2.716	2716.0	navigation	Trial1	navigation/STIM_009.jpg	99
355.472	2.812	2811.5	navigation	Trial1	navigation/STIM_009.jpg	99
362.453	1.922	1921.9	navigation	Trial1	navigation/STIM_010.jpg	100
368.658	2.827	2826.8	navigation	Trial1	navigation/STIM_010.jpg	100
373.994	3.79	3789.5	navigation	Trial1	navigation/STIM_010.jpg	99
380.743	2.864	2864.0	navigation	Trial1	navigation/STIM_010.jpg	100
387.708	2.032	2032.4	navigation	Trial1	navigation/STIM_010.jpg	100
393.169	1.866	1865.8	navigation	Trial1	navigation/STIM_010.jpg	99
398.104	3.786	3786.5	navigation	Trial1	navigation/STIM_011.jpg	99
405.631	2.596	2596.1	navigation	Trial1	navigation/STIM_011.jpg	100
411.86	2.536	2535.6	navigation	Trial1	navigation/STIM_011.jpg	100
417.61	3.56	3560.2	navigation	Trial1	navigation/STIM_011.jpg	100
424.303	2.134	2134.1	navigation	Trial1	navigation/STIM_011.jpg	99
429.839	1.617	1616.9	navigation	Trial1	navigation/STIM_011.jpg	99
434.886	0.853	853.3	pointing	Trial1	pointing/STIM_000.jpg	100
438.677	0.84	840.2	pointing	Trial1	pointing/STIM_000.jpg	99
441.669	1.105	1104.7	pointing	Trial1	pointing/STIM_000.jpg	99
445.375	0.738	738.3	pointing	Trial1	pointing/STIM_000.jpg	100
450.2	0.929	928.8	pointing	Trial1	pointing/STIM_000.jpg	99
453.78	1.057	1057.0	pointing	Trial1	pointing/STIM_000.jpg	100
457.096	1.229	1229.4	pointing	Trial1	pointing/STIM_001.jpg	100
460.649	0.873	873.1	pointing	Trial1	pointing/STIM_001.jpg	99
464.06	0.935	935.3	pointing	Trial1	pointing/STIM_001.jpg	100
469.059	1.174	1173.6	pointing	Trial1	pointing/STIM_001.jpg	100
474.121	0.971	970.6	pointing	Trial1	pointing/STIM_001.jpg	99
477.484	0.813	812.7	pointing	Trial1	pointing/STIM_001.jpg	99
481.416	0.906	905.6	pointing	Trial1	pointing/STIM_002.jpg	99
485.997	0.703	703.4	pointing	Trial1	pointing/STIM_002.jpg	99
490.678	0.695	695.0	pointing	Trial1	pointing/STIM_002.jpg	100
494.451	1.04	1040.0	pointing	Trial1	pointing/STIM_002.jpg	100
499.032	0.789	789.1	pointing	Trial1	pointing/STIM_002.jpg	99
503.866	1.168	1168.2	pointing	Trial1	pointing/STIM_002.jpg	99
507.644	1.129	1129.4	pointing	Trial1	pointing/STIM_003.jpg	99
511.346	0.773	772.8	pointing	Trial1	pointing/STIM_003.jpg	100
515.46	0.696	695.8	pointing	Trial1	pointing/STIM_003.jpg	100
519.044	0.932	931.5	pointing	Trial1	pointing/STIM_003.jpg	100
522.678	0.953	952.7	pointing	Trial1	pointing/STIM_003.jpg	100
526.391	1.238	1238.3	pointing	Trial1	pointing/STIM_003.jpg	99
531.18	1.15	1150.1	pointing	Trial1	pointing/STIM_004.jpg	100
536.195	1.154	1153.6	pointing	Trial1	pointing/STIM_004.jpg	100
540.269	1.038	1038.4	pointing	Trial1	pointing/STIM_004.jpg	99
544.607	1.079	1079.2	pointing	Trial1	pointing/STIM_004.jpg	100
548.534	0.962	961.6	pointing	Trial1	pointing/STIM_004.jpg	100
552.229	0.697	696.8	pointing	Trial1	pointing/STIM_004.jpg	100
556.521	1.275	1275.0	pointing	Trial1	pointing/STIM_005.jpg	100
560.381	0.938	937.8	pointing	Trial1	pointing/STIM_005.jpg	99
564.076	1.172	1172.0	pointing	Trial1	pointing/STIM_005.jpg	99
569.38	0.7	699.9	pointing	Trial1	pointing/STIM_005.jpg	99
573.999	1.102	1102.2	pointing	Trial1	pointing/STIM_005.jpg	100
579.055	1.058	1057.5	pointing	Trial1	pointing/STIM_005.jpg	100
584.046	0.78	780.0	pointing	Trial1	pointing/STIM_006.jpg	100
587.695	1.008	1008.1	pointing	Trial1	pointing/STIM_006.jpg	100
591.49	0.929	929.2	pointing	Trial1	pointing/STIM_006.jpg	99
594.622	0.946	945.8	pointing	Trial1	pointing/STIM_006.jpg	99
598.73	0.742	741.9	pointing	Trial1	pointing/STIM_006.jpg	99
601.664	1.127	1127.1	pointing	Trial1	pointing/STIM_006.jpg	100
605.251	1.072	1071.8	pointing	Trial1	pointing/STIM_007.jpg	100
609.472	0.842	842.5	pointing	Trial1	pointing/STIM_007.jpg	100
614.169	1.246	1246.5	pointing	Trial1	pointing/STIM_007.jpg	100
618.249	0.778	777.6	pointing	Trial1	pointing/STIM_007.jpg	100
621.165	0.776	776.5	pointing	Trial1	pointing/STIM_007.jpg	99
624.625	1.217	1216.8	pointing	Trial1	pointing/STIM_007.jpg	99
629.428	1.186	1185.6	pointing	Trial1	pointing/STIM_008.jpg	99
633.536	0.998	997.5	pointing	Trial1	pointing/STIM_008.jpg	99
637.083	1.118	1117.5	pointing	Trial1	pointing/STIM_008.jpg	100
640.592	1.105	1104.8	pointing	Trial1	pointing/STIM_008.jpg	99
644.2	0.859	858.6	pointing	Trial1	pointing/STIM_008.jpg	100
647.947	1.017	1017.3	pointing	Trial1	pointing/STIM_008.jpg	100
652.977	0.722	721.8	pointing	Trial1	pointing/STIM_009.jpg	100
656.429	1.061	1060.9	pointing	Trial1	pointing/STIM_009.jpg	100
660.585	0.874	874.0	pointing	Trial1	pointing/STIM_009.jpg	99
663.965	0.869	869.0	pointing	Trial1	pointing/STIM_009.jpg	99
668.387	0.778	778.5	pointing	Trial1	pointing/STIM_009.jpg	100
672.25	0.882	882.5	pointing	Trial1	pointing/STIM_009.jpg	99
675.583	1.227	1227.3	pointing	Trial1	pointing/STIM_010.jpg	100
679.348	0.701	700.7	pointing	Trial1	pointing/STIM_010.jpg	100
682.414	0.882	882.3	pointing	Trial1	pointing/STIM_010.jpg	99
686.212	0.891	890.8	pointing	Trial1	pointing/STIM_010.jpg	100
689.879	0.755	754.7	pointing	Trial1	pointing/STIM_010.jpg	99
693.581	0.79	789.8	pointing	Trial1	pointing/STIM_010.jpg	99
697.215	1.127	1127.0	pointing	Trial1	pointing/STIM_011.jpg	100
701.27	1.111	1110.9	pointing	Trial1	pointing/STIM_011.jpg	99
706.544	1.015	1015.4	pointing	Trial1	pointing/STIM_011.jpg	99
711.721	1.174	1174.2	pointing	Trial1	pointing/STIM_011.jpg	99
715.631	1.143	1143.2	pointing	Trial1	pointing/STIM_011.jpg	100
720.662	0.935	935.4	pointing	Trial1	pointing/STIM_011.jpg	99
725.443	2.583	2582.8	navigation	Trial2	navigation/STIM_000.jpg	100
730.682	1.95	1950.4	navigation	Trial2	navigation/STIM_000.jpg	99
735.44	2.375	2375.1	navigation	Trial2	navigation/STIM_000.jpg	100
740.596	1.49	1490.4	navigation	Trial2	navigation/STIM_000.jpg	100
746.279	2.137	2136.8	navigation	Trial2	navigation/STIM_000.jpg	100
751.286	2.06	2059.6	navigation	Trial2	navigation/STIM_000.jpg	99
756.273	3.483	3483.3	navigation	Trial2	navigation/STIM_001.jpg	100
764.177	2.866	2866.2	navigation	Trial2	navigation/STIM_001.jpg	99
771.239	2.198	2198.3	navigation	Trial2	navigation/STIM_001.jpg	100
777.127	2.464	2463.6	navigation	Trial2	navigation/STIM_001.jpg	99
783.622	2.34	2340.3	navigation	Trial2	navigation/STIM_001.jpg	100
789.06	2.949	2948.6	navigation	Trial2	navigation/STIM_001.jpg	99
796.333	1.746	1746.1	navigation	Trial2	navigation/STIM_002.jpg	100
800.476	2.908	2908.2	navigation	Trial2	navigation/STIM_002.jpg	100
807.686	1.38	1380.5	navigation	Trial2	navigation/STIM_002.jpg	100
813.174	1.585	1584.9	navigation	Trial2	navigation/STIM_002.jpg	99
818.023	1.704	1703.8	navigation	Trial2	navigation/STIM_002.jpg	99
822.715	1.487	1487.1	navigation	Trial2	navigation/STIM_002.jpg	100
828.43	2.843	2843.1	navigation	Trial2	navigation/STIM_003.jpg	100
834.055	2.167	2166.6	navigation	Trial2	navigation/STIM_003.jpg	100
840.037	2.383	2383.1	navigation	Trial2	navigation/STIM_003.jpg	99
844.917	1.331	1330.8	navigation	Trial2	navigation/STIM_003.jpg	99
850.432	2.183	2183.4	navigation	Trial2	navigation/STIM_003.jpg	100
855.191	1.9	1900.1	navigation	Trial2	navigation/STIM_003.jpg	100
861.378	2.297	2297.4	navigation	Trial2	navigation/STIM_004.jpg	99
867.39	2.291	2291.2	navigation	Trial2	navigation/STIM_004.jpg	99
872.115	3.046	3046.3	navigation	Trial2	navigation/STIM_004.jpg	99
879.3	2.016	2016.3	navigation	Trial2	navigation/STIM_004.jpg	99
884.563	1.228	1228.4	navigation	Trial2	navigation/STIM_004.jpg	99
889.377	2.892	2891.8	navigation	Trial2	navigation/STIM_004.jpg	99
895.173	1.581	1581.0	navigation	Trial2	navigation/STIM_005.jpg	100
899.824	2.75	2749.9	navigation	Trial2	navigation/STIM_005.jpg	99
906.36	2.434	2434.3	navigation	Trial2	navigation/STIM_005.jpg	99
911.822	1.46	1460.1	navigation	Trial2	navigation/STIM_005.jpg	99
917.131	1.977	1976.8	navigation	Trial2	navigation/STIM_005.jpg	100
921.628	1.473	1473.3	navigation	Trial2	navigation/STIM_005.jpg	100
926.629	2.417	2417.0	navigation	Trial2	navigation/STIM_006.jpg	99
932.818	2.983	2982.8	navigation	Trial2	navigation/STIM_006.jpg	99
940.219	1.666	1665.7	navigation	Trial2	navigation/STIM_006.jpg	100
946.024	1.791	1790.7	navigation	Trial2	navigation/STIM_006.jpg	100
950.151	2.237	2237.1	navigation	Trial2	navigation/STIM_006.jpg	99
954.84	2.358	2357.7	navigation	Trial2	navigation/STIM_006.jpg	99
960.357	3.124	3124.2	navigation	Trial2	navigation/STIM_007.jpg	100
967.002	1.808	1808.5	navigation	Trial2	navigation/STIM_007.jpg	99
971.125	1.575	1574.9	navigation	Trial2	navigation/STIM_007.jpg	99
976.334	2.108	2107.8	navigation	Trial2	navigation/STIM_007.jpg	99
981.949	1.248	1247.9	navigation	Trial2	navigation/STIM_007.jpg	100
987.205	2.979	2978.8	navigation	Trial2	navigation/STIM_007.jpg	100
993.196	2.268	2268.0	navigation	Trial2	navigation/STIM_008.jpg	100
998.719	2.842	2842.4	navigation	Trial2	navigation/STIM_008.jpg	100
1004.611	3.186	3186.5	navigation	Trial2	navigation/STIM_008.jpg	100
1011.625	2.654	2653.5	navigation	Trial2	navigation/STIM_008.jpg	100
1018.539	1.747	1747.0	navigation	Trial2	navigation/STIM_008.jpg	99
1023.324	1.912	1911.9	navigation	Trial2	navigation/STIM_008.jpg	99
1028.228	2.596	2596.0	navigation	Trial2	navigation/STIM_009.jpg	100
1034.889	1.976	1976.0	navigation	Trial2	navigation/STIM_009.jpg	99
1039.623	1.456	1456.0	navigation	Trial2	navigation/STIM_009.jpg	99
1045.261	1.561	1560.6	navigation	Trial2	navigation/STIM_009.jpg	100
1050.367	2.238	2238.4	navigation	Trial2	navigation/STIM_009.jpg	100
1055.615	2.489	2489.2	navigation	Trial2	navigation/STIM_009.jpg	99
1061.511	2.189	2189.0	navigation	Trial2	navigation/STIM_010.jpg	99
1067.388	1.863	1863.2	navigation	Trial2	navigation/STIM_010.jpg	99
1072.941	1.557	1557.4	navigation	Trial2	navigation/STIM_010.jpg	100
1077.897	2.756	2756.3	navigation	Trial2	navigation/STIM_010.jpg	100
1084.749	2.223	2222.7	navigation	Trial2	navigation/STIM_010.jpg	100
1090.06	1.603	1603.3	navigation	Trial2	navigation/STIM_010.jpg	99
1094.926	1.529	1528.9	navigation	Trial2	navigation/STIM_011.jpg	100
1100.212	1.658	1657.5	navigation	Trial2	navigation/STIM_011.jpg	99
1104.358	1.814	1814.2	navigation	Trial2	navigation/STIM_011.jpg	99
1108.791	2.821	2821.0	navigation	Trial2	navigation/STIM_011.jpg	99
1115.433	2.331	2331.3	navigation	Trial2	navigation/STIM_011.jpg	100
1121.692	2.944	2943.8	navigation	Trial2	navigation/STIM_011.jpg	100
1127.561	1.272	1272.4	pointing	Trial2	pointing/STIM_000.jpg	99
1131.124	0.788	788.0	pointing	Trial2	pointing/STIM_000.jpg	99
1135.147	1.129	1128.9	pointing	Trial2	pointing/STIM_000.jpg	99
1139.76	0.788	788.0	pointing	Trial2	pointing/STIM_000.jpg	99
1142.725	0.915	915.1	pointing	Trial2	pointing/STIM_000.jpg	99
1147.638	0.818	817.7	pointing	Trial2	pointing/STIM_000.jpg	99
1151.984	0.894	894.0	pointing	Trial2	pointing/STIM_001.jpg	100
1155.602	1.254	1254.4	pointing	Trial2	pointing/STIM_001.jpg	99
1160.62	0.701	701.0	pointing	Trial2	pointing/STIM_001.jpg	99
1164.114	1.088	1087.6	pointing	Trial2	pointing/STIM_001.jpg	100
1168.355	0.685	685.3	pointing	Trial2	pointing/STIM_001.jpg	99
1172.804	1.1	1100.2	pointing	Trial2	pointing/STIM_001.jpg	99
1177.116	0.723	722.6	pointing	Trial2	pointing/STIM_002.jpg	99
1181.294	1.134	1134.3	pointing	Trial2	pointing/STIM_002.jpg	100
1184.881	1.185	1184.6	pointing	Trial2	pointing/STIM_002.jpg	100
1190.037	0.831	831.3	pointing	Trial2	pointing/STIM_002.jpg	99
1193.362	0.696	695.6	pointing	Trial2	pointing/STIM_002.jpg	100
1197.641	0.858	858.3	pointing	Trial2	pointing/STIM_002.jpg	100
1201.291	1.013	1012.9	pointing	Trial2	pointing/STIM_003.jpg	99
1206.123	1.148	1147.8	pointing	Trial2	pointing/STIM_003.jpg	100
1209.869	0.841	840.9	pointing	Trial2	pointing/STIM_003.jpg	100
1213.204	1.193	1192.8	pointing	Trial2	pointing/STIM_003.jpg	100
1216.944	0.968	967.8	pointing	Trial2	pointing/STIM_003.jpg	99
1221.634	1.164	1164.1	pointing	Trial2	pointing/STIM_003.jpg	100
1224.995	0.942	941.9	pointing	Trial2	pointing/STIM_004.jpg	100
1228.586	0.825	824.9	pointing	Trial2	pointing/STIM_004.jpg	99
1232.805	0.836	835.7	pointing	Trial2	pointing/STIM_004.jpg	100
1237.44	0.88	880.4	pointing	Trial2	pointing/STIM_004.jpg	99
1241.912	0.755	754.8	pointing	Trial2	pointing/STIM_004.jpg	100
1244.943	0.902	902.0	pointing	Trial2	pointing/STIM_004.jpg	100
1249.892	1.105	1105.0	pointing	Trial2	pointing/STIM_005.jpg	100
1253.954	1.274	1274.0	pointing	Trial2	pointing/STIM_005.jpg	100
1258.47	1.234	1234.5	pointing	Trial2	pointing/STIM_005.jpg	100
1262.668	0.755	754.7	pointing	Trial2	pointing/STIM_005.jpg	99
1266.729	0.741	740.6	pointing	Trial2	pointing/STIM_005.jpg	100
1271.324	0.775	775.1	pointing	Trial2	pointing/STIM_005.jpg	99
1275.293	0.896	895.9	pointing	Trial2	pointing/STIM_006.jpg	99
1278.544	1.085	1084.7	pointing	Trial2	pointing/STIM_006.jpg	99
1282.299	0.759	759.3	pointing	Trial2	pointing/STIM_006.jpg	99
1285.833	0.797	797.1	pointing	Trial2	pointing/STIM_006.jpg	99
1290.732	1.254	1254.0	pointing	Trial2	pointing/STIM_006.jpg	100
1295.291	1.129	1129.4	pointing	Trial2	pointing/STIM_006.jpg	100
1299.495	0.806	806.5	pointing	Trial2	pointing/STIM_007.jpg	100
1303.677	1.092	1092.4	pointing	Trial2	pointing/STIM_007.jpg	99
1306.991	0.862	861.7	pointing	Trial2	pointing/STIM_007.jpg	99
1311.703	1.102	1101.7	pointing	Trial2	pointing/STIM_007.jpg	100
1315.683	0.991	991.1	pointing	Trial2	pointing/STIM_007.jpg	100
1320.578	1.265	1265.3	pointing	Trial2	pointing/STIM_007.jpg	100
1325.914	1.208	1207.6	pointing	Trial2	pointing/STIM_008.jpg	99
1331.021	1.152	1152.3	pointing	Trial2	pointing/STIM_008.jpg	99
1335.159	0.926	926.4	pointing	Trial2	pointing/STIM_008.jpg	100
1339.684	0.905	904.7	pointing	Trial2	pointing/STIM_008.jpg	99
1344.737	0.779	779.1	pointing	Trial2	pointing/STIM_008.jpg	100
1347.735	1.214	1214.2	pointing	Trial2	pointing/STIM_008.jpg	100
1351.456	1.047	1047.2	pointing	Trial2	pointing/STIM_009.jpg	100
1354.72	1.087	1087.0	pointing	Trial2	pointing/STIM_009.jpg	100
1358.205	0.828	828.0	pointing	Trial2	pointing/STIM_009.jpg	99
1362.6	0.905	905.0	pointing	Trial2	pointing/STIM_009.jpg	100
1365.702	0.953	952.9	pointing	Trial2	pointing/STIM_009.jpg	100
1370.024	1.059	1058.7	pointing	Trial2	pointing/STIM_009.jpg	99
1374.5	1.053	1052.7	pointing	Trial2	pointing/STIM_010.jpg	99
1378.779	1.283	1283.0	pointing	Trial2	pointing/STIM_010.jpg	100
1383.438	1.265	1265.0	pointing	Trial2	pointing/STIM_010.jpg	99
1387.253	0.85	849.6	pointing	Trial2	pointing/STIM_010.jpg	100
1390.395	0.797	796.8	pointing	Trial2	pointing/STIM_010.jpg	100
1394.509	1.027	1027.1	pointing	Trial2	pointing/STIM_010.jpg	99
1398.551	1.184	1183.9	pointing	Trial2	pointing/STIM_011.jpg	99
1402.467	1.14	1140.3	pointing	Trial2	pointing/STIM_011.jpg	99
1406.846	0.96	960.3	pointing	Trial2	pointing/STIM_011.jpg	99
1411.699	0.772	772.2	pointing	Trial2	pointing/STIM_011.jpg	99
1415.298	0.976	976.5	pointing	Trial2	pointing/STIM_011.jpg	99
1419.493	0.917	916.9	pointing	Trial2	pointing/STIM_011.jpg	100
1422.973	1.917	1916.8	navigation	Trial3	navigation/STIM_000.jpg	100
1428.707	1.973	1973.3	navigation	Trial3	navigation/STIM_000.jpg	100
1434.939	1.25	1250.1	navigation	Trial3	navigation/STIM_000.jpg	100
1439.1	2.008	2008.4	navigation	Trial3	navigation/STIM_000.jpg	100
1444.603	1.338	1337.7	navigation	Trial3	navigation/STIM_000.jpg	100
1449.443	2.21	2210.4	navigation	Trial3	navigation/STIM_000.jpg	100
1454.506	2.575	2574.9	navigation	Trial3	navigation/STIM_001.jpg	99
1460.853	2.238	2238.5	navigation	Trial3	navigation/STIM_001.jpg	100
1467.267	2.425	2425.2	navigation	Trial3	navigation/STIM_001.jpg	99
1473.207	2.025	2025.1	navigation	Trial3	navigation/STIM_001.jpg	99
1479.473	2.84	2840.0	navigation	Trial3	navigation/STIM_001.jpg	99
1485.802	2.389	2389.0	navigation	Trial3	navigation/STIM_001.jpg	99
1492.589	2.564	2563.9	navigation	Trial3	navigation/STIM_002.jpg	99
1499.549	1.44	1440.0	navigation	Trial3	navigation/STIM_002.jpg	100
1504.121	1.766	1765.9	navigation	Trial3	navigation/STIM_002.jpg	99
1508.435	2.25	2249.9	navigation	Trial3	navigation/STIM_002.jpg	100
1515.006	2.516	2516.4	navigation	Trial3	navigation/STIM_002.jpg	100
1520.431	1.561	1561.1	navigation	Trial3	navigation/STIM_002.jpg	100
1525.414	2.604	2603.8	navigation	Trial3	navigation/STIM_003.jpg	100
1532.103	1.594	1594.1	navigation	Trial3	navigation/STIM_003.jpg	99
1536.696	1.881	1881.0	navigation	Trial3	navigation/STIM_003.jpg	100
1542.827	2.897	2896.8	navigation	Trial3	navigation/STIM_003.jpg	99
1548.713	1.97	1969.9	navigation	Trial3	navigation/STIM_003.jpg	99
1554.042	2.536	2536.5	navigation	Trial3	navigation/STIM_003.jpg	100
1560.058	2.994	2993.5	navigation	Trial3	navigation/STIM_004.jpg	99
1566.225	2.186	2186.3	navigation	Trial3	navigation/STIM_004.jpg	99
1572.265	1.309	1309.4	navigation	Trial3	navigation/STIM_004.jpg	100
1577.332	1.284	1284.5	navigation	Trial3	navigation/STIM_004.jpg	99
1581.796	2.228	2228.1	navigation	Trial3	navigation/STIM_004.jpg	99
1586.514	1.391	1391.0	navigation	Trial3	navigation/STIM_004.jpg	100
1592.116	2.344	2343.9	navigation	Trial3	navigation/STIM_005.jpg	100
1596.921	2.801	2800.7	navigation	Trial3	navigation/STIM_005.jpg	99
1602.662	2.109	2109.3	navigation	Trial3	navigation/STIM_005.jpg	99
1608.794	2.263	2263.2	navigation	Trial3	navigation/STIM_005.jpg	99
1615.227	2.775	2774.8	navigation	Trial3	navigation/STIM_005.jpg	100
1621.58	2.402	2401.8	navigation	Trial3	navigation/STIM_005.jpg	100
1628.18	1.645	1644.7	navigation	Trial3	navigation/STIM_006.jpg	99
1632.619	2.598	2598.0	navigation	Trial3	navigation/STIM_006.jpg	99
1639.346	2.987	2987.1	navigation	Trial3	navigation/STIM_006.jpg	99
1646.584	2.345	2345.2	navigation	Trial3	navigation/STIM_006.jpg	100
1651.656	1.822	1822.3	navigation	Trial3	navigation/STIM_006.jpg	99
1657.545	2.93	2929.6	navigation	Trial3	navigation/STIM_006.jpg	99
1663.075	1.732	1732.2	navigation	Trial3	navigation/STIM_007.jpg	99
1667.909	1.531	1530.6	navigation	Trial3	navigation/STIM_007.jpg	100
1673.521	1.69	1690.2	navigation	Trial3	navigation/STIM_007.jpg	100
1678.308	2.94	2939.6	navigation	Trial3	navigation/STIM_007.jpg	99
1685.123	1.424	1424.0	navigation	Trial3	navigation/STIM_007.jpg	99
1689.527	2.736	2736.5	navigation	Trial3	navigation/STIM_007.jpg	99
1695.756	2.696	2695.5	navigation	Trial3	navigation/STIM_008.jpg	100
1702.85	1.399	1398.6	navigation	Trial3	navigation/STIM_008.jpg	100
1708.214	2.241	2240.8	navigation	Trial3	navigation/STIM_008.jpg	100
1714.2	2.651	2650.8	navigation	Trial3	navigation/STIM_008.jpg	99
1721.245	2.755	2755.0	navigation	Trial3	navigation/STIM_008.jpg	100
1726.629	2.211	2210.8	navigation	Trial3	navigation/STIM_008.jpg	99
1731.26	2.489	2489.3	navigation	Trial3	navigation/STIM_009.jpg	99
1736.606	1.203	1202.6	navigation	Trial3	navigation/STIM_009.jpg	100
1740.268	1.976	1976.1	navigation	Trial3	navigation/STIM_009.jpg	99
1745.18	1.431	1431.2	navigation	Trial3	navigation/STIM_009.jpg	100
1750.21	1.827	1827.0	navigation	Trial3	navigation/STIM_009.jpg	99
1755.779	2.47	2469.9	navigation	Trial3	navigation/STIM_009.jpg	99
1760.755	1.243	1243.4	navigation	Trial3	navigation/STIM_010.jpg	100
1764.574	2.249	2248.8	navigation	Trial3	navigation/STIM_010.jpg	99
1770.082	1.488	1487.9	navigation	Trial3	navigation/STIM_010.jpg	99
1774.607	1.246	1245.8	navigation	Trial3	navigation/STIM_010.jpg	99
1780.012	2.894	2894.4	navigation	Trial3	navigation/STIM_010.jpg	99
1785.574	2.567	2567.4	navigation	Trial3	navigation/STIM_010.jpg	99
1790.725	1.434	1433.8	navigation	Trial3	navigation/STIM_011.jpg	100
1795.834	2.221	2220.6	navigation	Trial3	navigation/STIM_011.jpg	99
1802.275	1.465	1465.1	navigation	Trial3	navigation/STIM_011.jpg	99
1807.756	2.904	2903.5	navigation	Trial3	navigation/STIM_011.jpg	100
1813.973	2.211	2210.8	navigation	Trial3	navigation/STIM_011.jpg	99
1818.652	2.078	2078.3	navigation	Trial3	navigation/STIM_011.jpg	100
1824.605	1.234	1233.9	pointing	Trial3	pointing/STIM_000.jpg	100
1828.131	1.264	1263.8	pointing	Trial3	pointing/STIM_000.jpg	99
1832.328	1.024	1023.8	pointing	Trial3	pointing/STIM_000.jpg	100
1837.178	0.714	714.2	pointing	Trial3	pointing/STIM_000.jpg	100
1841.466	0.943	943.1	pointing	Trial3	pointing/STIM_000.jpg	99
1845.841	0.706	705.6	pointing	Trial3	pointing/STIM_000.jpg	99
1849.192	1.092	1092.4	pointing	Trial3	pointing/STIM_001.jpg	100
1854.185	0.839	839.0	pointing	Trial3	pointing/STIM_001.jpg	100
1859.156	0.937	936.6	pointing	Trial3	pointing/STIM_001.jpg	100
1862.537	0.708	708.0	pointing	Trial3	pointing/STIM_001.jpg	100
1865.394	1.217	1217.1	pointing	Trial3	pointing/STIM_001.jpg	99
1870.117	0.85	849.5	pointing	Trial3	pointing/STIM_001.jpg	100
1873.217	0.981	981.3	pointing	Trial3	pointing/STIM_002.jpg	99
1876.869	1.173	1173.3	pointing	Trial3	pointing/STIM_002.jpg	100
1881.304	0.766	766.0	pointing	Trial3	pointing/STIM_002.jpg	99
1884.673	0.825	825.2	pointing	Trial3	pointing/STIM_002.jpg	100
1889.393	1.067	1066.6	pointing	Trial3	pointing/STIM_002.jpg	100
1893.621	1.0	999.7	pointing	Trial3	pointing/STIM_002.jpg	100
1896.968	0.856	855.8	pointing	Trial3	pointing/STIM_003.jpg	99
1900.159	0.864	863.8	pointing	Trial3	pointing/STIM_003.jpg	100
1903.491	0.932	932.1	pointing	Trial3	pointing/STIM_003.jpg	100
1907.667	0.98	979.6	pointing	Trial3	pointing/STIM_003.jpg	100
1912.628	0.972	972.4	pointing	Trial3	pointing/STIM_003.jpg	99
1916.548	0.724	724.2	pointing	Trial3	pointing/STIM_003.jpg	99
1921.109	0.8	799.8	pointing	Trial3	pointing/STIM_004.jpg	99
1924.735	0.97	970.5	pointing	Trial3	pointing/STIM_004.jpg	99
1928.91	1.108	1108.0	pointing	Trial3	pointing/STIM_004.jpg	100
1933.224	0.901	901.3	pointing	Trial3	pointing/STIM_004.jpg	99
1938.177	0.935	934.7	pointing	Trial3	pointing/STIM_004.jpg	99
1941.279	0.811	811.2	pointing	Trial3	pointing/STIM_004.jpg	100
1944.732	1.043	1042.8	pointing	Trial3	pointing/STIM_005.jpg	99
1949.716	0.93	930.0	pointing	Trial3	pointing/STIM_005.jpg	100
1954.515	0.849	849.1	pointing	Trial3	pointing/STIM_005.jpg	99
1959.171	1.076	1075.7	pointing	Trial3	pointing/STIM_005.jpg	100
1963.657	0.828	828.5	pointing	Trial3	pointing/STIM_005.jpg	100
1968.551	1.205	1205.3	pointing	Trial3	pointing/STIM_005.jpg	100
1973.775	0.976	975.7	pointing	Trial3	pointing/STIM_006.jpg	100
1976.916	1.007	1006.8	pointing	Trial3	pointing/STIM_006.jpg	100
1981.091	1.118	1117.8	pointing	Trial3	pointing/STIM_006.jpg	99
1986.147	1.246	1245.5	pointing	Trial3	pointing/STIM_006.jpg	100
1989.668	0.918	918.2	pointing	Trial3	pointing/STIM_006.jpg	100
1992.869	0.863	863.1	pointing	Trial3	pointing/STIM_006.jpg	99
1996.675	0.81	809.5	pointing	Trial3	pointing/STIM_007.jpg	99
2000.73	0.782	781.9	pointing	Trial3	pointing/STIM_007.jpg	100
2005.245	1.09	1089.5	pointing	Trial3	pointing/STIM_007.jpg	99
2010.076	0.921	920.6	pointing	Trial3	pointing/STIM_007.jpg	99
2013.929	0.777	776.9	pointing	Trial3	pointing/STIM_007.jpg	100
2017.303	0.887	887.3	pointing	Trial3	pointing/STIM_007.jpg	99
2020.862	1.009	1008.8	pointing	Trial3	pointing/STIM_008.jpg	100
2026.01	1.087	1086.9	pointing	Trial3	pointing/STIM_008.jpg	99
2029.426	0.755	755.4	pointing	Trial3	pointing/STIM_008.jpg	99
2034.181	1.236	1236.0	pointing	Trial3	pointing/STIM_008.jpg	100
2038.766	1.078	1078.2	pointing	Trial3	pointing/STIM_008.jpg	100
2042.836	1.099	1099.3	pointing	Trial3	pointing/STIM_008.jpg	99
2047.433	1.264	1264.5	pointing	Trial3	pointing/STIM_009.jpg	99
2051.343	0.952	952.2	pointing	Trial3	pointing/STIM_009.jpg	99
2056.341	1.004	1003.6	pointing	Trial3	pointing/STIM_009.jpg	100
2060.834	1.088	1087.9	pointing	Trial3	pointing/STIM_009.jpg	99
2065.067	0.941	941.3	pointing	Trial3	pointing/STIM_009.jpg	99
2069.567	0.773	773.4	pointing	Trial3	pointing/STIM_009.jpg	99
2073.878	0.771	770.7	pointing	Trial3	pointing/STIM_010.jpg	99
2077.963	0.899	898.7	pointing	Trial3	pointing/STIM_010.jpg	99
2081.444	0.84	840.1	pointing	Trial3	pointing/STIM_010.jpg	99
2085.039	0.687	687.3	pointing	Trial3	pointing/STIM_010.jpg	100
2087.89	0.695	694.8	pointing	Trial3	pointing/STIM_010.jpg	99
2090.866	1.192	1192.1	pointing	Trial3	pointing/STIM_010.jpg	99
2095.208	0.749	749.1	pointing	Trial3	pointing/STIM_011.jpg	99
2099.605	1.215	1214.6	pointing	Trial3	pointing/STIM_011.jpg	100
2104.487	0.83	829.6	pointing	Trial3	pointing/STIM_011.jpg	99
2107.729	0.847	846.9	pointing	Trial3	pointing/STIM_011.jpg	100
2112.569	0.971	971.2	pointing	Trial3	pointing/STIM_011.jpg	99
2116.874	0.719	719.3	pointing	Trial3	pointing/STIM_011.jpg	100
