onset	duration	accuracy_binary	trial_type	learning_stage	stimulus
0.0	2.203	0	navigation	Trial1	navigation/STIM_000.jpg
6.126	3.086	1	navigation	Trial1	navigation/STIM_000.jpg
13.097	3.564	1	navigation	Trial1	navigation/STIM_000.jpg
20.23	1.622	1	navigation	Trial1	navigation/STIM_000.jpg
25.917	2.53	1	navigation	Trial1	navigation/STIM_000.jpg
31.761	3.052	1	navigation	Trial1	navigation/STIM_000.jpg
39.136	4.188	1	navigation	Trial1	navigation/STIM_001.jpg
46.404	2.915	0	navigation	Trial1	navigation/STIM_001.jpg
53.8	2.902	1	navigation	Trial1	navigation/STIM_001.jpg
61.074	1.81	1	navigation	Trial1	navigation/STIM_001.jpg
65.215	2.955	1	navigation	Trial1	navigation/STIM_001.jpg
72.334	1.757	0	navigation	Trial1	navigation/STIM_001.jpg
77.869	1.933	1	navigation	Trial1	navigation/STIM_002.jpg
82.99	2.294	1	navigation	Trial1	navigation/STIM_002.jpg
88.532	1.81	1	navigation	Trial1	navigation/STIM_002.jpg
92.745	3.551	1	navigation	Trial1	navigation/STIM_002.jpg
99.489	2.648	1	navigation	Trial1	navigation/STIM_002.jpg
105.449	1.323	1	navigation	Trial1	navigation/STIM_002.jpg
108.998	3.967	1	navigation	Trial1	navigation/STIM_003.jpg
115.907	2.224	0	navigation	Trial1	navigation/STIM_003.jpg
121.385	2.227	0	navigation	Trial1	navigation/STIM_003.jpg
126.148	2.521	0	navigation	Trial1	navigation/STIM_003.jpg
132.513	1.405	1	navigation	Trial1	navigation/STIM_003.jpg
136.403	1.69	1	navigation	Trial1	navigation/STIM_003.jpg
140.953	2.294	1	navigation	Trial1	navigation/STIM_004.jpg
147.192	3.96	1	navigation	Trial1	navigation/STIM_004.jpg
154.554	2.448	0	navigation	Trial1	navigation/STIM_004.jpg
160.257	2.253	1	navigation	Trial1	navigation/STIM_004.jpg
166.241	3.328	1	navigation	Trial1	navigation/STIM_004.jpg
173.516	2.304	1	navigation	Trial1	navigation/STIM_004.jpg
179.445	3.552	1	navigation	Trial1	navigation/STIM_005.jpg
186.221	2.375	0	navigation	Trial1	navigation/STIM_005.jpg
192.106	1.593	1	navigation	Trial1	navigation/STIM_005.jpg
197.395	1.584	1	navigation	Trial1	navigation/STIM_005.jpg
202.945	2.001	1	navigation	Trial1	navigation/STIM_005.jpg
208.207	2.876	1	navigation	Trial1	navigation/STIM_005.jpg
214.827	1.758	1	navigation	Trial1	navigation/STIM_006.jpg
220.449	3.999	0	navigation	Trial1	navigation/STIM_006.jpg
228.355	2.909	1	navigation	Trial1	navigation/STIM_006.jpg
234.682	2.27	1	navigation	Trial1	navigation/STIM_006.jpg
239.442	2.414	0	navigation	Trial1	navigation/STIM_006.jpg
245.869	2.775	1	navigation	Trial1	navigation/STIM_006.jpg
251.321	3.309	1	navigation	Trial1	navigation/STIM_007.jpg
258.513	2.644	1	navigation	Trial1	navigation/STIM_007.jpg
265.533	2.126	0	navigation	Trial1	navigation/STIM_007.jpg
271.951	2.204	0	navigation	Trial1	navigation/STIM_007.jpg
278.323	2.703	1	navigation	Trial1	navigation/STIM_007.jpg
283.959	2.903	1	navigation	Trial1	navigation/STIM_007.jpg
289.576	2.553	1	navigation	Trial1	navigation/STIM_008.jpg
296.206	3.787	1	navigation	Trial1	navigation/STIM_008.jpg
303.989	1.956	1	navigation	Trial1	navigation/STIM_008.jpg
310.234	1.79	0	navigation	Trial1	navigation/STIM_008.jpg
314.332	2.919	0	navigation	Trial1	navigation/STIM_008.jpg
321.301	2.279	1	navigation	Trial1	navigation/STIM_008.jpg
326.25	1.72	0	navigation	Trial1	navigation/STIM_009.jpg
331.295	1.812	1	navigation	Trial1	navigation/STIM_009.jpg
337.001	3.25	1	navigation	Trial1	navigation/STIM_009.jpg
343.802	2.267	1	navigation	Trial1	navigation/STIM_009.jpg
348.833	2.716	1	navigation	Trial1	navigation/STIM_009.jpg
355.472	2.812	1	navigation	Trial1	navigation/STIM_009.jpg
362.453	1.922	1	navigation	Trial1	navigation/STIM_010.jpg
368.658	2.827	1	navigation	Trial1	navigation/STIM_010.jpg
373.994	3.79	0	navigation	Trial1	navigation/STIM_010.jpg
380.743	2.864	0	navigation	Trial1	navigation/STIM_010.jpg
387.708	2.032	1	navigation	Trial1	navigation/STIM_010.jpg
393.169	1.866	1	navigation	Trial1	navigation/STIM_010.jpg
398.104	3.786	1	navigation	Trial1	navigation/STIM_011.jpg
405.631	2.596	1	navigation	Trial1	navigation/STIM_011.jpg
411.86	2.536	1	navigation	Trial1	navigation/STIM_011.jpg
417.61	3.56	0	navigation	Trial1	navigation/STIM_011.jpg
424.303	2.134	0	navigation	Trial1	navigation/STIM_011.jpg
429.839	1.617	1	navigation	Trial1	navigation/STIM_011.jpg
434.886	0.853	1	pointing	Trial1	pointing/STIM_000.jpg
438.677	0.84	1	pointing	Trial1	pointing/STIM_000.jpg
441.669	1.105	1	pointing	Trial1	pointing/STIM_000.jpg
445.375	0.738	1	pointing	Trial1	pointing/STIM_000.jpg
450.2	0.929	1	pointing	Trial1	pointing/STIM_000.jpg
453.78	1.057	1	pointing	Trial1	pointing/STIM_000.jpg
457.096	1.229	1	pointing	Trial1	pointing/STIM_001.jpg
460.649	0.873	1	pointing	Trial1	pointing/STIM_001.jpg
464.06	0.935	0	pointing	Trial1	pointing/STIM_001.jpg
469.059	1.174	1	pointing	Trial1	pointing/STIM_001.jpg
474.121	0.971	1	pointing	Trial1	pointing/STIM_001.jpg
477.484	0.813	1	pointing	Trial1	pointing/STIM_001.jpg
481.416	0.906	1	pointing	Trial1	pointing/STIM_002.jpg
485.997	0.703	1	pointing	Trial1	pointing/STIM_002.jpg
490.678	0.695	1	pointing	Trial1	pointing/STIM_002.jpg
494.451	1.04	1	pointing	Trial1	pointing/STIM_002.jpg
499.032	0.789	1	pointing	Trial1	pointing/STIM_002.jpg
503.866	1.168	1	pointing	Trial1	pointing/STIM_002.jpg
507.644	1.129	0	pointing	Trial1	pointing/STIM_003.jpg
511.346	0.773	1	pointing	Trial1	pointing/STIM_003.jpg
515.46	0.696	1	pointing	Trial1	pointing/STIM_003.jpg
519.044	0.932	1	pointing	Trial1	pointing/STIM_003.jpg
522.678	0.953	1	pointing	Trial1	pointing/STIM_003.jpg
526.391	1.238	1	pointing	Trial1	pointing/STIM_003.jpg
531.18	1.15	1	pointing	Trial1	pointing/STIM_004.jpg
536.195	1.154	1	pointing	Trial1	pointing/STIM_004.jpg
540.269	1.038	1	pointing	Trial1	pointing/STIM_004.jpg
544.607	1.079	1	pointing	Trial1	pointing/STIM_004.jpg
548.534	0.962	1	pointing	Trial1	pointing/STIM_004.jpg
552.229	0.697	1	pointing	Trial1	pointing/STIM_004.jpg
556.521	1.275	1	pointing	Trial1	pointing/STIM_005.jpg
560.381	0.938	1	pointing	Trial1	pointing/STIM_005.jpg
564.076	1.172	1	pointing	Trial1	pointing/STIM_005.jpg
569.38	0.7	1	pointing	Trial1	pointing/STIM_005.jpg
573.999	1.102	1	pointing	Trial1	pointing/STIM_005.jpg
579.055	1.058	1	pointing	Trial1	pointing/STIM_005.jpg
584.046	0.78	1	pointing	Trial1	pointing/STIM_006.jpg
587.695	1.008	1	pointing	Trial1	pointing/STIM_006.jpg
591.49	0.929	1	pointing	Trial1	pointing/STIM_006.jpg
594.622	0.946	1	pointing	Trial1	pointing/STIM_006.jpg
598.73	0.742	1	pointing	Trial1	pointing/STIM_006.jpg
601.664	1.127	1	pointing	Trial1	pointing/STIM_006.jpg
605.251	1.072	1	pointing	Trial1	pointing/STIM_007.jpg
609.472	0.842	0	pointing	Trial1	pointing/STIM_007.jpg
614.169	1.246	1	pointing	Trial1	pointing/STIM_007.jpg
618.249	0.778	1	pointing	Trial1	pointing/STIM_007.jpg
621.165	0.776	1	pointing	Trial1	pointing/STIM_007.jpg
624.625	1.217	1	pointing	Trial1	pointing/STIM_007.jpg
629.428	1.186	1	pointing	Trial1	pointing/STIM_008.jpg
633.536	0.998	1	pointing	Trial1	pointing/STIM_008.jpg
637.083	1.118	1	pointing	Trial1	pointing/STIM_008.jpg
640.592	1.105	0	pointing	Trial1	pointing/STIM_008.jpg
644.2	0.859	1	pointing	Trial1	pointing/STIM_008.jpg
647.947	1.017	1	pointing	Trial1	pointing/STIM_008.jpg
652.977	0.722	1	pointing	Trial1	pointing/STIM_009.jpg
656.429	1.061	1	pointing	Trial1	pointing/STIM_009.jpg
660.585	0.874	1	pointing	Trial1	pointing/STIM_009.jpg
663.965	0.869	1	pointing	Trial1	pointing/STIM_009.jpg
668.387	0.778	1	pointing	Trial1	pointing/STIM_009.jpg
672.25	0.882	1	pointing	Trial1	pointing/STIM_009.jpg
675.583	1.227	1	pointing	Trial1	pointing/STIM_010.jpg
679.348	0.701	1	pointing	Trial1	pointing/STIM_010.jpg
682.414	0.882	1	pointing	Trial1	pointing/STIM_010.jpg
686.212	0.891	1	pointing	Trial1	pointing/STIM_010.jpg
689.879	0.755	1	pointing	Trial1	pointing/STIM_010.jpg
693.581	0.79	0	pointing	Trial1	pointing/STIM_010.jpg
697.215	1.127	1	pointing	Trial1	pointing/STIM_011.jpg
701.27	1.111	1	pointing	Trial1	pointing/STIM_011.jpg
706.544	1.015	1	pointing	Trial1	pointing/STIM_011.jpg
711.721	1.174	1	pointing	Trial1	pointing/STIM_011.jpg
715.631	1.143	1	pointing	Trial1	pointing/STIM_011.jpg
720.662	0.935	1	pointing	Trial1	pointing/STIM_011.jpg
725.443	2.583	1	navigation	Trial2	navigation/STIM_000.jpg
730.682	1.95	1	navigation	Trial2	navigation/STIM_000.jpg
735.44	2.375	1	navigation	Trial2	navigation/STIM_000.jpg
740.596	1.49	1	navigation	Trial2	navigation/STIM_000.jpg
746.279	2.137	1	navigation	Trial2	navigation/STIM_000.jpg
751.286	2.06	1	navigation	Trial2	navigation/STIM_000.jpg
756.273	3.483	1	navigation	Trial2	navigation/STIM_001.jpg
764.177	2.866	1	navigation	Trial2	navigation/STIM_001.jpg
771.239	2.198	1	navigation	Trial2	navigation/STIM_001.jpg
777.127	2.464	1	navigation	Trial2	navigation/STIM_001.jpg
783.622	2.34	1	navigation	Trial2	navigation/STIM_001.jpg
789.06	2.949	1	navigation	Trial2	navigation/STIM_001.jpg
796.333	1.746	0	navigation	Trial2	navigation/STIM_002.jpg
800.476	2.908	0	navigation	Trial2	navigation/STIM_002.jpg
807.686	1.38	1	navigation	Trial2	navigation/STIM_002.jpg
813.174	1.585	0	navigation	Trial2	navigation/STIM_002.jpg
818.023	1.704	1	navigation	Trial2	navigation/STIM_002.jpg
822.715	1.487	0	navigation	Trial2	navigation/STIM_002.jpg
828.43	2.843	1	navigation	Trial2	navigation/STIM_003.jpg
834.055	2.167	1	navigation	Trial2	navigation/STIM_003.jpg
840.037	2.383	1	navigation	Trial2	navigation/STIM_003.jpg
844.917	1.331	1	navigation	Trial2	navigation/STIM_003.jpg
850.432	2.183	1	navigation	Trial2	navigation/STIM_003.jpg
855.191	1.9	1	navigation	Trial2	navigation/STIM_003.jpg
861.378	2.297	1	navigation	Trial2	navigation/STIM_004.jpg
867.39	2.291	1	navigation	Trial2	navigation/STIM_004.jpg
872.115	3.046	0	navigation	Trial2	navigation/STIM_004.jpg
879.3	2.016	1	navigation	Trial2	navigation/STIM_004.jpg
884.563	1.228	1	navigation	Trial2	navigation/STIM_004.jpg
889.377	2.892	1	navigation	Trial2	navigation/STIM_004.jpg
895.173	1.581	1	navigation	Trial2	navigation/STIM_005.jpg
899.824	2.75	1	navigation	Trial2	navigation/STIM_005.jpg
906.36	2.434	1	navigation	Trial2	navigation/STIM_005.jpg
911.822	1.46	1	navigation	Trial2	navigation/STIM_005.jpg
917.131	1.977	1	navigation	Trial2	navigation/STIM_005.jpg
921.628	1.473	1	navigation	Trial2	navigation/STIM_005.jpg
926.629	2.417	1	navigation	Trial2	navigation/STIM_006.jpg
932.818	2.983	1	navigation	Trial2	navigation/STIM_006.jpg
940.219	1.666	1	navigation	Trial2	navigation/STIM_006.jpg
946.024	1.791	1	navigation	Trial2	navigation/STIM_006.jpg
950.151	2.237	0	navigation	Trial2	navigation/STIM_006.jpg
954.84	2.358	1	navigation	Trial2	navigation/STIM_006.jpg
960.357	3.124	0	navigation	Trial2	navigation/STIM_007.jpg
967.002	1.808	0	navigation	Trial2	navigation/STIM_007.jpg
971.125	1.575	0	navigation	Trial2	navigation/STIM_007.jpg
976.334	2.108	1	navigation	Trial2	navigation/STIM_007.jpg
981.949	1.248	1	navigation	Trial2	navigation/STIM_007.jpg
987.205	2.979	1	navigation	Trial2	navigation/STIM_007.jpg
993.196	2.268	0	navigation	Trial2	navigation/STIM_008.jpg
998.719	2.842	1	navigation	Trial2	navigation/STIM_008.jpg
1004.611	3.186	1	navigation	Trial2	navigation/STIM_008.jpg
1011.625	2.654	1	navigation	Trial2	navigation/STIM_008.jpg
1018.539	1.747	1	navigation	Trial2	navigation/STIM_008.jpg
1023.324	1.912	1	navigation	Trial2	navigation/STIM_008.jpg
1028.228	2.596	1	navigation	Trial2	navigation/STIM_009.jpg
1034.889	1.976	1	navigation	Trial2	navigation/STIM_009.jpg
1039.623	1.456	1	navigation	Trial2	navigation/STIM_009.jpg
1045.261	1.561	0	navigation	Trial2	navigation/STIM_009.jpg
1050.367	2.238	1	navigation	Trial2	navigation/STIM_009.jpg
1055.615	2.489	1	navigation	Trial2	navigation/STIM_009.jpg
1061.511	2.189	1	navigation	Trial2	navigation/STIM_010.jpg
1067.388	1.863	0	navigation	Trial2	navigation/STIM_010.jpg
1072.941	1.557	1	navigation	Trial2	navigation/STIM_010.jpg
1077.897	2.756	1	navigation	Trial2	navigation/STIM_010.jpg
1084.749	2.223	1	navigation	Trial2	navigation/STIM_010.jpg
1090.06	1.603	1	navigation	Trial2	navigation/STIM_010.jpg
1094.926	1.529	1	navigation	Trial2	navigation/STIM_011.jpg
1100.212	1.658	1	navigation	Trial2	navigation/STIM_011.jpg
1104.358	1.814	0	navigation	Trial2	navigation/STIM_011.jpg
1108.791	2.821	0	navigation	Trial2	navigation/STIM_011.jpg
1115.433	2.331	1	navigation	Trial2	navigation/STIM_011.jpg
1121.692	2.944	0	navigation	Trial2	navigation/STIM_011.jpg
1127.561	1.272	1	pointing	Trial2	pointing/STIM_000.jpg
1131.124	0.788	1	pointing	Trial2	pointing/STIM_000.jpg
1135.147	1.129	1	pointing	Trial2	pointing/STIM_000.jpg
1139.76	0.788	1	pointing	Trial2	pointing/STIM_000.jpg
1142.725	0.915	1	pointing	Trial2	pointing/STIM_000.jpg
1147.638	0.818	1	pointing	Trial2	pointing/STIM_000.jpg
1151.984	0.894	1	pointing	Trial2	pointing/STIM_001.jpg
1155.602	1.254	1	pointing	Trial2	pointing/STIM_001.jpg
1160.62	0.701	1	pointing	Trial2	pointing/STIM_001.jpg
1164.114	1.088	1	pointing	Trial2	pointing/STIM_001.jpg
1168.355	0.685	1	pointing	Trial2	pointing/STIM_001.jpg
1172.804	1.1	1	pointing	Trial2	pointing/STIM_001.jpg
1177.116	0.723	1	pointing	Trial2	pointing/STIM_002.jpg
1181.294	1.134	1	pointing	Trial2	pointing/STIM_002.jpg
1184.881	1.185	1	pointing	Trial2	pointing/STIM_002.jpg
1190.037	0.831	1	pointing	Trial2	pointing/STIM_002.jpg
1193.362	0.696	1	pointing	Trial2	pointing/STIM_002.jpg
1197.641	0.858	1	pointing	Trial2	pointing/STIM_002.jpg
1201.291	1.013	1	pointing	Trial2	pointing/STIM_003.jpg
1206.123	1.148	1	pointing	Trial2	pointing/STIM_003.jpg
1209.869	0.841	1	pointing	Trial2	pointing/STIM_003.jpg
1213.204	1.193	1	pointing	Trial2	pointing/STIM_003.jpg
1216.944	0.968	1	pointing	Trial2	pointing/STIM_003.jpg
1221.634	1.164	1	pointing	Trial2	pointing/STIM_003.jpg
1224.995	0.942	1	pointing	Trial2	pointing/STIM_004.jpg
1228.586	0.825	1	pointing	Trial2	pointing/STIM_004.jpg
1232.805	0.836	0	pointing	Trial2	pointing/STIM_004.jpg
1237.44	0.88	1	pointing	Trial2	pointing/STIM_004.jpg
1241.912	0.755	1	pointing	Trial2	pointing/STIM_004.jpg
1244.943	0.902	1	pointing	Trial2	pointing/STIM_004.jpg
1249.892	1.105	1	pointing	Trial2	pointing/STIM_005.jpg
1253.954	1.274	1	pointing	Trial2	pointing/STIM_005.jpg
1258.47	1.234	1	pointing	Trial2	pointing/STIM_005.jpg
1262.668	0.755	1	pointing	Trial2	pointing/STIM_005.jpg
1266.729	0.741	1	pointing	Trial2	pointing/STIM_005.jpg
1271.324	0.775	1	pointing	Trial2	pointing/STIM_005.jpg
1275.293	0.896	0	pointing	Trial2	pointing/STIM_006.jpg
1278.544	1.085	1	pointing	Trial2	pointing/STIM_006.jpg
1282.299	0.759	1	pointing	Trial2	pointing/STIM_006.jpg
1285.833	0.797	1	pointing	Trial2	pointing/STIM_006.jpg
1290.732	1.254	1	pointing	Trial2	pointing/STIM_006.jpg
1295.291	1.129	1	pointing	Trial2	pointing/STIM_006.jpg
1299.495	0.806	1	pointing	Trial2	pointing/STIM_007.jpg
1303.677	1.092	1	pointing	Trial2	pointing/STIM_007.jpg
1306.991	0.862	1	pointing	Trial2	pointing/STIM_007.jpg
1311.703	1.102	1	pointing	Trial2	pointing/STIM_007.jpg
1315.683	0.991	1	pointing	Trial2	pointing/STIM_007.jpg
1320.578	1.265	1	pointing	Trial2	pointing/STIM_007.jpg
1325.914	1.208	1	pointing	Trial2	pointing/STIM_008.jpg
1331.021	1.152	1	pointing	Trial2	pointing/STIM_008.jpg
1335.159	0.926	1	pointing	Trial2	pointing/STIM_008.jpg
1339.684	0.905	1	pointing	Trial2	pointing/STIM_008.jpg
1344.737	0.779	1	pointing	Trial2	pointing/STIM_008.jpg
1347.735	1.214	1	pointing	Trial2	pointing/STIM_008.jpg
1351.456	1.047	1	pointing	Trial2	pointing/STIM_009.jpg
1354.72	1.087	1	pointing	Trial2	pointing/STIM_009.jpg
1358.205	0.828	1	pointing	Trial2	pointing/STIM_009.jpg
1362.6	0.905	1	pointing	Trial2	pointing/STIM_009.jpg
1365.702	0.953	1	pointing	Trial2	pointing/STIM_009.jpg
1370.024	1.059	1	pointing	Trial2	pointing/STIM_009.jpg
1374.5	1.053	1	pointing	Trial2	pointing/STIM_010.jpg
1378.779	1.283	1	pointing	Trial2	pointing/STIM_010.jpg
1383.438	1.265	0	pointing	Trial2	pointing/STIM_010.jpg
1387.253	0.85	1	pointing	Trial2	pointing/STIM_010.jpg
1390.395	0.797	0	pointing	Trial2	pointing/STIM_010.jpg
1394.509	1.027	1	pointing	Trial2	pointing/STIM_010.jpg
1398.551	1.184	1	pointing	Trial2	pointing/STIM_011.jpg
1402.467	1.14	1	pointing	Trial2	pointing/STIM_011.jpg
1406.846	0.96	1	pointing	Trial2	pointing/STIM_011.jpg
1411.699	0.772	1	pointing	Trial2	pointing/STIM_011.jpg
1415.298	0.976	1	pointing	Trial2	pointing/STIM_011.jpg
1419.493	0.917	1	pointing	Trial2	pointing/STIM_011.jpg
1422.973	1.917	1	navigation	Trial3	navigation/STIM_000.jpg
1428.707	1.973	1	navigation	Trial3	navigation/STIM_000.jpg
1434.939	1.25	1	navigation	Trial3	navigation/STIM_000.jpg
1439.1	2.008	1	navigation	Trial3	navigation/STIM_000.jpg
1444.603	1.338	1	navigation	Trial3	navigation/STIM_000.jpg
1449.443	2.21	1	navigation	Trial3	navigation/STIM_000.jpg
1454.506	2.575	1	navigation	Trial3	navigation/STIM_001.jpg
1460.853	2.238	0	navigation	Trial3	navigation/STIM_001.jpg
1467.267	2.425	1	navigation	Trial3	navigation/STIM_001.jpg
1473.207	2.025	1	navigation	Trial3	navigation/STIM_001.jpg
1479.473	2.84	1	navigation	Trial3	navigation/STIM_001.jpg
1485.802	2.389	1	navigation	Trial3	navigation/STIM_001.jpg
1492.589	2.564	1	navigation	Trial3	navigation/STIM_002.jpg
1499.549	1.44	1	navigation	Trial3	navigation/STIM_002.jpg
1504.121	1.766	0	navigation	Trial3	navigation/STIM_002.jpg
1508.435	2.25	1	navigation	Trial3	navigation/STIM_002.jpg
1515.006	2.516	1	navigation	Trial3	navigation/STIM_002.jpg
1520.431	1.561	1	navigation	Trial3	navigation/STIM_002.jpg
1525.414	2.604	0	navigation	Trial3	navigation/STIM_003.jpg
1532.103	1.594	1	navigation	Trial3	navigation/STIM_003.jpg
1536.696	1.881	1	navigation	Trial3	navigation/STIM_003.jpg
1542.827	2.897	1	navigation	Trial3	navigation/STIM_003.jpg
1548.713	1.97	1	navigation	Trial3	navigation/STIM_003.jpg
1554.042	2.536	1	navigation	Trial3	navigation/STIM_003.jpg
1560.058	2.994	1	navigation	Trial3	navigation/STIM_004.jpg
1566.225	2.186	1	navigation	Trial3	navigation/STIM_004.jpg
1572.265	1.309	1	navigation	Trial3	navigation/STIM_004.jpg
1577.332	1.284	1	navigation	Trial3	navigation/STIM_004.jpg
1581.796	2.228	1	navigation	Trial3	navigation/STIM_004.jpg
1586.514	1.391	1	navigation	Trial3	navigation/STIM_004.jpg
1592.116	2.344	1	navigation	Trial3	navigation/STIM_005.jpg
1596.921	2.801	0	navigation	Trial3	navigation/STIM_005.jpg
1602.662	2.109	1	navigation	Trial3	navigation/STIM_005.jpg
1608.794	2.263	1	navigation	Trial3	navigation/STIM_005.jpg
1615.227	2.775	1	navigation	Trial3	navigation/STIM_005.jpg
1621.58	2.402	1	navigation	Trial3	navigation/STIM_005.jpg
1628.18	1.645	0	navigation	Trial3	navigation/STIM_006.jpg
1632.619	2.598	1	navigation	Trial3	navigation/STIM_006.jpg
1639.346	2.987	1	navigation	Trial3	navigation/STIM_006.jpg
1646.584	2.345	1	navigation	Trial3	navigation/STIM_006.jpg
1651.656	1.822	0	navigation	Trial3	navigation/STIM_006.jpg
1657.545	2.93	1	navigation	Trial3	navigation/STIM_006.jpg
1663.075	1.732	1	navigation	Trial3	navigation/STIM_007.jpg
1667.909	1.531	1	navigation	Trial3	navigation/STIM_007.jpg
1673.521	1.69	1	navigation	Trial3	navigation/STIM_007.jpg
1678.308	2.94	1	navigation	Trial3	navigation/STIM_007.jpg
1685.123	1.424	1	navigation	Trial3	navigation/STIM_007.jpg
1689.527	2.736	1	navigation	Trial3	navigation/STIM_007.jpg
1695.756	2.696	1	navigation	Trial3	navigation/STIM_008.jpg
1702.85	1.399	1	navigation	Trial3	navigation/STIM_008.jpg
1708.214	2.241	1	navigation	Trial3	navigation/STIM_008.jpg
1714.2	2.651	1	navigation	Trial3	navigation/STIM_008.jpg
1721.245	2.755	1	navigation	Trial3	navigation/STIM_008.jpg
1726.629	2.211	1	navigation	Trial3	navigation/STIM_008.jpg
1731.26	2.489	1	navigation	Trial3	navigation/STIM_009.jpg
1736.606	1.203	1	navigation	Trial3	navigation/STIM_009.jpg
1740.268	1.976	1	navigation	Trial3	navigation/STIM_009.jpg
1745.18	1.431	1	navigation	Trial3	navigation/STIM_009.jpg
1750.21	1.827	1	navigation	Trial3	navigation/STIM_009.jpg
1755.779	2.47	1	navigation	Trial3	navigation/STIM_009.jpg
1760.755	1.243	1	navigation	Trial3	navigation/STIM_010.jpg
1764.574	2.249	0	navigation	Trial3	navigation/STIM_010.jpg
1770.082	1.488	0	navigation	Trial3	navigation/STIM_010.jpg
1774.607	1.246	1	navigation	Trial3	navigation/STIM_010.jpg
1780.012	2.894	1	navigation	Trial3	navigation/STIM_010.jpg
1785.574	2.567	1	navigation	Trial3	navigation/STIM_010.jpg
1790.725	1.434	1	navigation	Trial3	navigation/STIM_011.jpg
1795.834	2.221	0	navigation	Trial3	navigation/STIM_011.jpg
1802.275	1.465	1	navigation	Trial3	navigation/STIM_011.jpg
1807.756	2.904	1	navigation	Trial3	navigation/STIM_011.jpg
1813.973	2.211	1	navigation	Trial3	navigation/STIM_011.jpg
1818.652	2.078	0	navigation	Trial3	navigation/STIM_011.jpg
1824.605	1.234	1	pointing	Trial3	pointing/STIM_000.jpg
1828.131	1.264	0	pointing	Trial3	pointing/STIM_000.jpg
1832.328	1.024	1	pointing	Trial3	pointing/STIM_000.jpg
1837.178	0.714	1	pointing	Trial3	pointing/STIM_000.jpg
1841.466	0.943	1	pointing	Trial3	pointing/STIM_000.jpg
1845.841	0.706	1	pointing	Trial3	pointing/STIM_000.jpg
1849.192	1.092	1	pointing	Trial3	pointing/STIM_001.jpg
1854.185	0.839	1	pointing	Trial3	pointing/STIM_001.jpg
1859.156	0.937	1	pointing	Trial3	pointing/STIM_001.jpg
1862.537	0.708	1	pointing	Trial3	pointing/STIM_001.jpg
1865.394	1.217	1	pointing	Trial3	pointing/STIM_001.jpg
1870.117	0.85	1	pointing	Trial3	pointing/STIM_001.jpg
1873.217	0.981	1	pointing	Trial3	pointing/STIM_002.jpg
1876.869	1.173	1	pointing	Trial3	pointing/STIM_002.jpg
1881.304	0.766	1	pointing	Trial3	pointing/STIM_002.jpg
1884.673	0.825	1	pointing	Trial3	pointing/STIM_002.jpg
1889.393	1.067	1	pointing	Trial3	pointing/STIM_002.jpg
1893.621	1.0	1	pointing	Trial3	pointing/STIM_002.jpg
1896.968	0.856	1	pointing	Trial3	pointing/STIM_003.jpg
1900.159	0.864	1	pointing	Trial3	pointing/STIM_003.jpg
1903.491	0.932	1	pointing	Trial3	pointing/STIM_003.jpg
1907.667	0.98	1	pointing	Trial3	pointing/STIM_003.jpg
1912.628	0.972	1	pointing	Trial3	pointing/STIM_003.jpg
1916.548	0.724	1	pointing	Trial3	pointing/STIM_003.jpg
1921.109	0.8	1	pointing	Trial3	pointing/STIM_004.jpg
1924.735	0.97	1	pointing	Trial3	pointing/STIM_004.jpg
1928.91	1.108	1	pointing	Trial3	pointing/STIM_004.jpg
1933.224	0.901	1	pointing	Trial3	pointing/STIM_004.jpg
1938.177	0.935	1	pointing	Trial3	pointing/STIM_004.jpg
1941.279	0.811	1	pointing	Trial3	pointing/STIM_004.jpg
1944.732	1.043	1	pointing	Trial3	pointing/STIM_005.jpg
1949.716	0.93	1	pointing	Trial3	pointing/STIM_005.jpg
1954.515	0.849	1	pointing	Trial3	pointing/STIM_005.jpg
1959.171	1.076	1	pointing	Trial3	pointing/STIM_005.jpg
1963.657	0.828	1	pointing	Trial3	pointing/STIM_005.jpg
1968.551	1.205	1	pointing	Trial3	pointing/STIM_005.jpg
1973.775	0.976	1	pointing	Trial3	pointing/STIM_006.jpg
1976.916	1.007	1	pointing	Trial3	pointing/STIM_006.jpg
1981.091	1.118	1	pointing	Trial3	pointing/STIM_006.jpg
1986.147	1.246	1	pointing	Trial3	pointing/STIM_006.jpg
1989.668	0.918	1	pointing	Trial3	pointing/STIM_006.jpg
1992.869	0.863	1	pointing	Trial3	pointing/STIM_006.jpg
1996.675	0.81	1	pointing	Trial3	pointing/STIM_007.jpg
2000.73	0.782	1	pointing	Trial3	pointing/STIM_007.jpg
2005.245	1.09	1	pointing	Trial3	pointing/STIM_007.jpg
2010.076	0.921	1	pointing	Trial3	pointing/STIM_007.jpg
2013.929	0.777	1	pointing	Trial3	pointing/STIM_007.jpg
2017.303	0.887	1	pointing	Trial3	pointing/STIM_007.jpg
2020.862	1.009	1	pointing	Trial3	pointing/STIM_008.jpg
2026.01	1.087	1	pointing	Trial3	pointing/STIM_008.jpg
2029.426	0.755	1	pointing	Trial3	pointing/STIM_008.jpg
2034.181	1.236	1	pointing	Trial3	pointing/STIM_008.jpg
2038.766	1.078	1	pointing	Trial3	pointing/STIM_008.jpg
2042.836	1.099	1	pointing	Trial3	pointing/STIM_008.jpg
2047.433	1.264	1	pointing	Trial3	pointing/STIM_009.jpg
2051.343	0.952	0	pointing	Trial3	pointing/STIM_009.jpg
2056.341	1.004	1	pointing	Trial3	pointing/STIM_009.jpg
2060.834	1.088	1	pointing	Trial3	pointing/STIM_009.jpg
2065.067	0.941	1	pointing	Trial3	pointing/STIM_009.jpg
2069.567	0.773	1	pointing	Trial3	pointing/STIM_009.jpg
2073.878	0.771	1	pointing	Trial3	pointing/STIM_010.jpg
2077.963	0.899	1	pointing	Trial3	pointing/STIM_010.jpg
2081.444	0.84	1	pointing	Trial3	pointing/STIM_010.jpg
2085.039	0.687	1	pointing	Trial3	pointing/STIM_010.jpg
2087.89	0.695	1	pointing	Trial3	pointing/STIM_010.jpg
2090.866	1.192	1	pointing	Trial3	pointing/STIM_010.jpg
2095.208	0.749	1	pointing	Trial3	pointing/STIM_011.jpg
2099.605	1.215	1	pointing	Trial3	pointing/STIM_011.jpg
2104.487	0.83	1	pointing	Trial3	pointing/STIM_011.jpg
2107.729	0.847	0	pointing	Trial3	pointing/STIM_011.jpg
2112.569	0.971	1	pointing	Trial3	pointing/STIM_011.jpg
2116.874	0.719	1	pointing	Trial3	pointing/STIM_011.jpg
