onset	duration	accuracy	trial_type	learning_stage	stimulus
0.0	1.174	correct	incongruent	Block1	incongruent/STIM_000.jpg
3.471	0.622	correct	incongruent	Block1	incongruent/STIM_000.jpg
7.576	0.989	correct	incongruent	Block1	incongruent/STIM_000.jpg
11.468	0.678	correct	incongruent	Block1	incongruent/STIM_000.jpg
15.617	1.055	correct	incongruent	Block1	incongruent/STIM_000.jpg
19.443	1.031	correct	incongruent	Block1	incongruent/STIM_001.jpg
23.115	0.814	incorrect	incongruent	Block1	incongruent/STIM_001.jpg
27.61	0.716	correct	incongruent	Block1	incongruent/STIM_001.jpg
31.024	1.08	correct	incongruent	Block1	incongruent/STIM_001.jpg
34.704	0.692	correct	incongruent	Block1	incongruent/STIM_001.jpg
38.361	0.992	correct	incongruent	Block1	incongruent/STIM_002.jpg
41.469	0.825	correct	incongruent	Block1	incongruent/STIM_002.jpg
44.873	1.051	correct	incongruent	Block1	incongruent/STIM_002.jpg
49.881	1.022	correct	incongruent	Block1	incongruent/STIM_002.jpg
53.818	0.772	incorrect	incongruent	Block1	incongruent/STIM_002.jpg
57.611	1.016	correct	incongruent	Block1	incongruent/STIM_003.jpg
60.702	0.821	correct	incongruent	Block1	incongruent/STIM_003.jpg
64.592	0.934	correct	incongruent	Block1	incongruent/STIM_003.jpg
68.744	0.625	correct	incongruent	Block1	incongruent/STIM_003.jpg
71.553	0.897	correct	incongruent	Block1	incongruent/STIM_003.jpg
75.205	0.945	correct	incongruent	Block1	incongruent/STIM_004.jpg
78.624	0.653	correct	incongruent	Block1	incongruent/STIM_004.jpg
82.192	1.053	correct	incongruent	Block1	incongruent/STIM_004.jpg
85.771	0.815	correct	incongruent	Block1	incongruent/STIM_004.jpg
89.212	0.754	correct	incongruent	Block1	incongruent/STIM_004.jpg
93.373	0.791	correct	incongruent	Block1	incongruent/STIM_005.jpg
96.809	0.86	correct	incongruent	Block1	incongruent/STIM_005.jpg
100.09	0.775	incorrect	incongruent	Block1	incongruent/STIM_005.jpg
103.317	1.016	correct	incongruent	Block1	incongruent/STIM_005.jpg
107.972	0.869	correct	incongruent	Block1	incongruent/STIM_005.jpg
111.294	0.964	correct	incongruent	Block1	incongruent/STIM_006.jpg
114.572	0.621	correct	incongruent	Block1	incongruent/STIM_006.jpg
118.509	0.985	correct	incongruent	Block1	incongruent/STIM_006.jpg
121.814	0.949	correct	incongruent	Block1	incongruent/STIM_006.jpg
125.932	0.818	correct	incongruent	Block1	incongruent/STIM_006.jpg
129.493	0.986	correct	incongruent	Block1	incongruent/STIM_007.jpg
133.876	0.832	correct	incongruent	Block1	incongruent/STIM_007.jpg
136.747	0.666	incorrect	incongruent	Block1	incongruent/STIM_007.jpg
140.6	0.726	correct	incongruent	Block1	incongruent/STIM_007.jpg
144.964	1.011	correct	incongruent	Block1	incongruent/STIM_007.jpg
149.542	0.893	correct	incongruent	Block1	incongruent/STIM_008.jpg
153.8	0.823	incorrect	incongruent	Block1	incongruent/STIM_008.jpg
158.08	0.708	correct	incongruent	Block1	incongruent/STIM_008.jpg
162.208	0.587	incorrect	incongruent	Block1	incongruent/STIM_008.jpg
166.038	1.096	correct	incongruent	Block1	incongruent/STIM_008.jpg
169.939	1.139	incorrect	incongruent	Block1	incongruent/STIM_009.jpg
174.092	0.98	correct	incongruent	Block1	incongruent/STIM_009.jpg
178.979	1.102	correct	incongruent	Block1	incongruent/STIM_009.jpg
183.511	0.819	incorrect	incongruent	Block1	incongruent/STIM_009.jpg
186.469	0.552	correct	incongruent	Block1	incongruent/STIM_009.jpg
190.451	1.097	incorrect	incongruent	Block1	incongruent/STIM_010.jpg
195.155	0.659	correct	incongruent	Block1	incongruent/STIM_010.jpg
198.672	1.194	incorrect	incongruent	Block1	incongruent/STIM_010.jpg
202.005	0.664	correct	incongruent	Block1	incongruent/STIM_010.jpg
205.432	0.916	incorrect	incongruent	Block1	incongruent/STIM_010.jpg
210.343	0.662	correct	incongruent	Block1	incongruent/STIM_011.jpg
213.643	0.913	correct	incongruent	Block1	incongruent/STIM_011.jpg
218.497	1.063	correct	incongruent	Block1	incongruent/STIM_011.jpg
222.678	0.591	correct	incongruent	Block1	incongruent/STIM_011.jpg
226.494	1.089	correct	incongruent	Block1	incongruent/STIM_011.jpg
231.025	1.184	correct	incongruent	Block1	incongruent/STIM_012.jpg
234.892	0.968	correct	incongruent	Block1	incongruent/STIM_012.jpg
237.911	1.014	correct	incongruent	Block1	incongruent/STIM_012.jpg
241.719	0.789	correct	incongruent	Block1	incongruent/STIM_012.jpg
245.174	1.034	correct	incongruent	Block1	incongruent/STIM_012.jpg
248.903	0.745	correct	incongruent	Block1	incongruent/STIM_013.jpg
251.98	0.908	correct	incongruent	Block1	incongruent/STIM_013.jpg
255.844	0.781	incorrect	incongruent	Block1	incongruent/STIM_013.jpg
258.745	0.798	correct	incongruent	Block1	incongruent/STIM_013.jpg
263.51	0.709	correct	incongruent	Block1	incongruent/STIM_013.jpg
267.358	0.805	incorrect	incongruent	Block1	incongruent/STIM_014.jpg
271.102	1.21	correct	incongruent	Block1	incongruent/STIM_014.jpg
275.326	1.042	correct	incongruent	Block1	incongruent/STIM_014.jpg
280.314	0.77	correct	incongruent	Block1	incongruent/STIM_014.jpg
283.792	0.741	correct	incongruent	Block1	incongruent/STIM_014.jpg
288.493	1.006	incorrect	incongruent	Block1	incongruent/STIM_015.jpg
292.841	1.305	correct	incongruent	Block1	incongruent/STIM_015.jpg
297.191	0.844	correct	incongruent	Block1	incongruent/STIM_015.jpg
301.263	0.752	correct	incongruent	Block1	incongruent/STIM_015.jpg
305.399	0.907	correct	incongruent	Block1	incongruent/STIM_015.jpg
308.498	0.996	correct	incongruent	Block1	incongruent/STIM_016.jpg
311.874	1.078	incorrect	incongruent	Block1	incongruent/STIM_016.jpg
316.876	0.647	correct	incongruent	Block1	incongruent/STIM_016.jpg
321.095	1.078	correct	incongruent	Block1	incongruent/STIM_016.jpg
324.585	0.67	correct	incongruent	Block1	incongruent/STIM_016.jpg
328.729	1.094	correct	incongruent	Block1	incongruent/STIM_017.jpg
332.482	1.219	correct	incongruent	Block1	incongruent/STIM_017.jpg
337.176	1.069	correct	incongruent	Block1	incongruent/STIM_017.jpg
341.901	0.609	correct	incongruent	Block1	incongruent/STIM_017.jpg
346.257	0.688	correct	incongruent	Block1	incongruent/STIM_017.jpg
349.675	1.056	incorrect	incongruent	Block1	incongruent/STIM_018.jpg
352.862	1.203	correct	incongruent	Block1	incongruent/STIM_018.jpg
358.028	1.005	correct	incongruent	Block1	incongruent/STIM_018.jpg
362.182	0.673	correct	incongruent	Block1	incongruent/STIM_018.jpg
366.081	0.541	correct	incongruent	Block1	incongruent/STIM_018.jpg
370.036	0.672	incorrect	incongruent	Block1	incongruent/STIM_019.jpg
374.202	1.133	correct	incongruent	Block1	incongruent/STIM_019.jpg
378.471	0.838	correct	incongruent	Block1	incongruent/STIM_019.jpg
381.889	0.876	correct	incongruent	Block1	incongruent/STIM_019.jpg
386.33	1.014	correct	incongruent	Block1	incongruent/STIM_019.jpg
391.295	0.74	correct	incongruent	Block1	incongruent/STIM_020.jpg
395.641	1.282	incorrect	incongruent	Block1	incongruent/STIM_020.jpg
399.342	0.991	correct	incongruent	Block1	incongruent/STIM_020.jpg
403.536	0.886	correct	incongruent	Block1	incongruent/STIM_020.jpg
407.932	0.924	correct	incongruent	Block1	incongruent/STIM_020.jpg
412.722	0.884	correct	incongruent	Block1	incongruent/STIM_021.jpg
417.565	0.822	correct	incongruent	Block1	incongruent/STIM_021.jpg
420.962	0.828	incorrect	incongruent	Block1	incongruent/STIM_021.jpg
424.593	1.008	correct	incongruent	Block1	incongruent/STIM_021.jpg
428.129	0.717	correct	incongruent	Block1	incongruent/STIM_021.jpg
431.489	0.883	correct	incongruent	Block1	incongruent/STIM_022.jpg
434.705	1.099	correct	incongruent	Block1	incongruent/STIM_022.jpg
439.054	1.042	incorrect	incongruent	Block1	incongruent/STIM_022.jpg
442.433	0.628	correct	incongruent	Block1	incongruent/STIM_022.jpg
445.97	0.755	correct	incongruent	Block1	incongruent/STIM_022.jpg
450.575	0.759	correct	incongruent	Block1	incongruent/STIM_023.jpg
453.708	0.865	correct	incongruent	Block1	incongruent/STIM_023.jpg
457.5	0.673	correct	incongruent	Block1	incongruent/STIM_023.jpg
461.713	0.714	correct	incongruent	Block1	incongruent/STIM_023.jpg
466.078	0.812	incorrect	incongruent	Block1	incongruent/STIM_023.jpg
470.553	1.225	correct	incongruent	Block1	incongruent/STIM_024.jpg
475.187	0.781	correct	incongruent	Block1	incongruent/STIM_024.jpg
479.833	0.668	correct	incongruent	Block1	incongruent/STIM_024.jpg
483.358	1.042	correct	incongruent	Block1	incongruent/STIM_024.jpg
488.374	0.529	correct	incongruent	Block1	incongruent/STIM_024.jpg
491.267	1.246	correct	incongruent	Block1	incongruent/STIM_025.jpg
495.128	1.086	correct	incongruent	Block1	incongruent/STIM_025.jpg
498.226	0.705	correct	incongruent	Block1	incongruent/STIM_025.jpg
502.021	1.11	correct	incongruent	Block1	incongruent/STIM_025.jpg
506.594	1.08	incorrect	incongruent	Block1	incongruent/STIM_025.jpg
510.683	1.053	correct	incongruent	Block1	incongruent/STIM_026.jpg
514.69	0.802	correct	incongruent	Block1	incongruent/STIM_026.jpg
517.936	0.663	correct	incongruent	Block1	incongruent/STIM_026.jpg
521.308	0.58	correct	incongruent	Block1	incongruent/STIM_026.jpg
525.666	0.531	correct	incongruent	Block1	incongruent/STIM_026.jpg
528.557	1.105	correct	incongruent	Block1	incongruent/STIM_027.jpg
533.645	0.749	correct	incongruent	Block1	incongruent/STIM_027.jpg
537.187	0.774	correct	incongruent	Block1	incongruent/STIM_027.jpg
541.376	0.943	correct	incongruent	Block1	incongruent/STIM_027.jpg
544.32	0.793	correct	incongruent	Block1	incongruent/STIM_027.jpg
547.759	0.692	correct	incongruent	Block1	incongruent/STIM_028.jpg
552.194	1.281	incorrect	incongruent	Block1	incongruent/STIM_028.jpg
557.005	0.61	correct	incongruent	Block1	incongruent/STIM_028.jpg
561.095	0.994	correct	incongruent	Block1	incongruent/STIM_028.jpg
564.823	0.672	correct	incongruent	Block1	incongruent/STIM_028.jpg
568.222	1.017	incorrect	incongruent	Block1	incongruent/STIM_029.jpg
572.307	0.748	correct	incongruent	Block1	incongruent/STIM_029.jpg
576.224	0.841	correct	incongruent	Block1	incongruent/STIM_029.jpg
579.746	1.079	correct	incongruent	Block1	incongruent/STIM_029.jpg
584.093	0.577	correct	incongruent	Block1	incongruent/STIM_029.jpg
586.893	0.718	correct	congruent	Block1	congruent/STIM_000.jpg
590.92	0.625	correct	congruent	Block1	congruent/STIM_000.jpg
593.948	0.744	correct	congruent	Block1	congruent/STIM_000.jpg
597.724	0.676	correct	congruent	Block1	congruent/STIM_000.jpg
601.07	0.69	correct	congruent	Block1	congruent/STIM_000.jpg
604.622	0.755	correct	congruent	Block1	congruent/STIM_001.jpg
609.21	0.784	correct	congruent	Block1	congruent/STIM_001.jpg
612.588	0.79	correct	congruent	Block1	congruent/STIM_001.jpg
615.756	0.725	correct	congruent	Block1	congruent/STIM_001.jpg
620.188	0.716	correct	congruent	Block1	congruent/STIM_001.jpg
622.984	0.773	correct	congruent	Block1	congruent/STIM_002.jpg
626.483	0.817	correct	congruent	Block1	congruent/STIM_002.jpg
630.5	0.676	correct	congruent	Block1	congruent/STIM_002.jpg
633.525	0.735	correct	congruent	Block1	congruent/STIM_002.jpg
637.643	0.812	correct	congruent	Block1	congruent/STIM_002.jpg
640.659	0.635	correct	congruent	Block1	congruent/STIM_003.jpg
645.03	0.782	correct	congruent	Block1	congruent/STIM_003.jpg
649.109	0.548	correct	congruent	Block1	congruent/STIM_003.jpg
652.369	0.68	correct	congruent	Block1	congruent/STIM_003.jpg
655.323	0.703	correct	congruent	Block1	congruent/STIM_003.jpg
659.973	0.574	correct	congruent	Block1	congruent/STIM_004.jpg
662.946	0.573	correct	congruent	Block1	congruent/STIM_004.jpg
666.817	0.478	correct	congruent	Block1	congruent/STIM_004.jpg
670.09	0.82	correct	congruent	Block1	congruent/STIM_004.jpg
673.102	0.603	correct	congruent	Block1	congruent/STIM_004.jpg
676.161	0.644	correct	congruent	Block1	congruent/STIM_005.jpg
679.851	0.758	correct	congruent	Block1	congruent/STIM_005.jpg
684.307	0.799	correct	congruent	Block1	congruent/STIM_005.jpg
688.724	0.671	correct	congruent	Block1	congruent/STIM_005.jpg
691.971	0.679	correct	congruent	Block1	congruent/STIM_005.jpg
696.603	0.599	correct	congruent	Block1	congruent/STIM_006.jpg
699.938	0.812	correct	congruent	Block1	congruent/STIM_006.jpg
703.364	0.666	correct	congruent	Block1	congruent/STIM_006.jpg
707.191	0.739	correct	congruent	Block1	congruent/STIM_006.jpg
711.039	0.727	correct	congruent	Block1	congruent/STIM_006.jpg
715.524	0.765	correct	congruent	Block1	congruent/STIM_007.jpg
720.097	0.521	correct	congruent	Block1	congruent/STIM_007.jpg
722.716	0.753	correct	congruent	Block1	congruent/STIM_007.jpg
727.375	0.719	correct	congruent	Block1	congruent/STIM_007.jpg
731.936	0.555	correct	congruent	Block1	congruent/STIM_007.jpg
735.269	0.627	correct	congruent	Block1	congruent/STIM_008.jpg
738.178	0.528	correct	congruent	Block1	congruent/STIM_008.jpg
741.135	0.674	correct	congruent	Block1	congruent/STIM_008.jpg
745.554	0.653	correct	congruent	Block1	congruent/STIM_008.jpg
748.403	0.461	correct	congruent	Block1	congruent/STIM_008.jpg
752.485	0.469	correct	congruent	Block1	congruent/STIM_009.jpg
755.663	0.793	correct	congruent	Block1	congruent/STIM_009.jpg
760.102	0.716	correct	congruent	Block1	congruent/STIM_009.jpg
763.44	0.613	correct	congruent	Block1	congruent/STIM_009.jpg
767.705	0.785	correct	congruent	Block1	congruent/STIM_009.jpg
772.364	0.804	correct	congruent	Block1	congruent/STIM_010.jpg
776.826	0.528	correct	congruent	Block1	congruent/STIM_010.jpg
780.563	0.827	correct	congruent	Block1	congruent/STIM_010.jpg
784.473	0.654	correct	congruent	Block1	congruent/STIM_010.jpg
788.727	0.502	correct	congruent	Block1	congruent/STIM_010.jpg
791.812	0.807	correct	congruent	Block1	congruent/STIM_011.jpg
795.426	0.808	correct	congruent	Block1	congruent/STIM_011.jpg
798.653	0.58	correct	congruent	Block1	congruent/STIM_011.jpg
803.024	0.774	correct	congruent	Block1	congruent/STIM_011.jpg
806.302	0.749	incorrect	congruent	Block1	congruent/STIM_011.jpg
809.457	0.503	correct	congruent	Block1	congruent/STIM_012.jpg
813.865	0.503	correct	congruent	Block1	congruent/STIM_012.jpg
818.35	0.815	correct	congruent	Block1	congruent/STIM_012.jpg
821.983	0.576	incorrect	congruent	Block1	congruent/STIM_012.jpg
826.08	0.538	correct	congruent	Block1	congruent/STIM_012.jpg
830.539	0.602	correct	congruent	Block1	congruent/STIM_013.jpg
833.574	0.589	incorrect	congruent	Block1	congruent/STIM_013.jpg
836.281	0.65	correct	congruent	Block1	congruent/STIM_013.jpg
840.613	0.627	correct	congruent	Block1	congruent/STIM_013.jpg
845.232	0.672	correct	congruent	Block1	congruent/STIM_013.jpg
849.039	0.78	correct	congruent	Block1	congruent/STIM_014.jpg
853.751	0.66	correct	congruent	Block1	congruent/STIM_014.jpg
857.024	0.672	correct	congruent	Block1	congruent/STIM_014.jpg
861.375	0.606	correct	congruent	Block1	congruent/STIM_014.jpg
864.26	0.808	correct	congruent	Block1	congruent/STIM_014.jpg
867.259	0.644	correct	congruent	Block1	congruent/STIM_015.jpg
870.154	0.769	correct	congruent	Block1	congruent/STIM_015.jpg
873.716	0.592	correct	congruent	Block1	congruent/STIM_015.jpg
877.252	0.66	correct	congruent	Block1	congruent/STIM_015.jpg
880.847	0.64	correct	congruent	Block1	congruent/STIM_015.jpg
885.268	0.739	correct	congruent	Block1	congruent/STIM_016.jpg
889.453	0.768	correct	congruent	Block1	congruent/STIM_016.jpg
893.223	0.692	correct	congruent	Block1	congruent/STIM_016.jpg
896.977	0.651	correct	congruent	Block1	congruent/STIM_016.jpg
901.327	0.523	incorrect	congruent	Block1	congruent/STIM_016.jpg
904.365	0.706	correct	congruent	Block1	congruent/STIM_017.jpg
907.912	0.484	correct	congruent	Block1	congruent/STIM_017.jpg
910.424	0.595	correct	congruent	Block1	congruent/STIM_017.jpg
914.255	0.48	correct	congruent	Block1	congruent/STIM_017.jpg
917.279	0.756	correct	congruent	Block1	congruent/STIM_017.jpg
921.802	0.529	correct	congruent	Block1	congruent/STIM_018.jpg
926.027	0.671	correct	congruent	Block1	congruent/STIM_018.jpg
929.41	0.75	correct	congruent	Block1	congruent/STIM_018.jpg
933.745	0.724	correct	congruent	Block1	congruent/STIM_018.jpg
937.267	0.752	correct	congruent	Block1	congruent/STIM_018.jpg
941.546	0.642	correct	congruent	Block1	congruent/STIM_019.jpg
945.898	0.621	correct	congruent	Block1	congruent/STIM_019.jpg
949.965	0.573	correct	congruent	Block1	congruent/STIM_019.jpg
953.873	0.807	correct	congruent	Block1	congruent/STIM_019.jpg
957.559	0.704	correct	congruent	Block1	congruent/STIM_019.jpg
960.688	0.78	correct	congruent	Block1	congruent/STIM_020.jpg
965.331	0.535	correct	congruent	Block1	congruent/STIM_020.jpg
967.961	0.827	incorrect	congruent	Block1	congruent/STIM_020.jpg
971.89	0.684	correct	congruent	Block1	congruent/STIM_020.jpg
975.984	0.72	correct	congruent	Block1	congruent/STIM_020.jpg
979.644	0.786	correct	congruent	Block1	congruent/STIM_021.jpg
983.955	0.813	correct	congruent	Block1	congruent/STIM_021.jpg
988.119	0.619	correct	congruent	Block1	congruent/STIM_021.jpg
991.304	0.731	correct	congruent	Block1	congruent/STIM_021.jpg
994.707	0.463	correct	congruent	Block1	congruent/STIM_021.jpg
999.025	0.774	correct	congruent	Block1	congruent/STIM_022.jpg
1003.303	0.641	correct	congruent	Block1	congruent/STIM_022.jpg
1006.792	0.496	correct	congruent	Block1	congruent/STIM_022.jpg
1009.771	0.74	correct	congruent	Block1	congruent/STIM_022.jpg
1012.605	0.524	correct	congruent	Block1	congruent/STIM_022.jpg
1015.41	0.62	correct	congruent	Block1	congruent/STIM_023.jpg
1019.022	0.608	correct	congruent	Block1	congruent/STIM_023.jpg
1023.34	0.577	correct	congruent	Block1	congruent/STIM_023.jpg
1026.025	0.536	correct	congruent	Block1	congruent/STIM_023.jpg
1029.437	0.714	correct	congruent	Block1	congruent/STIM_023.jpg
1032.553	0.548	correct	congruent	Block1	congruent/STIM_024.jpg
1036.659	0.668	correct	congruent	Block1	congruent/STIM_024.jpg
1039.425	0.763	correct	congruent	Block1	congruent/STIM_024.jpg
1042.976	0.633	correct	congruent	Block1	congruent/STIM_024.jpg
1046.03	0.588	correct	congruent	Block1	congruent/STIM_024.jpg
1049.091	0.818	correct	congruent	Block1	congruent/STIM_025.jpg
1052.867	0.724	correct	congruent	Block1	congruent/STIM_025.jpg
1056.97	0.662	correct	congruent	Block1	congruent/STIM_025.jpg
1060.505	0.766	correct	congruent	Block1	congruent/STIM_025.jpg
1063.581	0.687	correct	congruent	Block1	congruent/STIM_025.jpg
1066.788	0.708	incorrect	congruent	Block1	congruent/STIM_026.jpg
1071.045	0.697	correct	congruent	Block1	congruent/STIM_026.jpg
1074.05	0.569	correct	congruent	Block1	congruent/STIM_026.jpg
1078.61	0.707	correct	congruent	Block1	congruent/STIM_026.jpg
1083.031	0.613	correct	congruent	Block1	congruent/STIM_026.jpg
1086.626	0.523	correct	congruent	Block1	congruent/STIM_027.jpg
1089.733	0.602	correct	congruent	Block1	congruent/STIM_027.jpg
1092.581	0.788	correct	congruent	Block1	congruent/STIM_027.jpg
1096.539	0.466	correct	congruent	Block1	congruent/STIM_027.jpg
1100.671	0.566	correct	congruent	Block1	congruent/STIM_027.jpg
1105.127	0.81	correct	congruent	Block1	congruent/STIM_028.jpg
1108.963	0.689	correct	congruent	Block1	congruent/STIM_028.jpg
1112.688	0.505	correct	congruent	Block1	congruent/STIM_028.jpg
1116.588	0.61	correct	congruent	Block1	congruent/STIM_028.jpg
1119.426	0.71	correct	congruent	Block1	congruent/STIM_028.jpg
1122.361	0.75	correct	congruent	Block1	congruent/STIM_029.jpg
1125.873	0.607	correct	congruent	Block1	congruent/STIM_029.jpg
1129.608	0.624	incorrect	congruent	Block1	congruent/STIM_029.jpg
1133.827	0.791	correct	congruent	Block1	congruent/STIM_029.jpg
1138.298	0.792	correct	congruent	Block1	congruent/STIM_029.jpg
1141.154	0.965	correct	incongruent	Block2	incongruent/STIM_000.jpg
1146.118	1.063	correct	incongruent	Block2	incongruent/STIM_000.jpg
1149.859	0.705	correct	incongruent	Block2	incongruent/STIM_000.jpg
1153.428	0.686	correct	incongruent	Block2	incongruent/STIM_000.jpg
1156.865	0.753	correct	incongruent	Block2	incongruent/STIM_000.jpg
1160.382	1.045	correct	incongruent	Block2	incongruent/STIM_001.jpg
1165.177	0.645	correct	incongruent	Block2	incongruent/STIM_001.jpg
1168.14	0.854	correct	incongruent	Block2	incongruent/STIM_001.jpg
1171.104	0.784	correct	incongruent	Block2	incongruent/STIM_001.jpg
1175.412	0.474	correct	incongruent	Block2	incongruent/STIM_001.jpg
1178.431	1.01	correct	incongruent	Block2	incongruent/STIM_002.jpg
1181.999	0.841	correct	incongruent	Block2	incongruent/STIM_002.jpg
1186.695	0.789	correct	incongruent	Block2	incongruent/STIM_002.jpg
1190.721	0.735	correct	incongruent	Block2	incongruent/STIM_002.jpg
1194.302	0.954	correct	incongruent	Block2	incongruent/STIM_002.jpg
1197.664	0.707	correct	incongruent	Block2	incongruent/STIM_003.jpg
1200.467	0.982	correct	incongruent	Block2	incongruent/STIM_003.jpg
1204.487	0.719	correct	incongruent	Block2	incongruent/STIM_003.jpg
1207.472	0.861	correct	incongruent	Block2	incongruent/STIM_003.jpg
1210.419	0.879	correct	incongruent	Block2	incongruent/STIM_003.jpg
1214.463	0.605	incorrect	incongruent	Block2	incongruent/STIM_004.jpg
1218.139	0.993	correct	incongruent	Block2	incongruent/STIM_004.jpg
1222.494	0.882	correct	incongruent	Block2	incongruent/STIM_004.jpg
1227.004	0.651	correct	incongruent	Block2	incongruent/STIM_004.jpg
1230.138	0.537	correct	incongruent	Block2	incongruent/STIM_004.jpg
1233.727	1.052	correct	incongruent	Block2	incongruent/STIM_005.jpg
1236.828	0.68	incorrect	incongruent	Block2	incongruent/STIM_005.jpg
1240.86	0.774	correct	incongruent	Block2	incongruent/STIM_005.jpg
1245.633	0.576	correct	incongruent	Block2	incongruent/STIM_005.jpg
1248.459	0.923	correct	incongruent	Block2	incongruent/STIM_005.jpg
1251.423	1.132	correct	incongruent	Block2	incongruent/STIM_006.jpg
1256.391	0.77	correct	incongruent	Block2	incongruent/STIM_006.jpg
1259.775	0.553	correct	incongruent	Block2	incongruent/STIM_006.jpg
1263.802	0.55	incorrect	incongruent	Block2	incongruent/STIM_006.jpg
1267.489	0.783	correct	incongruent	Block2	incongruent/STIM_006.jpg
1270.444	0.841	incorrect	incongruent	Block2	incongruent/STIM_007.jpg
1274.899	0.749	correct	incongruent	Block2	incongruent/STIM_007.jpg
1278.728	0.648	correct	incongruent	Block2	incongruent/STIM_007.jpg
1281.628	0.647	correct	incongruent	Block2	incongruent/STIM_007.jpg
1284.296	0.492	correct	incongruent	Block2	incongruent/STIM_007.jpg
1286.83	0.804	correct	incongruent	Block2	incongruent/STIM_008.jpg
1289.817	1.104	correct	incongruent	Block2	incongruent/STIM_008.jpg
1293.264	0.784	correct	incongruent	Block2	incongruent/STIM_008.jpg
1297.34	0.776	correct	incongruent	Block2	incongruent/STIM_008.jpg
1301.21	0.829	correct	incongruent	Block2	incongruent/STIM_008.jpg
1304.272	1.071	correct	incongruent	Block2	incongruent/STIM_009.jpg
1308.741	0.956	correct	incongruent	Block2	incongruent/STIM_009.jpg
1312.354	0.687	incorrect	incongruent	Block2	incongruent/STIM_009.jpg
1316.699	0.884	correct	incongruent	Block2	incongruent/STIM_009.jpg
1321.579	0.7	incorrect	incongruent	Block2	incongruent/STIM_009.jpg
1324.65	0.944	incorrect	incongruent	Block2	incongruent/STIM_010.jpg
1328.057	0.899	correct	incongruent	Block2	incongruent/STIM_010.jpg
1332.61	0.858	correct	incongruent	Block2	incongruent/STIM_010.jpg
1336.327	0.702	correct	incongruent	Block2	incongruent/STIM_010.jpg
1340.687	0.802	correct	incongruent	Block2	incongruent/STIM_010.jpg
1344.425	0.895	correct	incongruent	Block2	incongruent/STIM_011.jpg
1348.492	0.971	correct	incongruent	Block2	incongruent/STIM_011.jpg
1352.766	0.87	correct	incongruent	Block2	incongruent/STIM_011.jpg
1355.679	0.785	correct	incongruent	Block2	incongruent/STIM_011.jpg
1359.464	0.535	correct	incongruent	Block2	incongruent/STIM_011.jpg
1362.433	0.673	correct	incongruent	Block2	incongruent/STIM_012.jpg
1366.16	0.86	correct	incongruent	Block2	incongruent/STIM_012.jpg
1370.928	0.784	correct	incongruent	Block2	incongruent/STIM_012.jpg
1375.367	0.471	correct	incongruent	Block2	incongruent/STIM_012.jpg
1379.665	0.805	correct	incongruent	Block2	incongruent/STIM_012.jpg
1383.266	0.822	correct	incongruent	Block2	incongruent/STIM_013.jpg
1387.771	0.556	correct	incongruent	Block2	incongruent/STIM_013.jpg
1391.866	0.781	correct	incongruent	Block2	incongruent/STIM_013.jpg
1395.112	0.946	correct	incongruent	Block2	incongruent/STIM_013.jpg
1398.772	0.937	correct	incongruent	Block2	incongruent/STIM_013.jpg
1402.284	0.624	correct	incongruent	Block2	incongruent/STIM_014.jpg
1405.641	0.78	correct	incongruent	Block2	incongruent/STIM_014.jpg
1409.41	0.908	correct	incongruent	Block2	incongruent/STIM_014.jpg
1413.32	0.742	correct	incongruent	Block2	incongruent/STIM_014.jpg
1417.338	0.69	correct	incongruent	Block2	incongruent/STIM_014.jpg
1420.67	0.604	correct	incongruent	Block2	incongruent/STIM_015.jpg
1424.203	1.091	correct	incongruent	Block2	incongruent/STIM_015.jpg
1428.581	0.717	correct	incongruent	Block2	incongruent/STIM_015.jpg
1432.376	0.588	correct	incongruent	Block2	incongruent/STIM_015.jpg
1436.414	0.633	correct	incongruent	Block2	incongruent/STIM_015.jpg
1440.852	0.992	correct	incongruent	Block2	incongruent/STIM_016.jpg
1444.013	0.826	correct	incongruent	Block2	incongruent/STIM_016.jpg
1447.36	0.721	incorrect	incongruent	Block2	incongruent/STIM_016.jpg
1451.5	0.52	incorrect	incongruent	Block2	incongruent/STIM_016.jpg
1455.243	0.616	correct	incongruent	Block2	incongruent/STIM_016.jpg
1459.677	0.553	correct	incongruent	Block2	incongruent/STIM_017.jpg
1462.627	1.028	correct	incongruent	Block2	incongruent/STIM_017.jpg
1466.904	0.886	correct	incongruent	Block2	incongruent/STIM_017.jpg
1470.392	0.937	correct	incongruent	Block2	incongruent/STIM_017.jpg
1473.432	0.9	correct	incongruent	Block2	incongruent/STIM_017.jpg
1478.199	0.841	correct	incongruent	Block2	incongruent/STIM_018.jpg
1482.756	1.092	correct	incongruent	Block2	incongruent/STIM_018.jpg
1487.421	0.555	correct	incongruent	Block2	incongruent/STIM_018.jpg
1490.196	0.939	correct	incongruent	Block2	incongruent/STIM_018.jpg
1494.377	0.533	incorrect	incongruent	Block2	incongruent/STIM_018.jpg
1498.89	0.612	correct	incongruent	Block2	incongruent/STIM_019.jpg
1503.192	0.79	correct	incongruent	Block2	incongruent/STIM_019.jpg
1506.505	0.807	correct	incongruent	Block2	incongruent/STIM_019.jpg
1510.058	0.84	correct	incongruent	Block2	incongruent/STIM_019.jpg
1514.288	0.498	correct	incongruent	Block2	incongruent/STIM_019.jpg
1517.153	0.914	correct	incongruent	Block2	incongruent/STIM_020.jpg
1520.698	1.071	correct	incongruent	Block2	incongruent/STIM_020.jpg
1525.06	0.666	correct	incongruent	Block2	incongruent/STIM_020.jpg
1527.735	0.672	correct	incongruent	Block2	incongruent/STIM_020.jpg
1530.511	0.474	correct	incongruent	Block2	incongruent/STIM_020.jpg
1533.213	1.006	correct	incongruent	Block2	incongruent/STIM_021.jpg
1537.193	0.53	correct	incongruent	Block2	incongruent/STIM_021.jpg
1540.758	0.516	correct	incongruent	Block2	incongruent/STIM_021.jpg
1544.223	0.815	correct	incongruent	Block2	incongruent/STIM_021.jpg
1548.908	0.658	correct	incongruent	Block2	incongruent/STIM_021.jpg
1553.547	1.041	correct	incongruent	Block2	incongruent/STIM_022.jpg
1557.908	1.025	correct	incongruent	Block2	incongruent/STIM_022.jpg
1560.975	0.756	correct	incongruent	Block2	incongruent/STIM_022.jpg
1565.156	0.845	correct	incongruent	Block2	incongruent/STIM_022.jpg
1568.323	0.914	correct	incongruent	Block2	incongruent/STIM_022.jpg
1572.547	1.124	correct	incongruent	Block2	incongruent/STIM_023.jpg
1576.784	0.856	correct	incongruent	Block2	incongruent/STIM_023.jpg
1581.311	0.836	correct	incongruent	Block2	incongruent/STIM_023.jpg
1584.176	0.899	correct	incongruent	Block2	incongruent/STIM_023.jpg
1587.441	0.512	correct	incongruent	Block2	incongruent/STIM_023.jpg
1591.451	0.974	correct	incongruent	Block2	incongruent/STIM_024.jpg
1596.274	0.602	correct	incongruent	Block2	incongruent/STIM_024.jpg
1600.516	0.557	correct	incongruent	Block2	incongruent/STIM_024.jpg
1604.406	0.589	correct	incongruent	Block2	incongruent/STIM_024.jpg
1607.048	0.862	correct	incongruent	Block2	incongruent/STIM_024.jpg
1610.706	0.979	correct	incongruent	Block2	incongruent/STIM_025.jpg
1615.039	0.89	correct	incongruent	Block2	incongruent/STIM_025.jpg
1619.456	1.023	correct	incongruent	Block2	incongruent/STIM_025.jpg
1624.429	0.944	correct	incongruent	Block2	incongruent/STIM_025.jpg
1628.555	0.724	correct	incongruent	Block2	incongruent/STIM_025.jpg
1631.579	0.89	correct	incongruent	Block2	incongruent/STIM_026.jpg
1634.481	1.028	incorrect	incongruent	Block2	incongruent/STIM_026.jpg
1639.002	0.708	correct	incongruent	Block2	incongruent/STIM_026.jpg
1643.366	0.623	correct	incongruent	Block2	incongruent/STIM_026.jpg
1647.085	0.719	correct	incongruent	Block2	incongruent/STIM_026.jpg
1649.961	1.049	incorrect	incongruent	Block2	incongruent/STIM_027.jpg
1653.405	1.062	incorrect	incongruent	Block2	incongruent/STIM_027.jpg
1657.815	0.635	correct	incongruent	Block2	incongruent/STIM_027.jpg
1661.366	0.75	correct	incongruent	Block2	incongruent/STIM_027.jpg
1664.707	0.744	correct	incongruent	Block2	incongruent/STIM_027.jpg
1668.795	0.981	correct	incongruent	Block2	incongruent/STIM_028.jpg
1672.197	0.655	correct	incongruent	Block2	incongruent/STIM_028.jpg
1675.163	0.764	correct	incongruent	Block2	incongruent/STIM_028.jpg
1679.314	0.909	correct	incongruent	Block2	incongruent/STIM_028.jpg
1682.619	0.669	correct	incongruent	Block2	incongruent/STIM_028.jpg
1685.388	0.603	correct	incongruent	Block2	incongruent/STIM_029.jpg
1689.508	0.654	correct	incongruent	Block2	incongruent/STIM_029.jpg
1692.857	0.982	correct	incongruent	Block2	incongruent/STIM_029.jpg
1696.716	0.724	correct	incongruent	Block2	incongruent/STIM_029.jpg
1699.934	0.898	correct	incongruent	Block2	incongruent/STIM_029.jpg
1703.957	0.718	correct	congruent	Block2	congruent/STIM_000.jpg
1707.701	0.655	correct	congruent	Block2	congruent/STIM_000.jpg
1711.324	0.574	correct	congruent	Block2	congruent/STIM_000.jpg
1713.959	0.664	correct	congruent	Block2	congruent/STIM_000.jpg
1717.947	0.671	correct	congruent	Block2	congruent/STIM_000.jpg
1721.247	0.7	correct	congruent	Block2	congruent/STIM_001.jpg
1725.677	0.522	correct	congruent	Block2	congruent/STIM_001.jpg
1728.576	0.461	correct	congruent	Block2	congruent/STIM_001.jpg
1731.578	0.488	correct	congruent	Block2	congruent/STIM_001.jpg
1734.123	0.734	correct	congruent	Block2	congruent/STIM_001.jpg
1737.524	0.59	correct	congruent	Block2	congruent/STIM_002.jpg
1741.654	0.615	incorrect	congruent	Block2	congruent/STIM_002.jpg
1745.54	0.803	correct	congruent	Block2	congruent/STIM_002.jpg
1748.433	0.767	correct	congruent	Block2	congruent/STIM_002.jpg
1751.919	0.467	correct	congruent	Block2	congruent/STIM_002.jpg
1754.425	0.758	incorrect	congruent	Block2	congruent/STIM_003.jpg
1758.628	0.625	correct	congruent	Block2	congruent/STIM_003.jpg
1762.019	0.602	correct	congruent	Block2	congruent/STIM_003.jpg
1764.882	0.729	correct	congruent	Block2	congruent/STIM_003.jpg
1768.113	0.709	correct	congruent	Block2	congruent/STIM_003.jpg
1770.973	0.729	correct	congruent	Block2	congruent/STIM_004.jpg
1774.929	0.77	correct	congruent	Block2	congruent/STIM_004.jpg
1777.981	0.626	correct	congruent	Block2	congruent/STIM_004.jpg
1781.507	0.714	incorrect	congruent	Block2	congruent/STIM_004.jpg
1785.016	0.621	correct	congruent	Block2	congruent/STIM_004.jpg
1789.468	0.821	correct	congruent	Block2	congruent/STIM_005.jpg
1793.139	0.691	correct	congruent	Block2	congruent/STIM_005.jpg
1797.133	0.811	correct	congruent	Block2	congruent/STIM_005.jpg
1801.831	0.825	correct	congruent	Block2	congruent/STIM_005.jpg
1806.479	0.726	correct	congruent	Block2	congruent/STIM_005.jpg
1810.479	0.511	correct	congruent	Block2	congruent/STIM_006.jpg
1813.393	0.666	correct	congruent	Block2	congruent/STIM_006.jpg
1816.823	0.56	correct	congruent	Block2	congruent/STIM_006.jpg
1821.296	0.625	correct	congruent	Block2	congruent/STIM_006.jpg
1825.146	0.498	correct	congruent	Block2	congruent/STIM_006.jpg
1828.817	0.743	correct	congruent	Block2	congruent/STIM_007.jpg
1833.484	0.498	correct	congruent	Block2	congruent/STIM_007.jpg
1836.038	0.774	correct	congruent	Block2	congruent/STIM_007.jpg
1840.733	0.735	correct	congruent	Block2	congruent/STIM_007.jpg
1843.891	0.821	correct	congruent	Block2	congruent/STIM_007.jpg
1848.431	0.549	incorrect	congruent	Block2	congruent/STIM_008.jpg
1852.345	0.593	correct	congruent	Block2	congruent/STIM_008.jpg
1855.294	0.475	correct	congruent	Block2	congruent/STIM_008.jpg
1859.539	0.495	correct	congruent	Block2	congruent/STIM_008.jpg
1862.336	0.774	correct	congruent	Block2	congruent/STIM_008.jpg
1865.346	0.539	correct	congruent	Block2	congruent/STIM_009.jpg
1868.862	0.686	correct	congruent	Block2	congruent/STIM_009.jpg
1873.339	0.758	correct	congruent	Block2	congruent/STIM_009.jpg
1876.618	0.553	correct	congruent	Block2	congruent/STIM_009.jpg
1879.925	0.676	correct	congruent	Block2	congruent/STIM_009.jpg
1884.129	0.478	correct	congruent	Block2	congruent/STIM_010.jpg
1887.533	0.684	correct	congruent	Block2	congruent/STIM_010.jpg
1891.208	0.652	correct	congruent	Block2	congruent/STIM_010.jpg
1894.495	0.759	correct	congruent	Block2	congruent/STIM_010.jpg
1897.959	0.623	correct	congruent	Block2	congruent/STIM_010.jpg
1902.33	0.807	correct	congruent	Block2	congruent/STIM_011.jpg
1905.776	0.572	incorrect	congruent	Block2	congruent/STIM_011.jpg
1909.471	0.638	correct	congruent	Block2	congruent/STIM_011.jpg
1913.475	0.807	correct	congruent	Block2	congruent/STIM_011.jpg
1916.683	0.546	correct	congruent	Block2	congruent/STIM_011.jpg
1920.63	0.62	correct	congruent	Block2	congruent/STIM_012.jpg
1925.156	0.637	correct	congruent	Block2	congruent/STIM_012.jpg
1928.544	0.757	correct	congruent	Block2	congruent/STIM_012.jpg
1932.298	0.597	correct	congruent	Block2	congruent/STIM_012.jpg
1934.988	0.706	correct	congruent	Block2	congruent/STIM_012.jpg
1939.103	0.735	correct	congruent	Block2	congruent/STIM_013.jpg
1943.304	0.819	correct	congruent	Block2	congruent/STIM_013.jpg
1948.028	0.784	correct	congruent	Block2	congruent/STIM_013.jpg
1951.147	0.749	correct	congruent	Block2	congruent/STIM_013.jpg
1955.449	0.475	correct	congruent	Block2	congruent/STIM_013.jpg
1959.301	0.755	correct	congruent	Block2	congruent/STIM_014.jpg
1962.67	0.807	correct	congruent	Block2	congruent/STIM_014.jpg
1966.778	0.531	correct	congruent	Block2	congruent/STIM_014.jpg
1971.237	0.509	correct	congruent	Block2	congruent/STIM_014.jpg
1975.087	0.468	correct	congruent	Block2	congruent/STIM_014.jpg
1978.215	0.545	correct	congruent	Block2	congruent/STIM_015.jpg
1981.956	0.747	correct	congruent	Block2	congruent/STIM_015.jpg
1985.981	0.669	correct	congruent	Block2	congruent/STIM_015.jpg
1989.189	0.591	correct	congruent	Block2	congruent/STIM_015.jpg
1993.006	0.726	correct	congruent	Block2	congruent/STIM_015.jpg
1997.542	0.501	correct	congruent	Block2	congruent/STIM_016.jpg
2000.204	0.758	correct	congruent	Block2	congruent/STIM_016.jpg
2003.41	0.538	correct	congruent	Block2	congruent/STIM_016.jpg
2006.881	0.592	correct	congruent	Block2	congruent/STIM_016.jpg
2011.164	0.533	correct	congruent	Block2	congruent/STIM_016.jpg
2013.703	0.485	correct	congruent	Block2	congruent/STIM_017.jpg
2018.158	0.786	correct	congruent	Block2	congruent/STIM_017.jpg
2021.107	0.791	correct	congruent	Block2	congruent/STIM_017.jpg
2025.567	0.817	correct	congruent	Block2	congruent/STIM_017.jpg
2030.322	0.764	correct	congruent	Block2	congruent/STIM_017.jpg
2034.521	0.735	correct	congruent	Block2	congruent/STIM_018.jpg
2038.389	0.593	correct	congruent	Block2	congruent/STIM_018.jpg
2042.687	0.622	correct	congruent	Block2	congruent/STIM_018.jpg
2047.189	0.728	correct	congruent	Block2	congruent/STIM_018.jpg
2051.821	0.764	correct	congruent	Block2	congruent/STIM_018.jpg
2055.629	0.463	correct	congruent	Block2	congruent/STIM_019.jpg
2058.902	0.632	correct	congruent	Block2	congruent/STIM_019.jpg
2061.799	0.649	correct	congruent	Block2	congruent/STIM_019.jpg
2064.751	0.742	correct	congruent	Block2	congruent/STIM_019.jpg
2068.61	0.557	correct	congruent	Block2	congruent/STIM_019.jpg
2071.834	0.582	correct	congruent	Block2	congruent/STIM_020.jpg
2075.152	0.618	correct	congruent	Block2	congruent/STIM_020.jpg
2079.235	0.539	correct	congruent	Block2	congruent/STIM_020.jpg
2082.505	0.52	incorrect	congruent	Block2	congruent/STIM_020.jpg
2085.283	0.527	correct	congruent	Block2	congruent/STIM_020.jpg
2087.877	0.607	correct	congruent	Block2	congruent/STIM_021.jpg
2090.903	0.77	correct	congruent	Block2	congruent/STIM_021.jpg
2094.622	0.479	correct	congruent	Block2	congruent/STIM_021.jpg
2097.394	0.472	correct	congruent	Block2	congruent/STIM_021.jpg
2101.052	0.635	correct	congruent	Block2	congruent/STIM_021.jpg
2105.453	0.548	correct	congruent	Block2	congruent/STIM_022.jpg
2109.184	0.577	correct	congruent	Block2	congruent/STIM_022.jpg
2112.242	0.71	correct	congruent	Block2	congruent/STIM_022.jpg
2115.962	0.56	incorrect	congruent	Block2	congruent/STIM_022.jpg
2119.434	0.75	correct	congruent	Block2	congruent/STIM_022.jpg
2122.741	0.782	correct	congruent	Block2	congruent/STIM_023.jpg
2126.345	0.603	correct	congruent	Block2	congruent/STIM_023.jpg
2129.788	0.571	correct	congruent	Block2	congruent/STIM_023.jpg
2133.499	0.487	correct	congruent	Block2	congruent/STIM_023.jpg
2137.449	0.494	correct	congruent	Block2	congruent/STIM_023.jpg
2140.092	0.57	correct	congruent	Block2	congruent/STIM_024.jpg
2143.89	0.475	correct	congruent	Block2	congruent/STIM_024.jpg
2148.097	0.787	correct	congruent	Block2	congruent/STIM_024.jpg
2151.087	0.661	correct	congruent	Block2	congruent/STIM_024.jpg
2155.307	0.76	correct	congruent	Block2	congruent/STIM_024.jpg
2159.4	0.751	correct	congruent	Block2	congruent/STIM_025.jpg
2163.252	0.762	correct	congruent	Block2	congruent/STIM_025.jpg
2167.821	0.654	correct	congruent	Block2	congruent/STIM_025.jpg
2170.73	0.574	correct	congruent	Block2	congruent/STIM_025.jpg
2174.457	0.707	correct	congruent	Block2	congruent/STIM_025.jpg
2177.234	0.494	incorrect	congruent	Block2	congruent/STIM_026.jpg
2181.679	0.686	correct	congruent	Block2	congruent/STIM_026.jpg
2184.741	0.56	correct	congruent	Block2	congruent/STIM_026.jpg
2188.991	0.606	incorrect	congruent	Block2	congruent/STIM_026.jpg
2193.277	0.641	correct	congruent	Block2	congruent/STIM_026.jpg
2197.522	0.622	correct	congruent	Block2	congruent/STIM_027.jpg
2201.679	0.567	correct	congruent	Block2	congruent/STIM_027.jpg
2205.543	0.775	correct	congruent	Block2	congruent/STIM_027.jpg
2209.079	0.652	correct	congruent	Block2	congruent/STIM_027.jpg
2212.146	0.467	correct	congruent	Block2	congruent/STIM_027.jpg
2214.736	0.654	correct	congruent	Block2	congruent/STIM_028.jpg
2218.138	0.704	incorrect	congruent	Block2	congruent/STIM_028.jpg
2222.801	0.705	correct	congruent	Block2	congruent/STIM_028.jpg
2225.773	0.63	correct	congruent	Block2	congruent/STIM_028.jpg
2229.112	0.61	correct	congruent	Block2	congruent/STIM_028.jpg
2233.013	0.795	correct	congruent	Block2	congruent/STIM_029.jpg
2236.878	0.563	correct	congruent	Block2	congruent/STIM_029.jpg
2240.323	0.715	correct	congruent	Block2	congruent/STIM_029.jpg
2244.157	0.709	correct	congruent	Block2	congruent/STIM_029.jpg
2248.807	0.744	correct	congruent	Block2	congruent/STIM_029.jpg
2251.794	0.889	correct	incongruent	Block3	incongruent/STIM_000.jpg
2255.748	0.618	correct	incongruent	Block3	incongruent/STIM_000.jpg
2260.07	0.464	correct	incongruent	Block3	incongruent/STIM_000.jpg
2263.694	0.752	correct	incongruent	Block3	incongruent/STIM_000.jpg
2267.335	0.462	correct	incongruent	Block3	incongruent/STIM_000.jpg
2271.416	0.93	correct	incongruent	Block3	incongruent/STIM_001.jpg
2275.222	0.709	correct	incongruent	Block3	incongruent/STIM_001.jpg
2278.852	0.959	correct	incongruent	Block3	incongruent/STIM_001.jpg
2282.058	0.728	correct	incongruent	Block3	incongruent/STIM_001.jpg
2285.188	0.689	correct	incongruent	Block3	incongruent/STIM_001.jpg
2287.922	0.547	correct	incongruent	Block3	incongruent/STIM_002.jpg
2291.947	0.72	correct	incongruent	Block3	incongruent/STIM_002.jpg
2296.587	0.752	correct	incongruent	Block3	incongruent/STIM_002.jpg
2300.818	0.851	incorrect	incongruent	Block3	incongruent/STIM_002.jpg
2305.501	0.678	correct	incongruent	Block3	incongruent/STIM_002.jpg
2309.943	0.482	correct	incongruent	Block3	incongruent/STIM_003.jpg
2314.377	0.459	correct	incongruent	Block3	incongruent/STIM_003.jpg
2318.251	0.893	correct	incongruent	Block3	incongruent/STIM_003.jpg
2321.395	0.66	correct	incongruent	Block3	incongruent/STIM_003.jpg
2324.603	0.949	correct	incongruent	Block3	incongruent/STIM_003.jpg
2329.29	0.523	correct	incongruent	Block3	incongruent/STIM_004.jpg
2332.077	0.469	correct	incongruent	Block3	incongruent/STIM_004.jpg
2334.91	0.502	incorrect	incongruent	Block3	incongruent/STIM_004.jpg
2338.932	0.959	correct	incongruent	Block3	incongruent/STIM_004.jpg
2343.835	0.665	correct	incongruent	Block3	incongruent/STIM_004.jpg
2347.165	0.621	correct	incongruent	Block3	incongruent/STIM_005.jpg
2350.775	0.66	correct	incongruent	Block3	incongruent/STIM_005.jpg
2354.538	0.627	correct	incongruent	Block3	incongruent/STIM_005.jpg
2357.327	0.78	correct	incongruent	Block3	incongruent/STIM_005.jpg
2361.033	0.535	correct	incongruent	Block3	incongruent/STIM_005.jpg
2365.008	0.772	correct	incongruent	Block3	incongruent/STIM_006.jpg
2368.644	0.966	correct	incongruent	Block3	incongruent/STIM_006.jpg
2372.523	0.7	correct	incongruent	Block3	incongruent/STIM_006.jpg
2376.741	0.576	correct	incongruent	Block3	incongruent/STIM_006.jpg
2380.548	0.852	correct	incongruent	Block3	incongruent/STIM_006.jpg
2385.334	0.658	correct	incongruent	Block3	incongruent/STIM_007.jpg
2388.787	0.612	correct	incongruent	Block3	incongruent/STIM_007.jpg
2392.1	0.9	correct	incongruent	Block3	incongruent/STIM_007.jpg
2395.321	0.796	correct	incongruent	Block3	incongruent/STIM_007.jpg
2398.256	0.786	correct	incongruent	Block3	incongruent/STIM_007.jpg
2401.586	0.844	correct	incongruent	Block3	incongruent/STIM_008.jpg
2405.137	0.565	correct	incongruent	Block3	incongruent/STIM_008.jpg
2408.442	0.672	correct	incongruent	Block3	incongruent/STIM_008.jpg
2412.51	0.745	correct	incongruent	Block3	incongruent/STIM_008.jpg
2417.106	0.559	correct	incongruent	Block3	incongruent/STIM_008.jpg
2420.046	0.958	correct	incongruent	Block3	incongruent/STIM_009.jpg
2424.442	0.49	correct	incongruent	Block3	incongruent/STIM_009.jpg
2428.376	0.919	correct	incongruent	Block3	incongruent/STIM_009.jpg
2432.356	0.785	correct	incongruent	Block3	incongruent/STIM_009.jpg
2435.613	0.688	correct	incongruent	Block3	incongruent/STIM_009.jpg
2438.607	0.928	correct	incongruent	Block3	incongruent/STIM_010.jpg
2441.722	0.889	correct	incongruent	Block3	incongruent/STIM_010.jpg
2444.994	0.528	correct	incongruent	Block3	incongruent/STIM_010.jpg
2448.27	0.64	correct	incongruent	Block3	incongruent/STIM_010.jpg
2451.37	0.926	correct	incongruent	Block3	incongruent/STIM_010.jpg
2456.007	0.869	correct	incongruent	Block3	incongruent/STIM_011.jpg
2460.228	0.696	correct	incongruent	Block3	incongruent/STIM_011.jpg
2463.647	0.927	correct	incongruent	Block3	incongruent/STIM_011.jpg
2466.934	0.831	correct	incongruent	Block3	incongruent/STIM_011.jpg
2470.981	0.81	correct	incongruent	Block3	incongruent/STIM_011.jpg
2473.847	0.776	correct	incongruent	Block3	incongruent/STIM_012.jpg
2477.872	0.718	correct	incongruent	Block3	incongruent/STIM_012.jpg
2481.806	0.958	correct	incongruent	Block3	incongruent/STIM_012.jpg
2485.469	0.755	correct	incongruent	Block3	incongruent/STIM_012.jpg
2488.728	0.728	incorrect	incongruent	Block3	incongruent/STIM_012.jpg
2491.951	0.623	correct	incongruent	Block3	incongruent/STIM_013.jpg
2495.289	0.84	correct	incongruent	Block3	incongruent/STIM_013.jpg
2499.975	0.628	correct	incongruent	Block3	incongruent/STIM_013.jpg
2503.37	0.642	correct	incongruent	Block3	incongruent/STIM_013.jpg
2507.577	0.498	correct	incongruent	Block3	incongruent/STIM_013.jpg
2511.455	0.554	correct	incongruent	Block3	incongruent/STIM_014.jpg
2514.84	0.642	correct	incongruent	Block3	incongruent/STIM_014.jpg
2518.291	0.645	correct	incongruent	Block3	incongruent/STIM_014.jpg
2522.35	0.476	correct	incongruent	Block3	incongruent/STIM_014.jpg
2526.352	0.668	correct	incongruent	Block3	incongruent/STIM_014.jpg
2530.677	0.57	correct	incongruent	Block3	incongruent/STIM_015.jpg
2534.691	0.79	correct	incongruent	Block3	incongruent/STIM_015.jpg
2538.22	0.879	correct	incongruent	Block3	incongruent/STIM_015.jpg
2542.557	0.81	correct	incongruent	Block3	incongruent/STIM_015.jpg
2546.549	0.858	correct	incongruent	Block3	incongruent/STIM_015.jpg
2549.895	0.662	correct	incongruent	Block3	incongruent/STIM_016.jpg
2552.877	0.642	correct	incongruent	Block3	incongruent/STIM_016.jpg
2556.191	0.921	correct	incongruent	Block3	incongruent/STIM_016.jpg
2561.077	0.652	correct	incongruent	Block3	incongruent/STIM_016.jpg
2564.808	0.733	correct	incongruent	Block3	incongruent/STIM_016.jpg
2567.905	0.742	correct	incongruent	Block3	incongruent/STIM_017.jpg
2570.827	0.84	correct	incongruent	Block3	incongruent/STIM_017.jpg
2575.249	0.912	correct	incongruent	Block3	incongruent/STIM_017.jpg
2579.174	0.708	correct	incongruent	Block3	incongruent/STIM_017.jpg
2583.626	0.703	correct	incongruent	Block3	incongruent/STIM_017.jpg
2586.878	0.912	correct	incongruent	Block3	incongruent/STIM_018.jpg
2590.372	0.736	incorrect	incongruent	Block3	incongruent/STIM_018.jpg
2594.81	0.559	correct	incongruent	Block3	incongruent/STIM_018.jpg
2598.776	0.891	correct	incongruent	Block3	incongruent/STIM_018.jpg
2603.229	0.828	correct	incongruent	Block3	incongruent/STIM_018.jpg
2607.512	0.806	correct	incongruent	Block3	incongruent/STIM_019.jpg
2610.707	0.871	correct	incongruent	Block3	incongruent/STIM_019.jpg
2614.758	0.519	correct	incongruent	Block3	incongruent/STIM_019.jpg
2618.803	0.959	correct	incongruent	Block3	incongruent/STIM_019.jpg
2622.664	0.822	correct	incongruent	Block3	incongruent/STIM_019.jpg
2626.173	0.826	correct	incongruent	Block3	incongruent/STIM_020.jpg
2630.749	0.755	correct	incongruent	Block3	incongruent/STIM_020.jpg
2634.022	0.741	correct	incongruent	Block3	incongruent/STIM_020.jpg
2638.456	0.73	correct	incongruent	Block3	incongruent/STIM_020.jpg
2643.026	0.489	incorrect	incongruent	Block3	incongruent/STIM_020.jpg
2645.568	0.503	correct	incongruent	Block3	incongruent/STIM_021.jpg
2649.706	0.839	correct	incongruent	Block3	incongruent/STIM_021.jpg
2652.908	0.944	correct	incongruent	Block3	incongruent/STIM_021.jpg
2656.066	0.874	correct	incongruent	Block3	incongruent/STIM_021.jpg
2658.996	0.767	correct	incongruent	Block3	incongruent/STIM_021.jpg
2662.844	0.638	correct	incongruent	Block3	incongruent/STIM_022.jpg
2667.008	0.585	correct	incongruent	Block3	incongruent/STIM_022.jpg
2669.677	0.764	correct	incongruent	Block3	incongruent/STIM_022.jpg
2674.151	0.654	correct	incongruent	Block3	incongruent/STIM_022.jpg
2677.617	0.621	correct	incongruent	Block3	incongruent/STIM_022.jpg
2681.557	0.88	correct	incongruent	Block3	incongruent/STIM_023.jpg
2685.571	0.618	correct	incongruent	Block3	incongruent/STIM_023.jpg
2689.087	0.625	correct	incongruent	Block3	incongruent/STIM_023.jpg
2693.52	0.482	correct	incongruent	Block3	incongruent/STIM_023.jpg
2696.022	0.67	correct	incongruent	Block3	incongruent/STIM_023.jpg
2699.47	0.727	correct	incongruent	Block3	incongruent/STIM_024.jpg
2703.72	0.492	correct	incongruent	Block3	incongruent/STIM_024.jpg
2707.49	0.51	correct	incongruent	Block3	incongruent/STIM_024.jpg
2711.247	0.684	correct	incongruent	Block3	incongruent/STIM_024.jpg
2715.353	0.705	incorrect	incongruent	Block3	incongruent/STIM_024.jpg
2718.897	0.681	correct	incongruent	Block3	incongruent/STIM_025.jpg
2722.268	0.926	correct	incongruent	Block3	incongruent/STIM_025.jpg
2725.275	0.722	correct	incongruent	Block3	incongruent/STIM_025.jpg
2729.547	0.7	correct	incongruent	Block3	incongruent/STIM_025.jpg
2733.886	0.937	correct	incongruent	Block3	incongruent/STIM_025.jpg
2737.715	0.704	correct	incongruent	Block3	incongruent/STIM_026.jpg
2742.315	0.639	correct	incongruent	Block3	incongruent/STIM_026.jpg
2745.577	0.894	correct	incongruent	Block3	incongruent/STIM_026.jpg
2750.353	0.724	correct	incongruent	Block3	incongruent/STIM_026.jpg
2754.095	0.69	correct	incongruent	Block3	incongruent/STIM_026.jpg
2757.034	0.721	correct	incongruent	Block3	incongruent/STIM_027.jpg
2760.308	0.509	correct	incongruent	Block3	incongruent/STIM_027.jpg
2764.103	0.703	correct	incongruent	Block3	incongruent/STIM_027.jpg
2767.072	0.722	correct	incongruent	Block3	incongruent/STIM_027.jpg
2771.542	0.57	correct	incongruent	Block3	incongruent/STIM_027.jpg
2776.108	0.863	correct	incongruent	Block3	incongruent/STIM_028.jpg
2779.01	0.639	correct	incongruent	Block3	incongruent/STIM_028.jpg
2782.846	0.733	correct	incongruent	Block3	incongruent/STIM_028.jpg
2786.752	0.532	correct	incongruent	Block3	incongruent/STIM_028.jpg
2789.56	0.681	correct	incongruent	Block3	incongruent/STIM_028.jpg
2794.169	0.946	correct	incongruent	Block3	incongruent/STIM_029.jpg
2797.985	0.499	correct	incongruent	Block3	incongruent/STIM_029.jpg
2802.109	0.62	correct	incongruent	Block3	incongruent/STIM_029.jpg
2805.089	0.678	correct	incongruent	Block3	incongruent/STIM_029.jpg
2808.924	0.524	correct	incongruent	Block3	incongruent/STIM_029.jpg
2812.082	0.678	correct	congruent	Block3	congruent/STIM_000.jpg
2815.56	0.501	correct	congruent	Block3	congruent/STIM_000.jpg
2819.556	0.651	correct	congruent	Block3	congruent/STIM_000.jpg
2823.284	0.596	correct	congruent	Block3	congruent/STIM_000.jpg
2826.23	0.587	correct	congruent	Block3	congruent/STIM_000.jpg
2829.04	0.71	correct	congruent	Block3	congruent/STIM_001.jpg
2833.644	0.467	correct	congruent	Block3	congruent/STIM_001.jpg
2836.515	0.756	correct	congruent	Block3	congruent/STIM_001.jpg
2840.298	0.827	correct	congruent	Block3	congruent/STIM_001.jpg
2844.15	0.507	correct	congruent	Block3	congruent/STIM_001.jpg
2848.433	0.48	correct	congruent	Block3	congruent/STIM_002.jpg
2851.508	0.51	correct	congruent	Block3	congruent/STIM_002.jpg
2855.527	0.722	correct	congruent	Block3	congruent/STIM_002.jpg
2858.553	0.775	correct	congruent	Block3	congruent/STIM_002.jpg
2861.672	0.636	correct	congruent	Block3	congruent/STIM_002.jpg
2864.68	0.827	correct	congruent	Block3	congruent/STIM_003.jpg
2868.228	0.775	correct	congruent	Block3	congruent/STIM_003.jpg
2872.008	0.562	correct	congruent	Block3	congruent/STIM_003.jpg
2875.298	0.67	correct	congruent	Block3	congruent/STIM_003.jpg
2879.879	0.642	correct	congruent	Block3	congruent/STIM_003.jpg
2883.62	0.75	correct	congruent	Block3	congruent/STIM_004.jpg
2887.18	0.672	correct	congruent	Block3	congruent/STIM_004.jpg
2890.001	0.788	correct	congruent	Block3	congruent/STIM_004.jpg
2893.359	0.5	correct	congruent	Block3	congruent/STIM_004.jpg
2896.621	0.743	correct	congruent	Block3	congruent/STIM_004.jpg
2899.664	0.653	correct	congruent	Block3	congruent/STIM_005.jpg
2902.743	0.623	correct	congruent	Block3	congruent/STIM_005.jpg
2907.085	0.598	correct	congruent	Block3	congruent/STIM_005.jpg
2909.959	0.828	correct	congruent	Block3	congruent/STIM_005.jpg
2913.23	0.472	correct	congruent	Block3	congruent/STIM_005.jpg
2916.038	0.486	correct	congruent	Block3	congruent/STIM_006.jpg
2919.261	0.74	correct	congruent	Block3	congruent/STIM_006.jpg
2922.472	0.731	correct	congruent	Block3	congruent/STIM_006.jpg
2926.051	0.714	correct	congruent	Block3	congruent/STIM_006.jpg
2929.664	0.629	correct	congruent	Block3	congruent/STIM_006.jpg
2932.782	0.8	correct	congruent	Block3	congruent/STIM_007.jpg
2937.033	0.649	correct	congruent	Block3	congruent/STIM_007.jpg
2940.993	0.482	correct	congruent	Block3	congruent/STIM_007.jpg
2943.813	0.726	correct	congruent	Block3	congruent/STIM_007.jpg
2946.754	0.494	correct	congruent	Block3	congruent/STIM_007.jpg
2950.491	0.571	correct	congruent	Block3	congruent/STIM_008.jpg
2953.702	0.787	correct	congruent	Block3	congruent/STIM_008.jpg
2956.695	0.676	correct	congruent	Block3	congruent/STIM_008.jpg
2960.048	0.664	correct	congruent	Block3	congruent/STIM_008.jpg
2964.355	0.668	correct	congruent	Block3	congruent/STIM_008.jpg
2968.719	0.615	incorrect	congruent	Block3	congruent/STIM_009.jpg
2972.756	0.771	correct	congruent	Block3	congruent/STIM_009.jpg
2975.843	0.619	incorrect	congruent	Block3	congruent/STIM_009.jpg
2980.276	0.491	correct	congruent	Block3	congruent/STIM_009.jpg
2983.979	0.653	correct	congruent	Block3	congruent/STIM_009.jpg
2988.515	0.763	correct	congruent	Block3	congruent/STIM_010.jpg
2993.253	0.692	correct	congruent	Block3	congruent/STIM_010.jpg
2997.942	0.588	correct	congruent	Block3	congruent/STIM_010.jpg
3001.673	0.485	correct	congruent	Block3	congruent/STIM_010.jpg
3004.929	0.543	correct	congruent	Block3	congruent/STIM_010.jpg
3007.676	0.727	correct	congruent	Block3	congruent/STIM_011.jpg
3011.741	0.753	correct	congruent	Block3	congruent/STIM_011.jpg
3014.577	0.667	correct	congruent	Block3	congruent/STIM_011.jpg
3018.826	0.799	correct	congruent	Block3	congruent/STIM_011.jpg
3021.783	0.767	correct	congruent	Block3	congruent/STIM_011.jpg
3024.893	0.463	correct	congruent	Block3	congruent/STIM_012.jpg
3028.461	0.598	correct	congruent	Block3	congruent/STIM_012.jpg
3031.575	0.61	correct	congruent	Block3	congruent/STIM_012.jpg
3036.073	0.651	correct	congruent	Block3	congruent/STIM_012.jpg
3040.201	0.487	correct	congruent	Block3	congruent/STIM_012.jpg
3044.579	0.7	correct	congruent	Block3	congruent/STIM_013.jpg
3048.678	0.526	correct	congruent	Block3	congruent/STIM_013.jpg
3051.447	0.577	correct	congruent	Block3	congruent/STIM_013.jpg
3055.832	0.782	correct	congruent	Block3	congruent/STIM_013.jpg
3060.396	0.531	correct	congruent	Block3	congruent/STIM_013.jpg
3064.883	0.736	correct	congruent	Block3	congruent/STIM_014.jpg
3069.155	0.666	correct	congruent	Block3	congruent/STIM_014.jpg
3072.738	0.591	correct	congruent	Block3	congruent/STIM_014.jpg
3075.851	0.577	correct	congruent	Block3	congruent/STIM_014.jpg
3080.117	0.816	correct	congruent	Block3	congruent/STIM_014.jpg
3083.548	0.758	correct	congruent	Block3	congruent/STIM_015.jpg
3086.5	0.807	correct	congruent	Block3	congruent/STIM_015.jpg
3090.328	0.696	correct	congruent	Block3	congruent/STIM_015.jpg
3093.855	0.579	correct	congruent	Block3	congruent/STIM_015.jpg
3097.947	0.65	correct	congruent	Block3	congruent/STIM_015.jpg
3101.253	0.682	correct	congruent	Block3	congruent/STIM_016.jpg
3105.751	0.675	correct	congruent	Block3	congruent/STIM_016.jpg
3108.583	0.546	correct	congruent	Block3	congruent/STIM_016.jpg
3112.269	0.7	correct	congruent	Block3	congruent/STIM_016.jpg
3115.643	0.642	correct	congruent	Block3	congruent/STIM_016.jpg
3118.737	0.759	correct	congruent	Block3	congruent/STIM_017.jpg
3122.516	0.528	correct	congruent	Block3	congruent/STIM_017.jpg
3126.152	0.777	correct	congruent	Block3	congruent/STIM_017.jpg
3130.573	0.688	correct	congruent	Block3	congruent/STIM_017.jpg
3135.142	0.542	correct	congruent	Block3	congruent/STIM_017.jpg
3139.303	0.586	correct	congruent	Block3	congruent/STIM_018.jpg
3143.273	0.654	correct	congruent	Block3	congruent/STIM_018.jpg
3147.027	0.546	correct	congruent	Block3	congruent/STIM_018.jpg
3149.93	0.757	correct	congruent	Block3	congruent/STIM_018.jpg
3153.087	0.825	correct	congruent	Block3	congruent/STIM_018.jpg
3157.252	0.686	correct	congruent	Block3	congruent/STIM_019.jpg
3161.128	0.668	correct	congruent	Block3	congruent/STIM_019.jpg
3164.197	0.557	correct	congruent	Block3	congruent/STIM_019.jpg
3168.413	0.723	correct	congruent	Block3	congruent/STIM_019.jpg
3172.818	0.702	correct	congruent	Block3	congruent/STIM_019.jpg
3177.432	0.61	correct	congruent	Block3	congruent/STIM_020.jpg
3180.085	0.673	correct	congruent	Block3	congruent/STIM_020.jpg
3182.91	0.592	correct	congruent	Block3	congruent/STIM_020.jpg
3185.801	0.664	correct	congruent	Block3	congruent/STIM_020.jpg
3188.484	0.489	correct	congruent	Block3	congruent/STIM_020.jpg
3192.483	0.623	correct	congruent	Block3	congruent/STIM_021.jpg
3195.868	0.558	correct	congruent	Block3	congruent/STIM_021.jpg
3200.05	0.634	correct	congruent	Block3	congruent/STIM_021.jpg
3204.638	0.551	correct	congruent	Block3	congruent/STIM_021.jpg
3207.192	0.531	correct	congruent	Block3	congruent/STIM_021.jpg
3211.557	0.783	correct	congruent	Block3	congruent/STIM_022.jpg
3215.681	0.513	correct	congruent	Block3	congruent/STIM_022.jpg
3219.131	0.722	correct	congruent	Block3	congruent/STIM_022.jpg
3222.181	0.636	correct	congruent	Block3	congruent/STIM_022.jpg
3225.054	0.775	correct	congruent	Block3	congruent/STIM_022.jpg
3228.635	0.526	correct	congruent	Block3	congruent/STIM_023.jpg
3232.473	0.706	correct	congruent	Block3	congruent/STIM_023.jpg
3236.862	0.821	correct	congruent	Block3	congruent/STIM_023.jpg
3240.494	0.547	correct	congruent	Block3	congruent/STIM_023.jpg
3245.031	0.717	correct	congruent	Block3	congruent/STIM_023.jpg
3249.732	0.503	correct	congruent	Block3	congruent/STIM_024.jpg
3252.581	0.467	correct	congruent	Block3	congruent/STIM_024.jpg
3255.485	0.468	correct	congruent	Block3	congruent/STIM_024.jpg
3259.447	0.629	correct	congruent	Block3	congruent/STIM_024.jpg
3262.215	0.596	incorrect	congruent	Block3	congruent/STIM_024.jpg
3265.174	0.789	correct	congruent	Block3	congruent/STIM_025.jpg
3268.809	0.538	correct	congruent	Block3	congruent/STIM_025.jpg
3272.839	0.611	correct	congruent	Block3	congruent/STIM_025.jpg
3277.169	0.632	correct	congruent	Block3	congruent/STIM_025.jpg
3281.613	0.525	correct	congruent	Block3	congruent/STIM_025.jpg
3285.929	0.727	correct	congruent	Block3	congruent/STIM_026.jpg
3290.547	0.646	correct	congruent	Block3	congruent/STIM_026.jpg
3293.449	0.81	correct	congruent	Block3	congruent/STIM_026.jpg
3298.115	0.754	correct	congruent	Block3	congruent/STIM_026.jpg
3301.502	0.526	correct	congruent	Block3	congruent/STIM_026.jpg
3305.939	0.758	correct	congruent	Block3	congruent/STIM_027.jpg
3309.584	0.62	correct	congruent	Block3	congruent/STIM_027.jpg
3313.85	0.486	correct	congruent	Block3	congruent/STIM_027.jpg
3316.34	0.744	correct	congruent	Block3	congruent/STIM_027.jpg
3320.409	0.553	incorrect	congruent	Block3	congruent/STIM_027.jpg
3324.372	0.692	correct	congruent	Block3	congruent/STIM_028.jpg
3328.273	0.738	correct	congruent	Block3	congruent/STIM_028.jpg
3331.48	0.659	correct	congruent	Block3	congruent/STIM_028.jpg
3334.518	0.599	correct	congruent	Block3	congruent/STIM_028.jpg
3338.38	0.657	correct	congruent	Block3	congruent/STIM_028.jpg
3341.559	0.788	correct	congruent	Block3	congruent/STIM_029.jpg
3345.106	0.466	correct	congruent	Block3	congruent/STIM_029.jpg
3348.072	0.592	correct	congruent	Block3	congruent/STIM_029.jpg
3352.323	0.707	correct	congruent	Block3	congruent/STIM_029.jpg
3355.221	0.514	correct	congruent	Block3	congruent/STIM_029.jpg
