onset	duration	accuracy_binary	trial_type	learning_stage	stimulus
0.0	0.996	1	incongruent	Block1	incongruent/STIM_000.jpg
4.625	0.921	1	incongruent	Block1	incongruent/STIM_000.jpg
9.541	0.752	1	incongruent	Block1	incongruent/STIM_000.jpg
13.594	0.58	1	incongruent	Block1	incongruent/STIM_000.jpg
16.641	0.583	1	incongruent	Block1	incongruent/STIM_000.jpg
20.262	0.842	0	incongruent	Block1	incongruent/STIM_001.jpg
23.23	0.748	0	incongruent	Block1	incongruent/STIM_001.jpg
27.771	0.619	1	incongruent	Block1	incongruent/STIM_001.jpg
31.302	0.593	1	incongruent	Block1	incongruent/STIM_001.jpg
34.002	0.737	1	incongruent	Block1	incongruent/STIM_001.jpg
37.867	1.302	1	incongruent	Block1	incongruent/STIM_002.jpg
41.638	1.374	1	incongruent	Block1	incongruent/STIM_002.jpg
45.965	0.654	1	incongruent	Block1	incongruent/STIM_002.jpg
49.949	0.806	1	incongruent	Block1	incongruent/STIM_002.jpg
53.29	0.6	0	incongruent	Block1	incongruent/STIM_002.jpg
55.975	1.144	0	incongruent	Block1	incongruent/STIM_003.jpg
59.346	1.327	1	incongruent	Block1	incongruent/STIM_003.jpg
64.496	1.107	1	incongruent	Block1	incongruent/STIM_003.jpg
68.159	1.216	1	incongruent	Block1	incongruent/STIM_003.jpg
71.916	0.703	1	incongruent	Block1	incongruent/STIM_003.jpg
75.05	0.712	1	incongruent	Block1	incongruent/STIM_004.jpg
79.582	1.274	1	incongruent	Block1	incongruent/STIM_004.jpg
83.673	1.227	1	incongruent	Block1	incongruent/STIM_004.jpg
87.26	0.873	1	incongruent	Block1	incongruent/STIM_004.jpg
90.476	1.0	1	incongruent	Block1	incongruent/STIM_004.jpg
95.171	1.371	1	incongruent	Block1	incongruent/STIM_005.jpg
99.42	0.854	0	incongruent	Block1	incongruent/STIM_005.jpg
103.341	0.79	0	incongruent	Block1	incongruent/STIM_005.jpg
107.673	0.996	1	incongruent	Block1	incongruent/STIM_005.jpg
111.193	0.627	1	incongruent	Block1	incongruent/STIM_005.jpg
115.141	0.854	1	incongruent	Block1	incongruent/STIM_006.jpg
118.4	0.916	1	incongruent	Block1	incongruent/STIM_006.jpg
122.575	0.747	1	incongruent	Block1	incongruent/STIM_006.jpg
125.809	0.671	1	incongruent	Block1	incongruent/STIM_006.jpg
129.18	1.137	1	incongruent	Block1	incongruent/STIM_006.jpg
132.545	0.766	1	incongruent	Block1	incongruent/STIM_007.jpg
135.407	0.844	1	incongruent	Block1	incongruent/STIM_007.jpg
138.475	0.664	0	incongruent	Block1	incongruent/STIM_007.jpg
142.275	0.86	1	incongruent	Block1	incongruent/STIM_007.jpg
145.983	0.639	1	incongruent	Block1	incongruent/STIM_007.jpg
149.458	1.292	1	incongruent	Block1	incongruent/STIM_008.jpg
153.105	0.793	0	incongruent	Block1	incongruent/STIM_008.jpg
156.388	1.208	1	incongruent	Block1	incongruent/STIM_008.jpg
161.051	0.77	0	incongruent	Block1	incongruent/STIM_008.jpg
164.791	1.054	1	incongruent	Block1	incongruent/STIM_008.jpg
168.181	1.067	0	incongruent	Block1	incongruent/STIM_009.jpg
172.103	0.823	1	incongruent	Block1	incongruent/STIM_009.jpg
176.036	1.034	1	incongruent	Block1	incongruent/STIM_009.jpg
179.479	1.094	0	incongruent	Block1	incongruent/STIM_009.jpg
182.849	0.58	1	incongruent	Block1	incongruent/STIM_009.jpg
185.484	0.922	0	incongruent	Block1	incongruent/STIM_010.jpg
189.42	1.115	1	incongruent	Block1	incongruent/STIM_010.jpg
193.026	0.625	1	incongruent	Block1	incongruent/STIM_010.jpg
197.153	0.884	1	incongruent	Block1	incongruent/STIM_010.jpg
201.411	0.786	0	incongruent	Block1	incongruent/STIM_010.jpg
204.681	1.265	1	incongruent	Block1	incongruent/STIM_011.jpg
208.676	1.167	1	incongruent	Block1	incongruent/STIM_011.jpg
212.195	0.814	1	incongruent	Block1	incongruent/STIM_011.jpg
216.414	0.726	1	incongruent	Block1	incongruent/STIM_011.jpg
220.802	0.567	1	incongruent	Block1	incongruent/STIM_011.jpg
224.542	1.437	1	incongruent	Block1	incongruent/STIM_012.jpg
228.973	0.741	1	incongruent	Block1	incongruent/STIM_012.jpg
233.032	0.978	0	incongruent	Block1	incongruent/STIM_012.jpg
237.453	1.13	1	incongruent	Block1	incongruent/STIM_012.jpg
241.428	1.1	1	incongruent	Block1	incongruent/STIM_012.jpg
246.414	1.341	1	incongruent	Block1	incongruent/STIM_013.jpg
250.706	1.36	1	incongruent	Block1	incongruent/STIM_013.jpg
254.884	0.85	1	incongruent	Block1	incongruent/STIM_013.jpg
258.599	1.115	1	incongruent	Block1	incongruent/STIM_013.jpg
262.002	1.113	1	incongruent	Block1	incongruent/STIM_013.jpg
265.608	0.994	1	incongruent	Block1	incongruent/STIM_014.jpg
269.461	1.372	1	incongruent	Block1	incongruent/STIM_014.jpg
274.255	1.201	1	incongruent	Block1	incongruent/STIM_014.jpg
277.938	0.744	0	incongruent	Block1	incongruent/STIM_014.jpg
281.966	1.066	1	incongruent	Block1	incongruent/STIM_014.jpg
285.254	1.333	0	incongruent	Block1	incongruent/STIM_015.jpg
289.728	1.065	1	incongruent	Block1	incongruent/STIM_015.jpg
293.615	1.298	1	incongruent	Block1	incongruent/STIM_015.jpg
297.373	0.739	1	incongruent	Block1	incongruent/STIM_015.jpg
301.698	0.616	1	incongruent	Block1	incongruent/STIM_015.jpg
305.777	1.408	1	incongruent	Block1	incongruent/STIM_016.jpg
310.662	1.195	0	incongruent	Block1	incongruent/STIM_016.jpg
315.165	1.298	1	incongruent	Block1	incongruent/STIM_016.jpg
319.399	1.187	1	incongruent	Block1	incongruent/STIM_016.jpg
324.313	0.951	1	incongruent	Block1	incongruent/STIM_016.jpg
328.205	0.924	1	incongruent	Block1	incongruent/STIM_017.jpg
331.943	1.342	1	incongruent	Block1	incongruent/STIM_017.jpg
336.579	0.85	1	incongruent	Block1	incongruent/STIM_017.jpg
339.807	0.669	1	incongruent	Block1	incongruent/STIM_017.jpg
342.909	1.012	1	incongruent	Block1	incongruent/STIM_017.jpg
346.538	0.848	0	incongruent	Block1	incongruent/STIM_018.jpg
350.364	1.084	1	incongruent	Block1	incongruent/STIM_018.jpg
354.291	1.172	1	incongruent	Block1	incongruent/STIM_018.jpg
359.029	0.628	1	incongruent	Block1	incongruent/STIM_018.jpg
362.367	1.006	1	incongruent	Block1	incongruent/STIM_018.jpg
366.336	1.182	0	incongruent	Block1	incongruent/STIM_019.jpg
369.74	1.283	1	incongruent	Block1	incongruent/STIM_019.jpg
373.939	0.84	1	incongruent	Block1	incongruent/STIM_019.jpg
377.112	1.098	1	incongruent	Block1	incongruent/STIM_019.jpg
381.716	1.157	1	incongruent	Block1	incongruent/STIM_019.jpg
386.417	0.725	0	incongruent	Block1	incongruent/STIM_020.jpg
390.833	1.206	1	incongruent	Block1	incongruent/STIM_020.jpg
394.5	1.026	1	incongruent	Block1	incongruent/STIM_020.jpg
398.828	0.941	1	incongruent	Block1	incongruent/STIM_020.jpg
403.294	0.608	1	incongruent	Block1	incongruent/STIM_020.jpg
407.636	1.347	1	incongruent	Block1	incongruent/STIM_021.jpg
412.34	0.881	1	incongruent	Block1	incongruent/STIM_021.jpg
416.398	1.026	0	incongruent	Block1	incongruent/STIM_021.jpg
420.729	0.747	1	incongruent	Block1	incongruent/STIM_021.jpg
423.689	0.628	1	incongruent	Block1	incongruent/STIM_021.jpg
427.972	1.294	1	incongruent	Block1	incongruent/STIM_022.jpg
431.884	0.653	1	incongruent	Block1	incongruent/STIM_022.jpg
435.114	0.844	0	incongruent	Block1	incongruent/STIM_022.jpg
438.679	1.032	1	incongruent	Block1	incongruent/STIM_022.jpg
442.926	0.802	1	incongruent	Block1	incongruent/STIM_022.jpg
447.313	1.324	1	incongruent	Block1	incongruent/STIM_023.jpg
452.662	0.877	1	incongruent	Block1	incongruent/STIM_023.jpg
457.378	0.739	1	incongruent	Block1	incongruent/STIM_023.jpg
461.643	0.625	1	incongruent	Block1	incongruent/STIM_023.jpg
465.61	0.796	0	incongruent	Block1	incongruent/STIM_023.jpg
470.244	0.883	1	incongruent	Block1	incongruent/STIM_024.jpg
474.569	0.821	1	incongruent	Block1	incongruent/STIM_024.jpg
479.104	0.908	1	incongruent	Block1	incongruent/STIM_024.jpg
482.404	1.109	1	incongruent	Block1	incongruent/STIM_024.jpg
486.805	0.93	1	incongruent	Block1	incongruent/STIM_024.jpg
490.318	1.119	1	incongruent	Block1	incongruent/STIM_025.jpg
493.639	1.305	1	incongruent	Block1	incongruent/STIM_025.jpg
497.658	1.092	1	incongruent	Block1	incongruent/STIM_025.jpg
502.092	0.892	1	incongruent	Block1	incongruent/STIM_025.jpg
505.71	0.765	0	incongruent	Block1	incongruent/STIM_025.jpg
508.76	1.431	1	incongruent	Block1	incongruent/STIM_026.jpg
513.928	1.273	1	incongruent	Block1	incongruent/STIM_026.jpg
519.245	1.166	1	incongruent	Block1	incongruent/STIM_026.jpg
522.942	0.768	1	incongruent	Block1	incongruent/STIM_026.jpg
526.611	0.66	1	incongruent	Block1	incongruent/STIM_026.jpg
530.337	1.438	1	incongruent	Block1	incongruent/STIM_027.jpg
533.903	0.835	1	incongruent	Block1	incongruent/STIM_027.jpg
537.402	0.878	1	incongruent	Block1	incongruent/STIM_027.jpg
541.942	1.161	1	incongruent	Block1	incongruent/STIM_027.jpg
546.665	1.12	1	incongruent	Block1	incongruent/STIM_027.jpg
551.766	1.231	1	incongruent	Block1	incongruent/STIM_028.jpg
556.348	0.985	0	incongruent	Block1	incongruent/STIM_028.jpg
560.094	1.046	1	incongruent	Block1	incongruent/STIM_028.jpg
564.275	1.142	1	incongruent	Block1	incongruent/STIM_028.jpg
569.344	0.63	1	incongruent	Block1	incongruent/STIM_028.jpg
573.672	1.377	1	incongruent	Block1	incongruent/STIM_029.jpg
578.132	0.657	1	incongruent	Block1	incongruent/STIM_029.jpg
581.001	0.752	1	incongruent	Block1	incongruent/STIM_029.jpg
585.14	1.066	1	incongruent	Block1	incongruent/STIM_029.jpg
588.903	0.792	1	incongruent	Block1	incongruent/STIM_029.jpg
593.059	0.85	0	congruent	Block1	congruent/STIM_000.jpg
597.603	0.573	1	congruent	Block1	congruent/STIM_000.jpg
602.105	0.841	1	congruent	Block1	congruent/STIM_000.jpg
606.648	0.725	1	congruent	Block1	congruent/STIM_000.jpg
610.373	0.841	1	congruent	Block1	congruent/STIM_000.jpg
613.612	0.654	1	congruent	Block1	congruent/STIM_001.jpg
618.101	0.514	1	congruent	Block1	congruent/STIM_001.jpg
621.969	0.805	1	congruent	Block1	congruent/STIM_001.jpg
626.46	0.542	1	congruent	Block1	congruent/STIM_001.jpg
630.134	0.484	1	congruent	Block1	congruent/STIM_001.jpg
634.106	0.818	1	congruent	Block1	congruent/STIM_002.jpg
637.812	0.725	1	congruent	Block1	congruent/STIM_002.jpg
641.665	0.543	1	congruent	Block1	congruent/STIM_002.jpg
645.12	0.796	1	congruent	Block1	congruent/STIM_002.jpg
648.242	0.511	1	congruent	Block1	congruent/STIM_002.jpg
651.148	0.826	1	congruent	Block1	congruent/STIM_003.jpg
654.617	0.69	1	congruent	Block1	congruent/STIM_003.jpg
657.914	0.547	1	congruent	Block1	congruent/STIM_003.jpg
661.801	0.624	1	congruent	Block1	congruent/STIM_003.jpg
665.823	0.756	1	congruent	Block1	congruent/STIM_003.jpg
670.381	0.72	1	congruent	Block1	congruent/STIM_004.jpg
674.83	0.535	1	congruent	Block1	congruent/STIM_004.jpg
678.238	0.56	1	congruent	Block1	congruent/STIM_004.jpg
681.347	0.863	1	congruent	Block1	congruent/STIM_004.jpg
685.949	0.664	1	congruent	Block1	congruent/STIM_004.jpg
689.822	0.63	1	congruent	Block1	congruent/STIM_005.jpg
693.493	0.744	1	congruent	Block1	congruent/STIM_005.jpg
697.628	0.812	1	congruent	Block1	congruent/STIM_005.jpg
701.045	0.697	1	congruent	Block1	congruent/STIM_005.jpg
705.404	0.78	1	congruent	Block1	congruent/STIM_005.jpg
709.802	0.782	1	congruent	Block1	congruent/STIM_006.jpg
713.482	0.822	1	congruent	Block1	congruent/STIM_006.jpg
717.576	0.645	1	congruent	Block1	congruent/STIM_006.jpg
721.343	0.612	1	congruent	Block1	congruent/STIM_006.jpg
725.684	0.808	1	congruent	Block1	congruent/STIM_006.jpg
730.377	0.567	1	congruent	Block1	congruent/STIM_007.jpg
733.23	0.548	1	congruent	Block1	congruent/STIM_007.jpg
736.151	0.575	1	congruent	Block1	congruent/STIM_007.jpg
740.073	0.719	1	congruent	Block1	congruent/STIM_007.jpg
744.033	0.587	1	congruent	Block1	congruent/STIM_007.jpg
747.555	0.748	1	congruent	Block1	congruent/STIM_008.jpg
750.586	0.69	1	congruent	Block1	congruent/STIM_008.jpg
754.319	0.576	1	congruent	Block1	congruent/STIM_008.jpg
758.193	0.688	1	congruent	Block1	congruent/STIM_008.jpg
761.599	0.548	1	congruent	Block1	congruent/STIM_008.jpg
765.889	0.516	1	congruent	Block1	congruent/STIM_009.jpg
770.252	0.835	1	congruent	Block1	congruent/STIM_009.jpg
774.881	0.492	1	congruent	Block1	congruent/STIM_009.jpg
778.478	0.804	1	congruent	Block1	congruent/STIM_009.jpg
781.674	0.553	1	congruent	Block1	congruent/STIM_009.jpg
785.158	0.589	1	congruent	Block1	congruent/STIM_010.jpg
788.298	0.569	1	congruent	Block1	congruent/STIM_010.jpg
791.95	0.522	1	congruent	Block1	congruent/STIM_010.jpg
794.945	0.624	1	congruent	Block1	congruent/STIM_010.jpg
798.75	0.608	1	congruent	Block1	congruent/STIM_010.jpg
802.473	0.515	1	congruent	Block1	congruent/STIM_011.jpg
805.692	0.728	1	congruent	Block1	congruent/STIM_011.jpg
809.919	0.618	1	congruent	Block1	congruent/STIM_011.jpg
812.937	0.483	1	congruent	Block1	congruent/STIM_011.jpg
817.405	0.735	0	congruent	Block1	congruent/STIM_011.jpg
822.121	0.847	1	congruent	Block1	congruent/STIM_012.jpg
825.615	0.638	1	congruent	Block1	congruent/STIM_012.jpg
828.435	0.849	0	congruent	Block1	congruent/STIM_012.jpg
832.89	0.7	0	congruent	Block1	congruent/STIM_012.jpg
837.54	0.695	1	congruent	Block1	congruent/STIM_012.jpg
840.861	0.68	1	congruent	Block1	congruent/STIM_013.jpg
844.237	0.588	1	congruent	Block1	congruent/STIM_013.jpg
847.658	0.52	1	congruent	Block1	congruent/STIM_013.jpg
850.923	0.556	1	congruent	Block1	congruent/STIM_013.jpg
853.563	0.716	1	congruent	Block1	congruent/STIM_013.jpg
858.042	0.573	1	congruent	Block1	congruent/STIM_014.jpg
860.962	0.505	1	congruent	Block1	congruent/STIM_014.jpg
863.678	0.638	1	congruent	Block1	congruent/STIM_014.jpg
866.491	0.676	1	congruent	Block1	congruent/STIM_014.jpg
870.017	0.757	1	congruent	Block1	congruent/STIM_014.jpg
874.68	0.746	1	congruent	Block1	congruent/STIM_015.jpg
878.564	0.671	1	congruent	Block1	congruent/STIM_015.jpg
882.639	0.767	1	congruent	Block1	congruent/STIM_015.jpg
886.187	0.531	1	congruent	Block1	congruent/STIM_015.jpg
888.863	0.796	1	congruent	Block1	congruent/STIM_015.jpg
893.021	0.693	1	congruent	Block1	congruent/STIM_016.jpg
896.507	0.858	1	congruent	Block1	congruent/STIM_016.jpg
899.648	0.836	1	congruent	Block1	congruent/STIM_016.jpg
903.399	0.812	1	congruent	Block1	congruent/STIM_016.jpg
907.846	0.543	0	congruent	Block1	congruent/STIM_016.jpg
911.529	0.536	1	congruent	Block1	congruent/STIM_017.jpg
915.284	0.605	1	congruent	Block1	congruent/STIM_017.jpg
918.665	0.763	1	congruent	Block1	congruent/STIM_017.jpg
923.307	0.656	1	congruent	Block1	congruent/STIM_017.jpg
926.532	0.859	1	congruent	Block1	congruent/STIM_017.jpg
930.952	0.594	1	congruent	Block1	congruent/STIM_018.jpg
934.148	0.649	1	congruent	Block1	congruent/STIM_018.jpg
938.817	0.842	1	congruent	Block1	congruent/STIM_018.jpg
941.923	0.602	1	congruent	Block1	congruent/STIM_018.jpg
946.285	0.858	1	congruent	Block1	congruent/STIM_018.jpg
949.712	0.662	1	congruent	Block1	congruent/STIM_019.jpg
953.077	0.623	1	congruent	Block1	congruent/STIM_019.jpg
956.037	0.548	1	congruent	Block1	congruent/STIM_019.jpg
959.253	0.819	1	congruent	Block1	congruent/STIM_019.jpg
962.901	0.801	1	congruent	Block1	congruent/STIM_019.jpg
967.412	0.825	1	congruent	Block1	congruent/STIM_020.jpg
970.531	0.799	1	congruent	Block1	congruent/STIM_020.jpg
974.272	0.578	1	congruent	Block1	congruent/STIM_020.jpg
977.643	0.755	1	congruent	Block1	congruent/STIM_020.jpg
981.736	0.655	1	congruent	Block1	congruent/STIM_020.jpg
985.79	0.554	1	congruent	Block1	congruent/STIM_021.jpg
990.039	0.867	1	congruent	Block1	congruent/STIM_021.jpg
994.785	0.642	1	congruent	Block1	congruent/STIM_021.jpg
998.23	0.735	1	congruent	Block1	congruent/STIM_021.jpg
1001.459	0.543	1	congruent	Block1	congruent/STIM_021.jpg
1004.228	0.82	1	congruent	Block1	congruent/STIM_022.jpg
1007.254	0.535	1	congruent	Block1	congruent/STIM_022.jpg
1011.798	0.687	1	congruent	Block1	congruent/STIM_022.jpg
1014.709	0.69	1	congruent	Block1	congruent/STIM_022.jpg
1019.389	0.795	1	congruent	Block1	congruent/STIM_022.jpg
1023.885	0.759	1	congruent	Block1	congruent/STIM_023.jpg
1026.831	0.609	1	congruent	Block1	congruent/STIM_023.jpg
1030.513	0.577	1	congruent	Block1	congruent/STIM_023.jpg
1034.87	0.733	0	congruent	Block1	congruent/STIM_023.jpg
1039.393	0.61	1	congruent	Block1	congruent/STIM_023.jpg
1043.65	0.792	1	congruent	Block1	congruent/STIM_024.jpg
1046.828	0.737	1	congruent	Block1	congruent/STIM_024.jpg
1050.192	0.615	1	congruent	Block1	congruent/STIM_024.jpg
1054.338	0.727	0	congruent	Block1	congruent/STIM_024.jpg
1058.106	0.563	1	congruent	Block1	congruent/STIM_024.jpg
1060.859	0.611	1	congruent	Block1	congruent/STIM_025.jpg
1064.089	0.723	1	congruent	Block1	congruent/STIM_025.jpg
1067.813	0.694	1	congruent	Block1	congruent/STIM_025.jpg
1071.535	0.579	1	congruent	Block1	congruent/STIM_025.jpg
1075.488	0.696	1	congruent	Block1	congruent/STIM_025.jpg
1079.333	0.616	0	congruent	Block1	congruent/STIM_026.jpg
1083.751	0.716	1	congruent	Block1	congruent/STIM_026.jpg
1086.889	0.65	1	congruent	Block1	congruent/STIM_026.jpg
1091.52	0.56	1	congruent	Block1	congruent/STIM_026.jpg
1095.445	0.758	1	congruent	Block1	congruent/STIM_026.jpg
1098.93	0.756	1	congruent	Block1	congruent/STIM_027.jpg
1102.416	0.82	1	congruent	Block1	congruent/STIM_027.jpg
1105.515	0.619	1	congruent	Block1	congruent/STIM_027.jpg
1109.728	0.804	1	congruent	Block1	congruent/STIM_027.jpg
1114.179	0.589	1	congruent	Block1	congruent/STIM_027.jpg
1118.64	0.485	1	congruent	Block1	congruent/STIM_028.jpg
1122.309	0.61	1	congruent	Block1	congruent/STIM_028.jpg
1125.518	0.77	1	congruent	Block1	congruent/STIM_028.jpg
1129.286	0.788	1	congruent	Block1	congruent/STIM_028.jpg
1132.997	0.55	1	congruent	Block1	congruent/STIM_028.jpg
1136.677	0.596	1	congruent	Block1	congruent/STIM_029.jpg
1139.447	0.812	1	congruent	Block1	congruent/STIM_029.jpg
1142.986	0.548	1	congruent	Block1	congruent/STIM_029.jpg
1146.302	0.861	1	congruent	Block1	congruent/STIM_029.jpg
1151.025	0.56	1	congruent	Block1	congruent/STIM_029.jpg
1154.239	1.013	0	incongruent	Block2	incongruent/STIM_000.jpg
1159.114	0.941	1	incongruent	Block2	incongruent/STIM_000.jpg
1162.324	1.0	1	incongruent	Block2	incongruent/STIM_000.jpg
1166.986	0.618	1	incongruent	Block2	incongruent/STIM_000.jpg
1171.269	0.91	1	incongruent	Block2	incongruent/STIM_000.jpg
1176.098	1.224	1	incongruent	Block2	incongruent/STIM_001.jpg
1181.244	1.09	1	incongruent	Block2	incongruent/STIM_001.jpg
1184.576	0.605	1	incongruent	Block2	incongruent/STIM_001.jpg
1187.605	0.679	1	incongruent	Block2	incongruent/STIM_001.jpg
1191.947	0.801	1	incongruent	Block2	incongruent/STIM_001.jpg
1195.65	0.615	1	incongruent	Block2	incongruent/STIM_002.jpg
1199.742	0.766	1	incongruent	Block2	incongruent/STIM_002.jpg
1203.333	0.812	1	incongruent	Block2	incongruent/STIM_002.jpg
1207.489	0.697	1	incongruent	Block2	incongruent/STIM_002.jpg
1210.446	0.557	1	incongruent	Block2	incongruent/STIM_002.jpg
1215.003	0.798	1	incongruent	Block2	incongruent/STIM_003.jpg
1219.188	1.079	1	incongruent	Block2	incongruent/STIM_003.jpg
1223.078	0.542	1	incongruent	Block2	incongruent/STIM_003.jpg
1226.415	0.51	1	incongruent	Block2	incongruent/STIM_003.jpg
1229.106	0.667	1	incongruent	Block2	incongruent/STIM_003.jpg
1233.339	1.08	1	incongruent	Block2	incongruent/STIM_004.jpg
1236.906	0.992	1	incongruent	Block2	incongruent/STIM_004.jpg
1240.615	0.828	1	incongruent	Block2	incongruent/STIM_004.jpg
1244.073	0.503	1	incongruent	Block2	incongruent/STIM_004.jpg
1248.152	0.486	1	incongruent	Block2	incongruent/STIM_004.jpg
1251.362	0.791	1	incongruent	Block2	incongruent/STIM_005.jpg
1255.409	1.136	0	incongruent	Block2	incongruent/STIM_005.jpg
1260.214	0.709	1	incongruent	Block2	incongruent/STIM_005.jpg
1264.267	0.998	1	incongruent	Block2	incongruent/STIM_005.jpg
1268.681	0.867	1	incongruent	Block2	incongruent/STIM_005.jpg
1272.857	0.934	1	incongruent	Block2	incongruent/STIM_006.jpg
1277.6	1.12	1	incongruent	Block2	incongruent/STIM_006.jpg
1282.276	0.942	1	incongruent	Block2	incongruent/STIM_006.jpg
1286.049	0.673	1	incongruent	Block2	incongruent/STIM_006.jpg
1290.674	0.699	1	incongruent	Block2	incongruent/STIM_006.jpg
1294.831	0.898	1	incongruent	Block2	incongruent/STIM_007.jpg
1298.791	0.552	1	incongruent	Block2	incongruent/STIM_007.jpg
1301.53	0.95	1	incongruent	Block2	incongruent/STIM_007.jpg
1306.071	0.593	1	incongruent	Block2	incongruent/STIM_007.jpg
1308.753	0.594	1	incongruent	Block2	incongruent/STIM_007.jpg
1311.861	0.823	1	incongruent	Block2	incongruent/STIM_008.jpg
1316.122	0.582	1	incongruent	Block2	incongruent/STIM_008.jpg
1319.509	1.004	1	incongruent	Block2	incongruent/STIM_008.jpg
1323.674	0.906	1	incongruent	Block2	incongruent/STIM_008.jpg
1328.486	0.556	1	incongruent	Block2	incongruent/STIM_008.jpg
1331.199	1.14	1	incongruent	Block2	incongruent/STIM_009.jpg
1335.658	0.669	1	incongruent	Block2	incongruent/STIM_009.jpg
1339.45	0.525	0	incongruent	Block2	incongruent/STIM_009.jpg
1342.056	0.832	1	incongruent	Block2	incongruent/STIM_009.jpg
1346.517	0.992	0	incongruent	Block2	incongruent/STIM_009.jpg
1350.126	0.73	0	incongruent	Block2	incongruent/STIM_010.jpg
1354.77	0.644	1	incongruent	Block2	incongruent/STIM_010.jpg
1357.769	0.945	1	incongruent	Block2	incongruent/STIM_010.jpg
1361.787	0.571	1	incongruent	Block2	incongruent/STIM_010.jpg
1366.057	0.761	1	incongruent	Block2	incongruent/STIM_010.jpg
1370.171	0.93	1	incongruent	Block2	incongruent/STIM_011.jpg
1375.083	0.906	1	incongruent	Block2	incongruent/STIM_011.jpg
1379.737	0.754	1	incongruent	Block2	incongruent/STIM_011.jpg
1383.921	0.812	1	incongruent	Block2	incongruent/STIM_011.jpg
1386.795	0.975	1	incongruent	Block2	incongruent/STIM_011.jpg
1390.603	0.782	1	incongruent	Block2	incongruent/STIM_012.jpg
1393.674	1.014	1	incongruent	Block2	incongruent/STIM_012.jpg
1397.295	0.614	1	incongruent	Block2	incongruent/STIM_012.jpg
1400.183	0.923	1	incongruent	Block2	incongruent/STIM_012.jpg
1404.795	0.823	1	incongruent	Block2	incongruent/STIM_012.jpg
1408.257	0.935	1	incongruent	Block2	incongruent/STIM_013.jpg
1412.344	0.673	1	incongruent	Block2	incongruent/STIM_013.jpg
1416.763	1.011	1	incongruent	Block2	incongruent/STIM_013.jpg
1421.533	0.6	1	incongruent	Block2	incongruent/STIM_013.jpg
1424.747	0.609	1	incongruent	Block2	incongruent/STIM_013.jpg
1427.477	0.852	1	incongruent	Block2	incongruent/STIM_014.jpg
1430.836	0.84	1	incongruent	Block2	incongruent/STIM_014.jpg
1434.697	0.748	1	incongruent	Block2	incongruent/STIM_014.jpg
1438.243	0.618	1	incongruent	Block2	incongruent/STIM_014.jpg
1442.513	0.964	1	incongruent	Block2	incongruent/STIM_014.jpg
1447.276	0.813	1	incongruent	Block2	incongruent/STIM_015.jpg
1451.848	1.028	1	incongruent	Block2	incongruent/STIM_015.jpg
1456.05	0.623	1	incongruent	Block2	incongruent/STIM_015.jpg
1459.141	0.964	1	incongruent	Block2	incongruent/STIM_015.jpg
1462.666	0.506	1	incongruent	Block2	incongruent/STIM_015.jpg
1466.385	1.195	1	incongruent	Block2	incongruent/STIM_016.jpg
1470.532	0.82	1	incongruent	Block2	incongruent/STIM_016.jpg
1475.327	0.51	1	incongruent	Block2	incongruent/STIM_016.jpg
1479.292	0.643	0	incongruent	Block2	incongruent/STIM_016.jpg
1483.18	0.925	1	incongruent	Block2	incongruent/STIM_016.jpg
1487.827	0.83	1	incongruent	Block2	incongruent/STIM_017.jpg
1492.637	1.086	1	incongruent	Block2	incongruent/STIM_017.jpg
1496.694	0.508	1	incongruent	Block2	incongruent/STIM_017.jpg
1500.253	0.712	1	incongruent	Block2	incongruent/STIM_017.jpg
1504.333	0.685	1	incongruent	Block2	incongruent/STIM_017.jpg
1507.098	0.822	1	incongruent	Block2	incongruent/STIM_018.jpg
1510.765	0.553	1	incongruent	Block2	incongruent/STIM_018.jpg
1514.638	0.632	1	incongruent	Block2	incongruent/STIM_018.jpg
1518.792	0.8	1	incongruent	Block2	incongruent/STIM_018.jpg
1522.542	0.634	0	incongruent	Block2	incongruent/STIM_018.jpg
1526.821	0.639	1	incongruent	Block2	incongruent/STIM_019.jpg
1530.543	1.078	1	incongruent	Block2	incongruent/STIM_019.jpg
1534.111	0.903	1	incongruent	Block2	incongruent/STIM_019.jpg
1538.983	0.707	1	incongruent	Block2	incongruent/STIM_019.jpg
1542.024	0.811	1	incongruent	Block2	incongruent/STIM_019.jpg
1545.164	0.937	1	incongruent	Block2	incongruent/STIM_020.jpg
1549.869	0.543	1	incongruent	Block2	incongruent/STIM_020.jpg
1554.29	0.757	1	incongruent	Block2	incongruent/STIM_020.jpg
1559.001	0.539	1	incongruent	Block2	incongruent/STIM_020.jpg
1563.216	0.659	1	incongruent	Block2	incongruent/STIM_020.jpg
1566.636	1.03	1	incongruent	Block2	incongruent/STIM_021.jpg
1570.264	0.67	1	incongruent	Block2	incongruent/STIM_021.jpg
1573.638	0.838	1	incongruent	Block2	incongruent/STIM_021.jpg
1576.917	0.673	1	incongruent	Block2	incongruent/STIM_021.jpg
1581.129	0.785	1	incongruent	Block2	incongruent/STIM_021.jpg
1585.272	1.108	1	incongruent	Block2	incongruent/STIM_022.jpg
1588.9	0.846	1	incongruent	Block2	incongruent/STIM_022.jpg
1592.567	0.713	1	incongruent	Block2	incongruent/STIM_022.jpg
1596.706	0.808	1	incongruent	Block2	incongruent/STIM_022.jpg
1600.302	0.678	1	incongruent	Block2	incongruent/STIM_022.jpg
1604.129	0.769	1	incongruent	Block2	incongruent/STIM_023.jpg
1607.785	1.117	1	incongruent	Block2	incongruent/STIM_023.jpg
1611.465	0.692	1	incongruent	Block2	incongruent/STIM_023.jpg
1615.673	0.617	1	incongruent	Block2	incongruent/STIM_023.jpg
1618.791	0.873	1	incongruent	Block2	incongruent/STIM_023.jpg
1622.968	0.712	1	incongruent	Block2	incongruent/STIM_024.jpg
1627.705	0.677	1	incongruent	Block2	incongruent/STIM_024.jpg
1630.54	0.864	1	incongruent	Block2	incongruent/STIM_024.jpg
1633.589	0.969	1	incongruent	Block2	incongruent/STIM_024.jpg
1638.221	0.847	1	incongruent	Block2	incongruent/STIM_024.jpg
1641.741	0.685	1	incongruent	Block2	incongruent/STIM_025.jpg
1645.271	0.556	1	incongruent	Block2	incongruent/STIM_025.jpg
1648.069	0.954	1	incongruent	Block2	incongruent/STIM_025.jpg
1651.114	0.56	1	incongruent	Block2	incongruent/STIM_025.jpg
1654.986	0.808	1	incongruent	Block2	incongruent/STIM_025.jpg
1658.221	0.898	1	incongruent	Block2	incongruent/STIM_026.jpg
1662.984	0.618	1	incongruent	Block2	incongruent/STIM_026.jpg
1666.919	0.781	1	incongruent	Block2	incongruent/STIM_026.jpg
1669.987	0.858	1	incongruent	Block2	incongruent/STIM_026.jpg
1674.075	0.588	1	incongruent	Block2	incongruent/STIM_026.jpg
1677.408	1.228	0	incongruent	Block2	incongruent/STIM_027.jpg
1681.411	0.759	1	incongruent	Block2	incongruent/STIM_027.jpg
1686.148	1.023	1	incongruent	Block2	incongruent/STIM_027.jpg
1689.675	0.76	1	incongruent	Block2	incongruent/STIM_027.jpg
1694.143	0.579	1	incongruent	Block2	incongruent/STIM_027.jpg
1697.043	0.748	1	incongruent	Block2	incongruent/STIM_028.jpg
1701.456	0.607	1	incongruent	Block2	incongruent/STIM_028.jpg
1704.142	0.758	1	incongruent	Block2	incongruent/STIM_028.jpg
1708.296	0.534	1	incongruent	Block2	incongruent/STIM_028.jpg
1712.654	0.815	1	incongruent	Block2	incongruent/STIM_028.jpg
1717.313	1.048	0	incongruent	Block2	incongruent/STIM_029.jpg
1721.076	0.773	1	incongruent	Block2	incongruent/STIM_029.jpg
1724.312	0.99	1	incongruent	Block2	incongruent/STIM_029.jpg
1727.93	0.643	1	incongruent	Block2	incongruent/STIM_029.jpg
1732.36	0.614	1	incongruent	Block2	incongruent/STIM_029.jpg
1735.013	0.84	1	congruent	Block2	congruent/STIM_000.jpg
1737.998	0.584	1	congruent	Block2	congruent/STIM_000.jpg
1741.096	0.782	1	congruent	Block2	congruent/STIM_000.jpg
1744.487	0.837	1	congruent	Block2	congruent/STIM_000.jpg
1748.284	0.599	1	congruent	Block2	congruent/STIM_000.jpg
1752.759	0.656	1	congruent	Block2	congruent/STIM_001.jpg
1757.095	0.747	1	congruent	Block2	congruent/STIM_001.jpg
1761.553	0.668	1	congruent	Block2	congruent/STIM_001.jpg
1765.272	0.799	1	congruent	Block2	congruent/STIM_001.jpg
1769.343	0.793	1	congruent	Block2	congruent/STIM_001.jpg
1773.122	0.778	1	congruent	Block2	congruent/STIM_002.jpg
1777.111	0.723	0	congruent	Block2	congruent/STIM_002.jpg
1781.188	0.68	1	congruent	Block2	congruent/STIM_002.jpg
1784.758	0.719	1	congruent	Block2	congruent/STIM_002.jpg
1788.568	0.534	1	congruent	Block2	congruent/STIM_002.jpg
1791.427	0.67	0	congruent	Block2	congruent/STIM_003.jpg
1794.981	0.666	1	congruent	Block2	congruent/STIM_003.jpg
1799.275	0.792	1	congruent	Block2	congruent/STIM_003.jpg
1803.882	0.773	1	congruent	Block2	congruent/STIM_003.jpg
1807.548	0.633	1	congruent	Block2	congruent/STIM_003.jpg
1811.416	0.567	1	congruent	Block2	congruent/STIM_004.jpg
1814.992	0.788	1	congruent	Block2	congruent/STIM_004.jpg
1818.91	0.786	1	congruent	Block2	congruent/STIM_004.jpg
1822.609	0.835	1	congruent	Block2	congruent/STIM_004.jpg
1826.622	0.61	1	congruent	Block2	congruent/STIM_004.jpg
1830.919	0.798	1	congruent	Block2	congruent/STIM_005.jpg
1834.708	0.626	1	congruent	Block2	congruent/STIM_005.jpg
1838.847	0.504	1	congruent	Block2	congruent/STIM_005.jpg
1842.917	0.858	1	congruent	Block2	congruent/STIM_005.jpg
1847.246	0.769	1	congruent	Block2	congruent/STIM_005.jpg
1851.333	0.594	1	congruent	Block2	congruent/STIM_006.jpg
1855.501	0.728	1	congruent	Block2	congruent/STIM_006.jpg
1858.553	0.487	1	congruent	Block2	congruent/STIM_006.jpg
1861.075	0.72	1	congruent	Block2	congruent/STIM_006.jpg
1864.692	0.657	1	congruent	Block2	congruent/STIM_006.jpg
1869.245	0.867	1	congruent	Block2	congruent/STIM_007.jpg
1872.879	0.817	1	congruent	Block2	congruent/STIM_007.jpg
1876.244	0.588	1	congruent	Block2	congruent/STIM_007.jpg
1880.423	0.628	1	congruent	Block2	congruent/STIM_007.jpg
1883.144	0.671	1	congruent	Block2	congruent/STIM_007.jpg
1886.946	0.85	0	congruent	Block2	congruent/STIM_008.jpg
1891.396	0.524	1	congruent	Block2	congruent/STIM_008.jpg
1894.357	0.607	1	congruent	Block2	congruent/STIM_008.jpg
1898.327	0.816	1	congruent	Block2	congruent/STIM_008.jpg
1901.381	0.536	1	congruent	Block2	congruent/STIM_008.jpg
1905.093	0.506	1	congruent	Block2	congruent/STIM_009.jpg
1909.27	0.621	1	congruent	Block2	congruent/STIM_009.jpg
1912.048	0.839	1	congruent	Block2	congruent/STIM_009.jpg
1914.938	0.641	1	congruent	Block2	congruent/STIM_009.jpg
1919.484	0.487	1	congruent	Block2	congruent/STIM_009.jpg
1923.047	0.574	1	congruent	Block2	congruent/STIM_010.jpg
1926.457	0.614	1	congruent	Block2	congruent/STIM_010.jpg
1930.497	0.689	1	congruent	Block2	congruent/STIM_010.jpg
1934.35	0.721	1	congruent	Block2	congruent/STIM_010.jpg
1938.996	0.758	1	congruent	Block2	congruent/STIM_010.jpg
1943.35	0.819	1	congruent	Block2	congruent/STIM_011.jpg
1947.413	0.608	0	congruent	Block2	congruent/STIM_011.jpg
1951.392	0.702	1	congruent	Block2	congruent/STIM_011.jpg
1955.11	0.783	1	congruent	Block2	congruent/STIM_011.jpg
1959.406	0.599	1	congruent	Block2	congruent/STIM_011.jpg
1963.514	0.54	1	congruent	Block2	congruent/STIM_012.jpg
1966.836	0.803	1	congruent	Block2	congruent/STIM_012.jpg
1969.678	0.573	1	congruent	Block2	congruent/STIM_012.jpg
1973.432	0.648	1	congruent	Block2	congruent/STIM_012.jpg
1976.179	0.58	1	congruent	Block2	congruent/STIM_012.jpg
1979.927	0.862	1	congruent	Block2	congruent/STIM_013.jpg
1983.967	0.812	1	congruent	Block2	congruent/STIM_013.jpg
1988.157	0.496	1	congruent	Block2	congruent/STIM_013.jpg
1991.622	0.839	1	congruent	Block2	congruent/STIM_013.jpg
1995.584	0.699	1	congruent	Block2	congruent/STIM_013.jpg
1999.95	0.634	1	congruent	Block2	congruent/STIM_014.jpg
2003.838	0.681	1	congruent	Block2	congruent/STIM_014.jpg
2006.601	0.667	1	congruent	Block2	congruent/STIM_014.jpg
2009.669	0.765	1	congruent	Block2	congruent/STIM_014.jpg
2013.733	0.569	1	congruent	Block2	congruent/STIM_014.jpg
2016.907	0.603	1	congruent	Block2	congruent/STIM_015.jpg
2021.054	0.774	1	congruent	Block2	congruent/STIM_015.jpg
2025.466	0.819	1	congruent	Block2	congruent/STIM_015.jpg
2029.246	0.76	1	congruent	Block2	congruent/STIM_015.jpg
2033.51	0.745	1	congruent	Block2	congruent/STIM_015.jpg
2036.579	0.586	1	congruent	Block2	congruent/STIM_016.jpg
2040.456	0.587	1	congruent	Block2	congruent/STIM_016.jpg
2044.409	0.562	1	congruent	Block2	congruent/STIM_016.jpg
2047.164	0.586	1	congruent	Block2	congruent/STIM_016.jpg
2050.615	0.811	1	congruent	Block2	congruent/STIM_016.jpg
2054.149	0.551	1	congruent	Block2	congruent/STIM_017.jpg
2058.584	0.601	1	congruent	Block2	congruent/STIM_017.jpg
2063.022	0.81	1	congruent	Block2	congruent/STIM_017.jpg
2066.903	0.72	1	congruent	Block2	congruent/STIM_017.jpg
2071.561	0.627	1	congruent	Block2	congruent/STIM_017.jpg
2075.489	0.755	1	congruent	Block2	congruent/STIM_018.jpg
2079.969	0.688	1	congruent	Block2	congruent/STIM_018.jpg
2083.541	0.599	1	congruent	Block2	congruent/STIM_018.jpg
2087.777	0.623	1	congruent	Block2	congruent/STIM_018.jpg
2091.644	0.688	1	congruent	Block2	congruent/STIM_018.jpg
2096.167	0.626	1	congruent	Block2	congruent/STIM_019.jpg
2100.111	0.591	1	congruent	Block2	congruent/STIM_019.jpg
2104.493	0.717	1	congruent	Block2	congruent/STIM_019.jpg
2107.406	0.773	1	congruent	Block2	congruent/STIM_019.jpg
2111.505	0.572	1	congruent	Block2	congruent/STIM_019.jpg
2114.217	0.783	1	congruent	Block2	congruent/STIM_020.jpg
2117.479	0.675	1	congruent	Block2	congruent/STIM_020.jpg
2120.923	0.515	1	congruent	Block2	congruent/STIM_020.jpg
2123.948	0.702	0	congruent	Block2	congruent/STIM_020.jpg
2128.149	0.762	1	congruent	Block2	congruent/STIM_020.jpg
2132.218	0.806	1	congruent	Block2	congruent/STIM_021.jpg
2135.101	0.734	1	congruent	Block2	congruent/STIM_021.jpg
2139.629	0.868	1	congruent	Block2	congruent/STIM_021.jpg
2142.868	0.678	1	congruent	Block2	congruent/STIM_021.jpg
2146.026	0.806	1	congruent	Block2	congruent/STIM_021.jpg
2149.966	0.518	1	congruent	Block2	congruent/STIM_022.jpg
2154.227	0.512	1	congruent	Block2	congruent/STIM_022.jpg
2158.586	0.521	1	congruent	Block2	congruent/STIM_022.jpg
2162.481	0.677	0	congruent	Block2	congruent/STIM_022.jpg
2166.176	0.657	1	congruent	Block2	congruent/STIM_022.jpg
2169.585	0.622	1	congruent	Block2	congruent/STIM_023.jpg
2173.628	0.792	1	congruent	Block2	congruent/STIM_023.jpg
2177.797	0.492	1	congruent	Block2	congruent/STIM_023.jpg
2180.443	0.647	1	congruent	Block2	congruent/STIM_023.jpg
2184.695	0.524	1	congruent	Block2	congruent/STIM_023.jpg
2188.786	0.631	1	congruent	Block2	congruent/STIM_024.jpg
2191.939	0.762	1	congruent	Block2	congruent/STIM_024.jpg
2196.218	0.827	1	congruent	Block2	congruent/STIM_024.jpg
2200.558	0.527	1	congruent	Block2	congruent/STIM_024.jpg
2204.353	0.562	1	congruent	Block2	congruent/STIM_024.jpg
2207.533	0.541	1	congruent	Block2	congruent/STIM_025.jpg
2210.337	0.677	1	congruent	Block2	congruent/STIM_025.jpg
2214.151	0.589	1	congruent	Block2	congruent/STIM_025.jpg
2218.038	0.562	1	congruent	Block2	congruent/STIM_025.jpg
2220.736	0.761	1	congruent	Block2	congruent/STIM_025.jpg
2224.424	0.775	0	congruent	Block2	congruent/STIM_026.jpg
2227.563	0.485	1	congruent	Block2	congruent/STIM_026.jpg
2231.001	0.684	1	congruent	Block2	congruent/STIM_026.jpg
2234.76	0.534	0	congruent	Block2	congruent/STIM_026.jpg
2238.099	0.527	1	congruent	Block2	congruent/STIM_026.jpg
2241.223	0.518	1	congruent	Block2	congruent/STIM_027.jpg
2244.519	0.724	1	congruent	Block2	congruent/STIM_027.jpg
2248.636	0.484	1	congruent	Block2	congruent/STIM_027.jpg
2251.87	0.696	1	congruent	Block2	congruent/STIM_027.jpg
2255.741	0.855	1	congruent	Block2	congruent/STIM_027.jpg
2258.667	0.563	1	congruent	Block2	congruent/STIM_028.jpg
2262.436	0.535	0	congruent	Block2	congruent/STIM_028.jpg
2265.405	0.649	1	congruent	Block2	congruent/STIM_028.jpg
2268.771	0.521	1	congruent	Block2	congruent/STIM_028.jpg
2272.223	0.662	1	congruent	Block2	congruent/STIM_028.jpg
2274.945	0.651	1	congruent	Block2	congruent/STIM_029.jpg
2277.822	0.862	1	congruent	Block2	congruent/STIM_029.jpg
2281.558	0.751	1	congruent	Block2	congruent/STIM_029.jpg
2285.328	0.764	1	congruent	Block2	congruent/STIM_029.jpg
2289.451	0.532	1	congruent	Block2	congruent/STIM_029.jpg
2292.006	0.958	1	incongruent	Block3	incongruent/STIM_000.jpg
2296.036	0.59	1	incongruent	Block3	incongruent/STIM_000.jpg
2299.637	0.814	1	incongruent	Block3	incongruent/STIM_000.jpg
2303.173	0.563	1	incongruent	Block3	incongruent/STIM_000.jpg
2307.05	0.896	1	incongruent	Block3	incongruent/STIM_000.jpg
2311.602	0.754	1	incongruent	Block3	incongruent/STIM_001.jpg
2315.831	0.964	1	incongruent	Block3	incongruent/STIM_001.jpg
2320.056	0.835	1	incongruent	Block3	incongruent/STIM_001.jpg
2323.635	0.612	1	incongruent	Block3	incongruent/STIM_001.jpg
2326.498	0.819	1	incongruent	Block3	incongruent/STIM_001.jpg
2331.151	0.584	1	incongruent	Block3	incongruent/STIM_002.jpg
2334.636	0.639	1	incongruent	Block3	incongruent/STIM_002.jpg
2338.078	0.849	1	incongruent	Block3	incongruent/STIM_002.jpg
2341.681	0.56	0	incongruent	Block3	incongruent/STIM_002.jpg
2346.079	0.94	1	incongruent	Block3	incongruent/STIM_002.jpg
2350.358	0.504	1	incongruent	Block3	incongruent/STIM_003.jpg
2353.047	0.825	1	incongruent	Block3	incongruent/STIM_003.jpg
2355.999	0.722	1	incongruent	Block3	incongruent/STIM_003.jpg
2359.01	0.936	1	incongruent	Block3	incongruent/STIM_003.jpg
2362.303	0.771	1	incongruent	Block3	incongruent/STIM_003.jpg
2365.853	0.848	1	incongruent	Block3	incongruent/STIM_004.jpg
2369.217	0.874	1	incongruent	Block3	incongruent/STIM_004.jpg
2373.106	0.53	0	incongruent	Block3	incongruent/STIM_004.jpg
2376.714	0.943	1	incongruent	Block3	incongruent/STIM_004.jpg
2381.176	0.51	1	incongruent	Block3	incongruent/STIM_004.jpg
2383.805	1.009	1	incongruent	Block3	incongruent/STIM_005.jpg
2388.521	0.57	1	incongruent	Block3	incongruent/STIM_005.jpg
2391.161	0.881	1	incongruent	Block3	incongruent/STIM_005.jpg
2395.4	0.56	1	incongruent	Block3	incongruent/STIM_005.jpg
2398.933	0.551	1	incongruent	Block3	incongruent/STIM_005.jpg
2402.183	0.899	1	incongruent	Block3	incongruent/STIM_006.jpg
2405.85	0.743	1	incongruent	Block3	incongruent/STIM_006.jpg
2409.417	0.683	1	incongruent	Block3	incongruent/STIM_006.jpg
2413.255	0.742	1	incongruent	Block3	incongruent/STIM_006.jpg
2417.249	0.675	1	incongruent	Block3	incongruent/STIM_006.jpg
2420.498	0.479	1	incongruent	Block3	incongruent/STIM_007.jpg
2424.451	0.99	1	incongruent	Block3	incongruent/STIM_007.jpg
2429.195	0.605	1	incongruent	Block3	incongruent/STIM_007.jpg
2432.926	0.79	1	incongruent	Block3	incongruent/STIM_007.jpg
2436.605	0.524	1	incongruent	Block3	incongruent/STIM_007.jpg
2439.769	0.678	1	incongruent	Block3	incongruent/STIM_008.jpg
2443.472	0.886	1	incongruent	Block3	incongruent/STIM_008.jpg
2447.763	0.579	1	incongruent	Block3	incongruent/STIM_008.jpg
2451.512	0.716	1	incongruent	Block3	incongruent/STIM_008.jpg
2454.545	0.802	1	incongruent	Block3	incongruent/STIM_008.jpg
2457.495	0.735	1	incongruent	Block3	incongruent/STIM_009.jpg
2461.284	0.994	1	incongruent	Block3	incongruent/STIM_009.jpg
2465.442	0.993	1	incongruent	Block3	incongruent/STIM_009.jpg
2470.38	0.774	1	incongruent	Block3	incongruent/STIM_009.jpg
2473.828	0.959	1	incongruent	Block3	incongruent/STIM_009.jpg
2478.175	0.864	1	incongruent	Block3	incongruent/STIM_010.jpg
2482.176	0.547	1	incongruent	Block3	incongruent/STIM_010.jpg
2485.864	0.55	1	incongruent	Block3	incongruent/STIM_010.jpg
2489.464	0.552	1	incongruent	Block3	incongruent/STIM_010.jpg
2492.273	0.901	1	incongruent	Block3	incongruent/STIM_010.jpg
2495.783	0.611	1	incongruent	Block3	incongruent/STIM_011.jpg
2500.315	0.616	1	incongruent	Block3	incongruent/STIM_011.jpg
2504.124	0.508	1	incongruent	Block3	incongruent/STIM_011.jpg
2507.33	0.905	1	incongruent	Block3	incongruent/STIM_011.jpg
2511.087	0.574	1	incongruent	Block3	incongruent/STIM_011.jpg
2514.518	0.514	1	incongruent	Block3	incongruent/STIM_012.jpg
2518.933	0.666	1	incongruent	Block3	incongruent/STIM_012.jpg
2522.797	0.895	1	incongruent	Block3	incongruent/STIM_012.jpg
2527.52	0.795	1	incongruent	Block3	incongruent/STIM_012.jpg
2530.893	0.635	0	incongruent	Block3	incongruent/STIM_012.jpg
2533.966	0.509	1	incongruent	Block3	incongruent/STIM_013.jpg
2537.586	0.751	1	incongruent	Block3	incongruent/STIM_013.jpg
2541.795	0.56	1	incongruent	Block3	incongruent/STIM_013.jpg
2544.937	0.837	1	incongruent	Block3	incongruent/STIM_013.jpg
2549.295	0.675	1	incongruent	Block3	incongruent/STIM_013.jpg
2553.066	0.941	1	incongruent	Block3	incongruent/STIM_014.jpg
2556.163	0.74	1	incongruent	Block3	incongruent/STIM_014.jpg
2560.163	0.521	1	incongruent	Block3	incongruent/STIM_014.jpg
2564.616	0.557	1	incongruent	Block3	incongruent/STIM_014.jpg
2569.017	0.994	1	incongruent	Block3	incongruent/STIM_014.jpg
2573.97	0.668	1	incongruent	Block3	incongruent/STIM_015.jpg
2577.507	0.506	1	incongruent	Block3	incongruent/STIM_015.jpg
2580.556	0.777	1	incongruent	Block3	incongruent/STIM_015.jpg
2583.817	0.584	1	incongruent	Block3	incongruent/STIM_015.jpg
2587.897	0.878	1	incongruent	Block3	incongruent/STIM_015.jpg
2592.37	0.874	1	incongruent	Block3	incongruent/STIM_016.jpg
2596.356	0.499	1	incongruent	Block3	incongruent/STIM_016.jpg
2599.291	0.631	1	incongruent	Block3	incongruent/STIM_016.jpg
2603.282	0.81	1	incongruent	Block3	incongruent/STIM_016.jpg
2606.321	0.725	1	incongruent	Block3	incongruent/STIM_016.jpg
2609.197	0.576	1	incongruent	Block3	incongruent/STIM_017.jpg
2612.772	0.898	1	incongruent	Block3	incongruent/STIM_017.jpg
2616.002	0.775	1	incongruent	Block3	incongruent/STIM_017.jpg
2619.831	0.883	1	incongruent	Block3	incongruent/STIM_017.jpg
2622.973	0.703	1	incongruent	Block3	incongruent/STIM_017.jpg
2626.139	0.98	1	incongruent	Block3	incongruent/STIM_018.jpg
2630.817	0.947	0	incongruent	Block3	incongruent/STIM_018.jpg
2634.989	0.966	1	incongruent	Block3	incongruent/STIM_018.jpg
2639.289	0.797	1	incongruent	Block3	incongruent/STIM_018.jpg
2643.125	0.602	1	incongruent	Block3	incongruent/STIM_018.jpg
2646.363	0.673	1	incongruent	Block3	incongruent/STIM_019.jpg
2650.654	0.534	1	incongruent	Block3	incongruent/STIM_019.jpg
2654.769	0.652	1	incongruent	Block3	incongruent/STIM_019.jpg
2658.861	0.835	1	incongruent	Block3	incongruent/STIM_019.jpg
2662.671	0.885	1	incongruent	Block3	incongruent/STIM_019.jpg
2667.367	0.731	1	incongruent	Block3	incongruent/STIM_020.jpg
2670.54	0.535	1	incongruent	Block3	incongruent/STIM_020.jpg
2673.922	0.93	1	incongruent	Block3	incongruent/STIM_020.jpg
2678.767	0.812	1	incongruent	Block3	incongruent/STIM_020.jpg
2683.445	0.99	0	incongruent	Block3	incongruent/STIM_020.jpg
2687.032	0.477	1	incongruent	Block3	incongruent/STIM_021.jpg
2690.299	0.739	1	incongruent	Block3	incongruent/STIM_021.jpg
2694.221	0.5	1	incongruent	Block3	incongruent/STIM_021.jpg
2696.853	0.552	1	incongruent	Block3	incongruent/STIM_021.jpg
2701.089	0.673	1	incongruent	Block3	incongruent/STIM_021.jpg
2703.932	0.478	1	incongruent	Block3	incongruent/STIM_022.jpg
2706.825	0.921	1	incongruent	Block3	incongruent/STIM_022.jpg
2711.678	0.848	1	incongruent	Block3	incongruent/STIM_022.jpg
2715.204	0.704	1	incongruent	Block3	incongruent/STIM_022.jpg
2719.71	0.893	1	incongruent	Block3	incongruent/STIM_022.jpg
2724.609	0.758	1	incongruent	Block3	incongruent/STIM_023.jpg
2727.991	0.524	1	incongruent	Block3	incongruent/STIM_023.jpg
2730.914	0.54	1	incongruent	Block3	incongruent/STIM_023.jpg
2735.381	0.664	1	incongruent	Block3	incongruent/STIM_023.jpg
2739.991	0.585	1	incongruent	Block3	incongruent/STIM_023.jpg
2744.196	0.539	1	incongruent	Block3	incongruent/STIM_024.jpg
2746.884	0.76	1	incongruent	Block3	incongruent/STIM_024.jpg
2750.274	0.742	1	incongruent	Block3	incongruent/STIM_024.jpg
2754.533	0.788	1	incongruent	Block3	incongruent/STIM_024.jpg
2757.879	0.632	0	incongruent	Block3	incongruent/STIM_024.jpg
2760.657	0.563	1	incongruent	Block3	incongruent/STIM_025.jpg
2763.467	0.895	1	incongruent	Block3	incongruent/STIM_025.jpg
2768.068	0.587	1	incongruent	Block3	incongruent/STIM_025.jpg
2771.774	0.63	1	incongruent	Block3	incongruent/STIM_025.jpg
2775.421	0.969	1	incongruent	Block3	incongruent/STIM_025.jpg
2779.671	0.672	1	incongruent	Block3	incongruent/STIM_026.jpg
2782.382	0.554	1	incongruent	Block3	incongruent/STIM_026.jpg
2785.957	0.692	1	incongruent	Block3	incongruent/STIM_026.jpg
2788.878	0.874	1	incongruent	Block3	incongruent/STIM_026.jpg
2793.292	0.955	1	incongruent	Block3	incongruent/STIM_026.jpg
2797.0	0.899	1	incongruent	Block3	incongruent/STIM_027.jpg
2800.751	0.483	1	incongruent	Block3	incongruent/STIM_027.jpg
2804.067	0.773	1	incongruent	Block3	incongruent/STIM_027.jpg
2808.098	0.799	1	incongruent	Block3	incongruent/STIM_027.jpg
2811.752	0.537	1	incongruent	Block3	incongruent/STIM_027.jpg
2814.542	0.542	1	incongruent	Block3	incongruent/STIM_028.jpg
2817.683	0.726	1	incongruent	Block3	incongruent/STIM_028.jpg
2821.042	0.696	1	incongruent	Block3	incongruent/STIM_028.jpg
2823.981	0.647	1	incongruent	Block3	incongruent/STIM_028.jpg
2828.203	0.573	1	incongruent	Block3	incongruent/STIM_028.jpg
2831.467	0.986	1	incongruent	Block3	incongruent/STIM_029.jpg
2835.97	0.534	1	incongruent	Block3	incongruent/STIM_029.jpg
2838.885	0.642	1	incongruent	Block3	incongruent/STIM_029.jpg
2842.805	0.849	1	incongruent	Block3	incongruent/STIM_029.jpg
2845.872	0.933	1	incongruent	Block3	incongruent/STIM_029.jpg
2850.148	0.798	1	congruent	Block3	congruent/STIM_000.jpg
2854.935	0.554	1	congruent	Block3	congruent/STIM_000.jpg
2858.582	0.722	1	congruent	Block3	congruent/STIM_000.jpg
2861.658	0.665	1	congruent	Block3	congruent/STIM_000.jpg
2864.941	0.666	1	congruent	Block3	congruent/STIM_000.jpg
2869.18	0.696	1	congruent	Block3	congruent/STIM_001.jpg
2873.456	0.803	1	congruent	Block3	congruent/STIM_001.jpg
2877.692	0.574	1	congruent	Block3	congruent/STIM_001.jpg
2881.164	0.778	1	congruent	Block3	congruent/STIM_001.jpg
2885.455	0.758	1	congruent	Block3	congruent/STIM_001.jpg
2889.533	0.619	1	congruent	Block3	congruent/STIM_002.jpg
2894.164	0.678	1	congruent	Block3	congruent/STIM_002.jpg
2898.503	0.489	1	congruent	Block3	congruent/STIM_002.jpg
2901.873	0.741	1	congruent	Block3	congruent/STIM_002.jpg
2904.974	0.574	1	congruent	Block3	congruent/STIM_002.jpg
2908.32	0.858	1	congruent	Block3	congruent/STIM_003.jpg
2911.745	0.798	1	congruent	Block3	congruent/STIM_003.jpg
2916.324	0.746	1	congruent	Block3	congruent/STIM_003.jpg
2920.648	0.693	1	congruent	Block3	congruent/STIM_003.jpg
2925.003	0.72	1	congruent	Block3	congruent/STIM_003.jpg
2928.605	0.698	1	congruent	Block3	congruent/STIM_004.jpg
2933.037	0.729	1	congruent	Block3	congruent/STIM_004.jpg
2936.313	0.664	1	congruent	Block3	congruent/STIM_004.jpg
2939.459	0.714	1	congruent	Block3	congruent/STIM_004.jpg
2943.986	0.611	1	congruent	Block3	congruent/STIM_004.jpg
2947.182	0.772	1	congruent	Block3	congruent/STIM_005.jpg
2951.506	0.582	1	congruent	Block3	congruent/STIM_005.jpg
2954.955	0.676	1	congruent	Block3	congruent/STIM_005.jpg
2958.588	0.631	1	congruent	Block3	congruent/STIM_005.jpg
2962.684	0.522	1	congruent	Block3	congruent/STIM_005.jpg
2967.049	0.562	1	congruent	Block3	congruent/STIM_006.jpg
2971.005	0.644	1	congruent	Block3	congruent/STIM_006.jpg
2975.575	0.51	1	congruent	Block3	congruent/STIM_006.jpg
2978.424	0.788	1	congruent	Block3	congruent/STIM_006.jpg
2982.333	0.814	1	congruent	Block3	congruent/STIM_006.jpg
2985.735	0.805	1	congruent	Block3	congruent/STIM_007.jpg
2990.371	0.519	1	congruent	Block3	congruent/STIM_007.jpg
2994.306	0.85	1	congruent	Block3	congruent/STIM_007.jpg
2997.982	0.605	1	congruent	Block3	congruent/STIM_007.jpg
3002.191	0.69	1	congruent	Block3	congruent/STIM_007.jpg
3005.056	0.69	1	congruent	Block3	congruent/STIM_008.jpg
3009.595	0.492	1	congruent	Block3	congruent/STIM_008.jpg
3013.061	0.79	1	congruent	Block3	congruent/STIM_008.jpg
3016.04	0.752	1	congruent	Block3	congruent/STIM_008.jpg
3019.573	0.69	1	congruent	Block3	congruent/STIM_008.jpg
3023.624	0.687	1	congruent	Block3	congruent/STIM_009.jpg
3026.53	0.858	1	congruent	Block3	congruent/STIM_009.jpg
3030.292	0.703	0	congruent	Block3	congruent/STIM_009.jpg
3034.573	0.604	1	congruent	Block3	congruent/STIM_009.jpg
3038.12	0.592	1	congruent	Block3	congruent/STIM_009.jpg
3042.548	0.845	1	congruent	Block3	congruent/STIM_010.jpg
3045.872	0.67	1	congruent	Block3	congruent/STIM_010.jpg
3049.57	0.805	1	congruent	Block3	congruent/STIM_010.jpg
3053.056	0.534	1	congruent	Block3	congruent/STIM_010.jpg
3057.153	0.651	1	congruent	Block3	congruent/STIM_010.jpg
3060.102	0.553	1	congruent	Block3	congruent/STIM_011.jpg
3064.344	0.722	1	congruent	Block3	congruent/STIM_011.jpg
3068.596	0.769	1	congruent	Block3	congruent/STIM_011.jpg
3072.689	0.603	1	congruent	Block3	congruent/STIM_011.jpg
3076.607	0.855	1	congruent	Block3	congruent/STIM_011.jpg
3081.49	0.699	1	congruent	Block3	congruent/STIM_012.jpg
3086.114	0.777	1	congruent	Block3	congruent/STIM_012.jpg
3090.856	0.494	1	congruent	Block3	congruent/STIM_012.jpg
3094.347	0.548	1	congruent	Block3	congruent/STIM_012.jpg
3098.329	0.57	1	congruent	Block3	congruent/STIM_012.jpg
3101.845	0.488	1	congruent	Block3	congruent/STIM_013.jpg
3106.295	0.767	1	congruent	Block3	congruent/STIM_013.jpg
3109.397	0.657	1	congruent	Block3	congruent/STIM_013.jpg
3113.059	0.868	1	congruent	Block3	congruent/STIM_013.jpg
3117.696	0.729	1	congruent	Block3	congruent/STIM_013.jpg
3120.973	0.6	1	congruent	Block3	congruent/STIM_014.jpg
3124.49	0.846	1	congruent	Block3	congruent/STIM_014.jpg
3127.463	0.659	1	congruent	Block3	congruent/STIM_014.jpg
3131.351	0.542	1	congruent	Block3	congruent/STIM_014.jpg
3135.246	0.832	1	congruent	Block3	congruent/STIM_014.jpg
3138.569	0.729	1	congruent	Block3	congruent/STIM_015.jpg
3142.03	0.511	1	congruent	Block3	congruent/STIM_015.jpg
3146.399	0.752	1	congruent	Block3	congruent/STIM_015.jpg
3150.946	0.584	1	congruent	Block3	congruent/STIM_015.jpg
3154.115	0.518	1	congruent	Block3	congruent/STIM_015.jpg
3157.481	0.553	1	congruent	Block3	congruent/STIM_016.jpg
3161.748	0.603	1	congruent	Block3	congruent/STIM_016.jpg
3165.077	0.84	1	congruent	Block3	congruent/STIM_016.jpg
3169.808	0.621	1	congruent	Block3	congruent/STIM_016.jpg
3172.602	0.605	1	congruent	Block3	congruent/STIM_016.jpg
3176.55	0.494	1	congruent	Block3	congruent/STIM_017.jpg
3180.287	0.583	1	congruent	Block3	congruent/STIM_017.jpg
3183.939	0.566	1	congruent	Block3	congruent/STIM_017.jpg
3186.939	0.847	1	congruent	Block3	congruent/STIM_017.jpg
3189.967	0.558	1	congruent	Block3	congruent/STIM_017.jpg
3194.318	0.806	1	congruent	Block3	congruent/STIM_018.jpg
3197.183	0.711	1	congruent	Block3	congruent/STIM_018.jpg
3200.615	0.723	1	congruent	Block3	congruent/STIM_018.jpg
3204.553	0.837	1	congruent	Block3	congruent/STIM_018.jpg
3207.593	0.705	1	congruent	Block3	congruent/STIM_018.jpg
3212.231	0.486	1	congruent	Block3	congruent/STIM_019.jpg
3214.949	0.687	1	congruent	Block3	congruent/STIM_019.jpg
3217.682	0.747	1	congruent	Block3	congruent/STIM_019.jpg
3222.389	0.716	1	congruent	Block3	congruent/STIM_019.jpg
3225.15	0.755	1	congruent	Block3	congruent/STIM_019.jpg
3229.016	0.751	1	congruent	Block3	congruent/STIM_020.jpg
3231.958	0.719	1	congruent	Block3	congruent/STIM_020.jpg
3235.549	0.695	1	congruent	Block3	congruent/STIM_020.jpg
3239.962	0.638	1	congruent	Block3	congruent/STIM_020.jpg
3244.064	0.837	1	congruent	Block3	congruent/STIM_020.jpg
3248.562	0.732	1	congruent	Block3	congruent/STIM_021.jpg
3252.55	0.85	1	congruent	Block3	congruent/STIM_021.jpg
3256.094	0.608	1	congruent	Block3	congruent/STIM_021.jpg
3259.876	0.789	1	congruent	Block3	congruent/STIM_021.jpg
3263.242	0.701	1	congruent	Block3	congruent/STIM_021.jpg
3267.931	0.862	0	congruent	Block3	congruent/STIM_022.jpg
3271.864	0.664	1	congruent	Block3	congruent/STIM_022.jpg
3275.637	0.517	1	congruent	Block3	congruent/STIM_022.jpg
3278.518	0.823	1	congruent	Block3	congruent/STIM_022.jpg
3282.901	0.514	1	congruent	Block3	congruent/STIM_022.jpg
3286.11	0.775	1	congruent	Block3	congruent/STIM_023.jpg
3289.236	0.621	1	congruent	Block3	congruent/STIM_023.jpg
3293.555	0.776	1	congruent	Block3	congruent/STIM_023.jpg
3297.333	0.74	1	congruent	Block3	congruent/STIM_023.jpg
3301.113	0.75	1	congruent	Block3	congruent/STIM_023.jpg
3304.871	0.658	0	congruent	Block3	congruent/STIM_024.jpg
3308.187	0.583	1	congruent	Block3	congruent/STIM_024.jpg
3312.242	0.81	1	congruent	Block3	congruent/STIM_024.jpg
3316.502	0.772	1	congruent	Block3	congruent/STIM_024.jpg
3320.993	0.747	1	congruent	Block3	congruent/STIM_024.jpg
3324.959	0.723	1	congruent	Block3	congruent/STIM_025.jpg
3329.212	0.584	1	congruent	Block3	congruent/STIM_025.jpg
3333.233	0.552	1	congruent	Block3	congruent/STIM_025.jpg
3337.476	0.567	1	congruent	Block3	congruent/STIM_025.jpg
3340.745	0.816	1	congruent	Block3	congruent/STIM_025.jpg
3344.071	0.759	1	congruent	Block3	congruent/STIM_026.jpg
3346.96	0.833	1	congruent	Block3	congruent/STIM_026.jpg
3350.651	0.676	1	congruent	Block3	congruent/STIM_026.jpg
3355.049	0.591	1	congruent	Block3	congruent/STIM_026.jpg
3358.702	0.623	1	congruent	Block3	congruent/STIM_026.jpg
3362.472	0.763	1	congruent	Block3	congruent/STIM_027.jpg
3367.079	0.759	1	congruent	Block3	congruent/STIM_027.jpg
3371.451	0.602	1	congruent	Block3	congruent/STIM_027.jpg
3375.801	0.695	1	congruent	Block3	congruent/STIM_027.jpg
3380.002	0.636	1	congruent	Block3	congruent/STIM_027.jpg
3384.652	0.51	1	congruent	Block3	congruent/STIM_028.jpg
3387.524	0.811	1	congruent	Block3	congruent/STIM_028.jpg
3390.885	0.67	1	congruent	Block3	congruent/STIM_028.jpg
3394.519	0.774	1	congruent	Block3	congruent/STIM_028.jpg
3398.478	0.532	1	congruent	Block3	congruent/STIM_028.jpg
3402.865	0.718	1	congruent	Block3	congruent/STIM_029.jpg
3407.284	0.538	1	congruent	Block3	congruent/STIM_029.jpg
3411.297	0.66	1	congruent	Block3	congruent/STIM_029.jpg
3415.39	0.762	1	congruent	Block3	congruent/STIM_029.jpg
3419.689	0.694	1	congruent	Block3	congruent/STIM_029.jpg
