onset	duration	response_time_ms	trial_type	learning_stage	stimulus	response_port
0.0	0.996	995.9	incongruent	Block1	incongruent/STIM_000.jpg	99
4.625	0.921	920.7	incongruent	Block1	incongruent/STIM_000.jpg	100
9.541	0.752	751.8	incongruent	Block1	incongruent/STIM_000.jpg	100
13.594	0.58	580.5	incongruent	Block1	incongruent/STIM_000.jpg	100
16.641	0.583	583.2	incongruent	Block1	incongruent/STIM_000.jpg	99
20.262	0.842	842.5	incongruent	Block1	incongruent/STIM_001.jpg	100
23.23	0.748	748.3	incongruent	Block1	incongruent/STIM_001.jpg	99
27.771	0.619	619.2	incongruent	Block1	incongruent/STIM_001.jpg	99
31.302	0.593	592.8	incongruent	Block1	incongruent/STIM_001.jpg	99
34.002	0.737	737.3	incongruent	Block1	incongruent/STIM_001.jpg	100
37.867	1.302	1302.0	incongruent	Block1	incongruent/STIM_002.jpg	100
41.638	1.374	1374.4	incongruent	Block1	incongruent/STIM_002.jpg	100
45.965	0.654	654.1	incongruent	Block1	incongruent/STIM_002.jpg	99
49.949	0.806	806.1	incongruent	Block1	incongruent/STIM_002.jpg	100
53.29	0.6	599.6	incongruent	Block1	incongruent/STIM_002.jpg	100
55.975	1.144	1144.1	incongruent	Block1	incongruent/STIM_003.jpg	100
59.346	1.327	1326.8	incongruent	Block1	incongruent/STIM_003.jpg	99
64.496	1.107	1107.3	incongruent	Block1	incongruent/STIM_003.jpg	100
68.159	1.216	1216.3	incongruent	Block1	incongruent/STIM_003.jpg	99
71.916	0.703	702.6	incongruent	Block1	incongruent/STIM_003.jpg	100
75.05	0.712	712.2	incongruent	Block1	incongruent/STIM_004.jpg	100
79.582	1.274	1274.5	incongruent	Block1	incongruent/STIM_004.jpg	100
83.673	1.227	1227.0	incongruent	Block1	incongruent/STIM_004.jpg	99
87.26	0.873	873.0	incongruent	Block1	incongruent/STIM_004.jpg	99
90.476	1.0	999.9	incongruent	Block1	incongruent/STIM_004.jpg	100
95.171	1.371	1371.3	incongruent	Block1	incongruent/STIM_005.jpg	100
99.42	0.854	854.2	incongruent	Block1	incongruent/STIM_005.jpg	100
103.341	0.79	789.8	incongruent	Block1	incongruent/STIM_005.jpg	100
107.673	0.996	995.7	incongruent	Block1	incongruent/STIM_005.jpg	99
111.193	0.627	627.4	incongruent	Block1	incongruent/STIM_005.jpg	100
115.141	0.854	854.2	incongruent	Block1	incongruent/STIM_006.jpg	100
118.4	0.916	915.5	incongruent	Block1	incongruent/STIM_006.jpg	100
122.575	0.747	746.9	incongruent	Block1	incongruent/STIM_006.jpg	100
125.809	0.671	671.0	incongruent	Block1	incongruent/STIM_006.jpg	99
129.18	1.137	1137.1	incongruent	Block1	incongruent/STIM_006.jpg	100
132.545	0.766	766.2	incongruent	Block1	incongruent/STIM_007.jpg	99
135.407	0.844	844.3	incongruent	Block1	incongruent/STIM_007.jpg	99
138.475	0.664	664.2	incongruent	Block1	incongruent/STIM_007.jpg	100
142.275	0.86	860.5	incongruent	Block1	incongruent/STIM_007.jpg	100
145.983	0.639	639.1	incongruent	Block1	incongruent/STIM_007.jpg	100
149.458	1.292	1292.3	incongruent	Block1	incongruent/STIM_008.jpg	99
153.105	0.793	793.1	incongruent	Block1	incongruent/STIM_008.jpg	100
156.388	1.208	1207.8	incongruent	Block1	incongruent/STIM_008.jpg	100
161.051	0.77	770.0	incongruent	Block1	incongruent/STIM_008.jpg	99
164.791	1.054	1053.7	incongruent	Block1	incongruent/STIM_008.jpg	99
168.181	1.067	1067.2	incongruent	Block1	incongruent/STIM_009.jpg	100
172.103	0.823	822.7	incongruent	Block1	incongruent/STIM_009.jpg	100
176.036	1.034	1034.3	incongruent	Block1	incongruent/STIM_009.jpg	99
179.479	1.094	1094.2	incongruent	Block1	incongruent/STIM_009.jpg	100
182.849	0.58	580.1	incongruent	Block1	incongruent/STIM_009.jpg	100
185.484	0.922	922.0	incongruent	Block1	incongruent/STIM_010.jpg	100
189.42	1.115	1115.3	incongruent	Block1	incongruent/STIM_010.jpg	100
193.026	0.625	625.1	incongruent	Block1	incongruent/STIM_010.jpg	99
197.153	0.884	884.0	incongruent	Block1	incongruent/STIM_010.jpg	99
201.411	0.786	785.9	incongruent	Block1	incongruent/STIM_010.jpg	100
204.681	1.265	1264.7	incongruent	Block1	incongruent/STIM_011.jpg	99
208.676	1.167	1167.4	incongruent	Block1	incongruent/STIM_011.jpg	100
212.195	0.814	813.8	incongruent	Block1	incongruent/STIM_011.jpg	99
216.414	0.726	725.7	incongruent	Block1	incongruent/STIM_011.jpg	99
220.802	0.567	566.8	incongruent	Block1	incongruent/STIM_011.jpg	99
224.542	1.437	1437.2	incongruent	Block1	incongruent/STIM_012.jpg	99
228.973	0.741	740.7	incongruent	Block1	incongruent/STIM_012.jpg	100
233.032	0.978	978.0	incongruent	Block1	incongruent/STIM_012.jpg	99
237.453	1.13	1129.8	incongruent	Block1	incongruent/STIM_012.jpg	99
241.428	1.1	1100.4	incongruent	Block1	incongruent/STIM_012.jpg	99
246.414	1.341	1341.4	incongruent	Block1	incongruent/STIM_013.jpg	99
250.706	1.36	1360.1	incongruent	Block1	incongruent/STIM_013.jpg	99
254.884	0.85	849.6	incongruent	Block1	incongruent/STIM_013.jpg	100
258.599	1.115	1114.6	incongruent	Block1	incongruent/STIM_013.jpg	99
262.002	1.113	1112.8	incongruent	Block1	incongruent/STIM_013.jpg	99
265.608	0.994	993.7	incongruent	Block1	incongruent/STIM_014.jpg	100
269.461	1.372	1371.8	incongruent	Block1	incongruent/STIM_014.jpg	100
274.255	1.201	1200.7	incongruent	Block1	incongruent/STIM_014.jpg	99
277.938	0.744	744.2	incongruent	Block1	incongruent/STIM_014.jpg	99
281.966	1.066	1066.0	incongruent	Block1	incongruent/STIM_014.jpg	99
285.254	1.333	1332.7	incongruent	Block1	incongruent/STIM_015.jpg	100
289.728	1.065	1064.7	incongruent	Block1	incongruent/STIM_015.jpg	100
293.615	1.298	1298.2	incongruent	Block1	incongruent/STIM_015.jpg	100
297.373	0.739	739.0	incongruent	Block1	incongruent/STIM_015.jpg	99
301.698	0.616	615.5	incongruent	Block1	incongruent/STIM_015.jpg	100
305.777	1.408	1408.1	incongruent	Block1	incongruent/STIM_016.jpg	100
310.662	1.195	1195.2	incongruent	Block1	incongruent/STIM_016.jpg	100
315.165	1.298	1297.7	incongruent	Block1	incongruent/STIM_016.jpg	100
319.399	1.187	1186.7	incongruent	Block1	incongruent/STIM_016.jpg	99
324.313	0.951	951.1	incongruent	Block1	incongruent/STIM_016.jpg	99
328.205	0.924	924.2	incongruent	Block1	incongruent/STIM_017.jpg	100
331.943	1.342	1342.1	incongruent	Block1	incongruent/STIM_017.jpg	99
336.579	0.85	849.8	incongruent	Block1	incongruent/STIM_017.jpg	99
339.807	0.669	668.8	incongruent	Block1	incongruent/STIM_017.jpg	99
342.909	1.012	1012.4	incongruent	Block1	incongruent/STIM_017.jpg	99
346.538	0.848	847.5	incongruent	Block1	incongruent/STIM_018.jpg	99
350.364	1.084	1084.4	incongruent	Block1	incongruent/STIM_018.jpg	100
354.291	1.172	1172.3	incongruent	Block1	incongruent/STIM_018.jpg	100
359.029	0.628	628.3	incongruent	Block1	incongruent/STIM_018.jpg	100
362.367	1.006	1005.6	incongruent	Block1	incongruent/STIM_018.jpg	99
366.336	1.182	1181.6	incongruent	Block1	incongruent/STIM_019.jpg	99
369.74	1.283	1283.2	incongruent	Block1	incongruent/STIM_019.jpg	99
373.939	0.84	839.7	incongruent	Block1	incongruent/STIM_019.jpg	99
377.112	1.098	1097.7	incongruent	Block1	incongruent/STIM_019.jpg	100
381.716	1.157	1156.6	incongruent	Block1	incongruent/STIM_019.jpg	99
386.417	0.725	724.7	incongruent	Block1	incongruent/STIM_020.jpg	100
390.833	1.206	1205.7	incongruent	Block1	incongruent/STIM_020.jpg	99
394.5	1.026	1025.7	incongruent	Block1	incongruent/STIM_020.jpg	100
398.828	0.941	941.3	incongruent	Block1	incongruent/STIM_020.jpg	99
403.294	0.608	608.5	incongruent	Block1	incongruent/STIM_020.jpg	99
407.636	1.347	1347.4	incongruent	Block1	incongruent/STIM_021.jpg	99
412.34	0.881	880.6	incongruent	Block1	incongruent/STIM_021.jpg	99
416.398	1.026	1026.5	incongruent	Block1	incongruent/STIM_021.jpg	100
420.729	0.747	746.9	incongruent	Block1	incongruent/STIM_021.jpg	99
423.689	0.628	628.2	incongruent	Block1	incongruent/STIM_021.jpg	100
427.972	1.294	1293.7	incongruent	Block1	incongruent/STIM_022.jpg	100
431.884	0.653	653.3	incongruent	Block1	incongruent/STIM_022.jpg	100
435.114	0.844	844.3	incongruent	Block1	incongruent/STIM_022.jpg	99
438.679	1.032	1032.5	incongruent	Block1	incongruent/STIM_022.jpg	99
442.926	0.802	801.9	incongruent	Block1	incongruent/STIM_022.jpg	99
447.313	1.324	1324.2	incongruent	Block1	incongruent/STIM_023.jpg	100
452.662	0.877	876.9	incongruent	Block1	incongruent/STIM_023.jpg	100
457.378	0.739	738.7	incongruent	Block1	incongruent/STIM_023.jpg	99
461.643	0.625	625.3	incongruent	Block1	incongruent/STIM_023.jpg	99
465.61	0.796	795.7	incongruent	Block1	incongruent/STIM_023.jpg	100
470.244	0.883	882.6	incongruent	Block1	incongruent/STIM_024.jpg	100
474.569	0.821	820.6	incongruent	Block1	incongruent/STIM_024.jpg	99
479.104	0.908	907.5	incongruent	Block1	incongruent/STIM_024.jpg	100
482.404	1.109	1109.4	incongruent	Block1	incongruent/STIM_024.jpg	99
486.805	0.93	930.0	incongruent	Block1	incongruent/STIM_024.jpg	100
490.318	1.119	1119.1	incongruent	Block1	incongruent/STIM_025.jpg	100
493.639	1.305	1305.2	incongruent	Block1	incongruent/STIM_025.jpg	100
497.658	1.092	1092.0	incongruent	Block1	incongruent/STIM_025.jpg	99
502.092	0.892	892.4	incongruent	Block1	incongruent/STIM_025.jpg	100
505.71	0.765	765.1	incongruent	Block1	incongruent/STIM_025.jpg	99
508.76	1.431	1430.8	incongruent	Block1	incongruent/STIM_026.jpg	99
513.928	1.273	1272.7	incongruent	Block1	incongruent/STIM_026.jpg	99
519.245	1.166	1165.7	incongruent	Block1	incongruent/STIM_026.jpg	100
522.942	0.768	767.8	incongruent	Block1	incongruent/STIM_026.jpg	99
526.611	0.66	660.1	incongruent	Block1	incongruent/STIM_026.jpg	99
530.337	1.438	1437.7	incongruent	Block1	incongruent/STIM_027.jpg	100
533.903	0.835	834.7	incongruent	Block1	incongruent/STIM_027.jpg	99
537.402	0.878	878.1	incongruent	Block1	incongruent/STIM_027.jpg	100
541.942	1.161	1161.1	incongruent	Block1	incongruent/STIM_027.jpg	99
546.665	1.12	1120.3	incongruent	Block1	incongruent/STIM_027.jpg	99
551.766	1.231	1230.6	incongruent	Block1	incongruent/STIM_028.jpg	99
556.348	0.985	984.7	incongruent	Block1	incongruent/STIM_028.jpg	99
560.094	1.046	1046.1	incongruent	Block1	incongruent/STIM_028.jpg	99
564.275	1.142	1141.8	incongruent	Block1	incongruent/STIM_028.jpg	100
569.344	0.63	629.9	incongruent	Block1	incongruent/STIM_028.jpg	100
573.672	1.377	1376.8	incongruent	Block1	incongruent/STIM_029.jpg	100
578.132	0.657	656.7	incongruent	Block1	incongruent/STIM_029.jpg	99
581.001	0.752	752.4	incongruent	Block1	incongruent/STIM_029.jpg	100
585.14	1.066	1066.5	incongruent	Block1	incongruent/STIM_029.jpg	100
588.903	0.792	792.5	incongruent	Block1	incongruent/STIM_029.jpg	100
593.059	0.85	850.1	congruent	Block1	congruent/STIM_000.jpg	100
597.603	0.573	573.3	congruent	Block1	congruent/STIM_000.jpg	100
602.105	0.841	841.0	congruent	Block1	congruent/STIM_000.jpg	99
606.648	0.725	724.7	congruent	Block1	congruent/STIM_000.jpg	100
610.373	0.841	841.3	congruent	Block1	congruent/STIM_000.jpg	100
613.612	0.654	654.2	congruent	Block1	congruent/STIM_001.jpg	99
618.101	0.514	514.4	congruent	Block1	congruent/STIM_001.jpg	99
621.969	0.805	804.8	congruent	Block1	congruent/STIM_001.jpg	100
626.46	0.542	541.8	congruent	Block1	congruent/STIM_001.jpg	100
630.134	0.484	483.5	congruent	Block1	congruent/STIM_001.jpg	100
634.106	0.818	817.8	congruent	Block1	congruent/STIM_002.jpg	100
637.812	0.725	725.4	congruent	Block1	congruent/STIM_002.jpg	100
641.665	0.543	543.0	congruent	Block1	congruent/STIM_002.jpg	100
645.12	0.796	796.4	congruent	Block1	congruent/STIM_002.jpg	99
648.242	0.511	511.5	congruent	Block1	congruent/STIM_002.jpg	99
651.148	0.826	826.1	congruent	Block1	congruent/STIM_003.jpg	100
654.617	0.69	690.1	congruent	Block1	congruent/STIM_003.jpg	100
657.914	0.547	547.3	congruent	Block1	congruent/STIM_003.jpg	100
661.801	0.624	624.1	congruent	Block1	congruent/STIM_003.jpg	100
665.823	0.756	755.9	congruent	Block1	congruent/STIM_003.jpg	99
670.381	0.72	720.2	congruent	Block1	congruent/STIM_004.jpg	99
674.83	0.535	534.7	congruent	Block1	congruent/STIM_004.jpg	99
678.238	0.56	559.5	congruent	Block1	congruent/STIM_004.jpg	99
681.347	0.863	862.7	congruent	Block1	congruent/STIM_004.jpg	100
685.949	0.664	664.5	congruent	Block1	congruent/STIM_004.jpg	99
689.822	0.63	630.0	congruent	Block1	congruent/STIM_005.jpg	99
693.493	0.744	744.2	congruent	Block1	congruent/STIM_005.jpg	99
697.628	0.812	812.1	congruent	Block1	congruent/STIM_005.jpg	99
701.045	0.697	697.1	congruent	Block1	congruent/STIM_005.jpg	100
705.404	0.78	780.4	congruent	Block1	congruent/STIM_005.jpg	99
709.802	0.782	782.0	congruent	Block1	congruent/STIM_006.jpg	100
713.482	0.822	821.7	congruent	Block1	congruent/STIM_006.jpg	100
717.576	0.645	644.6	congruent	Block1	congruent/STIM_006.jpg	99
721.343	0.612	611.7	congruent	Block1	congruent/STIM_006.jpg	100
725.684	0.808	808.0	congruent	Block1	congruent/STIM_006.jpg	100
730.377	0.567	567.4	congruent	Block1	congruent/STIM_007.jpg	99
733.23	0.548	547.8	congruent	Block1	congruent/STIM_007.jpg	99
736.151	0.575	575.0	congruent	Block1	congruent/STIM_007.jpg	99
740.073	0.719	719.1	congruent	Block1	congruent/STIM_007.jpg	99
744.033	0.587	587.4	congruent	Block1	congruent/STIM_007.jpg	100
747.555	0.748	748.3	congruent	Block1	congruent/STIM_008.jpg	99
750.586	0.69	689.8	congruent	Block1	congruent/STIM_008.jpg	100
754.319	0.576	576.0	congruent	Block1	congruent/STIM_008.jpg	100
758.193	0.688	687.5	congruent	Block1	congruent/STIM_008.jpg	100
761.599	0.548	547.5	congruent	Block1	congruent/STIM_008.jpg	100
765.889	0.516	516.2	congruent	Block1	congruent/STIM_009.jpg	99
770.252	0.835	834.8	congruent	Block1	congruent/STIM_009.jpg	100
774.881	0.492	492.0	congruent	Block1	congruent/STIM_009.jpg	100
778.478	0.804	803.6	congruent	Block1	congruent/STIM_009.jpg	100
781.674	0.553	553.2	congruent	Block1	congruent/STIM_009.jpg	99
785.158	0.589	588.8	congruent	Block1	congruent/STIM_010.jpg	99
788.298	0.569	569.4	congruent	Block1	congruent/STIM_010.jpg	99
791.95	0.522	522.1	congruent	Block1	congruent/STIM_010.jpg	100
794.945	0.624	624.5	congruent	Block1	congruent/STIM_010.jpg	99
798.75	0.608	607.5	congruent	Block1	congruent/STIM_010.jpg	99
802.473	0.515	514.9	congruent	Block1	congruent/STIM_011.jpg	99
805.692	0.728	727.7	congruent	Block1	congruent/STIM_011.jpg	99
809.919	0.618	618.2	congruent	Block1	congruent/STIM_011.jpg	100
812.937	0.483	483.4	congruent	Block1	congruent/STIM_011.jpg	99
817.405	0.735	734.6	congruent	Block1	congruent/STIM_011.jpg	99
822.121	0.847	846.6	congruent	Block1	congruent/STIM_012.jpg	99
825.615	0.638	637.8	congruent	Block1	congruent/STIM_012.jpg	100
828.435	0.849	849.3	congruent	Block1	congruent/STIM_012.jpg	99
832.89	0.7	700.1	congruent	Block1	congruent/STIM_012.jpg	99
837.54	0.695	695.3	congruent	Block1	congruent/STIM_012.jpg	100
840.861	0.68	679.9	congruent	Block1	congruent/STIM_013.jpg	99
844.237	0.588	588.2	congruent	Block1	congruent/STIM_013.jpg	99
847.658	0.52	519.6	congruent	Block1	congruent/STIM_013.jpg	100
850.923	0.556	555.6	congruent	Block1	congruent/STIM_013.jpg	99
853.563	0.716	716.1	congruent	Block1	congruent/STIM_013.jpg	100
858.042	0.573	572.6	congruent	Block1	congruent/STIM_014.jpg	99
860.962	0.505	505.3	congruent	Block1	congruent/STIM_014.jpg	99
863.678	0.638	637.7	congruent	Block1	congruent/STIM_014.jpg	99
866.491	0.676	676.4	congruent	Block1	congruent/STIM_014.jpg	99
870.017	0.757	756.7	congruent	Block1	congruent/STIM_014.jpg	99
874.68	0.746	746.3	congruent	Block1	congruent/STIM_015.jpg	99
878.564	0.671	670.7	congruent	Block1	congruent/STIM_015.jpg	100
882.639	0.767	767.0	congruent	Block1	congruent/STIM_015.jpg	99
886.187	0.531	530.6	congruent	Block1	congruent/STIM_015.jpg	99
888.863	0.796	795.8	congruent	Block1	congruent/STIM_015.jpg	99
893.021	0.693	692.6	congruent	Block1	congruent/STIM_016.jpg	100
896.507	0.858	857.6	congruent	Block1	congruent/STIM_016.jpg	99
899.648	0.836	835.7	congruent	Block1	congruent/STIM_016.jpg	100
903.399	0.812	811.5	congruent	Block1	congruent/STIM_016.jpg	99
907.846	0.543	543.1	congruent	Block1	congruent/STIM_016.jpg	100
911.529	0.536	535.5	congruent	Block1	congruent/STIM_017.jpg	100
915.284	0.605	605.0	congruent	Block1	congruent/STIM_017.jpg	100
918.665	0.763	762.8	congruent	Block1	congruent/STIM_017.jpg	100
923.307	0.656	655.8	congruent	Block1	congruent/STIM_017.jpg	100
926.532	0.859	859.4	congruent	Block1	congruent/STIM_017.jpg	99
930.952	0.594	594.4	congruent	Block1	congruent/STIM_018.jpg	100
934.148	0.649	649.2	congruent	Block1	congruent/STIM_018.jpg	99
938.817	0.842	842.5	congruent	Block1	congruent/STIM_018.jpg	99
941.923	0.602	602.3	congruent	Block1	congruent/STIM_018.jpg	99
946.285	0.858	857.8	congruent	Block1	congruent/STIM_018.jpg	100
949.712	0.662	662.3	congruent	Block1	congruent/STIM_019.jpg	100
953.077	0.623	622.9	congruent	Block1	congruent/STIM_019.jpg	99
956.037	0.548	548.3	congruent	Block1	congruent/STIM_019.jpg	99
959.253	0.819	818.6	congruent	Block1	congruent/STIM_019.jpg	99
962.901	0.801	801.1	congruent	Block1	congruent/STIM_019.jpg	100
967.412	0.825	825.3	congruent	Block1	congruent/STIM_020.jpg	99
970.531	0.799	799.2	congruent	Block1	congruent/STIM_020.jpg	99
974.272	0.578	578.5	congruent	Block1	congruent/STIM_020.jpg	100
977.643	0.755	755.0	congruent	Block1	congruent/STIM_020.jpg	100
981.736	0.655	655.1	congruent	Block1	congruent/STIM_020.jpg	99
985.79	0.554	554.5	congruent	Block1	congruent/STIM_021.jpg	100
990.039	0.867	866.8	congruent	Block1	congruent/STIM_021.jpg	100
994.785	0.642	642.4	congruent	Block1	congruent/STIM_021.jpg	100
998.23	0.735	734.6	congruent	Block1	congruent/STIM_021.jpg	100
1001.459	0.543	542.8	congruent	Block1	congruent/STIM_021.jpg	100
1004.228	0.82	820.3	congruent	Block1	congruent/STIM_022.jpg	100
1007.254	0.535	535.4	congruent	Block1	congruent/STIM_022.jpg	99
1011.798	0.687	687.3	congruent	Block1	congruent/STIM_022.jpg	100
1014.709	0.69	690.4	congruent	Block1	congruent/STIM_022.jpg	99
1019.389	0.795	794.7	congruent	Block1	congruent/STIM_022.jpg	100
1023.885	0.759	759.1	congruent	Block1	congruent/STIM_023.jpg	100
1026.831	0.609	609.2	congruent	Block1	congruent/STIM_023.jpg	99
1030.513	0.577	577.1	congruent	Block1	congruent/STIM_023.jpg	100
1034.87	0.733	733.0	congruent	Block1	congruent/STIM_023.jpg	100
1039.393	0.61	609.9	congruent	Block1	congruent/STIM_023.jpg	99
1043.65	0.792	791.6	congruent	Block1	congruent/STIM_024.jpg	99
1046.828	0.737	737.4	congruent	Block1	congruent/STIM_024.jpg	100
1050.192	0.615	615.4	congruent	Block1	congruent/STIM_024.jpg	100
1054.338	0.727	727.0	congruent	Block1	congruent/STIM_024.jpg	100
1058.106	0.563	562.7	congruent	Block1	congruent/STIM_024.jpg	99
1060.859	0.611	611.3	congruent	Block1	congruent/STIM_025.jpg	100
1064.089	0.723	723.4	congruent	Block1	congruent/STIM_025.jpg	99
1067.813	0.694	693.6	congruent	Block1	congruent/STIM_025.jpg	99
1071.535	0.579	579.1	congruent	Block1	congruent/STIM_025.jpg	100
1075.488	0.696	695.6	congruent	Block1	congruent/STIM_025.jpg	99
1079.333	0.616	616.5	congruent	Block1	congruent/STIM_026.jpg	100
1083.751	0.716	716.2	congruent	Block1	congruent/STIM_026.jpg	100
1086.889	0.65	650.3	congruent	Block1	congruent/STIM_026.jpg	100
1091.52	0.56	560.1	congruent	Block1	congruent/STIM_026.jpg	99
1095.445	0.758	757.8	congruent	Block1	congruent/STIM_026.jpg	99
1098.93	0.756	755.8	congruent	Block1	congruent/STIM_027.jpg	99
1102.416	0.82	820.3	congruent	Block1	congruent/STIM_027.jpg	99
1105.515	0.619	619.1	congruent	Block1	congruent/STIM_027.jpg	100
1109.728	0.804	803.8	congruent	Block1	congruent/STIM_027.jpg	100
1114.179	0.589	589.1	congruent	Block1	congruent/STIM_027.jpg	100
1118.64	0.485	485.3	congruent	Block1	congruent/STIM_028.jpg	100
1122.309	0.61	609.6	congruent	Block1	congruent/STIM_028.jpg	100
1125.518	0.77	770.3	congruent	Block1	congruent/STIM_028.jpg	100
1129.286	0.788	788.5	congruent	Block1	congruent/STIM_028.jpg	100
1132.997	0.55	549.7	congruent	Block1	congruent/STIM_028.jpg	99
1136.677	0.596	595.7	congruent	Block1	congruent/STIM_029.jpg	99
1139.447	0.812	811.9	congruent	Block1	congruent/STIM_029.jpg	99
1142.986	0.548	548.1	congruent	Block1	congruent/STIM_029.jpg	100
1146.302	0.861	861.1	congruent	Block1	congruent/STIM_029.jpg	99
1151.025	0.56	560.2	congruent	Block1	congruent/STIM_029.jpg	100
1154.239	1.013	1013.0	incongruent	Block2	incongruent/STIM_000.jpg	99
1159.114	0.941	940.6	incongruent	Block2	incongruent/STIM_000.jpg	100
1162.324	1.0	1000.1	incongruent	Block2	incongruent/STIM_000.jpg	99
1166.986	0.618	617.5	incongruent	Block2	incongruent/STIM_000.jpg	100
1171.269	0.91	909.7	incongruent	Block2	incongruent/STIM_000.jpg	99
1176.098	1.224	1223.9	incongruent	Block2	incongruent/STIM_001.jpg	99
1181.244	1.09	1089.9	incongruent	Block2	incongruent/STIM_001.jpg	100
1184.576	0.605	605.2	incongruent	Block2	incongruent/STIM_001.jpg	100
1187.605	0.679	679.4	incongruent	Block2	incongruent/STIM_001.jpg	99
1191.947	0.801	801.1	incongruent	Block2	incongruent/STIM_001.jpg	100
1195.65	0.615	614.9	incongruent	Block2	incongruent/STIM_002.jpg	100
1199.742	0.766	766.4	incongruent	Block2	incongruent/STIM_002.jpg	100
1203.333	0.812	812.2	incongruent	Block2	incongruent/STIM_002.jpg	100
1207.489	0.697	697.4	incongruent	Block2	incongruent/STIM_002.jpg	100
1210.446	0.557	556.6	incongruent	Block2	incongruent/STIM_002.jpg	100
1215.003	0.798	798.5	incongruent	Block2	incongruent/STIM_003.jpg	99
1219.188	1.079	1078.8	incongruent	Block2	incongruent/STIM_003.jpg	99
1223.078	0.542	541.5	incongruent	Block2	incongruent/STIM_003.jpg	99
1226.415	0.51	510.3	incongruent	Block2	incongruent/STIM_003.jpg	100
1229.106	0.667	667.4	incongruent	Block2	incongruent/STIM_003.jpg	100
1233.339	1.08	1080.2	incongruent	Block2	incongruent/STIM_004.jpg	100
1236.906	0.992	992.2	incongruent	Block2	incongruent/STIM_004.jpg	100
1240.615	0.828	828.3	incongruent	Block2	incongruent/STIM_004.jpg	99
1244.073	0.503	502.6	incongruent	Block2	incongruent/STIM_004.jpg	100
1248.152	0.486	486.4	incongruent	Block2	incongruent/STIM_004.jpg	99
1251.362	0.791	791.3	incongruent	Block2	incongruent/STIM_005.jpg	100
1255.409	1.136	1135.5	incongruent	Block2	incongruent/STIM_005.jpg	100
1260.214	0.709	708.9	incongruent	Block2	incongruent/STIM_005.jpg	100
1264.267	0.998	998.3	incongruent	Block2	incongruent/STIM_005.jpg	100
1268.681	0.867	867.0	incongruent	Block2	incongruent/STIM_005.jpg	99
1272.857	0.934	934.5	incongruent	Block2	incongruent/STIM_006.jpg	100
1277.6	1.12	1119.5	incongruent	Block2	incongruent/STIM_006.jpg	100
1282.276	0.942	941.9	incongruent	Block2	incongruent/STIM_006.jpg	100
1286.049	0.673	672.8	incongruent	Block2	incongruent/STIM_006.jpg	99
1290.674	0.699	698.9	incongruent	Block2	incongruent/STIM_006.jpg	99
1294.831	0.898	898.2	incongruent	Block2	incongruent/STIM_007.jpg	99
1298.791	0.552	551.5	incongruent	Block2	incongruent/STIM_007.jpg	99
1301.53	0.95	950.2	incongruent	Block2	incongruent/STIM_007.jpg	99
1306.071	0.593	592.6	incongruent	Block2	incongruent/STIM_007.jpg	99
1308.753	0.594	594.1	incongruent	Block2	incongruent/STIM_007.jpg	100
1311.861	0.823	822.9	incongruent	Block2	incongruent/STIM_008.jpg	100
1316.122	0.582	582.3	incongruent	Block2	incongruent/STIM_008.jpg	100
1319.509	1.004	1004.3	incongruent	Block2	incongruent/STIM_008.jpg	99
1323.674	0.906	905.7	incongruent	Block2	incongruent/STIM_008.jpg	99
1328.486	0.556	556.0	incongruent	Block2	incongruent/STIM_008.jpg	100
1331.199	1.14	1140.0	incongruent	Block2	incongruent/STIM_009.jpg	99
1335.658	0.669	669.3	incongruent	Block2	incongruent/STIM_009.jpg	100
1339.45	0.525	524.7	incongruent	Block2	incongruent/STIM_009.jpg	99
1342.056	0.832	831.5	incongruent	Block2	incongruent/STIM_009.jpg	100
1346.517	0.992	991.6	incongruent	Block2	incongruent/STIM_009.jpg	99
1350.126	0.73	730.3	incongruent	Block2	incongruent/STIM_010.jpg	99
1354.77	0.644	643.8	incongruent	Block2	incongruent/STIM_010.jpg	99
1357.769	0.945	945.0	incongruent	Block2	incongruent/STIM_010.jpg	100
1361.787	0.571	570.9	incongruent	Block2	incongruent/STIM_010.jpg	100
1366.057	0.761	760.6	incongruent	Block2	incongruent/STIM_010.jpg	99
1370.171	0.93	930.5	incongruent	Block2	incongruent/STIM_011.jpg	100
1375.083	0.906	906.1	incongruent	Block2	incongruent/STIM_011.jpg	100
1379.737	0.754	753.7	incongruent	Block2	incongruent/STIM_011.jpg	100
1383.921	0.812	811.9	incongruent	Block2	incongruent/STIM_011.jpg	100
1386.795	0.975	975.2	incongruent	Block2	incongruent/STIM_011.jpg	100
1390.603	0.782	782.1	incongruent	Block2	incongruent/STIM_012.jpg	99
1393.674	1.014	1014.1	incongruent	Block2	incongruent/STIM_012.jpg	99
1397.295	0.614	614.1	incongruent	Block2	incongruent/STIM_012.jpg	99
1400.183	0.923	922.9	incongruent	Block2	incongruent/STIM_012.jpg	99
1404.795	0.823	823.2	incongruent	Block2	incongruent/STIM_012.jpg	100
1408.257	0.935	934.8	incongruent	Block2	incongruent/STIM_013.jpg	100
1412.344	0.673	673.4	incongruent	Block2	incongruent/STIM_013.jpg	99
1416.763	1.011	1010.6	incongruent	Block2	incongruent/STIM_013.jpg	99
1421.533	0.6	600.3	incongruent	Block2	incongruent/STIM_013.jpg	100
1424.747	0.609	608.6	incongruent	Block2	incongruent/STIM_013.jpg	99
1427.477	0.852	852.1	incongruent	Block2	incongruent/STIM_014.jpg	100
1430.836	0.84	839.5	incongruent	Block2	incongruent/STIM_014.jpg	100
1434.697	0.748	748.5	incongruent	Block2	incongruent/STIM_014.jpg	99
1438.243	0.618	618.0	incongruent	Block2	incongruent/STIM_014.jpg	99
1442.513	0.964	963.9	incongruent	Block2	incongruent/STIM_014.jpg	100
1447.276	0.813	813.3	incongruent	Block2	incongruent/STIM_015.jpg	100
1451.848	1.028	1028.3	incongruent	Block2	incongruent/STIM_015.jpg	99
1456.05	0.623	623.4	incongruent	Block2	incongruent/STIM_015.jpg	100
1459.141	0.964	964.1	incongruent	Block2	incongruent/STIM_015.jpg	100
1462.666	0.506	506.3	incongruent	Block2	incongruent/STIM_015.jpg	99
1466.385	1.195	1195.0	incongruent	Block2	incongruent/STIM_016.jpg	100
1470.532	0.82	819.6	incongruent	Block2	incongruent/STIM_016.jpg	99
1475.327	0.51	510.4	incongruent	Block2	incongruent/STIM_016.jpg	100
1479.292	0.643	643.3	incongruent	Block2	incongruent/STIM_016.jpg	100
1483.18	0.925	925.3	incongruent	Block2	incongruent/STIM_016.jpg	100
1487.827	0.83	830.5	incongruent	Block2	incongruent/STIM_017.jpg	100
1492.637	1.086	1085.7	incongruent	Block2	incongruent/STIM_017.jpg	99
1496.694	0.508	508.3	incongruent	Block2	incongruent/STIM_017.jpg	99
1500.253	0.712	711.6	incongruent	Block2	incongruent/STIM_017.jpg	99
1504.333	0.685	685.3	incongruent	Block2	incongruent/STIM_017.jpg	99
1507.098	0.822	821.5	incongruent	Block2	incongruent/STIM_018.jpg	100
1510.765	0.553	552.8	incongruent	Block2	incongruent/STIM_018.jpg	99
1514.638	0.632	632.1	incongruent	Block2	incongruent/STIM_018.jpg	100
1518.792	0.8	799.8	incongruent	Block2	incongruent/STIM_018.jpg	99
1522.542	0.634	634.5	incongruent	Block2	incongruent/STIM_018.jpg	100
1526.821	0.639	639.4	incongruent	Block2	incongruent/STIM_019.jpg	100
1530.543	1.078	1077.5	incongruent	Block2	incongruent/STIM_019.jpg	100
1534.111	0.903	903.2	incongruent	Block2	incongruent/STIM_019.jpg	99
1538.983	0.707	706.9	incongruent	Block2	incongruent/STIM_019.jpg	100
1542.024	0.811	811.2	incongruent	Block2	incongruent/STIM_019.jpg	99
1545.164	0.937	936.7	incongruent	Block2	incongruent/STIM_020.jpg	99
1549.869	0.543	543.1	incongruent	Block2	incongruent/STIM_020.jpg	100
1554.29	0.757	757.1	incongruent	Block2	incongruent/STIM_020.jpg	99
1559.001	0.539	538.8	incongruent	Block2	incongruent/STIM_020.jpg	99
1563.216	0.659	658.9	incongruent	Block2	incongruent/STIM_020.jpg	100
1566.636	1.03	1029.6	incongruent	Block2	incongruent/STIM_021.jpg	99
1570.264	0.67	670.2	incongruent	Block2	incongruent/STIM_021.jpg	99
1573.638	0.838	838.1	incongruent	Block2	incongruent/STIM_021.jpg	99
1576.917	0.673	672.7	incongruent	Block2	incongruent/STIM_021.jpg	99
1581.129	0.785	785.3	incongruent	Block2	incongruent/STIM_021.jpg	100
1585.272	1.108	1108.1	incongruent	Block2	incongruent/STIM_022.jpg	100
1588.9	0.846	846.4	incongruent	Block2	incongruent/STIM_022.jpg	99
1592.567	0.713	713.2	incongruent	Block2	incongruent/STIM_022.jpg	99
1596.706	0.808	807.5	incongruent	Block2	incongruent/STIM_022.jpg	100
1600.302	0.678	678.5	incongruent	Block2	incongruent/STIM_022.jpg	99
1604.129	0.769	769.4	incongruent	Block2	incongruent/STIM_023.jpg	100
1607.785	1.117	1116.6	incongruent	Block2	incongruent/STIM_023.jpg	100
1611.465	0.692	692.3	incongruent	Block2	incongruent/STIM_023.jpg	99
1615.673	0.617	617.3	incongruent	Block2	incongruent/STIM_023.jpg	100
1618.791	0.873	873.0	incongruent	Block2	incongruent/STIM_023.jpg	99
1622.968	0.712	711.7	incongruent	Block2	incongruent/STIM_024.jpg	99
1627.705	0.677	676.6	incongruent	Block2	incongruent/STIM_024.jpg	99
1630.54	0.864	864.1	incongruent	Block2	incongruent/STIM_024.jpg	100
1633.589	0.969	968.7	incongruent	Block2	incongruent/STIM_024.jpg	100
1638.221	0.847	846.9	incongruent	Block2	incongruent/STIM_024.jpg	100
1641.741	0.685	685.1	incongruent	Block2	incongruent/STIM_025.jpg	100
1645.271	0.556	556.5	incongruent	Block2	incongruent/STIM_025.jpg	99
1648.069	0.954	954.0	incongruent	Block2	incongruent/STIM_025.jpg	99
1651.114	0.56	560.4	incongruent	Block2	incongruent/STIM_025.jpg	99
1654.986	0.808	808.3	incongruent	Block2	incongruent/STIM_025.jpg	100
1658.221	0.898	897.6	incongruent	Block2	incongruent/STIM_026.jpg	100
1662.984	0.618	618.1	incongruent	Block2	incongruent/STIM_026.jpg	99
1666.919	0.781	781.1	incongruent	Block2	incongruent/STIM_026.jpg	100
1669.987	0.858	857.9	incongruent	Block2	incongruent/STIM_026.jpg	99
1674.075	0.588	588.5	incongruent	Block2	incongruent/STIM_026.jpg	100
1677.408	1.228	1227.5	incongruent	Block2	incongruent/STIM_027.jpg	99
1681.411	0.759	758.8	incongruent	Block2	incongruent/STIM_027.jpg	100
1686.148	1.023	1022.6	incongruent	Block2	incongruent/STIM_027.jpg	99
1689.675	0.76	760.2	incongruent	Block2	incongruent/STIM_027.jpg	100
1694.143	0.579	579.1	incongruent	Block2	incongruent/STIM_027.jpg	99
1697.043	0.748	747.7	incongruent	Block2	incongruent/STIM_028.jpg	99
1701.456	0.607	606.7	incongruent	Block2	incongruent/STIM_028.jpg	100
1704.142	0.758	758.1	incongruent	Block2	incongruent/STIM_028.jpg	99
1708.296	0.534	534.5	incongruent	Block2	incongruent/STIM_028.jpg	99
1712.654	0.815	815.3	incongruent	Block2	incongruent/STIM_028.jpg	99
1717.313	1.048	1047.8	incongruent	Block2	incongruent/STIM_029.jpg	100
1721.076	0.773	773.0	incongruent	Block2	incongruent/STIM_029.jpg	100
1724.312	0.99	990.0	incongruent	Block2	incongruent/STIM_029.jpg	100
1727.93	0.643	643.4	incongruent	Block2	incongruent/STIM_029.jpg	100
1732.36	0.614	613.7	incongruent	Block2	incongruent/STIM_029.jpg	100
1735.013	0.84	839.9	congruent	Block2	congruent/STIM_000.jpg	99
1737.998	0.584	584.1	congruent	Block2	congruent/STIM_000.jpg	100
1741.096	0.782	782.0	congruent	Block2	congruent/STIM_000.jpg	99
1744.487	0.837	836.6	congruent	Block2	congruent/STIM_000.jpg	100
1748.284	0.599	599.2	congruent	Block2	congruent/STIM_000.jpg	100
1752.759	0.656	655.7	congruent	Block2	congruent/STIM_001.jpg	99
1757.095	0.747	747.1	congruent	Block2	congruent/STIM_001.jpg	99
1761.553	0.668	667.5	congruent	Block2	congruent/STIM_001.jpg	99
1765.272	0.799	799.2	congruent	Block2	congruent/STIM_001.jpg	100
1769.343	0.793	792.8	congruent	Block2	congruent/STIM_001.jpg	99
1773.122	0.778	778.5	congruent	Block2	congruent/STIM_002.jpg	100
1777.111	0.723	723.4	congruent	Block2	congruent/STIM_002.jpg	100
1781.188	0.68	679.5	congruent	Block2	congruent/STIM_002.jpg	100
1784.758	0.719	718.7	congruent	Block2	congruent/STIM_002.jpg	99
1788.568	0.534	533.9	congruent	Block2	congruent/STIM_002.jpg	100
1791.427	0.67	670.5	congruent	Block2	congruent/STIM_003.jpg	99
1794.981	0.666	666.2	congruent	Block2	congruent/STIM_003.jpg	100
1799.275	0.792	791.7	congruent	Block2	congruent/STIM_003.jpg	100
1803.882	0.773	772.7	congruent	Block2	congruent/STIM_003.jpg	100
1807.548	0.633	633.1	congruent	Block2	congruent/STIM_003.jpg	100
1811.416	0.567	566.9	congruent	Block2	congruent/STIM_004.jpg	100
1814.992	0.788	788.5	congruent	Block2	congruent/STIM_004.jpg	99
1818.91	0.786	786.3	congruent	Block2	congruent/STIM_004.jpg	99
1822.609	0.835	834.6	congruent	Block2	congruent/STIM_004.jpg	99
1826.622	0.61	609.5	congruent	Block2	congruent/STIM_004.jpg	99
1830.919	0.798	798.5	congruent	Block2	congruent/STIM_005.jpg	100
1834.708	0.626	625.7	congruent	Block2	congruent/STIM_005.jpg	99
1838.847	0.504	504.0	congruent	Block2	congruent/STIM_005.jpg	99
1842.917	0.858	858.1	congruent	Block2	congruent/STIM_005.jpg	100
1847.246	0.769	769.2	congruent	Block2	congruent/STIM_005.jpg	99
1851.333	0.594	594.3	congruent	Block2	congruent/STIM_006.jpg	100
1855.501	0.728	728.2	congruent	Block2	congruent/STIM_006.jpg	100
1858.553	0.487	487.1	congruent	Block2	congruent/STIM_006.jpg	100
1861.075	0.72	720.2	congruent	Block2	congruent/STIM_006.jpg	99
1864.692	0.657	656.6	congruent	Block2	congruent/STIM_006.jpg	100
1869.245	0.867	866.7	congruent	Block2	congruent/STIM_007.jpg	100
1872.879	0.817	816.9	congruent	Block2	congruent/STIM_007.jpg	100
1876.244	0.588	588.1	congruent	Block2	congruent/STIM_007.jpg	99
1880.423	0.628	628.0	congruent	Block2	congruent/STIM_007.jpg	99
1883.144	0.671	671.3	congruent	Block2	congruent/STIM_007.jpg	99
1886.946	0.85	850.2	congruent	Block2	congruent/STIM_008.jpg	100
1891.396	0.524	523.7	congruent	Block2	congruent/STIM_008.jpg	99
1894.357	0.607	607.0	congruent	Block2	congruent/STIM_008.jpg	99
1898.327	0.816	815.5	congruent	Block2	congruent/STIM_008.jpg	100
1901.381	0.536	536.3	congruent	Block2	congruent/STIM_008.jpg	100
1905.093	0.506	506.0	congruent	Block2	congruent/STIM_009.jpg	100
1909.27	0.621	621.2	congruent	Block2	congruent/STIM_009.jpg	99
1912.048	0.839	839.3	congruent	Block2	congruent/STIM_009.jpg	99
1914.938	0.641	641.3	congruent	Block2	congruent/STIM_009.jpg	100
1919.484	0.487	486.9	congruent	Block2	congruent/STIM_009.jpg	99
1923.047	0.574	574.1	congruent	Block2	congruent/STIM_010.jpg	99
1926.457	0.614	614.1	congruent	Block2	congruent/STIM_010.jpg	99
1930.497	0.689	689.3	congruent	Block2	congruent/STIM_010.jpg	100
1934.35	0.721	721.3	congruent	Block2	congruent/STIM_010.jpg	99
1938.996	0.758	758.3	congruent	Block2	congruent/STIM_010.jpg	99
1943.35	0.819	819.1	congruent	Block2	congruent/STIM_011.jpg	100
1947.413	0.608	608.3	congruent	Block2	congruent/STIM_011.jpg	99
1951.392	0.702	702.0	congruent	Block2	congruent/STIM_011.jpg	99
1955.11	0.783	782.8	congruent	Block2	congruent/STIM_011.jpg	99
1959.406	0.599	599.4	congruent	Block2	congruent/STIM_011.jpg	100
1963.514	0.54	540.5	congruent	Block2	congruent/STIM_012.jpg	99
1966.836	0.803	803.2	congruent	Block2	congruent/STIM_012.jpg	99
1969.678	0.573	573.1	congruent	Block2	congruent/STIM_012.jpg	100
1973.432	0.648	648.4	congruent	Block2	congruent/STIM_012.jpg	99
1976.179	0.58	579.9	congruent	Block2	congruent/STIM_012.jpg	100
1979.927	0.862	861.8	congruent	Block2	congruent/STIM_013.jpg	100
1983.967	0.812	812.2	congruent	Block2	congruent/STIM_013.jpg	100
1988.157	0.496	495.5	congruent	Block2	congruent/STIM_013.jpg	100
1991.622	0.839	839.1	congruent	Block2	congruent/STIM_013.jpg	99
1995.584	0.699	698.9	congruent	Block2	congruent/STIM_013.jpg	99
1999.95	0.634	633.9	congruent	Block2	congruent/STIM_014.jpg	100
2003.838	0.681	681.1	congruent	Block2	congruent/STIM_014.jpg	100
2006.601	0.667	667.2	congruent	Block2	congruent/STIM_014.jpg	100
2009.669	0.765	764.6	congruent	Block2	congruent/STIM_014.jpg	100
2013.733	0.569	568.6	congruent	Block2	congruent/STIM_014.jpg	100
2016.907	0.603	603.4	congruent	Block2	congruent/STIM_015.jpg	99
2021.054	0.774	774.4	congruent	Block2	congruent/STIM_015.jpg	100
2025.466	0.819	819.2	congruent	Block2	congruent/STIM_015.jpg	99
2029.246	0.76	759.8	congruent	Block2	congruent/STIM_015.jpg	100
2033.51	0.745	744.7	congruent	Block2	congruent/STIM_015.jpg	100
2036.579	0.586	585.6	congruent	Block2	congruent/STIM_016.jpg	100
2040.456	0.587	587.4	congruent	Block2	congruent/STIM_016.jpg	99
2044.409	0.562	561.6	congruent	Block2	congruent/STIM_016.jpg	99
2047.164	0.586	586.5	congruent	Block2	congruent/STIM_016.jpg	99
2050.615	0.811	810.9	congruent	Block2	congruent/STIM_016.jpg	99
2054.149	0.551	550.9	congruent	Block2	congruent/STIM_017.jpg	100
2058.584	0.601	601.4	congruent	Block2	congruent/STIM_017.jpg	100
2063.022	0.81	810.0	congruent	Block2	congruent/STIM_017.jpg	99
2066.903	0.72	720.1	congruent	Block2	congruent/STIM_017.jpg	99
2071.561	0.627	627.0	congruent	Block2	congruent/STIM_017.jpg	100
2075.489	0.755	755.1	congruent	Block2	congruent/STIM_018.jpg	100
2079.969	0.688	687.6	congruent	Block2	congruent/STIM_018.jpg	99
2083.541	0.599	598.7	congruent	Block2	congruent/STIM_018.jpg	100
2087.777	0.623	623.3	congruent	Block2	congruent/STIM_018.jpg	99
2091.644	0.688	687.9	congruent	Block2	congruent/STIM_018.jpg	100
2096.167	0.626	626.2	congruent	Block2	congruent/STIM_019.jpg	100
2100.111	0.591	591.1	congruent	Block2	congruent/STIM_019.jpg	99
2104.493	0.717	717.2	congruent	Block2	congruent/STIM_019.jpg	100
2107.406	0.773	772.7	congruent	Block2	congruent/STIM_019.jpg	99
2111.505	0.572	571.6	congruent	Block2	congruent/STIM_019.jpg	99
2114.217	0.783	782.6	congruent	Block2	congruent/STIM_020.jpg	99
2117.479	0.675	675.4	congruent	Block2	congruent/STIM_020.jpg	99
2120.923	0.515	515.2	congruent	Block2	congruent/STIM_020.jpg	99
2123.948	0.702	702.2	congruent	Block2	congruent/STIM_020.jpg	100
2128.149	0.762	761.7	congruent	Block2	congruent/STIM_020.jpg	100
2132.218	0.806	805.5	congruent	Block2	congruent/STIM_021.jpg	100
2135.101	0.734	734.5	congruent	Block2	congruent/STIM_021.jpg	100
2139.629	0.868	868.4	congruent	Block2	congruent/STIM_021.jpg	100
2142.868	0.678	678.5	congruent	Block2	congruent/STIM_021.jpg	99
2146.026	0.806	805.5	congruent	Block2	congruent/STIM_021.jpg	99
2149.966	0.518	518.0	congruent	Block2	congruent/STIM_022.jpg	99
2154.227	0.512	512.0	congruent	Block2	congruent/STIM_022.jpg	100
2158.586	0.521	521.1	congruent	Block2	congruent/STIM_022.jpg	99
2162.481	0.677	676.8	congruent	Block2	congruent/STIM_022.jpg	100
2166.176	0.657	657.0	congruent	Block2	congruent/STIM_022.jpg	100
2169.585	0.622	621.6	congruent	Block2	congruent/STIM_023.jpg	100
2173.628	0.792	791.6	congruent	Block2	congruent/STIM_023.jpg	100
2177.797	0.492	492.4	congruent	Block2	congruent/STIM_023.jpg	99
2180.443	0.647	647.0	congruent	Block2	congruent/STIM_023.jpg	99
2184.695	0.524	524.0	congruent	Block2	congruent/STIM_023.jpg	100
2188.786	0.631	630.6	congruent	Block2	congruent/STIM_024.jpg	99
2191.939	0.762	762.1	congruent	Block2	congruent/STIM_024.jpg	99
2196.218	0.827	827.4	congruent	Block2	congruent/STIM_024.jpg	99
2200.558	0.527	527.2	congruent	Block2	congruent/STIM_024.jpg	99
2204.353	0.562	562.5	congruent	Block2	congruent/STIM_024.jpg	99
2207.533	0.541	540.7	congruent	Block2	congruent/STIM_025.jpg	100
2210.337	0.677	676.7	congruent	Block2	congruent/STIM_025.jpg	99
2214.151	0.589	588.8	congruent	Block2	congruent/STIM_025.jpg	100
2218.038	0.562	561.8	congruent	Block2	congruent/STIM_025.jpg	99
2220.736	0.761	761.1	congruent	Block2	congruent/STIM_025.jpg	100
2224.424	0.775	775.4	congruent	Block2	congruent/STIM_026.jpg	100
2227.563	0.485	484.6	congruent	Block2	congruent/STIM_026.jpg	99
2231.001	0.684	683.5	congruent	Block2	congruent/STIM_026.jpg	100
2234.76	0.534	533.9	congruent	Block2	congruent/STIM_026.jpg	100
2238.099	0.527	527.1	congruent	Block2	congruent/STIM_026.jpg	100
2241.223	0.518	518.0	congruent	Block2	congruent/STIM_027.jpg	99
2244.519	0.724	723.7	congruent	Block2	congruent/STIM_027.jpg	99
2248.636	0.484	484.0	congruent	Block2	congruent/STIM_027.jpg	100
2251.87	0.696	696.0	congruent	Block2	congruent/STIM_027.jpg	99
2255.741	0.855	854.8	congruent	Block2	congruent/STIM_027.jpg	99
2258.667	0.563	563.3	congruent	Block2	congruent/STIM_028.jpg	99
2262.436	0.535	534.6	congruent	Block2	congruent/STIM_028.jpg	100
2265.405	0.649	649.3	congruent	Block2	congruent/STIM_028.jpg	100
2268.771	0.521	521.3	congruent	Block2	congruent/STIM_028.jpg	99
2272.223	0.662	661.5	congruent	Block2	congruent/STIM_028.jpg	99
2274.945	0.651	651.2	congruent	Block2	congruent/STIM_029.jpg	100
2277.822	0.862	862.2	congruent	Block2	congruent/STIM_029.jpg	100
2281.558	0.751	750.7	congruent	Block2	congruent/STIM_029.jpg	99
2285.328	0.764	763.7	congruent	Block2	congruent/STIM_029.jpg	100
2289.451	0.532	531.8	congruent	Block2	congruent/STIM_029.jpg	100
2292.006	0.958	958.5	incongruent	Block3	incongruent/STIM_000.jpg	99
2296.036	0.59	589.6	incongruent	Block3	incongruent/STIM_000.jpg	100
2299.637	0.814	814.5	incongruent	Block3	incongruent/STIM_000.jpg	100
2303.173	0.563	562.8	incongruent	Block3	incongruent/STIM_000.jpg	100
2307.05	0.896	896.1	incongruent	Block3	incongruent/STIM_000.jpg	99
2311.602	0.754	753.9	incongruent	Block3	incongruent/STIM_001.jpg	100
2315.831	0.964	963.6	incongruent	Block3	incongruent/STIM_001.jpg	100
2320.056	0.835	835.2	incongruent	Block3	incongruent/STIM_001.jpg	99
2323.635	0.612	612.1	incongruent	Block3	incongruent/STIM_001.jpg	100
2326.498	0.819	818.9	incongruent	Block3	incongruent/STIM_001.jpg	99
2331.151	0.584	583.6	incongruent	Block3	incongruent/STIM_002.jpg	99
2334.636	0.639	639.2	incongruent	Block3	incongruent/STIM_002.jpg	100
2338.078	0.849	849.2	incongruent	Block3	incongruent/STIM_002.jpg	100
2341.681	0.56	560.4	incongruent	Block3	incongruent/STIM_002.jpg	100
2346.079	0.94	940.1	incongruent	Block3	incongruent/STIM_002.jpg	100
2350.358	0.504	503.6	incongruent	Block3	incongruent/STIM_003.jpg	100
2353.047	0.825	825.1	incongruent	Block3	incongruent/STIM_003.jpg	100
2355.999	0.722	721.8	incongruent	Block3	incongruent/STIM_003.jpg	99
2359.01	0.936	935.8	incongruent	Block3	incongruent/STIM_003.jpg	99
2362.303	0.771	771.1	incongruent	Block3	incongruent/STIM_003.jpg	100
2365.853	0.848	848.3	incongruent	Block3	incongruent/STIM_004.jpg	99
2369.217	0.874	874.4	incongruent	Block3	incongruent/STIM_004.jpg	99
2373.106	0.53	529.7	incongruent	Block3	incongruent/STIM_004.jpg	100
2376.714	0.943	943.0	incongruent	Block3	incongruent/STIM_004.jpg	100
2381.176	0.51	510.0	incongruent	Block3	incongruent/STIM_004.jpg	99
2383.805	1.009	1009.3	incongruent	Block3	incongruent/STIM_005.jpg	100
2388.521	0.57	569.7	incongruent	Block3	incongruent/STIM_005.jpg	99
2391.161	0.881	880.8	incongruent	Block3	incongruent/STIM_005.jpg	99
2395.4	0.56	560.5	incongruent	Block3	incongruent/STIM_005.jpg	99
2398.933	0.551	551.4	incongruent	Block3	incongruent/STIM_005.jpg	99
2402.183	0.899	898.9	incongruent	Block3	incongruent/STIM_006.jpg	100
2405.85	0.743	742.6	incongruent	Block3	incongruent/STIM_006.jpg	99
2409.417	0.683	683.2	incongruent	Block3	incongruent/STIM_006.jpg	100
2413.255	0.742	741.8	incongruent	Block3	incongruent/STIM_006.jpg	99
2417.249	0.675	675.1	incongruent	Block3	incongruent/STIM_006.jpg	99
2420.498	0.479	479.2	incongruent	Block3	incongruent/STIM_007.jpg	100
2424.451	0.99	990.2	incongruent	Block3	incongruent/STIM_007.jpg	99
2429.195	0.605	605.4	incongruent	Block3	incongruent/STIM_007.jpg	100
2432.926	0.79	790.0	incongruent	Block3	incongruent/STIM_007.jpg	100
2436.605	0.524	523.6	incongruent	Block3	incongruent/STIM_007.jpg	99
2439.769	0.678	678.1	incongruent	Block3	incongruent/STIM_008.jpg	99
2443.472	0.886	886.2	incongruent	Block3	incongruent/STIM_008.jpg	100
2447.763	0.579	578.6	incongruent	Block3	incongruent/STIM_008.jpg	99
2451.512	0.716	716.5	incongruent	Block3	incongruent/STIM_008.jpg	100
2454.545	0.802	801.9	incongruent	Block3	incongruent/STIM_008.jpg	100
2457.495	0.735	735.1	incongruent	Block3	incongruent/STIM_009.jpg	100
2461.284	0.994	993.9	incongruent	Block3	incongruent/STIM_009.jpg	99
2465.442	0.993	993.3	incongruent	Block3	incongruent/STIM_009.jpg	99
2470.38	0.774	773.6	incongruent	Block3	incongruent/STIM_009.jpg	100
2473.828	0.959	959.2	incongruent	Block3	incongruent/STIM_009.jpg	100
2478.175	0.864	863.7	incongruent	Block3	incongruent/STIM_010.jpg	99
2482.176	0.547	546.9	incongruent	Block3	incongruent/STIM_010.jpg	100
2485.864	0.55	550.0	incongruent	Block3	incongruent/STIM_010.jpg	100
2489.464	0.552	551.6	incongruent	Block3	incongruent/STIM_010.jpg	99
2492.273	0.901	901.4	incongruent	Block3	incongruent/STIM_010.jpg	100
2495.783	0.611	610.8	incongruent	Block3	incongruent/STIM_011.jpg	99
2500.315	0.616	615.5	incongruent	Block3	incongruent/STIM_011.jpg	100
2504.124	0.508	508.3	incongruent	Block3	incongruent/STIM_011.jpg	99
2507.33	0.905	904.9	incongruent	Block3	incongruent/STIM_011.jpg	100
2511.087	0.574	573.9	incongruent	Block3	incongruent/STIM_011.jpg	100
2514.518	0.514	514.4	incongruent	Block3	incongruent/STIM_012.jpg	99
2518.933	0.666	666.1	incongruent	Block3	incongruent/STIM_012.jpg	100
2522.797	0.895	895.0	incongruent	Block3	incongruent/STIM_012.jpg	99
2527.52	0.795	794.9	incongruent	Block3	incongruent/STIM_012.jpg	99
2530.893	0.635	634.9	incongruent	Block3	incongruent/STIM_012.jpg	100
2533.966	0.509	509.4	incongruent	Block3	incongruent/STIM_013.jpg	100
2537.586	0.751	751.1	incongruent	Block3	incongruent/STIM_013.jpg	100
2541.795	0.56	559.6	incongruent	Block3	incongruent/STIM_013.jpg	99
2544.937	0.837	837.4	incongruent	Block3	incongruent/STIM_013.jpg	99
2549.295	0.675	674.6	incongruent	Block3	incongruent/STIM_013.jpg	99
2553.066	0.941	940.9	incongruent	Block3	incongruent/STIM_014.jpg	100
2556.163	0.74	740.0	incongruent	Block3	incongruent/STIM_014.jpg	100
2560.163	0.521	521.2	incongruent	Block3	incongruent/STIM_014.jpg	99
2564.616	0.557	557.4	incongruent	Block3	incongruent/STIM_014.jpg	99
2569.017	0.994	993.6	incongruent	Block3	incongruent/STIM_014.jpg	99
2573.97	0.668	667.6	incongruent	Block3	incongruent/STIM_015.jpg	99
2577.507	0.506	506.5	incongruent	Block3	incongruent/STIM_015.jpg	99
2580.556	0.777	776.6	incongruent	Block3	incongruent/STIM_015.jpg	100
2583.817	0.584	583.5	incongruent	Block3	incongruent/STIM_015.jpg	99
2587.897	0.878	877.7	incongruent	Block3	incongruent/STIM_015.jpg	99
2592.37	0.874	874.2	incongruent	Block3	incongruent/STIM_016.jpg	99
2596.356	0.499	499.1	incongruent	Block3	incongruent/STIM_016.jpg	99
2599.291	0.631	630.8	incongruent	Block3	incongruent/STIM_016.jpg	99
2603.282	0.81	810.4	incongruent	Block3	incongruent/STIM_016.jpg	100
2606.321	0.725	725.2	incongruent	Block3	incongruent/STIM_016.jpg	99
2609.197	0.576	576.5	incongruent	Block3	incongruent/STIM_017.jpg	99
2612.772	0.898	897.7	incongruent	Block3	incongruent/STIM_017.jpg	99
2616.002	0.775	775.3	incongruent	Block3	incongruent/STIM_017.jpg	100
2619.831	0.883	883.2	incongruent	Block3	incongruent/STIM_017.jpg	99
2622.973	0.703	703.4	incongruent	Block3	incongruent/STIM_017.jpg	100
2626.139	0.98	979.5	incongruent	Block3	incongruent/STIM_018.jpg	100
2630.817	0.947	946.8	incongruent	Block3	incongruent/STIM_018.jpg	99
2634.989	0.966	966.5	incongruent	Block3	incongruent/STIM_018.jpg	100
2639.289	0.797	796.7	incongruent	Block3	incongruent/STIM_018.jpg	99
2643.125	0.602	602.0	incongruent	Block3	incongruent/STIM_018.jpg	100
2646.363	0.673	672.9	incongruent	Block3	incongruent/STIM_019.jpg	100
2650.654	0.534	534.1	incongruent	Block3	incongruent/STIM_019.jpg	100
2654.769	0.652	652.2	incongruent	Block3	incongruent/STIM_019.jpg	99
2658.861	0.835	835.3	incongruent	Block3	incongruent/STIM_019.jpg	99
2662.671	0.885	884.6	incongruent	Block3	incongruent/STIM_019.jpg	100
2667.367	0.731	730.6	incongruent	Block3	incongruent/STIM_020.jpg	99
2670.54	0.535	534.7	incongruent	Block3	incongruent/STIM_020.jpg	99
2673.922	0.93	929.7	incongruent	Block3	incongruent/STIM_020.jpg	100
2678.767	0.812	812.1	incongruent	Block3	incongruent/STIM_020.jpg	100
2683.445	0.99	989.7	incongruent	Block3	incongruent/STIM_020.jpg	100
2687.032	0.477	477.2	incongruent	Block3	incongruent/STIM_021.jpg	100
2690.299	0.739	739.3	incongruent	Block3	incongruent/STIM_021.jpg	100
2694.221	0.5	500.0	incongruent	Block3	incongruent/STIM_021.jpg	100
2696.853	0.552	551.8	incongruent	Block3	incongruent/STIM_021.jpg	99
2701.089	0.673	673.4	incongruent	Block3	incongruent/STIM_021.jpg	100
2703.932	0.478	477.7	incongruent	Block3	incongruent/STIM_022.jpg	99
2706.825	0.921	921.3	incongruent	Block3	incongruent/STIM_022.jpg	99
2711.678	0.848	848.3	incongruent	Block3	incongruent/STIM_022.jpg	99
2715.204	0.704	704.0	incongruent	Block3	incongruent/STIM_022.jpg	100
2719.71	0.893	892.8	incongruent	Block3	incongruent/STIM_022.jpg	100
2724.609	0.758	757.8	incongruent	Block3	incongruent/STIM_023.jpg	99
2727.991	0.524	524.4	incongruent	Block3	incongruent/STIM_023.jpg	100
2730.914	0.54	539.9	incongruent	Block3	incongruent/STIM_023.jpg	99
2735.381	0.664	664.1	incongruent	Block3	incongruent/STIM_023.jpg	100
2739.991	0.585	585.0	incongruent	Block3	incongruent/STIM_023.jpg	100
2744.196	0.539	539.2	incongruent	Block3	incongruent/STIM_024.jpg	99
2746.884	0.76	759.8	incongruent	Block3	incongruent/STIM_024.jpg	99
2750.274	0.742	741.5	incongruent	Block3	incongruent/STIM_024.jpg	100
2754.533	0.788	787.7	incongruent	Block3	incongruent/STIM_024.jpg	99
2757.879	0.632	632.1	incongruent	Block3	incongruent/STIM_024.jpg	100
2760.657	0.563	562.7	incongruent	Block3	incongruent/STIM_025.jpg	100
2763.467	0.895	894.8	incongruent	Block3	incongruent/STIM_025.jpg	99
2768.068	0.587	586.6	incongruent	Block3	incongruent/STIM_025.jpg	100
2771.774	0.63	629.9	incongruent	Block3	incongruent/STIM_025.jpg	100
2775.421	0.969	969.1	incongruent	Block3	incongruent/STIM_025.jpg	100
2779.671	0.672	672.2	incongruent	Block3	incongruent/STIM_026.jpg	100
2782.382	0.554	554.2	incongruent	Block3	incongruent/STIM_026.jpg	99
2785.957	0.692	692.2	incongruent	Block3	incongruent/STIM_026.jpg	100
2788.878	0.874	874.5	incongruent	Block3	incongruent/STIM_026.jpg	100
2793.292	0.955	954.7	incongruent	Block3	incongruent/STIM_026.jpg	100
2797.0	0.899	898.8	incongruent	Block3	incongruent/STIM_027.jpg	100
2800.751	0.483	482.7	incongruent	Block3	incongruent/STIM_027.jpg	100
2804.067	0.773	772.9	incongruent	Block3	incongruent/STIM_027.jpg	100
2808.098	0.799	798.6	incongruent	Block3	incongruent/STIM_027.jpg	99
2811.752	0.537	536.9	incongruent	Block3	incongruent/STIM_027.jpg	100
2814.542	0.542	541.9	incongruent	Block3	incongruent/STIM_028.jpg	99
2817.683	0.726	726.3	incongruent	Block3	incongruent/STIM_028.jpg	99
2821.042	0.696	696.1	incongruent	Block3	incongruent/STIM_028.jpg	99
2823.981	0.647	646.9	incongruent	Block3	incongruent/STIM_028.jpg	100
2828.203	0.573	573.1	incongruent	Block3	incongruent/STIM_028.jpg	100
2831.467	0.986	986.0	incongruent	Block3	incongruent/STIM_029.jpg	100
2835.97	0.534	534.0	incongruent	Block3	incongruent/STIM_029.jpg	99
2838.885	0.642	641.5	incongruent	Block3	incongruent/STIM_029.jpg	99
2842.805	0.849	849.4	incongruent	Block3	incongruent/STIM_029.jpg	99
2845.872	0.933	932.7	incongruent	Block3	incongruent/STIM_029.jpg	100
2850.148	0.798	797.8	congruent	Block3	congruent/STIM_000.jpg	100
2854.935	0.554	554.0	congruent	Block3	congruent/STIM_000.jpg	99
2858.582	0.722	721.6	congruent	Block3	congruent/STIM_000.jpg	100
2861.658	0.665	665.4	congruent	Block3	congruent/STIM_000.jpg	99
2864.941	0.666	666.1	congruent	Block3	congruent/STIM_000.jpg	99
2869.18	0.696	696.4	congruent	Block3	congruent/STIM_001.jpg	100
2873.456	0.803	802.8	congruent	Block3	congruent/STIM_001.jpg	100
2877.692	0.574	574.2	congruent	Block3	congruent/STIM_001.jpg	100
2881.164	0.778	778.3	congruent	Block3	congruent/STIM_001.jpg	100
2885.455	0.758	758.0	congruent	Block3	congruent/STIM_001.jpg	100
2889.533	0.619	618.9	congruent	Block3	congruent/STIM_002.jpg	99
2894.164	0.678	677.7	congruent	Block3	congruent/STIM_002.jpg	99
2898.503	0.489	488.9	congruent	Block3	congruent/STIM_002.jpg	100
2901.873	0.741	740.7	congruent	Block3	congruent/STIM_002.jpg	100
2904.974	0.574	573.8	congruent	Block3	congruent/STIM_002.jpg	99
2908.32	0.858	857.5	congruent	Block3	congruent/STIM_003.jpg	100
2911.745	0.798	798.2	congruent	Block3	congruent/STIM_003.jpg	99
2916.324	0.746	746.0	congruent	Block3	congruent/STIM_003.jpg	99
2920.648	0.693	692.7	congruent	Block3	congruent/STIM_003.jpg	99
2925.003	0.72	720.3	congruent	Block3	congruent/STIM_003.jpg	99
2928.605	0.698	698.2	congruent	Block3	congruent/STIM_004.jpg	99
2933.037	0.729	729.2	congruent	Block3	congruent/STIM_004.jpg	100
2936.313	0.664	663.9	congruent	Block3	congruent/STIM_004.jpg	100
2939.459	0.714	714.1	congruent	Block3	congruent/STIM_004.jpg	99
2943.986	0.611	610.7	congruent	Block3	congruent/STIM_004.jpg	100
2947.182	0.772	772.5	congruent	Block3	congruent/STIM_005.jpg	99
2951.506	0.582	582.3	congruent	Block3	congruent/STIM_005.jpg	99
2954.955	0.676	676.2	congruent	Block3	congruent/STIM_005.jpg	100
2958.588	0.631	631.4	congruent	Block3	congruent/STIM_005.jpg	100
2962.684	0.522	522.2	congruent	Block3	congruent/STIM_005.jpg	100
2967.049	0.562	561.8	congruent	Block3	congruent/STIM_006.jpg	100
2971.005	0.644	643.9	congruent	Block3	congruent/STIM_006.jpg	99
2975.575	0.51	509.6	congruent	Block3	congruent/STIM_006.jpg	100
2978.424	0.788	787.7	congruent	Block3	congruent/STIM_006.jpg	100
2982.333	0.814	814.1	congruent	Block3	congruent/STIM_006.jpg	99
2985.735	0.805	804.7	congruent	Block3	congruent/STIM_007.jpg	99
2990.371	0.519	519.4	congruent	Block3	congruent/STIM_007.jpg	99
2994.306	0.85	850.0	congruent	Block3	congruent/STIM_007.jpg	100
2997.982	0.605	605.3	congruent	Block3	congruent/STIM_007.jpg	100
3002.191	0.69	689.7	congruent	Block3	congruent/STIM_007.jpg	99
3005.056	0.69	690.3	congruent	Block3	congruent/STIM_008.jpg	99
3009.595	0.492	491.6	congruent	Block3	congruent/STIM_008.jpg	99
3013.061	0.79	789.8	congruent	Block3	congruent/STIM_008.jpg	99
3016.04	0.752	751.8	congruent	Block3	congruent/STIM_008.jpg	100
3019.573	0.69	689.6	congruent	Block3	congruent/STIM_008.jpg	99
3023.624	0.687	686.9	congruent	Block3	congruent/STIM_009.jpg	99
3026.53	0.858	858.0	congruent	Block3	congruent/STIM_009.jpg	99
3030.292	0.703	703.4	congruent	Block3	congruent/STIM_009.jpg	99
3034.573	0.604	604.0	congruent	Block3	congruent/STIM_009.jpg	100
3038.12	0.592	591.9	congruent	Block3	congruent/STIM_009.jpg	100
3042.548	0.845	844.8	congruent	Block3	congruent/STIM_010.jpg	99
3045.872	0.67	670.1	congruent	Block3	congruent/STIM_010.jpg	99
3049.57	0.805	804.7	congruent	Block3	congruent/STIM_010.jpg	99
3053.056	0.534	534.1	congruent	Block3	congruent/STIM_010.jpg	100
3057.153	0.651	650.9	congruent	Block3	congruent/STIM_010.jpg	99
3060.102	0.553	553.3	congruent	Block3	congruent/STIM_011.jpg	100
3064.344	0.722	721.9	congruent	Block3	congruent/STIM_011.jpg	100
3068.596	0.769	769.0	congruent	Block3	congruent/STIM_011.jpg	100
3072.689	0.603	602.6	congruent	Block3	congruent/STIM_011.jpg	100
3076.607	0.855	854.7	congruent	Block3	congruent/STIM_011.jpg	100
3081.49	0.699	698.7	congruent	Block3	congruent/STIM_012.jpg	100
3086.114	0.777	777.4	congruent	Block3	congruent/STIM_012.jpg	99
3090.856	0.494	493.6	congruent	Block3	congruent/STIM_012.jpg	99
3094.347	0.548	548.4	congruent	Block3	congruent/STIM_012.jpg	100
3098.329	0.57	569.8	congruent	Block3	congruent/STIM_012.jpg	100
3101.845	0.488	488.2	congruent	Block3	congruent/STIM_013.jpg	99
3106.295	0.767	767.0	congruent	Block3	congruent/STIM_013.jpg	99
3109.397	0.657	657.2	congruent	Block3	congruent/STIM_013.jpg	100
3113.059	0.868	867.6	congruent	Block3	congruent/STIM_013.jpg	99
3117.696	0.729	728.7	congruent	Block3	congruent/STIM_013.jpg	100
3120.973	0.6	599.7	congruent	Block3	congruent/STIM_014.jpg	100
3124.49	0.846	846.1	congruent	Block3	congruent/STIM_014.jpg	99
3127.463	0.659	658.7	congruent	Block3	congruent/STIM_014.jpg	100
3131.351	0.542	541.7	congruent	Block3	congruent/STIM_014.jpg	100
3135.246	0.832	831.6	congruent	Block3	congruent/STIM_014.jpg	100
3138.569	0.729	728.7	congruent	Block3	congruent/STIM_015.jpg	100
3142.03	0.511	511.0	congruent	Block3	congruent/STIM_015.jpg	99
3146.399	0.752	752.5	congruent	Block3	congruent/STIM_015.jpg	99
3150.946	0.584	583.5	congruent	Block3	congruent/STIM_015.jpg	99
3154.115	0.518	518.3	congruent	Block3	congruent/STIM_015.jpg	100
3157.481	0.553	552.7	congruent	Block3	congruent/STIM_016.jpg	99
3161.748	0.603	603.0	congruent	Block3	congruent/STIM_016.jpg	100
3165.077	0.84	840.4	congruent	Block3	congruent/STIM_016.jpg	99
3169.808	0.621	621.3	congruent	Block3	congruent/STIM_016.jpg	100
3172.602	0.605	605.4	congruent	Block3	congruent/STIM_016.jpg	99
3176.55	0.494	494.4	congruent	Block3	congruent/STIM_017.jpg	100
3180.287	0.583	583.1	congruent	Block3	congruent/STIM_017.jpg	99
3183.939	0.566	565.7	congruent	Block3	congruent/STIM_017.jpg	100
3186.939	0.847	846.8	congruent	Block3	congruent/STIM_017.jpg	100
3189.967	0.558	557.7	congruent	Block3	congruent/STIM_017.jpg	100
3194.318	0.806	805.5	congruent	Block3	congruent/STIM_018.jpg	99
3197.183	0.711	710.9	congruent	Block3	congruent/STIM_018.jpg	99
3200.615	0.723	722.7	congruent	Block3	congruent/STIM_018.jpg	100
3204.553	0.837	836.8	congruent	Block3	congruent/STIM_018.jpg	100
3207.593	0.705	705.2	congruent	Block3	congruent/STIM_018.jpg	100
3212.231	0.486	485.9	congruent	Block3	congruent/STIM_019.jpg	100
3214.949	0.687	686.8	congruent	Block3	congruent/STIM_019.jpg	99
3217.682	0.747	746.6	congruent	Block3	congruent/STIM_019.jpg	99
3222.389	0.716	716.0	congruent	Block3	congruent/STIM_019.jpg	100
3225.15	0.755	754.8	congruent	Block3	congruent/STIM_019.jpg	100
3229.016	0.751	751.1	congruent	Block3	congruent/STIM_020.jpg	100
3231.958	0.719	718.7	congruent	Block3	congruent/STIM_020.jpg	100
3235.549	0.695	695.2	congruent	Block3	congruent/STIM_020.jpg	100
3239.962	0.638	638.1	congruent	Block3	congruent/STIM_020.jpg	99
3244.064	0.837	836.9	congruent	Block3	congruent/STIM_020.jpg	100
3248.562	0.732	731.5	congruent	Block3	congruent/STIM_021.jpg	100
3252.55	0.85	850.4	congruent	Block3	congruent/STIM_021.jpg	100
3256.094	0.608	607.7	congruent	Block3	congruent/STIM_021.jpg	100
3259.876	0.789	789.3	congruent	Block3	congruent/STIM_021.jpg	99
3263.242	0.701	700.6	congruent	Block3	congruent/STIM_021.jpg	100
3267.931	0.862	862.4	congruent	Block3	congruent/STIM_022.jpg	99
3271.864	0.664	664.2	congruent	Block3	congruent/STIM_022.jpg	100
3275.637	0.517	516.8	congruent	Block3	congruent/STIM_022.jpg	99
3278.518	0.823	823.1	congruent	Block3	congruent/STIM_022.jpg	99
3282.901	0.514	514.2	congruent	Block3	congruent/STIM_022.jpg	100
3286.11	0.775	774.7	congruent	Block3	congruent/STIM_023.jpg	100
3289.236	0.621	621.4	congruent	Block3	congruent/STIM_023.jpg	100
3293.555	0.776	775.6	congruent	Block3	congruent/STIM_023.jpg	100
3297.333	0.74	740.4	congruent	Block3	congruent/STIM_023.jpg	99
3301.113	0.75	750.1	congruent	Block3	congruent/STIM_023.jpg	99
3304.871	0.658	657.6	congruent	Block3	congruent/STIM_024.jpg	100
3308.187	0.583	582.7	congruent	Block3	congruent/STIM_024.jpg	100
3312.242	0.81	810.2	congruent	Block3	congruent/STIM_024.jpg	100
3316.502	0.772	771.9	congruent	Block3	congruent/STIM_024.jpg	100
3320.993	0.747	747.4	congruent	Block3	congruent/STIM_024.jpg	99
3324.959	0.723	722.6	congruent	Block3	congruent/STIM_025.jpg	99
3329.212	0.584	583.7	congruent	Block3	congruent/STIM_025.jpg	100
3333.233	0.552	551.8	congruent	Block3	congruent/STIM_025.jpg	100
3337.476	0.567	567.0	congruent	Block3	congruent/STIM_025.jpg	99
3340.745	0.816	816.0	congruent	Block3	congruent/STIM_025.jpg	99
3344.071	0.759	759.3	congruent	Block3	congruent/STIM_026.jpg	100
3346.96	0.833	833.0	congruent	Block3	congruent/STIM_026.jpg	100
3350.651	0.676	676.0	congruent	Block3	congruent/STIM_026.jpg	99
3355.049	0.591	591.0	congruent	Block3	congruent/STIM_026.jpg	100
3358.702	0.623	622.6	congruent	Block3	congruent/STIM_026.jpg	99
3362.472	0.763	762.8	congruent	Block3	congruent/STIM_027.jpg	100
3367.079	0.759	758.9	congruent	Block3	congruent/STIM_027.jpg	100
3371.451	0.602	602.5	congruent	Block3	congruent/STIM_027.jpg	100
3375.801	0.695	694.9	congruent	Block3	congruent/STIM_027.jpg	99
3380.002	0.636	635.5	congruent	Block3	congruent/STIM_027.jpg	100
3384.652	0.51	509.6	congruent	Block3	congruent/STIM_028.jpg	100
3387.524	0.811	810.8	congruent	Block3	congruent/STIM_028.jpg	100
3390.885	0.67	669.7	congruent	Block3	congruent/STIM_028.jpg	99
3394.519	0.774	773.6	congruent	Block3	congruent/STIM_028.jpg	99
3398.478	0.532	531.8	congruent	Block3	congruent/STIM_028.jpg	100
3402.865	0.718	717.6	congruent	Block3	congruent/STIM_029.jpg	99
3407.284	0.538	538.0	congruent	Block3	congruent/STIM_029.jpg	100
3411.297	0.66	660.0	congruent	Block3	congruent/STIM_029.jpg	100
3415.39	0.762	761.9	congruent	Block3	congruent/STIM_029.jpg	99
3419.689	0.694	694.5	congruent	Block3	congruent/STIM_029.jpg	99
