onset	duration	response_time_ms	trial_type	learning_stage	stimulus	response_port
0.0	1.459	1458.6	2back	Block1	2back/STIM_000.jpg	99
3.551	0.936	936.4	2back	Block1	2back/STIM_000.jpg	100
7.7	1.202	1201.8	2back	Block1	2back/STIM_000.jpg	99
11.972	1.276	1276.2	2back	Block1	2back/STIM_001.jpg	99
16.982	1.378	1378.2	2back	Block1	2back/STIM_001.jpg	99
20.804	1.628	1628.2	2back	Block1	2back/STIM_001.jpg	99
25.756	1.34	1340.5	2back	Block1	2back/STIM_002.jpg	99
29.829	1.212	1212.3	2back	Block1	2back/STIM_002.jpg	100
34.94	1.421	1420.9	2back	Block1	2back/STIM_002.jpg	99
39.856	1.262	1262.0	2back	Block1	2back/STIM_003.jpg	100
43.303	1.125	1124.7	2back	Block1	2back/STIM_003.jpg	99
47.222	1.304	1304.3	2back	Block1	2back/STIM_003.jpg	99
50.812	1.639	1638.9	2back	Block1	2back/STIM_004.jpg	100
54.714	0.799	799.0	2back	Block1	2back/STIM_004.jpg	100
58.922	1.156	1156.2	2back	Block1	2back/STIM_004.jpg	100
63.975	0.93	929.7	2back	Block1	2back/STIM_005.jpg	99
68.19	1.41	1410.0	2back	Block1	2back/STIM_005.jpg	99
72.973	1.253	1253.2	2back	Block1	2back/STIM_005.jpg	100
76.629	0.961	960.7	2back	Block1	2back/STIM_006.jpg	100
80.616	1.421	1420.9	2back	Block1	2back/STIM_006.jpg	99
84.698	0.982	981.8	2back	Block1	2back/STIM_006.jpg	100
88.413	0.923	922.9	2back	Block1	2back/STIM_007.jpg	100
92.645	1.693	1693.2	2back	Block1	2back/STIM_007.jpg	99
97.549	0.848	848.5	2back	Block1	2back/STIM_007.jpg	99
101.167	1.794	1794.5	2back	Block1	2back/STIM_008.jpg	100
106.27	0.895	895.3	2back	Block1	2back/STIM_008.jpg	99
109.168	1.291	1291.3	2back	Block1	2back/STIM_008.jpg	99
112.994	1.712	1712.4	2back	Block1	2back/STIM_009.jpg	100
116.852	1.087	1087.1	2back	Block1	2back/STIM_009.jpg	99
121.719	0.732	732.1	2back	Block1	2back/STIM_009.jpg	99
125.917	1.506	1505.9	2back	Block1	2back/STIM_010.jpg	99
130.912	1.315	1315.3	2back	Block1	2back/STIM_010.jpg	100
135.538	1.2	1199.8	2back	Block1	2back/STIM_010.jpg	100
139.662	1.174	1173.9	2back	Block1	2back/STIM_011.jpg	99
144.487	1.282	1281.8	2back	Block1	2back/STIM_011.jpg	100
148.212	1.589	1588.9	2back	Block1	2back/STIM_011.jpg	100
152.543	1.699	1698.6	2back	Block1	2back/STIM_012.jpg	99
156.748	1.488	1488.4	2back	Block1	2back/STIM_012.jpg	100
162.089	1.317	1317.0	2back	Block1	2back/STIM_012.jpg	99
166.558	0.919	918.6	2back	Block1	2back/STIM_013.jpg	99
171.353	1.188	1187.9	2back	Block1	2back/STIM_013.jpg	99
175.719	1.212	1211.9	2back	Block1	2back/STIM_013.jpg	100
179.13	1.317	1316.8	2back	Block1	2back/STIM_014.jpg	99
183.859	1.201	1201.1	2back	Block1	2back/STIM_014.jpg	100
188.798	0.873	873.2	2back	Block1	2back/STIM_014.jpg	100
192.113	1.249	1249.3	2back	Block1	2back/STIM_015.jpg	100
196.197	1.32	1319.5	2back	Block1	2back/STIM_015.jpg	99
200.879	1.253	1252.7	2back	Block1	2back/STIM_015.jpg	100
204.857	1.377	1376.8	2back	Block1	2back/STIM_016.jpg	99
209.298	0.838	838.1	2back	Block1	2back/STIM_016.jpg	100
212.55	0.881	881.2	2back	Block1	2back/STIM_016.jpg	99
217.329	1.132	1132.1	2back	Block1	2back/STIM_017.jpg	99
220.536	1.075	1075.3	2back	Block1	2back/STIM_017.jpg	99
224.275	1.61	1609.5	2back	Block1	2back/STIM_017.jpg	99
229.371	1.748	1747.9	2back	Block1	2back/STIM_018.jpg	99
233.25	1.308	1308.3	2back	Block1	2back/STIM_018.jpg	100
236.994	1.538	1537.8	2back	Block1	2back/STIM_018.jpg	100
240.971	0.815	814.7	2back	Block1	2back/STIM_019.jpg	99
244.914	1.155	1155.4	2back	Block1	2back/STIM_019.jpg	99
248.468	1.583	1582.6	2back	Block1	2back/STIM_019.jpg	99
253.367	1.203	1203.1	2back	Block1	2back/STIM_020.jpg	100
256.748	1.037	1037.1	2back	Block1	2back/STIM_020.jpg	100
261.225	1.148	1148.3	2back	Block1	2back/STIM_020.jpg	100
265.249	1.48	1480.2	2back	Block1	2back/STIM_021.jpg	100
269.844	1.179	1179.2	2back	Block1	2back/STIM_021.jpg	99
273.069	1.186	1186.1	2back	Block1	2back/STIM_021.jpg	99
277.171	1.482	1482.3	2back	Block1	2back/STIM_022.jpg	100
282.199	0.81	809.9	2back	Block1	2back/STIM_022.jpg	100
286.341	1.62	1620.1	2back	Block1	2back/STIM_022.jpg	99
291.258	1.451	1451.3	2back	Block1	2back/STIM_023.jpg	99
295.171	1.04	1039.6	2back	Block1	2back/STIM_023.jpg	100
299.127	1.52	1520.2	2back	Block1	2back/STIM_023.jpg	99
302.732	1.134	1134.3	2back	Block1	2back/STIM_024.jpg	100
306.084	1.427	1427.3	2back	Block1	2back/STIM_024.jpg	99
309.686	1.573	1573.3	2back	Block1	2back/STIM_024.jpg	99
314.44	1.328	1327.9	2back	Block1	2back/STIM_025.jpg	100
318.965	1.328	1327.9	2back	Block1	2back/STIM_025.jpg	99
322.352	1.015	1014.7	2back	Block1	2back/STIM_025.jpg	99
326.645	1.684	1683.5	2back	Block1	2back/STIM_026.jpg	100
330.789	1.416	1415.9	2back	Block1	2back/STIM_026.jpg	99
336.188	1.423	1422.7	2back	Block1	2back/STIM_026.jpg	100
340.611	1.032	1031.7	2back	Block1	2back/STIM_027.jpg	100
344.48	1.64	1639.6	2back	Block1	2back/STIM_027.jpg	99
348.19	1.091	1091.0	2back	Block1	2back/STIM_027.jpg	100
352.507	0.898	897.5	2back	Block1	2back/STIM_028.jpg	99
355.523	0.832	831.5	2back	Block1	2back/STIM_028.jpg	100
359.019	1.234	1233.8	2back	Block1	2back/STIM_028.jpg	100
363.321	0.838	838.4	2back	Block1	2back/STIM_029.jpg	99
367.938	0.8	800.5	2back	Block1	2back/STIM_029.jpg	99
371.651	0.7	700.5	2back	Block1	2back/STIM_029.jpg	99
375.261	1.249	1248.8	2back	Block1	2back/STIM_030.jpg	99
380.009	1.334	1334.0	2back	Block1	2back/STIM_030.jpg	99
384.511	1.462	1462.4	2back	Block1	2back/STIM_030.jpg	99
388.971	1.014	1013.5	2back	Block1	2back/STIM_031.jpg	99
393.581	1.36	1359.8	2back	Block1	2back/STIM_031.jpg	100
398.055	1.42	1420.3	2back	Block1	2back/STIM_031.jpg	100
402.096	1.537	1536.7	2back	Block1	2back/STIM_032.jpg	99
406.883	1.143	1143.2	2back	Block1	2back/STIM_032.jpg	99
411.582	0.775	774.8	2back	Block1	2back/STIM_032.jpg	99
414.512	1.282	1282.3	2back	Block1	2back/STIM_033.jpg	99
418.548	1.165	1164.8	2back	Block1	2back/STIM_033.jpg	99
422.578	1.185	1185.3	2back	Block1	2back/STIM_033.jpg	99
426.479	1.62	1620.2	2back	Block1	2back/STIM_034.jpg	100
430.491	1.502	1501.6	2back	Block1	2back/STIM_034.jpg	99
434.66	1.594	1594.2	2back	Block1	2back/STIM_034.jpg	100
439.252	0.937	937.3	2back	Block1	2back/STIM_035.jpg	100
443.794	1.271	1271.3	2back	Block1	2back/STIM_035.jpg	100
447.469	1.523	1523.2	2back	Block1	2back/STIM_035.jpg	99
452.332	1.064	1063.7	2back	Block1	2back/STIM_036.jpg	100
455.745	1.603	1603.3	2back	Block1	2back/STIM_036.jpg	100
460.779	1.039	1038.6	2back	Block1	2back/STIM_036.jpg	100
464.933	1.126	1125.5	2back	Block1	2back/STIM_037.jpg	100
468.878	0.902	901.9	2back	Block1	2back/STIM_037.jpg	99
473.776	1.622	1621.6	2back	Block1	2back/STIM_037.jpg	100
478.33	1.237	1237.0	2back	Block1	2back/STIM_038.jpg	100
482.164	1.519	1518.7	2back	Block1	2back/STIM_038.jpg	100
486.434	1.308	1307.7	2back	Block1	2back/STIM_038.jpg	100
490.625	1.323	1323.0	2back	Block1	2back/STIM_039.jpg	99
495.308	0.825	824.8	2back	Block1	2back/STIM_039.jpg	100
499.477	1.132	1131.7	2back	Block1	2back/STIM_039.jpg	100
503.298	0.995	995.0	0back	Block1	0back/STIM_000.jpg	99
506.696	0.938	937.7	0back	Block1	0back/STIM_000.jpg	100
511.164	0.636	635.6	0back	Block1	0back/STIM_000.jpg	99
515.37	0.525	525.1	0back	Block1	0back/STIM_001.jpg	99
519.861	0.819	818.9	0back	Block1	0back/STIM_001.jpg	100
523.52	0.956	956.3	0back	Block1	0back/STIM_001.jpg	99
527.968	0.863	863.4	0back	Block1	0back/STIM_002.jpg	100
532.677	0.624	623.7	0back	Block1	0back/STIM_002.jpg	99
535.301	0.71	710.4	0back	Block1	0back/STIM_002.jpg	100
538.998	1.019	1018.7	0back	Block1	0back/STIM_003.jpg	99
542.974	0.703	703.4	0back	Block1	0back/STIM_003.jpg	100
546.124	0.615	614.9	0back	Block1	0back/STIM_003.jpg	100
549.761	1.006	1005.5	0back	Block1	0back/STIM_004.jpg	99
553.164	0.965	965.3	0back	Block1	0back/STIM_004.jpg	99
556.915	0.897	897.1	0back	Block1	0back/STIM_004.jpg	100
561.215	0.717	717.1	0back	Block1	0back/STIM_005.jpg	100
564.196	0.894	894.5	0back	Block1	0back/STIM_005.jpg	99
569.043	0.887	886.7	0back	Block1	0back/STIM_005.jpg	99
573.073	0.649	648.7	0back	Block1	0back/STIM_006.jpg	99
577.531	0.519	519.1	0back	Block1	0back/STIM_006.jpg	99
581.028	0.549	548.7	0back	Block1	0back/STIM_006.jpg	99
584.433	0.585	585.4	0back	Block1	0back/STIM_007.jpg	100
588.313	0.778	778.5	0back	Block1	0back/STIM_007.jpg	99
591.19	0.582	582.0	0back	Block1	0back/STIM_007.jpg	99
594.578	0.738	738.5	0back	Block1	0back/STIM_008.jpg	100
598.65	1.036	1036.4	0back	Block1	0back/STIM_008.jpg	99
601.857	0.569	568.7	0back	Block1	0back/STIM_008.jpg	99
605.701	0.941	940.8	0back	Block1	0back/STIM_009.jpg	99
608.845	0.632	631.9	0back	Block1	0back/STIM_009.jpg	100
611.926	0.697	697.2	0back	Block1	0back/STIM_009.jpg	100
615.699	0.983	983.3	0back	Block1	0back/STIM_010.jpg	99
620.168	0.621	621.0	0back	Block1	0back/STIM_010.jpg	99
623.802	0.924	923.8	0back	Block1	0back/STIM_010.jpg	99
627.438	0.531	530.9	0back	Block1	0back/STIM_011.jpg	100
631.906	0.992	992.2	0back	Block1	0back/STIM_011.jpg	99
635.931	0.913	912.6	0back	Block1	0back/STIM_011.jpg	99
639.423	0.715	714.9	0back	Block1	0back/STIM_012.jpg	99
644.059	0.783	782.6	0back	Block1	0back/STIM_012.jpg	99
646.951	1.011	1010.9	0back	Block1	0back/STIM_012.jpg	99
651.727	0.684	684.5	0back	Block1	0back/STIM_013.jpg	100
656.192	0.751	751.4	0back	Block1	0back/STIM_013.jpg	100
660.261	0.562	562.3	0back	Block1	0back/STIM_013.jpg	99
664.092	0.716	715.8	0back	Block1	0back/STIM_014.jpg	99
668.584	0.981	980.9	0back	Block1	0back/STIM_014.jpg	99
671.59	0.979	979.2	0back	Block1	0back/STIM_014.jpg	99
675.493	0.929	929.0	0back	Block1	0back/STIM_015.jpg	100
678.845	0.728	728.1	0back	Block1	0back/STIM_015.jpg	99
683.234	0.88	879.5	0back	Block1	0back/STIM_015.jpg	100
686.71	0.663	663.4	0back	Block1	0back/STIM_016.jpg	100
690.097	0.658	657.6	0back	Block1	0back/STIM_016.jpg	99
694.416	0.804	804.3	0back	Block1	0back/STIM_016.jpg	99
697.322	0.685	684.6	0back	Block1	0back/STIM_017.jpg	100
700.817	0.587	587.2	0back	Block1	0back/STIM_017.jpg	99
704.186	0.584	584.3	0back	Block1	0back/STIM_017.jpg	100
708.171	0.866	866.1	0back	Block1	0back/STIM_018.jpg	99
712.542	0.724	724.2	0back	Block1	0back/STIM_018.jpg	100
715.961	0.72	719.9	0back	Block1	0back/STIM_018.jpg	100
719.381	0.899	899.2	0back	Block1	0back/STIM_019.jpg	99
724.049	0.838	837.6	0back	Block1	0back/STIM_019.jpg	100
726.953	0.897	897.1	0back	Block1	0back/STIM_019.jpg	100
730.978	0.921	921.0	2back	Block2	2back/STIM_000.jpg	99
735.317	1.196	1196.5	2back	Block2	2back/STIM_000.jpg	100
738.785	1.121	1121.1	2back	Block2	2back/STIM_000.jpg	99
742.836	0.922	922.2	2back	Block2	2back/STIM_001.jpg	100
746.764	0.748	748.0	2back	Block2	2back/STIM_001.jpg	100
750.057	0.804	804.4	2back	Block2	2back/STIM_001.jpg	99
753.445	1.521	1520.8	2back	Block2	2back/STIM_002.jpg	100
758.239	1.409	1408.8	2back	Block2	2back/STIM_002.jpg	99
763.222	1.072	1072.0	2back	Block2	2back/STIM_002.jpg	99
767.281	1.455	1455.3	2back	Block2	2back/STIM_003.jpg	100
771.254	1.22	1220.0	2back	Block2	2back/STIM_003.jpg	99
774.985	1.235	1235.3	2back	Block2	2back/STIM_003.jpg	99
779.295	1.185	1184.7	2back	Block2	2back/STIM_004.jpg	100
782.909	1.286	1286.1	2back	Block2	2back/STIM_004.jpg	100
786.863	1.342	1341.7	2back	Block2	2back/STIM_004.jpg	100
792.081	1.01	1009.6	2back	Block2	2back/STIM_005.jpg	99
796.65	1.131	1131.1	2back	Block2	2back/STIM_005.jpg	99
800.109	0.95	950.0	2back	Block2	2back/STIM_005.jpg	100
803.779	1.186	1186.3	2back	Block2	2back/STIM_006.jpg	99
808.844	0.806	805.9	2back	Block2	2back/STIM_006.jpg	99
812.184	0.723	722.8	2back	Block2	2back/STIM_006.jpg	99
815.543	1.208	1208.5	2back	Block2	2back/STIM_007.jpg	100
820.032	1.258	1258.1	2back	Block2	2back/STIM_007.jpg	100
823.828	0.618	618.2	2back	Block2	2back/STIM_007.jpg	100
827.899	0.777	776.7	2back	Block2	2back/STIM_008.jpg	100
832.399	1.261	1261.0	2back	Block2	2back/STIM_008.jpg	99
835.996	0.595	594.7	2back	Block2	2back/STIM_008.jpg	99
838.823	0.706	705.8	2back	Block2	2back/STIM_009.jpg	99
843.368	0.644	643.9	2back	Block2	2back/STIM_009.jpg	100
846.874	0.898	897.6	2back	Block2	2back/STIM_009.jpg	99
850.231	1.38	1379.6	2back	Block2	2back/STIM_010.jpg	99
854.862	1.018	1018.4	2back	Block2	2back/STIM_010.jpg	100
859.84	1.133	1133.0	2back	Block2	2back/STIM_010.jpg	99
864.901	1.051	1051.4	2back	Block2	2back/STIM_011.jpg	100
869.592	1.159	1158.8	2back	Block2	2back/STIM_011.jpg	100
874.082	0.915	914.6	2back	Block2	2back/STIM_011.jpg	99
877.765	1.04	1039.9	2back	Block2	2back/STIM_012.jpg	100
881.933	0.659	659.1	2back	Block2	2back/STIM_012.jpg	100
885.339	0.757	757.4	2back	Block2	2back/STIM_012.jpg	99
889.159	0.79	790.4	2back	Block2	2back/STIM_013.jpg	100
893.595	1.248	1247.6	2back	Block2	2back/STIM_013.jpg	99
898.665	1.23	1229.9	2back	Block2	2back/STIM_013.jpg	100
902.414	1.254	1254.0	2back	Block2	2back/STIM_014.jpg	100
906.072	1.249	1249.3	2back	Block2	2back/STIM_014.jpg	99
910.189	0.786	785.6	2back	Block2	2back/STIM_014.jpg	100
914.663	0.947	946.6	2back	Block2	2back/STIM_015.jpg	99
918.779	1.294	1294.3	2back	Block2	2back/STIM_015.jpg	99
923.241	1.159	1158.8	2back	Block2	2back/STIM_015.jpg	99
928.132	1.487	1487.0	2back	Block2	2back/STIM_016.jpg	100
932.345	1.365	1365.1	2back	Block2	2back/STIM_016.jpg	100
936.663	0.598	598.3	2back	Block2	2back/STIM_016.jpg	100
940.441	1.203	1202.9	2back	Block2	2back/STIM_017.jpg	100
945.326	0.666	665.9	2back	Block2	2back/STIM_017.jpg	99
949.141	0.913	912.7	2back	Block2	2back/STIM_017.jpg	100
953.019	1.128	1127.9	2back	Block2	2back/STIM_018.jpg	99
956.751	1.123	1122.9	2back	Block2	2back/STIM_018.jpg	99
961.108	1.003	1002.9	2back	Block2	2back/STIM_018.jpg	100
965.207	0.894	893.5	2back	Block2	2back/STIM_019.jpg	100
969.632	1.325	1324.7	2back	Block2	2back/STIM_019.jpg	100
974.296	1.244	1243.5	2back	Block2	2back/STIM_019.jpg	100
977.919	1.138	1137.5	2back	Block2	2back/STIM_020.jpg	99
982.66	0.9	900.2	2back	Block2	2back/STIM_020.jpg	100
986.244	0.845	845.2	2back	Block2	2back/STIM_020.jpg	100
989.935	1.065	1065.0	2back	Block2	2back/STIM_021.jpg	100
993.068	0.85	849.6	2back	Block2	2back/STIM_021.jpg	99
997.338	0.661	660.9	2back	Block2	2back/STIM_021.jpg	99
1001.464	1.504	1504.4	2back	Block2	2back/STIM_022.jpg	99
1005.294	0.894	894.5	2back	Block2	2back/STIM_022.jpg	100
1009.625	1.015	1015.0	2back	Block2	2back/STIM_022.jpg	99
1012.838	1.09	1089.5	2back	Block2	2back/STIM_023.jpg	99
1016.061	0.675	674.7	2back	Block2	2back/STIM_023.jpg	99
1018.98	1.209	1209.2	2back	Block2	2back/STIM_023.jpg	100
1024.044	1.034	1033.6	2back	Block2	2back/STIM_024.jpg	99
1028.484	0.898	898.5	2back	Block2	2back/STIM_024.jpg	100
1032.169	0.751	750.6	2back	Block2	2back/STIM_024.jpg	100
1035.277	0.82	820.3	2back	Block2	2back/STIM_025.jpg	99
1038.219	0.713	713.2	2back	Block2	2back/STIM_025.jpg	99
1041.908	1.017	1017.3	2back	Block2	2back/STIM_025.jpg	100
1046.344	0.798	798.5	2back	Block2	2back/STIM_026.jpg	100
1049.232	1.386	1386.0	2back	Block2	2back/STIM_026.jpg	100
1052.857	1.104	1104.4	2back	Block2	2back/STIM_026.jpg	99
1057.288	0.865	864.6	2back	Block2	2back/STIM_027.jpg	99
1061.376	1.398	1397.6	2back	Block2	2back/STIM_027.jpg	99
1066.216	1.343	1343.4	2back	Block2	2back/STIM_027.jpg	99
1069.963	1.507	1507.1	2back	Block2	2back/STIM_028.jpg	100
1075.349	1.309	1309.2	2back	Block2	2back/STIM_028.jpg	99
1080.206	0.889	888.7	2back	Block2	2back/STIM_028.jpg	99
1084.957	1.503	1503.2	2back	Block2	2back/STIM_029.jpg	100
1088.564	0.77	769.6	2back	Block2	2back/STIM_029.jpg	100
1091.56	0.977	977.4	2back	Block2	2back/STIM_029.jpg	100
1095.693	1.297	1296.9	2back	Block2	2back/STIM_030.jpg	99
1100.186	0.726	725.6	2back	Block2	2back/STIM_030.jpg	99
1104.431	0.593	593.4	2back	Block2	2back/STIM_030.jpg	99
1107.492	1.513	1513.1	2back	Block2	2back/STIM_031.jpg	100
1112.233	1.312	1312.0	2back	Block2	2back/STIM_031.jpg	99
1116.891	1.232	1232.0	2back	Block2	2back/STIM_031.jpg	100
1121.062	1.0	1000.4	2back	Block2	2back/STIM_032.jpg	99
1125.17	0.717	716.6	2back	Block2	2back/STIM_032.jpg	99
1128.683	0.661	661.3	2back	Block2	2back/STIM_032.jpg	100
1132.956	1.128	1128.4	2back	Block2	2back/STIM_033.jpg	100
1137.659	0.754	753.9	2back	Block2	2back/STIM_033.jpg	99
1141.744	0.659	659.3	2back	Block2	2back/STIM_033.jpg	99
1146.251	1.33	1329.9	2back	Block2	2back/STIM_034.jpg	99
1150.573	1.242	1241.7	2back	Block2	2back/STIM_034.jpg	99
1155.382	1.142	1142.0	2back	Block2	2back/STIM_034.jpg	100
1160.294	0.763	763.4	2back	Block2	2back/STIM_035.jpg	99
1164.231	0.877	877.4	2back	Block2	2back/STIM_035.jpg	99
1167.308	0.628	628.4	2back	Block2	2back/STIM_035.jpg	100
1171.216	1.293	1292.7	2back	Block2	2back/STIM_036.jpg	99
1176.243	1.44	1440.4	2back	Block2	2back/STIM_036.jpg	100
1181.275	1.185	1185.0	2back	Block2	2back/STIM_036.jpg	99
1184.529	1.524	1523.8	2back	Block2	2back/STIM_037.jpg	99
1189.124	0.926	926.3	2back	Block2	2back/STIM_037.jpg	99
1192.934	1.269	1269.1	2back	Block2	2back/STIM_037.jpg	99
1197.334	1.164	1163.9	2back	Block2	2back/STIM_038.jpg	100
1201.932	0.856	856.5	2back	Block2	2back/STIM_038.jpg	99
1206.267	0.894	894.3	2back	Block2	2back/STIM_038.jpg	99
1211.141	1.522	1522.4	2back	Block2	2back/STIM_039.jpg	100
1216.152	0.625	625.0	2back	Block2	2back/STIM_039.jpg	99
1219.565	0.784	783.9	2back	Block2	2back/STIM_039.jpg	100
1222.614	0.674	673.8	0back	Block2	0back/STIM_000.jpg	99
1226.504	0.805	805.2	0back	Block2	0back/STIM_000.jpg	99
1230.198	0.82	819.8	0back	Block2	0back/STIM_000.jpg	99
1233.06	0.93	929.5	0back	Block2	0back/STIM_001.jpg	99
1236.441	1.036	1036.1	0back	Block2	0back/STIM_001.jpg	100
1241.186	0.614	614.2	0back	Block2	0back/STIM_001.jpg	100
1244.752	0.568	567.7	0back	Block2	0back/STIM_002.jpg	99
1248.126	0.867	867.4	0back	Block2	0back/STIM_002.jpg	100
1251.311	0.818	818.2	0back	Block2	0back/STIM_002.jpg	100
1255.427	1.034	1034.1	0back	Block2	0back/STIM_003.jpg	100
1260.293	0.829	829.3	0back	Block2	0back/STIM_003.jpg	100
1263.468	0.772	771.8	0back	Block2	0back/STIM_003.jpg	99
1267.203	0.74	740.1	0back	Block2	0back/STIM_004.jpg	100
1271.323	1.035	1035.1	0back	Block2	0back/STIM_004.jpg	100
1276.226	0.705	705.0	0back	Block2	0back/STIM_004.jpg	99
1280.839	0.644	643.7	0back	Block2	0back/STIM_005.jpg	100
1284.432	1.014	1014.0	0back	Block2	0back/STIM_005.jpg	100
1288.645	1.004	1004.5	0back	Block2	0back/STIM_005.jpg	99
1292.184	0.536	535.6	0back	Block2	0back/STIM_006.jpg	100
1295.582	0.804	803.6	0back	Block2	0back/STIM_006.jpg	100
1300.055	1.001	1000.7	0back	Block2	0back/STIM_006.jpg	99
1303.888	0.868	868.2	0back	Block2	0back/STIM_007.jpg	99
1308.705	0.752	752.0	0back	Block2	0back/STIM_007.jpg	99
1313.32	0.893	892.8	0back	Block2	0back/STIM_007.jpg	99
1317.207	0.549	548.7	0back	Block2	0back/STIM_008.jpg	99
1320.692	0.705	704.6	0back	Block2	0back/STIM_008.jpg	100
1324.424	0.883	883.2	0back	Block2	0back/STIM_008.jpg	100
1328.703	0.93	930.1	0back	Block2	0back/STIM_009.jpg	99
1332.152	1.037	1036.8	0back	Block2	0back/STIM_009.jpg	99
1335.946	1.004	1004.2	0back	Block2	0back/STIM_009.jpg	100
1339.894	1.022	1022.1	0back	Block2	0back/STIM_010.jpg	100
1344.652	0.733	733.0	0back	Block2	0back/STIM_010.jpg	100
1348.458	0.747	747.0	0back	Block2	0back/STIM_010.jpg	99
1352.24	0.706	706.5	0back	Block2	0back/STIM_011.jpg	100
1356.487	0.889	888.9	0back	Block2	0back/STIM_011.jpg	100
1360.566	0.532	531.6	0back	Block2	0back/STIM_011.jpg	100
1363.674	0.703	703.1	0back	Block2	0back/STIM_012.jpg	100
1367.816	0.859	859.1	0back	Block2	0back/STIM_012.jpg	100
1372.346	0.719	719.4	0back	Block2	0back/STIM_012.jpg	99
1375.531	0.855	855.0	0back	Block2	0back/STIM_013.jpg	100
1378.602	0.863	863.0	0back	Block2	0back/STIM_013.jpg	100
1383.162	0.854	853.5	0back	Block2	0back/STIM_013.jpg	100
1386.588	0.77	770.0	0back	Block2	0back/STIM_014.jpg	99
1390.986	0.668	667.8	0back	Block2	0back/STIM_014.jpg	99
1394.081	0.75	750.2	0back	Block2	0back/STIM_014.jpg	100
1398.778	0.841	841.0	0back	Block2	0back/STIM_015.jpg	99
1402.681	0.893	892.6	0back	Block2	0back/STIM_015.jpg	100
1405.797	0.9	900.3	0back	Block2	0back/STIM_015.jpg	99
1409.992	0.993	992.7	0back	Block2	0back/STIM_016.jpg	100
1414.662	0.56	559.5	0back	Block2	0back/STIM_016.jpg	99
1417.338	0.526	525.9	0back	Block2	0back/STIM_016.jpg	99
1421.793	0.757	757.4	0back	Block2	0back/STIM_017.jpg	99
1424.847	1.019	1019.4	0back	Block2	0back/STIM_017.jpg	100
1428.351	0.729	728.7	0back	Block2	0back/STIM_017.jpg	99
1432.08	0.539	539.1	0back	Block2	0back/STIM_018.jpg	100
1436.122	0.664	664.3	0back	Block2	0back/STIM_018.jpg	100
1439.773	0.568	567.5	0back	Block2	0back/STIM_018.jpg	100
1444.156	0.665	664.7	0back	Block2	0back/STIM_019.jpg	99
1448.621	0.876	875.9	0back	Block2	0back/STIM_019.jpg	100
1452.867	0.695	694.8	0back	Block2	0back/STIM_019.jpg	99
1456.323	0.873	873.2	2back	Block3	2back/STIM_000.jpg	100
1459.359	1.091	1091.3	2back	Block3	2back/STIM_000.jpg	100
1463.963	0.593	592.9	2back	Block3	2back/STIM_000.jpg	100
1466.624	0.919	919.1	2back	Block3	2back/STIM_001.jpg	100
1471.25	1.244	1244.1	2back	Block3	2back/STIM_001.jpg	99
1476.14	0.682	682.2	2back	Block3	2back/STIM_001.jpg	99
1480.152	1.199	1199.0	2back	Block3	2back/STIM_002.jpg	99
1485.217	0.809	808.8	2back	Block3	2back/STIM_002.jpg	99
1489.139	1.029	1029.1	2back	Block3	2back/STIM_002.jpg	100
1492.229	1.236	1235.8	2back	Block3	2back/STIM_003.jpg	100
1495.591	1.149	1149.4	2back	Block3	2back/STIM_003.jpg	100
1500.153	1.089	1088.7	2back	Block3	2back/STIM_003.jpg	100
1503.9	1.156	1155.9	2back	Block3	2back/STIM_004.jpg	99
1508.148	0.977	977.4	2back	Block3	2back/STIM_004.jpg	99
1513.111	1.193	1192.8	2back	Block3	2back/STIM_004.jpg	99
1517.595	0.953	953.4	2back	Block3	2back/STIM_005.jpg	100
1521.448	0.612	611.6	2back	Block3	2back/STIM_005.jpg	100
1524.316	0.692	691.6	2back	Block3	2back/STIM_005.jpg	99
1528.55	1.127	1126.6	2back	Block3	2back/STIM_006.jpg	99
1532.212	0.767	767.1	2back	Block3	2back/STIM_006.jpg	99
1536.875	0.732	731.5	2back	Block3	2back/STIM_006.jpg	100
1540.81	1.069	1069.1	2back	Block3	2back/STIM_007.jpg	100
1545.246	0.683	682.6	2back	Block3	2back/STIM_007.jpg	100
1549.316	1.065	1065.3	2back	Block3	2back/STIM_007.jpg	99
1553.6	0.65	650.4	2back	Block3	2back/STIM_008.jpg	100
1557.766	0.582	582.0	2back	Block3	2back/STIM_008.jpg	100
1561.909	0.847	847.1	2back	Block3	2back/STIM_008.jpg	100
1566.049	0.765	765.1	2back	Block3	2back/STIM_009.jpg	99
1570.557	0.9	899.5	2back	Block3	2back/STIM_009.jpg	100
1573.498	0.643	643.1	2back	Block3	2back/STIM_009.jpg	99
1576.505	1.211	1211.4	2back	Block3	2back/STIM_010.jpg	100
1580.848	1.148	1148.2	2back	Block3	2back/STIM_010.jpg	100
1584.211	1.064	1063.9	2back	Block3	2back/STIM_010.jpg	99
1588.473	0.825	825.2	2back	Block3	2back/STIM_011.jpg	100
1591.345	1.103	1103.4	2back	Block3	2back/STIM_011.jpg	100
1595.704	0.879	878.8	2back	Block3	2back/STIM_011.jpg	99
1599.105	0.794	793.9	2back	Block3	2back/STIM_012.jpg	99
1602.453	1.26	1260.4	2back	Block3	2back/STIM_012.jpg	99
1606.865	1.219	1219.2	2back	Block3	2back/STIM_012.jpg	99
1610.715	0.931	930.8	2back	Block3	2back/STIM_013.jpg	99
1614.723	0.836	836.5	2back	Block3	2back/STIM_013.jpg	99
1618.931	0.834	834.0	2back	Block3	2back/STIM_013.jpg	100
1623.069	0.923	922.9	2back	Block3	2back/STIM_014.jpg	100
1626.224	0.605	605.4	2back	Block3	2back/STIM_014.jpg	99
1630.8	0.76	760.1	2back	Block3	2back/STIM_014.jpg	100
1633.785	0.582	581.5	2back	Block3	2back/STIM_015.jpg	99
1637.397	1.258	1257.5	2back	Block3	2back/STIM_015.jpg	100
1640.784	1.24	1240.4	2back	Block3	2back/STIM_015.jpg	99
1644.793	0.718	718.1	2back	Block3	2back/STIM_016.jpg	100
1648.235	1.19	1190.2	2back	Block3	2back/STIM_016.jpg	99
1651.634	1.271	1270.8	2back	Block3	2back/STIM_016.jpg	100
1655.052	1.171	1171.0	2back	Block3	2back/STIM_017.jpg	100
1659.031	1.11	1109.6	2back	Block3	2back/STIM_017.jpg	100
1663.856	0.801	801.0	2back	Block3	2back/STIM_017.jpg	100
1667.653	1.267	1267.2	2back	Block3	2back/STIM_018.jpg	100
1671.342	1.014	1013.8	2back	Block3	2back/STIM_018.jpg	100
1675.073	0.673	672.6	2back	Block3	2back/STIM_018.jpg	99
1679.242	1.256	1256.3	2back	Block3	2back/STIM_019.jpg	100
1684.163	0.631	631.1	2back	Block3	2back/STIM_019.jpg	100
1688.659	0.726	725.8	2back	Block3	2back/STIM_019.jpg	100
1691.586	0.664	663.6	2back	Block3	2back/STIM_020.jpg	100
1695.124	0.578	577.8	2back	Block3	2back/STIM_020.jpg	100
1698.341	0.77	769.5	2back	Block3	2back/STIM_020.jpg	100
1701.539	1.029	1029.3	2back	Block3	2back/STIM_021.jpg	99
1704.739	1.218	1217.7	2back	Block3	2back/STIM_021.jpg	99
1709.356	1.222	1221.9	2back	Block3	2back/STIM_021.jpg	99
1712.584	1.134	1134.4	2back	Block3	2back/STIM_022.jpg	99
1716.459	0.607	606.8	2back	Block3	2back/STIM_022.jpg	99
1720.573	0.588	587.9	2back	Block3	2back/STIM_022.jpg	99
1723.227	0.679	679.3	2back	Block3	2back/STIM_023.jpg	99
1725.929	0.898	897.5	2back	Block3	2back/STIM_023.jpg	100
1729.783	0.985	984.8	2back	Block3	2back/STIM_023.jpg	99
1733.164	0.764	763.8	2back	Block3	2back/STIM_024.jpg	99
1736.783	0.978	978.0	2back	Block3	2back/STIM_024.jpg	99
1741.055	0.665	665.2	2back	Block3	2back/STIM_024.jpg	99
1744.544	0.809	809.1	2back	Block3	2back/STIM_025.jpg	100
1748.541	0.723	722.9	2back	Block3	2back/STIM_025.jpg	99
1751.879	1.214	1214.4	2back	Block3	2back/STIM_025.jpg	99
1756.24	0.833	833.0	2back	Block3	2back/STIM_026.jpg	100
1760.663	0.755	755.4	2back	Block3	2back/STIM_026.jpg	99
1765.247	0.985	985.4	2back	Block3	2back/STIM_026.jpg	100
1769.91	1.008	1008.3	2back	Block3	2back/STIM_027.jpg	99
1774.296	0.858	857.7	2back	Block3	2back/STIM_027.jpg	99
1777.766	0.905	904.8	2back	Block3	2back/STIM_027.jpg	99
1781.985	1.167	1167.3	2back	Block3	2back/STIM_028.jpg	100
1786.583	1.001	1000.8	2back	Block3	2back/STIM_028.jpg	100
1790.804	0.646	646.1	2back	Block3	2back/STIM_028.jpg	99
1794.151	0.879	879.0	2back	Block3	2back/STIM_029.jpg	99
1797.103	0.904	903.7	2back	Block3	2back/STIM_029.jpg	99
1800.532	0.619	619.2	2back	Block3	2back/STIM_029.jpg	100
1804.438	0.767	766.6	2back	Block3	2back/STIM_030.jpg	100
1808.842	0.752	752.5	2back	Block3	2back/STIM_030.jpg	100
1812.684	0.559	559.2	2back	Block3	2back/STIM_030.jpg	100
1815.479	0.65	649.7	2back	Block3	2back/STIM_031.jpg	99
1818.635	0.994	994.1	2back	Block3	2back/STIM_031.jpg	100
1821.902	0.911	911.0	2back	Block3	2back/STIM_031.jpg	99
1825.213	0.956	955.7	2back	Block3	2back/STIM_032.jpg	100
1829.038	1.012	1012.3	2back	Block3	2back/STIM_032.jpg	100
1832.626	1.188	1188.0	2back	Block3	2back/STIM_032.jpg	100
1837.601	0.779	779.0	2back	Block3	2back/STIM_033.jpg	99
1840.94	0.825	825.3	2back	Block3	2back/STIM_033.jpg	99
1845.058	1.084	1083.5	2back	Block3	2back/STIM_033.jpg	100
1848.557	0.956	955.7	2back	Block3	2back/STIM_034.jpg	100
1853.028	0.873	872.7	2back	Block3	2back/STIM_034.jpg	100
1856.087	1.118	1117.6	2back	Block3	2back/STIM_034.jpg	100
1860.869	0.639	638.8	2back	Block3	2back/STIM_035.jpg	100
1865.312	1.12	1120.0	2back	Block3	2back/STIM_035.jpg	99
1869.495	0.884	883.7	2back	Block3	2back/STIM_035.jpg	99
1872.857	0.623	622.6	2back	Block3	2back/STIM_036.jpg	99
1875.682	0.566	565.7	2back	Block3	2back/STIM_036.jpg	100
1878.672	0.647	646.7	2back	Block3	2back/STIM_036.jpg	100
1882.945	0.578	577.7	2back	Block3	2back/STIM_037.jpg	100
1886.43	0.802	801.7	2back	Block3	2back/STIM_037.jpg	99
1890.97	0.764	763.8	2back	Block3	2back/STIM_037.jpg	99
1895.533	1.036	1036.1	2back	Block3	2back/STIM_038.jpg	99
1899.406	0.782	781.9	2back	Block3	2back/STIM_038.jpg	100
1902.358	0.61	609.5	2back	Block3	2back/STIM_038.jpg	100
1906.152	0.715	714.6	2back	Block3	2back/STIM_039.jpg	99
1910.435	0.626	626.0	2back	Block3	2back/STIM_039.jpg	99
1913.47	1.243	1242.9	2back	Block3	2back/STIM_039.jpg	100
1917.645	0.758	758.4	0back	Block3	0back/STIM_000.jpg	99
1922.09	0.559	558.6	0back	Block3	0back/STIM_000.jpg	100
1924.738	0.66	659.5	0back	Block3	0back/STIM_000.jpg	100
1928.153	0.749	749.2	0back	Block3	0back/STIM_001.jpg	100
1932.089	0.643	643.2	0back	Block3	0back/STIM_001.jpg	99
1935.349	0.87	870.3	0back	Block3	0back/STIM_001.jpg	100
1939.763	0.793	793.1	0back	Block3	0back/STIM_002.jpg	99
1943.251	0.761	761.3	0back	Block3	0back/STIM_002.jpg	100
1947.217	0.744	744.3	0back	Block3	0back/STIM_002.jpg	100
1950.39	0.692	692.5	0back	Block3	0back/STIM_003.jpg	99
1953.143	0.944	943.6	0back	Block3	0back/STIM_003.jpg	100
1957.176	0.83	830.2	0back	Block3	0back/STIM_003.jpg	100
1961.903	0.869	868.8	0back	Block3	0back/STIM_004.jpg	99
1966.411	0.868	868.5	0back	Block3	0back/STIM_004.jpg	100
1971.055	0.628	628.1	0back	Block3	0back/STIM_004.jpg	99
1974.282	0.807	806.8	0back	Block3	0back/STIM_005.jpg	100
1978.376	0.791	791.3	0back	Block3	0back/STIM_005.jpg	100
1981.741	0.716	716.5	0back	Block3	0back/STIM_005.jpg	100
1984.546	0.574	573.7	0back	Block3	0back/STIM_006.jpg	99
1988.929	0.656	656.3	0back	Block3	0back/STIM_006.jpg	99
1991.791	1.006	1005.5	0back	Block3	0back/STIM_006.jpg	100
1996.012	1.01	1009.7	0back	Block3	0back/STIM_007.jpg	99
1999.837	0.791	791.4	0back	Block3	0back/STIM_007.jpg	100
2004.479	0.624	623.8	0back	Block3	0back/STIM_007.jpg	100
2007.379	0.744	744.2	0back	Block3	0back/STIM_008.jpg	100
2011.716	0.982	981.7	0back	Block3	0back/STIM_008.jpg	99
2015.423	0.943	943.4	0back	Block3	0back/STIM_008.jpg	100
2018.893	0.888	888.2	0back	Block3	0back/STIM_009.jpg	99
2022.441	0.871	871.3	0back	Block3	0back/STIM_009.jpg	99
2026.033	0.948	948.0	0back	Block3	0back/STIM_009.jpg	100
2029.917	0.758	757.9	0back	Block3	0back/STIM_010.jpg	99
2034.209	0.669	669.2	0back	Block3	0back/STIM_010.jpg	100
2037.679	0.745	745.0	0back	Block3	0back/STIM_010.jpg	99
2041.997	0.916	915.7	0back	Block3	0back/STIM_011.jpg	100
2045.976	0.804	804.4	0back	Block3	0back/STIM_011.jpg	99
2049.075	0.578	577.6	0back	Block3	0back/STIM_011.jpg	99
2053.093	0.538	538.2	0back	Block3	0back/STIM_012.jpg	99
2057.399	0.781	780.8	0back	Block3	0back/STIM_012.jpg	99
2061.635	0.565	564.6	0back	Block3	0back/STIM_012.jpg	100
2064.213	0.798	797.9	0back	Block3	0back/STIM_013.jpg	100
2067.507	0.819	818.9	0back	Block3	0back/STIM_013.jpg	100
2070.505	1.027	1026.8	0back	Block3	0back/STIM_013.jpg	100
2075.518	0.806	806.5	0back	Block3	0back/STIM_014.jpg	99
2079.588	0.784	784.1	0back	Block3	0back/STIM_014.jpg	100
2082.954	0.967	967.0	0back	Block3	0back/STIM_014.jpg	100
2087.618	0.662	661.8	0back	Block3	0back/STIM_015.jpg	100
2090.415	0.858	858.4	0back	Block3	0back/STIM_015.jpg	99
2093.902	0.519	518.9	0back	Block3	0back/STIM_015.jpg	99
2098.365	0.643	643.4	0back	Block3	0back/STIM_016.jpg	100
2102.603	0.539	538.7	0back	Block3	0back/STIM_016.jpg	100
2106.859	0.656	656.4	0back	Block3	0back/STIM_016.jpg	99
2111.025	0.77	769.6	0back	Block3	0back/STIM_017.jpg	100
2115.592	1.02	1020.0	0back	Block3	0back/STIM_017.jpg	100
2120.164	0.559	559.0	0back	Block3	0back/STIM_017.jpg	100
2123.15	0.92	920.2	0back	Block3	0back/STIM_018.jpg	99
2126.837	0.986	986.3	0back	Block3	0back/STIM_018.jpg	99
2131.51	0.878	877.9	0back	Block3	0back/STIM_018.jpg	99
2136.238	0.569	569.2	0back	Block3	0back/STIM_019.jpg	100
2138.843	0.71	710.2	0back	Block3	0back/STIM_019.jpg	100
2142.657	0.789	789.3	0back	Block3	0back/STIM_019.jpg	100
2147.242	0.932	931.5	2back	Block4	2back/STIM_000.jpg	100
2150.983	0.564	563.6	2back	Block4	2back/STIM_000.jpg	99
2154.342	0.618	618.4	2back	Block4	2back/STIM_000.jpg	99
2157.534	1.005	1005.3	2back	Block4	2back/STIM_001.jpg	99
2161.422	1.009	1009.2	2back	Block4	2back/STIM_001.jpg	99
2165.302	0.85	850.0	2back	Block4	2back/STIM_001.jpg	100
2169.041	0.639	638.9	2back	Block4	2back/STIM_002.jpg	100
2172.816	0.599	599.0	2back	Block4	2back/STIM_002.jpg	100
2177.096	0.948	948.4	2back	Block4	2back/STIM_002.jpg	100
2180.198	0.895	895.2	2back	Block4	2back/STIM_003.jpg	100
2184.59	1.238	1238.0	2back	Block4	2back/STIM_003.jpg	99
2189.53	1.193	1192.9	2back	Block4	2back/STIM_003.jpg	99
2193.038	1.194	1194.5	2back	Block4	2back/STIM_004.jpg	99
2196.475	0.988	987.8	2back	Block4	2back/STIM_004.jpg	100
2199.913	1.099	1099.3	2back	Block4	2back/STIM_004.jpg	99
2204.189	1.074	1073.9	2back	Block4	2back/STIM_005.jpg	99
2208.159	0.617	616.6	2back	Block4	2back/STIM_005.jpg	99
2212.219	1.041	1040.6	2back	Block4	2back/STIM_005.jpg	99
2215.781	0.976	976.0	2back	Block4	2back/STIM_006.jpg	99
2219.505	0.815	815.3	2back	Block4	2back/STIM_006.jpg	100
2222.512	0.697	697.1	2back	Block4	2back/STIM_006.jpg	99
2226.338	0.574	573.5	2back	Block4	2back/STIM_007.jpg	99
2230.821	1.065	1064.7	2back	Block4	2back/STIM_007.jpg	100
2233.961	0.669	668.6	2back	Block4	2back/STIM_007.jpg	100
2238.586	1.22	1220.1	2back	Block4	2back/STIM_008.jpg	99
2242.581	0.618	618.4	2back	Block4	2back/STIM_008.jpg	100
2246.955	0.569	568.6	2back	Block4	2back/STIM_008.jpg	99
2250.233	0.72	719.6	2back	Block4	2back/STIM_009.jpg	100
2253.715	0.677	677.0	2back	Block4	2back/STIM_009.jpg	100
2258.133	0.783	782.7	2back	Block4	2back/STIM_009.jpg	99
2260.997	1.149	1148.7	2back	Block4	2back/STIM_010.jpg	99
2264.379	1.265	1265.1	2back	Block4	2back/STIM_010.jpg	100
2268.487	1.27	1269.9	2back	Block4	2back/STIM_010.jpg	99
2272.249	0.963	962.8	2back	Block4	2back/STIM_011.jpg	99
2277.191	0.728	728.1	2back	Block4	2back/STIM_011.jpg	99
2281.887	0.56	560.5	2back	Block4	2back/STIM_011.jpg	100
2285.763	1.193	1193.2	2back	Block4	2back/STIM_012.jpg	99
2290.769	0.87	870.0	2back	Block4	2back/STIM_012.jpg	99
2295.548	0.9	900.2	2back	Block4	2back/STIM_012.jpg	100
2299.797	0.91	909.8	2back	Block4	2back/STIM_013.jpg	100
2304.154	0.732	731.6	2back	Block4	2back/STIM_013.jpg	100
2307.229	0.718	718.4	2back	Block4	2back/STIM_013.jpg	100
2310.402	0.968	967.8	2back	Block4	2back/STIM_014.jpg	100
2314.82	1.057	1056.8	2back	Block4	2back/STIM_014.jpg	99
2319.067	1.034	1033.5	2back	Block4	2back/STIM_014.jpg	100
2323.333	0.568	568.5	2back	Block4	2back/STIM_015.jpg	100
2326.216	0.547	546.6	2back	Block4	2back/STIM_015.jpg	100
2330.538	1.174	1174.0	2back	Block4	2back/STIM_015.jpg	99
2335.48	1.097	1096.6	2back	Block4	2back/STIM_016.jpg	99
2339.236	1.26	1260.0	2back	Block4	2back/STIM_016.jpg	100
2343.393	0.855	855.1	2back	Block4	2back/STIM_016.jpg	99
2346.694	1.258	1257.8	2back	Block4	2back/STIM_017.jpg	100
2351.364	0.87	869.6	2back	Block4	2back/STIM_017.jpg	100
2356.034	0.69	690.4	2back	Block4	2back/STIM_017.jpg	100
2359.851	0.616	616.1	2back	Block4	2back/STIM_018.jpg	100
2363.843	0.928	928.1	2back	Block4	2back/STIM_018.jpg	99
2368.028	1.076	1076.4	2back	Block4	2back/STIM_018.jpg	100
2372.242	1.036	1036.2	2back	Block4	2back/STIM_019.jpg	100
2377.225	0.669	669.0	2back	Block4	2back/STIM_019.jpg	99
2380.806	0.88	879.9	2back	Block4	2back/STIM_019.jpg	100
2385.371	0.91	909.9	2back	Block4	2back/STIM_020.jpg	99
2390.233	1.25	1250.1	2back	Block4	2back/STIM_020.jpg	100
2394.311	1.205	1205.1	2back	Block4	2back/STIM_020.jpg	100
2398.913	0.944	943.9	2back	Block4	2back/STIM_021.jpg	100
2403.024	0.649	649.1	2back	Block4	2back/STIM_021.jpg	99
2405.786	0.629	628.8	2back	Block4	2back/STIM_021.jpg	99
2408.645	0.837	837.4	2back	Block4	2back/STIM_022.jpg	99
2412.452	0.902	902.2	2back	Block4	2back/STIM_022.jpg	100
2416.349	0.814	813.5	2back	Block4	2back/STIM_022.jpg	99
2419.523	0.747	747.2	2back	Block4	2back/STIM_023.jpg	99
2423.802	1.069	1069.1	2back	Block4	2back/STIM_023.jpg	99
2428.201	1.064	1063.6	2back	Block4	2back/STIM_023.jpg	99
2431.382	1.183	1183.0	2back	Block4	2back/STIM_024.jpg	99
2434.826	0.716	716.0	2back	Block4	2back/STIM_024.jpg	99
2438.916	0.96	959.6	2back	Block4	2back/STIM_024.jpg	100
2443.391	1.171	1171.2	2back	Block4	2back/STIM_025.jpg	99
2446.683	0.789	789.1	2back	Block4	2back/STIM_025.jpg	99
2449.98	0.753	753.3	2back	Block4	2back/STIM_025.jpg	100
2454.099	0.801	800.9	2back	Block4	2back/STIM_026.jpg	99
2457.543	1.23	1229.5	2back	Block4	2back/STIM_026.jpg	99
2462.246	1.265	1265.1	2back	Block4	2back/STIM_026.jpg	99
2466.948	1.182	1182.2	2back	Block4	2back/STIM_027.jpg	99
2470.211	0.827	826.7	2back	Block4	2back/STIM_027.jpg	100
2473.656	1.048	1047.8	2back	Block4	2back/STIM_027.jpg	100
2477.658	0.697	696.7	2back	Block4	2back/STIM_028.jpg	100
2481.436	1.067	1066.7	2back	Block4	2back/STIM_028.jpg	99
2485.657	1.212	1211.9	2back	Block4	2back/STIM_028.jpg	100
2489.002	1.208	1207.5	2back	Block4	2back/STIM_029.jpg	100
2493.289	0.977	976.7	2back	Block4	2back/STIM_029.jpg	99
2497.607	0.653	653.0	2back	Block4	2back/STIM_029.jpg	99
2500.567	0.912	912.5	2back	Block4	2back/STIM_030.jpg	99
2503.542	1.088	1087.5	2back	Block4	2back/STIM_030.jpg	99
2506.786	1.177	1176.7	2back	Block4	2back/STIM_030.jpg	99
2511.248	0.564	564.0	2back	Block4	2back/STIM_031.jpg	99
2515.445	0.975	975.0	2back	Block4	2back/STIM_031.jpg	99
2519.383	0.674	673.8	2back	Block4	2back/STIM_031.jpg	100
2523.516	1.061	1060.6	2back	Block4	2back/STIM_032.jpg	99
2528.163	0.86	859.5	2back	Block4	2back/STIM_032.jpg	100
2531.436	0.619	619.1	2back	Block4	2back/STIM_032.jpg	100
2535.113	1.111	1111.0	2back	Block4	2back/STIM_033.jpg	99
2538.274	0.595	594.7	2back	Block4	2back/STIM_033.jpg	99
2541.91	0.832	831.6	2back	Block4	2back/STIM_033.jpg	100
2545.686	1.027	1027.3	2back	Block4	2back/STIM_034.jpg	99
2549.157	0.906	906.1	2back	Block4	2back/STIM_034.jpg	99
2553.434	1.169	1168.6	2back	Block4	2back/STIM_034.jpg	100
2557.109	0.827	826.7	2back	Block4	2back/STIM_035.jpg	99
2560.808	0.627	626.7	2back	Block4	2back/STIM_035.jpg	100
2565.071	0.967	967.1	2back	Block4	2back/STIM_035.jpg	100
2568.277	0.915	915.1	2back	Block4	2back/STIM_036.jpg	99
2571.899	0.804	803.6	2back	Block4	2back/STIM_036.jpg	99
2576.548	1.081	1080.9	2back	Block4	2back/STIM_036.jpg	99
2581.377	1.148	1148.1	2back	Block4	2back/STIM_037.jpg	99
2584.602	1.259	1259.0	2back	Block4	2back/STIM_037.jpg	100
2589.364	1.159	1158.8	2back	Block4	2back/STIM_037.jpg	99
2594.399	0.641	641.0	2back	Block4	2back/STIM_038.jpg	100
2598.447	1.145	1144.8	2back	Block4	2back/STIM_038.jpg	100
2603.588	0.618	618.5	2back	Block4	2back/STIM_038.jpg	100
2606.415	1.091	1090.9	2back	Block4	2back/STIM_039.jpg	100
2609.689	0.899	898.8	2back	Block4	2back/STIM_039.jpg	99
2613.075	0.704	703.6	2back	Block4	2back/STIM_039.jpg	100
2616.44	0.866	866.1	0back	Block4	0back/STIM_000.jpg	100
2619.739	0.875	875.2	0back	Block4	0back/STIM_000.jpg	100
2623.577	0.883	883.1	0back	Block4	0back/STIM_000.jpg	99
2627.995	0.632	632.5	0back	Block4	0back/STIM_001.jpg	99
2632.162	0.905	904.7	0back	Block4	0back/STIM_001.jpg	99
2636.232	0.998	997.5	0back	Block4	0back/STIM_001.jpg	99
2640.743	0.634	633.9	0back	Block4	0back/STIM_002.jpg	100
2644.646	0.898	898.3	0back	Block4	0back/STIM_002.jpg	100
2649.208	0.735	734.7	0back	Block4	0back/STIM_002.jpg	99
2652.196	0.982	981.5	0back	Block4	0back/STIM_003.jpg	100
2655.365	0.624	624.1	0back	Block4	0back/STIM_003.jpg	100
2659.583	0.571	570.8	0back	Block4	0back/STIM_003.jpg	99
2663.518	0.763	762.7	0back	Block4	0back/STIM_004.jpg	100
2667.766	0.732	731.8	0back	Block4	0back/STIM_004.jpg	100
2671.164	0.713	712.9	0back	Block4	0back/STIM_004.jpg	99
2674.639	0.84	839.5	0back	Block4	0back/STIM_005.jpg	100
2679.468	0.906	906.2	0back	Block4	0back/STIM_005.jpg	99
2683.466	1.022	1021.5	0back	Block4	0back/STIM_005.jpg	100
2688.0	0.836	835.9	0back	Block4	0back/STIM_006.jpg	99
2691.669	0.987	987.2	0back	Block4	0back/STIM_006.jpg	99
2695.803	0.621	620.7	0back	Block4	0back/STIM_006.jpg	100
2698.448	0.939	939.0	0back	Block4	0back/STIM_007.jpg	100
2702.248	0.882	882.0	0back	Block4	0back/STIM_007.jpg	100
2705.442	0.867	867.2	0back	Block4	0back/STIM_007.jpg	99
2710.204	0.619	619.1	0back	Block4	0back/STIM_008.jpg	99
2713.816	0.609	608.8	0back	Block4	0back/STIM_008.jpg	100
2717.022	0.704	703.6	0back	Block4	0back/STIM_008.jpg	99
2721.293	1.029	1029.0	0back	Block4	0back/STIM_009.jpg	100
2725.524	1.012	1012.0	0back	Block4	0back/STIM_009.jpg	99
2729.787	1.019	1019.0	0back	Block4	0back/STIM_009.jpg	100
2734.009	0.995	994.8	0back	Block4	0back/STIM_010.jpg	100
2737.634	0.634	634.3	0back	Block4	0back/STIM_010.jpg	99
2740.329	0.703	703.2	0back	Block4	0back/STIM_010.jpg	100
2744.277	0.625	624.8	0back	Block4	0back/STIM_011.jpg	100
2747.334	0.839	838.6	0back	Block4	0back/STIM_011.jpg	99
2751.722	0.982	982.2	0back	Block4	0back/STIM_011.jpg	100
2754.898	0.566	565.7	0back	Block4	0back/STIM_012.jpg	99
2757.771	0.764	764.3	0back	Block4	0back/STIM_012.jpg	100
2760.833	0.578	577.6	0back	Block4	0back/STIM_012.jpg	100
2763.533	0.608	607.8	0back	Block4	0back/STIM_013.jpg	99
2766.897	0.801	800.8	0back	Block4	0back/STIM_013.jpg	99
2769.858	0.79	790.5	0back	Block4	0back/STIM_013.jpg	99
2774.581	0.928	928.3	0back	Block4	0back/STIM_014.jpg	99
2777.687	0.798	798.1	0back	Block4	0back/STIM_014.jpg	99
2781.29	0.973	973.1	0back	Block4	0back/STIM_014.jpg	100
2785.064	0.768	768.1	0back	Block4	0back/STIM_015.jpg	100
2788.99	0.667	667.0	0back	Block4	0back/STIM_015.jpg	100
2791.659	0.896	896.5	0back	Block4	0back/STIM_015.jpg	99
2795.508	0.536	535.8	0back	Block4	0back/STIM_016.jpg	100
2798.059	0.715	715.1	0back	Block4	0back/STIM_016.jpg	99
2802.105	0.706	706.4	0back	Block4	0back/STIM_016.jpg	99
2806.714	0.624	623.9	0back	Block4	0back/STIM_017.jpg	100
2810.1	0.528	527.6	0back	Block4	0back/STIM_017.jpg	99
2813.191	0.642	641.6	0back	Block4	0back/STIM_017.jpg	100
2816.7	0.975	975.4	0back	Block4	0back/STIM_018.jpg	100
2820.738	0.826	825.7	0back	Block4	0back/STIM_018.jpg	99
2824.739	0.533	533.1	0back	Block4	0back/STIM_018.jpg	99
2828.502	0.528	527.8	0back	Block4	0back/STIM_019.jpg	99
2831.439	0.822	821.9	0back	Block4	0back/STIM_019.jpg	100
2836.193	0.911	911.3	0back	Block4	0back/STIM_019.jpg	99
