onset	duration	response_time_ms	trial_type	learning_stage	stimulus	response_port
0.0	0.739	738.6	2back	Block1	2back/STIM_000.jpg	99
3.335	0.684	684.1	2back	Block1	2back/STIM_000.jpg	100
7.673	0.712	711.7	2back	Block1	2back/STIM_000.jpg	99
11.062	0.865	865.2	2back	Block1	2back/STIM_001.jpg	99
15.829	0.718	717.5	2back	Block1	2back/STIM_001.jpg	99
20.144	1.073	1072.8	2back	Block1	2back/STIM_001.jpg	99
23.413	0.832	832.3	2back	Block1	2back/STIM_002.jpg	99
26.302	1.134	1133.8	2back	Block1	2back/STIM_002.jpg	100
30.297	0.884	884.2	2back	Block1	2back/STIM_002.jpg	99
33.474	0.873	872.8	2back	Block1	2back/STIM_003.jpg	100
37.286	0.976	976.3	2back	Block1	2back/STIM_003.jpg	99
41.412	1.08	1079.9	2back	Block1	2back/STIM_003.jpg	99
44.598	1.158	1157.9	2back	Block1	2back/STIM_004.jpg	100
48.447	0.657	656.8	2back	Block1	2back/STIM_004.jpg	100
51.846	0.773	773.3	2back	Block1	2back/STIM_004.jpg	100
54.812	1.036	1036.2	2back	Block1	2back/STIM_005.jpg	99
59.154	0.777	777.0	2back	Block1	2back/STIM_005.jpg	99
62.986	0.703	703.0	2back	Block1	2back/STIM_005.jpg	100
66.929	0.597	596.7	2back	Block1	2back/STIM_006.jpg	100
70.653	0.709	709.1	2back	Block1	2back/STIM_006.jpg	99
75.259	0.898	898.5	2back	Block1	2back/STIM_006.jpg	100
78.466	0.696	695.9	2back	Block1	2back/STIM_007.jpg	100
82.146	1.113	1113.0	2back	Block1	2back/STIM_007.jpg	99
87.244	0.691	691.0	2back	Block1	2back/STIM_007.jpg	99
91.739	1.053	1053.4	2back	Block1	2back/STIM_008.jpg	100
95.715	0.765	765.1	2back	Block1	2back/STIM_008.jpg	99
100.042	1.168	1168.2	2back	Block1	2back/STIM_008.jpg	99
104.146	0.998	997.5	2back	Block1	2back/STIM_009.jpg	100
108.736	0.585	585.4	2back	Block1	2back/STIM_009.jpg	99
112.676	0.656	656.3	2back	Block1	2back/STIM_009.jpg	99
116.137	0.829	829.4	2back	Block1	2back/STIM_010.jpg	99
120.926	0.868	867.9	2back	Block1	2back/STIM_010.jpg	100
124.501	1.14	1139.5	2back	Block1	2back/STIM_010.jpg	100
128.205	0.921	920.9	2back	Block1	2back/STIM_011.jpg	99
133.035	0.896	896.3	2back	Block1	2back/STIM_011.jpg	100
137.312	0.52	520.0	2back	Block1	2back/STIM_011.jpg	100
141.231	1.123	1122.9	2back	Block1	2back/STIM_012.jpg	99
144.935	0.588	588.3	2back	Block1	2back/STIM_012.jpg	100
149.375	0.95	950.5	2back	Block1	2back/STIM_012.jpg	99
153.81	0.784	783.7	2back	Block1	2back/STIM_013.jpg	99
157.046	1.107	1107.3	2back	Block1	2back/STIM_013.jpg	99
160.828	1.202	1201.9	2back	Block1	2back/STIM_013.jpg	100
164.415	0.611	611.1	2back	Block1	2back/STIM_014.jpg	99
168.778	1.229	1228.6	2back	Block1	2back/STIM_014.jpg	100
172.106	1.161	1161.3	2back	Block1	2back/STIM_014.jpg	100
177.23	1.323	1322.6	2back	Block1	2back/STIM_015.jpg	100
181.711	1.068	1068.3	2back	Block1	2back/STIM_015.jpg	99
185.07	0.861	861.1	2back	Block1	2back/STIM_015.jpg	100
189.728	1.043	1042.9	2back	Block1	2back/STIM_016.jpg	99
193.692	0.934	934.3	2back	Block1	2back/STIM_016.jpg	100
196.762	0.722	722.5	2back	Block1	2back/STIM_016.jpg	99
200.712	0.619	618.8	2back	Block1	2back/STIM_017.jpg	99
204.065	0.778	777.6	2back	Block1	2back/STIM_017.jpg	99
207.686	0.851	850.7	2back	Block1	2back/STIM_017.jpg	99
210.719	1.178	1178.3	2back	Block1	2back/STIM_018.jpg	99
215.296	0.982	981.9	2back	Block1	2back/STIM_018.jpg	100
220.081	0.958	957.6	2back	Block1	2back/STIM_018.jpg	100
224.521	1.069	1069.4	2back	Block1	2back/STIM_019.jpg	99
228.385	0.859	859.4	2back	Block1	2back/STIM_019.jpg	99
232.36	0.735	734.9	2back	Block1	2back/STIM_019.jpg	99
235.732	0.937	937.3	2back	Block1	2back/STIM_020.jpg	100
238.807	0.68	680.3	2back	Block1	2back/STIM_020.jpg	100
242.976	0.625	624.8	2back	Block1	2back/STIM_020.jpg	100
246.782	0.993	993.1	2back	Block1	2back/STIM_021.jpg	100
251.451	0.643	642.6	2back	Block1	2back/STIM_021.jpg	99
256.06	1.063	1062.9	2back	Block1	2back/STIM_021.jpg	99
259.787	0.592	591.7	2back	Block1	2back/STIM_022.jpg	100
263.463	1.056	1056.1	2back	Block1	2back/STIM_022.jpg	100
267.003	0.67	670.2	2back	Block1	2back/STIM_022.jpg	99
271.452	1.303	1302.8	2back	Block1	2back/STIM_023.jpg	99
275.406	0.843	842.6	2back	Block1	2back/STIM_023.jpg	100
279.119	0.533	533.1	2back	Block1	2back/STIM_023.jpg	99
282.535	0.945	944.9	2back	Block1	2back/STIM_024.jpg	100
286.845	1.262	1262.4	2back	Block1	2back/STIM_024.jpg	99
291.716	0.572	571.9	2back	Block1	2back/STIM_024.jpg	99
294.87	0.762	761.7	2back	Block1	2back/STIM_025.jpg	100
298.476	1.154	1153.8	2back	Block1	2back/STIM_025.jpg	99
302.771	1.144	1143.7	2back	Block1	2back/STIM_025.jpg	99
307.933	0.881	881.1	2back	Block1	2back/STIM_026.jpg	100
312.542	1.169	1169.3	2back	Block1	2back/STIM_026.jpg	99
317.546	1.024	1023.6	2back	Block1	2back/STIM_026.jpg	100
321.102	0.775	774.9	2back	Block1	2back/STIM_027.jpg	100
324.237	1.238	1237.9	2back	Block1	2back/STIM_027.jpg	99
329.198	0.914	913.5	2back	Block1	2back/STIM_027.jpg	100
332.461	1.018	1018.5	2back	Block1	2back/STIM_028.jpg	99
336.937	0.873	873.2	2back	Block1	2back/STIM_028.jpg	100
340.666	1.194	1194.5	2back	Block1	2back/STIM_028.jpg	100
344.109	1.299	1298.7	2back	Block1	2back/STIM_029.jpg	99
347.741	1.108	1108.1	2back	Block1	2back/STIM_029.jpg	99
351.23	0.928	927.9	2back	Block1	2back/STIM_029.jpg	99
355.905	0.823	823.1	2back	Block1	2back/STIM_030.jpg	99
360.169	0.579	579.1	2back	Block1	2back/STIM_030.jpg	99
364.351	0.917	916.6	2back	Block1	2back/STIM_030.jpg	99
368.147	0.773	773.1	2back	Block1	2back/STIM_031.jpg	99
371.523	0.976	976.0	2back	Block1	2back/STIM_031.jpg	100
375.041	0.785	785.2	2back	Block1	2back/STIM_031.jpg	100
378.536	0.671	671.1	2back	Block1	2back/STIM_032.jpg	99
382.4	0.66	659.7	2back	Block1	2back/STIM_032.jpg	99
385.179	1.187	1186.7	2back	Block1	2back/STIM_032.jpg	99
390.06	0.649	649.1	2back	Block1	2back/STIM_033.jpg	99
393.465	0.877	877.3	2back	Block1	2back/STIM_033.jpg	99
396.986	1.075	1074.7	2back	Block1	2back/STIM_033.jpg	99
401.015	1.139	1139.2	2back	Block1	2back/STIM_034.jpg	100
404.881	0.674	674.3	2back	Block1	2back/STIM_034.jpg	99
408.074	0.587	587.2	2back	Block1	2back/STIM_034.jpg	100
410.763	1.068	1067.8	2back	Block1	2back/STIM_035.jpg	100
415.774	0.796	795.8	2back	Block1	2back/STIM_035.jpg	100
420.326	0.659	658.6	2back	Block1	2back/STIM_035.jpg	99
424.002	1.106	1106.4	2back	Block1	2back/STIM_036.jpg	100
428.442	0.814	814.2	2back	Block1	2back/STIM_036.jpg	100
431.889	0.645	645.0	2back	Block1	2back/STIM_036.jpg	100
436.198	0.611	611.2	2back	Block1	2back/STIM_037.jpg	100
439.976	0.733	732.7	2back	Block1	2back/STIM_037.jpg	99
443.983	0.802	802.1	2back	Block1	2back/STIM_037.jpg	100
448.454	0.781	780.7	2back	Block1	2back/STIM_038.jpg	100
452.248	1.171	1171.3	2back	Block1	2back/STIM_038.jpg	100
455.996	1.03	1030.5	2back	Block1	2back/STIM_038.jpg	100
459.823	0.905	905.3	2back	Block1	2back/STIM_039.jpg	99
462.893	1.182	1182.5	2back	Block1	2back/STIM_039.jpg	100
466.489	0.903	903.4	2back	Block1	2back/STIM_039.jpg	100
471.322	0.507	506.8	0back	Block1	0back/STIM_000.jpg	99
474.001	0.462	462.0	0back	Block1	0back/STIM_000.jpg	100
477.3	0.609	608.7	0back	Block1	0back/STIM_000.jpg	99
480.924	0.592	592.5	0back	Block1	0back/STIM_001.jpg	99
484.358	0.562	561.7	0back	Block1	0back/STIM_001.jpg	100
488.416	0.451	451.1	0back	Block1	0back/STIM_001.jpg	99
491.475	0.53	529.7	0back	Block1	0back/STIM_002.jpg	100
494.703	0.688	687.7	0back	Block1	0back/STIM_002.jpg	99
497.8	0.454	453.7	0back	Block1	0back/STIM_002.jpg	100
501.797	0.422	421.9	0back	Block1	0back/STIM_003.jpg	99
504.548	0.487	487.3	0back	Block1	0back/STIM_003.jpg	100
507.431	0.493	493.2	0back	Block1	0back/STIM_003.jpg	100
511.742	0.732	732.1	0back	Block1	0back/STIM_004.jpg	99
516.332	0.533	533.1	0back	Block1	0back/STIM_004.jpg	99
519.432	0.609	609.4	0back	Block1	0back/STIM_004.jpg	100
523.506	0.436	436.3	0back	Block1	0back/STIM_005.jpg	100
526.425	0.611	611.2	0back	Block1	0back/STIM_005.jpg	99
529.568	0.685	684.7	0back	Block1	0back/STIM_005.jpg	99
532.735	0.449	448.8	0back	Block1	0back/STIM_006.jpg	99
537.168	0.724	724.4	0back	Block1	0back/STIM_006.jpg	99
540.694	0.47	470.5	0back	Block1	0back/STIM_006.jpg	99
543.546	0.467	466.8	0back	Block1	0back/STIM_007.jpg	100
546.319	0.587	587.0	0back	Block1	0back/STIM_007.jpg	99
549.254	0.503	503.2	0back	Block1	0back/STIM_007.jpg	99
552.599	0.554	553.9	0back	Block1	0back/STIM_008.jpg	100
556.693	0.747	746.8	0back	Block1	0back/STIM_008.jpg	99
559.943	0.45	450.1	0back	Block1	0back/STIM_008.jpg	99
564.221	0.594	593.9	0back	Block1	0back/STIM_009.jpg	99
568.363	0.581	580.7	0back	Block1	0back/STIM_009.jpg	100
572.379	0.652	651.9	0back	Block1	0back/STIM_009.jpg	100
575.33	0.387	387.1	0back	Block1	0back/STIM_010.jpg	99
579.641	0.532	531.9	0back	Block1	0back/STIM_010.jpg	99
583.153	0.639	638.9	0back	Block1	0back/STIM_010.jpg	99
586.708	0.756	756.2	0back	Block1	0back/STIM_011.jpg	100
589.925	0.552	551.9	0back	Block1	0back/STIM_011.jpg	99
592.507	0.555	555.2	0back	Block1	0back/STIM_011.jpg	99
595.216	0.764	763.9	0back	Block1	0back/STIM_012.jpg	99
599.14	0.386	385.8	0back	Block1	0back/STIM_012.jpg	99
602.012	0.555	555.3	0back	Block1	0back/STIM_012.jpg	99
605.476	0.463	462.9	0back	Block1	0back/STIM_013.jpg	100
608.946	0.568	568.3	0back	Block1	0back/STIM_013.jpg	100
612.649	0.496	495.6	0back	Block1	0back/STIM_013.jpg	99
615.664	0.746	745.9	0back	Block1	0back/STIM_014.jpg	99
619.918	0.587	587.2	0back	Block1	0back/STIM_014.jpg	99
623.191	0.6	600.5	0back	Block1	0back/STIM_014.jpg	99
626.305	0.687	687.1	0back	Block1	0back/STIM_015.jpg	100
630.765	0.508	508.2	0back	Block1	0back/STIM_015.jpg	99
634.324	0.708	708.2	0back	Block1	0back/STIM_015.jpg	100
638.464	0.636	635.5	0back	Block1	0back/STIM_016.jpg	100
642.802	0.66	659.9	0back	Block1	0back/STIM_016.jpg	99
646.274	0.628	627.6	0back	Block1	0back/STIM_016.jpg	99
650.869	0.546	546.4	0back	Block1	0back/STIM_017.jpg	100
653.811	0.735	734.7	0back	Block1	0back/STIM_017.jpg	99
658.55	0.704	704.5	0back	Block1	0back/STIM_017.jpg	100
662.95	0.519	518.8	0back	Block1	0back/STIM_018.jpg	99
666.291	0.468	468.3	0back	Block1	0back/STIM_018.jpg	100
669.564	0.674	674.0	0back	Block1	0back/STIM_018.jpg	100
672.672	0.488	488.3	0back	Block1	0back/STIM_019.jpg	99
676.146	0.752	751.6	0back	Block1	0back/STIM_019.jpg	100
679.314	0.659	658.7	0back	Block1	0back/STIM_019.jpg	100
683.361	1.088	1087.5	2back	Block2	2back/STIM_000.jpg	99
687.708	0.474	474.3	2back	Block2	2back/STIM_000.jpg	100
691.969	0.654	653.7	2back	Block2	2back/STIM_000.jpg	99
696.275	0.756	756.3	2back	Block2	2back/STIM_001.jpg	100
700.532	0.682	682.0	2back	Block2	2back/STIM_001.jpg	100
703.48	0.63	629.8	2back	Block2	2back/STIM_001.jpg	99
706.282	1.034	1034.3	2back	Block2	2back/STIM_002.jpg	100
709.515	0.805	804.6	2back	Block2	2back/STIM_002.jpg	99
712.482	0.78	780.3	2back	Block2	2back/STIM_002.jpg	99
715.383	0.974	973.8	2back	Block2	2back/STIM_003.jpg	100
720.32	0.735	734.6	2back	Block2	2back/STIM_003.jpg	99
723.891	0.967	967.3	2back	Block2	2back/STIM_003.jpg	99
727.477	0.972	971.8	2back	Block2	2back/STIM_004.jpg	100
731.728	0.837	837.3	2back	Block2	2back/STIM_004.jpg	100
735.256	0.44	440.3	2back	Block2	2back/STIM_004.jpg	100
738.476	0.943	943.0	2back	Block2	2back/STIM_005.jpg	99
742.71	0.557	557.1	2back	Block2	2back/STIM_005.jpg	99
745.794	0.936	935.7	2back	Block2	2back/STIM_005.jpg	100
750.563	0.724	723.6	2back	Block2	2back/STIM_006.jpg	99
754.189	0.742	741.7	2back	Block2	2back/STIM_006.jpg	99
758.139	0.867	866.9	2back	Block2	2back/STIM_006.jpg	99
762.355	0.987	987.1	2back	Block2	2back/STIM_007.jpg	100
765.817	0.904	903.6	2back	Block2	2back/STIM_007.jpg	100
769.38	0.623	622.9	2back	Block2	2back/STIM_007.jpg	100
773.521	0.994	993.6	2back	Block2	2back/STIM_008.jpg	100
777.682	0.501	500.9	2back	Block2	2back/STIM_008.jpg	99
780.249	0.905	905.1	2back	Block2	2back/STIM_008.jpg	99
784.448	0.716	715.9	2back	Block2	2back/STIM_009.jpg	99
787.383	0.72	719.9	2back	Block2	2back/STIM_009.jpg	100
791.93	0.946	946.2	2back	Block2	2back/STIM_009.jpg	99
794.959	0.774	774.2	2back	Block2	2back/STIM_010.jpg	99
799.474	0.813	813.0	2back	Block2	2back/STIM_010.jpg	100
804.294	0.816	816.3	2back	Block2	2back/STIM_010.jpg	99
807.211	0.896	895.9	2back	Block2	2back/STIM_011.jpg	100
811.458	0.895	894.9	2back	Block2	2back/STIM_011.jpg	100
815.695	0.458	457.8	2back	Block2	2back/STIM_011.jpg	99
819.217	0.76	759.8	2back	Block2	2back/STIM_012.jpg	100
822.755	0.997	996.6	2back	Block2	2back/STIM_012.jpg	100
826.738	0.941	941.3	2back	Block2	2back/STIM_012.jpg	99
829.827	0.654	654.4	2back	Block2	2back/STIM_013.jpg	100
833.277	0.912	911.6	2back	Block2	2back/STIM_013.jpg	99
836.727	0.735	735.3	2back	Block2	2back/STIM_013.jpg	100
840.881	1.027	1027.0	2back	Block2	2back/STIM_014.jpg	100
845.687	0.666	665.5	2back	Block2	2back/STIM_014.jpg	99
849.505	0.783	782.8	2back	Block2	2back/STIM_014.jpg	100
854.171	0.572	572.4	2back	Block2	2back/STIM_015.jpg	99
858.514	0.95	950.1	2back	Block2	2back/STIM_015.jpg	99
862.224	0.83	829.6	2back	Block2	2back/STIM_015.jpg	99
866.11	0.502	501.9	2back	Block2	2back/STIM_016.jpg	100
870.599	0.969	968.8	2back	Block2	2back/STIM_016.jpg	100
873.717	0.94	939.5	2back	Block2	2back/STIM_016.jpg	100
877.969	1.1	1099.6	2back	Block2	2back/STIM_017.jpg	100
882.99	0.846	846.2	2back	Block2	2back/STIM_017.jpg	99
886.259	0.52	520.3	2back	Block2	2back/STIM_017.jpg	100
890.742	0.962	961.7	2back	Block2	2back/STIM_018.jpg	99
894.038	1.057	1057.2	2back	Block2	2back/STIM_018.jpg	99
898.191	0.847	847.2	2back	Block2	2back/STIM_018.jpg	100
901.454	0.833	833.4	2back	Block2	2back/STIM_019.jpg	100
905.494	0.604	603.6	2back	Block2	2back/STIM_019.jpg	100
908.57	0.741	740.7	2back	Block2	2back/STIM_019.jpg	100
912.01	0.86	860.3	2back	Block2	2back/STIM_020.jpg	99
915.506	0.642	642.0	2back	Block2	2back/STIM_020.jpg	100
918.902	0.808	807.9	2back	Block2	2back/STIM_020.jpg	100
922.002	0.715	715.1	2back	Block2	2back/STIM_021.jpg	100
926.295	0.646	645.8	2back	Block2	2back/STIM_021.jpg	99
929.597	0.589	589.3	2back	Block2	2back/STIM_021.jpg	99
934.151	0.99	990.4	2back	Block2	2back/STIM_022.jpg	99
937.722	0.501	501.2	2back	Block2	2back/STIM_022.jpg	100
941.938	0.6	599.6	2back	Block2	2back/STIM_022.jpg	99
944.926	0.824	823.7	2back	Block2	2back/STIM_023.jpg	99
947.823	0.874	874.3	2back	Block2	2back/STIM_023.jpg	99
950.881	0.835	834.6	2back	Block2	2back/STIM_023.jpg	100
954.515	1.08	1080.4	2back	Block2	2back/STIM_024.jpg	99
958.513	0.921	920.7	2back	Block2	2back/STIM_024.jpg	100
962.768	0.509	509.1	2back	Block2	2back/STIM_024.jpg	100
966.192	1.088	1088.3	2back	Block2	2back/STIM_025.jpg	99
970.003	0.858	858.3	2back	Block2	2back/STIM_025.jpg	99
974.241	0.753	753.4	2back	Block2	2back/STIM_025.jpg	100
978.788	1.045	1045.0	2back	Block2	2back/STIM_026.jpg	100
982.112	1.004	1004.4	2back	Block2	2back/STIM_026.jpg	100
985.457	0.89	889.5	2back	Block2	2back/STIM_026.jpg	99
989.237	0.926	926.2	2back	Block2	2back/STIM_027.jpg	99
992.815	0.573	573.4	2back	Block2	2back/STIM_027.jpg	99
996.668	0.682	681.6	2back	Block2	2back/STIM_027.jpg	99
1000.302	0.753	753.3	2back	Block2	2back/STIM_028.jpg	100
1004.839	0.947	947.2	2back	Block2	2back/STIM_028.jpg	99
1009.609	0.596	596.5	2back	Block2	2back/STIM_028.jpg	99
1013.281	0.984	984.3	2back	Block2	2back/STIM_029.jpg	100
1017.256	0.822	821.7	2back	Block2	2back/STIM_029.jpg	100
1020.189	0.964	964.0	2back	Block2	2back/STIM_029.jpg	100
1024.689	1.098	1097.8	2back	Block2	2back/STIM_030.jpg	99
1029.059	0.963	962.6	2back	Block2	2back/STIM_030.jpg	99
1032.63	0.715	715.4	2back	Block2	2back/STIM_030.jpg	99
1035.886	1.137	1137.4	2back	Block2	2back/STIM_031.jpg	100
1040.495	0.643	642.9	2back	Block2	2back/STIM_031.jpg	99
1043.286	0.644	644.3	2back	Block2	2back/STIM_031.jpg	100
1047.779	0.954	954.2	2back	Block2	2back/STIM_032.jpg	99
1052.769	0.627	626.7	2back	Block2	2back/STIM_032.jpg	99
1055.989	0.511	510.8	2back	Block2	2back/STIM_032.jpg	100
1058.972	0.675	674.6	2back	Block2	2back/STIM_033.jpg	100
1061.963	1.0	1000.4	2back	Block2	2back/STIM_033.jpg	99
1065.241	0.507	507.4	2back	Block2	2back/STIM_033.jpg	99
1068.755	0.544	544.0	2back	Block2	2back/STIM_034.jpg	99
1072.337	0.712	712.4	2back	Block2	2back/STIM_034.jpg	99
1076.015	0.668	668.3	2back	Block2	2back/STIM_034.jpg	100
1080.605	0.824	823.5	2back	Block2	2back/STIM_035.jpg	99
1085.418	1.011	1011.2	2back	Block2	2back/STIM_035.jpg	99
1088.894	0.632	632.1	2back	Block2	2back/STIM_035.jpg	100
1092.748	0.777	777.3	2back	Block2	2back/STIM_036.jpg	99
1095.94	0.735	735.2	2back	Block2	2back/STIM_036.jpg	100
1100.104	0.58	580.0	2back	Block2	2back/STIM_036.jpg	99
1103.124	0.812	811.7	2back	Block2	2back/STIM_037.jpg	99
1107.528	0.911	911.2	2back	Block2	2back/STIM_037.jpg	99
1111.291	0.699	699.1	2back	Block2	2back/STIM_037.jpg	99
1114.518	0.538	537.8	2back	Block2	2back/STIM_038.jpg	100
1118.313	0.841	840.6	2back	Block2	2back/STIM_038.jpg	99
1122.212	0.593	593.4	2back	Block2	2back/STIM_038.jpg	99
1125.631	0.542	541.6	2back	Block2	2back/STIM_039.jpg	100
1130.032	0.786	785.5	2back	Block2	2back/STIM_039.jpg	99
1133.787	0.801	801.3	2back	Block2	2back/STIM_039.jpg	100
1138.048	0.676	676.0	0back	Block2	0back/STIM_000.jpg	99
1141.028	0.49	490.5	0back	Block2	0back/STIM_000.jpg	99
1144.097	0.585	585.4	0back	Block2	0back/STIM_000.jpg	99
1148.699	0.431	431.3	0back	Block2	0back/STIM_001.jpg	99
1151.612	0.578	578.3	0back	Block2	0back/STIM_001.jpg	100
1155.279	0.708	707.9	0back	Block2	0back/STIM_001.jpg	100
1158.042	0.676	676.0	0back	Block2	0back/STIM_002.jpg	99
1161.748	0.495	495.3	0back	Block2	0back/STIM_002.jpg	100
1166.104	0.591	590.9	0back	Block2	0back/STIM_002.jpg	100
1169.929	0.456	456.2	0back	Block2	0back/STIM_003.jpg	100
1174.323	0.607	607.2	0back	Block2	0back/STIM_003.jpg	100
1178.432	0.513	513.0	0back	Block2	0back/STIM_003.jpg	99
1182.59	0.536	535.5	0back	Block2	0back/STIM_004.jpg	100
1186.065	0.517	517.2	0back	Block2	0back/STIM_004.jpg	100
1188.781	0.648	648.2	0back	Block2	0back/STIM_004.jpg	99
1191.996	0.545	544.6	0back	Block2	0back/STIM_005.jpg	100
1195.417	0.51	509.8	0back	Block2	0back/STIM_005.jpg	100
1199.087	0.643	643.0	0back	Block2	0back/STIM_005.jpg	99
1203.014	0.627	627.2	0back	Block2	0back/STIM_006.jpg	100
1207.214	0.683	683.1	0back	Block2	0back/STIM_006.jpg	100
1210.658	0.559	559.1	0back	Block2	0back/STIM_006.jpg	99
1215.054	0.456	455.7	0back	Block2	0back/STIM_007.jpg	99
1217.824	0.689	689.3	0back	Block2	0back/STIM_007.jpg	99
1222.007	0.703	703.4	0back	Block2	0back/STIM_007.jpg	99
1225.11	0.438	438.0	0back	Block2	0back/STIM_008.jpg	99
1229.236	0.501	501.3	0back	Block2	0back/STIM_008.jpg	100
1233.665	0.592	592.0	0back	Block2	0back/STIM_008.jpg	100
1237.356	0.698	698.0	0back	Block2	0back/STIM_009.jpg	99
1240.519	0.57	570.0	0back	Block2	0back/STIM_009.jpg	99
1243.512	0.457	457.2	0back	Block2	0back/STIM_009.jpg	100
1246.4	0.743	743.1	0back	Block2	0back/STIM_010.jpg	100
1250.42	0.611	610.7	0back	Block2	0back/STIM_010.jpg	100
1254.187	0.521	520.9	0back	Block2	0back/STIM_010.jpg	99
1257.499	0.651	651.3	0back	Block2	0back/STIM_011.jpg	100
1262.049	0.7	699.8	0back	Block2	0back/STIM_011.jpg	100
1266.457	0.756	755.6	0back	Block2	0back/STIM_011.jpg	100
1269.982	0.643	642.6	0back	Block2	0back/STIM_012.jpg	100
1274.475	0.731	731.0	0back	Block2	0back/STIM_012.jpg	100
1278.285	0.488	488.3	0back	Block2	0back/STIM_012.jpg	99
1281.861	0.534	533.9	0back	Block2	0back/STIM_013.jpg	100
1285.719	0.419	419.2	0back	Block2	0back/STIM_013.jpg	100
1288.628	0.407	406.8	0back	Block2	0back/STIM_013.jpg	100
1292.33	0.728	727.7	0back	Block2	0back/STIM_014.jpg	99
1295.687	0.671	671.3	0back	Block2	0back/STIM_014.jpg	99
1300.103	0.749	748.7	0back	Block2	0back/STIM_014.jpg	100
1303.836	0.496	495.5	0back	Block2	0back/STIM_015.jpg	99
1306.832	0.635	634.8	0back	Block2	0back/STIM_015.jpg	100
1309.578	0.744	743.5	0back	Block2	0back/STIM_015.jpg	99
1314.047	0.676	676.5	0back	Block2	0back/STIM_016.jpg	100
1318.522	0.522	522.1	0back	Block2	0back/STIM_016.jpg	99
1321.415	0.737	736.8	0back	Block2	0back/STIM_016.jpg	99
1324.59	0.603	603.4	0back	Block2	0back/STIM_017.jpg	99
1327.478	0.694	694.4	0back	Block2	0back/STIM_017.jpg	100
1332.077	0.57	570.5	0back	Block2	0back/STIM_017.jpg	99
1334.814	0.464	464.2	0back	Block2	0back/STIM_018.jpg	100
1338.512	0.652	652.1	0back	Block2	0back/STIM_018.jpg	100
1342.132	0.762	762.2	0back	Block2	0back/STIM_018.jpg	100
1344.992	0.739	738.7	0back	Block2	0back/STIM_019.jpg	99
1349.612	0.622	622.4	0back	Block2	0back/STIM_019.jpg	100
1352.858	0.703	703.3	0back	Block2	0back/STIM_019.jpg	99
1355.817	0.554	554.2	2back	Block3	2back/STIM_000.jpg	100
1359.335	0.855	854.9	2back	Block3	2back/STIM_000.jpg	100
1362.643	0.728	728.5	2back	Block3	2back/STIM_000.jpg	100
1366.02	0.647	646.6	2back	Block3	2back/STIM_001.jpg	100
1369.25	0.518	517.6	2back	Block3	2back/STIM_001.jpg	99
1372.913	0.595	595.0	2back	Block3	2back/STIM_001.jpg	99
1376.948	0.868	868.1	2back	Block3	2back/STIM_002.jpg	99
1380.004	0.817	816.6	2back	Block3	2back/STIM_002.jpg	99
1384.73	0.451	451.2	2back	Block3	2back/STIM_002.jpg	100
1388.862	0.493	493.2	2back	Block3	2back/STIM_003.jpg	100
1392.032	0.627	627.4	2back	Block3	2back/STIM_003.jpg	100
1395.494	0.893	892.8	2back	Block3	2back/STIM_003.jpg	100
1398.665	0.586	585.9	2back	Block3	2back/STIM_004.jpg	99
1401.984	0.518	517.7	2back	Block3	2back/STIM_004.jpg	99
1405.171	0.793	792.7	2back	Block3	2back/STIM_004.jpg	99
1408.274	0.54	539.7	2back	Block3	2back/STIM_005.jpg	100
1411.472	0.591	591.1	2back	Block3	2back/STIM_005.jpg	100
1415.635	0.568	568.4	2back	Block3	2back/STIM_005.jpg	99
1418.547	0.542	542.4	2back	Block3	2back/STIM_006.jpg	99
1422.418	0.799	799.0	2back	Block3	2back/STIM_006.jpg	99
1427.131	0.458	458.2	2back	Block3	2back/STIM_006.jpg	100
1430.902	0.844	843.5	2back	Block3	2back/STIM_007.jpg	100
1435.369	0.83	830.0	2back	Block3	2back/STIM_007.jpg	100
1438.74	0.563	562.9	2back	Block3	2back/STIM_007.jpg	99
1442.815	0.583	583.2	2back	Block3	2back/STIM_008.jpg	100
1445.973	0.5	499.5	2back	Block3	2back/STIM_008.jpg	100
1449.878	0.729	729.4	2back	Block3	2back/STIM_008.jpg	100
1452.831	0.639	639.3	2back	Block3	2back/STIM_009.jpg	99
1456.924	0.488	487.7	2back	Block3	2back/STIM_009.jpg	100
1460.183	0.491	490.6	2back	Block3	2back/STIM_009.jpg	99
1463.279	0.654	653.5	2back	Block3	2back/STIM_010.jpg	100
1466.455	0.64	640.3	2back	Block3	2back/STIM_010.jpg	100
1470.068	0.869	868.6	2back	Block3	2back/STIM_010.jpg	99
1474.053	0.535	534.6	2back	Block3	2back/STIM_011.jpg	100
1477.066	0.933	932.6	2back	Block3	2back/STIM_011.jpg	100
1480.513	0.589	588.8	2back	Block3	2back/STIM_011.jpg	99
1484.846	0.657	657.1	2back	Block3	2back/STIM_012.jpg	99
1488.215	0.875	875.0	2back	Block3	2back/STIM_012.jpg	99
1492.459	0.846	845.6	2back	Block3	2back/STIM_012.jpg	99
1495.935	0.892	892.5	2back	Block3	2back/STIM_013.jpg	99
1499.138	0.581	581.2	2back	Block3	2back/STIM_013.jpg	99
1503.359	0.44	440.0	2back	Block3	2back/STIM_013.jpg	100
1507.213	0.552	551.6	2back	Block3	2back/STIM_014.jpg	100
1510.144	0.444	444.0	2back	Block3	2back/STIM_014.jpg	99
1513.926	0.444	444.0	2back	Block3	2back/STIM_014.jpg	100
1517.982	0.936	935.7	2back	Block3	2back/STIM_015.jpg	99
1522.579	0.577	576.7	2back	Block3	2back/STIM_015.jpg	100
1525.289	0.712	712.5	2back	Block3	2back/STIM_015.jpg	99
1529.304	0.444	444.3	2back	Block3	2back/STIM_016.jpg	100
1533.344	0.845	845.0	2back	Block3	2back/STIM_016.jpg	99
1536.595	0.751	751.3	2back	Block3	2back/STIM_016.jpg	100
1539.418	0.563	563.2	2back	Block3	2back/STIM_017.jpg	100
1543.547	0.414	414.0	2back	Block3	2back/STIM_017.jpg	100
1547.4	0.862	862.0	2back	Block3	2back/STIM_017.jpg	100
1550.618	0.432	432.1	2back	Block3	2back/STIM_018.jpg	100
1553.532	0.869	869.1	2back	Block3	2back/STIM_018.jpg	100
1558.004	0.84	840.5	2back	Block3	2back/STIM_018.jpg	99
1561.647	0.583	583.2	2back	Block3	2back/STIM_019.jpg	100
1564.277	0.863	863.1	2back	Block3	2back/STIM_019.jpg	100
1567.816	0.627	627.4	2back	Block3	2back/STIM_019.jpg	100
1570.667	0.553	553.4	2back	Block3	2back/STIM_020.jpg	100
1574.189	0.429	429.0	2back	Block3	2back/STIM_020.jpg	100
1576.801	0.931	930.8	2back	Block3	2back/STIM_020.jpg	100
1581.399	0.78	780.4	2back	Block3	2back/STIM_021.jpg	99
1585.795	0.439	438.6	2back	Block3	2back/STIM_021.jpg	99
1588.849	0.454	453.6	2back	Block3	2back/STIM_021.jpg	99
1593.314	0.904	904.2	2back	Block3	2back/STIM_022.jpg	99
1597.603	0.838	838.1	2back	Block3	2back/STIM_022.jpg	99
1602.09	0.866	865.9	2back	Block3	2back/STIM_022.jpg	99
1605.261	0.47	469.8	2back	Block3	2back/STIM_023.jpg	99
1609.325	0.791	790.9	2back	Block3	2back/STIM_023.jpg	100
1612.516	0.655	655.0	2back	Block3	2back/STIM_023.jpg	99
1616.758	0.687	686.7	2back	Block3	2back/STIM_024.jpg	99
1621.457	0.888	888.0	2back	Block3	2back/STIM_024.jpg	99
1625.499	0.532	531.8	2back	Block3	2back/STIM_024.jpg	99
1628.288	0.636	636.0	2back	Block3	2back/STIM_025.jpg	100
1631.191	0.512	511.8	2back	Block3	2back/STIM_025.jpg	99
1635.278	0.606	605.6	2back	Block3	2back/STIM_025.jpg	99
1638.242	0.62	619.7	2back	Block3	2back/STIM_026.jpg	100
1641.211	0.764	763.8	2back	Block3	2back/STIM_026.jpg	99
1645.2	0.477	476.7	2back	Block3	2back/STIM_026.jpg	100
1648.516	0.848	848.2	2back	Block3	2back/STIM_027.jpg	99
1651.605	0.919	919.4	2back	Block3	2back/STIM_027.jpg	99
1656.502	0.423	423.0	2back	Block3	2back/STIM_027.jpg	99
1660.008	0.646	646.0	2back	Block3	2back/STIM_028.jpg	100
1664.476	0.518	518.3	2back	Block3	2back/STIM_028.jpg	100
1668.253	0.924	924.4	2back	Block3	2back/STIM_028.jpg	99
1671.911	0.489	489.2	2back	Block3	2back/STIM_029.jpg	99
1674.476	0.676	675.8	2back	Block3	2back/STIM_029.jpg	99
1678.772	0.464	464.1	2back	Block3	2back/STIM_029.jpg	100
1682.05	0.736	736.2	2back	Block3	2back/STIM_030.jpg	100
1686.719	0.596	596.4	2back	Block3	2back/STIM_030.jpg	100
1690.036	0.792	792.0	2back	Block3	2back/STIM_030.jpg	100
1694.01	0.89	889.7	2back	Block3	2back/STIM_031.jpg	99
1698.283	0.724	723.9	2back	Block3	2back/STIM_031.jpg	100
1701.974	0.584	583.8	2back	Block3	2back/STIM_031.jpg	99
1706.008	0.558	557.7	2back	Block3	2back/STIM_032.jpg	100
1709.987	0.743	743.3	2back	Block3	2back/STIM_032.jpg	100
1714.155	0.476	476.4	2back	Block3	2back/STIM_032.jpg	100
1718.311	0.417	416.9	2back	Block3	2back/STIM_033.jpg	99
1721.398	0.512	512.4	2back	Block3	2back/STIM_033.jpg	99
1724.055	0.838	837.6	2back	Block3	2back/STIM_033.jpg	100
1727.574	0.48	479.8	2back	Block3	2back/STIM_034.jpg	100
1731.884	0.458	457.7	2back	Block3	2back/STIM_034.jpg	100
1735.213	0.825	825.1	2back	Block3	2back/STIM_034.jpg	100
1739.363	0.906	905.5	2back	Block3	2back/STIM_035.jpg	100
1742.418	0.904	903.7	2back	Block3	2back/STIM_035.jpg	99
1745.564	0.78	780.0	2back	Block3	2back/STIM_035.jpg	99
1749.487	0.498	497.6	2back	Block3	2back/STIM_036.jpg	99
1753.541	0.688	688.5	2back	Block3	2back/STIM_036.jpg	100
1756.71	0.454	454.3	2back	Block3	2back/STIM_036.jpg	100
1760.015	0.786	786.0	2back	Block3	2back/STIM_037.jpg	100
1763.678	0.887	887.4	2back	Block3	2back/STIM_037.jpg	99
1766.965	0.436	436.1	2back	Block3	2back/STIM_037.jpg	99
1769.497	0.759	758.6	2back	Block3	2back/STIM_038.jpg	99
1773.08	0.673	672.6	2back	Block3	2back/STIM_038.jpg	100
1777.604	0.908	907.6	2back	Block3	2back/STIM_038.jpg	100
1780.882	0.495	495.4	2back	Block3	2back/STIM_039.jpg	99
1784.049	0.934	934.0	2back	Block3	2back/STIM_039.jpg	99
1788.606	0.49	489.9	2back	Block3	2back/STIM_039.jpg	100
1793.064	0.651	651.3	0back	Block3	0back/STIM_000.jpg	99
1796.109	0.491	490.6	0back	Block3	0back/STIM_000.jpg	100
1798.733	0.406	406.3	0back	Block3	0back/STIM_000.jpg	100
1802.238	0.404	403.6	0back	Block3	0back/STIM_001.jpg	100
1804.668	0.393	392.6	0back	Block3	0back/STIM_001.jpg	99
1807.634	0.551	550.7	0back	Block3	0back/STIM_001.jpg	100
1811.77	0.618	617.5	0back	Block3	0back/STIM_002.jpg	99
1815.686	0.568	567.8	0back	Block3	0back/STIM_002.jpg	100
1818.621	0.723	722.6	0back	Block3	0back/STIM_002.jpg	100
1822.36	0.579	579.3	0back	Block3	0back/STIM_003.jpg	99
1825.724	0.537	536.7	0back	Block3	0back/STIM_003.jpg	100
1829.111	0.47	469.6	0back	Block3	0back/STIM_003.jpg	100
1832.499	0.458	458.5	0back	Block3	0back/STIM_004.jpg	99
1835.9	0.486	486.0	0back	Block3	0back/STIM_004.jpg	100
1838.939	0.583	582.9	0back	Block3	0back/STIM_004.jpg	99
1842.294	0.679	679.4	0back	Block3	0back/STIM_005.jpg	100
1845.049	0.634	633.9	0back	Block3	0back/STIM_005.jpg	100
1849.614	0.59	589.7	0back	Block3	0back/STIM_005.jpg	100
1854.166	0.587	586.8	0back	Block3	0back/STIM_006.jpg	99
1858.098	0.761	760.7	0back	Block3	0back/STIM_006.jpg	99
1862.864	0.685	685.3	0back	Block3	0back/STIM_006.jpg	100
1866.023	0.741	740.6	0back	Block3	0back/STIM_007.jpg	99
1869.399	0.477	477.0	0back	Block3	0back/STIM_007.jpg	100
1872.177	0.53	530.0	0back	Block3	0back/STIM_007.jpg	100
1875.852	0.489	488.6	0back	Block3	0back/STIM_008.jpg	100
1878.825	0.665	664.9	0back	Block3	0back/STIM_008.jpg	99
1883.133	0.726	726.5	0back	Block3	0back/STIM_008.jpg	100
1887.15	0.61	609.7	0back	Block3	0back/STIM_009.jpg	99
1890.562	0.501	500.6	0back	Block3	0back/STIM_009.jpg	99
1895.085	0.552	552.1	0back	Block3	0back/STIM_009.jpg	100
1898.786	0.542	542.3	0back	Block3	0back/STIM_010.jpg	99
1903.145	0.684	684.3	0back	Block3	0back/STIM_010.jpg	100
1906.967	0.753	752.7	0back	Block3	0back/STIM_010.jpg	99
1909.821	0.703	702.8	0back	Block3	0back/STIM_011.jpg	100
1912.948	0.504	504.5	0back	Block3	0back/STIM_011.jpg	99
1917.274	0.641	640.6	0back	Block3	0back/STIM_011.jpg	99
1920.954	0.7	700.1	0back	Block3	0back/STIM_012.jpg	99
1923.823	0.622	622.4	0back	Block3	0back/STIM_012.jpg	99
1927.793	0.62	620.5	0back	Block3	0back/STIM_012.jpg	100
1931.312	0.462	461.8	0back	Block3	0back/STIM_013.jpg	100
1934.98	0.545	545.4	0back	Block3	0back/STIM_013.jpg	100
1939.066	0.629	628.8	0back	Block3	0back/STIM_013.jpg	100
1943.167	0.514	513.9	0back	Block3	0back/STIM_014.jpg	99
1946.211	0.703	702.6	0back	Block3	0back/STIM_014.jpg	100
1949.643	0.629	629.2	0back	Block3	0back/STIM_014.jpg	100
1952.428	0.387	387.4	0back	Block3	0back/STIM_015.jpg	100
1956.018	0.493	493.3	0back	Block3	0back/STIM_015.jpg	99
1960.093	0.614	613.6	0back	Block3	0back/STIM_015.jpg	99
1964.343	0.414	413.6	0back	Block3	0back/STIM_016.jpg	100
1968.572	0.758	757.5	0back	Block3	0back/STIM_016.jpg	100
1972.348	0.709	709.0	0back	Block3	0back/STIM_016.jpg	99
1976.398	0.526	526.5	0back	Block3	0back/STIM_017.jpg	100
1979.864	0.6	600.3	0back	Block3	0back/STIM_017.jpg	100
1984.283	0.658	657.8	0back	Block3	0back/STIM_017.jpg	100
1987.14	0.733	733.4	0back	Block3	0back/STIM_018.jpg	99
1990.178	0.569	568.7	0back	Block3	0back/STIM_018.jpg	99
1994.543	0.529	529.3	0back	Block3	0back/STIM_018.jpg	99
1999.031	0.726	726.0	0back	Block3	0back/STIM_019.jpg	100
2002.752	0.422	421.8	0back	Block3	0back/STIM_019.jpg	100
2005.618	0.561	561.4	0back	Block3	0back/STIM_019.jpg	100
2009.428	0.818	818.3	2back	Block4	2back/STIM_000.jpg	100
2013.355	0.588	588.3	2back	Block4	2back/STIM_000.jpg	99
2017.009	0.901	900.9	2back	Block4	2back/STIM_000.jpg	99
2021.479	0.572	571.8	2back	Block4	2back/STIM_001.jpg	99
2026.043	0.848	847.6	2back	Block4	2back/STIM_001.jpg	99
2029.663	0.47	469.9	2back	Block4	2back/STIM_001.jpg	100
2032.877	0.892	891.9	2back	Block4	2back/STIM_002.jpg	100
2037.537	0.742	742.2	2back	Block4	2back/STIM_002.jpg	100
2040.709	0.6	600.2	2back	Block4	2back/STIM_002.jpg	100
2044.671	0.916	916.4	2back	Block4	2back/STIM_003.jpg	100
2049.461	0.564	564.3	2back	Block4	2back/STIM_003.jpg	99
2053.2	0.559	559.4	2back	Block4	2back/STIM_003.jpg	99
2056.312	0.516	515.8	2back	Block4	2back/STIM_004.jpg	99
2059.353	0.635	635.1	2back	Block4	2back/STIM_004.jpg	100
2062.187	0.496	496.0	2back	Block4	2back/STIM_004.jpg	99
2066.067	0.467	467.0	2back	Block4	2back/STIM_005.jpg	99
2069.381	0.745	745.4	2back	Block4	2back/STIM_005.jpg	99
2074.066	0.646	645.5	2back	Block4	2back/STIM_005.jpg	99
2077.35	0.575	574.6	2back	Block4	2back/STIM_006.jpg	99
2079.97	0.736	736.3	2back	Block4	2back/STIM_006.jpg	100
2083.884	0.885	885.2	2back	Block4	2back/STIM_006.jpg	99
2088.178	0.577	576.6	2back	Block4	2back/STIM_007.jpg	99
2090.898	0.665	665.3	2back	Block4	2back/STIM_007.jpg	100
2095.299	0.724	724.5	2back	Block4	2back/STIM_007.jpg	100
2099.069	0.689	688.7	2back	Block4	2back/STIM_008.jpg	99
2102.717	0.783	782.6	2back	Block4	2back/STIM_008.jpg	100
2106.208	0.616	616.2	2back	Block4	2back/STIM_008.jpg	99
2110.781	0.911	910.9	2back	Block4	2back/STIM_009.jpg	100
2115.213	0.915	915.3	2back	Block4	2back/STIM_009.jpg	100
2118.775	0.494	493.8	2back	Block4	2back/STIM_009.jpg	99
2121.638	0.677	677.0	2back	Block4	2back/STIM_010.jpg	99
2125.43	0.72	719.5	2back	Block4	2back/STIM_010.jpg	100
2128.686	0.801	800.7	2back	Block4	2back/STIM_010.jpg	99
2131.951	0.751	750.9	2back	Block4	2back/STIM_011.jpg	99
2135.988	0.886	886.1	2back	Block4	2back/STIM_011.jpg	99
2139.541	0.556	555.8	2back	Block4	2back/STIM_011.jpg	100
2142.894	0.748	748.2	2back	Block4	2back/STIM_012.jpg	99
2146.623	0.465	465.4	2back	Block4	2back/STIM_012.jpg	99
2149.556	0.775	775.3	2back	Block4	2back/STIM_012.jpg	100
2153.479	0.653	653.2	2back	Block4	2back/STIM_013.jpg	100
2157.415	0.797	796.9	2back	Block4	2back/STIM_013.jpg	100
2161.071	0.523	522.9	2back	Block4	2back/STIM_013.jpg	100
2165.316	0.935	935.0	2back	Block4	2back/STIM_014.jpg	100
2169.892	0.443	442.6	2back	Block4	2back/STIM_014.jpg	99
2173.278	0.672	672.0	2back	Block4	2back/STIM_014.jpg	100
2176.997	0.717	716.7	2back	Block4	2back/STIM_015.jpg	100
2180.962	0.414	413.5	2back	Block4	2back/STIM_015.jpg	100
2184.739	0.526	525.5	2back	Block4	2back/STIM_015.jpg	99
2188.93	0.537	537.0	2back	Block4	2back/STIM_016.jpg	99
2192.528	0.93	929.7	2back	Block4	2back/STIM_016.jpg	100
2196.848	0.547	546.9	2back	Block4	2back/STIM_016.jpg	99
2199.805	0.467	466.9	2back	Block4	2back/STIM_017.jpg	100
2203.996	0.911	910.9	2back	Block4	2back/STIM_017.jpg	100
2208.661	0.864	864.5	2back	Block4	2back/STIM_017.jpg	100
2212.594	0.869	868.6	2back	Block4	2back/STIM_018.jpg	100
2216.504	0.919	919.0	2back	Block4	2back/STIM_018.jpg	99
2220.065	0.407	406.9	2back	Block4	2back/STIM_018.jpg	100
2223.703	0.777	776.6	2back	Block4	2back/STIM_019.jpg	100
2227.247	0.472	471.8	2back	Block4	2back/STIM_019.jpg	99
2231.526	0.843	842.7	2back	Block4	2back/STIM_019.jpg	100
2235.857	0.808	807.8	2back	Block4	2back/STIM_020.jpg	99
2239.057	0.773	773.0	2back	Block4	2back/STIM_020.jpg	100
2242.716	0.434	433.6	2back	Block4	2back/STIM_020.jpg	100
2246.455	0.627	627.4	2back	Block4	2back/STIM_021.jpg	100
2249.393	0.732	732.5	2back	Block4	2back/STIM_021.jpg	99
2254.158	0.422	422.4	2back	Block4	2back/STIM_021.jpg	99
2257.304	0.578	578.4	2back	Block4	2back/STIM_022.jpg	99
2260.996	0.82	820.1	2back	Block4	2back/STIM_022.jpg	100
2265.245	0.863	863.2	2back	Block4	2back/STIM_022.jpg	99
2269.431	0.627	627.1	2back	Block4	2back/STIM_023.jpg	99
2273.242	0.902	901.6	2back	Block4	2back/STIM_023.jpg	99
2277.045	0.594	594.2	2back	Block4	2back/STIM_023.jpg	99
2281.161	0.777	777.4	2back	Block4	2back/STIM_024.jpg	99
2284.071	0.443	443.0	2back	Block4	2back/STIM_024.jpg	99
2287.435	0.72	720.1	2back	Block4	2back/STIM_024.jpg	100
2291.913	0.501	501.0	2back	Block4	2back/STIM_025.jpg	99
2296.103	0.857	857.4	2back	Block4	2back/STIM_025.jpg	99
2300.637	0.83	830.4	2back	Block4	2back/STIM_025.jpg	100
2305.455	0.574	574.1	2back	Block4	2back/STIM_026.jpg	99
2308.563	0.688	688.3	2back	Block4	2back/STIM_026.jpg	99
2312.385	0.656	656.2	2back	Block4	2back/STIM_026.jpg	99
2315.513	0.661	660.7	2back	Block4	2back/STIM_027.jpg	99
2319.094	0.74	740.5	2back	Block4	2back/STIM_027.jpg	100
2322.02	0.612	612.0	2back	Block4	2back/STIM_027.jpg	100
2326.644	0.916	916.2	2back	Block4	2back/STIM_028.jpg	100
2330.276	0.79	790.3	2back	Block4	2back/STIM_028.jpg	99
2334.679	0.586	586.4	2back	Block4	2back/STIM_028.jpg	100
2338.226	0.628	628.1	2back	Block4	2back/STIM_029.jpg	100
2342.608	0.631	631.3	2back	Block4	2back/STIM_029.jpg	99
2347.11	0.72	720.1	2back	Block4	2back/STIM_029.jpg	99
2349.932	0.78	779.5	2back	Block4	2back/STIM_030.jpg	99
2354.257	0.62	619.6	2back	Block4	2back/STIM_030.jpg	99
2357.217	0.874	874.1	2back	Block4	2back/STIM_030.jpg	99
2360.801	0.514	514.5	2back	Block4	2back/STIM_031.jpg	99
2364.6	0.926	926.1	2back	Block4	2back/STIM_031.jpg	99
2368.893	0.811	811.4	2back	Block4	2back/STIM_031.jpg	100
2372.63	0.422	422.3	2back	Block4	2back/STIM_032.jpg	99
2376.84	0.884	884.2	2back	Block4	2back/STIM_032.jpg	100
2381.151	0.901	900.7	2back	Block4	2back/STIM_032.jpg	100
2385.101	0.487	486.8	2back	Block4	2back/STIM_033.jpg	99
2387.848	0.863	862.6	2back	Block4	2back/STIM_033.jpg	99
2392.413	0.928	928.1	2back	Block4	2back/STIM_033.jpg	100
2396.666	0.643	642.6	2back	Block4	2back/STIM_034.jpg	99
2399.671	0.566	566.0	2back	Block4	2back/STIM_034.jpg	99
2402.719	0.437	436.7	2back	Block4	2back/STIM_034.jpg	100
2406.573	0.776	775.6	2back	Block4	2back/STIM_035.jpg	99
2410.143	0.883	883.4	2back	Block4	2back/STIM_035.jpg	100
2413.127	0.486	485.6	2back	Block4	2back/STIM_035.jpg	100
2415.711	0.803	803.1	2back	Block4	2back/STIM_036.jpg	99
2419.909	0.409	408.9	2back	Block4	2back/STIM_036.jpg	99
2422.351	0.927	926.8	2back	Block4	2back/STIM_036.jpg	99
2427.236	0.496	496.3	2back	Block4	2back/STIM_037.jpg	99
2429.904	0.613	613.3	2back	Block4	2back/STIM_037.jpg	100
2433.579	0.873	872.7	2back	Block4	2back/STIM_037.jpg	99
2438.473	0.898	898.1	2back	Block4	2back/STIM_038.jpg	100
2442.289	0.553	553.0	2back	Block4	2back/STIM_038.jpg	100
2445.646	0.789	789.3	2back	Block4	2back/STIM_038.jpg	100
2449.203	0.9	900.5	2back	Block4	2back/STIM_039.jpg	100
2452.515	0.633	633.1	2back	Block4	2back/STIM_039.jpg	99
2455.897	0.848	848.5	2back	Block4	2back/STIM_039.jpg	100
2459.763	0.762	761.5	0back	Block4	0back/STIM_000.jpg	100
2464.185	0.693	692.7	0back	Block4	0back/STIM_000.jpg	100
2468.6	0.611	610.7	0back	Block4	0back/STIM_000.jpg	99
2471.612	0.466	465.8	0back	Block4	0back/STIM_001.jpg	99
2474.95	0.596	596.4	0back	Block4	0back/STIM_001.jpg	99
2477.938	0.728	728.1	0back	Block4	0back/STIM_001.jpg	99
2482.503	0.457	456.8	0back	Block4	0back/STIM_002.jpg	100
2486.604	0.448	448.1	0back	Block4	0back/STIM_002.jpg	100
2489.504	0.424	424.1	0back	Block4	0back/STIM_002.jpg	99
2493.549	0.558	558.1	0back	Block4	0back/STIM_003.jpg	100
2496.565	0.485	484.6	0back	Block4	0back/STIM_003.jpg	100
2500.456	0.644	644.0	0back	Block4	0back/STIM_003.jpg	99
2503.838	0.412	412.3	0back	Block4	0back/STIM_004.jpg	100
2507.151	0.478	477.8	0back	Block4	0back/STIM_004.jpg	100
2509.877	0.508	508.4	0back	Block4	0back/STIM_004.jpg	99
2513.311	0.421	421.0	0back	Block4	0back/STIM_005.jpg	100
2516.059	0.666	666.1	0back	Block4	0back/STIM_005.jpg	99
2519.081	0.518	518.2	0back	Block4	0back/STIM_005.jpg	100
2522.22	0.514	513.7	0back	Block4	0back/STIM_006.jpg	99
2526.653	0.466	466.5	0back	Block4	0back/STIM_006.jpg	99
2529.733	0.73	730.4	0back	Block4	0back/STIM_006.jpg	100
2533.737	0.532	531.9	0back	Block4	0back/STIM_007.jpg	100
2537.796	0.492	492.4	0back	Block4	0back/STIM_007.jpg	100
2541.401	0.742	741.6	0back	Block4	0back/STIM_007.jpg	99
2544.624	0.438	437.5	0back	Block4	0back/STIM_008.jpg	99
2547.362	0.661	661.1	0back	Block4	0back/STIM_008.jpg	100
2550.748	0.495	495.3	0back	Block4	0back/STIM_008.jpg	99
2554.465	0.476	475.7	0back	Block4	0back/STIM_009.jpg	100
2558.172	0.606	606.1	0back	Block4	0back/STIM_009.jpg	99
2561.639	0.692	692.3	0back	Block4	0back/STIM_009.jpg	100
2565.667	0.485	485.1	0back	Block4	0back/STIM_010.jpg	100
2569.178	0.435	435.1	0back	Block4	0back/STIM_010.jpg	99
2572.966	0.634	634.0	0back	Block4	0back/STIM_010.jpg	100
2577.23	0.735	735.1	0back	Block4	0back/STIM_011.jpg	100
2581.986	0.705	704.8	0back	Block4	0back/STIM_011.jpg	99
2586.581	0.565	565.0	0back	Block4	0back/STIM_011.jpg	100
2589.432	0.403	402.9	0back	Block4	0back/STIM_012.jpg	99
2593.098	0.685	684.8	0back	Block4	0back/STIM_012.jpg	100
2596.243	0.543	542.8	0back	Block4	0back/STIM_012.jpg	100
2600.436	0.562	562.1	0back	Block4	0back/STIM_013.jpg	99
2603.121	0.711	710.7	0back	Block4	0back/STIM_013.jpg	99
2607.514	0.726	726.2	0back	Block4	0back/STIM_013.jpg	99
2611.535	0.589	589.3	0back	Block4	0back/STIM_014.jpg	99
2614.952	0.554	554.5	0back	Block4	0back/STIM_014.jpg	99
2618.659	0.466	466.5	0back	Block4	0back/STIM_014.jpg	100
2623.02	0.408	408.1	0back	Block4	0back/STIM_015.jpg	100
2625.84	0.565	564.7	0back	Block4	0back/STIM_015.jpg	100
2628.518	0.412	412.3	0back	Block4	0back/STIM_015.jpg	99
2632.789	0.435	435.0	0back	Block4	0back/STIM_016.jpg	100
2636.359	0.662	661.8	0back	Block4	0back/STIM_016.jpg	99
2639.738	0.516	515.6	0back	Block4	0back/STIM_016.jpg	99
2642.342	0.447	446.9	0back	Block4	0back/STIM_017.jpg	100
2646.265	0.705	705.1	0back	Block4	0back/STIM_017.jpg	99
2649.581	0.512	512.3	0back	Block4	0back/STIM_017.jpg	100
2652.607	0.652	652.4	0back	Block4	0back/STIM_018.jpg	100
2656.674	0.574	574.2	0back	Block4	0back/STIM_018.jpg	99
2660.204	0.646	646.2	0back	Block4	0back/STIM_018.jpg	99
2663.172	0.659	658.9	0back	Block4	0back/STIM_019.jpg	99
2666.982	0.404	404.0	0back	Block4	0back/STIM_019.jpg	100
2670.349	0.388	387.9	0back	Block4	0back/STIM_019.jpg	99
