onset	duration	accuracy_binary	trial_type	learning_stage	stimulus
0.0	1.459	1	2back	Block1	2back/STIM_000.jpg
3.551	0.936	1	2back	Block1	2back/STIM_000.jpg
7.7	1.202	1	2back	Block1	2back/STIM_000.jpg
11.972	1.276	0	2back	Block1	2back/STIM_001.jpg
16.982	1.378	1	2back	Block1	2back/STIM_001.jpg
20.804	1.628	1	2back	Block1	2back/STIM_001.jpg
25.756	1.34	0	2back	Block1	2back/STIM_002.jpg
29.829	1.212	1	2back	Block1	2back/STIM_002.jpg
34.94	1.421	1	2back	Block1	2back/STIM_002.jpg
39.856	1.262	1	2back	Block1	2back/STIM_003.jpg
43.303	1.125	1	2back	Block1	2back/STIM_003.jpg
47.222	1.304	1	2back	Block1	2back/STIM_003.jpg
50.812	1.639	1	2back	Block1	2back/STIM_004.jpg
54.714	0.799	1	2back	Block1	2back/STIM_004.jpg
58.922	1.156	1	2back	Block1	2back/STIM_004.jpg
63.975	0.93	0	2back	Block1	2back/STIM_005.jpg
68.19	1.41	0	2back	Block1	2back/STIM_005.jpg
72.973	1.253	1	2back	Block1	2back/STIM_005.jpg
76.629	0.961	1	2back	Block1	2back/STIM_006.jpg
80.616	1.421	1	2back	Block1	2back/STIM_006.jpg
84.698	0.982	1	2back	Block1	2back/STIM_006.jpg
88.413	0.923	1	2back	Block1	2back/STIM_007.jpg
92.645	1.693	1	2back	Block1	2back/STIM_007.jpg
97.549	0.848	1	2back	Block1	2back/STIM_007.jpg
101.167	1.794	1	2back	Block1	2back/STIM_008.jpg
106.27	0.895	1	2back	Block1	2back/STIM_008.jpg
109.168	1.291	1	2back	Block1	2back/STIM_008.jpg
112.994	1.712	1	2back	Block1	2back/STIM_009.jpg
116.852	1.087	1	2back	Block1	2back/STIM_009.jpg
121.719	0.732	1	2back	Block1	2back/STIM_009.jpg
125.917	1.506	1	2back	Block1	2back/STIM_010.jpg
130.912	1.315	1	2back	Block1	2back/STIM_010.jpg
135.538	1.2	1	2back	Block1	2back/STIM_010.jpg
139.662	1.174	1	2back	Block1	2back/STIM_011.jpg
144.487	1.282	0	2back	Block1	2back/STIM_011.jpg
148.212	1.589	1	2back	Block1	2back/STIM_011.jpg
152.543	1.699	1	2back	Block1	2back/STIM_012.jpg
156.748	1.488	0	2back	Block1	2back/STIM_012.jpg
162.089	1.317	1	2back	Block1	2back/STIM_012.jpg
166.558	0.919	1	2back	Block1	2back/STIM_013.jpg
171.353	1.188	1	2back	Block1	2back/STIM_013.jpg
175.719	1.212	1	2back	Block1	2back/STIM_013.jpg
179.13	1.317	1	2back	Block1	2back/STIM_014.jpg
183.859	1.201	1	2back	Block1	2back/STIM_014.jpg
188.798	0.873	1	2back	Block1	2back/STIM_014.jpg
192.113	1.249	1	2back	Block1	2back/STIM_015.jpg
196.197	1.32	1	2back	Block1	2back/STIM_015.jpg
200.879	1.253	0	2back	Block1	2back/STIM_015.jpg
204.857	1.377	1	2back	Block1	2back/STIM_016.jpg
209.298	0.838	1	2back	Block1	2back/STIM_016.jpg
212.55	0.881	1	2back	Block1	2back/STIM_016.jpg
217.329	1.132	1	2back	Block1	2back/STIM_017.jpg
220.536	1.075	0	2back	Block1	2back/STIM_017.jpg
224.275	1.61	1	2back	Block1	2back/STIM_017.jpg
229.371	1.748	1	2back	Block1	2back/STIM_018.jpg
233.25	1.308	1	2back	Block1	2back/STIM_018.jpg
236.994	1.538	0	2back	Block1	2back/STIM_018.jpg
240.971	0.815	1	2back	Block1	2back/STIM_019.jpg
244.914	1.155	1	2back	Block1	2back/STIM_019.jpg
248.468	1.583	0	2back	Block1	2back/STIM_019.jpg
253.367	1.203	1	2back	Block1	2back/STIM_020.jpg
256.748	1.037	1	2back	Block1	2back/STIM_020.jpg
261.225	1.148	1	2back	Block1	2back/STIM_020.jpg
265.249	1.48	1	2back	Block1	2back/STIM_021.jpg
269.844	1.179	1	2back	Block1	2back/STIM_021.jpg
273.069	1.186	1	2back	Block1	2back/STIM_021.jpg
277.171	1.482	1	2back	Block1	2back/STIM_022.jpg
282.199	0.81	1	2back	Block1	2back/STIM_022.jpg
286.341	1.62	1	2back	Block1	2back/STIM_022.jpg
291.258	1.451	1	2back	Block1	2back/STIM_023.jpg
295.171	1.04	1	2back	Block1	2back/STIM_023.jpg
299.127	1.52	1	2back	Block1	2back/STIM_023.jpg
302.732	1.134	1	2back	Block1	2back/STIM_024.jpg
306.084	1.427	1	2back	Block1	2back/STIM_024.jpg
309.686	1.573	1	2back	Block1	2back/STIM_024.jpg
314.44	1.328	1	2back	Block1	2back/STIM_025.jpg
318.965	1.328	1	2back	Block1	2back/STIM_025.jpg
322.352	1.015	1	2back	Block1	2back/STIM_025.jpg
326.645	1.684	0	2back	Block1	2back/STIM_026.jpg
330.789	1.416	1	2back	Block1	2back/STIM_026.jpg
336.188	1.423	1	2back	Block1	2back/STIM_026.jpg
340.611	1.032	1	2back	Block1	2back/STIM_027.jpg
344.48	1.64	1	2back	Block1	2back/STIM_027.jpg
348.19	1.091	0	2back	Block1	2back/STIM_027.jpg
352.507	0.898	1	2back	Block1	2back/STIM_028.jpg
355.523	0.832	1	2back	Block1	2back/STIM_028.jpg
359.019	1.234	1	2back	Block1	2back/STIM_028.jpg
363.321	0.838	1	2back	Block1	2back/STIM_029.jpg
367.938	0.8	1	2back	Block1	2back/STIM_029.jpg
371.651	0.7	1	2back	Block1	2back/STIM_029.jpg
375.261	1.249	1	2back	Block1	2back/STIM_030.jpg
380.009	1.334	1	2back	Block1	2back/STIM_030.jpg
384.511	1.462	1	2back	Block1	2back/STIM_030.jpg
388.971	1.014	1	2back	Block1	2back/STIM_031.jpg
393.581	1.36	1	2back	Block1	2back/STIM_031.jpg
398.055	1.42	1	2back	Block1	2back/STIM_031.jpg
402.096	1.537	0	2back	Block1	2back/STIM_032.jpg
406.883	1.143	1	2back	Block1	2back/STIM_032.jpg
411.582	0.775	1	2back	Block1	2back/STIM_032.jpg
414.512	1.282	1	2back	Block1	2back/STIM_033.jpg
418.548	1.165	0	2back	Block1	2back/STIM_033.jpg
422.578	1.185	1	2back	Block1	2back/STIM_033.jpg
426.479	1.62	1	2back	Block1	2back/STIM_034.jpg
430.491	1.502	0	2back	Block1	2back/STIM_034.jpg
434.66	1.594	1	2back	Block1	2back/STIM_034.jpg
439.252	0.937	0	2back	Block1	2back/STIM_035.jpg
443.794	1.271	1	2back	Block1	2back/STIM_035.jpg
447.469	1.523	0	2back	Block1	2back/STIM_035.jpg
452.332	1.064	1	2back	Block1	2back/STIM_036.jpg
455.745	1.603	0	2back	Block1	2back/STIM_036.jpg
460.779	1.039	1	2back	Block1	2back/STIM_036.jpg
464.933	1.126	0	2back	Block1	2back/STIM_037.jpg
468.878	0.902	0	2back	Block1	2back/STIM_037.jpg
473.776	1.622	1	2back	Block1	2back/STIM_037.jpg
478.33	1.237	1	2back	Block1	2back/STIM_038.jpg
482.164	1.519	0	2back	Block1	2back/STIM_038.jpg
486.434	1.308	1	2back	Block1	2back/STIM_038.jpg
490.625	1.323	1	2back	Block1	2back/STIM_039.jpg
495.308	0.825	1	2back	Block1	2back/STIM_039.jpg
499.477	1.132	1	2back	Block1	2back/STIM_039.jpg
503.298	0.995	1	0back	Block1	0back/STIM_000.jpg
506.696	0.938	1	0back	Block1	0back/STIM_000.jpg
511.164	0.636	1	0back	Block1	0back/STIM_000.jpg
515.37	0.525	1	0back	Block1	0back/STIM_001.jpg
519.861	0.819	1	0back	Block1	0back/STIM_001.jpg
523.52	0.956	1	0back	Block1	0back/STIM_001.jpg
527.968	0.863	1	0back	Block1	0back/STIM_002.jpg
532.677	0.624	1	0back	Block1	0back/STIM_002.jpg
535.301	0.71	1	0back	Block1	0back/STIM_002.jpg
538.998	1.019	1	0back	Block1	0back/STIM_003.jpg
542.974	0.703	1	0back	Block1	0back/STIM_003.jpg
546.124	0.615	1	0back	Block1	0back/STIM_003.jpg
549.761	1.006	1	0back	Block1	0back/STIM_004.jpg
553.164	0.965	1	0back	Block1	0back/STIM_004.jpg
556.915	0.897	1	0back	Block1	0back/STIM_004.jpg
561.215	0.717	1	0back	Block1	0back/STIM_005.jpg
564.196	0.894	1	0back	Block1	0back/STIM_005.jpg
569.043	0.887	1	0back	Block1	0back/STIM_005.jpg
573.073	0.649	1	0back	Block1	0back/STIM_006.jpg
577.531	0.519	1	0back	Block1	0back/STIM_006.jpg
581.028	0.549	1	0back	Block1	0back/STIM_006.jpg
584.433	0.585	1	0back	Block1	0back/STIM_007.jpg
588.313	0.778	1	0back	Block1	0back/STIM_007.jpg
591.19	0.582	1	0back	Block1	0back/STIM_007.jpg
594.578	0.738	1	0back	Block1	0back/STIM_008.jpg
598.65	1.036	1	0back	Block1	0back/STIM_008.jpg
601.857	0.569	1	0back	Block1	0back/STIM_008.jpg
605.701	0.941	1	0back	Block1	0back/STIM_009.jpg
608.845	0.632	1	0back	Block1	0back/STIM_009.jpg
611.926	0.697	1	0back	Block1	0back/STIM_009.jpg
615.699	0.983	1	0back	Block1	0back/STIM_010.jpg
620.168	0.621	1	0back	Block1	0back/STIM_010.jpg
623.802	0.924	0	0back	Block1	0back/STIM_010.jpg
627.438	0.531	1	0back	Block1	0back/STIM_011.jpg
631.906	0.992	1	0back	Block1	0back/STIM_011.jpg
635.931	0.913	1	0back	Block1	0back/STIM_011.jpg
639.423	0.715	1	0back	Block1	0back/STIM_012.jpg
644.059	0.783	1	0back	Block1	0back/STIM_012.jpg
646.951	1.011	1	0back	Block1	0back/STIM_012.jpg
651.727	0.684	1	0back	Block1	0back/STIM_013.jpg
656.192	0.751	1	0back	Block1	0back/STIM_013.jpg
660.261	0.562	1	0back	Block1	0back/STIM_013.jpg
664.092	0.716	1	0back	Block1	0back/STIM_014.jpg
668.584	0.981	1	0back	Block1	0back/STIM_014.jpg
671.59	0.979	1	0back	Block1	0back/STIM_014.jpg
675.493	0.929	1	0back	Block1	0back/STIM_015.jpg
678.845	0.728	1	0back	Block1	0back/STIM_015.jpg
683.234	0.88	1	0back	Block1	0back/STIM_015.jpg
686.71	0.663	1	0back	Block1	0back/STIM_016.jpg
690.097	0.658	1	0back	Block1	0back/STIM_016.jpg
694.416	0.804	1	0back	Block1	0back/STIM_016.jpg
697.322	0.685	1	0back	Block1	0back/STIM_017.jpg
700.817	0.587	1	0back	Block1	0back/STIM_017.jpg
704.186	0.584	1	0back	Block1	0back/STIM_017.jpg
708.171	0.866	1	0back	Block1	0back/STIM_018.jpg
712.542	0.724	1	0back	Block1	0back/STIM_018.jpg
715.961	0.72	1	0back	Block1	0back/STIM_018.jpg
719.381	0.899	1	0back	Block1	0back/STIM_019.jpg
724.049	0.838	1	0back	Block1	0back/STIM_019.jpg
726.953	0.897	1	0back	Block1	0back/STIM_019.jpg
730.978	0.921	1	2back	Block2	2back/STIM_000.jpg
735.317	1.196	1	2back	Block2	2back/STIM_000.jpg
738.785	1.121	1	2back	Block2	2back/STIM_000.jpg
742.836	0.922	1	2back	Block2	2back/STIM_001.jpg
746.764	0.748	1	2back	Block2	2back/STIM_001.jpg
750.057	0.804	1	2back	Block2	2back/STIM_001.jpg
753.445	1.521	1	2back	Block2	2back/STIM_002.jpg
758.239	1.409	1	2back	Block2	2back/STIM_002.jpg
763.222	1.072	1	2back	Block2	2back/STIM_002.jpg
767.281	1.455	1	2back	Block2	2back/STIM_003.jpg
771.254	1.22	1	2back	Block2	2back/STIM_003.jpg
774.985	1.235	1	2back	Block2	2back/STIM_003.jpg
779.295	1.185	1	2back	Block2	2back/STIM_004.jpg
782.909	1.286	1	2back	Block2	2back/STIM_004.jpg
786.863	1.342	1	2back	Block2	2back/STIM_004.jpg
792.081	1.01	1	2back	Block2	2back/STIM_005.jpg
796.65	1.131	1	2back	Block2	2back/STIM_005.jpg
800.109	0.95	1	2back	Block2	2back/STIM_005.jpg
803.779	1.186	1	2back	Block2	2back/STIM_006.jpg
808.844	0.806	1	2back	Block2	2back/STIM_006.jpg
812.184	0.723	1	2back	Block2	2back/STIM_006.jpg
815.543	1.208	1	2back	Block2	2back/STIM_007.jpg
820.032	1.258	1	2back	Block2	2back/STIM_007.jpg
823.828	0.618	1	2back	Block2	2back/STIM_007.jpg
827.899	0.777	1	2back	Block2	2back/STIM_008.jpg
832.399	1.261	1	2back	Block2	2back/STIM_008.jpg
835.996	0.595	1	2back	Block2	2back/STIM_008.jpg
838.823	0.706	1	2back	Block2	2back/STIM_009.jpg
843.368	0.644	1	2back	Block2	2back/STIM_009.jpg
846.874	0.898	1	2back	Block2	2back/STIM_009.jpg
850.231	1.38	1	2back	Block2	2back/STIM_010.jpg
854.862	1.018	0	2back	Block2	2back/STIM_010.jpg
859.84	1.133	1	2back	Block2	2back/STIM_010.jpg
864.901	1.051	0	2back	Block2	2back/STIM_011.jpg
869.592	1.159	1	2back	Block2	2back/STIM_011.jpg
874.082	0.915	1	2back	Block2	2back/STIM_011.jpg
877.765	1.04	1	2back	Block2	2back/STIM_012.jpg
881.933	0.659	1	2back	Block2	2back/STIM_012.jpg
885.339	0.757	1	2back	Block2	2back/STIM_012.jpg
889.159	0.79	1	2back	Block2	2back/STIM_013.jpg
893.595	1.248	1	2back	Block2	2back/STIM_013.jpg
898.665	1.23	1	2back	Block2	2back/STIM_013.jpg
902.414	1.254	1	2back	Block2	2back/STIM_014.jpg
906.072	1.249	1	2back	Block2	2back/STIM_014.jpg
910.189	0.786	1	2back	Block2	2back/STIM_014.jpg
914.663	0.947	1	2back	Block2	2back/STIM_015.jpg
918.779	1.294	1	2back	Block2	2back/STIM_015.jpg
923.241	1.159	1	2back	Block2	2back/STIM_015.jpg
928.132	1.487	1	2back	Block2	2back/STIM_016.jpg
932.345	1.365	1	2back	Block2	2back/STIM_016.jpg
936.663	0.598	1	2back	Block2	2back/STIM_016.jpg
940.441	1.203	0	2back	Block2	2back/STIM_017.jpg
945.326	0.666	1	2back	Block2	2back/STIM_017.jpg
949.141	0.913	1	2back	Block2	2back/STIM_017.jpg
953.019	1.128	1	2back	Block2	2back/STIM_018.jpg
956.751	1.123	0	2back	Block2	2back/STIM_018.jpg
961.108	1.003	1	2back	Block2	2back/STIM_018.jpg
965.207	0.894	1	2back	Block2	2back/STIM_019.jpg
969.632	1.325	1	2back	Block2	2back/STIM_019.jpg
974.296	1.244	1	2back	Block2	2back/STIM_019.jpg
977.919	1.138	1	2back	Block2	2back/STIM_020.jpg
982.66	0.9	1	2back	Block2	2back/STIM_020.jpg
986.244	0.845	1	2back	Block2	2back/STIM_020.jpg
989.935	1.065	1	2back	Block2	2back/STIM_021.jpg
993.068	0.85	1	2back	Block2	2back/STIM_021.jpg
997.338	0.661	1	2back	Block2	2back/STIM_021.jpg
1001.464	1.504	1	2back	Block2	2back/STIM_022.jpg
1005.294	0.894	1	2back	Block2	2back/STIM_022.jpg
1009.625	1.015	1	2back	Block2	2back/STIM_022.jpg
1012.838	1.09	1	2back	Block2	2back/STIM_023.jpg
1016.061	0.675	1	2back	Block2	2back/STIM_023.jpg
1018.98	1.209	1	2back	Block2	2back/STIM_023.jpg
1024.044	1.034	1	2back	Block2	2back/STIM_024.jpg
1028.484	0.898	1	2back	Block2	2back/STIM_024.jpg
1032.169	0.751	1	2back	Block2	2back/STIM_024.jpg
1035.277	0.82	1	2back	Block2	2back/STIM_025.jpg
1038.219	0.713	1	2back	Block2	2back/STIM_025.jpg
1041.908	1.017	1	2back	Block2	2back/STIM_025.jpg
1046.344	0.798	1	2back	Block2	2back/STIM_026.jpg
1049.232	1.386	1	2back	Block2	2back/STIM_026.jpg
1052.857	1.104	1	2back	Block2	2back/STIM_026.jpg
1057.288	0.865	1	2back	Block2	2back/STIM_027.jpg
1061.376	1.398	1	2back	Block2	2back/STIM_027.jpg
1066.216	1.343	1	2back	Block2	2back/STIM_027.jpg
1069.963	1.507	1	2back	Block2	2back/STIM_028.jpg
1075.349	1.309	1	2back	Block2	2back/STIM_028.jpg
1080.206	0.889	1	2back	Block2	2back/STIM_028.jpg
1084.957	1.503	0	2back	Block2	2back/STIM_029.jpg
1088.564	0.77	1	2back	Block2	2back/STIM_029.jpg
1091.56	0.977	1	2back	Block2	2back/STIM_029.jpg
1095.693	1.297	1	2back	Block2	2back/STIM_030.jpg
1100.186	0.726	1	2back	Block2	2back/STIM_030.jpg
1104.431	0.593	1	2back	Block2	2back/STIM_030.jpg
1107.492	1.513	1	2back	Block2	2back/STIM_031.jpg
1112.233	1.312	1	2back	Block2	2back/STIM_031.jpg
1116.891	1.232	1	2back	Block2	2back/STIM_031.jpg
1121.062	1.0	1	2back	Block2	2back/STIM_032.jpg
1125.17	0.717	1	2back	Block2	2back/STIM_032.jpg
1128.683	0.661	1	2back	Block2	2back/STIM_032.jpg
1132.956	1.128	1	2back	Block2	2back/STIM_033.jpg
1137.659	0.754	1	2back	Block2	2back/STIM_033.jpg
1141.744	0.659	1	2back	Block2	2back/STIM_033.jpg
1146.251	1.33	1	2back	Block2	2back/STIM_034.jpg
1150.573	1.242	1	2back	Block2	2back/STIM_034.jpg
1155.382	1.142	1	2back	Block2	2back/STIM_034.jpg
1160.294	0.763	1	2back	Block2	2back/STIM_035.jpg
1164.231	0.877	1	2back	Block2	2back/STIM_035.jpg
1167.308	0.628	0	2back	Block2	2back/STIM_035.jpg
1171.216	1.293	1	2back	Block2	2back/STIM_036.jpg
1176.243	1.44	1	2back	Block2	2back/STIM_036.jpg
1181.275	1.185	1	2back	Block2	2back/STIM_036.jpg
1184.529	1.524	0	2back	Block2	2back/STIM_037.jpg
1189.124	0.926	1	2back	Block2	2back/STIM_037.jpg
1192.934	1.269	1	2back	Block2	2back/STIM_037.jpg
1197.334	1.164	1	2back	Block2	2back/STIM_038.jpg
1201.932	0.856	1	2back	Block2	2back/STIM_038.jpg
1206.267	0.894	1	2back	Block2	2back/STIM_038.jpg
1211.141	1.522	1	2back	Block2	2back/STIM_039.jpg
1216.152	0.625	1	2back	Block2	2back/STIM_039.jpg
1219.565	0.784	1	2back	Block2	2back/STIM_039.jpg
1222.614	0.674	1	0back	Block2	0back/STIM_000.jpg
1226.504	0.805	1	0back	Block2	0back/STIM_000.jpg
1230.198	0.82	1	0back	Block2	0back/STIM_000.jpg
1233.06	0.93	1	0back	Block2	0back/STIM_001.jpg
1236.441	1.036	1	0back	Block2	0back/STIM_001.jpg
1241.186	0.614	1	0back	Block2	0back/STIM_001.jpg
1244.752	0.568	1	0back	Block2	0back/STIM_002.jpg
1248.126	0.867	1	0back	Block2	0back/STIM_002.jpg
1251.311	0.818	1	0back	Block2	0back/STIM_002.jpg
1255.427	1.034	1	0back	Block2	0back/STIM_003.jpg
1260.293	0.829	1	0back	Block2	0back/STIM_003.jpg
1263.468	0.772	1	0back	Block2	0back/STIM_003.jpg
1267.203	0.74	1	0back	Block2	0back/STIM_004.jpg
1271.323	1.035	1	0back	Block2	0back/STIM_004.jpg
1276.226	0.705	1	0back	Block2	0back/STIM_004.jpg
1280.839	0.644	1	0back	Block2	0back/STIM_005.jpg
1284.432	1.014	1	0back	Block2	0back/STIM_005.jpg
1288.645	1.004	1	0back	Block2	0back/STIM_005.jpg
1292.184	0.536	1	0back	Block2	0back/STIM_006.jpg
1295.582	0.804	1	0back	Block2	0back/STIM_006.jpg
1300.055	1.001	1	0back	Block2	0back/STIM_006.jpg
1303.888	0.868	1	0back	Block2	0back/STIM_007.jpg
1308.705	0.752	1	0back	Block2	0back/STIM_007.jpg
1313.32	0.893	1	0back	Block2	0back/STIM_007.jpg
1317.207	0.549	1	0back	Block2	0back/STIM_008.jpg
1320.692	0.705	1	0back	Block2	0back/STIM_008.jpg
1324.424	0.883	1	0back	Block2	0back/STIM_008.jpg
1328.703	0.93	1	0back	Block2	0back/STIM_009.jpg
1332.152	1.037	1	0back	Block2	0back/STIM_009.jpg
1335.946	1.004	0	0back	Block2	0back/STIM_009.jpg
1339.894	1.022	1	0back	Block2	0back/STIM_010.jpg
1344.652	0.733	1	0back	Block2	0back/STIM_010.jpg
1348.458	0.747	1	0back	Block2	0back/STIM_010.jpg
1352.24	0.706	1	0back	Block2	0back/STIM_011.jpg
1356.487	0.889	1	0back	Block2	0back/STIM_011.jpg
1360.566	0.532	1	0back	Block2	0back/STIM_011.jpg
1363.674	0.703	1	0back	Block2	0back/STIM_012.jpg
1367.816	0.859	1	0back	Block2	0back/STIM_012.jpg
1372.346	0.719	1	0back	Block2	0back/STIM_012.jpg
1375.531	0.855	1	0back	Block2	0back/STIM_013.jpg
1378.602	0.863	1	0back	Block2	0back/STIM_013.jpg
1383.162	0.854	1	0back	Block2	0back/STIM_013.jpg
1386.588	0.77	1	0back	Block2	0back/STIM_014.jpg
1390.986	0.668	0	0back	Block2	0back/STIM_014.jpg
1394.081	0.75	1	0back	Block2	0back/STIM_014.jpg
1398.778	0.841	1	0back	Block2	0back/STIM_015.jpg
1402.681	0.893	1	0back	Block2	0back/STIM_015.jpg
1405.797	0.9	1	0back	Block2	0back/STIM_015.jpg
1409.992	0.993	1	0back	Block2	0back/STIM_016.jpg
1414.662	0.56	1	0back	Block2	0back/STIM_016.jpg
1417.338	0.526	1	0back	Block2	0back/STIM_016.jpg
1421.793	0.757	1	0back	Block2	0back/STIM_017.jpg
1424.847	1.019	1	0back	Block2	0back/STIM_017.jpg
1428.351	0.729	1	0back	Block2	0back/STIM_017.jpg
1432.08	0.539	1	0back	Block2	0back/STIM_018.jpg
1436.122	0.664	1	0back	Block2	0back/STIM_018.jpg
1439.773	0.568	1	0back	Block2	0back/STIM_018.jpg
1444.156	0.665	1	0back	Block2	0back/STIM_019.jpg
1448.621	0.876	1	0back	Block2	0back/STIM_019.jpg
1452.867	0.695	1	0back	Block2	0back/STIM_019.jpg
1456.323	0.873	1	2back	Block3	2back/STIM_000.jpg
1459.359	1.091	1	2back	Block3	2back/STIM_000.jpg
1463.963	0.593	1	2back	Block3	2back/STIM_000.jpg
1466.624	0.919	1	2back	Block3	2back/STIM_001.jpg
1471.25	1.244	1	2back	Block3	2back/STIM_001.jpg
1476.14	0.682	1	2back	Block3	2back/STIM_001.jpg
1480.152	1.199	1	2back	Block3	2back/STIM_002.jpg
1485.217	0.809	1	2back	Block3	2back/STIM_002.jpg
1489.139	1.029	1	2back	Block3	2back/STIM_002.jpg
1492.229	1.236	1	2back	Block3	2back/STIM_003.jpg
1495.591	1.149	1	2back	Block3	2back/STIM_003.jpg
1500.153	1.089	1	2back	Block3	2back/STIM_003.jpg
1503.9	1.156	1	2back	Block3	2back/STIM_004.jpg
1508.148	0.977	1	2back	Block3	2back/STIM_004.jpg
1513.111	1.193	1	2back	Block3	2back/STIM_004.jpg
1517.595	0.953	1	2back	Block3	2back/STIM_005.jpg
1521.448	0.612	0	2back	Block3	2back/STIM_005.jpg
1524.316	0.692	1	2back	Block3	2back/STIM_005.jpg
1528.55	1.127	1	2back	Block3	2back/STIM_006.jpg
1532.212	0.767	1	2back	Block3	2back/STIM_006.jpg
1536.875	0.732	1	2back	Block3	2back/STIM_006.jpg
1540.81	1.069	1	2back	Block3	2back/STIM_007.jpg
1545.246	0.683	1	2back	Block3	2back/STIM_007.jpg
1549.316	1.065	1	2back	Block3	2back/STIM_007.jpg
1553.6	0.65	1	2back	Block3	2back/STIM_008.jpg
1557.766	0.582	1	2back	Block3	2back/STIM_008.jpg
1561.909	0.847	1	2back	Block3	2back/STIM_008.jpg
1566.049	0.765	1	2back	Block3	2back/STIM_009.jpg
1570.557	0.9	1	2back	Block3	2back/STIM_009.jpg
1573.498	0.643	1	2back	Block3	2back/STIM_009.jpg
1576.505	1.211	1	2back	Block3	2back/STIM_010.jpg
1580.848	1.148	1	2back	Block3	2back/STIM_010.jpg
1584.211	1.064	1	2back	Block3	2back/STIM_010.jpg
1588.473	0.825	1	2back	Block3	2back/STIM_011.jpg
1591.345	1.103	1	2back	Block3	2back/STIM_011.jpg
1595.704	0.879	1	2back	Block3	2back/STIM_011.jpg
1599.105	0.794	1	2back	Block3	2back/STIM_012.jpg
1602.453	1.26	0	2back	Block3	2back/STIM_012.jpg
1606.865	1.219	1	2back	Block3	2back/STIM_012.jpg
1610.715	0.931	1	2back	Block3	2back/STIM_013.jpg
1614.723	0.836	1	2back	Block3	2back/STIM_013.jpg
1618.931	0.834	1	2back	Block3	2back/STIM_013.jpg
1623.069	0.923	1	2back	Block3	2back/STIM_014.jpg
1626.224	0.605	1	2back	Block3	2back/STIM_014.jpg
1630.8	0.76	1	2back	Block3	2back/STIM_014.jpg
1633.785	0.582	0	2back	Block3	2back/STIM_015.jpg
1637.397	1.258	1	2back	Block3	2back/STIM_015.jpg
1640.784	1.24	1	2back	Block3	2back/STIM_015.jpg
1644.793	0.718	1	2back	Block3	2back/STIM_016.jpg
1648.235	1.19	1	2back	Block3	2back/STIM_016.jpg
1651.634	1.271	1	2back	Block3	2back/STIM_016.jpg
1655.052	1.171	1	2back	Block3	2back/STIM_017.jpg
1659.031	1.11	1	2back	Block3	2back/STIM_017.jpg
1663.856	0.801	1	2back	Block3	2back/STIM_017.jpg
1667.653	1.267	1	2back	Block3	2back/STIM_018.jpg
1671.342	1.014	1	2back	Block3	2back/STIM_018.jpg
1675.073	0.673	1	2back	Block3	2back/STIM_018.jpg
1679.242	1.256	0	2back	Block3	2back/STIM_019.jpg
1684.163	0.631	1	2back	Block3	2back/STIM_019.jpg
1688.659	0.726	1	2back	Block3	2back/STIM_019.jpg
1691.586	0.664	1	2back	Block3	2back/STIM_020.jpg
1695.124	0.578	1	2back	Block3	2back/STIM_020.jpg
1698.341	0.77	1	2back	Block3	2back/STIM_020.jpg
1701.539	1.029	1	2back	Block3	2back/STIM_021.jpg
1704.739	1.218	1	2back	Block3	2back/STIM_021.jpg
1709.356	1.222	1	2back	Block3	2back/STIM_021.jpg
1712.584	1.134	1	2back	Block3	2back/STIM_022.jpg
1716.459	0.607	1	2back	Block3	2back/STIM_022.jpg
1720.573	0.588	1	2back	Block3	2back/STIM_022.jpg
1723.227	0.679	1	2back	Block3	2back/STIM_023.jpg
1725.929	0.898	1	2back	Block3	2back/STIM_023.jpg
1729.783	0.985	1	2back	Block3	2back/STIM_023.jpg
1733.164	0.764	1	2back	Block3	2back/STIM_024.jpg
1736.783	0.978	1	2back	Block3	2back/STIM_024.jpg
1741.055	0.665	1	2back	Block3	2back/STIM_024.jpg
1744.544	0.809	1	2back	Block3	2back/STIM_025.jpg
1748.541	0.723	1	2back	Block3	2back/STIM_025.jpg
1751.879	1.214	1	2back	Block3	2back/STIM_025.jpg
1756.24	0.833	1	2back	Block3	2back/STIM_026.jpg
1760.663	0.755	1	2back	Block3	2back/STIM_026.jpg
1765.247	0.985	1	2back	Block3	2back/STIM_026.jpg
1769.91	1.008	1	2back	Block3	2back/STIM_027.jpg
1774.296	0.858	1	2back	Block3	2back/STIM_027.jpg
1777.766	0.905	1	2back	Block3	2back/STIM_027.jpg
1781.985	1.167	1	2back	Block3	2back/STIM_028.jpg
1786.583	1.001	0	2back	Block3	2back/STIM_028.jpg
1790.804	0.646	1	2back	Block3	2back/STIM_028.jpg
1794.151	0.879	0	2back	Block3	2back/STIM_029.jpg
1797.103	0.904	1	2back	Block3	2back/STIM_029.jpg
1800.532	0.619	1	2back	Block3	2back/STIM_029.jpg
1804.438	0.767	1	2back	Block3	2back/STIM_030.jpg
1808.842	0.752	1	2back	Block3	2back/STIM_030.jpg
1812.684	0.559	1	2back	Block3	2back/STIM_030.jpg
1815.479	0.65	1	2back	Block3	2back/STIM_031.jpg
1818.635	0.994	1	2back	Block3	2back/STIM_031.jpg
1821.902	0.911	1	2back	Block3	2back/STIM_031.jpg
1825.213	0.956	1	2back	Block3	2back/STIM_032.jpg
1829.038	1.012	1	2back	Block3	2back/STIM_032.jpg
1832.626	1.188	1	2back	Block3	2back/STIM_032.jpg
1837.601	0.779	1	2back	Block3	2back/STIM_033.jpg
1840.94	0.825	1	2back	Block3	2back/STIM_033.jpg
1845.058	1.084	1	2back	Block3	2back/STIM_033.jpg
1848.557	0.956	1	2back	Block3	2back/STIM_034.jpg
1853.028	0.873	1	2back	Block3	2back/STIM_034.jpg
1856.087	1.118	1	2back	Block3	2back/STIM_034.jpg
1860.869	0.639	1	2back	Block3	2back/STIM_035.jpg
1865.312	1.12	1	2back	Block3	2back/STIM_035.jpg
1869.495	0.884	1	2back	Block3	2back/STIM_035.jpg
1872.857	0.623	1	2back	Block3	2back/STIM_036.jpg
1875.682	0.566	1	2back	Block3	2back/STIM_036.jpg
1878.672	0.647	1	2back	Block3	2back/STIM_036.jpg
1882.945	0.578	1	2back	Block3	2back/STIM_037.jpg
1886.43	0.802	1	2back	Block3	2back/STIM_037.jpg
1890.97	0.764	1	2back	Block3	2back/STIM_037.jpg
1895.533	1.036	1	2back	Block3	2back/STIM_038.jpg
1899.406	0.782	1	2back	Block3	2back/STIM_038.jpg
1902.358	0.61	1	2back	Block3	2back/STIM_038.jpg
1906.152	0.715	1	2back	Block3	2back/STIM_039.jpg
1910.435	0.626	1	2back	Block3	2back/STIM_039.jpg
1913.47	1.243	1	2back	Block3	2back/STIM_039.jpg
1917.645	0.758	1	0back	Block3	0back/STIM_000.jpg
1922.09	0.559	1	0back	Block3	0back/STIM_000.jpg
1924.738	0.66	1	0back	Block3	0back/STIM_000.jpg
1928.153	0.749	1	0back	Block3	0back/STIM_001.jpg
1932.089	0.643	1	0back	Block3	0back/STIM_001.jpg
1935.349	0.87	1	0back	Block3	0back/STIM_001.jpg
1939.763	0.793	1	0back	Block3	0back/STIM_002.jpg
1943.251	0.761	1	0back	Block3	0back/STIM_002.jpg
1947.217	0.744	1	0back	Block3	0back/STIM_002.jpg
1950.39	0.692	1	0back	Block3	0back/STIM_003.jpg
1953.143	0.944	1	0back	Block3	0back/STIM_003.jpg
1957.176	0.83	1	0back	Block3	0back/STIM_003.jpg
1961.903	0.869	1	0back	Block3	0back/STIM_004.jpg
1966.411	0.868	1	0back	Block3	0back/STIM_004.jpg
1971.055	0.628	1	0back	Block3	0back/STIM_004.jpg
1974.282	0.807	1	0back	Block3	0back/STIM_005.jpg
1978.376	0.791	1	0back	Block3	0back/STIM_005.jpg
1981.741	0.716	1	0back	Block3	0back/STIM_005.jpg
1984.546	0.574	1	0back	Block3	0back/STIM_006.jpg
1988.929	0.656	1	0back	Block3	0back/STIM_006.jpg
1991.791	1.006	1	0back	Block3	0back/STIM_006.jpg
1996.012	1.01	1	0back	Block3	0back/STIM_007.jpg
1999.837	0.791	1	0back	Block3	0back/STIM_007.jpg
2004.479	0.624	1	0back	Block3	0back/STIM_007.jpg
2007.379	0.744	1	0back	Block3	0back/STIM_008.jpg
2011.716	0.982	1	0back	Block3	0back/STIM_008.jpg
2015.423	0.943	1	0back	Block3	0back/STIM_008.jpg
2018.893	0.888	1	0back	Block3	0back/STIM_009.jpg
2022.441	0.871	1	0back	Block3	0back/STIM_009.jpg
2026.033	0.948	1	0back	Block3	0back/STIM_009.jpg
2029.917	0.758	1	0back	Block3	0back/STIM_010.jpg
2034.209	0.669	1	0back	Block3	0back/STIM_010.jpg
2037.679	0.745	1	0back	Block3	0back/STIM_010.jpg
2041.997	0.916	1	0back	Block3	0back/STIM_011.jpg
2045.976	0.804	1	0back	Block3	0back/STIM_011.jpg
2049.075	0.578	1	0back	Block3	0back/STIM_011.jpg
2053.093	0.538	1	0back	Block3	0back/STIM_012.jpg
2057.399	0.781	1	0back	Block3	0back/STIM_012.jpg
2061.635	0.565	1	0back	Block3	0back/STIM_012.jpg
2064.213	0.798	1	0back	Block3	0back/STIM_013.jpg
2067.507	0.819	1	0back	Block3	0back/STIM_013.jpg
2070.505	1.027	1	0back	Block3	0back/STIM_013.jpg
2075.518	0.806	1	0back	Block3	0back/STIM_014.jpg
2079.588	0.784	1	0back	Block3	0back/STIM_014.jpg
2082.954	0.967	1	0back	Block3	0back/STIM_014.jpg
2087.618	0.662	1	0back	Block3	0back/STIM_015.jpg
2090.415	0.858	1	0back	Block3	0back/STIM_015.jpg
2093.902	0.519	1	0back	Block3	0back/STIM_015.jpg
2098.365	0.643	1	0back	Block3	0back/STIM_016.jpg
2102.603	0.539	1	0back	Block3	0back/STIM_016.jpg
2106.859	0.656	1	0back	Block3	0back/STIM_016.jpg
2111.025	0.77	1	0back	Block3	0back/STIM_017.jpg
2115.592	1.02	1	0back	Block3	0back/STIM_017.jpg
2120.164	0.559	1	0back	Block3	0back/STIM_017.jpg
2123.15	0.92	1	0back	Block3	0back/STIM_018.jpg
2126.837	0.986	1	0back	Block3	0back/STIM_018.jpg
2131.51	0.878	1	0back	Block3	0back/STIM_018.jpg
2136.238	0.569	1	0back	Block3	0back/STIM_019.jpg
2138.843	0.71	1	0back	Block3	0back/STIM_019.jpg
2142.657	0.789	1	0back	Block3	0back/STIM_019.jpg
2147.242	0.932	1	2back	Block4	2back/STIM_000.jpg
2150.983	0.564	0	2back	Block4	2back/STIM_000.jpg
2154.342	0.618	1	2back	Block4	2back/STIM_000.jpg
2157.534	1.005	1	2back	Block4	2back/STIM_001.jpg
2161.422	1.009	1	2back	Block4	2back/STIM_001.jpg
2165.302	0.85	1	2back	Block4	2back/STIM_001.jpg
2169.041	0.639	1	2back	Block4	2back/STIM_002.jpg
2172.816	0.599	1	2back	Block4	2back/STIM_002.jpg
2177.096	0.948	1	2back	Block4	2back/STIM_002.jpg
2180.198	0.895	1	2back	Block4	2back/STIM_003.jpg
2184.59	1.238	1	2back	Block4	2back/STIM_003.jpg
2189.53	1.193	1	2back	Block4	2back/STIM_003.jpg
2193.038	1.194	1	2back	Block4	2back/STIM_004.jpg
2196.475	0.988	1	2back	Block4	2back/STIM_004.jpg
2199.913	1.099	1	2back	Block4	2back/STIM_004.jpg
2204.189	1.074	1	2back	Block4	2back/STIM_005.jpg
2208.159	0.617	1	2back	Block4	2back/STIM_005.jpg
2212.219	1.041	1	2back	Block4	2back/STIM_005.jpg
2215.781	0.976	1	2back	Block4	2back/STIM_006.jpg
2219.505	0.815	1	2back	Block4	2back/STIM_006.jpg
2222.512	0.697	1	2back	Block4	2back/STIM_006.jpg
2226.338	0.574	1	2back	Block4	2back/STIM_007.jpg
2230.821	1.065	1	2back	Block4	2back/STIM_007.jpg
2233.961	0.669	1	2back	Block4	2back/STIM_007.jpg
2238.586	1.22	1	2back	Block4	2back/STIM_008.jpg
2242.581	0.618	1	2back	Block4	2back/STIM_008.jpg
2246.955	0.569	1	2back	Block4	2back/STIM_008.jpg
2250.233	0.72	1	2back	Block4	2back/STIM_009.jpg
2253.715	0.677	0	2back	Block4	2back/STIM_009.jpg
2258.133	0.783	1	2back	Block4	2back/STIM_009.jpg
2260.997	1.149	1	2back	Block4	2back/STIM_010.jpg
2264.379	1.265	1	2back	Block4	2back/STIM_010.jpg
2268.487	1.27	1	2back	Block4	2back/STIM_010.jpg
2272.249	0.963	1	2back	Block4	2back/STIM_011.jpg
2277.191	0.728	1	2back	Block4	2back/STIM_011.jpg
2281.887	0.56	1	2back	Block4	2back/STIM_011.jpg
2285.763	1.193	1	2back	Block4	2back/STIM_012.jpg
2290.769	0.87	1	2back	Block4	2back/STIM_012.jpg
2295.548	0.9	1	2back	Block4	2back/STIM_012.jpg
2299.797	0.91	1	2back	Block4	2back/STIM_013.jpg
2304.154	0.732	1	2back	Block4	2back/STIM_013.jpg
2307.229	0.718	1	2back	Block4	2back/STIM_013.jpg
2310.402	0.968	1	2back	Block4	2back/STIM_014.jpg
2314.82	1.057	1	2back	Block4	2back/STIM_014.jpg
2319.067	1.034	1	2back	Block4	2back/STIM_014.jpg
2323.333	0.568	1	2back	Block4	2back/STIM_015.jpg
2326.216	0.547	1	2back	Block4	2back/STIM_015.jpg
2330.538	1.174	1	2back	Block4	2back/STIM_015.jpg
2335.48	1.097	1	2back	Block4	2back/STIM_016.jpg
2339.236	1.26	1	2back	Block4	2back/STIM_016.jpg
2343.393	0.855	1	2back	Block4	2back/STIM_016.jpg
2346.694	1.258	1	2back	Block4	2back/STIM_017.jpg
2351.364	0.87	1	2back	Block4	2back/STIM_017.jpg
2356.034	0.69	1	2back	Block4	2back/STIM_017.jpg
2359.851	0.616	1	2back	Block4	2back/STIM_018.jpg
2363.843	0.928	1	2back	Block4	2back/STIM_018.jpg
2368.028	1.076	1	2back	Block4	2back/STIM_018.jpg
2372.242	1.036	1	2back	Block4	2back/STIM_019.jpg
2377.225	0.669	1	2back	Block4	2back/STIM_019.jpg
2380.806	0.88	1	2back	Block4	2back/STIM_019.jpg
2385.371	0.91	1	2back	Block4	2back/STIM_020.jpg
2390.233	1.25	1	2back	Block4	2back/STIM_020.jpg
2394.311	1.205	1	2back	Block4	2back/STIM_020.jpg
2398.913	0.944	1	2back	Block4	2back/STIM_021.jpg
2403.024	0.649	1	2back	Block4	2back/STIM_021.jpg
2405.786	0.629	1	2back	Block4	2back/STIM_021.jpg
2408.645	0.837	1	2back	Block4	2back/STIM_022.jpg
2412.452	0.902	1	2back	Block4	2back/STIM_022.jpg
2416.349	0.814	1	2back	Block4	2back/STIM_022.jpg
2419.523	0.747	1	2back	Block4	2back/STIM_023.jpg
2423.802	1.069	1	2back	Block4	2back/STIM_023.jpg
2428.201	1.064	1	2back	Block4	2back/STIM_023.jpg
2431.382	1.183	1	2back	Block4	2back/STIM_024.jpg
2434.826	0.716	1	2back	Block4	2back/STIM_024.jpg
2438.916	0.96	1	2back	Block4	2back/STIM_024.jpg
2443.391	1.171	1	2back	Block4	2back/STIM_025.jpg
2446.683	0.789	1	2back	Block4	2back/STIM_025.jpg
2449.98	0.753	1	2back	Block4	2back/STIM_025.jpg
2454.099	0.801	1	2back	Block4	2back/STIM_026.jpg
2457.543	1.23	1	2back	Block4	2back/STIM_026.jpg
2462.246	1.265	1	2back	Block4	2back/STIM_026.jpg
2466.948	1.182	1	2back	Block4	2back/STIM_027.jpg
2470.211	0.827	0	2back	Block4	2back/STIM_027.jpg
2473.656	1.048	1	2back	Block4	2back/STIM_027.jpg
2477.658	0.697	1	2back	Block4	2back/STIM_028.jpg
2481.436	1.067	1	2back	Block4	2back/STIM_028.jpg
2485.657	1.212	1	2back	Block4	2back/STIM_028.jpg
2489.002	1.208	1	2back	Block4	2back/STIM_029.jpg
2493.289	0.977	0	2back	Block4	2back/STIM_029.jpg
2497.607	0.653	1	2back	Block4	2back/STIM_029.jpg
2500.567	0.912	1	2back	Block4	2back/STIM_030.jpg
2503.542	1.088	1	2back	Block4	2back/STIM_030.jpg
2506.786	1.177	1	2back	Block4	2back/STIM_030.jpg
2511.248	0.564	1	2back	Block4	2back/STIM_031.jpg
2515.445	0.975	1	2back	Block4	2back/STIM_031.jpg
2519.383	0.674	1	2back	Block4	2back/STIM_031.jpg
2523.516	1.061	1	2back	Block4	2back/STIM_032.jpg
2528.163	0.86	1	2back	Block4	2back/STIM_032.jpg
2531.436	0.619	1	2back	Block4	2back/STIM_032.jpg
2535.113	1.111	0	2back	Block4	2back/STIM_033.jpg
2538.274	0.595	1	2back	Block4	2back/STIM_033.jpg
2541.91	0.832	1	2back	Block4	2back/STIM_033.jpg
2545.686	1.027	1	2back	Block4	2back/STIM_034.jpg
2549.157	0.906	1	2back	Block4	2back/STIM_034.jpg
2553.434	1.169	1	2back	Block4	2back/STIM_034.jpg
2557.109	0.827	1	2back	Block4	2back/STIM_035.jpg
2560.808	0.627	1	2back	Block4	2back/STIM_035.jpg
2565.071	0.967	0	2back	Block4	2back/STIM_035.jpg
2568.277	0.915	1	2back	Block4	2back/STIM_036.jpg
2571.899	0.804	1	2back	Block4	2back/STIM_036.jpg
2576.548	1.081	1	2back	Block4	2back/STIM_036.jpg
2581.377	1.148	1	2back	Block4	2back/STIM_037.jpg
2584.602	1.259	1	2back	Block4	2back/STIM_037.jpg
2589.364	1.159	1	2back	Block4	2back/STIM_037.jpg
2594.399	0.641	1	2back	Block4	2back/STIM_038.jpg
2598.447	1.145	1	2back	Block4	2back/STIM_038.jpg
2603.588	0.618	1	2back	Block4	2back/STIM_038.jpg
2606.415	1.091	1	2back	Block4	2back/STIM_039.jpg
2609.689	0.899	1	2back	Block4	2back/STIM_039.jpg
2613.075	0.704	1	2back	Block4	2back/STIM_039.jpg
2616.44	0.866	1	0back	Block4	0back/STIM_000.jpg
2619.739	0.875	1	0back	Block4	0back/STIM_000.jpg
2623.577	0.883	1	0back	Block4	0back/STIM_000.jpg
2627.995	0.632	1	0back	Block4	0back/STIM_001.jpg
2632.162	0.905	1	0back	Block4	0back/STIM_001.jpg
2636.232	0.998	1	0back	Block4	0back/STIM_001.jpg
2640.743	0.634	1	0back	Block4	0back/STIM_002.jpg
2644.646	0.898	1	0back	Block4	0back/STIM_002.jpg
2649.208	0.735	1	0back	Block4	0back/STIM_002.jpg
2652.196	0.982	1	0back	Block4	0back/STIM_003.jpg
2655.365	0.624	1	0back	Block4	0back/STIM_003.jpg
2659.583	0.571	1	0back	Block4	0back/STIM_003.jpg
2663.518	0.763	1	0back	Block4	0back/STIM_004.jpg
2667.766	0.732	1	0back	Block4	0back/STIM_004.jpg
2671.164	0.713	1	0back	Block4	0back/STIM_004.jpg
2674.639	0.84	1	0back	Block4	0back/STIM_005.jpg
2679.468	0.906	1	0back	Block4	0back/STIM_005.jpg
2683.466	1.022	1	0back	Block4	0back/STIM_005.jpg
2688.0	0.836	1	0back	Block4	0back/STIM_006.jpg
2691.669	0.987	1	0back	Block4	0back/STIM_006.jpg
2695.803	0.621	1	0back	Block4	0back/STIM_006.jpg
2698.448	0.939	0	0back	Block4	0back/STIM_007.jpg
2702.248	0.882	1	0back	Block4	0back/STIM_007.jpg
2705.442	0.867	1	0back	Block4	0back/STIM_007.jpg
2710.204	0.619	1	0back	Block4	0back/STIM_008.jpg
2713.816	0.609	1	0back	Block4	0back/STIM_008.jpg
2717.022	0.704	1	0back	Block4	0back/STIM_008.jpg
2721.293	1.029	1	0back	Block4	0back/STIM_009.jpg
2725.524	1.012	1	0back	Block4	0back/STIM_009.jpg
2729.787	1.019	1	0back	Block4	0back/STIM_009.jpg
2734.009	0.995	1	0back	Block4	0back/STIM_010.jpg
2737.634	0.634	1	0back	Block4	0back/STIM_010.jpg
2740.329	0.703	1	0back	Block4	0back/STIM_010.jpg
2744.277	0.625	1	0back	Block4	0back/STIM_011.jpg
2747.334	0.839	1	0back	Block4	0back/STIM_011.jpg
2751.722	0.982	1	0back	Block4	0back/STIM_011.jpg
2754.898	0.566	1	0back	Block4	0back/STIM_012.jpg
2757.771	0.764	1	0back	Block4	0back/STIM_012.jpg
2760.833	0.578	1	0back	Block4	0back/STIM_012.jpg
2763.533	0.608	1	0back	Block4	0back/STIM_013.jpg
2766.897	0.801	1	0back	Block4	0back/STIM_013.jpg
2769.858	0.79	1	0back	Block4	0back/STIM_013.jpg
2774.581	0.928	1	0back	Block4	0back/STIM_014.jpg
2777.687	0.798	1	0back	Block4	0back/STIM_014.jpg
2781.29	0.973	1	0back	Block4	0back/STIM_014.jpg
2785.064	0.768	1	0back	Block4	0back/STIM_015.jpg
2788.99	0.667	1	0back	Block4	0back/STIM_015.jpg
2791.659	0.896	1	0back	Block4	0back/STIM_015.jpg
2795.508	0.536	1	0back	Block4	0back/STIM_016.jpg
2798.059	0.715	1	0back	Block4	0back/STIM_016.jpg
2802.105	0.706	1	0back	Block4	0back/STIM_016.jpg
2806.714	0.624	1	0back	Block4	0back/STIM_017.jpg
2810.1	0.528	1	0back	Block4	0back/STIM_017.jpg
2813.191	0.642	1	0back	Block4	0back/STIM_017.jpg
2816.7	0.975	0	0back	Block4	0back/STIM_018.jpg
2820.738	0.826	1	0back	Block4	0back/STIM_018.jpg
2824.739	0.533	1	0back	Block4	0back/STIM_018.jpg
2828.502	0.528	1	0back	Block4	0back/STIM_019.jpg
2831.439	0.822	1	0back	Block4	0back/STIM_019.jpg
2836.193	0.911	1	0back	Block4	0back/STIM_019.jpg
