onset	duration	accuracy	trial_type	learning_stage	stimulus
0.0	1.45	correct	generate	Run1	generate/STIM_000.jpg
4.539	1.954	incorrect	generate	Run1	generate/STIM_000.jpg
10.156	2.385	correct	generate	Run1	generate/STIM_000.jpg
14.95	2.12	correct	generate	Run1	generate/STIM_000.jpg
20.208	1.225	correct	generate	Run1	generate/STIM_000.jpg
25.454	2.066	correct	generate	Run1	generate/STIM_001.jpg
31.41	2.534	incorrect	generate	Run1	generate/STIM_001.jpg
36.836	1.722	correct	generate	Run1	generate/STIM_001.jpg
42.472	1.852	correct	generate	Run1	generate/STIM_001.jpg
48.445	1.082	correct	generate	Run1	generate/STIM_001.jpg
53.516	1.249	correct	generate	Run1	generate/STIM_002.jpg
57.604	2.095	correct	generate	Run1	generate/STIM_002.jpg
63.157	1.127	correct	generate	Run1	generate/STIM_002.jpg
67.206	1.084	correct	generate	Run1	generate/STIM_002.jpg
70.904	1.076	correct	generate	Run1	generate/STIM_002.jpg
75.645	1.647	correct	generate	Run1	generate/STIM_003.jpg
81.403	1.618	incorrect	generate	Run1	generate/STIM_003.jpg
85.914	1.069	correct	generate	Run1	generate/STIM_003.jpg
90.888	1.545	incorrect	generate	Run1	generate/STIM_003.jpg
95.827	1.32	correct	generate	Run1	generate/STIM_003.jpg
100.763	1.534	correct	generate	Run1	generate/STIM_004.jpg
105.987	1.624	correct	generate	Run1	generate/STIM_004.jpg
110.54	2.422	correct	generate	Run1	generate/STIM_004.jpg
117.025	1.545	incorrect	generate	Run1	generate/STIM_004.jpg
121.583	1.839	correct	generate	Run1	generate/STIM_004.jpg
126.762	2.586	correct	generate	Run1	generate/STIM_005.jpg
132.762	1.415	incorrect	generate	Run1	generate/STIM_005.jpg
136.443	2.278	correct	generate	Run1	generate/STIM_005.jpg
141.841	2.192	incorrect	generate	Run1	generate/STIM_005.jpg
146.56	1.714	correct	generate	Run1	generate/STIM_005.jpg
151.821	2.136	correct	generate	Run1	generate/STIM_006.jpg
156.353	2.182	correct	generate	Run1	generate/STIM_006.jpg
162.175	1.802	incorrect	generate	Run1	generate/STIM_006.jpg
167.302	2.084	correct	generate	Run1	generate/STIM_006.jpg
171.738	2.099	correct	generate	Run1	generate/STIM_006.jpg
176.364	2.443	incorrect	generate	Run1	generate/STIM_007.jpg
182.055	1.949	incorrect	generate	Run1	generate/STIM_007.jpg
186.317	2.018	correct	generate	Run1	generate/STIM_007.jpg
191.965	1.647	incorrect	generate	Run1	generate/STIM_007.jpg
196.894	2.09	correct	generate	Run1	generate/STIM_007.jpg
201.611	2.627	correct	generate	Run1	generate/STIM_008.jpg
207.315	1.115	correct	generate	Run1	generate/STIM_008.jpg
211.264	2.169	incorrect	generate	Run1	generate/STIM_008.jpg
217.435	2.258	correct	generate	Run1	generate/STIM_008.jpg
222.283	1.798	incorrect	generate	Run1	generate/STIM_008.jpg
227.744	1.29	correct	generate	Run1	generate/STIM_009.jpg
231.749	1.302	incorrect	generate	Run1	generate/STIM_009.jpg
235.848	1.97	correct	generate	Run1	generate/STIM_009.jpg
240.872	1.702	incorrect	generate	Run1	generate/STIM_009.jpg
244.899	1.828	correct	generate	Run1	generate/STIM_009.jpg
250.249	1.54	correct	generate	Run1	generate/STIM_010.jpg
254.251	1.999	incorrect	generate	Run1	generate/STIM_010.jpg
259.934	2.017	correct	generate	Run1	generate/STIM_010.jpg
264.644	1.29	correct	generate	Run1	generate/STIM_010.jpg
268.779	1.904	correct	generate	Run1	generate/STIM_010.jpg
274.305	1.694	correct	generate	Run1	generate/STIM_011.jpg
280.039	2.406	correct	generate	Run1	generate/STIM_011.jpg
286.517	2.205	correct	generate	Run1	generate/STIM_011.jpg
292.811	2.367	correct	generate	Run1	generate/STIM_011.jpg
298.621	0.94	correct	generate	Run1	generate/STIM_011.jpg
303.008	1.607	correct	generate	Run1	generate/STIM_012.jpg
308.016	2.393	correct	generate	Run1	generate/STIM_012.jpg
313.796	1.257	correct	generate	Run1	generate/STIM_012.jpg
317.527	1.78	correct	generate	Run1	generate/STIM_012.jpg
321.627	1.543	correct	generate	Run1	generate/STIM_012.jpg
326.273	1.757	correct	generate	Run1	generate/STIM_013.jpg
331.595	1.95	correct	generate	Run1	generate/STIM_013.jpg
335.866	1.85	incorrect	generate	Run1	generate/STIM_013.jpg
340.547	1.679	correct	generate	Run1	generate/STIM_013.jpg
346.308	0.9	correct	generate	Run1	generate/STIM_013.jpg
351.159	1.942	correct	generate	Run1	generate/STIM_014.jpg
356.803	1.151	correct	generate	Run1	generate/STIM_014.jpg
361.868	2.073	correct	generate	Run1	generate/STIM_014.jpg
367.946	2.304	correct	generate	Run1	generate/STIM_014.jpg
373.997	1.438	incorrect	generate	Run1	generate/STIM_014.jpg
378.437	1.32	correct	generate	Run1	generate/STIM_015.jpg
382.283	2.58	correct	generate	Run1	generate/STIM_015.jpg
387.536	1.48	correct	generate	Run1	generate/STIM_015.jpg
392.608	1.586	correct	generate	Run1	generate/STIM_015.jpg
397.176	1.428	correct	generate	Run1	generate/STIM_015.jpg
401.548	2.013	incorrect	generate	Run1	generate/STIM_016.jpg
406.975	1.544	correct	generate	Run1	generate/STIM_016.jpg
411.414	1.922	incorrect	generate	Run1	generate/STIM_016.jpg
415.636	2.333	correct	generate	Run1	generate/STIM_016.jpg
421.686	1.056	correct	generate	Run1	generate/STIM_016.jpg
426.305	2.716	correct	generate	Run1	generate/STIM_017.jpg
431.63	1.21	incorrect	generate	Run1	generate/STIM_017.jpg
436.715	2.219	incorrect	generate	Run1	generate/STIM_017.jpg
442.592	1.661	correct	generate	Run1	generate/STIM_017.jpg
448.188	0.918	correct	generate	Run1	generate/STIM_017.jpg
452.591	1.162	incorrect	generate	Run1	generate/STIM_018.jpg
457.723	1.116	incorrect	generate	Run1	generate/STIM_018.jpg
462.854	2.256	correct	generate	Run1	generate/STIM_018.jpg
467.838	1.826	correct	generate	Run1	generate/STIM_018.jpg
472.329	0.953	correct	generate	Run1	generate/STIM_018.jpg
476.756	2.175	correct	generate	Run1	generate/STIM_019.jpg
481.934	2.554	correct	generate	Run1	generate/STIM_019.jpg
488.126	1.992	correct	generate	Run1	generate/STIM_019.jpg
492.905	1.808	incorrect	generate	Run1	generate/STIM_019.jpg
498.671	2.189	correct	generate	Run1	generate/STIM_019.jpg
504.09	2.398	incorrect	generate	Run1	generate/STIM_020.jpg
510.393	1.818	correct	generate	Run1	generate/STIM_020.jpg
516.204	1.949	correct	generate	Run1	generate/STIM_020.jpg
520.738	1.882	correct	generate	Run1	generate/STIM_020.jpg
526.305	1.952	correct	generate	Run1	generate/STIM_020.jpg
531.813	2.757	incorrect	generate	Run1	generate/STIM_021.jpg
538.151	1.246	correct	generate	Run1	generate/STIM_021.jpg
542.814	1.527	correct	generate	Run1	generate/STIM_021.jpg
547.376	1.611	correct	generate	Run1	generate/STIM_021.jpg
551.707	1.017	incorrect	generate	Run1	generate/STIM_021.jpg
555.508	1.383	correct	generate	Run1	generate/STIM_022.jpg
560.174	2.54	correct	generate	Run1	generate/STIM_022.jpg
564.962	1.94	correct	generate	Run1	generate/STIM_022.jpg
569.851	1.184	incorrect	generate	Run1	generate/STIM_022.jpg
574.005	1.577	incorrect	generate	Run1	generate/STIM_022.jpg
578.398	1.263	correct	generate	Run1	generate/STIM_023.jpg
582.415	1.987	correct	generate	Run1	generate/STIM_023.jpg
588.144	1.873	correct	generate	Run1	generate/STIM_023.jpg
594.069	1.119	correct	generate	Run1	generate/STIM_023.jpg
597.624	1.9	incorrect	generate	Run1	generate/STIM_023.jpg
603.566	2.286	correct	generate	Run1	generate/STIM_024.jpg
609.949	1.185	correct	generate	Run1	generate/STIM_024.jpg
613.634	2.409	correct	generate	Run1	generate/STIM_024.jpg
619.672	2.275	correct	generate	Run1	generate/STIM_024.jpg
625.692	2.045	correct	generate	Run1	generate/STIM_024.jpg
631.605	0.811	correct	repeat	Run1	repeat/STIM_000.jpg
634.676	0.901	correct	repeat	Run1	repeat/STIM_000.jpg
637.728	0.656	correct	repeat	Run1	repeat/STIM_000.jpg
641.65	0.699	correct	repeat	Run1	repeat/STIM_000.jpg
644.671	0.91	correct	repeat	Run1	repeat/STIM_000.jpg
648.404	0.726	correct	repeat	Run1	repeat/STIM_001.jpg
652.566	0.918	correct	repeat	Run1	repeat/STIM_001.jpg
657.068	0.666	correct	repeat	Run1	repeat/STIM_001.jpg
660.413	0.729	correct	repeat	Run1	repeat/STIM_001.jpg
664.106	0.63	correct	repeat	Run1	repeat/STIM_001.jpg
667.162	0.514	correct	repeat	Run1	repeat/STIM_002.jpg
670.987	0.524	correct	repeat	Run1	repeat/STIM_002.jpg
674.048	0.876	correct	repeat	Run1	repeat/STIM_002.jpg
678.001	0.624	correct	repeat	Run1	repeat/STIM_002.jpg
682.036	0.498	correct	repeat	Run1	repeat/STIM_002.jpg
686.388	0.706	correct	repeat	Run1	repeat/STIM_003.jpg
689.608	0.87	incorrect	repeat	Run1	repeat/STIM_003.jpg
693.307	0.568	correct	repeat	Run1	repeat/STIM_003.jpg
696.249	0.55	correct	repeat	Run1	repeat/STIM_003.jpg
700.645	0.583	correct	repeat	Run1	repeat/STIM_003.jpg
703.752	0.831	correct	repeat	Run1	repeat/STIM_004.jpg
707.86	0.844	correct	repeat	Run1	repeat/STIM_004.jpg
712.244	0.779	correct	repeat	Run1	repeat/STIM_004.jpg
716.022	0.752	correct	repeat	Run1	repeat/STIM_004.jpg
719.967	0.536	correct	repeat	Run1	repeat/STIM_004.jpg
724.236	0.573	correct	repeat	Run1	repeat/STIM_005.jpg
727.287	0.928	correct	repeat	Run1	repeat/STIM_005.jpg
731.414	0.675	correct	repeat	Run1	repeat/STIM_005.jpg
734.892	0.591	correct	repeat	Run1	repeat/STIM_005.jpg
738.909	0.896	correct	repeat	Run1	repeat/STIM_005.jpg
741.964	0.792	correct	repeat	Run1	repeat/STIM_006.jpg
746.677	0.806	correct	repeat	Run1	repeat/STIM_006.jpg
749.936	0.605	correct	repeat	Run1	repeat/STIM_006.jpg
754.209	0.707	correct	repeat	Run1	repeat/STIM_006.jpg
757.432	0.666	correct	repeat	Run1	repeat/STIM_006.jpg
761.589	0.588	correct	repeat	Run1	repeat/STIM_007.jpg
766.061	0.776	correct	repeat	Run1	repeat/STIM_007.jpg
769.297	0.564	correct	repeat	Run1	repeat/STIM_007.jpg
772.456	0.474	correct	repeat	Run1	repeat/STIM_007.jpg
775.959	0.546	correct	repeat	Run1	repeat/STIM_007.jpg
778.935	0.847	correct	repeat	Run1	repeat/STIM_008.jpg
783.103	0.843	correct	repeat	Run1	repeat/STIM_008.jpg
787.694	0.568	correct	repeat	Run1	repeat/STIM_008.jpg
791.753	0.731	correct	repeat	Run1	repeat/STIM_008.jpg
795.916	0.836	correct	repeat	Run1	repeat/STIM_008.jpg
800.106	0.677	correct	repeat	Run1	repeat/STIM_009.jpg
803.272	0.714	correct	repeat	Run1	repeat/STIM_009.jpg
808.026	0.708	correct	repeat	Run1	repeat/STIM_009.jpg
811.544	0.512	correct	repeat	Run1	repeat/STIM_009.jpg
815.909	0.568	correct	repeat	Run1	repeat/STIM_009.jpg
818.997	0.903	correct	repeat	Run1	repeat/STIM_010.jpg
822.528	0.789	correct	repeat	Run1	repeat/STIM_010.jpg
825.698	0.758	correct	repeat	Run1	repeat/STIM_010.jpg
828.786	0.874	correct	repeat	Run1	repeat/STIM_010.jpg
833.031	0.554	correct	repeat	Run1	repeat/STIM_010.jpg
836.77	0.761	correct	repeat	Run1	repeat/STIM_011.jpg
841.046	0.625	correct	repeat	Run1	repeat/STIM_011.jpg
844.27	0.601	correct	repeat	Run1	repeat/STIM_011.jpg
848.211	0.492	correct	repeat	Run1	repeat/STIM_011.jpg
852.601	0.525	correct	repeat	Run1	repeat/STIM_011.jpg
856.081	0.769	correct	repeat	Run1	repeat/STIM_012.jpg
860.455	0.597	correct	repeat	Run1	repeat/STIM_012.jpg
863.13	0.677	correct	repeat	Run1	repeat/STIM_012.jpg
867.031	0.69	correct	repeat	Run1	repeat/STIM_012.jpg
869.791	0.927	correct	repeat	Run1	repeat/STIM_012.jpg
873.593	0.555	incorrect	repeat	Run1	repeat/STIM_013.jpg
877.904	0.63	correct	repeat	Run1	repeat/STIM_013.jpg
880.923	0.518	correct	repeat	Run1	repeat/STIM_013.jpg
885.421	0.882	correct	repeat	Run1	repeat/STIM_013.jpg
890.088	0.916	correct	repeat	Run1	repeat/STIM_013.jpg
893.201	0.839	correct	repeat	Run1	repeat/STIM_014.jpg
896.892	0.855	correct	repeat	Run1	repeat/STIM_014.jpg
900.774	0.69	correct	repeat	Run1	repeat/STIM_014.jpg
905.266	0.852	correct	repeat	Run1	repeat/STIM_014.jpg
909.074	0.572	correct	repeat	Run1	repeat/STIM_014.jpg
912.393	1.742	correct	generate	Run2	generate/STIM_000.jpg
917.662	2.035	correct	generate	Run2	generate/STIM_000.jpg
923.48	1.644	correct	generate	Run2	generate/STIM_000.jpg
927.537	1.126	correct	generate	Run2	generate/STIM_000.jpg
930.982	1.916	correct	generate	Run2	generate/STIM_000.jpg
935.655	1.692	correct	generate	Run2	generate/STIM_001.jpg
939.636	1.375	correct	generate	Run2	generate/STIM_001.jpg
944.81	1.826	correct	generate	Run2	generate/STIM_001.jpg
949.024	1.868	correct	generate	Run2	generate/STIM_001.jpg
953.27	1.81	correct	generate	Run2	generate/STIM_001.jpg
959.117	1.592	correct	generate	Run2	generate/STIM_002.jpg
963.772	1.731	correct	generate	Run2	generate/STIM_002.jpg
969.553	1.334	correct	generate	Run2	generate/STIM_002.jpg
974.674	1.74	correct	generate	Run2	generate/STIM_002.jpg
980.496	1.36	correct	generate	Run2	generate/STIM_002.jpg
984.25	1.682	correct	generate	Run2	generate/STIM_003.jpg
989.891	1.181	correct	generate	Run2	generate/STIM_003.jpg
993.247	1.881	correct	generate	Run2	generate/STIM_003.jpg
998.259	1.644	correct	generate	Run2	generate/STIM_003.jpg
1003.814	1.536	correct	generate	Run2	generate/STIM_003.jpg
1008.911	2.234	correct	generate	Run2	generate/STIM_004.jpg
1014.108	1.969	incorrect	generate	Run2	generate/STIM_004.jpg
1018.607	0.974	correct	generate	Run2	generate/STIM_004.jpg
1021.976	1.143	correct	generate	Run2	generate/STIM_004.jpg
1026.507	1.672	correct	generate	Run2	generate/STIM_004.jpg
1031.033	1.934	correct	generate	Run2	generate/STIM_005.jpg
1035.956	1.718	correct	generate	Run2	generate/STIM_005.jpg
1040.054	1.161	incorrect	generate	Run2	generate/STIM_005.jpg
1043.378	0.984	correct	generate	Run2	generate/STIM_005.jpg
1047.829	1.855	correct	generate	Run2	generate/STIM_005.jpg
1053.447	2.145	correct	generate	Run2	generate/STIM_006.jpg
1058.581	2.012	correct	generate	Run2	generate/STIM_006.jpg
1062.886	0.898	correct	generate	Run2	generate/STIM_006.jpg
1067.807	1.052	correct	generate	Run2	generate/STIM_006.jpg
1072.925	1.293	correct	generate	Run2	generate/STIM_006.jpg
1076.311	1.133	correct	generate	Run2	generate/STIM_007.jpg
1080.373	1.075	correct	generate	Run2	generate/STIM_007.jpg
1083.754	1.623	correct	generate	Run2	generate/STIM_007.jpg
1087.561	1.611	correct	generate	Run2	generate/STIM_007.jpg
1091.325	1.899	correct	generate	Run2	generate/STIM_007.jpg
1096.888	2.152	correct	generate	Run2	generate/STIM_008.jpg
1102.337	1.3	correct	generate	Run2	generate/STIM_008.jpg
1106.635	1.605	correct	generate	Run2	generate/STIM_008.jpg
1111.586	1.049	correct	generate	Run2	generate/STIM_008.jpg
1115.505	0.987	correct	generate	Run2	generate/STIM_008.jpg
1120.09	1.184	correct	generate	Run2	generate/STIM_009.jpg
1124.645	2.188	correct	generate	Run2	generate/STIM_009.jpg
1129.188	1.209	correct	generate	Run2	generate/STIM_009.jpg
1132.754	1.651	incorrect	generate	Run2	generate/STIM_009.jpg
1137.945	1.085	correct	generate	Run2	generate/STIM_009.jpg
1141.966	2.303	correct	generate	Run2	generate/STIM_010.jpg
1147.095	1.344	correct	generate	Run2	generate/STIM_010.jpg
1151.136	1.43	correct	generate	Run2	generate/STIM_010.jpg
1155.257	1.882	correct	generate	Run2	generate/STIM_010.jpg
1160.0	0.802	correct	generate	Run2	generate/STIM_010.jpg
1164.837	1.457	correct	generate	Run2	generate/STIM_011.jpg
1169.41	1.749	correct	generate	Run2	generate/STIM_011.jpg
1173.975	1.29	correct	generate	Run2	generate/STIM_011.jpg
1178.631	1.758	correct	generate	Run2	generate/STIM_011.jpg
1184.211	1.839	correct	generate	Run2	generate/STIM_011.jpg
1189.845	1.014	correct	generate	Run2	generate/STIM_012.jpg
1193.219	1.702	correct	generate	Run2	generate/STIM_012.jpg
1197.835	1.654	incorrect	generate	Run2	generate/STIM_012.jpg
1203.228	1.745	correct	generate	Run2	generate/STIM_012.jpg
1208.049	1.496	correct	generate	Run2	generate/STIM_012.jpg
1213.12	2.168	correct	generate	Run2	generate/STIM_013.jpg
1219.268	0.953	correct	generate	Run2	generate/STIM_013.jpg
1223.044	1.29	correct	generate	Run2	generate/STIM_013.jpg
1227.883	1.775	correct	generate	Run2	generate/STIM_013.jpg
1233.59	1.476	correct	generate	Run2	generate/STIM_013.jpg
1237.697	1.16	incorrect	generate	Run2	generate/STIM_014.jpg
1241.418	1.193	correct	generate	Run2	generate/STIM_014.jpg
1245.674	1.751	correct	generate	Run2	generate/STIM_014.jpg
1251.487	1.806	correct	generate	Run2	generate/STIM_014.jpg
1256.494	1.867	correct	generate	Run2	generate/STIM_014.jpg
1260.522	1.653	correct	generate	Run2	generate/STIM_015.jpg
1266.281	1.247	incorrect	generate	Run2	generate/STIM_015.jpg
1269.623	1.963	correct	generate	Run2	generate/STIM_015.jpg
1275.571	1.688	correct	generate	Run2	generate/STIM_015.jpg
1279.481	1.741	correct	generate	Run2	generate/STIM_015.jpg
1283.342	1.047	correct	generate	Run2	generate/STIM_016.jpg
1286.794	2.201	correct	generate	Run2	generate/STIM_016.jpg
1291.889	1.005	incorrect	generate	Run2	generate/STIM_016.jpg
1295.855	1.697	correct	generate	Run2	generate/STIM_016.jpg
1300.355	1.761	correct	generate	Run2	generate/STIM_016.jpg
1306.029	2.218	correct	generate	Run2	generate/STIM_017.jpg
1312.28	2.207	correct	generate	Run2	generate/STIM_017.jpg
1316.839	1.376	correct	generate	Run2	generate/STIM_017.jpg
1322.138	1.504	correct	generate	Run2	generate/STIM_017.jpg
1327.079	1.891	incorrect	generate	Run2	generate/STIM_017.jpg
1331.719	1.644	correct	generate	Run2	generate/STIM_018.jpg
1336.439	0.926	correct	generate	Run2	generate/STIM_018.jpg
1339.78	1.565	correct	generate	Run2	generate/STIM_018.jpg
1344.616	0.807	correct	generate	Run2	generate/STIM_018.jpg
1348.476	0.948	incorrect	generate	Run2	generate/STIM_018.jpg
1353.421	1.534	correct	generate	Run2	generate/STIM_019.jpg
1357.137	1.747	incorrect	generate	Run2	generate/STIM_019.jpg
1362.641	1.23	correct	generate	Run2	generate/STIM_019.jpg
1366.24	1.891	incorrect	generate	Run2	generate/STIM_019.jpg
1371.728	1.416	correct	generate	Run2	generate/STIM_019.jpg
1376.829	1.732	correct	generate	Run2	generate/STIM_020.jpg
1382.297	1.854	correct	generate	Run2	generate/STIM_020.jpg
1387.947	0.968	correct	generate	Run2	generate/STIM_020.jpg
1391.091	1.781	incorrect	generate	Run2	generate/STIM_020.jpg
1395.405	1.804	correct	generate	Run2	generate/STIM_020.jpg
1401.152	1.818	correct	generate	Run2	generate/STIM_021.jpg
1406.37	2.184	correct	generate	Run2	generate/STIM_021.jpg
1412.336	1.435	correct	generate	Run2	generate/STIM_021.jpg
1416.736	0.823	correct	generate	Run2	generate/STIM_021.jpg
1420.45	1.047	correct	generate	Run2	generate/STIM_021.jpg
1425.315	1.003	correct	generate	Run2	generate/STIM_022.jpg
1430.125	1.024	correct	generate	Run2	generate/STIM_022.jpg
1433.703	1.992	correct	generate	Run2	generate/STIM_022.jpg
1439.657	1.7	correct	generate	Run2	generate/STIM_022.jpg
1444.126	1.175	correct	generate	Run2	generate/STIM_022.jpg
1447.622	1.918	incorrect	generate	Run2	generate/STIM_023.jpg
1453.613	2.039	correct	generate	Run2	generate/STIM_023.jpg
1458.59	1.463	correct	generate	Run2	generate/STIM_023.jpg
1463.502	1.688	correct	generate	Run2	generate/STIM_023.jpg
1468.736	1.161	correct	generate	Run2	generate/STIM_023.jpg
1472.807	1.165	correct	generate	Run2	generate/STIM_024.jpg
1476.881	2.241	correct	generate	Run2	generate/STIM_024.jpg
1481.891	1.27	correct	generate	Run2	generate/STIM_024.jpg
1485.53	0.949	correct	generate	Run2	generate/STIM_024.jpg
1490.329	1.336	correct	generate	Run2	generate/STIM_024.jpg
1494.64	0.766	correct	repeat	Run2	repeat/STIM_000.jpg
1499.078	0.594	correct	repeat	Run2	repeat/STIM_000.jpg
1503.011	0.545	incorrect	repeat	Run2	repeat/STIM_000.jpg
1505.975	0.66	correct	repeat	Run2	repeat/STIM_000.jpg
1509.406	0.501	correct	repeat	Run2	repeat/STIM_000.jpg
1513.007	0.572	correct	repeat	Run2	repeat/STIM_001.jpg
1516.941	0.74	correct	repeat	Run2	repeat/STIM_001.jpg
1521.445	0.499	correct	repeat	Run2	repeat/STIM_001.jpg
1524.678	0.575	correct	repeat	Run2	repeat/STIM_001.jpg
1528.435	0.486	correct	repeat	Run2	repeat/STIM_001.jpg
1532.294	0.852	correct	repeat	Run2	repeat/STIM_002.jpg
1535.521	0.856	correct	repeat	Run2	repeat/STIM_002.jpg
1539.815	0.484	correct	repeat	Run2	repeat/STIM_002.jpg
1543.197	0.738	correct	repeat	Run2	repeat/STIM_002.jpg
1547.666	0.648	correct	repeat	Run2	repeat/STIM_002.jpg
1550.372	0.717	correct	repeat	Run2	repeat/STIM_003.jpg
1553.822	0.724	correct	repeat	Run2	repeat/STIM_003.jpg
1556.714	0.686	correct	repeat	Run2	repeat/STIM_003.jpg
1559.584	0.926	correct	repeat	Run2	repeat/STIM_003.jpg
1563.451	0.682	correct	repeat	Run2	repeat/STIM_003.jpg
1567.392	0.469	correct	repeat	Run2	repeat/STIM_004.jpg
1570.655	0.575	incorrect	repeat	Run2	repeat/STIM_004.jpg
1574.164	0.901	correct	repeat	Run2	repeat/STIM_004.jpg
1578.991	0.867	correct	repeat	Run2	repeat/STIM_004.jpg
1582.138	0.931	correct	repeat	Run2	repeat/STIM_004.jpg
1585.841	0.727	correct	repeat	Run2	repeat/STIM_005.jpg
1590.045	0.856	correct	repeat	Run2	repeat/STIM_005.jpg
1593.9	0.736	correct	repeat	Run2	repeat/STIM_005.jpg
1597.798	0.857	correct	repeat	Run2	repeat/STIM_005.jpg
1601.395	0.539	correct	repeat	Run2	repeat/STIM_005.jpg
1604.233	0.898	incorrect	repeat	Run2	repeat/STIM_006.jpg
1609.119	0.515	correct	repeat	Run2	repeat/STIM_006.jpg
1612.759	0.934	correct	repeat	Run2	repeat/STIM_006.jpg
1617.101	0.63	correct	repeat	Run2	repeat/STIM_006.jpg
1621.366	0.595	correct	repeat	Run2	repeat/STIM_006.jpg
1625.084	0.736	correct	repeat	Run2	repeat/STIM_007.jpg
1629.606	0.479	correct	repeat	Run2	repeat/STIM_007.jpg
1632.693	0.634	correct	repeat	Run2	repeat/STIM_007.jpg
1635.582	0.847	correct	repeat	Run2	repeat/STIM_007.jpg
1639.563	0.656	correct	repeat	Run2	repeat/STIM_007.jpg
1643.433	0.723	correct	repeat	Run2	repeat/STIM_008.jpg
1647.108	0.583	correct	repeat	Run2	repeat/STIM_008.jpg
1650.362	0.75	correct	repeat	Run2	repeat/STIM_008.jpg
1654.765	0.818	correct	repeat	Run2	repeat/STIM_008.jpg
1658.74	0.788	correct	repeat	Run2	repeat/STIM_008.jpg
1662.812	0.639	correct	repeat	Run2	repeat/STIM_009.jpg
1665.562	0.76	correct	repeat	Run2	repeat/STIM_009.jpg
1669.711	0.852	correct	repeat	Run2	repeat/STIM_009.jpg
1674.154	0.891	correct	repeat	Run2	repeat/STIM_009.jpg
1678.225	0.58	incorrect	repeat	Run2	repeat/STIM_009.jpg
1682.687	0.517	incorrect	repeat	Run2	repeat/STIM_010.jpg
1686.035	0.836	correct	repeat	Run2	repeat/STIM_010.jpg
1690.448	0.658	correct	repeat	Run2	repeat/STIM_010.jpg
1694.082	0.895	correct	repeat	Run2	repeat/STIM_010.jpg
1697.975	0.556	correct	repeat	Run2	repeat/STIM_010.jpg
1702.446	0.715	correct	repeat	Run2	repeat/STIM_011.jpg
1706.399	0.553	correct	repeat	Run2	repeat/STIM_011.jpg
1709.271	0.787	correct	repeat	Run2	repeat/STIM_011.jpg
1713.034	0.791	correct	repeat	Run2	repeat/STIM_011.jpg
1716.835	0.685	correct	repeat	Run2	repeat/STIM_011.jpg
1721.464	0.647	correct	repeat	Run2	repeat/STIM_012.jpg
1725.061	0.759	correct	repeat	Run2	repeat/STIM_012.jpg
1729.505	0.859	correct	repeat	Run2	repeat/STIM_012.jpg
1734.123	0.898	correct	repeat	Run2	repeat/STIM_012.jpg
1737.607	0.555	correct	repeat	Run2	repeat/STIM_012.jpg
1740.89	0.493	correct	repeat	Run2	repeat/STIM_013.jpg
1744.679	0.732	correct	repeat	Run2	repeat/STIM_013.jpg
1749.328	0.599	correct	repeat	Run2	repeat/STIM_013.jpg
1753.682	0.798	correct	repeat	Run2	repeat/STIM_013.jpg
1756.797	0.756	correct	repeat	Run2	repeat/STIM_013.jpg
1760.684	0.911	correct	repeat	Run2	repeat/STIM_014.jpg
1763.763	0.756	correct	repeat	Run2	repeat/STIM_014.jpg
1768.043	0.586	correct	repeat	Run2	repeat/STIM_014.jpg
1770.886	0.789	correct	repeat	Run2	repeat/STIM_014.jpg
1774.557	0.801	correct	repeat	Run2	repeat/STIM_014.jpg
1778.003	1.644	correct	generate	Run3	generate/STIM_000.jpg
1783.761	1.962	correct	generate	Run3	generate/STIM_000.jpg
1789.009	1.664	correct	generate	Run3	generate/STIM_000.jpg
1793.195	1.584	correct	generate	Run3	generate/STIM_000.jpg
1798.466	0.902	correct	generate	Run3	generate/STIM_000.jpg
1801.911	1.629	correct	generate	Run3	generate/STIM_001.jpg
1806.492	1.289	correct	generate	Run3	generate/STIM_001.jpg
1810.415	1.307	correct	generate	Run3	generate/STIM_001.jpg
1814.171	1.245	correct	generate	Run3	generate/STIM_001.jpg
1818.013	1.857	correct	generate	Run3	generate/STIM_001.jpg
1823.022	0.984	correct	generate	Run3	generate/STIM_002.jpg
1827.706	1.426	incorrect	generate	Run3	generate/STIM_002.jpg
1832.171	1.953	correct	generate	Run3	generate/STIM_002.jpg
1836.925	1.756	correct	generate	Run3	generate/STIM_002.jpg
1842.147	1.719	correct	generate	Run3	generate/STIM_002.jpg
1846.539	1.761	incorrect	generate	Run3	generate/STIM_003.jpg
1850.524	1.909	correct	generate	Run3	generate/STIM_003.jpg
1854.89	1.49	correct	generate	Run3	generate/STIM_003.jpg
1859.358	1.737	correct	generate	Run3	generate/STIM_003.jpg
1863.652	1.352	correct	generate	Run3	generate/STIM_003.jpg
1868.318	1.888	incorrect	generate	Run3	generate/STIM_004.jpg
1872.564	1.716	correct	generate	Run3	generate/STIM_004.jpg
1877.81	1.372	correct	generate	Run3	generate/STIM_004.jpg
1883.159	0.955	correct	generate	Run3	generate/STIM_004.jpg
1888.0	1.446	correct	generate	Run3	generate/STIM_004.jpg
1892.732	1.274	correct	generate	Run3	generate/STIM_005.jpg
1897.519	1.059	correct	generate	Run3	generate/STIM_005.jpg
1901.484	0.835	correct	generate	Run3	generate/STIM_005.jpg
1905.342	1.064	correct	generate	Run3	generate/STIM_005.jpg
1909.267	1.797	correct	generate	Run3	generate/STIM_005.jpg
1914.976	1.757	correct	generate	Run3	generate/STIM_006.jpg
1920.118	1.426	correct	generate	Run3	generate/STIM_006.jpg
1925.214	1.12	incorrect	generate	Run3	generate/STIM_006.jpg
1929.254	1.708	correct	generate	Run3	generate/STIM_006.jpg
1934.667	1.629	correct	generate	Run3	generate/STIM_006.jpg
1939.484	0.954	correct	generate	Run3	generate/STIM_007.jpg
1943.034	1.455	incorrect	generate	Run3	generate/STIM_007.jpg
1946.97	1.553	correct	generate	Run3	generate/STIM_007.jpg
1952.516	1.484	correct	generate	Run3	generate/STIM_007.jpg
1956.563	1.146	correct	generate	Run3	generate/STIM_007.jpg
1960.127	1.185	correct	generate	Run3	generate/STIM_008.jpg
1965.347	1.61	incorrect	generate	Run3	generate/STIM_008.jpg
1969.203	1.712	correct	generate	Run3	generate/STIM_008.jpg
1974.297	0.849	correct	generate	Run3	generate/STIM_008.jpg
1979.0	1.245	correct	generate	Run3	generate/STIM_008.jpg
1983.303	1.903	correct	generate	Run3	generate/STIM_009.jpg
1989.062	0.865	correct	generate	Run3	generate/STIM_009.jpg
1992.742	1.672	correct	generate	Run3	generate/STIM_009.jpg
1998.215	1.274	correct	generate	Run3	generate/STIM_009.jpg
2003.566	1.821	correct	generate	Run3	generate/STIM_009.jpg
2009.348	1.842	correct	generate	Run3	generate/STIM_010.jpg
2013.747	1.932	correct	generate	Run3	generate/STIM_010.jpg
2019.593	1.66	correct	generate	Run3	generate/STIM_010.jpg
2025.072	1.248	correct	generate	Run3	generate/STIM_010.jpg
2028.547	1.624	correct	generate	Run3	generate/STIM_010.jpg
2033.758	1.094	correct	generate	Run3	generate/STIM_011.jpg
2037.869	0.886	correct	generate	Run3	generate/STIM_011.jpg
2041.617	1.895	correct	generate	Run3	generate/STIM_011.jpg
2046.585	0.786	correct	generate	Run3	generate/STIM_011.jpg
2050.619	1.298	correct	generate	Run3	generate/STIM_011.jpg
2054.182	1.463	correct	generate	Run3	generate/STIM_012.jpg
2058.211	1.125	correct	generate	Run3	generate/STIM_012.jpg
2062.117	0.963	correct	generate	Run3	generate/STIM_012.jpg
2065.292	1.195	correct	generate	Run3	generate/STIM_012.jpg
2070.069	1.534	correct	generate	Run3	generate/STIM_012.jpg
2074.939	1.144	correct	generate	Run3	generate/STIM_013.jpg
2078.504	1.352	incorrect	generate	Run3	generate/STIM_013.jpg
2083.457	1.707	correct	generate	Run3	generate/STIM_013.jpg
2089.254	1.171	correct	generate	Run3	generate/STIM_013.jpg
2093.346	1.651	correct	generate	Run3	generate/STIM_013.jpg
2097.899	1.895	correct	generate	Run3	generate/STIM_014.jpg
2102.956	1.175	correct	generate	Run3	generate/STIM_014.jpg
2107.983	1.048	correct	generate	Run3	generate/STIM_014.jpg
2112.186	1.238	correct	generate	Run3	generate/STIM_014.jpg
2115.529	1.19	correct	generate	Run3	generate/STIM_014.jpg
2118.868	1.199	correct	generate	Run3	generate/STIM_015.jpg
2123.22	0.792	correct	generate	Run3	generate/STIM_015.jpg
2127.868	0.821	correct	generate	Run3	generate/STIM_015.jpg
2132.669	0.952	correct	generate	Run3	generate/STIM_015.jpg
2136.878	0.804	correct	generate	Run3	generate/STIM_015.jpg
2141.525	1.756	correct	generate	Run3	generate/STIM_016.jpg
2147.177	0.977	correct	generate	Run3	generate/STIM_016.jpg
2152.168	1.372	correct	generate	Run3	generate/STIM_016.jpg
2156.955	1.375	correct	generate	Run3	generate/STIM_016.jpg
2161.783	1.593	correct	generate	Run3	generate/STIM_016.jpg
2167.174	1.958	correct	generate	Run3	generate/STIM_017.jpg
2171.302	1.101	correct	generate	Run3	generate/STIM_017.jpg
2174.859	1.169	correct	generate	Run3	generate/STIM_017.jpg
2178.194	1.382	correct	generate	Run3	generate/STIM_017.jpg
2183.424	1.095	correct	generate	Run3	generate/STIM_017.jpg
2187.095	0.973	correct	generate	Run3	generate/STIM_018.jpg
2190.17	1.303	incorrect	generate	Run3	generate/STIM_018.jpg
2193.594	1.297	correct	generate	Run3	generate/STIM_018.jpg
2197.997	1.322	correct	generate	Run3	generate/STIM_018.jpg
2203.003	1.758	correct	generate	Run3	generate/STIM_018.jpg
2207.602	0.962	correct	generate	Run3	generate/STIM_019.jpg
2212.303	1.929	correct	generate	Run3	generate/STIM_019.jpg
2216.551	1.044	correct	generate	Run3	generate/STIM_019.jpg
2220.191	1.551	correct	generate	Run3	generate/STIM_019.jpg
2225.818	0.898	correct	generate	Run3	generate/STIM_019.jpg
2230.204	0.877	correct	generate	Run3	generate/STIM_020.jpg
2235.067	1.188	correct	generate	Run3	generate/STIM_020.jpg
2238.851	1.86	correct	generate	Run3	generate/STIM_020.jpg
2244.253	0.858	incorrect	generate	Run3	generate/STIM_020.jpg
2248.296	1.874	correct	generate	Run3	generate/STIM_020.jpg
2253.643	1.961	correct	generate	Run3	generate/STIM_021.jpg
2258.371	0.917	correct	generate	Run3	generate/STIM_021.jpg
2263.208	1.1	correct	generate	Run3	generate/STIM_021.jpg
2266.602	1.814	correct	generate	Run3	generate/STIM_021.jpg
2271.948	1.107	correct	generate	Run3	generate/STIM_021.jpg
2276.479	0.934	correct	generate	Run3	generate/STIM_022.jpg
2280.19	1.899	correct	generate	Run3	generate/STIM_022.jpg
2284.252	1.817	correct	generate	Run3	generate/STIM_022.jpg
2289.516	1.774	correct	generate	Run3	generate/STIM_022.jpg
2293.76	1.916	correct	generate	Run3	generate/STIM_022.jpg
2299.578	1.287	correct	generate	Run3	generate/STIM_023.jpg
2303.6	1.099	correct	generate	Run3	generate/STIM_023.jpg
2307.225	0.88	correct	generate	Run3	generate/STIM_023.jpg
2311.073	1.351	correct	generate	Run3	generate/STIM_023.jpg
2315.675	0.916	correct	generate	Run3	generate/STIM_023.jpg
2319.639	1.791	incorrect	generate	Run3	generate/STIM_024.jpg
2324.422	1.026	correct	generate	Run3	generate/STIM_024.jpg
2329.263	0.947	correct	generate	Run3	generate/STIM_024.jpg
2332.997	1.712	correct	generate	Run3	generate/STIM_024.jpg
2337.141	1.87	correct	generate	Run3	generate/STIM_024.jpg
2343.085	0.898	correct	repeat	Run3	repeat/STIM_000.jpg
2346.759	0.918	correct	repeat	Run3	repeat/STIM_000.jpg
2350.238	0.601	correct	repeat	Run3	repeat/STIM_000.jpg
2352.926	0.567	correct	repeat	Run3	repeat/STIM_000.jpg
2356.78	0.648	correct	repeat	Run3	repeat/STIM_000.jpg
2359.585	0.634	correct	repeat	Run3	repeat/STIM_001.jpg
2364.253	0.793	correct	repeat	Run3	repeat/STIM_001.jpg
2367.851	0.543	correct	repeat	Run3	repeat/STIM_001.jpg
2371.205	0.82	correct	repeat	Run3	repeat/STIM_001.jpg
2375.967	0.479	correct	repeat	Run3	repeat/STIM_001.jpg
2378.969	0.578	correct	repeat	Run3	repeat/STIM_002.jpg
2381.793	0.64	correct	repeat	Run3	repeat/STIM_002.jpg
2385.954	0.585	correct	repeat	Run3	repeat/STIM_002.jpg
2388.859	0.839	correct	repeat	Run3	repeat/STIM_002.jpg
2392.599	0.721	correct	repeat	Run3	repeat/STIM_002.jpg
2396.744	0.639	correct	repeat	Run3	repeat/STIM_003.jpg
2400.465	0.579	correct	repeat	Run3	repeat/STIM_003.jpg
2404.074	0.768	correct	repeat	Run3	repeat/STIM_003.jpg
2408.056	0.676	correct	repeat	Run3	repeat/STIM_003.jpg
2411.16	0.884	incorrect	repeat	Run3	repeat/STIM_003.jpg
2415.327	0.809	correct	repeat	Run3	repeat/STIM_004.jpg
2420.03	0.832	correct	repeat	Run3	repeat/STIM_004.jpg
2424.716	0.886	correct	repeat	Run3	repeat/STIM_004.jpg
2429.023	0.777	correct	repeat	Run3	repeat/STIM_004.jpg
2433.496	0.839	correct	repeat	Run3	repeat/STIM_004.jpg
2436.561	0.521	correct	repeat	Run3	repeat/STIM_005.jpg
2440.68	0.909	correct	repeat	Run3	repeat/STIM_005.jpg
2444.51	0.526	incorrect	repeat	Run3	repeat/STIM_005.jpg
2448.768	0.516	correct	repeat	Run3	repeat/STIM_005.jpg
2452.728	0.863	correct	repeat	Run3	repeat/STIM_005.jpg
2456.487	0.828	correct	repeat	Run3	repeat/STIM_006.jpg
2461.072	0.694	correct	repeat	Run3	repeat/STIM_006.jpg
2464.321	0.666	correct	repeat	Run3	repeat/STIM_006.jpg
2467.644	0.859	correct	repeat	Run3	repeat/STIM_006.jpg
2471.203	0.867	correct	repeat	Run3	repeat/STIM_006.jpg
2474.496	0.705	correct	repeat	Run3	repeat/STIM_007.jpg
2479.142	0.56	correct	repeat	Run3	repeat/STIM_007.jpg
2483.47	0.557	correct	repeat	Run3	repeat/STIM_007.jpg
2487.683	0.932	correct	repeat	Run3	repeat/STIM_007.jpg
2491.701	0.693	correct	repeat	Run3	repeat/STIM_007.jpg
2495.233	0.863	correct	repeat	Run3	repeat/STIM_008.jpg
2498.524	0.929	correct	repeat	Run3	repeat/STIM_008.jpg
2501.576	0.878	correct	repeat	Run3	repeat/STIM_008.jpg
2504.581	0.588	correct	repeat	Run3	repeat/STIM_008.jpg
2508.26	0.834	correct	repeat	Run3	repeat/STIM_008.jpg
2511.405	0.61	correct	repeat	Run3	repeat/STIM_009.jpg
2514.768	0.838	correct	repeat	Run3	repeat/STIM_009.jpg
2518.792	0.868	correct	repeat	Run3	repeat/STIM_009.jpg
2523.26	0.594	correct	repeat	Run3	repeat/STIM_009.jpg
2527.861	0.881	correct	repeat	Run3	repeat/STIM_009.jpg
2531.945	0.739	correct	repeat	Run3	repeat/STIM_010.jpg
2535.982	0.802	correct	repeat	Run3	repeat/STIM_010.jpg
2540.805	0.591	correct	repeat	Run3	repeat/STIM_010.jpg
2544.351	0.554	correct	repeat	Run3	repeat/STIM_010.jpg
2547.644	0.715	correct	repeat	Run3	repeat/STIM_010.jpg
2550.546	0.804	correct	repeat	Run3	repeat/STIM_011.jpg
2554.468	0.514	correct	repeat	Run3	repeat/STIM_011.jpg
2558.366	0.507	correct	repeat	Run3	repeat/STIM_011.jpg
2562.889	0.791	correct	repeat	Run3	repeat/STIM_011.jpg
2566.894	0.752	correct	repeat	Run3	repeat/STIM_011.jpg
2570.431	0.505	correct	repeat	Run3	repeat/STIM_012.jpg
2574.156	0.782	correct	repeat	Run3	repeat/STIM_012.jpg
2577.252	0.736	correct	repeat	Run3	repeat/STIM_012.jpg
2581.14	0.518	correct	repeat	Run3	repeat/STIM_012.jpg
2585.294	0.794	correct	repeat	Run3	repeat/STIM_012.jpg
2589.834	0.501	correct	repeat	Run3	repeat/STIM_013.jpg
2593.206	0.824	correct	repeat	Run3	repeat/STIM_013.jpg
2597.955	0.538	correct	repeat	Run3	repeat/STIM_013.jpg
2602.466	0.806	correct	repeat	Run3	repeat/STIM_013.jpg
2606.382	0.603	correct	repeat	Run3	repeat/STIM_013.jpg
2609.48	0.86	correct	repeat	Run3	repeat/STIM_014.jpg
2613.063	0.714	incorrect	repeat	Run3	repeat/STIM_014.jpg
2616.758	0.851	correct	repeat	Run3	repeat/STIM_014.jpg
2621.154	0.876	correct	repeat	Run3	repeat/STIM_014.jpg
2625.032	0.762	correct	repeat	Run3	repeat/STIM_014.jpg
2629.31	0.821	correct	generate	Run4	generate/STIM_000.jpg
2634.087	1.624	correct	generate	Run4	generate/STIM_000.jpg
2639.201	1.427	correct	generate	Run4	generate/STIM_000.jpg
2644.644	1.557	correct	generate	Run4	generate/STIM_000.jpg
2650.096	1.716	correct	generate	Run4	generate/STIM_000.jpg
2654.391	1.266	incorrect	generate	Run4	generate/STIM_001.jpg
2659.457	1.922	correct	generate	Run4	generate/STIM_001.jpg
2664.346	1.046	correct	generate	Run4	generate/STIM_001.jpg
2668.23	1.634	correct	generate	Run4	generate/STIM_001.jpg
2673.099	1.594	correct	generate	Run4	generate/STIM_001.jpg
2678.181	1.862	correct	generate	Run4	generate/STIM_002.jpg
2683.207	1.47	correct	generate	Run4	generate/STIM_002.jpg
2688.445	1.675	correct	generate	Run4	generate/STIM_002.jpg
2692.612	1.134	correct	generate	Run4	generate/STIM_002.jpg
2696.27	1.694	correct	generate	Run4	generate/STIM_002.jpg
2701.051	1.245	correct	generate	Run4	generate/STIM_003.jpg
2705.522	1.925	correct	generate	Run4	generate/STIM_003.jpg
2709.601	1.156	correct	generate	Run4	generate/STIM_003.jpg
2713.749	1.846	correct	generate	Run4	generate/STIM_003.jpg
2719.093	1.533	correct	generate	Run4	generate/STIM_003.jpg
2723.626	1.424	correct	generate	Run4	generate/STIM_004.jpg
2727.941	1.919	correct	generate	Run4	generate/STIM_004.jpg
2732.391	0.9	correct	generate	Run4	generate/STIM_004.jpg
2735.524	1.181	correct	generate	Run4	generate/STIM_004.jpg
2739.217	1.44	correct	generate	Run4	generate/STIM_004.jpg
2744.635	1.474	correct	generate	Run4	generate/STIM_005.jpg
2749.548	1.62	correct	generate	Run4	generate/STIM_005.jpg
2754.702	1.936	correct	generate	Run4	generate/STIM_005.jpg
2760.47	1.823	correct	generate	Run4	generate/STIM_005.jpg
2765.591	1.092	correct	generate	Run4	generate/STIM_005.jpg
2769.624	1.522	correct	generate	Run4	generate/STIM_006.jpg
2773.544	1.427	correct	generate	Run4	generate/STIM_006.jpg
2777.982	1.825	correct	generate	Run4	generate/STIM_006.jpg
2782.355	1.066	correct	generate	Run4	generate/STIM_006.jpg
2786.359	1.635	correct	generate	Run4	generate/STIM_006.jpg
2791.264	0.836	correct	generate	Run4	generate/STIM_007.jpg
2795.522	1.179	correct	generate	Run4	generate/STIM_007.jpg
2798.795	0.835	correct	generate	Run4	generate/STIM_007.jpg
2803.182	1.227	correct	generate	Run4	generate/STIM_007.jpg
2807.389	1.401	correct	generate	Run4	generate/STIM_007.jpg
2812.338	0.875	correct	generate	Run4	generate/STIM_008.jpg
2816.882	0.867	correct	generate	Run4	generate/STIM_008.jpg
2820.189	1.164	correct	generate	Run4	generate/STIM_008.jpg
2823.804	1.049	correct	generate	Run4	generate/STIM_008.jpg
2828.705	1.487	correct	generate	Run4	generate/STIM_008.jpg
2832.546	1.564	correct	generate	Run4	generate/STIM_009.jpg
2837.189	1.226	correct	generate	Run4	generate/STIM_009.jpg
2842.494	1.356	correct	generate	Run4	generate/STIM_009.jpg
2846.782	1.247	correct	generate	Run4	generate/STIM_009.jpg
2851.594	1.343	correct	generate	Run4	generate/STIM_009.jpg
2856.309	1.24	correct	generate	Run4	generate/STIM_010.jpg
2860.99	1.909	correct	generate	Run4	generate/STIM_010.jpg
2867.028	1.577	correct	generate	Run4	generate/STIM_010.jpg
2871.92	1.549	correct	generate	Run4	generate/STIM_010.jpg
2877.497	0.871	correct	generate	Run4	generate/STIM_010.jpg
2881.742	1.367	correct	generate	Run4	generate/STIM_011.jpg
2885.399	1.074	correct	generate	Run4	generate/STIM_011.jpg
2890.228	1.126	correct	generate	Run4	generate/STIM_011.jpg
2894.821	1.951	correct	generate	Run4	generate/STIM_011.jpg
2899.018	0.923	correct	generate	Run4	generate/STIM_011.jpg
2903.05	1.129	correct	generate	Run4	generate/STIM_012.jpg
2907.142	1.684	correct	generate	Run4	generate/STIM_012.jpg
2911.398	0.819	correct	generate	Run4	generate/STIM_012.jpg
2915.779	1.69	correct	generate	Run4	generate/STIM_012.jpg
2920.821	1.811	correct	generate	Run4	generate/STIM_012.jpg
2926.267	1.346	correct	generate	Run4	generate/STIM_013.jpg
2930.035	0.878	correct	generate	Run4	generate/STIM_013.jpg
2934.058	0.902	correct	generate	Run4	generate/STIM_013.jpg
2937.8	1.793	correct	generate	Run4	generate/STIM_013.jpg
2941.966	0.986	correct	generate	Run4	generate/STIM_013.jpg
2946.529	1.488	correct	generate	Run4	generate/STIM_014.jpg
2951.627	1.742	correct	generate	Run4	generate/STIM_014.jpg
2957.09	1.362	correct	generate	Run4	generate/STIM_014.jpg
2962.403	0.858	correct	generate	Run4	generate/STIM_014.jpg
2965.694	1.23	correct	generate	Run4	generate/STIM_014.jpg
2969.34	1.159	correct	generate	Run4	generate/STIM_015.jpg
2973.128	1.9	correct	generate	Run4	generate/STIM_015.jpg
2978.171	1.347	correct	generate	Run4	generate/STIM_015.jpg
2981.935	1.824	correct	generate	Run4	generate/STIM_015.jpg
2987.204	1.792	correct	generate	Run4	generate/STIM_015.jpg
2992.764	1.653	correct	generate	Run4	generate/STIM_016.jpg
2997.282	1.526	correct	generate	Run4	generate/STIM_016.jpg
3002.095	1.006	correct	generate	Run4	generate/STIM_016.jpg
3006.159	1.062	correct	generate	Run4	generate/STIM_016.jpg
3009.489	1.492	correct	generate	Run4	generate/STIM_016.jpg
3013.958	1.589	correct	generate	Run4	generate/STIM_017.jpg
3018.022	1.888	correct	generate	Run4	generate/STIM_017.jpg
3022.742	0.804	correct	generate	Run4	generate/STIM_017.jpg
3026.362	1.138	correct	generate	Run4	generate/STIM_017.jpg
3031.082	1.332	correct	generate	Run4	generate/STIM_017.jpg
3036.392	1.528	correct	generate	Run4	generate/STIM_018.jpg
3040.847	1.679	correct	generate	Run4	generate/STIM_018.jpg
3046.204	1.521	correct	generate	Run4	generate/STIM_018.jpg
3050.346	1.021	correct	generate	Run4	generate/STIM_018.jpg
3055.026	1.794	correct	generate	Run4	generate/STIM_018.jpg
3059.99	1.955	correct	generate	Run4	generate/STIM_019.jpg
3065.492	1.266	incorrect	generate	Run4	generate/STIM_019.jpg
3069.255	1.555	correct	generate	Run4	generate/STIM_019.jpg
3073.412	1.814	correct	generate	Run4	generate/STIM_019.jpg
3078.647	1.619	correct	generate	Run4	generate/STIM_019.jpg
3083.218	1.356	correct	generate	Run4	generate/STIM_020.jpg
3087.5	1.364	correct	generate	Run4	generate/STIM_020.jpg
3091.371	1.671	correct	generate	Run4	generate/STIM_020.jpg
3096.304	1.7	correct	generate	Run4	generate/STIM_020.jpg
3101.469	1.282	correct	generate	Run4	generate/STIM_020.jpg
3106.436	0.928	correct	generate	Run4	generate/STIM_021.jpg
3111.199	1.923	correct	generate	Run4	generate/STIM_021.jpg
3116.489	1.567	correct	generate	Run4	generate/STIM_021.jpg
3121.689	1.238	correct	generate	Run4	generate/STIM_021.jpg
3125.569	0.847	correct	generate	Run4	generate/STIM_021.jpg
3128.729	1.923	correct	generate	Run4	generate/STIM_022.jpg
3133.712	0.87	incorrect	generate	Run4	generate/STIM_022.jpg
3137.256	0.917	correct	generate	Run4	generate/STIM_022.jpg
3142.044	1.198	correct	generate	Run4	generate/STIM_022.jpg
3145.935	1.241	correct	generate	Run4	generate/STIM_022.jpg
3150.398	1.072	incorrect	generate	Run4	generate/STIM_023.jpg
3155.129	1.441	correct	generate	Run4	generate/STIM_023.jpg
3160.011	1.507	correct	generate	Run4	generate/STIM_023.jpg
3163.796	0.915	correct	generate	Run4	generate/STIM_023.jpg
3167.635	1.264	correct	generate	Run4	generate/STIM_023.jpg
3171.138	1.257	correct	generate	Run4	generate/STIM_024.jpg
3175.872	1.527	correct	generate	Run4	generate/STIM_024.jpg
3181.46	0.914	correct	generate	Run4	generate/STIM_024.jpg
3186.134	1.53	incorrect	generate	Run4	generate/STIM_024.jpg
3190.212	0.932	incorrect	generate	Run4	generate/STIM_024.jpg
3193.351	0.656	correct	repeat	Run4	repeat/STIM_000.jpg
3197.744	0.92	correct	repeat	Run4	repeat/STIM_000.jpg
3201.231	0.782	correct	repeat	Run4	repeat/STIM_000.jpg
3204.449	0.731	correct	repeat	Run4	repeat/STIM_000.jpg
3208.71	0.65	correct	repeat	Run4	repeat/STIM_000.jpg
3212.666	0.812	correct	repeat	Run4	repeat/STIM_001.jpg
3216.253	0.567	correct	repeat	Run4	repeat/STIM_001.jpg
3219.371	0.67	correct	repeat	Run4	repeat/STIM_001.jpg
3223.919	0.853	correct	repeat	Run4	repeat/STIM_001.jpg
3227.715	0.694	correct	repeat	Run4	repeat/STIM_001.jpg
3230.466	0.882	correct	repeat	Run4	repeat/STIM_002.jpg
3234.676	0.919	correct	repeat	Run4	repeat/STIM_002.jpg
3238.605	0.602	correct	repeat	Run4	repeat/STIM_002.jpg
3242.085	0.766	incorrect	repeat	Run4	repeat/STIM_002.jpg
3245.268	0.643	correct	repeat	Run4	repeat/STIM_002.jpg
3248.201	0.827	correct	repeat	Run4	repeat/STIM_003.jpg
3251.455	0.567	correct	repeat	Run4	repeat/STIM_003.jpg
3255.555	0.89	correct	repeat	Run4	repeat/STIM_003.jpg
3260.108	0.5	incorrect	repeat	Run4	repeat/STIM_003.jpg
3263.388	0.816	correct	repeat	Run4	repeat/STIM_003.jpg
3266.867	0.473	correct	repeat	Run4	repeat/STIM_004.jpg
3270.094	0.903	correct	repeat	Run4	repeat/STIM_004.jpg
3274.808	0.51	incorrect	repeat	Run4	repeat/STIM_004.jpg
3279.143	0.72	correct	repeat	Run4	repeat/STIM_004.jpg
3283.304	0.757	correct	repeat	Run4	repeat/STIM_004.jpg
3287.683	0.68	correct	repeat	Run4	repeat/STIM_005.jpg
3291.635	0.66	correct	repeat	Run4	repeat/STIM_005.jpg
3295.8	0.577	correct	repeat	Run4	repeat/STIM_005.jpg
3299.254	0.801	correct	repeat	Run4	repeat/STIM_005.jpg
3303.068	0.512	correct	repeat	Run4	repeat/STIM_005.jpg
3305.658	0.532	correct	repeat	Run4	repeat/STIM_006.jpg
3308.869	0.485	correct	repeat	Run4	repeat/STIM_006.jpg
3313.272	0.89	correct	repeat	Run4	repeat/STIM_006.jpg
3318.116	0.614	correct	repeat	Run4	repeat/STIM_006.jpg
3321.786	0.642	correct	repeat	Run4	repeat/STIM_006.jpg
3325.187	0.482	correct	repeat	Run4	repeat/STIM_007.jpg
3328.887	0.627	incorrect	repeat	Run4	repeat/STIM_007.jpg
3333.369	0.805	correct	repeat	Run4	repeat/STIM_007.jpg
3336.894	0.52	correct	repeat	Run4	repeat/STIM_007.jpg
3339.89	0.902	incorrect	repeat	Run4	repeat/STIM_007.jpg
3343.015	0.889	correct	repeat	Run4	repeat/STIM_008.jpg
3346.699	0.838	correct	repeat	Run4	repeat/STIM_008.jpg
3351.394	0.894	correct	repeat	Run4	repeat/STIM_008.jpg
3354.894	0.545	correct	repeat	Run4	repeat/STIM_008.jpg
3358.112	0.556	correct	repeat	Run4	repeat/STIM_008.jpg
3362.287	0.49	correct	repeat	Run4	repeat/STIM_009.jpg
3366.246	0.659	correct	repeat	Run4	repeat/STIM_009.jpg
3369.521	0.758	correct	repeat	Run4	repeat/STIM_009.jpg
3374.194	0.504	correct	repeat	Run4	repeat/STIM_009.jpg
3377.93	0.901	correct	repeat	Run4	repeat/STIM_009.jpg
3381.14	0.735	correct	repeat	Run4	repeat/STIM_010.jpg
3384.978	0.69	incorrect	repeat	Run4	repeat/STIM_010.jpg
3388.758	0.832	correct	repeat	Run4	repeat/STIM_010.jpg
3392.325	0.702	correct	repeat	Run4	repeat/STIM_010.jpg
3396.843	0.76	correct	repeat	Run4	repeat/STIM_010.jpg
3401.087	0.886	correct	repeat	Run4	repeat/STIM_011.jpg
3405.227	0.617	correct	repeat	Run4	repeat/STIM_011.jpg
3409.281	0.789	correct	repeat	Run4	repeat/STIM_011.jpg
3414.041	0.807	correct	repeat	Run4	repeat/STIM_011.jpg
3417.794	0.552	correct	repeat	Run4	repeat/STIM_011.jpg
3421.883	0.492	correct	repeat	Run4	repeat/STIM_012.jpg
3425.057	0.897	correct	repeat	Run4	repeat/STIM_012.jpg
3429.916	0.518	correct	repeat	Run4	repeat/STIM_012.jpg
3432.708	0.894	correct	repeat	Run4	repeat/STIM_012.jpg
3437.463	0.505	correct	repeat	Run4	repeat/STIM_012.jpg
3441.795	0.716	correct	repeat	Run4	repeat/STIM_013.jpg
3444.976	0.806	correct	repeat	Run4	repeat/STIM_013.jpg
3449.79	0.797	correct	repeat	Run4	repeat/STIM_013.jpg
3453.117	0.845	incorrect	repeat	Run4	repeat/STIM_013.jpg
3456.087	0.832	correct	repeat	Run4	repeat/STIM_013.jpg
3460.037	0.705	correct	repeat	Run4	repeat/STIM_014.jpg
3463.001	0.738	correct	repeat	Run4	repeat/STIM_014.jpg
3466.883	0.647	correct	repeat	Run4	repeat/STIM_014.jpg
3469.615	0.904	correct	repeat	Run4	repeat/STIM_014.jpg
3472.643	0.668	correct	repeat	Run4	repeat/STIM_014.jpg
