onset	duration	response_time_ms	trial_type	learning_stage	stimulus	response_port
0.0	1.2	1200.2	generate	Run1	generate/STIM_000.jpg	99
4.614	2.332	2332.1	generate	Run1	generate/STIM_000.jpg	99
9.629	1.225	1225.0	generate	Run1	generate/STIM_000.jpg	99
14.748	2.359	2359.3	generate	Run1	generate/STIM_000.jpg	100
19.911	1.276	1275.5	generate	Run1	generate/STIM_000.jpg	99
23.749	2.585	2584.8	generate	Run1	generate/STIM_001.jpg	100
29.695	1.759	1759.3	generate	Run1	generate/STIM_001.jpg	99
35.015	1.22	1219.6	generate	Run1	generate/STIM_001.jpg	99
38.323	1.038	1037.5	generate	Run1	generate/STIM_001.jpg	100
42.498	0.963	963.2	generate	Run1	generate/STIM_001.jpg	100
46.933	1.337	1337.3	generate	Run1	generate/STIM_002.jpg	100
51.939	1.947	1946.8	generate	Run1	generate/STIM_002.jpg	100
56.71	1.32	1319.9	generate	Run1	generate/STIM_002.jpg	100
61.354	2.162	2161.9	generate	Run1	generate/STIM_002.jpg	99
66.596	2.198	2198.3	generate	Run1	generate/STIM_002.jpg	100
71.314	2.796	2796.3	generate	Run1	generate/STIM_003.jpg	100
76.218	2.122	2122.0	generate	Run1	generate/STIM_003.jpg	99
80.441	1.189	1189.1	generate	Run1	generate/STIM_003.jpg	99
84.579	1.251	1250.7	generate	Run1	generate/STIM_003.jpg	99
89.275	1.735	1735.0	generate	Run1	generate/STIM_003.jpg	100
94.221	2.73	2729.9	generate	Run1	generate/STIM_004.jpg	99
100.802	1.171	1171.2	generate	Run1	generate/STIM_004.jpg	100
105.048	1.068	1068.1	generate	Run1	generate/STIM_004.jpg	100
109.107	2.247	2247.2	generate	Run1	generate/STIM_004.jpg	100
113.545	2.09	2090.3	generate	Run1	generate/STIM_004.jpg	100
118.466	1.997	1996.7	generate	Run1	generate/STIM_005.jpg	100
122.553	2.455	2455.0	generate	Run1	generate/STIM_005.jpg	99
127.392	1.212	1211.8	generate	Run1	generate/STIM_005.jpg	99
132.079	1.996	1995.8	generate	Run1	generate/STIM_005.jpg	100
137.0	2.231	2231.2	generate	Run1	generate/STIM_005.jpg	100
141.922	1.906	1906.4	generate	Run1	generate/STIM_006.jpg	99
147.589	1.935	1935.1	generate	Run1	generate/STIM_006.jpg	100
151.73	1.703	1703.4	generate	Run1	generate/STIM_006.jpg	100
156.597	1.486	1486.5	generate	Run1	generate/STIM_006.jpg	100
161.335	1.38	1380.2	generate	Run1	generate/STIM_006.jpg	99
166.128	2.238	2238.5	generate	Run1	generate/STIM_007.jpg	100
171.82	1.892	1891.8	generate	Run1	generate/STIM_007.jpg	99
176.866	1.92	1919.7	generate	Run1	generate/STIM_007.jpg	99
182.509	1.47	1470.5	generate	Run1	generate/STIM_007.jpg	99
187.35	2.164	2163.7	generate	Run1	generate/STIM_007.jpg	99
192.559	2.382	2381.9	generate	Run1	generate/STIM_008.jpg	99
197.279	1.805	1804.7	generate	Run1	generate/STIM_008.jpg	99
201.164	1.963	1963.2	generate	Run1	generate/STIM_008.jpg	100
205.695	1.239	1239.2	generate	Run1	generate/STIM_008.jpg	99
209.483	2.188	2188.1	generate	Run1	generate/STIM_008.jpg	99
214.444	1.974	1973.6	generate	Run1	generate/STIM_009.jpg	100
219.459	2.594	2593.9	generate	Run1	generate/STIM_009.jpg	100
224.058	1.457	1456.9	generate	Run1	generate/STIM_009.jpg	100
227.931	1.16	1160.2	generate	Run1	generate/STIM_009.jpg	99
231.181	1.901	1901.3	generate	Run1	generate/STIM_009.jpg	100
235.451	2.4	2400.4	generate	Run1	generate/STIM_010.jpg	99
239.955	2.387	2387.1	generate	Run1	generate/STIM_010.jpg	99
246.136	2.045	2044.7	generate	Run1	generate/STIM_010.jpg	99
251.625	1.449	1448.7	generate	Run1	generate/STIM_010.jpg	99
255.254	1.052	1052.0	generate	Run1	generate/STIM_010.jpg	100
258.576	1.2	1199.5	generate	Run1	generate/STIM_011.jpg	100
263.669	2.351	2351.2	generate	Run1	generate/STIM_011.jpg	99
268.083	2.461	2461.4	generate	Run1	generate/STIM_011.jpg	99
273.329	1.056	1055.7	generate	Run1	generate/STIM_011.jpg	100
277.867	1.195	1194.9	generate	Run1	generate/STIM_011.jpg	99
282.412	2.784	2784.3	generate	Run1	generate/STIM_012.jpg	99
287.596	1.642	1642.5	generate	Run1	generate/STIM_012.jpg	99
292.247	2.131	2131.4	generate	Run1	generate/STIM_012.jpg	100
298.003	1.587	1587.2	generate	Run1	generate/STIM_012.jpg	100
303.331	1.351	1350.9	generate	Run1	generate/STIM_012.jpg	99
308.483	1.823	1823.3	generate	Run1	generate/STIM_013.jpg	100
314.109	1.88	1879.7	generate	Run1	generate/STIM_013.jpg	100
319.363	1.716	1716.1	generate	Run1	generate/STIM_013.jpg	100
324.224	1.144	1143.6	generate	Run1	generate/STIM_013.jpg	100
328.862	1.665	1665.1	generate	Run1	generate/STIM_013.jpg	99
333.608	2.804	2804.0	generate	Run1	generate/STIM_014.jpg	100
340.257	2.662	2661.6	generate	Run1	generate/STIM_014.jpg	99
345.727	2.358	2358.5	generate	Run1	generate/STIM_014.jpg	100
351.787	2.208	2208.1	generate	Run1	generate/STIM_014.jpg	100
356.897	1.629	1628.9	generate	Run1	generate/STIM_014.jpg	100
361.488	1.126	1126.5	generate	Run1	generate/STIM_015.jpg	99
366.346	1.83	1830.0	generate	Run1	generate/STIM_015.jpg	100
371.474	1.642	1642.4	generate	Run1	generate/STIM_015.jpg	99
376.912	2.089	2089.3	generate	Run1	generate/STIM_015.jpg	99
381.699	1.323	1322.6	generate	Run1	generate/STIM_015.jpg	99
386.941	2.294	2294.0	generate	Run1	generate/STIM_016.jpg	100
392.655	1.403	1403.0	generate	Run1	generate/STIM_016.jpg	99
396.355	1.112	1111.7	generate	Run1	generate/STIM_016.jpg	99
400.428	1.981	1980.9	generate	Run1	generate/STIM_016.jpg	100
405.018	1.996	1995.9	generate	Run1	generate/STIM_016.jpg	100
410.075	1.745	1745.0	generate	Run1	generate/STIM_017.jpg	99
414.848	1.678	1678.0	generate	Run1	generate/STIM_017.jpg	100
419.67	1.945	1945.2	generate	Run1	generate/STIM_017.jpg	99
425.379	2.317	2317.2	generate	Run1	generate/STIM_017.jpg	100
430.67	2.237	2237.1	generate	Run1	generate/STIM_017.jpg	100
434.924	1.197	1197.2	generate	Run1	generate/STIM_018.jpg	100
438.271	1.688	1688.0	generate	Run1	generate/STIM_018.jpg	99
442.784	1.423	1422.7	generate	Run1	generate/STIM_018.jpg	100
446.703	1.849	1848.9	generate	Run1	generate/STIM_018.jpg	99
452.316	1.466	1466.3	generate	Run1	generate/STIM_018.jpg	99
457.252	1.49	1490.2	generate	Run1	generate/STIM_019.jpg	99
461.222	1.286	1285.9	generate	Run1	generate/STIM_019.jpg	99
464.588	2.102	2102.5	generate	Run1	generate/STIM_019.jpg	100
469.402	2.344	2343.6	generate	Run1	generate/STIM_019.jpg	100
474.552	1.827	1826.9	generate	Run1	generate/STIM_019.jpg	100
478.77	2.146	2146.5	generate	Run1	generate/STIM_020.jpg	100
484.699	1.173	1172.8	generate	Run1	generate/STIM_020.jpg	99
489.734	2.515	2514.9	generate	Run1	generate/STIM_020.jpg	100
494.704	1.544	1544.2	generate	Run1	generate/STIM_020.jpg	99
499.549	1.532	1532.4	generate	Run1	generate/STIM_020.jpg	99
503.143	1.574	1574.4	generate	Run1	generate/STIM_021.jpg	99
508.533	1.524	1523.9	generate	Run1	generate/STIM_021.jpg	99
512.16	1.176	1176.1	generate	Run1	generate/STIM_021.jpg	100
516.718	2.01	2010.4	generate	Run1	generate/STIM_021.jpg	99
522.718	1.302	1301.9	generate	Run1	generate/STIM_021.jpg	99
526.943	1.164	1164.3	generate	Run1	generate/STIM_022.jpg	100
531.461	2.151	2150.6	generate	Run1	generate/STIM_022.jpg	99
536.375	2.337	2337.0	generate	Run1	generate/STIM_022.jpg	99
542.141	2.132	2131.8	generate	Run1	generate/STIM_022.jpg	99
547.144	0.961	961.0	generate	Run1	generate/STIM_022.jpg	100
552.004	1.632	1631.5	generate	Run1	generate/STIM_023.jpg	99
557.114	2.565	2565.4	generate	Run1	generate/STIM_023.jpg	99
562.039	1.211	1210.8	generate	Run1	generate/STIM_023.jpg	99
566.492	1.655	1654.7	generate	Run1	generate/STIM_023.jpg	100
571.631	1.617	1617.0	generate	Run1	generate/STIM_023.jpg	100
576.717	1.793	1793.3	generate	Run1	generate/STIM_024.jpg	100
580.8	2.224	2224.1	generate	Run1	generate/STIM_024.jpg	99
585.998	1.631	1631.3	generate	Run1	generate/STIM_024.jpg	99
590.456	1.698	1697.7	generate	Run1	generate/STIM_024.jpg	100
595.599	1.572	1572.3	generate	Run1	generate/STIM_024.jpg	100
599.779	0.573	572.9	repeat	Run1	repeat/STIM_000.jpg	100
604.168	0.602	602.1	repeat	Run1	repeat/STIM_000.jpg	100
607.995	0.924	923.7	repeat	Run1	repeat/STIM_000.jpg	99
611.688	0.911	911.4	repeat	Run1	repeat/STIM_000.jpg	100
615.623	0.782	781.8	repeat	Run1	repeat/STIM_000.jpg	99
618.616	0.648	647.6	repeat	Run1	repeat/STIM_001.jpg	100
622.207	0.928	928.4	repeat	Run1	repeat/STIM_001.jpg	99
625.315	0.851	850.9	repeat	Run1	repeat/STIM_001.jpg	100
630.03	0.68	679.5	repeat	Run1	repeat/STIM_001.jpg	99
634.662	0.727	727.3	repeat	Run1	repeat/STIM_001.jpg	100
637.881	0.755	755.3	repeat	Run1	repeat/STIM_002.jpg	100
641.168	0.558	558.3	repeat	Run1	repeat/STIM_002.jpg	99
645.387	0.496	496.5	repeat	Run1	repeat/STIM_002.jpg	100
649.532	0.473	473.3	repeat	Run1	repeat/STIM_002.jpg	100
653.111	0.614	614.2	repeat	Run1	repeat/STIM_002.jpg	99
655.836	0.848	847.5	repeat	Run1	repeat/STIM_003.jpg	99
659.299	0.576	575.6	repeat	Run1	repeat/STIM_003.jpg	99
662.682	0.481	480.7	repeat	Run1	repeat/STIM_003.jpg	100
666.363	0.672	671.8	repeat	Run1	repeat/STIM_003.jpg	99
669.165	0.569	568.9	repeat	Run1	repeat/STIM_003.jpg	99
672.07	0.737	737.0	repeat	Run1	repeat/STIM_004.jpg	100
675.289	0.778	778.3	repeat	Run1	repeat/STIM_004.jpg	99
679.271	0.645	644.7	repeat	Run1	repeat/STIM_004.jpg	99
683.65	0.773	773.0	repeat	Run1	repeat/STIM_004.jpg	100
687.837	0.676	675.9	repeat	Run1	repeat/STIM_004.jpg	99
692.48	0.666	666.3	repeat	Run1	repeat/STIM_005.jpg	100
696.35	0.65	650.5	repeat	Run1	repeat/STIM_005.jpg	100
699.075	0.895	894.8	repeat	Run1	repeat/STIM_005.jpg	100
702.102	0.472	472.5	repeat	Run1	repeat/STIM_005.jpg	99
705.36	0.628	628.3	repeat	Run1	repeat/STIM_005.jpg	100
709.352	0.502	502.2	repeat	Run1	repeat/STIM_006.jpg	99
713.571	0.88	880.0	repeat	Run1	repeat/STIM_006.jpg	99
716.591	0.664	663.7	repeat	Run1	repeat/STIM_006.jpg	99
719.778	0.736	736.0	repeat	Run1	repeat/STIM_006.jpg	100
724.491	0.711	710.7	repeat	Run1	repeat/STIM_006.jpg	99
727.21	0.474	473.5	repeat	Run1	repeat/STIM_007.jpg	99
731.455	0.52	519.7	repeat	Run1	repeat/STIM_007.jpg	100
734.735	0.931	930.8	repeat	Run1	repeat/STIM_007.jpg	99
738.934	0.502	501.8	repeat	Run1	repeat/STIM_007.jpg	100
743.25	0.867	867.1	repeat	Run1	repeat/STIM_007.jpg	99
746.326	0.577	576.9	repeat	Run1	repeat/STIM_008.jpg	100
749.79	0.72	720.0	repeat	Run1	repeat/STIM_008.jpg	100
753.002	0.747	747.3	repeat	Run1	repeat/STIM_008.jpg	99
755.894	0.672	671.9	repeat	Run1	repeat/STIM_008.jpg	99
759.709	0.739	739.3	repeat	Run1	repeat/STIM_008.jpg	99
763.754	0.506	505.6	repeat	Run1	repeat/STIM_009.jpg	99
767.639	0.877	877.2	repeat	Run1	repeat/STIM_009.jpg	100
771.49	0.526	525.7	repeat	Run1	repeat/STIM_009.jpg	99
774.276	0.875	875.3	repeat	Run1	repeat/STIM_009.jpg	100
777.469	0.811	810.8	repeat	Run1	repeat/STIM_009.jpg	99
781.57	0.845	845.4	repeat	Run1	repeat/STIM_010.jpg	99
786.238	0.707	707.3	repeat	Run1	repeat/STIM_010.jpg	99
789.756	0.767	767.0	repeat	Run1	repeat/STIM_010.jpg	99
794.292	0.552	552.2	repeat	Run1	repeat/STIM_010.jpg	99
797.589	0.712	712.4	repeat	Run1	repeat/STIM_010.jpg	100
802.173	0.724	723.7	repeat	Run1	repeat/STIM_011.jpg	99
805.378	0.832	831.6	repeat	Run1	repeat/STIM_011.jpg	100
809.953	0.831	831.4	repeat	Run1	repeat/STIM_011.jpg	99
813.375	0.897	896.9	repeat	Run1	repeat/STIM_011.jpg	99
816.805	0.564	563.8	repeat	Run1	repeat/STIM_011.jpg	99
821.13	0.732	732.4	repeat	Run1	repeat/STIM_012.jpg	99
825.078	0.887	887.0	repeat	Run1	repeat/STIM_012.jpg	100
828.972	0.834	833.8	repeat	Run1	repeat/STIM_012.jpg	100
833.03	0.772	772.4	repeat	Run1	repeat/STIM_012.jpg	100
837.386	0.835	834.7	repeat	Run1	repeat/STIM_012.jpg	99
842.051	0.712	711.5	repeat	Run1	repeat/STIM_013.jpg	99
845.565	0.78	779.7	repeat	Run1	repeat/STIM_013.jpg	99
849.967	0.732	731.8	repeat	Run1	repeat/STIM_013.jpg	99
854.189	0.755	754.8	repeat	Run1	repeat/STIM_013.jpg	99
858.623	0.699	699.2	repeat	Run1	repeat/STIM_013.jpg	99
863.118	0.733	732.7	repeat	Run1	repeat/STIM_014.jpg	100
867.714	0.758	757.5	repeat	Run1	repeat/STIM_014.jpg	100
870.986	0.585	585.1	repeat	Run1	repeat/STIM_014.jpg	99
875.325	0.736	736.2	repeat	Run1	repeat/STIM_014.jpg	99
879.542	0.84	840.1	repeat	Run1	repeat/STIM_014.jpg	99
883.603	2.384	2383.8	generate	Run2	generate/STIM_000.jpg	100
889.975	1.826	1826.3	generate	Run2	generate/STIM_000.jpg	100
895.331	2.102	2102.2	generate	Run2	generate/STIM_000.jpg	100
900.92	1.445	1444.7	generate	Run2	generate/STIM_000.jpg	99
905.458	1.634	1633.6	generate	Run2	generate/STIM_000.jpg	99
909.449	1.092	1092.1	generate	Run2	generate/STIM_001.jpg	99
914.317	1.737	1737.2	generate	Run2	generate/STIM_001.jpg	99
919.607	1.527	1527.4	generate	Run2	generate/STIM_001.jpg	100
924.355	0.856	855.5	generate	Run2	generate/STIM_001.jpg	99
927.334	1.09	1089.6	generate	Run2	generate/STIM_001.jpg	100
930.475	2.309	2309.4	generate	Run2	generate/STIM_002.jpg	100
936.724	2.16	2160.5	generate	Run2	generate/STIM_002.jpg	100
941.167	1.488	1488.4	generate	Run2	generate/STIM_002.jpg	100
946.171	1.671	1670.9	generate	Run2	generate/STIM_002.jpg	99
951.717	1.133	1133.0	generate	Run2	generate/STIM_002.jpg	99
955.467	1.82	1819.9	generate	Run2	generate/STIM_003.jpg	100
960.708	1.698	1698.3	generate	Run2	generate/STIM_003.jpg	100
965.735	2.068	2067.9	generate	Run2	generate/STIM_003.jpg	100
970.907	1.026	1026.3	generate	Run2	generate/STIM_003.jpg	99
975.924	1.497	1496.6	generate	Run2	generate/STIM_003.jpg	99
981.046	1.221	1220.9	generate	Run2	generate/STIM_004.jpg	99
985.531	1.98	1980.5	generate	Run2	generate/STIM_004.jpg	99
991.486	0.965	964.8	generate	Run2	generate/STIM_004.jpg	100
994.759	1.851	1850.7	generate	Run2	generate/STIM_004.jpg	100
999.14	1.548	1548.3	generate	Run2	generate/STIM_004.jpg	100
1003.912	1.822	1822.2	generate	Run2	generate/STIM_005.jpg	100
1008.943	1.727	1727.3	generate	Run2	generate/STIM_005.jpg	100
1013.084	1.642	1642.5	generate	Run2	generate/STIM_005.jpg	100
1016.864	1.303	1303.3	generate	Run2	generate/STIM_005.jpg	100
1021.095	0.848	848.5	generate	Run2	generate/STIM_005.jpg	100
1024.735	1.018	1017.5	generate	Run2	generate/STIM_006.jpg	99
1028.66	1.079	1079.2	generate	Run2	generate/STIM_006.jpg	99
1033.698	1.806	1806.5	generate	Run2	generate/STIM_006.jpg	99
1038.517	1.315	1315.4	generate	Run2	generate/STIM_006.jpg	100
1042.0	1.439	1439.3	generate	Run2	generate/STIM_006.jpg	100
1045.996	1.101	1101.0	generate	Run2	generate/STIM_007.jpg	100
1049.173	1.695	1694.9	generate	Run2	generate/STIM_007.jpg	100
1054.594	1.438	1438.2	generate	Run2	generate/STIM_007.jpg	100
1058.828	1.953	1953.1	generate	Run2	generate/STIM_007.jpg	100
1063.997	1.326	1325.5	generate	Run2	generate/STIM_007.jpg	100
1068.914	1.43	1430.2	generate	Run2	generate/STIM_008.jpg	99
1072.487	0.91	909.8	generate	Run2	generate/STIM_008.jpg	100
1077.086	1.807	1807.0	generate	Run2	generate/STIM_008.jpg	99
1081.935	1.094	1094.2	generate	Run2	generate/STIM_008.jpg	100
1086.2	1.494	1494.1	generate	Run2	generate/STIM_008.jpg	99
1090.322	1.277	1276.7	generate	Run2	generate/STIM_009.jpg	100
1094.346	1.097	1097.4	generate	Run2	generate/STIM_009.jpg	100
1098.171	1.71	1710.3	generate	Run2	generate/STIM_009.jpg	100
1102.878	1.14	1139.9	generate	Run2	generate/STIM_009.jpg	99
1106.895	0.958	958.4	generate	Run2	generate/STIM_009.jpg	99
1110.309	2.126	2125.7	generate	Run2	generate/STIM_010.jpg	100
1114.673	2.087	2087.2	generate	Run2	generate/STIM_010.jpg	100
1119.985	0.842	842.1	generate	Run2	generate/STIM_010.jpg	99
1123.119	1.736	1735.9	generate	Run2	generate/STIM_010.jpg	99
1127.776	1.776	1776.0	generate	Run2	generate/STIM_010.jpg	100
1132.954	2.378	2378.1	generate	Run2	generate/STIM_011.jpg	99
1137.781	1.549	1548.6	generate	Run2	generate/STIM_011.jpg	100
1142.133	1.247	1246.7	generate	Run2	generate/STIM_011.jpg	99
1145.626	1.136	1135.9	generate	Run2	generate/STIM_011.jpg	100
1149.918	1.01	1009.8	generate	Run2	generate/STIM_011.jpg	100
1154.558	1.794	1794.1	generate	Run2	generate/STIM_012.jpg	99
1159.011	1.337	1336.9	generate	Run2	generate/STIM_012.jpg	100
1163.044	2.063	2062.7	generate	Run2	generate/STIM_012.jpg	100
1168.499	1.04	1040.0	generate	Run2	generate/STIM_012.jpg	99
1173.155	1.476	1476.3	generate	Run2	generate/STIM_012.jpg	99
1176.987	0.957	957.3	generate	Run2	generate/STIM_013.jpg	100
1180.55	1.133	1132.8	generate	Run2	generate/STIM_013.jpg	99
1185.448	1.182	1181.5	generate	Run2	generate/STIM_013.jpg	100
1190.084	0.969	969.4	generate	Run2	generate/STIM_013.jpg	100
1193.796	1.556	1555.6	generate	Run2	generate/STIM_013.jpg	99
1197.355	1.021	1020.8	generate	Run2	generate/STIM_014.jpg	100
1200.457	1.063	1063.2	generate	Run2	generate/STIM_014.jpg	100
1205.15	1.852	1852.3	generate	Run2	generate/STIM_014.jpg	99
1209.591	1.833	1832.8	generate	Run2	generate/STIM_014.jpg	100
1213.75	1.947	1947.3	generate	Run2	generate/STIM_014.jpg	100
1219.102	1.621	1621.0	generate	Run2	generate/STIM_015.jpg	100
1224.16	1.399	1399.1	generate	Run2	generate/STIM_015.jpg	99
1228.072	1.603	1603.0	generate	Run2	generate/STIM_015.jpg	99
1232.992	0.952	951.6	generate	Run2	generate/STIM_015.jpg	99
1236.294	1.064	1063.6	generate	Run2	generate/STIM_015.jpg	100
1239.732	1.544	1544.2	generate	Run2	generate/STIM_016.jpg	99
1244.191	2.213	2212.7	generate	Run2	generate/STIM_016.jpg	100
1249.283	1.217	1217.3	generate	Run2	generate/STIM_016.jpg	100
1252.72	1.185	1185.2	generate	Run2	generate/STIM_016.jpg	99
1256.318	0.8	799.9	generate	Run2	generate/STIM_016.jpg	100
1259.413	1.699	1698.8	generate	Run2	generate/STIM_017.jpg	100
1264.931	1.053	1052.8	generate	Run2	generate/STIM_017.jpg	99
1269.2	1.741	1741.4	generate	Run2	generate/STIM_017.jpg	99
1274.28	1.544	1543.5	generate	Run2	generate/STIM_017.jpg	100
1278.789	1.726	1726.0	generate	Run2	generate/STIM_017.jpg	99
1282.863	1.445	1445.1	generate	Run2	generate/STIM_018.jpg	99
1287.612	1.903	1903.0	generate	Run2	generate/STIM_018.jpg	100
1292.248	1.667	1666.8	generate	Run2	generate/STIM_018.jpg	100
1296.562	1.32	1320.1	generate	Run2	generate/STIM_018.jpg	99
1300.016	0.955	955.0	generate	Run2	generate/STIM_018.jpg	99
1303.226	1.24	1239.5	generate	Run2	generate/STIM_019.jpg	100
1306.953	1.832	1832.2	generate	Run2	generate/STIM_019.jpg	99
1311.39	1.5	1499.7	generate	Run2	generate/STIM_019.jpg	99
1316.705	1.61	1609.9	generate	Run2	generate/STIM_019.jpg	100
1321.347	1.577	1577.3	generate	Run2	generate/STIM_019.jpg	100
1325.705	1.246	1245.6	generate	Run2	generate/STIM_020.jpg	100
1330.127	1.83	1830.3	generate	Run2	generate/STIM_020.jpg	99
1334.047	1.083	1083.2	generate	Run2	generate/STIM_020.jpg	100
1337.193	1.168	1168.5	generate	Run2	generate/STIM_020.jpg	99
1342.156	1.866	1865.9	generate	Run2	generate/STIM_020.jpg	100
1346.786	1.165	1164.7	generate	Run2	generate/STIM_021.jpg	99
1351.474	1.068	1068.4	generate	Run2	generate/STIM_021.jpg	99
1355.195	1.835	1834.7	generate	Run2	generate/STIM_021.jpg	100
1360.567	1.531	1531.4	generate	Run2	generate/STIM_021.jpg	99
1365.132	1.583	1582.7	generate	Run2	generate/STIM_021.jpg	100
1370.421	1.639	1638.8	generate	Run2	generate/STIM_022.jpg	100
1375.211	1.159	1158.6	generate	Run2	generate/STIM_022.jpg	99
1379.579	1.558	1557.7	generate	Run2	generate/STIM_022.jpg	99
1384.027	1.416	1416.3	generate	Run2	generate/STIM_022.jpg	100
1389.387	0.903	903.0	generate	Run2	generate/STIM_022.jpg	100
1393.196	1.022	1021.5	generate	Run2	generate/STIM_023.jpg	100
1397.999	1.771	1771.4	generate	Run2	generate/STIM_023.jpg	99
1403.504	1.572	1572.4	generate	Run2	generate/STIM_023.jpg	99
1408.089	1.171	1170.7	generate	Run2	generate/STIM_023.jpg	100
1411.755	0.804	803.6	generate	Run2	generate/STIM_023.jpg	100
1415.58	1.519	1519.3	generate	Run2	generate/STIM_024.jpg	100
1420.35	1.283	1282.6	generate	Run2	generate/STIM_024.jpg	99
1425.195	1.049	1048.9	generate	Run2	generate/STIM_024.jpg	100
1430.072	1.361	1360.6	generate	Run2	generate/STIM_024.jpg	100
1433.616	1.096	1095.6	generate	Run2	generate/STIM_024.jpg	100
1437.721	0.904	903.9	repeat	Run2	repeat/STIM_000.jpg	100
1442.198	0.516	516.4	repeat	Run2	repeat/STIM_000.jpg	99
1445.713	0.92	919.7	repeat	Run2	repeat/STIM_000.jpg	100
1449.929	0.752	751.5	repeat	Run2	repeat/STIM_000.jpg	100
1454.02	0.777	777.1	repeat	Run2	repeat/STIM_000.jpg	100
1456.806	0.923	923.2	repeat	Run2	repeat/STIM_001.jpg	99
1460.088	0.812	812.4	repeat	Run2	repeat/STIM_001.jpg	99
1463.395	0.65	650.2	repeat	Run2	repeat/STIM_001.jpg	99
1466.781	0.876	876.4	repeat	Run2	repeat/STIM_001.jpg	100
1471.203	0.663	662.9	repeat	Run2	repeat/STIM_001.jpg	100
1474.793	0.61	609.6	repeat	Run2	repeat/STIM_002.jpg	100
1478.787	0.616	616.5	repeat	Run2	repeat/STIM_002.jpg	100
1482.253	0.631	631.2	repeat	Run2	repeat/STIM_002.jpg	99
1486.362	0.78	780.1	repeat	Run2	repeat/STIM_002.jpg	100
1490.576	0.686	685.9	repeat	Run2	repeat/STIM_002.jpg	99
1494.729	0.556	555.5	repeat	Run2	repeat/STIM_003.jpg	100
1497.485	0.902	901.6	repeat	Run2	repeat/STIM_003.jpg	100
1501.959	0.878	878.3	repeat	Run2	repeat/STIM_003.jpg	99
1506.429	0.74	740.5	repeat	Run2	repeat/STIM_003.jpg	100
1510.925	0.636	636.1	repeat	Run2	repeat/STIM_003.jpg	100
1513.939	0.919	919.1	repeat	Run2	repeat/STIM_004.jpg	99
1517.612	0.923	922.8	repeat	Run2	repeat/STIM_004.jpg	100
1522.262	0.775	774.6	repeat	Run2	repeat/STIM_004.jpg	100
1526.315	0.928	928.4	repeat	Run2	repeat/STIM_004.jpg	100
1529.667	0.797	797.1	repeat	Run2	repeat/STIM_004.jpg	100
1533.983	0.702	701.7	repeat	Run2	repeat/STIM_005.jpg	99
1538.619	0.886	886.2	repeat	Run2	repeat/STIM_005.jpg	100
1541.625	0.639	639.4	repeat	Run2	repeat/STIM_005.jpg	99
1544.36	0.906	905.6	repeat	Run2	repeat/STIM_005.jpg	99
1547.623	0.76	759.5	repeat	Run2	repeat/STIM_005.jpg	99
1552.267	0.474	474.4	repeat	Run2	repeat/STIM_006.jpg	99
1554.896	0.542	541.9	repeat	Run2	repeat/STIM_006.jpg	100
1559.023	0.779	779.0	repeat	Run2	repeat/STIM_006.jpg	99
1563.542	0.651	651.0	repeat	Run2	repeat/STIM_006.jpg	100
1567.635	0.84	840.5	repeat	Run2	repeat/STIM_006.jpg	99
1570.82	0.535	534.8	repeat	Run2	repeat/STIM_007.jpg	100
1574.467	0.85	849.9	repeat	Run2	repeat/STIM_007.jpg	99
1579.215	0.674	673.6	repeat	Run2	repeat/STIM_007.jpg	100
1582.662	0.616	616.4	repeat	Run2	repeat/STIM_007.jpg	100
1587.054	0.482	482.3	repeat	Run2	repeat/STIM_007.jpg	99
1589.976	0.846	846.5	repeat	Run2	repeat/STIM_008.jpg	100
1594.703	0.87	869.6	repeat	Run2	repeat/STIM_008.jpg	100
1598.194	0.846	845.8	repeat	Run2	repeat/STIM_008.jpg	100
1601.505	0.873	872.7	repeat	Run2	repeat/STIM_008.jpg	99
1604.826	0.737	737.2	repeat	Run2	repeat/STIM_008.jpg	100
1608.605	0.862	862.5	repeat	Run2	repeat/STIM_009.jpg	100
1612.111	0.485	485.4	repeat	Run2	repeat/STIM_009.jpg	100
1615.63	0.512	512.0	repeat	Run2	repeat/STIM_009.jpg	100
1619.635	0.843	843.3	repeat	Run2	repeat/STIM_009.jpg	99
1623.797	0.74	740.4	repeat	Run2	repeat/STIM_009.jpg	99
1627.197	0.679	679.3	repeat	Run2	repeat/STIM_010.jpg	100
1630.657	0.492	491.9	repeat	Run2	repeat/STIM_010.jpg	100
1633.72	0.739	738.8	repeat	Run2	repeat/STIM_010.jpg	99
1636.911	0.536	536.4	repeat	Run2	repeat/STIM_010.jpg	100
1640.872	0.6	600.2	repeat	Run2	repeat/STIM_010.jpg	100
1645.346	0.92	920.1	repeat	Run2	repeat/STIM_011.jpg	100
1649.066	0.715	714.6	repeat	Run2	repeat/STIM_011.jpg	100
1651.797	0.539	538.7	repeat	Run2	repeat/STIM_011.jpg	99
1655.893	0.84	839.7	repeat	Run2	repeat/STIM_011.jpg	100
1659.727	0.683	683.2	repeat	Run2	repeat/STIM_011.jpg	99
1663.561	0.693	692.9	repeat	Run2	repeat/STIM_012.jpg	99
1666.886	0.524	523.5	repeat	Run2	repeat/STIM_012.jpg	100
1670.379	0.568	568.3	repeat	Run2	repeat/STIM_012.jpg	99
1673.726	0.487	487.4	repeat	Run2	repeat/STIM_012.jpg	100
1676.656	0.473	473.2	repeat	Run2	repeat/STIM_012.jpg	99
1680.422	0.72	719.6	repeat	Run2	repeat/STIM_013.jpg	99
1683.606	0.845	844.6	repeat	Run2	repeat/STIM_013.jpg	99
1687.998	0.667	666.6	repeat	Run2	repeat/STIM_013.jpg	100
1692.649	0.932	932.0	repeat	Run2	repeat/STIM_013.jpg	100
1697.206	0.555	555.0	repeat	Run2	repeat/STIM_013.jpg	100
1699.773	0.499	499.1	repeat	Run2	repeat/STIM_014.jpg	99
1703.599	0.522	521.7	repeat	Run2	repeat/STIM_014.jpg	99
1707.095	0.82	819.7	repeat	Run2	repeat/STIM_014.jpg	100
1710.996	0.487	487.0	repeat	Run2	repeat/STIM_014.jpg	100
1714.768	0.635	634.9	repeat	Run2	repeat/STIM_014.jpg	100
1718.223	1.306	1306.1	generate	Run3	generate/STIM_000.jpg	99
1723.02	1.364	1363.6	generate	Run3	generate/STIM_000.jpg	100
1728.276	1.94	1939.7	generate	Run3	generate/STIM_000.jpg	100
1732.578	1.279	1279.3	generate	Run3	generate/STIM_000.jpg	100
1737.17	1.643	1642.7	generate	Run3	generate/STIM_000.jpg	100
1742.788	1.702	1701.6	generate	Run3	generate/STIM_001.jpg	100
1747.034	1.1	1100.0	generate	Run3	generate/STIM_001.jpg	100
1750.466	1.492	1492.5	generate	Run3	generate/STIM_001.jpg	100
1755.293	1.558	1557.5	generate	Run3	generate/STIM_001.jpg	100
1759.153	1.474	1474.3	generate	Run3	generate/STIM_001.jpg	100
1764.58	1.516	1516.3	generate	Run3	generate/STIM_002.jpg	100
1769.484	1.747	1746.9	generate	Run3	generate/STIM_002.jpg	100
1774.192	1.747	1747.3	generate	Run3	generate/STIM_002.jpg	100
1778.251	1.145	1145.2	generate	Run3	generate/STIM_002.jpg	99
1783.073	1.907	1906.9	generate	Run3	generate/STIM_002.jpg	99
1787.827	0.874	873.8	generate	Run3	generate/STIM_003.jpg	99
1791.369	1.925	1924.7	generate	Run3	generate/STIM_003.jpg	99
1795.634	1.225	1225.3	generate	Run3	generate/STIM_003.jpg	99
1800.125	1.224	1223.6	generate	Run3	generate/STIM_003.jpg	99
1804.167	1.414	1414.2	generate	Run3	generate/STIM_003.jpg	99
1807.967	1.943	1942.9	generate	Run3	generate/STIM_004.jpg	99
1812.14	1.363	1362.7	generate	Run3	generate/STIM_004.jpg	100
1816.469	1.186	1185.8	generate	Run3	generate/STIM_004.jpg	100
1820.437	0.96	959.8	generate	Run3	generate/STIM_004.jpg	100
1824.47	1.21	1210.0	generate	Run3	generate/STIM_004.jpg	99
1828.652	1.12	1120.3	generate	Run3	generate/STIM_005.jpg	100
1832.834	1.515	1515.1	generate	Run3	generate/STIM_005.jpg	100
1837.472	1.944	1944.1	generate	Run3	generate/STIM_005.jpg	99
1842.637	1.066	1066.2	generate	Run3	generate/STIM_005.jpg	99
1846.82	1.2	1200.0	generate	Run3	generate/STIM_005.jpg	99
1850.529	1.651	1650.6	generate	Run3	generate/STIM_006.jpg	99
1854.674	1.727	1726.6	generate	Run3	generate/STIM_006.jpg	100
1859.859	1.429	1428.8	generate	Run3	generate/STIM_006.jpg	100
1864.877	1.947	1946.6	generate	Run3	generate/STIM_006.jpg	99
1870.163	1.646	1645.9	generate	Run3	generate/STIM_006.jpg	99
1875.291	0.949	949.4	generate	Run3	generate/STIM_007.jpg	100
1879.018	1.339	1339.0	generate	Run3	generate/STIM_007.jpg	100
1882.546	1.594	1593.9	generate	Run3	generate/STIM_007.jpg	100
1887.498	1.365	1365.1	generate	Run3	generate/STIM_007.jpg	100
1891.635	1.4	1399.8	generate	Run3	generate/STIM_007.jpg	100
1896.857	1.135	1135.2	generate	Run3	generate/STIM_008.jpg	99
1901.86	1.671	1670.6	generate	Run3	generate/STIM_008.jpg	100
1905.901	1.847	1846.6	generate	Run3	generate/STIM_008.jpg	99
1911.091	1.624	1624.2	generate	Run3	generate/STIM_008.jpg	100
1916.711	1.355	1355.0	generate	Run3	generate/STIM_008.jpg	100
1921.258	1.735	1734.6	generate	Run3	generate/STIM_009.jpg	100
1925.671	1.633	1633.0	generate	Run3	generate/STIM_009.jpg	100
1929.65	1.942	1942.3	generate	Run3	generate/STIM_009.jpg	99
1935.358	1.729	1729.0	generate	Run3	generate/STIM_009.jpg	99
1940.93	1.415	1415.1	generate	Run3	generate/STIM_009.jpg	99
1946.036	0.946	946.0	generate	Run3	generate/STIM_010.jpg	100
1950.19	1.104	1104.3	generate	Run3	generate/STIM_010.jpg	100
1954.443	1.582	1581.8	generate	Run3	generate/STIM_010.jpg	99
1959.856	1.479	1479.4	generate	Run3	generate/STIM_010.jpg	99
1964.257	1.32	1320.5	generate	Run3	generate/STIM_010.jpg	99
1967.725	1.181	1181.1	generate	Run3	generate/STIM_011.jpg	99
1972.433	0.828	828.4	generate	Run3	generate/STIM_011.jpg	99
1975.996	1.238	1237.5	generate	Run3	generate/STIM_011.jpg	100
1980.442	0.82	820.1	generate	Run3	generate/STIM_011.jpg	100
1985.06	1.581	1580.8	generate	Run3	generate/STIM_011.jpg	99
1989.178	1.21	1210.5	generate	Run3	generate/STIM_012.jpg	100
1993.232	1.954	1954.0	generate	Run3	generate/STIM_012.jpg	100
1998.943	1.445	1445.2	generate	Run3	generate/STIM_012.jpg	99
2003.37	1.598	1597.8	generate	Run3	generate/STIM_012.jpg	99
2007.019	0.924	924.3	generate	Run3	generate/STIM_012.jpg	100
2011.435	1.511	1511.1	generate	Run3	generate/STIM_013.jpg	99
2015.58	1.782	1782.2	generate	Run3	generate/STIM_013.jpg	99
2021.163	1.456	1456.1	generate	Run3	generate/STIM_013.jpg	99
2026.553	1.216	1216.0	generate	Run3	generate/STIM_013.jpg	100
2031.114	1.471	1471.1	generate	Run3	generate/STIM_013.jpg	99
2034.64	1.079	1079.4	generate	Run3	generate/STIM_014.jpg	99
2039.215	1.284	1283.7	generate	Run3	generate/STIM_014.jpg	100
2044.29	1.078	1078.0	generate	Run3	generate/STIM_014.jpg	99
2047.746	1.275	1275.3	generate	Run3	generate/STIM_014.jpg	99
2052.012	1.751	1751.2	generate	Run3	generate/STIM_014.jpg	99
2056.987	1.283	1282.8	generate	Run3	generate/STIM_015.jpg	99
2061.433	0.789	789.0	generate	Run3	generate/STIM_015.jpg	100
2064.82	1.004	1003.6	generate	Run3	generate/STIM_015.jpg	99
2068.349	1.244	1243.7	generate	Run3	generate/STIM_015.jpg	100
2073.101	1.513	1513.0	generate	Run3	generate/STIM_015.jpg	100
2076.866	1.855	1855.2	generate	Run3	generate/STIM_016.jpg	100
2082.338	1.398	1398.0	generate	Run3	generate/STIM_016.jpg	100
2085.974	0.819	819.4	generate	Run3	generate/STIM_016.jpg	99
2090.293	1.028	1027.8	generate	Run3	generate/STIM_016.jpg	100
2093.47	1.64	1639.9	generate	Run3	generate/STIM_016.jpg	99
2098.336	1.402	1402.3	generate	Run3	generate/STIM_017.jpg	100
2102.687	1.835	1835.1	generate	Run3	generate/STIM_017.jpg	100
2107.387	1.602	1602.2	generate	Run3	generate/STIM_017.jpg	100
2111.59	1.623	1623.2	generate	Run3	generate/STIM_017.jpg	100
2115.495	1.316	1316.3	generate	Run3	generate/STIM_017.jpg	100
2120.585	1.363	1362.7	generate	Run3	generate/STIM_018.jpg	100
2124.383	0.916	915.5	generate	Run3	generate/STIM_018.jpg	99
2127.699	1.218	1217.5	generate	Run3	generate/STIM_018.jpg	99
2131.044	0.945	944.8	generate	Run3	generate/STIM_018.jpg	99
2135.747	1.002	1002.4	generate	Run3	generate/STIM_018.jpg	99
2140.602	1.22	1220.3	generate	Run3	generate/STIM_019.jpg	100
2145.453	1.776	1775.6	generate	Run3	generate/STIM_019.jpg	100
2150.702	0.911	911.2	generate	Run3	generate/STIM_019.jpg	99
2153.817	0.804	804.4	generate	Run3	generate/STIM_019.jpg	99
2157.148	1.215	1215.3	generate	Run3	generate/STIM_019.jpg	99
2162.046	1.113	1113.3	generate	Run3	generate/STIM_020.jpg	99
2166.24	1.491	1490.7	generate	Run3	generate/STIM_020.jpg	100
2171.098	1.25	1249.6	generate	Run3	generate/STIM_020.jpg	99
2175.263	0.836	836.0	generate	Run3	generate/STIM_020.jpg	99
2179.945	1.354	1353.5	generate	Run3	generate/STIM_020.jpg	99
2184.297	1.522	1522.0	generate	Run3	generate/STIM_021.jpg	99
2188.178	1.45	1450.5	generate	Run3	generate/STIM_021.jpg	99
2193.196	1.101	1101.1	generate	Run3	generate/STIM_021.jpg	100
2197.434	1.853	1853.3	generate	Run3	generate/STIM_021.jpg	100
2201.586	1.162	1162.0	generate	Run3	generate/STIM_021.jpg	99
2206.376	1.193	1193.3	generate	Run3	generate/STIM_022.jpg	99
2211.273	1.438	1438.3	generate	Run3	generate/STIM_022.jpg	100
2216.049	1.764	1764.3	generate	Run3	generate/STIM_022.jpg	99
2220.513	0.988	988.0	generate	Run3	generate/STIM_022.jpg	99
2224.508	1.335	1335.2	generate	Run3	generate/STIM_022.jpg	99
2228.839	1.087	1087.0	generate	Run3	generate/STIM_023.jpg	100
2232.09	1.282	1282.0	generate	Run3	generate/STIM_023.jpg	99
2237.151	1.592	1591.8	generate	Run3	generate/STIM_023.jpg	99
2241.94	1.841	1840.7	generate	Run3	generate/STIM_023.jpg	99
2246.618	1.022	1022.1	generate	Run3	generate/STIM_023.jpg	99
2249.863	1.801	1801.2	generate	Run3	generate/STIM_024.jpg	99
2255.522	1.302	1302.4	generate	Run3	generate/STIM_024.jpg	100
2259.965	0.949	948.6	generate	Run3	generate/STIM_024.jpg	100
2262.936	1.425	1424.7	generate	Run3	generate/STIM_024.jpg	100
2267.119	1.53	1529.5	generate	Run3	generate/STIM_024.jpg	99
2271.086	0.691	691.1	repeat	Run3	repeat/STIM_000.jpg	100
2274.932	0.75	749.6	repeat	Run3	repeat/STIM_000.jpg	99
2279.006	0.624	623.6	repeat	Run3	repeat/STIM_000.jpg	99
2282.461	0.666	666.0	repeat	Run3	repeat/STIM_000.jpg	100
2285.512	0.674	674.2	repeat	Run3	repeat/STIM_000.jpg	100
2289.397	0.583	582.7	repeat	Run3	repeat/STIM_001.jpg	99
2292.993	0.639	639.3	repeat	Run3	repeat/STIM_001.jpg	100
2297.289	0.896	895.9	repeat	Run3	repeat/STIM_001.jpg	99
2301.363	0.819	819.4	repeat	Run3	repeat/STIM_001.jpg	100
2304.199	0.741	741.1	repeat	Run3	repeat/STIM_001.jpg	99
2307.084	0.651	650.7	repeat	Run3	repeat/STIM_002.jpg	100
2310.703	0.572	572.2	repeat	Run3	repeat/STIM_002.jpg	100
2313.855	0.664	663.5	repeat	Run3	repeat/STIM_002.jpg	99
2318.331	0.553	552.9	repeat	Run3	repeat/STIM_002.jpg	100
2322.079	0.916	916.5	repeat	Run3	repeat/STIM_002.jpg	100
2326.305	0.732	732.2	repeat	Run3	repeat/STIM_003.jpg	99
2330.186	0.686	685.5	repeat	Run3	repeat/STIM_003.jpg	100
2334.406	0.611	611.3	repeat	Run3	repeat/STIM_003.jpg	100
2338.042	0.907	906.8	repeat	Run3	repeat/STIM_003.jpg	99
2341.264	0.655	655.4	repeat	Run3	repeat/STIM_003.jpg	100
2344.43	0.786	786.5	repeat	Run3	repeat/STIM_004.jpg	100
2347.876	0.819	819.0	repeat	Run3	repeat/STIM_004.jpg	100
2352.349	0.515	514.8	repeat	Run3	repeat/STIM_004.jpg	100
2355.286	0.501	500.8	repeat	Run3	repeat/STIM_004.jpg	100
2359.448	0.686	686.5	repeat	Run3	repeat/STIM_004.jpg	100
2363.006	0.881	880.8	repeat	Run3	repeat/STIM_005.jpg	100
2366.527	0.569	569.2	repeat	Run3	repeat/STIM_005.jpg	99
2370.124	0.731	730.6	repeat	Run3	repeat/STIM_005.jpg	99
2374.106	0.864	864.1	repeat	Run3	repeat/STIM_005.jpg	99
2378.404	0.889	889.4	repeat	Run3	repeat/STIM_005.jpg	100
2381.504	0.906	905.7	repeat	Run3	repeat/STIM_006.jpg	99
2385.66	0.68	679.5	repeat	Run3	repeat/STIM_006.jpg	99
2388.781	0.632	632.5	repeat	Run3	repeat/STIM_006.jpg	99
2392.275	0.628	627.8	repeat	Run3	repeat/STIM_006.jpg	99
2396.059	0.633	632.9	repeat	Run3	repeat/STIM_006.jpg	99
2399.296	0.787	787.4	repeat	Run3	repeat/STIM_007.jpg	99
2402.966	0.92	919.5	repeat	Run3	repeat/STIM_007.jpg	100
2406.755	0.732	732.4	repeat	Run3	repeat/STIM_007.jpg	100
2411.45	0.804	803.5	repeat	Run3	repeat/STIM_007.jpg	99
2414.457	0.838	838.3	repeat	Run3	repeat/STIM_007.jpg	100
2417.412	0.575	575.0	repeat	Run3	repeat/STIM_008.jpg	100
2420.408	0.834	833.9	repeat	Run3	repeat/STIM_008.jpg	99
2424.144	0.893	892.8	repeat	Run3	repeat/STIM_008.jpg	99
2428.995	0.601	601.4	repeat	Run3	repeat/STIM_008.jpg	99
2433.574	0.468	467.9	repeat	Run3	repeat/STIM_008.jpg	100
2436.765	0.648	647.8	repeat	Run3	repeat/STIM_009.jpg	100
2441.314	0.549	548.6	repeat	Run3	repeat/STIM_009.jpg	99
2444.478	0.598	598.0	repeat	Run3	repeat/STIM_009.jpg	100
2448.448	0.651	650.8	repeat	Run3	repeat/STIM_009.jpg	100
2451.759	0.884	884.2	repeat	Run3	repeat/STIM_009.jpg	99
2455.547	0.511	510.6	repeat	Run3	repeat/STIM_010.jpg	100
2458.307	0.721	721.4	repeat	Run3	repeat/STIM_010.jpg	99
2462.014	0.732	732.4	repeat	Run3	repeat/STIM_010.jpg	99
2466.587	0.93	930.1	repeat	Run3	repeat/STIM_010.jpg	99
2469.592	0.475	474.7	repeat	Run3	repeat/STIM_010.jpg	99
2472.586	0.752	752.4	repeat	Run3	repeat/STIM_011.jpg	99
2476.97	0.606	605.7	repeat	Run3	repeat/STIM_011.jpg	99
2480.568	0.932	932.1	repeat	Run3	repeat/STIM_011.jpg	99
2484.033	0.618	618.1	repeat	Run3	repeat/STIM_011.jpg	100
2487.247	0.527	527.2	repeat	Run3	repeat/STIM_011.jpg	99
2490.514	0.568	568.5	repeat	Run3	repeat/STIM_012.jpg	99
2494.725	0.582	582.2	repeat	Run3	repeat/STIM_012.jpg	100
2498.165	0.708	708.2	repeat	Run3	repeat/STIM_012.jpg	99
2501.161	0.532	531.5	repeat	Run3	repeat/STIM_012.jpg	100
2504.065	0.829	828.6	repeat	Run3	repeat/STIM_012.jpg	100
2508.585	0.566	565.9	repeat	Run3	repeat/STIM_013.jpg	99
2512.254	0.641	640.9	repeat	Run3	repeat/STIM_013.jpg	99
2515.407	0.822	822.4	repeat	Run3	repeat/STIM_013.jpg	100
2518.486	0.478	477.7	repeat	Run3	repeat/STIM_013.jpg	100
2521.256	0.78	779.7	repeat	Run3	repeat/STIM_013.jpg	99
2525.916	0.496	496.4	repeat	Run3	repeat/STIM_014.jpg	99
2530.113	0.483	482.7	repeat	Run3	repeat/STIM_014.jpg	99
2533.769	0.878	877.6	repeat	Run3	repeat/STIM_014.jpg	100
2537.118	0.585	584.7	repeat	Run3	repeat/STIM_014.jpg	99
2540.554	0.77	770.3	repeat	Run3	repeat/STIM_014.jpg	99
2544.836	1.346	1345.7	generate	Run4	generate/STIM_000.jpg	100
2548.577	1.152	1152.1	generate	Run4	generate/STIM_000.jpg	100
2551.889	1.132	1131.8	generate	Run4	generate/STIM_000.jpg	99
2556.991	1.628	1628.2	generate	Run4	generate/STIM_000.jpg	99
2562.591	1.564	1564.2	generate	Run4	generate/STIM_000.jpg	100
2566.449	1.549	1549.3	generate	Run4	generate/STIM_001.jpg	99
2570.734	1.084	1084.3	generate	Run4	generate/STIM_001.jpg	100
2574.586	1.154	1154.1	generate	Run4	generate/STIM_001.jpg	100
2579.024	1.758	1758.0	generate	Run4	generate/STIM_001.jpg	100
2583.801	0.922	922.5	generate	Run4	generate/STIM_001.jpg	100
2588.255	1.578	1577.5	generate	Run4	generate/STIM_002.jpg	100
2593.373	1.83	1830.0	generate	Run4	generate/STIM_002.jpg	99
2598.344	0.909	909.0	generate	Run4	generate/STIM_002.jpg	99
2601.547	1.455	1455.1	generate	Run4	generate/STIM_002.jpg	99
2605.649	1.686	1685.8	generate	Run4	generate/STIM_002.jpg	99
2610.125	1.21	1210.4	generate	Run4	generate/STIM_003.jpg	99
2614.806	1.627	1627.0	generate	Run4	generate/STIM_003.jpg	99
2618.857	1.773	1773.0	generate	Run4	generate/STIM_003.jpg	99
2623.643	1.201	1200.8	generate	Run4	generate/STIM_003.jpg	100
2627.875	1.558	1558.0	generate	Run4	generate/STIM_003.jpg	100
2631.511	0.976	976.5	generate	Run4	generate/STIM_004.jpg	100
2636.313	1.64	1639.6	generate	Run4	generate/STIM_004.jpg	100
2640.526	1.119	1119.2	generate	Run4	generate/STIM_004.jpg	100
2644.194	1.704	1704.3	generate	Run4	generate/STIM_004.jpg	100
2649.057	1.904	1904.5	generate	Run4	generate/STIM_004.jpg	99
2653.25	1.746	1746.1	generate	Run4	generate/STIM_005.jpg	99
2658.73	1.82	1820.2	generate	Run4	generate/STIM_005.jpg	100
2664.192	0.839	838.7	generate	Run4	generate/STIM_005.jpg	99
2667.625	1.461	1460.8	generate	Run4	generate/STIM_005.jpg	99
2672.845	0.912	912.0	generate	Run4	generate/STIM_005.jpg	99
2676.028	0.79	790.3	generate	Run4	generate/STIM_006.jpg	100
2680.322	1.552	1552.4	generate	Run4	generate/STIM_006.jpg	100
2684.28	1.374	1374.5	generate	Run4	generate/STIM_006.jpg	99
2689.068	1.374	1374.2	generate	Run4	generate/STIM_006.jpg	99
2694.169	1.22	1219.7	generate	Run4	generate/STIM_006.jpg	99
2698.164	1.935	1934.8	generate	Run4	generate/STIM_007.jpg	99
2703.231	1.914	1913.9	generate	Run4	generate/STIM_007.jpg	100
2707.62	1.162	1161.7	generate	Run4	generate/STIM_007.jpg	100
2712.621	1.61	1610.4	generate	Run4	generate/STIM_007.jpg	99
2717.415	1.768	1767.8	generate	Run4	generate/STIM_007.jpg	99
2721.703	0.989	988.7	generate	Run4	generate/STIM_008.jpg	99
2724.994	0.995	994.8	generate	Run4	generate/STIM_008.jpg	100
2728.612	1.298	1297.8	generate	Run4	generate/STIM_008.jpg	99
2733.898	1.931	1931.4	generate	Run4	generate/STIM_008.jpg	100
2738.98	0.823	823.3	generate	Run4	generate/STIM_008.jpg	99
2742.484	1.634	1633.7	generate	Run4	generate/STIM_009.jpg	100
2747.799	0.791	791.3	generate	Run4	generate/STIM_009.jpg	100
2750.943	1.131	1131.3	generate	Run4	generate/STIM_009.jpg	100
2754.558	1.616	1616.4	generate	Run4	generate/STIM_009.jpg	99
2758.765	0.925	925.0	generate	Run4	generate/STIM_009.jpg	99
2762.739	1.09	1089.5	generate	Run4	generate/STIM_010.jpg	99
2765.954	1.105	1105.3	generate	Run4	generate/STIM_010.jpg	100
2769.092	1.839	1839.2	generate	Run4	generate/STIM_010.jpg	100
2773.444	1.867	1866.6	generate	Run4	generate/STIM_010.jpg	100
2777.962	1.378	1378.5	generate	Run4	generate/STIM_010.jpg	100
2783.305	0.936	936.3	generate	Run4	generate/STIM_011.jpg	100
2787.954	0.82	819.6	generate	Run4	generate/STIM_011.jpg	99
2790.877	1.639	1638.6	generate	Run4	generate/STIM_011.jpg	100
2794.794	1.793	1793.2	generate	Run4	generate/STIM_011.jpg	99
2799.726	1.482	1481.9	generate	Run4	generate/STIM_011.jpg	100
2803.974	0.843	842.6	generate	Run4	generate/STIM_012.jpg	99
2807.206	1.44	1440.0	generate	Run4	generate/STIM_012.jpg	99
2811.283	0.832	831.6	generate	Run4	generate/STIM_012.jpg	100
2814.407	1.597	1596.7	generate	Run4	generate/STIM_012.jpg	100
2819.642	1.235	1235.0	generate	Run4	generate/STIM_012.jpg	99
2823.162	1.633	1632.7	generate	Run4	generate/STIM_013.jpg	100
2828.522	1.446	1445.6	generate	Run4	generate/STIM_013.jpg	100
2832.546	1.045	1045.4	generate	Run4	generate/STIM_013.jpg	100
2837.067	1.205	1204.9	generate	Run4	generate/STIM_013.jpg	99
2841.787	1.723	1723.1	generate	Run4	generate/STIM_013.jpg	100
2846.338	1.542	1542.3	generate	Run4	generate/STIM_014.jpg	99
2851.396	1.831	1831.4	generate	Run4	generate/STIM_014.jpg	99
2856.192	1.894	1893.6	generate	Run4	generate/STIM_014.jpg	100
2861.361	0.978	978.2	generate	Run4	generate/STIM_014.jpg	99
2865.897	1.613	1613.4	generate	Run4	generate/STIM_014.jpg	100
2869.986	0.944	944.4	generate	Run4	generate/STIM_015.jpg	100
2874.362	1.905	1904.8	generate	Run4	generate/STIM_015.jpg	100
2880.066	1.55	1549.9	generate	Run4	generate/STIM_015.jpg	99
2883.726	1.234	1233.7	generate	Run4	generate/STIM_015.jpg	100
2888.027	1.354	1354.3	generate	Run4	generate/STIM_015.jpg	99
2892.613	1.816	1816.0	generate	Run4	generate/STIM_016.jpg	100
2897.148	1.755	1755.4	generate	Run4	generate/STIM_016.jpg	100
2902.789	1.851	1851.1	generate	Run4	generate/STIM_016.jpg	100
2907.066	1.805	1804.6	generate	Run4	generate/STIM_016.jpg	99
2912.257	1.095	1095.3	generate	Run4	generate/STIM_016.jpg	100
2915.787	1.432	1432.5	generate	Run4	generate/STIM_017.jpg	99
2921.085	1.296	1296.1	generate	Run4	generate/STIM_017.jpg	100
2925.485	0.967	967.0	generate	Run4	generate/STIM_017.jpg	99
2929.287	0.889	888.7	generate	Run4	generate/STIM_017.jpg	99
2933.131	1.564	1563.9	generate	Run4	generate/STIM_017.jpg	100
2937.473	1.06	1060.5	generate	Run4	generate/STIM_018.jpg	99
2941.69	1.685	1685.1	generate	Run4	generate/STIM_018.jpg	99
2946.893	1.661	1661.4	generate	Run4	generate/STIM_018.jpg	100
2951.454	1.949	1948.6	generate	Run4	generate/STIM_018.jpg	99
2957.08	1.654	1653.7	generate	Run4	generate/STIM_018.jpg	100
2962.091	1.731	1730.6	generate	Run4	generate/STIM_019.jpg	99
2967.451	1.686	1685.5	generate	Run4	generate/STIM_019.jpg	100
2972.089	1.718	1717.6	generate	Run4	generate/STIM_019.jpg	99
2976.166	0.794	793.7	generate	Run4	generate/STIM_019.jpg	100
2979.71	1.513	1512.9	generate	Run4	generate/STIM_019.jpg	100
2984.316	1.926	1926.2	generate	Run4	generate/STIM_020.jpg	99
2988.559	1.707	1706.7	generate	Run4	generate/STIM_020.jpg	99
2993.02	0.89	890.0	generate	Run4	generate/STIM_020.jpg	99
2997.708	0.844	843.7	generate	Run4	generate/STIM_020.jpg	100
3001.302	1.012	1011.7	generate	Run4	generate/STIM_020.jpg	100
3004.454	1.14	1140.3	generate	Run4	generate/STIM_021.jpg	100
3009.501	1.174	1173.8	generate	Run4	generate/STIM_021.jpg	100
3013.271	0.933	932.8	generate	Run4	generate/STIM_021.jpg	99
3017.845	1.659	1658.6	generate	Run4	generate/STIM_021.jpg	100
3022.967	0.921	921.2	generate	Run4	generate/STIM_021.jpg	100
3026.925	0.998	998.1	generate	Run4	generate/STIM_022.jpg	100
3031.229	1.373	1372.9	generate	Run4	generate/STIM_022.jpg	99
3036.205	1.828	1828.2	generate	Run4	generate/STIM_022.jpg	99
3040.804	1.9	1900.1	generate	Run4	generate/STIM_022.jpg	100
3045.093	1.44	1440.5	generate	Run4	generate/STIM_022.jpg	100
3049.125	1.344	1344.3	generate	Run4	generate/STIM_023.jpg	100
3053.387	0.943	942.7	generate	Run4	generate/STIM_023.jpg	99
3058.235	1.48	1480.2	generate	Run4	generate/STIM_023.jpg	99
3063.329	1.933	1932.9	generate	Run4	generate/STIM_023.jpg	99
3068.079	1.012	1012.4	generate	Run4	generate/STIM_023.jpg	99
3073.027	1.692	1692.3	generate	Run4	generate/STIM_024.jpg	99
3078.661	1.18	1179.7	generate	Run4	generate/STIM_024.jpg	99
3082.179	1.605	1605.0	generate	Run4	generate/STIM_024.jpg	99
3086.048	1.68	1679.7	generate	Run4	generate/STIM_024.jpg	99
3090.454	1.499	1498.7	generate	Run4	generate/STIM_024.jpg	99
3095.019	0.548	547.6	repeat	Run4	repeat/STIM_000.jpg	99
3097.817	0.763	763.1	repeat	Run4	repeat/STIM_000.jpg	99
3101.776	0.596	595.9	repeat	Run4	repeat/STIM_000.jpg	99
3104.501	0.744	744.0	repeat	Run4	repeat/STIM_000.jpg	99
3109.122	0.522	522.3	repeat	Run4	repeat/STIM_000.jpg	99
3112.025	0.478	478.1	repeat	Run4	repeat/STIM_001.jpg	100
3115.153	0.913	913.3	repeat	Run4	repeat/STIM_001.jpg	100
3119.545	0.665	664.7	repeat	Run4	repeat/STIM_001.jpg	100
3122.758	0.716	716.2	repeat	Run4	repeat/STIM_001.jpg	100
3127.05	0.894	894.0	repeat	Run4	repeat/STIM_001.jpg	99
3130.745	0.802	802.4	repeat	Run4	repeat/STIM_002.jpg	100
3135.373	0.84	840.2	repeat	Run4	repeat/STIM_002.jpg	99
3139.984	0.842	842.0	repeat	Run4	repeat/STIM_002.jpg	100
3143.085	0.479	479.3	repeat	Run4	repeat/STIM_002.jpg	99
3147.035	0.803	803.4	repeat	Run4	repeat/STIM_002.jpg	100
3151.343	0.779	778.9	repeat	Run4	repeat/STIM_003.jpg	99
3155.945	0.538	537.7	repeat	Run4	repeat/STIM_003.jpg	100
3159.076	0.908	907.5	repeat	Run4	repeat/STIM_003.jpg	99
3162.042	0.934	933.6	repeat	Run4	repeat/STIM_003.jpg	99
3166.89	0.622	621.8	repeat	Run4	repeat/STIM_003.jpg	100
3171.021	0.715	714.6	repeat	Run4	repeat/STIM_004.jpg	100
3173.982	0.814	814.1	repeat	Run4	repeat/STIM_004.jpg	99
3177.88	0.524	524.3	repeat	Run4	repeat/STIM_004.jpg	100
3181.438	0.57	570.1	repeat	Run4	repeat/STIM_004.jpg	99
3185.893	0.763	763.0	repeat	Run4	repeat/STIM_004.jpg	100
3189.831	0.74	739.8	repeat	Run4	repeat/STIM_005.jpg	99
3193.927	0.903	903.0	repeat	Run4	repeat/STIM_005.jpg	99
3198.78	0.83	830.2	repeat	Run4	repeat/STIM_005.jpg	99
3203.549	0.806	806.1	repeat	Run4	repeat/STIM_005.jpg	99
3207.801	0.931	931.0	repeat	Run4	repeat/STIM_005.jpg	100
3212.134	0.479	479.2	repeat	Run4	repeat/STIM_006.jpg	99
3215.709	0.866	866.4	repeat	Run4	repeat/STIM_006.jpg	100
3219.082	0.791	791.0	repeat	Run4	repeat/STIM_006.jpg	99
3222.965	0.523	522.8	repeat	Run4	repeat/STIM_006.jpg	100
3226.638	0.56	559.5	repeat	Run4	repeat/STIM_006.jpg	99
3230.047	0.869	869.1	repeat	Run4	repeat/STIM_007.jpg	100
3234.182	0.709	709.0	repeat	Run4	repeat/STIM_007.jpg	100
3238.599	0.612	611.6	repeat	Run4	repeat/STIM_007.jpg	99
3242.525	0.539	539.0	repeat	Run4	repeat/STIM_007.jpg	99
3245.069	0.506	506.5	repeat	Run4	repeat/STIM_007.jpg	100
3248.457	0.696	695.9	repeat	Run4	repeat/STIM_008.jpg	99
3252.367	0.48	479.9	repeat	Run4	repeat/STIM_008.jpg	99
3255.601	0.558	558.5	repeat	Run4	repeat/STIM_008.jpg	100
3258.564	0.629	628.6	repeat	Run4	repeat/STIM_008.jpg	99
3262.446	0.757	756.9	repeat	Run4	repeat/STIM_008.jpg	99
3267.071	0.903	903.4	repeat	Run4	repeat/STIM_009.jpg	100
3271.185	0.607	607.4	repeat	Run4	repeat/STIM_009.jpg	100
3274.483	0.801	801.4	repeat	Run4	repeat/STIM_009.jpg	99
3277.298	0.678	677.5	repeat	Run4	repeat/STIM_009.jpg	99
3281.641	0.778	778.4	repeat	Run4	repeat/STIM_009.jpg	99
3284.593	0.619	619.1	repeat	Run4	repeat/STIM_010.jpg	99
3287.778	0.594	594.5	repeat	Run4	repeat/STIM_010.jpg	99
3291.207	0.74	740.1	repeat	Run4	repeat/STIM_010.jpg	99
3294.732	0.919	919.2	repeat	Run4	repeat/STIM_010.jpg	99
3298.507	0.786	785.9	repeat	Run4	repeat/STIM_010.jpg	100
3302.388	0.786	785.6	repeat	Run4	repeat/STIM_011.jpg	100
3306.232	0.812	812.4	repeat	Run4	repeat/STIM_011.jpg	100
3310.629	0.635	635.3	repeat	Run4	repeat/STIM_011.jpg	99
3313.614	0.691	690.6	repeat	Run4	repeat/STIM_011.jpg	99
3316.997	0.541	541.0	repeat	Run4	repeat/STIM_011.jpg	100
3320.178	0.742	741.9	repeat	Run4	repeat/STIM_012.jpg	99
3323.39	0.912	911.6	repeat	Run4	repeat/STIM_012.jpg	100
3326.934	0.528	528.4	repeat	Run4	repeat/STIM_012.jpg	100
3331.41	0.934	934.3	repeat	Run4	repeat/STIM_012.jpg	100
3334.885	0.668	668.4	repeat	Run4	repeat/STIM_012.jpg	99
3339.267	0.54	539.8	repeat	Run4	repeat/STIM_013.jpg	100
3342.636	0.582	581.6	repeat	Run4	repeat/STIM_013.jpg	100
3346.223	0.795	795.1	repeat	Run4	repeat/STIM_013.jpg	100
3350.394	0.542	541.8	repeat	Run4	repeat/STIM_013.jpg	100
3354.734	0.558	557.6	repeat	Run4	repeat/STIM_013.jpg	100
3358.285	0.782	782.4	repeat	Run4	repeat/STIM_014.jpg	99
3361.827	0.824	824.4	repeat	Run4	repeat/STIM_014.jpg	99
3365.801	0.775	774.6	repeat	Run4	repeat/STIM_014.jpg	99
3368.612	0.776	776.2	repeat	Run4	repeat/STIM_014.jpg	99
3372.23	0.611	610.9	repeat	Run4	repeat/STIM_014.jpg	99
