onset	duration	accuracy_binary	trial_type	learning_stage	stimulus
0.0	1.2	1	generate	Run1	generate/STIM_000.jpg
4.614	2.332	0	generate	Run1	generate/STIM_000.jpg
9.629	1.225	1	generate	Run1	generate/STIM_000.jpg
14.748	2.359	1	generate	Run1	generate/STIM_000.jpg
19.911	1.276	1	generate	Run1	generate/STIM_000.jpg
23.749	2.585	1	generate	Run1	generate/STIM_001.jpg
29.695	1.759	0	generate	Run1	generate/STIM_001.jpg
35.015	1.22	1	generate	Run1	generate/STIM_001.jpg
38.323	1.038	1	generate	Run1	generate/STIM_001.jpg
42.498	0.963	1	generate	Run1	generate/STIM_001.jpg
46.933	1.337	1	generate	Run1	generate/STIM_002.jpg
51.939	1.947	1	generate	Run1	generate/STIM_002.jpg
56.71	1.32	1	generate	Run1	generate/STIM_002.jpg
61.354	2.162	1	generate	Run1	generate/STIM_002.jpg
66.596	2.198	1	generate	Run1	generate/STIM_002.jpg
71.314	2.796	1	generate	Run1	generate/STIM_003.jpg
76.218	2.122	0	generate	Run1	generate/STIM_003.jpg
80.441	1.189	1	generate	Run1	generate/STIM_003.jpg
84.579	1.251	0	generate	Run1	generate/STIM_003.jpg
89.275	1.735	1	generate	Run1	generate/STIM_003.jpg
94.221	2.73	0	generate	Run1	generate/STIM_004.jpg
100.802	1.171	1	generate	Run1	generate/STIM_004.jpg
105.048	1.068	1	generate	Run1	generate/STIM_004.jpg
109.107	2.247	0	generate	Run1	generate/STIM_004.jpg
113.545	2.09	1	generate	Run1	generate/STIM_004.jpg
118.466	1.997	1	generate	Run1	generate/STIM_005.jpg
122.553	2.455	1	generate	Run1	generate/STIM_005.jpg
127.392	1.212	1	generate	Run1	generate/STIM_005.jpg
132.079	1.996	0	generate	Run1	generate/STIM_005.jpg
137.0	2.231	1	generate	Run1	generate/STIM_005.jpg
141.922	1.906	1	generate	Run1	generate/STIM_006.jpg
147.589	1.935	1	generate	Run1	generate/STIM_006.jpg
151.73	1.703	0	generate	Run1	generate/STIM_006.jpg
156.597	1.486	1	generate	Run1	generate/STIM_006.jpg
161.335	1.38	1	generate	Run1	generate/STIM_006.jpg
166.128	2.238	0	generate	Run1	generate/STIM_007.jpg
171.82	1.892	0	generate	Run1	generate/STIM_007.jpg
176.866	1.92	1	generate	Run1	generate/STIM_007.jpg
182.509	1.47	0	generate	Run1	generate/STIM_007.jpg
187.35	2.164	1	generate	Run1	generate/STIM_007.jpg
192.559	2.382	1	generate	Run1	generate/STIM_008.jpg
197.279	1.805	1	generate	Run1	generate/STIM_008.jpg
201.164	1.963	0	generate	Run1	generate/STIM_008.jpg
205.695	1.239	1	generate	Run1	generate/STIM_008.jpg
209.483	2.188	1	generate	Run1	generate/STIM_008.jpg
214.444	1.974	1	generate	Run1	generate/STIM_009.jpg
219.459	2.594	0	generate	Run1	generate/STIM_009.jpg
224.058	1.457	1	generate	Run1	generate/STIM_009.jpg
227.931	1.16	1	generate	Run1	generate/STIM_009.jpg
231.181	1.901	1	generate	Run1	generate/STIM_009.jpg
235.451	2.4	1	generate	Run1	generate/STIM_010.jpg
239.955	2.387	0	generate	Run1	generate/STIM_010.jpg
246.136	2.045	1	generate	Run1	generate/STIM_010.jpg
251.625	1.449	1	generate	Run1	generate/STIM_010.jpg
255.254	1.052	1	generate	Run1	generate/STIM_010.jpg
258.576	1.2	1	generate	Run1	generate/STIM_011.jpg
263.669	2.351	1	generate	Run1	generate/STIM_011.jpg
268.083	2.461	1	generate	Run1	generate/STIM_011.jpg
273.329	1.056	1	generate	Run1	generate/STIM_011.jpg
277.867	1.195	1	generate	Run1	generate/STIM_011.jpg
282.412	2.784	1	generate	Run1	generate/STIM_012.jpg
287.596	1.642	1	generate	Run1	generate/STIM_012.jpg
292.247	2.131	1	generate	Run1	generate/STIM_012.jpg
298.003	1.587	1	generate	Run1	generate/STIM_012.jpg
303.331	1.351	1	generate	Run1	generate/STIM_012.jpg
308.483	1.823	1	generate	Run1	generate/STIM_013.jpg
314.109	1.88	1	generate	Run1	generate/STIM_013.jpg
319.363	1.716	0	generate	Run1	generate/STIM_013.jpg
324.224	1.144	1	generate	Run1	generate/STIM_013.jpg
328.862	1.665	1	generate	Run1	generate/STIM_013.jpg
333.608	2.804	1	generate	Run1	generate/STIM_014.jpg
340.257	2.662	1	generate	Run1	generate/STIM_014.jpg
345.727	2.358	1	generate	Run1	generate/STIM_014.jpg
351.787	2.208	1	generate	Run1	generate/STIM_014.jpg
356.897	1.629	0	generate	Run1	generate/STIM_014.jpg
361.488	1.126	1	generate	Run1	generate/STIM_015.jpg
366.346	1.83	1	generate	Run1	generate/STIM_015.jpg
371.474	1.642	1	generate	Run1	generate/STIM_015.jpg
376.912	2.089	1	generate	Run1	generate/STIM_015.jpg
381.699	1.323	1	generate	Run1	generate/STIM_015.jpg
386.941	2.294	0	generate	Run1	generate/STIM_016.jpg
392.655	1.403	1	generate	Run1	generate/STIM_016.jpg
396.355	1.112	0	generate	Run1	generate/STIM_016.jpg
400.428	1.981	1	generate	Run1	generate/STIM_016.jpg
405.018	1.996	1	generate	Run1	generate/STIM_016.jpg
410.075	1.745	1	generate	Run1	generate/STIM_017.jpg
414.848	1.678	0	generate	Run1	generate/STIM_017.jpg
419.67	1.945	0	generate	Run1	generate/STIM_017.jpg
425.379	2.317	1	generate	Run1	generate/STIM_017.jpg
430.67	2.237	1	generate	Run1	generate/STIM_017.jpg
434.924	1.197	1	generate	Run1	generate/STIM_018.jpg
438.271	1.688	1	generate	Run1	generate/STIM_018.jpg
442.784	1.423	1	generate	Run1	generate/STIM_018.jpg
446.703	1.849	1	generate	Run1	generate/STIM_018.jpg
452.316	1.466	1	generate	Run1	generate/STIM_018.jpg
457.252	1.49	1	generate	Run1	generate/STIM_019.jpg
461.222	1.286	1	generate	Run1	generate/STIM_019.jpg
464.588	2.102	1	generate	Run1	generate/STIM_019.jpg
469.402	2.344	1	generate	Run1	generate/STIM_019.jpg
474.552	1.827	1	generate	Run1	generate/STIM_019.jpg
478.77	2.146	0	generate	Run1	generate/STIM_020.jpg
484.699	1.173	1	generate	Run1	generate/STIM_020.jpg
489.734	2.515	1	generate	Run1	generate/STIM_020.jpg
494.704	1.544	1	generate	Run1	generate/STIM_020.jpg
499.549	1.532	1	generate	Run1	generate/STIM_020.jpg
503.143	1.574	0	generate	Run1	generate/STIM_021.jpg
508.533	1.524	1	generate	Run1	generate/STIM_021.jpg
512.16	1.176	1	generate	Run1	generate/STIM_021.jpg
516.718	2.01	1	generate	Run1	generate/STIM_021.jpg
522.718	1.302	0	generate	Run1	generate/STIM_021.jpg
526.943	1.164	1	generate	Run1	generate/STIM_022.jpg
531.461	2.151	1	generate	Run1	generate/STIM_022.jpg
536.375	2.337	1	generate	Run1	generate/STIM_022.jpg
542.141	2.132	0	generate	Run1	generate/STIM_022.jpg
547.144	0.961	0	generate	Run1	generate/STIM_022.jpg
552.004	1.632	1	generate	Run1	generate/STIM_023.jpg
557.114	2.565	1	generate	Run1	generate/STIM_023.jpg
562.039	1.211	1	generate	Run1	generate/STIM_023.jpg
566.492	1.655	1	generate	Run1	generate/STIM_023.jpg
571.631	1.617	1	generate	Run1	generate/STIM_023.jpg
576.717	1.793	1	generate	Run1	generate/STIM_024.jpg
580.8	2.224	1	generate	Run1	generate/STIM_024.jpg
585.998	1.631	1	generate	Run1	generate/STIM_024.jpg
590.456	1.698	1	generate	Run1	generate/STIM_024.jpg
595.599	1.572	1	generate	Run1	generate/STIM_024.jpg
599.779	0.573	1	repeat	Run1	repeat/STIM_000.jpg
604.168	0.602	1	repeat	Run1	repeat/STIM_000.jpg
607.995	0.924	1	repeat	Run1	repeat/STIM_000.jpg
611.688	0.911	1	repeat	Run1	repeat/STIM_000.jpg
615.623	0.782	1	repeat	Run1	repeat/STIM_000.jpg
618.616	0.648	1	repeat	Run1	repeat/STIM_001.jpg
622.207	0.928	1	repeat	Run1	repeat/STIM_001.jpg
625.315	0.851	1	repeat	Run1	repeat/STIM_001.jpg
630.03	0.68	1	repeat	Run1	repeat/STIM_001.jpg
634.662	0.727	1	repeat	Run1	repeat/STIM_001.jpg
637.881	0.755	1	repeat	Run1	repeat/STIM_002.jpg
641.168	0.558	1	repeat	Run1	repeat/STIM_002.jpg
645.387	0.496	1	repeat	Run1	repeat/STIM_002.jpg
649.532	0.473	1	repeat	Run1	repeat/STIM_002.jpg
653.111	0.614	1	repeat	Run1	repeat/STIM_002.jpg
655.836	0.848	1	repeat	Run1	repeat/STIM_003.jpg
659.299	0.576	0	repeat	Run1	repeat/STIM_003.jpg
662.682	0.481	1	repeat	Run1	repeat/STIM_003.jpg
666.363	0.672	1	repeat	Run1	repeat/STIM_003.jpg
669.165	0.569	1	repeat	Run1	repeat/STIM_003.jpg
672.07	0.737	1	repeat	Run1	repeat/STIM_004.jpg
675.289	0.778	1	repeat	Run1	repeat/STIM_004.jpg
679.271	0.645	1	repeat	Run1	repeat/STIM_004.jpg
683.65	0.773	1	repeat	Run1	repeat/STIM_004.jpg
687.837	0.676	1	repeat	Run1	repeat/STIM_004.jpg
692.48	0.666	1	repeat	Run1	repeat/STIM_005.jpg
696.35	0.65	1	repeat	Run1	repeat/STIM_005.jpg
699.075	0.895	1	repeat	Run1	repeat/STIM_005.jpg
702.102	0.472	1	repeat	Run1	repeat/STIM_005.jpg
705.36	0.628	1	repeat	Run1	repeat/STIM_005.jpg
709.352	0.502	1	repeat	Run1	repeat/STIM_006.jpg
713.571	0.88	1	repeat	Run1	repeat/STIM_006.jpg
716.591	0.664	1	repeat	Run1	repeat/STIM_006.jpg
719.778	0.736	1	repeat	Run1	repeat/STIM_006.jpg
724.491	0.711	1	repeat	Run1	repeat/STIM_006.jpg
727.21	0.474	1	repeat	Run1	repeat/STIM_007.jpg
731.455	0.52	1	repeat	Run1	repeat/STIM_007.jpg
734.735	0.931	1	repeat	Run1	repeat/STIM_007.jpg
738.934	0.502	1	repeat	Run1	repeat/STIM_007.jpg
743.25	0.867	1	repeat	Run1	repeat/STIM_007.jpg
746.326	0.577	1	repeat	Run1	repeat/STIM_008.jpg
749.79	0.72	1	repeat	Run1	repeat/STIM_008.jpg
753.002	0.747	1	repeat	Run1	repeat/STIM_008.jpg
755.894	0.672	1	repeat	Run1	repeat/STIM_008.jpg
759.709	0.739	1	repeat	Run1	repeat/STIM_008.jpg
763.754	0.506	1	repeat	Run1	repeat/STIM_009.jpg
767.639	0.877	1	repeat	Run1	repeat/STIM_009.jpg
771.49	0.526	1	repeat	Run1	repeat/STIM_009.jpg
774.276	0.875	1	repeat	Run1	repeat/STIM_009.jpg
777.469	0.811	1	repeat	Run1	repeat/STIM_009.jpg
781.57	0.845	1	repeat	Run1	repeat/STIM_010.jpg
786.238	0.707	1	repeat	Run1	repeat/STIM_010.jpg
789.756	0.767	1	repeat	Run1	repeat/STIM_010.jpg
794.292	0.552	1	repeat	Run1	repeat/STIM_010.jpg
797.589	0.712	1	repeat	Run1	repeat/STIM_010.jpg
802.173	0.724	1	repeat	Run1	repeat/STIM_011.jpg
805.378	0.832	1	repeat	Run1	repeat/STIM_011.jpg
809.953	0.831	1	repeat	Run1	repeat/STIM_011.jpg
813.375	0.897	1	repeat	Run1	repeat/STIM_011.jpg
816.805	0.564	1	repeat	Run1	repeat/STIM_011.jpg
821.13	0.732	1	repeat	Run1	repeat/STIM_012.jpg
825.078	0.887	1	repeat	Run1	repeat/STIM_012.jpg
828.972	0.834	1	repeat	Run1	repeat/STIM_012.jpg
833.03	0.772	1	repeat	Run1	repeat/STIM_012.jpg
837.386	0.835	1	repeat	Run1	repeat/STIM_012.jpg
842.051	0.712	1	repeat	Run1	repeat/STIM_013.jpg
845.565	0.78	1	repeat	Run1	repeat/STIM_013.jpg
849.967	0.732	1	repeat	Run1	repeat/STIM_013.jpg
854.189	0.755	1	repeat	Run1	repeat/STIM_013.jpg
858.623	0.699	1	repeat	Run1	repeat/STIM_013.jpg
863.118	0.733	1	repeat	Run1	repeat/STIM_014.jpg
867.714	0.758	1	repeat	Run1	repeat/STIM_014.jpg
870.986	0.585	1	repeat	Run1	repeat/STIM_014.jpg
875.325	0.736	1	repeat	Run1	repeat/STIM_014.jpg
879.542	0.84	1	repeat	Run1	repeat/STIM_014.jpg
883.603	2.384	1	generate	Run2	generate/STIM_000.jpg
889.975	1.826	1	generate	Run2	generate/STIM_000.jpg
895.331	2.102	1	generate	Run2	generate/STIM_000.jpg
900.92	1.445	1	generate	Run2	generate/STIM_000.jpg
905.458	1.634	1	generate	Run2	generate/STIM_000.jpg
909.449	1.092	1	generate	Run2	generate/STIM_001.jpg
914.317	1.737	1	generate	Run2	generate/STIM_001.jpg
919.607	1.527	1	generate	Run2	generate/STIM_001.jpg
924.355	0.856	1	generate	Run2	generate/STIM_001.jpg
927.334	1.09	1	generate	Run2	generate/STIM_001.jpg
930.475	2.309	1	generate	Run2	generate/STIM_002.jpg
936.724	2.16	1	generate	Run2	generate/STIM_002.jpg
941.167	1.488	1	generate	Run2	generate/STIM_002.jpg
946.171	1.671	1	generate	Run2	generate/STIM_002.jpg
951.717	1.133	1	generate	Run2	generate/STIM_002.jpg
955.467	1.82	1	generate	Run2	generate/STIM_003.jpg
960.708	1.698	1	generate	Run2	generate/STIM_003.jpg
965.735	2.068	1	generate	Run2	generate/STIM_003.jpg
970.907	1.026	1	generate	Run2	generate/STIM_003.jpg
975.924	1.497	1	generate	Run2	generate/STIM_003.jpg
981.046	1.221	1	generate	Run2	generate/STIM_004.jpg
985.531	1.98	1	generate	Run2	generate/STIM_004.jpg
991.486	0.965	1	generate	Run2	generate/STIM_004.jpg
994.759	1.851	1	generate	Run2	generate/STIM_004.jpg
999.14	1.548	1	generate	Run2	generate/STIM_004.jpg
1003.912	1.822	1	generate	Run2	generate/STIM_005.jpg
1008.943	1.727	1	generate	Run2	generate/STIM_005.jpg
1013.084	1.642	0	generate	Run2	generate/STIM_005.jpg
1016.864	1.303	1	generate	Run2	generate/STIM_005.jpg
1021.095	0.848	1	generate	Run2	generate/STIM_005.jpg
1024.735	1.018	1	generate	Run2	generate/STIM_006.jpg
1028.66	1.079	1	generate	Run2	generate/STIM_006.jpg
1033.698	1.806	1	generate	Run2	generate/STIM_006.jpg
1038.517	1.315	1	generate	Run2	generate/STIM_006.jpg
1042.0	1.439	1	generate	Run2	generate/STIM_006.jpg
1045.996	1.101	1	generate	Run2	generate/STIM_007.jpg
1049.173	1.695	1	generate	Run2	generate/STIM_007.jpg
1054.594	1.438	1	generate	Run2	generate/STIM_007.jpg
1058.828	1.953	1	generate	Run2	generate/STIM_007.jpg
1063.997	1.326	1	generate	Run2	generate/STIM_007.jpg
1068.914	1.43	1	generate	Run2	generate/STIM_008.jpg
1072.487	0.91	1	generate	Run2	generate/STIM_008.jpg
1077.086	1.807	1	generate	Run2	generate/STIM_008.jpg
1081.935	1.094	1	generate	Run2	generate/STIM_008.jpg
1086.2	1.494	1	generate	Run2	generate/STIM_008.jpg
1090.322	1.277	1	generate	Run2	generate/STIM_009.jpg
1094.346	1.097	1	generate	Run2	generate/STIM_009.jpg
1098.171	1.71	1	generate	Run2	generate/STIM_009.jpg
1102.878	1.14	0	generate	Run2	generate/STIM_009.jpg
1106.895	0.958	1	generate	Run2	generate/STIM_009.jpg
1110.309	2.126	1	generate	Run2	generate/STIM_010.jpg
1114.673	2.087	1	generate	Run2	generate/STIM_010.jpg
1119.985	0.842	1	generate	Run2	generate/STIM_010.jpg
1123.119	1.736	1	generate	Run2	generate/STIM_010.jpg
1127.776	1.776	1	generate	Run2	generate/STIM_010.jpg
1132.954	2.378	1	generate	Run2	generate/STIM_011.jpg
1137.781	1.549	1	generate	Run2	generate/STIM_011.jpg
1142.133	1.247	1	generate	Run2	generate/STIM_011.jpg
1145.626	1.136	1	generate	Run2	generate/STIM_011.jpg
1149.918	1.01	1	generate	Run2	generate/STIM_011.jpg
1154.558	1.794	1	generate	Run2	generate/STIM_012.jpg
1159.011	1.337	1	generate	Run2	generate/STIM_012.jpg
1163.044	2.063	1	generate	Run2	generate/STIM_012.jpg
1168.499	1.04	1	generate	Run2	generate/STIM_012.jpg
1173.155	1.476	1	generate	Run2	generate/STIM_012.jpg
1176.987	0.957	1	generate	Run2	generate/STIM_013.jpg
1180.55	1.133	1	generate	Run2	generate/STIM_013.jpg
1185.448	1.182	1	generate	Run2	generate/STIM_013.jpg
1190.084	0.969	1	generate	Run2	generate/STIM_013.jpg
1193.796	1.556	1	generate	Run2	generate/STIM_013.jpg
1197.355	1.021	0	generate	Run2	generate/STIM_014.jpg
1200.457	1.063	1	generate	Run2	generate/STIM_014.jpg
1205.15	1.852	1	generate	Run2	generate/STIM_014.jpg
1209.591	1.833	1	generate	Run2	generate/STIM_014.jpg
1213.75	1.947	1	generate	Run2	generate/STIM_014.jpg
1219.102	1.621	1	generate	Run2	generate/STIM_015.jpg
1224.16	1.399	0	generate	Run2	generate/STIM_015.jpg
1228.072	1.603	1	generate	Run2	generate/STIM_015.jpg
1232.992	0.952	1	generate	Run2	generate/STIM_015.jpg
1236.294	1.064	1	generate	Run2	generate/STIM_015.jpg
1239.732	1.544	1	generate	Run2	generate/STIM_016.jpg
1244.191	2.213	1	generate	Run2	generate/STIM_016.jpg
1249.283	1.217	1	generate	Run2	generate/STIM_016.jpg
1252.72	1.185	1	generate	Run2	generate/STIM_016.jpg
1256.318	0.8	1	generate	Run2	generate/STIM_016.jpg
1259.413	1.699	1	generate	Run2	generate/STIM_017.jpg
1264.931	1.053	1	generate	Run2	generate/STIM_017.jpg
1269.2	1.741	1	generate	Run2	generate/STIM_017.jpg
1274.28	1.544	1	generate	Run2	generate/STIM_017.jpg
1278.789	1.726	0	generate	Run2	generate/STIM_017.jpg
1282.863	1.445	1	generate	Run2	generate/STIM_018.jpg
1287.612	1.903	1	generate	Run2	generate/STIM_018.jpg
1292.248	1.667	1	generate	Run2	generate/STIM_018.jpg
1296.562	1.32	1	generate	Run2	generate/STIM_018.jpg
1300.016	0.955	1	generate	Run2	generate/STIM_018.jpg
1303.226	1.24	1	generate	Run2	generate/STIM_019.jpg
1306.953	1.832	1	generate	Run2	generate/STIM_019.jpg
1311.39	1.5	1	generate	Run2	generate/STIM_019.jpg
1316.705	1.61	0	generate	Run2	generate/STIM_019.jpg
1321.347	1.577	1	generate	Run2	generate/STIM_019.jpg
1325.705	1.246	1	generate	Run2	generate/STIM_020.jpg
1330.127	1.83	1	generate	Run2	generate/STIM_020.jpg
1334.047	1.083	1	generate	Run2	generate/STIM_020.jpg
1337.193	1.168	1	generate	Run2	generate/STIM_020.jpg
1342.156	1.866	1	generate	Run2	generate/STIM_020.jpg
1346.786	1.165	1	generate	Run2	generate/STIM_021.jpg
1351.474	1.068	1	generate	Run2	generate/STIM_021.jpg
1355.195	1.835	1	generate	Run2	generate/STIM_021.jpg
1360.567	1.531	1	generate	Run2	generate/STIM_021.jpg
1365.132	1.583	1	generate	Run2	generate/STIM_021.jpg
1370.421	1.639	1	generate	Run2	generate/STIM_022.jpg
1375.211	1.159	1	generate	Run2	generate/STIM_022.jpg
1379.579	1.558	1	generate	Run2	generate/STIM_022.jpg
1384.027	1.416	1	generate	Run2	generate/STIM_022.jpg
1389.387	0.903	1	generate	Run2	generate/STIM_022.jpg
1393.196	1.022	1	generate	Run2	generate/STIM_023.jpg
1397.999	1.771	1	generate	Run2	generate/STIM_023.jpg
1403.504	1.572	1	generate	Run2	generate/STIM_023.jpg
1408.089	1.171	1	generate	Run2	generate/STIM_023.jpg
1411.755	0.804	1	generate	Run2	generate/STIM_023.jpg
1415.58	1.519	1	generate	Run2	generate/STIM_024.jpg
1420.35	1.283	1	generate	Run2	generate/STIM_024.jpg
1425.195	1.049	1	generate	Run2	generate/STIM_024.jpg
1430.072	1.361	1	generate	Run2	generate/STIM_024.jpg
1433.616	1.096	1	generate	Run2	generate/STIM_024.jpg
1437.721	0.904	1	repeat	Run2	repeat/STIM_000.jpg
1442.198	0.516	1	repeat	Run2	repeat/STIM_000.jpg
1445.713	0.92	1	repeat	Run2	repeat/STIM_000.jpg
1449.929	0.752	1	repeat	Run2	repeat/STIM_000.jpg
1454.02	0.777	1	repeat	Run2	repeat/STIM_000.jpg
1456.806	0.923	1	repeat	Run2	repeat/STIM_001.jpg
1460.088	0.812	1	repeat	Run2	repeat/STIM_001.jpg
1463.395	0.65	1	repeat	Run2	repeat/STIM_001.jpg
1466.781	0.876	1	repeat	Run2	repeat/STIM_001.jpg
1471.203	0.663	1	repeat	Run2	repeat/STIM_001.jpg
1474.793	0.61	1	repeat	Run2	repeat/STIM_002.jpg
1478.787	0.616	1	repeat	Run2	repeat/STIM_002.jpg
1482.253	0.631	1	repeat	Run2	repeat/STIM_002.jpg
1486.362	0.78	1	repeat	Run2	repeat/STIM_002.jpg
1490.576	0.686	1	repeat	Run2	repeat/STIM_002.jpg
1494.729	0.556	1	repeat	Run2	repeat/STIM_003.jpg
1497.485	0.902	1	repeat	Run2	repeat/STIM_003.jpg
1501.959	0.878	1	repeat	Run2	repeat/STIM_003.jpg
1506.429	0.74	1	repeat	Run2	repeat/STIM_003.jpg
1510.925	0.636	1	repeat	Run2	repeat/STIM_003.jpg
1513.939	0.919	1	repeat	Run2	repeat/STIM_004.jpg
1517.612	0.923	0	repeat	Run2	repeat/STIM_004.jpg
1522.262	0.775	1	repeat	Run2	repeat/STIM_004.jpg
1526.315	0.928	1	repeat	Run2	repeat/STIM_004.jpg
1529.667	0.797	1	repeat	Run2	repeat/STIM_004.jpg
1533.983	0.702	1	repeat	Run2	repeat/STIM_005.jpg
1538.619	0.886	1	repeat	Run2	repeat/STIM_005.jpg
1541.625	0.639	1	repeat	Run2	repeat/STIM_005.jpg
1544.36	0.906	1	repeat	Run2	repeat/STIM_005.jpg
1547.623	0.76	1	repeat	Run2	repeat/STIM_005.jpg
1552.267	0.474	0	repeat	Run2	repeat/STIM_006.jpg
1554.896	0.542	1	repeat	Run2	repeat/STIM_006.jpg
1559.023	0.779	1	repeat	Run2	repeat/STIM_006.jpg
1563.542	0.651	1	repeat	Run2	repeat/STIM_006.jpg
1567.635	0.84	1	repeat	Run2	repeat/STIM_006.jpg
1570.82	0.535	1	repeat	Run2	repeat/STIM_007.jpg
1574.467	0.85	1	repeat	Run2	repeat/STIM_007.jpg
1579.215	0.674	1	repeat	Run2	repeat/STIM_007.jpg
1582.662	0.616	1	repeat	Run2	repeat/STIM_007.jpg
1587.054	0.482	1	repeat	Run2	repeat/STIM_007.jpg
1589.976	0.846	1	repeat	Run2	repeat/STIM_008.jpg
1594.703	0.87	1	repeat	Run2	repeat/STIM_008.jpg
1598.194	0.846	1	repeat	Run2	repeat/STIM_008.jpg
1601.505	0.873	1	repeat	Run2	repeat/STIM_008.jpg
1604.826	0.737	1	repeat	Run2	repeat/STIM_008.jpg
1608.605	0.862	1	repeat	Run2	repeat/STIM_009.jpg
1612.111	0.485	1	repeat	Run2	repeat/STIM_009.jpg
1615.63	0.512	1	repeat	Run2	repeat/STIM_009.jpg
1619.635	0.843	1	repeat	Run2	repeat/STIM_009.jpg
1623.797	0.74	1	repeat	Run2	repeat/STIM_009.jpg
1627.197	0.679	1	repeat	Run2	repeat/STIM_010.jpg
1630.657	0.492	1	repeat	Run2	repeat/STIM_010.jpg
1633.72	0.739	1	repeat	Run2	repeat/STIM_010.jpg
1636.911	0.536	1	repeat	Run2	repeat/STIM_010.jpg
1640.872	0.6	1	repeat	Run2	repeat/STIM_010.jpg
1645.346	0.92	1	repeat	Run2	repeat/STIM_011.jpg
1649.066	0.715	1	repeat	Run2	repeat/STIM_011.jpg
1651.797	0.539	1	repeat	Run2	repeat/STIM_011.jpg
1655.893	0.84	1	repeat	Run2	repeat/STIM_011.jpg
1659.727	0.683	1	repeat	Run2	repeat/STIM_011.jpg
1663.561	0.693	1	repeat	Run2	repeat/STIM_012.jpg
1666.886	0.524	1	repeat	Run2	repeat/STIM_012.jpg
1670.379	0.568	1	repeat	Run2	repeat/STIM_012.jpg
1673.726	0.487	1	repeat	Run2	repeat/STIM_012.jpg
1676.656	0.473	1	repeat	Run2	repeat/STIM_012.jpg
1680.422	0.72	1	repeat	Run2	repeat/STIM_013.jpg
1683.606	0.845	1	repeat	Run2	repeat/STIM_013.jpg
1687.998	0.667	1	repeat	Run2	repeat/STIM_013.jpg
1692.649	0.932	1	repeat	Run2	repeat/STIM_013.jpg
1697.206	0.555	1	repeat	Run2	repeat/STIM_013.jpg
1699.773	0.499	1	repeat	Run2	repeat/STIM_014.jpg
1703.599	0.522	1	repeat	Run2	repeat/STIM_014.jpg
1707.095	0.82	1	repeat	Run2	repeat/STIM_014.jpg
1710.996	0.487	1	repeat	Run2	repeat/STIM_014.jpg
1714.768	0.635	1	repeat	Run2	repeat/STIM_014.jpg
1718.223	1.306	1	generate	Run3	generate/STIM_000.jpg
1723.02	1.364	1	generate	Run3	generate/STIM_000.jpg
1728.276	1.94	1	generate	Run3	generate/STIM_000.jpg
1732.578	1.279	1	generate	Run3	generate/STIM_000.jpg
1737.17	1.643	1	generate	Run3	generate/STIM_000.jpg
1742.788	1.702	1	generate	Run3	generate/STIM_001.jpg
1747.034	1.1	1	generate	Run3	generate/STIM_001.jpg
1750.466	1.492	1	generate	Run3	generate/STIM_001.jpg
1755.293	1.558	1	generate	Run3	generate/STIM_001.jpg
1759.153	1.474	1	generate	Run3	generate/STIM_001.jpg
1764.58	1.516	1	generate	Run3	generate/STIM_002.jpg
1769.484	1.747	1	generate	Run3	generate/STIM_002.jpg
1774.192	1.747	1	generate	Run3	generate/STIM_002.jpg
1778.251	1.145	1	generate	Run3	generate/STIM_002.jpg
1783.073	1.907	1	generate	Run3	generate/STIM_002.jpg
1787.827	0.874	1	generate	Run3	generate/STIM_003.jpg
1791.369	1.925	1	generate	Run3	generate/STIM_003.jpg
1795.634	1.225	1	generate	Run3	generate/STIM_003.jpg
1800.125	1.224	1	generate	Run3	generate/STIM_003.jpg
1804.167	1.414	1	generate	Run3	generate/STIM_003.jpg
1807.967	1.943	1	generate	Run3	generate/STIM_004.jpg
1812.14	1.363	1	generate	Run3	generate/STIM_004.jpg
1816.469	1.186	1	generate	Run3	generate/STIM_004.jpg
1820.437	0.96	1	generate	Run3	generate/STIM_004.jpg
1824.47	1.21	1	generate	Run3	generate/STIM_004.jpg
1828.652	1.12	1	generate	Run3	generate/STIM_005.jpg
1832.834	1.515	1	generate	Run3	generate/STIM_005.jpg
1837.472	1.944	1	generate	Run3	generate/STIM_005.jpg
1842.637	1.066	1	generate	Run3	generate/STIM_005.jpg
1846.82	1.2	1	generate	Run3	generate/STIM_005.jpg
1850.529	1.651	1	generate	Run3	generate/STIM_006.jpg
1854.674	1.727	1	generate	Run3	generate/STIM_006.jpg
1859.859	1.429	0	generate	Run3	generate/STIM_006.jpg
1864.877	1.947	0	generate	Run3	generate/STIM_006.jpg
1870.163	1.646	1	generate	Run3	generate/STIM_006.jpg
1875.291	0.949	1	generate	Run3	generate/STIM_007.jpg
1879.018	1.339	0	generate	Run3	generate/STIM_007.jpg
1882.546	1.594	1	generate	Run3	generate/STIM_007.jpg
1887.498	1.365	1	generate	Run3	generate/STIM_007.jpg
1891.635	1.4	1	generate	Run3	generate/STIM_007.jpg
1896.857	1.135	1	generate	Run3	generate/STIM_008.jpg
1901.86	1.671	1	generate	Run3	generate/STIM_008.jpg
1905.901	1.847	1	generate	Run3	generate/STIM_008.jpg
1911.091	1.624	1	generate	Run3	generate/STIM_008.jpg
1916.711	1.355	1	generate	Run3	generate/STIM_008.jpg
1921.258	1.735	1	generate	Run3	generate/STIM_009.jpg
1925.671	1.633	1	generate	Run3	generate/STIM_009.jpg
1929.65	1.942	1	generate	Run3	generate/STIM_009.jpg
1935.358	1.729	1	generate	Run3	generate/STIM_009.jpg
1940.93	1.415	1	generate	Run3	generate/STIM_009.jpg
1946.036	0.946	1	generate	Run3	generate/STIM_010.jpg
1950.19	1.104	1	generate	Run3	generate/STIM_010.jpg
1954.443	1.582	1	generate	Run3	generate/STIM_010.jpg
1959.856	1.479	1	generate	Run3	generate/STIM_010.jpg
1964.257	1.32	1	generate	Run3	generate/STIM_010.jpg
1967.725	1.181	1	generate	Run3	generate/STIM_011.jpg
1972.433	0.828	1	generate	Run3	generate/STIM_011.jpg
1975.996	1.238	1	generate	Run3	generate/STIM_011.jpg
1980.442	0.82	1	generate	Run3	generate/STIM_011.jpg
1985.06	1.581	1	generate	Run3	generate/STIM_011.jpg
1989.178	1.21	1	generate	Run3	generate/STIM_012.jpg
1993.232	1.954	1	generate	Run3	generate/STIM_012.jpg
1998.943	1.445	1	generate	Run3	generate/STIM_012.jpg
2003.37	1.598	1	generate	Run3	generate/STIM_012.jpg
2007.019	0.924	1	generate	Run3	generate/STIM_012.jpg
2011.435	1.511	1	generate	Run3	generate/STIM_013.jpg
2015.58	1.782	1	generate	Run3	generate/STIM_013.jpg
2021.163	1.456	1	generate	Run3	generate/STIM_013.jpg
2026.553	1.216	1	generate	Run3	generate/STIM_013.jpg
2031.114	1.471	1	generate	Run3	generate/STIM_013.jpg
2034.64	1.079	1	generate	Run3	generate/STIM_014.jpg
2039.215	1.284	1	generate	Run3	generate/STIM_014.jpg
2044.29	1.078	1	generate	Run3	generate/STIM_014.jpg
2047.746	1.275	1	generate	Run3	generate/STIM_014.jpg
2052.012	1.751	1	generate	Run3	generate/STIM_014.jpg
2056.987	1.283	1	generate	Run3	generate/STIM_015.jpg
2061.433	0.789	1	generate	Run3	generate/STIM_015.jpg
2064.82	1.004	1	generate	Run3	generate/STIM_015.jpg
2068.349	1.244	1	generate	Run3	generate/STIM_015.jpg
2073.101	1.513	1	generate	Run3	generate/STIM_015.jpg
2076.866	1.855	1	generate	Run3	generate/STIM_016.jpg
2082.338	1.398	1	generate	Run3	generate/STIM_016.jpg
2085.974	0.819	1	generate	Run3	generate/STIM_016.jpg
2090.293	1.028	1	generate	Run3	generate/STIM_016.jpg
2093.47	1.64	1	generate	Run3	generate/STIM_016.jpg
2098.336	1.402	1	generate	Run3	generate/STIM_017.jpg
2102.687	1.835	1	generate	Run3	generate/STIM_017.jpg
2107.387	1.602	1	generate	Run3	generate/STIM_017.jpg
2111.59	1.623	1	generate	Run3	generate/STIM_017.jpg
2115.495	1.316	1	generate	Run3	generate/STIM_017.jpg
2120.585	1.363	1	generate	Run3	generate/STIM_018.jpg
2124.383	0.916	0	generate	Run3	generate/STIM_018.jpg
2127.699	1.218	1	generate	Run3	generate/STIM_018.jpg
2131.044	0.945	1	generate	Run3	generate/STIM_018.jpg
2135.747	1.002	1	generate	Run3	generate/STIM_018.jpg
2140.602	1.22	1	generate	Run3	generate/STIM_019.jpg
2145.453	1.776	1	generate	Run3	generate/STIM_019.jpg
2150.702	0.911	1	generate	Run3	generate/STIM_019.jpg
2153.817	0.804	1	generate	Run3	generate/STIM_019.jpg
2157.148	1.215	1	generate	Run3	generate/STIM_019.jpg
2162.046	1.113	1	generate	Run3	generate/STIM_020.jpg
2166.24	1.491	1	generate	Run3	generate/STIM_020.jpg
2171.098	1.25	1	generate	Run3	generate/STIM_020.jpg
2175.263	0.836	1	generate	Run3	generate/STIM_020.jpg
2179.945	1.354	1	generate	Run3	generate/STIM_020.jpg
2184.297	1.522	1	generate	Run3	generate/STIM_021.jpg
2188.178	1.45	1	generate	Run3	generate/STIM_021.jpg
2193.196	1.101	1	generate	Run3	generate/STIM_021.jpg
2197.434	1.853	1	generate	Run3	generate/STIM_021.jpg
2201.586	1.162	1	generate	Run3	generate/STIM_021.jpg
2206.376	1.193	1	generate	Run3	generate/STIM_022.jpg
2211.273	1.438	1	generate	Run3	generate/STIM_022.jpg
2216.049	1.764	1	generate	Run3	generate/STIM_022.jpg
2220.513	0.988	1	generate	Run3	generate/STIM_022.jpg
2224.508	1.335	1	generate	Run3	generate/STIM_022.jpg
2228.839	1.087	1	generate	Run3	generate/STIM_023.jpg
2232.09	1.282	1	generate	Run3	generate/STIM_023.jpg
2237.151	1.592	1	generate	Run3	generate/STIM_023.jpg
2241.94	1.841	1	generate	Run3	generate/STIM_023.jpg
2246.618	1.022	1	generate	Run3	generate/STIM_023.jpg
2249.863	1.801	0	generate	Run3	generate/STIM_024.jpg
2255.522	1.302	1	generate	Run3	generate/STIM_024.jpg
2259.965	0.949	1	generate	Run3	generate/STIM_024.jpg
2262.936	1.425	1	generate	Run3	generate/STIM_024.jpg
2267.119	1.53	1	generate	Run3	generate/STIM_024.jpg
2271.086	0.691	1	repeat	Run3	repeat/STIM_000.jpg
2274.932	0.75	1	repeat	Run3	repeat/STIM_000.jpg
2279.006	0.624	1	repeat	Run3	repeat/STIM_000.jpg
2282.461	0.666	1	repeat	Run3	repeat/STIM_000.jpg
2285.512	0.674	1	repeat	Run3	repeat/STIM_000.jpg
2289.397	0.583	1	repeat	Run3	repeat/STIM_001.jpg
2292.993	0.639	1	repeat	Run3	repeat/STIM_001.jpg
2297.289	0.896	1	repeat	Run3	repeat/STIM_001.jpg
2301.363	0.819	1	repeat	Run3	repeat/STIM_001.jpg
2304.199	0.741	1	repeat	Run3	repeat/STIM_001.jpg
2307.084	0.651	1	repeat	Run3	repeat/STIM_002.jpg
2310.703	0.572	1	repeat	Run3	repeat/STIM_002.jpg
2313.855	0.664	1	repeat	Run3	repeat/STIM_002.jpg
2318.331	0.553	1	repeat	Run3	repeat/STIM_002.jpg
2322.079	0.916	1	repeat	Run3	repeat/STIM_002.jpg
2326.305	0.732	1	repeat	Run3	repeat/STIM_003.jpg
2330.186	0.686	1	repeat	Run3	repeat/STIM_003.jpg
2334.406	0.611	1	repeat	Run3	repeat/STIM_003.jpg
2338.042	0.907	1	repeat	Run3	repeat/STIM_003.jpg
2341.264	0.655	0	repeat	Run3	repeat/STIM_003.jpg
2344.43	0.786	1	repeat	Run3	repeat/STIM_004.jpg
2347.876	0.819	1	repeat	Run3	repeat/STIM_004.jpg
2352.349	0.515	1	repeat	Run3	repeat/STIM_004.jpg
2355.286	0.501	1	repeat	Run3	repeat/STIM_004.jpg
2359.448	0.686	1	repeat	Run3	repeat/STIM_004.jpg
2363.006	0.881	1	repeat	Run3	repeat/STIM_005.jpg
2366.527	0.569	1	repeat	Run3	repeat/STIM_005.jpg
2370.124	0.731	0	repeat	Run3	repeat/STIM_005.jpg
2374.106	0.864	1	repeat	Run3	repeat/STIM_005.jpg
2378.404	0.889	1	repeat	Run3	repeat/STIM_005.jpg
2381.504	0.906	1	repeat	Run3	repeat/STIM_006.jpg
2385.66	0.68	1	repeat	Run3	repeat/STIM_006.jpg
2388.781	0.632	1	repeat	Run3	repeat/STIM_006.jpg
2392.275	0.628	1	repeat	Run3	repeat/STIM_006.jpg
2396.059	0.633	1	repeat	Run3	repeat/STIM_006.jpg
2399.296	0.787	1	repeat	Run3	repeat/STIM_007.jpg
2402.966	0.92	1	repeat	Run3	repeat/STIM_007.jpg
2406.755	0.732	1	repeat	Run3	repeat/STIM_007.jpg
2411.45	0.804	1	repeat	Run3	repeat/STIM_007.jpg
2414.457	0.838	1	repeat	Run3	repeat/STIM_007.jpg
2417.412	0.575	1	repeat	Run3	repeat/STIM_008.jpg
2420.408	0.834	1	repeat	Run3	repeat/STIM_008.jpg
2424.144	0.893	1	repeat	Run3	repeat/STIM_008.jpg
2428.995	0.601	1	repeat	Run3	repeat/STIM_008.jpg
2433.574	0.468	1	repeat	Run3	repeat/STIM_008.jpg
2436.765	0.648	1	repeat	Run3	repeat/STIM_009.jpg
2441.314	0.549	1	repeat	Run3	repeat/STIM_009.jpg
2444.478	0.598	1	repeat	Run3	repeat/STIM_009.jpg
2448.448	0.651	1	repeat	Run3	repeat/STIM_009.jpg
2451.759	0.884	1	repeat	Run3	repeat/STIM_009.jpg
2455.547	0.511	1	repeat	Run3	repeat/STIM_010.jpg
2458.307	0.721	1	repeat	Run3	repeat/STIM_010.jpg
2462.014	0.732	1	repeat	Run3	repeat/STIM_010.jpg
2466.587	0.93	1	repeat	Run3	repeat/STIM_010.jpg
2469.592	0.475	1	repeat	Run3	repeat/STIM_010.jpg
2472.586	0.752	1	repeat	Run3	repeat/STIM_011.jpg
2476.97	0.606	1	repeat	Run3	repeat/STIM_011.jpg
2480.568	0.932	1	repeat	Run3	repeat/STIM_011.jpg
2484.033	0.618	1	repeat	Run3	repeat/STIM_011.jpg
2487.247	0.527	1	repeat	Run3	repeat/STIM_011.jpg
2490.514	0.568	1	repeat	Run3	repeat/STIM_012.jpg
2494.725	0.582	1	repeat	Run3	repeat/STIM_012.jpg
2498.165	0.708	1	repeat	Run3	repeat/STIM_012.jpg
2501.161	0.532	1	repeat	Run3	repeat/STIM_012.jpg
2504.065	0.829	1	repeat	Run3	repeat/STIM_012.jpg
2508.585	0.566	1	repeat	Run3	repeat/STIM_013.jpg
2512.254	0.641	1	repeat	Run3	repeat/STIM_013.jpg
2515.407	0.822	1	repeat	Run3	repeat/STIM_013.jpg
2518.486	0.478	1	repeat	Run3	repeat/STIM_013.jpg
2521.256	0.78	1	repeat	Run3	repeat/STIM_013.jpg
2525.916	0.496	1	repeat	Run3	repeat/STIM_014.jpg
2530.113	0.483	0	repeat	Run3	repeat/STIM_014.jpg
2533.769	0.878	1	repeat	Run3	repeat/STIM_014.jpg
2537.118	0.585	1	repeat	Run3	repeat/STIM_014.jpg
2540.554	0.77	1	repeat	Run3	repeat/STIM_014.jpg
2544.836	1.346	1	generate	Run4	generate/STIM_000.jpg
2548.577	1.152	1	generate	Run4	generate/STIM_000.jpg
2551.889	1.132	1	generate	Run4	generate/STIM_000.jpg
2556.991	1.628	1	generate	Run4	generate/STIM_000.jpg
2562.591	1.564	1	generate	Run4	generate/STIM_000.jpg
2566.449	1.549	1	generate	Run4	generate/STIM_001.jpg
2570.734	1.084	1	generate	Run4	generate/STIM_001.jpg
2574.586	1.154	1	generate	Run4	generate/STIM_001.jpg
2579.024	1.758	1	generate	Run4	generate/STIM_001.jpg
2583.801	0.922	1	generate	Run4	generate/STIM_001.jpg
2588.255	1.578	1	generate	Run4	generate/STIM_002.jpg
2593.373	1.83	1	generate	Run4	generate/STIM_002.jpg
2598.344	0.909	1	generate	Run4	generate/STIM_002.jpg
2601.547	1.455	1	generate	Run4	generate/STIM_002.jpg
2605.649	1.686	1	generate	Run4	generate/STIM_002.jpg
2610.125	1.21	1	generate	Run4	generate/STIM_003.jpg
2614.806	1.627	1	generate	Run4	generate/STIM_003.jpg
2618.857	1.773	1	generate	Run4	generate/STIM_003.jpg
2623.643	1.201	1	generate	Run4	generate/STIM_003.jpg
2627.875	1.558	1	generate	Run4	generate/STIM_003.jpg
2631.511	0.976	1	generate	Run4	generate/STIM_004.jpg
2636.313	1.64	1	generate	Run4	generate/STIM_004.jpg
2640.526	1.119	1	generate	Run4	generate/STIM_004.jpg
2644.194	1.704	1	generate	Run4	generate/STIM_004.jpg
2649.057	1.904	1	generate	Run4	generate/STIM_004.jpg
2653.25	1.746	1	generate	Run4	generate/STIM_005.jpg
2658.73	1.82	1	generate	Run4	generate/STIM_005.jpg
2664.192	0.839	1	generate	Run4	generate/STIM_005.jpg
2667.625	1.461	1	generate	Run4	generate/STIM_005.jpg
2672.845	0.912	1	generate	Run4	generate/STIM_005.jpg
2676.028	0.79	1	generate	Run4	generate/STIM_006.jpg
2680.322	1.552	1	generate	Run4	generate/STIM_006.jpg
2684.28	1.374	1	generate	Run4	generate/STIM_006.jpg
2689.068	1.374	1	generate	Run4	generate/STIM_006.jpg
2694.169	1.22	1	generate	Run4	generate/STIM_006.jpg
2698.164	1.935	1	generate	Run4	generate/STIM_007.jpg
2703.231	1.914	1	generate	Run4	generate/STIM_007.jpg
2707.62	1.162	1	generate	Run4	generate/STIM_007.jpg
2712.621	1.61	1	generate	Run4	generate/STIM_007.jpg
2717.415	1.768	1	generate	Run4	generate/STIM_007.jpg
2721.703	0.989	1	generate	Run4	generate/STIM_008.jpg
2724.994	0.995	1	generate	Run4	generate/STIM_008.jpg
2728.612	1.298	1	generate	Run4	generate/STIM_008.jpg
2733.898	1.931	1	generate	Run4	generate/STIM_008.jpg
2738.98	0.823	1	generate	Run4	generate/STIM_008.jpg
2742.484	1.634	1	generate	Run4	generate/STIM_009.jpg
2747.799	0.791	1	generate	Run4	generate/STIM_009.jpg
2750.943	1.131	1	generate	Run4	generate/STIM_009.jpg
2754.558	1.616	1	generate	Run4	generate/STIM_009.jpg
2758.765	0.925	1	generate	Run4	generate/STIM_009.jpg
2762.739	1.09	1	generate	Run4	generate/STIM_010.jpg
2765.954	1.105	1	generate	Run4	generate/STIM_010.jpg
2769.092	1.839	1	generate	Run4	generate/STIM_010.jpg
2773.444	1.867	1	generate	Run4	generate/STIM_010.jpg
2777.962	1.378	1	generate	Run4	generate/STIM_010.jpg
2783.305	0.936	1	generate	Run4	generate/STIM_011.jpg
2787.954	0.82	1	generate	Run4	generate/STIM_011.jpg
2790.877	1.639	1	generate	Run4	generate/STIM_011.jpg
2794.794	1.793	1	generate	Run4	generate/STIM_011.jpg
2799.726	1.482	1	generate	Run4	generate/STIM_011.jpg
2803.974	0.843	1	generate	Run4	generate/STIM_012.jpg
2807.206	1.44	1	generate	Run4	generate/STIM_012.jpg
2811.283	0.832	1	generate	Run4	generate/STIM_012.jpg
2814.407	1.597	1	generate	Run4	generate/STIM_012.jpg
2819.642	1.235	1	generate	Run4	generate/STIM_012.jpg
2823.162	1.633	1	generate	Run4	generate/STIM_013.jpg
2828.522	1.446	1	generate	Run4	generate/STIM_013.jpg
2832.546	1.045	1	generate	Run4	generate/STIM_013.jpg
2837.067	1.205	1	generate	Run4	generate/STIM_013.jpg
2841.787	1.723	1	generate	Run4	generate/STIM_013.jpg
2846.338	1.542	1	generate	Run4	generate/STIM_014.jpg
2851.396	1.831	1	generate	Run4	generate/STIM_014.jpg
2856.192	1.894	1	generate	Run4	generate/STIM_014.jpg
2861.361	0.978	1	generate	Run4	generate/STIM_014.jpg
2865.897	1.613	1	generate	Run4	generate/STIM_014.jpg
2869.986	0.944	1	generate	Run4	generate/STIM_015.jpg
2874.362	1.905	1	generate	Run4	generate/STIM_015.jpg
2880.066	1.55	1	generate	Run4	generate/STIM_015.jpg
2883.726	1.234	1	generate	Run4	generate/STIM_015.jpg
2888.027	1.354	1	generate	Run4	generate/STIM_015.jpg
2892.613	1.816	1	generate	Run4	generate/STIM_016.jpg
2897.148	1.755	1	generate	Run4	generate/STIM_016.jpg
2902.789	1.851	1	generate	Run4	generate/STIM_016.jpg
2907.066	1.805	1	generate	Run4	generate/STIM_016.jpg
2912.257	1.095	1	generate	Run4	generate/STIM_016.jpg
2915.787	1.432	1	generate	Run4	generate/STIM_017.jpg
2921.085	1.296	1	generate	Run4	generate/STIM_017.jpg
2925.485	0.967	1	generate	Run4	generate/STIM_017.jpg
2929.287	0.889	1	generate	Run4	generate/STIM_017.jpg
2933.131	1.564	1	generate	Run4	generate/STIM_017.jpg
2937.473	1.06	1	generate	Run4	generate/STIM_018.jpg
2941.69	1.685	1	generate	Run4	generate/STIM_018.jpg
2946.893	1.661	1	generate	Run4	generate/STIM_018.jpg
2951.454	1.949	1	generate	Run4	generate/STIM_018.jpg
2957.08	1.654	1	generate	Run4	generate/STIM_018.jpg
2962.091	1.731	1	generate	Run4	generate/STIM_019.jpg
2967.451	1.686	0	generate	Run4	generate/STIM_019.jpg
2972.089	1.718	1	generate	Run4	generate/STIM_019.jpg
2976.166	0.794	1	generate	Run4	generate/STIM_019.jpg
2979.71	1.513	1	generate	Run4	generate/STIM_019.jpg
2984.316	1.926	1	generate	Run4	generate/STIM_020.jpg
2988.559	1.707	1	generate	Run4	generate/STIM_020.jpg
2993.02	0.89	1	generate	Run4	generate/STIM_020.jpg
2997.708	0.844	1	generate	Run4	generate/STIM_020.jpg
3001.302	1.012	1	generate	Run4	generate/STIM_020.jpg
3004.454	1.14	1	generate	Run4	generate/STIM_021.jpg
3009.501	1.174	1	generate	Run4	generate/STIM_021.jpg
3013.271	0.933	1	generate	Run4	generate/STIM_021.jpg
3017.845	1.659	1	generate	Run4	generate/STIM_021.jpg
3022.967	0.921	1	generate	Run4	generate/STIM_021.jpg
3026.925	0.998	1	generate	Run4	generate/STIM_022.jpg
3031.229	1.373	0	generate	Run4	generate/STIM_022.jpg
3036.205	1.828	1	generate	Run4	generate/STIM_022.jpg
3040.804	1.9	1	generate	Run4	generate/STIM_022.jpg
3045.093	1.44	1	generate	Run4	generate/STIM_022.jpg
3049.125	1.344	0	generate	Run4	generate/STIM_023.jpg
3053.387	0.943	1	generate	Run4	generate/STIM_023.jpg
3058.235	1.48	1	generate	Run4	generate/STIM_023.jpg
3063.329	1.933	1	generate	Run4	generate/STIM_023.jpg
3068.079	1.012	1	generate	Run4	generate/STIM_023.jpg
3073.027	1.692	1	generate	Run4	generate/STIM_024.jpg
3078.661	1.18	1	generate	Run4	generate/STIM_024.jpg
3082.179	1.605	1	generate	Run4	generate/STIM_024.jpg
3086.048	1.68	0	generate	Run4	generate/STIM_024.jpg
3090.454	1.499	0	generate	Run4	generate/STIM_024.jpg
3095.019	0.548	1	repeat	Run4	repeat/STIM_000.jpg
3097.817	0.763	1	repeat	Run4	repeat/STIM_000.jpg
3101.776	0.596	1	repeat	Run4	repeat/STIM_000.jpg
3104.501	0.744	1	repeat	Run4	repeat/STIM_000.jpg
3109.122	0.522	1	repeat	Run4	repeat/STIM_000.jpg
3112.025	0.478	1	repeat	Run4	repeat/STIM_001.jpg
3115.153	0.913	1	repeat	Run4	repeat/STIM_001.jpg
3119.545	0.665	1	repeat	Run4	repeat/STIM_001.jpg
3122.758	0.716	1	repeat	Run4	repeat/STIM_001.jpg
3127.05	0.894	1	repeat	Run4	repeat/STIM_001.jpg
3130.745	0.802	1	repeat	Run4	repeat/STIM_002.jpg
3135.373	0.84	1	repeat	Run4	repeat/STIM_002.jpg
3139.984	0.842	1	repeat	Run4	repeat/STIM_002.jpg
3143.085	0.479	1	repeat	Run4	repeat/STIM_002.jpg
3147.035	0.803	1	repeat	Run4	repeat/STIM_002.jpg
3151.343	0.779	1	repeat	Run4	repeat/STIM_003.jpg
3155.945	0.538	1	repeat	Run4	repeat/STIM_003.jpg
3159.076	0.908	1	repeat	Run4	repeat/STIM_003.jpg
3162.042	0.934	1	repeat	Run4	repeat/STIM_003.jpg
3166.89	0.622	1	repeat	Run4	repeat/STIM_003.jpg
3171.021	0.715	1	repeat	Run4	repeat/STIM_004.jpg
3173.982	0.814	1	repeat	Run4	repeat/STIM_004.jpg
3177.88	0.524	0	repeat	Run4	repeat/STIM_004.jpg
3181.438	0.57	1	repeat	Run4	repeat/STIM_004.jpg
3185.893	0.763	1	repeat	Run4	repeat/STIM_004.jpg
3189.831	0.74	1	repeat	Run4	repeat/STIM_005.jpg
3193.927	0.903	1	repeat	Run4	repeat/STIM_005.jpg
3198.78	0.83	1	repeat	Run4	repeat/STIM_005.jpg
3203.549	0.806	1	repeat	Run4	repeat/STIM_005.jpg
3207.801	0.931	1	repeat	Run4	repeat/STIM_005.jpg
3212.134	0.479	1	repeat	Run4	repeat/STIM_006.jpg
3215.709	0.866	1	repeat	Run4	repeat/STIM_006.jpg
3219.082	0.791	1	repeat	Run4	repeat/STIM_006.jpg
3222.965	0.523	1	repeat	Run4	repeat/STIM_006.jpg
3226.638	0.56	1	repeat	Run4	repeat/STIM_006.jpg
3230.047	0.869	1	repeat	Run4	repeat/STIM_007.jpg
3234.182	0.709	0	repeat	Run4	repeat/STIM_007.jpg
3238.599	0.612	1	repeat	Run4	repeat/STIM_007.jpg
3242.525	0.539	1	repeat	Run4	repeat/STIM_007.jpg
3245.069	0.506	1	repeat	Run4	repeat/STIM_007.jpg
3248.457	0.696	1	repeat	Run4	repeat/STIM_008.jpg
3252.367	0.48	1	repeat	Run4	repeat/STIM_008.jpg
3255.601	0.558	1	repeat	Run4	repeat/STIM_008.jpg
3258.564	0.629	1	repeat	Run4	repeat/STIM_008.jpg
3262.446	0.757	1	repeat	Run4	repeat/STIM_008.jpg
3267.071	0.903	1	repeat	Run4	repeat/STIM_009.jpg
3271.185	0.607	1	repeat	Run4	repeat/STIM_009.jpg
3274.483	0.801	1	repeat	Run4	repeat/STIM_009.jpg
3277.298	0.678	1	repeat	Run4	repeat/STIM_009.jpg
3281.641	0.778	1	repeat	Run4	repeat/STIM_009.jpg
3284.593	0.619	1	repeat	Run4	repeat/STIM_010.jpg
3287.778	0.594	1	repeat	Run4	repeat/STIM_010.jpg
3291.207	0.74	1	repeat	Run4	repeat/STIM_010.jpg
3294.732	0.919	1	repeat	Run4	repeat/STIM_010.jpg
3298.507	0.786	1	repeat	Run4	repeat/STIM_010.jpg
3302.388	0.786	1	repeat	Run4	repeat/STIM_011.jpg
3306.232	0.812	1	repeat	Run4	repeat/STIM_011.jpg
3310.629	0.635	1	repeat	Run4	repeat/STIM_011.jpg
3313.614	0.691	1	repeat	Run4	repeat/STIM_011.jpg
3316.997	0.541	1	repeat	Run4	repeat/STIM_011.jpg
3320.178	0.742	1	repeat	Run4	repeat/STIM_012.jpg
3323.39	0.912	1	repeat	Run4	repeat/STIM_012.jpg
3326.934	0.528	1	repeat	Run4	repeat/STIM_012.jpg
3331.41	0.934	1	repeat	Run4	repeat/STIM_012.jpg
3334.885	0.668	1	repeat	Run4	repeat/STIM_012.jpg
3339.267	0.54	1	repeat	Run4	repeat/STIM_013.jpg
3342.636	0.582	1	repeat	Run4	repeat/STIM_013.jpg
3346.223	0.795	1	repeat	Run4	repeat/STIM_013.jpg
3350.394	0.542	1	repeat	Run4	repeat/STIM_013.jpg
3354.734	0.558	1	repeat	Run4	repeat/STIM_013.jpg
3358.285	0.782	1	repeat	Run4	repeat/STIM_014.jpg
3361.827	0.824	1	repeat	Run4	repeat/STIM_014.jpg
3365.801	0.775	1	repeat	Run4	repeat/STIM_014.jpg
3368.612	0.776	1	repeat	Run4	repeat/STIM_014.jpg
3372.23	0.611	1	repeat	Run4	repeat/STIM_014.jpg
