onset	duration	accuracy_binary	trial_type	learning_stage	stimulus
0.0	2.766	0	navigation	Trial1	navigation/STIM_000.jpg
5.269	2.877	1	navigation	Trial1	navigation/STIM_000.jpg
12.239	1.636	1	navigation	Trial1	navigation/STIM_000.jpg
17.024	2.925	1	navigation	Trial1	navigation/STIM_000.jpg
23.191	2.558	1	navigation	Trial1	navigation/STIM_000.jpg
28.293	2.279	1	navigation	Trial1	navigation/STIM_000.jpg
33.855	3.224	1	navigation	Trial1	navigation/STIM_001.jpg
41.094	2.854	0	navigation	Trial1	navigation/STIM_001.jpg
47.585	3.765	0	navigation	Trial1	navigation/STIM_001.jpg
55.257	2.377	1	navigation	Trial1	navigation/STIM_001.jpg
61.748	3.329	1	navigation	Trial1	navigation/STIM_001.jpg
69.534	2.144	0	navigation	Trial1	navigation/STIM_001.jpg
74.245	3.933	1	navigation	Trial1	navigation/STIM_002.jpg
81.996	3.238	1	navigation	Trial1	navigation/STIM_002.jpg
89.024	1.661	0	navigation	Trial1	navigation/STIM_002.jpg
93.694	2.43	1	navigation	Trial1	navigation/STIM_002.jpg
99.414	2.38	0	navigation	Trial1	navigation/STIM_002.jpg
104.828	1.611	1	navigation	Trial1	navigation/STIM_002.jpg
109.975	4.378	0	navigation	Trial1	navigation/STIM_003.jpg
117.035	3.456	0	navigation	Trial1	navigation/STIM_003.jpg
124.258	2.645	1	navigation	Trial1	navigation/STIM_003.jpg
129.655	3.206	1	navigation	Trial1	navigation/STIM_003.jpg
135.99	2.247	1	navigation	Trial1	navigation/STIM_003.jpg
141.612	2.16	1	navigation	Trial1	navigation/STIM_003.jpg
146.67	1.841	1	navigation	Trial1	navigation/STIM_004.jpg
152.475	3.348	1	navigation	Trial1	navigation/STIM_004.jpg
159.336	2.112	0	navigation	Trial1	navigation/STIM_004.jpg
163.989	3.394	0	navigation	Trial1	navigation/STIM_004.jpg
171.549	3.001	0	navigation	Trial1	navigation/STIM_004.jpg
178.567	1.645	1	navigation	Trial1	navigation/STIM_004.jpg
184.106	2.677	0	navigation	Trial1	navigation/STIM_005.jpg
190.05	2.976	0	navigation	Trial1	navigation/STIM_005.jpg
196.59	3.278	1	navigation	Trial1	navigation/STIM_005.jpg
203.208	1.673	1	navigation	Trial1	navigation/STIM_005.jpg
208.544	3.215	1	navigation	Trial1	navigation/STIM_005.jpg
215.077	1.82	1	navigation	Trial1	navigation/STIM_005.jpg
219.49	3.18	1	navigation	Trial1	navigation/STIM_006.jpg
226.284	2.561	1	navigation	Trial1	navigation/STIM_006.jpg
232.505	1.679	1	navigation	Trial1	navigation/STIM_006.jpg
237.138	3.58	0	navigation	Trial1	navigation/STIM_006.jpg
243.795	1.436	1	navigation	Trial1	navigation/STIM_006.jpg
248.742	2.874	0	navigation	Trial1	navigation/STIM_006.jpg
254.889	2.135	1	navigation	Trial1	navigation/STIM_007.jpg
261.134	2.691	0	navigation	Trial1	navigation/STIM_007.jpg
266.582	2.737	0	navigation	Trial1	navigation/STIM_007.jpg
273.277	1.398	1	navigation	Trial1	navigation/STIM_007.jpg
277.161	2.143	1	navigation	Trial1	navigation/STIM_007.jpg
282.447	3.174	1	navigation	Trial1	navigation/STIM_007.jpg
290.044	3.824	1	navigation	Trial1	navigation/STIM_008.jpg
297.297	3.218	1	navigation	Trial1	navigation/STIM_008.jpg
304.052	1.838	1	navigation	Trial1	navigation/STIM_008.jpg
309.324	3.49	0	navigation	Trial1	navigation/STIM_008.jpg
317.214	3.196	0	navigation	Trial1	navigation/STIM_008.jpg
324.566	1.683	1	navigation	Trial1	navigation/STIM_008.jpg
328.955	3.261	1	navigation	Trial1	navigation/STIM_009.jpg
335.41	3.71	1	navigation	Trial1	navigation/STIM_009.jpg
341.85	2.226	1	navigation	Trial1	navigation/STIM_009.jpg
347.432	1.518	1	navigation	Trial1	navigation/STIM_009.jpg
351.537	2.58	1	navigation	Trial1	navigation/STIM_009.jpg
357.926	3.062	1	navigation	Trial1	navigation/STIM_009.jpg
365.207	3.61	1	navigation	Trial1	navigation/STIM_010.jpg
371.511	2.235	1	navigation	Trial1	navigation/STIM_010.jpg
378.008	2.415	0	navigation	Trial1	navigation/STIM_010.jpg
382.79	3.47	0	navigation	Trial1	navigation/STIM_010.jpg
389.537	2.955	1	navigation	Trial1	navigation/STIM_010.jpg
395.662	2.738	1	navigation	Trial1	navigation/STIM_010.jpg
402.62	2.064	1	navigation	Trial1	navigation/STIM_011.jpg
407.942	2.638	0	navigation	Trial1	navigation/STIM_011.jpg
413.028	3.741	1	navigation	Trial1	navigation/STIM_011.jpg
420.971	1.646	0	navigation	Trial1	navigation/STIM_011.jpg
426.613	1.702	1	navigation	Trial1	navigation/STIM_011.jpg
430.691	1.736	1	navigation	Trial1	navigation/STIM_011.jpg
436.123	1.171	1	pointing	Trial1	pointing/STIM_000.jpg
440.306	1.394	1	pointing	Trial1	pointing/STIM_000.jpg
445.63	1.144	1	pointing	Trial1	pointing/STIM_000.jpg
450.003	1.048	1	pointing	Trial1	pointing/STIM_000.jpg
453.848	1.114	1	pointing	Trial1	pointing/STIM_000.jpg
457.847	1.041	1	pointing	Trial1	pointing/STIM_000.jpg
461.61	1.112	1	pointing	Trial1	pointing/STIM_001.jpg
466.099	1.281	1	pointing	Trial1	pointing/STIM_001.jpg
471.538	0.842	1	pointing	Trial1	pointing/STIM_001.jpg
475.782	0.896	1	pointing	Trial1	pointing/STIM_001.jpg
479.933	1.012	1	pointing	Trial1	pointing/STIM_001.jpg
484.537	1.08	1	pointing	Trial1	pointing/STIM_001.jpg
489.553	1.262	1	pointing	Trial1	pointing/STIM_002.jpg
494.273	1.148	1	pointing	Trial1	pointing/STIM_002.jpg
497.946	1.209	1	pointing	Trial1	pointing/STIM_002.jpg
502.657	1.164	1	pointing	Trial1	pointing/STIM_002.jpg
507.167	1.056	1	pointing	Trial1	pointing/STIM_002.jpg
512.121	0.776	1	pointing	Trial1	pointing/STIM_002.jpg
515.784	1.309	1	pointing	Trial1	pointing/STIM_003.jpg
521.105	0.769	1	pointing	Trial1	pointing/STIM_003.jpg
524.423	0.722	1	pointing	Trial1	pointing/STIM_003.jpg
527.615	1.025	1	pointing	Trial1	pointing/STIM_003.jpg
532.42	0.807	1	pointing	Trial1	pointing/STIM_003.jpg
535.676	1.013	0	pointing	Trial1	pointing/STIM_003.jpg
540.694	0.952	1	pointing	Trial1	pointing/STIM_004.jpg
545.285	0.845	1	pointing	Trial1	pointing/STIM_004.jpg
549.709	1.275	1	pointing	Trial1	pointing/STIM_004.jpg
554.915	0.831	1	pointing	Trial1	pointing/STIM_004.jpg
558.488	0.739	1	pointing	Trial1	pointing/STIM_004.jpg
562.687	1.101	1	pointing	Trial1	pointing/STIM_004.jpg
567.5	1.169	1	pointing	Trial1	pointing/STIM_005.jpg
572.737	0.884	1	pointing	Trial1	pointing/STIM_005.jpg
577.541	1.152	1	pointing	Trial1	pointing/STIM_005.jpg
582.749	0.757	1	pointing	Trial1	pointing/STIM_005.jpg
586.466	1.055	1	pointing	Trial1	pointing/STIM_005.jpg
590.551	0.67	1	pointing	Trial1	pointing/STIM_005.jpg
594.073	1.21	1	pointing	Trial1	pointing/STIM_006.jpg
597.766	0.925	0	pointing	Trial1	pointing/STIM_006.jpg
601.657	1.342	1	pointing	Trial1	pointing/STIM_006.jpg
606.791	0.929	1	pointing	Trial1	pointing/STIM_006.jpg
610.745	1.113	0	pointing	Trial1	pointing/STIM_006.jpg
615.272	1.049	1	pointing	Trial1	pointing/STIM_006.jpg
619.035	0.773	1	pointing	Trial1	pointing/STIM_007.jpg
622.717	0.776	1	pointing	Trial1	pointing/STIM_007.jpg
626.141	0.913	1	pointing	Trial1	pointing/STIM_007.jpg
629.286	1.097	1	pointing	Trial1	pointing/STIM_007.jpg
632.559	1.253	1	pointing	Trial1	pointing/STIM_007.jpg
636.725	1.084	0	pointing	Trial1	pointing/STIM_007.jpg
640.446	0.894	1	pointing	Trial1	pointing/STIM_008.jpg
645.01	1.231	1	pointing	Trial1	pointing/STIM_008.jpg
649.317	1.081	1	pointing	Trial1	pointing/STIM_008.jpg
653.466	1.155	1	pointing	Trial1	pointing/STIM_008.jpg
657.767	1.12	1	pointing	Trial1	pointing/STIM_008.jpg
661.766	0.871	1	pointing	Trial1	pointing/STIM_008.jpg
665.179	1.009	0	pointing	Trial1	pointing/STIM_009.jpg
669.862	0.925	1	pointing	Trial1	pointing/STIM_009.jpg
673.12	0.881	1	pointing	Trial1	pointing/STIM_009.jpg
677.293	1.3	1	pointing	Trial1	pointing/STIM_009.jpg
680.996	0.959	1	pointing	Trial1	pointing/STIM_009.jpg
684.889	1.325	1	pointing	Trial1	pointing/STIM_009.jpg
688.749	0.965	1	pointing	Trial1	pointing/STIM_010.jpg
692.46	0.985	1	pointing	Trial1	pointing/STIM_010.jpg
696.351	1.257	1	pointing	Trial1	pointing/STIM_010.jpg
700.171	1.16	1	pointing	Trial1	pointing/STIM_010.jpg
703.695	1.128	1	pointing	Trial1	pointing/STIM_010.jpg
707.688	1.093	1	pointing	Trial1	pointing/STIM_010.jpg
710.916	0.89	1	pointing	Trial1	pointing/STIM_011.jpg
715.784	1.011	1	pointing	Trial1	pointing/STIM_011.jpg
720.401	0.98	1	pointing	Trial1	pointing/STIM_011.jpg
724.134	0.731	1	pointing	Trial1	pointing/STIM_011.jpg
727.927	1.291	1	pointing	Trial1	pointing/STIM_011.jpg
732.521	1.128	1	pointing	Trial1	pointing/STIM_011.jpg
737.774	3.657	0	navigation	Trial2	navigation/STIM_000.jpg
744.821	1.484	0	navigation	Trial2	navigation/STIM_000.jpg
750.347	2.264	0	navigation	Trial2	navigation/STIM_000.jpg
756.212	2.422	1	navigation	Trial2	navigation/STIM_000.jpg
762.673	1.781	0	navigation	Trial2	navigation/STIM_000.jpg
766.878	1.214	0	navigation	Trial2	navigation/STIM_000.jpg
770.441	1.716	0	navigation	Trial2	navigation/STIM_001.jpg
774.853	2.947	1	navigation	Trial2	navigation/STIM_001.jpg
781.567	3.073	0	navigation	Trial2	navigation/STIM_001.jpg
787.327	2.022	1	navigation	Trial2	navigation/STIM_001.jpg
793.219	2.89	0	navigation	Trial2	navigation/STIM_001.jpg
799.809	3.074	1	navigation	Trial2	navigation/STIM_001.jpg
805.382	1.512	1	navigation	Trial2	navigation/STIM_002.jpg
810.571	2.201	0	navigation	Trial2	navigation/STIM_002.jpg
816.103	3.169	1	navigation	Trial2	navigation/STIM_002.jpg
823.693	1.385	1	navigation	Trial2	navigation/STIM_002.jpg
827.296	1.766	1	navigation	Trial2	navigation/STIM_002.jpg
832.635	1.691	1	navigation	Trial2	navigation/STIM_002.jpg
837.451	3.447	0	navigation	Trial2	navigation/STIM_003.jpg
845.117	1.552	1	navigation	Trial2	navigation/STIM_003.jpg
850.539	3.306	0	navigation	Trial2	navigation/STIM_003.jpg
857.431	2.416	1	navigation	Trial2	navigation/STIM_003.jpg
863.284	2.068	1	navigation	Trial2	navigation/STIM_003.jpg
869.373	2.794	1	navigation	Trial2	navigation/STIM_003.jpg
875.815	2.807	1	navigation	Trial2	navigation/STIM_004.jpg
882.888	2.673	0	navigation	Trial2	navigation/STIM_004.jpg
889.017	2.194	1	navigation	Trial2	navigation/STIM_004.jpg
895.488	2.773	1	navigation	Trial2	navigation/STIM_004.jpg
900.873	1.425	1	navigation	Trial2	navigation/STIM_004.jpg
904.946	1.996	1	navigation	Trial2	navigation/STIM_004.jpg
910.028	2.496	1	navigation	Trial2	navigation/STIM_005.jpg
915.338	3.272	1	navigation	Trial2	navigation/STIM_005.jpg
921.151	2.678	1	navigation	Trial2	navigation/STIM_005.jpg
926.518	2.125	0	navigation	Trial2	navigation/STIM_005.jpg
931.401	2.796	0	navigation	Trial2	navigation/STIM_005.jpg
936.66	1.448	1	navigation	Trial2	navigation/STIM_005.jpg
941.726	2.062	1	navigation	Trial2	navigation/STIM_006.jpg
947.498	2.931	1	navigation	Trial2	navigation/STIM_006.jpg
953.582	2.454	1	navigation	Trial2	navigation/STIM_006.jpg
959.749	1.419	0	navigation	Trial2	navigation/STIM_006.jpg
964.775	1.639	1	navigation	Trial2	navigation/STIM_006.jpg
969.399	2.104	1	navigation	Trial2	navigation/STIM_006.jpg
975.634	2.26	1	navigation	Trial2	navigation/STIM_007.jpg
982.089	1.646	0	navigation	Trial2	navigation/STIM_007.jpg
987.363	2.21	1	navigation	Trial2	navigation/STIM_007.jpg
992.013	2.468	1	navigation	Trial2	navigation/STIM_007.jpg
997.76	1.79	1	navigation	Trial2	navigation/STIM_007.jpg
1002.497	2.09	0	navigation	Trial2	navigation/STIM_007.jpg
1008.394	3.232	1	navigation	Trial2	navigation/STIM_008.jpg
1015.873	1.745	0	navigation	Trial2	navigation/STIM_008.jpg
1021.495	3.056	1	navigation	Trial2	navigation/STIM_008.jpg
1028.735	2.252	1	navigation	Trial2	navigation/STIM_008.jpg
1034.906	2.197	0	navigation	Trial2	navigation/STIM_008.jpg
1040.406	2.787	0	navigation	Trial2	navigation/STIM_008.jpg
1045.922	1.741	1	navigation	Trial2	navigation/STIM_009.jpg
1051.489	1.495	1	navigation	Trial2	navigation/STIM_009.jpg
1056.293	1.85	1	navigation	Trial2	navigation/STIM_009.jpg
1062.075	1.895	1	navigation	Trial2	navigation/STIM_009.jpg
1066.7	3.01	0	navigation	Trial2	navigation/STIM_009.jpg
1073.246	1.843	0	navigation	Trial2	navigation/STIM_009.jpg
1077.63	3.008	1	navigation	Trial2	navigation/STIM_010.jpg
1083.736	2.731	1	navigation	Trial2	navigation/STIM_010.jpg
1089.471	1.498	1	navigation	Trial2	navigation/STIM_010.jpg
1094.7	1.774	1	navigation	Trial2	navigation/STIM_010.jpg
1099.753	2.51	1	navigation	Trial2	navigation/STIM_010.jpg
1106.547	2.775	1	navigation	Trial2	navigation/STIM_010.jpg
1112.459	3.675	1	navigation	Trial2	navigation/STIM_011.jpg
1120.243	2.62	1	navigation	Trial2	navigation/STIM_011.jpg
1126.264	2.366	0	navigation	Trial2	navigation/STIM_011.jpg
1131.336	2.759	1	navigation	Trial2	navigation/STIM_011.jpg
1137.241	2.013	1	navigation	Trial2	navigation/STIM_011.jpg
1142.848	2.849	1	navigation	Trial2	navigation/STIM_011.jpg
1149.06	1.174	1	pointing	Trial2	pointing/STIM_000.jpg
1154.1	0.926	1	pointing	Trial2	pointing/STIM_000.jpg
1157.803	0.806	1	pointing	Trial2	pointing/STIM_000.jpg
1160.766	1.266	1	pointing	Trial2	pointing/STIM_000.jpg
1164.51	0.811	1	pointing	Trial2	pointing/STIM_000.jpg
1167.413	0.756	1	pointing	Trial2	pointing/STIM_000.jpg
1171.292	1.075	1	pointing	Trial2	pointing/STIM_001.jpg
1175.815	0.877	0	pointing	Trial2	pointing/STIM_001.jpg
1180.18	1.05	1	pointing	Trial2	pointing/STIM_001.jpg
1185.167	0.9	1	pointing	Trial2	pointing/STIM_001.jpg
1190.056	1.234	1	pointing	Trial2	pointing/STIM_001.jpg
1194.647	0.945	1	pointing	Trial2	pointing/STIM_001.jpg
1198.78	0.973	1	pointing	Trial2	pointing/STIM_002.jpg
1201.918	1.259	0	pointing	Trial2	pointing/STIM_002.jpg
1206.36	1.23	1	pointing	Trial2	pointing/STIM_002.jpg
1210.133	0.844	1	pointing	Trial2	pointing/STIM_002.jpg
1214.271	1.25	1	pointing	Trial2	pointing/STIM_002.jpg
1218.727	1.253	1	pointing	Trial2	pointing/STIM_002.jpg
1222.526	0.934	1	pointing	Trial2	pointing/STIM_003.jpg
1226.375	0.856	1	pointing	Trial2	pointing/STIM_003.jpg
1231.102	0.924	1	pointing	Trial2	pointing/STIM_003.jpg
1235.744	0.745	1	pointing	Trial2	pointing/STIM_003.jpg
1240.384	0.973	1	pointing	Trial2	pointing/STIM_003.jpg
1243.687	1.205	1	pointing	Trial2	pointing/STIM_003.jpg
1248.343	0.899	1	pointing	Trial2	pointing/STIM_004.jpg
1251.512	0.871	1	pointing	Trial2	pointing/STIM_004.jpg
1255.405	0.713	1	pointing	Trial2	pointing/STIM_004.jpg
1259.583	1.169	1	pointing	Trial2	pointing/STIM_004.jpg
1264.524	1.187	1	pointing	Trial2	pointing/STIM_004.jpg
1269.878	1.18	1	pointing	Trial2	pointing/STIM_004.jpg
1274.316	1.314	1	pointing	Trial2	pointing/STIM_005.jpg
1278.546	0.957	1	pointing	Trial2	pointing/STIM_005.jpg
1283.418	1.024	1	pointing	Trial2	pointing/STIM_005.jpg
1288.251	0.912	1	pointing	Trial2	pointing/STIM_005.jpg
1292.083	0.833	1	pointing	Trial2	pointing/STIM_005.jpg
1295.945	1.248	1	pointing	Trial2	pointing/STIM_005.jpg
1299.743	1.208	1	pointing	Trial2	pointing/STIM_006.jpg
1304.012	1.245	0	pointing	Trial2	pointing/STIM_006.jpg
1307.39	0.903	1	pointing	Trial2	pointing/STIM_006.jpg
1312.249	0.966	1	pointing	Trial2	pointing/STIM_006.jpg
1315.769	1.04	1	pointing	Trial2	pointing/STIM_006.jpg
1320.867	0.825	1	pointing	Trial2	pointing/STIM_006.jpg
1325.281	1.256	1	pointing	Trial2	pointing/STIM_007.jpg
1330.058	0.825	1	pointing	Trial2	pointing/STIM_007.jpg
1333.014	1.094	1	pointing	Trial2	pointing/STIM_007.jpg
1336.927	0.781	1	pointing	Trial2	pointing/STIM_007.jpg
1341.393	0.976	1	pointing	Trial2	pointing/STIM_007.jpg
1346.198	0.726	1	pointing	Trial2	pointing/STIM_007.jpg
1349.79	0.924	1	pointing	Trial2	pointing/STIM_008.jpg
1353.935	0.738	1	pointing	Trial2	pointing/STIM_008.jpg
1357.87	0.678	1	pointing	Trial2	pointing/STIM_008.jpg
1361.33	1.056	1	pointing	Trial2	pointing/STIM_008.jpg
1364.811	0.977	1	pointing	Trial2	pointing/STIM_008.jpg
1367.947	0.854	1	pointing	Trial2	pointing/STIM_008.jpg
1370.904	1.058	1	pointing	Trial2	pointing/STIM_009.jpg
1374.201	0.993	0	pointing	Trial2	pointing/STIM_009.jpg
1379.194	1.014	1	pointing	Trial2	pointing/STIM_009.jpg
1384.318	0.928	1	pointing	Trial2	pointing/STIM_009.jpg
1387.735	1.088	1	pointing	Trial2	pointing/STIM_009.jpg
1392.582	1.198	1	pointing	Trial2	pointing/STIM_009.jpg
1397.348	1.028	1	pointing	Trial2	pointing/STIM_010.jpg
1402.059	0.947	1	pointing	Trial2	pointing/STIM_010.jpg
1406.666	0.612	1	pointing	Trial2	pointing/STIM_010.jpg
1409.736	0.876	1	pointing	Trial2	pointing/STIM_010.jpg
1414.466	1.26	1	pointing	Trial2	pointing/STIM_010.jpg
1417.803	0.826	1	pointing	Trial2	pointing/STIM_010.jpg
1422.061	0.873	1	pointing	Trial2	pointing/STIM_011.jpg
1426.733	1.255	1	pointing	Trial2	pointing/STIM_011.jpg
1431.069	0.977	1	pointing	Trial2	pointing/STIM_011.jpg
1435.818	1.286	1	pointing	Trial2	pointing/STIM_011.jpg
1440.671	1.204	1	pointing	Trial2	pointing/STIM_011.jpg
1444.695	1.301	1	pointing	Trial2	pointing/STIM_011.jpg
1448.285	3.014	1	navigation	Trial3	navigation/STIM_000.jpg
1455.416	3.072	1	navigation	Trial3	navigation/STIM_000.jpg
1461.774	2.669	1	navigation	Trial3	navigation/STIM_000.jpg
1468.098	2.791	1	navigation	Trial3	navigation/STIM_000.jpg
1473.245	2.599	1	navigation	Trial3	navigation/STIM_000.jpg
1478.63	1.781	0	navigation	Trial3	navigation/STIM_000.jpg
1483.628	1.271	1	navigation	Trial3	navigation/STIM_001.jpg
1488.905	2.275	0	navigation	Trial3	navigation/STIM_001.jpg
1493.844	1.681	1	navigation	Trial3	navigation/STIM_001.jpg
1499.536	2.246	1	navigation	Trial3	navigation/STIM_001.jpg
1503.99	2.587	0	navigation	Trial3	navigation/STIM_001.jpg
1509.952	1.8	0	navigation	Trial3	navigation/STIM_001.jpg
1515.305	2.637	1	navigation	Trial3	navigation/STIM_002.jpg
1522.285	2.379	1	navigation	Trial3	navigation/STIM_002.jpg
1527.985	2.102	1	navigation	Trial3	navigation/STIM_002.jpg
1532.94	2.584	1	navigation	Trial3	navigation/STIM_002.jpg
1538.903	1.627	1	navigation	Trial3	navigation/STIM_002.jpg
1542.8	2.34	1	navigation	Trial3	navigation/STIM_002.jpg
1549.546	2.026	1	navigation	Trial3	navigation/STIM_003.jpg
1553.948	3.004	1	navigation	Trial3	navigation/STIM_003.jpg
1560.428	1.564	1	navigation	Trial3	navigation/STIM_003.jpg
1565.74	1.834	1	navigation	Trial3	navigation/STIM_003.jpg
1571.316	2.351	1	navigation	Trial3	navigation/STIM_003.jpg
1576.997	2.374	1	navigation	Trial3	navigation/STIM_003.jpg
1581.835	2.941	1	navigation	Trial3	navigation/STIM_004.jpg
1588.194	1.352	1	navigation	Trial3	navigation/STIM_004.jpg
1593.59	2.568	1	navigation	Trial3	navigation/STIM_004.jpg
1598.781	1.786	1	navigation	Trial3	navigation/STIM_004.jpg
1603.91	2.694	1	navigation	Trial3	navigation/STIM_004.jpg
1610.72	2.332	1	navigation	Trial3	navigation/STIM_004.jpg
1615.716	2.984	1	navigation	Trial3	navigation/STIM_005.jpg
1621.765	1.238	1	navigation	Trial3	navigation/STIM_005.jpg
1625.893	1.257	1	navigation	Trial3	navigation/STIM_005.jpg
1630.658	1.25	1	navigation	Trial3	navigation/STIM_005.jpg
1634.271	2.098	1	navigation	Trial3	navigation/STIM_005.jpg
1639.523	2.333	1	navigation	Trial3	navigation/STIM_005.jpg
1645.999	2.728	1	navigation	Trial3	navigation/STIM_006.jpg
1652.205	2.918	1	navigation	Trial3	navigation/STIM_006.jpg
1658.265	2.923	0	navigation	Trial3	navigation/STIM_006.jpg
1665.559	2.036	1	navigation	Trial3	navigation/STIM_006.jpg
1670.74	2.628	1	navigation	Trial3	navigation/STIM_006.jpg
1676.515	1.826	1	navigation	Trial3	navigation/STIM_006.jpg
1682.105	1.964	1	navigation	Trial3	navigation/STIM_007.jpg
1688.316	2.392	1	navigation	Trial3	navigation/STIM_007.jpg
1693.974	2.908	1	navigation	Trial3	navigation/STIM_007.jpg
1700.51	1.232	1	navigation	Trial3	navigation/STIM_007.jpg
1704.753	2.021	1	navigation	Trial3	navigation/STIM_007.jpg
1709.186	2.693	1	navigation	Trial3	navigation/STIM_007.jpg
1716.212	2.475	1	navigation	Trial3	navigation/STIM_008.jpg
1721.254	1.31	1	navigation	Trial3	navigation/STIM_008.jpg
1724.879	2.843	0	navigation	Trial3	navigation/STIM_008.jpg
1731.612	2.34	1	navigation	Trial3	navigation/STIM_008.jpg
1737.657	2.81	1	navigation	Trial3	navigation/STIM_008.jpg
1744.13	2.018	1	navigation	Trial3	navigation/STIM_008.jpg
1748.445	2.15	1	navigation	Trial3	navigation/STIM_009.jpg
1754.775	2.365	1	navigation	Trial3	navigation/STIM_009.jpg
1760.357	2.586	1	navigation	Trial3	navigation/STIM_009.jpg
1766.555	1.318	1	navigation	Trial3	navigation/STIM_009.jpg
1771.894	1.68	1	navigation	Trial3	navigation/STIM_009.jpg
1777.489	2.142	1	navigation	Trial3	navigation/STIM_009.jpg
1782.72	2.04	1	navigation	Trial3	navigation/STIM_010.jpg
1787.374	2.87	1	navigation	Trial3	navigation/STIM_010.jpg
1793.366	2.218	1	navigation	Trial3	navigation/STIM_010.jpg
1799.548	2.595	1	navigation	Trial3	navigation/STIM_010.jpg
1804.516	2.243	1	navigation	Trial3	navigation/STIM_010.jpg
1810.044	1.514	0	navigation	Trial3	navigation/STIM_010.jpg
1814.021	2.456	1	navigation	Trial3	navigation/STIM_011.jpg
1819.105	2.113	0	navigation	Trial3	navigation/STIM_011.jpg
1824.442	2.202	0	navigation	Trial3	navigation/STIM_011.jpg
1830.0	1.751	1	navigation	Trial3	navigation/STIM_011.jpg
1834.322	1.797	1	navigation	Trial3	navigation/STIM_011.jpg
1839.854	1.621	1	navigation	Trial3	navigation/STIM_011.jpg
1844.792	1.003	1	pointing	Trial3	pointing/STIM_000.jpg
1849.204	1.112	1	pointing	Trial3	pointing/STIM_000.jpg
1852.855	0.754	1	pointing	Trial3	pointing/STIM_000.jpg
1857.587	0.848	1	pointing	Trial3	pointing/STIM_000.jpg
1862.131	1.108	1	pointing	Trial3	pointing/STIM_000.jpg
1867.29	0.888	1	pointing	Trial3	pointing/STIM_000.jpg
1871.011	0.916	1	pointing	Trial3	pointing/STIM_001.jpg
1874.391	0.764	1	pointing	Trial3	pointing/STIM_001.jpg
1878.745	1.176	1	pointing	Trial3	pointing/STIM_001.jpg
1883.602	1.214	1	pointing	Trial3	pointing/STIM_001.jpg
1887.483	0.884	1	pointing	Trial3	pointing/STIM_001.jpg
1891.156	0.746	1	pointing	Trial3	pointing/STIM_001.jpg
1895.099	0.765	1	pointing	Trial3	pointing/STIM_002.jpg
1899.739	1.134	1	pointing	Trial3	pointing/STIM_002.jpg
1903.968	0.891	1	pointing	Trial3	pointing/STIM_002.jpg
1908.011	1.394	1	pointing	Trial3	pointing/STIM_002.jpg
1912.409	1.031	1	pointing	Trial3	pointing/STIM_002.jpg
1915.772	1.281	1	pointing	Trial3	pointing/STIM_002.jpg
1919.447	1.328	1	pointing	Trial3	pointing/STIM_003.jpg
1924.391	0.938	1	pointing	Trial3	pointing/STIM_003.jpg
1927.963	0.788	1	pointing	Trial3	pointing/STIM_003.jpg
1931.701	0.991	0	pointing	Trial3	pointing/STIM_003.jpg
1935.925	0.866	1	pointing	Trial3	pointing/STIM_003.jpg
1940.781	1.044	1	pointing	Trial3	pointing/STIM_003.jpg
1945.252	0.852	1	pointing	Trial3	pointing/STIM_004.jpg
1950.174	1.093	1	pointing	Trial3	pointing/STIM_004.jpg
1954.091	1.215	1	pointing	Trial3	pointing/STIM_004.jpg
1957.489	1.361	1	pointing	Trial3	pointing/STIM_004.jpg
1962.131	1.0	1	pointing	Trial3	pointing/STIM_004.jpg
1965.909	1.029	1	pointing	Trial3	pointing/STIM_004.jpg
1971.061	1.165	1	pointing	Trial3	pointing/STIM_005.jpg
1976.189	0.928	1	pointing	Trial3	pointing/STIM_005.jpg
1979.766	1.034	1	pointing	Trial3	pointing/STIM_005.jpg
1984.365	0.716	1	pointing	Trial3	pointing/STIM_005.jpg
1987.932	1.222	1	pointing	Trial3	pointing/STIM_005.jpg
1992.815	0.99	1	pointing	Trial3	pointing/STIM_005.jpg
1997.495	0.886	1	pointing	Trial3	pointing/STIM_006.jpg
2000.851	1.357	0	pointing	Trial3	pointing/STIM_006.jpg
2005.3	1.128	1	pointing	Trial3	pointing/STIM_006.jpg
2010.154	1.195	1	pointing	Trial3	pointing/STIM_006.jpg
2014.457	1.055	1	pointing	Trial3	pointing/STIM_006.jpg
2019.586	0.816	1	pointing	Trial3	pointing/STIM_006.jpg
2024.53	1.275	1	pointing	Trial3	pointing/STIM_007.jpg
2028.058	0.834	1	pointing	Trial3	pointing/STIM_007.jpg
2031.043	0.778	1	pointing	Trial3	pointing/STIM_007.jpg
2034.28	1.311	1	pointing	Trial3	pointing/STIM_007.jpg
2038.977	1.289	1	pointing	Trial3	pointing/STIM_007.jpg
2044.223	1.069	0	pointing	Trial3	pointing/STIM_007.jpg
2049.043	0.728	1	pointing	Trial3	pointing/STIM_008.jpg
2051.98	1.156	1	pointing	Trial3	pointing/STIM_008.jpg
2056.611	1.006	1	pointing	Trial3	pointing/STIM_008.jpg
2061.225	0.826	1	pointing	Trial3	pointing/STIM_008.jpg
2066.2	0.872	1	pointing	Trial3	pointing/STIM_008.jpg
2069.825	0.892	1	pointing	Trial3	pointing/STIM_008.jpg
2074.387	1.138	1	pointing	Trial3	pointing/STIM_009.jpg
2079.017	1.09	1	pointing	Trial3	pointing/STIM_009.jpg
2082.806	0.799	1	pointing	Trial3	pointing/STIM_009.jpg
2087.068	1.094	1	pointing	Trial3	pointing/STIM_009.jpg
2091.503	0.98	1	pointing	Trial3	pointing/STIM_009.jpg
2096.503	0.846	1	pointing	Trial3	pointing/STIM_009.jpg
2100.325	0.994	0	pointing	Trial3	pointing/STIM_010.jpg
2105.333	0.935	1	pointing	Trial3	pointing/STIM_010.jpg
2109.485	0.725	1	pointing	Trial3	pointing/STIM_010.jpg
2113.338	0.724	1	pointing	Trial3	pointing/STIM_010.jpg
2117.244	1.038	1	pointing	Trial3	pointing/STIM_010.jpg
2122.167	1.195	1	pointing	Trial3	pointing/STIM_010.jpg
2126.465	0.672	1	pointing	Trial3	pointing/STIM_011.jpg
2129.987	1.143	1	pointing	Trial3	pointing/STIM_011.jpg
2133.851	0.87	0	pointing	Trial3	pointing/STIM_011.jpg
2137.126	1.34	1	pointing	Trial3	pointing/STIM_011.jpg
2140.855	0.939	1	pointing	Trial3	pointing/STIM_011.jpg
2145.562	1.05	1	pointing	Trial3	pointing/STIM_011.jpg
