onset	duration	accuracy	trial_type	learning_stage	stimulus
0.0	3.282	incorrect	navigation	Trial1	navigation/STIM_000.jpg
6.62	2.5	correct	navigation	Trial1	navigation/STIM_000.jpg
12.922	3.696	correct	navigation	Trial1	navigation/STIM_000.jpg
20.393	2.329	correct	navigation	Trial1	navigation/STIM_000.jpg
26.611	1.688	correct	navigation	Trial1	navigation/STIM_000.jpg
30.481	2.217	correct	navigation	Trial1	navigation/STIM_000.jpg
35.076	2.358	correct	navigation	Trial1	navigation/STIM_001.jpg
40.536	3.324	incorrect	navigation	Trial1	navigation/STIM_001.jpg
47.124	4.072	correct	navigation	Trial1	navigation/STIM_001.jpg
55.012	2.207	correct	navigation	Trial1	navigation/STIM_001.jpg
59.427	3.323	correct	navigation	Trial1	navigation/STIM_001.jpg
65.944	3.031	correct	navigation	Trial1	navigation/STIM_001.jpg
71.466	2.051	correct	navigation	Trial1	navigation/STIM_002.jpg
77.186	2.465	correct	navigation	Trial1	navigation/STIM_002.jpg
82.418	2.514	incorrect	navigation	Trial1	navigation/STIM_002.jpg
88.428	2.71	correct	navigation	Trial1	navigation/STIM_002.jpg
94.475	2.794	correct	navigation	Trial1	navigation/STIM_002.jpg
100.836	3.399	correct	navigation	Trial1	navigation/STIM_002.jpg
107.521	2.71	incorrect	navigation	Trial1	navigation/STIM_003.jpg
112.803	2.284	incorrect	navigation	Trial1	navigation/STIM_003.jpg
118.805	3.151	correct	navigation	Trial1	navigation/STIM_003.jpg
124.004	1.792	correct	navigation	Trial1	navigation/STIM_003.jpg
129.014	2.137	correct	navigation	Trial1	navigation/STIM_003.jpg
134.53	3.0	correct	navigation	Trial1	navigation/STIM_003.jpg
141.267	2.106	correct	navigation	Trial1	navigation/STIM_004.jpg
146.407	2.89	correct	navigation	Trial1	navigation/STIM_004.jpg
153.074	2.85	incorrect	navigation	Trial1	navigation/STIM_004.jpg
158.089	3.912	correct	navigation	Trial1	navigation/STIM_004.jpg
165.51	3.847	incorrect	navigation	Trial1	navigation/STIM_004.jpg
172.471	1.677	correct	navigation	Trial1	navigation/STIM_004.jpg
177.766	4.07	incorrect	navigation	Trial1	navigation/STIM_005.jpg
185.614	3.257	incorrect	navigation	Trial1	navigation/STIM_005.jpg
192.315	1.829	correct	navigation	Trial1	navigation/STIM_005.jpg
197.477	3.37	correct	navigation	Trial1	navigation/STIM_005.jpg
204.178	3.601	correct	navigation	Trial1	navigation/STIM_005.jpg
210.773	3.266	correct	navigation	Trial1	navigation/STIM_005.jpg
216.273	2.718	correct	navigation	Trial1	navigation/STIM_006.jpg
222.957	2.481	correct	navigation	Trial1	navigation/STIM_006.jpg
229.175	2.856	correct	navigation	Trial1	navigation/STIM_006.jpg
234.217	2.575	correct	navigation	Trial1	navigation/STIM_006.jpg
239.005	3.012	incorrect	navigation	Trial1	navigation/STIM_006.jpg
245.383	2.061	correct	navigation	Trial1	navigation/STIM_006.jpg
250.245	2.371	correct	navigation	Trial1	navigation/STIM_007.jpg
254.821	2.146	correct	navigation	Trial1	navigation/STIM_007.jpg
259.655	3.302	correct	navigation	Trial1	navigation/STIM_007.jpg
265.472	2.974	correct	navigation	Trial1	navigation/STIM_007.jpg
270.51	2.955	correct	navigation	Trial1	navigation/STIM_007.jpg
276.516	2.554	correct	navigation	Trial1	navigation/STIM_007.jpg
281.743	2.118	correct	navigation	Trial1	navigation/STIM_008.jpg
287.118	3.223	correct	navigation	Trial1	navigation/STIM_008.jpg
293.191	3.193	correct	navigation	Trial1	navigation/STIM_008.jpg
299.627	2.178	correct	navigation	Trial1	navigation/STIM_008.jpg
304.894	3.796	correct	navigation	Trial1	navigation/STIM_008.jpg
312.17	2.715	correct	navigation	Trial1	navigation/STIM_008.jpg
317.365	3.138	correct	navigation	Trial1	navigation/STIM_009.jpg
323.462	3.691	correct	navigation	Trial1	navigation/STIM_009.jpg
330.324	2.131	correct	navigation	Trial1	navigation/STIM_009.jpg
336.206	2.371	correct	navigation	Trial1	navigation/STIM_009.jpg
341.181	3.008	correct	navigation	Trial1	navigation/STIM_009.jpg
347.556	3.033	correct	navigation	Trial1	navigation/STIM_009.jpg
354.387	2.687	correct	navigation	Trial1	navigation/STIM_010.jpg
359.267	3.713	correct	navigation	Trial1	navigation/STIM_010.jpg
365.63	2.179	incorrect	navigation	Trial1	navigation/STIM_010.jpg
371.205	2.558	incorrect	navigation	Trial1	navigation/STIM_010.jpg
375.958	3.453	correct	navigation	Trial1	navigation/STIM_010.jpg
382.809	3.569	correct	navigation	Trial1	navigation/STIM_010.jpg
388.503	3.202	correct	navigation	Trial1	navigation/STIM_011.jpg
395.469	2.552	incorrect	navigation	Trial1	navigation/STIM_011.jpg
400.555	1.98	correct	navigation	Trial1	navigation/STIM_011.jpg
405.073	3.789	incorrect	navigation	Trial1	navigation/STIM_011.jpg
411.64	3.357	correct	navigation	Trial1	navigation/STIM_011.jpg
417.998	3.034	correct	navigation	Trial1	navigation/STIM_011.jpg
423.914	1.296	correct	pointing	Trial1	pointing/STIM_000.jpg
427.297	1.08	correct	pointing	Trial1	pointing/STIM_000.jpg
431.602	1.345	correct	pointing	Trial1	pointing/STIM_000.jpg
436.328	0.938	correct	pointing	Trial1	pointing/STIM_000.jpg
440.087	1.029	correct	pointing	Trial1	pointing/STIM_000.jpg
444.468	1.027	correct	pointing	Trial1	pointing/STIM_000.jpg
449.339	0.79	correct	pointing	Trial1	pointing/STIM_001.jpg
453.54	1.299	correct	pointing	Trial1	pointing/STIM_001.jpg
457.643	1.241	correct	pointing	Trial1	pointing/STIM_001.jpg
462.123	0.946	correct	pointing	Trial1	pointing/STIM_001.jpg
466.568	1.265	correct	pointing	Trial1	pointing/STIM_001.jpg
470.968	1.353	correct	pointing	Trial1	pointing/STIM_001.jpg
475.365	0.813	correct	pointing	Trial1	pointing/STIM_002.jpg
479.002	1.369	correct	pointing	Trial1	pointing/STIM_002.jpg
483.326	1.41	correct	pointing	Trial1	pointing/STIM_002.jpg
487.966	1.051	correct	pointing	Trial1	pointing/STIM_002.jpg
492.932	1.327	correct	pointing	Trial1	pointing/STIM_002.jpg
497.216	0.917	correct	pointing	Trial1	pointing/STIM_002.jpg
500.363	1.026	correct	pointing	Trial1	pointing/STIM_003.jpg
504.488	1.044	correct	pointing	Trial1	pointing/STIM_003.jpg
507.565	1.323	correct	pointing	Trial1	pointing/STIM_003.jpg
512.506	1.232	correct	pointing	Trial1	pointing/STIM_003.jpg
516.942	0.978	correct	pointing	Trial1	pointing/STIM_003.jpg
521.676	1.164	correct	pointing	Trial1	pointing/STIM_003.jpg
526.207	0.93	correct	pointing	Trial1	pointing/STIM_004.jpg
529.909	1.087	correct	pointing	Trial1	pointing/STIM_004.jpg
534.651	0.838	correct	pointing	Trial1	pointing/STIM_004.jpg
539.136	1.429	correct	pointing	Trial1	pointing/STIM_004.jpg
543.122	1.041	correct	pointing	Trial1	pointing/STIM_004.jpg
546.358	1.44	correct	pointing	Trial1	pointing/STIM_004.jpg
550.178	0.938	correct	pointing	Trial1	pointing/STIM_005.jpg
553.834	1.018	correct	pointing	Trial1	pointing/STIM_005.jpg
558.759	1.173	correct	pointing	Trial1	pointing/STIM_005.jpg
562.972	0.803	correct	pointing	Trial1	pointing/STIM_005.jpg
566.158	0.935	correct	pointing	Trial1	pointing/STIM_005.jpg
570.567	1.098	correct	pointing	Trial1	pointing/STIM_005.jpg
573.984	1.051	correct	pointing	Trial1	pointing/STIM_006.jpg
577.236	0.865	correct	pointing	Trial1	pointing/STIM_006.jpg
581.159	1.16	correct	pointing	Trial1	pointing/STIM_006.jpg
584.744	1.049	correct	pointing	Trial1	pointing/STIM_006.jpg
588.776	1.291	correct	pointing	Trial1	pointing/STIM_006.jpg
592.833	1.448	correct	pointing	Trial1	pointing/STIM_006.jpg
596.702	0.916	correct	pointing	Trial1	pointing/STIM_007.jpg
600.545	0.836	correct	pointing	Trial1	pointing/STIM_007.jpg
604.406	1.113	correct	pointing	Trial1	pointing/STIM_007.jpg
609.38	1.308	correct	pointing	Trial1	pointing/STIM_007.jpg
614.2	0.985	correct	pointing	Trial1	pointing/STIM_007.jpg
618.918	0.999	correct	pointing	Trial1	pointing/STIM_007.jpg
623.162	1.43	correct	pointing	Trial1	pointing/STIM_008.jpg
627.471	1.076	correct	pointing	Trial1	pointing/STIM_008.jpg
632.001	1.023	correct	pointing	Trial1	pointing/STIM_008.jpg
635.545	1.448	correct	pointing	Trial1	pointing/STIM_008.jpg
640.763	0.86	correct	pointing	Trial1	pointing/STIM_008.jpg
643.862	0.863	correct	pointing	Trial1	pointing/STIM_008.jpg
647.328	0.913	correct	pointing	Trial1	pointing/STIM_009.jpg
651.198	1.371	correct	pointing	Trial1	pointing/STIM_009.jpg
655.359	1.267	correct	pointing	Trial1	pointing/STIM_009.jpg
660.115	0.803	correct	pointing	Trial1	pointing/STIM_009.jpg
663.4	1.314	correct	pointing	Trial1	pointing/STIM_009.jpg
667.675	1.283	correct	pointing	Trial1	pointing/STIM_009.jpg
671.59	1.13	correct	pointing	Trial1	pointing/STIM_010.jpg
675.156	1.246	correct	pointing	Trial1	pointing/STIM_010.jpg
679.686	1.346	correct	pointing	Trial1	pointing/STIM_010.jpg
683.607	1.321	correct	pointing	Trial1	pointing/STIM_010.jpg
688.266	1.14	correct	pointing	Trial1	pointing/STIM_010.jpg
692.319	1.188	correct	pointing	Trial1	pointing/STIM_010.jpg
696.411	0.899	correct	pointing	Trial1	pointing/STIM_011.jpg
699.664	1.306	correct	pointing	Trial1	pointing/STIM_011.jpg
704.091	1.066	correct	pointing	Trial1	pointing/STIM_011.jpg
707.373	1.431	correct	pointing	Trial1	pointing/STIM_011.jpg
712.584	1.151	correct	pointing	Trial1	pointing/STIM_011.jpg
717.119	0.798	correct	pointing	Trial1	pointing/STIM_011.jpg
721.843	2.917	correct	navigation	Trial2	navigation/STIM_000.jpg
728.13	2.114	incorrect	navigation	Trial2	navigation/STIM_000.jpg
733.465	3.04	correct	navigation	Trial2	navigation/STIM_000.jpg
740.046	3.218	correct	navigation	Trial2	navigation/STIM_000.jpg
746.933	2.483	correct	navigation	Trial2	navigation/STIM_000.jpg
752.475	2.718	incorrect	navigation	Trial2	navigation/STIM_000.jpg
759.052	1.702	incorrect	navigation	Trial2	navigation/STIM_001.jpg
763.522	2.982	correct	navigation	Trial2	navigation/STIM_001.jpg
769.497	3.454	incorrect	navigation	Trial2	navigation/STIM_001.jpg
775.243	1.447	correct	navigation	Trial2	navigation/STIM_001.jpg
780.395	1.748	correct	navigation	Trial2	navigation/STIM_001.jpg
785.109	1.933	correct	navigation	Trial2	navigation/STIM_001.jpg
790.014	3.678	correct	navigation	Trial2	navigation/STIM_002.jpg
796.428	2.551	incorrect	navigation	Trial2	navigation/STIM_002.jpg
802.021	2.803	correct	navigation	Trial2	navigation/STIM_002.jpg
808.285	1.992	correct	navigation	Trial2	navigation/STIM_002.jpg
814.036	2.616	correct	navigation	Trial2	navigation/STIM_002.jpg
819.722	1.811	correct	navigation	Trial2	navigation/STIM_002.jpg
823.737	3.418	correct	navigation	Trial2	navigation/STIM_003.jpg
829.246	3.697	correct	navigation	Trial2	navigation/STIM_003.jpg
835.076	3.41	incorrect	navigation	Trial2	navigation/STIM_003.jpg
840.932	2.328	correct	navigation	Trial2	navigation/STIM_003.jpg
846.695	2.325	correct	navigation	Trial2	navigation/STIM_003.jpg
851.027	3.166	correct	navigation	Trial2	navigation/STIM_003.jpg
857.254	2.491	correct	navigation	Trial2	navigation/STIM_004.jpg
862.231	2.087	correct	navigation	Trial2	navigation/STIM_004.jpg
867.343	2.406	correct	navigation	Trial2	navigation/STIM_004.jpg
873.284	1.855	correct	navigation	Trial2	navigation/STIM_004.jpg
878.451	2.955	correct	navigation	Trial2	navigation/STIM_004.jpg
883.683	1.476	correct	navigation	Trial2	navigation/STIM_004.jpg
887.497	3.315	correct	navigation	Trial2	navigation/STIM_005.jpg
894.446	3.138	correct	navigation	Trial2	navigation/STIM_005.jpg
901.023	3.644	correct	navigation	Trial2	navigation/STIM_005.jpg
908.312	1.396	correct	navigation	Trial2	navigation/STIM_005.jpg
913.523	3.128	incorrect	navigation	Trial2	navigation/STIM_005.jpg
919.54	2.48	correct	navigation	Trial2	navigation/STIM_005.jpg
925.527	2.897	correct	navigation	Trial2	navigation/STIM_006.jpg
930.657	2.374	correct	navigation	Trial2	navigation/STIM_006.jpg
936.56	2.019	correct	navigation	Trial2	navigation/STIM_006.jpg
940.646	1.889	incorrect	navigation	Trial2	navigation/STIM_006.jpg
944.773	1.77	correct	navigation	Trial2	navigation/STIM_006.jpg
949.258	1.629	correct	navigation	Trial2	navigation/STIM_006.jpg
954.623	3.731	correct	navigation	Trial2	navigation/STIM_007.jpg
960.554	2.453	incorrect	navigation	Trial2	navigation/STIM_007.jpg
966.129	3.578	correct	navigation	Trial2	navigation/STIM_007.jpg
972.388	2.467	correct	navigation	Trial2	navigation/STIM_007.jpg
977.335	2.13	correct	navigation	Trial2	navigation/STIM_007.jpg
982.273	1.433	incorrect	navigation	Trial2	navigation/STIM_007.jpg
987.316	2.621	correct	navigation	Trial2	navigation/STIM_008.jpg
992.698	3.571	incorrect	navigation	Trial2	navigation/STIM_008.jpg
999.534	3.076	correct	navigation	Trial2	navigation/STIM_008.jpg
1004.755	3.156	correct	navigation	Trial2	navigation/STIM_008.jpg
1011.845	1.824	incorrect	navigation	Trial2	navigation/STIM_008.jpg
1016.893	2.944	incorrect	navigation	Trial2	navigation/STIM_008.jpg
1022.631	3.855	correct	navigation	Trial2	navigation/STIM_009.jpg
1029.99	3.204	correct	navigation	Trial2	navigation/STIM_009.jpg
1036.907	2.329	correct	navigation	Trial2	navigation/STIM_009.jpg
1042.752	3.037	correct	navigation	Trial2	navigation/STIM_009.jpg
1048.913	2.571	incorrect	navigation	Trial2	navigation/STIM_009.jpg
1055.365	1.773	correct	navigation	Trial2	navigation/STIM_009.jpg
1060.46	3.654	correct	navigation	Trial2	navigation/STIM_010.jpg
1067.906	3.548	correct	navigation	Trial2	navigation/STIM_010.jpg
1073.955	3.434	correct	navigation	Trial2	navigation/STIM_010.jpg
1080.391	2.031	correct	navigation	Trial2	navigation/STIM_010.jpg
1085.514	3.039	correct	navigation	Trial2	navigation/STIM_010.jpg
1091.924	3.299	correct	navigation	Trial2	navigation/STIM_010.jpg
1099.132	2.824	correct	navigation	Trial2	navigation/STIM_011.jpg
1104.019	1.672	correct	navigation	Trial2	navigation/STIM_011.jpg
1108.568	3.082	correct	navigation	Trial2	navigation/STIM_011.jpg
1114.805	2.95	correct	navigation	Trial2	navigation/STIM_011.jpg
1121.153	2.932	correct	navigation	Trial2	navigation/STIM_011.jpg
1127.512	1.64	correct	navigation	Trial2	navigation/STIM_011.jpg
1133.106	1.103	correct	pointing	Trial2	pointing/STIM_000.jpg
1136.829	0.966	correct	pointing	Trial2	pointing/STIM_000.jpg
1140.787	1.421	correct	pointing	Trial2	pointing/STIM_000.jpg
1145.003	1.158	correct	pointing	Trial2	pointing/STIM_000.jpg
1150.005	0.981	correct	pointing	Trial2	pointing/STIM_000.jpg
1154.516	1.182	correct	pointing	Trial2	pointing/STIM_000.jpg
1159.55	0.85	correct	pointing	Trial2	pointing/STIM_001.jpg
1163.828	0.969	correct	pointing	Trial2	pointing/STIM_001.jpg
1167.104	0.911	correct	pointing	Trial2	pointing/STIM_001.jpg
1171.892	1.077	correct	pointing	Trial2	pointing/STIM_001.jpg
1175.349	1.115	correct	pointing	Trial2	pointing/STIM_001.jpg
1179.491	1.302	correct	pointing	Trial2	pointing/STIM_001.jpg
1183.863	0.892	correct	pointing	Trial2	pointing/STIM_002.jpg
1187.078	1.292	correct	pointing	Trial2	pointing/STIM_002.jpg
1191.783	0.997	correct	pointing	Trial2	pointing/STIM_002.jpg
1196.132	0.881	correct	pointing	Trial2	pointing/STIM_002.jpg
1200.464	1.458	correct	pointing	Trial2	pointing/STIM_002.jpg
1204.17	0.938	correct	pointing	Trial2	pointing/STIM_002.jpg
1208.528	1.29	correct	pointing	Trial2	pointing/STIM_003.jpg
1212.322	1.052	correct	pointing	Trial2	pointing/STIM_003.jpg
1217.238	1.184	correct	pointing	Trial2	pointing/STIM_003.jpg
1222.286	0.952	correct	pointing	Trial2	pointing/STIM_003.jpg
1226.232	1.17	correct	pointing	Trial2	pointing/STIM_003.jpg
1229.531	1.108	correct	pointing	Trial2	pointing/STIM_003.jpg
1232.884	1.112	correct	pointing	Trial2	pointing/STIM_004.jpg
1237.981	0.937	correct	pointing	Trial2	pointing/STIM_004.jpg
1242.656	1.232	correct	pointing	Trial2	pointing/STIM_004.jpg
1247.734	1.231	correct	pointing	Trial2	pointing/STIM_004.jpg
1252.216	1.241	correct	pointing	Trial2	pointing/STIM_004.jpg
1256.511	1.342	correct	pointing	Trial2	pointing/STIM_004.jpg
1261.775	1.235	correct	pointing	Trial2	pointing/STIM_005.jpg
1265.714	1.07	correct	pointing	Trial2	pointing/STIM_005.jpg
1270.344	0.95	correct	pointing	Trial2	pointing/STIM_005.jpg
1274.494	1.457	correct	pointing	Trial2	pointing/STIM_005.jpg
1278.586	0.964	correct	pointing	Trial2	pointing/STIM_005.jpg
1282.126	1.36	correct	pointing	Trial2	pointing/STIM_005.jpg
1286.042	1.169	correct	pointing	Trial2	pointing/STIM_006.jpg
1289.446	1.244	correct	pointing	Trial2	pointing/STIM_006.jpg
1293.489	1.264	correct	pointing	Trial2	pointing/STIM_006.jpg
1296.863	1.207	correct	pointing	Trial2	pointing/STIM_006.jpg
1301.167	1.282	correct	pointing	Trial2	pointing/STIM_006.jpg
1305.733	0.987	correct	pointing	Trial2	pointing/STIM_006.jpg
1309.362	1.324	correct	pointing	Trial2	pointing/STIM_007.jpg
1313.849	1.431	correct	pointing	Trial2	pointing/STIM_007.jpg
1318.712	1.288	correct	pointing	Trial2	pointing/STIM_007.jpg
1323.384	1.353	correct	pointing	Trial2	pointing/STIM_007.jpg
1327.446	1.006	correct	pointing	Trial2	pointing/STIM_007.jpg
1330.974	1.127	correct	pointing	Trial2	pointing/STIM_007.jpg
1334.787	1.122	correct	pointing	Trial2	pointing/STIM_008.jpg
1338.061	1.31	correct	pointing	Trial2	pointing/STIM_008.jpg
1341.449	1.369	correct	pointing	Trial2	pointing/STIM_008.jpg
1345.378	1.085	correct	pointing	Trial2	pointing/STIM_008.jpg
1349.38	0.887	correct	pointing	Trial2	pointing/STIM_008.jpg
1353.593	1.252	correct	pointing	Trial2	pointing/STIM_008.jpg
1358.543	0.979	correct	pointing	Trial2	pointing/STIM_009.jpg
1362.792	1.359	incorrect	pointing	Trial2	pointing/STIM_009.jpg
1367.387	1.432	correct	pointing	Trial2	pointing/STIM_009.jpg
1371.663	1.405	correct	pointing	Trial2	pointing/STIM_009.jpg
1376.555	1.239	correct	pointing	Trial2	pointing/STIM_009.jpg
1380.988	1.081	correct	pointing	Trial2	pointing/STIM_009.jpg
1385.101	1.131	correct	pointing	Trial2	pointing/STIM_010.jpg
1390.146	1.201	correct	pointing	Trial2	pointing/STIM_010.jpg
1394.485	1.106	correct	pointing	Trial2	pointing/STIM_010.jpg
1399.487	0.911	correct	pointing	Trial2	pointing/STIM_010.jpg
1404.0	0.9	correct	pointing	Trial2	pointing/STIM_010.jpg
1407.893	0.782	correct	pointing	Trial2	pointing/STIM_010.jpg
1411.172	1.356	correct	pointing	Trial2	pointing/STIM_011.jpg
1416.288	1.103	correct	pointing	Trial2	pointing/STIM_011.jpg
1420.296	0.808	correct	pointing	Trial2	pointing/STIM_011.jpg
1423.38	1.343	correct	pointing	Trial2	pointing/STIM_011.jpg
1427.029	1.326	correct	pointing	Trial2	pointing/STIM_011.jpg
1430.812	1.246	correct	pointing	Trial2	pointing/STIM_011.jpg
1435.146	2.299	correct	navigation	Trial3	navigation/STIM_000.jpg
1441.309	2.707	correct	navigation	Trial3	navigation/STIM_000.jpg
1447.074	2.096	correct	navigation	Trial3	navigation/STIM_000.jpg
1452.947	2.731	correct	navigation	Trial3	navigation/STIM_000.jpg
1459.346	1.981	correct	navigation	Trial3	navigation/STIM_000.jpg
1464.361	3.059	correct	navigation	Trial3	navigation/STIM_000.jpg
1469.649	3.108	correct	navigation	Trial3	navigation/STIM_001.jpg
1476.657	3.342	correct	navigation	Trial3	navigation/STIM_001.jpg
1482.059	1.676	correct	navigation	Trial3	navigation/STIM_001.jpg
1485.839	2.372	correct	navigation	Trial3	navigation/STIM_001.jpg
1491.897	1.387	correct	navigation	Trial3	navigation/STIM_001.jpg
1496.789	2.873	incorrect	navigation	Trial3	navigation/STIM_001.jpg
1503.019	3.154	correct	navigation	Trial3	navigation/STIM_002.jpg
1510.13	1.553	correct	navigation	Trial3	navigation/STIM_002.jpg
1515.518	2.024	correct	navigation	Trial3	navigation/STIM_002.jpg
1521.256	3.187	correct	navigation	Trial3	navigation/STIM_002.jpg
1527.897	2.24	correct	navigation	Trial3	navigation/STIM_002.jpg
1532.882	3.202	correct	navigation	Trial3	navigation/STIM_002.jpg
1538.18	2.089	correct	navigation	Trial3	navigation/STIM_003.jpg
1544.164	1.643	correct	navigation	Trial3	navigation/STIM_003.jpg
1549.66	1.698	correct	navigation	Trial3	navigation/STIM_003.jpg
1553.941	2.841	correct	navigation	Trial3	navigation/STIM_003.jpg
1559.83	1.676	correct	navigation	Trial3	navigation/STIM_003.jpg
1564.482	2.398	correct	navigation	Trial3	navigation/STIM_003.jpg
1569.604	2.817	correct	navigation	Trial3	navigation/STIM_004.jpg
1575.917	2.126	correct	navigation	Trial3	navigation/STIM_004.jpg
1580.398	2.382	correct	navigation	Trial3	navigation/STIM_004.jpg
1585.966	2.369	correct	navigation	Trial3	navigation/STIM_004.jpg
1591.608	3.053	correct	navigation	Trial3	navigation/STIM_004.jpg
1598.115	2.864	correct	navigation	Trial3	navigation/STIM_004.jpg
1603.926	1.826	correct	navigation	Trial3	navigation/STIM_005.jpg
1608.49	2.577	correct	navigation	Trial3	navigation/STIM_005.jpg
1614.257	1.586	correct	navigation	Trial3	navigation/STIM_005.jpg
1618.836	3.16	correct	navigation	Trial3	navigation/STIM_005.jpg
1625.477	3.33	correct	navigation	Trial3	navigation/STIM_005.jpg
1631.576	3.353	correct	navigation	Trial3	navigation/STIM_005.jpg
1637.706	2.81	correct	navigation	Trial3	navigation/STIM_006.jpg
1644.441	2.161	correct	navigation	Trial3	navigation/STIM_006.jpg
1649.768	1.429	incorrect	navigation	Trial3	navigation/STIM_006.jpg
1653.668	2.266	correct	navigation	Trial3	navigation/STIM_006.jpg
1658.897	2.378	correct	navigation	Trial3	navigation/STIM_006.jpg
1664.202	2.111	correct	navigation	Trial3	navigation/STIM_006.jpg
1670.22	3.37	correct	navigation	Trial3	navigation/STIM_007.jpg
1676.587	2.046	correct	navigation	Trial3	navigation/STIM_007.jpg
1682.214	3.148	correct	navigation	Trial3	navigation/STIM_007.jpg
1687.545	1.658	correct	navigation	Trial3	navigation/STIM_007.jpg
1691.414	3.271	correct	navigation	Trial3	navigation/STIM_007.jpg
1697.509	3.408	correct	navigation	Trial3	navigation/STIM_007.jpg
1702.944	3.016	correct	navigation	Trial3	navigation/STIM_008.jpg
1709.372	3.042	correct	navigation	Trial3	navigation/STIM_008.jpg
1715.661	3.226	correct	navigation	Trial3	navigation/STIM_008.jpg
1722.197	2.636	correct	navigation	Trial3	navigation/STIM_008.jpg
1728.298	2.052	correct	navigation	Trial3	navigation/STIM_008.jpg
1732.571	1.584	correct	navigation	Trial3	navigation/STIM_008.jpg
1736.73	3.005	correct	navigation	Trial3	navigation/STIM_009.jpg
1743.282	2.053	correct	navigation	Trial3	navigation/STIM_009.jpg
1748.308	2.889	correct	navigation	Trial3	navigation/STIM_009.jpg
1754.612	1.526	correct	navigation	Trial3	navigation/STIM_009.jpg
1759.237	2.145	correct	navigation	Trial3	navigation/STIM_009.jpg
1765.287	1.914	correct	navigation	Trial3	navigation/STIM_009.jpg
1770.552	1.514	correct	navigation	Trial3	navigation/STIM_010.jpg
1774.551	1.663	correct	navigation	Trial3	navigation/STIM_010.jpg
1779.229	1.824	correct	navigation	Trial3	navigation/STIM_010.jpg
1783.836	2.167	correct	navigation	Trial3	navigation/STIM_010.jpg
1789.608	3.393	correct	navigation	Trial3	navigation/STIM_010.jpg
1796.009	1.99	correct	navigation	Trial3	navigation/STIM_010.jpg
1801.483	2.35	correct	navigation	Trial3	navigation/STIM_011.jpg
1807.486	1.651	incorrect	navigation	Trial3	navigation/STIM_011.jpg
1812.511	2.641	correct	navigation	Trial3	navigation/STIM_011.jpg
1817.434	2.364	correct	navigation	Trial3	navigation/STIM_011.jpg
1822.688	2.961	correct	navigation	Trial3	navigation/STIM_011.jpg
1829.372	1.793	correct	navigation	Trial3	navigation/STIM_011.jpg
1833.979	1.004	correct	pointing	Trial3	pointing/STIM_000.jpg
1838.103	1.454	correct	pointing	Trial3	pointing/STIM_000.jpg
1842.986	0.8	correct	pointing	Trial3	pointing/STIM_000.jpg
1846.241	1.065	correct	pointing	Trial3	pointing/STIM_000.jpg
1849.896	0.955	correct	pointing	Trial3	pointing/STIM_000.jpg
1853.781	0.974	correct	pointing	Trial3	pointing/STIM_000.jpg
1857.881	1.219	correct	pointing	Trial3	pointing/STIM_001.jpg
1862.009	1.42	correct	pointing	Trial3	pointing/STIM_001.jpg
1866.358	1.257	correct	pointing	Trial3	pointing/STIM_001.jpg
1871.105	0.87	correct	pointing	Trial3	pointing/STIM_001.jpg
1874.672	1.194	correct	pointing	Trial3	pointing/STIM_001.jpg
1879.555	1.165	correct	pointing	Trial3	pointing/STIM_001.jpg
1882.819	1.138	correct	pointing	Trial3	pointing/STIM_002.jpg
1886.448	1.28	correct	pointing	Trial3	pointing/STIM_002.jpg
1889.862	1.2	correct	pointing	Trial3	pointing/STIM_002.jpg
1894.48	1.458	correct	pointing	Trial3	pointing/STIM_002.jpg
1899.503	1.203	correct	pointing	Trial3	pointing/STIM_002.jpg
1903.062	1.409	correct	pointing	Trial3	pointing/STIM_002.jpg
1907.305	0.923	correct	pointing	Trial3	pointing/STIM_003.jpg
1911.462	1.448	correct	pointing	Trial3	pointing/STIM_003.jpg
1915.649	0.866	correct	pointing	Trial3	pointing/STIM_003.jpg
1919.464	0.84	correct	pointing	Trial3	pointing/STIM_003.jpg
1923.991	1.336	correct	pointing	Trial3	pointing/STIM_003.jpg
1928.627	1.176	correct	pointing	Trial3	pointing/STIM_003.jpg
1931.964	0.811	correct	pointing	Trial3	pointing/STIM_004.jpg
1935.97	1.326	correct	pointing	Trial3	pointing/STIM_004.jpg
1940.546	0.903	correct	pointing	Trial3	pointing/STIM_004.jpg
1944.078	0.794	correct	pointing	Trial3	pointing/STIM_004.jpg
1946.939	0.866	correct	pointing	Trial3	pointing/STIM_004.jpg
1950.06	0.897	correct	pointing	Trial3	pointing/STIM_004.jpg
1954.956	1.402	correct	pointing	Trial3	pointing/STIM_005.jpg
1960.135	0.783	correct	pointing	Trial3	pointing/STIM_005.jpg
1963.814	1.074	correct	pointing	Trial3	pointing/STIM_005.jpg
1968.039	0.955	correct	pointing	Trial3	pointing/STIM_005.jpg
1971.287	1.46	correct	pointing	Trial3	pointing/STIM_005.jpg
1976.138	0.841	correct	pointing	Trial3	pointing/STIM_005.jpg
1979.144	1.33	correct	pointing	Trial3	pointing/STIM_006.jpg
1983.087	0.935	incorrect	pointing	Trial3	pointing/STIM_006.jpg
1986.527	1.274	correct	pointing	Trial3	pointing/STIM_006.jpg
1991.02	0.894	correct	pointing	Trial3	pointing/STIM_006.jpg
1994.525	0.922	correct	pointing	Trial3	pointing/STIM_006.jpg
1997.523	1.163	correct	pointing	Trial3	pointing/STIM_006.jpg
2001.153	1.437	correct	pointing	Trial3	pointing/STIM_007.jpg
2006.391	0.895	correct	pointing	Trial3	pointing/STIM_007.jpg
2009.884	1.004	correct	pointing	Trial3	pointing/STIM_007.jpg
2013.827	0.936	correct	pointing	Trial3	pointing/STIM_007.jpg
2017.693	1.32	correct	pointing	Trial3	pointing/STIM_007.jpg
2021.217	1.164	correct	pointing	Trial3	pointing/STIM_007.jpg
2025.123	1.458	correct	pointing	Trial3	pointing/STIM_008.jpg
2030.425	1.141	correct	pointing	Trial3	pointing/STIM_008.jpg
2035.231	0.827	correct	pointing	Trial3	pointing/STIM_008.jpg
2038.772	1.186	correct	pointing	Trial3	pointing/STIM_008.jpg
2043.284	1.327	correct	pointing	Trial3	pointing/STIM_008.jpg
2047.926	1.4	correct	pointing	Trial3	pointing/STIM_008.jpg
2053.051	0.824	correct	pointing	Trial3	pointing/STIM_009.jpg
2056.281	1.311	correct	pointing	Trial3	pointing/STIM_009.jpg
2060.275	0.94	correct	pointing	Trial3	pointing/STIM_009.jpg
2064.211	1.273	correct	pointing	Trial3	pointing/STIM_009.jpg
2068.334	0.79	correct	pointing	Trial3	pointing/STIM_009.jpg
2072.854	1.254	correct	pointing	Trial3	pointing/STIM_009.jpg
2076.207	0.796	incorrect	pointing	Trial3	pointing/STIM_010.jpg
2079.291	1.254	correct	pointing	Trial3	pointing/STIM_010.jpg
2084.361	0.93	correct	pointing	Trial3	pointing/STIM_010.jpg
2088.512	1.365	correct	pointing	Trial3	pointing/STIM_010.jpg
2093.493	1.147	correct	pointing	Trial3	pointing/STIM_010.jpg
2096.776	1.367	correct	pointing	Trial3	pointing/STIM_010.jpg
2101.378	1.004	correct	pointing	Trial3	pointing/STIM_011.jpg
2105.821	1.197	correct	pointing	Trial3	pointing/STIM_011.jpg
2109.704	1.161	incorrect	pointing	Trial3	pointing/STIM_011.jpg
2114.32	1.01	correct	pointing	Trial3	pointing/STIM_011.jpg
2117.483	1.427	correct	pointing	Trial3	pointing/STIM_011.jpg
2122.094	0.88	correct	pointing	Trial3	pointing/STIM_011.jpg
