onset	duration	response_time_ms	trial_type	learning_stage	stimulus	response_port
0.0	2.766	2766.2	navigation	Trial1	navigation/STIM_000.jpg	100
5.269	2.877	2877.0	navigation	Trial1	navigation/STIM_000.jpg	100
12.239	1.636	1635.6	navigation	Trial1	navigation/STIM_000.jpg	99
17.024	2.925	2924.9	navigation	Trial1	navigation/STIM_000.jpg	100
23.191	2.558	2557.6	navigation	Trial1	navigation/STIM_000.jpg	100
28.293	2.279	2279.1	navigation	Trial1	navigation/STIM_000.jpg	100
33.855	3.224	3223.5	navigation	Trial1	navigation/STIM_001.jpg	100
41.094	2.854	2854.5	navigation	Trial1	navigation/STIM_001.jpg	99
47.585	3.765	3764.6	navigation	Trial1	navigation/STIM_001.jpg	100
55.257	2.377	2377.4	navigation	Trial1	navigation/STIM_001.jpg	100
61.748	3.329	3328.8	navigation	Trial1	navigation/STIM_001.jpg	99
69.534	2.144	2144.1	navigation	Trial1	navigation/STIM_001.jpg	100
74.245	3.933	3932.7	navigation	Trial1	navigation/STIM_002.jpg	100
81.996	3.238	3238.4	navigation	Trial1	navigation/STIM_002.jpg	100
89.024	1.661	1660.7	navigation	Trial1	navigation/STIM_002.jpg	100
93.694	2.43	2430.1	navigation	Trial1	navigation/STIM_002.jpg	100
99.414	2.38	2379.7	navigation	Trial1	navigation/STIM_002.jpg	100
104.828	1.611	1610.6	navigation	Trial1	navigation/STIM_002.jpg	100
109.975	4.378	4378.1	navigation	Trial1	navigation/STIM_003.jpg	99
117.035	3.456	3456.1	navigation	Trial1	navigation/STIM_003.jpg	100
124.258	2.645	2644.8	navigation	Trial1	navigation/STIM_003.jpg	99
129.655	3.206	3205.6	navigation	Trial1	navigation/STIM_003.jpg	99
135.99	2.247	2247.1	navigation	Trial1	navigation/STIM_003.jpg	100
141.612	2.16	2160.4	navigation	Trial1	navigation/STIM_003.jpg	99
146.67	1.841	1840.7	navigation	Trial1	navigation/STIM_004.jpg	100
152.475	3.348	3348.3	navigation	Trial1	navigation/STIM_004.jpg	99
159.336	2.112	2111.9	navigation	Trial1	navigation/STIM_004.jpg	100
163.989	3.394	3394.3	navigation	Trial1	navigation/STIM_004.jpg	99
171.549	3.001	3001.1	navigation	Trial1	navigation/STIM_004.jpg	99
178.567	1.645	1644.9	navigation	Trial1	navigation/STIM_004.jpg	100
184.106	2.677	2677.1	navigation	Trial1	navigation/STIM_005.jpg	100
190.05	2.976	2975.5	navigation	Trial1	navigation/STIM_005.jpg	99
196.59	3.278	3278.4	navigation	Trial1	navigation/STIM_005.jpg	100
203.208	1.673	1672.9	navigation	Trial1	navigation/STIM_005.jpg	100
208.544	3.215	3214.8	navigation	Trial1	navigation/STIM_005.jpg	100
215.077	1.82	1819.8	navigation	Trial1	navigation/STIM_005.jpg	99
219.49	3.18	3180.1	navigation	Trial1	navigation/STIM_006.jpg	99
226.284	2.561	2560.7	navigation	Trial1	navigation/STIM_006.jpg	100
232.505	1.679	1679.3	navigation	Trial1	navigation/STIM_006.jpg	99
237.138	3.58	3580.2	navigation	Trial1	navigation/STIM_006.jpg	100
243.795	1.436	1435.5	navigation	Trial1	navigation/STIM_006.jpg	99
248.742	2.874	2873.6	navigation	Trial1	navigation/STIM_006.jpg	100
254.889	2.135	2134.8	navigation	Trial1	navigation/STIM_007.jpg	100
261.134	2.691	2690.7	navigation	Trial1	navigation/STIM_007.jpg	99
266.582	2.737	2737.2	navigation	Trial1	navigation/STIM_007.jpg	99
273.277	1.398	1397.6	navigation	Trial1	navigation/STIM_007.jpg	100
277.161	2.143	2143.1	navigation	Trial1	navigation/STIM_007.jpg	100
282.447	3.174	3174.2	navigation	Trial1	navigation/STIM_007.jpg	100
290.044	3.824	3824.2	navigation	Trial1	navigation/STIM_008.jpg	100
297.297	3.218	3218.5	navigation	Trial1	navigation/STIM_008.jpg	100
304.052	1.838	1837.9	navigation	Trial1	navigation/STIM_008.jpg	99
309.324	3.49	3490.2	navigation	Trial1	navigation/STIM_008.jpg	99
317.214	3.196	3196.4	navigation	Trial1	navigation/STIM_008.jpg	99
324.566	1.683	1682.6	navigation	Trial1	navigation/STIM_008.jpg	99
328.955	3.261	3261.3	navigation	Trial1	navigation/STIM_009.jpg	99
335.41	3.71	3709.5	navigation	Trial1	navigation/STIM_009.jpg	99
341.85	2.226	2225.7	navigation	Trial1	navigation/STIM_009.jpg	99
347.432	1.518	1517.9	navigation	Trial1	navigation/STIM_009.jpg	100
351.537	2.58	2579.8	navigation	Trial1	navigation/STIM_009.jpg	100
357.926	3.062	3061.6	navigation	Trial1	navigation/STIM_009.jpg	99
365.207	3.61	3610.5	navigation	Trial1	navigation/STIM_010.jpg	99
371.511	2.235	2235.3	navigation	Trial1	navigation/STIM_010.jpg	100
378.008	2.415	2414.7	navigation	Trial1	navigation/STIM_010.jpg	99
382.79	3.47	3470.5	navigation	Trial1	navigation/STIM_010.jpg	99
389.537	2.955	2954.9	navigation	Trial1	navigation/STIM_010.jpg	99
395.662	2.738	2738.5	navigation	Trial1	navigation/STIM_010.jpg	100
402.62	2.064	2064.5	navigation	Trial1	navigation/STIM_011.jpg	100
407.942	2.638	2637.7	navigation	Trial1	navigation/STIM_011.jpg	100
413.028	3.741	3741.3	navigation	Trial1	navigation/STIM_011.jpg	100
420.971	1.646	1645.6	navigation	Trial1	navigation/STIM_011.jpg	100
426.613	1.702	1702.0	navigation	Trial1	navigation/STIM_011.jpg	100
430.691	1.736	1735.9	navigation	Trial1	navigation/STIM_011.jpg	100
436.123	1.171	1171.3	pointing	Trial1	pointing/STIM_000.jpg	100
440.306	1.394	1393.7	pointing	Trial1	pointing/STIM_000.jpg	100
445.63	1.144	1144.3	pointing	Trial1	pointing/STIM_000.jpg	100
450.003	1.048	1047.9	pointing	Trial1	pointing/STIM_000.jpg	99
453.848	1.114	1113.5	pointing	Trial1	pointing/STIM_000.jpg	99
457.847	1.041	1040.7	pointing	Trial1	pointing/STIM_000.jpg	99
461.61	1.112	1112.1	pointing	Trial1	pointing/STIM_001.jpg	100
466.099	1.281	1281.2	pointing	Trial1	pointing/STIM_001.jpg	99
471.538	0.842	842.2	pointing	Trial1	pointing/STIM_001.jpg	99
475.782	0.896	895.7	pointing	Trial1	pointing/STIM_001.jpg	99
479.933	1.012	1012.3	pointing	Trial1	pointing/STIM_001.jpg	100
484.537	1.08	1080.3	pointing	Trial1	pointing/STIM_001.jpg	99
489.553	1.262	1262.4	pointing	Trial1	pointing/STIM_002.jpg	100
494.273	1.148	1147.9	pointing	Trial1	pointing/STIM_002.jpg	100
497.946	1.209	1209.0	pointing	Trial1	pointing/STIM_002.jpg	100
502.657	1.164	1164.0	pointing	Trial1	pointing/STIM_002.jpg	100
507.167	1.056	1056.4	pointing	Trial1	pointing/STIM_002.jpg	99
512.121	0.776	776.3	pointing	Trial1	pointing/STIM_002.jpg	100
515.784	1.309	1309.0	pointing	Trial1	pointing/STIM_003.jpg	99
521.105	0.769	769.3	pointing	Trial1	pointing/STIM_003.jpg	100
524.423	0.722	721.6	pointing	Trial1	pointing/STIM_003.jpg	99
527.615	1.025	1025.1	pointing	Trial1	pointing/STIM_003.jpg	100
532.42	0.807	807.0	pointing	Trial1	pointing/STIM_003.jpg	99
535.676	1.013	1013.3	pointing	Trial1	pointing/STIM_003.jpg	100
540.694	0.952	952.2	pointing	Trial1	pointing/STIM_004.jpg	99
545.285	0.845	845.1	pointing	Trial1	pointing/STIM_004.jpg	100
549.709	1.275	1274.7	pointing	Trial1	pointing/STIM_004.jpg	99
554.915	0.831	831.0	pointing	Trial1	pointing/STIM_004.jpg	99
558.488	0.739	739.1	pointing	Trial1	pointing/STIM_004.jpg	100
562.687	1.101	1100.9	pointing	Trial1	pointing/STIM_004.jpg	100
567.5	1.169	1168.7	pointing	Trial1	pointing/STIM_005.jpg	99
572.737	0.884	883.8	pointing	Trial1	pointing/STIM_005.jpg	100
577.541	1.152	1151.6	pointing	Trial1	pointing/STIM_005.jpg	99
582.749	0.757	757.4	pointing	Trial1	pointing/STIM_005.jpg	99
586.466	1.055	1054.6	pointing	Trial1	pointing/STIM_005.jpg	100
590.551	0.67	669.7	pointing	Trial1	pointing/STIM_005.jpg	99
594.073	1.21	1210.5	pointing	Trial1	pointing/STIM_006.jpg	99
597.766	0.925	924.6	pointing	Trial1	pointing/STIM_006.jpg	100
601.657	1.342	1342.5	pointing	Trial1	pointing/STIM_006.jpg	100
606.791	0.929	929.0	pointing	Trial1	pointing/STIM_006.jpg	100
610.745	1.113	1113.3	pointing	Trial1	pointing/STIM_006.jpg	100
615.272	1.049	1049.0	pointing	Trial1	pointing/STIM_006.jpg	100
619.035	0.773	773.2	pointing	Trial1	pointing/STIM_007.jpg	100
622.717	0.776	775.9	pointing	Trial1	pointing/STIM_007.jpg	100
626.141	0.913	912.8	pointing	Trial1	pointing/STIM_007.jpg	100
629.286	1.097	1096.9	pointing	Trial1	pointing/STIM_007.jpg	100
632.559	1.253	1253.1	pointing	Trial1	pointing/STIM_007.jpg	99
636.725	1.084	1083.6	pointing	Trial1	pointing/STIM_007.jpg	100
640.446	0.894	893.8	pointing	Trial1	pointing/STIM_008.jpg	99
645.01	1.231	1230.8	pointing	Trial1	pointing/STIM_008.jpg	100
649.317	1.081	1080.6	pointing	Trial1	pointing/STIM_008.jpg	99
653.466	1.155	1154.7	pointing	Trial1	pointing/STIM_008.jpg	99
657.767	1.12	1120.1	pointing	Trial1	pointing/STIM_008.jpg	99
661.766	0.871	871.4	pointing	Trial1	pointing/STIM_008.jpg	99
665.179	1.009	1009.4	pointing	Trial1	pointing/STIM_009.jpg	100
669.862	0.925	924.8	pointing	Trial1	pointing/STIM_009.jpg	100
673.12	0.881	881.3	pointing	Trial1	pointing/STIM_009.jpg	99
677.293	1.3	1299.8	pointing	Trial1	pointing/STIM_009.jpg	99
680.996	0.959	959.3	pointing	Trial1	pointing/STIM_009.jpg	99
684.889	1.325	1324.6	pointing	Trial1	pointing/STIM_009.jpg	100
688.749	0.965	964.6	pointing	Trial1	pointing/STIM_010.jpg	99
692.46	0.985	984.9	pointing	Trial1	pointing/STIM_010.jpg	99
696.351	1.257	1257.0	pointing	Trial1	pointing/STIM_010.jpg	99
700.171	1.16	1160.4	pointing	Trial1	pointing/STIM_010.jpg	99
703.695	1.128	1128.0	pointing	Trial1	pointing/STIM_010.jpg	100
707.688	1.093	1092.7	pointing	Trial1	pointing/STIM_010.jpg	99
710.916	0.89	890.0	pointing	Trial1	pointing/STIM_011.jpg	99
715.784	1.011	1010.6	pointing	Trial1	pointing/STIM_011.jpg	99
720.401	0.98	980.1	pointing	Trial1	pointing/STIM_011.jpg	99
724.134	0.731	731.0	pointing	Trial1	pointing/STIM_011.jpg	99
727.927	1.291	1291.3	pointing	Trial1	pointing/STIM_011.jpg	99
732.521	1.128	1127.5	pointing	Trial1	pointing/STIM_011.jpg	100
737.774	3.657	3657.1	navigation	Trial2	navigation/STIM_000.jpg	99
744.821	1.484	1484.4	navigation	Trial2	navigation/STIM_000.jpg	100
750.347	2.264	2263.7	navigation	Trial2	navigation/STIM_000.jpg	100
756.212	2.422	2422.1	navigation	Trial2	navigation/STIM_000.jpg	100
762.673	1.781	1781.1	navigation	Trial2	navigation/STIM_000.jpg	100
766.878	1.214	1213.9	navigation	Trial2	navigation/STIM_000.jpg	100
770.441	1.716	1715.6	navigation	Trial2	navigation/STIM_001.jpg	100
774.853	2.947	2947.4	navigation	Trial2	navigation/STIM_001.jpg	99
781.567	3.073	3073.1	navigation	Trial2	navigation/STIM_001.jpg	99
787.327	2.022	2021.8	navigation	Trial2	navigation/STIM_001.jpg	100
793.219	2.89	2890.2	navigation	Trial2	navigation/STIM_001.jpg	100
799.809	3.074	3073.7	navigation	Trial2	navigation/STIM_001.jpg	100
805.382	1.512	1512.5	navigation	Trial2	navigation/STIM_002.jpg	99
810.571	2.201	2201.2	navigation	Trial2	navigation/STIM_002.jpg	99
816.103	3.169	3169.4	navigation	Trial2	navigation/STIM_002.jpg	100
823.693	1.385	1384.9	navigation	Trial2	navigation/STIM_002.jpg	100
827.296	1.766	1766.0	navigation	Trial2	navigation/STIM_002.jpg	99
832.635	1.691	1690.9	navigation	Trial2	navigation/STIM_002.jpg	99
837.451	3.447	3446.8	navigation	Trial2	navigation/STIM_003.jpg	99
845.117	1.552	1551.7	navigation	Trial2	navigation/STIM_003.jpg	100
850.539	3.306	3305.8	navigation	Trial2	navigation/STIM_003.jpg	100
857.431	2.416	2416.4	navigation	Trial2	navigation/STIM_003.jpg	99
863.284	2.068	2068.4	navigation	Trial2	navigation/STIM_003.jpg	99
869.373	2.794	2794.0	navigation	Trial2	navigation/STIM_003.jpg	99
875.815	2.807	2807.3	navigation	Trial2	navigation/STIM_004.jpg	100
882.888	2.673	2672.6	navigation	Trial2	navigation/STIM_004.jpg	99
889.017	2.194	2194.5	navigation	Trial2	navigation/STIM_004.jpg	99
895.488	2.773	2772.9	navigation	Trial2	navigation/STIM_004.jpg	99
900.873	1.425	1424.7	navigation	Trial2	navigation/STIM_004.jpg	99
904.946	1.996	1995.7	navigation	Trial2	navigation/STIM_004.jpg	100
910.028	2.496	2495.6	navigation	Trial2	navigation/STIM_005.jpg	100
915.338	3.272	3272.1	navigation	Trial2	navigation/STIM_005.jpg	100
921.151	2.678	2677.7	navigation	Trial2	navigation/STIM_005.jpg	99
926.518	2.125	2125.4	navigation	Trial2	navigation/STIM_005.jpg	99
931.401	2.796	2795.6	navigation	Trial2	navigation/STIM_005.jpg	99
936.66	1.448	1447.6	navigation	Trial2	navigation/STIM_005.jpg	99
941.726	2.062	2062.5	navigation	Trial2	navigation/STIM_006.jpg	99
947.498	2.931	2930.6	navigation	Trial2	navigation/STIM_006.jpg	99
953.582	2.454	2453.8	navigation	Trial2	navigation/STIM_006.jpg	100
959.749	1.419	1418.7	navigation	Trial2	navigation/STIM_006.jpg	99
964.775	1.639	1638.7	navigation	Trial2	navigation/STIM_006.jpg	100
969.399	2.104	2104.0	navigation	Trial2	navigation/STIM_006.jpg	100
975.634	2.26	2260.5	navigation	Trial2	navigation/STIM_007.jpg	100
982.089	1.646	1646.2	navigation	Trial2	navigation/STIM_007.jpg	100
987.363	2.21	2209.5	navigation	Trial2	navigation/STIM_007.jpg	100
992.013	2.468	2468.3	navigation	Trial2	navigation/STIM_007.jpg	100
997.76	1.79	1789.8	navigation	Trial2	navigation/STIM_007.jpg	100
1002.497	2.09	2090.4	navigation	Trial2	navigation/STIM_007.jpg	99
1008.394	3.232	3232.2	navigation	Trial2	navigation/STIM_008.jpg	99
1015.873	1.745	1745.3	navigation	Trial2	navigation/STIM_008.jpg	100
1021.495	3.056	3055.9	navigation	Trial2	navigation/STIM_008.jpg	99
1028.735	2.252	2251.8	navigation	Trial2	navigation/STIM_008.jpg	99
1034.906	2.197	2197.4	navigation	Trial2	navigation/STIM_008.jpg	99
1040.406	2.787	2787.0	navigation	Trial2	navigation/STIM_008.jpg	100
1045.922	1.741	1740.7	navigation	Trial2	navigation/STIM_009.jpg	100
1051.489	1.495	1495.3	navigation	Trial2	navigation/STIM_009.jpg	99
1056.293	1.85	1849.8	navigation	Trial2	navigation/STIM_009.jpg	100
1062.075	1.895	1895.2	navigation	Trial2	navigation/STIM_009.jpg	100
1066.7	3.01	3010.1	navigation	Trial2	navigation/STIM_009.jpg	99
1073.246	1.843	1843.1	navigation	Trial2	navigation/STIM_009.jpg	100
1077.63	3.008	3008.1	navigation	Trial2	navigation/STIM_010.jpg	100
1083.736	2.731	2731.2	navigation	Trial2	navigation/STIM_010.jpg	99
1089.471	1.498	1498.0	navigation	Trial2	navigation/STIM_010.jpg	100
1094.7	1.774	1773.8	navigation	Trial2	navigation/STIM_010.jpg	99
1099.753	2.51	2510.2	navigation	Trial2	navigation/STIM_010.jpg	100
1106.547	2.775	2774.7	navigation	Trial2	navigation/STIM_010.jpg	100
1112.459	3.675	3675.3	navigation	Trial2	navigation/STIM_011.jpg	100
1120.243	2.62	2619.7	navigation	Trial2	navigation/STIM_011.jpg	99
1126.264	2.366	2366.3	navigation	Trial2	navigation/STIM_011.jpg	99
1131.336	2.759	2758.8	navigation	Trial2	navigation/STIM_011.jpg	99
1137.241	2.013	2012.8	navigation	Trial2	navigation/STIM_011.jpg	99
1142.848	2.849	2849.1	navigation	Trial2	navigation/STIM_011.jpg	99
1149.06	1.174	1174.3	pointing	Trial2	pointing/STIM_000.jpg	100
1154.1	0.926	925.7	pointing	Trial2	pointing/STIM_000.jpg	100
1157.803	0.806	806.0	pointing	Trial2	pointing/STIM_000.jpg	100
1160.766	1.266	1265.7	pointing	Trial2	pointing/STIM_000.jpg	99
1164.51	0.811	811.3	pointing	Trial2	pointing/STIM_000.jpg	99
1167.413	0.756	756.0	pointing	Trial2	pointing/STIM_000.jpg	100
1171.292	1.075	1075.2	pointing	Trial2	pointing/STIM_001.jpg	100
1175.815	0.877	877.4	pointing	Trial2	pointing/STIM_001.jpg	99
1180.18	1.05	1050.0	pointing	Trial2	pointing/STIM_001.jpg	100
1185.167	0.9	900.3	pointing	Trial2	pointing/STIM_001.jpg	100
1190.056	1.234	1234.2	pointing	Trial2	pointing/STIM_001.jpg	99
1194.647	0.945	944.9	pointing	Trial2	pointing/STIM_001.jpg	99
1198.78	0.973	972.9	pointing	Trial2	pointing/STIM_002.jpg	100
1201.918	1.259	1259.2	pointing	Trial2	pointing/STIM_002.jpg	100
1206.36	1.23	1229.7	pointing	Trial2	pointing/STIM_002.jpg	100
1210.133	0.844	844.5	pointing	Trial2	pointing/STIM_002.jpg	100
1214.271	1.25	1249.8	pointing	Trial2	pointing/STIM_002.jpg	99
1218.727	1.253	1253.4	pointing	Trial2	pointing/STIM_002.jpg	100
1222.526	0.934	934.5	pointing	Trial2	pointing/STIM_003.jpg	100
1226.375	0.856	855.6	pointing	Trial2	pointing/STIM_003.jpg	100
1231.102	0.924	924.1	pointing	Trial2	pointing/STIM_003.jpg	100
1235.744	0.745	745.3	pointing	Trial2	pointing/STIM_003.jpg	99
1240.384	0.973	972.7	pointing	Trial2	pointing/STIM_003.jpg	100
1243.687	1.205	1205.3	pointing	Trial2	pointing/STIM_003.jpg	99
1248.343	0.899	899.0	pointing	Trial2	pointing/STIM_004.jpg	100
1251.512	0.871	870.8	pointing	Trial2	pointing/STIM_004.jpg	99
1255.405	0.713	712.6	pointing	Trial2	pointing/STIM_004.jpg	100
1259.583	1.169	1168.8	pointing	Trial2	pointing/STIM_004.jpg	100
1264.524	1.187	1187.4	pointing	Trial2	pointing/STIM_004.jpg	100
1269.878	1.18	1179.7	pointing	Trial2	pointing/STIM_004.jpg	99
1274.316	1.314	1313.9	pointing	Trial2	pointing/STIM_005.jpg	99
1278.546	0.957	957.1	pointing	Trial2	pointing/STIM_005.jpg	99
1283.418	1.024	1023.6	pointing	Trial2	pointing/STIM_005.jpg	100
1288.251	0.912	912.2	pointing	Trial2	pointing/STIM_005.jpg	99
1292.083	0.833	833.3	pointing	Trial2	pointing/STIM_005.jpg	99
1295.945	1.248	1248.3	pointing	Trial2	pointing/STIM_005.jpg	100
1299.743	1.208	1208.5	pointing	Trial2	pointing/STIM_006.jpg	100
1304.012	1.245	1245.4	pointing	Trial2	pointing/STIM_006.jpg	99
1307.39	0.903	903.0	pointing	Trial2	pointing/STIM_006.jpg	100
1312.249	0.966	965.6	pointing	Trial2	pointing/STIM_006.jpg	100
1315.769	1.04	1039.8	pointing	Trial2	pointing/STIM_006.jpg	100
1320.867	0.825	825.4	pointing	Trial2	pointing/STIM_006.jpg	99
1325.281	1.256	1255.6	pointing	Trial2	pointing/STIM_007.jpg	100
1330.058	0.825	824.7	pointing	Trial2	pointing/STIM_007.jpg	99
1333.014	1.094	1094.1	pointing	Trial2	pointing/STIM_007.jpg	99
1336.927	0.781	780.6	pointing	Trial2	pointing/STIM_007.jpg	100
1341.393	0.976	975.6	pointing	Trial2	pointing/STIM_007.jpg	99
1346.198	0.726	725.5	pointing	Trial2	pointing/STIM_007.jpg	99
1349.79	0.924	924.4	pointing	Trial2	pointing/STIM_008.jpg	100
1353.935	0.738	737.9	pointing	Trial2	pointing/STIM_008.jpg	99
1357.87	0.678	677.9	pointing	Trial2	pointing/STIM_008.jpg	100
1361.33	1.056	1056.1	pointing	Trial2	pointing/STIM_008.jpg	99
1364.811	0.977	976.9	pointing	Trial2	pointing/STIM_008.jpg	99
1367.947	0.854	854.2	pointing	Trial2	pointing/STIM_008.jpg	100
1370.904	1.058	1058.4	pointing	Trial2	pointing/STIM_009.jpg	99
1374.201	0.993	993.3	pointing	Trial2	pointing/STIM_009.jpg	100
1379.194	1.014	1014.4	pointing	Trial2	pointing/STIM_009.jpg	99
1384.318	0.928	928.2	pointing	Trial2	pointing/STIM_009.jpg	99
1387.735	1.088	1088.0	pointing	Trial2	pointing/STIM_009.jpg	100
1392.582	1.198	1197.5	pointing	Trial2	pointing/STIM_009.jpg	100
1397.348	1.028	1028.3	pointing	Trial2	pointing/STIM_010.jpg	100
1402.059	0.947	947.3	pointing	Trial2	pointing/STIM_010.jpg	99
1406.666	0.612	612.2	pointing	Trial2	pointing/STIM_010.jpg	99
1409.736	0.876	876.1	pointing	Trial2	pointing/STIM_010.jpg	100
1414.466	1.26	1260.2	pointing	Trial2	pointing/STIM_010.jpg	100
1417.803	0.826	825.9	pointing	Trial2	pointing/STIM_010.jpg	100
1422.061	0.873	873.1	pointing	Trial2	pointing/STIM_011.jpg	99
1426.733	1.255	1254.7	pointing	Trial2	pointing/STIM_011.jpg	99
1431.069	0.977	976.6	pointing	Trial2	pointing/STIM_011.jpg	100
1435.818	1.286	1286.1	pointing	Trial2	pointing/STIM_011.jpg	99
1440.671	1.204	1204.3	pointing	Trial2	pointing/STIM_011.jpg	100
1444.695	1.301	1301.1	pointing	Trial2	pointing/STIM_011.jpg	100
1448.285	3.014	3013.5	navigation	Trial3	navigation/STIM_000.jpg	100
1455.416	3.072	3071.8	navigation	Trial3	navigation/STIM_000.jpg	99
1461.774	2.669	2668.7	navigation	Trial3	navigation/STIM_000.jpg	99
1468.098	2.791	2791.0	navigation	Trial3	navigation/STIM_000.jpg	99
1473.245	2.599	2599.4	navigation	Trial3	navigation/STIM_000.jpg	99
1478.63	1.781	1780.8	navigation	Trial3	navigation/STIM_000.jpg	99
1483.628	1.271	1270.9	navigation	Trial3	navigation/STIM_001.jpg	99
1488.905	2.275	2275.4	navigation	Trial3	navigation/STIM_001.jpg	100
1493.844	1.681	1681.3	navigation	Trial3	navigation/STIM_001.jpg	99
1499.536	2.246	2246.1	navigation	Trial3	navigation/STIM_001.jpg	100
1503.99	2.587	2586.9	navigation	Trial3	navigation/STIM_001.jpg	100
1509.952	1.8	1800.3	navigation	Trial3	navigation/STIM_001.jpg	100
1515.305	2.637	2637.0	navigation	Trial3	navigation/STIM_002.jpg	99
1522.285	2.379	2379.0	navigation	Trial3	navigation/STIM_002.jpg	99
1527.985	2.102	2102.5	navigation	Trial3	navigation/STIM_002.jpg	100
1532.94	2.584	2583.9	navigation	Trial3	navigation/STIM_002.jpg	100
1538.903	1.627	1627.3	navigation	Trial3	navigation/STIM_002.jpg	99
1542.8	2.34	2340.5	navigation	Trial3	navigation/STIM_002.jpg	99
1549.546	2.026	2026.3	navigation	Trial3	navigation/STIM_003.jpg	99
1553.948	3.004	3004.4	navigation	Trial3	navigation/STIM_003.jpg	100
1560.428	1.564	1564.4	navigation	Trial3	navigation/STIM_003.jpg	99
1565.74	1.834	1834.4	navigation	Trial3	navigation/STIM_003.jpg	100
1571.316	2.351	2350.9	navigation	Trial3	navigation/STIM_003.jpg	100
1576.997	2.374	2374.3	navigation	Trial3	navigation/STIM_003.jpg	99
1581.835	2.941	2941.0	navigation	Trial3	navigation/STIM_004.jpg	99
1588.194	1.352	1351.5	navigation	Trial3	navigation/STIM_004.jpg	100
1593.59	2.568	2568.3	navigation	Trial3	navigation/STIM_004.jpg	100
1598.781	1.786	1786.5	navigation	Trial3	navigation/STIM_004.jpg	100
1603.91	2.694	2694.1	navigation	Trial3	navigation/STIM_004.jpg	100
1610.72	2.332	2332.1	navigation	Trial3	navigation/STIM_004.jpg	99
1615.716	2.984	2984.2	navigation	Trial3	navigation/STIM_005.jpg	99
1621.765	1.238	1238.4	navigation	Trial3	navigation/STIM_005.jpg	99
1625.893	1.257	1257.4	navigation	Trial3	navigation/STIM_005.jpg	99
1630.658	1.25	1249.6	navigation	Trial3	navigation/STIM_005.jpg	100
1634.271	2.098	2097.7	navigation	Trial3	navigation/STIM_005.jpg	99
1639.523	2.333	2332.7	navigation	Trial3	navigation/STIM_005.jpg	100
1645.999	2.728	2727.5	navigation	Trial3	navigation/STIM_006.jpg	99
1652.205	2.918	2918.4	navigation	Trial3	navigation/STIM_006.jpg	100
1658.265	2.923	2922.9	navigation	Trial3	navigation/STIM_006.jpg	100
1665.559	2.036	2036.1	navigation	Trial3	navigation/STIM_006.jpg	100
1670.74	2.628	2628.2	navigation	Trial3	navigation/STIM_006.jpg	100
1676.515	1.826	1826.2	navigation	Trial3	navigation/STIM_006.jpg	99
1682.105	1.964	1963.7	navigation	Trial3	navigation/STIM_007.jpg	99
1688.316	2.392	2391.6	navigation	Trial3	navigation/STIM_007.jpg	99
1693.974	2.908	2907.5	navigation	Trial3	navigation/STIM_007.jpg	99
1700.51	1.232	1232.4	navigation	Trial3	navigation/STIM_007.jpg	100
1704.753	2.021	2021.4	navigation	Trial3	navigation/STIM_007.jpg	99
1709.186	2.693	2692.8	navigation	Trial3	navigation/STIM_007.jpg	99
1716.212	2.475	2474.6	navigation	Trial3	navigation/STIM_008.jpg	100
1721.254	1.31	1310.2	navigation	Trial3	navigation/STIM_008.jpg	99
1724.879	2.843	2842.7	navigation	Trial3	navigation/STIM_008.jpg	99
1731.612	2.34	2340.3	navigation	Trial3	navigation/STIM_008.jpg	100
1737.657	2.81	2810.5	navigation	Trial3	navigation/STIM_008.jpg	99
1744.13	2.018	2017.7	navigation	Trial3	navigation/STIM_008.jpg	100
1748.445	2.15	2149.6	navigation	Trial3	navigation/STIM_009.jpg	100
1754.775	2.365	2364.7	navigation	Trial3	navigation/STIM_009.jpg	100
1760.357	2.586	2585.5	navigation	Trial3	navigation/STIM_009.jpg	99
1766.555	1.318	1317.8	navigation	Trial3	navigation/STIM_009.jpg	99
1771.894	1.68	1679.9	navigation	Trial3	navigation/STIM_009.jpg	99
1777.489	2.142	2141.8	navigation	Trial3	navigation/STIM_009.jpg	100
1782.72	2.04	2039.7	navigation	Trial3	navigation/STIM_010.jpg	100
1787.374	2.87	2870.1	navigation	Trial3	navigation/STIM_010.jpg	100
1793.366	2.218	2217.6	navigation	Trial3	navigation/STIM_010.jpg	99
1799.548	2.595	2595.0	navigation	Trial3	navigation/STIM_010.jpg	100
1804.516	2.243	2242.9	navigation	Trial3	navigation/STIM_010.jpg	99
1810.044	1.514	1513.6	navigation	Trial3	navigation/STIM_010.jpg	99
1814.021	2.456	2456.5	navigation	Trial3	navigation/STIM_011.jpg	99
1819.105	2.113	2113.3	navigation	Trial3	navigation/STIM_011.jpg	99
1824.442	2.202	2201.8	navigation	Trial3	navigation/STIM_011.jpg	99
1830.0	1.751	1750.6	navigation	Trial3	navigation/STIM_011.jpg	100
1834.322	1.797	1796.9	navigation	Trial3	navigation/STIM_011.jpg	100
1839.854	1.621	1621.2	navigation	Trial3	navigation/STIM_011.jpg	99
1844.792	1.003	1003.1	pointing	Trial3	pointing/STIM_000.jpg	100
1849.204	1.112	1111.9	pointing	Trial3	pointing/STIM_000.jpg	99
1852.855	0.754	754.0	pointing	Trial3	pointing/STIM_000.jpg	99
1857.587	0.848	848.2	pointing	Trial3	pointing/STIM_000.jpg	99
1862.131	1.108	1108.1	pointing	Trial3	pointing/STIM_000.jpg	99
1867.29	0.888	887.9	pointing	Trial3	pointing/STIM_000.jpg	99
1871.011	0.916	916.3	pointing	Trial3	pointing/STIM_001.jpg	99
1874.391	0.764	763.8	pointing	Trial3	pointing/STIM_001.jpg	100
1878.745	1.176	1176.1	pointing	Trial3	pointing/STIM_001.jpg	100
1883.602	1.214	1214.5	pointing	Trial3	pointing/STIM_001.jpg	100
1887.483	0.884	883.8	pointing	Trial3	pointing/STIM_001.jpg	99
1891.156	0.746	745.9	pointing	Trial3	pointing/STIM_001.jpg	100
1895.099	0.765	765.3	pointing	Trial3	pointing/STIM_002.jpg	100
1899.739	1.134	1133.9	pointing	Trial3	pointing/STIM_002.jpg	99
1903.968	0.891	891.1	pointing	Trial3	pointing/STIM_002.jpg	100
1908.011	1.394	1393.8	pointing	Trial3	pointing/STIM_002.jpg	100
1912.409	1.031	1031.2	pointing	Trial3	pointing/STIM_002.jpg	99
1915.772	1.281	1281.2	pointing	Trial3	pointing/STIM_002.jpg	100
1919.447	1.328	1327.9	pointing	Trial3	pointing/STIM_003.jpg	100
1924.391	0.938	937.9	pointing	Trial3	pointing/STIM_003.jpg	100
1927.963	0.788	788.5	pointing	Trial3	pointing/STIM_003.jpg	100
1931.701	0.991	990.9	pointing	Trial3	pointing/STIM_003.jpg	99
1935.925	0.866	866.2	pointing	Trial3	pointing/STIM_003.jpg	100
1940.781	1.044	1044.2	pointing	Trial3	pointing/STIM_003.jpg	99
1945.252	0.852	852.3	pointing	Trial3	pointing/STIM_004.jpg	100
1950.174	1.093	1093.1	pointing	Trial3	pointing/STIM_004.jpg	99
1954.091	1.215	1215.2	pointing	Trial3	pointing/STIM_004.jpg	99
1957.489	1.361	1361.3	pointing	Trial3	pointing/STIM_004.jpg	100
1962.131	1.0	1000.1	pointing	Trial3	pointing/STIM_004.jpg	99
1965.909	1.029	1028.9	pointing	Trial3	pointing/STIM_004.jpg	99
1971.061	1.165	1165.3	pointing	Trial3	pointing/STIM_005.jpg	100
1976.189	0.928	928.5	pointing	Trial3	pointing/STIM_005.jpg	99
1979.766	1.034	1033.5	pointing	Trial3	pointing/STIM_005.jpg	99
1984.365	0.716	716.1	pointing	Trial3	pointing/STIM_005.jpg	99
1987.932	1.222	1222.0	pointing	Trial3	pointing/STIM_005.jpg	100
1992.815	0.99	990.5	pointing	Trial3	pointing/STIM_005.jpg	100
1997.495	0.886	886.1	pointing	Trial3	pointing/STIM_006.jpg	99
2000.851	1.357	1357.0	pointing	Trial3	pointing/STIM_006.jpg	99
2005.3	1.128	1127.6	pointing	Trial3	pointing/STIM_006.jpg	99
2010.154	1.195	1194.6	pointing	Trial3	pointing/STIM_006.jpg	99
2014.457	1.055	1054.9	pointing	Trial3	pointing/STIM_006.jpg	99
2019.586	0.816	816.1	pointing	Trial3	pointing/STIM_006.jpg	100
2024.53	1.275	1274.8	pointing	Trial3	pointing/STIM_007.jpg	100
2028.058	0.834	834.2	pointing	Trial3	pointing/STIM_007.jpg	99
2031.043	0.778	778.2	pointing	Trial3	pointing/STIM_007.jpg	100
2034.28	1.311	1311.0	pointing	Trial3	pointing/STIM_007.jpg	100
2038.977	1.289	1289.4	pointing	Trial3	pointing/STIM_007.jpg	99
2044.223	1.069	1068.6	pointing	Trial3	pointing/STIM_007.jpg	99
2049.043	0.728	727.7	pointing	Trial3	pointing/STIM_008.jpg	99
2051.98	1.156	1156.5	pointing	Trial3	pointing/STIM_008.jpg	100
2056.611	1.006	1005.5	pointing	Trial3	pointing/STIM_008.jpg	99
2061.225	0.826	826.4	pointing	Trial3	pointing/STIM_008.jpg	99
2066.2	0.872	872.1	pointing	Trial3	pointing/STIM_008.jpg	99
2069.825	0.892	892.5	pointing	Trial3	pointing/STIM_008.jpg	100
2074.387	1.138	1137.6	pointing	Trial3	pointing/STIM_009.jpg	99
2079.017	1.09	1090.2	pointing	Trial3	pointing/STIM_009.jpg	100
2082.806	0.799	799.4	pointing	Trial3	pointing/STIM_009.jpg	99
2087.068	1.094	1094.2	pointing	Trial3	pointing/STIM_009.jpg	100
2091.503	0.98	980.1	pointing	Trial3	pointing/STIM_009.jpg	100
2096.503	0.846	846.1	pointing	Trial3	pointing/STIM_009.jpg	100
2100.325	0.994	993.6	pointing	Trial3	pointing/STIM_010.jpg	99
2105.333	0.935	935.3	pointing	Trial3	pointing/STIM_010.jpg	100
2109.485	0.725	725.4	pointing	Trial3	pointing/STIM_010.jpg	100
2113.338	0.724	724.4	pointing	Trial3	pointing/STIM_010.jpg	100
2117.244	1.038	1037.5	pointing	Trial3	pointing/STIM_010.jpg	100
2122.167	1.195	1194.6	pointing	Trial3	pointing/STIM_010.jpg	99
2126.465	0.672	672.3	pointing	Trial3	pointing/STIM_011.jpg	100
2129.987	1.143	1143.4	pointing	Trial3	pointing/STIM_011.jpg	100
2133.851	0.87	869.8	pointing	Trial3	pointing/STIM_011.jpg	100
2137.126	1.34	1340.4	pointing	Trial3	pointing/STIM_011.jpg	100
2140.855	0.939	939.4	pointing	Trial3	pointing/STIM_011.jpg	99
2145.562	1.05	1049.7	pointing	Trial3	pointing/STIM_011.jpg	100
